timestamp,ax,ay,az,q0,q1,q2,q3
5251007,10884.0,6449.0,2945.0,0.596,0.541,-0.176,0.566
5251034,10060.0,6063.0,3185.0,0.571,0.554,-0.184,0.577
5251050,10018.0,6719.0,3699.0,0.547,0.566,-0.192,0.586
5251066,10358.0,5805.0,3243.0,0.523,0.577,-0.2,0.595
5251082,10200.0,5889.0,2391.0,0.499,0.586,-0.21,0.603
5251098,10016.0,5427.0,2435.0,0.476,0.593,-0.22,0.611
5251114,10162.0,4571.0,2523.0,0.454,0.599,-0.232,0.617
5251140,10742.0,4531.0,2017.0,0.433,0.606,-0.242,0.622
5251157,11540.0,5623.0,1679.0,0.413,0.61,-0.251,0.628
5251174,10804.0,5081.0,1485.0,0.395,0.611,-0.262,0.634
5251190,9544.0,3291.0,1929.0,0.378,0.612,-0.274,0.639
5251207,9902.0,6111.0,2127.0,0.36,0.615,-0.282,0.642
5251224,9550.0,4441.0,1935.0,0.345,0.616,-0.294,0.644
5251241,10420.0,4311.0,1407.0,0.332,0.617,-0.305,0.645
5251258,9902.0,4097.0,1295.0,0.322,0.616,-0.315,0.646
5251274,9434.0,4199.0,1941.0,0.313,0.615,-0.325,0.647
5251291,8704.0,4145.0,1917.0,0.305,0.613,-0.334,0.648
5251308,8728.0,4423.0,1749.0,0.3,0.612,-0.342,0.647
5251334,8962.0,5211.0,1815.0,0.298,0.61,-0.351,0.645
5251350,8534.0,4403.0,2239.0,0.298,0.607,-0.36,0.643
5251366,8518.0,4043.0,1699.0,0.3,0.604,-0.367,0.64
5251382,8366.0,4419.0,2465.0,0.304,0.602,-0.373,0.638
5251398,8718.0,4843.0,2909.0,0.311,0.599,-0.377,0.635
5251414,8834.0,4749.0,2531.0,0.319,0.596,-0.381,0.631
5251440,9132.0,4685.0,2395.0,0.329,0.592,-0.382,0.629
5251457,9422.0,5137.0,2893.0,0.341,0.588,-0.382,0.626
5251474,9348.0,4155.0,2675.0,0.357,0.583,-0.38,0.623
5251491,10050.0,4355.0,2563.0,0.373,0.578,-0.376,0.62
5251508,11084.0,6163.0,1443.0,0.391,0.572,-0.37,0.619
5251525,10890.0,4589.0,3301.0,0.413,0.566,-0.363,0.615
5251541,11232.0,3911.0,3409.0,0.434,0.56,-0.354,0.61
5251557,12204.0,5287.0,2891.0,0.458,0.553,-0.344,0.605
5251574,12842.0,5305.0,2901.0,0.483,0.545,-0.333,0.598
5251591,12708.0,4075.0,3533.0,0.51,0.536,-0.321,0.591
5251617,13046.0,4291.0,3519.0,0.536,0.528,-0.308,0.583
5251633,13630.0,5259.0,2897.0,0.563,0.519,-0.293,0.573
5251649,13468.0,4397.0,3377.0,0.59,0.508,-0.278,0.563
5251665,12258.0,4079.0,4361.0,0.617,0.496,-0.262,0.552
5251681,11706.0,5123.0,4445.0,0.643,0.486,-0.246,0.539
5251697,12026.0,6623.0,4045.0,0.669,0.473,-0.232,0.525
5251723,12582.0,4547.0,4315.0,0.694,0.457,-0.22,0.511
5251740,12682.0,3923.0,3191.0,0.717,0.442,-0.205,0.498
5251757,12550.0,3865.0,2905.0,0.739,0.425,-0.188,0.487
5251774,11740.0,3127.0,3587.0,0.76,0.408,-0.169,0.476
5251791,10780.0,3929.0,3815.0,0.78,0.392,-0.148,0.465
5251808,10156.0,3753.0,4075.0,0.798,0.375,-0.127,0.454
5251824,8962.0,3605.0,4403.0,0.815,0.358,-0.107,0.443
5251841,8008.0,3207.0,4079.0,0.83,0.342,-0.088,0.431
5251858,7246.0,2995.0,3469.0,0.844,0.327,-0.071,0.42
5251874,6266.0,3043.0,4015.0,0.856,0.312,-0.055,0.41
5251891,5826.0,2805.0,3869.0,0.866,0.297,-0.04,0.4
5251918,5338.0,2067.0,3271.0,0.876,0.284,-0.026,0.39
5251934,4922.0,2293.0,3323.0,0.884,0.271,-0.011,0.381
5251950,4320.0,2529.0,3663.0,0.891,0.258,0.002,0.373
5251966,3872.0,1087.0,3397.0,0.898,0.245,0.014,0.364
5251982,3074.0,1097.0,3529.0,0.904,0.235,0.026,0.356
5251998,2780.0,2015.0,3267.0,0.909,0.227,0.037,0.348
5252024,2340.0,1691.0,3627.0,0.913,0.218,0.046,0.341
5252040,2426.0,1461.0,2411.0,0.917,0.211,0.053,0.333
5252056,2184.0,623.0,2025.0,0.921,0.202,0.062,0.327
5252072,1360.0,99.0,2107.0,0.925,0.193,0.07,0.32
5252088,-2.0,467.0,2559.0,0.928,0.184,0.079,0.315
5252104,-1012.0,151.0,3159.0,0.931,0.174,0.086,0.31
5252130,-1244.0,-1075.0,2417.0,0.933,0.166,0.092,0.306
5252146,-6.0,-493.0,1487.0,0.934,0.162,0.098,0.303
5252162,564.0,661.0,1059.0,0.935,0.157,0.106,0.301
5252178,-528.0,-1031.0,1189.0,0.935,0.15,0.115,0.3
5252194,-1634.0,-2129.0,1677.0,0.935,0.145,0.124,0.3
5252210,-1952.0,-1335.0,1491.0,0.934,0.143,0.131,0.3
5252236,-1782.0,-81.0,1733.0,0.934,0.142,0.134,0.3
5252252,-1676.0,-243.0,1551.0,0.933,0.142,0.134,0.302
5252268,-1544.0,-1203.0,1771.0,0.932,0.142,0.131,0.305
5252284,-1082.0,-531.0,1999.0,0.932,0.144,0.126,0.309
5252300,-870.0,21.0,2193.0,0.931,0.148,0.118,0.313
5252316,-282.0,277.0,2377.0,0.93,0.153,0.108,0.317
5252342,434.0,709.0,2589.0,0.928,0.159,0.096,0.322
5252358,440.0,755.0,3409.0,0.926,0.165,0.083,0.328
5252374,1086.0,957.0,3365.0,0.924,0.174,0.069,0.333
5252390,1156.0,2203.0,3399.0,0.921,0.184,0.053,0.339
5252406,2080.0,4707.0,4823.0,0.919,0.191,0.035,0.344
5252422,2906.0,4335.0,5699.0,0.917,0.195,0.011,0.348
5252448,3576.0,1809.0,5179.0,0.915,0.196,-0.015,0.351
5252464,4238.0,-1185.0,4749.0,0.912,0.204,-0.038,0.355
5252480,5768.0,933.0,4593.0,0.906,0.218,-0.056,0.359
5252496,6182.0,3463.0,5563.0,0.899,0.234,-0.071,0.364
5252513,5450.0,2967.0,5927.0,0.891,0.25,-0.085,0.37
5252529,5530.0,4133.0,6511.0,0.882,0.267,-0.099,0.376
5252555,4922.0,4581.0,7017.0,0.871,0.284,-0.114,0.384
5252571,5500.0,4397.0,7077.0,0.859,0.301,-0.131,0.392
5252587,5328.0,4099.0,6737.0,0.846,0.319,-0.148,0.4
5252603,6714.0,4319.0,6379.0,0.832,0.335,-0.167,0.409
5252619,7054.0,3907.0,5573.0,0.817,0.352,-0.185,0.419
5252635,8406.0,4167.0,4919.0,0.8,0.368,-0.2,0.43
5252661,8920.0,3811.0,5015.0,0.782,0.384,-0.212,0.442
5252677,9168.0,4539.0,5561.0,0.764,0.4,-0.222,0.455
5252693,9418.0,5035.0,5065.0,0.744,0.416,-0.231,0.468
5252709,9734.0,5519.0,4857.0,0.724,0.431,-0.241,0.482
5252725,8768.0,5129.0,4339.0,0.704,0.444,-0.251,0.494
5252741,9222.0,5449.0,4447.0,0.683,0.456,-0.263,0.506
5252767,9696.0,4527.0,3601.0,0.662,0.468,-0.275,0.517
5252783,9996.0,3963.0,3575.0,0.641,0.479,-0.287,0.528
5252799,10642.0,5449.0,3153.0,0.619,0.488,-0.3,0.538
5252815,9600.0,3861.0,3117.0,0.597,0.496,-0.313,0.547
5252831,10148.0,3267.0,2861.0,0.576,0.504,-0.326,0.555
5252847,10310.0,2859.0,3069.0,0.554,0.512,-0.337,0.563
5252873,10662.0,3389.0,2281.0,0.531,0.52,-0.348,0.572
5252890,11018.0,4611.0,1989.0,0.509,0.526,-0.358,0.58
5252907,10722.0,4721.0,2843.0,0.488,0.531,-0.369,0.587
5252924,10564.0,3527.0,2963.0,0.469,0.534,-0.381,0.592
5252940,10890.0,3681.0,2769.0,0.451,0.537,-0.392,0.595
5252956,10764.0,3427.0,2711.0,0.434,0.54,-0.404,0.597
5252973,10528.0,2991.0,2753.0,0.419,0.542,-0.415,0.598
5252989,10468.0,3249.0,2569.0,0.405,0.545,-0.425,0.599
5253006,10006.0,3125.0,2855.0,0.393,0.547,-0.433,0.599
5253033,9542.0,3413.0,3823.0,0.383,0.549,-0.441,0.598
5253049,9314.0,3605.0,3859.0,0.376,0.551,-0.447,0.596
5253065,9092.0,3925.0,3615.0,0.37,0.553,-0.454,0.593
5253081,9172.0,3501.0,3539.0,0.367,0.555,-0.459,0.589
5253097,9220.0,3519.0,3369.0,0.367,0.556,-0.462,0.586
5253113,9152.0,4079.0,3353.0,0.369,0.556,-0.464,0.582
5253139,8876.0,3541.0,3811.0,0.374,0.556,-0.464,0.58
5253156,8866.0,3307.0,3909.0,0.381,0.555,-0.463,0.577
5253173,9254.0,3881.0,3593.0,0.39,0.554,-0.459,0.575
5253190,8880.0,3319.0,4261.0,0.4,0.55,-0.455,0.575
5253207,9702.0,4155.0,3903.0,0.412,0.547,-0.448,0.574
5253223,10164.0,4627.0,2973.0,0.427,0.544,-0.44,0.574
5253239,10684.0,3811.0,3505.0,0.443,0.539,-0.431,0.573
5253255,11214.0,3595.0,3555.0,0.461,0.534,-0.419,0.571
5253281,11634.0,3833.0,3111.0,0.481,0.529,-0.406,0.57
5253297,12200.0,3761.0,3791.0,0.501,0.523,-0.391,0.567
5253314,11850.0,4675.0,3883.0,0.524,0.517,-0.377,0.562
5253330,12566.0,4635.0,4119.0,0.547,0.511,-0.361,0.557
5253346,12682.0,4885.0,3767.0,0.57,0.504,-0.345,0.55
5253362,12422.0,4643.0,4149.0,0.595,0.495,-0.33,0.541
5253378,12336.0,4831.0,4379.0,0.62,0.486,-0.314,0.53
5253404,12000.0,5311.0,4599.0,0.645,0.475,-0.298,0.519
5253420,12278.0,5477.0,5683.0,0.669,0.464,-0.285,0.506
5253436,13192.0,3623.0,4075.0,0.692,0.451,-0.27,0.495
5253452,13330.0,4415.0,2633.0,0.714,0.437,-0.252,0.485
5253468,13060.0,5065.0,3055.0,0.736,0.421,-0.232,0.477
5253494,11448.0,3591.0,4649.0,0.756,0.404,-0.211,0.47
5253510,11554.0,3903.0,4459.0,0.775,0.388,-0.188,0.462
5253526,11188.0,4757.0,4245.0,0.794,0.371,-0.166,0.453
5253542,10264.0,3887.0,3907.0,0.811,0.353,-0.144,0.443
5253558,9354.0,3319.0,4109.0,0.827,0.336,-0.122,0.434
5253574,8414.0,3433.0,3831.0,0.842,0.318,-0.1,0.423
5253600,7672.0,3527.0,4169.0,0.856,0.301,-0.08,0.413
5253616,6540.0,2655.0,3855.0,0.868,0.284,-0.061,0.403
5253632,5570.0,2575.0,3713.0,0.879,0.268,-0.043,0.393
5253648,5138.0,2671.0,3563.0,0.888,0.253,-0.025,0.383
5253664,4450.0,2793.0,3629.0,0.896,0.237,-0.009,0.374
5253680,3984.0,2121.0,3785.0,0.904,0.222,0.005,0.365
5253706,3758.0,1381.0,3459.0,0.911,0.208,0.018,0.357
5253723,2774.0,1647.0,4153.0,0.916,0.196,0.03,0.348
5253740,1936.0,999.0,4259.0,0.921,0.185,0.041,0.34
5253757,1892.0,1001.0,2983.0,0.925,0.176,0.051,0.332
5253773,1298.0,985.0,3871.0,0.928,0.168,0.061,0.326
5253789,60.0,1097.0,3571.0,0.931,0.161,0.07,0.321
5253805,-94.0,203.0,2229.0,0.932,0.155,0.079,0.316
5253821,1502.0,565.0,1271.0,0.934,0.15,0.09,0.312
5253847,540.0,319.0,1741.0,0.935,0.143,0.104,0.309
5253863,-724.0,63.0,1473.0,0.935,0.136,0.117,0.305
5253879,-1712.0,-13.0,2187.0,0.936,0.13,0.128,0.301
5253895,-2186.0,-947.0,1943.0,0.937,0.124,0.135,0.299
5253911,-1878.0,-977.0,1433.0,0.937,0.121,0.139,0.296
5253927,-1706.0,-959.0,1083.0,0.938,0.12,0.14,0.293
5253954,-2018.0,-1931.0,1079.0,0.939,0.12,0.14,0.292
5253970,-2310.0,-1505.0,1447.0,0.939,0.121,0.138,0.291
5253986,-2358.0,-881.0,1723.0,0.939,0.125,0.133,0.291
5254002,-1750.0,-873.0,1589.0,0.939,0.13,0.126,0.292
5254018,-1452.0,-1109.0,2007.0,0.939,0.136,0.116,0.294
5254034,-366.0,-727.0,1767.0,0.938,0.143,0.105,0.296
5254060,248.0,-413.0,2105.0,0.938,0.151,0.093,0.299
5254076,806.0,167.0,2299.0,0.936,0.16,0.081,0.303
5254092,1428.0,893.0,2629.0,0.934,0.168,0.069,0.307
5254108,1812.0,785.0,3365.0,0.932,0.177,0.056,0.311
5254124,2216.0,997.0,3591.0,0.93,0.186,0.042,0.315
5254140,2638.0,881.0,3865.0,0.926,0.197,0.027,0.32
5254166,2850.0,1135.0,3869.0,0.922,0.211,0.012,0.324
5254182,3684.0,3181.0,3747.0,0.917,0.225,-0.003,0.33
5254198,4024.0,3303.0,4329.0,0.911,0.238,-0.019,0.337
5254214,4218.0,1959.0,4605.0,0.903,0.253,-0.037,0.345
5254230,5740.0,2593.0,3621.0,0.895,0.27,-0.053,0.352
5254246,5434.0,2749.0,4079.0,0.884,0.289,-0.069,0.361
5254272,6202.0,3887.0,4037.0,0.872,0.31,-0.085,0.37
5254289,6354.0,4213.0,4279.0,0.857,0.332,-0.101,0.381
5254306,7100.0,4493.0,4413.0,0.841,0.355,-0.118,0.391
5254323,7340.0,4635.0,4573.0,0.823,0.38,-0.134,0.4
5254340,9180.0,5829.0,4031.0,0.804,0.406,-0.151,0.409
5254356,10068.0,5149.0,3365.0,0.783,0.43,-0.165,0.418
5254373,10506.0,5601.0,3341.0,0.761,0.454,-0.177,0.428
5254390,10250.0,6729.0,3849.0,0.738,0.477,-0.187,0.439
5254406,10328.0,7141.0,3953.0,0.714,0.499,-0.198,0.45
5254423,10754.0,6153.0,3307.0,0.688,0.52,-0.207,0.462
5254440,11234.0,6943.0,2549.0,0.662,0.539,-0.216,0.474
5254466,10800.0,6925.0,3581.0,0.636,0.556,-0.224,0.486
5254482,11246.0,8167.0,3665.0,0.61,0.571,-0.232,0.498
5254498,11066.0,7029.0,3189.0,0.585,0.583,-0.241,0.509
5254514,10920.0,5995.0,3853.0,0.56,0.595,-0.248,0.52
5254530,10694.0,6723.0,3203.0,0.535,0.606,-0.253,0.532
5254547,10876.0,6737.0,2809.0,0.509,0.616,-0.257,0.544
5254573,10918.0,6437.0,1571.0,0.485,0.623,-0.259,0.556
5254589,10948.0,6801.0,1535.0,0.461,0.629,-0.259,0.569
5254605,10256.0,7335.0,1911.0,0.438,0.634,-0.259,0.583
5254621,9814.0,7163.0,2015.0,0.418,0.636,-0.26,0.594
5254637,9940.0,7371.0,1763.0,0.399,0.637,-0.262,0.605
5254653,9430.0,6277.0,1337.0,0.383,0.638,-0.265,0.613
5254679,9422.0,6427.0,1211.0,0.368,0.638,-0.268,0.621
5254695,9020.0,6353.0,1391.0,0.356,0.637,-0.272,0.627
5254711,8752.0,6009.0,1171.0,0.347,0.636,-0.277,0.631
5254727,8668.0,6287.0,1005.0,0.339,0.635,-0.283,0.634
5254743,8490.0,6727.0,1045.0,0.334,0.632,-0.29,0.636
5254759,8102.0,6469.0,1305.0,0.332,0.629,-0.298,0.636
5254785,8328.0,6329.0,1125.0,0.332,0.626,-0.308,0.635
5254801,8392.0,5773.0,1249.0,0.335,0.621,-0.317,0.633
5254817,8526.0,5595.0,1453.0,0.341,0.617,-0.326,0.631
5254833,8216.0,5587.0,1841.0,0.348,0.612,-0.333,0.627
5254849,8364.0,5763.0,1761.0,0.358,0.607,-0.338,0.624
5254865,8468.0,6203.0,2779.0,0.37,0.602,-0.343,0.619
5254891,8640.0,5425.0,2363.0,0.385,0.598,-0.347,0.612
5254907,9412.0,6269.0,2225.0,0.401,0.593,-0.348,0.606
5254923,9638.0,6053.0,2151.0,0.419,0.587,-0.348,0.599
5254939,9006.0,6885.0,1745.0,0.439,0.58,-0.347,0.592
5254956,10106.0,6005.0,2797.0,0.461,0.573,-0.344,0.584
5254972,11232.0,6889.0,3445.0,0.485,0.566,-0.34,0.574
5254998,11952.0,6455.0,3225.0,0.511,0.558,-0.335,0.562
5255014,12754.0,6195.0,2967.0,0.538,0.549,-0.329,0.549
5255030,13414.0,6651.0,3077.0,0.567,0.538,-0.321,0.535
5255046,13518.0,5985.0,2875.0,0.596,0.526,-0.313,0.52
5255062,13640.0,5591.0,3083.0,0.624,0.513,-0.302,0.506
5255080,13518.0,5425.0,3031.0,0.652,0.499,-0.29,0.492
5255096,13350.0,5545.0,3175.0,0.679,0.484,-0.275,0.478
5255122,12786.0,5125.0,3167.0,0.706,0.469,-0.258,0.464
5255139,12070.0,5135.0,3493.0,0.731,0.453,-0.24,0.45
5255156,11022.0,5043.0,3819.0,0.756,0.436,-0.222,0.435
5255173,10450.0,5677.0,4243.0,0.778,0.42,-0.205,0.419
5255189,10028.0,5153.0,3815.0,0.8,0.403,-0.189,0.403
5255206,9504.0,4265.0,3881.0,0.819,0.386,-0.173,0.388
5255222,8270.0,4241.0,4391.0,0.837,0.369,-0.157,0.373
5255238,7816.0,4285.0,4009.0,0.852,0.353,-0.143,0.358
5255254,7844.0,4889.0,3955.0,0.867,0.337,-0.129,0.345
5255280,7058.0,3245.0,3679.0,0.879,0.321,-0.117,0.333
5255296,7190.0,3037.0,2785.0,0.89,0.305,-0.105,0.322
5255312,6030.0,3187.0,3481.0,0.9,0.29,-0.092,0.312
5255328,5170.0,2291.0,4223.0,0.909,0.274,-0.078,0.303
5255344,4414.0,2891.0,3801.0,0.917,0.26,-0.067,0.295
5255360,4074.0,3019.0,3389.0,0.924,0.246,-0.057,0.288
5255386,4250.0,1839.0,3125.0,0.93,0.231,-0.047,0.281
5255403,3852.0,1323.0,3033.0,0.935,0.218,-0.038,0.276
5255419,3100.0,1349.0,2751.0,0.94,0.206,-0.028,0.271
5255436,2938.0,1285.0,2333.0,0.944,0.193,-0.019,0.268
5255452,2236.0,1153.0,2349.0,0.947,0.181,-0.009,0.265
5255468,1860.0,1501.0,1771.0,0.95,0.168,0.0,0.263
5255494,1800.0,621.0,991.0,0.953,0.155,0.01,0.261
5255510,1720.0,685.0,563.0,0.955,0.14,0.02,0.26
5255526,1442.0,-179.0,595.0,0.957,0.125,0.032,0.259
5255542,822.0,-1143.0,759.0,0.959,0.111,0.044,0.257
5255558,-366.0,-1969.0,1115.0,0.96,0.1,0.056,0.254
5255574,-1030.0,-1493.0,879.0,0.962,0.091,0.066,0.25
5255600,-1160.0,-2907.0,507.0,0.963,0.084,0.075,0.246
5255616,-1420.0,-1877.0,867.0,0.964,0.081,0.082,0.24
5255632,-1978.0,-243.0,1381.0,0.964,0.079,0.087,0.237
5255648,-2570.0,-173.0,1815.0,0.965,0.077,0.088,0.235
5255664,-2642.0,-1649.0,1821.0,0.965,0.075,0.084,0.236
5255680,-2262.0,-2197.0,1667.0,0.965,0.076,0.078,0.237
5255706,-1776.0,-933.0,2073.0,0.965,0.078,0.069,0.24
5255722,-1316.0,-649.0,2513.0,0.964,0.082,0.058,0.245
5255739,-1026.0,-285.0,3037.0,0.963,0.087,0.044,0.253
5255756,-76.0,-1235.0,3531.0,0.96,0.093,0.027,0.262
5255773,864.0,1.0,3875.0,0.957,0.101,0.008,0.271
5255789,2516.0,161.0,3971.0,0.953,0.111,-0.011,0.28
5255806,2974.0,821.0,4265.0,0.949,0.123,-0.031,0.289
5255822,3612.0,1545.0,4563.0,0.944,0.134,-0.051,0.298
5255839,3970.0,399.0,4951.0,0.938,0.147,-0.071,0.306
5255865,4172.0,1329.0,5657.0,0.931,0.163,-0.092,0.314
5255881,4750.0,2469.0,5791.0,0.922,0.18,-0.113,0.322
5255897,5410.0,1821.0,5465.0,0.913,0.198,-0.135,0.331
5255913,5876.0,1885.0,5241.0,0.902,0.218,-0.156,0.339
5255929,6630.0,2375.0,4991.0,0.89,0.238,-0.175,0.348
5255945,7568.0,2317.0,4613.0,0.877,0.259,-0.191,0.357
5255971,8352.0,2415.0,5029.0,0.862,0.282,-0.205,0.367
5255987,8248.0,3011.0,5119.0,0.846,0.306,-0.217,0.378
5256004,8696.0,4603.0,4837.0,0.829,0.33,-0.229,0.389
5256020,9414.0,4973.0,4321.0,0.811,0.353,-0.24,0.401
5256037,9892.0,3575.0,4311.0,0.792,0.375,-0.25,0.413
5256053,9578.0,5235.0,4237.0,0.772,0.396,-0.258,0.424
5256069,9886.0,6451.0,4227.0,0.752,0.416,-0.269,0.436
5256095,10162.0,5013.0,3625.0,0.731,0.433,-0.279,0.448
5256111,10178.0,5695.0,4981.0,0.709,0.45,-0.29,0.459
5256127,10350.0,5839.0,3111.0,0.687,0.464,-0.302,0.47
5256143,11182.0,4367.0,2381.0,0.664,0.477,-0.313,0.482
5256159,10542.0,4799.0,2683.0,0.642,0.489,-0.323,0.494
5256175,10558.0,5351.0,3671.0,0.619,0.5,-0.334,0.506
5256201,10298.0,4265.0,3057.0,0.595,0.508,-0.348,0.516
5256217,11394.0,4001.0,2443.0,0.571,0.518,-0.361,0.525
5256233,11562.0,3963.0,1865.0,0.547,0.525,-0.373,0.534
5256249,11752.0,3805.0,1797.0,0.523,0.532,-0.385,0.543
5256265,11788.0,3453.0,1783.0,0.5,0.537,-0.396,0.552
5256291,12104.0,2761.0,1749.0,0.478,0.543,-0.405,0.559
5256307,12116.0,3559.0,1423.0,0.457,0.547,-0.414,0.567
5256323,11554.0,3965.0,1739.0,0.437,0.55,-0.422,0.573
5256339,10442.0,-3683.0,4489.0,0.414,0.551,-0.426,0.586
5256356,10602.0,3775.0,2353.0,0.391,0.559,-0.426,0.595
5256372,10720.0,5329.0,1637.0,0.37,0.564,-0.429,0.601
5256389,10378.0,2839.0,2057.0,0.353,0.568,-0.433,0.605
5256405,9794.0,2791.0,2033.0,0.336,0.572,-0.435,0.608
5256431,9678.0,3429.0,1383.0,0.322,0.575,-0.437,0.611
5256447,9338.0,3891.0,1589.0,0.311,0.578,-0.438,0.614
5256463,8910.0,3749.0,1847.0,0.303,0.579,-0.438,0.617
5256479,8650.0,3867.0,2351.0,0.297,0.58,-0.438,0.619
5256495,8728.0,4491.0,1935.0,0.294,0.581,-0.437,0.62
5256511,8798.0,4793.0,1733.0,0.295,0.581,-0.436,0.621
5256537,8632.0,4585.0,1957.0,0.297,0.58,-0.435,0.621
5256553,8736.0,4613.0,2129.0,0.303,0.579,-0.434,0.62
5256570,8822.0,4797.0,2041.0,0.312,0.577,-0.432,0.619
5256586,9094.0,4481.0,1997.0,0.323,0.575,-0.43,0.617
5256602,9070.0,4801.0,2077.0,0.337,0.572,-0.427,0.614
5256618,9516.0,4633.0,2165.0,0.354,0.569,-0.424,0.61
5256644,9928.0,4497.0,1957.0,0.372,0.564,-0.421,0.605
5256660,10238.0,4275.0,2165.0,0.392,0.56,-0.417,0.6
5256676,10768.0,4555.0,2263.0,0.414,0.554,-0.411,0.594
5256693,11270.0,3779.0,2291.0,0.438,0.547,-0.405,0.587
5256709,11856.0,3577.0,2111.0,0.463,0.541,-0.397,0.58
5256725,12044.0,5003.0,2523.0,0.488,0.533,-0.388,0.572
5256741,12476.0,4429.0,2903.0,0.515,0.523,-0.379,0.563
5256767,12868.0,4029.0,2853.0,0.543,0.513,-0.369,0.553
5256783,13400.0,3853.0,2409.0,0.57,0.502,-0.359,0.542
5256799,14158.0,3755.0,2441.0,0.597,0.491,-0.346,0.532
5256815,14258.0,3463.0,2247.0,0.625,0.478,-0.331,0.521
5256831,13514.0,3181.0,2879.0,0.651,0.466,-0.314,0.51
5256847,13700.0,4087.0,3089.0,0.676,0.454,-0.296,0.498
5256873,13324.0,4041.0,3099.0,0.701,0.442,-0.279,0.485
5256889,13268.0,2929.0,3219.0,0.726,0.429,-0.26,0.471
5256905,11922.0,3337.0,3413.0,0.749,0.417,-0.241,0.456
5256922,10908.0,3775.0,3441.0,0.77,0.406,-0.221,0.44
5256938,9686.0,4343.0,4005.0,0.79,0.393,-0.203,0.424
5256955,8694.0,3297.0,4007.0,0.809,0.38,-0.186,0.408
5256971,8190.0,3251.0,3915.0,0.826,0.368,-0.169,0.392
5256997,7396.0,3285.0,3089.0,0.841,0.356,-0.153,0.378
5257013,6934.0,3195.0,3191.0,0.854,0.344,-0.137,0.365
5257029,5446.0,2109.0,4617.0,0.866,0.331,-0.122,0.354
5257045,4974.0,2183.0,4441.0,0.877,0.32,-0.107,0.343
5257061,5032.0,3133.0,3869.0,0.885,0.311,-0.093,0.333
5257080,4260.0,2241.0,3825.0,0.893,0.301,-0.079,0.325
5257096,4094.0,2137.0,3689.0,0.899,0.292,-0.065,0.319
5257112,3784.0,2773.0,3431.0,0.904,0.284,-0.05,0.314
5257139,3982.0,2677.0,2857.0,0.909,0.276,-0.036,0.311
5257155,3338.0,1329.0,2355.0,0.913,0.266,-0.02,0.309
5257172,2780.0,777.0,2705.0,0.917,0.255,-0.002,0.308
5257188,2104.0,1563.0,3251.0,0.919,0.247,0.016,0.308
5257205,1926.0,1027.0,2689.0,0.92,0.239,0.034,0.308
5257221,1806.0,645.0,1477.0,0.921,0.233,0.052,0.307
5257237,1148.0,1655.0,1967.0,0.922,0.227,0.07,0.307
5257254,1106.0,1193.0,2727.0,0.923,0.218,0.086,0.305
5257272,-500.0,-655.0,2427.0,0.924,0.211,0.099,0.303
5257289,-544.0,1915.0,1931.0,0.924,0.206,0.11,0.301
5257316,-828.0,1971.0,2153.0,0.926,0.199,0.117,0.3
5257332,-1568.0,-477.0,1963.0,0.927,0.192,0.12,0.299
5257348,-1484.0,-1505.0,1617.0,0.929,0.187,0.121,0.297
5257364,-2262.0,-1063.0,1519.0,0.93,0.185,0.12,0.295
5257380,-1742.0,347.0,1949.0,0.93,0.184,0.117,0.294
5257396,-1922.0,491.0,1937.0,0.931,0.184,0.111,0.294
5257422,-1810.0,-165.0,1927.0,0.932,0.184,0.103,0.296
5257438,-1010.0,349.0,1891.0,0.932,0.184,0.093,0.298
5257454,-572.0,181.0,2249.0,0.932,0.185,0.081,0.301
5257470,-144.0,633.0,2521.0,0.931,0.188,0.068,0.305
5257487,254.0,803.0,2769.0,0.93,0.191,0.054,0.309
5257503,918.0,861.0,3143.0,0.929,0.195,0.039,0.313
5257529,964.0,429.0,3443.0,0.927,0.2,0.024,0.318
5257545,1960.0,763.0,3473.0,0.924,0.207,0.008,0.323
5257561,2494.0,981.0,3533.0,0.92,0.216,-0.007,0.328
5257577,3122.0,1263.0,3151.0,0.915,0.226,-0.023,0.335
5257593,4144.0,1219.0,3469.0,0.908,0.238,-0.038,0.342
5257609,4004.0,415.0,3969.0,0.9,0.252,-0.052,0.351
5257635,4558.0,1765.0,4287.0,0.89,0.271,-0.067,0.36
5257651,4178.0,2207.0,3971.0,0.878,0.293,-0.083,0.37
5257668,4910.0,2791.0,4511.0,0.864,0.317,-0.101,0.379
5257684,5758.0,2877.0,4267.0,0.848,0.342,-0.123,0.387
5257700,7862.0,3925.0,2637.0,0.829,0.368,-0.145,0.395
5257716,9692.0,6661.0,2481.0,0.81,0.391,-0.167,0.405
5257732,9572.0,5707.0,3957.0,0.791,0.41,-0.188,0.414
5257758,9380.0,3463.0,4991.0,0.771,0.428,-0.209,0.423
5257774,10376.0,2619.0,3939.0,0.747,0.451,-0.227,0.433
5257790,12142.0,5675.0,2583.0,0.721,0.475,-0.242,0.444
5257806,12476.0,6913.0,3001.0,0.695,0.496,-0.254,0.455
5257822,11234.0,6851.0,4199.0,0.668,0.515,-0.265,0.467
5257848,11346.0,7091.0,3643.0,0.642,0.533,-0.277,0.477
5257864,11418.0,7509.0,3725.0,0.616,0.55,-0.289,0.484
5257880,12732.0,8541.0,3569.0,0.593,0.562,-0.302,0.491
5257896,11876.0,5751.0,2213.0,0.572,0.57,-0.316,0.498
5257912,11522.0,2543.0,1903.0,0.55,0.578,-0.325,0.508
5257928,12134.0,3513.0,885.0,0.526,0.588,-0.327,0.52
5257954,12278.0,5065.0,481.0,0.502,0.596,-0.326,0.535
5257971,11480.0,5507.0,795.0,0.478,0.602,-0.324,0.552
5257988,10296.0,5273.0,1313.0,0.455,0.605,-0.322,0.57
5258004,9926.0,5083.0,1523.0,0.431,0.607,-0.32,0.586
5258020,9734.0,4335.0,1637.0,0.41,0.607,-0.321,0.6
5258036,10056.0,5515.0,1473.0,0.391,0.607,-0.325,0.611
5258052,9626.0,4155.0,1263.0,0.373,0.606,-0.331,0.62
5258068,9610.0,4249.0,855.0,0.357,0.604,-0.338,0.627
5258095,9596.0,3517.0,663.0,0.341,0.602,-0.346,0.633
5258111,9470.0,3509.0,481.0,0.327,0.599,-0.354,0.639
5258127,9560.0,3151.0,461.0,0.316,0.596,-0.363,0.643
5258143,9552.0,2851.0,273.0,0.305,0.593,-0.37,0.647
5258159,9358.0,2955.0,471.0,0.295,0.59,-0.376,0.65
5258175,9348.0,3219.0,549.0,0.287,0.587,-0.383,0.653
5258201,8950.0,3295.0,791.0,0.281,0.585,-0.389,0.654
5258217,8796.0,2921.0,633.0,0.277,0.583,-0.395,0.653
5258233,8928.0,3613.0,881.0,0.276,0.582,-0.401,0.652
5258249,8332.0,3379.0,1341.0,0.276,0.581,-0.408,0.649
5258265,8176.0,3491.0,1243.0,0.279,0.581,-0.413,0.644
5258281,8340.0,3935.0,1153.0,0.284,0.581,-0.418,0.638
5258307,8550.0,3693.0,847.0,0.29,0.58,-0.423,0.632
5258323,8450.0,3501.0,1233.0,0.298,0.58,-0.427,0.626
5258339,8504.0,3357.0,1049.0,0.307,0.579,-0.43,0.621
5258355,8742.0,3647.0,1255.0,0.318,0.579,-0.431,0.615
5258371,9208.0,4045.0,1177.0,0.331,0.578,-0.43,0.61
5258388,9626.0,4457.0,1331.0,0.346,0.575,-0.429,0.605
5258414,9598.0,3357.0,1285.0,0.362,0.573,-0.426,0.599
5258430,10206.0,4161.0,1917.0,0.38,0.571,-0.421,0.594
5258446,10680.0,4673.0,2053.0,0.4,0.568,-0.416,0.587
5258462,11608.0,4979.0,1581.0,0.421,0.565,-0.41,0.58
5258478,12584.0,4451.0,1959.0,0.444,0.56,-0.402,0.572
5258494,12156.0,3921.0,2267.0,0.469,0.555,-0.395,0.563
5258520,13284.0,3637.0,2025.0,0.494,0.549,-0.385,0.553
5258537,14078.0,4079.0,1997.0,0.518,0.543,-0.374,0.544
5258554,14060.0,4693.0,2895.0,0.543,0.537,-0.362,0.535
5258571,13860.0,4567.0,3527.0,0.567,0.53,-0.349,0.525
5258588,13368.0,4589.0,3625.0,0.59,0.524,-0.338,0.514
5258604,13700.0,4343.0,2909.0,0.612,0.518,-0.326,0.501
5258621,14420.0,3301.0,1679.0,0.634,0.511,-0.313,0.489
5258637,13844.0,4509.0,1953.0,0.658,0.502,-0.298,0.477
5258654,12418.0,3969.0,2577.0,0.68,0.492,-0.281,0.465
5258671,12060.0,3133.0,2187.0,0.702,0.482,-0.263,0.453
5258688,11814.0,3949.0,1635.0,0.723,0.473,-0.243,0.442
5258714,10904.0,4385.0,2471.0,0.744,0.461,-0.223,0.43
5258730,9724.0,3167.0,2793.0,0.763,0.449,-0.203,0.419
5258746,9518.0,3511.0,2209.0,0.781,0.437,-0.183,0.407
5258762,8372.0,4467.0,2287.0,0.797,0.425,-0.164,0.396
5258778,7870.0,3655.0,2419.0,0.813,0.411,-0.146,0.386
5258794,7064.0,2313.0,2063.0,0.827,0.397,-0.129,0.375
5258820,6506.0,3201.0,2397.0,0.841,0.384,-0.112,0.365
5258837,5426.0,3197.0,2753.0,0.853,0.37,-0.095,0.355
5258853,5042.0,3145.0,2835.0,0.864,0.357,-0.079,0.346
5258870,4334.0,3019.0,2697.0,0.874,0.343,-0.065,0.337
5258887,3492.0,3121.0,3259.0,0.883,0.329,-0.053,0.329
5258904,3648.0,2539.0,2795.0,0.892,0.315,-0.044,0.321
5258921,2916.0,2227.0,2875.0,0.9,0.3,-0.035,0.314
5258938,2154.0,2953.0,3211.0,0.908,0.285,-0.029,0.307
5258954,2016.0,1809.0,2521.0,0.915,0.269,-0.025,0.301
5258971,2132.0,1407.0,2067.0,0.921,0.254,-0.021,0.296
5258997,1538.0,847.0,1449.0,0.926,0.239,-0.017,0.292
5259013,1040.0,563.0,1029.0,0.931,0.224,-0.013,0.289
5259029,1728.0,-77.0,1203.0,0.935,0.209,-0.008,0.285
5259045,-406.0,-1175.0,1279.0,0.939,0.195,-0.002,0.282
5259061,-832.0,-3127.0,1771.0,0.942,0.185,0.003,0.279
5259078,-204.0,-1489.0,1283.0,0.943,0.183,0.01,0.277
5259104,968.0,1125.0,889.0,0.944,0.181,0.017,0.277
5259121,284.0,1743.0,637.0,0.944,0.178,0.024,0.277
5259137,-580.0,1089.0,2055.0,0.945,0.171,0.029,0.278
5259154,-1494.0,-207.0,2517.0,0.946,0.164,0.03,0.278
5259171,-1548.0,-1071.0,2187.0,0.947,0.159,0.027,0.279
5259187,-752.0,105.0,2063.0,0.947,0.156,0.022,0.279
5259204,-120.0,327.0,2077.0,0.948,0.154,0.013,0.28
5259221,538.0,67.0,1905.0,0.947,0.152,0.003,0.281
5259237,988.0,39.0,2181.0,0.947,0.152,-0.008,0.283
5259254,1002.0,195.0,2869.0,0.946,0.153,-0.02,0.286
5259281,1196.0,697.0,3071.0,0.944,0.156,-0.034,0.289
5259297,1686.0,639.0,3395.0,0.941,0.16,-0.05,0.293
5259313,2374.0,125.0,3663.0,0.938,0.166,-0.067,0.296
5259329,3522.0,845.0,3565.0,0.934,0.175,-0.085,0.3
5259345,3650.0,1993.0,3691.0,0.929,0.185,-0.104,0.304
5259361,4026.0,1503.0,4383.0,0.923,0.193,-0.124,0.307
5259387,4534.0,707.0,4793.0,0.917,0.203,-0.146,0.311
5259404,4754.0,-219.0,4487.0,0.909,0.216,-0.169,0.315
5259421,6062.0,3121.0,3987.0,0.899,0.231,-0.191,0.32
5259437,5956.0,3629.0,4709.0,0.888,0.244,-0.214,0.325
5259454,6440.0,1179.0,4527.0,0.876,0.255,-0.238,0.332
5259471,6734.0,-655.0,4749.0,0.862,0.27,-0.262,0.34
5259487,8390.0,177.0,4259.0,0.846,0.289,-0.283,0.348
5259504,9686.0,2603.0,3195.0,0.828,0.309,-0.302,0.358
5259530,10914.0,4021.0,3299.0,0.81,0.326,-0.318,0.37
5259546,11100.0,2899.0,3713.0,0.791,0.34,-0.333,0.383
5259562,10332.0,867.0,4925.0,0.772,0.356,-0.347,0.397
5259578,11164.0,3237.0,3493.0,0.749,0.375,-0.359,0.412
5259595,12142.0,2975.0,2023.0,0.726,0.392,-0.369,0.429
5259611,11968.0,3363.0,2883.0,0.702,0.408,-0.377,0.446
5259627,11616.0,4719.0,3631.0,0.678,0.422,-0.385,0.463
5259653,11824.0,4305.0,3671.0,0.653,0.434,-0.397,0.478
5259669,12596.0,3651.0,3439.0,0.625,0.445,-0.41,0.493
5259685,13128.0,3317.0,3197.0,0.598,0.456,-0.423,0.506
5259701,12602.0,4109.0,2591.0,0.571,0.465,-0.436,0.517
5259717,13038.0,2989.0,2459.0,0.545,0.473,-0.449,0.527
5259733,13380.0,2893.0,2155.0,0.52,0.479,-0.46,0.537
5259759,13042.0,3661.0,2117.0,0.495,0.484,-0.471,0.546
5259775,12504.0,3113.0,1763.0,0.473,0.488,-0.482,0.554
5259791,11784.0,2183.0,2101.0,0.452,0.49,-0.492,0.56
5259807,12172.0,3401.0,1965.0,0.432,0.492,-0.502,0.565
5259823,11198.0,2091.0,1799.0,0.414,0.494,-0.512,0.568
5259839,10864.0,1635.0,2003.0,0.398,0.495,-0.521,0.57
5259865,10374.0,1939.0,2097.0,0.383,0.497,-0.529,0.571
5259881,10076.0,2121.0,2123.0,0.369,0.499,-0.536,0.572
5259897,9854.0,2421.0,2851.0,0.358,0.501,-0.544,0.57
5259913,9574.0,2343.0,2409.0,0.348,0.502,-0.551,0.568
5259929,9434.0,2483.0,2421.0,0.34,0.503,-0.558,0.566
5259955,9556.0,1907.0,2385.0,0.336,0.502,-0.565,0.562
5259972,9460.0,1439.0,2365.0,0.333,0.502,-0.569,0.559
5259988,9472.0,1793.0,2331.0,0.332,0.502,-0.572,0.557
5260004,9638.0,2139.0,2363.0,0.334,0.502,-0.573,0.555
5260020,9760.0,2591.0,2465.0,0.339,0.5,-0.573,0.554
5260036,9810.0,1967.0,2719.0,0.346,0.498,-0.571,0.553
5260052,9896.0,1207.0,2739.0,0.355,0.495,-0.568,0.553
5260069,9394.0,745.0,2707.0,0.367,0.491,-0.563,0.554
5260095,10048.0,2061.0,2721.0,0.38,0.488,-0.555,0.556
5260112,10082.0,2357.0,2591.0,0.394,0.485,-0.546,0.558
5260128,10090.0,2839.0,2465.0,0.41,0.482,-0.536,0.56
5260144,10502.0,2761.0,2969.0,0.427,0.477,-0.525,0.56
5260160,10642.0,1425.0,2903.0,0.446,0.473,-0.514,0.56
5260176,11198.0,1733.0,2341.0,0.465,0.469,-0.5,0.56
5260192,12014.0,3159.0,2797.0,0.486,0.465,-0.486,0.559
5260218,11966.0,2563.0,3575.0,0.508,0.459,-0.471,0.556
5260234,12256.0,1783.0,3493.0,0.53,0.454,-0.456,0.552
5260250,12888.0,2995.0,3405.0,0.553,0.45,-0.44,0.546
5260266,13548.0,3057.0,2765.0,0.576,0.445,-0.423,0.54
5260282,13556.0,2081.0,3063.0,0.6,0.438,-0.406,0.532
5260308,13316.0,2265.0,3335.0,0.623,0.431,-0.388,0.526
5260324,13424.0,2435.0,3279.0,0.646,0.423,-0.368,0.518
5260340,13410.0,2815.0,3497.0,0.668,0.414,-0.348,0.51
5260356,12912.0,2651.0,3653.0,0.69,0.404,-0.328,0.502
5260372,11602.0,2167.0,5001.0,0.711,0.394,-0.309,0.494
5260388,10982.0,2605.0,4977.0,0.73,0.383,-0.29,0.486
5260414,10388.0,1989.0,3797.0,0.748,0.37,-0.272,0.479
5260430,9110.0,1523.0,3829.0,0.766,0.357,-0.252,0.472
5260446,7908.0,1263.0,4191.0,0.782,0.343,-0.232,0.466
5260462,6884.0,1343.0,4573.0,0.797,0.329,-0.212,0.459
5260478,6068.0,2111.0,5777.0,0.811,0.317,-0.194,0.452
5260494,6184.0,3001.0,5293.0,0.823,0.305,-0.179,0.444
5260520,7556.0,3839.0,3943.0,0.835,0.292,-0.165,0.436
5260537,7504.0,2631.0,2995.0,0.846,0.278,-0.152,0.429
5260553,5678.0,1369.0,4221.0,0.856,0.263,-0.138,0.423
5260570,5918.0,1517.0,4125.0,0.866,0.25,-0.123,0.416
5260587,5280.0,1979.0,4597.0,0.875,0.238,-0.108,0.408
5260603,4698.0,2377.0,4505.0,0.883,0.228,-0.093,0.401
5260619,4188.0,3277.0,4179.0,0.89,0.217,-0.081,0.393
5260635,3116.0,2733.0,4683.0,0.897,0.205,-0.07,0.386
5260662,2424.0,1079.0,4597.0,0.903,0.195,-0.06,0.378
5260678,2586.0,773.0,4245.0,0.908,0.186,-0.052,0.371
5260694,2512.0,1619.0,3649.0,0.913,0.178,-0.044,0.365
5260710,2352.0,2167.0,3183.0,0.917,0.169,-0.035,0.36
5260726,1710.0,1311.0,3903.0,0.92,0.16,-0.026,0.356
5260742,418.0,-485.0,3795.0,0.923,0.152,-0.017,0.352
5260768,752.0,-593.0,2569.0,0.925,0.147,-0.008,0.35
5260785,364.0,433.0,2139.0,0.927,0.142,0.003,0.348
5260801,-78.0,703.0,2505.0,0.928,0.136,0.012,0.347
5260818,528.0,373.0,2639.0,0.929,0.129,0.021,0.347
5260835,96.0,-845.0,2169.0,0.93,0.123,0.03,0.346
5260852,-1554.0,-1663.0,2473.0,0.93,0.119,0.039,0.345
5260868,-964.0,563.0,2787.0,0.931,0.116,0.045,0.344
5260884,-898.0,-55.0,2355.0,0.931,0.114,0.048,0.342
5260900,-856.0,-1015.0,1967.0,0.932,0.113,0.048,0.341
5260926,-656.0,-759.0,1761.0,0.932,0.114,0.048,0.339
5260942,-474.0,-451.0,1889.0,0.933,0.116,0.045,0.338
5260958,-960.0,-943.0,2499.0,0.933,0.118,0.041,0.337
5260974,-874.0,-217.0,2509.0,0.933,0.123,0.034,0.337
5260990,-116.0,313.0,2381.0,0.932,0.128,0.026,0.338
5261016,494.0,-27.0,2451.0,0.931,0.133,0.017,0.339
5261032,622.0,-99.0,2513.0,0.93,0.14,0.007,0.34
5261048,618.0,1165.0,3467.0,0.928,0.147,-0.005,0.342
5261064,1032.0,905.0,3867.0,0.926,0.154,-0.019,0.344
5261080,2356.0,445.0,3455.0,0.923,0.162,-0.035,0.346
5261096,2230.0,459.0,4077.0,0.92,0.171,-0.051,0.349
5261122,2040.0,1145.0,4115.0,0.915,0.183,-0.069,0.353
5261138,3234.0,2875.0,4573.0,0.909,0.194,-0.087,0.358
5261154,3378.0,1773.0,5111.0,0.902,0.205,-0.108,0.364
5261171,4074.0,1179.0,4795.0,0.894,0.217,-0.13,0.37
5261187,5192.0,2001.0,4271.0,0.884,0.231,-0.152,0.377
5261203,6854.0,2913.0,4077.0,0.873,0.245,-0.173,0.385
5261220,6730.0,2665.0,4861.0,0.861,0.258,-0.193,0.394
5261246,7218.0,2261.0,5195.0,0.847,0.272,-0.213,0.403
5261262,8352.0,2787.0,4951.0,0.833,0.286,-0.232,0.412
5261278,9292.0,2693.0,4799.0,0.819,0.3,-0.251,0.421
5261294,9438.0,1841.0,4437.0,0.802,0.315,-0.268,0.431
5261310,9778.0,2559.0,4531.0,0.785,0.331,-0.283,0.441
5261326,10050.0,3605.0,4947.0,0.765,0.346,-0.299,0.453
5261352,10690.0,2603.0,4919.0,0.745,0.361,-0.315,0.465
5261369,11306.0,3115.0,3825.0,0.723,0.376,-0.329,0.478
5261385,11584.0,4431.0,4445.0,0.7,0.39,-0.343,0.49
5261401,11782.0,3361.0,4799.0,0.677,0.401,-0.358,0.503
5261418,11670.0,1917.0,4793.0,0.653,0.413,-0.373,0.514
5261434,13154.0,2533.0,3269.0,0.628,0.424,-0.387,0.525
5261450,12768.0,2481.0,2761.0,0.604,0.434,-0.4,0.535
5261476,12334.0,1871.0,3121.0,0.581,0.443,-0.411,0.545
5261492,11924.0,2821.0,3619.0,0.557,0.453,-0.421,0.554
5261509,11796.0,2891.0,3355.0,0.533,0.461,-0.432,0.563
5261526,11906.0,1469.0,2219.0,0.51,0.468,-0.442,0.571
5261542,12024.0,1577.0,1733.0,0.486,0.476,-0.449,0.579
5261558,11644.0,2713.0,2321.0,0.464,0.482,-0.455,0.587
5261575,10458.0,2119.0,2965.0,0.443,0.488,-0.462,0.594
5261591,10692.0,2215.0,2757.0,0.423,0.493,-0.469,0.599
5261617,10930.0,2549.0,2477.0,0.404,0.497,-0.476,0.603
5261634,10942.0,2537.0,2213.0,0.387,0.5,-0.483,0.606
5261650,10660.0,2335.0,2395.0,0.372,0.501,-0.489,0.609
5261666,10162.0,2485.0,3393.0,0.357,0.503,-0.496,0.612
5261682,9624.0,2279.0,3487.0,0.343,0.504,-0.503,0.613
5261698,9698.0,2973.0,3087.0,0.331,0.505,-0.509,0.613
5261724,9406.0,2271.0,3095.0,0.32,0.506,-0.516,0.612
5261740,9396.0,3203.0,3037.0,0.313,0.507,-0.523,0.61
5261756,9058.0,1683.0,3061.0,0.306,0.507,-0.528,0.608
5261772,9494.0,3031.0,3131.0,0.302,0.508,-0.531,0.607
5261788,9484.0,3303.0,3147.0,0.302,0.508,-0.533,0.606
5261804,9192.0,2083.0,3183.0,0.304,0.507,-0.534,0.605
5261830,9290.0,1975.0,2687.0,0.308,0.507,-0.532,0.604
5261846,9676.0,2877.0,2895.0,0.315,0.507,-0.529,0.603
5261862,9686.0,2477.0,2861.0,0.326,0.506,-0.525,0.602
5261878,9890.0,2377.0,3019.0,0.338,0.505,-0.52,0.601
5261894,9892.0,2829.0,2789.0,0.352,0.504,-0.513,0.599
5261910,10180.0,2923.0,2855.0,0.368,0.502,-0.506,0.597
5261936,10864.0,2543.0,2989.0,0.386,0.5,-0.497,0.595
5261953,11570.0,2947.0,2925.0,0.406,0.498,-0.487,0.592
5261969,11752.0,2797.0,3115.0,0.427,0.495,-0.476,0.588
5261986,12224.0,2687.0,3531.0,0.45,0.492,-0.465,0.582
5262003,13102.0,3073.0,2439.0,0.474,0.488,-0.452,0.576
5262020,13638.0,3183.0,3169.0,0.499,0.484,-0.439,0.569
5262036,14016.0,2285.0,3109.0,0.524,0.479,-0.425,0.562
5262052,15446.0,1951.0,3663.0,0.55,0.473,-0.409,0.554
5262078,14402.0,2587.0,2921.0,0.577,0.465,-0.391,0.546
5262094,13870.0,2633.0,3475.0,0.603,0.457,-0.373,0.538
5262110,13346.0,2685.0,3911.0,0.628,0.448,-0.354,0.528
5262127,13580.0,2631.0,3221.0,0.653,0.439,-0.334,0.519
5262143,13304.0,3145.0,3163.0,0.677,0.429,-0.314,0.509
5262159,12070.0,2705.0,3903.0,0.7,0.419,-0.295,0.498
5262175,11948.0,2733.0,3597.0,0.721,0.408,-0.275,0.488
5262201,11132.0,1845.0,3299.0,0.742,0.397,-0.255,0.477
5262217,10558.0,2699.0,3455.0,0.761,0.386,-0.236,0.466
5262233,9752.0,2593.0,3443.0,0.779,0.374,-0.217,0.454
5262249,8948.0,3179.0,3235.0,0.795,0.363,-0.199,0.443
5262265,8248.0,3293.0,3487.0,0.81,0.351,-0.183,0.432
5262291,7548.0,2775.0,3403.0,0.825,0.339,-0.168,0.421
5262307,7158.0,2867.0,3209.0,0.837,0.328,-0.153,0.41
5262323,6500.0,3023.0,3363.0,0.849,0.316,-0.139,0.4
5262339,6294.0,2533.0,2979.0,0.86,0.304,-0.126,0.391
5262355,5304.0,1923.0,3063.0,0.87,0.292,-0.111,0.382
5262371,4570.0,1961.0,3569.0,0.878,0.281,-0.097,0.374
5262387,3900.0,1993.0,3751.0,0.886,0.27,-0.085,0.367
5262413,3460.0,1827.0,3643.0,0.893,0.261,-0.073,0.36
5262429,3638.0,2257.0,3217.0,0.899,0.253,-0.063,0.353
5262445,3378.0,2647.0,3295.0,0.904,0.244,-0.053,0.347
5262461,2602.0,705.0,3311.0,0.909,0.234,-0.045,0.342
5262477,1874.0,-1143.0,3359.0,0.913,0.226,-0.036,0.337
5262493,1076.0,-1303.0,3087.0,0.916,0.223,-0.026,0.333
5262519,1540.0,2023.0,2177.0,0.917,0.221,-0.016,0.33
5262535,1012.0,4333.0,1341.0,0.919,0.215,-0.007,0.33
5262552,160.0,1071.0,2805.0,0.921,0.204,0.001,0.331
5262569,-640.0,-1699.0,2835.0,0.922,0.196,0.006,0.333
5262586,106.0,45.0,1975.0,0.923,0.19,0.01,0.334
5262602,-168.0,-911.0,1621.0,0.924,0.185,0.014,0.335
5262618,-64.0,-1269.0,1383.0,0.925,0.18,0.019,0.334
5262644,-552.0,-979.0,1501.0,0.925,0.178,0.024,0.334
5262660,-522.0,223.0,1611.0,0.926,0.176,0.029,0.333
5262676,-1658.0,-899.0,2039.0,0.926,0.175,0.032,0.333
5262692,-1460.0,-835.0,2279.0,0.926,0.176,0.031,0.332
5262708,-994.0,-149.0,2075.0,0.926,0.18,0.028,0.331
5262724,-1036.0,-667.0,2177.0,0.925,0.184,0.023,0.331
5262750,-338.0,1035.0,2253.0,0.924,0.191,0.016,0.332
5262766,-220.0,577.0,2481.0,0.922,0.197,0.006,0.334
5262782,944.0,993.0,2521.0,0.919,0.204,-0.005,0.336
5262798,1568.0,233.0,2779.0,0.917,0.212,-0.017,0.339
5262814,1570.0,-117.0,3349.0,0.914,0.22,-0.029,0.34
5262830,1016.0,-569.0,4129.0,0.909,0.234,-0.041,0.342
5262856,2392.0,2981.0,3943.0,0.904,0.249,-0.055,0.344
5262872,3576.0,3295.0,3605.0,0.898,0.263,-0.072,0.346
5262888,5224.0,1653.0,2895.0,0.892,0.274,-0.088,0.348
5262904,4730.0,2183.0,3513.0,0.886,0.285,-0.102,0.351
5262920,3996.0,3005.0,5493.0,0.879,0.298,-0.119,0.353
5262936,4650.0,2109.0,5249.0,0.87,0.313,-0.137,0.355
5262962,6676.0,3329.0,3821.0,0.859,0.331,-0.155,0.358
5262978,7750.0,4875.0,3799.0,0.847,0.348,-0.17,0.364
5262994,7080.0,4569.0,4515.0,0.834,0.363,-0.185,0.371
5263010,7490.0,4477.0,4561.0,0.821,0.379,-0.199,0.379
5263026,7696.0,4211.0,5159.0,0.805,0.395,-0.213,0.388
5263042,8214.0,4733.0,4119.0,0.787,0.413,-0.226,0.398
5263068,9118.0,5699.0,3985.0,0.77,0.428,-0.238,0.409
5263084,9050.0,4401.0,4087.0,0.752,0.443,-0.249,0.42
5263102,10024.0,5183.0,3523.0,0.733,0.457,-0.258,0.432
5263119,10106.0,5919.0,2857.0,0.713,0.471,-0.266,0.445
5263135,9768.0,6115.0,3579.0,0.694,0.482,-0.274,0.459
5263151,9238.0,5549.0,4119.0,0.674,0.493,-0.284,0.472
5263168,10074.0,5419.0,3753.0,0.652,0.504,-0.294,0.484
5263185,10788.0,5689.0,2247.0,0.631,0.515,-0.304,0.495
5263202,11254.0,5675.0,2401.0,0.609,0.523,-0.313,0.507
5263229,10592.0,5155.0,2765.0,0.588,0.53,-0.321,0.519
5263245,10098.0,4703.0,3413.0,0.567,0.538,-0.33,0.53
5263261,10866.0,5005.0,2617.0,0.546,0.546,-0.338,0.539
5263277,11096.0,4877.0,1917.0,0.525,0.552,-0.346,0.549
5263293,11022.0,4477.0,2207.0,0.505,0.557,-0.352,0.558
5263309,10830.0,4411.0,2365.0,0.485,0.561,-0.359,0.567
5263325,10706.0,4525.0,2439.0,0.467,0.564,-0.365,0.575
5263351,10696.0,4315.0,2033.0,0.449,0.566,-0.371,0.583
5263368,10466.0,3823.0,1813.0,0.432,0.569,-0.377,0.59
5263385,10066.0,4135.0,1881.0,0.417,0.569,-0.382,0.597
5263402,9690.0,4513.0,2247.0,0.403,0.569,-0.388,0.602
5263419,9122.0,4147.0,2733.0,0.391,0.569,-0.395,0.607
5263435,9326.0,3963.0,2261.0,0.379,0.568,-0.403,0.609
5263452,9524.0,4047.0,2147.0,0.37,0.567,-0.41,0.611
5263468,9256.0,3847.0,2093.0,0.362,0.565,-0.417,0.613
5263484,9294.0,3985.0,2045.0,0.356,0.563,-0.423,0.614
5263511,9242.0,3957.0,2145.0,0.352,0.56,-0.429,0.615
5263527,8916.0,4183.0,2565.0,0.351,0.557,-0.434,0.615
5263543,8754.0,4171.0,2469.0,0.351,0.554,-0.44,0.613
5263559,8802.0,3921.0,2515.0,0.354,0.551,-0.445,0.611
5263575,9152.0,4327.0,2125.0,0.358,0.547,-0.449,0.609
5263591,9144.0,4215.0,2403.0,0.365,0.542,-0.453,0.607
5263617,9098.0,3491.0,2569.0,0.374,0.537,-0.455,0.604
5263633,9338.0,3837.0,2615.0,0.385,0.532,-0.456,0.601
5263649,9462.0,4009.0,2887.0,0.397,0.526,-0.456,0.598
5263665,9594.0,3611.0,3017.0,0.412,0.521,-0.455,0.594
5263681,10122.0,3683.0,2675.0,0.427,0.516,-0.452,0.589
5263707,10306.0,3625.0,2865.0,0.444,0.51,-0.448,0.584
5263723,10810.0,3441.0,2931.0,0.462,0.505,-0.443,0.579
5263739,11236.0,3211.0,2917.0,0.482,0.499,-0.436,0.574
5263755,11596.0,3873.0,2593.0,0.502,0.492,-0.427,0.569
5263771,12068.0,3273.0,2403.0,0.523,0.484,-0.418,0.563
5263787,12366.0,3583.0,2891.0,0.545,0.476,-0.407,0.557
5263803,11860.0,3271.0,3355.0,0.568,0.468,-0.395,0.55
5263829,11518.0,2213.0,3709.0,0.59,0.46,-0.384,0.542
5263845,11400.0,2699.0,3583.0,0.611,0.453,-0.371,0.533
5263861,11516.0,3327.0,3769.0,0.633,0.444,-0.358,0.523
5263877,11274.0,2779.0,3563.0,0.655,0.436,-0.344,0.513
5263893,10646.0,2943.0,3965.0,0.675,0.427,-0.33,0.503
5263909,10396.0,2773.0,4017.0,0.695,0.417,-0.316,0.493
5263935,10414.0,2777.0,3907.0,0.714,0.408,-0.3,0.483
5263952,10276.0,2861.0,3435.0,0.733,0.397,-0.284,0.474
5263968,9364.0,2867.0,3849.0,0.75,0.387,-0.267,0.465
5263985,8928.0,3273.0,4145.0,0.768,0.375,-0.25,0.455
5264001,8106.0,2765.0,4343.0,0.784,0.364,-0.234,0.445
5264017,7920.0,2909.0,4619.0,0.798,0.354,-0.218,0.436
5264043,7320.0,3247.0,4251.0,0.811,0.345,-0.203,0.426
5264059,7058.0,3929.0,3931.0,0.824,0.335,-0.189,0.417
5264075,6616.0,2941.0,3913.0,0.836,0.323,-0.176,0.408
5264091,6106.0,3221.0,4275.0,0.847,0.312,-0.163,0.398
5264107,5422.0,3105.0,4175.0,0.858,0.301,-0.15,0.389
5264123,5406.0,2475.0,4371.0,0.867,0.289,-0.139,0.38
5264139,4702.0,2825.0,4001.0,0.877,0.278,-0.128,0.371
5264165,4670.0,2727.0,4079.0,0.886,0.266,-0.117,0.361
5264181,4234.0,3137.0,3535.0,0.895,0.253,-0.107,0.353
5264197,3934.0,1857.0,3699.0,0.903,0.239,-0.096,0.345
5264213,3496.0,2115.0,3483.0,0.91,0.226,-0.084,0.338
5264229,2822.0,1867.0,4623.0,0.916,0.213,-0.072,0.331
5264255,1874.0,1019.0,4131.0,0.922,0.201,-0.061,0.325
5264272,2124.0,559.0,3599.0,0.927,0.19,-0.049,0.319
5264288,1906.0,1103.0,3773.0,0.931,0.181,-0.037,0.314
5264305,668.0,1035.0,4235.0,0.935,0.173,-0.025,0.309
5264321,362.0,953.0,4163.0,0.938,0.165,-0.014,0.305
5264337,878.0,187.0,4235.0,0.94,0.158,-0.004,0.302
5264353,138.0,-1033.0,2501.0,0.942,0.152,0.007,0.299
5264379,634.0,381.0,2285.0,0.943,0.148,0.02,0.297
5264395,24.0,371.0,2777.0,0.944,0.142,0.034,0.295
5264411,-850.0,-703.0,2667.0,0.945,0.138,0.046,0.293
5264427,-1840.0,-281.0,2715.0,0.945,0.136,0.057,0.292
5264443,-1866.0,415.0,3165.0,0.945,0.136,0.062,0.291
5264459,-2026.0,-709.0,2675.0,0.945,0.136,0.063,0.29
5264485,-1498.0,-667.0,2193.0,0.945,0.138,0.06,0.29
5264501,-1400.0,99.0,2285.0,0.945,0.142,0.055,0.291
5264518,-1076.0,-149.0,2675.0,0.944,0.147,0.047,0.292
5264535,-630.0,5.0,2779.0,0.943,0.154,0.036,0.294
5264551,-154.0,391.0,2813.0,0.941,0.161,0.024,0.296
5264567,408.0,617.0,2999.0,0.939,0.169,0.01,0.3
5264583,1158.0,393.0,2821.0,0.936,0.178,-0.004,0.304
5264609,1756.0,525.0,2729.0,0.933,0.187,-0.018,0.308
5264625,2040.0,1027.0,2965.0,0.928,0.197,-0.031,0.314
5264641,2066.0,1703.0,3557.0,0.924,0.208,-0.045,0.319
5264657,2210.0,1467.0,4293.0,0.918,0.218,-0.06,0.326
5264673,2786.0,1085.0,4225.0,0.911,0.231,-0.077,0.332
5264689,3250.0,1869.0,3699.0,0.903,0.246,-0.095,0.34
5264715,3920.0,2659.0,3939.0,0.893,0.261,-0.112,0.348
5264731,4678.0,2813.0,3653.0,0.883,0.276,-0.131,0.357
5264747,5640.0,2681.0,4101.0,0.871,0.29,-0.15,0.367
5264763,5322.0,2999.0,4831.0,0.858,0.306,-0.169,0.377
5264779,5810.0,3881.0,5503.0,0.842,0.325,-0.189,0.386
5264795,6156.0,3957.0,4921.0,0.826,0.344,-0.21,0.395
5264821,7346.0,3827.0,4537.0,0.808,0.362,-0.231,0.404
5264837,7694.0,4097.0,5101.0,0.789,0.38,-0.253,0.412
5264853,8692.0,4203.0,4415.0,0.768,0.398,-0.273,0.421
5264869,10646.0,4737.0,3315.0,0.747,0.415,-0.291,0.43
5264885,11056.0,3461.0,3195.0,0.727,0.429,-0.304,0.442
5264901,11208.0,3059.0,3251.0,0.706,0.444,-0.313,0.455
5264928,11814.0,3771.0,2905.0,0.684,0.459,-0.319,0.469
5264944,11602.0,4999.0,3085.0,0.662,0.472,-0.323,0.484
5264960,10338.0,5579.0,2769.0,0.64,0.485,-0.326,0.499
5264976,10696.0,4859.0,3659.0,0.618,0.494,-0.334,0.512
5264992,11308.0,3565.0,3173.0,0.594,0.504,-0.343,0.524
5265008,11218.0,3573.0,2177.0,0.571,0.514,-0.353,0.534
5265024,11682.0,3677.0,1771.0,0.548,0.522,-0.361,0.544
5265050,11774.0,4471.0,2349.0,0.527,0.53,-0.37,0.552
5265066,11400.0,4029.0,2353.0,0.506,0.535,-0.381,0.559
5265082,11052.0,2835.0,1991.0,0.486,0.54,-0.391,0.566
5265098,11198.0,2619.0,1261.0,0.466,0.544,-0.401,0.571
5265114,11142.0,2423.0,1533.0,0.448,0.547,-0.41,0.576
5265130,11264.0,3071.0,1591.0,0.43,0.55,-0.417,0.581
5265156,10678.0,3433.0,1917.0,0.414,0.552,-0.426,0.586
5265172,10128.0,2877.0,1795.0,0.398,0.552,-0.435,0.59
5265188,9804.0,2679.0,1909.0,0.383,0.552,-0.444,0.592
5265204,9734.0,2479.0,1745.0,0.37,0.552,-0.454,0.594
5265220,10024.0,2607.0,1625.0,0.358,0.552,-0.463,0.594
5265246,9876.0,2509.0,1575.0,0.347,0.551,-0.472,0.595
5265262,9356.0,2159.0,1361.0,0.338,0.549,-0.48,0.594
5265278,9450.0,2149.0,1495.0,0.331,0.547,-0.488,0.594
5265294,9494.0,2355.0,1777.0,0.325,0.545,-0.495,0.594
5265310,9120.0,2411.0,1661.0,0.321,0.543,-0.501,0.593
5265326,8984.0,1961.0,1687.0,0.319,0.541,-0.507,0.591
5265352,9092.0,1765.0,1733.0,0.319,0.538,-0.511,0.589
5265368,8904.0,1757.0,1677.0,0.32,0.537,-0.513,0.588
5265385,8944.0,2577.0,1889.0,0.323,0.536,-0.514,0.587
5265401,8802.0,2737.0,2383.0,0.327,0.535,-0.514,0.586
5265418,9124.0,3115.0,2741.0,0.332,0.534,-0.514,0.583
5265434,9180.0,3285.0,2911.0,0.34,0.533,-0.515,0.579
5265450,9598.0,3113.0,2511.0,0.35,0.532,-0.514,0.575
5265476,10502.0,3709.0,1719.0,0.361,0.53,-0.512,0.571
5265492,10822.0,3277.0,1591.0,0.374,0.527,-0.508,0.569
5265508,10704.0,2425.0,2315.0,0.389,0.523,-0.502,0.568
5265524,10340.0,1763.0,3219.0,0.405,0.52,-0.493,0.568
5265540,10388.0,3457.0,3497.0,0.42,0.519,-0.482,0.568
5265556,11476.0,5269.0,3757.0,0.437,0.517,-0.471,0.566
5265582,10630.0,3219.0,3603.0,0.456,0.513,-0.461,0.562
5265599,12398.0,2929.0,2359.0,0.475,0.51,-0.448,0.559
5265615,13182.0,4069.0,1861.0,0.496,0.506,-0.434,0.557
5265631,12936.0,3069.0,2487.0,0.519,0.5,-0.418,0.554
5265647,12878.0,1977.0,3395.0,0.542,0.494,-0.4,0.55
5265663,12596.0,3651.0,2989.0,0.564,0.489,-0.38,0.546
5265689,13292.0,4599.0,2515.0,0.588,0.483,-0.361,0.54
5265706,13156.0,3163.0,2801.0,0.613,0.475,-0.341,0.532
5265722,12296.0,3127.0,2961.0,0.637,0.467,-0.32,0.523
5265738,11808.0,4351.0,2583.0,0.661,0.458,-0.3,0.513
5265754,11290.0,5009.0,3473.0,0.684,0.448,-0.282,0.501
5265770,10970.0,2867.0,2963.0,0.707,0.438,-0.263,0.49
5265786,10298.0,3745.0,2765.0,0.727,0.428,-0.244,0.478
5265812,9234.0,3781.0,3473.0,0.747,0.417,-0.227,0.466
5265828,8542.0,3407.0,3717.0,0.765,0.406,-0.21,0.454
5265844,8272.0,2771.0,3483.0,0.781,0.396,-0.194,0.443
5265860,8328.0,3645.0,2833.0,0.795,0.386,-0.179,0.432
5265876,7124.0,2921.0,3031.0,0.809,0.375,-0.165,0.422
5265902,6950.0,3361.0,3357.0,0.821,0.364,-0.151,0.412
5265918,7002.0,3839.0,3897.0,0.833,0.352,-0.138,0.403
5265934,7028.0,2833.0,3207.0,0.844,0.34,-0.126,0.395
5265950,6896.0,2445.0,2857.0,0.854,0.328,-0.112,0.387
5265966,6110.0,3403.0,2887.0,0.864,0.316,-0.097,0.378
5265983,5436.0,2347.0,3841.0,0.875,0.302,-0.082,0.37
5265999,4706.0,651.0,4059.0,0.884,0.289,-0.067,0.361
5266016,3886.0,829.0,3695.0,0.891,0.28,-0.051,0.354
5266033,3314.0,2305.0,3037.0,0.897,0.273,-0.034,0.346
5266059,3342.0,3083.0,2953.0,0.903,0.264,-0.018,0.339
5266075,2274.0,2593.0,3249.0,0.909,0.253,-0.003,0.331
5266091,2146.0,1429.0,3473.0,0.915,0.242,0.01,0.324
5266107,1412.0,923.0,3479.0,0.92,0.232,0.022,0.316
5266123,454.0,629.0,3767.0,0.924,0.223,0.034,0.309
5266139,416.0,547.0,2989.0,0.928,0.214,0.044,0.301
5266165,-858.0,1013.0,2849.0,0.932,0.206,0.055,0.295
5266181,-1240.0,913.0,3265.0,0.935,0.198,0.064,0.288
5266197,-1178.0,101.0,3447.0,0.937,0.19,0.07,0.283
5266213,-2064.0,-519.0,2947.0,0.939,0.186,0.076,0.279
5266229,-1120.0,331.0,2429.0,0.94,0.185,0.081,0.276
5266255,-1420.0,639.0,2205.0,0.94,0.184,0.085,0.274
5266271,-1654.0,109.0,2407.0,0.94,0.183,0.089,0.273
5266287,-2042.0,279.0,3085.0,0.94,0.182,0.09,0.273
5266304,-2140.0,453.0,3197.0,0.94,0.182,0.088,0.274
5266320,-1748.0,467.0,3021.0,0.94,0.184,0.083,0.276
5266336,-1668.0,591.0,3241.0,0.939,0.185,0.076,0.279
5266352,-958.0,639.0,2971.0,0.938,0.188,0.067,0.283
5266378,-630.0,563.0,2863.0,0.937,0.192,0.057,0.287
5266394,-362.0,1205.0,3565.0,0.935,0.195,0.046,0.292
5266410,146.0,1109.0,3767.0,0.933,0.199,0.034,0.298
5266426,370.0,1289.0,3875.0,0.93,0.204,0.02,0.304
5266442,924.0,1015.0,3833.0,0.927,0.21,0.005,0.311
5266458,1630.0,1251.0,3573.0,0.923,0.217,-0.01,0.319
5266484,1948.0,1573.0,4085.0,0.918,0.224,-0.026,0.326
5266500,2734.0,1687.0,4357.0,0.912,0.233,-0.043,0.334
5266517,2720.0,1163.0,4599.0,0.906,0.243,-0.06,0.342
5266534,2766.0,1839.0,4647.0,0.898,0.255,-0.077,0.351
5266550,3784.0,2815.0,4585.0,0.889,0.268,-0.095,0.36
5266566,4286.0,2815.0,4945.0,0.879,0.28,-0.115,0.369
5266592,4224.0,2207.0,5021.0,0.868,0.293,-0.135,0.378
5266608,4500.0,3457.0,4935.0,0.855,0.308,-0.155,0.387
5266624,5786.0,4161.0,5881.0,0.842,0.322,-0.177,0.396
5266640,6970.0,2529.0,5333.0,0.827,0.335,-0.2,0.404
5266656,7712.0,1919.0,4651.0,0.81,0.351,-0.22,0.415
5266672,8890.0,4061.0,4761.0,0.791,0.369,-0.237,0.426
5266688,9236.0,3239.0,5091.0,0.772,0.384,-0.252,0.439
5266714,9800.0,2627.0,4349.0,0.752,0.401,-0.264,0.451
5266730,10540.0,4313.0,4157.0,0.731,0.418,-0.272,0.465
5266746,10342.0,4737.0,4237.0,0.71,0.432,-0.28,0.48
5266762,10010.0,3775.0,4293.0,0.689,0.447,-0.287,0.494
5266778,10476.0,3473.0,3975.0,0.666,0.461,-0.294,0.507
5266794,10708.0,4343.0,3479.0,0.643,0.474,-0.299,0.521
5266820,10738.0,3505.0,3043.0,0.62,0.487,-0.305,0.535
5266836,10830.0,4379.0,3061.0,0.596,0.499,-0.309,0.548
5266852,10332.0,3675.0,3983.0,0.571,0.511,-0.314,0.561
5266868,10734.0,2719.0,3495.0,0.544,0.524,-0.316,0.574
5266884,11382.0,3043.0,2359.0,0.516,0.537,-0.315,0.588
5266910,11228.0,4303.0,1713.0,0.488,0.549,-0.313,0.601
5266926,11060.0,3911.0,1847.0,0.462,0.56,-0.311,0.613
5266942,10932.0,4185.0,1509.0,0.435,0.57,-0.309,0.625
5266958,10570.0,4133.0,1461.0,0.41,0.579,-0.307,0.635
5266974,10550.0,4459.0,1211.0,0.386,0.586,-0.305,0.644
5266990,10220.0,4101.0,1355.0,0.364,0.592,-0.302,0.652
5267016,10500.0,4405.0,1229.0,0.343,0.597,-0.299,0.66
5267033,9922.0,4447.0,1437.0,0.325,0.602,-0.297,0.666
