timestamp,ax,ay,az,q0,q1,q2,q3
6481563,14507.0,3662.0,2123.0,0.716,0.421,-0.307,0.465
6481579,13711.0,3590.0,2205.0,0.74,0.404,-0.284,0.457
6481595,12815.0,3802.0,1795.0,0.762,0.387,-0.26,0.449
6481621,12181.0,3728.0,2067.0,0.783,0.371,-0.237,0.44
6481638,11523.0,3564.0,1717.0,0.802,0.354,-0.215,0.431
6481655,10579.0,3274.0,1409.0,0.819,0.338,-0.192,0.422
6481671,9565.0,2962.0,1743.0,0.835,0.322,-0.171,0.413
6481688,8915.0,1762.0,2167.0,0.849,0.307,-0.151,0.403
6481705,8085.0,2956.0,1619.0,0.86,0.294,-0.132,0.395
6481721,7419.0,3654.0,499.0,0.871,0.281,-0.115,0.387
6481737,6747.0,2012.0,1135.0,0.881,0.266,-0.098,0.379
6481764,6047.0,1480.0,1541.0,0.889,0.253,-0.081,0.373
6481780,5265.0,1976.0,1351.0,0.897,0.24,-0.065,0.366
6481797,4863.0,1374.0,1275.0,0.903,0.229,-0.05,0.36
6481813,4153.0,1418.0,1327.0,0.908,0.219,-0.036,0.355
6481830,3667.0,656.0,1779.0,0.913,0.21,-0.024,0.349
6481846,3161.0,410.0,1493.0,0.917,0.202,-0.012,0.344
6481862,2909.0,312.0,1111.0,0.921,0.196,-0.001,0.338
6481888,2403.0,226.0,575.0,0.924,0.189,0.011,0.333
6481904,1569.0,-248.0,877.0,0.927,0.182,0.022,0.328
6481921,703.0,-314.0,191.0,0.929,0.175,0.032,0.323
6481938,-215.0,98.0,-265.0,0.932,0.168,0.041,0.32
6481954,-1113.0,-900.0,377.0,0.934,0.16,0.048,0.317
6481971,-2201.0,-2958.0,779.0,0.935,0.155,0.052,0.314
6481988,-2461.0,-2252.0,379.0,0.936,0.155,0.054,0.31
6482005,-2179.0,-668.0,23.0,0.937,0.157,0.052,0.308
6482021,-1723.0,-482.0,101.0,0.938,0.159,0.047,0.306
6482038,-1477.0,-1874.0,405.0,0.938,0.162,0.04,0.305
6482065,-1169.0,-1666.0,583.0,0.937,0.167,0.032,0.304
6482081,-817.0,-1066.0,545.0,0.937,0.174,0.021,0.303
6482098,257.0,-430.0,1241.0,0.935,0.183,0.009,0.303
6482115,443.0,-212.0,787.0,0.933,0.192,-0.005,0.304
6482131,1295.0,788.0,893.0,0.93,0.203,-0.02,0.305
6482147,2733.0,-32.0,1831.0,0.927,0.214,-0.037,0.306
6482163,3001.0,56.0,2049.0,0.923,0.226,-0.054,0.308
6482179,3755.0,1264.0,2453.0,0.917,0.241,-0.072,0.31
6482206,4803.0,1994.0,2453.0,0.91,0.255,-0.091,0.314
6482222,5339.0,2340.0,2395.0,0.902,0.269,-0.111,0.318
6482238,6001.0,1902.0,3183.0,0.893,0.285,-0.131,0.323
6482254,7177.0,2488.0,2819.0,0.882,0.301,-0.153,0.329
6482271,7831.0,3300.0,3197.0,0.87,0.317,-0.175,0.335
6482288,8663.0,2818.0,3199.0,0.858,0.332,-0.195,0.341
6482304,9323.0,3344.0,3167.0,0.844,0.348,-0.215,0.348
6482330,10129.0,4456.0,3173.0,0.829,0.364,-0.235,0.354
6482346,10673.0,4410.0,2875.0,0.814,0.378,-0.253,0.362
6482362,10741.0,4572.0,3491.0,0.799,0.391,-0.271,0.368
6482378,10551.0,2768.0,3569.0,0.782,0.406,-0.288,0.375
6482394,11653.0,3644.0,3201.0,0.763,0.423,-0.304,0.381
6482410,12177.0,4666.0,2353.0,0.744,0.44,-0.318,0.389
6482436,11955.0,5178.0,2657.0,0.725,0.456,-0.33,0.397
6482453,11833.0,5988.0,1329.0,0.705,0.47,-0.342,0.406
6482470,12043.0,4802.0,2231.0,0.687,0.48,-0.355,0.413
6482487,11467.0,2090.0,2675.0,0.668,0.492,-0.367,0.421
6482504,11713.0,3720.0,1551.0,0.646,0.506,-0.377,0.43
6482521,11865.0,5066.0,739.0,0.624,0.519,-0.386,0.439
6482538,11717.0,5324.0,919.0,0.602,0.529,-0.397,0.447
6482554,11239.0,3754.0,1743.0,0.58,0.538,-0.408,0.455
6482571,11817.0,3918.0,519.0,0.557,0.547,-0.42,0.463
6482588,12121.0,3112.0,603.0,0.533,0.555,-0.43,0.471
6482604,11539.0,3726.0,379.0,0.511,0.562,-0.441,0.479
6482631,11769.0,2604.0,2031.0,0.488,0.568,-0.452,0.485
6482647,11737.0,4408.0,789.0,0.465,0.575,-0.462,0.49
6482663,11879.0,3938.0,491.0,0.444,0.579,-0.472,0.495
6482679,11683.0,3546.0,-155.0,0.423,0.581,-0.482,0.5
6482695,11445.0,2206.0,383.0,0.405,0.583,-0.492,0.504
6482721,11363.0,2348.0,895.0,0.387,0.585,-0.499,0.509
6482738,11129.0,3500.0,887.0,0.368,0.587,-0.505,0.515
6482754,10813.0,3344.0,227.0,0.351,0.588,-0.511,0.52
6482771,10291.0,2810.0,393.0,0.335,0.588,-0.517,0.524
6482787,9945.0,2950.0,703.0,0.319,0.589,-0.522,0.529
6482804,9613.0,3630.0,491.0,0.306,0.589,-0.527,0.532
6482821,9305.0,3550.0,993.0,0.295,0.588,-0.532,0.533
6482837,9153.0,3250.0,1005.0,0.287,0.588,-0.538,0.532
6482853,9025.0,3244.0,983.0,0.28,0.588,-0.543,0.53
6482879,9093.0,2874.0,907.0,0.275,0.588,-0.548,0.527
6482895,8939.0,3506.0,851.0,0.273,0.588,-0.552,0.524
6482911,8809.0,3106.0,1183.0,0.273,0.588,-0.555,0.521
6482927,8973.0,2920.0,1085.0,0.275,0.588,-0.558,0.517
6482943,9133.0,3180.0,1119.0,0.28,0.588,-0.559,0.513
6482959,9309.0,2926.0,1369.0,0.286,0.587,-0.56,0.51
6482985,9621.0,2972.0,1327.0,0.294,0.587,-0.559,0.506
6483001,10259.0,3168.0,855.0,0.305,0.586,-0.557,0.503
6483018,10765.0,2704.0,925.0,0.319,0.584,-0.554,0.5
6483034,10941.0,2370.0,559.0,0.336,0.581,-0.549,0.497
6483050,11513.0,2558.0,991.0,0.355,0.578,-0.544,0.495
6483067,12047.0,2706.0,1255.0,0.376,0.573,-0.536,0.493
6483083,12631.0,3358.0,1353.0,0.398,0.568,-0.527,0.49
6483109,13411.0,3278.0,1535.0,0.423,0.562,-0.518,0.487
6483125,14275.0,2862.0,1325.0,0.45,0.555,-0.507,0.483
6483141,14331.0,2868.0,1101.0,0.478,0.547,-0.494,0.477
6483157,15847.0,1904.0,1087.0,0.507,0.539,-0.479,0.472
6483173,15951.0,3780.0,1111.0,0.536,0.531,-0.461,0.467
6483189,16325.0,3192.0,1175.0,0.566,0.521,-0.442,0.461
6483216,16609.0,3650.0,993.0,0.596,0.51,-0.421,0.455
6483232,16745.0,3582.0,827.0,0.626,0.497,-0.399,0.449
6483248,16393.0,3280.0,897.0,0.656,0.483,-0.375,0.442
6483264,15811.0,4068.0,1287.0,0.684,0.469,-0.351,0.435
6483280,15195.0,4316.0,865.0,0.711,0.453,-0.326,0.427
6483296,14441.0,3912.0,1325.0,0.738,0.435,-0.302,0.419
6483312,13231.0,3222.0,1357.0,0.762,0.418,-0.278,0.41
6483338,12121.0,3624.0,1447.0,0.784,0.401,-0.254,0.401
6483354,10987.0,4148.0,1409.0,0.804,0.383,-0.232,0.391
6483371,10033.0,3398.0,1771.0,0.823,0.365,-0.211,0.381
6483387,9089.0,2836.0,1835.0,0.84,0.348,-0.191,0.371
6483404,8213.0,3092.0,1753.0,0.854,0.333,-0.172,0.361
6483421,7405.0,2530.0,1565.0,0.867,0.317,-0.155,0.353
6483438,7157.0,2762.0,1521.0,0.878,0.301,-0.138,0.345
6483454,6189.0,2212.0,1267.0,0.888,0.285,-0.12,0.34
6483481,5379.0,2292.0,1317.0,0.897,0.269,-0.104,0.335
6483497,5281.0,674.0,1891.0,0.905,0.255,-0.087,0.331
6483513,4207.0,60.0,1979.0,0.91,0.243,-0.069,0.328
6483529,3483.0,1790.0,935.0,0.915,0.234,-0.052,0.325
6483545,3665.0,4542.0,815.0,0.919,0.224,-0.037,0.324
6483561,3319.0,2930.0,671.0,0.923,0.208,-0.024,0.322
6483587,2213.0,38.0,343.0,0.927,0.192,-0.012,0.321
6483604,2035.0,-448.0,579.0,0.931,0.177,-0.001,0.32
6483621,1253.0,-1422.0,247.0,0.934,0.166,0.01,0.317
6483637,-109.0,-1196.0,-73.0,0.936,0.158,0.021,0.314
6483654,-619.0,-382.0,-301.0,0.938,0.151,0.03,0.31
6483671,-1265.0,-1682.0,-307.0,0.94,0.145,0.037,0.307
6483688,-1371.0,-2562.0,-609.0,0.941,0.141,0.042,0.305
6483704,-1711.0,-1552.0,-1099.0,0.942,0.14,0.046,0.302
6483721,-1945.0,-1556.0,-959.0,0.942,0.139,0.049,0.301
6483737,-2091.0,-2206.0,-611.0,0.942,0.141,0.048,0.3
6483764,-1861.0,-2120.0,-469.0,0.942,0.145,0.043,0.299
6483780,-1459.0,-1748.0,-285.0,0.942,0.152,0.036,0.298
6483796,-501.0,-1292.0,-35.0,0.941,0.162,0.026,0.297
6483812,147.0,-910.0,111.0,0.939,0.173,0.014,0.297
6483828,635.0,-1326.0,973.0,0.936,0.187,0.0,0.297
6483844,1099.0,-410.0,977.0,0.933,0.204,-0.015,0.297
6483870,2203.0,1016.0,825.0,0.928,0.222,-0.033,0.298
6483887,3489.0,1986.0,1327.0,0.922,0.239,-0.052,0.3
6483903,3945.0,2182.0,1321.0,0.916,0.255,-0.072,0.301
6483920,5367.0,4020.0,1373.0,0.909,0.27,-0.093,0.303
6483937,6505.0,3290.0,1939.0,0.901,0.284,-0.116,0.305
6483953,7079.0,3160.0,2983.0,0.893,0.298,-0.139,0.308
6483970,6567.0,2330.0,3141.0,0.882,0.315,-0.161,0.312
6483987,8075.0,3500.0,3131.0,0.869,0.334,-0.183,0.315
6484004,9263.0,4072.0,2093.0,0.855,0.355,-0.204,0.319
6484020,10023.0,4972.0,2175.0,0.84,0.374,-0.224,0.324
6484047,10199.0,4270.0,2783.0,0.825,0.391,-0.243,0.329
6484063,10661.0,5420.0,2313.0,0.808,0.409,-0.261,0.335
6484079,10891.0,6372.0,2323.0,0.791,0.424,-0.279,0.342
6484095,11195.0,5360.0,3167.0,0.774,0.436,-0.299,0.348
6484111,11797.0,3896.0,3163.0,0.755,0.449,-0.318,0.355
6484128,12239.0,4080.0,2049.0,0.736,0.464,-0.336,0.362
6484144,12681.0,6102.0,1411.0,0.715,0.477,-0.352,0.371
6484170,12521.0,5528.0,2049.0,0.696,0.487,-0.368,0.379
6484191,12795.0,3692.0,1797.0,0.676,0.496,-0.384,0.386
6484207,13253.0,3592.0,1315.0,0.656,0.507,-0.397,0.395
6484223,12311.0,6102.0,1355.0,0.634,0.518,-0.408,0.404
6484239,12207.0,6000.0,1189.0,0.614,0.525,-0.422,0.411
6484255,12411.0,4310.0,1367.0,0.593,0.532,-0.436,0.418
6484271,12547.0,3644.0,897.0,0.573,0.539,-0.449,0.423
6484287,11699.0,3636.0,447.0,0.552,0.545,-0.462,0.429
6484303,11497.0,4378.0,505.0,0.53,0.552,-0.475,0.435
6484330,11427.0,4462.0,807.0,0.508,0.557,-0.488,0.439
6484346,11591.0,3226.0,735.0,0.487,0.561,-0.502,0.442
6484362,11537.0,2020.0,1041.0,0.466,0.566,-0.514,0.445
6484378,12433.0,3302.0,493.0,0.444,0.571,-0.525,0.449
6484394,11897.0,4384.0,-227.0,0.423,0.574,-0.535,0.453
6484420,11365.0,3548.0,-95.0,0.403,0.575,-0.546,0.457
6484437,11001.0,2768.0,381.0,0.384,0.575,-0.556,0.461
6484454,11115.0,3256.0,723.0,0.365,0.575,-0.566,0.465
6484470,10937.0,3102.0,431.0,0.348,0.573,-0.575,0.468
6484487,10477.0,2852.0,303.0,0.333,0.571,-0.584,0.472
6484503,10215.0,2756.0,-347.0,0.319,0.568,-0.591,0.475
6484520,10533.0,2844.0,-199.0,0.309,0.565,-0.597,0.478
6484537,9331.0,2026.0,-117.0,0.302,0.561,-0.602,0.481
6484553,8943.0,1464.0,455.0,0.298,0.557,-0.606,0.484
6484569,8979.0,1612.0,1283.0,0.294,0.555,-0.608,0.485
6484596,8747.0,2254.0,1637.0,0.293,0.553,-0.61,0.486
6484612,8767.0,1774.0,1981.0,0.293,0.553,-0.612,0.484
6484628,8829.0,2292.0,2111.0,0.294,0.553,-0.613,0.482
6484644,8907.0,2680.0,1759.0,0.297,0.553,-0.615,0.477
6484660,9281.0,1262.0,1699.0,0.302,0.554,-0.616,0.471
6484676,10057.0,2010.0,1135.0,0.308,0.556,-0.616,0.466
6484702,10117.0,2160.0,867.0,0.316,0.557,-0.614,0.461
6484718,10573.0,1418.0,505.0,0.327,0.557,-0.612,0.457
6484735,11123.0,1142.0,725.0,0.339,0.557,-0.607,0.454
6484752,11867.0,2182.0,813.0,0.354,0.557,-0.6,0.452
6484769,12185.0,2112.0,285.0,0.372,0.555,-0.592,0.452
6484786,12953.0,2182.0,177.0,0.392,0.551,-0.581,0.452
6484802,13109.0,1304.0,109.0,0.415,0.547,-0.568,0.454
6484819,13831.0,1440.0,311.0,0.44,0.541,-0.552,0.457
6484836,14143.0,2842.0,1249.0,0.467,0.535,-0.533,0.461
6484853,14495.0,3554.0,1553.0,0.495,0.527,-0.513,0.463
6484880,15251.0,3206.0,2041.0,0.524,0.518,-0.494,0.462
6484896,16025.0,2890.0,1475.0,0.552,0.509,-0.473,0.46
6484912,15811.0,1940.0,1083.0,0.58,0.502,-0.451,0.457
6484928,15901.0,3340.0,619.0,0.607,0.495,-0.425,0.454
6484944,16533.0,5462.0,1733.0,0.632,0.488,-0.398,0.451
6484960,15635.0,2462.0,1185.0,0.659,0.479,-0.372,0.446
6484986,15669.0,3604.0,301.0,0.683,0.471,-0.343,0.441
6485003,15111.0,7048.0,-171.0,0.708,0.46,-0.313,0.434
6485021,13423.0,4440.0,1245.0,0.734,0.444,-0.286,0.427
6485037,11371.0,3032.0,1557.0,0.757,0.43,-0.259,0.419
6485054,10851.0,5380.0,1379.0,0.777,0.417,-0.234,0.409
6485070,10661.0,4848.0,931.0,0.796,0.403,-0.212,0.399
6485086,10151.0,3260.0,745.0,0.814,0.387,-0.19,0.388
6485102,8605.0,3886.0,1199.0,0.831,0.372,-0.168,0.377
6485119,7863.0,3362.0,1707.0,0.846,0.358,-0.149,0.366
6485146,6561.0,3050.0,1367.0,0.86,0.344,-0.13,0.355
6485162,6383.0,2856.0,1603.0,0.872,0.33,-0.112,0.345
6485178,5365.0,2532.0,1171.0,0.882,0.317,-0.094,0.336
6485194,4863.0,2970.0,1201.0,0.891,0.304,-0.078,0.328
6485210,4775.0,1948.0,1295.0,0.899,0.29,-0.063,0.321
6485226,4155.0,1076.0,1767.0,0.907,0.276,-0.048,0.315
6485252,3367.0,1356.0,1409.0,0.913,0.265,-0.035,0.309
6485269,2415.0,1318.0,1575.0,0.918,0.254,-0.022,0.305
6485285,1143.0,1818.0,2549.0,0.922,0.243,-0.013,0.302
6485302,631.0,-1108.0,3587.0,0.924,0.236,-0.007,0.302
6485319,829.0,2428.0,2077.0,0.925,0.232,-0.005,0.302
6485336,2275.0,1868.0,1493.0,0.926,0.225,-0.004,0.303
6485353,1945.0,-2502.0,1743.0,0.927,0.217,-0.003,0.305
6485369,1539.0,-2636.0,1591.0,0.928,0.214,0.001,0.305
6485386,1071.0,-146.0,1349.0,0.929,0.211,0.006,0.305
6485402,51.0,366.0,421.0,0.93,0.207,0.013,0.304
6485428,-625.0,-1410.0,619.0,0.931,0.201,0.018,0.304
6485444,-1429.0,-1832.0,843.0,0.932,0.196,0.023,0.303
6485460,-1957.0,-1482.0,221.0,0.933,0.193,0.027,0.302
6485476,-2317.0,-360.0,-39.0,0.934,0.19,0.028,0.301
6485492,-2517.0,-1062.0,255.0,0.935,0.188,0.024,0.3
6485508,-2197.0,-2518.0,513.0,0.935,0.188,0.018,0.3
6485534,-1413.0,-1210.0,415.0,0.935,0.191,0.008,0.3
6485550,-841.0,-424.0,221.0,0.933,0.197,-0.005,0.301
6485566,521.0,-724.0,905.0,0.931,0.203,-0.019,0.302
6485583,833.0,-982.0,827.0,0.929,0.212,-0.035,0.302
6485599,1669.0,-2080.0,1815.0,0.925,0.224,-0.051,0.303
6485615,2003.0,-112.0,1405.0,0.92,0.241,-0.067,0.303
6485641,3061.0,2084.0,885.0,0.913,0.258,-0.084,0.304
6485657,3777.0,2926.0,877.0,0.907,0.272,-0.103,0.305
6485673,4909.0,2458.0,1075.0,0.899,0.285,-0.124,0.308
6485689,6833.0,2200.0,1153.0,0.892,0.297,-0.145,0.309
6485705,7069.0,2312.0,2197.0,0.883,0.311,-0.166,0.312
6485721,6531.0,3734.0,3243.0,0.872,0.326,-0.189,0.314
6485737,7949.0,3206.0,3575.0,0.859,0.341,-0.214,0.316
6485763,9183.0,1828.0,3321.0,0.844,0.358,-0.239,0.32
6485779,10293.0,4304.0,1847.0,0.826,0.378,-0.262,0.326
6485795,11331.0,6120.0,1603.0,0.809,0.393,-0.284,0.333
6485811,11901.0,2502.0,1973.0,0.793,0.405,-0.304,0.339
6485827,11997.0,2966.0,1899.0,0.775,0.42,-0.321,0.347
6485843,12263.0,5568.0,2287.0,0.757,0.434,-0.336,0.355
6485869,11605.0,5294.0,1869.0,0.739,0.446,-0.351,0.363
6485886,11513.0,3886.0,1639.0,0.721,0.456,-0.367,0.372
6485903,12657.0,4252.0,1139.0,0.701,0.467,-0.383,0.38
6485919,12691.0,5148.0,1055.0,0.681,0.476,-0.397,0.389
6485936,13093.0,4382.0,195.0,0.661,0.484,-0.412,0.398
6485952,12227.0,3624.0,439.0,0.643,0.491,-0.426,0.405
6485969,12159.0,3554.0,1407.0,0.624,0.498,-0.44,0.412
6485986,11833.0,3068.0,1009.0,0.602,0.506,-0.454,0.418
6486003,12173.0,2910.0,449.0,0.579,0.513,-0.469,0.426
6486029,12459.0,2862.0,-711.0,0.556,0.519,-0.483,0.433
6486045,12741.0,3926.0,315.0,0.533,0.525,-0.497,0.44
6486061,12785.0,3710.0,255.0,0.511,0.529,-0.512,0.444
6486077,12595.0,2896.0,489.0,0.489,0.531,-0.528,0.448
6486093,12939.0,2162.0,-207.0,0.467,0.534,-0.542,0.451
6486109,13401.0,1682.0,-417.0,0.445,0.537,-0.555,0.454
6486135,13223.0,2848.0,-107.0,0.424,0.539,-0.566,0.457
6486152,12375.0,4074.0,461.0,0.405,0.54,-0.577,0.459
6486169,11861.0,2878.0,593.0,0.388,0.541,-0.589,0.459
6486185,11739.0,2114.0,665.0,0.371,0.541,-0.6,0.457
6486202,11389.0,2156.0,1067.0,0.356,0.542,-0.611,0.455
6486219,10535.0,2824.0,1567.0,0.342,0.543,-0.62,0.452
6486235,9987.0,3146.0,2029.0,0.329,0.543,-0.629,0.448
6486252,9383.0,3330.0,2529.0,0.317,0.543,-0.639,0.443
6486269,9005.0,4142.0,3587.0,0.307,0.542,-0.65,0.436
6486286,9195.0,4066.0,2363.0,0.298,0.54,-0.662,0.426
6486313,10155.0,2516.0,1349.0,0.291,0.537,-0.674,0.416
6486329,11863.0,2636.0,1687.0,0.287,0.534,-0.682,0.409
6486345,11015.0,4060.0,1925.0,0.289,0.527,-0.69,0.402
6486361,10941.0,1170.0,961.0,0.297,0.521,-0.696,0.396
6486377,12353.0,-310.0,1113.0,0.308,0.516,-0.696,0.393
6486393,12471.0,1056.0,1167.0,0.323,0.513,-0.691,0.394
6486419,12735.0,2560.0,1231.0,0.342,0.51,-0.682,0.397
6486436,12925.0,1550.0,1125.0,0.366,0.507,-0.67,0.4
6486452,13441.0,1030.0,1167.0,0.392,0.504,-0.655,0.405
6486469,13713.0,1648.0,1713.0,0.419,0.501,-0.637,0.41
6486486,14373.0,2372.0,2057.0,0.449,0.498,-0.616,0.414
6486503,15263.0,3282.0,2085.0,0.479,0.494,-0.594,0.417
6486519,15937.0,2700.0,1375.0,0.509,0.49,-0.571,0.417
6486536,16613.0,2302.0,415.0,0.541,0.486,-0.547,0.415
6486553,18071.0,4944.0,-879.0,0.573,0.479,-0.521,0.413
6486569,17647.0,3510.0,-295.0,0.606,0.47,-0.494,0.409
6486596,17067.0,2270.0,755.0,0.639,0.46,-0.465,0.405
6486612,16525.0,3506.0,429.0,0.669,0.45,-0.435,0.4
6486628,16711.0,4422.0,447.0,0.698,0.439,-0.406,0.395
6486644,15439.0,3432.0,941.0,0.725,0.425,-0.377,0.389
6486660,14715.0,2786.0,615.0,0.75,0.412,-0.349,0.383
6486676,13997.0,3812.0,673.0,0.773,0.398,-0.32,0.377
6486702,13353.0,3432.0,277.0,0.794,0.383,-0.292,0.37
6486718,11959.0,3962.0,921.0,0.815,0.367,-0.264,0.363
6486735,10899.0,3406.0,1057.0,0.833,0.35,-0.238,0.356
6486752,9703.0,3094.0,643.0,0.85,0.333,-0.211,0.349
6486769,8467.0,2934.0,901.0,0.864,0.317,-0.187,0.343
6486786,7177.0,2368.0,1299.0,0.877,0.302,-0.163,0.336
6486802,5945.0,2820.0,1277.0,0.888,0.287,-0.141,0.33
6486819,5525.0,2558.0,1387.0,0.898,0.272,-0.122,0.324
6486836,5159.0,1440.0,1377.0,0.906,0.256,-0.106,0.319
6486852,4635.0,918.0,1359.0,0.913,0.244,-0.089,0.315
6486879,3993.0,1922.0,1155.0,0.919,0.233,-0.073,0.31
6486895,3759.0,1882.0,2081.0,0.924,0.223,-0.058,0.306
6486911,3963.0,1102.0,1891.0,0.928,0.213,-0.044,0.303
6486927,4211.0,1926.0,1441.0,0.931,0.204,-0.03,0.3
6486943,3609.0,3380.0,65.0,0.935,0.192,-0.013,0.298
6486959,3463.0,2916.0,-285.0,0.938,0.176,0.004,0.297
6486985,1731.0,-2238.0,633.0,0.942,0.157,0.023,0.296
6487002,37.0,-4478.0,699.0,0.944,0.144,0.044,0.293
6487019,-1025.0,-3148.0,7.0,0.946,0.136,0.065,0.289
6487036,-1733.0,144.0,-823.0,0.946,0.128,0.084,0.284
6487052,-1955.0,1374.0,-665.0,0.947,0.119,0.1,0.28
6487068,-2579.0,1012.0,233.0,0.948,0.107,0.112,0.276
6487085,-3605.0,-2558.0,573.0,0.949,0.097,0.119,0.274
6487102,-3769.0,-2252.0,715.0,0.95,0.093,0.122,0.273
6487119,-3735.0,-1400.0,539.0,0.95,0.092,0.119,0.273
6487136,-3337.0,-1880.0,401.0,0.95,0.095,0.111,0.275
6487162,-2163.0,-1460.0,277.0,0.951,0.1,0.097,0.277
6487178,-1393.0,-1170.0,317.0,0.95,0.107,0.081,0.28
6487194,-263.0,-524.0,527.0,0.95,0.117,0.061,0.283
6487210,67.0,-788.0,407.0,0.949,0.127,0.039,0.286
6487226,1743.0,-462.0,879.0,0.947,0.14,0.016,0.289
6487242,2595.0,-474.0,1791.0,0.944,0.153,-0.007,0.292
6487268,2779.0,174.0,2723.0,0.94,0.169,-0.029,0.295
6487285,3737.0,-70.0,4885.0,0.935,0.187,-0.053,0.297
6487302,4231.0,262.0,4477.0,0.928,0.209,-0.076,0.299
6487319,5633.0,1678.0,3207.0,0.919,0.233,-0.098,0.302
6487335,5493.0,4702.0,977.0,0.909,0.254,-0.121,0.306
6487351,6243.0,5110.0,2181.0,0.899,0.27,-0.145,0.312
6487368,7823.0,2474.0,2817.0,0.889,0.282,-0.169,0.318
6487385,8367.0,1702.0,3593.0,0.879,0.294,-0.19,0.324
6487402,8709.0,1026.0,4817.0,0.867,0.309,-0.209,0.331
6487428,8411.0,2038.0,3099.0,0.853,0.326,-0.226,0.339
6487444,9111.0,7150.0,2787.0,0.838,0.342,-0.244,0.348
6487460,10801.0,5564.0,4359.0,0.824,0.352,-0.265,0.355
6487476,10111.0,2488.0,4479.0,0.81,0.363,-0.285,0.363
6487492,9791.0,4158.0,3455.0,0.792,0.377,-0.305,0.372
6487508,11453.0,4328.0,3703.0,0.774,0.389,-0.327,0.379
6487534,11983.0,3104.0,3111.0,0.754,0.403,-0.347,0.386
6487551,11933.0,4008.0,2051.0,0.734,0.416,-0.367,0.392
6487568,12709.0,5310.0,2245.0,0.713,0.429,-0.387,0.398
6487585,12213.0,3236.0,2761.0,0.693,0.44,-0.407,0.402
6487601,12909.0,1964.0,2039.0,0.671,0.451,-0.426,0.407
6487617,13137.0,3446.0,1531.0,0.648,0.464,-0.441,0.412
6487634,12917.0,2960.0,653.0,0.626,0.475,-0.455,0.419
6487651,12765.0,3900.0,1447.0,0.603,0.486,-0.468,0.425
6487668,12369.0,2466.0,2149.0,0.58,0.496,-0.482,0.43
6487685,12363.0,606.0,1471.0,0.555,0.508,-0.494,0.436
6487702,12621.0,2824.0,275.0,0.526,0.521,-0.505,0.445
6487729,13087.0,5156.0,217.0,0.497,0.531,-0.516,0.453
6487745,12673.0,3256.0,293.0,0.471,0.536,-0.529,0.459
6487761,13129.0,1080.0,531.0,0.445,0.542,-0.54,0.465
6487777,12915.0,2730.0,-123.0,0.419,0.548,-0.549,0.472
6487793,12569.0,3052.0,-135.0,0.395,0.552,-0.558,0.478
6487809,12223.0,2434.0,-389.0,0.372,0.554,-0.567,0.483
6487835,12009.0,2196.0,115.0,0.352,0.556,-0.574,0.487
6487852,11397.0,2040.0,461.0,0.333,0.558,-0.58,0.491
6487869,10855.0,2776.0,589.0,0.316,0.559,-0.586,0.494
6487885,10151.0,2606.0,595.0,0.3,0.561,-0.591,0.496
6487902,9789.0,2816.0,345.0,0.287,0.562,-0.596,0.497
6487918,9425.0,2228.0,1149.0,0.275,0.564,-0.601,0.496
6487935,9131.0,2172.0,1109.0,0.265,0.566,-0.604,0.495
6487952,9113.0,4130.0,1149.0,0.255,0.568,-0.607,0.494
6487978,9121.0,4092.0,1459.0,0.25,0.57,-0.611,0.489
6487994,9177.0,2026.0,1289.0,0.247,0.571,-0.615,0.485
6488010,9293.0,3190.0,639.0,0.246,0.573,-0.616,0.481
6488026,9867.0,4214.0,717.0,0.248,0.574,-0.618,0.477
6488042,10031.0,3696.0,563.0,0.254,0.574,-0.619,0.472
6488058,10387.0,2702.0,587.0,0.263,0.574,-0.619,0.468
6488074,10847.0,3562.0,317.0,0.275,0.573,-0.616,0.465
6488100,11829.0,3558.0,511.0,0.292,0.572,-0.612,0.462
6488117,12041.0,2040.0,109.0,0.313,0.57,-0.606,0.459
6488134,12303.0,2562.0,-115.0,0.336,0.567,-0.596,0.458
6488151,13355.0,3150.0,-197.0,0.363,0.564,-0.584,0.457
6488168,13621.0,1668.0,-333.0,0.394,0.558,-0.571,0.455
6488185,13027.0,800.0,-821.0,0.426,0.552,-0.555,0.454
6488202,14677.0,1224.0,469.0,0.461,0.544,-0.536,0.452
6488218,16005.0,2064.0,1339.0,0.497,0.536,-0.512,0.451
6488234,15643.0,3832.0,1099.0,0.534,0.528,-0.485,0.449
6488251,16193.0,4864.0,1571.0,0.57,0.517,-0.457,0.445
6488277,16099.0,3942.0,1849.0,0.606,0.504,-0.43,0.44
6488293,16125.0,5016.0,1485.0,0.64,0.49,-0.403,0.433
6488309,15705.0,5136.0,847.0,0.674,0.474,-0.377,0.424
6488325,15299.0,3010.0,2249.0,0.704,0.456,-0.352,0.414
6488341,14197.0,3472.0,2429.0,0.732,0.44,-0.328,0.404
6488357,13679.0,4164.0,2039.0,0.756,0.425,-0.305,0.393
6488383,12789.0,4372.0,1971.0,0.779,0.408,-0.284,0.383
6488400,11479.0,3068.0,2693.0,0.799,0.391,-0.263,0.374
6488417,10449.0,3326.0,2425.0,0.816,0.376,-0.244,0.367
6488434,10511.0,4968.0,1513.0,0.831,0.359,-0.226,0.36
6488451,10025.0,3824.0,1563.0,0.846,0.34,-0.208,0.353
6488468,8403.0,2106.0,2071.0,0.86,0.322,-0.192,0.348
6488485,7357.0,1460.0,2259.0,0.871,0.305,-0.176,0.343
6488501,6401.0,1702.0,2749.0,0.88,0.29,-0.16,0.34
6488517,6011.0,2604.0,1755.0,0.888,0.277,-0.145,0.337
6488543,5625.0,2286.0,1569.0,0.895,0.264,-0.13,0.336
6488560,5459.0,2364.0,1151.0,0.9,0.252,-0.115,0.335
6488576,5111.0,2694.0,583.0,0.906,0.239,-0.1,0.334
6488592,4619.0,1952.0,981.0,0.912,0.223,-0.085,0.333
6488608,4017.0,1148.0,1285.0,0.918,0.208,-0.071,0.331
6488624,3157.0,130.0,1307.0,0.922,0.195,-0.055,0.329
6488640,2045.0,1084.0,1163.0,0.926,0.183,-0.04,0.327
6488666,1877.0,944.0,545.0,0.93,0.17,-0.027,0.324
6488683,1017.0,44.0,87.0,0.934,0.157,-0.014,0.322
6488700,541.0,138.0,495.0,0.937,0.144,-0.002,0.319
6488717,-529.0,-960.0,845.0,0.939,0.132,0.009,0.317
6488734,-1319.0,-1296.0,485.0,0.941,0.124,0.018,0.315
6488751,-1561.0,-38.0,-19.0,0.942,0.117,0.025,0.313
6488768,-1587.0,-594.0,297.0,0.943,0.11,0.028,0.313
6488785,-2013.0,-2186.0,207.0,0.943,0.106,0.03,0.313
6488802,-2325.0,-1252.0,-25.0,0.944,0.105,0.028,0.313
6488819,-1815.0,-1048.0,413.0,0.943,0.107,0.022,0.313
6488835,-1389.0,-1814.0,517.0,0.943,0.111,0.014,0.314
6488852,-637.0,-912.0,515.0,0.942,0.118,0.005,0.314
6488879,-151.0,-528.0,559.0,0.941,0.127,-0.007,0.314
6488895,199.0,228.0,875.0,0.939,0.137,-0.019,0.315
6488911,887.0,-208.0,1307.0,0.937,0.147,-0.034,0.316
6488927,1803.0,-14.0,2299.0,0.934,0.159,-0.049,0.317
6488943,1865.0,750.0,1789.0,0.93,0.173,-0.065,0.317
6488959,2479.0,496.0,2569.0,0.926,0.189,-0.083,0.317
6488985,3667.0,2022.0,2469.0,0.92,0.206,-0.102,0.317
6489001,4449.0,3586.0,2775.0,0.914,0.222,-0.121,0.317
6489018,4927.0,3340.0,3803.0,0.907,0.237,-0.142,0.317
6489035,5847.0,1076.0,3891.0,0.899,0.253,-0.164,0.318
6489052,6863.0,1802.0,3651.0,0.889,0.273,-0.184,0.319
6489072,6863.0,3666.0,3811.0,0.877,0.294,-0.203,0.32
6489088,8071.0,3688.0,3483.0,0.865,0.314,-0.223,0.322
6489104,8873.0,3754.0,4087.0,0.852,0.332,-0.24,0.325
6489120,8983.0,4300.0,3707.0,0.838,0.35,-0.257,0.33
6489146,9545.0,5174.0,2871.0,0.824,0.367,-0.274,0.335
6489162,10237.0,5038.0,3031.0,0.809,0.38,-0.29,0.341
6489178,10219.0,4572.0,4247.0,0.795,0.393,-0.306,0.346
6489194,10359.0,3812.0,4007.0,0.779,0.407,-0.323,0.35
6489210,11149.0,4488.0,3143.0,0.762,0.422,-0.339,0.356
6489226,11587.0,5978.0,2487.0,0.745,0.435,-0.355,0.361
6489252,11381.0,4768.0,2771.0,0.728,0.446,-0.371,0.366
6489268,11883.0,4654.0,1935.0,0.71,0.457,-0.386,0.371
6489284,12077.0,4776.0,3587.0,0.692,0.466,-0.402,0.376
6489301,11441.0,2966.0,2305.0,0.673,0.477,-0.417,0.381
6489319,11501.0,2666.0,1305.0,0.654,0.488,-0.431,0.386
6489335,12261.0,3382.0,711.0,0.634,0.499,-0.442,0.392
6489351,11809.0,4668.0,977.0,0.615,0.509,-0.453,0.398
6489368,11399.0,4018.0,1945.0,0.596,0.516,-0.465,0.402
6489384,10979.0,2396.0,2143.0,0.576,0.526,-0.476,0.406
6489411,11763.0,3436.0,561.0,0.554,0.536,-0.487,0.411
6489427,12521.0,4616.0,-5.0,0.533,0.543,-0.498,0.416
6489443,11809.0,4838.0,483.0,0.513,0.548,-0.51,0.421
6489459,11597.0,4488.0,591.0,0.494,0.551,-0.523,0.424
6489475,11735.0,2820.0,925.0,0.475,0.553,-0.536,0.425
6489491,11795.0,3208.0,381.0,0.457,0.555,-0.548,0.427
6489517,11323.0,2448.0,739.0,0.44,0.556,-0.56,0.429
6489534,10577.0,1738.0,893.0,0.423,0.557,-0.57,0.431
6489551,10457.0,1802.0,847.0,0.405,0.559,-0.58,0.434
6489568,9913.0,2358.0,861.0,0.388,0.559,-0.588,0.437
6489585,10127.0,4710.0,2017.0,0.371,0.56,-0.598,0.438
6489601,9563.0,3568.0,1787.0,0.357,0.558,-0.608,0.438
6489618,9297.0,1196.0,1277.0,0.344,0.556,-0.617,0.437
6489634,9555.0,2576.0,851.0,0.332,0.556,-0.624,0.437
6489651,10097.0,4626.0,1047.0,0.322,0.555,-0.631,0.436
6489668,10273.0,2478.0,1559.0,0.317,0.553,-0.637,0.434
6489685,10009.0,1738.0,1575.0,0.313,0.552,-0.64,0.433
6489711,10425.0,3624.0,1917.0,0.311,0.552,-0.641,0.433
6489727,10309.0,3514.0,1851.0,0.313,0.551,-0.642,0.433
6489743,10373.0,3270.0,1629.0,0.319,0.549,-0.641,0.431
6489759,10297.0,2374.0,1401.0,0.328,0.548,-0.638,0.431
6489775,10981.0,2604.0,1369.0,0.339,0.546,-0.633,0.43
6489791,10533.0,2492.0,1053.0,0.354,0.545,-0.626,0.431
6489817,10897.0,2660.0,1395.0,0.371,0.543,-0.617,0.432
6489834,11575.0,3438.0,1255.0,0.391,0.541,-0.606,0.434
6489851,12041.0,3388.0,1349.0,0.413,0.537,-0.594,0.434
6489868,12711.0,2154.0,1187.0,0.438,0.532,-0.58,0.434
6489884,13327.0,2346.0,931.0,0.464,0.528,-0.563,0.435
6489901,13375.0,3870.0,873.0,0.491,0.523,-0.545,0.434
6489917,14065.0,3514.0,1069.0,0.52,0.517,-0.525,0.433
6489933,14491.0,3812.0,929.0,0.548,0.509,-0.505,0.43
6489950,14229.0,2878.0,1059.0,0.577,0.5,-0.484,0.427
6489977,14449.0,3094.0,807.0,0.605,0.492,-0.463,0.422
6489993,14525.0,4008.0,307.0,0.632,0.481,-0.441,0.417
6490009,13815.0,3910.0,447.0,0.659,0.469,-0.42,0.412
6490025,12683.0,2772.0,1317.0,0.685,0.455,-0.398,0.406
6490042,12345.0,2372.0,1867.0,0.709,0.442,-0.377,0.4
6490058,12391.0,3668.0,1065.0,0.73,0.43,-0.357,0.393
6490074,11823.0,3602.0,895.0,0.751,0.416,-0.336,0.387
6490100,10595.0,3294.0,1509.0,0.771,0.401,-0.317,0.381
6490117,10145.0,3156.0,1739.0,0.789,0.386,-0.298,0.375
6490134,9609.0,3094.0,1931.0,0.805,0.371,-0.279,0.369
6490151,8723.0,3690.0,2005.0,0.82,0.356,-0.262,0.363
6490168,8369.0,3672.0,2301.0,0.834,0.341,-0.247,0.357
6490184,7917.0,2554.0,2509.0,0.846,0.326,-0.233,0.352
6490201,7553.0,2340.0,2599.0,0.857,0.313,-0.22,0.346
6490217,6813.0,2848.0,2999.0,0.866,0.301,-0.208,0.341
6490234,6507.0,2334.0,3285.0,0.874,0.291,-0.196,0.337
6490251,5993.0,2798.0,2665.0,0.881,0.281,-0.185,0.333
6490277,5867.0,4266.0,2299.0,0.888,0.269,-0.175,0.33
6490293,5289.0,2290.0,2669.0,0.895,0.255,-0.165,0.327
6490309,4761.0,400.0,2965.0,0.901,0.242,-0.154,0.325
6490326,4491.0,2914.0,1961.0,0.907,0.231,-0.142,0.323
6490342,4003.0,4620.0,1979.0,0.913,0.215,-0.132,0.322
6490358,3399.0,256.0,3149.0,0.918,0.196,-0.123,0.321
6490384,2315.0,-2504.0,2873.0,0.923,0.182,-0.111,0.32
6490401,2691.0,1012.0,1753.0,0.926,0.173,-0.099,0.32
6490418,2525.0,2272.0,817.0,0.929,0.162,-0.086,0.32
6490435,1115.0,-830.0,1075.0,0.933,0.148,-0.074,0.32
6490451,-949.0,-2590.0,1331.0,0.935,0.139,-0.062,0.319
6490468,-1129.0,-364.0,1213.0,0.937,0.134,-0.053,0.319
6490484,-1283.0,668.0,-153.0,0.938,0.128,-0.047,0.319
6490501,-1327.0,-726.0,-311.0,0.938,0.122,-0.044,0.32
6490518,-1139.0,-2036.0,-247.0,0.939,0.118,-0.043,0.321
6490534,-1651.0,-2336.0,-75.0,0.939,0.118,-0.044,0.321
6490561,-1275.0,-1130.0,-93.0,0.938,0.121,-0.048,0.32
6490577,-1039.0,-974.0,295.0,0.937,0.127,-0.054,0.32
6490593,-735.0,-1112.0,325.0,0.936,0.135,-0.063,0.32
6490609,-33.0,-56.0,593.0,0.933,0.144,-0.075,0.32
6490625,837.0,-378.0,859.0,0.93,0.155,-0.089,0.32
6490641,1679.0,-28.0,801.0,0.927,0.167,-0.104,0.321
6490667,2601.0,692.0,1657.0,0.922,0.181,-0.121,0.321
6490684,3359.0,534.0,1991.0,0.917,0.195,-0.138,0.32
6490701,3949.0,1152.0,2239.0,0.91,0.212,-0.156,0.32
6490717,4797.0,1598.0,2713.0,0.903,0.228,-0.176,0.32
6490734,5627.0,1656.0,2773.0,0.894,0.246,-0.196,0.319
6490751,6243.0,1280.0,3403.0,0.884,0.265,-0.215,0.32
6490767,6241.0,4372.0,2803.0,0.871,0.286,-0.236,0.322
6490784,7699.0,4424.0,2821.0,0.859,0.302,-0.259,0.323
6490801,9097.0,2098.0,2941.0,0.845,0.317,-0.282,0.324
6490817,9969.0,1574.0,3093.0,0.831,0.335,-0.302,0.326
6490843,10035.0,4728.0,3267.0,0.816,0.353,-0.319,0.328
6490859,10633.0,4418.0,3711.0,0.801,0.369,-0.337,0.33
6490875,10709.0,2946.0,3513.0,0.785,0.384,-0.353,0.333
6490891,10827.0,4782.0,3303.0,0.769,0.4,-0.369,0.337
6490907,11047.0,4774.0,3167.0,0.752,0.413,-0.385,0.34
6490923,11823.0,3140.0,3079.0,0.735,0.426,-0.401,0.343
6490949,12701.0,3012.0,2295.0,0.718,0.439,-0.414,0.346
6490966,12431.0,4448.0,1893.0,0.702,0.452,-0.425,0.351
6490982,11131.0,5580.0,2379.0,0.686,0.461,-0.436,0.356
6490998,10509.0,3472.0,2731.0,0.671,0.469,-0.449,0.359
6491015,11121.0,2206.0,2579.0,0.653,0.479,-0.461,0.362
6491031,12099.0,2918.0,1341.0,0.635,0.489,-0.473,0.366
6491057,11801.0,4466.0,949.0,0.617,0.498,-0.482,0.372
6491076,10767.0,4432.0,1273.0,0.601,0.505,-0.492,0.376
6491092,10693.0,3112.0,1461.0,0.584,0.51,-0.504,0.38
6491108,10763.0,2216.0,1641.0,0.567,0.516,-0.515,0.384
6491124,11227.0,2636.0,665.0,0.549,0.521,-0.525,0.389
6491140,11281.0,3900.0,419.0,0.532,0.526,-0.534,0.394
6491156,10753.0,4100.0,707.0,0.515,0.528,-0.545,0.399
6491172,10561.0,2456.0,1063.0,0.5,0.529,-0.555,0.402
6491198,10695.0,2486.0,537.0,0.484,0.532,-0.564,0.406
6491215,11751.0,3754.0,163.0,0.467,0.534,-0.572,0.412
6491232,10375.0,2954.0,395.0,0.453,0.535,-0.579,0.416
6491249,10125.0,2822.0,1323.0,0.438,0.535,-0.588,0.419
6491266,10393.0,2390.0,999.0,0.424,0.535,-0.596,0.422
6491283,10737.0,3070.0,797.0,0.411,0.535,-0.603,0.426
6491300,10295.0,2902.0,1175.0,0.4,0.534,-0.609,0.429
6491317,10063.0,2534.0,1313.0,0.391,0.533,-0.614,0.431
6491334,10139.0,2538.0,1285.0,0.382,0.533,-0.618,0.433
6491350,9989.0,2982.0,1291.0,0.376,0.532,-0.621,0.435
6491367,9579.0,3398.0,1557.0,0.372,0.531,-0.624,0.436
6491384,9267.0,3192.0,1709.0,0.37,0.53,-0.626,0.436
6491410,9509.0,2788.0,1495.0,0.37,0.529,-0.627,0.436
6491426,9605.0,2486.0,1379.0,0.372,0.528,-0.627,0.436
6491442,9611.0,3020.0,1653.0,0.376,0.526,-0.626,0.435
6491458,9539.0,3326.0,1793.0,0.383,0.524,-0.624,0.434
6491474,9875.0,2466.0,2019.0,0.392,0.522,-0.621,0.433
6491490,10369.0,3188.0,1603.0,0.403,0.519,-0.617,0.432
6491516,10679.0,4012.0,1457.0,0.418,0.515,-0.613,0.43
6491532,11255.0,3760.0,1393.0,0.436,0.509,-0.608,0.426
6491549,11277.0,1878.0,1767.0,0.456,0.501,-0.601,0.423
6491566,11649.0,1738.0,2241.0,0.477,0.494,-0.593,0.42
6491583,12607.0,3192.0,2209.0,0.498,0.488,-0.582,0.418
6491600,13003.0,3358.0,2025.0,0.521,0.481,-0.571,0.414
6491617,13957.0,2846.0,2013.0,0.545,0.472,-0.558,0.411
6491633,13999.0,2848.0,1845.0,0.569,0.463,-0.544,0.407
6491650,14145.0,2570.0,1939.0,0.594,0.453,-0.528,0.404
6491667,14559.0,3736.0,1781.0,0.62,0.442,-0.51,0.4
6491693,14457.0,3486.0,1711.0,0.646,0.43,-0.491,0.396
6491709,14427.0,3304.0,1717.0,0.671,0.416,-0.472,0.392
6491725,13905.0,2488.0,1711.0,0.697,0.402,-0.451,0.386
6491741,13527.0,2998.0,1917.0,0.722,0.387,-0.428,0.381
6491757,12679.0,2920.0,2009.0,0.746,0.372,-0.405,0.375
6491783,11993.0,2864.0,2219.0,0.768,0.357,-0.383,0.368
6491800,11335.0,2162.0,2599.0,0.789,0.341,-0.36,0.362
6491817,10715.0,2426.0,2519.0,0.808,0.327,-0.337,0.356
6491834,9797.0,1804.0,2621.0,0.825,0.313,-0.314,0.35
6491850,8901.0,2594.0,2731.0,0.841,0.3,-0.291,0.344
6491867,8017.0,1976.0,2779.0,0.854,0.288,-0.271,0.339
6491883,7669.0,2522.0,2731.0,0.866,0.277,-0.251,0.333
6491900,6345.0,2330.0,2987.0,0.877,0.265,-0.232,0.327
6491917,5303.0,1572.0,3131.0,0.886,0.254,-0.216,0.322
6491933,5095.0,1966.0,3029.0,0.893,0.246,-0.201,0.318
6491960,5193.0,2426.0,3217.0,0.9,0.237,-0.188,0.315
6491976,4857.0,1854.0,2809.0,0.905,0.228,-0.176,0.312
6491992,5047.0,1272.0,2521.0,0.91,0.219,-0.165,0.31
6492008,5033.0,1698.0,2339.0,0.915,0.21,-0.153,0.309
6492024,4743.0,2500.0,1895.0,0.919,0.199,-0.14,0.309
6492041,4101.0,3932.0,673.0,0.924,0.184,-0.127,0.31
6492057,3563.0,-738.0,1549.0,0.929,0.164,-0.114,0.312
6492083,1975.0,-3188.0,1317.0,0.932,0.15,-0.099,0.314
6492099,1093.0,-756.0,1091.0,0.934,0.142,-0.083,0.317
6492116,353.0,1482.0,477.0,0.936,0.134,-0.069,0.319
6492133,-447.0,218.0,519.0,0.937,0.125,-0.06,0.322
6492150,-1283.0,-2868.0,645.0,0.937,0.119,-0.054,0.325
6492167,-1019.0,-1784.0,663.0,0.936,0.119,-0.051,0.326
6492184,-775.0,-176.0,135.0,0.936,0.121,-0.051,0.328
6492201,-477.0,360.0,-373.0,0.935,0.121,-0.054,0.329
6492217,97.0,-1480.0,171.0,0.934,0.12,-0.059,0.331
6492233,-493.0,-2674.0,1085.0,0.933,0.123,-0.066,0.331
6492260,-335.0,-1048.0,1193.0,0.931,0.13,-0.075,0.332
6492276,617.0,-194.0,1057.0,0.929,0.139,-0.086,0.334
6492292,1269.0,-664.0,1535.0,0.925,0.147,-0.099,0.335
6492308,1951.0,-602.0,1417.0,0.922,0.158,-0.112,0.336
6492324,2469.0,190.0,1665.0,0.917,0.17,-0.126,0.337
6492350,3193.0,372.0,2351.0,0.913,0.183,-0.141,0.338
6492366,3787.0,1098.0,2573.0,0.907,0.197,-0.157,0.338
6492383,4151.0,2186.0,2937.0,0.9,0.211,-0.173,0.339
6492400,4487.0,1768.0,3251.0,0.893,0.225,-0.191,0.339
6492416,5237.0,2356.0,3271.0,0.885,0.24,-0.209,0.34
6492433,5721.0,2154.0,3299.0,0.876,0.254,-0.228,0.341
6492450,6603.0,2762.0,3315.0,0.865,0.27,-0.248,0.342
6492466,7147.0,3728.0,3289.0,0.854,0.285,-0.268,0.343
6492483,7647.0,3124.0,3811.0,0.842,0.298,-0.289,0.344
6492500,8419.0,3072.0,3661.0,0.829,0.312,-0.309,0.345
6492526,9333.0,4328.0,3453.0,0.816,0.325,-0.33,0.346
6492542,10097.0,4552.0,3529.0,0.803,0.336,-0.351,0.346
6492558,10753.0,2782.0,3509.0,0.789,0.347,-0.371,0.345
6492574,10905.0,2252.0,3303.0,0.775,0.359,-0.389,0.345
6492590,10839.0,4680.0,3251.0,0.761,0.371,-0.407,0.343
6492606,10511.0,5402.0,3227.0,0.747,0.381,-0.426,0.341
6492632,11055.0,3598.0,3353.0,0.732,0.388,-0.446,0.337
6492649,11871.0,1668.0,3085.0,0.717,0.396,-0.465,0.335
6492666,12073.0,4154.0,2377.0,0.702,0.405,-0.483,0.333
6492683,11365.0,3442.0,2549.0,0.688,0.411,-0.5,0.329
6492699,11617.0,2196.0,2689.0,0.673,0.417,-0.516,0.327
6492716,11137.0,3302.0,2913.0,0.659,0.424,-0.53,0.325
6492733,11585.0,3434.0,2201.0,0.643,0.43,-0.545,0.324
6492749,11863.0,4730.0,1741.0,0.629,0.433,-0.559,0.321
6492766,11751.0,2298.0,1821.0,0.617,0.434,-0.573,0.318
6492783,11407.0,556.0,1627.0,0.606,0.437,-0.585,0.316
6492800,11305.0,3812.0,1829.0,0.593,0.441,-0.595,0.315
6492826,10585.0,3556.0,2503.0,0.581,0.443,-0.607,0.312
6492842,10497.0,1982.0,1903.0,0.569,0.444,-0.619,0.31
6492859,11169.0,2572.0,1357.0,0.556,0.445,-0.63,0.308
6492875,10853.0,2592.0,925.0,0.545,0.445,-0.641,0.306
6492891,10509.0,2570.0,1079.0,0.536,0.444,-0.651,0.303
6492907,10321.0,2624.0,1451.0,0.527,0.443,-0.661,0.3
6492933,9709.0,-28.0,2429.0,0.518,0.442,-0.67,0.296
6492950,10023.0,860.0,1929.0,0.508,0.443,-0.677,0.295
6492966,10059.0,2552.0,1597.0,0.499,0.445,-0.684,0.293
6492983,9527.0,2394.0,1745.0,0.491,0.445,-0.69,0.29
6493000,9613.0,606.0,2465.0,0.485,0.445,-0.696,0.287
6493016,9777.0,98.0,2533.0,0.479,0.447,-0.699,0.286
6493032,9887.0,1432.0,2057.0,0.474,0.449,-0.702,0.286
6493048,9789.0,2606.0,1789.0,0.47,0.451,-0.703,0.286
6493065,10299.0,2326.0,2393.0,0.47,0.45,-0.704,0.284
6493084,10261.0,1596.0,3989.0,0.47,0.448,-0.706,0.283
6493110,10135.0,1724.0,3383.0,0.472,0.447,-0.706,0.281
6493126,11235.0,1286.0,2961.0,0.475,0.445,-0.706,0.281
6493142,12223.0,2036.0,2197.0,0.481,0.442,-0.703,0.281
6493159,12149.0,2562.0,2127.0,0.492,0.437,-0.698,0.282
6493175,12293.0,1274.0,2325.0,0.506,0.43,-0.692,0.282
6493191,11891.0,-124.0,2441.0,0.523,0.424,-0.683,0.285
6493207,12071.0,384.0,3281.0,0.54,0.418,-0.671,0.289
6493233,12769.0,1210.0,2995.0,0.559,0.412,-0.656,0.295
6493249,13043.0,1754.0,2141.0,0.579,0.406,-0.64,0.301
6493265,13533.0,2010.0,1533.0,0.601,0.399,-0.621,0.307
6493282,13409.0,1666.0,1943.0,0.624,0.389,-0.601,0.312
6493298,13111.0,1810.0,2425.0,0.648,0.379,-0.58,0.317
6493314,13155.0,1674.0,2425.0,0.67,0.368,-0.559,0.322
6493331,13923.0,870.0,2283.0,0.692,0.356,-0.537,0.325
6493358,14291.0,1574.0,1593.0,0.713,0.344,-0.514,0.33
6493374,13735.0,1816.0,1109.0,0.735,0.33,-0.49,0.333
6493390,12849.0,2042.0,1839.0,0.756,0.314,-0.466,0.337
6493407,11681.0,308.0,2459.0,0.775,0.298,-0.442,0.339
6493423,10995.0,694.0,2677.0,0.792,0.284,-0.419,0.342
6493439,10561.0,2702.0,2737.0,0.806,0.271,-0.398,0.345
6493455,10349.0,2404.0,2349.0,0.819,0.256,-0.378,0.347
6493481,10189.0,2558.0,2525.0,0.831,0.241,-0.359,0.349
6493498,9499.0,1226.0,2555.0,0.842,0.226,-0.341,0.351
6493514,8665.0,1550.0,2727.0,0.853,0.212,-0.323,0.352
6493531,8225.0,2846.0,2831.0,0.862,0.198,-0.305,0.352
6493547,7695.0,1546.0,3441.0,0.871,0.185,-0.29,0.351
6493564,7351.0,1198.0,2811.0,0.879,0.173,-0.274,0.351
6493581,6723.0,1004.0,3227.0,0.886,0.161,-0.258,0.35
6493597,6009.0,550.0,2679.0,0.893,0.152,-0.241,0.35
6493623,6093.0,1440.0,2049.0,0.898,0.144,-0.224,0.35
6493639,5101.0,1322.0,2851.0,0.904,0.135,-0.206,0.35
6493655,2667.0,-322.0,3343.0,0.909,0.128,-0.19,0.349
6493671,1979.0,-2398.0,4151.0,0.913,0.127,-0.176,0.347
6493687,1205.0,-338.0,3499.0,0.915,0.132,-0.164,0.345
6493703,1645.0,1486.0,2167.0,0.916,0.138,-0.155,0.344
6493729,2213.0,4550.0,1149.0,0.916,0.14,-0.149,0.344
6493745,763.0,2548.0,1391.0,0.917,0.137,-0.146,0.345
6493761,681.0,200.0,1501.0,0.917,0.133,-0.143,0.346
6493777,899.0,-368.0,1681.0,0.918,0.13,-0.141,0.347
6493793,1243.0,-606.0,1683.0,0.919,0.127,-0.136,0.348
6493810,499.0,-3222.0,785.0,0.92,0.127,-0.13,0.348
6493826,-481.0,-1418.0,-59.0,0.921,0.129,-0.12,0.348
6493853,-767.0,1110.0,539.0,0.921,0.133,-0.11,0.348
6493869,-807.0,1790.0,1105.0,0.922,0.133,-0.103,0.348
6493885,-1849.0,272.0,1111.0,0.922,0.134,-0.098,0.349
6493901,-1731.0,-276.0,1223.0,0.922,0.137,-0.097,0.349
6493917,-1135.0,-440.0,1315.0,0.92,0.142,-0.1,0.35
6493934,-637.0,26.0,1397.0,0.918,0.151,-0.105,0.351
6493951,105.0,848.0,1153.0,0.915,0.162,-0.113,0.352
6493977,845.0,904.0,1299.0,0.911,0.173,-0.124,0.353
6493993,2061.0,44.0,2173.0,0.906,0.185,-0.137,0.354
6494009,2401.0,1180.0,2359.0,0.901,0.201,-0.15,0.354
6494025,3411.0,1716.0,2889.0,0.894,0.217,-0.164,0.355
6494041,4195.0,2352.0,2373.0,0.887,0.235,-0.179,0.356
6494057,5261.0,1828.0,2557.0,0.878,0.252,-0.195,0.357
6494074,5239.0,1822.0,2887.0,0.869,0.27,-0.21,0.358
6494100,6085.0,2294.0,2947.0,0.858,0.29,-0.226,0.36
6494116,7179.0,4062.0,2565.0,0.846,0.309,-0.242,0.362
6494133,7585.0,4034.0,2915.0,0.833,0.326,-0.259,0.364
6494149,8321.0,2048.0,3375.0,0.821,0.342,-0.275,0.365
6494165,8457.0,2850.0,3395.0,0.806,0.361,-0.291,0.368
6494182,8915.0,5512.0,3227.0,0.791,0.379,-0.307,0.37
6494199,10015.0,4934.0,2721.0,0.776,0.394,-0.325,0.37
6494216,11017.0,2546.0,3063.0,0.762,0.407,-0.341,0.37
6494242,11365.0,2784.0,2751.0,0.747,0.423,-0.355,0.371
6494258,10977.0,4498.0,3095.0,0.731,0.439,-0.368,0.372
6494274,10815.0,4384.0,2903.0,0.714,0.453,-0.381,0.374
6494290,11341.0,4096.0,2393.0,0.697,0.466,-0.394,0.376
6494306,11479.0,4004.0,1825.0,0.68,0.478,-0.407,0.379
6494332,12567.0,4740.0,2631.0,0.662,0.489,-0.419,0.383
6494349,11213.0,3856.0,1653.0,0.645,0.498,-0.432,0.387
6494366,10615.0,3408.0,1905.0,0.627,0.507,-0.444,0.391
6494382,11197.0,2702.0,1969.0,0.608,0.517,-0.456,0.394
6494398,11571.0,3288.0,1275.0,0.588,0.526,-0.468,0.398
6494415,11879.0,4934.0,759.0,0.569,0.534,-0.479,0.402
6494432,11501.0,4034.0,997.0,0.551,0.54,-0.491,0.405
6494449,11277.0,2692.0,1093.0,0.533,0.544,-0.503,0.409
6494466,11339.0,2588.0,985.0,0.515,0.549,-0.513,0.412
6494482,11537.0,2868.0,639.0,0.497,0.554,-0.523,0.416
6494499,11635.0,3832.0,579.0,0.48,0.558,-0.531,0.421
6494526,10817.0,2950.0,505.0,0.464,0.56,-0.539,0.425
6494542,11313.0,3120.0,1409.0,0.448,0.562,-0.547,0.428
6494558,10693.0,2882.0,821.0,0.432,0.565,-0.556,0.431
6494574,10717.0,2872.0,881.0,0.418,0.567,-0.563,0.433
6494590,10789.0,3640.0,625.0,0.403,0.569,-0.568,0.436
6494606,10347.0,3508.0,947.0,0.391,0.571,-0.574,0.438
6494623,10115.0,3752.0,1087.0,0.381,0.573,-0.578,0.438
6494649,10009.0,3120.0,1169.0,0.372,0.575,-0.582,0.438
6494666,9619.0,3386.0,1417.0,0.364,0.577,-0.585,0.438
6494682,9429.0,3766.0,1299.0,0.359,0.578,-0.588,0.437
6494699,9741.0,3452.0,1073.0,0.356,0.58,-0.589,0.436
6494715,9661.0,3102.0,1325.0,0.356,0.58,-0.59,0.434
6494731,9605.0,2050.0,1703.0,0.358,0.582,-0.588,0.433
6494748,9727.0,3526.0,1765.0,0.363,0.583,-0.585,0.432
6494765,9715.0,3920.0,1539.0,0.369,0.584,-0.581,0.431
6494782,10013.0,3432.0,2027.0,0.379,0.583,-0.576,0.429
6494809,9983.0,2896.0,1927.0,0.39,0.582,-0.57,0.429
6494825,10197.0,3910.0,1961.0,0.402,0.581,-0.563,0.429
6494841,10443.0,4126.0,2083.0,0.417,0.579,-0.555,0.428
6494857,10827.0,3656.0,1857.0,0.433,0.576,-0.547,0.427
6494873,11399.0,3574.0,2105.0,0.45,0.572,-0.537,0.427
6494889,11353.0,4416.0,1987.0,0.468,0.567,-0.526,0.427
6494915,11963.0,4662.0,1895.0,0.488,0.561,-0.515,0.426
6494932,12281.0,3844.0,1737.0,0.509,0.554,-0.503,0.426
6494949,12615.0,4618.0,1735.0,0.53,0.547,-0.489,0.425
6494965,12815.0,4952.0,1555.0,0.552,0.538,-0.475,0.424
6494982,13197.0,4422.0,1541.0,0.575,0.528,-0.46,0.423
6494999,13117.0,4332.0,1487.0,0.598,0.517,-0.444,0.422
6495015,13309.0,5116.0,1463.0,0.621,0.505,-0.427,0.42
6495032,13295.0,4794.0,1431.0,0.644,0.492,-0.411,0.417
6495049,13421.0,3864.0,1543.0,0.668,0.479,-0.392,0.414
6495065,12967.0,4374.0,1655.0,0.69,0.465,-0.373,0.411
6495084,12259.0,4488.0,1809.0,0.712,0.45,-0.353,0.407
6495110,11875.0,4072.0,1901.0,0.733,0.436,-0.334,0.402
6495126,11651.0,3738.0,1997.0,0.752,0.422,-0.314,0.397
6495142,11057.0,4054.0,2125.0,0.771,0.408,-0.293,0.392
6495158,10277.0,4520.0,1899.0,0.788,0.394,-0.273,0.387
6495174,9757.0,4168.0,1861.0,0.804,0.378,-0.253,0.382
6495191,8975.0,2976.0,2413.0,0.819,0.364,-0.234,0.376
6495207,8195.0,2624.0,2153.0,0.832,0.352,-0.215,0.371
6495233,7183.0,3672.0,2497.0,0.843,0.341,-0.197,0.366
6495249,6275.0,3822.0,2375.0,0.854,0.329,-0.181,0.361
6495265,6193.0,2788.0,2301.0,0.863,0.316,-0.167,0.357
6495282,5569.0,2180.0,2481.0,0.871,0.304,-0.153,0.353
6495298,4711.0,2198.0,2493.0,0.879,0.293,-0.139,0.35
6495315,3989.0,2714.0,2447.0,0.886,0.283,-0.126,0.346
6495332,3743.0,2040.0,2815.0,0.892,0.273,-0.114,0.343
6495359,3121.0,1648.0,2677.0,0.897,0.264,-0.102,0.34
6495375,3391.0,2384.0,2411.0,0.902,0.255,-0.091,0.337
6495391,3275.0,2236.0,2233.0,0.906,0.245,-0.08,0.335
6495407,3077.0,696.0,2159.0,0.911,0.234,-0.069,0.332
6495423,1961.0,-680.0,2317.0,0.915,0.225,-0.055,0.329
6495439,1241.0,1080.0,1439.0,0.919,0.218,-0.04,0.327
6495455,767.0,1766.0,1015.0,0.922,0.209,-0.026,0.325
6495472,143.0,-848.0,737.0,0.925,0.199,-0.013,0.323
6495498,-1009.0,-1746.0,881.0,0.927,0.192,-0.001,0.321
6495515,-2293.0,-400.0,695.0,0.929,0.187,0.01,0.32
6495532,-2575.0,106.0,255.0,0.93,0.184,0.016,0.318
6495548,-2249.0,-1422.0,295.0,0.931,0.181,0.017,0.318
6495565,-1965.0,-1874.0,599.0,0.93,0.183,0.016,0.317
6495582,-1967.0,-1244.0,661.0,0.93,0.187,0.012,0.317
6495598,-1581.0,-406.0,555.0,0.929,0.193,0.005,0.317
6495615,-607.0,-798.0,815.0,0.927,0.201,-0.005,0.317
6495632,-189.0,-1220.0,1009.0,0.925,0.21,-0.016,0.317
6495649,605.0,-436.0,1297.0,0.921,0.221,-0.029,0.318
6495675,1075.0,926.0,1277.0,0.918,0.234,-0.043,0.318
6495691,2017.0,926.0,1543.0,0.913,0.246,-0.059,0.32
6495707,2867.0,846.0,1933.0,0.908,0.259,-0.075,0.321
6495723,3409.0,1158.0,2177.0,0.902,0.273,-0.092,0.322
6495739,3703.0,1878.0,2299.0,0.895,0.289,-0.11,0.323
6495765,4447.0,2180.0,2681.0,0.886,0.304,-0.129,0.324
6495782,5135.0,2390.0,2771.0,0.877,0.32,-0.149,0.327
6495798,6223.0,3114.0,2901.0,0.866,0.336,-0.17,0.329
6495815,7075.0,3820.0,2895.0,0.854,0.352,-0.19,0.332
6495832,7841.0,2630.0,3463.0,0.842,0.367,-0.21,0.336
6495849,8739.0,4228.0,2885.0,0.828,0.384,-0.228,0.34
6495865,9567.0,5686.0,2759.0,0.814,0.398,-0.246,0.345
6495881,9547.0,3990.0,3393.0,0.8,0.41,-0.263,0.349
6495898,9779.0,3842.0,3321.0,0.785,0.424,-0.28,0.354
6495925,10393.0,6056.0,2723.0,0.768,0.439,-0.297,0.359
6495941,10649.0,5254.0,3061.0,0.752,0.451,-0.314,0.363
6495957,10485.0,2966.0,3247.0,0.736,0.464,-0.33,0.367
6495973,11533.0,3644.0,2151.0,0.719,0.478,-0.343,0.371
6495989,11335.0,5924.0,1649.0,0.701,0.491,-0.355,0.375
6496005,10405.0,5298.0,3117.0,0.685,0.502,-0.367,0.379
6496031,9511.0,2152.0,1625.0,0.666,0.515,-0.381,0.382
6496048,12135.0,4402.0,1135.0,0.645,0.529,-0.393,0.386
6496065,12303.0,6174.0,595.0,0.624,0.543,-0.405,0.39
6496082,12427.0,5252.0,1037.0,0.604,0.554,-0.417,0.394
6496098,12381.0,4804.0,711.0,0.584,0.564,-0.428,0.398
6496115,12293.0,5292.0,351.0,0.563,0.574,-0.438,0.401
6496131,11975.0,5212.0,267.0,0.543,0.583,-0.448,0.405
6496148,11695.0,4764.0,-157.0,0.524,0.591,-0.458,0.409
6496165,11479.0,4624.0,-85.0,0.504,0.598,-0.467,0.413
6496182,11207.0,4550.0,-243.0,0.486,0.604,-0.476,0.417
6496199,10845.0,4982.0,-379.0,0.467,0.608,-0.484,0.421
6496225,10389.0,4226.0,-277.0,0.451,0.612,-0.492,0.425
6496241,10245.0,3848.0,-183.0,0.434,0.615,-0.499,0.43
6496257,9895.0,4214.0,-247.0,0.418,0.618,-0.506,0.434
6496273,9663.0,4348.0,-243.0,0.402,0.619,-0.513,0.438
6496289,9573.0,3526.0,119.0,0.387,0.621,-0.52,0.441
6496305,9837.0,3520.0,147.0,0.372,0.622,-0.526,0.444
6496331,9721.0,3818.0,151.0,0.358,0.623,-0.532,0.448
6496347,9291.0,4062.0,-529.0,0.346,0.623,-0.537,0.451
6496364,8891.0,4120.0,-581.0,0.335,0.623,-0.541,0.455
6496381,9055.0,4160.0,193.0,0.325,0.623,-0.546,0.457
6496398,8943.0,4030.0,379.0,0.316,0.623,-0.549,0.458
6496415,9029.0,4154.0,477.0,0.308,0.624,-0.553,0.459
6496432,9025.0,3820.0,389.0,0.303,0.624,-0.556,0.458
6496448,9133.0,3880.0,653.0,0.3,0.624,-0.557,0.458
6496465,9547.0,4252.0,825.0,0.298,0.625,-0.558,0.458
6496491,9199.0,5376.0,1453.0,0.3,0.624,-0.558,0.457
6496507,9359.0,3768.0,1693.0,0.304,0.623,-0.559,0.455
6496523,9571.0,2840.0,825.0,0.31,0.623,-0.556,0.454
6496539,9693.0,4286.0,1287.0,0.318,0.622,-0.552,0.455
6496555,9033.0,4702.0,1407.0,0.328,0.621,-0.548,0.454
6496571,9261.0,4030.0,1465.0,0.341,0.619,-0.543,0.453
6496597,9751.0,3990.0,1331.0,0.356,0.616,-0.538,0.452
6496614,10227.0,4754.0,1209.0,0.372,0.613,-0.531,0.451
6496631,10343.0,4288.0,1111.0,0.39,0.609,-0.524,0.45
6496649,11059.0,4212.0,1127.0,0.409,0.605,-0.515,0.449
6496665,11703.0,4672.0,909.0,0.429,0.599,-0.505,0.448
6496681,11985.0,5268.0,883.0,0.452,0.593,-0.495,0.447
6496698,12523.0,4924.0,915.0,0.475,0.585,-0.484,0.446
6496715,12699.0,4546.0,969.0,0.499,0.576,-0.471,0.443
6496731,13257.0,4722.0,863.0,0.523,0.567,-0.458,0.441
6496748,13251.0,5192.0,929.0,0.548,0.558,-0.444,0.438
6496774,13343.0,5178.0,1027.0,0.573,0.546,-0.43,0.434
6496790,13689.0,4592.0,937.0,0.597,0.535,-0.415,0.43
6496806,13969.0,4950.0,425.0,0.622,0.522,-0.398,0.426
6496822,13717.0,5010.0,981.0,0.647,0.509,-0.381,0.422
6496838,12933.0,4258.0,1361.0,0.671,0.495,-0.363,0.417
6496854,12991.0,4598.0,1117.0,0.694,0.481,-0.344,0.411
6496880,12525.0,4786.0,923.0,0.716,0.466,-0.325,0.405
6496897,11797.0,4272.0,1251.0,0.737,0.451,-0.306,0.399
6496914,10799.0,4200.0,1725.0,0.757,0.436,-0.287,0.393
6496931,10251.0,4040.0,1911.0,0.775,0.422,-0.268,0.386
6496948,10039.0,4294.0,1673.0,0.792,0.408,-0.25,0.378
6496965,9061.0,4164.0,1889.0,0.808,0.394,-0.233,0.371
6496981,8077.0,3402.0,2249.0,0.823,0.38,-0.216,0.364
6496998,7227.0,3702.0,2533.0,0.835,0.367,-0.2,0.357
6497014,6795.0,3258.0,2385.0,0.847,0.354,-0.186,0.35
6497031,6281.0,3120.0,2303.0,0.857,0.343,-0.172,0.344
6497048,5391.0,2820.0,2391.0,0.867,0.331,-0.158,0.338
6497065,4987.0,2718.0,2571.0,0.875,0.319,-0.145,0.332
6497091,4655.0,2942.0,2583.0,0.883,0.309,-0.132,0.328
6497107,4519.0,3624.0,2095.0,0.889,0.299,-0.121,0.324
6497123,4293.0,3396.0,2543.0,0.896,0.287,-0.11,0.321
6497139,3577.0,182.0,3151.0,0.901,0.277,-0.1,0.318
6497155,3505.0,502.0,3081.0,0.905,0.272,-0.09,0.315
6497181,3027.0,2750.0,1751.0,0.908,0.27,-0.079,0.312
6497198,3209.0,4130.0,1051.0,0.911,0.263,-0.069,0.309
6497214,2277.0,662.0,1625.0,0.916,0.253,-0.059,0.307
6497231,1135.0,-2624.0,2445.0,0.919,0.246,-0.049,0.304
6497247,295.0,-484.0,1549.0,0.921,0.245,-0.039,0.3
6497264,303.0,2044.0,855.0,0.923,0.243,-0.03,0.297
6497281,-159.0,446.0,787.0,0.925,0.237,-0.023,0.296
6497298,-1111.0,-2310.0,1053.0,0.927,0.233,-0.017,0.294
6497315,-1685.0,-1358.0,875.0,0.928,0.232,-0.012,0.293
6497332,-1407.0,-804.0,771.0,0.928,0.232,-0.01,0.291
6497349,-1247.0,-1478.0,671.0,0.928,0.233,-0.011,0.29
6497366,-1225.0,-1974.0,729.0,0.927,0.237,-0.013,0.29
6497392,-973.0,-158.0,573.0,0.926,0.243,-0.017,0.29
6497408,-779.0,240.0,541.0,0.924,0.248,-0.025,0.291
6497424,189.0,-272.0,485.0,0.921,0.254,-0.035,0.292
6497440,1403.0,-128.0,387.0,0.918,0.261,-0.046,0.294
6497456,2689.0,1184.0,375.0,0.915,0.268,-0.058,0.295
6497482,2977.0,992.0,693.0,0.912,0.274,-0.07,0.297
6497498,2885.0,1094.0,1683.0,0.908,0.281,-0.082,0.299
6497514,2633.0,1490.0,1835.0,0.903,0.29,-0.097,0.302
6497531,2971.0,1744.0,1843.0,0.896,0.301,-0.114,0.305
6497547,3199.0,2124.0,1875.0,0.888,0.313,-0.133,0.31
6497563,3907.0,2408.0,1973.0,0.878,0.325,-0.155,0.315
6497580,5281.0,1558.0,1921.0,0.867,0.337,-0.178,0.321
6497597,6819.0,2100.0,2765.0,0.853,0.352,-0.202,0.327
6497614,7807.0,2956.0,2481.0,0.838,0.368,-0.225,0.335
6497641,9155.0,5504.0,2519.0,0.821,0.383,-0.247,0.343
6497657,10039.0,5104.0,3227.0,0.805,0.395,-0.269,0.351
6497674,10909.0,3484.0,3781.0,0.788,0.407,-0.29,0.358
6497690,11623.0,3996.0,3545.0,0.769,0.423,-0.309,0.366
6497706,12277.0,6542.0,3015.0,0.75,0.437,-0.327,0.373
6497722,12177.0,6784.0,3307.0,0.731,0.448,-0.346,0.38
6497748,12013.0,6066.0,3587.0,0.713,0.457,-0.366,0.386
6497764,11573.0,6074.0,3835.0,0.695,0.463,-0.386,0.392
6497780,11353.0,6380.0,3417.0,0.676,0.468,-0.408,0.397
6497797,9085.0,8990.0,-2073.0,0.66,0.468,-0.429,0.402
6497814,12849.0,462.0,4009.0,0.643,0.47,-0.449,0.405
6497831,13189.0,1120.0,3481.0,0.626,0.475,-0.464,0.41
6497847,12981.0,4712.0,2901.0,0.608,0.482,-0.474,0.416
6497864,11943.0,4946.0,3351.0,0.593,0.487,-0.485,0.42
6497880,11575.0,1484.0,3971.0,0.577,0.492,-0.496,0.423
6497897,12049.0,2652.0,2417.0,0.56,0.5,-0.504,0.428
6497923,12273.0,5284.0,2029.0,0.544,0.505,-0.511,0.433
6497939,11505.0,5020.0,2005.0,0.531,0.507,-0.52,0.436
6497955,10649.0,2342.0,2067.0,0.52,0.508,-0.528,0.439
6497971,10571.0,1848.0,2077.0,0.509,0.511,-0.534,0.441
6497987,10611.0,1906.0,2377.0,0.498,0.514,-0.539,0.444
6498013,10219.0,2112.0,1725.0,0.487,0.519,-0.542,0.447
6498030,9741.0,1982.0,1417.0,0.477,0.524,-0.544,0.45
6498047,9829.0,2566.0,1081.0,0.467,0.528,-0.546,0.453
6498064,9585.0,2562.0,823.0,0.458,0.533,-0.547,0.456
6498081,9381.0,2066.0,689.0,0.45,0.536,-0.547,0.459
6498097,8823.0,2268.0,1471.0,0.442,0.54,-0.547,0.462
6498114,8859.0,1766.0,1573.0,0.434,0.544,-0.547,0.465
6498131,9027.0,1586.0,1293.0,0.426,0.549,-0.547,0.468
6498147,9063.0,2102.0,849.0,0.417,0.554,-0.545,0.471
6498164,9031.0,2378.0,1027.0,0.409,0.558,-0.544,0.474
6498190,9123.0,2140.0,1199.0,0.402,0.563,-0.541,0.478
