timestamp,ax,ay,az,q0,q1,q2,q3
7807685,11876.0,8303.0,4647.0,0.473,0.55,-0.06,0.686
7807701,12628.0,8717.0,4385.0,0.503,0.525,-0.061,0.684
7807727,13128.0,7789.0,4383.0,0.534,0.498,-0.06,0.681
7807744,13260.0,8169.0,4455.0,0.565,0.468,-0.057,0.678
7807761,12806.0,8245.0,4769.0,0.595,0.435,-0.053,0.674
7807777,12844.0,8497.0,5017.0,0.625,0.399,-0.05,0.669
7807794,13390.0,7173.0,4301.0,0.654,0.36,-0.046,0.664
7807811,12676.0,5237.0,3891.0,0.683,0.319,-0.041,0.657
7807827,11056.0,4459.0,4243.0,0.709,0.277,-0.032,0.648
7807844,9818.0,4743.0,3741.0,0.733,0.234,-0.022,0.638
7807860,7780.0,3537.0,3889.0,0.754,0.193,-0.012,0.628
7807880,6632.0,2271.0,3417.0,0.772,0.154,-0.001,0.617
7807896,4616.0,2245.0,3919.0,0.788,0.117,0.009,0.605
7807922,3842.0,2331.0,3859.0,0.802,0.082,0.018,0.592
7807938,3678.0,2555.0,3071.0,0.813,0.049,0.024,0.579
7807954,2952.0,697.0,2529.0,0.823,0.016,0.029,0.567
7807970,2418.0,421.0,2189.0,0.831,-0.014,0.034,0.556
7807986,1926.0,305.0,1829.0,0.837,-0.041,0.037,0.544
7808002,1314.0,-773.0,1725.0,0.842,-0.066,0.041,0.534
7808029,1164.0,-625.0,881.0,0.846,-0.089,0.044,0.524
7808045,538.0,-771.0,977.0,0.849,-0.109,0.046,0.515
7808061,0.0,-2133.0,709.0,0.851,-0.128,0.048,0.507
7808077,-194.0,-2101.0,601.0,0.853,-0.142,0.05,0.499
7808094,-678.0,-2167.0,387.0,0.854,-0.155,0.049,0.494
7808110,-260.0,-3055.0,-401.0,0.855,-0.166,0.048,0.489
7808127,-314.0,-3715.0,-253.0,0.855,-0.173,0.047,0.486
7808144,-626.0,-3123.0,111.0,0.855,-0.177,0.046,0.485
7808161,-646.0,-3539.0,-147.0,0.855,-0.179,0.043,0.485
7808178,-282.0,-4447.0,131.0,0.854,-0.178,0.04,0.487
7808204,-594.0,-3931.0,659.0,0.854,-0.172,0.036,0.489
7808220,-214.0,-3999.0,821.0,0.854,-0.164,0.032,0.493
7808236,-154.0,-3797.0,1187.0,0.853,-0.151,0.029,0.498
7808252,112.0,-3597.0,1567.0,0.853,-0.136,0.025,0.504
7808268,646.0,-2721.0,2277.0,0.852,-0.117,0.021,0.51
7808294,646.0,-2489.0,3187.0,0.851,-0.096,0.018,0.517
7808310,1078.0,-687.0,3247.0,0.849,-0.072,0.014,0.524
7808327,1176.0,-629.0,4265.0,0.846,-0.047,0.009,0.531
7808345,1922.0,-271.0,4541.0,0.842,-0.021,0.003,0.539
7808362,2444.0,525.0,5087.0,0.837,0.007,-0.003,0.547
7808378,3050.0,1483.0,5393.0,0.832,0.034,-0.008,0.554
7808394,3468.0,1357.0,5741.0,0.825,0.062,-0.014,0.562
7808410,3720.0,1523.0,6787.0,0.817,0.092,-0.019,0.569
7808426,4080.0,2635.0,6289.0,0.808,0.122,-0.023,0.576
7808452,4846.0,2743.0,6505.0,0.798,0.151,-0.027,0.583
7808468,4976.0,3257.0,6745.0,0.787,0.18,-0.031,0.59
7808484,5114.0,4791.0,6957.0,0.774,0.208,-0.034,0.597
7808500,4990.0,5537.0,7123.0,0.762,0.232,-0.039,0.604
7808516,5450.0,4049.0,6907.0,0.749,0.254,-0.045,0.611
7808532,6328.0,2723.0,6395.0,0.735,0.277,-0.05,0.617
7808558,6348.0,4219.0,6597.0,0.72,0.3,-0.053,0.623
7808574,6022.0,6871.0,6753.0,0.704,0.322,-0.057,0.63
7808591,6728.0,5357.0,6519.0,0.689,0.342,-0.064,0.636
7808607,7662.0,4149.0,5965.0,0.673,0.361,-0.068,0.642
7808623,7070.0,5907.0,6687.0,0.657,0.38,-0.073,0.648
7808639,6694.0,7227.0,6643.0,0.641,0.397,-0.08,0.652
7808665,7198.0,5145.0,6225.0,0.626,0.412,-0.09,0.656
7808681,8056.0,5285.0,6063.0,0.611,0.427,-0.099,0.659
7808697,7668.0,6181.0,6007.0,0.596,0.441,-0.108,0.662
7808713,7338.0,6093.0,6619.0,0.582,0.455,-0.12,0.664
7808729,8168.0,5403.0,5917.0,0.568,0.467,-0.132,0.665
7808745,8334.0,5223.0,6025.0,0.554,0.479,-0.145,0.665
7808762,8262.0,5817.0,6199.0,0.542,0.491,-0.158,0.664
7808788,8032.0,5181.0,6109.0,0.531,0.501,-0.172,0.662
7808804,8350.0,4625.0,6225.0,0.521,0.511,-0.184,0.659
7808820,8126.0,5477.0,6635.0,0.511,0.52,-0.196,0.656
7808836,8062.0,5693.0,6603.0,0.503,0.527,-0.208,0.653
7808852,8196.0,4731.0,7133.0,0.496,0.533,-0.22,0.649
7808869,7902.0,4687.0,7791.0,0.491,0.539,-0.231,0.644
7808896,7898.0,5691.0,8377.0,0.487,0.544,-0.242,0.639
7808912,8558.0,4759.0,8325.0,0.486,0.547,-0.251,0.633
7808928,8818.0,5295.0,8473.0,0.488,0.548,-0.26,0.628
7808944,8762.0,4929.0,9099.0,0.492,0.546,-0.266,0.624
7808960,7906.0,6197.0,9615.0,0.497,0.542,-0.271,0.62
7808977,8336.0,4989.0,9747.0,0.506,0.536,-0.277,0.616
7808993,8508.0,2903.0,9985.0,0.515,0.529,-0.279,0.613
7809019,8882.0,5297.0,10071.0,0.526,0.521,-0.279,0.612
7809035,8598.0,6401.0,10695.0,0.539,0.509,-0.279,0.611
7809052,9618.0,5711.0,9743.0,0.553,0.493,-0.28,0.611
7809068,11116.0,2909.0,9261.0,0.568,0.475,-0.278,0.612
7809084,11676.0,4175.0,9053.0,0.584,0.455,-0.272,0.615
7809100,11432.0,5503.0,9323.0,0.601,0.433,-0.264,0.618
7809116,12004.0,6447.0,9371.0,0.619,0.408,-0.255,0.621
7809142,12716.0,4641.0,8365.0,0.637,0.381,-0.248,0.622
7809159,13082.0,4683.0,8679.0,0.656,0.353,-0.238,0.623
7809176,13220.0,4531.0,8239.0,0.675,0.324,-0.226,0.624
7809192,12906.0,3663.0,7565.0,0.693,0.293,-0.213,0.623
7809209,12264.0,3959.0,7333.0,0.711,0.263,-0.197,0.622
7809226,11336.0,4315.0,7273.0,0.729,0.231,-0.181,0.619
7809243,10898.0,3689.0,6771.0,0.745,0.199,-0.165,0.615
7809260,9974.0,2283.0,6377.0,0.761,0.167,-0.148,0.61
7809277,9318.0,3039.0,5833.0,0.775,0.136,-0.13,0.604
7809303,8334.0,2607.0,5661.0,0.787,0.105,-0.113,0.597
7809319,7898.0,1487.0,5433.0,0.799,0.074,-0.096,0.59
7809335,7126.0,1061.0,4643.0,0.808,0.046,-0.08,0.581
7809351,6086.0,927.0,4377.0,0.817,0.018,-0.063,0.573
7809367,4950.0,1005.0,4081.0,0.825,-0.009,-0.045,0.564
7809383,3938.0,1299.0,3493.0,0.831,-0.035,-0.029,0.555
7809399,3158.0,-741.0,3119.0,0.836,-0.06,-0.014,0.546
7809425,2278.0,-1431.0,2385.0,0.84,-0.081,0.002,0.536
7809442,1618.0,307.0,1905.0,0.844,-0.1,0.017,0.527
7809459,972.0,141.0,1959.0,0.846,-0.118,0.029,0.519
7809476,882.0,-1813.0,1391.0,0.848,-0.136,0.04,0.511
7809492,378.0,-1897.0,1459.0,0.849,-0.15,0.05,0.504
7809509,56.0,-1455.0,855.0,0.85,-0.162,0.059,0.498
7809526,-294.0,-2511.0,279.0,0.851,-0.172,0.067,0.492
7809543,-778.0,-1961.0,409.0,0.851,-0.18,0.073,0.487
7809560,-1158.0,-2475.0,359.0,0.852,-0.186,0.076,0.483
7809586,-750.0,-3587.0,-229.0,0.853,-0.19,0.078,0.48
7809602,-918.0,-3067.0,-295.0,0.854,-0.191,0.079,0.477
7809618,-1092.0,-3625.0,-289.0,0.856,-0.19,0.079,0.475
7809635,-1232.0,-3409.0,127.0,0.857,-0.186,0.077,0.474
7809651,-1314.0,-3837.0,111.0,0.859,-0.18,0.074,0.474
7809667,-1250.0,-3739.0,621.0,0.861,-0.17,0.07,0.475
7809683,-1036.0,-3481.0,987.0,0.862,-0.158,0.064,0.476
7809709,-1024.0,-3155.0,1693.0,0.864,-0.145,0.056,0.479
7809726,-362.0,-2839.0,2255.0,0.865,-0.128,0.047,0.482
7809743,-6.0,-2193.0,2665.0,0.866,-0.111,0.037,0.487
7809760,744.0,-1891.0,2883.0,0.865,-0.093,0.025,0.492
7809776,1070.0,-2037.0,3671.0,0.864,-0.074,0.013,0.498
7809793,1766.0,-1253.0,4117.0,0.862,-0.055,0.001,0.504
7809810,2348.0,-1367.0,4801.0,0.859,-0.035,-0.011,0.511
7809826,2562.0,-431.0,5597.0,0.855,-0.014,-0.023,0.518
7809843,3130.0,69.0,5937.0,0.85,0.007,-0.035,0.526
7809860,3898.0,73.0,6321.0,0.844,0.029,-0.049,0.533
7809879,3896.0,1003.0,7371.0,0.837,0.051,-0.063,0.541
7809896,4824.0,699.0,7001.0,0.83,0.073,-0.077,0.548
7809922,5312.0,987.0,7365.0,0.821,0.096,-0.09,0.555
7809938,6094.0,1297.0,7415.0,0.813,0.118,-0.103,0.562
7809954,5732.0,2241.0,7803.0,0.803,0.14,-0.115,0.568
7809970,6402.0,2845.0,7787.0,0.792,0.162,-0.127,0.575
7809986,6852.0,1703.0,7599.0,0.781,0.182,-0.138,0.581
7810002,7462.0,1273.0,7703.0,0.77,0.203,-0.148,0.586
7810028,7480.0,3265.0,7733.0,0.759,0.224,-0.156,0.591
7810044,7108.0,4647.0,8309.0,0.746,0.244,-0.165,0.597
7810060,7926.0,3715.0,7437.0,0.734,0.262,-0.176,0.602
7810076,8476.0,3003.0,7153.0,0.721,0.278,-0.186,0.606
7810093,8166.0,2467.0,7119.0,0.709,0.296,-0.194,0.61
7810110,8042.0,3397.0,6765.0,0.696,0.313,-0.201,0.614
7810126,8406.0,4317.0,6915.0,0.683,0.329,-0.209,0.618
7810143,8290.0,4343.0,6563.0,0.67,0.345,-0.218,0.62
7810169,8874.0,3283.0,6045.0,0.658,0.359,-0.228,0.622
7810185,8378.0,3195.0,5571.0,0.645,0.372,-0.236,0.624
7810201,8472.0,4315.0,6225.0,0.632,0.387,-0.243,0.626
7810217,8164.0,4619.0,6135.0,0.619,0.4,-0.252,0.627
7810233,8276.0,3081.0,5955.0,0.607,0.412,-0.262,0.627
7810249,8662.0,3253.0,6081.0,0.595,0.425,-0.271,0.627
7810275,8310.0,4705.0,6297.0,0.582,0.437,-0.28,0.626
7810292,8362.0,3899.0,5827.0,0.571,0.448,-0.29,0.624
7810309,8424.0,2387.0,6351.0,0.56,0.459,-0.299,0.622
7810326,8468.0,3887.0,6689.0,0.549,0.47,-0.307,0.619
7810342,8580.0,3837.0,6737.0,0.54,0.479,-0.314,0.617
7810359,8564.0,3463.0,6589.0,0.531,0.487,-0.321,0.615
7810375,8228.0,3573.0,7389.0,0.524,0.493,-0.327,0.612
7810401,8120.0,3621.0,7675.0,0.519,0.498,-0.333,0.61
7810417,7932.0,4141.0,7937.0,0.515,0.502,-0.339,0.607
7810433,7974.0,2665.0,8233.0,0.512,0.505,-0.345,0.603
7810449,8290.0,2679.0,8439.0,0.512,0.507,-0.35,0.599
7810465,8514.0,3377.0,8295.0,0.513,0.507,-0.353,0.596
7810481,8674.0,3887.0,8411.0,0.517,0.505,-0.355,0.593
7810497,8358.0,2785.0,8807.0,0.522,0.501,-0.356,0.591
7810523,8686.0,2245.0,8849.0,0.528,0.496,-0.356,0.59
7810540,8588.0,2973.0,9523.0,0.536,0.49,-0.354,0.59
7810557,8644.0,3727.0,9363.0,0.545,0.481,-0.351,0.59
7810573,9032.0,2681.0,9253.0,0.556,0.469,-0.35,0.59
7810589,9156.0,2477.0,9397.0,0.569,0.456,-0.347,0.59
7810606,10196.0,2483.0,9249.0,0.581,0.441,-0.344,0.591
7810622,11380.0,2577.0,8725.0,0.595,0.425,-0.339,0.592
7810638,12174.0,1949.0,8475.0,0.61,0.406,-0.332,0.594
7810664,11962.0,3435.0,9213.0,0.626,0.386,-0.322,0.597
7810680,12046.0,4027.0,9229.0,0.641,0.363,-0.313,0.599
7810696,12684.0,2783.0,8609.0,0.658,0.339,-0.303,0.6
7810712,13722.0,2227.0,8221.0,0.675,0.315,-0.291,0.601
7810728,13766.0,3999.0,8017.0,0.692,0.287,-0.277,0.602
7810744,12854.0,2235.0,8099.0,0.709,0.259,-0.261,0.602
7810770,12754.0,3063.0,7763.0,0.726,0.23,-0.243,0.601
7810786,11900.0,3229.0,7387.0,0.742,0.201,-0.226,0.598
7810802,11860.0,2259.0,6907.0,0.758,0.169,-0.207,0.595
7810818,10114.0,1783.0,6867.0,0.773,0.138,-0.188,0.591
7810834,9032.0,2459.0,6959.0,0.786,0.108,-0.169,0.585
7810860,8474.0,1039.0,5695.0,0.798,0.077,-0.151,0.579
7810876,7926.0,375.0,4869.0,0.809,0.047,-0.132,0.571
7810892,6980.0,1051.0,4381.0,0.818,0.019,-0.114,0.564
7810909,5480.0,1883.0,4501.0,0.825,-0.009,-0.094,0.557
7810925,4660.0,757.0,3573.0,0.83,-0.037,-0.077,0.551
7810942,4168.0,437.0,2559.0,0.835,-0.064,-0.06,0.544
7810959,3208.0,-651.0,2161.0,0.838,-0.088,-0.044,0.536
7810976,2292.0,-1069.0,1861.0,0.841,-0.11,-0.028,0.528
7810993,1670.0,277.0,1313.0,0.844,-0.13,-0.014,0.52
7811020,766.0,-483.0,1175.0,0.846,-0.15,-0.002,0.512
7811036,662.0,-1187.0,1045.0,0.847,-0.167,0.008,0.504
7811052,188.0,-2273.0,565.0,0.848,-0.181,0.017,0.497
7811068,36.0,-1601.0,15.0,0.849,-0.193,0.025,0.491
7811084,-470.0,-1281.0,-333.0,0.85,-0.205,0.03,0.485
7811100,-838.0,-2715.0,-289.0,0.85,-0.215,0.034,0.48
7811116,-978.0,-3515.0,-653.0,0.85,-0.221,0.037,0.476
7811142,-1478.0,-3247.0,-349.0,0.851,-0.225,0.039,0.474
7811159,-1434.0,-4089.0,-559.0,0.851,-0.226,0.039,0.473
7811176,-1496.0,-3969.0,-427.0,0.852,-0.223,0.038,0.472
7811192,-1574.0,-4101.0,-47.0,0.853,-0.217,0.035,0.473
7811209,-1422.0,-3467.0,143.0,0.854,-0.209,0.031,0.475
7811226,-1242.0,-3655.0,523.0,0.855,-0.198,0.025,0.478
7811243,-1090.0,-3377.0,1149.0,0.856,-0.185,0.018,0.482
7811259,-244.0,-2467.0,1307.0,0.857,-0.169,0.009,0.487
7811286,216.0,-2633.0,1799.0,0.856,-0.153,-0.002,0.493
7811302,1132.0,-2069.0,2065.0,0.856,-0.136,-0.014,0.499
7811318,1490.0,-1835.0,2845.0,0.854,-0.118,-0.027,0.506
7811334,2326.0,-1481.0,2829.0,0.853,-0.1,-0.042,0.511
7811350,3010.0,-2449.0,4059.0,0.851,-0.081,-0.056,0.515
7811366,3096.0,-1453.0,4511.0,0.849,-0.06,-0.071,0.519
7811392,2888.0,439.0,5047.0,0.846,-0.039,-0.086,0.525
7811408,3320.0,-377.0,5039.0,0.841,-0.019,-0.103,0.531
7811425,4180.0,-1007.0,5139.0,0.834,0.002,-0.121,0.538
7811442,4590.0,401.0,5123.0,0.827,0.024,-0.138,0.545
7811459,5264.0,1265.0,5155.0,0.818,0.045,-0.155,0.552
7811475,5680.0,673.0,6181.0,0.809,0.066,-0.173,0.558
7811492,6318.0,919.0,6081.0,0.799,0.089,-0.192,0.563
7811509,7646.0,1765.0,5973.0,0.789,0.11,-0.209,0.567
7811525,7702.0,1867.0,5845.0,0.778,0.132,-0.226,0.571
7811542,7556.0,1147.0,6869.0,0.767,0.155,-0.241,0.574
7811559,7534.0,3203.0,7035.0,0.755,0.179,-0.257,0.576
7811585,8904.0,2239.0,6797.0,0.742,0.203,-0.275,0.578
7811601,9922.0,1999.0,6565.0,0.729,0.226,-0.291,0.577
7811617,9910.0,2481.0,6921.0,0.715,0.248,-0.306,0.577
7811633,9912.0,2339.0,7089.0,0.702,0.271,-0.321,0.575
7811649,10136.0,2603.0,6467.0,0.688,0.292,-0.337,0.573
7811665,10554.0,2829.0,6825.0,0.674,0.312,-0.352,0.57
7811691,10616.0,2777.0,6457.0,0.66,0.33,-0.367,0.566
7811708,10970.0,903.0,6445.0,0.646,0.348,-0.382,0.561
7811725,10504.0,2319.0,6417.0,0.632,0.366,-0.396,0.557
7811742,11138.0,3191.0,5723.0,0.619,0.383,-0.41,0.55
7811759,10988.0,1677.0,6197.0,0.607,0.397,-0.423,0.542
7811775,11236.0,2635.0,6479.0,0.596,0.411,-0.436,0.534
7811792,11452.0,3005.0,5861.0,0.585,0.424,-0.449,0.526
7811809,11860.0,173.0,5129.0,0.574,0.435,-0.459,0.52
7811825,11374.0,-503.0,6075.0,0.564,0.446,-0.464,0.517
7811852,10392.0,2417.0,6791.0,0.557,0.457,-0.467,0.513
7811868,10206.0,1467.0,6459.0,0.551,0.465,-0.471,0.509
7811884,10350.0,-309.0,6447.0,0.547,0.472,-0.473,0.504
7811901,10074.0,511.0,6461.0,0.545,0.478,-0.472,0.502
7811917,9250.0,797.0,7385.0,0.544,0.482,-0.471,0.5
7811933,9074.0,-13.0,7685.0,0.544,0.485,-0.469,0.499
7811949,9244.0,-295.0,8023.0,0.545,0.488,-0.466,0.498
7811975,9390.0,-127.0,8513.0,0.548,0.488,-0.462,0.498
7811992,9542.0,-701.0,8737.0,0.552,0.488,-0.457,0.499
7812009,9448.0,1509.0,9155.0,0.556,0.485,-0.45,0.502
7812025,9680.0,933.0,9911.0,0.563,0.48,-0.445,0.505
7812042,10748.0,-653.0,9273.0,0.57,0.473,-0.438,0.51
7812059,10878.0,1293.0,8859.0,0.58,0.463,-0.428,0.516
7812075,10312.0,763.0,9869.0,0.59,0.452,-0.417,0.523
7812092,11198.0,2809.0,10219.0,0.601,0.439,-0.405,0.531
7812108,12262.0,4071.0,10513.0,0.614,0.423,-0.394,0.538
7812135,13508.0,2959.0,9521.0,0.63,0.402,-0.382,0.544
7812151,14288.0,2303.0,9377.0,0.647,0.38,-0.367,0.55
7812167,15058.0,3573.0,9681.0,0.664,0.355,-0.349,0.557
7812183,15310.0,4549.0,9467.0,0.683,0.329,-0.329,0.563
7812199,15384.0,3809.0,9521.0,0.703,0.3,-0.307,0.568
7812215,15280.0,5869.0,8639.0,0.723,0.268,-0.282,0.571
7812231,14180.0,4189.0,8249.0,0.744,0.233,-0.257,0.571
7812257,13720.0,3227.0,7645.0,0.764,0.198,-0.23,0.57
7812274,12520.0,3299.0,7383.0,0.783,0.163,-0.201,0.566
7812291,10852.0,2973.0,6903.0,0.8,0.129,-0.171,0.56
7812308,9258.0,3917.0,6775.0,0.816,0.095,-0.142,0.553
7812325,8246.0,3807.0,6141.0,0.829,0.059,-0.116,0.544
7812342,7726.0,733.0,4479.0,0.84,0.025,-0.093,0.533
7812358,6650.0,-401.0,3851.0,0.85,-0.005,-0.068,0.523
7812375,5160.0,1399.0,3879.0,0.857,-0.032,-0.041,0.512
7812392,4240.0,3511.0,3319.0,0.863,-0.059,-0.017,0.502
7812408,4126.0,2563.0,2211.0,0.866,-0.088,0.002,0.493
7812435,3254.0,-967.0,1463.0,0.867,-0.114,0.019,0.485
7812451,2610.0,-1409.0,549.0,0.868,-0.137,0.036,0.475
7812467,2152.0,-1579.0,-49.0,0.87,-0.155,0.054,0.465
7812483,2042.0,151.0,-947.0,0.871,-0.17,0.07,0.456
7812499,1218.0,599.0,-1111.0,0.871,-0.184,0.082,0.448
7812515,750.0,-1921.0,-1463.0,0.87,-0.198,0.092,0.443
7812541,806.0,-2639.0,-2001.0,0.869,-0.208,0.099,0.438
7812558,264.0,-2445.0,-2125.0,0.869,-0.214,0.105,0.435
7812575,264.0,-2433.0,-2591.0,0.868,-0.218,0.108,0.433
7812592,-202.0,-3171.0,-2613.0,0.868,-0.219,0.109,0.432
7812608,-730.0,-4315.0,-1927.0,0.869,-0.217,0.108,0.432
7812625,-1258.0,-4391.0,-1677.0,0.87,-0.211,0.105,0.434
7812642,-1070.0,-4555.0,-1387.0,0.871,-0.201,0.1,0.436
7812659,-1012.0,-3745.0,-747.0,0.873,-0.188,0.093,0.44
7812676,-708.0,-3273.0,127.0,0.875,-0.172,0.085,0.445
7812692,-290.0,-1745.0,1325.0,0.876,-0.153,0.074,0.451
7812718,100.0,-1923.0,1759.0,0.876,-0.135,0.06,0.459
7812734,1082.0,-2579.0,2079.0,0.876,-0.115,0.045,0.466
7812750,1560.0,-2505.0,3089.0,0.876,-0.092,0.031,0.472
7812766,1626.0,-55.0,4033.0,0.875,-0.068,0.016,0.48
7812782,1748.0,139.0,5241.0,0.871,-0.044,0.0,0.488
7812808,2096.0,207.0,4715.0,0.867,-0.022,-0.018,0.497
7812825,3516.0,-79.0,5491.0,0.862,0.001,-0.036,0.505
7812842,4178.0,611.0,5911.0,0.856,0.025,-0.054,0.513
7812858,4076.0,1097.0,6799.0,0.848,0.05,-0.071,0.522
7812875,4628.0,1081.0,6611.0,0.84,0.075,-0.09,0.53
7812891,6026.0,1211.0,6663.0,0.831,0.099,-0.107,0.537
7812908,6842.0,1757.0,6709.0,0.821,0.124,-0.123,0.544
7812925,6842.0,2735.0,7029.0,0.809,0.149,-0.138,0.552
7812942,6862.0,2511.0,7035.0,0.797,0.174,-0.152,0.559
7812958,7402.0,2693.0,7335.0,0.784,0.198,-0.167,0.564
7812984,8228.0,2673.0,7127.0,0.77,0.222,-0.181,0.57
7813000,8242.0,3113.0,7383.0,0.755,0.247,-0.194,0.575
7813016,8496.0,4953.0,6901.0,0.74,0.272,-0.208,0.579
7813032,8986.0,3933.0,7063.0,0.724,0.294,-0.223,0.583
7813048,10218.0,2173.0,7745.0,0.707,0.317,-0.236,0.586
7813064,10248.0,4411.0,6793.0,0.691,0.34,-0.249,0.588
7813090,9890.0,4711.0,6797.0,0.674,0.361,-0.262,0.589
7813107,10580.0,3787.0,6467.0,0.658,0.38,-0.275,0.589
7813124,10422.0,3623.0,6579.0,0.642,0.399,-0.287,0.589
7813140,9724.0,4823.0,7091.0,0.625,0.418,-0.298,0.588
7813158,10364.0,3999.0,6519.0,0.611,0.434,-0.311,0.585
7813175,10492.0,2539.0,7081.0,0.596,0.45,-0.323,0.582
7813192,10024.0,5285.0,7957.0,0.581,0.465,-0.334,0.579
7813208,10280.0,4049.0,7699.0,0.568,0.477,-0.345,0.576
7813225,10228.0,1767.0,7875.0,0.556,0.489,-0.353,0.572
7813242,10084.0,3351.0,9357.0,0.545,0.5,-0.358,0.57
7813268,9110.0,5971.0,10315.0,0.535,0.508,-0.364,0.568
7813284,9274.0,4935.0,11289.0,0.529,0.513,-0.371,0.564
7813302,9736.0,3109.0,10313.0,0.528,0.514,-0.378,0.56
7813318,9936.0,1571.0,10823.0,0.529,0.514,-0.38,0.558
7813334,9370.0,3773.0,11247.0,0.532,0.513,-0.378,0.558
7813350,9080.0,4319.0,11771.0,0.537,0.509,-0.374,0.559
7813366,9654.0,4751.0,11483.0,0.545,0.502,-0.369,0.561
7813382,9220.0,4587.0,11641.0,0.556,0.491,-0.362,0.565
7813408,9266.0,4895.0,11515.0,0.569,0.477,-0.354,0.569
7813424,10158.0,4901.0,11145.0,0.585,0.461,-0.344,0.572
7813440,11600.0,4657.0,10757.0,0.602,0.443,-0.332,0.576
7813456,11388.0,4423.0,10545.0,0.62,0.422,-0.317,0.58
7813472,11848.0,5727.0,10515.0,0.639,0.401,-0.299,0.584
7813498,13064.0,6141.0,10377.0,0.659,0.378,-0.28,0.587
7813514,14040.0,6073.0,9611.0,0.68,0.354,-0.258,0.588
7813530,14480.0,5581.0,9509.0,0.702,0.327,-0.235,0.588
7813546,14646.0,6531.0,8869.0,0.724,0.299,-0.209,0.585
7813562,14222.0,5305.0,8077.0,0.746,0.269,-0.181,0.581
7813578,12646.0,3643.0,7315.0,0.767,0.24,-0.151,0.575
7813594,11412.0,4881.0,7707.0,0.787,0.211,-0.119,0.567
7813620,9972.0,4965.0,7489.0,0.805,0.182,-0.088,0.558
7813636,9292.0,4269.0,6603.0,0.821,0.151,-0.06,0.547
7813653,7930.0,3705.0,6079.0,0.835,0.122,-0.033,0.536
7813669,8228.0,2361.0,4375.0,0.847,0.091,-0.008,0.524
7813685,7292.0,1125.0,3843.0,0.857,0.064,0.017,0.511
7813711,5612.0,2119.0,4065.0,0.865,0.039,0.044,0.499
7813727,4432.0,2215.0,3875.0,0.871,0.014,0.069,0.486
7813743,4686.0,1297.0,2339.0,0.875,-0.011,0.092,0.475
7813759,3892.0,1531.0,1335.0,0.878,-0.036,0.113,0.463
7813775,3446.0,-989.0,641.0,0.88,-0.06,0.133,0.452
7813791,2682.0,-1827.0,495.0,0.881,-0.08,0.154,0.44
7813808,1880.0,-491.0,-97.0,0.882,-0.097,0.173,0.429
7813825,1746.0,-129.0,-1171.0,0.881,-0.114,0.187,0.419
7813842,1750.0,-2727.0,-2297.0,0.88,-0.129,0.199,0.412
7813869,692.0,-2813.0,-2611.0,0.879,-0.141,0.209,0.405
7813885,-600.0,-3569.0,-2163.0,0.878,-0.149,0.216,0.4
7813901,-668.0,-4891.0,-2473.0,0.878,-0.152,0.219,0.398
7813917,-1244.0,-4921.0,-2497.0,0.879,-0.15,0.219,0.396
7813933,-1408.0,-4629.0,-2181.0,0.881,-0.144,0.216,0.396
7813949,-1410.0,-4721.0,-1243.0,0.883,-0.134,0.212,0.397
7813975,-1308.0,-3573.0,-441.0,0.885,-0.119,0.205,0.4
7813992,-986.0,-2197.0,179.0,0.887,-0.103,0.195,0.405
7814008,-214.0,-2725.0,909.0,0.889,-0.085,0.184,0.411
7814025,-106.0,-2679.0,1897.0,0.89,-0.064,0.172,0.417
7814041,-70.0,-217.0,3063.0,0.891,-0.041,0.16,0.423
7814057,338.0,577.0,3591.0,0.89,-0.019,0.146,0.432
7814073,592.0,-711.0,3887.0,0.888,0.004,0.132,0.441
7814099,974.0,-143.0,4765.0,0.885,0.028,0.118,0.449
7814115,354.0,2441.0,6135.0,0.881,0.054,0.104,0.459
7814131,1436.0,2135.0,6327.0,0.874,0.078,0.087,0.471
7814147,2508.0,1487.0,5771.0,0.868,0.103,0.07,0.482
7814163,3764.0,2455.0,6429.0,0.859,0.128,0.054,0.493
7814179,3450.0,2077.0,7371.0,0.849,0.154,0.039,0.504
7814205,3944.0,4153.0,7347.0,0.838,0.18,0.025,0.515
7814222,4762.0,4237.0,7055.0,0.826,0.205,0.01,0.525
7814238,5714.0,3557.0,7095.0,0.813,0.229,-0.004,0.536
7814254,5966.0,5143.0,7455.0,0.799,0.253,-0.017,0.546
7814270,6096.0,4957.0,7403.0,0.783,0.276,-0.029,0.556
7814286,6968.0,5475.0,6459.0,0.767,0.297,-0.041,0.566
7814302,7418.0,4625.0,6339.0,0.752,0.318,-0.051,0.576
7814328,7698.0,5241.0,6831.0,0.735,0.338,-0.06,0.585
7814344,7126.0,7167.0,6357.0,0.717,0.358,-0.068,0.595
7814360,7652.0,6289.0,6393.0,0.698,0.377,-0.077,0.604
7814376,7770.0,5463.0,6175.0,0.68,0.395,-0.087,0.612
7814392,8622.0,5635.0,5259.0,0.662,0.413,-0.095,0.619
7814419,8398.0,6179.0,6155.0,0.643,0.43,-0.101,0.625
7814435,8034.0,8021.0,6067.0,0.624,0.447,-0.109,0.631
7814451,8474.0,7079.0,6097.0,0.605,0.462,-0.118,0.637
7814467,8354.0,6071.0,6567.0,0.587,0.477,-0.127,0.642
7814483,8460.0,7033.0,6287.0,0.569,0.492,-0.135,0.645
7814499,8624.0,7295.0,6283.0,0.553,0.505,-0.143,0.647
7814515,8926.0,7765.0,6455.0,0.537,0.518,-0.151,0.649
7814541,8834.0,6727.0,6445.0,0.522,0.528,-0.159,0.65
7814557,8702.0,6429.0,6565.0,0.51,0.538,-0.164,0.651
7814574,8370.0,7479.0,6717.0,0.499,0.547,-0.168,0.651
7814591,7882.0,7817.0,6777.0,0.489,0.554,-0.171,0.652
7814608,7044.0,6319.0,7489.0,0.482,0.559,-0.174,0.652
7814624,6764.0,7285.0,7459.0,0.476,0.563,-0.176,0.652
7814641,6986.0,7497.0,7185.0,0.474,0.566,-0.177,0.651
7814657,6796.0,6577.0,7495.0,0.473,0.567,-0.178,0.65
7814674,6944.0,7649.0,7337.0,0.475,0.567,-0.178,0.649
7814700,6108.0,6601.0,7857.0,0.479,0.565,-0.177,0.648
7814716,6692.0,7331.0,7441.0,0.486,0.562,-0.175,0.646
7814732,6898.0,7759.0,7601.0,0.495,0.557,-0.172,0.644
7814748,7590.0,6999.0,6943.0,0.506,0.55,-0.169,0.643
7814764,7086.0,6739.0,7535.0,0.518,0.543,-0.162,0.641
7814780,7256.0,8717.0,8091.0,0.531,0.534,-0.154,0.64
7814806,8130.0,8987.0,7231.0,0.548,0.523,-0.146,0.636
7814823,8150.0,7305.0,7169.0,0.566,0.51,-0.137,0.633
7814840,7624.0,8521.0,7647.0,0.585,0.497,-0.125,0.628
7814857,7718.0,8839.0,7397.0,0.605,0.482,-0.114,0.623
7814874,7964.0,8149.0,7349.0,0.627,0.466,-0.101,0.616
7814891,7874.0,8611.0,7307.0,0.649,0.45,-0.087,0.607
7814907,7432.0,8573.0,7415.0,0.671,0.431,-0.074,0.599
7814924,7066.0,7953.0,7559.0,0.692,0.412,-0.06,0.589
7814941,6932.0,7829.0,7299.0,0.713,0.393,-0.046,0.579
7814957,7162.0,6401.0,6663.0,0.734,0.372,-0.031,0.568
7814984,6390.0,7641.0,7471.0,0.753,0.352,-0.015,0.556
7815000,5572.0,8817.0,7819.0,0.771,0.332,-0.0,0.544
7815016,5974.0,7001.0,7407.0,0.788,0.31,0.01,0.532
7815032,6868.0,4911.0,6191.0,0.805,0.287,0.021,0.519
7815048,6014.0,6025.0,6859.0,0.819,0.266,0.034,0.506
7815064,4788.0,5957.0,7239.0,0.832,0.246,0.046,0.495
7815090,4908.0,5717.0,7325.0,0.844,0.224,0.055,0.484
7815107,5476.0,4821.0,5951.0,0.856,0.201,0.063,0.473
7815123,4656.0,3095.0,6141.0,0.865,0.178,0.07,0.463
7815140,4066.0,3011.0,6675.0,0.873,0.157,0.078,0.454
7815156,3860.0,3713.0,5917.0,0.88,0.136,0.085,0.447
7815172,3658.0,2949.0,4823.0,0.887,0.113,0.092,0.439
7815189,3372.0,1237.0,4599.0,0.892,0.089,0.099,0.432
7815206,2310.0,191.0,4475.0,0.896,0.068,0.107,0.426
7815223,1936.0,597.0,4131.0,0.898,0.049,0.115,0.421
7815240,1642.0,1177.0,3263.0,0.9,0.029,0.123,0.417
7815267,1166.0,375.0,2607.0,0.901,0.009,0.129,0.414
7815283,1312.0,-899.0,1839.0,0.901,-0.01,0.134,0.412
7815299,734.0,-1157.0,1855.0,0.901,-0.028,0.14,0.41
7815315,472.0,-1757.0,1345.0,0.9,-0.043,0.144,0.408
7815331,134.0,-1399.0,669.0,0.899,-0.057,0.148,0.407
7815347,-362.0,-3207.0,599.0,0.898,-0.068,0.151,0.407
7815373,-872.0,-2159.0,591.0,0.898,-0.075,0.152,0.407
7815390,-782.0,-2509.0,129.0,0.897,-0.081,0.152,0.408
7815407,-960.0,-3751.0,171.0,0.896,-0.084,0.15,0.41
7815424,-1092.0,-3225.0,219.0,0.896,-0.084,0.147,0.412
7815440,-1442.0,-3221.0,927.0,0.895,-0.08,0.143,0.414
7815457,-1012.0,-3287.0,997.0,0.895,-0.073,0.137,0.418
7815473,-680.0,-3059.0,1065.0,0.894,-0.064,0.13,0.423
7815489,-484.0,-1597.0,1277.0,0.894,-0.052,0.123,0.428
7815506,-172.0,-1901.0,2079.0,0.893,-0.04,0.114,0.434
7815533,106.0,-1865.0,2697.0,0.891,-0.025,0.104,0.441
7815549,640.0,-1185.0,2725.0,0.889,-0.009,0.093,0.448
7815565,1302.0,-69.0,3091.0,0.886,0.01,0.082,0.456
7815581,1652.0,-115.0,3579.0,0.883,0.028,0.07,0.464
7815597,2280.0,-1.0,4075.0,0.878,0.048,0.059,0.472
7815613,2104.0,1051.0,5165.0,0.873,0.07,0.047,0.481
7815639,2450.0,2279.0,5511.0,0.866,0.092,0.034,0.49
7815656,3474.0,1795.0,5111.0,0.859,0.115,0.019,0.499
7815673,4424.0,1869.0,5659.0,0.85,0.14,0.004,0.508
7815690,4318.0,3541.0,6417.0,0.839,0.166,-0.01,0.518
7815707,5252.0,4441.0,6051.0,0.829,0.189,-0.025,0.526
7815723,6328.0,3769.0,6527.0,0.817,0.212,-0.041,0.535
7815739,6860.0,3037.0,6405.0,0.804,0.237,-0.055,0.543
7815756,6974.0,5077.0,6471.0,0.789,0.262,-0.067,0.552
7815773,7116.0,5989.0,6735.0,0.774,0.286,-0.08,0.56
7815790,7642.0,5513.0,7495.0,0.758,0.309,-0.095,0.566
7815807,8098.0,5559.0,6795.0,0.742,0.331,-0.109,0.572
7815833,9066.0,4769.0,5579.0,0.726,0.353,-0.121,0.578
7815849,8952.0,4697.0,6505.0,0.708,0.374,-0.132,0.584
7815865,8890.0,5565.0,6653.0,0.689,0.395,-0.141,0.591
7815881,8848.0,6959.0,6189.0,0.67,0.415,-0.149,0.597
7815897,9050.0,6437.0,5977.0,0.651,0.433,-0.159,0.603
7815913,9210.0,5503.0,6049.0,0.631,0.45,-0.168,0.609
7815939,9290.0,5771.0,6205.0,0.612,0.467,-0.176,0.613
7815956,9676.0,5847.0,5585.0,0.593,0.483,-0.184,0.617
7815973,9464.0,6215.0,5447.0,0.574,0.498,-0.192,0.621
7815990,9146.0,7115.0,5859.0,0.554,0.513,-0.201,0.624
7816006,8298.0,7167.0,6595.0,0.535,0.527,-0.212,0.626
7816023,8982.0,5909.0,6151.0,0.517,0.539,-0.224,0.626
7816040,10240.0,5151.0,5727.0,0.501,0.551,-0.234,0.625
7816057,9410.0,7147.0,5893.0,0.487,0.561,-0.242,0.624
7816074,9504.0,6133.0,6845.0,0.474,0.57,-0.25,0.623
7816100,8268.0,6673.0,7047.0,0.462,0.577,-0.257,0.623
7816116,8604.0,5583.0,6949.0,0.453,0.582,-0.264,0.622
7816132,8402.0,6429.0,7309.0,0.446,0.586,-0.269,0.621
7816148,7628.0,6765.0,7967.0,0.443,0.588,-0.274,0.619
7816164,7614.0,7167.0,7807.0,0.441,0.589,-0.279,0.617
7816180,8502.0,5341.0,7529.0,0.443,0.587,-0.283,0.616
7816196,8426.0,5185.0,8031.0,0.448,0.584,-0.285,0.615
7816222,8034.0,6471.0,8345.0,0.455,0.579,-0.284,0.614
7816239,7764.0,7213.0,8675.0,0.463,0.573,-0.284,0.613
7816256,9012.0,5405.0,7975.0,0.475,0.565,-0.284,0.612
7816273,8826.0,6707.0,8645.0,0.488,0.556,-0.28,0.612
7816290,9126.0,7385.0,8701.0,0.503,0.544,-0.277,0.612
7816307,9522.0,6949.0,8691.0,0.52,0.53,-0.274,0.611
7816323,10654.0,7203.0,8323.0,0.539,0.514,-0.27,0.611
7816340,11592.0,7193.0,8199.0,0.559,0.496,-0.264,0.61
7816366,12110.0,6919.0,8821.0,0.581,0.477,-0.256,0.608
7816382,13246.0,8209.0,7913.0,0.603,0.455,-0.247,0.607
7816398,14004.0,6227.0,7537.0,0.627,0.431,-0.235,0.604
7816414,14218.0,6087.0,7381.0,0.651,0.406,-0.22,0.602
7816430,14098.0,7507.0,7679.0,0.675,0.38,-0.201,0.599
7816446,13890.0,6515.0,7457.0,0.7,0.351,-0.183,0.595
7816472,13960.0,5077.0,6629.0,0.725,0.321,-0.163,0.588
7816489,12722.0,5981.0,6413.0,0.748,0.29,-0.141,0.58
7816506,11364.0,4931.0,6331.0,0.77,0.258,-0.12,0.571
7816523,10480.0,3943.0,6139.0,0.79,0.227,-0.098,0.561
7816539,9800.0,3401.0,4579.0,0.809,0.196,-0.076,0.549
7816556,8196.0,3357.0,4691.0,0.825,0.166,-0.053,0.538
7816572,6804.0,3039.0,4865.0,0.838,0.138,-0.033,0.526
7816588,6208.0,2163.0,4279.0,0.85,0.11,-0.014,0.515
7816604,5976.0,2641.0,3131.0,0.859,0.083,0.005,0.505
7816630,5568.0,803.0,2321.0,0.867,0.054,0.022,0.495
7816646,4622.0,-173.0,2313.0,0.873,0.029,0.039,0.486
7816662,3202.0,271.0,2183.0,0.877,0.005,0.057,0.476
7816678,2646.0,403.0,1809.0,0.881,-0.016,0.074,0.467
7816694,2188.0,-359.0,921.0,0.884,-0.037,0.089,0.457
7816710,1438.0,-1327.0,481.0,0.886,-0.056,0.104,0.448
7816727,208.0,-833.0,461.0,0.888,-0.073,0.117,0.44
7816753,-94.0,-1955.0,79.0,0.888,-0.088,0.127,0.432
7816770,-286.0,-3251.0,-363.0,0.889,-0.1,0.136,0.426
7816787,-682.0,-2177.0,-767.0,0.889,-0.11,0.143,0.421
7816804,-910.0,-3107.0,-793.0,0.888,-0.119,0.147,0.419
7816821,-1058.0,-4611.0,-1087.0,0.888,-0.124,0.15,0.417
7816838,-1398.0,-2915.0,-1007.0,0.888,-0.125,0.151,0.416
7816855,-1570.0,-3423.0,-491.0,0.888,-0.124,0.149,0.418
7816872,-1578.0,-4387.0,-455.0,0.888,-0.12,0.146,0.42
7816889,-1580.0,-3569.0,229.0,0.888,-0.113,0.14,0.423
7816906,-1380.0,-2679.0,585.0,0.888,-0.103,0.132,0.428
7816923,-730.0,-2539.0,977.0,0.888,-0.091,0.122,0.434
7816940,-324.0,-2675.0,1271.0,0.888,-0.077,0.11,0.44
7816966,-2.0,-1419.0,1973.0,0.887,-0.062,0.098,0.447
7816982,396.0,-1977.0,2381.0,0.886,-0.045,0.084,0.454
7816998,1280.0,-1067.0,2497.0,0.884,-0.025,0.071,0.461
7817014,1354.0,-1143.0,3205.0,0.882,-0.006,0.057,0.468
7817030,1454.0,241.0,4005.0,0.878,0.015,0.043,0.476
7817046,1664.0,625.0,4871.0,0.874,0.036,0.028,0.485
7817072,2452.0,1659.0,4951.0,0.868,0.059,0.011,0.494
7817089,3720.0,823.0,4715.0,0.861,0.081,-0.007,0.503
7817106,4418.0,1577.0,5431.0,0.853,0.104,-0.024,0.511
7817123,4670.0,2105.0,6065.0,0.844,0.129,-0.042,0.52
7817140,5570.0,2787.0,6223.0,0.833,0.154,-0.06,0.528
7817157,5968.0,3349.0,6483.0,0.822,0.179,-0.079,0.536
7817174,6814.0,3479.0,6333.0,0.809,0.202,-0.099,0.542
7817190,7198.0,3767.0,6775.0,0.796,0.226,-0.118,0.548
7817209,8004.0,4663.0,6943.0,0.782,0.249,-0.139,0.554
7817226,8878.0,4931.0,7467.0,0.768,0.27,-0.16,0.559
7817242,10090.0,3399.0,5681.0,0.755,0.288,-0.182,0.561
7817268,11768.0,979.0,5509.0,0.74,0.309,-0.198,0.564
7817284,11114.0,3949.0,6383.0,0.722,0.332,-0.208,0.57
7817300,9872.0,6231.0,6735.0,0.703,0.354,-0.219,0.577
7817316,9886.0,5733.0,7251.0,0.684,0.373,-0.233,0.583
7817332,9922.0,3389.0,7197.0,0.664,0.391,-0.248,0.587
7817348,10696.0,4997.0,6415.0,0.645,0.41,-0.262,0.589
7817374,11124.0,5287.0,6475.0,0.626,0.428,-0.276,0.591
7817390,11034.0,3863.0,7053.0,0.607,0.445,-0.29,0.592
7817406,10988.0,5043.0,7083.0,0.588,0.462,-0.301,0.592
7817423,10734.0,5187.0,7221.0,0.57,0.477,-0.313,0.592
7817439,10798.0,5617.0,7505.0,0.553,0.491,-0.324,0.59
7817456,10250.0,5583.0,8043.0,0.538,0.502,-0.335,0.588
7817472,10054.0,5125.0,7739.0,0.526,0.512,-0.346,0.585
7817488,9660.0,3583.0,7571.0,0.515,0.52,-0.354,0.582
7817515,9038.0,4449.0,8469.0,0.505,0.528,-0.36,0.58
7817531,8762.0,6025.0,8327.0,0.498,0.534,-0.365,0.578
7817547,8218.0,3921.0,8893.0,0.493,0.537,-0.37,0.576
7817563,7854.0,4797.0,9249.0,0.491,0.538,-0.372,0.575
7817579,8228.0,4853.0,9001.0,0.492,0.538,-0.374,0.574
7817595,8408.0,3727.0,9149.0,0.495,0.535,-0.375,0.573
7817621,8434.0,4613.0,9297.0,0.5,0.531,-0.372,0.574
7817638,8342.0,5785.0,9697.0,0.508,0.525,-0.37,0.574
7817655,8554.0,4029.0,9293.0,0.518,0.516,-0.367,0.575
7817672,9356.0,4237.0,9171.0,0.529,0.507,-0.363,0.575
7817688,9768.0,4871.0,9189.0,0.543,0.496,-0.357,0.576
7817705,10162.0,5997.0,9243.0,0.559,0.482,-0.35,0.577
7817722,10562.0,4799.0,8685.0,0.576,0.466,-0.344,0.577
7817739,10840.0,3977.0,8849.0,0.594,0.449,-0.334,0.578
7817756,11518.0,6127.0,9033.0,0.612,0.432,-0.323,0.578
7817773,12308.0,5567.0,8881.0,0.633,0.411,-0.311,0.577
7817789,13372.0,5611.0,8183.0,0.654,0.389,-0.298,0.576
7817816,13280.0,4035.0,8129.0,0.675,0.365,-0.283,0.575
7817832,13938.0,4271.0,7809.0,0.696,0.342,-0.264,0.573
7817848,13176.0,6213.0,8191.0,0.717,0.318,-0.243,0.571
7817864,12718.0,5543.0,7885.0,0.738,0.29,-0.223,0.566
7817880,12820.0,4637.0,6809.0,0.758,0.263,-0.203,0.561
7817896,12434.0,3777.0,6781.0,0.778,0.234,-0.181,0.555
7817922,11332.0,3559.0,6501.0,0.795,0.206,-0.158,0.548
7817939,10400.0,2767.0,6445.0,0.811,0.178,-0.134,0.541
7817958,9538.0,3651.0,5843.0,0.826,0.151,-0.111,0.532
7817974,9004.0,2699.0,4847.0,0.84,0.122,-0.088,0.521
7817990,7518.0,643.0,5093.0,0.852,0.094,-0.066,0.512
7818006,6356.0,373.0,4571.0,0.861,0.07,-0.044,0.501
7818022,5484.0,2823.0,3981.0,0.87,0.046,-0.021,0.491
7818038,4752.0,2107.0,2991.0,0.877,0.021,-0.002,0.481
7818064,4138.0,-411.0,2427.0,0.882,-0.004,0.017,0.471
7818080,3250.0,-721.0,2239.0,0.886,-0.027,0.036,0.461
7818096,2554.0,-835.0,1309.0,0.889,-0.047,0.056,0.452
7818112,1870.0,-819.0,1309.0,0.891,-0.066,0.074,0.442
7818128,1068.0,-747.0,179.0,0.893,-0.085,0.091,0.434
7818144,1006.0,-1819.0,-557.0,0.893,-0.102,0.106,0.426
7818170,196.0,-2251.0,-851.0,0.892,-0.116,0.121,0.419
7818186,-334.0,-2569.0,-1061.0,0.892,-0.127,0.134,0.414
7818203,-730.0,-2453.0,-1515.0,0.891,-0.136,0.143,0.409
7818220,-1118.0,-3359.0,-1697.0,0.89,-0.142,0.148,0.406
7818236,-1192.0,-3473.0,-2061.0,0.89,-0.145,0.15,0.405
7818253,-1508.0,-4127.0,-1917.0,0.891,-0.144,0.149,0.404
7818270,-1930.0,-4241.0,-1649.0,0.892,-0.141,0.146,0.405
7818287,-2022.0,-3089.0,-933.0,0.892,-0.134,0.14,0.407
7818304,-1732.0,-3749.0,-553.0,0.893,-0.124,0.131,0.412
7818321,-1094.0,-2797.0,-267.0,0.893,-0.112,0.12,0.418
7818338,-202.0,-2429.0,139.0,0.893,-0.099,0.107,0.425
7818365,572.0,-1971.0,1005.0,0.893,-0.085,0.094,0.432
7818381,554.0,-2891.0,2125.0,0.892,-0.067,0.079,0.44
7818398,738.0,-819.0,2931.0,0.891,-0.047,0.065,0.448
7818414,1526.0,-397.0,2685.0,0.888,-0.026,0.048,0.456
7818430,2368.0,-173.0,2957.0,0.885,-0.005,0.032,0.465
7818446,2424.0,923.0,4515.0,0.88,0.016,0.015,0.474
7818462,2444.0,925.0,5557.0,0.874,0.039,-0.004,0.484
7818488,3246.0,1289.0,5631.0,0.867,0.062,-0.024,0.494
7818504,5398.0,1029.0,4697.0,0.859,0.086,-0.045,0.503
7818521,5914.0,1005.0,6031.0,0.849,0.112,-0.065,0.512
7818538,5632.0,3727.0,6713.0,0.839,0.139,-0.083,0.52
7818555,6040.0,3701.0,7469.0,0.826,0.165,-0.105,0.528
7818572,8022.0,2349.0,6251.0,0.813,0.191,-0.128,0.534
7818589,8710.0,1967.0,6487.0,0.799,0.219,-0.147,0.54
7818606,8774.0,5759.0,6907.0,0.783,0.246,-0.165,0.547
7818622,8774.0,6339.0,8373.0,0.767,0.269,-0.186,0.553
7818649,10288.0,3963.0,7089.0,0.751,0.289,-0.208,0.556
7818665,11780.0,4347.0,6155.0,0.734,0.31,-0.227,0.56
7818681,10766.0,3861.0,7809.0,0.717,0.33,-0.244,0.563
7818697,11148.0,6503.0,7835.0,0.699,0.35,-0.26,0.567
7818713,11164.0,4393.0,7233.0,0.681,0.368,-0.276,0.57
7818729,11600.0,4673.0,7479.0,0.663,0.385,-0.291,0.572
7818745,10990.0,4935.0,7647.0,0.645,0.402,-0.305,0.574
7818771,10814.0,4781.0,7613.0,0.629,0.416,-0.319,0.573
7818788,11016.0,2983.0,7247.0,0.614,0.43,-0.332,0.572
7818805,10564.0,2461.0,7157.0,0.6,0.444,-0.342,0.571
7818822,9656.0,5351.0,8553.0,0.585,0.459,-0.35,0.57
7818839,8898.0,5101.0,8283.0,0.571,0.469,-0.362,0.568
7818856,9202.0,2027.0,8615.0,0.559,0.478,-0.374,0.565
7818872,9468.0,3041.0,8833.0,0.548,0.488,-0.383,0.562
7818889,9226.0,3791.0,9679.0,0.538,0.495,-0.391,0.559
7818906,8502.0,3015.0,9813.0,0.531,0.499,-0.399,0.556
7818922,9340.0,3993.0,10893.0,0.526,0.503,-0.406,0.553
7818949,9736.0,3581.0,10383.0,0.525,0.502,-0.412,0.55
7818965,10172.0,2435.0,9799.0,0.526,0.5,-0.415,0.548
7818981,9066.0,1181.0,10273.0,0.529,0.496,-0.413,0.55
7818997,9040.0,4887.0,10925.0,0.534,0.492,-0.408,0.553
7819014,9866.0,6691.0,11187.0,0.543,0.483,-0.405,0.555
7819030,10136.0,1989.0,9941.0,0.555,0.471,-0.4,0.557
7819046,9856.0,1371.0,9705.0,0.568,0.459,-0.39,0.56
7819072,9764.0,5351.0,9825.0,0.583,0.446,-0.378,0.564
7819088,10944.0,3921.0,9415.0,0.599,0.43,-0.366,0.568
7819104,10974.0,3541.0,9433.0,0.616,0.413,-0.35,0.572
7819120,11820.0,6129.0,9477.0,0.633,0.394,-0.336,0.575
7819136,12116.0,3605.0,8743.0,0.652,0.373,-0.321,0.577
7819152,13762.0,4021.0,7977.0,0.671,0.351,-0.304,0.579
7819178,13450.0,3961.0,7837.0,0.69,0.327,-0.284,0.58
7819194,12768.0,4305.0,8683.0,0.709,0.304,-0.263,0.58
7819210,13436.0,5213.0,7997.0,0.727,0.281,-0.241,0.579
7819226,13434.0,3223.0,6903.0,0.745,0.254,-0.22,0.576
7819242,12982.0,2969.0,6415.0,0.763,0.229,-0.197,0.572
7819268,11162.0,3935.0,6819.0,0.78,0.203,-0.173,0.567
7819285,10722.0,2667.0,6777.0,0.795,0.177,-0.15,0.56
7819301,10826.0,1617.0,5129.0,0.81,0.151,-0.126,0.552
7819317,9588.0,2161.0,4027.0,0.825,0.125,-0.1,0.542
7819333,6642.0,1923.0,5379.0,0.838,0.1,-0.075,0.532
7819349,5716.0,1605.0,5209.0,0.848,0.076,-0.052,0.521
7819375,5492.0,819.0,4075.0,0.858,0.053,-0.03,0.51
7819391,5106.0,111.0,2219.0,0.867,0.027,-0.01,0.498
7819407,3678.0,-609.0,3135.0,0.875,0.004,0.011,0.484
7819423,1824.0,1675.0,3197.0,0.881,-0.018,0.031,0.472
7819439,2324.0,-599.0,1913.0,0.884,-0.04,0.048,0.462
7819455,1236.0,-1957.0,1267.0,0.887,-0.059,0.066,0.453
7819472,814.0,233.0,887.0,0.889,-0.079,0.083,0.443
7819498,-168.0,-2459.0,629.0,0.891,-0.097,0.098,0.433
7819514,56.0,-3239.0,-551.0,0.891,-0.112,0.112,0.425
7819530,-250.0,-1027.0,-1533.0,0.891,-0.125,0.126,0.418
7819546,-382.0,-2387.0,-1719.0,0.89,-0.138,0.138,0.413
7819563,-1852.0,-3663.0,-1139.0,0.888,-0.147,0.147,0.409
7819579,-1876.0,-3681.0,-1655.0,0.887,-0.153,0.151,0.408
7819595,-1918.0,-3399.0,-2085.0,0.887,-0.156,0.152,0.408
7819621,-1486.0,-3991.0,-2405.0,0.886,-0.156,0.15,0.409
7819639,-1732.0,-4285.0,-1633.0,0.887,-0.151,0.145,0.412
7819656,-1954.0,-3575.0,-1201.0,0.888,-0.142,0.138,0.416
7819673,-1698.0,-3119.0,-979.0,0.888,-0.131,0.128,0.421
7819690,-1154.0,-1749.0,-89.0,0.889,-0.119,0.114,0.427
7819706,-476.0,-2201.0,615.0,0.889,-0.105,0.098,0.436
7819722,316.0,-2115.0,1457.0,0.888,-0.088,0.081,0.445
7819739,1354.0,-977.0,1803.0,0.886,-0.07,0.063,0.454
7819756,1572.0,-1593.0,2989.0,0.883,-0.05,0.046,0.464
7819772,1990.0,-169.0,3379.0,0.88,-0.028,0.028,0.473
7819799,2774.0,533.0,3571.0,0.876,-0.005,0.01,0.482
7819815,3290.0,473.0,4573.0,0.871,0.018,-0.009,0.491
7819831,3988.0,1337.0,5429.0,0.864,0.044,-0.028,0.5
7819847,3850.0,2287.0,6219.0,0.857,0.07,-0.05,0.508
7819863,5966.0,1271.0,5137.0,0.849,0.097,-0.075,0.515
7819879,6790.0,1793.0,5627.0,0.839,0.125,-0.098,0.521
7819905,6736.0,4295.0,6789.0,0.828,0.153,-0.12,0.527
7819922,7904.0,3985.0,6575.0,0.814,0.179,-0.144,0.533
7819938,9450.0,1189.0,5717.0,0.799,0.206,-0.166,0.539
7819955,9920.0,1355.0,6423.0,0.784,0.237,-0.182,0.545
7819972,9294.0,5869.0,6855.0,0.767,0.268,-0.196,0.549
7819988,10122.0,6921.0,7141.0,0.749,0.295,-0.212,0.554
7820005,10494.0,4401.0,7551.0,0.73,0.319,-0.229,0.559
7820022,10686.0,2227.0,7291.0,0.71,0.344,-0.242,0.565
7820039,11064.0,3123.0,7141.0,0.69,0.369,-0.251,0.57
7820065,11270.0,5707.0,7019.0,0.67,0.393,-0.258,0.575
7820081,11016.0,5225.0,7163.0,0.65,0.415,-0.265,0.58
7820097,10920.0,4127.0,7015.0,0.629,0.436,-0.27,0.585
7820113,10396.0,6077.0,7035.0,0.607,0.455,-0.274,0.591
7820129,10564.0,4857.0,6525.0,0.588,0.471,-0.279,0.595
7820145,10800.0,3797.0,6135.0,0.568,0.487,-0.283,0.6
7820161,10690.0,4739.0,5543.0,0.549,0.502,-0.284,0.605
7820187,9792.0,3435.0,5319.0,0.529,0.517,-0.283,0.611
7820204,9160.0,3729.0,4739.0,0.508,0.532,-0.28,0.617
7820221,9372.0,3401.0,4505.0,0.486,0.547,-0.274,0.623
7820238,8542.0,4545.0,4917.0,0.462,0.564,-0.266,0.631
7820255,7896.0,7311.0,5407.0,0.439,0.579,-0.258,0.637
7820271,7872.0,7125.0,5349.0,0.417,0.593,-0.253,0.641
7820288,9070.0,5059.0,4503.0,0.396,0.606,-0.247,0.645
7820305,9204.0,7009.0,4473.0,0.376,0.618,-0.236,0.649
7820321,9172.0,7911.0,4693.0,0.358,0.628,-0.224,0.654
7820338,7860.0,8441.0,5327.0,0.341,0.636,-0.21,0.659
7820365,7632.0,8845.0,5143.0,0.327,0.644,-0.194,0.663
7820381,8632.0,8849.0,4657.0,0.317,0.651,-0.175,0.667
7820397,7302.0,10077.0,5117.0,0.312,0.656,-0.156,0.669
7820413,7102.0,10469.0,4849.0,0.31,0.66,-0.137,0.67
7820429,7248.0,10795.0,5365.0,0.314,0.661,-0.119,0.671
7820445,7630.0,9569.0,4449.0,0.322,0.661,-0.1,0.671
7820471,7516.0,10027.0,4401.0,0.332,0.659,-0.081,0.67
7820488,6712.0,11341.0,5071.0,0.345,0.655,-0.064,0.669
7820505,7766.0,12471.0,5277.0,0.363,0.649,-0.05,0.666
7820522,9938.0,11859.0,3047.0,0.386,0.64,-0.039,0.663
7820538,10496.0,9483.0,3529.0,0.411,0.629,-0.027,0.659
7820554,9598.0,13749.0,4335.0,0.437,0.617,-0.015,0.655
7820571,11080.0,12517.0,3363.0,0.47,0.6,-0.009,0.647
7820588,12312.0,11405.0,3247.0,0.503,0.582,-0.004,0.639
7820604,13070.0,11819.0,2677.0,0.538,0.56,-0.0,0.63
7820631,13338.0,12027.0,2793.0,0.574,0.534,0.002,0.621
7820647,13374.0,10107.0,3305.0,0.611,0.504,0.004,0.611
7820663,12920.0,9961.0,3445.0,0.647,0.471,0.005,0.6
7820679,11986.0,9437.0,3545.0,0.682,0.435,0.006,0.588
7820695,11700.0,6553.0,3849.0,0.714,0.397,0.007,0.576
7820711,11086.0,7229.0,4689.0,0.744,0.36,0.01,0.563
7820727,10102.0,6667.0,4371.0,0.77,0.322,0.012,0.55
7820753,10102.0,5379.0,3609.0,0.795,0.282,0.015,0.537
7820770,8356.0,1951.0,4409.0,0.816,0.244,0.02,0.524
7820787,7410.0,2923.0,3745.0,0.834,0.209,0.027,0.51
7820803,6008.0,3569.0,4131.0,0.848,0.174,0.032,0.499
7820820,5668.0,1819.0,3295.0,0.861,0.139,0.038,0.488
7820836,3972.0,899.0,2943.0,0.871,0.105,0.045,0.477
7820853,2920.0,-1109.0,3495.0,0.879,0.074,0.053,0.468
7820870,2330.0,-1287.0,2789.0,0.885,0.047,0.061,0.459
7820887,1164.0,-343.0,2533.0,0.889,0.024,0.07,0.451
7820904,1306.0,-569.0,1033.0,0.892,0.0,0.078,0.445
7820931,1302.0,-1569.0,981.0,0.894,-0.023,0.086,0.439
7820947,1070.0,-2055.0,767.0,0.895,-0.043,0.096,0.433
7820963,554.0,-2517.0,779.0,0.895,-0.059,0.106,0.428
7820979,188.0,-2335.0,455.0,0.895,-0.073,0.117,0.424
7820995,-124.0,-1645.0,-591.0,0.895,-0.083,0.127,0.419
7821012,-1032.0,-2761.0,-147.0,0.895,-0.093,0.137,0.415
7821029,-1482.0,-3587.0,205.0,0.895,-0.099,0.145,0.411
7821055,-1718.0,-3467.0,27.0,0.895,-0.1,0.154,0.407
7821071,-2380.0,-2965.0,507.0,0.896,-0.097,0.16,0.404
7821088,-1762.0,-2745.0,377.0,0.896,-0.09,0.166,0.401
7821105,-1858.0,-2553.0,1033.0,0.898,-0.08,0.171,0.398
7821121,-1868.0,-1537.0,1453.0,0.899,-0.067,0.175,0.396
7821138,-1250.0,-2419.0,1521.0,0.9,-0.049,0.179,0.394
7821154,-278.0,-1037.0,1197.0,0.902,-0.027,0.183,0.39
7821171,-968.0,-155.0,2341.0,0.903,-0.003,0.188,0.387
7821198,-960.0,-597.0,3131.0,0.903,0.025,0.192,0.383
7821214,-680.0,463.0,3157.0,0.903,0.057,0.197,0.379
7821230,212.0,1415.0,2751.0,0.901,0.092,0.202,0.374
7821246,792.0,2521.0,2727.0,0.897,0.126,0.207,0.37
7821263,486.0,3593.0,3157.0,0.891,0.165,0.215,0.365
7821279,52.0,3879.0,3817.0,0.883,0.203,0.221,0.361
7821295,230.0,4905.0,3535.0,0.873,0.242,0.225,0.358
7821321,968.0,5001.0,2701.0,0.862,0.279,0.23,0.357
7821338,532.0,5203.0,3397.0,0.847,0.316,0.235,0.358
7821354,316.0,6139.0,3713.0,0.831,0.351,0.238,0.361
7821371,522.0,6773.0,4191.0,0.813,0.384,0.24,0.367
7821388,1990.0,6827.0,3391.0,0.792,0.417,0.239,0.376
7821404,2570.0,7843.0,2653.0,0.769,0.448,0.24,0.388
7821421,1908.0,8943.0,3629.0,0.744,0.477,0.24,0.401
7821438,2248.0,10791.0,3455.0,0.72,0.502,0.238,0.416
7821454,3300.0,10813.0,3153.0,0.695,0.524,0.233,0.433
7821471,4094.0,10195.0,2293.0,0.671,0.543,0.227,0.45
7821498,4278.0,10629.0,2591.0,0.643,0.563,0.223,0.468
7821514,3766.0,12671.0,3347.0,0.618,0.58,0.216,0.485
7821530,4994.0,13681.0,2303.0,0.595,0.592,0.206,0.502
7821546,4712.0,11497.0,2123.0,0.576,0.6,0.194,0.52
7821563,5748.0,9765.0,2067.0,0.555,0.608,0.182,0.538
7821579,5544.0,11331.0,1705.0,0.534,0.614,0.172,0.555
7821595,5668.0,10319.0,1889.0,0.515,0.619,0.16,0.571
7821621,5688.0,10799.0,1863.0,0.497,0.623,0.149,0.585
7821637,5840.0,11145.0,1499.0,0.481,0.626,0.138,0.598
7821654,5756.0,9195.0,1607.0,0.465,0.629,0.126,0.611
7821671,5866.0,8981.0,1513.0,0.448,0.632,0.116,0.622
7821687,5252.0,9547.0,1821.0,0.432,0.636,0.105,0.631
7821704,6018.0,9949.0,1385.0,0.416,0.639,0.094,0.64
7821721,6332.0,8791.0,1415.0,0.402,0.643,0.082,0.647
7821737,7030.0,8121.0,1135.0,0.387,0.646,0.071,0.654
7821754,6696.0,8951.0,1635.0,0.373,0.649,0.063,0.66
7821781,6686.0,9013.0,1587.0,0.361,0.651,0.055,0.665
7821797,6768.0,9229.0,1523.0,0.349,0.654,0.048,0.67
7821813,6710.0,8129.0,1645.0,0.34,0.655,0.041,0.673
7821829,7156.0,8527.0,1391.0,0.332,0.657,0.037,0.676
7821845,6504.0,9071.0,1875.0,0.325,0.658,0.033,0.679
7821861,6304.0,8991.0,1665.0,0.32,0.659,0.03,0.68
7821887,6194.0,8219.0,1793.0,0.318,0.659,0.028,0.681
7821903,6208.0,8243.0,1589.0,0.317,0.66,0.026,0.681
7821919,5814.0,8783.0,1755.0,0.318,0.66,0.026,0.68
7821935,5646.0,8449.0,2031.0,0.321,0.66,0.025,0.679
7821951,5740.0,7889.0,1927.0,0.326,0.66,0.025,0.677
