timestamp,ax,ay,az,q0,q1,q2,q3
1191824,12334.0,3476.0,2540.0,0.38,0.579,-0.281,0.664
1191840,11934.0,2342.0,2512.0,0.359,0.59,-0.288,0.664
1191857,11808.0,2646.0,2338.0,0.338,0.599,-0.293,0.664
1191884,11440.0,2300.0,2814.0,0.319,0.607,-0.298,0.664
1191900,10724.0,1704.0,2976.0,0.3,0.616,-0.303,0.663
1191916,10600.0,2604.0,2474.0,0.28,0.624,-0.306,0.662
1191933,10688.0,3480.0,2096.0,0.262,0.631,-0.311,0.66
1191950,10392.0,2854.0,2392.0,0.246,0.637,-0.317,0.658
1191967,10014.0,1732.0,2774.0,0.231,0.643,-0.322,0.655
1191983,9600.0,1954.0,2824.0,0.217,0.649,-0.325,0.653
1191999,9656.0,3284.0,2470.0,0.205,0.654,-0.328,0.65
1192025,9714.0,3104.0,2574.0,0.195,0.658,-0.332,0.648
1192042,9102.0,1908.0,3004.0,0.187,0.661,-0.334,0.645
1192059,8976.0,2412.0,2868.0,0.181,0.665,-0.336,0.642
1192075,9080.0,3272.0,2790.0,0.177,0.668,-0.337,0.639
1192091,8968.0,3038.0,2864.0,0.176,0.67,-0.338,0.637
1192107,8756.0,2424.0,2980.0,0.177,0.671,-0.339,0.635
1192123,8690.0,2490.0,2828.0,0.18,0.671,-0.339,0.634
1192149,8734.0,4176.0,2390.0,0.185,0.671,-0.339,0.633
1192165,8972.0,3708.0,3010.0,0.194,0.668,-0.342,0.632
1192181,8386.0,2332.0,3336.0,0.204,0.664,-0.345,0.631
1192197,9032.0,2134.0,3284.0,0.215,0.661,-0.346,0.631
1192213,9688.0,2778.0,2930.0,0.226,0.656,-0.346,0.631
1192229,11020.0,2524.0,2736.0,0.239,0.651,-0.344,0.633
1192255,11394.0,2484.0,3150.0,0.255,0.644,-0.339,0.636
1192271,12126.0,1768.0,3324.0,0.273,0.637,-0.333,0.639
1192287,13258.0,2606.0,3258.0,0.292,0.63,-0.324,0.643
1192303,13818.0,4666.0,3150.0,0.314,0.62,-0.314,0.647
1192319,14296.0,3310.0,3326.0,0.338,0.607,-0.305,0.651
1192335,14608.0,1410.0,3310.0,0.363,0.595,-0.294,0.654
1192361,14980.0,3162.0,3470.0,0.388,0.582,-0.281,0.657
1192377,15388.0,3312.0,3238.0,0.414,0.567,-0.268,0.659
1192393,15390.0,2014.0,3408.0,0.441,0.551,-0.254,0.661
1192409,15136.0,2032.0,3630.0,0.467,0.535,-0.239,0.663
1192425,14842.0,2202.0,3544.0,0.491,0.519,-0.222,0.664
1192441,14646.0,3290.0,3362.0,0.515,0.501,-0.204,0.665
1192467,14338.0,3178.0,2914.0,0.538,0.483,-0.187,0.665
1192483,14206.0,2674.0,3138.0,0.561,0.464,-0.17,0.665
1192499,13494.0,2386.0,3178.0,0.582,0.444,-0.152,0.664
1192515,12864.0,4306.0,2922.0,0.602,0.425,-0.136,0.662
1192531,12912.0,2654.0,2840.0,0.623,0.404,-0.122,0.659
1192547,11836.0,1734.0,2398.0,0.643,0.383,-0.106,0.655
1192573,10636.0,1704.0,2296.0,0.661,0.362,-0.09,0.651
1192590,8910.0,2350.0,2702.0,0.679,0.342,-0.074,0.646
1192606,7722.0,2506.0,2598.0,0.694,0.322,-0.062,0.641
1192622,6884.0,1566.0,3070.0,0.708,0.303,-0.052,0.636
1192638,6712.0,308.0,2610.0,0.72,0.286,-0.041,0.631
1192655,5838.0,610.0,2788.0,0.731,0.27,-0.03,0.626
1192673,4776.0,-882.0,1414.0,0.74,0.255,-0.018,0.622
1192690,3252.0,1622.0,2350.0,0.748,0.241,-0.008,0.618
1192707,2956.0,1022.0,2766.0,0.755,0.227,0.0,0.615
1192733,2986.0,438.0,2714.0,0.761,0.215,0.007,0.612
1192749,3296.0,1210.0,2518.0,0.765,0.204,0.013,0.611
1192766,3218.0,330.0,2478.0,0.769,0.192,0.019,0.61
1192783,2494.0,-310.0,2034.0,0.772,0.18,0.026,0.61
1192799,2280.0,212.0,1738.0,0.774,0.17,0.034,0.609
1192815,1864.0,522.0,1386.0,0.777,0.157,0.041,0.608
1192831,642.0,-1078.0,1568.0,0.78,0.145,0.049,0.607
1192857,-522.0,-1550.0,1348.0,0.783,0.135,0.057,0.604
1192874,-886.0,-944.0,1074.0,0.786,0.126,0.065,0.602
1192890,-1758.0,-1728.0,860.0,0.788,0.119,0.072,0.6
1192906,-2594.0,-1070.0,470.0,0.79,0.114,0.078,0.598
1192922,-3038.0,-906.0,932.0,0.791,0.11,0.082,0.597
1192938,-3222.0,-1732.0,916.0,0.791,0.109,0.082,0.597
1192954,-2984.0,-2630.0,1236.0,0.79,0.112,0.081,0.597
1192980,-2522.0,-1394.0,1224.0,0.789,0.118,0.077,0.598
1192996,-1718.0,-2016.0,1308.0,0.788,0.126,0.071,0.599
1193012,-1208.0,-2242.0,1400.0,0.786,0.137,0.065,0.6
1193028,-382.0,-686.0,1680.0,0.783,0.15,0.057,0.601
1193044,418.0,-28.0,1876.0,0.78,0.164,0.048,0.602
1193060,624.0,-968.0,2390.0,0.777,0.178,0.039,0.603
1193086,1302.0,172.0,2478.0,0.772,0.195,0.028,0.604
1193102,2362.0,950.0,2598.0,0.767,0.212,0.016,0.606
1193118,3102.0,1254.0,2676.0,0.76,0.229,0.002,0.608
1193134,4022.0,1438.0,2326.0,0.753,0.247,-0.013,0.61
1193150,4978.0,1432.0,3336.0,0.745,0.264,-0.028,0.612
1193166,5230.0,1046.0,3366.0,0.736,0.284,-0.044,0.613
1193192,6436.0,1856.0,3218.0,0.725,0.305,-0.06,0.614
1193208,8138.0,2866.0,3582.0,0.714,0.326,-0.075,0.615
1193224,8034.0,2168.0,3974.0,0.702,0.347,-0.089,0.615
1193240,8518.0,926.0,4214.0,0.689,0.369,-0.102,0.615
1193256,9000.0,3236.0,3878.0,0.674,0.393,-0.113,0.615
1193272,10580.0,4604.0,3522.0,0.658,0.415,-0.123,0.616
1193298,10672.0,5174.0,2890.0,0.642,0.434,-0.132,0.618
1193314,10534.0,4296.0,3150.0,0.626,0.45,-0.143,0.621
1193330,10594.0,3534.0,4196.0,0.609,0.465,-0.154,0.624
1193346,10652.0,3878.0,3542.0,0.59,0.483,-0.164,0.625
1193362,11606.0,6222.0,2206.0,0.571,0.5,-0.175,0.628
1193388,12498.0,6316.0,1410.0,0.552,0.512,-0.188,0.631
1193404,12778.0,4064.0,2140.0,0.535,0.521,-0.202,0.634
1193420,12070.0,1854.0,2576.0,0.517,0.531,-0.213,0.636
1193436,12026.0,2730.0,3214.0,0.497,0.545,-0.221,0.638
1193452,11852.0,3708.0,2346.0,0.476,0.561,-0.229,0.638
1193468,12956.0,4514.0,934.0,0.454,0.575,-0.238,0.638
1193494,13054.0,3338.0,1944.0,0.433,0.587,-0.247,0.639
1193510,11272.0,2714.0,2266.0,0.411,0.597,-0.257,0.64
1193526,10052.0,2002.0,2064.0,0.387,0.609,-0.266,0.64
1193542,11714.0,3284.0,1950.0,0.36,0.622,-0.275,0.639
1193558,12428.0,2804.0,1024.0,0.335,0.633,-0.285,0.637
1193574,11982.0,1310.0,516.0,0.311,0.642,-0.294,0.636
1193600,11898.0,3156.0,920.0,0.289,0.65,-0.302,0.635
1193616,11582.0,4540.0,2932.0,0.268,0.656,-0.311,0.634
1193632,11392.0,2876.0,3030.0,0.249,0.662,-0.321,0.63
1193648,11802.0,3042.0,2366.0,0.23,0.669,-0.33,0.625
1193664,11410.0,2612.0,1540.0,0.215,0.674,-0.337,0.621
1193681,11084.0,1936.0,2458.0,0.201,0.679,-0.343,0.617
1193707,10926.0,3822.0,2662.0,0.19,0.684,-0.347,0.613
1193723,10676.0,3750.0,3102.0,0.181,0.687,-0.352,0.609
1193739,9944.0,3192.0,2544.0,0.175,0.691,-0.355,0.605
1193755,9726.0,3144.0,3058.0,0.171,0.694,-0.357,0.601
1193771,9686.0,3800.0,3322.0,0.169,0.697,-0.359,0.598
1193787,9780.0,4058.0,2732.0,0.17,0.699,-0.36,0.594
1193803,10010.0,3696.0,2732.0,0.174,0.7,-0.361,0.592
1193829,9772.0,2716.0,2822.0,0.181,0.699,-0.36,0.59
1193845,10160.0,3384.0,2722.0,0.19,0.698,-0.358,0.59
1193861,10758.0,3880.0,2588.0,0.202,0.696,-0.355,0.591
1193878,11030.0,3712.0,2560.0,0.216,0.691,-0.351,0.594
1193894,11242.0,2920.0,2766.0,0.233,0.685,-0.346,0.597
1193920,11614.0,2986.0,2806.0,0.251,0.678,-0.339,0.602
1193936,12626.0,3366.0,2522.0,0.271,0.67,-0.331,0.607
1193952,13544.0,3762.0,2314.0,0.294,0.659,-0.321,0.613
1193968,13996.0,4006.0,2580.0,0.318,0.647,-0.31,0.619
1193984,14900.0,5368.0,2358.0,0.345,0.633,-0.3,0.625
1194000,15178.0,3326.0,2370.0,0.373,0.617,-0.29,0.629
1194016,16178.0,3548.0,2122.0,0.402,0.601,-0.277,0.633
1194042,16544.0,3392.0,1802.0,0.431,0.583,-0.263,0.637
1194058,16238.0,3338.0,1400.0,0.461,0.563,-0.246,0.64
1194074,15668.0,3724.0,1784.0,0.491,0.542,-0.229,0.642
1194090,15318.0,3512.0,1786.0,0.52,0.521,-0.211,0.644
1194106,14418.0,3072.0,1834.0,0.547,0.499,-0.194,0.643
1194132,13726.0,3388.0,1474.0,0.574,0.477,-0.176,0.642
1194149,12672.0,4008.0,1502.0,0.599,0.454,-0.16,0.64
1194166,12158.0,2686.0,1992.0,0.622,0.43,-0.146,0.638
1194182,11354.0,1852.0,1838.0,0.643,0.408,-0.131,0.634
1194198,10636.0,3290.0,1842.0,0.663,0.387,-0.116,0.631
1194214,9530.0,2278.0,1892.0,0.681,0.364,-0.102,0.627
1194230,8562.0,1392.0,2310.0,0.696,0.344,-0.09,0.623
1194256,8256.0,2424.0,2142.0,0.71,0.326,-0.078,0.619
1194272,7648.0,1960.0,2254.0,0.722,0.308,-0.067,0.615
1194288,6922.0,858.0,2518.0,0.734,0.29,-0.057,0.612
1194304,5966.0,672.0,2424.0,0.744,0.274,-0.044,0.608
1194321,5148.0,1834.0,2410.0,0.752,0.259,-0.031,0.605
1194337,4470.0,2088.0,2070.0,0.76,0.244,-0.02,0.602
1194353,4464.0,938.0,2170.0,0.767,0.229,-0.011,0.599
1194370,3852.0,48.0,2646.0,0.774,0.215,-0.002,0.596
1194396,2916.0,202.0,2450.0,0.779,0.202,0.008,0.593
1194412,2458.0,1244.0,2130.0,0.784,0.19,0.017,0.59
1194428,2036.0,2140.0,2152.0,0.789,0.177,0.024,0.588
1194445,1228.0,-266.0,2560.0,0.793,0.163,0.029,0.586
1194462,466.0,-2204.0,2768.0,0.797,0.152,0.034,0.583
1194479,-188.0,-1326.0,2042.0,0.801,0.146,0.041,0.579
1194496,118.0,-512.0,1432.0,0.805,0.14,0.048,0.574
1194514,-832.0,-634.0,1368.0,0.809,0.133,0.054,0.57
1194531,-1516.0,-2760.0,2008.0,0.813,0.127,0.059,0.565
1194548,-2356.0,-2932.0,1526.0,0.816,0.126,0.066,0.56
1194564,-1832.0,-124.0,1450.0,0.818,0.127,0.072,0.556
1194591,-3156.0,-20.0,1124.0,0.82,0.127,0.076,0.554
1194607,-3364.0,-1406.0,2256.0,0.82,0.127,0.076,0.552
1194623,-3522.0,-2326.0,2210.0,0.82,0.132,0.074,0.551
1194639,-2458.0,-2080.0,3020.0,0.82,0.141,0.07,0.551
1194655,-1790.0,382.0,1974.0,0.818,0.151,0.064,0.552
1194671,-1156.0,96.0,2114.0,0.815,0.16,0.055,0.554
1194697,-96.0,-1716.0,2792.0,0.813,0.17,0.045,0.555
1194713,610.0,-1500.0,2708.0,0.809,0.185,0.037,0.557
1194729,1688.0,572.0,2186.0,0.805,0.201,0.029,0.558
1194746,2592.0,2324.0,2228.0,0.801,0.215,0.021,0.559
1194762,2820.0,750.0,2126.0,0.796,0.228,0.012,0.56
1194778,3998.0,72.0,2686.0,0.792,0.241,0.003,0.561
1194805,3818.0,430.0,2884.0,0.786,0.257,-0.005,0.562
1194822,4242.0,2388.0,2686.0,0.779,0.275,-0.012,0.564
1194838,4422.0,4292.0,2276.0,0.77,0.291,-0.021,0.567
1194855,4396.0,3100.0,2862.0,0.761,0.305,-0.033,0.572
1194871,4990.0,596.0,3324.0,0.75,0.323,-0.046,0.576
1194887,6040.0,916.0,3168.0,0.737,0.345,-0.057,0.579
1194903,6356.0,3644.0,2690.0,0.721,0.37,-0.068,0.582
1194920,7260.0,7096.0,2236.0,0.703,0.393,-0.082,0.587
1194936,8506.0,6248.0,3004.0,0.685,0.412,-0.1,0.592
1194962,9546.0,2722.0,3618.0,0.667,0.431,-0.118,0.596
1194978,10496.0,2362.0,3630.0,0.646,0.453,-0.133,0.599
1194995,11476.0,5424.0,3436.0,0.624,0.476,-0.145,0.602
1195012,11946.0,5324.0,4102.0,0.603,0.497,-0.158,0.604
1195029,11884.0,4062.0,3886.0,0.581,0.519,-0.168,0.604
1195046,13118.0,4656.0,3668.0,0.558,0.54,-0.176,0.605
1195062,13262.0,4934.0,3336.0,0.536,0.56,-0.182,0.606
1195079,13132.0,5838.0,2746.0,0.514,0.576,-0.186,0.608
1195095,12830.0,5590.0,3186.0,0.492,0.591,-0.188,0.611
1195122,13160.0,5374.0,3564.0,0.471,0.603,-0.189,0.616
1195138,12496.0,5034.0,2872.0,0.45,0.613,-0.189,0.621
1195154,12438.0,5612.0,2752.0,0.431,0.623,-0.189,0.625
1195171,11362.0,5152.0,2576.0,0.412,0.631,-0.19,0.629
1195188,11522.0,5048.0,2176.0,0.393,0.639,-0.191,0.633
1195204,11978.0,4316.0,1582.0,0.375,0.645,-0.192,0.637
1195220,11286.0,4052.0,1510.0,0.357,0.651,-0.192,0.642
1195246,10814.0,4984.0,1328.0,0.34,0.656,-0.192,0.646
1195262,9944.0,5096.0,1676.0,0.324,0.66,-0.193,0.65
1195279,9294.0,4160.0,1428.0,0.308,0.664,-0.195,0.653
1195296,9334.0,3958.0,1450.0,0.293,0.668,-0.198,0.655
1195313,9036.0,3172.0,1084.0,0.278,0.672,-0.201,0.656
1195329,8828.0,3436.0,1262.0,0.264,0.676,-0.204,0.657
1195346,8514.0,4392.0,1010.0,0.251,0.68,-0.207,0.658
1195362,8276.0,3774.0,1076.0,0.238,0.683,-0.212,0.657
1195389,7888.0,2852.0,864.0,0.228,0.686,-0.216,0.656
1195405,8296.0,2520.0,1378.0,0.218,0.689,-0.22,0.655
1195421,8704.0,3314.0,822.0,0.208,0.693,-0.223,0.653
1195438,9024.0,4434.0,798.0,0.199,0.696,-0.226,0.652
1195454,8784.0,4586.0,1232.0,0.193,0.697,-0.23,0.651
1195471,8262.0,3956.0,1692.0,0.188,0.699,-0.235,0.649
1195488,8652.0,3796.0,1616.0,0.185,0.7,-0.239,0.647
1195504,9282.0,4548.0,1498.0,0.184,0.701,-0.244,0.644
1195520,9312.0,4434.0,1446.0,0.186,0.7,-0.248,0.643
1195547,9446.0,3900.0,1570.0,0.19,0.698,-0.253,0.642
1195563,9622.0,3502.0,1308.0,0.196,0.693,-0.256,0.644
1195580,9606.0,3718.0,2212.0,0.204,0.687,-0.259,0.647
1195597,10100.0,4876.0,2728.0,0.214,0.679,-0.262,0.652
1195614,9538.0,4498.0,3120.0,0.227,0.669,-0.266,0.656
1195630,9680.0,2756.0,3860.0,0.241,0.658,-0.27,0.661
1195646,9846.0,2560.0,3522.0,0.256,0.647,-0.271,0.665
1195662,10090.0,3726.0,3702.0,0.273,0.636,-0.273,0.668
1195688,11734.0,3940.0,4506.0,0.291,0.625,-0.273,0.671
1195705,12498.0,3842.0,3962.0,0.311,0.612,-0.273,0.674
1195721,12830.0,3914.0,3820.0,0.333,0.599,-0.272,0.676
1195738,13164.0,2560.0,4332.0,0.357,0.584,-0.271,0.677
1195754,13412.0,1532.0,4506.0,0.381,0.569,-0.267,0.678
1195770,13734.0,2694.0,3832.0,0.405,0.555,-0.259,0.679
1195786,14292.0,4430.0,4906.0,0.431,0.539,-0.249,0.679
1195812,14030.0,2970.0,4448.0,0.458,0.522,-0.24,0.678
1195828,14050.0,2400.0,4104.0,0.485,0.505,-0.228,0.677
1195845,13702.0,3616.0,3682.0,0.511,0.487,-0.215,0.675
1195861,12786.0,2534.0,4224.0,0.538,0.467,-0.202,0.672
1195877,12428.0,2768.0,4154.0,0.562,0.45,-0.188,0.668
1195893,11966.0,3204.0,3970.0,0.585,0.433,-0.174,0.663
1195919,11616.0,3836.0,3504.0,0.607,0.415,-0.161,0.658
1195935,10476.0,3292.0,3092.0,0.628,0.397,-0.148,0.653
1195951,9250.0,4656.0,2958.0,0.648,0.378,-0.138,0.647
1195967,9248.0,3626.0,3704.0,0.666,0.357,-0.131,0.641
1195983,9036.0,624.0,3400.0,0.683,0.337,-0.123,0.636
1195999,7816.0,1452.0,2954.0,0.697,0.32,-0.112,0.631
1196025,7258.0,2050.0,3196.0,0.711,0.303,-0.102,0.627
1196041,6910.0,1198.0,3384.0,0.722,0.287,-0.092,0.622
1196057,6162.0,1248.0,3710.0,0.733,0.271,-0.08,0.618
1196073,5628.0,760.0,3850.0,0.743,0.256,-0.068,0.614
1196089,5208.0,1406.0,3480.0,0.752,0.243,-0.055,0.611
1196105,4192.0,2620.0,4306.0,0.759,0.23,-0.044,0.607
1196131,4092.0,2018.0,4826.0,0.766,0.216,-0.036,0.604
1196148,3756.0,776.0,4936.0,0.772,0.203,-0.029,0.602
1196165,4420.0,214.0,4798.0,0.776,0.193,-0.022,0.6
1196181,3150.0,2172.0,2820.0,0.779,0.185,-0.012,0.599
1196197,3390.0,3664.0,3242.0,0.782,0.175,-0.005,0.599
1196213,2776.0,1082.0,4042.0,0.784,0.16,-0.001,0.599
1196229,1646.0,-1620.0,3528.0,0.787,0.146,0.005,0.6
1196255,1964.0,-2174.0,3050.0,0.789,0.135,0.013,0.599
1196271,2108.0,-1576.0,1906.0,0.791,0.126,0.025,0.598
1196287,1716.0,-942.0,1190.0,0.794,0.116,0.039,0.596
1196303,276.0,-670.0,354.0,0.797,0.103,0.053,0.593
1196319,-636.0,-1270.0,938.0,0.8,0.089,0.068,0.589
1196335,-2576.0,-1972.0,1358.0,0.803,0.077,0.081,0.585
1196361,-2898.0,-630.0,1870.0,0.806,0.068,0.093,0.581
1196377,-3010.0,724.0,1702.0,0.808,0.06,0.101,0.578
1196393,-3832.0,-786.0,1626.0,0.809,0.053,0.103,0.577
1196409,-3500.0,-2670.0,1714.0,0.809,0.051,0.101,0.576
1196425,-3338.0,-3558.0,1976.0,0.81,0.055,0.097,0.576
1196441,-3008.0,-3166.0,2168.0,0.81,0.066,0.092,0.575
1196467,-2630.0,-2762.0,1952.0,0.811,0.082,0.086,0.573
1196483,-1810.0,-1454.0,1486.0,0.81,0.1,0.078,0.572
1196499,-1144.0,-1140.0,1340.0,0.809,0.12,0.068,0.572
1196515,-288.0,-298.0,1102.0,0.806,0.141,0.057,0.572
1196531,968.0,1062.0,1136.0,0.802,0.161,0.044,0.573
1196557,2222.0,662.0,1840.0,0.798,0.177,0.03,0.575
1196573,2928.0,-854.0,2666.0,0.793,0.194,0.016,0.577
1196589,3152.0,-806.0,2810.0,0.788,0.213,0.004,0.578
1196605,4086.0,334.0,3146.0,0.78,0.235,-0.006,0.58
1196621,5094.0,1838.0,3366.0,0.771,0.257,-0.017,0.582
1196637,5444.0,2188.0,2778.0,0.761,0.28,-0.027,0.585
1196663,6942.0,1820.0,2380.0,0.748,0.304,-0.038,0.589
1196679,7956.0,2810.0,1616.0,0.733,0.329,-0.045,0.594
1196695,8138.0,5164.0,2000.0,0.717,0.351,-0.051,0.6
1196711,7746.0,5612.0,2374.0,0.7,0.371,-0.061,0.607
1196727,8546.0,3314.0,2990.0,0.683,0.391,-0.073,0.612
1196743,10238.0,2502.0,2862.0,0.664,0.415,-0.083,0.616
1196769,10154.0,5074.0,2034.0,0.643,0.442,-0.09,0.62
1196785,9966.0,7056.0,2106.0,0.621,0.467,-0.1,0.622
1196802,11102.0,4400.0,2704.0,0.6,0.49,-0.112,0.623
1196818,12332.0,2562.0,2498.0,0.577,0.514,-0.12,0.623
1196834,12404.0,4438.0,1026.0,0.551,0.539,-0.124,0.625
1196850,11976.0,7130.0,1280.0,0.525,0.56,-0.127,0.628
1196876,12186.0,5628.0,2772.0,0.5,0.578,-0.133,0.63
1196893,13056.0,3414.0,2560.0,0.474,0.597,-0.137,0.633
1196909,13964.0,5450.0,1676.0,0.445,0.615,-0.138,0.636
1196925,13312.0,7670.0,1612.0,0.417,0.629,-0.141,0.64
1196942,12600.0,5736.0,2232.0,0.392,0.64,-0.148,0.644
1196958,13552.0,3472.0,1984.0,0.364,0.65,-0.152,0.649
1196974,14086.0,4934.0,786.0,0.333,0.66,-0.151,0.656
1196990,13004.0,6342.0,354.0,0.302,0.667,-0.15,0.665
1197016,10762.0,4902.0,2596.0,0.273,0.671,-0.152,0.672
1197032,11352.0,2870.0,2818.0,0.246,0.678,-0.154,0.675
1197048,12136.0,5856.0,1746.0,0.218,0.686,-0.153,0.677
1197064,12330.0,7448.0,1894.0,0.194,0.693,-0.155,0.677
1197080,11418.0,5522.0,1254.0,0.173,0.697,-0.161,0.677
1197096,10586.0,4080.0,840.0,0.155,0.7,-0.168,0.677
1197122,10350.0,4000.0,952.0,0.137,0.703,-0.173,0.676
1197138,10156.0,5218.0,942.0,0.121,0.705,-0.177,0.676
1197154,9762.0,4932.0,1150.0,0.109,0.706,-0.183,0.675
1197170,9174.0,4298.0,1126.0,0.099,0.707,-0.189,0.675
1197186,9052.0,4212.0,1342.0,0.09,0.707,-0.195,0.674
1197202,8752.0,4038.0,986.0,0.084,0.707,-0.201,0.673
1197228,8690.0,3988.0,1346.0,0.078,0.706,-0.207,0.672
1197244,8410.0,4124.0,1188.0,0.076,0.706,-0.213,0.671
1197260,8580.0,4270.0,1508.0,0.075,0.705,-0.219,0.67
1197276,8810.0,3688.0,1328.0,0.077,0.704,-0.225,0.669
1197293,9000.0,3790.0,1060.0,0.082,0.702,-0.231,0.668
1197309,9264.0,4046.0,1198.0,0.088,0.7,-0.236,0.668
1197335,9088.0,3368.0,1474.0,0.098,0.697,-0.241,0.668
1197351,9508.0,3098.0,1366.0,0.11,0.695,-0.244,0.668
1197368,10030.0,4036.0,1130.0,0.124,0.691,-0.246,0.668
1197384,10186.0,4010.0,1560.0,0.142,0.686,-0.248,0.669
1197400,10334.0,3278.0,1488.0,0.16,0.68,-0.25,0.67
1197416,11304.0,3574.0,1880.0,0.181,0.674,-0.249,0.672
1197432,11628.0,3576.0,1252.0,0.204,0.666,-0.248,0.673
1197458,12380.0,4088.0,1148.0,0.23,0.656,-0.246,0.675
1197474,12812.0,4876.0,2344.0,0.259,0.645,-0.245,0.677
1197490,12672.0,2660.0,3118.0,0.289,0.632,-0.244,0.676
1197506,13262.0,2218.0,2660.0,0.317,0.621,-0.24,0.675
1197522,14358.0,3778.0,1794.0,0.346,0.609,-0.235,0.674
1197548,14564.0,4166.0,1082.0,0.377,0.594,-0.229,0.672
1197564,14318.0,3010.0,2280.0,0.409,0.577,-0.223,0.671
1197580,13600.0,1254.0,2730.0,0.44,0.559,-0.215,0.669
1197596,13424.0,2348.0,2564.0,0.469,0.542,-0.205,0.666
1197612,13168.0,3268.0,2368.0,0.496,0.525,-0.195,0.663
1197628,12922.0,3926.0,2066.0,0.523,0.507,-0.184,0.66
1197644,12256.0,3266.0,2514.0,0.55,0.486,-0.176,0.656
1197670,11492.0,1744.0,2798.0,0.574,0.466,-0.166,0.652
1197687,10996.0,1798.0,2928.0,0.597,0.447,-0.156,0.648
1197703,10800.0,2304.0,2284.0,0.617,0.429,-0.145,0.643
1197719,9960.0,3694.0,2556.0,0.637,0.41,-0.134,0.639
1197735,9276.0,2678.0,2994.0,0.655,0.39,-0.125,0.635
1197751,8882.0,1038.0,2946.0,0.672,0.371,-0.116,0.63
1197778,8290.0,1632.0,2988.0,0.687,0.355,-0.106,0.625
1197794,7102.0,2086.0,3020.0,0.701,0.338,-0.096,0.62
1197811,5512.0,2404.0,4050.0,0.714,0.322,-0.087,0.616
1197828,5134.0,2390.0,4744.0,0.724,0.309,-0.082,0.611
1197844,5150.0,2188.0,4672.0,0.735,0.297,-0.08,0.605
1197861,4558.0,2194.0,3286.0,0.744,0.285,-0.08,0.599
1197878,5150.0,2018.0,2256.0,0.753,0.271,-0.081,0.594
1197894,5582.0,632.0,2636.0,0.761,0.257,-0.081,0.591
1197910,4422.0,918.0,2498.0,0.768,0.243,-0.077,0.588
1197937,3720.0,506.0,2574.0,0.773,0.229,-0.072,0.586
1197953,3644.0,414.0,2232.0,0.779,0.216,-0.066,0.585
1197970,3308.0,-756.0,2596.0,0.785,0.202,-0.059,0.583
1197987,2164.0,-2660.0,2670.0,0.79,0.191,-0.048,0.581
1198004,1406.0,-1350.0,2106.0,0.795,0.183,-0.035,0.578
1198021,870.0,504.0,1272.0,0.8,0.175,-0.022,0.573
1198038,250.0,856.0,906.0,0.806,0.165,-0.01,0.569
1198054,-828.0,-806.0,1540.0,0.811,0.152,-0.001,0.564
1198071,-1836.0,-2384.0,2194.0,0.817,0.141,0.007,0.559
1198088,-1926.0,-2078.0,3648.0,0.822,0.135,0.013,0.553
1198104,-1820.0,48.0,2390.0,0.825,0.134,0.016,0.549
1198130,-1182.0,1430.0,1884.0,0.827,0.132,0.017,0.546
1198147,-796.0,160.0,2132.0,0.829,0.129,0.015,0.545
1198163,-1394.0,-1850.0,2568.0,0.829,0.127,0.013,0.545
1198180,-1264.0,-2974.0,2836.0,0.828,0.131,0.01,0.544
1198197,-584.0,-1708.0,2768.0,0.827,0.14,0.006,0.544
1198214,-88.0,-1070.0,2620.0,0.826,0.152,0.002,0.543
1198230,136.0,-342.0,2454.0,0.824,0.167,-0.002,0.542
1198246,876.0,1002.0,2270.0,0.821,0.182,-0.008,0.542
1198272,1746.0,1418.0,2706.0,0.817,0.196,-0.016,0.541
1198288,1824.0,-318.0,3032.0,0.813,0.211,-0.025,0.542
1198304,2398.0,1116.0,3112.0,0.808,0.228,-0.034,0.542
1198320,3052.0,1000.0,3376.0,0.802,0.246,-0.043,0.542
1198336,3910.0,2080.0,3212.0,0.795,0.265,-0.053,0.543
1198362,4786.0,2122.0,2826.0,0.787,0.284,-0.064,0.544
1198378,5414.0,1016.0,3320.0,0.778,0.302,-0.074,0.546
1198394,5634.0,2858.0,3276.0,0.767,0.322,-0.083,0.548
1198410,6404.0,3796.0,3794.0,0.756,0.342,-0.093,0.551
1198426,6878.0,2732.0,3758.0,0.743,0.361,-0.104,0.554
1198442,7664.0,1844.0,3912.0,0.729,0.382,-0.114,0.556
1198458,8136.0,3044.0,3708.0,0.714,0.404,-0.122,0.559
1198485,8064.0,3654.0,2938.0,0.697,0.426,-0.128,0.563
1198501,8410.0,5412.0,2496.0,0.678,0.446,-0.135,0.568
1198517,8962.0,5726.0,2882.0,0.66,0.464,-0.145,0.573
1198533,9642.0,3836.0,3206.0,0.641,0.481,-0.155,0.578
1198549,10246.0,3380.0,2680.0,0.62,0.498,-0.163,0.583
1198565,10522.0,4792.0,2380.0,0.599,0.516,-0.169,0.589
1198591,11158.0,5550.0,2682.0,0.577,0.533,-0.175,0.594
1198608,11368.0,5064.0,2386.0,0.554,0.549,-0.182,0.599
1198624,11602.0,5082.0,2006.0,0.532,0.564,-0.188,0.603
1198640,11520.0,5018.0,2066.0,0.509,0.578,-0.194,0.608
1198656,11532.0,4666.0,1738.0,0.486,0.591,-0.2,0.612
1198672,11780.0,4588.0,1104.0,0.463,0.604,-0.205,0.616
1198698,11778.0,4956.0,1356.0,0.439,0.616,-0.209,0.62
1198714,11496.0,4670.0,1104.0,0.417,0.626,-0.214,0.624
1198730,11188.0,4692.0,1038.0,0.394,0.635,-0.219,0.628
1198747,11372.0,3772.0,660.0,0.371,0.643,-0.223,0.631
1198764,11642.0,3990.0,548.0,0.349,0.65,-0.227,0.635
1198780,11038.0,4330.0,816.0,0.327,0.656,-0.232,0.639
1198797,10754.0,4068.0,982.0,0.306,0.662,-0.237,0.642
1198813,10712.0,3086.0,574.0,0.285,0.667,-0.243,0.644
1198830,10720.0,2928.0,514.0,0.265,0.672,-0.248,0.645
1198856,10432.0,3372.0,588.0,0.245,0.677,-0.253,0.646
1198872,10302.0,3164.0,716.0,0.227,0.681,-0.258,0.646
1198888,10112.0,2308.0,606.0,0.21,0.685,-0.263,0.646
1198904,10238.0,2624.0,682.0,0.193,0.689,-0.265,0.646
1198920,10112.0,3462.0,752.0,0.178,0.691,-0.268,0.647
1198946,9782.0,4020.0,1300.0,0.165,0.693,-0.271,0.647
1198963,9394.0,3232.0,1422.0,0.154,0.694,-0.275,0.647
1198980,9038.0,2498.0,1688.0,0.145,0.696,-0.279,0.646
1198997,9370.0,3062.0,1338.0,0.136,0.697,-0.282,0.646
1199014,9692.0,3264.0,1156.0,0.129,0.697,-0.284,0.646
1199030,9756.0,3242.0,1130.0,0.125,0.696,-0.287,0.646
1199046,9312.0,2670.0,2358.0,0.123,0.695,-0.289,0.647
1199062,8496.0,2070.0,2648.0,0.123,0.694,-0.29,0.647
1199079,8748.0,2510.0,2612.0,0.124,0.695,-0.29,0.646
1199105,8942.0,2986.0,2316.0,0.128,0.696,-0.289,0.644
1199121,8982.0,2760.0,2328.0,0.135,0.697,-0.289,0.643
1199137,8848.0,2762.0,2002.0,0.143,0.696,-0.288,0.642
1199154,9126.0,3174.0,2128.0,0.152,0.695,-0.286,0.642
1199170,9350.0,2908.0,2142.0,0.164,0.692,-0.285,0.642
1199186,9588.0,2580.0,1914.0,0.178,0.689,-0.282,0.644
1199203,10108.0,3048.0,1754.0,0.194,0.684,-0.278,0.646
1199220,10512.0,3202.0,2252.0,0.212,0.677,-0.274,0.649
1199247,10710.0,2988.0,2312.0,0.23,0.67,-0.269,0.653
1199264,11360.0,3806.0,2362.0,0.25,0.662,-0.263,0.656
1199280,11644.0,4062.0,2448.0,0.272,0.654,-0.257,0.658
1199297,12626.0,4016.0,2102.0,0.295,0.645,-0.25,0.659
1199314,13038.0,4424.0,1890.0,0.319,0.635,-0.244,0.66
1199330,13626.0,4586.0,2330.0,0.345,0.623,-0.237,0.661
1199347,14374.0,3804.0,1886.0,0.371,0.611,-0.229,0.661
1199363,14344.0,2998.0,2406.0,0.397,0.598,-0.219,0.661
1199380,14564.0,3998.0,1104.0,0.422,0.584,-0.205,0.663
1199399,13808.0,5090.0,1872.0,0.448,0.569,-0.191,0.663
1199416,13844.0,4556.0,1758.0,0.475,0.551,-0.178,0.662
1199433,13454.0,4056.0,2298.0,0.502,0.532,-0.165,0.661
1199460,13028.0,3394.0,2184.0,0.528,0.514,-0.152,0.659
1199476,12126.0,3636.0,2048.0,0.553,0.495,-0.139,0.656
1199492,11634.0,3160.0,2512.0,0.576,0.476,-0.126,0.652
1199509,10548.0,3420.0,2878.0,0.599,0.458,-0.113,0.647
1199526,9774.0,3056.0,3462.0,0.62,0.441,-0.102,0.641
1199542,8846.0,2890.0,3180.0,0.639,0.426,-0.09,0.635
1199558,8560.0,3682.0,2962.0,0.656,0.411,-0.08,0.628
1199574,7994.0,4032.0,2766.0,0.673,0.395,-0.071,0.621
1199600,7684.0,2622.0,3286.0,0.688,0.379,-0.064,0.615
1199620,6734.0,2040.0,3636.0,0.702,0.364,-0.056,0.61
1199636,6122.0,2200.0,2828.0,0.714,0.349,-0.047,0.605
1199652,6010.0,2964.0,2280.0,0.726,0.335,-0.039,0.6
1199668,5558.0,2220.0,2956.0,0.736,0.318,-0.031,0.596
1199684,4634.0,1102.0,3520.0,0.746,0.303,-0.023,0.593
1199700,3742.0,1120.0,3586.0,0.754,0.289,-0.014,0.59
1199716,3700.0,1922.0,2914.0,0.76,0.277,-0.005,0.588
1199742,3976.0,2378.0,3412.0,0.766,0.263,0.003,0.586
1199758,2924.0,1530.0,3748.0,0.772,0.248,0.012,0.585
1199774,1496.0,110.0,2788.0,0.777,0.234,0.021,0.584
1199790,2062.0,-62.0,3012.0,0.781,0.222,0.03,0.582
1199806,2090.0,-350.0,2544.0,0.785,0.211,0.041,0.581
1199822,1726.0,592.0,1896.0,0.789,0.2,0.053,0.578
1199848,944.0,870.0,1626.0,0.793,0.189,0.065,0.576
1199864,242.0,208.0,1440.0,0.797,0.177,0.075,0.573
1199880,-426.0,-1174.0,1452.0,0.8,0.165,0.085,0.57
1199896,-1362.0,-2080.0,1272.0,0.804,0.157,0.095,0.566
1199912,-1496.0,-562.0,1678.0,0.806,0.152,0.104,0.562
1199930,-1830.0,968.0,1644.0,0.808,0.148,0.11,0.559
1199946,-1972.0,1194.0,1748.0,0.81,0.143,0.112,0.557
1199972,-2306.0,-302.0,1980.0,0.812,0.14,0.111,0.556
1199988,-2604.0,-1556.0,2174.0,0.813,0.141,0.107,0.555
1200004,-2686.0,-2454.0,2728.0,0.813,0.147,0.101,0.555
1200020,-2094.0,-1246.0,2454.0,0.812,0.158,0.094,0.554
1200036,-1436.0,-758.0,2176.0,0.81,0.171,0.085,0.554
1200052,-572.0,606.0,1838.0,0.808,0.187,0.074,0.555
1200078,376.0,1162.0,1810.0,0.804,0.201,0.062,0.556
1200094,1224.0,856.0,1914.0,0.8,0.214,0.048,0.559
1200110,1670.0,96.0,2660.0,0.795,0.228,0.033,0.562
1200126,2354.0,538.0,3298.0,0.789,0.242,0.019,0.565
1200143,3140.0,512.0,3280.0,0.782,0.259,0.004,0.568
1200159,3998.0,2074.0,3042.0,0.773,0.276,-0.01,0.571
1200175,4558.0,2766.0,3660.0,0.765,0.292,-0.026,0.574
1200201,4944.0,2648.0,3936.0,0.755,0.309,-0.043,0.577
1200217,5548.0,2444.0,4048.0,0.744,0.326,-0.06,0.581
1200233,6348.0,1110.0,4344.0,0.731,0.344,-0.078,0.584
1200249,6726.0,1348.0,4466.0,0.716,0.364,-0.093,0.588
1200265,7250.0,3066.0,3408.0,0.7,0.385,-0.107,0.592
1200291,8876.0,3538.0,3294.0,0.683,0.406,-0.121,0.595
1200307,9372.0,2214.0,3030.0,0.665,0.425,-0.134,0.599
1200323,9728.0,2792.0,2836.0,0.646,0.445,-0.144,0.604
1200339,10102.0,3438.0,3988.0,0.626,0.463,-0.154,0.608
1200355,9826.0,3872.0,3104.0,0.605,0.481,-0.163,0.613
1200371,10754.0,5186.0,2360.0,0.583,0.499,-0.172,0.618
1200397,11550.0,4988.0,2154.0,0.562,0.512,-0.183,0.623
1200413,11590.0,4450.0,2190.0,0.541,0.524,-0.194,0.629
1200429,12046.0,3226.0,2696.0,0.52,0.535,-0.205,0.634
1200445,11640.0,3494.0,2480.0,0.498,0.546,-0.214,0.639
1200461,11994.0,4848.0,3088.0,0.475,0.557,-0.224,0.644
1200477,11792.0,3024.0,2378.0,0.452,0.567,-0.235,0.647
1200503,12136.0,2378.0,1822.0,0.428,0.578,-0.245,0.65
1200519,12224.0,3190.0,1564.0,0.404,0.59,-0.254,0.652
1200535,12066.0,3254.0,1786.0,0.379,0.601,-0.265,0.652
1200552,12026.0,3048.0,1732.0,0.355,0.612,-0.276,0.651
1200568,11894.0,2026.0,1594.0,0.33,0.623,-0.287,0.649
1200584,12128.0,1258.0,60.0,0.304,0.635,-0.297,0.645
1200600,12708.0,2442.0,-714.0,0.279,0.646,-0.305,0.642
1200626,12552.0,2448.0,-634.0,0.257,0.654,-0.313,0.639
1200642,11804.0,1826.0,138.0,0.237,0.66,-0.32,0.637
1200658,11416.0,1374.0,424.0,0.218,0.666,-0.326,0.635
1200674,11410.0,1988.0,454.0,0.2,0.671,-0.331,0.632
1200690,11198.0,2750.0,596.0,0.183,0.676,-0.336,0.63
1200716,10726.0,1844.0,420.0,0.168,0.679,-0.342,0.627
1200732,10364.0,1926.0,410.0,0.155,0.683,-0.347,0.624
1200748,9892.0,2138.0,898.0,0.144,0.685,-0.352,0.621
1200764,9428.0,1718.0,1880.0,0.134,0.688,-0.357,0.617
1200780,9282.0,1232.0,1490.0,0.125,0.692,-0.361,0.613
1200796,9218.0,2224.0,834.0,0.117,0.696,-0.363,0.608
1200822,9308.0,3010.0,1048.0,0.112,0.699,-0.366,0.604
1200838,9146.0,2464.0,1512.0,0.11,0.701,-0.371,0.599
1200854,8862.0,1070.0,1678.0,0.11,0.703,-0.374,0.595
1200870,8998.0,1708.0,1330.0,0.11,0.705,-0.375,0.591
1200886,9318.0,2832.0,1088.0,0.112,0.707,-0.376,0.589
1200902,9508.0,2496.0,1316.0,0.118,0.706,-0.377,0.587
1200928,9624.0,1482.0,1210.0,0.126,0.705,-0.377,0.587
1200944,10032.0,1864.0,942.0,0.136,0.703,-0.376,0.588
1200961,9972.0,2222.0,776.0,0.149,0.699,-0.374,0.591
1200977,10262.0,2306.0,1040.0,0.164,0.694,-0.372,0.594
1200993,10906.0,2114.0,1218.0,0.182,0.688,-0.369,0.598
1201009,11388.0,2238.0,1262.0,0.202,0.681,-0.365,0.602
1201025,11724.0,1622.0,1160.0,0.225,0.673,-0.361,0.605
1201051,12426.0,664.0,946.0,0.248,0.663,-0.355,0.61
1201067,12596.0,1594.0,1480.0,0.271,0.653,-0.346,0.616
1201083,13062.0,2522.0,1906.0,0.295,0.642,-0.337,0.623
1201099,12954.0,1880.0,1540.0,0.32,0.629,-0.328,0.628
1201115,12660.0,1576.0,1754.0,0.345,0.616,-0.317,0.633
1201141,13580.0,2114.0,1924.0,0.37,0.603,-0.307,0.637
1201157,13736.0,1652.0,1922.0,0.395,0.589,-0.295,0.64
1201173,13468.0,2356.0,1818.0,0.419,0.575,-0.282,0.644
1201189,13154.0,3368.0,2234.0,0.444,0.559,-0.271,0.646
1201205,13378.0,2024.0,1894.0,0.468,0.543,-0.259,0.647
1201221,13564.0,2460.0,1802.0,0.492,0.527,-0.246,0.648
1201237,13040.0,3114.0,1976.0,0.515,0.509,-0.233,0.649
1201263,12260.0,2256.0,2960.0,0.539,0.491,-0.221,0.648
1201279,12072.0,1578.0,2926.0,0.56,0.474,-0.208,0.647
1201295,11250.0,2988.0,2536.0,0.58,0.458,-0.194,0.645
1201311,10724.0,3390.0,3062.0,0.599,0.442,-0.182,0.643
1201327,10432.0,1956.0,2628.0,0.617,0.426,-0.17,0.64
1201353,10234.0,2434.0,2232.0,0.634,0.409,-0.156,0.637
1201369,8634.0,3022.0,2446.0,0.651,0.391,-0.143,0.635
1201385,8040.0,1876.0,3016.0,0.666,0.373,-0.132,0.632
1201401,6324.0,784.0,2972.0,0.681,0.355,-0.12,0.629
1201417,5910.0,1150.0,3152.0,0.695,0.339,-0.11,0.625
1201433,5480.0,1514.0,3098.0,0.707,0.323,-0.1,0.622
1201459,5448.0,3110.0,3540.0,0.717,0.307,-0.092,0.619
1201475,5518.0,3156.0,2578.0,0.726,0.291,-0.086,0.617
1201491,5094.0,1394.0,3010.0,0.735,0.272,-0.08,0.616
1201507,4572.0,186.0,3384.0,0.742,0.255,-0.074,0.616
1201523,4000.0,-626.0,3606.0,0.748,0.24,-0.066,0.616
1201539,3784.0,-934.0,4040.0,0.752,0.228,-0.056,0.615
1201565,3112.0,562.0,4002.0,0.756,0.22,-0.044,0.614
1201581,2474.0,1252.0,3746.0,0.76,0.213,-0.033,0.613
1201597,2320.0,866.0,3674.0,0.764,0.206,-0.023,0.611
1201613,1724.0,944.0,3014.0,0.767,0.2,-0.012,0.609
1201629,1382.0,1400.0,2268.0,0.77,0.194,-0.003,0.607
1201655,1252.0,1714.0,2332.0,0.774,0.186,0.006,0.605
1201671,1000.0,1184.0,2660.0,0.778,0.178,0.013,0.602
1201687,1184.0,246.0,2396.0,0.783,0.169,0.019,0.599
1201703,616.0,-162.0,1738.0,0.788,0.16,0.025,0.594
1201719,988.0,-654.0,1902.0,0.794,0.151,0.031,0.589
1201735,-572.0,-4298.0,2306.0,0.799,0.142,0.041,0.583
1201761,-1424.0,-3954.0,2834.0,0.803,0.14,0.053,0.577
1201777,-2752.0,-2062.0,2294.0,0.806,0.143,0.067,0.571
1201793,-2420.0,496.0,1794.0,0.807,0.15,0.078,0.565
1201809,-2390.0,4356.0,720.0,0.808,0.156,0.085,0.562
1201825,-2418.0,2712.0,806.0,0.809,0.157,0.083,0.561
1201841,-2120.0,738.0,1894.0,0.808,0.155,0.076,0.563
1201857,-1840.0,-2204.0,3480.0,0.807,0.157,0.066,0.565
1201874,-1390.0,-4010.0,3950.0,0.805,0.168,0.057,0.567
1201901,-1498.0,-3052.0,3074.0,0.8,0.188,0.05,0.567
1201917,-190.0,208.0,1812.0,0.794,0.213,0.041,0.568
1201933,1424.0,2756.0,1238.0,0.786,0.236,0.031,0.571
1201949,2684.0,4052.0,1514.0,0.777,0.254,0.017,0.575
1201965,3260.0,2682.0,1816.0,0.768,0.269,0.0,0.581
1201991,3904.0,1928.0,2888.0,0.758,0.282,-0.016,0.588
1202007,4524.0,1566.0,3406.0,0.747,0.296,-0.031,0.594
1202023,5214.0,1836.0,3696.0,0.735,0.312,-0.047,0.6
1202039,6054.0,2872.0,3766.0,0.722,0.33,-0.063,0.605
1202055,7278.0,2484.0,3130.0,0.708,0.348,-0.08,0.609
1202071,8092.0,3134.0,3120.0,0.693,0.366,-0.095,0.614
1202087,8324.0,4124.0,3298.0,0.678,0.383,-0.111,0.618
1202113,8314.0,4344.0,3648.0,0.663,0.399,-0.129,0.621
1202129,8566.0,3076.0,4360.0,0.647,0.415,-0.148,0.623
1202145,9118.0,2726.0,4118.0,0.628,0.434,-0.166,0.624
1202162,10388.0,4508.0,3146.0,0.608,0.453,-0.184,0.625
1202179,9814.0,2764.0,1268.0,0.589,0.47,-0.203,0.625
1202195,10726.0,790.0,2002.0,0.569,0.485,-0.221,0.626
1202212,12936.0,1624.0,2540.0,0.547,0.501,-0.234,0.628
1202238,14044.0,5038.0,2288.0,0.524,0.516,-0.244,0.632
1202254,12594.0,5812.0,1190.0,0.504,0.526,-0.257,0.635
1202270,11704.0,2350.0,3382.0,0.485,0.534,-0.273,0.636
1202286,13150.0,378.0,3744.0,0.464,0.545,-0.287,0.637
1202302,13762.0,1458.0,2512.0,0.441,0.558,-0.297,0.637
1202318,14072.0,3958.0,1584.0,0.417,0.57,-0.306,0.638
1202344,13232.0,3406.0,802.0,0.396,0.579,-0.317,0.638
1202360,12886.0,2308.0,2118.0,0.376,0.587,-0.329,0.637
1202376,12836.0,976.0,2554.0,0.356,0.595,-0.341,0.634
1202392,12748.0,362.0,2570.0,0.335,0.605,-0.351,0.632
1202408,12592.0,672.0,1286.0,0.313,0.615,-0.358,0.629
1202424,11896.0,1526.0,852.0,0.29,0.623,-0.365,0.628
1202441,11810.0,1858.0,1132.0,0.269,0.631,-0.372,0.625
1202467,11852.0,1426.0,1608.0,0.249,0.638,-0.38,0.622
1202483,11436.0,526.0,1484.0,0.23,0.645,-0.387,0.618
1202499,10548.0,-106.0,740.0,0.211,0.651,-0.393,0.614
1202515,9720.0,-456.0,1090.0,0.194,0.658,-0.397,0.61
1202531,10358.0,176.0,1452.0,0.177,0.664,-0.4,0.606
1202547,10338.0,1038.0,934.0,0.162,0.67,-0.402,0.603
1202573,10016.0,1230.0,870.0,0.149,0.674,-0.404,0.6
1202589,9628.0,866.0,912.0,0.139,0.678,-0.406,0.596
1202605,8392.0,690.0,286.0,0.132,0.681,-0.409,0.593
1202621,8530.0,434.0,772.0,0.127,0.684,-0.412,0.589
1202637,8766.0,18.0,1372.0,0.124,0.686,-0.415,0.584
1202663,8942.0,-76.0,1076.0,0.121,0.689,-0.416,0.581
1202679,8826.0,384.0,734.0,0.119,0.691,-0.416,0.58
1202695,8724.0,1450.0,378.0,0.118,0.692,-0.415,0.579
1202711,8368.0,1772.0,422.0,0.12,0.692,-0.416,0.577
1202727,8568.0,858.0,432.0,0.124,0.692,-0.417,0.576
1202743,8844.0,-90.0,644.0,0.13,0.691,-0.419,0.575
1202759,8996.0,498.0,678.0,0.135,0.69,-0.418,0.575
1202785,9302.0,1930.0,632.0,0.142,0.689,-0.418,0.575
1202801,9520.0,1248.0,1082.0,0.151,0.686,-0.418,0.576
1202817,9516.0,64.0,1146.0,0.161,0.684,-0.418,0.577
1202833,10004.0,1038.0,1158.0,0.17,0.681,-0.415,0.578
1202849,10778.0,2296.0,900.0,0.181,0.679,-0.412,0.58
1202876,10834.0,3148.0,646.0,0.194,0.676,-0.409,0.581
1202892,12026.0,2092.0,1322.0,0.213,0.673,-0.408,0.579
1202908,12044.0,-1396.0,538.0,0.233,0.672,-0.403,0.577
1202924,12002.0,44.0,1170.0,0.25,0.669,-0.395,0.578
1202940,13480.0,2258.0,248.0,0.269,0.665,-0.384,0.581
1202956,12952.0,3964.0,-892.0,0.29,0.658,-0.374,0.586
1202972,12582.0,3934.0,-1070.0,0.315,0.647,-0.367,0.59
1202998,13602.0,2016.0,-112.0,0.341,0.632,-0.361,0.594
1203014,14058.0,164.0,656.0,0.368,0.617,-0.353,0.6
1203030,13716.0,216.0,176.0,0.393,0.602,-0.342,0.605
1203046,14082.0,1220.0,-432.0,0.419,0.586,-0.328,0.611
1203062,13646.0,1322.0,-158.0,0.444,0.569,-0.313,0.617
1203078,13592.0,2126.0,248.0,0.47,0.551,-0.297,0.623
1203104,13178.0,2442.0,1978.0,0.494,0.533,-0.28,0.627
1203120,13416.0,2586.0,2114.0,0.518,0.516,-0.263,0.63
1203136,12996.0,2930.0,1904.0,0.54,0.499,-0.246,0.631
1203152,12184.0,1932.0,1596.0,0.562,0.482,-0.231,0.631
1203168,11428.0,1214.0,2098.0,0.582,0.465,-0.216,0.631
1203184,11028.0,2690.0,2872.0,0.601,0.449,-0.201,0.63
1203210,10784.0,2480.0,3120.0,0.617,0.435,-0.187,0.628
1203226,10400.0,3586.0,2202.0,0.633,0.422,-0.173,0.626
1203242,10162.0,3654.0,1274.0,0.648,0.406,-0.161,0.624
1203258,9364.0,2518.0,1652.0,0.663,0.388,-0.15,0.623
1203274,8638.0,242.0,3098.0,0.677,0.369,-0.138,0.621
1203300,7432.0,184.0,2900.0,0.689,0.355,-0.125,0.619
1203316,6896.0,1760.0,2528.0,0.701,0.342,-0.111,0.616
1203333,6266.0,2428.0,1736.0,0.711,0.328,-0.096,0.614
1203349,5712.0,3286.0,2392.0,0.722,0.313,-0.082,0.612
1203365,5418.0,1864.0,2876.0,0.732,0.296,-0.069,0.61
1203381,4386.0,100.0,3102.0,0.741,0.28,-0.056,0.608
1203397,3458.0,-426.0,3660.0,0.749,0.267,-0.042,0.605
1203423,3654.0,630.0,3486.0,0.756,0.257,-0.029,0.602
1203439,3294.0,1674.0,2650.0,0.762,0.247,-0.016,0.598
1203455,2740.0,2706.0,2126.0,0.768,0.235,-0.004,0.595
1203471,2008.0,1640.0,1792.0,0.774,0.221,0.006,0.593
1203487,1854.0,296.0,2180.0,0.78,0.207,0.016,0.591
1203503,1140.0,880.0,2028.0,0.784,0.195,0.027,0.589
1203529,620.0,1206.0,2366.0,0.788,0.182,0.037,0.588
1203545,772.0,-398.0,2504.0,0.791,0.169,0.047,0.586
1203561,758.0,-1268.0,2234.0,0.793,0.159,0.057,0.585
1203577,-284.0,944.0,386.0,0.796,0.149,0.068,0.583
1203593,-1126.0,1446.0,-756.0,0.797,0.137,0.077,0.583
1203609,-1506.0,-808.0,1006.0,0.799,0.122,0.085,0.583
1203635,-2972.0,-5012.0,1992.0,0.799,0.11,0.092,0.583
1203651,-2844.0,-3858.0,2384.0,0.8,0.109,0.101,0.581
1203667,-1798.0,2514.0,3148.0,0.801,0.113,0.107,0.578
1203683,-2826.0,3124.0,2298.0,0.803,0.116,0.107,0.575
1203699,-3408.0,-1192.0,1856.0,0.804,0.121,0.101,0.573
1203716,-2284.0,-1482.0,2318.0,0.804,0.131,0.092,0.572
1203742,-546.0,80.0,2620.0,0.804,0.143,0.081,0.571
1203758,396.0,270.0,2360.0,0.803,0.158,0.069,0.571
1203774,-276.0,-808.0,1510.0,0.801,0.174,0.056,0.57
1203790,-70.0,-1462.0,1256.0,0.798,0.192,0.044,0.57
1203806,2172.0,306.0,3298.0,0.793,0.211,0.032,0.571
1203822,3406.0,1408.0,3964.0,0.787,0.231,0.021,0.571
1203848,3494.0,1364.0,3056.0,0.781,0.251,0.011,0.572
1203864,4260.0,2494.0,2472.0,0.773,0.271,0.0,0.574
1203880,4884.0,2876.0,2808.0,0.764,0.29,-0.011,0.576
1203896,5736.0,2230.0,3306.0,0.754,0.309,-0.024,0.579
1203913,5842.0,2740.0,3454.0,0.743,0.329,-0.036,0.582
1203929,6322.0,3798.0,3494.0,0.73,0.35,-0.049,0.585
1203955,6920.0,4312.0,3400.0,0.715,0.371,-0.065,0.589
1203971,8208.0,3864.0,3142.0,0.699,0.391,-0.081,0.593
1203987,9294.0,3170.0,3090.0,0.682,0.411,-0.096,0.598
1204003,9808.0,4570.0,2652.0,0.663,0.431,-0.11,0.602
1204019,10012.0,4970.0,3152.0,0.644,0.449,-0.125,0.607
1204035,10388.0,3510.0,3396.0,0.623,0.468,-0.14,0.611
1204061,11616.0,4934.0,2778.0,0.6,0.488,-0.152,0.615
1204077,12124.0,5008.0,2804.0,0.578,0.506,-0.165,0.619
1204093,11166.0,3268.0,2260.0,0.555,0.523,-0.178,0.622
1204109,12520.0,4024.0,2682.0,0.53,0.541,-0.189,0.625
1204125,12208.0,4856.0,2560.0,0.505,0.558,-0.2,0.627
1204141,12360.0,5180.0,2128.0,0.48,0.575,-0.211,0.628
1204158,11864.0,4030.0,2118.0,0.454,0.59,-0.224,0.629
1204184,12800.0,2966.0,1514.0,0.428,0.604,-0.236,0.629
1204200,13486.0,3858.0,1098.0,0.403,0.618,-0.246,0.629
1204217,13022.0,2822.0,1080.0,0.379,0.629,-0.256,0.629
1204233,12946.0,2492.0,1058.0,0.355,0.639,-0.264,0.629
1204249,12960.0,2324.0,928.0,0.332,0.648,-0.27,0.63
1204265,13084.0,4184.0,980.0,0.31,0.657,-0.275,0.63
1204291,12732.0,3278.0,996.0,0.29,0.664,-0.281,0.63
1204307,11738.0,2532.0,1088.0,0.271,0.669,-0.287,0.629
1204323,11478.0,2228.0,908.0,0.253,0.675,-0.292,0.629
1204339,11262.0,2236.0,682.0,0.236,0.68,-0.297,0.628
1204355,10830.0,2708.0,636.0,0.219,0.684,-0.301,0.628
1204371,10280.0,2602.0,876.0,0.203,0.687,-0.306,0.627
1204397,9794.0,1844.0,1518.0,0.19,0.69,-0.31,0.626
1204413,9548.0,2156.0,1286.0,0.176,0.693,-0.315,0.624
1204429,9796.0,3150.0,1070.0,0.163,0.696,-0.319,0.622
1204445,9718.0,3640.0,824.0,0.153,0.698,-0.325,0.62
1204461,9588.0,1800.0,860.0,0.145,0.7,-0.33,0.617
1204477,9832.0,2374.0,896.0,0.138,0.702,-0.334,0.614
1204503,9500.0,3474.0,1598.0,0.133,0.703,-0.337,0.612
1204519,9146.0,3482.0,2084.0,0.131,0.704,-0.341,0.609
1204535,9076.0,3162.0,1698.0,0.131,0.706,-0.344,0.605
1204551,9152.0,2714.0,1734.0,0.133,0.708,-0.347,0.6
1204567,9168.0,3274.0,1814.0,0.137,0.71,-0.348,0.596
1204583,9232.0,3076.0,1546.0,0.142,0.712,-0.349,0.593
1204600,9402.0,3158.0,1542.0,0.149,0.712,-0.348,0.591
1204626,9526.0,3754.0,1500.0,0.158,0.712,-0.346,0.59
1204643,9578.0,3508.0,2046.0,0.17,0.71,-0.345,0.59
1204659,9590.0,2842.0,2726.0,0.183,0.708,-0.343,0.59
1204675,9662.0,3884.0,1948.0,0.196,0.705,-0.34,0.591
1204692,10960.0,5226.0,2722.0,0.212,0.7,-0.337,0.593
1204708,11208.0,3146.0,1764.0,0.231,0.694,-0.335,0.594
1204725,12148.0,3330.0,1876.0,0.25,0.686,-0.331,0.598
1204742,12328.0,2838.0,1814.0,0.272,0.676,-0.326,0.602
1204768,12692.0,2382.0,1292.0,0.293,0.666,-0.317,0.609
1204784,12844.0,3480.0,1450.0,0.315,0.653,-0.307,0.617
1204800,13696.0,3796.0,2338.0,0.339,0.638,-0.295,0.625
1204816,13992.0,3658.0,1704.0,0.364,0.622,-0.283,0.633
1204832,14666.0,2820.0,1918.0,0.39,0.605,-0.269,0.64
1204848,15330.0,2822.0,1848.0,0.415,0.588,-0.252,0.647
1204875,15294.0,3386.0,1536.0,0.441,0.571,-0.234,0.652
1204892,15706.0,3226.0,1128.0,0.467,0.553,-0.215,0.656
1204909,14094.0,3786.0,1928.0,0.493,0.534,-0.198,0.657
1204925,13442.0,3930.0,2148.0,0.519,0.516,-0.181,0.656
1204942,13280.0,3262.0,2154.0,0.543,0.5,-0.166,0.654
1204958,12446.0,4154.0,2038.0,0.566,0.484,-0.15,0.651
1204975,12374.0,4426.0,1656.0,0.588,0.467,-0.137,0.646
1204992,11424.0,3212.0,2130.0,0.61,0.449,-0.124,0.641
1205009,10682.0,2556.0,2656.0,0.632,0.431,-0.111,0.635
1205035,9932.0,3224.0,2310.0,0.651,0.415,-0.098,0.628
1205051,9234.0,3648.0,2044.0,0.67,0.397,-0.087,0.622
1205068,8586.0,3344.0,2526.0,0.687,0.378,-0.077,0.615
1205084,8278.0,1334.0,2796.0,0.704,0.36,-0.068,0.609
1205100,7568.0,1614.0,2458.0,0.718,0.343,-0.057,0.602
1205117,6734.0,2500.0,2296.0,0.732,0.327,-0.046,0.595
1205133,5776.0,2770.0,2458.0,0.745,0.309,-0.034,0.589
1205149,4796.0,1202.0,3010.0,0.757,0.292,-0.023,0.584
1205175,4142.0,1374.0,2688.0,0.768,0.277,-0.011,0.578
1205191,3860.0,1200.0,2768.0,0.777,0.264,0.0,0.572
1205207,3434.0,1488.0,3238.0,0.785,0.252,0.012,0.566
1205223,2346.0,1662.0,2966.0,0.792,0.24,0.023,0.561
1205239,2218.0,968.0,2460.0,0.798,0.23,0.032,0.555
1205265,2316.0,926.0,1908.0,0.805,0.22,0.042,0.55
1205281,1864.0,88.0,1774.0,0.811,0.21,0.052,0.543
1205297,994.0,520.0,2032.0,0.818,0.2,0.063,0.536
1205313,90.0,102.0,2064.0,0.824,0.19,0.072,0.528
1205329,384.0,-854.0,1478.0,0.831,0.18,0.081,0.52
1205345,-364.0,-2774.0,596.0,0.837,0.173,0.091,0.51
1205361,-466.0,-1008.0,712.0,0.842,0.168,0.103,0.502
1205387,-1220.0,1504.0,912.0,0.846,0.162,0.113,0.495
1205403,-1956.0,606.0,1208.0,0.849,0.154,0.121,0.49
1205419,-3268.0,-1968.0,1628.0,0.851,0.148,0.125,0.488
1205435,-3720.0,-3628.0,1638.0,0.852,0.148,0.127,0.486
1205451,-3078.0,-1952.0,1532.0,0.852,0.154,0.127,0.483
1205477,-2624.0,-1226.0,1468.0,0.852,0.163,0.125,0.482
1205493,-2308.0,-1706.0,1944.0,0.85,0.173,0.119,0.482
1205509,-2010.0,-1824.0,2020.0,0.848,0.188,0.112,0.483
1205525,-1034.0,-558.0,1906.0,0.843,0.207,0.103,0.485
1205541,584.0,662.0,626.0,0.838,0.226,0.092,0.488
1205558,1552.0,254.0,1464.0,0.832,0.245,0.079,0.491
1205574,2700.0,1046.0,1682.0,0.825,0.263,0.066,0.496
1205600,3814.0,1260.0,1588.0,0.817,0.282,0.053,0.501
1205616,4230.0,2152.0,1828.0,0.807,0.301,0.04,0.507
1205632,4522.0,3168.0,2236.0,0.796,0.32,0.027,0.514
1205648,5188.0,3410.0,2260.0,0.783,0.338,0.013,0.521
1205664,6034.0,3464.0,2594.0,0.77,0.357,-0.004,0.529
1205680,6190.0,3266.0,2244.0,0.755,0.376,-0.021,0.536
1205706,6932.0,3906.0,2382.0,0.739,0.396,-0.039,0.544
1205722,7800.0,4134.0,2660.0,0.722,0.416,-0.057,0.55
1205738,8130.0,3864.0,2882.0,0.703,0.436,-0.076,0.557
1205754,8924.0,3872.0,1884.0,0.682,0.457,-0.095,0.563
1205770,9300.0,3684.0,1464.0,0.66,0.477,-0.113,0.57
1205786,9944.0,3178.0,1740.0,0.635,0.497,-0.131,0.577
1205812,10594.0,3426.0,1982.0,0.609,0.517,-0.147,0.583
1205828,10470.0,3670.0,1252.0,0.579,0.538,-0.163,0.59
1205844,11956.0,4964.0,762.0,0.548,0.557,-0.179,0.597
1205860,13222.0,4920.0,566.0,0.517,0.574,-0.198,0.603
1205876,13704.0,3776.0,484.0,0.487,0.587,-0.217,0.609
1205902,14942.0,2822.0,-46.0,0.456,0.599,-0.233,0.615
1205918,15856.0,4146.0,-378.0,0.425,0.61,-0.247,0.621
1205934,15556.0,4420.0,-146.0,0.397,0.618,-0.261,0.626
1205950,15068.0,3774.0,300.0,0.37,0.624,-0.274,0.631
1205966,14912.0,3810.0,46.0,0.344,0.629,-0.289,0.634
1205982,15082.0,2798.0,-240.0,0.321,0.633,-0.303,0.636
1206008,14498.0,1104.0,206.0,0.3,0.635,-0.316,0.638
1206024,13868.0,944.0,1024.0,0.279,0.639,-0.325,0.64
1206040,13626.0,2990.0,1068.0,0.256,0.643,-0.332,0.641
1206056,13396.0,2674.0,1106.0,0.235,0.647,-0.34,0.64
1206072,12722.0,1374.0,1028.0,0.215,0.651,-0.349,0.639
1206088,12270.0,900.0,1174.0,0.195,0.655,-0.355,0.638
1206114,11908.0,1410.0,1206.0,0.176,0.658,-0.359,0.637
1206130,10988.0,1546.0,1384.0,0.158,0.662,-0.363,0.636
1206146,10460.0,2238.0,1504.0,0.141,0.665,-0.366,0.635
1206162,9896.0,1798.0,1642.0,0.127,0.668,-0.371,0.632
1206178,9474.0,922.0,1232.0,0.114,0.671,-0.374,0.63
1206194,9344.0,1132.0,1186.0,0.103,0.674,-0.376,0.627
1206220,8954.0,1184.0,1222.0,0.093,0.677,-0.378,0.625
1206236,8646.0,1082.0,1242.0,0.085,0.679,-0.377,0.624
1206252,8378.0,1404.0,1200.0,0.078,0.681,-0.375,0.624
1206268,8354.0,1864.0,1238.0,0.074,0.683,-0.374,0.624
1206284,8286.0,1706.0,1184.0,0.071,0.684,-0.372,0.624
1206300,8342.0,1662.0,1006.0,0.069,0.685,-0.37,0.624
1206326,8126.0,1506.0,1132.0,0.069,0.685,-0.368,0.625
1206343,8428.0,2112.0,888.0,0.071,0.685,-0.365,0.626
1206360,8404.0,1408.0,994.0,0.075,0.685,-0.362,0.628
1206377,8718.0,1460.0,786.0,0.081,0.685,-0.357,0.63
1206393,8936.0,2084.0,768.0,0.087,0.684,-0.352,0.633
1206410,9152.0,1860.0,1146.0,0.097,0.682,-0.348,0.636
1206427,8790.0,1790.0,1794.0,0.107,0.682,-0.342,0.638
1206443,9190.0,2556.0,1820.0,0.118,0.682,-0.335,0.64
1206460,10536.0,3326.0,1116.0,0.132,0.682,-0.329,0.64
1206487,10812.0,1634.0,1666.0,0.149,0.682,-0.323,0.639
1206503,11470.0,1414.0,1534.0,0.167,0.682,-0.314,0.639
1206519,12244.0,3892.0,920.0,0.185,0.682,-0.304,0.639
1206535,12566.0,4780.0,780.0,0.205,0.68,-0.296,0.639
1206551,12960.0,4156.0,674.0,0.229,0.675,-0.29,0.639
1206567,13640.0,2862.0,756.0,0.254,0.669,-0.284,0.639
1206584,14220.0,3178.0,754.0,0.279,0.661,-0.276,0.639
1206610,15414.0,3572.0,-556.0,0.306,0.652,-0.267,0.641
1206627,15670.0,2976.0,-120.0,0.335,0.639,-0.257,0.643
1206643,15264.0,1990.0,566.0,0.365,0.625,-0.244,0.645
1206660,15358.0,3848.0,1238.0,0.395,0.611,-0.23,0.647
1206677,15214.0,4018.0,714.0,0.425,0.595,-0.217,0.646
1206694,15758.0,6206.0,-1096.0,0.455,0.578,-0.204,0.646
1206711,14760.0,2514.0,1050.0,0.486,0.559,-0.193,0.643
1206728,14410.0,2398.0,1138.0,0.515,0.541,-0.179,0.64
1206745,14050.0,4608.0,788.0,0.543,0.523,-0.165,0.636
1206762,13724.0,3996.0,1130.0,0.57,0.502,-0.153,0.632
1206778,12612.0,1564.0,1276.0,0.596,0.482,-0.14,0.627
1206805,11978.0,3266.0,1508.0,0.62,0.462,-0.126,0.621
1206821,11340.0,3878.0,1424.0,0.644,0.441,-0.114,0.615
1206837,10938.0,2332.0,1886.0,0.666,0.42,-0.102,0.608
1206853,9930.0,1742.0,2470.0,0.687,0.399,-0.089,0.601
1206869,8810.0,2002.0,2252.0,0.705,0.38,-0.076,0.594
1206885,8082.0,2398.0,2578.0,0.721,0.362,-0.064,0.587
1206911,7022.0,2848.0,2208.0,0.736,0.344,-0.053,0.581
1206928,6692.0,2516.0,2134.0,0.749,0.326,-0.042,0.576
1206945,5762.0,1806.0,1908.0,0.761,0.307,-0.032,0.57
1206961,5092.0,1038.0,2634.0,0.773,0.288,-0.022,0.565
1206978,3726.0,552.0,2644.0,0.782,0.272,-0.011,0.56
1206995,3260.0,2244.0,2432.0,0.79,0.259,-0.002,0.556
1207012,3548.0,2162.0,2256.0,0.797,0.244,0.005,0.552
1207028,3612.0,408.0,2542.0,0.803,0.23,0.012,0.549
1207044,2870.0,-54.0,2644.0,0.809,0.217,0.021,0.547
1207061,1764.0,1188.0,2558.0,0.813,0.206,0.031,0.544
1207087,1608.0,1864.0,1878.0,0.817,0.194,0.038,0.542
1207103,1606.0,-364.0,2144.0,0.82,0.181,0.046,0.54
1207119,386.0,-1908.0,1782.0,0.824,0.169,0.056,0.538
1207135,-420.0,-1488.0,1716.0,0.826,0.16,0.067,0.536
1207151,-1446.0,-42.0,1494.0,0.828,0.152,0.078,0.534
1207167,-1436.0,1194.0,982.0,0.83,0.143,0.087,0.532
1207193,-2304.0,-686.0,1122.0,0.831,0.133,0.094,0.531
1207210,-3430.0,-2746.0,1446.0,0.832,0.125,0.1,0.531
1207227,-3178.0,-2332.0,1498.0,0.833,0.122,0.105,0.529
1207243,-2764.0,-608.0,1246.0,0.833,0.122,0.109,0.528
1207260,-3068.0,-150.0,1288.0,0.833,0.123,0.11,0.528
1207277,-3156.0,-1256.0,1862.0,0.833,0.125,0.108,0.528
1207294,-2804.0,-924.0,2054.0,0.832,0.131,0.103,0.529
1207311,-2078.0,-726.0,2314.0,0.83,0.139,0.095,0.531
1207328,-1888.0,-1210.0,2350.0,0.828,0.15,0.086,0.533
1207345,-1058.0,-714.0,2242.0,0.826,0.163,0.075,0.535
1207362,-308.0,-116.0,2054.0,0.822,0.177,0.064,0.538
1207379,954.0,1078.0,2212.0,0.818,0.192,0.051,0.54
1207405,1502.0,532.0,2270.0,0.813,0.207,0.037,0.543
1207421,1836.0,-432.0,2966.0,0.807,0.222,0.023,0.547
1207437,2676.0,474.0,3070.0,0.8,0.241,0.01,0.549
1207453,3406.0,1938.0,2456.0,0.792,0.261,-0.004,0.552
1207469,4276.0,3288.0,2404.0,0.782,0.28,-0.019,0.556
1207485,4712.0,3242.0,2276.0,0.772,0.297,-0.035,0.561
1207511,5768.0,2784.0,3330.0,0.76,0.314,-0.053,0.567
1207528,6134.0,944.0,3264.0,0.748,0.332,-0.071,0.571
1207545,6968.0,2172.0,3342.0,0.733,0.353,-0.088,0.575
1207562,7636.0,4394.0,2608.0,0.717,0.374,-0.104,0.579
1207578,9016.0,6346.0,4256.0,0.7,0.394,-0.122,0.583
1207594,7894.0,6284.0,3038.0,0.683,0.41,-0.143,0.587
1207610,8978.0,3794.0,2720.0,0.666,0.428,-0.165,0.589
1207627,11560.0,3620.0,3226.0,0.647,0.446,-0.186,0.59
1207654,12032.0,1910.0,3090.0,0.628,0.465,-0.202,0.59
1207670,12968.0,3296.0,2546.0,0.607,0.487,-0.213,0.592
1207686,12922.0,3984.0,2810.0,0.586,0.507,-0.221,0.593
1207702,12470.0,3476.0,2746.0,0.563,0.526,-0.225,0.596
1207718,12494.0,4644.0,1302.0,0.54,0.545,-0.228,0.6
1207734,13088.0,5362.0,1728.0,0.517,0.56,-0.231,0.605
1207761,12468.0,3652.0,2762.0,0.495,0.573,-0.234,0.61
1207777,12188.0,2850.0,2024.0,0.471,0.586,-0.236,0.616
1207793,12656.0,6148.0,1088.0,0.447,0.598,-0.237,0.622
1207809,12258.0,6116.0,1734.0,0.425,0.607,-0.241,0.627
1207825,11894.0,2436.0,3096.0,0.403,0.615,-0.247,0.631
1207841,12274.0,972.0,2866.0,0.379,0.627,-0.249,0.634
1207857,12380.0,4108.0,1610.0,0.353,0.639,-0.246,0.637
1207883,12438.0,5858.0,1294.0,0.329,0.65,-0.246,0.64
1207899,12512.0,5176.0,1354.0,0.307,0.657,-0.246,0.643
1207915,11864.0,3546.0,2250.0,0.286,0.664,-0.246,0.646
1207931,11314.0,2758.0,2078.0,0.266,0.671,-0.242,0.648
