timestamp,ax,ay,az,q0,q1,q2,q3
2595670,4636.0,3046.0,3312.0,0.848,0.295,-0.013,0.439
2595686,3860.0,2798.0,3118.0,0.855,0.288,-0.001,0.432
2595702,3590.0,2024.0,3564.0,0.861,0.28,0.01,0.424
2595718,3284.0,798.0,4128.0,0.866,0.273,0.02,0.417
2595734,2808.0,1378.0,3400.0,0.871,0.27,0.03,0.41
2595760,2794.0,3620.0,2726.0,0.875,0.266,0.039,0.403
2595776,2672.0,2662.0,2642.0,0.88,0.259,0.047,0.397
2595792,2402.0,512.0,3218.0,0.884,0.251,0.054,0.391
2595808,1940.0,224.0,3014.0,0.887,0.245,0.063,0.386
2595824,2274.0,1912.0,2418.0,0.891,0.238,0.071,0.38
2595840,1964.0,626.0,2410.0,0.895,0.229,0.08,0.375
2595866,468.0,-2554.0,1834.0,0.898,0.22,0.09,0.37
2595882,-1284.0,-1306.0,2088.0,0.901,0.215,0.101,0.363
2595899,-2380.0,-732.0,1024.0,0.903,0.212,0.11,0.357
2595916,-2490.0,-1626.0,1226.0,0.905,0.209,0.114,0.352
2595933,-2790.0,-2638.0,1172.0,0.907,0.208,0.116,0.347
2595949,-2418.0,-1790.0,1378.0,0.908,0.21,0.115,0.344
2595966,-2248.0,-1434.0,828.0,0.908,0.215,0.111,0.342
2595982,-1336.0,-526.0,1386.0,0.908,0.221,0.104,0.341
2595999,-1048.0,-1190.0,1168.0,0.907,0.229,0.096,0.342
2596025,-588.0,-294.0,1716.0,0.905,0.238,0.086,0.342
2596041,194.0,-352.0,2464.0,0.902,0.249,0.074,0.344
2596057,1556.0,462.0,2550.0,0.899,0.262,0.062,0.346
2596073,2052.0,1762.0,2566.0,0.895,0.275,0.048,0.349
2596089,2514.0,2454.0,3024.0,0.89,0.287,0.033,0.353
2596105,3266.0,2460.0,3104.0,0.885,0.299,0.016,0.357
2596131,4154.0,3218.0,2760.0,0.879,0.31,-0.002,0.363
2596148,4646.0,3366.0,3690.0,0.872,0.32,-0.02,0.37
2596165,5028.0,2438.0,4326.0,0.864,0.33,-0.039,0.377
2596181,5594.0,1904.0,4112.0,0.855,0.344,-0.057,0.384
2596197,6590.0,3002.0,3526.0,0.844,0.359,-0.075,0.391
2596213,6752.0,4690.0,3772.0,0.832,0.374,-0.091,0.4
2596229,7228.0,5250.0,3046.0,0.82,0.386,-0.108,0.41
2596255,8230.0,5238.0,4200.0,0.807,0.395,-0.126,0.42
2596271,7980.0,4008.0,3466.0,0.794,0.405,-0.143,0.43
2596287,8896.0,4388.0,3318.0,0.779,0.415,-0.159,0.441
2596303,9052.0,4048.0,4780.0,0.764,0.426,-0.175,0.452
2596319,9206.0,4174.0,3848.0,0.747,0.438,-0.19,0.462
2596335,10190.0,6146.0,3436.0,0.729,0.45,-0.206,0.472
2596361,10952.0,6178.0,3706.0,0.712,0.459,-0.223,0.482
2596377,10098.0,3988.0,4256.0,0.695,0.467,-0.242,0.491
2596394,10300.0,3042.0,3536.0,0.676,0.477,-0.258,0.499
2596410,12028.0,3764.0,2456.0,0.655,0.488,-0.273,0.508
2596426,12094.0,5140.0,3644.0,0.635,0.497,-0.286,0.517
2596443,11082.0,4452.0,3254.0,0.615,0.505,-0.299,0.526
2596469,11188.0,4836.0,2264.0,0.595,0.513,-0.312,0.535
2596485,11264.0,5084.0,3536.0,0.576,0.518,-0.326,0.542
2596501,11062.0,3106.0,3918.0,0.556,0.524,-0.34,0.548
2596517,11604.0,3138.0,2392.0,0.536,0.532,-0.352,0.553
2596533,12660.0,5126.0,1656.0,0.516,0.539,-0.362,0.559
2596549,12506.0,4698.0,2228.0,0.499,0.542,-0.373,0.564
2596575,10926.0,2914.0,3982.0,0.482,0.545,-0.383,0.569
2596591,10656.0,3450.0,3130.0,0.464,0.55,-0.392,0.573
2596607,11442.0,5006.0,2120.0,0.446,0.555,-0.4,0.577
2596623,11338.0,4088.0,1798.0,0.431,0.558,-0.408,0.58
2596639,10406.0,3460.0,2816.0,0.417,0.56,-0.415,0.583
2596655,9064.0,2972.0,3536.0,0.404,0.563,-0.421,0.585
2596672,9176.0,4080.0,3170.0,0.392,0.568,-0.425,0.586
2596689,8994.0,5404.0,3234.0,0.381,0.572,-0.43,0.586
2596706,8534.0,4120.0,3772.0,0.372,0.575,-0.436,0.584
2596733,8792.0,3674.0,3060.0,0.364,0.579,-0.442,0.581
2596749,9302.0,4524.0,2740.0,0.358,0.582,-0.446,0.579
2596766,9582.0,4492.0,2940.0,0.355,0.584,-0.449,0.576
2596782,9662.0,4702.0,3200.0,0.356,0.585,-0.45,0.574
2596798,9684.0,5104.0,3718.0,0.359,0.585,-0.45,0.571
2596815,10176.0,5060.0,3840.0,0.365,0.585,-0.45,0.568
2596832,10546.0,4826.0,3684.0,0.375,0.583,-0.448,0.565
2596849,10618.0,4200.0,3474.0,0.387,0.581,-0.444,0.562
2596866,10928.0,4626.0,3110.0,0.401,0.577,-0.438,0.561
2596883,11650.0,4844.0,2994.0,0.418,0.573,-0.43,0.559
2596910,11932.0,3602.0,3078.0,0.437,0.567,-0.42,0.557
2596926,12336.0,3642.0,2820.0,0.458,0.561,-0.407,0.557
2596942,12706.0,4434.0,2668.0,0.48,0.554,-0.391,0.556
2596958,12990.0,3846.0,2692.0,0.503,0.546,-0.374,0.556
2596974,13556.0,4148.0,2746.0,0.527,0.537,-0.355,0.554
2597000,13884.0,4242.0,3094.0,0.553,0.528,-0.333,0.553
2597016,14034.0,4650.0,3276.0,0.578,0.518,-0.311,0.549
2597033,14284.0,4122.0,3094.0,0.604,0.507,-0.288,0.543
2597049,14356.0,4726.0,3250.0,0.629,0.497,-0.265,0.536
2597065,13864.0,4534.0,2930.0,0.653,0.486,-0.243,0.527
2597082,13260.0,4206.0,3276.0,0.677,0.475,-0.221,0.516
2597099,12794.0,4200.0,2960.0,0.7,0.465,-0.2,0.504
2597115,12334.0,4758.0,2804.0,0.721,0.454,-0.18,0.491
2597141,11480.0,4712.0,2910.0,0.742,0.442,-0.16,0.478
2597157,10722.0,4308.0,3198.0,0.761,0.429,-0.142,0.465
2597173,10002.0,3902.0,3272.0,0.78,0.415,-0.125,0.451
2597189,9238.0,3732.0,3266.0,0.797,0.402,-0.108,0.438
2597206,7840.0,3690.0,3956.0,0.812,0.389,-0.093,0.425
2597223,6692.0,3140.0,3966.0,0.825,0.378,-0.079,0.413
2597240,7004.0,2922.0,3574.0,0.836,0.367,-0.067,0.402
2597257,6252.0,2522.0,3316.0,0.846,0.357,-0.054,0.392
2597274,6198.0,3940.0,3214.0,0.855,0.348,-0.04,0.383
2597291,5960.0,4020.0,3396.0,0.863,0.337,-0.028,0.376
2597317,5160.0,3096.0,3270.0,0.871,0.323,-0.017,0.37
2597333,4278.0,1494.0,3356.0,0.878,0.311,-0.005,0.364
2597349,4514.0,1922.0,3272.0,0.884,0.3,0.007,0.359
2597365,3972.0,2124.0,2410.0,0.889,0.289,0.019,0.355
2597381,3298.0,1586.0,2258.0,0.894,0.277,0.031,0.35
2597397,2476.0,1012.0,2256.0,0.899,0.265,0.044,0.346
2597423,1690.0,358.0,2400.0,0.903,0.254,0.056,0.342
2597439,1150.0,954.0,1542.0,0.907,0.244,0.068,0.337
2597455,1242.0,1246.0,786.0,0.91,0.232,0.079,0.333
2597471,346.0,-88.0,836.0,0.914,0.218,0.09,0.33
2597487,-888.0,-2336.0,964.0,0.918,0.206,0.1,0.325
2597504,-1688.0,-3488.0,1080.0,0.92,0.198,0.109,0.32
2597521,-2238.0,-2000.0,886.0,0.922,0.195,0.116,0.315
2597547,-2442.0,490.0,272.0,0.923,0.193,0.12,0.312
2597564,-2444.0,-200.0,-70.0,0.924,0.188,0.12,0.312
2597581,-2532.0,-2500.0,244.0,0.925,0.184,0.115,0.313
2597598,-2224.0,-3274.0,264.0,0.925,0.185,0.108,0.314
2597614,-1602.0,-1692.0,458.0,0.925,0.188,0.099,0.314
2597630,-1482.0,-1896.0,672.0,0.925,0.194,0.087,0.316
2597646,-682.0,-1428.0,992.0,0.924,0.201,0.074,0.318
2597662,34.0,-1022.0,1008.0,0.921,0.211,0.058,0.321
2597688,1170.0,-454.0,1148.0,0.919,0.221,0.041,0.325
2597704,1364.0,-642.0,1856.0,0.915,0.233,0.024,0.329
2597720,2048.0,-400.0,1818.0,0.91,0.247,0.005,0.333
2597736,3410.0,724.0,1984.0,0.903,0.263,-0.014,0.338
2597752,4220.0,2114.0,1556.0,0.896,0.279,-0.034,0.344
2597768,4698.0,1764.0,2186.0,0.887,0.294,-0.053,0.351
2597795,5152.0,1374.0,2946.0,0.877,0.31,-0.074,0.359
2597811,5974.0,1580.0,2644.0,0.865,0.329,-0.094,0.368
2597827,6360.0,3232.0,2684.0,0.85,0.349,-0.115,0.377
2597844,7840.0,3760.0,2350.0,0.834,0.368,-0.138,0.387
2597860,9038.0,2966.0,2010.0,0.818,0.385,-0.158,0.398
2597876,9892.0,4286.0,2160.0,0.8,0.402,-0.177,0.409
2597902,9868.0,4880.0,2334.0,0.782,0.417,-0.195,0.421
2597918,10574.0,4506.0,2716.0,0.762,0.431,-0.215,0.433
2597934,11578.0,3894.0,2416.0,0.741,0.446,-0.234,0.444
2597950,12640.0,5102.0,1712.0,0.718,0.461,-0.251,0.457
2597966,12874.0,5024.0,1704.0,0.696,0.473,-0.268,0.469
2597983,12032.0,4918.0,2222.0,0.674,0.485,-0.285,0.479
2598000,13044.0,2812.0,2088.0,0.649,0.499,-0.299,0.49
2598016,14312.0,5266.0,1324.0,0.622,0.514,-0.312,0.501
2598042,13656.0,5658.0,1668.0,0.597,0.526,-0.325,0.512
2598058,13106.0,4438.0,1260.0,0.571,0.537,-0.338,0.521
2598074,14084.0,5102.0,1614.0,0.546,0.548,-0.35,0.529
2598090,14076.0,3518.0,1762.0,0.521,0.558,-0.362,0.536
2598106,14568.0,3414.0,1112.0,0.496,0.567,-0.371,0.543
2598132,13590.0,4002.0,1218.0,0.471,0.576,-0.377,0.551
2598148,13114.0,5318.0,906.0,0.447,0.584,-0.383,0.559
2598164,12794.0,5630.0,1716.0,0.425,0.589,-0.39,0.566
2598180,12398.0,4200.0,2266.0,0.405,0.593,-0.399,0.57
2598196,11672.0,3422.0,1616.0,0.385,0.598,-0.406,0.574
2598212,11486.0,3788.0,1360.0,0.364,0.602,-0.413,0.578
2598238,11188.0,4454.0,944.0,0.346,0.605,-0.419,0.582
2598254,10370.0,5006.0,2354.0,0.329,0.607,-0.426,0.584
2598270,10096.0,4490.0,2364.0,0.315,0.609,-0.433,0.585
2598287,9780.0,3998.0,1980.0,0.302,0.612,-0.44,0.584
2598303,9822.0,4484.0,1892.0,0.292,0.614,-0.446,0.583
2598319,9938.0,4946.0,1894.0,0.284,0.615,-0.451,0.581
2598335,9570.0,3954.0,2230.0,0.28,0.615,-0.456,0.579
2598362,9504.0,3824.0,2038.0,0.277,0.616,-0.459,0.577
2598378,9508.0,4430.0,2320.0,0.277,0.617,-0.461,0.575
2598394,9584.0,4836.0,2214.0,0.28,0.617,-0.462,0.572
2598410,9710.0,4366.0,1994.0,0.286,0.617,-0.462,0.569
2598426,9732.0,4118.0,1700.0,0.295,0.616,-0.46,0.567
2598442,9990.0,4592.0,1894.0,0.306,0.615,-0.458,0.565
2598468,10140.0,3446.0,1880.0,0.32,0.612,-0.454,0.563
2598484,10292.0,3548.0,1942.0,0.335,0.61,-0.448,0.562
2598500,10872.0,4244.0,1812.0,0.352,0.606,-0.441,0.561
2598516,11530.0,4092.0,1500.0,0.372,0.601,-0.432,0.56
2598532,12052.0,3812.0,1892.0,0.393,0.595,-0.423,0.559
2598548,12394.0,3900.0,1754.0,0.416,0.589,-0.412,0.557
2598574,13022.0,3968.0,1734.0,0.441,0.581,-0.4,0.555
2598590,13320.0,3474.0,1684.0,0.466,0.573,-0.387,0.552
2598606,13718.0,3606.0,1648.0,0.491,0.565,-0.372,0.549
2598622,14346.0,4434.0,1530.0,0.517,0.556,-0.356,0.545
2598638,14350.0,3976.0,1464.0,0.544,0.546,-0.34,0.539
2598654,14266.0,3714.0,1618.0,0.57,0.536,-0.324,0.532
2598680,13836.0,3636.0,1620.0,0.595,0.526,-0.307,0.525
2598696,13988.0,3988.0,1374.0,0.62,0.514,-0.29,0.517
2598712,13800.0,4002.0,1274.0,0.644,0.502,-0.272,0.509
2598728,13424.0,3628.0,1470.0,0.669,0.488,-0.255,0.5
2598744,12640.0,3256.0,1702.0,0.692,0.474,-0.237,0.491
2598770,12100.0,3450.0,1858.0,0.713,0.461,-0.219,0.481
2598786,11268.0,3810.0,1796.0,0.733,0.448,-0.2,0.471
2598802,10576.0,3862.0,2064.0,0.753,0.433,-0.183,0.461
2598818,9204.0,3912.0,2346.0,0.771,0.419,-0.166,0.45
2598834,8552.0,3900.0,2872.0,0.788,0.404,-0.152,0.439
2598850,7856.0,3126.0,3316.0,0.803,0.39,-0.138,0.428
2598866,7368.0,2564.0,3242.0,0.817,0.376,-0.126,0.418
2598892,6292.0,2210.0,2074.0,0.829,0.363,-0.114,0.41
2598908,5870.0,3418.0,2648.0,0.84,0.35,-0.101,0.402
2598924,5796.0,2814.0,2446.0,0.85,0.336,-0.09,0.396
2598940,5194.0,1820.0,2366.0,0.859,0.321,-0.079,0.391
2598956,4834.0,1734.0,2532.0,0.867,0.307,-0.067,0.387
2598982,4202.0,1546.0,2910.0,0.875,0.292,-0.056,0.383
2598998,3374.0,1088.0,2658.0,0.881,0.278,-0.044,0.38
2599014,3232.0,1312.0,3154.0,0.886,0.266,-0.034,0.378
2599030,2634.0,782.0,2672.0,0.891,0.254,-0.023,0.375
2599046,2638.0,884.0,2300.0,0.895,0.244,-0.014,0.373
2599062,2044.0,-678.0,1614.0,0.899,0.235,-0.003,0.37
2599078,1668.0,1712.0,1456.0,0.902,0.228,0.009,0.368
2599104,1176.0,2424.0,978.0,0.905,0.219,0.018,0.365
2599120,480.0,174.0,884.0,0.908,0.207,0.027,0.363
2599136,-638.0,-1912.0,1136.0,0.911,0.197,0.034,0.361
2599152,-1790.0,-3554.0,1582.0,0.913,0.192,0.042,0.357
2599168,-2176.0,-1922.0,1126.0,0.914,0.194,0.047,0.353
2599184,-2226.0,594.0,268.0,0.915,0.196,0.049,0.35
2599210,-2196.0,468.0,-40.0,0.915,0.197,0.047,0.349
2599226,-2176.0,-1556.0,700.0,0.915,0.197,0.042,0.35
2599242,-1872.0,-2428.0,872.0,0.915,0.2,0.034,0.349
2599258,-1102.0,-1804.0,708.0,0.914,0.207,0.025,0.349
2599274,-856.0,-1142.0,1154.0,0.912,0.216,0.014,0.348
2599300,-570.0,-1808.0,1412.0,0.91,0.227,0.002,0.347
2599316,444.0,160.0,1608.0,0.906,0.241,-0.011,0.347
2599332,1288.0,1116.0,1498.0,0.902,0.254,-0.027,0.348
2599348,1874.0,574.0,2078.0,0.897,0.266,-0.043,0.35
2599364,2790.0,596.0,2132.0,0.891,0.28,-0.061,0.353
2599380,3678.0,1194.0,2460.0,0.883,0.295,-0.079,0.357
2599406,4786.0,1340.0,2664.0,0.874,0.31,-0.097,0.36
2599422,5724.0,2346.0,2062.0,0.864,0.327,-0.115,0.365
2599438,6710.0,3526.0,2936.0,0.853,0.343,-0.134,0.371
2599454,6912.0,3428.0,2842.0,0.84,0.358,-0.153,0.378
2599470,7894.0,3284.0,2476.0,0.826,0.373,-0.173,0.385
2599486,9106.0,3382.0,1860.0,0.812,0.387,-0.191,0.393
2599513,9102.0,4810.0,1488.0,0.796,0.4,-0.208,0.402
2599529,8660.0,5430.0,2720.0,0.781,0.41,-0.228,0.412
2599546,8340.0,3864.0,3022.0,0.764,0.42,-0.251,0.421
2599562,10402.0,3510.0,3358.0,0.744,0.432,-0.275,0.429
2599578,11504.0,3348.0,1734.0,0.722,0.444,-0.298,0.438
2599594,11952.0,3724.0,1672.0,0.701,0.455,-0.318,0.447
2599611,12332.0,2502.0,1236.0,0.679,0.466,-0.337,0.457
2599637,13216.0,1748.0,2928.0,0.657,0.477,-0.353,0.465
2599653,13244.0,1894.0,2518.0,0.633,0.491,-0.366,0.474
2599669,13314.0,4286.0,792.0,0.608,0.505,-0.377,0.483
2599685,13960.0,4870.0,448.0,0.585,0.516,-0.388,0.492
2599701,14000.0,2960.0,1776.0,0.564,0.523,-0.399,0.499
2599717,13232.0,1348.0,2198.0,0.541,0.532,-0.408,0.507
2599733,13178.0,3398.0,678.0,0.517,0.543,-0.415,0.515
2599759,13628.0,5538.0,926.0,0.495,0.551,-0.423,0.522
2599775,12778.0,3046.0,904.0,0.477,0.556,-0.432,0.526
2599791,12382.0,1126.0,1430.0,0.458,0.561,-0.44,0.531
2599807,12482.0,1536.0,372.0,0.439,0.568,-0.443,0.538
2599823,12372.0,5298.0,580.0,0.42,0.573,-0.446,0.545
2599839,11376.0,6002.0,1712.0,0.405,0.574,-0.453,0.549
2599865,9780.0,3306.0,3398.0,0.392,0.574,-0.462,0.55
2599881,10556.0,1240.0,2452.0,0.377,0.578,-0.471,0.55
2599897,11274.0,4392.0,1918.0,0.36,0.582,-0.478,0.55
2599914,10706.0,5170.0,2092.0,0.347,0.584,-0.487,0.55
2599930,10590.0,3476.0,2466.0,0.336,0.585,-0.495,0.548
2599946,10270.0,3662.0,2468.0,0.327,0.586,-0.503,0.545
2599972,10324.0,4186.0,2548.0,0.321,0.586,-0.509,0.542
2599988,10290.0,3384.0,2524.0,0.318,0.586,-0.515,0.538
2600004,10304.0,3578.0,2620.0,0.318,0.586,-0.519,0.535
2600020,10182.0,3924.0,2652.0,0.322,0.585,-0.521,0.532
2600036,10252.0,3856.0,2778.0,0.328,0.584,-0.523,0.528
2600052,10396.0,3556.0,2506.0,0.337,0.581,-0.524,0.524
2600078,10156.0,2982.0,1268.0,0.349,0.577,-0.524,0.52
2600094,10568.0,3128.0,1360.0,0.364,0.571,-0.524,0.516
2600110,10504.0,3228.0,1048.0,0.383,0.563,-0.523,0.513
2600126,10888.0,3118.0,1372.0,0.403,0.553,-0.521,0.511
2600142,11064.0,2196.0,1556.0,0.426,0.541,-0.517,0.509
2600158,11712.0,1744.0,1782.0,0.448,0.528,-0.513,0.507
2600184,12732.0,2462.0,2288.0,0.471,0.516,-0.506,0.505
2600200,13308.0,2638.0,2138.0,0.495,0.504,-0.499,0.502
2600216,13318.0,2556.0,1730.0,0.519,0.491,-0.49,0.499
2600232,14192.0,2738.0,1792.0,0.544,0.478,-0.481,0.495
2600248,14218.0,2868.0,1596.0,0.569,0.464,-0.47,0.49
2600264,14446.0,2070.0,1598.0,0.595,0.449,-0.457,0.485
2600290,14646.0,2434.0,1752.0,0.62,0.435,-0.442,0.481
2600306,14014.0,2386.0,1628.0,0.645,0.42,-0.425,0.475
2600323,13546.0,1770.0,1962.0,0.67,0.406,-0.408,0.469
2600339,12560.0,2724.0,2536.0,0.692,0.393,-0.389,0.463
2600355,12988.0,5160.0,2794.0,0.714,0.379,-0.372,0.457
2600371,13246.0,4204.0,2314.0,0.735,0.363,-0.355,0.449
2600397,11822.0,2802.0,1640.0,0.756,0.346,-0.337,0.442
2600413,11846.0,2414.0,2432.0,0.775,0.33,-0.319,0.434
2600429,11508.0,1064.0,2880.0,0.794,0.315,-0.299,0.426
2600445,10626.0,1256.0,2842.0,0.811,0.302,-0.277,0.417
2600461,9924.0,1544.0,2550.0,0.827,0.291,-0.254,0.408
2600477,8842.0,2030.0,2218.0,0.842,0.281,-0.229,0.398
2600503,7104.0,2372.0,2388.0,0.856,0.271,-0.205,0.389
2600519,6252.0,1862.0,3354.0,0.869,0.259,-0.182,0.381
2600535,6012.0,848.0,3370.0,0.88,0.248,-0.161,0.373
2600552,4976.0,606.0,3436.0,0.889,0.24,-0.139,0.365
2600568,4200.0,1850.0,2422.0,0.896,0.233,-0.119,0.359
2600584,4244.0,2306.0,2086.0,0.903,0.225,-0.101,0.353
2600610,3400.0,1272.0,1926.0,0.909,0.215,-0.085,0.348
2600626,2616.0,-82.0,1586.0,0.914,0.205,-0.07,0.344
2600642,2436.0,-240.0,1272.0,0.917,0.197,-0.055,0.342
2600658,2912.0,-24.0,1970.0,0.92,0.192,-0.038,0.339
2600674,1856.0,1738.0,1766.0,0.922,0.187,-0.021,0.337
2600690,1106.0,1660.0,1566.0,0.925,0.18,-0.006,0.336
2600716,88.0,-2162.0,2106.0,0.927,0.172,0.007,0.334
2600732,-1026.0,-3414.0,1836.0,0.928,0.169,0.019,0.332
2600749,-1496.0,-1868.0,1174.0,0.928,0.171,0.029,0.328
2600766,-1034.0,-210.0,1056.0,0.929,0.174,0.036,0.324
2600782,-1456.0,162.0,848.0,0.93,0.175,0.039,0.32
2600798,-2186.0,-22.0,1206.0,0.931,0.176,0.04,0.317
2600815,-2278.0,-1786.0,2078.0,0.932,0.177,0.035,0.314
2600831,-2212.0,-3188.0,1876.0,0.932,0.182,0.028,0.312
2600848,-1308.0,-2046.0,1810.0,0.931,0.191,0.019,0.31
2600875,-500.0,-468.0,1656.0,0.93,0.2,0.008,0.31
2600891,36.0,-854.0,1752.0,0.928,0.207,-0.005,0.31
2600907,202.0,-2608.0,2218.0,0.925,0.215,-0.018,0.312
2600924,760.0,-2154.0,1958.0,0.922,0.227,-0.032,0.313
2600940,2006.0,-338.0,2142.0,0.917,0.241,-0.046,0.316
2600956,2876.0,1714.0,2790.0,0.911,0.253,-0.06,0.319
2600972,3796.0,1236.0,3120.0,0.906,0.263,-0.076,0.324
2600998,4366.0,-2.0,3560.0,0.899,0.274,-0.093,0.328
2601015,4620.0,198.0,3672.0,0.891,0.288,-0.109,0.333
2601031,5432.0,2570.0,2846.0,0.882,0.303,-0.126,0.339
2601047,5904.0,3052.0,3106.0,0.872,0.316,-0.144,0.345
2601063,6076.0,2596.0,3098.0,0.861,0.329,-0.164,0.353
2601079,7290.0,2910.0,2850.0,0.848,0.341,-0.184,0.361
2601105,8176.0,2766.0,3166.0,0.836,0.352,-0.204,0.369
2601121,8368.0,1826.0,3180.0,0.822,0.364,-0.222,0.377
2601137,8930.0,2672.0,3414.0,0.807,0.378,-0.239,0.386
2601153,9124.0,3380.0,3642.0,0.791,0.392,-0.255,0.395
2601169,9862.0,3556.0,2960.0,0.773,0.406,-0.272,0.404
2601185,10794.0,4272.0,1734.0,0.755,0.419,-0.288,0.414
2601211,10892.0,4250.0,2694.0,0.737,0.43,-0.303,0.424
2601228,9966.0,4328.0,842.0,0.719,0.44,-0.319,0.434
2601246,11684.0,3586.0,2636.0,0.699,0.45,-0.334,0.445
2601262,12388.0,3194.0,1568.0,0.678,0.461,-0.347,0.455
2601278,12486.0,4788.0,912.0,0.657,0.471,-0.359,0.466
2601295,11570.0,5700.0,2176.0,0.637,0.479,-0.373,0.475
2601311,11422.0,2130.0,2884.0,0.615,0.487,-0.389,0.483
2601327,12784.0,1584.0,1214.0,0.59,0.5,-0.402,0.49
2601353,13636.0,4448.0,-12.0,0.566,0.511,-0.411,0.499
2601369,12570.0,5086.0,266.0,0.544,0.519,-0.421,0.507
2601385,11216.0,3848.0,1244.0,0.523,0.524,-0.433,0.514
2601401,11890.0,2004.0,1802.0,0.5,0.531,-0.445,0.519
2601417,12602.0,2446.0,826.0,0.476,0.54,-0.455,0.525
2601433,12954.0,3926.0,-96.0,0.453,0.546,-0.462,0.532
2601459,11474.0,4078.0,752.0,0.432,0.55,-0.47,0.538
2601475,11138.0,3080.0,1554.0,0.413,0.554,-0.479,0.542
2601491,11390.0,3064.0,1178.0,0.393,0.558,-0.486,0.546
2601507,11618.0,4094.0,996.0,0.375,0.562,-0.493,0.549
2601523,11014.0,3812.0,792.0,0.36,0.564,-0.499,0.551
2601539,11004.0,2888.0,1308.0,0.348,0.565,-0.504,0.553
2601565,10264.0,2464.0,1650.0,0.337,0.567,-0.508,0.554
2601581,10156.0,2852.0,1742.0,0.328,0.57,-0.51,0.555
2601598,9794.0,3988.0,1856.0,0.32,0.573,-0.511,0.555
2601615,9252.0,3938.0,2550.0,0.315,0.576,-0.513,0.553
2601631,8968.0,3704.0,2800.0,0.312,0.578,-0.515,0.55
2601647,9214.0,3998.0,2318.0,0.31,0.581,-0.518,0.546
2601664,9624.0,4658.0,2338.0,0.312,0.582,-0.52,0.542
2601680,9710.0,3498.0,2372.0,0.318,0.581,-0.522,0.537
2601707,9798.0,2646.0,2286.0,0.326,0.58,-0.522,0.534
2601723,10274.0,3578.0,2348.0,0.336,0.578,-0.52,0.532
2601739,10754.0,4290.0,2490.0,0.35,0.575,-0.516,0.53
2601755,11022.0,2958.0,2338.0,0.367,0.57,-0.511,0.529
2601772,11488.0,3352.0,1972.0,0.385,0.565,-0.503,0.528
2601788,12486.0,3896.0,1980.0,0.406,0.559,-0.494,0.529
2601814,12972.0,3940.0,2392.0,0.43,0.551,-0.483,0.528
2601830,13520.0,3322.0,2180.0,0.455,0.542,-0.47,0.527
2601846,14004.0,3774.0,2414.0,0.482,0.534,-0.456,0.524
2601862,14856.0,3916.0,1568.0,0.509,0.526,-0.44,0.521
2601878,15956.0,4074.0,1470.0,0.536,0.517,-0.422,0.517
2601894,15592.0,4462.0,1564.0,0.565,0.506,-0.404,0.512
2601920,15884.0,4012.0,1482.0,0.593,0.495,-0.385,0.505
2601936,15436.0,2450.0,1422.0,0.621,0.484,-0.365,0.498
2601952,15156.0,2304.0,1190.0,0.648,0.473,-0.343,0.489
2601968,13506.0,3136.0,1648.0,0.674,0.463,-0.32,0.479
2601984,12620.0,3724.0,1664.0,0.698,0.452,-0.299,0.468
2602000,11566.0,4090.0,1914.0,0.721,0.44,-0.28,0.457
2602026,10680.0,2862.0,2220.0,0.742,0.428,-0.263,0.445
2602042,10222.0,2786.0,2108.0,0.761,0.415,-0.246,0.434
2602058,9464.0,2596.0,2242.0,0.779,0.403,-0.23,0.422
2602074,8530.0,1794.0,2470.0,0.794,0.391,-0.214,0.412
2602090,8054.0,2392.0,2516.0,0.808,0.381,-0.198,0.403
2602106,7654.0,2954.0,1830.0,0.82,0.371,-0.183,0.395
2602132,7360.0,3310.0,2144.0,0.832,0.359,-0.167,0.388
2602148,6154.0,1880.0,2584.0,0.844,0.346,-0.152,0.381
2602164,5612.0,808.0,2800.0,0.854,0.334,-0.137,0.375
2602180,5152.0,1590.0,2824.0,0.862,0.325,-0.121,0.37
2602196,4982.0,3054.0,2620.0,0.869,0.315,-0.107,0.366
2602212,4686.0,3122.0,1958.0,0.876,0.304,-0.095,0.363
2602238,4662.0,1830.0,2384.0,0.882,0.291,-0.083,0.361
2602254,3826.0,278.0,2428.0,0.888,0.278,-0.071,0.359
2602270,3790.0,770.0,2316.0,0.893,0.268,-0.059,0.357
2602286,3428.0,1160.0,1940.0,0.897,0.258,-0.047,0.355
2602302,2638.0,1444.0,1618.0,0.902,0.248,-0.034,0.353
2602318,1906.0,1488.0,1756.0,0.906,0.236,-0.023,0.351
2602344,1176.0,-826.0,2140.0,0.91,0.223,-0.013,0.349
2602361,130.0,-2238.0,1906.0,0.913,0.216,-0.003,0.346
2602378,-332.0,130.0,1106.0,0.915,0.211,0.005,0.342
2602395,-374.0,-160.0,768.0,0.918,0.205,0.012,0.339
2602412,-1266.0,-1480.0,746.0,0.92,0.199,0.017,0.337
2602429,-2148.0,-2072.0,1086.0,0.922,0.196,0.02,0.334
2602445,-2394.0,-2028.0,1340.0,0.922,0.196,0.02,0.332
2602461,-2324.0,-1378.0,904.0,0.923,0.199,0.017,0.33
2602477,-1864.0,-1576.0,514.0,0.922,0.204,0.01,0.329
2602494,-690.0,-1310.0,342.0,0.921,0.209,0.002,0.329
2602521,64.0,-1220.0,-180.0,0.919,0.216,-0.008,0.33
2602538,878.0,-1194.0,-12.0,0.917,0.223,-0.018,0.329
2602554,1512.0,-808.0,224.0,0.915,0.231,-0.029,0.329
2602570,2034.0,-1368.0,1556.0,0.913,0.24,-0.04,0.328
2602586,1376.0,-1772.0,2112.0,0.909,0.254,-0.051,0.328
2602602,1790.0,-392.0,1898.0,0.902,0.273,-0.066,0.328
2602618,2834.0,1436.0,1462.0,0.894,0.293,-0.083,0.33
2602644,3928.0,1654.0,1626.0,0.884,0.313,-0.103,0.333
2602660,4712.0,1752.0,1762.0,0.872,0.332,-0.123,0.338
2602676,6142.0,2280.0,2228.0,0.859,0.351,-0.145,0.343
2602693,7576.0,3034.0,2330.0,0.844,0.369,-0.167,0.351
2602710,8908.0,4738.0,3086.0,0.828,0.386,-0.189,0.359
2602727,9510.0,3552.0,3538.0,0.812,0.402,-0.21,0.368
2602743,10074.0,4148.0,3284.0,0.794,0.418,-0.231,0.377
2602760,11496.0,4430.0,2930.0,0.775,0.434,-0.25,0.386
2602786,12286.0,4046.0,2916.0,0.756,0.448,-0.267,0.396
2602802,12116.0,3850.0,2248.0,0.736,0.463,-0.28,0.407
2602818,12336.0,5442.0,1394.0,0.716,0.476,-0.291,0.42
2602835,12718.0,4922.0,2428.0,0.697,0.488,-0.301,0.432
2602851,12070.0,2824.0,2644.0,0.676,0.5,-0.309,0.445
2602867,12476.0,4948.0,1726.0,0.652,0.514,-0.316,0.458
2602894,13524.0,6520.0,998.0,0.629,0.526,-0.325,0.472
2602911,13380.0,5294.0,1842.0,0.606,0.534,-0.334,0.486
2602928,12886.0,3352.0,1938.0,0.582,0.543,-0.342,0.5
2602944,13584.0,4230.0,1342.0,0.556,0.554,-0.348,0.513
2602961,14036.0,5854.0,740.0,0.53,0.563,-0.353,0.527
2602977,13258.0,5550.0,1544.0,0.506,0.569,-0.359,0.54
2602993,12504.0,4614.0,1936.0,0.481,0.575,-0.365,0.552
2603009,11912.0,4636.0,2190.0,0.456,0.582,-0.371,0.562
2603025,12388.0,5198.0,812.0,0.431,0.589,-0.378,0.57
2603052,12450.0,4346.0,1142.0,0.408,0.593,-0.384,0.578
2603068,11494.0,4900.0,1734.0,0.388,0.596,-0.389,0.585
2603084,10090.0,4770.0,1770.0,0.368,0.599,-0.394,0.592
2603100,10086.0,5082.0,2114.0,0.35,0.602,-0.399,0.597
2603116,10044.0,5810.0,1760.0,0.333,0.604,-0.404,0.601
2603132,9754.0,5624.0,2162.0,0.32,0.604,-0.41,0.604
2603158,9268.0,4574.0,1930.0,0.309,0.603,-0.415,0.607
2603174,9022.0,4758.0,2008.0,0.3,0.603,-0.419,0.609
2603190,8776.0,5818.0,2172.0,0.293,0.603,-0.422,0.61
2603206,8896.0,5816.0,1924.0,0.289,0.602,-0.426,0.611
2603222,8936.0,5390.0,1752.0,0.288,0.6,-0.429,0.61
2603238,9028.0,4690.0,1462.0,0.29,0.599,-0.431,0.61
2603264,9424.0,5204.0,1604.0,0.295,0.598,-0.43,0.609
2603280,9606.0,5834.0,1426.0,0.304,0.596,-0.428,0.608
2603296,10100.0,5412.0,1496.0,0.315,0.594,-0.424,0.606
2603313,10286.0,5300.0,1764.0,0.33,0.592,-0.419,0.605
2603329,10490.0,5692.0,2000.0,0.347,0.589,-0.413,0.602
2603345,10768.0,5764.0,2164.0,0.367,0.587,-0.406,0.597
2603371,11472.0,5724.0,1940.0,0.388,0.584,-0.399,0.591
2603387,11980.0,5698.0,1658.0,0.412,0.58,-0.391,0.584
2603403,12684.0,5408.0,2350.0,0.438,0.575,-0.382,0.576
2603419,12970.0,4746.0,2154.0,0.465,0.57,-0.372,0.567
2603435,13432.0,4430.0,2300.0,0.492,0.564,-0.359,0.557
2603451,13954.0,5862.0,2108.0,0.519,0.559,-0.345,0.547
2603477,14244.0,5830.0,1876.0,0.547,0.551,-0.331,0.536
2603494,14324.0,4710.0,2150.0,0.576,0.542,-0.316,0.524
2603510,13906.0,3652.0,2450.0,0.604,0.532,-0.3,0.511
2603526,13608.0,4256.0,2272.0,0.631,0.523,-0.282,0.499
2603543,13206.0,5188.0,2252.0,0.656,0.513,-0.265,0.486
2603560,12894.0,4870.0,2338.0,0.681,0.501,-0.248,0.473
2603576,12382.0,4370.0,2336.0,0.704,0.489,-0.231,0.461
2603592,11906.0,4014.0,2452.0,0.725,0.477,-0.214,0.448
2603619,11330.0,3938.0,2206.0,0.745,0.464,-0.197,0.436
2603635,10220.0,4202.0,2344.0,0.764,0.451,-0.181,0.424
2603651,9826.0,3524.0,2110.0,0.782,0.438,-0.165,0.412
2603667,8826.0,3588.0,2432.0,0.798,0.425,-0.149,0.4
2603683,8050.0,3664.0,2298.0,0.813,0.411,-0.134,0.389
2603700,7708.0,3098.0,2576.0,0.827,0.398,-0.121,0.379
2603726,6146.0,2656.0,2784.0,0.84,0.384,-0.108,0.369
2603742,5430.0,2418.0,2776.0,0.851,0.371,-0.096,0.359
2603759,5230.0,3246.0,2980.0,0.861,0.36,-0.085,0.35
2603775,5420.0,3180.0,2264.0,0.87,0.347,-0.076,0.342
2603792,4946.0,2102.0,2442.0,0.879,0.333,-0.066,0.335
2603808,4194.0,1702.0,2462.0,0.887,0.32,-0.056,0.329
2603824,4372.0,1482.0,2668.0,0.894,0.308,-0.046,0.323
2603840,4098.0,1264.0,2122.0,0.9,0.297,-0.035,0.317
2603866,3886.0,1160.0,1474.0,0.906,0.286,-0.022,0.312
2603883,4638.0,2616.0,290.0,0.911,0.273,-0.008,0.308
2603900,4424.0,3268.0,-464.0,0.918,0.254,0.008,0.304
2603917,2274.0,108.0,804.0,0.925,0.229,0.024,0.302
2603935,-324.0,-4042.0,2628.0,0.931,0.207,0.039,0.298
2603952,-1616.0,-4324.0,1862.0,0.935,0.195,0.053,0.291
2603968,-916.0,-692.0,704.0,0.938,0.188,0.063,0.283
2603984,-1562.0,174.0,-42.0,0.941,0.179,0.07,0.278
2604000,-2538.0,-2884.0,920.0,0.943,0.169,0.074,0.276
2604017,-3390.0,-4058.0,1542.0,0.945,0.165,0.076,0.274
2604043,-3788.0,-2170.0,1192.0,0.945,0.166,0.073,0.272
2604059,-2976.0,-1808.0,1080.0,0.945,0.169,0.065,0.273
2604076,-2186.0,-1708.0,1036.0,0.944,0.174,0.054,0.276
2604092,-828.0,-1712.0,1212.0,0.942,0.182,0.041,0.279
2604109,12.0,-180.0,1330.0,0.94,0.19,0.028,0.282
2604125,332.0,-58.0,1738.0,0.937,0.198,0.013,0.287
2604142,1172.0,748.0,2026.0,0.934,0.206,-0.004,0.292
2604158,1698.0,768.0,2458.0,0.93,0.215,-0.021,0.298
2604184,2392.0,2608.0,2616.0,0.925,0.224,-0.04,0.305
2604200,2690.0,3456.0,3310.0,0.92,0.23,-0.061,0.312
2604216,3202.0,2794.0,3926.0,0.914,0.234,-0.086,0.319
2604232,4072.0,2238.0,3904.0,0.909,0.237,-0.112,0.325
2604249,5112.0,1138.0,3658.0,0.901,0.242,-0.137,0.332
2604265,6664.0,2116.0,4276.0,0.892,0.251,-0.161,0.339
2604292,6536.0,566.0,4506.0,0.882,0.26,-0.184,0.346
2604308,7424.0,1550.0,4724.0,0.87,0.275,-0.207,0.353
2604325,8938.0,4056.0,5106.0,0.857,0.289,-0.228,0.36
2604341,9182.0,3588.0,4844.0,0.844,0.302,-0.248,0.366
2604357,9108.0,3300.0,3732.0,0.83,0.315,-0.268,0.373
2604373,9696.0,2626.0,4058.0,0.816,0.327,-0.287,0.381
2604389,10520.0,3124.0,5102.0,0.8,0.34,-0.305,0.389
2604415,10234.0,5300.0,4860.0,0.784,0.352,-0.324,0.397
2604431,11622.0,5296.0,4482.0,0.767,0.36,-0.344,0.404
2604447,10006.0,3332.0,2544.0,0.751,0.367,-0.363,0.412
2604463,10816.0,830.0,3550.0,0.733,0.376,-0.38,0.421
2604479,11372.0,4446.0,3524.0,0.714,0.387,-0.395,0.429
2604496,12234.0,5248.0,3890.0,0.697,0.393,-0.413,0.435
2604513,10440.0,1458.0,3050.0,0.681,0.397,-0.431,0.439
2604530,10246.0,-692.0,3788.0,0.661,0.406,-0.448,0.445
2604557,11374.0,3062.0,2246.0,0.638,0.418,-0.463,0.452
2604573,12112.0,4742.0,2310.0,0.617,0.425,-0.478,0.457
2604589,11568.0,2156.0,2398.0,0.597,0.431,-0.494,0.462
2604605,11416.0,1826.0,2428.0,0.577,0.436,-0.51,0.465
2604622,12230.0,3362.0,1514.0,0.556,0.442,-0.525,0.469
2604638,12488.0,2202.0,2900.0,0.537,0.446,-0.539,0.471
2604664,11242.0,-384.0,3588.0,0.519,0.45,-0.551,0.474
2604680,10776.0,606.0,3288.0,0.5,0.457,-0.56,0.477
2604697,11542.0,4762.0,2856.0,0.48,0.465,-0.569,0.48
2604713,11874.0,4140.0,3310.0,0.464,0.468,-0.58,0.479
2604729,11364.0,1220.0,3608.0,0.45,0.471,-0.59,0.477
2604746,10718.0,1238.0,3094.0,0.437,0.476,-0.597,0.475
2604763,11074.0,2518.0,2752.0,0.425,0.48,-0.603,0.473
2604780,10916.0,1826.0,3062.0,0.417,0.484,-0.608,0.471
2604797,10814.0,1504.0,3606.0,0.411,0.488,-0.61,0.47
2604814,10458.0,3210.0,3484.0,0.408,0.491,-0.611,0.469
2604831,10118.0,3264.0,2834.0,0.409,0.491,-0.612,0.467
2604858,9670.0,1164.0,3364.0,0.411,0.492,-0.611,0.465
2604874,10692.0,2176.0,3898.0,0.414,0.492,-0.609,0.464
2604890,10172.0,2496.0,3136.0,0.42,0.492,-0.606,0.463
2604906,10470.0,1988.0,2934.0,0.428,0.491,-0.602,0.462
2604922,11370.0,2852.0,2784.0,0.439,0.489,-0.596,0.462
2604938,11678.0,2492.0,3162.0,0.452,0.485,-0.589,0.462
2604964,12030.0,2404.0,2984.0,0.468,0.481,-0.58,0.462
2604980,11726.0,2328.0,2506.0,0.486,0.476,-0.57,0.462
2604996,12122.0,1868.0,2510.0,0.505,0.469,-0.558,0.462
2605012,13188.0,2866.0,3462.0,0.525,0.463,-0.544,0.462
2605028,13292.0,3466.0,3288.0,0.547,0.455,-0.529,0.462
2605044,13124.0,3252.0,3064.0,0.57,0.446,-0.513,0.461
2605070,14118.0,2278.0,3438.0,0.594,0.437,-0.497,0.458
2605086,14662.0,2474.0,2966.0,0.618,0.427,-0.478,0.455
2605102,14868.0,2640.0,2884.0,0.642,0.416,-0.458,0.452
2605118,14196.0,3098.0,2724.0,0.667,0.405,-0.436,0.448
2605134,14184.0,2306.0,2976.0,0.692,0.392,-0.413,0.444
2605150,13372.0,2260.0,2950.0,0.716,0.379,-0.389,0.439
2605176,12388.0,2060.0,2784.0,0.738,0.366,-0.365,0.433
2605193,11722.0,2678.0,3152.0,0.76,0.353,-0.34,0.427
2605210,11136.0,3260.0,3774.0,0.779,0.34,-0.317,0.421
2605226,11148.0,2750.0,4078.0,0.797,0.326,-0.294,0.414
2605242,10412.0,2948.0,3074.0,0.813,0.313,-0.273,0.408
2605259,9552.0,3154.0,2614.0,0.828,0.298,-0.253,0.401
2605275,9272.0,1062.0,3708.0,0.843,0.283,-0.233,0.395
2605301,7770.0,1446.0,3236.0,0.855,0.27,-0.213,0.389
2605317,7670.0,2550.0,3006.0,0.865,0.259,-0.194,0.383
2605333,7036.0,2386.0,2994.0,0.876,0.246,-0.175,0.377
2605349,5842.0,1416.0,3692.0,0.885,0.234,-0.156,0.371
2605365,4924.0,454.0,3738.0,0.893,0.223,-0.137,0.366
2605381,4892.0,1820.0,3628.0,0.9,0.215,-0.119,0.361
2605397,4716.0,3226.0,2394.0,0.906,0.206,-0.102,0.356
2605423,4648.0,2488.0,1998.0,0.911,0.194,-0.085,0.352
2605439,3790.0,586.0,2330.0,0.917,0.181,-0.068,0.349
2605455,2016.0,-566.0,2546.0,0.922,0.17,-0.052,0.345
2605471,1606.0,-856.0,2730.0,0.925,0.163,-0.036,0.341
2605487,812.0,308.0,2030.0,0.928,0.158,-0.022,0.337
2605513,1530.0,692.0,1576.0,0.93,0.152,-0.009,0.334
2605529,1162.0,130.0,1532.0,0.932,0.146,0.004,0.331
2605546,740.0,-1094.0,1410.0,0.934,0.14,0.018,0.327
2605563,-994.0,-838.0,982.0,0.936,0.136,0.033,0.323
2605579,-842.0,-2432.0,1922.0,0.937,0.134,0.046,0.318
2605596,-1346.0,-706.0,2816.0,0.938,0.136,0.06,0.313
2605613,-2194.0,1604.0,2112.0,0.939,0.14,0.069,0.307
2605630,-1852.0,2702.0,1158.0,0.94,0.142,0.072,0.302
2605647,-2744.0,-910.0,766.0,0.941,0.141,0.071,0.3
2605663,-2554.0,-2398.0,990.0,0.941,0.144,0.065,0.298
2605690,-2306.0,-1202.0,870.0,0.941,0.151,0.055,0.297
2605706,-1772.0,-382.0,376.0,0.941,0.158,0.042,0.296
2605722,-832.0,-868.0,732.0,0.94,0.165,0.027,0.296
2605738,-488.0,-1072.0,1448.0,0.939,0.174,0.01,0.297
2605754,-176.0,-396.0,1756.0,0.936,0.185,-0.009,0.299
2605770,742.0,84.0,1904.0,0.933,0.197,-0.03,0.301
2605796,2476.0,-158.0,2340.0,0.928,0.208,-0.051,0.304
2605812,2800.0,730.0,2792.0,0.923,0.222,-0.072,0.308
2605829,3766.0,1138.0,3134.0,0.916,0.235,-0.094,0.311
2605845,4444.0,436.0,3230.0,0.909,0.249,-0.115,0.315
2605862,5098.0,1344.0,3406.0,0.899,0.265,-0.136,0.32
2605879,5862.0,3204.0,3540.0,0.889,0.281,-0.157,0.326
2605896,6590.0,2486.0,3814.0,0.878,0.295,-0.179,0.332
2605913,7588.0,2358.0,4238.0,0.865,0.31,-0.201,0.339
2605930,8176.0,3060.0,4128.0,0.852,0.326,-0.221,0.346
2605947,8724.0,3994.0,3644.0,0.838,0.34,-0.242,0.353
2605964,9686.0,3948.0,4174.0,0.823,0.352,-0.262,0.36
2605981,9666.0,3208.0,4406.0,0.808,0.364,-0.282,0.368
2606008,9772.0,2550.0,4842.0,0.792,0.377,-0.301,0.374
2606024,10124.0,3154.0,4182.0,0.774,0.392,-0.319,0.381
2606040,11208.0,4046.0,3042.0,0.756,0.406,-0.337,0.388
2606056,11762.0,4870.0,2910.0,0.738,0.418,-0.352,0.396
2606072,11248.0,4262.0,3682.0,0.72,0.428,-0.367,0.405
2606088,10936.0,3682.0,3022.0,0.701,0.437,-0.382,0.414
2606114,11748.0,3838.0,3038.0,0.682,0.446,-0.396,0.423
2606131,12186.0,3582.0,2886.0,0.662,0.455,-0.409,0.432
2606148,12504.0,4134.0,2332.0,0.643,0.465,-0.421,0.441
2606164,12242.0,4664.0,1978.0,0.624,0.472,-0.432,0.449
2606181,12112.0,4116.0,2050.0,0.605,0.478,-0.443,0.457
2606197,11474.0,3654.0,2382.0,0.586,0.483,-0.455,0.464
2606213,11820.0,2604.0,2306.0,0.567,0.49,-0.466,0.47
2606229,11578.0,2750.0,1978.0,0.546,0.497,-0.477,0.477
2606255,11912.0,4018.0,1022.0,0.527,0.503,-0.486,0.483
2606271,11568.0,4668.0,1444.0,0.509,0.506,-0.497,0.488
2606287,10634.0,1804.0,2358.0,0.493,0.509,-0.507,0.491
2606303,10938.0,1136.0,2306.0,0.475,0.514,-0.515,0.495
2606319,11016.0,3582.0,1350.0,0.458,0.52,-0.521,0.499
2606345,10532.0,4682.0,1230.0,0.444,0.523,-0.528,0.502
2606361,9610.0,2288.0,2084.0,0.432,0.524,-0.535,0.503
2606377,9344.0,1748.0,2724.0,0.419,0.527,-0.541,0.504
2606395,9472.0,2360.0,2382.0,0.407,0.532,-0.545,0.504
2606411,9756.0,4510.0,1710.0,0.396,0.536,-0.55,0.504
2606427,9810.0,4588.0,2136.0,0.389,0.536,-0.555,0.502
2606443,9282.0,1938.0,2734.0,0.385,0.537,-0.56,0.5
2606459,9336.0,2936.0,2764.0,0.381,0.538,-0.563,0.498
2606485,9760.0,4404.0,2608.0,0.38,0.539,-0.565,0.496
2606501,9904.0,3682.0,2946.0,0.381,0.539,-0.566,0.493
2606517,9894.0,2918.0,3130.0,0.385,0.539,-0.566,0.491
2606533,10380.0,3842.0,2828.0,0.391,0.539,-0.564,0.489
2606549,10318.0,4266.0,2840.0,0.4,0.538,-0.561,0.486
2606575,10602.0,4314.0,2808.0,0.411,0.535,-0.557,0.483
2606591,11348.0,3284.0,3018.0,0.425,0.532,-0.553,0.48
2606607,11872.0,3714.0,2814.0,0.441,0.529,-0.545,0.478
2606623,12294.0,4038.0,2746.0,0.459,0.524,-0.536,0.476
2606639,12976.0,3338.0,3338.0,0.479,0.519,-0.526,0.473
2606655,13688.0,3138.0,2854.0,0.5,0.515,-0.512,0.471
2606681,14532.0,5224.0,2636.0,0.523,0.51,-0.497,0.469
2606697,14728.0,4508.0,2074.0,0.548,0.501,-0.481,0.466
2606713,14992.0,3104.0,1946.0,0.575,0.492,-0.462,0.463
2606729,15140.0,3258.0,1980.0,0.601,0.482,-0.441,0.46
2606746,14888.0,3790.0,2264.0,0.627,0.473,-0.418,0.456
2606762,14312.0,3992.0,2284.0,0.653,0.462,-0.395,0.451
2606778,13980.0,3444.0,2400.0,0.678,0.452,-0.371,0.446
2606805,13232.0,3384.0,2360.0,0.701,0.442,-0.347,0.439
2606821,12498.0,4016.0,2638.0,0.723,0.431,-0.323,0.432
2606837,11700.0,3930.0,2578.0,0.744,0.42,-0.301,0.424
2606853,11302.0,3526.0,2614.0,0.763,0.408,-0.279,0.417
2606869,10716.0,3090.0,2454.0,0.782,0.395,-0.257,0.408
2606885,10144.0,3048.0,2378.0,0.799,0.382,-0.235,0.4
2606911,9074.0,3244.0,2506.0,0.815,0.369,-0.213,0.392
2606928,8346.0,3000.0,2668.0,0.83,0.355,-0.192,0.385
2606944,7706.0,2954.0,2668.0,0.843,0.343,-0.173,0.377
2606960,7056.0,2168.0,2760.0,0.855,0.331,-0.154,0.369
2606977,5986.0,2668.0,2890.0,0.865,0.32,-0.135,0.362
2606994,5714.0,3432.0,2390.0,0.875,0.309,-0.117,0.355
2607011,5090.0,3096.0,2596.0,0.883,0.297,-0.1,0.348
2607027,4324.0,1974.0,2598.0,0.892,0.284,-0.084,0.343
2607044,3946.0,1780.0,2408.0,0.899,0.272,-0.069,0.337
2607070,3754.0,1938.0,2528.0,0.905,0.26,-0.054,0.332
2607086,3238.0,1776.0,1914.0,0.911,0.248,-0.039,0.328
2607102,2204.0,1152.0,2736.0,0.916,0.236,-0.025,0.325
2607118,1422.0,452.0,2518.0,0.92,0.226,-0.012,0.321
2607134,1370.0,668.0,2214.0,0.923,0.217,0.0,0.318
2607150,1550.0,642.0,2194.0,0.926,0.21,0.011,0.314
2607176,856.0,560.0,2222.0,0.929,0.203,0.022,0.31
2607192,124.0,-298.0,2288.0,0.931,0.197,0.031,0.305
2607208,-420.0,-762.0,2166.0,0.934,0.192,0.04,0.3
2607224,-1166.0,-832.0,1902.0,0.936,0.19,0.047,0.294
2607240,-1528.0,272.0,1464.0,0.938,0.186,0.053,0.288
2607257,-2918.0,-778.0,1812.0,0.94,0.183,0.056,0.284
2607283,-3986.0,-2304.0,2280.0,0.941,0.181,0.055,0.28
2607299,-3626.0,-1892.0,2008.0,0.942,0.184,0.049,0.277
2607315,-2078.0,-808.0,1358.0,0.942,0.189,0.042,0.275
2607331,-1596.0,-492.0,1234.0,0.941,0.193,0.034,0.275
2607347,-1094.0,-1186.0,1374.0,0.94,0.197,0.025,0.277
2607363,-876.0,-1752.0,1988.0,0.939,0.203,0.015,0.278
2607389,-716.0,-2142.0,2024.0,0.937,0.212,0.005,0.278
2607405,194.0,-190.0,1626.0,0.933,0.226,-0.005,0.279
2607421,1364.0,1458.0,1608.0,0.929,0.238,-0.018,0.282
2607437,910.0,1732.0,1852.0,0.925,0.249,-0.032,0.285
2607453,1930.0,1902.0,2638.0,0.92,0.259,-0.05,0.29
2607469,2500.0,516.0,2610.0,0.914,0.269,-0.071,0.295
2607495,3418.0,560.0,2544.0,0.907,0.28,-0.094,0.3
2607511,4890.0,1260.0,2412.0,0.898,0.294,-0.119,0.306
2607527,6170.0,2594.0,2430.0,0.887,0.308,-0.143,0.312
2607543,6340.0,3268.0,2772.0,0.876,0.321,-0.167,0.319
2607559,6800.0,2908.0,2256.0,0.863,0.333,-0.193,0.327
2607575,8348.0,1632.0,2342.0,0.849,0.345,-0.219,0.334
2607602,8678.0,2090.0,2892.0,0.834,0.359,-0.24,0.343
2607618,8104.0,3930.0,2336.0,0.817,0.374,-0.262,0.351
2607634,9408.0,4812.0,2314.0,0.8,0.387,-0.284,0.36
2607650,10430.0,3796.0,3048.0,0.782,0.398,-0.307,0.368
2607666,10828.0,2586.0,2306.0,0.763,0.41,-0.327,0.378
2607682,10784.0,4656.0,948.0,0.744,0.422,-0.344,0.388
2607708,11982.0,5560.0,2508.0,0.725,0.43,-0.362,0.399
2607724,11220.0,3896.0,4126.0,0.707,0.435,-0.38,0.408
2607741,10040.0,5112.0,4350.0,0.687,0.441,-0.398,0.418
2607757,10344.0,6194.0,2030.0,0.666,0.446,-0.419,0.427
2607774,12410.0,5110.0,1298.0,0.645,0.447,-0.441,0.436
2607790,13178.0,1910.0,2226.0,0.625,0.446,-0.461,0.445
2607807,13898.0,200.0,2182.0,0.604,0.447,-0.477,0.456
2607823,14818.0,1650.0,1572.0,0.583,0.451,-0.487,0.468
2607850,14866.0,4468.0,2112.0,0.564,0.454,-0.496,0.48
2607866,14166.0,2652.0,2710.0,0.547,0.454,-0.505,0.49
2607882,13044.0,0.0,3298.0,0.53,0.456,-0.513,0.499
2607899,12232.0,460.0,2456.0,0.51,0.461,-0.519,0.508
2607915,12300.0,2866.0,2178.0,0.489,0.468,-0.525,0.515
2607931,12262.0,3562.0,2110.0,0.47,0.474,-0.533,0.52
2607947,11320.0,1752.0,1616.0,0.451,0.478,-0.543,0.522
2607973,11358.0,368.0,2092.0,0.434,0.483,-0.552,0.523
2607989,10624.0,670.0,1700.0,0.416,0.489,-0.559,0.525
2608005,10630.0,1976.0,2076.0,0.399,0.496,-0.564,0.525
2608021,10138.0,1886.0,2742.0,0.383,0.503,-0.571,0.524
2608037,9500.0,582.0,2208.0,0.368,0.51,-0.577,0.522
2608053,9920.0,1944.0,1964.0,0.353,0.517,-0.581,0.52
2608079,10224.0,3844.0,2332.0,0.341,0.523,-0.585,0.518
2608095,9900.0,3378.0,2544.0,0.332,0.526,-0.59,0.514
2608111,9470.0,2300.0,2888.0,0.326,0.528,-0.596,0.509
2608127,9270.0,2482.0,2862.0,0.322,0.53,-0.601,0.505
2608143,10226.0,3288.0,2626.0,0.319,0.531,-0.606,0.499
2608159,10260.0,2792.0,1226.0,0.323,0.529,-0.612,0.492
2608176,10476.0,748.0,2190.0,0.33,0.526,-0.615,0.486
2608202,10676.0,1150.0,1926.0,0.338,0.523,-0.616,0.482
2608219,11102.0,1476.0,1930.0,0.349,0.521,-0.614,0.48
2608235,11788.0,1536.0,1854.0,0.362,0.518,-0.609,0.48
2608252,11956.0,1992.0,1266.0,0.377,0.514,-0.602,0.481
2608269,12174.0,2264.0,1050.0,0.395,0.509,-0.594,0.482
2608286,12580.0,1346.0,1196.0,0.416,0.503,-0.584,0.483
2608302,12820.0,976.0,2004.0,0.438,0.496,-0.572,0.485
2608319,13340.0,1220.0,2004.0,0.461,0.49,-0.557,0.487
2608336,13868.0,2448.0,1714.0,0.485,0.483,-0.54,0.489
2608362,14228.0,1926.0,1696.0,0.511,0.475,-0.522,0.49
2608378,14304.0,1898.0,2320.0,0.538,0.467,-0.502,0.491
2608396,14168.0,1404.0,2236.0,0.565,0.458,-0.481,0.489
2608413,14742.0,2508.0,2138.0,0.59,0.451,-0.46,0.487
2608429,14608.0,2858.0,1872.0,0.616,0.441,-0.438,0.483
2608445,14226.0,1582.0,3016.0,0.642,0.432,-0.415,0.478
2608461,13564.0,1630.0,4250.0,0.666,0.424,-0.392,0.472
2608487,13254.0,1400.0,3672.0,0.688,0.418,-0.368,0.465
2608503,13026.0,3916.0,2134.0,0.709,0.413,-0.344,0.457
2608519,13318.0,4552.0,2004.0,0.73,0.405,-0.321,0.447
2608535,12536.0,3142.0,1856.0,0.752,0.393,-0.298,0.438
2608552,10952.0,2150.0,2358.0,0.772,0.38,-0.274,0.429
2608569,10054.0,2304.0,2616.0,0.791,0.367,-0.249,0.421
2608585,9416.0,2798.0,2532.0,0.808,0.355,-0.225,0.413
2608602,8604.0,2454.0,2502.0,0.824,0.343,-0.201,0.404
2608619,8090.0,1864.0,2284.0,0.838,0.331,-0.178,0.396
2608645,7200.0,2398.0,2014.0,0.85,0.32,-0.156,0.388
2608661,6332.0,2206.0,2400.0,0.862,0.307,-0.134,0.38
2608677,5166.0,1788.0,1372.0,0.873,0.294,-0.114,0.373
2608694,4530.0,2532.0,2638.0,0.882,0.281,-0.095,0.366
2608710,3494.0,1126.0,3416.0,0.891,0.268,-0.079,0.358
2608726,3230.0,1018.0,2846.0,0.898,0.258,-0.065,0.351
2608752,3522.0,1748.0,2238.0,0.904,0.249,-0.052,0.343
2608768,2898.0,2080.0,1760.0,0.91,0.239,-0.04,0.337
2608785,2330.0,1478.0,1590.0,0.915,0.228,-0.029,0.332
2608802,2024.0,506.0,2074.0,0.919,0.217,-0.017,0.327
2608818,1470.0,-420.0,2262.0,0.924,0.207,-0.006,0.322
2608834,714.0,-678.0,2184.0,0.927,0.201,0.006,0.317
2608850,400.0,864.0,1816.0,0.93,0.194,0.017,0.312
2608876,484.0,740.0,1558.0,0.933,0.187,0.027,0.306
2608892,272.0,-98.0,570.0,0.936,0.18,0.037,0.301
2608908,-10.0,8.0,746.0,0.938,0.171,0.048,0.297
2608925,-1120.0,-840.0,1168.0,0.941,0.161,0.057,0.293
2608941,-2628.0,-3290.0,1444.0,0.943,0.154,0.065,0.289
2608957,-3020.0,-3336.0,1634.0,0.944,0.153,0.07,0.284
2608983,-3826.0,-2124.0,1350.0,0.945,0.157,0.071,0.279
2609000,-3494.0,-24.0,1098.0,0.944,0.163,0.068,0.278
2609016,-3870.0,-562.0,1324.0,0.944,0.168,0.06,0.279
2609032,-2240.0,-1082.0,1140.0,0.943,0.174,0.047,0.281
2609048,-1016.0,-790.0,1054.0,0.941,0.182,0.031,0.284
2609064,-80.0,-108.0,1332.0,0.939,0.19,0.014,0.286
2609080,628.0,-270.0,1852.0,0.936,0.199,-0.004,0.289
2609106,1328.0,210.0,2114.0,0.932,0.211,-0.024,0.292
2609122,2356.0,1132.0,2222.0,0.927,0.225,-0.043,0.296
2609138,3340.0,1636.0,2558.0,0.921,0.239,-0.063,0.301
2609154,4210.0,1880.0,2904.0,0.914,0.254,-0.082,0.306
2609170,4562.0,2392.0,2560.0,0.906,0.269,-0.102,0.311
2609186,5576.0,3680.0,3118.0,0.896,0.284,-0.123,0.317
2609212,5852.0,3610.0,3528.0,0.886,0.298,-0.146,0.323
2609228,5142.0,3848.0,3704.0,0.875,0.311,-0.171,0.329
2609244,6092.0,3650.0,3688.0,0.863,0.323,-0.198,0.334
2609260,7362.0,3250.0,3322.0,0.849,0.336,-0.225,0.34
2609277,9060.0,2738.0,3438.0,0.834,0.349,-0.251,0.345
2609293,10178.0,3276.0,2460.0,0.818,0.363,-0.275,0.352
2609319,10732.0,4398.0,3842.0,0.801,0.377,-0.296,0.359
2609336,10072.0,4354.0,3710.0,0.783,0.39,-0.317,0.367
2609352,11348.0,3270.0,2610.0,0.764,0.403,-0.336,0.375
2609368,11426.0,4714.0,1746.0,0.745,0.416,-0.352,0.384
2609385,11300.0,3814.0,3408.0,0.726,0.428,-0.367,0.394
2609401,11096.0,4200.0,2114.0,0.705,0.44,-0.381,0.404
2609417,12046.0,4894.0,1958.0,0.684,0.451,-0.395,0.414
2609433,12344.0,4652.0,2830.0,0.664,0.46,-0.41,0.424
2609459,11842.0,2912.0,2128.0,0.642,0.47,-0.424,0.433
2609475,12364.0,4062.0,1900.0,0.619,0.479,-0.437,0.443
2609491,12224.0,4242.0,1490.0,0.595,0.488,-0.451,0.452
2609508,12406.0,3872.0,1710.0,0.572,0.494,-0.466,0.46
2609524,12490.0,2366.0,1772.0,0.548,0.501,-0.481,0.466
2609541,13138.0,2542.0,1512.0,0.523,0.509,-0.495,0.473
2609557,13082.0,3286.0,1222.0,0.496,0.516,-0.507,0.48
2609584,11846.0,2988.0,1072.0,0.469,0.522,-0.519,0.487
2609600,10598.0,2380.0,1664.0,0.442,0.528,-0.531,0.493
2609617,11388.0,1210.0,1232.0,0.414,0.535,-0.543,0.497
2609633,11842.0,1474.0,172.0,0.386,0.543,-0.553,0.5
2609649,12102.0,824.0,-184.0,0.362,0.548,-0.563,0.502
2609666,11074.0,842.0,-1230.0,0.34,0.554,-0.569,0.504
2609682,11192.0,3058.0,218.0,0.32,0.56,-0.574,0.505
2609708,11372.0,2920.0,486.0,0.303,0.565,-0.577,0.505
2609724,10924.0,3196.0,726.0,0.29,0.57,-0.58,0.505
2609741,10098.0,3030.0,632.0,0.279,0.574,-0.582,0.504
2609757,9870.0,2798.0,804.0,0.271,0.577,-0.583,0.503
2609773,9710.0,3034.0,1098.0,0.265,0.58,-0.584,0.502
2609789,9400.0,3006.0,1002.0,0.262,0.583,-0.584,0.5
2609806,9254.0,3308.0,962.0,0.261,0.584,-0.584,0.5
2609823,9206.0,3590.0,1174.0,0.263,0.585,-0.583,0.499
2609849,9152.0,3042.0,1200.0,0.267,0.584,-0.582,0.499
2609865,9352.0,2682.0,1074.0,0.273,0.583,-0.581,0.499
2609881,10072.0,3022.0,1528.0,0.282,0.581,-0.578,0.5
2609897,10316.0,2870.0,1490.0,0.293,0.579,-0.574,0.5
2609914,10488.0,2722.0,1148.0,0.306,0.576,-0.569,0.502
2609930,10948.0,2936.0,1272.0,0.321,0.572,-0.563,0.503
2609956,11614.0,3296.0,1154.0,0.338,0.568,-0.556,0.503
2609972,12566.0,2244.0,1152.0,0.359,0.563,-0.549,0.504
2609989,12806.0,1564.0,928.0,0.38,0.558,-0.538,0.504
2610005,13774.0,2424.0,1546.0,0.404,0.553,-0.525,0.505
2610022,13920.0,2972.0,1080.0,0.429,0.548,-0.511,0.505
2610038,14102.0,3228.0,1746.0,0.456,0.542,-0.495,0.503
2610054,14750.0,4108.0,1150.0,0.483,0.536,-0.479,0.5
2610080,14766.0,3408.0,1160.0,0.512,0.528,-0.461,0.497
2610096,14518.0,3026.0,1272.0,0.541,0.519,-0.443,0.492
2610112,14494.0,3884.0,1306.0,0.57,0.509,-0.423,0.487
2610128,14456.0,3718.0,1366.0,0.599,0.498,-0.403,0.481
2610144,14056.0,3886.0,1512.0,0.627,0.485,-0.382,0.475
2610160,13516.0,4206.0,1160.0,0.654,0.472,-0.362,0.467
2610186,13616.0,3632.0,1492.0,0.68,0.458,-0.341,0.46
2610202,12576.0,3944.0,1654.0,0.705,0.443,-0.32,0.452
2610218,11790.0,3260.0,2022.0,0.729,0.428,-0.3,0.443
2610234,10904.0,3752.0,1898.0,0.75,0.413,-0.28,0.434
2610251,10596.0,4270.0,2298.0,0.771,0.397,-0.261,0.424
2610267,9968.0,2372.0,1912.0,0.79,0.381,-0.244,0.415
2610293,9072.0,3044.0,2576.0,0.807,0.365,-0.226,0.406
2610310,8778.0,2590.0,2414.0,0.822,0.35,-0.209,0.398
2610326,8002.0,2608.0,2938.0,0.836,0.335,-0.193,0.39
2610342,6996.0,2200.0,2916.0,0.848,0.321,-0.177,0.383
2610358,6952.0,1942.0,3322.0,0.859,0.308,-0.162,0.376
2610374,6146.0,2904.0,2682.0,0.868,0.297,-0.147,0.369
2610391,5262.0,3050.0,3392.0,0.878,0.284,-0.133,0.363
2610411,4736.0,1102.0,3422.0,0.886,0.272,-0.121,0.357
2610427,4864.0,968.0,3192.0,0.892,0.263,-0.108,0.351
2610443,3958.0,2764.0,2340.0,0.898,0.255,-0.095,0.346
2610460,3834.0,1812.0,2908.0,0.904,0.245,-0.084,0.341
2610486,3238.0,212.0,3000.0,0.909,0.235,-0.072,0.337
2610502,2810.0,836.0,2654.0,0.913,0.228,-0.059,0.332
2610518,2352.0,1378.0,2050.0,0.918,0.22,-0.047,0.327
2610534,2198.0,800.0,1930.0,0.922,0.21,-0.034,0.323
2610551,1282.0,50.0,1296.0,0.927,0.2,-0.021,0.318
2610568,550.0,-742.0,1368.0,0.931,0.19,-0.006,0.313
2610584,-734.0,-2078.0,1492.0,0.934,0.183,0.008,0.307
2610601,-1878.0,-2038.0,854.0,0.936,0.179,0.022,0.301
2610628,-1950.0,-1460.0,674.0,0.938,0.178,0.034,0.295
2610644,-2704.0,-494.0,678.0,0.939,0.177,0.044,0.29
2610660,-3648.0,-1676.0,976.0,0.94,0.178,0.05,0.287
2610676,-3958.0,-1370.0,1008.0,0.94,0.182,0.052,0.285
2610693,-3662.0,-1274.0,1006.0,0.939,0.188,0.049,0.285
2610710,-2996.0,-1204.0,898.0,0.937,0.196,0.042,0.285
2610726,-1948.0,-1174.0,984.0,0.935,0.206,0.033,0.286
2610743,-1350.0,-664.0,1208.0,0.932,0.218,0.021,0.288
2610770,-686.0,-356.0,1426.0,0.929,0.231,0.007,0.291
2610786,578.0,-150.0,1974.0,0.924,0.245,-0.008,0.294
2610802,1272.0,260.0,1832.0,0.918,0.26,-0.024,0.297
2610818,2242.0,614.0,1952.0,0.911,0.277,-0.041,0.302
2610834,2586.0,1666.0,2276.0,0.903,0.293,-0.057,0.308
2610850,3802.0,2012.0,2640.0,0.894,0.309,-0.075,0.315
2610877,4898.0,1966.0,3274.0,0.885,0.324,-0.092,0.322
2610893,5034.0,2442.0,3494.0,0.874,0.341,-0.11,0.329
2610909,5136.0,3826.0,3050.0,0.861,0.357,-0.128,0.338
2610926,6226.0,4104.0,3060.0,0.848,0.372,-0.148,0.347
2610943,7616.0,2844.0,4042.0,0.834,0.386,-0.167,0.357
2610960,8212.0,2548.0,3548.0,0.819,0.401,-0.184,0.367
2610976,9018.0,3984.0,3218.0,0.802,0.417,-0.2,0.379
2610993,9456.0,5490.0,2674.0,0.784,0.432,-0.214,0.392
2611010,9494.0,5416.0,2380.0,0.766,0.444,-0.228,0.405
2611026,10294.0,4554.0,2664.0,0.748,0.454,-0.242,0.419
2611053,10566.0,4024.0,2602.0,0.729,0.463,-0.256,0.434
2611069,11718.0,2172.0,4300.0,0.709,0.473,-0.267,0.449
2611085,11042.0,3740.0,3418.0,0.686,0.486,-0.276,0.466
2611101,10182.0,5196.0,1934.0,0.661,0.498,-0.285,0.483
2611117,11618.0,4500.0,2226.0,0.636,0.508,-0.295,0.501
2611134,11258.0,2394.0,1806.0,0.609,0.518,-0.304,0.519
2611151,11252.0,3224.0,2444.0,0.578,0.53,-0.311,0.537
2611177,12024.0,5244.0,2082.0,0.546,0.542,-0.319,0.554
2611193,13370.0,4548.0,1252.0,0.513,0.552,-0.329,0.57
2611209,14374.0,3392.0,1064.0,0.481,0.559,-0.339,0.584
2611225,14404.0,2874.0,734.0,0.449,0.566,-0.346,0.598
2611242,13518.0,3194.0,1360.0,0.419,0.572,-0.351,0.611
2611259,12794.0,3942.0,1294.0,0.39,0.578,-0.355,0.623
2611276,12734.0,4132.0,1082.0,0.361,0.584,-0.359,0.632
2611293,12774.0,2920.0,660.0,0.334,0.588,-0.362,0.641
2611309,12320.0,3562.0,542.0,0.309,0.591,-0.364,0.65
2611336,11250.0,2892.0,874.0,0.287,0.593,-0.365,0.658
2611352,10962.0,1762.0,1754.0,0.266,0.595,-0.364,0.666
2611368,10514.0,2632.0,592.0,0.246,0.597,-0.359,0.673
2611385,10320.0,3872.0,836.0,0.228,0.6,-0.355,0.68
2611401,9748.0,3802.0,882.0,0.213,0.601,-0.351,0.686
