timeMs,ax,ay,az,gx,gy,gz,q0,q1,q2,q3
1384159,243.0,-147.0,1945.0,-11702.0,5731.0,29668.0,0.49,0.35,0.798,0.019
1384163,243.0,-147.0,1945.0,13076.0,32160.0,309.0,0.929,0.015,0.119,0.35
1384171,-1215.0,5553.0,6010.0,-8.0,2.0,-4.0,0.476,0.119,0.35,0.798
1384174,-1207.0,5499.0,5976.0,1.0,11.0,-7.0,0.476,0.119,0.35,0.798
1384177,-1157.0,5557.0,6002.0,0.0,3.0,-7.0,0.476,0.119,0.35,0.798
1384181,-1177.0,5543.0,6022.0,-4.0,4.0,-6.0,0.476,0.119,0.35,0.798
1384184,-1159.0,5527.0,6046.0,5.0,4.0,-10.0,0.476,0.119,0.35,0.798
1384187,-1213.0,5523.0,6042.0,6.0,3.0,-6.0,0.476,0.119,0.35,0.798
1384190,-1157.0,5551.0,6022.0,-2.0,4.0,-6.0,0.476,0.119,0.35,0.798
1384194,-1177.0,5489.0,5988.0,-7.0,3.0,-7.0,0.476,0.119,0.35,0.798
1384197,-1197.0,5493.0,6020.0,-7.0,9.0,-4.0,0.476,0.119,0.349,0.798
1384200,-1185.0,5523.0,5974.0,-9.0,4.0,-6.0,0.476,0.119,0.349,0.798
1384203,-1195.0,5463.0,6006.0,-5.0,6.0,-6.0,0.476,0.119,0.349,0.798
1384207,-1193.0,5453.0,5984.0,0.0,13.0,-3.0,0.476,0.119,0.349,0.798
1384210,-1229.0,5449.0,6000.0,-3.0,11.0,-1.0,0.476,0.119,0.349,0.798
1384213,-1211.0,5541.0,5988.0,4.0,13.0,4.0,0.476,0.119,0.349,0.798
1384217,-1179.0,5557.0,6010.0,3.0,13.0,3.0,0.476,0.119,0.349,0.798
1384220,-1195.0,5565.0,5996.0,2.0,10.0,0.0,0.476,0.119,0.349,0.798
1384223,-1183.0,5459.0,6004.0,0.0,7.0,-8.0,0.476,0.119,0.349,0.798
1384226,-1131.0,5479.0,5960.0,1.0,11.0,-5.0,0.476,0.119,0.349,0.798
1384230,-1195.0,5547.0,6016.0,5.0,11.0,-6.0,0.476,0.119,0.35,0.798
1384233,-1225.0,5557.0,5982.0,14326.0,-30164.0,292.0,0.86,-0.085,0.501,0.039
1465789,-10.0,243.0,-147.0,2869.0,25197.0,7038.0,0.785,-0.363,0.501,0.023
1465794,-10.0,243.0,-147.0,2869.0,25197.0,7038.0,0.946,0.324,0.005,-0.001
1465799,-10.0,243.0,-147.0,2869.0,25197.0,7038.0,0.907,0.421,0.018,-0.002
1465814,-10.0,243.0,-147.0,2869.0,25197.0,7038.0,1.0,-0.006,0.004,0.015
1465818,-10.0,243.0,-147.0,2869.0,25197.0,7038.0,0.986,-0.003,0.015,0.168
1465831,14365.0,-18788.0,295.0,2869.0,25197.0,7038.0,1.0,0.0,-0.001,-0.009
1465875,1237.0,6217.0,4886.0,93.0,-4.0,11.0,0.185,0.169,0.408,0.878
1465888,1213.0,6581.0,4976.0,81.0,-2.0,2.0,0.185,0.169,0.409,0.877
1465911,1263.0,6753.0,5044.0,30.0,-6.0,19.0,0.185,0.17,0.409,0.877
1465924,1277.0,6547.0,4984.0,1.0,6.0,60.0,0.185,0.17,0.409,0.877
1465947,1251.0,6537.0,4882.0,16.0,11.0,61.0,0.184,0.17,0.409,0.877
1465960,1271.0,6461.0,4868.0,31.0,20.0,30.0,0.184,0.17,0.409,0.877
1465973,1325.0,6495.0,4808.0,39.0,28.0,6.0,0.183,0.17,0.41,0.877
1465996,1263.0,6497.0,4798.0,44.0,28.0,15.0,0.183,0.17,0.41,0.877
1466009,1285.0,6525.0,4852.0,34.0,19.0,43.0,0.182,0.17,0.41,0.877
1466032,1163.0,6595.0,4940.0,26.0,25.0,59.0,0.182,0.17,0.411,0.877
1466045,1097.0,6597.0,4926.0,12.0,16.0,49.0,0.181,0.171,0.411,0.877
1466068,1099.0,6505.0,4938.0,2.0,10.0,30.0,0.181,0.171,0.411,0.877
1466081,1093.0,6515.0,5052.0,-3.0,8.0,23.0,0.181,0.171,0.411,0.877
1466104,1011.0,6567.0,4936.0,-24.0,-10.0,14.0,0.181,0.171,0.41,0.877
1466117,949.0,6399.0,4920.0,-13.0,-32.0,-7.0,0.181,0.171,0.41,0.877
1466130,987.0,6463.0,4940.0,19.0,-39.0,-13.0,0.181,0.171,0.41,0.877
1466153,1003.0,6515.0,5008.0,19.0,-50.0,-8.0,0.181,0.172,0.41,0.877
1466166,1061.0,6509.0,4876.0,-5.0,-59.0,-2.0,0.182,0.172,0.41,0.877
1466189,1147.0,6415.0,4966.0,8.0,-58.0,14.0,0.182,0.173,0.41,0.877
1466202,1167.0,6473.0,4980.0,22.0,-48.0,28.0,0.182,0.173,0.41,0.877
1466225,1115.0,6457.0,5064.0,27.0,-38.0,6.0,0.182,0.174,0.41,0.877
1466238,1127.0,6539.0,4970.0,16.0,-35.0,-1.0,0.182,0.174,0.41,0.876
1466261,1137.0,6495.0,5000.0,22.0,-32.0,3.0,0.182,0.175,0.411,0.876
1466274,1191.0,6503.0,4944.0,36.0,-29.0,10.0,0.181,0.175,0.411,0.876
1466297,1239.0,6503.0,4932.0,19.0,-30.0,12.0,0.181,0.175,0.411,0.876
1466310,1285.0,6583.0,4934.0,-5.0,-30.0,12.0,0.181,0.176,0.411,0.876
1466323,1329.0,6495.0,4952.0,-13.0,-19.0,3.0,0.181,0.176,0.411,0.876
1466346,1313.0,6463.0,4954.0,-6.0,-20.0,13.0,0.181,0.176,0.411,0.876
1466359,1351.0,6467.0,4998.0,14.0,-17.0,7.0,0.181,0.176,0.411,0.876
1466382,1357.0,6475.0,4958.0,31.0,-24.0,4.0,0.181,0.177,0.411,0.876
1466395,1403.0,6539.0,4940.0,35.0,-23.0,4.0,0.181,0.177,0.411,0.876
1466418,1381.0,6573.0,4892.0,25.0,-25.0,17.0,0.181,0.177,0.411,0.876
1466431,1395.0,6521.0,4880.0,19.0,-35.0,14.0,0.181,0.178,0.411,0.876
1466454,1385.0,6535.0,4824.0,12.0,-39.0,20.0,0.181,0.178,0.411,0.875
1466467,1487.0,6637.0,4902.0,8.0,-30.0,3.0,0.181,0.179,0.411,0.875
1466490,1431.0,6525.0,4828.0,-1.0,-33.0,-4.0,0.181,0.179,0.411,0.875
1466503,1431.0,6503.0,4820.0,14.0,-25.0,-8.0,0.181,0.179,0.411,0.875
1466516,1437.0,6531.0,4844.0,15.0,-19.0,4.0,0.181,0.179,0.412,0.875
1466539,1409.0,6579.0,4854.0,4.0,-14.0,12.0,0.181,0.18,0.412,0.875
1466552,1363.0,6547.0,4902.0,1.0,-12.0,9.0,0.18,0.18,0.412,0.875
1466575,1397.0,6525.0,4862.0,12.0,2.0,5.0,0.18,0.18,0.412,0.875
1466588,1399.0,6621.0,4874.0,1.0,7.0,-1.0,0.18,0.18,0.412,0.875
1466611,1317.0,6569.0,4872.0,-5.0,9.0,5.0,0.18,0.18,0.412,0.875
1466624,1345.0,6501.0,4876.0,-7.0,10.0,-2.0,0.18,0.18,0.412,0.875
1466647,1341.0,6565.0,4912.0,-2.0,11.0,-3.0,0.18,0.18,0.412,0.875
1466660,1357.0,6525.0,4910.0,0.0,14.0,-4.0,0.18,0.18,0.412,0.875
1466673,1355.0,6535.0,4984.0,2.0,23.0,4.0,0.18,0.18,0.412,0.875
1466696,1327.0,6569.0,4862.0,-5.0,25.0,12.0,0.179,0.179,0.412,0.875
1466709,1267.0,6537.0,4950.0,-11.0,30.0,7.0,0.179,0.179,0.412,0.875
1466732,1285.0,6583.0,4986.0,-12.0,28.0,14.0,0.179,0.179,0.412,0.875
1466745,1289.0,6539.0,4964.0,-17.0,25.0,9.0,0.179,0.179,0.411,0.876
1466768,1287.0,6509.0,4986.0,-19.0,17.0,14.0,0.179,0.179,0.411,0.876
1466781,1337.0,6463.0,4916.0,-12.0,16.0,24.0,0.178,0.179,0.411,0.876
1466804,1291.0,6465.0,4916.0,3.0,3.0,15.0,0.178,0.179,0.411,0.876
1466817,1329.0,6545.0,4876.0,18.0,-5.0,8.0,0.178,0.179,0.411,0.876
1466840,1343.0,6643.0,4886.0,4.0,-9.0,12.0,0.178,0.179,0.411,0.876
1466853,1385.0,6581.0,4862.0,-26.0,-8.0,6.0,0.178,0.179,0.411,0.876
1466866,1431.0,6519.0,4858.0,-38.0,-9.0,-2.0,0.178,0.179,0.411,0.876
1466889,1477.0,6471.0,4858.0,-42.0,9.0,-3.0,0.178,0.179,0.41,0.876
1466902,1461.0,6479.0,4840.0,-39.0,23.0,-6.0,0.178,0.179,0.41,0.876
1466925,1471.0,6395.0,4884.0,-23.0,38.0,-7.0,0.178,0.179,0.41,0.876
1466938,1359.0,6493.0,4922.0,-5.0,41.0,5.0,0.178,0.179,0.41,0.877
1466961,1323.0,6471.0,4878.0,2.0,41.0,16.0,0.177,0.178,0.41,0.877
1466974,1235.0,6423.0,4978.0,7.0,48.0,17.0,0.177,0.178,0.41,0.877
1466997,1221.0,6423.0,4920.0,19.0,48.0,9.0,0.176,0.178,0.411,0.877
1467010,1313.0,6405.0,4954.0,38.0,67.0,-11.0,0.176,0.177,0.411,0.877
1467033,1275.0,6517.0,4876.0,47.0,66.0,-18.0,0.176,0.177,0.411,0.877
1467046,1321.0,6501.0,4928.0,44.0,59.0,-9.0,0.176,0.176,0.412,0.877
1467059,1307.0,6565.0,4954.0,26.0,54.0,1.0,0.175,0.176,0.412,0.877
1467082,1243.0,6471.0,4910.0,17.0,50.0,2.0,0.175,0.176,0.412,0.877
1467095,1259.0,6457.0,4898.0,26.0,51.0,-1.0,0.175,0.175,0.413,0.877
1467118,1237.0,6441.0,4936.0,42.0,46.0,-1.0,0.174,0.175,0.413,0.876
1467131,1209.0,6533.0,4902.0,41.0,42.0,-9.0,0.174,0.175,0.414,0.876
1467154,1257.0,6565.0,4892.0,49.0,38.0,-11.0,0.174,0.175,0.414,0.876
1467167,1297.0,6627.0,4888.0,35.0,41.0,1.0,0.174,0.174,0.414,0.876
1467190,1257.0,6651.0,4842.0,1.0,31.0,8.0,0.174,0.174,0.415,0.876
1467203,1325.0,6539.0,4902.0,-18.0,24.0,12.0,0.173,0.174,0.414,0.876
1467216,1221.0,6595.0,4850.0,-24.0,30.0,17.0,0.173,0.174,0.414,0.876
1467239,1223.0,6623.0,4996.0,-15.0,19.0,-3.0,0.173,0.174,0.414,0.877
1467252,1319.0,6643.0,5042.0,-19.0,22.0,3.0,0.173,0.174,0.414,0.877
1467275,1261.0,6495.0,4942.0,-15.0,27.0,6.0,0.173,0.173,0.414,0.877
1467288,1193.0,6429.0,4812.0,10.0,16.0,-2.0,0.172,0.173,0.414,0.877
1467311,1221.0,6485.0,4848.0,18.0,18.0,-2.0,0.172,0.173,0.414,0.877
1467324,1219.0,6533.0,4866.0,0.0,12.0,-2.0,0.172,0.173,0.414,0.877
1467347,1229.0,6521.0,4918.0,-2.0,18.0,-10.0,0.172,0.173,0.414,0.877
1467360,1317.0,6539.0,4924.0,-4.0,21.0,-8.0,0.172,0.173,0.414,0.877
1467383,1299.0,6591.0,4884.0,8.0,28.0,-19.0,0.172,0.173,0.415,0.877
1467396,1345.0,6589.0,4900.0,25.0,35.0,-31.0,0.172,0.172,0.415,0.877
1467409,1415.0,6669.0,4956.0,22.0,41.0,-28.0,0.172,0.172,0.415,0.877
1467432,1349.0,6591.0,4846.0,15.0,40.0,-23.0,0.172,0.172,0.415,0.877
1467445,1269.0,6507.0,4766.0,13.0,44.0,-24.0,0.172,0.171,0.416,0.877
1467468,1229.0,6467.0,4806.0,16.0,41.0,-12.0,0.172,0.171,0.416,0.877
1467481,1241.0,6497.0,4780.0,8.0,43.0,-17.0,0.172,0.171,0.416,0.877
1467504,1249.0,6421.0,4832.0,3.0,44.0,-12.0,0.172,0.17,0.416,0.877
1467517,1217.0,6423.0,4820.0,4.0,44.0,-6.0,0.172,0.17,0.416,0.877
1467540,1229.0,6381.0,4916.0,26.0,44.0,-4.0,0.171,0.17,0.416,0.877
1467553,1171.0,6439.0,4902.0,50.0,37.0,-2.0,0.171,0.17,0.417,0.876
1467576,1161.0,6529.0,4884.0,58.0,45.0,-7.0,0.171,0.169,0.418,0.876
1467589,1207.0,6571.0,4748.0,71.0,55.0,-4.0,0.171,0.169,0.418,0.876
1467602,1229.0,6625.0,4798.0,66.0,59.0,4.0,0.17,0.169,0.419,0.876
1467625,1119.0,6743.0,4802.0,49.0,57.0,2.0,0.17,0.168,0.419,0.876
1467638,1213.0,6699.0,4888.0,36.0,58.0,-2.0,0.169,0.168,0.42,0.876
1467661,1205.0,6621.0,4880.0,15.0,58.0,0.0,0.169,0.168,0.42,0.876
1467674,1167.0,6503.0,4904.0,9.0,51.0,-5.0,0.169,0.167,0.42,0.876
1467697,1237.0,6453.0,4894.0,16.0,58.0,-3.0,0.169,0.167,0.42,0.876
1467710,1253.0,6451.0,4958.0,22.0,64.0,9.0,0.168,0.166,0.421,0.876
1467733,1321.0,6527.0,4966.0,42.0,66.0,4.0,0.168,0.166,0.421,0.876
1467746,1231.0,6583.0,4900.0,53.0,66.0,15.0,0.167,0.166,0.421,0.876
1467759,1231.0,6549.0,4794.0,43.0,62.0,5.0,0.167,0.165,0.422,0.876
1467782,1119.0,6545.0,4692.0,49.0,48.0,12.0,0.167,0.165,0.422,0.876
1467795,1123.0,6637.0,4646.0,43.0,45.0,3.0,0.166,0.165,0.423,0.875
1467818,1071.0,6709.0,4738.0,13.0,37.0,0.0,0.166,0.165,0.423,0.875
1467831,1143.0,6745.0,4760.0,-31.0,20.0,-5.0,0.166,0.165,0.423,0.876
1467859,1033.0,6647.0,4732.0,-60.0,20.0,-3.0,0.166,0.164,0.422,0.876
1467872,1203.0,6535.0,4828.0,-65.0,14.0,-17.0,0.166,0.164,0.422,0.876
1467885,1231.0,6551.0,4870.0,-51.0,16.0,-18.0,0.166,0.164,0.422,0.876
1467908,1165.0,6413.0,4720.0,-31.0,0.0,-15.0,0.166,0.164,0.421,0.876
1467921,1237.0,6437.0,4762.0,3.0,5.0,-18.0,0.166,0.164,0.421,0.876
1467944,1205.0,6573.0,4814.0,23.0,10.0,0.0,0.166,0.164,0.422,0.876
1467957,1277.0,6547.0,4820.0,34.0,14.0,9.0,0.166,0.164,0.422,0.876
1467970,1207.0,6541.0,4820.0,66.0,24.0,-8.0,0.166,0.164,0.423,0.876
1467993,1147.0,6539.0,4840.0,83.0,31.0,-14.0,0.166,0.164,0.423,0.876
1468006,1011.0,6503.0,4600.0,70.0,31.0,-20.0,0.166,0.163,0.424,0.875
1468029,1187.0,6259.0,4688.0,119.0,14.0,-53.0,0.166,0.163,0.425,0.875
1468042,1111.0,6445.0,4748.0,148.0,7.0,-33.0,0.166,0.163,0.426,0.874
1468065,1151.0,6407.0,4758.0,141.0,3.0,-24.0,0.166,0.164,0.427,0.874
1468078,1057.0,6579.0,4756.0,210.0,23.0,-38.0,0.165,0.164,0.429,0.873
1468101,949.0,6663.0,4530.0,267.0,3.0,-43.0,0.165,0.164,0.431,0.872
1468114,915.0,6831.0,4470.0,243.0,-11.0,-30.0,0.165,0.164,0.434,0.87
1468127,825.0,7013.0,4554.0,207.0,-32.0,-43.0,0.165,0.165,0.435,0.87
1468150,815.0,7227.0,4520.0,211.0,-50.0,-86.0,0.166,0.165,0.437,0.868
1468163,731.0,7171.0,4576.0,171.0,-75.0,-94.0,0.167,0.165,0.439,0.867
1468186,619.0,7219.0,4430.0,61.0,-103.0,-77.0,0.168,0.166,0.439,0.867
1468199,771.0,7163.0,4598.0,-51.0,-113.0,-83.0,0.169,0.167,0.439,0.867
1468222,721.0,6889.0,4654.0,-114.0,-119.0,-83.0,0.17,0.167,0.438,0.867
1468235,865.0,6701.0,4830.0,-120.0,-105.0,-86.0,0.172,0.167,0.437,0.867
1468258,971.0,6729.0,4892.0,-129.0,-83.0,-74.0,0.173,0.167,0.436,0.867
1468271,727.0,6417.0,3932.0,-127.0,-80.0,-43.0,0.174,0.168,0.435,0.868
1468294,651.0,6257.0,3702.0,-75.0,-60.0,-19.0,0.174,0.168,0.434,0.868
1468307,937.0,6751.0,3964.0,-96.0,-39.0,13.0,0.174,0.168,0.433,0.868
1468320,905.0,6677.0,4428.0,-134.0,-15.0,12.0,0.175,0.168,0.432,0.869
1468343,1125.0,6691.0,4606.0,-124.0,-40.0,-15.0,0.175,0.169,0.431,0.869
1468356,1313.0,6459.0,4596.0,-93.0,-55.0,12.0,0.175,0.169,0.43,0.869
1468379,1513.0,7033.0,4450.0,-130.0,-61.0,-7.0,0.176,0.169,0.429,0.87
1468392,1671.0,7267.0,4792.0,-281.0,-65.0,3.0,0.176,0.17,0.427,0.871
1468415,1699.0,6773.0,5086.0,-390.0,-83.0,-22.0,0.177,0.17,0.423,0.872
1468428,1603.0,6349.0,4822.0,-317.0,-87.0,-22.0,0.178,0.17,0.421,0.873
1468451,1535.0,6147.0,4576.0,-209.0,-58.0,-31.0,0.179,0.17,0.419,0.874
1468464,1541.0,6199.0,4586.0,-106.0,-57.0,-24.0,0.18,0.17,0.418,0.874
1468487,1597.0,6261.0,4936.0,-38.0,-32.0,-36.0,0.18,0.171,0.418,0.874
1468500,1625.0,6341.0,5106.0,-19.0,10.0,-3.0,0.18,0.171,0.417,0.874
1468513,1511.0,6661.0,5070.0,-16.0,31.0,19.0,0.18,0.171,0.417,0.874
1468536,1415.0,6743.0,4928.0,-115.0,54.0,68.0,0.179,0.17,0.416,0.875
1468549,1241.0,6779.0,4894.0,-253.0,36.0,78.0,0.179,0.17,0.414,0.876
1468572,1203.0,6823.0,4954.0,-305.0,26.0,37.0,0.179,0.17,0.412,0.877
1468585,1153.0,6595.0,5088.0,-255.0,27.0,-20.0,0.179,0.169,0.41,0.878
1468608,1089.0,6639.0,5192.0,-226.0,32.0,-45.0,0.18,0.168,0.408,0.879
1468621,931.0,6431.0,5160.0,-241.0,25.0,-27.0,0.181,0.168,0.406,0.88
1468644,703.0,6279.0,5120.0,-226.0,3.0,-21.0,0.181,0.167,0.404,0.881
1468657,775.0,6253.0,5286.0,-178.0,-3.0,-16.0,0.182,0.167,0.403,0.881
1468670,741.0,6301.0,5350.0,-172.0,-17.0,15.0,0.182,0.167,0.401,0.882
1468693,833.0,6139.0,5300.0,-205.0,-20.0,42.0,0.182,0.167,0.399,0.883
1468706,1007.0,6107.0,5302.0,-196.0,-29.0,67.0,0.182,0.167,0.398,0.884
1468729,1237.0,6027.0,4878.0,-191.0,-43.0,73.0,0.182,0.167,0.396,0.884
1468742,1519.0,6229.0,4938.0,-81.0,-25.0,33.0,0.182,0.168,0.395,0.885
1468765,1571.0,6189.0,4934.0,-18.0,-19.0,53.0,0.182,0.168,0.395,0.885
1468778,1537.0,6177.0,4938.0,41.0,3.0,18.0,0.181,0.168,0.395,0.885
1468801,1359.0,6251.0,4846.0,104.0,15.0,-1.0,0.181,0.168,0.396,0.884
1468814,1149.0,6541.0,4816.0,132.0,23.0,-5.0,0.181,0.169,0.397,0.884
1468837,1239.0,6607.0,4886.0,86.0,18.0,-9.0,0.181,0.169,0.398,0.883
1468850,1377.0,6455.0,5132.0,42.0,38.0,-10.0,0.181,0.169,0.398,0.883
1468863,1179.0,6561.0,5164.0,31.0,39.0,-16.0,0.181,0.168,0.399,0.883
1468886,1187.0,6729.0,5182.0,-16.0,32.0,-26.0,0.181,0.168,0.399,0.883
1468899,1265.0,6465.0,5356.0,-38.0,29.0,-40.0,0.181,0.168,0.398,0.883
1468922,1479.0,6225.0,5374.0,-4.0,49.0,-49.0,0.181,0.167,0.399,0.883
1468935,1433.0,6143.0,5336.0,41.0,78.0,-22.0,0.181,0.167,0.399,0.883
1468958,1201.0,6131.0,5368.0,116.0,59.0,-1.0,0.181,0.166,0.4,0.883
1468971,1149.0,6269.0,5362.0,161.0,56.0,5.0,0.181,0.166,0.401,0.882
1468994,1003.0,6159.0,5188.0,142.0,35.0,15.0,0.18,0.166,0.402,0.882
1469007,745.0,6013.0,5158.0,107.0,26.0,23.0,0.18,0.166,0.403,0.882
1469030,681.0,5897.0,5034.0,83.0,15.0,31.0,0.179,0.167,0.404,0.881
1469043,651.0,6061.0,5036.0,75.0,1.0,36.0,0.179,0.167,0.404,0.881
1469056,851.0,6497.0,5098.0,74.0,-16.0,26.0,0.179,0.167,0.405,0.881
1469079,1209.0,6791.0,5276.0,86.0,-28.0,-6.0,0.179,0.168,0.406,0.881
1469092,1205.0,6831.0,5402.0,110.0,-21.0,-24.0,0.179,0.168,0.406,0.88
1469115,1133.0,6713.0,5372.0,130.0,-43.0,8.0,0.179,0.169,0.407,0.879
1469128,1037.0,6535.0,5218.0,112.0,-54.0,23.0,0.179,0.169,0.408,0.879
1469151,1251.0,6673.0,5036.0,48.0,-94.0,8.0,0.179,0.17,0.408,0.879
1469164,1345.0,6535.0,4838.0,-74.0,-119.0,-6.0,0.18,0.171,0.408,0.879
1469187,1313.0,6261.0,4774.0,-110.0,-156.0,-80.0,0.181,0.172,0.407,0.879
1469200,1227.0,6273.0,4452.0,-143.0,-168.0,-129.0,0.183,0.173,0.405,0.879
1469213,1357.0,6501.0,4598.0,-182.0,-171.0,-153.0,0.185,0.174,0.404,0.879
1469236,1467.0,6705.0,4616.0,-213.0,-220.0,-166.0,0.188,0.174,0.402,0.879
1469249,1627.0,6661.0,4822.0,-211.0,-177.0,-154.0,0.19,0.175,0.4,0.879
1469272,1575.0,6713.0,5138.0,-75.0,-147.0,-128.0,0.191,0.176,0.4,0.879
1469285,1673.0,6809.0,5066.0,86.0,-95.0,-126.0,0.193,0.177,0.401,0.878
1469308,1547.0,7055.0,4736.0,168.0,-63.0,-98.0,0.193,0.177,0.402,0.877
1469321,1369.0,6857.0,4826.0,142.0,-38.0,-116.0,0.194,0.177,0.403,0.876
1469344,1203.0,6543.0,5054.0,111.0,-22.0,-108.0,0.195,0.177,0.405,0.876
1469357,1103.0,6389.0,5184.0,67.0,-1.0,-106.0,0.196,0.177,0.405,0.875
1469380,939.0,6087.0,5214.0,27.0,27.0,-84.0,0.196,0.177,0.406,0.875
1469393,691.0,5833.0,5114.0,32.0,49.0,-72.0,0.197,0.176,0.406,0.875
1469406,553.0,6205.0,5074.0,108.0,58.0,-79.0,0.197,0.175,0.407,0.875
1469429,813.0,6735.0,5250.0,105.0,57.0,-82.0,0.197,0.175,0.408,0.874
1469442,1035.0,6923.0,5144.0,-19.0,55.0,-85.0,0.198,0.174,0.408,0.874
1469465,1239.0,6541.0,4966.0,-127.0,43.0,-115.0,0.199,0.173,0.407,0.874
1469478,1485.0,6445.0,5026.0,-71.0,22.0,-153.0,0.2,0.172,0.407,0.874
1469501,1777.0,6429.0,5172.0,63.0,22.0,-184.0,0.201,0.172,0.408,0.874
1469514,2087.0,6503.0,5320.0,191.0,43.0,-178.0,0.202,0.171,0.41,0.873
1469537,2385.0,6823.0,5264.0,281.0,53.0,-181.0,0.203,0.171,0.412,0.872
1469550,2557.0,6831.0,5078.0,290.0,85.0,-186.0,0.203,0.171,0.415,0.87
1469573,2555.0,6683.0,4480.0,214.0,111.0,-162.0,0.204,0.17,0.417,0.869
1469586,2367.0,6603.0,3720.0,66.0,136.0,-122.0,0.204,0.169,0.418,0.869
1469599,2551.0,7137.0,3614.0,-117.0,114.0,-97.0,0.204,0.168,0.418,0.869
1469622,2881.0,6477.0,4916.0,-404.0,109.0,6.0,0.204,0.167,0.415,0.871
1469635,2787.0,3527.0,5158.0,-749.0,321.0,301.0,0.202,0.164,0.409,0.875
1469658,2561.0,4189.0,4888.0,-355.0,276.0,372.0,0.198,0.163,0.406,0.877
1469671,2103.0,3749.0,4820.0,183.0,368.0,353.0,0.194,0.161,0.407,0.878
1469694,1507.0,3843.0,4896.0,540.0,328.0,550.0,0.187,0.162,0.411,0.877
1469707,1275.0,5091.0,5288.0,489.0,285.0,664.0,0.18,0.163,0.415,0.877
1469730,1321.0,5599.0,5838.0,40.0,226.0,810.0,0.173,0.164,0.414,0.879
1469743,991.0,4987.0,6126.0,-479.0,114.0,953.0,0.165,0.166,0.408,0.882
1469756,1015.0,4233.0,6168.0,-580.0,39.0,1169.0,0.157,0.17,0.401,0.886
1469779,943.0,3783.0,5992.0,-405.0,-64.0,1282.0,0.147,0.174,0.396,0.89
1469792,995.0,4053.0,5618.0,-282.0,-163.0,1378.0,0.137,0.181,0.391,0.892
1469815,1095.0,4639.0,5354.0,-448.0,-330.0,1496.0,0.126,0.188,0.384,0.895
1469828,-773.0,3925.0,4126.0,-345.0,-249.0,1224.0,0.118,0.194,0.379,0.897
1469851,493.0,6771.0,5540.0,-1754.0,-684.0,1186.0,0.113,0.202,0.361,0.903
1469869,2819.0,4779.0,5818.0,-1775.0,-803.0,1433.0,0.107,0.212,0.342,0.909
1469882,2033.0,6401.0,5970.0,-1809.0,-907.0,1638.0,0.1,0.223,0.323,0.914
1469905,1877.0,1375.0,-958.0,-1020.0,-552.0,1236.0,0.093,0.23,0.311,0.917
1469918,1543.0,6159.0,5408.0,-2244.0,-1087.0,1229.0,0.091,0.241,0.289,0.922
1469941,2263.0,4225.0,5030.0,-1908.0,-1358.0,916.0,0.091,0.254,0.269,0.925
1469954,2629.0,5533.0,4380.0,-1717.0,-1470.0,1189.0,0.088,0.268,0.25,0.926
1469967,3115.0,6133.0,5426.0,-1821.0,-1620.0,1102.0,0.087,0.283,0.231,0.927
1469990,3947.0,6963.0,6420.0,-2099.0,-1599.0,700.0,0.09,0.296,0.21,0.927
1470003,4727.0,4701.0,6956.0,-2053.0,-1493.0,554.0,0.094,0.308,0.189,0.928
1470026,5273.0,4657.0,6930.0,-1615.0,-1357.0,620.0,0.095,0.32,0.172,0.927
1470039,4795.0,5193.0,7008.0,-1295.0,-1223.0,491.0,0.097,0.33,0.158,0.926
1470062,5587.0,8441.0,6824.0,-1004.0,-259.0,-12.0,0.1,0.331,0.149,0.926
1470075,4399.0,3105.0,8008.0,-657.0,-600.0,-803.0,0.11,0.335,0.146,0.924
1470098,4777.0,3863.0,8108.0,-323.0,-365.0,-268.0,0.113,0.337,0.143,0.923
1470111,4041.0,3619.0,8274.0,-207.0,-198.0,187.0,0.113,0.339,0.141,0.923
1470124,3493.0,3577.0,8278.0,-253.0,-93.0,-105.0,0.114,0.34,0.139,0.923
1470147,3653.0,3405.0,7908.0,-325.0,75.0,-103.0,0.116,0.339,0.137,0.924
1470160,3521.0,6973.0,7200.0,-606.0,490.0,-248.0,0.119,0.333,0.133,0.926
1470183,3505.0,2003.0,7570.0,-527.0,158.0,-1016.0,0.129,0.33,0.131,0.926
1470196,3823.0,3275.0,7632.0,-533.0,215.0,-479.0,0.134,0.327,0.129,0.927
1470219,3749.0,2771.0,7604.0,-840.0,196.0,-200.0,0.138,0.324,0.122,0.928
1470232,3829.0,2389.0,7154.0,-1038.0,171.0,-224.0,0.143,0.32,0.114,0.93
1470255,3871.0,2513.0,6852.0,-1041.0,219.0,-271.0,0.148,0.316,0.106,0.931
1470268,3925.0,2591.0,6840.0,-998.0,243.0,-537.0,0.155,0.312,0.1,0.932
1470291,4319.0,2209.0,6886.0,-839.0,270.0,-696.0,0.163,0.308,0.095,0.932
1470304,4285.0,2363.0,6598.0,-752.0,258.0,-761.0,0.171,0.304,0.091,0.933
1470327,4381.0,2261.0,6440.0,-858.0,170.0,-774.0,0.18,0.301,0.086,0.933
1470340,4385.0,2233.0,6456.0,-950.0,95.0,-797.0,0.189,0.298,0.08,0.932
1470353,4307.0,1823.0,6218.0,-1005.0,27.0,-830.0,0.199,0.295,0.074,0.932
1470376,4295.0,1347.0,6158.0,-919.0,-34.0,-830.0,0.208,0.293,0.068,0.931
1470389,4363.0,1355.0,6186.0,-774.0,-63.0,-838.0,0.217,0.292,0.063,0.929
1470412,4355.0,1343.0,6154.0,-679.0,-122.0,-811.0,0.226,0.291,0.059,0.928
1470425,4331.0,1567.0,5904.0,-628.0,-220.0,-725.0,0.234,0.291,0.055,0.926
1470448,4301.0,1485.0,5746.0,-588.0,-358.0,-591.0,0.24,0.293,0.051,0.924
1470461,4201.0,1637.0,5518.0,-508.0,-465.0,-463.0,0.246,0.296,0.047,0.922
1470484,4283.0,1789.0,5546.0,-430.0,-569.0,-351.0,0.25,0.299,0.043,0.92
1470497,4725.0,2545.0,5998.0,-374.0,-653.0,-279.0,0.253,0.304,0.039,0.917
1470510,5399.0,3339.0,6314.0,-366.0,-708.0,-245.0,0.256,0.31,0.036,0.915
1470533,5687.0,3275.0,6334.0,-419.0,-753.0,-186.0,0.259,0.315,0.031,0.913
1470546,5767.0,3135.0,6044.0,-490.0,-787.0,-148.0,0.262,0.321,0.026,0.91
1470569,5921.0,2793.0,5674.0,-490.0,-831.0,-165.0,0.264,0.327,0.02,0.907
1470582,6217.0,2433.0,5722.0,-387.0,-850.0,-180.0,0.267,0.334,0.015,0.904
1470605,6345.0,1985.0,5844.0,-192.0,-816.0,-151.0,0.268,0.34,0.012,0.901
1470618,6801.0,2859.0,6234.0,13.0,-716.0,-106.0,0.269,0.347,0.011,0.899
1470641,6839.0,3331.0,6036.0,-15.0,-600.0,-74.0,0.27,0.352,0.01,0.896
1470654,6897.0,3035.0,5606.0,-167.0,-520.0,107.0,0.269,0.356,0.007,0.895
1470667,6669.0,2589.0,5470.0,-238.0,-455.0,230.0,0.268,0.359,0.003,0.894
1470690,6663.0,2101.0,5762.0,-163.0,-347.0,255.0,0.266,0.362,-0.0,0.894
1470703,6643.0,1795.0,6396.0,21.0,-196.0,286.0,0.263,0.364,-0.001,0.894
1470726,6567.0,1529.0,7136.0,249.0,1.0,375.0,0.259,0.364,-0.0,0.895
1470739,6491.0,1999.0,7480.0,434.0,242.0,493.0,0.253,0.363,0.002,0.897
1470762,6431.0,2439.0,7490.0,466.0,463.0,562.0,0.246,0.361,0.005,0.9
1470775,6529.0,2243.0,7552.0,448.0,703.0,587.0,0.24,0.356,0.009,0.903
1470798,6283.0,1785.0,7310.0,450.0,970.0,618.0,0.233,0.349,0.013,0.908
1470811,6021.0,1651.0,6912.0,497.0,1201.0,612.0,0.225,0.34,0.018,0.913
1470834,5845.0,1643.0,6542.0,564.0,1407.0,563.0,0.218,0.329,0.024,0.918
1470847,5807.0,1451.0,6276.0,644.0,1573.0,504.0,0.211,0.317,0.031,0.924
1470860,5569.0,1725.0,6160.0,727.0,1709.0,486.0,0.204,0.304,0.039,0.93
1470883,5473.0,1923.0,6164.0,757.0,1778.0,431.0,0.197,0.291,0.048,0.935
1470896,5243.0,1959.0,6072.0,848.0,1757.0,404.0,0.19,0.278,0.057,0.94
1470919,5027.0,2339.0,5894.0,1084.0,1720.0,299.0,0.183,0.265,0.069,0.944
1470932,4775.0,2213.0,5726.0,1323.0,1641.0,110.0,0.178,0.253,0.084,0.947
1470955,4301.0,2255.0,5744.0,1501.0,1494.0,-125.0,0.174,0.243,0.1,0.949
1470968,3775.0,2889.0,5776.0,1540.0,1322.0,-345.0,0.172,0.233,0.116,0.95
1470991,3397.0,3769.0,6108.0,1544.0,1186.0,-607.0,0.173,0.225,0.133,0.95
1471004,2751.0,4663.0,5694.0,1354.0,996.0,-852.0,0.176,0.217,0.149,0.948
1471027,2303.0,5269.0,5666.0,1098.0,690.0,-1115.0,0.182,0.212,0.163,0.946
1471040,2289.0,5537.0,5398.0,830.0,482.0,-1416.0,0.193,0.207,0.174,0.943
1471053,1827.0,5319.0,5820.0,702.0,330.0,-1558.0,0.204,0.203,0.185,0.94
1471076,1941.0,5217.0,6044.0,710.0,248.0,-1691.0,0.217,0.199,0.195,0.936
1471089,1871.0,4613.0,6970.0,859.0,329.0,-1702.0,0.23,0.195,0.206,0.931
1471112,1845.0,4723.0,7614.0,1034.0,393.0,-1705.0,0.242,0.19,0.219,0.926
1471125,1645.0,3837.0,7874.0,1075.0,590.0,-1630.0,0.253,0.184,0.233,0.921
1471148,1275.0,3075.0,8404.0,999.0,791.0,-1457.0,0.261,0.177,0.245,0.917
1471161,1075.0,3211.0,8434.0,810.0,922.0,-1333.0,0.269,0.168,0.257,0.913
1471184,1019.0,2693.0,8472.0,523.0,1112.0,-1237.0,0.276,0.156,0.265,0.91
1471197,711.0,2559.0,8592.0,261.0,1240.0,-1061.0,0.282,0.144,0.272,0.909
1471210,667.0,2739.0,8090.0,86.0,1316.0,-931.0,0.286,0.13,0.277,0.908
1471233,511.0,2385.0,7342.0,16.0,1379.0,-800.0,0.289,0.116,0.281,0.908
1471246,521.0,2589.0,7130.0,114.0,1380.0,-753.0,0.292,0.103,0.286,0.907
1471269,693.0,3277.0,6976.0,393.0,1409.0,-704.0,0.293,0.09,0.293,0.905
1471282,675.0,4235.0,6754.0,645.0,1446.0,-670.0,0.294,0.078,0.303,0.903
1471305,537.0,5435.0,6648.0,736.0,1402.0,-654.0,0.295,0.067,0.313,0.9
1471318,667.0,5797.0,7218.0,696.0,1377.0,-673.0,0.296,0.056,0.323,0.897
1471341,461.0,7027.0,5104.0,627.0,1164.0,-774.0,0.299,0.046,0.333,0.893
1471354,-331.0,5243.0,4458.0,450.0,1010.0,-821.0,0.302,0.036,0.34,0.89
1471377,-321.0,4567.0,4870.0,441.0,779.0,-897.0,0.307,0.028,0.346,0.886
1471390,-291.0,4185.0,4772.0,753.0,608.0,-960.0,0.313,0.022,0.354,0.881
1471413,-1855.0,5135.0,2818.0,473.0,397.0,-863.0,0.319,0.018,0.359,0.877
1471426,-2043.0,4457.0,3348.0,295.0,112.0,-709.0,0.324,0.015,0.362,0.874
1471439,-1991.0,4229.0,4334.0,103.0,-27.0,-638.0,0.33,0.014,0.363,0.872
1471462,-2213.0,3943.0,4930.0,108.0,-80.0,-576.0,0.335,0.013,0.363,0.869
1471475,-2389.0,3811.0,5036.0,412.0,-133.0,-537.0,0.34,0.014,0.366,0.866
1471498,-2901.0,4133.0,4700.0,913.0,-267.0,-553.0,0.345,0.017,0.373,0.861
1471511,-2679.0,4905.0,4530.0,1210.0,-321.0,-559.0,0.351,0.022,0.382,0.855
1471534,-2455.0,5305.0,5632.0,947.0,-269.0,-382.0,0.355,0.026,0.388,0.85
1471547,-2081.0,4743.0,7208.0,484.0,-224.0,-207.0,0.357,0.028,0.391,0.848
1471570,-1847.0,3501.0,7098.0,310.0,-156.0,-97.0,0.359,0.03,0.392,0.846
1471583,-2309.0,1931.0,6418.0,813.0,-136.0,13.0,0.359,0.034,0.398,0.843
1471596,-2307.0,1835.0,5468.0,1769.0,-159.0,65.0,0.359,0.042,0.412,0.837
1471619,-2317.0,3429.0,5238.0,3019.0,-315.0,107.0,0.358,0.055,0.434,0.825
1471632,-1285.0,5425.0,4890.0,4110.0,-194.0,127.0,0.356,0.071,0.464,0.808
1471655,-1755.0,9983.0,5050.0,3753.0,-15.0,558.0,0.349,0.086,0.492,0.793
1471668,-3183.0,10853.0,5552.0,2561.0,-180.0,568.0,0.343,0.098,0.51,0.783
1471691,-4211.0,10287.0,5642.0,1430.0,-280.0,161.0,0.342,0.106,0.519,0.776
1471704,-3141.0,5441.0,3946.0,1274.0,-94.0,220.0,0.34,0.111,0.527,0.771
1471727,-2959.0,7267.0,4112.0,1225.0,-147.0,-187.0,0.341,0.115,0.536,0.764
1471740,-2293.0,7039.0,4008.0,675.0,-305.0,22.0,0.342,0.119,0.539,0.76
1471753,-1789.0,7127.0,1590.0,856.0,-474.0,60.0,0.342,0.125,0.544,0.756
1471776,-1205.0,6649.0,2078.0,785.0,-372.0,232.0,0.342,0.132,0.548,0.752
1471789,489.0,7121.0,4738.0,760.0,-340.0,431.0,0.339,0.139,0.551,0.749
1471812,-595.0,9813.0,3984.0,467.0,-176.0,544.0,0.336,0.145,0.553,0.748
1471825,-1299.0,8429.0,3066.0,328.0,-290.0,543.0,0.333,0.15,0.554,0.748
1471848,-965.0,8691.0,2506.0,250.0,-222.0,490.0,0.33,0.155,0.554,0.748
1471861,-1385.0,10573.0,2540.0,0.0,-237.0,527.0,0.328,0.16,0.553,0.749
1471879,-1645.0,9659.0,2268.0,-397.0,-385.0,463.0,0.327,0.163,0.548,0.752
1471902,-573.0,9005.0,3202.0,-320.0,-328.0,267.0,0.327,0.166,0.545,0.754
1471915,-523.0,8549.0,3858.0,-53.0,-305.0,18.0,0.328,0.168,0.543,0.754
1471938,-683.0,8863.0,4948.0,75.0,-115.0,-112.0,0.33,0.169,0.544,0.753
1471951,-1467.0,9671.0,4544.0,-135.0,112.0,-135.0,0.33,0.167,0.543,0.754
1471964,-1633.0,8829.0,4544.0,-385.0,204.0,-214.0,0.331,0.163,0.541,0.756
1471987,-1019.0,7297.0,3572.0,-687.0,182.0,-349.0,0.333,0.158,0.538,0.758
1472000,-1275.0,6307.0,3114.0,-582.0,133.0,-347.0,0.336,0.153,0.534,0.76
1472023,-895.0,5995.0,2732.0,-598.0,33.0,-285.0,0.338,0.15,0.531,0.763
1472036,-687.0,5045.0,3060.0,-501.0,3.0,-161.0,0.34,0.147,0.527,0.765
1472059,-683.0,4973.0,4006.0,-96.0,50.0,-33.0,0.34,0.146,0.527,0.765
1472072,-465.0,6969.0,3656.0,57.0,41.0,51.0,0.339,0.147,0.527,0.765
1472095,-683.0,6999.0,2566.0,134.0,-53.0,83.0,0.338,0.148,0.528,0.765
1472108,-1211.0,5855.0,726.0,275.0,-207.0,134.0,0.338,0.151,0.529,0.764
1472121,-1439.0,6137.0,826.0,628.0,-346.0,115.0,0.338,0.156,0.532,0.76
1472144,-1411.0,7145.0,1444.0,899.0,-443.0,158.0,0.337,0.163,0.537,0.756
1472157,-1613.0,8377.0,2440.0,954.0,-485.0,203.0,0.337,0.17,0.542,0.751
1472180,-2219.0,8829.0,2540.0,799.0,-569.0,179.0,0.337,0.177,0.546,0.746
1472193,-1281.0,8313.0,2584.0,802.0,-597.0,-101.0,0.339,0.183,0.55,0.741
1472216,-839.0,8187.0,2276.0,736.0,-544.0,-224.0,0.342,0.188,0.554,0.736
1472229,-1009.0,6773.0,2288.0,666.0,-558.0,-232.0,0.345,0.193,0.557,0.731
1472252,-977.0,5827.0,2378.0,800.0,-551.0,-187.0,0.348,0.198,0.561,0.725
1472265,-1055.0,5907.0,2024.0,966.0,-525.0,-171.0,0.35,0.204,0.566,0.718
1472288,-951.0,6231.0,2136.0,928.0,-513.0,-159.0,0.351,0.209,0.571,0.712
1472301,-1083.0,7309.0,2780.0,716.0,-448.0,-119.0,0.353,0.214,0.574,0.707
1472314,-783.0,7419.0,2482.0,449.0,-398.0,-94.0,0.355,0.217,0.576,0.704
1472337,259.0,7181.0,3316.0,525.0,-350.0,-192.0,0.356,0.22,0.578,0.7
1472350,695.0,8221.0,3046.0,635.0,-145.0,-256.0,0.357,0.222,0.582,0.696
1472373,1435.0,9433.0,1880.0,338.0,-18.0,-260.0,0.358,0.221,0.585,0.693
1472386,1043.0,8535.0,2464.0,164.0,108.0,-178.0,0.357,0.22,0.587,0.692
1472409,349.0,8845.0,1542.0,29.0,127.0,-154.0,0.357,0.219,0.588,0.692
1472422,-477.0,9001.0,1104.0,157.0,78.0,-77.0,0.357,0.218,0.589,0.691
1472445,-821.0,9737.0,1216.0,199.0,11.0,38.0,0.356,0.219,0.59,0.691
1472458,-1017.0,9683.0,2262.0,285.0,-5.0,97.0,0.354,0.22,0.592,0.689
1472481,-1455.0,9529.0,2412.0,354.0,62.0,145.0,0.352,0.222,0.594,0.688
1472494,-1515.0,8367.0,2012.0,264.0,66.0,164.0,0.35,0.223,0.596,0.688
1472507,-1325.0,7451.0,1386.0,220.0,46.0,215.0,0.348,0.224,0.597,0.687
1472530,-995.0,7719.0,1412.0,290.0,78.0,273.0,0.345,0.226,0.599,0.687
1472543,-871.0,8211.0,1932.0,405.0,76.0,344.0,0.341,0.228,0.601,0.686
1472566,-793.0,8867.0,1982.0,411.0,96.0,342.0,0.337,0.231,0.603,0.685
1472579,-607.0,9207.0,2314.0,293.0,162.0,271.0,0.333,0.232,0.605,0.685
1472602,-623.0,8847.0,1820.0,146.0,199.0,208.0,0.33,0.232,0.606,0.685
1472615,-365.0,8447.0,1218.0,71.0,231.0,167.0,0.328,0.232,0.607,0.686
1472638,-309.0,8139.0,1076.0,0.0,240.0,177.0,0.325,0.231,0.607,0.687
1472651,-123.0,8389.0,972.0,57.0,233.0,112.0,0.322,0.23,0.608,0.688
1472664,109.0,8873.0,956.0,193.0,318.0,11.0,0.32,0.229,0.611,0.687
1472687,-207.0,8307.0,594.0,42.0,365.0,0.0,0.317,0.227,0.612,0.688
1472700,-561.0,7833.0,-1406.0,-42.0,274.0,-24.0,0.315,0.225,0.613,0.689
1472723,-659.0,7961.0,-1978.0,-62.0,160.0,-35.0,0.314,0.223,0.614,0.689
1472736,317.0,7055.0,-654.0,-172.0,-8.0,-29.0,0.314,0.222,0.613,0.69
1472759,1977.0,7873.0,888.0,-77.0,12.0,-78.0,0.314,0.222,0.613,0.69
1472772,1569.0,8301.0,1142.0,-180.0,156.0,-53.0,0.314,0.22,0.612,0.692
1472795,769.0,7841.0,374.0,-345.0,251.0,-67.0,0.313,0.217,0.611,0.694
1472808,1023.0,8425.0,360.0,-268.0,367.0,-150.0,0.312,0.213,0.61,0.696
1472831,499.0,8499.0,710.0,-268.0,465.0,-138.0,0.31,0.209,0.61,0.698
1472844,773.0,8663.0,1272.0,5.0,572.0,-216.0,0.308,0.204,0.613,0.699
1472857,-11.0,11679.0,1510.0,73.0,903.0,-246.0,0.304,0.197,0.616,0.7
1472880,-1831.0,9155.0,720.0,-398.0,920.0,-349.0,0.301,0.188,0.617,0.703
1472893,181.0,7755.0,650.0,-11.0,899.0,-651.0,0.3,0.178,0.62,0.703
1472916,-893.0,7633.0,200.0,-379.0,916.0,-360.0,0.297,0.169,0.621,0.705
1472929,-1029.0,4145.0,-1172.0,-644.0,577.0,-196.0,0.296,0.162,0.619,0.709
1472952,1437.0,6523.0,-176.0,230.0,583.0,-186.0,0.293,0.157,0.622,0.709
1472965,-2133.0,10611.0,-338.0,407.0,495.0,363.0,0.287,0.157,0.626,0.708
1472988,-1865.0,10521.0,-30.0,3.0,-3.0,86.0,0.286,0.158,0.626,0.708
1473001,-769.0,7977.0,630.0,-204.0,-281.0,-30.0,0.288,0.159,0.624,0.709
1473024,-279.0,7163.0,3612.0,-54.0,-295.0,-91.0,0.29,0.16,0.622,0.709
1473037,-1133.0,8141.0,3036.0,-145.0,-301.0,2.0,0.292,0.161,0.62,0.71
1473050,-1611.0,9153.0,2242.0,-272.0,-249.0,117.0,0.293,0.163,0.618,0.711
1473073,-1515.0,9107.0,2518.0,-463.0,-318.0,41.0,0.295,0.164,0.614,0.714
1473086,-1501.0,8725.0,2426.0,-579.0,-372.0,-45.0,0.298,0.164,0.609,0.716
1473109,-979.0,8387.0,3552.0,-612.0,-176.0,-151.0,0.301,0.163,0.605,0.719
1473122,-1071.0,8145.0,3398.0,-652.0,53.0,-175.0,0.302,0.159,0.6,0.723
1473145,-1221.0,8209.0,2708.0,-642.0,212.0,-221.0,0.304,0.155,0.597,0.726
1473158,-827.0,7995.0,3198.0,-578.0,326.0,-290.0,0.304,0.149,0.594,0.729
1473181,-283.0,8783.0,3536.0,-660.0,564.0,-352.0,0.304,0.142,0.592,0.733
1473194,-617.0,8107.0,3742.0,-902.0,812.0,-369.0,0.303,0.131,0.588,0.738
1473217,-469.0,8043.0,3604.0,-1062.0,1038.0,-380.0,0.301,0.119,0.584,0.744
1473230,-819.0,7633.0,3116.0,-1216.0,1203.0,-283.0,0.298,0.106,0.579,0.752
1473243,-921.0,7111.0,3360.0,-1264.0,1267.0,-167.0,0.293,0.093,0.573,0.759
1473266,-1111.0,6729.0,3108.0,-1298.0,1311.0,-42.0,0.288,0.08,0.568,0.767
1473279,-1183.0,6313.0,2712.0,-1268.0,1260.0,92.0,0.281,0.068,0.562,0.775
1473302,-1513.0,5759.0,2290.0,-1302.0,1165.0,256.0,0.274,0.057,0.555,0.783
1473315,-1441.0,5417.0,2020.0,-1351.0,1006.0,437.0,0.266,0.049,0.548,0.792
1473338,-1781.0,4797.0,2228.0,-1443.0,873.0,674.0,0.258,0.043,0.539,0.801
1473351,-2041.0,4179.0,1824.0,-1332.0,624.0,848.0,0.249,0.039,0.53,0.81
1473374,-1961.0,4221.0,2368.0,-1192.0,459.0,986.0,0.239,0.038,0.521,0.818
1473387,-2281.0,4551.0,2080.0,-1099.0,290.0,1118.0,0.23,0.039,0.513,0.826
1473400,-2093.0,4753.0,1958.0,-974.0,122.0,1267.0,0.22,0.042,0.505,0.833
1473423,-2093.0,4717.0,1988.0,-851.0,5.0,1382.0,0.209,0.047,0.498,0.84
1473436,-1787.0,4945.0,2222.0,-707.0,-118.0,1461.0,0.199,0.053,0.492,0.846
1473459,-1521.0,5085.0,2194.0,-530.0,-223.0,1530.0,0.188,0.061,0.486,0.851
1473472,-1257.0,5289.0,2458.0,-374.0,-354.0,1612.0,0.177,0.071,0.482,0.855
1473495,-861.0,5603.0,2350.0,-147.0,-488.0,1663.0,0.167,0.082,0.479,0.858
1473508,-453.0,5743.0,2852.0,-60.0,-570.0,1764.0,0.155,0.094,0.476,0.861
1473531,91.0,5719.0,2700.0,184.0,-662.0,1778.0,0.144,0.108,0.475,0.862
1473544,565.0,6915.0,2996.0,249.0,-709.0,1816.0,0.132,0.122,0.474,0.862
1473567,911.0,6669.0,3054.0,35.0,-795.0,1898.0,0.12,0.137,0.471,0.863
1473580,1511.0,7085.0,3588.0,-40.0,-863.0,1954.0,0.108,0.153,0.467,0.864
1473593,1723.0,5963.0,3356.0,327.0,-857.0,1949.0,0.096,0.169,0.466,0.863
1473616,2439.0,7717.0,3894.0,487.0,-793.0,1829.0,0.084,0.183,0.467,0.861
1473629,2433.0,6953.0,3604.0,380.0,-809.0,1845.0,0.072,0.198,0.466,0.859
1473652,3137.0,7893.0,3824.0,421.0,-820.0,1834.0,0.06,0.213,0.465,0.857
1473665,2807.0,6273.0,3442.0,476.0,-751.0,1712.0,0.048,0.227,0.465,0.854
1473688,3801.0,7607.0,3778.0,553.0,-785.0,1659.0,0.037,0.241,0.466,0.851
1473701,3809.0,7293.0,3762.0,603.0,-615.0,1663.0,0.025,0.253,0.466,0.847
1473724,4057.0,7555.0,3524.0,566.0,-620.0,1691.0,0.012,0.265,0.467,0.844
1473737,4439.0,6815.0,3450.0,663.0,-565.0,1574.0,0.001,0.276,0.468,0.839
1473750,4769.0,7839.0,3690.0,541.0,-485.0,1462.0,0.01,-0.286,-0.469,-0.836
1473773,4645.0,7265.0,3384.0,361.0,-523.0,1483.0,0.021,-0.297,-0.468,-0.832
1473786,4793.0,6773.0,3408.0,372.0,-474.0,1289.0,0.03,-0.306,-0.467,-0.829
1473809,5523.0,6789.0,3358.0,513.0,-488.0,1295.0,0.04,-0.315,-0.467,-0.825
1473822,5291.0,6625.0,2708.0,474.0,-467.0,1437.0,0.051,-0.325,-0.467,-0.821
1473845,5767.0,6921.0,3024.0,542.0,-430.0,1390.0,0.061,-0.334,-0.467,-0.816
1473858,5909.0,7037.0,2876.0,423.0,-469.0,1379.0,0.071,-0.343,-0.467,-0.812
1473886,6083.0,6155.0,2638.0,416.0,-423.0,1281.0,0.081,-0.351,-0.466,-0.808
1473899,6211.0,6745.0,2398.0,361.0,-430.0,1230.0,0.09,-0.36,-0.465,-0.804
1473912,6449.0,6255.0,2674.0,319.0,-436.0,1172.0,0.098,-0.367,-0.464,-0.8
1473935,6597.0,6005.0,2308.0,389.0,-384.0,1145.0,0.107,-0.375,-0.464,-0.796
1473948,6507.0,6599.0,2228.0,350.0,-366.0,1066.0,0.115,-0.382,-0.463,-0.792
1473961,6713.0,5659.0,2168.0,202.0,-411.0,1021.0,0.121,-0.389,-0.461,-0.788
1473984,6793.0,5705.0,2084.0,303.0,-342.0,984.0,0.129,-0.395,-0.461,-0.784
1473997,6835.0,5393.0,2320.0,335.0,-339.0,889.0,0.135,-0.4,-0.46,-0.781
1474020,6977.0,5269.0,1716.0,322.0,-333.0,964.0,0.143,-0.407,-0.46,-0.776
1474033,6951.0,5165.0,1820.0,451.0,-261.0,943.0,0.151,-0.412,-0.46,-0.772
1474056,7335.0,5301.0,1748.0,562.0,-219.0,881.0,0.159,-0.416,-0.461,-0.767
1474069,7315.0,4671.0,1822.0,610.0,-138.0,813.0,0.167,-0.42,-0.463,-0.763
1474092,7291.0,4879.0,1548.0,531.0,-122.0,792.0,0.174,-0.423,-0.464,-0.759
1474105,7295.0,4747.0,1702.0,443.0,-135.0,755.0,0.181,-0.426,-0.465,-0.755
1474118,7487.0,4573.0,1604.0,388.0,-166.0,712.0,0.187,-0.43,-0.465,-0.751
1474141,7551.0,4349.0,1674.0,414.0,-158.0,656.0,0.193,-0.433,-0.466,-0.747
1474154,7511.0,4209.0,1676.0,409.0,-162.0,607.0,0.199,-0.436,-0.467,-0.744
1474177,7459.0,3727.0,1498.0,461.0,-141.0,581.0,0.205,-0.438,-0.468,-0.74
1474190,7195.0,4153.0,1184.0,508.0,-117.0,564.0,0.211,-0.44,-0.469,-0.736
1474213,7103.0,4307.0,1146.0,523.0,-102.0,560.0,0.217,-0.442,-0.471,-0.732
1474226,7189.0,4125.0,1212.0,501.0,-118.0,548.0,0.222,-0.444,-0.473,-0.728
1474249,7253.0,3789.0,1212.0,505.0,-109.0,524.0,0.228,-0.446,-0.475,-0.724
1474262,7287.0,3987.0,1284.0,516.0,-92.0,490.0,0.233,-0.448,-0.476,-0.72
1474285,7141.0,4021.0,1308.0,443.0,-107.0,478.0,0.238,-0.449,-0.478,-0.716
1474298,7191.0,3621.0,1108.0,431.0,-132.0,470.0,0.243,-0.451,-0.479,-0.713
1474311,7111.0,3723.0,1114.0,493.0,-99.0,483.0,0.248,-0.453,-0.481,-0.709
1474334,7085.0,4037.0,928.0,450.0,-86.0,465.0,0.253,-0.454,-0.483,-0.705
1474347,7013.0,3637.0,862.0,396.0,-63.0,502.0,0.258,-0.455,-0.483,-0.702
1474370,7105.0,3775.0,840.0,429.0,-48.0,506.0,0.264,-0.457,-0.484,-0.698
1474383,7093.0,3851.0,756.0,433.0,-50.0,518.0,0.269,-0.458,-0.486,-0.694
1474406,7367.0,3849.0,518.0,417.0,-56.0,534.0,0.274,-0.46,-0.486,-0.691
1474419,7501.0,3865.0,354.0,410.0,-57.0,546.0,0.279,-0.461,-0.487,-0.687
1474442,7589.0,3447.0,300.0,425.0,-77.0,554.0,0.285,-0.463,-0.488,-0.683
1474455,7711.0,3479.0,298.0,390.0,-51.0,579.0,0.29,-0.465,-0.489,-0.679
1474478,7829.0,3533.0,286.0,399.0,-59.0,550.0,0.295,-0.466,-0.489,-0.675
1474491,8073.0,3129.0,310.0,405.0,-42.0,532.0,0.301,-0.468,-0.49,-0.671
1474504,8073.0,3179.0,336.0,414.0,-30.0,521.0,0.306,-0.469,-0.491,-0.668
1474527,8235.0,3271.0,216.0,394.0,-51.0,498.0,0.311,-0.47,-0.491,-0.664
1474540,8263.0,3001.0,338.0,408.0,-57.0,500.0,0.316,-0.471,-0.492,-0.66
1474563,8211.0,2851.0,316.0,436.0,-61.0,462.0,0.321,-0.472,-0.493,-0.656
1474576,7991.0,2979.0,166.0,422.0,-51.0,423.0,0.326,-0.473,-0.495,-0.652
1474599,7945.0,2763.0,306.0,396.0,-74.0,385.0,0.33,-0.474,-0.496,-0.649
1474612,7867.0,2755.0,302.0,367.0,-78.0,356.0,0.334,-0.475,-0.497,-0.645
1474635,7889.0,2787.0,296.0,344.0,-91.0,327.0,0.337,-0.476,-0.498,-0.642
1474648,7821.0,2941.0,242.0,313.0,-92.0,285.0,0.34,-0.476,-0.5,-0.639
1474661,7937.0,2827.0,154.0,301.0,-109.0,262.0,0.343,-0.477,-0.501,-0.636
1474684,7787.0,2819.0,72.0,256.0,-122.0,243.0,0.345,-0.477,-0.502,-0.633
1474697,7887.0,2897.0,106.0,218.0,-115.0,224.0,0.347,-0.478,-0.503,-0.631
1474720,8957.0,2127.0,152.0,144.0,-265.0,-87.0,0.347,-0.479,-0.506,-0.629
1474733,7437.0,2989.0,418.0,138.0,-123.0,51.0,0.347,-0.479,-0.507,-0.627
1474756,7979.0,3053.0,256.0,118.0,-144.0,-6.0,0.348,-0.479,-0.509,-0.626
1474769,7789.0,3045.0,246.0,91.0,-134.0,6.0,0.348,-0.479,-0.51,-0.624
1474792,8035.0,2653.0,156.0,80.0,-152.0,-45.0,0.348,-0.479,-0.512,-0.623
1474805,7995.0,2387.0,156.0,106.0,-116.0,-80.0,0.348,-0.478,-0.513,-0.622
1474828,8051.0,2755.0,154.0,104.0,-114.0,-114.0,0.347,-0.478,-0.515,-0.621
1474841,8053.0,3151.0,134.0,73.0,-90.0,-99.0,0.347,-0.477,-0.517,-0.62
1474854,8007.0,3159.0,124.0,21.0,-97.0,-136.0,0.346,-0.477,-0.518,-0.62
1474877,7975.0,2809.0,242.0,27.0,-91.0,-162.0,0.346,-0.476,-0.52,-0.619
1474890,8005.0,2891.0,14.0,39.0,-71.0,-181.0,0.345,-0.475,-0.522,-0.619
1474913,7729.0,3189.0,146.0,3.0,-73.0,-166.0,0.344,-0.474,-0.523,-0.619
1474926,7855.0,2983.0,82.0,-1.0,-61.0,-154.0,0.344,-0.473,-0.525,-0.619
1474949,7715.0,3079.0,92.0,-21.0,-67.0,-131.0,0.343,-0.472,-0.526,-0.619
1474962,7671.0,3265.0,38.0,-23.0,-44.0,-102.0,0.343,-0.471,-0.527,-0.619
1474985,7709.0,2871.0,112.0,-40.0,-53.0,-51.0,0.343,-0.471,-0.527,-0.618
1474998,7777.0,3141.0,34.0,-27.0,-46.0,-23.0,0.343,-0.471,-0.528,-0.618
1475021,7861.0,3073.0,-12.0,-40.0,-33.0,6.0,0.343,-0.471,-0.528,-0.618
1475034,7817.0,3033.0,20.0,-47.0,-32.0,30.0,0.343,-0.471,-0.528,-0.617
1475047,7871.0,2953.0,-74.0,-59.0,-29.0,45.0,0.344,-0.471,-0.528,-0.617
1475070,7827.0,2829.0,-10.0,-39.0,-19.0,51.0,0.344,-0.471,-0.529,-0.617
1475083,7847.0,2811.0,-26.0,-29.0,-12.0,45.0,0.345,-0.471,-0.529,-0.616
1475106,7877.0,2805.0,56.0,-33.0,-9.0,57.0,0.345,-0.471,-0.529,-0.616
1475119,7815.0,2863.0,54.0,-58.0,-32.0,57.0,0.346,-0.471,-0.529,-0.616
1475142,7843.0,2805.0,-110.0,-103.0,-42.0,64.0,0.346,-0.472,-0.528,-0.615
1475155,7741.0,2777.0,-106.0,-122.0,-42.0,67.0,0.346,-0.472,-0.528,-0.615
1475178,7813.0,2697.0,-160.0,-180.0,-64.0,83.0,0.346,-0.473,-0.527,-0.615
1475191,7795.0,2685.0,-130.0,-171.0,-61.0,91.0,0.346,-0.474,-0.527,-0.615
1475204,7837.0,2703.0,-296.0,-169.0,-61.0,96.0,0.346,-0.475,-0.526,-0.615
1475227,7857.0,2611.0,-224.0,-153.0,-57.0,102.0,0.347,-0.476,-0.525,-0.614
1475240,7829.0,2639.0,-296.0,-159.0,-45.0,105.0,0.347,-0.477,-0.524,-0.614
1475263,7821.0,2591.0,-330.0,-178.0,-51.0,110.0,0.347,-0.478,-0.524,-0.614
1475276,7921.0,2559.0,-188.0,-176.0,-44.0,110.0,0.347,-0.479,-0.523,-0.614
1475299,7851.0,2513.0,-198.0,-156.0,-47.0,107.0,0.347,-0.48,-0.522,-0.614
1475312,7887.0,2527.0,-132.0,-150.0,-45.0,105.0,0.348,-0.48,-0.521,-0.614
1475335,7951.0,2505.0,-188.0,-164.0,-42.0,95.0,0.348,-0.481,-0.521,-0.614
1475348,7973.0,2577.0,-248.0,-159.0,-34.0,86.0,0.348,-0.482,-0.52,-0.614
1475371,7863.0,2207.0,-234.0,-144.0,28.0,74.0,0.348,-0.482,-0.519,-0.614
1475384,8025.0,2597.0,-236.0,-170.0,-34.0,53.0,0.348,-0.483,-0.518,-0.614
1475397,7959.0,2509.0,-178.0,-173.0,-35.0,40.0,0.348,-0.483,-0.518,-0.614
1475420,8001.0,2467.0,-134.0,-180.0,-33.0,20.0,0.348,-0.484,-0.517,-0.614
1475433,7943.0,2505.0,-262.0,-168.0,-29.0,7.0,0.347,-0.484,-0.517,-0.614
1475456,7961.0,2453.0,-106.0,-159.0,-44.0,-11.0,0.347,-0.485,-0.517,-0.615
1475469,7961.0,2459.0,-66.0,-166.0,-40.0,-28.0,0.347,-0.485,-0.516,-0.615
1475492,8055.0,2411.0,-132.0,-165.0,-28.0,-65.0,0.346,-0.485,-0.516,-0.616
1475505,7733.0,2539.0,-212.0,-141.0,-12.0,-78.0,0.345,-0.485,-0.516,-0.616
1475528,7823.0,2573.0,-240.0,-132.0,-6.0,-61.0,0.345,-0.484,-0.516,-0.616
1475541,7789.0,2597.0,-152.0,-130.0,-3.0,-45.0,0.344,-0.484,-0.516,-0.617
1475564,7851.0,2591.0,-110.0,-109.0,0.0,-30.0,0.344,-0.484,-0.516,-0.617
1475577,7775.0,2667.0,-140.0,-80.0,-6.0,-15.0,0.344,-0.484,-0.516,-0.617
1475600,7829.0,2606.0,3.0,-73.0,8.0,-9.0,0.344,-0.484,-0.516,-0.617
1475613,7871.0,2659.0,15.0,-79.0,10.0,-7.0,0.345,-0.483,-0.516,-0.617
1475626,7893.0,2650.0,-111.0,-69.0,12.0,-23.0,0.345,-0.483,-0.516,-0.617
1475649,8036.0,2589.0,-57.0,-34.0,14.0,-49.0,0.345,-0.482,-0.517,-0.617
1475662,8024.0,2768.0,-37.0,-8.0,4.0,-76.0,0.345,-0.482,-0.518,-0.617
1475685,7904.0,3322.0,-338.0,-96.0,19.0,-53.0,0.345,-0.481,-0.518,-0.618
1475698,8018.0,3274.0,-166.0,-168.0,-30.0,-32.0,0.344,-0.481,-0.518,-0.618
1475721,7994.0,3148.0,154.0,-174.0,-60.0,-52.0,0.343,-0.481,-0.518,-0.619
1475734,8304.0,3062.0,50.0,-156.0,-48.0,-60.0,0.343,-0.481,-0.518,-0.619
1475747,8196.0,3688.0,-12.0,-82.0,17.0,-127.0,0.342,-0.48,-0.518,-0.62
1475770,8092.0,3536.0,594.0,-69.0,43.0,-150.0,0.342,-0.479,-0.519,-0.62
1475783,8710.0,4100.0,912.0,60.0,125.0,-242.0,0.342,-0.477,-0.52,-0.621
1475806,8308.0,5060.0,754.0,19.0,179.0,-345.0,0.341,-0.473,-0.522,-0.622
1475819,8294.0,5708.0,954.0,2.0,286.0,-779.0,0.338,-0.468,-0.525,-0.626
1475842,9026.0,6108.0,1866.0,20.0,345.0,-1315.0,0.333,-0.459,-0.53,-0.631
1475855,9248.0,6354.0,1682.0,-178.0,451.0,-1571.0,0.326,-0.448,-0.534,-0.638
1475878,9546.0,6256.0,2012.0,-205.0,545.0,-1883.0,0.317,-0.436,-0.54,-0.647
1475896,9762.0,7168.0,2282.0,-205.0,652.0,-2245.0,0.306,-0.421,-0.546,-0.657
1475909,9786.0,7130.0,1842.0,-221.0,755.0,-2602.0,0.293,-0.403,-0.553,-0.668
1475932,9840.0,7802.0,1340.0,-256.0,824.0,-2879.0,0.279,-0.383,-0.56,-0.68
1475945,9982.0,8088.0,1354.0,-444.0,909.0,-3167.0,0.263,-0.362,-0.566,-0.693
1475958,10020.0,7664.0,1164.0,-548.0,1044.0,-3400.0,0.244,-0.338,-0.571,-0.707
1475981,9638.0,8492.0,896.0,-624.0,1155.0,-3551.0,0.225,-0.312,-0.575,-0.722
1475994,9326.0,8374.0,886.0,-677.0,1205.0,-3704.0,0.205,-0.286,-0.579,-0.736
1476017,8548.0,8306.0,1108.0,-596.0,1309.0,-3804.0,0.185,-0.257,-0.582,-0.749
1476030,7412.0,8404.0,1026.0,-488.0,1303.0,-3886.0,0.164,-0.227,-0.585,-0.761
1476053,6568.0,9228.0,1462.0,-588.0,1257.0,-3952.0,0.141,-0.197,-0.587,-0.772
1476066,5986.0,7792.0,1764.0,-805.0,1210.0,-3975.0,0.118,-0.168,-0.587,-0.784
1476089,5030.0,7512.0,1378.0,-677.0,1282.0,-3916.0,0.095,-0.137,-0.586,-0.793
1476102,4066.0,7590.0,1572.0,-611.0,1259.0,-3759.0,0.074,-0.108,-0.585,-0.8
1476115,3318.0,7618.0,790.0,-610.0,1133.0,-3646.0,0.053,-0.081,-0.583,-0.807
1476138,3088.0,6646.0,1676.0,-447.0,1078.0,-3754.0,0.03,-0.053,-0.582,-0.811
1476151,2760.0,7034.0,1570.0,-524.0,1005.0,-3887.0,0.006,-0.025,-0.579,-0.815
1476174,2066.0,6498.0,1370.0,-660.0,922.0,-3800.0,0.018,-0.003,0.575,0.818
1476187,1526.0,5384.0,1456.0,-625.0,852.0,-3684.0,0.041,-0.029,0.569,0.82
1476210,1288.0,6148.0,1636.0,-391.0,747.0,-3573.0,0.065,-0.053,0.566,0.82
1476223,418.0,5734.0,1538.0,-664.0,709.0,-3474.0,0.088,-0.077,0.559,0.821
1476246,310.0,5356.0,1554.0,-480.0,585.0,-3409.0,0.111,-0.099,0.553,0.82
1476259,-210.0,4360.0,1184.0,-315.0,517.0,-3129.0,0.132,-0.12,0.548,0.817
1476282,-438.0,5058.0,1682.0,-153.0,448.0,-2834.0,0.151,-0.137,0.544,0.814
1476295,-636.0,5400.0,1822.0,-432.0,294.0,-2581.0,0.169,-0.153,0.538,0.812
1476308,-1224.0,3766.0,1658.0,-437.0,169.0,-2438.0,0.186,-0.167,0.531,0.809
1476331,-1272.0,4168.0,1594.0,-194.0,163.0,-2250.0,0.203,-0.179,0.526,0.806
1476344,-1572.0,5034.0,2024.0,-268.0,216.0,-1937.0,0.216,-0.19,0.522,0.803
1476367,-2558.0,3898.0,1652.0,-444.0,52.0,-1834.0,0.229,-0.2,0.515,0.801
1476380,-2246.0,4164.0,1876.0,-338.0,-27.0,-1953.0,0.244,-0.21,0.509,0.798
1476403,-2464.0,4086.0,1750.0,-195.0,-29.0,-1879.0,0.258,-0.218,0.504,0.795
1476416,-2834.0,3532.0,1932.0,-110.0,-21.0,-1748.0,0.271,-0.226,0.499,0.791
1476439,-3186.0,3800.0,1980.0,-133.0,-43.0,-1505.0,0.283,-0.233,0.495,0.788
1476452,-3640.0,3404.0,2110.0,-131.0,-96.0,-1283.0,0.293,-0.238,0.491,0.785
1476475,-3940.0,1942.0,2358.0,30.0,-148.0,-1075.0,0.302,-0.241,0.489,0.782
1476488,-4400.0,2442.0,2490.0,238.0,-85.0,-874.0,0.31,-0.244,0.489,0.778
1476501,-5044.0,2428.0,2728.0,176.0,-115.0,-472.0,0.315,-0.244,0.489,0.776
1476524,-5492.0,1666.0,3074.0,124.0,-124.0,-184.0,0.317,-0.243,0.489,0.775
1476537,-5492.0,1514.0,3236.0,136.0,-50.0,228.0,0.317,-0.241,0.49,0.775
1476560,-5802.0,1348.0,3822.0,114.0,46.0,610.0,0.313,-0.238,0.493,0.776
1476573,-5928.0,1358.0,3466.0,81.0,72.0,924.0,0.307,-0.233,0.496,0.778
1476596,-5620.0,1450.0,3568.0,202.0,30.0,1202.0,0.299,-0.227,0.5,0.78
1476609,-5278.0,1930.0,3186.0,288.0,27.0,1539.0,0.289,-0.218,0.506,0.783
1476632,-4936.0,2172.0,3188.0,365.0,-9.0,1823.0,0.277,-0.208,0.512,0.786
1476645,-4568.0,2464.0,2708.0,491.0,-71.0,2106.0,0.264,-0.196,0.52,0.789
1476658,-3804.0,2690.0,2772.0,662.0,-122.0,2363.0,0.249,-0.181,0.529,0.791
1476681,-3302.0,3664.0,2844.0,715.0,-187.0,2645.0,0.232,-0.165,0.538,0.794
1476694,-2788.0,4878.0,2950.0,635.0,-236.0,2832.0,0.214,-0.147,0.546,0.796
1476717,-2172.0,4144.0,1608.0,698.0,-361.0,2818.0,0.196,-0.128,0.555,0.798
1476730,-1490.0,4736.0,1250.0,826.0,-342.0,2840.0,0.178,-0.108,0.563,0.799
1476753,-1000.0,6724.0,2548.0,599.0,-329.0,2878.0,0.16,-0.089,0.57,0.801
1476766,-46.0,7326.0,1996.0,362.0,-466.0,2913.0,0.141,-0.069,0.575,0.803
1476789,-182.0,5876.0,1766.0,527.0,-397.0,2983.0,0.122,-0.048,0.58,0.804
1476802,904.0,9318.0,1442.0,896.0,-355.0,2895.0,0.103,-0.029,0.587,0.802
1476825,422.0,7794.0,2576.0,444.0,-380.0,2903.0,0.084,-0.009,0.591,0.803
1476838,1430.0,9856.0,2328.0,304.0,-360.0,2873.0,0.065,0.01,0.593,0.803
1476851,1128.0,8816.0,1974.0,423.0,-363.0,2826.0,0.046,0.029,0.595,0.802
1476874,1698.0,8658.0,2196.0,600.0,-373.0,2705.0,0.028,0.048,0.598,0.799
1476887,1804.0,9374.0,1324.0,460.0,-316.0,2681.0,0.01,0.066,0.6,0.797
1476910,1480.0,9334.0,2392.0,77.0,-343.0,2619.0,0.007,-0.083,-0.599,-0.796
1476923,2770.0,8622.0,2726.0,83.0,-435.0,2353.0,0.022,-0.1,-0.598,-0.795
1476946,3290.0,7552.0,2302.0,357.0,-390.0,2323.0,0.038,-0.116,-0.598,-0.792
1476959,2490.0,7806.0,2332.0,509.0,-297.0,2422.0,0.054,-0.132,-0.599,-0.788
1476982,2590.0,10868.0,1562.0,52.0,-395.0,2306.0,0.069,-0.148,-0.597,-0.786
1476995,3032.0,7080.0,2008.0,-358.0,-501.0,2101.0,0.081,-0.164,-0.591,-0.786
1477018,5130.0,7946.0,1898.0,202.0,-535.0,2127.0,0.094,-0.179,-0.59,-0.782
1477031,4116.0,6918.0,1124.0,191.0,-420.0,2119.0,0.107,-0.194,-0.588,-0.778
1477044,4138.0,7240.0,2196.0,17.0,-334.0,2145.0,0.121,-0.208,-0.584,-0.775
1477067,4496.0,7568.0,1432.0,135.0,-418.0,2260.0,0.135,-0.224,-0.581,-0.771
1477080,4704.0,6340.0,1588.0,518.0,-391.0,2240.0,0.15,-0.238,-0.581,-0.764
1477103,5468.0,7818.0,1540.0,301.0,-385.0,2016.0,0.163,-0.251,-0.579,-0.759
1477116,6086.0,6798.0,1368.0,-196.0,-550.0,2010.0,0.174,-0.266,-0.573,-0.755
1477139,6480.0,5800.0,1186.0,-113.0,-498.0,2096.0,0.186,-0.281,-0.568,-0.751
1477152,6816.0,6104.0,1204.0,326.0,-516.0,2065.0,0.198,-0.295,-0.566,-0.744
1477175,6630.0,6500.0,424.0,523.0,-338.0,1855.0,0.211,-0.307,-0.565,-0.737
1477188,7052.0,6470.0,1588.0,339.0,-374.0,1725.0,0.222,-0.318,-0.563,-0.73
1477201,7598.0,5776.0,860.0,143.0,-421.0,1774.0,0.232,-0.329,-0.559,-0.724
1477224,7178.0,5590.0,1096.0,253.0,-334.0,1758.0,0.243,-0.34,-0.556,-0.718
1477237,7492.0,5712.0,1038.0,436.0,-358.0,1671.0,0.254,-0.35,-0.555,-0.711
1477260,7130.0,5286.0,1238.0,450.0,-347.0,1700.0,0.265,-0.36,-0.553,-0.703
1477273,7502.0,5302.0,1040.0,383.0,-348.0,1699.0,0.275,-0.37,-0.551,-0.696
1477296,7382.0,5430.0,766.0,242.0,-331.0,1783.0,0.286,-0.381,-0.547,-0.688
1477309,7942.0,4704.0,-152.0,255.0,-292.0,1742.0,0.297,-0.391,-0.543,-0.681
1477332,7690.0,5096.0,-206.0,521.0,-142.0,1624.0,0.308,-0.399,-0.541,-0.674
1477345,7900.0,4076.0,792.0,468.0,-197.0,1472.0,0.318,-0.406,-0.539,-0.666
1477368,7916.0,4734.0,1246.0,316.0,-207.0,1342.0,0.327,-0.413,-0.536,-0.659
1477381,7792.0,4140.0,1438.0,76.0,-322.0,1306.0,0.334,-0.421,-0.533,-0.654
1477394,8026.0,4766.0,378.0,-18.0,-316.0,1213.0,0.34,-0.429,-0.529,-0.649
1477417,8416.0,4102.0,546.0,130.0,-302.0,1131.0,0.346,-0.436,-0.526,-0.643
1477430,8078.0,4906.0,800.0,75.0,-287.0,983.0,0.351,-0.442,-0.524,-0.638
1477453,8498.0,4742.0,940.0,-46.0,-366.0,856.0,0.354,-0.448,-0.521,-0.634
1477466,8212.0,4810.0,958.0,-97.0,-367.0,663.0,0.356,-0.454,-0.519,-0.63
1477489,8348.0,5538.0,1230.0,-107.0,-290.0,429.0,0.357,-0.458,-0.518,-0.628
1477502,8124.0,5578.0,2126.0,-166.0,-218.0,225.0,0.357,-0.461,-0.517,-0.627
1477525,8250.0,6652.0,1638.0,-169.0,-84.0,-5.0,0.356,-0.461,-0.517,-0.627
1477538,8352.0,5810.0,1956.0,-138.0,-37.0,-226.0,0.354,-0.461,-0.517,-0.628
1477561,8046.0,7242.0,1986.0,-255.0,101.0,-503.0,0.351,-0.458,-0.518,-0.631
1477574,8608.0,6728.0,2094.0,-286.0,250.0,-781.0,0.346,-0.454,-0.519,-0.636
1477587,8512.0,6540.0,2472.0,-246.0,387.0,-1125.0,0.341,-0.447,-0.521,-0.642
1477610,8686.0,7016.0,2314.0,-275.0,520.0,-1478.0,0.334,-0.437,-0.524,-0.65
1477623,8808.0,7042.0,2384.0,-344.0,605.0,-1777.0,0.325,-0.426,-0.528,-0.66
1477646,9170.0,6806.0,2338.0,-370.0,684.0,-2079.0,0.314,-0.412,-0.532,-0.67
1477659,8964.0,7548.0,2112.0,-401.0,742.0,-2348.0,0.302,-0.397,-0.536,-0.681
1477682,9374.0,7112.0,2074.0,-478.0,788.0,-2636.0,0.287,-0.379,-0.54,-0.694
1477695,9346.0,7748.0,1710.0,-532.0,886.0,-2859.0,0.272,-0.36,-0.545,-0.707
1477718,9416.0,7902.0,1368.0,-630.0,952.0,-3094.0,0.254,-0.34,-0.548,-0.721
1477731,9966.0,7954.0,1734.0,-632.0,981.0,-3370.0,0.235,-0.317,-0.552,-0.734
1477744,9984.0,7830.0,968.0,-655.0,1032.0,-3617.0,0.214,-0.292,-0.556,-0.748
1477767,9616.0,7500.0,1050.0,-595.0,1135.0,-3730.0,0.192,-0.266,-0.56,-0.761
1477780,9012.0,7506.0,1330.0,-432.0,1195.0,-3836.0,0.17,-0.238,-0.564,-0.773
1477803,7620.0,7886.0,1542.0,-313.0,1229.0,-3918.0,0.148,-0.208,-0.568,-0.782
1477816,6564.0,7618.0,1126.0,-337.0,1185.0,-3851.0,0.126,-0.18,-0.571,-0.791
1477839,5348.0,7176.0,1004.0,-324.0,1152.0,-3723.0,0.104,-0.152,-0.573,-0.798
1477852,5062.0,7036.0,1166.0,-205.0,1130.0,-3595.0,0.084,-0.125,-0.576,-0.804
1477875,3808.0,6508.0,824.0,-205.0,1012.0,-3621.0,0.062,-0.098,-0.577,-0.808
1477888,3584.0,5634.0,1512.0,-206.0,961.0,-3591.0,0.04,-0.072,-0.578,-0.812
1477906,2876.0,6760.0,1158.0,-101.0,948.0,-3476.0,0.019,-0.046,-0.579,-0.814
1477929,2176.0,6086.0,1696.0,-285.0,947.0,-3400.0,0.002,0.021,0.578,0.816
1477942,1800.0,6104.0,1466.0,-274.0,866.0,-3412.0,0.023,-0.004,0.576,0.817
1477965,1684.0,6336.0,1522.0,-169.0,793.0,-3284.0,0.044,-0.027,0.575,0.817
1477978,1044.0,6266.0,1570.0,-199.0,753.0,-3180.0,0.065,-0.05,0.573,0.816
1477991,694.0,5932.0,1576.0,-308.0,649.0,-3062.0,0.084,-0.071,0.569,0.815
1478014,30.0,5722.0,1540.0,-244.0,537.0,-2842.0,0.103,-0.09,0.565,0.813
1478027,40.0,5950.0,1706.0,-158.0,622.0,-2772.0,0.121,-0.109,0.562,0.811
1478050,-910.0,5752.0,1646.0,-62.0,560.0,-2728.0,0.139,-0.128,0.56,0.807
1478063,-1334.0,4450.0,1292.0,-283.0,407.0,-2632.0,0.157,-0.144,0.555,0.804
1478086,-2050.0,5188.0,1520.0,-70.0,362.0,-2462.0,0.174,-0.159,0.551,0.8
1478099,-2354.0,5392.0,1378.0,29.0,221.0,-2492.0,0.191,-0.174,0.548,0.795
1478112,-2800.0,4014.0,1686.0,93.0,118.0,-2435.0,0.209,-0.186,0.545,0.79
1478135,-2462.0,4830.0,1894.0,27.0,58.0,-2459.0,0.228,-0.199,0.541,0.785
1478148,-3264.0,3104.0,1746.0,-71.0,-10.0,-2240.0,0.244,-0.21,0.536,0.78
1478171,-3132.0,3110.0,1888.0,29.0,-77.0,-2095.0,0.261,-0.219,0.532,0.775
1478184,-3568.0,2812.0,2122.0,99.0,-105.0,-1724.0,0.274,-0.226,0.529,0.77
1478207,-4214.0,2330.0,2382.0,11.0,-132.0,-1407.0,0.286,-0.232,0.526,0.767
1478220,-4354.0,2018.0,2396.0,-4.0,-168.0,-1061.0,0.295,-0.235,0.524,0.764
1478243,-4858.0,842.0,2910.0,126.0,-156.0,-662.0,0.301,-0.237,0.523,0.762
1478256,-5210.0,624.0,1926.0,152.0,-185.0,-233.0,0.304,-0.235,0.523,0.761
1478279,-5596.0,1014.0,2474.0,-58.0,-163.0,287.0,0.304,-0.233,0.523,0.762
1478292,-6004.0,610.0,2902.0,-157.0,-188.0,645.0,0.3,-0.228,0.523,0.765
1478305,-5850.0,538.0,2986.0,-46.0,-259.0,1031.0,0.295,-0.221,0.524,0.768
1478328,-5346.0,1106.0,3262.0,63.0,-316.0,1512.0,0.286,-0.21,0.527,0.772
1478341,-5102.0,1542.0,3170.0,182.0,-335.0,1941.0,0.275,-0.197,0.531,0.777
1478364,-4782.0,2294.0,2580.0,417.0,-351.0,2237.0,0.262,-0.182,0.538,0.781
1478377,-4186.0,2918.0,2738.0,520.0,-362.0,2449.0,0.247,-0.165,0.545,0.784
1478400,-3262.0,3870.0,2220.0,594.0,-354.0,2638.0,0.231,-0.147,0.552,0.787
1478413,-2768.0,4830.0,2360.0,422.0,-295.0,2815.0,0.213,-0.129,0.558,0.791
1478436,-2392.0,5680.0,2960.0,373.0,-295.0,2766.0,0.196,-0.111,0.564,0.795
1478449,-1366.0,5744.0,2382.0,418.0,-235.0,2753.0,0.177,-0.094,0.569,0.797
1478472,-1236.0,5480.0,1686.0,287.0,-204.0,2807.0,0.158,-0.076,0.573,0.8
1478485,122.0,7106.0,2524.0,414.0,-259.0,2788.0,0.14,-0.058,0.578,0.802
1478508,-182.0,6986.0,2050.0,245.0,-144.0,2975.0,0.119,-0.04,0.581,0.804
1478521,906.0,8544.0,3078.0,424.0,-268.0,2856.0,0.099,-0.021,0.585,0.805
1478534,1430.0,8234.0,1988.0,331.0,-256.0,3023.0,0.078,-0.002,0.587,0.806
1478557,1494.0,7788.0,2582.0,477.0,-254.0,3025.0,0.057,0.018,0.59,0.805
1478570,1998.0,8540.0,1648.0,417.0,-290.0,3009.0,0.036,0.037,0.593,0.804
1478593,1684.0,8092.0,2316.0,431.0,-283.0,2919.0,0.016,0.056,0.595,0.802
1478606,3018.0,9108.0,2542.0,635.0,-364.0,2753.0,0.003,-0.075,-0.598,-0.798
1478629,2714.0,9088.0,2202.0,620.0,-234.0,2745.0,0.022,-0.092,-0.6,-0.794
1478642,2736.0,8504.0,1038.0,417.0,-273.0,2582.0,0.04,-0.109,-0.601,-0.791
1478665,3194.0,8144.0,1832.0,232.0,-337.0,2551.0,0.057,-0.126,-0.6,-0.788
1478678,3766.0,8178.0,1578.0,444.0,-363.0,2445.0,0.073,-0.142,-0.601,-0.783
1478691,3778.0,8014.0,1788.0,711.0,-293.0,2362.0,0.089,-0.157,-0.603,-0.777
1478714,4190.0,8608.0,1232.0,783.0,-185.0,2345.0,0.106,-0.172,-0.605,-0.77
1478727,3626.0,8054.0,1098.0,198.0,-168.0,2507.0,0.123,-0.187,-0.602,-0.766
1478750,4744.0,7390.0,1604.0,138.0,-300.0,2423.0,0.139,-0.203,-0.599,-0.762
1478763,5332.0,6682.0,1184.0,428.0,-390.0,2406.0,0.155,-0.219,-0.598,-0.755
1478786,5264.0,7778.0,652.0,635.0,-205.0,2336.0,0.171,-0.232,-0.598,-0.748
1478799,5368.0,7618.0,1856.0,346.0,-293.0,2169.0,0.185,-0.246,-0.596,-0.742
1478822,6036.0,6376.0,690.0,28.0,-431.0,2350.0,0.199,-0.262,-0.591,-0.736
1478835,5830.0,6804.0,770.0,331.0,-303.0,2398.0,0.215,-0.277,-0.588,-0.729
1478848,6264.0,5892.0,592.0,568.0,-341.0,2154.0,0.229,-0.29,-0.587,-0.72
1478871,7436.0,7478.0,792.0,604.0,-369.0,1988.0,0.242,-0.302,-0.587,-0.712
1478884,7238.0,6082.0,860.0,214.0,-294.0,1970.0,0.254,-0.314,-0.583,-0.705
1478907,7522.0,6082.0,1028.0,88.0,-305.0,2022.0,0.266,-0.327,-0.578,-0.699
1478920,7492.0,6036.0,966.0,311.0,-330.0,2024.0,0.278,-0.34,-0.575,-0.691
1478943,7660.0,6154.0,600.0,338.0,-389.0,1947.0,0.289,-0.352,-0.572,-0.682
1478956,7610.0,6356.0,590.0,174.0,-445.0,1795.0,0.299,-0.364,-0.568,-0.675
1478979,8040.0,5992.0,288.0,-136.0,-542.0,1709.0,0.306,-0.376,-0.563,-0.669
1478992,8522.0,5066.0,582.0,-84.0,-471.0,1668.0,0.314,-0.388,-0.558,-0.663
1479015,8186.0,5336.0,822.0,24.0,-353.0,1552.0,0.322,-0.398,-0.553,-0.657
1479028,8092.0,5948.0,374.0,63.0,-386.0,1399.0,0.329,-0.408,-0.55,-0.651
1479041,7894.0,5880.0,1104.0,-36.0,-375.0,1257.0,0.335,-0.416,-0.546,-0.645
1479064,8188.0,5640.0,1192.0,-192.0,-411.0,1101.0,0.339,-0.425,-0.542,-0.641
1479077,8094.0,5230.0,1134.0,-162.0,-371.0,916.0,0.342,-0.432,-0.539,-0.637
1479100,7890.0,6040.0,1000.0,-218.0,-327.0,667.0,0.344,-0.438,-0.536,-0.635
1479113,7454.0,5810.0,1146.0,-227.0,-247.0,418.0,0.344,-0.442,-0.534,-0.633
1479136,7722.0,6312.0,1686.0,-260.0,-176.0,191.0,0.344,-0.445,-0.532,-0.633
1479149,7776.0,6122.0,1464.0,-260.0,-64.0,13.0,0.343,-0.446,-0.531,-0.634
1479172,7722.0,6146.0,1744.0,-232.0,99.0,-204.0,0.341,-0.445,-0.531,-0.636
1479185,7994.0,6736.0,1220.0,-190.0,271.0,-444.0,0.339,-0.441,-0.531,-0.639
1479198,8288.0,5946.0,1704.0,-189.0,353.0,-769.0,0.336,-0.436,-0.532,-0.644
1479221,8600.0,7446.0,1938.0,-54.0,510.0,-1153.0,0.332,-0.427,-0.535,-0.649
1479234,9120.0,7378.0,2938.0,-42.0,561.0,-1649.0,0.325,-0.415,-0.539,-0.657
1479257,9190.0,7266.0,2662.0,-172.0,677.0,-1994.0,0.315,-0.401,-0.544,-0.666
1479270,9202.0,7904.0,2352.0,-304.0,714.0,-2319.0,0.304,-0.386,-0.549,-0.677
1479293,9182.0,7914.0,1936.0,-461.0,715.0,-2600.0,0.289,-0.369,-0.553,-0.688
1479306,9178.0,8002.0,1556.0,-425.0,797.0,-2804.0,0.274,-0.35,-0.558,-0.701
1479329,8796.0,8508.0,1132.0,-414.0,811.0,-2998.0,0.258,-0.33,-0.563,-0.713
1479342,8498.0,8434.0,648.0,-478.0,823.0,-3142.0,0.24,-0.309,-0.567,-0.725
1479365,8346.0,8720.0,994.0,-436.0,835.0,-3256.0,0.221,-0.287,-0.572,-0.736
1479378,8242.0,7910.0,1288.0,-301.0,902.0,-3521.0,0.201,-0.262,-0.577,-0.747
1479391,7764.0,7952.0,1628.0,-251.0,984.0,-3572.0,0.181,-0.236,-0.582,-0.757
1479414,7056.0,8002.0,1718.0,-236.0,1031.0,-3639.0,0.161,-0.209,-0.586,-0.766
1479427,6222.0,8452.0,1236.0,-248.0,971.0,-3688.0,0.14,-0.182,-0.59,-0.774
1479450,5580.0,7448.0,1728.0,-266.0,910.0,-3767.0,0.117,-0.155,-0.593,-0.782
1479463,5318.0,8282.0,1310.0,-272.0,839.0,-3746.0,0.094,-0.128,-0.595,-0.788
1479486,4168.0,7318.0,1456.0,-398.0,770.0,-3728.0,0.071,-0.103,-0.596,-0.794
1479499,3940.0,7074.0,1350.0,-355.0,770.0,-3623.0,0.048,-0.078,-0.596,-0.798
1479522,3366.0,7782.0,1292.0,-283.0,740.0,-3665.0,0.025,-0.052,-0.596,-0.801
1479535,2852.0,6264.0,1694.0,-435.0,676.0,-3643.0,0.002,-0.027,-0.594,-0.804
1479558,2770.0,6950.0,1666.0,-402.0,683.0,-3625.0,0.022,0.003,0.591,0.806
1479571,1930.0,6932.0,1190.0,-372.0,586.0,-3521.0,0.045,-0.021,0.588,0.807
1479584,1544.0,6654.0,1366.0,-395.0,494.0,-3410.0,0.068,-0.043,0.585,0.807
1479607,576.0,5362.0,1286.0,-403.0,404.0,-3299.0,0.091,-0.064,0.58,0.807
1479620,600.0,6158.0,1472.0,-329.0,396.0,-3198.0,0.113,-0.085,0.576,0.805
1479643,-96.0,5526.0,1844.0,-371.0,365.0,-2985.0,0.133,-0.104,0.571,0.803
1479656,-558.0,5318.0,1330.0,-382.0,255.0,-2815.0,0.153,-0.121,0.566,0.801
1479679,-812.0,5096.0,1256.0,-266.0,215.0,-2654.0,0.171,-0.136,0.561,0.798
1479692,-1444.0,4486.0,2054.0,-306.0,186.0,-2446.0,0.189,-0.151,0.556,0.796
1479715,-1418.0,5144.0,2108.0,-140.0,169.0,-2342.0,0.205,-0.164,0.552,0.792
1479728,-2360.0,4908.0,1830.0,-246.0,132.0,-2193.0,0.221,-0.176,0.547,0.788
1479741,-2814.0,3670.0,1412.0,-310.0,40.0,-2258.0,0.237,-0.188,0.541,0.785
1479764,-2718.0,4152.0,1912.0,-178.0,63.0,-2234.0,0.253,-0.2,0.536,0.78
1479777,-3528.0,3394.0,1872.0,-250.0,3.0,-2097.0,0.269,-0.21,0.53,0.776
1479800,-3556.0,3044.0,2070.0,-364.0,-6.0,-1918.0,0.282,-0.22,0.524,0.773
1479813,-4008.0,2248.0,1996.0,-207.0,-13.0,-1553.0,0.294,-0.228,0.519,0.77
1479836,-4592.0,1374.0,2314.0,-161.0,-6.0,-1251.0,0.303,-0.234,0.515,0.767
1479849,-4596.0,1876.0,1814.0,-231.0,21.0,-906.0,0.309,-0.239,0.512,0.765
1479872,-5312.0,1478.0,2856.0,-689.0,50.0,-380.0,0.311,-0.242,0.506,0.767
1479885,-5376.0,86.0,1756.0,-704.0,-21.0,-20.0,0.31,-0.244,0.501,0.77
1479913,-5020.0,368.0,3154.0,-419.0,-69.0,562.0,0.306,-0.241,0.5,0.774
1479926,-5248.0,-80.0,3110.0,-368.0,-189.0,1137.0,0.299,-0.235,0.499,0.779
1479939,-5386.0,128.0,2734.0,-203.0,-328.0,1599.0,0.289,-0.225,0.5,0.785
1479952,-5406.0,176.0,2680.0,79.0,-429.0,1975.0,0.277,-0.212,0.504,0.79
1479975,-4862.0,1368.0,2564.0,529.0,-497.0,2263.0,0.264,-0.196,0.511,0.794
1479988,-4612.0,2278.0,2538.0,540.0,-438.0,2597.0,0.249,-0.178,0.519,0.798
1480011,-4136.0,2862.0,2332.0,618.0,-498.0,2748.0,0.233,-0.159,0.527,0.802
1480024,-3180.0,3536.0,2408.0,648.0,-471.0,2805.0,0.216,-0.14,0.535,0.805
1480047,-2300.0,5268.0,2574.0,762.0,-383.0,2891.0,0.197,-0.12,0.543,0.807
1480060,-1978.0,6646.0,2354.0,468.0,-343.0,2875.0,0.179,-0.102,0.549,0.81
1480083,-1182.0,5754.0,2184.0,251.0,-378.0,2888.0,0.159,-0.083,0.553,0.813
1480096,-270.0,5152.0,2842.0,307.0,-423.0,2883.0,0.141,-0.064,0.557,0.816
1480109,902.0,6708.0,2364.0,745.0,-384.0,2955.0,0.121,-0.045,0.564,0.816
1480132,812.0,8696.0,2970.0,744.0,-372.0,3030.0,0.101,-0.024,0.57,0.815
1480145,950.0,7356.0,2710.0,244.0,-476.0,2974.0,0.081,-0.004,0.572,0.816
1480168,1886.0,7936.0,2874.0,856.0,-536.0,2944.0,0.061,0.017,0.578,0.814
1480181,1386.0,6718.0,1838.0,865.0,-360.0,3180.0,0.04,0.038,0.583,0.81
1480204,1848.0,9132.0,2618.0,1410.0,-420.0,2868.0,0.02,0.058,0.593,0.803
1480217,2368.0,10868.0,1714.0,401.0,-567.0,3026.0,0.001,0.079,0.594,0.801
1480240,2368.0,7444.0,2232.0,-39.0,-563.0,2986.0,0.018,-0.1,-0.591,-0.8
1480253,3486.0,8394.0,2040.0,461.0,-660.0,2897.0,0.037,-0.121,-0.591,-0.796
1480276,3508.0,7192.0,1020.0,856.0,-464.0,2712.0,0.055,-0.14,-0.595,-0.79
1480289,3960.0,9596.0,2626.0,907.0,-249.0,2393.0,0.072,-0.155,-0.598,-0.783
1480312,4448.0,9356.0,1740.0,481.0,-525.0,2652.0,0.089,-0.173,-0.598,-0.778
1480325,4128.0,7428.0,1678.0,513.0,-442.0,2655.0,0.107,-0.191,-0.598,-0.771
1480338,5036.0,7910.0,1544.0,848.0,-462.0,2456.0,0.123,-0.207,-0.6,-0.763
1480361,5292.0,8726.0,1344.0,868.0,-399.0,2312.0,0.139,-0.222,-0.602,-0.755
1480374,5228.0,7954.0,1470.0,487.0,-288.0,2366.0,0.155,-0.237,-0.6,-0.748
1480397,5248.0,7284.0,626.0,306.0,-278.0,2555.0,0.172,-0.253,-0.597,-0.742
1480410,5866.0,7024.0,1010.0,694.0,-300.0,2477.0,0.189,-0.267,-0.596,-0.733
1480433,6818.0,7300.0,270.0,704.0,-335.0,2260.0,0.204,-0.281,-0.596,-0.724
1480446,6802.0,7186.0,1200.0,415.0,-228.0,2079.0,0.218,-0.293,-0.594,-0.717
1480469,7086.0,6456.0,448.0,211.0,-279.0,2190.0,0.231,-0.307,-0.589,-0.71
1480482,6898.0,6374.0,762.0,543.0,-196.0,2193.0,0.246,-0.319,-0.587,-0.702
1480495,7038.0,5880.0,274.0,554.0,-241.0,2194.0,0.261,-0.331,-0.585,-0.693
1480518,7334.0,7542.0,506.0,421.0,-240.0,2102.0,0.275,-0.343,-0.581,-0.685
1480531,7578.0,5444.0,746.0,53.0,-282.0,2058.0,0.286,-0.356,-0.576,-0.678
1480554,8086.0,5646.0,1018.0,147.0,-248.0,2134.0,0.299,-0.369,-0.57,-0.67
1480567,7710.0,5940.0,468.0,160.0,-292.0,2037.0,0.311,-0.381,-0.565,-0.663
1480590,7716.0,5464.0,-58.0,221.0,-291.0,1933.0,0.322,-0.392,-0.56,-0.655
1480603,8120.0,5116.0,764.0,131.0,-273.0,1772.0,0.332,-0.402,-0.556,-0.647
1480626,8676.0,5514.0,630.0,34.0,-260.0,1669.0,0.341,-0.412,-0.55,-0.641
1480639,8448.0,5270.0,376.0,33.0,-265.0,1477.0,0.349,-0.421,-0.546,-0.635
1480652,8430.0,5088.0,616.0,-3.0,-261.0,1271.0,0.355,-0.429,-0.542,-0.629
1480675,8346.0,5366.0,740.0,-235.0,-328.0,1040.0,0.359,-0.437,-0.538,-0.625
1480688,8660.0,5142.0,936.0,-339.0,-307.0,779.0,0.361,-0.443,-0.534,-0.623
1480711,8178.0,5474.0,1084.0,-330.0,-276.0,507.0,0.362,-0.448,-0.531,-0.622
1480724,7582.0,5734.0,1536.0,-323.0,-207.0,296.0,0.361,-0.452,-0.529,-0.621
1480747,7426.0,6796.0,1508.0,-433.0,-182.0,2.0,0.359,-0.454,-0.527,-0.622
1480760,7558.0,6234.0,1610.0,-458.0,-72.0,-223.0,0.356,-0.455,-0.526,-0.625
1480783,7502.0,6954.0,1378.0,-397.0,36.0,-467.0,0.352,-0.453,-0.526,-0.628
1480796,7880.0,6940.0,966.0,-343.0,159.0,-779.0,0.347,-0.449,-0.527,-0.633
1480819,8306.0,6576.0,1538.0,-295.0,252.0,-1133.0,0.341,-0.443,-0.529,-0.638
1480832,8840.0,7274.0,1420.0,-340.0,313.0,-1499.0,0.332,-0.435,-0.533,-0.646
1480855,9052.0,6762.0,1678.0,-313.0,402.0,-1848.0,0.322,-0.424,-0.537,-0.654
1480868,9154.0,7488.0,1570.0,-353.0,467.0,-2134.0,0.31,-0.411,-0.542,-0.664
1480881,9192.0,7364.0,1424.0,-443.0,498.0,-2458.0,0.296,-0.396,-0.547,-0.675
1480904,9180.0,7138.0,856.0,-434.0,545.0,-2651.0,0.281,-0.38,-0.553,-0.686
1480917,9338.0,7840.0,1196.0,-388.0,570.0,-2959.0,0.264,-0.362,-0.56,-0.697
1480940,9616.0,7614.0,1040.0,-467.0,547.0,-3247.0,0.245,-0.342,-0.566,-0.709
1480953,9628.0,7428.0,964.0,-491.0,632.0,-3382.0,0.224,-0.321,-0.572,-0.721
1480976,9092.0,7752.0,946.0,-449.0,664.0,-3497.0,0.203,-0.298,-0.578,-0.732
1480989,8474.0,7660.0,462.0,-441.0,700.0,-3574.0,0.182,-0.274,-0.583,-0.743
1481012,7804.0,8332.0,512.0,-351.0,753.0,-3639.0,0.16,-0.25,-0.589,-0.752
1481025,7074.0,7290.0,708.0,-365.0,796.0,-3617.0,0.138,-0.224,-0.593,-0.761
1481048,6208.0,7446.0,802.0,-288.0,835.0,-3576.0,0.117,-0.199,-0.597,-0.768
1481061,5492.0,7546.0,1536.0,-249.0,809.0,-3635.0,0.095,-0.173,-0.601,-0.775
1481074,4494.0,6910.0,1336.0,-307.0,777.0,-3548.0,0.074,-0.148,-0.603,-0.78
1481097,3704.0,7152.0,1320.0,-95.0,694.0,-3571.0,0.052,-0.123,-0.607,-0.783
1481110,3306.0,6512.0,1718.0,-70.0,667.0,-3426.0,0.031,-0.099,-0.61,-0.786
1481133,2612.0,7764.0,1790.0,-314.0,597.0,-3358.0,0.009,-0.076,-0.61,-0.789
1481146,2198.0,6726.0,1676.0,-482.0,491.0,-3391.0,0.013,0.053,0.608,0.792
1481169,2240.0,6598.0,1330.0,-268.0,483.0,-3320.0,0.035,0.031,0.608,0.793
1481182,1434.0,6262.0,1298.0,-191.0,497.0,-3229.0,0.056,0.009,0.607,0.792
1481205,1060.0,6800.0,1894.0,-342.0,442.0,-3168.0,0.077,-0.012,0.605,0.792
1481218,944.0,7280.0,1520.0,-449.0,398.0,-3030.0,0.097,-0.032,0.601,0.792
1481231,348.0,6084.0,986.0,-471.0,442.0,-2827.0,0.115,-0.051,0.597,0.792
1481254,170.0,5778.0,1196.0,-129.0,460.0,-2804.0,0.134,-0.07,0.595,0.789
1481267,136.0,7040.0,980.0,73.0,464.0,-2662.0,0.151,-0.088,0.595,0.785
1481290,-1394.0,4076.0,1256.0,-171.0,357.0,-2398.0,0.167,-0.104,0.592,0.782
1481303,-1092.0,5736.0,1438.0,146.0,352.0,-2423.0,0.183,-0.119,0.591,0.777
1481326,-1976.0,5612.0,1554.0,160.0,265.0,-2261.0,0.198,-0.133,0.59,0.771
1481339,-2594.0,4120.0,1486.0,7.0,106.0,-2085.0,0.213,-0.145,0.588,0.767
1481362,-2526.0,5074.0,1788.0,97.0,124.0,-2042.0,0.228,-0.156,0.586,0.762
1481375,-3784.0,3958.0,1908.0,-224.0,-48.0,-1900.0,0.241,-0.166,0.581,0.759
1481398,-3996.0,2422.0,1940.0,-152.0,-173.0,-1912.0,0.256,-0.175,0.577,0.756
1481411,-3922.0,3254.0,1870.0,-73.0,-144.0,-1674.0,0.269,-0.183,0.573,0.752
1481424,-5094.0,2678.0,1966.0,-408.0,-268.0,-1206.0,0.279,-0.188,0.568,0.751
1481447,-5068.0,1856.0,1912.0,-510.0,-246.0,-968.0,0.286,-0.193,0.562,0.752
1481460,-5240.0,1168.0,2950.0,-482.0,-135.0,-581.0,0.291,-0.196,0.557,0.753
1481483,-5346.0,1092.0,2690.0,-406.0,10.0,-109.0,0.291,-0.197,0.554,0.755
1481496,-5530.0,1046.0,2388.0,-257.0,64.0,404.0,0.288,-0.195,0.553,0.757
1481519,-5146.0,1346.0,2680.0,-186.0,104.0,817.0,0.282,-0.192,0.554,0.759
1481532,-4950.0,1738.0,2756.0,-155.0,168.0,1191.0,0.274,-0.186,0.556,0.763
1481555,-4728.0,1788.0,2178.0,-79.0,190.0,1555.0,0.262,-0.179,0.559,0.766
1481568,-4694.0,1920.0,1974.0,-22.0,150.0,1868.0,0.249,-0.17,0.562,0.77
1481581,-4040.0,2686.0,2510.0,160.0,89.0,2112.0,0.234,-0.158,0.567,0.774
1481604,-3578.0,3734.0,2540.0,318.0,70.0,2268.0,0.219,-0.145,0.573,0.777
1481617,-3142.0,4838.0,2412.0,269.0,-13.0,2417.0,0.202,-0.131,0.578,0.78
1481640,-2744.0,4474.0,1304.0,2.0,-156.0,2495.0,0.186,-0.116,0.58,0.784
1481653,-1450.0,5496.0,1396.0,340.0,-230.0,2424.0,0.171,-0.1,0.585,0.787
1481676,-1108.0,5644.0,1112.0,203.0,-293.0,2642.0,0.154,-0.082,0.588,0.79
1481689,-318.0,8362.0,2134.0,50.0,-342.0,2798.0,0.135,-0.063,0.59,0.793
1481712,-718.0,6226.0,1782.0,-321.0,-539.0,2818.0,0.118,-0.043,0.589,0.798
1481725,320.0,5288.0,2292.0,408.0,-543.0,2653.0,0.102,-0.024,0.592,0.799
1481748,1562.0,8100.0,850.0,634.0,-418.0,2845.0,0.083,-0.004,0.597,0.798
1481761,412.0,7616.0,3140.0,142.0,-326.0,3150.0,0.061,0.017,0.598,0.799
1481774,1784.0,9192.0,2336.0,186.0,-461.0,3025.0,0.042,0.037,0.598,0.799
1481797,1296.0,7258.0,1760.0,473.0,-539.0,2976.0,0.023,0.059,0.6,0.797
1481810,2424.0,7916.0,1284.0,364.0,-394.0,2817.0,0.004,0.078,0.601,0.795
1481833,2408.0,10026.0,2776.0,-6.0,-421.0,2770.0,0.015,-0.097,-0.599,-0.795
1481846,2680.0,9158.0,1840.0,-436.0,-564.0,2755.0,0.031,-0.116,-0.593,-0.796
1481869,3596.0,6012.0,1660.0,127.0,-515.0,2651.0,0.048,-0.135,-0.591,-0.794
1481882,4372.0,8624.0,1540.0,377.0,-441.0,2623.0,0.066,-0.153,-0.59,-0.79
1481905,4516.0,9732.0,1804.0,22.0,-482.0,2379.0,0.08,-0.169,-0.587,-0.787
1481923,5300.0,7764.0,1832.0,-10.0,-473.0,2546.0,0.096,-0.187,-0.583,-0.785
1481936,5686.0,8114.0,2072.0,499.0,-365.0,2488.0,0.113,-0.203,-0.583,-0.779
1481959,5538.0,7898.0,1798.0,558.0,-314.0,2332.0,0.129,-0.217,-0.583,-0.772
1481972,5322.0,8206.0,1958.0,149.0,-351.0,2166.0,0.143,-0.231,-0.58,-0.768
1481985,6008.0,7654.0,2238.0,-67.0,-451.0,2155.0,0.156,-0.246,-0.575,-0.764
1482008,5752.0,7740.0,1836.0,176.0,-445.0,2242.0,0.17,-0.261,-0.572,-0.759
1482021,5488.0,7646.0,2122.0,362.0,-369.0,2118.0,0.184,-0.275,-0.569,-0.753
1482044,5376.0,6256.0,1308.0,168.0,-422.0,2011.0,0.196,-0.288,-0.566,-0.747
1482057,6026.0,7240.0,1778.0,59.0,-419.0,2039.0,0.208,-0.302,-0.562,-0.742
1482080,5836.0,6510.0,1324.0,-39.0,-482.0,2052.0,0.22,-0.316,-0.557,-0.736
1482093,5864.0,6172.0,912.0,238.0,-456.0,2110.0,0.233,-0.329,-0.553,-0.729
1482116,6536.0,6346.0,1374.0,357.0,-425.0,1965.0,0.245,-0.341,-0.551,-0.721
1482129,7238.0,6280.0,1404.0,241.0,-467.0,1807.0,0.256,-0.353,-0.548,-0.714
1482142,7462.0,5234.0,1384.0,196.0,-434.0,1882.0,0.267,-0.365,-0.544,-0.707
1482165,7290.0,6104.0,1052.0,145.0,-355.0,1807.0,0.278,-0.376,-0.539,-0.7
1482178,7762.0,5400.0,1188.0,58.0,-408.0,1635.0,0.287,-0.386,-0.535,-0.694
1482201,8122.0,4826.0,824.0,194.0,-316.0,1725.0,0.297,-0.396,-0.531,-0.687
1482214,7888.0,5476.0,1350.0,228.0,-257.0,1588.0,0.307,-0.405,-0.528,-0.681
1482237,8202.0,4920.0,1262.0,257.0,-277.0,1554.0,0.317,-0.413,-0.524,-0.674
1482250,7648.0,5156.0,912.0,165.0,-306.0,1563.0,0.326,-0.422,-0.52,-0.667
1482273,7754.0,4264.0,600.0,94.0,-354.0,1583.0,0.335,-0.431,-0.516,-0.66
1482286,5524.0,7642.0,-346.0,-664.0,-24.0,1601.0,0.342,-0.441,-0.506,-0.657
1482309,8896.0,2284.0,522.0,55.0,-584.0,351.0,0.343,-0.446,-0.507,-0.653
1482322,6010.0,4996.0,984.0,-140.0,-230.0,835.0,0.346,-0.451,-0.504,-0.65
1482335,7832.0,3382.0,1248.0,-369.0,-424.0,1034.0,0.349,-0.459,-0.499,-0.647
1482358,8144.0,3716.0,1290.0,-342.0,-303.0,473.0,0.35,-0.464,-0.496,-0.645
1482371,7470.0,4730.0,570.0,-539.0,-345.0,378.0,0.348,-0.469,-0.493,-0.645
1482394,8786.0,2718.0,948.0,-300.0,-249.0,-267.0,0.345,-0.47,-0.494,-0.646
1482407,7934.0,4938.0,1044.0,-182.0,-82.0,-570.0,0.341,-0.468,-0.496,-0.647
1482430,8420.0,3050.0,1348.0,-353.0,-157.0,-565.0,0.335,-0.467,-0.497,-0.65
1482443,7978.0,4896.0,1214.0,-301.0,-295.0,-908.0,0.328,-0.465,-0.5,-0.652
1482466,8066.0,5804.0,266.0,-255.0,-40.0,-621.0,0.323,-0.463,-0.502,-0.655
1482479,7568.0,3800.0,1108.0,-37.0,-198.0,-519.0,0.32,-0.461,-0.505,-0.656
1482492,7264.0,6062.0,1388.0,197.0,-103.0,-653.0,0.316,-0.458,-0.51,-0.656
1482515,7046.0,6402.0,1336.0,-242.0,205.0,375.0,0.319,-0.459,-0.506,-0.657
1482528,6964.0,5032.0,1384.0,-68.0,250.0,260.0,0.322,-0.458,-0.505,-0.657
1482551,7230.0,6626.0,1818.0,-49.0,285.0,196.0,0.325,-0.457,-0.503,-0.658
1482564,7362.0,6764.0,1694.0,-266.0,345.0,-108.0,0.325,-0.455,-0.501,-0.66
1482587,7194.0,6240.0,1668.0,-258.0,386.0,-1081.0,0.32,-0.448,-0.503,-0.666
1482600,7778.0,6572.0,1852.0,-199.0,443.0,-1998.0,0.309,-0.436,-0.509,-0.675
1482623,8628.0,6762.0,1842.0,-412.0,489.0,-2088.0,0.297,-0.424,-0.514,-0.684
1482636,8804.0,6932.0,1772.0,-484.0,603.0,-2112.0,0.285,-0.411,-0.518,-0.694
1482659,8772.0,7218.0,1616.0,-399.0,715.0,-2339.0,0.272,-0.395,-0.523,-0.705
1482672,8846.0,7290.0,1520.0,-340.0,790.0,-2666.0,0.257,-0.378,-0.528,-0.716
1482685,8814.0,7682.0,1936.0,-405.0,775.0,-2935.0,0.241,-0.359,-0.534,-0.727
1482708,8950.0,7872.0,1622.0,-495.0,839.0,-3050.0,0.223,-0.338,-0.539,-0.738
1482721,8670.0,8088.0,1752.0,-452.0,960.0,-3140.0,0.205,-0.316,-0.544,-0.75
1482744,8182.0,7860.0,1818.0,-462.0,993.0,-3238.0,0.186,-0.294,-0.548,-0.761
1482757,7668.0,8370.0,2054.0,-366.0,1080.0,-3298.0,0.168,-0.269,-0.552,-0.771
1482780,7226.0,8334.0,2026.0,-363.0,1103.0,-3365.0,0.149,-0.244,-0.556,-0.78
1482793,6358.0,8104.0,2096.0,-285.0,1144.0,-3318.0,0.13,-0.219,-0.56,-0.788
1482816,6586.0,8094.0,2616.0,-248.0,1153.0,-3313.0,0.111,-0.193,-0.563,-0.796
1482829,5308.0,8112.0,2074.0,-349.0,1119.0,-3423.0,0.091,-0.167,-0.566,-0.802
1482842,4616.0,7596.0,2416.0,-286.0,1118.0,-3434.0,0.071,-0.141,-0.567,-0.808
1482865,4086.0,7534.0,2446.0,-151.0,1124.0,-3381.0,0.052,-0.115,-0.57,-0.812
1482878,3528.0,7994.0,2394.0,-104.0,1020.0,-3376.0,0.032,-0.089,-0.572,-0.815
1482901,3224.0,7696.0,2298.0,-208.0,931.0,-3333.0,0.012,-0.065,-0.572,-0.817
1482914,2572.0,6818.0,2482.0,-212.0,852.0,-3275.0,0.009,0.041,0.572,0.819
1482937,1974.0,7000.0,2242.0,-102.0,804.0,-3312.0,0.03,0.018,0.573,0.819
1482950,1320.0,6634.0,2242.0,-46.0,784.0,-3352.0,0.051,-0.006,0.573,0.818
1482973,684.0,6704.0,2222.0,-147.0,633.0,-3220.0,0.073,-0.028,0.572,0.817
1482986,688.0,6924.0,2400.0,-139.0,581.0,-3088.0,0.093,-0.048,0.57,0.815
1483009,274.0,5974.0,2180.0,7.0,553.0,-2969.0,0.113,-0.068,0.569,0.812
1483022,-234.0,5720.0,1386.0,83.0,463.0,-3003.0,0.134,-0.087,0.568,0.807
1483035,-376.0,5924.0,1376.0,-109.0,376.0,-2851.0,0.154,-0.105,0.565,0.804
1483058,-224.0,6476.0,1740.0,-123.0,456.0,-2690.0,0.172,-0.122,0.562,0.8
1483071,-1136.0,4800.0,1710.0,-147.0,375.0,-2460.0,0.188,-0.137,0.559,0.796
1483094,-1010.0,5566.0,1536.0,174.0,496.0,-2459.0,0.205,-0.153,0.558,0.79
1483107,-1708.0,6164.0,1894.0,-4.0,464.0,-2242.0,0.219,-0.168,0.555,0.784
1483130,-2260.0,4456.0,1780.0,-148.0,377.0,-2249.0,0.234,-0.182,0.552,0.78
1483143,-2594.0,3932.0,1684.0,20.0,293.0,-2386.0,0.251,-0.196,0.548,0.774
1483166,-2794.0,4824.0,1594.0,198.0,277.0,-2484.0,0.268,-0.209,0.546,0.766
1483179,-3792.0,3134.0,1314.0,-41.0,159.0,-2250.0,0.284,-0.222,0.542,0.76
1483202,-4050.0,3122.0,1184.0,-261.0,-21.0,-2041.0,0.298,-0.232,0.535,0.755
1483215,-4714.0,2332.0,1506.0,-236.0,-157.0,-1762.0,0.312,-0.24,0.53,0.752
1483228,-5334.0,2096.0,2272.0,18.0,-234.0,-1527.0,0.324,-0.245,0.526,0.747
1483251,-5466.0,842.0,2454.0,31.0,-255.0,-1159.0,0.334,-0.248,0.523,0.744
1483264,-5876.0,1100.0,2352.0,-388.0,-149.0,-539.0,0.339,-0.25,0.519,0.744
1483287,-6444.0,-154.0,2440.0,-855.0,-219.0,18.0,0.338,-0.251,0.512,0.748
1483300,-5758.0,-930.0,3424.0,-751.0,-229.0,393.0,0.336,-0.249,0.508,0.753
1483323,-5592.0,-206.0,3404.0,-451.0,-142.0,960.0,0.33,-0.244,0.506,0.758
1483336,-5406.0,-576.0,2844.0,5.0,-216.0,1411.0,0.322,-0.235,0.509,0.763
1483359,-4554.0,-750.0,3040.0,333.0,-188.0,1728.0,0.312,-0.224,0.515,0.766
1483372,-3902.0,924.0,2598.0,730.0,-161.0,2122.0,0.3,-0.21,0.524,0.769
1483395,-3608.0,1104.0,2288.0,947.0,-235.0,2541.0,0.285,-0.192,0.536,0.771
1483408,-2672.0,3452.0,1174.0,921.0,-257.0,2812.0,0.269,-0.173,0.546,0.774
1483421,-3116.0,4480.0,710.0,781.0,-376.0,3133.0,0.25,-0.152,0.556,0.778
1483444,-2434.0,3646.0,1230.0,680.0,-609.0,3038.0,0.233,-0.129,0.564,0.782
1483457,-1340.0,4422.0,986.0,304.0,-698.0,3032.0,0.215,-0.107,0.568,0.787
1483480,-1400.0,5580.0,2586.0,436.0,-803.0,3229.0,0.197,-0.082,0.573,0.792
1483493,-1256.0,5148.0,1742.0,539.0,-898.0,3052.0,0.18,-0.058,0.577,0.794
1483516,174.0,7228.0,1780.0,685.0,-772.0,3147.0,0.162,-0.033,0.582,0.796
1483529,-396.0,7814.0,1806.0,368.0,-901.0,3429.0,0.142,-0.006,0.585,0.799
1483552,898.0,7284.0,2022.0,256.0,-855.0,3179.0,0.123,0.018,0.585,0.801
1483565,1940.0,7406.0,2466.0,676.0,-710.0,3065.0,0.104,0.042,0.589,0.8
1483578,2450.0,8590.0,1524.0,515.0,-534.0,3228.0,0.083,0.065,0.59,0.8
1483601,2170.0,8884.0,2082.0,535.0,-381.0,3138.0,0.062,0.086,0.592,0.799
1483614,3570.0,10726.0,1980.0,739.0,-340.0,2953.0,0.042,0.105,0.595,0.796
1483637,3170.0,7980.0,2038.0,570.0,-325.0,2917.0,0.021,0.125,0.596,0.793
1483650,3954.0,8378.0,2034.0,238.0,-346.0,2841.0,0.002,0.143,0.594,0.792
1483673,3458.0,9252.0,1832.0,112.0,-392.0,2849.0,0.017,-0.162,-0.59,-0.79
1483686,3654.0,9284.0,2042.0,141.0,-535.0,2742.0,0.034,-0.182,-0.587,-0.788
1483709,4476.0,9032.0,3198.0,432.0,-379.0,2546.0,0.051,-0.198,-0.586,-0.784
1483722,4372.0,8792.0,2502.0,395.0,-371.0,2430.0,0.067,-0.214,-0.584,-0.78
1483745,4340.0,6874.0,1242.0,371.0,-508.0,2517.0,0.084,-0.232,-0.582,-0.775
1483758,4368.0,7156.0,702.0,556.0,-584.0,2615.0,0.1,-0.25,-0.581,-0.768
1483781,5348.0,7920.0,1654.0,857.0,-503.0,2289.0,0.116,-0.265,-0.582,-0.76
1483794,6008.0,10334.0,1460.0,661.0,-445.0,2107.0,0.13,-0.279,-0.582,-0.753
1483807,6122.0,8150.0,1600.0,68.0,-458.0,2168.0,0.143,-0.294,-0.577,-0.749
1483830,6666.0,6264.0,774.0,-7.0,-385.0,2222.0,0.156,-0.308,-0.571,-0.744
1483843,5750.0,6230.0,476.0,221.0,-347.0,2247.0,0.171,-0.323,-0.567,-0.739
1483866,5854.0,6974.0,692.0,476.0,-282.0,2040.0,0.185,-0.334,-0.564,-0.732
1483879,6510.0,8126.0,986.0,583.0,-315.0,1840.0,0.198,-0.345,-0.563,-0.724
1483902,6518.0,6042.0,1580.0,534.0,-267.0,1899.0,0.211,-0.356,-0.561,-0.717
1483915,7048.0,6460.0,1908.0,605.0,-197.0,1866.0,0.224,-0.366,-0.559,-0.709
1483933,6498.0,6368.0,1214.0,478.0,-191.0,1808.0,0.237,-0.375,-0.557,-0.702
1483946,7094.0,6624.0,464.0,611.0,-214.0,1845.0,0.25,-0.385,-0.555,-0.694
1483969,6868.0,6344.0,514.0,586.0,-177.0,1729.0,0.263,-0.393,-0.553,-0.686
1483982,7748.0,6340.0,834.0,512.0,-95.0,1682.0,0.275,-0.401,-0.55,-0.679
1484005,7730.0,5584.0,736.0,271.0,-46.0,1791.0,0.287,-0.41,-0.545,-0.672
1484018,7938.0,5756.0,458.0,330.0,-28.0,1735.0,0.3,-0.418,-0.541,-0.666
1484041,8162.0,7026.0,-354.0,355.0,-6.0,1575.0,0.311,-0.425,-0.537,-0.659
1484054,8024.0,5486.0,638.0,300.0,-91.0,1333.0,0.32,-0.431,-0.534,-0.653
1484077,8726.0,5324.0,1004.0,289.0,-127.0,1122.0,0.328,-0.436,-0.532,-0.648
1484090,8594.0,5186.0,898.0,230.0,-136.0,800.0,0.333,-0.44,-0.531,-0.643
1484103,8156.0,4264.0,144.0,224.0,-79.0,506.0,0.337,-0.442,-0.531,-0.64
1484126,7738.0,5984.0,38.0,136.0,-51.0,248.0,0.34,-0.443,-0.531,-0.638
1484139,8038.0,5270.0,800.0,56.0,-107.0,-7.0,0.34,-0.443,-0.532,-0.637
1484162,7676.0,5574.0,1070.0,95.0,-77.0,-137.0,0.339,-0.442,-0.533,-0.636
1484175,7272.0,5858.0,1192.0,42.0,-115.0,-323.0,0.337,-0.441,-0.536,-0.636
1484198,7060.0,5886.0,1058.0,0.0,-109.0,-493.0,0.334,-0.439,-0.538,-0.637
1484211,7164.0,6634.0,444.0,-25.0,-26.0,-660.0,0.33,-0.435,-0.541,-0.639
1484234,7002.0,6596.0,382.0,-9.0,-4.0,-862.0,0.326,-0.431,-0.545,-0.642
1484247,7186.0,6662.0,978.0,17.0,18.0,-1107.0,0.32,-0.425,-0.55,-0.645
1484270,7710.0,7242.0,942.0,-117.0,63.0,-1384.0,0.311,-0.417,-0.555,-0.649
1484283,7788.0,7152.0,1098.0,-204.0,84.0,-1662.0,0.301,-0.408,-0.56,-0.655
1484296,8202.0,6766.0,1034.0,-183.0,161.0,-1849.0,0.291,-0.398,-0.565,-0.662
1484319,7986.0,8538.0,632.0,-199.0,232.0,-2112.0,0.278,-0.385,-0.571,-0.669
1484332,8236.0,7818.0,1090.0,-322.0,191.0,-2414.0,0.263,-0.372,-0.578,-0.677
1484355,8756.0,7494.0,1072.0,-370.0,271.0,-2623.0,0.247,-0.357,-0.584,-0.686
1484368,8572.0,7758.0,1028.0,-427.0,399.0,-2764.0,0.231,-0.34,-0.589,-0.696
1484391,8124.0,8892.0,414.0,-364.0,444.0,-2915.0,0.213,-0.321,-0.595,-0.705
1484404,8216.0,8746.0,952.0,-435.0,447.0,-3127.0,0.194,-0.302,-0.601,-0.715
1484427,8228.0,8408.0,742.0,-430.0,535.0,-3262.0,0.174,-0.28,-0.606,-0.724
1484440,7368.0,8816.0,898.0,-385.0,613.0,-3322.0,0.154,-0.258,-0.611,-0.733
1484463,6680.0,9110.0,1178.0,-501.0,616.0,-3397.0,0.134,-0.234,-0.614,-0.742
1484476,6084.0,8706.0,1010.0,-555.0,598.0,-3432.0,0.112,-0.211,-0.617,-0.75
1484499,5136.0,8790.0,1018.0,-560.0,632.0,-3402.0,0.091,-0.188,-0.619,-0.757
1484512,4672.0,8184.0,1446.0,-682.0,567.0,-3428.0,0.069,-0.164,-0.619,-0.765
1484525,4176.0,8328.0,1256.0,-831.0,556.0,-3405.0,0.047,-0.141,-0.618,-0.772
1484548,3768.0,8064.0,1184.0,-857.0,583.0,-3377.0,0.025,-0.118,-0.615,-0.779
1484561,2948.0,6846.0,1354.0,-745.0,587.0,-3402.0,0.003,-0.095,-0.613,-0.784
1484584,2590.0,7070.0,1308.0,-541.0,617.0,-3319.0,0.018,0.072,0.612,0.787
1484597,2138.0,7750.0,1534.0,-408.0,655.0,-3293.0,0.038,0.048,0.611,0.789
1484620,1762.0,7144.0,1660.0,-582.0,586.0,-3325.0,0.06,0.026,0.608,0.791
1484633,1296.0,6250.0,972.0,-665.0,547.0,-3197.0,0.08,0.003,0.604,0.793
1484646,1332.0,6968.0,1144.0,-297.0,607.0,-3134.0,0.1,-0.019,0.602,0.792
1484669,672.0,6432.0,1486.0,-312.0,595.0,-3041.0,0.12,-0.04,0.6,0.79
1484682,72.0,5924.0,1342.0,-422.0,594.0,-2916.0,0.138,-0.061,0.596,0.789
1484705,-288.0,5698.0,1334.0,-189.0,551.0,-2827.0,0.156,-0.081,0.593,0.786
1484718,-898.0,5302.0,1238.0,95.0,499.0,-2625.0,0.173,-0.099,0.593,0.78
1484741,-876.0,5922.0,1318.0,233.0,498.0,-2538.0,0.189,-0.115,0.593,0.774
1484754,-1698.0,6024.0,1410.0,67.0,401.0,-2368.0,0.204,-0.131,0.591,0.769
1484777,-1906.0,5332.0,1074.0,-77.0,253.0,-2316.0,0.22,-0.145,0.588,0.764
1484790,-2216.0,5590.0,520.0,63.0,177.0,-2344.0,0.236,-0.159,0.586,0.759
1484813,-2824.0,4480.0,1110.0,-39.0,21.0,-2312.0,0.253,-0.171,0.582,0.754
1484826,-2748.0,4536.0,1124.0,-101.0,48.0,-2485.0,0.27,-0.185,0.578,0.748
1484839,-3294.0,3912.0,1328.0,-351.0,10.0,-2228.0,0.285,-0.197,0.571,0.744
1484862,-3650.0,3032.0,1476.0,-544.0,68.0,-2014.0,0.299,-0.209,0.564,0.741
1484875,-4360.0,2766.0,1092.0,-522.0,105.0,-1757.0,0.31,-0.22,0.557,0.738
1484898,-4814.0,2256.0,1352.0,-465.0,57.0,-1486.0,0.319,-0.229,0.552,0.736
1484911,-5138.0,1000.0,2124.0,-313.0,75.0,-1140.0,0.327,-0.236,0.547,0.734
1484934,-5324.0,1088.0,2216.0,-207.0,159.0,-660.0,0.331,-0.24,0.545,0.732
1484947,-6080.0,1176.0,1990.0,-276.0,175.0,-47.0,0.33,-0.242,0.544,0.733
1484970,-6476.0,264.0,2430.0,-119.0,83.0,303.0,0.328,-0.241,0.544,0.734
1484983,-6082.0,466.0,2484.0,-114.0,-2.0,675.0,0.324,-0.237,0.545,0.736
1485006,-6154.0,360.0,2314.0,-116.0,-41.0,1146.0,0.317,-0.23,0.547,0.74
1485019,-5858.0,712.0,2262.0,26.0,-126.0,1468.0,0.308,-0.221,0.55,0.744
1485032,-5672.0,1250.0,2194.0,215.0,-188.0,1775.0,0.298,-0.21,0.555,0.748
1485055,-5184.0,1440.0,2528.0,358.0,-246.0,2046.0,0.287,-0.196,0.561,0.752
1485068,-4786.0,1772.0,2050.0,571.0,-292.0,2340.0,0.273,-0.179,0.568,0.755
1485091,-3714.0,3830.0,1932.0,590.0,-225.0,2594.0,0.258,-0.162,0.576,0.758
1485104,-3810.0,4284.0,1342.0,370.0,-269.0,2828.0,0.241,-0.143,0.582,0.763
1485127,-3248.0,5028.0,1304.0,323.0,-365.0,2709.0,0.224,-0.124,0.587,0.768
1485140,-1586.0,6634.0,1318.0,206.0,-382.0,2747.0,0.208,-0.105,0.591,0.772
1485163,-1916.0,6362.0,1954.0,162.0,-330.0,2860.0,0.19,-0.086,0.594,0.777
1485176,-840.0,6970.0,1148.0,72.0,-422.0,2745.0,0.173,-0.067,0.596,0.781
1485199,-884.0,6046.0,1474.0,145.0,-398.0,2880.0,0.155,-0.047,0.598,0.785
1485212,404.0,9180.0,2264.0,410.0,-401.0,2633.0,0.138,-0.029,0.602,0.786
1485225,-32.0,7394.0,2500.0,206.0,-385.0,2781.0,0.121,-0.009,0.603,0.788
1485248,1412.0,8648.0,1808.0,403.0,-290.0,2753.0,0.102,0.01,0.606,0.789
1485261,20.0,7352.0,1944.0,457.0,-270.0,2940.0,0.082,0.029,0.608,0.789
1485284,1784.0,9056.0,2226.0,657.0,-276.0,2641.0,0.065,0.047,0.612,0.787
1485297,1444.0,9220.0,2382.0,150.0,-237.0,2744.0,0.046,0.065,0.612,0.787
1485320,1560.0,8034.0,2532.0,57.0,-336.0,2607.0,0.029,0.083,0.61,0.788
1485333,2460.0,9450.0,1886.0,594.0,-295.0,2430.0,0.013,0.099,0.612,0.784
1485356,2030.0,9094.0,874.0,40.0,-179.0,2461.0,0.004,-0.115,-0.61,-0.784
1485369,2508.0,8686.0,2316.0,-415.0,-374.0,2280.0,0.018,-0.131,-0.604,-0.786
1485382,3074.0,8800.0,1210.0,-390.0,-447.0,2349.0,0.032,-0.148,-0.598,-0.787
1485405,2826.0,6790.0,1448.0,268.0,-402.0,2289.0,0.047,-0.164,-0.597,-0.784
1485418,4014.0,8724.0,2084.0,596.0,-273.0,2145.0,0.062,-0.177,-0.598,-0.779
1485441,3558.0,8972.0,2412.0,154.0,-174.0,2054.0,0.076,-0.19,-0.596,-0.777
1485454,3726.0,8832.0,2250.0,-379.0,-334.0,2322.0,0.09,-0.206,-0.589,-0.776
1485477,4040.0,7330.0,1380.0,-39.0,-442.0,2158.0,0.103,-0.221,-0.585,-0.773
1485490,4552.0,6204.0,924.0,436.0,-408.0,2160.0,0.117,-0.235,-0.584,-0.768
1485513,5250.0,8372.0,1370.0,495.0,-82.0,2032.0,0.132,-0.247,-0.583,-0.763
1485526,4190.0,8784.0,1854.0,-184.0,-268.0,2016.0,0.145,-0.26,-0.577,-0.76
1485549,5498.0,7582.0,1068.0,-207.0,-499.0,2136.0,0.157,-0.275,-0.571,-0.757
1485562,5316.0,5826.0,946.0,211.0,-333.0,2066.0,0.17,-0.288,-0.568,-0.752
1485585,5920.0,7044.0,1318.0,390.0,-295.0,1780.0,0.182,-0.299,-0.566,-0.746
1485598,5850.0,7532.0,1520.0,-60.0,-386.0,1693.0,0.192,-0.311,-0.562,-0.742
1485611,6494.0,6726.0,1308.0,-94.0,-442.0,1842.0,0.202,-0.324,-0.557,-0.738
1485634,6392.0,5814.0,1704.0,131.0,-363.0,1735.0,0.212,-0.335,-0.553,-0.733
1485647,6752.0,6644.0,1738.0,213.0,-360.0,1677.0,0.223,-0.346,-0.55,-0.727
1485670,6314.0,6846.0,1332.0,-109.0,-418.0,1663.0,0.232,-0.357,-0.545,-0.723
1485683,6774.0,5672.0,860.0,-140.0,-555.0,1682.0,0.24,-0.369,-0.539,-0.718
1485706,7040.0,5636.0,1462.0,68.0,-502.0,1677.0,0.249,-0.381,-0.535,-0.712
1485719,7304.0,6232.0,1208.0,124.0,-512.0,1578.0,0.258,-0.392,-0.532,-0.705
1485742,7434.0,5616.0,1126.0,248.0,-424.0,1544.0,0.267,-0.402,-0.529,-0.699
1485755,7254.0,5220.0,142.0,27.0,-407.0,1550.0,0.275,-0.412,-0.524,-0.693
1485778,7628.0,5242.0,678.0,-8.0,-377.0,1548.0,0.283,-0.422,-0.519,-0.687
1485791,7956.0,5270.0,514.0,-25.0,-350.0,1432.0,0.291,-0.431,-0.515,-0.682
1485804,8124.0,4566.0,398.0,94.0,-277.0,1280.0,0.298,-0.438,-0.511,-0.677
1485827,7912.0,5232.0,544.0,138.0,-254.0,1096.0,0.305,-0.444,-0.508,-0.672
1485840,8346.0,4252.0,960.0,60.0,-282.0,891.0,0.31,-0.45,-0.506,-0.668
1485863,8280.0,4508.0,776.0,99.0,-236.0,733.0,0.314,-0.454,-0.504,-0.664
1485876,8152.0,5320.0,956.0,186.0,-199.0,508.0,0.317,-0.457,-0.504,-0.66
1485899,7958.0,4958.0,1272.0,190.0,-218.0,296.0,0.319,-0.459,-0.505,-0.658
1485912,7928.0,5132.0,1558.0,239.0,-192.0,106.0,0.32,-0.46,-0.507,-0.655
1485925,7282.0,6460.0,1632.0,-69.0,-302.0,-68.0,0.318,-0.462,-0.508,-0.654
1485943,7534.0,5938.0,1888.0,-391.0,-241.0,-154.0,0.315,-0.463,-0.507,-0.655
1485966,7396.0,5682.0,1892.0,-316.0,-93.0,-277.0,0.312,-0.463,-0.507,-0.657
1485979,7300.0,6110.0,1308.0,-202.0,70.0,-468.0,0.309,-0.461,-0.508,-0.659
1486002,7298.0,7040.0,1586.0,-213.0,124.0,-716.0,0.304,-0.457,-0.509,-0.662
1486015,7752.0,6166.0,1534.0,-247.0,189.0,-978.0,0.299,-0.452,-0.512,-0.667
1486038,7944.0,6390.0,1584.0,-200.0,328.0,-1195.0,0.292,-0.444,-0.515,-0.672
1486051,8020.0,7144.0,1782.0,-165.0,400.0,-1485.0,0.284,-0.435,-0.519,-0.679
1486074,8304.0,7104.0,2110.0,-175.0,444.0,-1728.0,0.275,-0.424,-0.524,-0.686
1486087,8488.0,6988.0,1704.0,-198.0,537.0,-1918.0,0.265,-0.411,-0.529,-0.693
1486110,8564.0,6924.0,1966.0,-170.0,640.0,-2115.0,0.254,-0.397,-0.535,-0.701
1486123,8956.0,7674.0,1766.0,-103.0,816.0,-2339.0,0.243,-0.38,-0.541,-0.71
1486136,8892.0,8002.0,1096.0,-60.0,938.0,-2630.0,0.23,-0.36,-0.547,-0.719
1486159,8872.0,7412.0,1926.0,-205.0,1003.0,-2837.0,0.216,-0.339,-0.553,-0.729
1486172,8628.0,7906.0,1730.0,-313.0,1015.0,-2971.0,0.2,-0.317,-0.559,-0.74
1486195,7788.0,7528.0,1568.0,-432.0,1001.0,-3040.0,0.184,-0.295,-0.563,-0.75
1486208,6898.0,8632.0,1758.0,-398.0,968.0,-3031.0,0.167,-0.272,-0.566,-0.76
1486231,6308.0,8002.0,1724.0,-482.0,905.0,-3129.0,0.148,-0.25,-0.569,-0.769
1486244,5678.0,7456.0,1882.0,-543.0,861.0,-3072.0,0.13,-0.228,-0.571,-0.778
1486267,5116.0,7620.0,1430.0,-384.0,826.0,-3075.0,0.111,-0.206,-0.574,-0.785
1486280,4548.0,7290.0,1780.0,-197.0,827.0,-3155.0,0.093,-0.183,-0.577,-0.79
1486293,4230.0,8030.0,1628.0,-146.0,778.0,-3206.0,0.073,-0.16,-0.581,-0.795
1486316,3732.0,7920.0,1402.0,-201.0,799.0,-3130.0,0.054,-0.137,-0.583,-0.799
1486329,3510.0,7566.0,1504.0,-213.0,834.0,-3155.0,0.035,-0.115,-0.585,-0.802
1486352,3786.0,10148.0,1502.0,-67.0,917.0,-3225.0,0.016,-0.09,-0.588,-0.804
1486365,2962.0,7008.0,1740.0,-457.0,705.0,-3229.0,0.004,0.068,0.587,0.807
1486388,2760.0,6402.0,1470.0,-296.0,671.0,-3270.0,0.025,0.045,0.586,0.809
1486401,1532.0,6396.0,1606.0,-25.0,754.0,-3162.0,0.045,0.022,0.587,0.808
1486424,690.0,7238.0,2626.0,-28.0,725.0,-3076.0,0.064,-0.0,0.588,0.807
1486437,304.0,7116.0,2540.0,-166.0,628.0,-2987.0,0.083,-0.021,0.587,0.805
1486460,122.0,5988.0,2238.0,-32.0,530.0,-2902.0,0.102,-0.041,0.586,0.803
1486473,-346.0,5980.0,1160.0,158.0,565.0,-2771.0,0.12,-0.059,0.586,0.799
1486486,-750.0,5986.0,990.0,276.0,408.0,-2709.0,0.139,-0.077,0.587,0.794
1486509,-930.0,6712.0,1400.0,99.0,291.0,-2615.0,0.157,-0.093,0.586,0.789
1486522,-1618.0,4700.0,1794.0,169.0,123.0,-2517.0,0.175,-0.107,0.585,0.784
1486545,-1210.0,5390.0,990.0,443.0,190.0,-2518.0,0.193,-0.121,0.586,0.777
1486558,-1924.0,6182.0,1244.0,378.0,172.0,-2333.0,0.21,-0.134,0.587,0.771
1486581,-2256.0,5820.0,1188.0,124.0,53.0,-2246.0,0.226,-0.146,0.585,0.765
1486594,-2816.0,4602.0,730.0,181.0,-148.0,-2306.0,0.244,-0.157,0.583,0.759
1486617,-2534.0,4592.0,998.0,194.0,-120.0,-2370.0,0.262,-0.168,0.58,0.753
1486630,-3096.0,4174.0,1516.0,0.0,-67.0,-2256.0,0.279,-0.179,0.576,0.747
1486643,-3528.0,3670.0,1686.0,-284.0,-102.0,-2019.0,0.293,-0.189,0.571,0.743
1486666,-4102.0,2238.0,1332.0,-516.0,-107.0,-1764.0,0.306,-0.199,0.564,0.741
1486679,-4138.0,2812.0,758.0,-615.0,116.0,-1469.0,0.315,-0.209,0.557,0.739
1486702,-4982.0,1944.0,1118.0,-744.0,130.0,-1000.0,0.32,-0.217,0.551,0.74
1486715,-5542.0,1848.0,1688.0,-636.0,25.0,-542.0,0.323,-0.221,0.546,0.741
1486738,-5646.0,-164.0,2854.0,-507.0,-24.0,-115.0,0.323,-0.222,0.542,0.743
1486751,-5614.0,326.0,2862.0,-334.0,32.0,284.0,0.321,-0.221,0.54,0.745
1486774,-5838.0,856.0,2660.0,-281.0,-7.0,750.0,0.316,-0.218,0.54,0.749
1486787,-5370.0,-40.0,2948.0,-305.0,-48.0,1089.0,0.309,-0.212,0.54,0.753
1486810,-4798.0,398.0,2372.0,-199.0,-28.0,1457.0,0.299,-0.205,0.542,0.758
1486823,-5072.0,1036.0,2574.0,-1.0,-26.0,1882.0,0.287,-0.194,0.545,0.763
1486836,-4394.0,440.0,2348.0,274.0,-117.0,2191.0,0.273,-0.181,0.551,0.767
1486859,-4042.0,1972.0,1660.0,780.0,-89.0,2550.0,0.257,-0.165,0.561,0.77
1486872,-3688.0,3108.0,1482.0,1004.0,-205.0,2856.0,0.24,-0.145,0.572,0.771
1486895,-2974.0,4592.0,1644.0,869.0,-156.0,3035.0,0.221,-0.125,0.582,0.773
1486908,-2794.0,6002.0,2324.0,424.0,-250.0,3134.0,0.2,-0.105,0.588,0.777
1486931,-2844.0,4850.0,1250.0,257.0,-400.0,3083.0,0.181,-0.084,0.592,0.781
1486944,-1582.0,4388.0,870.0,584.0,-557.0,2893.0,0.164,-0.062,0.597,0.783
1486967,260.0,8206.0,1122.0,740.0,-335.0,3017.0,0.145,-0.041,0.604,0.783
1486980,-758.0,8568.0,1714.0,54.0,-411.0,3377.0,0.123,-0.018,0.605,0.787
1487003,164.0,7232.0,2352.0,268.0,-685.0,2986.0,0.105,0.004,0.606,0.789
1487016,1406.0,6856.0,1108.0,581.0,-556.0,3079.0,0.086,0.027,0.609,0.788
1487029,2154.0,8754.0,1818.0,771.0,-309.0,3073.0,0.065,0.048,0.614,0.785
1487052,2062.0,11344.0,2596.0,312.0,-418.0,3125.0,0.045,0.069,0.614,0.785
1487065,2022.0,7780.0,2576.0,-178.0,-597.0,3084.0,0.026,0.092,0.61,0.787
1487088,3428.0,8062.0,1768.0,220.0,-576.0,2922.0,0.008,0.113,0.609,0.785
1487101,2810.0,8168.0,1472.0,615.0,-470.0,2891.0,0.011,-0.134,-0.61,-0.781
1487124,3192.0,8570.0,1660.0,649.0,-597.0,2637.0,0.027,-0.153,-0.611,-0.776
1487137,4646.0,9118.0,1796.0,668.0,-520.0,2661.0,0.045,-0.172,-0.612,-0.771
1487160,4024.0,10018.0,1922.0,127.0,-382.0,2586.0,0.061,-0.19,-0.609,-0.768
1487173,4024.0,6798.0,-306.0,-277.0,-692.0,2609.0,0.075,-0.21,-0.602,-0.766
1487196,5654.0,7538.0,894.0,148.0,-597.0,2577.0,0.09,-0.229,-0.599,-0.762
1487209,5248.0,8232.0,1226.0,322.0,-401.0,2511.0,0.107,-0.245,-0.596,-0.757
1487222,5342.0,8774.0,590.0,300.0,-394.0,2442.0,0.122,-0.262,-0.592,-0.752
1487245,6190.0,8792.0,62.0,477.0,-338.0,2398.0,0.138,-0.277,-0.59,-0.746
1487258,6236.0,7388.0,862.0,328.0,-301.0,2217.0,0.153,-0.291,-0.587,-0.74
1487281,6680.0,7074.0,1662.0,121.0,-257.0,2073.0,0.166,-0.304,-0.582,-0.736
1487294,6604.0,8080.0,1738.0,153.0,-259.0,2008.0,0.179,-0.316,-0.578,-0.731
1487317,5776.0,6338.0,980.0,-54.0,-352.0,1980.0,0.19,-0.329,-0.572,-0.727
1487330,6558.0,6856.0,1584.0,192.0,-378.0,1990.0,0.202,-0.342,-0.568,-0.721
1487353,6446.0,7184.0,1766.0,281.0,-401.0,1862.0,0.213,-0.354,-0.565,-0.714
1487366,6782.0,6902.0,660.0,292.0,-377.0,1793.0,0.225,-0.365,-0.562,-0.708
1487379,6628.0,6258.0,308.0,300.0,-321.0,1761.0,0.236,-0.376,-0.558,-0.701
1487402,6878.0,5916.0,496.0,407.0,-286.0,1762.0,0.247,-0.386,-0.555,-0.694
1487415,7642.0,6458.0,808.0,467.0,-294.0,1674.0,0.258,-0.395,-0.553,-0.686
1487438,7538.0,5742.0,204.0,191.0,-222.0,1603.0,0.268,-0.404,-0.549,-0.681
1487451,7408.0,6754.0,712.0,-21.0,-285.0,1579.0,0.277,-0.414,-0.544,-0.675
1487474,7800.0,5968.0,1606.0,-218.0,-386.0,1490.0,0.284,-0.425,-0.538,-0.671
1487487,7704.0,4970.0,1034.0,-273.0,-372.0,1425.0,0.29,-0.435,-0.531,-0.667
1487510,7780.0,5546.0,844.0,-267.0,-378.0,1345.0,0.296,-0.444,-0.526,-0.663
1487523,7954.0,5268.0,800.0,-360.0,-364.0,1167.0,0.3,-0.453,-0.52,-0.66
1487546,8170.0,4868.0,350.0,-193.0,-271.0,1000.0,0.304,-0.46,-0.515,-0.656
1487559,7886.0,5656.0,148.0,0.0,-178.0,784.0,0.309,-0.464,-0.513,-0.653
1487572,7510.0,5390.0,294.0,8.0,-224.0,524.0,0.311,-0.468,-0.511,-0.65
1487595,7600.0,4830.0,1394.0,-255.0,-326.0,299.0,0.311,-0.472,-0.51,-0.649
1487608,7856.0,4886.0,1078.0,-268.0,-276.0,117.0,0.309,-0.474,-0.509,-0.648
1487631,6312.0,5352.0,256.0,-236.0,-210.0,-377.0,0.305,-0.474,-0.51,-0.65
1487644,7974.0,6104.0,990.0,0.0,-84.0,-283.0,0.303,-0.473,-0.512,-0.65
1487667,7316.0,6538.0,1730.0,-164.0,-63.0,-258.0,0.301,-0.472,-0.513,-0.651
1487680,7528.0,6224.0,1386.0,-226.0,-22.0,-513.0,0.297,-0.47,-0.514,-0.653
1487703,7788.0,6018.0,1552.0,-275.0,43.0,-738.0,0.292,-0.467,-0.516,-0.656
1487716,7698.0,6762.0,1552.0,-244.0,146.0,-968.0,0.286,-0.462,-0.518,-0.66
1487739,7866.0,7014.0,1372.0,-194.0,201.0,-1313.0,0.279,-0.454,-0.523,-0.665
1487752,8090.0,6728.0,1732.0,-258.0,278.0,-1535.0,0.27,-0.445,-0.527,-0.672
1487775,8020.0,7566.0,1702.0,-292.0,373.0,-1723.0,0.26,-0.435,-0.532,-0.679
1487788,8158.0,7626.0,1820.0,-337.0,436.0,-1940.0,0.249,-0.423,-0.536,-0.686
1487801,8308.0,8242.0,2060.0,-376.0,514.0,-2110.0,0.237,-0.41,-0.541,-0.695
1487824,8380.0,7470.0,1570.0,-472.0,542.0,-2276.0,0.224,-0.396,-0.546,-0.704
1487837,8744.0,8340.0,1786.0,-476.0,659.0,-2433.0,0.21,-0.38,-0.55,-0.714
1487860,9138.0,8734.0,1548.0,-706.0,679.0,-2705.0,0.193,-0.362,-0.554,-0.725
1487873,9680.0,6836.0,816.0,-617.0,747.0,-3009.0,0.175,-0.342,-0.558,-0.735
1487896,8844.0,8728.0,444.0,-315.0,1042.0,-3075.0,0.158,-0.319,-0.564,-0.745
1487909,7746.0,9148.0,1092.0,-362.0,1004.0,-3320.0,0.14,-0.295,-0.57,-0.754
1487932,7276.0,7558.0,908.0,-414.0,1033.0,-3333.0,0.121,-0.27,-0.575,-0.763
1487950,5906.0,7854.0,1206.0,-137.0,1133.0,-3238.0,0.103,-0.245,-0.58,-0.77
1487963,5050.0,9226.0,1178.0,-63.0,1049.0,-3382.0,0.085,-0.219,-0.586,-0.775
1487976,4534.0,7500.0,1470.0,-205.0,915.0,-3523.0,0.064,-0.193,-0.591,-0.78
1487999,4048.0,7168.0,1206.0,-271.0,889.0,-3383.0,0.044,-0.168,-0.594,-0.785
1488012,2954.0,7016.0,1438.0,-317.0,894.0,-3304.0,0.025,-0.144,-0.597,-0.789
1488035,2562.0,7408.0,1374.0,-346.0,893.0,-3274.0,0.006,-0.119,-0.598,-0.792
1488048,1944.0,8002.0,1162.0,-444.0,898.0,-3259.0,0.014,0.095,0.598,0.796
1488071,1578.0,7024.0,1262.0,-449.0,779.0,-3290.0,0.034,0.071,0.598,0.798
1488084,1230.0,6154.0,1004.0,-545.0,699.0,-3131.0,0.054,0.048,0.596,0.8
1488107,824.0,8552.0,624.0,-657.0,696.0,-2949.0,0.072,0.026,0.592,0.802
1488120,-300.0,6622.0,1520.0,-645.0,258.0,-2955.0,0.093,0.008,0.588,0.803
1488133,200.0,3444.0,1438.0,-402.0,219.0,-2857.0,0.114,-0.01,0.585,0.803
1488156,296.0,6852.0,2188.0,88.0,538.0,-2844.0,0.132,-0.029,0.586,0.799
1488169,-1294.0,7448.0,2202.0,-479.0,374.0,-2475.0,0.148,-0.046,0.582,0.798
1488192,-702.0,6208.0,1890.0,-868.0,208.0,-2531.0,0.166,-0.062,0.575,0.799
1488205,-1100.0,4140.0,2028.0,-318.0,286.0,-2506.0,0.183,-0.078,0.571,0.796
1488228,-758.0,5746.0,1894.0,165.0,456.0,-2483.0,0.2,-0.094,0.571,0.79
1488241,-1802.0,6384.0,1828.0,-154.0,413.0,-2239.0,0.214,-0.109,0.569,0.786
1488264,-1696.0,6212.0,2040.0,-302.0,369.0,-2250.0,0.229,-0.123,0.565,0.783
1488277,-1976.0,4798.0,2282.0,-194.0,338.0,-2307.0,0.244,-0.138,0.562,0.778
1488300,-2054.0,5068.0,1476.0,61.0,317.0,-2399.0,0.26,-0.152,0.56,0.772
1488313,-2290.0,5590.0,1476.0,-75.0,296.0,-2246.0,0.275,-0.166,0.557,0.766
1488326,-2546.0,5514.0,2036.0,-103.0,193.0,-2171.0,0.29,-0.179,0.553,0.76
1488349,-3018.0,4978.0,1466.0,-29.0,99.0,-2149.0,0.305,-0.19,0.55,0.754
1488362,-2952.0,2750.0,1142.0,-334.0,76.0,-1914.0,0.318,-0.201,0.544,0.75
1488385,-3034.0,3718.0,1462.0,-364.0,188.0,-1723.0,0.329,-0.211,0.539,0.746
1488398,-4600.0,3252.0,1852.0,-498.0,160.0,-1252.0,0.336,-0.22,0.534,0.744
1488421,-4952.0,2216.0,1874.0,-421.0,143.0,-1057.0,0.342,-0.227,0.529,0.742
1488434,-5040.0,1902.0,1936.0,-411.0,174.0,-797.0,0.347,-0.233,0.525,0.741
1488457,-5712.0,1858.0,2158.0,-544.0,144.0,-380.0,0.348,-0.237,0.521,0.742
1488470,-6276.0,604.0,2394.0,-517.0,11.0,-71.0,0.348,-0.238,0.518,0.744
1488483,-6176.0,-44.0,2312.0,-426.0,-58.0,303.0,0.346,-0.237,0.516,0.747
1488506,-6224.0,104.0,2312.0,-387.0,-115.0,727.0,0.342,-0.234,0.514,0.751
1488519,-6274.0,74.0,2322.0,-354.0,-218.0,1184.0,0.334,-0.227,0.514,0.757
1488542,-6076.0,412.0,2080.0,-151.0,-381.0,1603.0,0.325,-0.217,0.515,0.763
1488555,-5730.0,374.0,2688.0,-35.0,-519.0,2032.0,0.314,-0.203,0.518,0.77
1488578,-5110.0,-16.0,3102.0,45.0,-637.0,2413.0,0.3,-0.186,0.521,0.777
1488591,-4654.0,-226.0,4136.0,356.0,-792.0,2761.0,0.286,-0.165,0.526,0.784
1488614,-3430.0,2792.0,3236.0,805.0,-718.0,3018.0,0.269,-0.142,0.534,0.789
1488627,-3970.0,5116.0,1896.0,899.0,-771.0,3294.0,0.25,-0.117,0.543,0.793
1488650,-3524.0,3412.0,1254.0,703.0,-1078.0,3252.0,0.233,-0.09,0.549,0.798
1488663,-1516.0,4242.0,1498.0,534.0,-1168.0,3130.0,0.217,-0.064,0.553,0.802
1488686,-662.0,5466.0,1426.0,194.0,-1056.0,3138.0,0.199,-0.039,0.554,0.807
1488699,-52.0,5566.0,1898.0,95.0,-1120.0,3030.0,0.183,-0.014,0.553,0.813
1488712,1414.0,7062.0,1272.0,563.0,-1092.0,2979.0,0.166,0.011,0.556,0.814
1488735,1702.0,8488.0,1548.0,652.0,-834.0,3081.0,0.147,0.035,0.559,0.815
1488748,1690.0,9792.0,2712.0,631.0,-852.0,2897.0,0.13,0.058,0.562,0.815
1488771,1930.0,7994.0,2716.0,601.0,-892.0,2856.0,0.113,0.081,0.563,0.814
1488784,2752.0,7598.0,3074.0,993.0,-664.0,2797.0,0.094,0.103,0.568,0.811
1488807,2836.0,9804.0,2444.0,896.0,-475.0,2836.0,0.075,0.123,0.571,0.808
1488820,2708.0,10632.0,2742.0,564.0,-669.0,2757.0,0.057,0.143,0.571,0.806
1488833,3232.0,7520.0,3036.0,576.0,-731.0,2649.0,0.04,0.163,0.571,0.803
1488856,3978.0,9222.0,2958.0,936.0,-502.0,2477.0,0.023,0.181,0.574,0.798
1488869,3350.0,9362.0,2030.0,473.0,-501.0,2429.0,0.007,0.198,0.573,0.795
1488892,3802.0,8058.0,2674.0,49.0,-544.0,2384.0,0.008,-0.215,-0.569,-0.794
1488905,4440.0,8756.0,2534.0,54.0,-522.0,2404.0,0.022,-0.231,-0.564,-0.792
1488928,3868.0,8624.0,1860.0,201.0,-414.0,2347.0,0.038,-0.247,-0.561,-0.789
1488941,4514.0,7814.0,1542.0,580.0,-547.0,2182.0,0.052,-0.262,-0.56,-0.784
1488964,4674.0,7814.0,1718.0,515.0,-440.0,2204.0,0.067,-0.277,-0.558,-0.779
1488977,4878.0,7342.0,2616.0,286.0,-466.0,2101.0,0.081,-0.291,-0.555,-0.775
1489000,4874.0,6744.0,1804.0,139.0,-474.0,2210.0,0.095,-0.306,-0.55,-0.771
1489013,5014.0,8046.0,846.0,557.0,-468.0,2221.0,0.11,-0.32,-0.548,-0.765
1489026,5270.0,8126.0,1372.0,438.0,-420.0,1931.0,0.123,-0.332,-0.546,-0.759
1489049,5926.0,6694.0,2332.0,23.0,-514.0,1900.0,0.134,-0.346,-0.541,-0.755
1489062,6572.0,6364.0,1866.0,-177.0,-445.0,1985.0,0.145,-0.359,-0.534,-0.752
1489085,6176.0,6628.0,878.0,105.0,-397.0,1995.0,0.157,-0.371,-0.528,-0.747
1489098,6504.0,7496.0,1124.0,494.0,-323.0,1740.0,0.17,-0.382,-0.526,-0.741
1489121,6656.0,6352.0,2160.0,530.0,-370.0,1521.0,0.181,-0.391,-0.525,-0.734
1489134,7248.0,6610.0,1712.0,329.0,-309.0,1571.0,0.191,-0.4,-0.522,-0.729
1489157,7004.0,6660.0,908.0,180.0,-337.0,1643.0,0.201,-0.41,-0.518,-0.723
1489170,6976.0,6094.0,762.0,211.0,-372.0,1570.0,0.211,-0.419,-0.514,-0.718
1489193,7322.0,6142.0,428.0,365.0,-372.0,1506.0,0.221,-0.428,-0.511,-0.712
1489206,7130.0,6166.0,1718.0,333.0,-378.0,1377.0,0.23,-0.436,-0.509,-0.705
1489219,7262.0,5752.0,1568.0,48.0,-494.0,1301.0,0.237,-0.445,-0.505,-0.7
1489242,7506.0,5672.0,658.0,-38.0,-471.0,1298.0,0.243,-0.455,-0.501,-0.695
1489255,7188.0,6100.0,960.0,-192.0,-495.0,1180.0,0.248,-0.464,-0.496,-0.691
1489278,8090.0,4826.0,822.0,-295.0,-499.0,1041.0,0.251,-0.472,-0.491,-0.688
1489291,8200.0,5044.0,554.0,10.0,-288.0,876.0,0.256,-0.478,-0.488,-0.684
1489314,7708.0,5844.0,614.0,151.0,-223.0,730.0,0.26,-0.482,-0.486,-0.681
1489327,7796.0,5648.0,1184.0,105.0,-237.0,557.0,0.264,-0.486,-0.485,-0.678
1489350,8018.0,5748.0,1546.0,115.0,-201.0,429.0,0.266,-0.488,-0.485,-0.675
1489363,7742.0,6232.0,1620.0,13.0,-174.0,233.0,0.267,-0.49,-0.484,-0.673
1489376,7842.0,5720.0,1728.0,-84.0,-123.0,45.0,0.267,-0.491,-0.484,-0.673
1489399,7660.0,6082.0,1558.0,1.0,-3.0,-166.0,0.266,-0.49,-0.485,-0.673
1489412,7608.0,6106.0,1570.0,40.0,74.0,-428.0,0.265,-0.488,-0.488,-0.674
1489435,7652.0,6510.0,1396.0,39.0,248.0,-682.0,0.262,-0.483,-0.491,-0.676
1489448,7716.0,7088.0,2000.0,108.0,382.0,-982.0,0.259,-0.475,-0.495,-0.68
1489471,7698.0,6762.0,2142.0,86.0,495.0,-1234.0,0.254,-0.466,-0.5,-0.684
1489484,7322.0,7860.0,2360.0,37.0,506.0,-1388.0,0.248,-0.456,-0.505,-0.689
1489507,7326.0,8308.0,2572.0,-104.0,452.0,-1637.0,0.24,-0.445,-0.511,-0.695
1489520,7800.0,7432.0,2404.0,-315.0,464.0,-1838.0,0.229,-0.434,-0.516,-0.703
1489543,7786.0,8724.0,1728.0,-299.0,576.0,-1976.0,0.218,-0.421,-0.521,-0.71
1489556,7900.0,8352.0,1680.0,-293.0,587.0,-2293.0,0.205,-0.406,-0.526,-0.718
1489569,8460.0,7218.0,2404.0,-173.0,737.0,-2554.0,0.191,-0.389,-0.534,-0.727
1489592,8242.0,8678.0,2030.0,-93.0,862.0,-2720.0,0.176,-0.369,-0.541,-0.735
1489605,7742.0,9402.0,2114.0,-199.0,918.0,-2949.0,0.16,-0.348,-0.548,-0.743
1489628,7742.0,9312.0,2134.0,-342.0,955.0,-3126.0,0.143,-0.326,-0.555,-0.752
1489641,7438.0,8074.0,1892.0,-295.0,1085.0,-3163.0,0.126,-0.302,-0.561,-0.761
1489664,6666.0,9312.0,1508.0,-181.0,1123.0,-3257.0,0.108,-0.277,-0.567,-0.768
1489677,6214.0,8738.0,1530.0,-336.0,1076.0,-3382.0,0.089,-0.251,-0.572,-0.776
1489700,5934.0,8384.0,2006.0,-411.0,1124.0,-3423.0,0.069,-0.225,-0.576,-0.783
1489713,5190.0,8392.0,1548.0,-299.0,1143.0,-3435.0,0.05,-0.198,-0.58,-0.789
1489736,4622.0,8316.0,1804.0,-197.0,1185.0,-3429.0,0.031,-0.171,-0.584,-0.793
1489749,4230.0,8026.0,2020.0,-243.0,1141.0,-3457.0,0.011,-0.143,-0.587,-0.797
1489762,3738.0,8100.0,1888.0,-283.0,1096.0,-3483.0,0.009,0.116,0.589,0.8
1489785,2880.0,7756.0,1668.0,-391.0,1069.0,-3391.0,0.028,0.09,0.59,0.802
1489798,2636.0,7392.0,1990.0,-366.0,967.0,-3465.0,0.049,0.064,0.59,0.804
1489821,1926.0,6910.0,1442.0,-356.0,913.0,-3399.0,0.07,0.038,0.589,0.804
1489834,1506.0,7114.0,1192.0,-232.0,857.0,-3294.0,0.09,0.014,0.589,0.803
1489857,850.0,6922.0,1326.0,-327.0,741.0,-3169.0,0.109,-0.01,0.587,0.802
1489870,782.0,6218.0,1504.0,-44.0,602.0,-3251.0,0.13,-0.032,0.587,0.798
1489893,472.0,6288.0,1408.0,171.0,685.0,-3198.0,0.151,-0.054,0.588,0.793
1489906,-122.0,5966.0,1554.0,-143.0,651.0,-2883.0,0.168,-0.075,0.586,0.789
1489919,-550.0,6108.0,1860.0,-406.0,647.0,-2677.0,0.184,-0.094,0.582,0.786
1489942,-1222.0,5492.0,1214.0,-451.0,603.0,-2616.0,0.2,-0.113,0.577,0.783
1489960,-1670.0,4336.0,1020.0,-128.0,388.0,-2616.0,0.218,-0.13,0.574,0.778
1489973,-1284.0,5356.0,1432.0,127.0,453.0,-2615.0,0.235,-0.147,0.573,0.772
1489996,-2448.0,4886.0,1740.0,-92.0,370.0,-2457.0,0.251,-0.162,0.569,0.766
1490009,-2626.0,4820.0,1578.0,-231.0,248.0,-2585.0,0.268,-0.178,0.564,0.76
1490032,-2904.0,4866.0,874.0,-152.0,77.0,-2604.0,0.286,-0.192,0.559,0.754
1490045,-2818.0,4350.0,260.0,-193.0,-86.0,-2520.0,0.304,-0.205,0.553,0.748
1490068,-2924.0,3222.0,1084.0,-61.0,-120.0,-2420.0,0.322,-0.216,0.548,0.742
1490081,-2974.0,3438.0,1426.0,-9.0,-20.0,-2170.0,0.337,-0.227,0.543,0.735
1490104,-3720.0,2320.0,1234.0,-190.0,22.0,-1820.0,0.349,-0.236,0.538,0.73
1490117,-3916.0,1598.0,1042.0,-94.0,-9.0,-1537.0,0.36,-0.244,0.534,0.725
1490130,-4482.0,1926.0,1474.0,49.0,-9.0,-1205.0,0.369,-0.249,0.532,0.72
1490153,-5180.0,1460.0,1900.0,-115.0,6.0,-861.0,0.375,-0.253,0.529,0.718
1490166,-5576.0,656.0,1908.0,-143.0,2.0,-603.0,0.379,-0.256,0.527,0.716
1490189,-6006.0,492.0,2258.0,-39.0,27.0,-247.0,0.381,-0.257,0.526,0.715
1490202,-6506.0,90.0,2710.0,128.0,37.0,96.0,0.381,-0.256,0.528,0.714
1490225,-6616.0,28.0,2000.0,195.0,12.0,537.0,0.379,-0.252,0.531,0.715
1490238,-6676.0,-182.0,1810.0,227.0,-44.0,972.0,0.374,-0.246,0.534,0.717
1490261,-6330.0,482.0,3010.0,215.0,-174.0,1409.0,0.366,-0.236,0.539,0.721
1490274,-6238.0,540.0,3364.0,117.0,-331.0,1870.0,0.356,-0.224,0.543,0.727
1490297,-6064.0,2.0,2724.0,322.0,-440.0,2215.0,0.345,-0.208,0.548,0.733
1490310,-5580.0,-560.0,2312.0,601.0,-502.0,2549.0,0.332,-0.189,0.555,0.739
1490323,-4578.0,682.0,2650.0,968.0,-486.0,2888.0,0.317,-0.167,0.566,0.743
1490346,-4148.0,4310.0,2136.0,1085.0,-291.0,3258.0,0.298,-0.143,0.577,0.747
1490359,-4704.0,3834.0,710.0,799.0,-327.0,3338.0,0.278,-0.12,0.586,0.752
1490382,-3472.0,3428.0,126.0,698.0,-450.0,3172.0,0.259,-0.097,0.593,0.756
1490395,-2122.0,3714.0,788.0,843.0,-427.0,3094.0,0.241,-0.075,0.601,0.759
1490418,-1388.0,5142.0,1164.0,842.0,-328.0,3265.0,0.221,-0.052,0.608,0.761
1490431,-92.0,9100.0,136.0,655.0,-254.0,3245.0,0.2,-0.029,0.613,0.763
1490454,-726.0,7172.0,2584.0,322.0,-211.0,3266.0,0.179,-0.008,0.616,0.767
1490467,358.0,7562.0,1882.0,325.0,-264.0,3063.0,0.158,0.013,0.617,0.77
1490480,486.0,7040.0,618.0,496.0,-193.0,3057.0,0.138,0.033,0.62,0.772
1490503,2002.0,9332.0,1238.0,679.0,-130.0,3054.0,0.117,0.053,0.624,0.771
1490516,2050.0,9918.0,2558.0,585.0,-128.0,3158.0,0.095,0.073,0.626,0.771
1490539,2238.0,8454.0,1490.0,288.0,-175.0,3203.0,0.073,0.094,0.625,0.771
1490552,2758.0,10020.0,984.0,518.0,-238.0,3048.0,0.052,0.114,0.626,0.77
1490575,2576.0,8268.0,486.0,493.0,-402.0,2969.0,0.032,0.135,0.626,0.768
1490588,3974.0,9582.0,1924.0,536.0,-336.0,2765.0,0.014,0.154,0.626,0.765
1490611,3450.0,10946.0,1388.0,68.0,-294.0,2704.0,0.003,-0.172,-0.622,-0.764
1490624,3630.0,9354.0,192.0,-389.0,-422.0,2692.0,0.019,-0.191,-0.615,-0.765
1490647,4246.0,7620.0,742.0,116.0,-406.0,2480.0,0.035,-0.208,-0.611,-0.763
1490660,4712.0,8484.0,122.0,463.0,-307.0,2388.0,0.051,-0.224,-0.61,-0.759
1490673,4422.0,8016.0,1400.0,479.0,-257.0,2340.0,0.067,-0.239,-0.608,-0.754
1490696,5118.0,9392.0,1176.0,93.0,-336.0,2420.0,0.082,-0.255,-0.603,-0.751
1490709,4450.0,7376.0,1596.0,-73.0,-291.0,2374.0,0.097,-0.27,-0.597,-0.749
1490732,5282.0,8210.0,1476.0,170.0,-292.0,2268.0,0.112,-0.285,-0.593,-0.745
1490745,5078.0,8216.0,690.0,195.0,-265.0,2243.0,0.126,-0.299,-0.588,-0.741
1490768,5316.0,7252.0,670.0,14.0,-268.0,2128.0,0.139,-0.312,-0.583,-0.737
1490781,5928.0,7804.0,1268.0,-127.0,-292.0,2060.0,0.152,-0.326,-0.576,-0.734
1490804,5758.0,6932.0,1052.0,-130.0,-330.0,2035.0,0.164,-0.339,-0.57,-0.731
1490817,6312.0,7006.0,1252.0,23.0,-317.0,1946.0,0.175,-0.351,-0.564,-0.726
1490830,6184.0,7330.0,720.0,44.0,-332.0,1829.0,0.186,-0.363,-0.559,-0.722
1490853,6780.0,7110.0,552.0,66.0,-375.0,1727.0,0.196,-0.374,-0.554,-0.717
1490866,6868.0,7070.0,1280.0,-134.0,-348.0,1626.0,0.205,-0.385,-0.548,-0.714
1490889,7206.0,6688.0,1550.0,-272.0,-408.0,1570.0,0.212,-0.397,-0.541,-0.71
1490902,7284.0,6200.0,770.0,-101.0,-371.0,1548.0,0.221,-0.407,-0.536,-0.706
1490925,7120.0,5908.0,1222.0,-8.0,-304.0,1510.0,0.229,-0.416,-0.531,-0.702
1490938,7192.0,6400.0,772.0,-90.0,-319.0,1479.0,0.237,-0.426,-0.525,-0.698
1490961,7034.0,5674.0,862.0,-105.0,-306.0,1482.0,0.245,-0.435,-0.519,-0.693
1490974,7270.0,6200.0,1024.0,0.0,-313.0,1451.0,0.253,-0.444,-0.514,-0.689
1490997,7272.0,5554.0,642.0,19.0,-320.0,1366.0,0.261,-0.452,-0.51,-0.684
1491010,7324.0,5514.0,888.0,-8.0,-309.0,1283.0,0.268,-0.46,-0.505,-0.679
1491033,7576.0,5372.0,944.0,-80.0,-328.0,1151.0,0.273,-0.468,-0.501,-0.675
1491046,7516.0,4666.0,448.0,-37.0,-260.0,1024.0,0.279,-0.474,-0.497,-0.671
1491059,7564.0,4980.0,616.0,86.0,-186.0,935.0,0.284,-0.479,-0.494,-0.667
1491082,7452.0,5210.0,650.0,-75.0,-233.0,837.0,0.288,-0.484,-0.491,-0.664
1491095,7496.0,4528.0,1114.0,-172.0,-252.0,772.0,0.292,-0.489,-0.487,-0.662
1491118,7600.0,4960.0,1240.0,-167.0,-241.0,669.0,0.294,-0.494,-0.484,-0.659
1491131,7590.0,4968.0,428.0,-233.0,-239.0,570.0,0.296,-0.499,-0.481,-0.658
1491154,7728.0,4964.0,586.0,-254.0,-220.0,458.0,0.297,-0.503,-0.478,-0.656
1491167,8122.0,4460.0,858.0,-224.0,-174.0,309.0,0.297,-0.505,-0.476,-0.655
1491190,7864.0,4366.0,826.0,-130.0,-96.0,140.0,0.297,-0.507,-0.475,-0.655
1491203,7894.0,4660.0,1098.0,-54.0,-86.0,-77.0,0.297,-0.507,-0.476,-0.655
1491216,8012.0,5148.0,974.0,-193.0,-129.0,-278.0,0.294,-0.507,-0.477,-0.655
1491239,8146.0,4332.0,1276.0,-254.0,-131.0,-424.0,0.29,-0.506,-0.478,-0.657
1491252,8084.0,5986.0,1018.0,-166.0,27.0,-692.0,0.285,-0.503,-0.48,-0.659
1491275,8148.0,6810.0,1536.0,-85.0,66.0,-1036.0,0.279,-0.498,-0.485,-0.663
1491288,8214.0,6896.0,2304.0,42.0,149.0,-1340.0,0.272,-0.491,-0.491,-0.666
1491311,8084.0,7600.0,2380.0,-13.0,221.0,-1625.0,0.264,-0.482,-0.498,-0.671
1491324,7884.0,8252.0,2174.0,-244.0,269.0,-1853.0,0.252,-0.472,-0.504,-0.678
1491347,8128.0,8496.0,1730.0,-429.0,312.0,-2115.0,0.239,-0.46,-0.51,-0.686
1491360,8408.0,8266.0,1672.0,-328.0,487.0,-2358.0,0.225,-0.446,-0.517,-0.694
1491373,8496.0,8894.0,1356.0,-263.0,630.0,-2640.0,0.21,-0.43,-0.526,-0.704
1491396,8678.0,8894.0,1908.0,-284.0,717.0,-2950.0,0.194,-0.411,-0.534,-0.713
1491409,8984.0,8740.0,2050.0,-386.0,829.0,-3206.0,0.175,-0.39,-0.542,-0.724
1491432,8814.0,8982.0,1826.0,-280.0,1031.0,-3345.0,0.157,-0.366,-0.551,-0.734
1491445,8462.0,9678.0,1570.0,-218.0,1136.0,-3505.0,0.139,-0.34,-0.559,-0.743
1491468,8196.0,9102.0,1400.0,-342.0,1209.0,-3669.0,0.119,-0.312,-0.567,-0.753
1491481,7806.0,9046.0,1322.0,-402.0,1427.0,-3692.0,0.099,-0.283,-0.573,-0.763
1491504,6812.0,8408.0,1560.0,-356.0,1560.0,-3634.0,0.081,-0.252,-0.578,-0.772
1491517,5858.0,8476.0,1430.0,-300.0,1519.0,-3650.0,0.063,-0.222,-0.583,-0.779
1491540,5288.0,8394.0,1202.0,-303.0,1449.0,-3630.0,0.044,-0.191,-0.587,-0.785
1491553,4952.0,8028.0,1594.0,-537.0,1300.0,-3568.0,0.024,-0.162,-0.589,-0.791
1491566,4460.0,6792.0,1152.0,-573.0,1229.0,-3414.0,0.005,-0.135,-0.589,-0.797
1491589,3594.0,6356.0,1260.0,-422.0,1139.0,-3321.0,0.013,0.109,0.59,0.8
1491602,3024.0,6744.0,1878.0,-57.0,1044.0,-3470.0,0.033,0.082,0.593,0.8
1491625,2488.0,6674.0,1948.0,-406.0,842.0,-3438.0,0.054,0.057,0.592,0.802
1491638,2402.0,7760.0,1022.0,-431.0,733.0,-3341.0,0.075,0.033,0.591,0.802
1491661,1738.0,6256.0,1132.0,-549.0,603.0,-3200.0,0.095,0.011,0.588,0.803
1491674,1688.0,5300.0,1456.0,-435.0,584.0,-3183.0,0.116,-0.011,0.586,0.802
1491697,1140.0,6348.0,1350.0,-303.0,616.0,-3078.0,0.136,-0.033,0.583,0.8
1491710,494.0,6130.0,852.0,-314.0,542.0,-2805.0,0.154,-0.052,0.581,0.798
1491733,114.0,5326.0,1526.0,-311.0,584.0,-2737.0,0.171,-0.071,0.578,0.795
1491746,-598.0,4426.0,1456.0,-171.0,569.0,-2653.0,0.188,-0.09,0.575,0.791
1491759,-728.0,5694.0,1352.0,-49.0,653.0,-2486.0,0.203,-0.108,0.574,0.786
1491782,-1576.0,5262.0,1638.0,13.0,543.0,-2339.0,0.217,-0.124,0.573,0.781
1491795,-1772.0,5842.0,932.0,-96.0,464.0,-2428.0,0.233,-0.14,0.57,0.775
1491818,-2212.0,4622.0,1252.0,43.0,316.0,-2517.0,0.25,-0.155,0.568,0.769
1491831,-2270.0,4722.0,1058.0,-9.0,225.0,-2600.0,0.267,-0.17,0.564,0.762
1491854,-2650.0,3288.0,914.0,-25.0,173.0,-2405.0,0.284,-0.184,0.561,0.756
1491867,-2734.0,5004.0,300.0,-20.0,176.0,-2239.0,0.299,-0.197,0.557,0.749
1491890,-3442.0,4520.0,876.0,-166.0,62.0,-2096.0,0.313,-0.208,0.552,0.744
1491903,-3734.0,2422.0,1704.0,-265.0,-55.0,-1857.0,0.326,-0.217,0.547,0.74
1491916,-4478.0,846.0,1408.0,-39.0,-76.0,-1629.0,0.338,-0.225,0.543,0.735
1491939,-4528.0,2674.0,1028.0,-88.0,-34.0,-1164.0,0.347,-0.23,0.54,0.732
1491952,-5832.0,2142.0,1832.0,-317.0,-54.0,-795.0,0.352,-0.235,0.536,0.73
1491970,-6688.0,682.0,1772.0,-401.0,-154.0,-563.0,0.357,-0.237,0.532,0.731
1491993,-6530.0,222.0,2536.0,-145.0,-113.0,-324.0,0.36,-0.238,0.53,0.73
1492006,-7288.0,80.0,2880.0,-51.0,-18.0,79.0,0.36,-0.238,0.529,0.73
1492029,-7558.0,-214.0,2470.0,51.0,-64.0,415.0,0.359,-0.236,0.53,0.731
1492042,-7224.0,118.0,2178.0,117.0,-103.0,780.0,0.356,-0.231,0.532,0.733
1492065,-7050.0,40.0,2286.0,109.0,-83.0,1165.0,0.35,-0.224,0.535,0.736
1492078,-6568.0,442.0,1700.0,279.0,-100.0,1469.0,0.342,-0.215,0.539,0.739
1492101,-5938.0,1174.0,1862.0,405.0,-123.0,1835.0,0.331,-0.203,0.546,0.743
1492114,-5394.0,1624.0,2730.0,534.0,-209.0,2212.0,0.318,-0.188,0.553,0.747
1492127,-4860.0,2642.0,2550.0,587.0,-277.0,2495.0,0.304,-0.171,0.56,0.751
1492150,-4592.0,2386.0,2044.0,433.0,-430.0,2668.0,0.289,-0.152,0.566,0.757
1492163,-3060.0,4934.0,2192.0,459.0,-474.0,2720.0,0.273,-0.132,0.572,0.762
1492186,-3270.0,4960.0,2086.0,344.0,-447.0,2955.0,0.256,-0.112,0.577,0.768
1492199,-2626.0,4802.0,1136.0,392.0,-566.0,2842.0,0.239,-0.091,0.581,0.772
1492222,-1282.0,3814.0,1334.0,516.0,-539.0,2840.0,0.223,-0.07,0.586,0.776
1492235,-280.0,7352.0,2058.0,383.0,-385.0,2841.0,0.204,-0.05,0.59,0.78
1492258,-954.0,6854.0,1788.0,197.0,-408.0,2850.0,0.186,-0.031,0.591,0.784
1492271,180.0,7964.0,1886.0,517.0,-386.0,2449.0,0.171,-0.013,0.595,0.785
1492284,420.0,6928.0,1916.0,399.0,-283.0,2553.0,0.154,0.005,0.598,0.787
1492307,1038.0,8674.0,2666.0,269.0,-272.0,2635.0,0.137,0.022,0.599,0.789
1492320,966.0,8988.0,1948.0,504.0,-254.0,2697.0,0.118,0.04,0.602,0.789
1492343,1028.0,7814.0,2382.0,531.0,-237.0,2740.0,0.099,0.058,0.604,0.789
1492356,1764.0,8320.0,1616.0,548.0,-264.0,2720.0,0.081,0.077,0.606,0.788
1492379,928.0,8738.0,2316.0,162.0,-269.0,2784.0,0.062,0.095,0.605,0.788
1492392,2210.0,9292.0,2544.0,298.0,-423.0,2546.0,0.046,0.113,0.604,0.787
1492415,2232.0,8800.0,1944.0,242.0,-422.0,2538.0,0.029,0.13,0.603,0.786
1492428,2526.0,8312.0,1770.0,274.0,-361.0,2379.0,0.014,0.147,0.602,0.785
1492451,2728.0,9652.0,1238.0,9.0,-448.0,2301.0,0.001,-0.163,-0.599,-0.784
1492464,2854.0,7902.0,1716.0,-105.0,-444.0,2293.0,0.015,-0.179,-0.594,-0.784
1492477,3394.0,8032.0,1816.0,212.0,-377.0,2216.0,0.029,-0.194,-0.592,-0.782
1492500,3706.0,8720.0,1784.0,406.0,-464.0,2272.0,0.044,-0.21,-0.591,-0.778
1492513,4010.0,8982.0,1830.0,392.0,-338.0,2105.0,0.058,-0.224,-0.589,-0.774
1492536,3840.0,9200.0,1894.0,-31.0,-361.0,2001.0,0.07,-0.238,-0.585,-0.772
1492549,4206.0,7028.0,924.0,-251.0,-506.0,2061.0,0.082,-0.253,-0.579,-0.771
1492572,4722.0,7142.0,1574.0,252.0,-333.0,2157.0,0.096,-0.267,-0.576,-0.767
1492585,5164.0,8904.0,1720.0,554.0,-346.0,1963.0,0.11,-0.28,-0.575,-0.761
1492608,4828.0,8204.0,1228.0,142.0,-320.0,1944.0,0.122,-0.292,-0.571,-0.757
1492621,4986.0,7284.0,2200.0,-167.0,-376.0,1976.0,0.134,-0.306,-0.565,-0.755
1492644,5498.0,6970.0,1898.0,-206.0,-483.0,1956.0,0.144,-0.32,-0.559,-0.752
1492657,5302.0,6728.0,1160.0,143.0,-439.0,1928.0,0.156,-0.332,-0.555,-0.747
1492670,5526.0,6914.0,1396.0,415.0,-323.0,1738.0,0.168,-0.343,-0.553,-0.741
1492693,5810.0,8392.0,1348.0,28.0,-444.0,1647.0,0.177,-0.354,-0.548,-0.737
1492706,5924.0,5744.0,1738.0,-312.0,-485.0,1724.0,0.185,-0.367,-0.541,-0.734
1492729,6254.0,5546.0,1264.0,-249.0,-470.0,1800.0,0.194,-0.379,-0.534,-0.73
1492742,6476.0,6864.0,780.0,121.0,-512.0,1686.0,0.204,-0.391,-0.53,-0.725
1492765,6262.0,5106.0,446.0,239.0,-509.0,1544.0,0.213,-0.402,-0.527,-0.718
1492778,7520.0,5988.0,840.0,276.0,-401.0,1567.0,0.222,-0.411,-0.524,-0.712
1492801,7406.0,6508.0,1134.0,38.0,-371.0,1590.0,0.231,-0.421,-0.519,-0.707
1492814,7468.0,5504.0,1166.0,-102.0,-388.0,1600.0,0.24,-0.432,-0.513,-0.702
1492827,7744.0,4576.0,1228.0,7.0,-370.0,1652.0,0.249,-0.442,-0.507,-0.697
1492850,7852.0,4830.0,652.0,35.0,-386.0,1574.0,0.258,-0.452,-0.502,-0.691
1492863,8142.0,5744.0,212.0,136.0,-367.0,1447.0,0.266,-0.46,-0.497,-0.686
1492886,8124.0,5020.0,838.0,143.0,-351.0,1251.0,0.273,-0.468,-0.494,-0.68
1492899,8546.0,4016.0,1302.0,190.0,-317.0,1103.0,0.28,-0.474,-0.491,-0.675
1492922,8246.0,4356.0,1154.0,179.0,-278.0,932.0,0.286,-0.48,-0.489,-0.67
1492935,8286.0,9396.0,3906.0,-605.0,-279.0,1500.0,0.291,-0.49,-0.48,-0.667
1492958,8800.0,2444.0,904.0,44.0,-443.0,-262.0,0.288,-0.491,-0.483,-0.666
1492971,7432.0,6170.0,848.0,112.0,-91.0,108.0,0.289,-0.491,-0.483,-0.664
1492994,6950.0,4542.0,566.0,-235.0,-66.0,5.0,0.288,-0.492,-0.482,-0.665
1493007,7188.0,5664.0,984.0,-258.0,-107.0,105.0,0.287,-0.494,-0.481,-0.665
1493030,7118.0,3748.0,888.0,-131.0,-15.0,-316.0,0.285,-0.492,-0.482,-0.666
1493043,7278.0,4610.0,1058.0,-11.0,-43.0,-422.0,0.282,-0.49,-0.484,-0.667
1493056,6948.0,4580.0,826.0,17.0,13.0,-396.0,0.28,-0.488,-0.487,-0.668
1493079,7158.0,4726.0,750.0,45.0,-6.0,-386.0,0.278,-0.486,-0.489,-0.669
1493092,7226.0,4446.0,848.0,85.0,-21.0,-349.0,0.277,-0.484,-0.492,-0.669
1493115,7104.0,4760.0,944.0,92.0,49.0,-333.0,0.275,-0.481,-0.494,-0.67
1493128,7012.0,4322.0,672.0,91.0,28.0,-221.0,0.275,-0.479,-0.496,-0.67
1493151,7158.0,4378.0,722.0,90.0,40.0,-148.0,0.274,-0.478,-0.497,-0.67
1493164,7258.0,4452.0,498.0,105.0,66.0,-79.0,0.275,-0.476,-0.498,-0.67
1493187,7210.0,4304.0,434.0,169.0,101.0,-77.0,0.276,-0.475,-0.5,-0.67
1493200,7080.0,4276.0,506.0,194.0,111.0,-46.0,0.277,-0.473,-0.501,-0.669
1493213,7200.0,4342.0,554.0,192.0,112.0,-28.0,0.278,-0.471,-0.503,-0.669
