timeMs,ax,ay,az,gx,gy,gz,q0,q1,q2,q3
2997993,7702.0,2247.0,-1127.0,592.0,211.0,-505.0,0.217,-0.697,-0.351,-0.587
2998016,7664.0,2553.0,-1569.0,496.0,129.0,-720.0,0.216,-0.693,-0.358,-0.587
2998029,7756.0,2215.0,-1533.0,418.0,198.0,-875.0,0.214,-0.688,-0.366,-0.589
2998042,7402.0,2401.0,-1689.0,423.0,78.0,-799.0,0.213,-0.684,-0.373,-0.59
2998065,7408.0,2137.0,-1913.0,418.0,70.0,-486.0,0.213,-0.681,-0.379,-0.59
2998078,7536.0,1555.0,-2143.0,387.0,52.0,15.0,0.215,-0.68,-0.38,-0.588
2998101,7336.0,1929.0,-2075.0,433.0,5.0,224.0,0.219,-0.68,-0.381,-0.586
2998114,7312.0,2087.0,-2079.0,341.0,14.0,65.0,0.221,-0.68,-0.383,-0.585
2998137,7418.0,1893.0,-2181.0,262.0,-80.0,-314.0,0.221,-0.679,-0.386,-0.584
2998150,7688.0,1885.0,-2123.0,214.0,-56.0,-372.0,0.219,-0.677,-0.39,-0.584
2998173,7674.0,1763.0,-2163.0,272.0,-107.0,-260.0,0.219,-0.677,-0.393,-0.583
2998186,7598.0,1161.0,-2139.0,447.0,-95.0,-94.0,0.221,-0.676,-0.396,-0.581
2998199,7834.0,1689.0,-2061.0,497.0,-35.0,57.0,0.224,-0.676,-0.398,-0.579
2998222,7636.0,1805.0,-2237.0,487.0,-2.0,-34.0,0.227,-0.675,-0.401,-0.577
2998235,7614.0,1721.0,-2275.0,394.0,-45.0,-8.0,0.229,-0.674,-0.403,-0.575
2998258,7774.0,1381.0,-1881.0,346.0,-52.0,49.0,0.231,-0.674,-0.405,-0.573
2998271,7546.0,935.0,-1975.0,437.0,-74.0,-152.0,0.232,-0.673,-0.408,-0.572
2998294,7584.0,1501.0,-2101.0,432.0,-60.0,-330.0,0.233,-0.671,-0.412,-0.57
2998307,7382.0,1605.0,-2277.0,337.0,-65.0,-308.0,0.233,-0.67,-0.416,-0.569
2998330,7820.0,1341.0,-2205.0,346.0,-96.0,-180.0,0.233,-0.669,-0.419,-0.568
2998343,7700.0,1281.0,-2187.0,384.0,-116.0,-128.0,0.234,-0.669,-0.422,-0.566
3094710,-12660.0,30040.0,-2598.0,219.0,-167.0,-1.0,0.979,-0.204,-0.002,0.002
3094721,-2235.0,219.0,511.0,28.0,219.0,-167.0,0.984,0.12,-0.132,0.021
3094733,262.0,479.0,28.0,219.0,-167.0,-2648.0,0.986,-0.166,0.015,0.002
3094745,-1235.0,26.0,213.0,28.0,219.0,-167.0,0.994,0.092,-0.066,0.007
3094756,7304.0,1693.0,369.0,-734.0,-283.0,140.0,0.583,-0.261,-0.67,-0.379
3094759,6792.0,2365.0,-127.0,-861.0,-257.0,143.0,0.579,-0.268,-0.668,-0.383
3094762,6922.0,2161.0,-257.0,-1004.0,-303.0,185.0,0.575,-0.276,-0.665,-0.388
3094766,6852.0,1647.0,-583.0,-955.0,-309.0,105.0,0.571,-0.283,-0.663,-0.392
3094769,7424.0,1865.0,-553.0,-897.0,-280.0,28.0,0.567,-0.289,-0.661,-0.397
3094772,7704.0,1941.0,-745.0,-887.0,-180.0,-44.0,0.563,-0.295,-0.659,-0.403
3094776,7660.0,2433.0,-1139.0,-931.0,-65.0,-56.0,0.559,-0.3,-0.656,-0.409
3094779,7978.0,2043.0,149.0,-1030.0,-17.0,54.0,0.556,-0.306,-0.652,-0.415
3094802,8458.0,1457.0,1025.0,-958.0,51.0,118.0,0.554,-0.312,-0.647,-0.421
3094815,9368.0,1595.0,1493.0,-860.0,71.0,13.0,0.552,-0.316,-0.643,-0.426
3094833,8996.0,2065.0,1339.0,-884.0,74.0,-89.0,0.549,-0.32,-0.639,-0.433
3094846,8962.0,1029.0,1881.0,-947.0,32.0,-64.0,0.546,-0.325,-0.635,-0.439
3094869,8542.0,981.0,1961.0,-794.0,-79.0,-129.0,0.543,-0.329,-0.632,-0.444
3094882,8008.0,1219.0,1487.0,-633.0,-199.0,-259.0,0.539,-0.332,-0.631,-0.449
3094905,7792.0,1749.0,1067.0,-583.0,-296.0,-391.0,0.533,-0.334,-0.631,-0.454
3094918,7464.0,1955.0,1023.0,-606.0,-371.0,-441.0,0.527,-0.336,-0.632,-0.459
3094941,7042.0,1893.0,869.0,-649.0,-463.0,-371.0,0.521,-0.339,-0.632,-0.463
3094954,6980.0,2317.0,687.0,-697.0,-585.0,-290.0,0.514,-0.343,-0.633,-0.467
3094977,6812.0,2333.0,493.0,-817.0,-721.0,-202.0,0.506,-0.35,-0.633,-0.47
3094990,6956.0,2251.0,483.0,-987.0,-874.0,-74.0,0.497,-0.358,-0.633,-0.474
3095013,7164.0,2059.0,143.0,-1158.0,-891.0,32.0,0.488,-0.368,-0.632,-0.478
3095026,6986.0,2431.0,-217.0,-1378.0,-890.0,140.0,0.478,-0.379,-0.629,-0.482
3095039,7158.0,2285.0,-441.0,-1528.0,-896.0,242.0,0.468,-0.391,-0.625,-0.487
3095062,7556.0,2067.0,-715.0,-1601.0,-896.0,305.0,0.458,-0.404,-0.62,-0.492
3095075,8016.0,2067.0,-1055.0,-1590.0,-876.0,308.0,0.448,-0.417,-0.615,-0.497
3095098,8172.0,1541.0,-1367.0,-1450.0,-789.0,273.0,0.439,-0.428,-0.611,-0.501
3095111,8574.0,1515.0,-1767.0,-1352.0,-692.0,194.0,0.43,-0.439,-0.606,-0.505
3095134,8574.0,1353.0,-1997.0,-1253.0,-537.0,65.0,0.422,-0.447,-0.602,-0.509
3095147,8634.0,1745.0,-1749.0,-1245.0,-468.0,-25.0,0.414,-0.454,-0.598,-0.514
3095170,8236.0,1333.0,-1649.0,-1248.0,-348.0,26.0,0.407,-0.461,-0.593,-0.52
3095183,8198.0,1505.0,-1573.0,-1239.0,-336.0,21.0,0.4,-0.468,-0.588,-0.525
3095196,7858.0,1229.0,-1167.0,-1214.0,-288.0,-106.0,0.392,-0.474,-0.583,-0.531
3095219,7442.0,1591.0,-1059.0,-1221.0,-373.0,-165.0,0.384,-0.479,-0.579,-0.536
3095232,7342.0,1621.0,-967.0,-1305.0,-468.0,-132.0,0.375,-0.486,-0.575,-0.542
3095255,7496.0,1957.0,-871.0,-1469.0,-604.0,-66.0,0.364,-0.494,-0.569,-0.547
3095268,8042.0,1947.0,-1161.0,-1668.0,-641.0,171.0,0.354,-0.504,-0.562,-0.552
3095291,7946.0,1327.0,-1867.0,-1693.0,-635.0,66.0,0.343,-0.514,-0.555,-0.558
3095304,8232.0,1145.0,-2265.0,-1532.0,-571.0,-58.0,0.332,-0.522,-0.549,-0.563
3095327,8412.0,1671.0,-2291.0,-1495.0,-449.0,-11.0,0.322,-0.529,-0.542,-0.568
3095340,8258.0,1263.0,-1825.0,-1417.0,-407.0,33.0,0.313,-0.536,-0.535,-0.573
3095363,8152.0,1173.0,-1507.0,-1329.0,-376.0,-15.0,0.304,-0.542,-0.529,-0.578
3095376,8156.0,1459.0,-1743.0,-1212.0,-443.0,-143.0,0.295,-0.547,-0.524,-0.582
3095389,8094.0,1379.0,-2033.0,-1186.0,-414.0,-178.0,0.286,-0.552,-0.52,-0.586
3095412,8252.0,1475.0,-2085.0,-1105.0,-402.0,-48.0,0.278,-0.558,-0.515,-0.589
3095425,8260.0,1679.0,-1907.0,-1023.0,-402.0,90.0,0.271,-0.563,-0.509,-0.591
3095448,8366.0,1557.0,-1849.0,-995.0,-372.0,156.0,0.265,-0.569,-0.504,-0.593
3095461,8260.0,1337.0,-1969.0,-877.0,-335.0,148.0,0.26,-0.574,-0.499,-0.595
3095484,8270.0,1419.0,-2109.0,-756.0,-297.0,196.0,0.255,-0.579,-0.494,-0.596
3095497,8062.0,1453.0,-1921.0,-687.0,-261.0,147.0,0.251,-0.583,-0.49,-0.598
3095520,8224.0,1705.0,-1835.0,-589.0,-272.0,152.0,0.247,-0.587,-0.486,-0.598
3095533,8260.0,1679.0,-1683.0,-561.0,-316.0,227.0,0.244,-0.591,-0.482,-0.599
3095556,8048.0,1683.0,-1583.0,-492.0,-294.0,228.0,0.241,-0.595,-0.479,-0.599
3095569,8452.0,1925.0,-1793.0,-438.0,-329.0,348.0,0.239,-0.6,-0.475,-0.598
3095582,8448.0,1691.0,-1863.0,-398.0,-289.0,226.0,0.237,-0.604,-0.472,-0.597
3095605,8716.0,2087.0,-1749.0,-360.0,-220.0,359.0,0.236,-0.607,-0.468,-0.597
3095618,8320.0,1805.0,-1655.0,-373.0,-161.0,216.0,0.234,-0.61,-0.465,-0.597
3095641,8528.0,1953.0,-1529.0,-326.0,-106.0,269.0,0.233,-0.613,-0.461,-0.597
3095654,8232.0,1845.0,-1681.0,-274.0,-31.0,289.0,0.233,-0.615,-0.458,-0.598
3095677,8008.0,1989.0,-2005.0,-181.0,60.0,307.0,0.234,-0.617,-0.455,-0.598
3095690,7994.0,2355.0,-2101.0,-120.0,133.0,373.0,0.236,-0.618,-0.452,-0.598
3095713,7862.0,2221.0,-1827.0,-51.0,171.0,433.0,0.238,-0.619,-0.449,-0.599
3095726,7902.0,2151.0,-1359.0,10.0,149.0,463.0,0.241,-0.62,-0.446,-0.598
3095739,7826.0,2053.0,-1027.0,26.0,134.0,601.0,0.245,-0.622,-0.442,-0.598
3095762,7448.0,1895.0,-937.0,30.0,64.0,702.0,0.25,-0.625,-0.438,-0.596
3095775,7274.0,1787.0,-1223.0,49.0,-58.0,638.0,0.253,-0.628,-0.434,-0.594
3095798,7342.0,1947.0,-1467.0,27.0,-89.0,502.0,0.255,-0.63,-0.432,-0.593
3095811,7324.0,1709.0,-1683.0,25.0,-76.0,415.0,0.257,-0.633,-0.429,-0.591
3095834,7486.0,1691.0,-1911.0,71.0,-56.0,408.0,0.259,-0.635,-0.427,-0.589
3095847,7642.0,1605.0,-2061.0,133.0,-22.0,375.0,0.262,-0.636,-0.426,-0.588
3095870,7886.0,1451.0,-2097.0,228.0,47.0,354.0,0.265,-0.637,-0.425,-0.586
3095883,7902.0,1667.0,-1965.0,294.0,101.0,342.0,0.269,-0.637,-0.424,-0.585
3095906,7940.0,1761.0,-1741.0,338.0,110.0,277.0,0.273,-0.637,-0.424,-0.583
3095919,8126.0,1975.0,-1827.0,362.0,154.0,224.0,0.276,-0.636,-0.424,-0.582
3095932,7966.0,1723.0,-1887.0,419.0,91.0,145.0,0.279,-0.636,-0.425,-0.581
3095955,7982.0,1591.0,-1727.0,321.0,68.0,115.0,0.282,-0.635,-0.426,-0.58
3095968,8266.0,1083.0,-1403.0,315.0,8.0,55.0,0.284,-0.635,-0.427,-0.578
3095991,7924.0,957.0,-1551.0,320.0,-44.0,-95.0,0.285,-0.634,-0.429,-0.577
3096004,8132.0,1195.0,-1465.0,268.0,-50.0,-237.0,0.285,-0.633,-0.432,-0.577
3096027,8008.0,1185.0,-1487.0,274.0,11.0,-322.0,0.285,-0.631,-0.435,-0.576
3096040,7846.0,1497.0,-1577.0,254.0,15.0,-375.0,0.284,-0.629,-0.438,-0.576
3096063,7898.0,1331.0,-1601.0,233.0,9.0,-408.0,0.283,-0.627,-0.442,-0.577
3096076,7880.0,1443.0,-1479.0,281.0,4.0,-433.0,0.282,-0.624,-0.445,-0.577
3096099,8032.0,989.0,-1229.0,317.0,62.0,-439.0,0.281,-0.621,-0.449,-0.577
3096112,8008.0,1265.0,-1151.0,387.0,106.0,-444.0,0.282,-0.618,-0.453,-0.577
3096125,8136.0,1251.0,-917.0,421.0,129.0,-464.0,0.282,-0.615,-0.457,-0.578
3096148,8140.0,1343.0,-625.0,426.0,117.0,-462.0,0.282,-0.611,-0.462,-0.578
3096161,8182.0,1375.0,-411.0,401.0,141.0,-437.0,0.283,-0.608,-0.466,-0.578
3096184,8264.0,1473.0,-437.0,322.0,128.0,-398.0,0.283,-0.604,-0.469,-0.579
3096197,8204.0,1301.0,-473.0,285.0,126.0,-348.0,0.283,-0.602,-0.472,-0.579
3096220,8256.0,1027.0,-541.0,325.0,130.0,-328.0,0.284,-0.599,-0.475,-0.58
3096233,8208.0,1233.0,-787.0,319.0,142.0,-310.0,0.284,-0.596,-0.477,-0.58
3096256,8288.0,1263.0,-893.0,344.0,184.0,-317.0,0.285,-0.593,-0.48,-0.58
3096269,8238.0,1353.0,-911.0,366.0,199.0,-297.0,0.287,-0.59,-0.483,-0.58
3096282,8056.0,1287.0,-801.0,367.0,198.0,-230.0,0.288,-0.587,-0.485,-0.581
3096305,8048.0,1433.0,-791.0,348.0,199.0,-184.0,0.29,-0.584,-0.488,-0.581
3096318,8144.0,1505.0,-871.0,308.0,189.0,-156.0,0.292,-0.582,-0.489,-0.581
3096341,7894.0,1347.0,-959.0,284.0,197.0,-134.0,0.293,-0.579,-0.491,-0.581
3096354,7762.0,1575.0,-1105.0,288.0,199.0,-132.0,0.295,-0.577,-0.492,-0.581
3096377,7764.0,1593.0,-1311.0,258.0,205.0,-133.0,0.296,-0.575,-0.494,-0.581
3096390,7680.0,1715.0,-1251.0,255.0,202.0,-122.0,0.298,-0.573,-0.495,-0.582
3096413,7816.0,1617.0,-1261.0,244.0,202.0,-83.0,0.299,-0.571,-0.496,-0.582
3096426,7732.0,1743.0,-1205.0,240.0,201.0,-45.0,0.301,-0.569,-0.497,-0.582
3096449,7810.0,1661.0,-1153.0,204.0,168.0,-6.0,0.303,-0.568,-0.497,-0.582
3096462,7894.0,1611.0,-1151.0,197.0,150.0,42.0,0.305,-0.567,-0.497,-0.582
3096475,7922.0,1639.0,-1195.0,165.0,139.0,54.0,0.306,-0.566,-0.497,-0.581
3096498,8006.0,1531.0,-1279.0,148.0,119.0,69.0,0.308,-0.566,-0.497,-0.581
3096511,7958.0,1679.0,-1347.0,142.0,95.0,67.0,0.309,-0.565,-0.497,-0.581
3096534,7996.0,1675.0,-1335.0,103.0,68.0,68.0,0.311,-0.565,-0.497,-0.581
3096547,8030.0,1607.0,-1251.0,70.0,48.0,90.0,0.311,-0.565,-0.497,-0.58
3096570,8016.0,1551.0,-1263.0,89.0,55.0,101.0,0.313,-0.566,-0.496,-0.58
3096583,7928.0,1575.0,-1415.0,77.0,48.0,98.0,0.313,-0.566,-0.496,-0.579
3096606,7812.0,1525.0,-1307.0,85.0,46.0,82.0,0.314,-0.566,-0.495,-0.579
3096619,8026.0,1617.0,-1229.0,75.0,23.0,79.0,0.315,-0.566,-0.495,-0.579
3096642,7978.0,1649.0,-1209.0,65.0,7.0,63.0,0.316,-0.567,-0.495,-0.578
3096655,7840.0,1533.0,-1149.0,85.0,-14.0,91.0,0.316,-0.567,-0.495,-0.577
3096668,7894.0,1617.0,-1155.0,118.0,-23.0,86.0,0.317,-0.567,-0.495,-0.576
3096691,7948.0,1709.0,-1097.0,91.0,-3.0,90.0,0.318,-0.568,-0.495,-0.576
3096704,7854.0,1811.0,-915.0,130.0,-3.0,106.0,0.319,-0.568,-0.495,-0.575
3096727,7812.0,1895.0,-771.0,166.0,-15.0,87.0,0.32,-0.568,-0.495,-0.574
3096740,7898.0,1803.0,-615.0,181.0,16.0,99.0,0.322,-0.568,-0.495,-0.573
3096763,7920.0,1923.0,-723.0,195.0,25.0,115.0,0.323,-0.568,-0.495,-0.572
3096776,8036.0,1753.0,-799.0,267.0,40.0,93.0,0.325,-0.568,-0.496,-0.571
3096799,7986.0,1643.0,-945.0,387.0,62.0,73.0,0.328,-0.567,-0.497,-0.569
3096812,7974.0,1961.0,-1101.0,407.0,54.0,95.0,0.33,-0.566,-0.499,-0.568
3096825,8026.0,1797.0,-1127.0,419.0,52.0,78.0,0.333,-0.565,-0.5,-0.566
3096843,8006.0,1719.0,-1159.0,414.0,50.0,27.0,0.335,-0.564,-0.502,-0.564
3096866,8064.0,1705.0,-1243.0,384.0,27.0,-1.0,0.337,-0.563,-0.504,-0.562
3096879,7944.0,1835.0,-1251.0,364.0,-11.0,26.0,0.339,-0.562,-0.505,-0.561
3096902,8100.0,1743.0,-1309.0,301.0,-30.0,50.0,0.34,-0.561,-0.506,-0.559
3096915,7972.0,1645.0,-1383.0,301.0,-38.0,47.0,0.342,-0.561,-0.508,-0.557
3096938,7938.0,1761.0,-1381.0,294.0,-48.0,44.0,0.343,-0.561,-0.509,-0.556
3096951,7840.0,1741.0,-1277.0,264.0,-62.0,43.0,0.344,-0.561,-0.51,-0.554
3096974,7994.0,1735.0,-1157.0,262.0,-68.0,44.0,0.345,-0.561,-0.512,-0.552
3096987,8054.0,1607.0,-1187.0,258.0,-40.0,38.0,0.346,-0.56,-0.513,-0.551
3097010,7990.0,1651.0,-1221.0,277.0,-13.0,21.0,0.348,-0.56,-0.514,-0.549
3097023,8032.0,1843.0,-1093.0,283.0,10.0,-22.0,0.349,-0.559,-0.515,-0.548
3097036,8006.0,1845.0,-1011.0,287.0,39.0,-63.0,0.35,-0.558,-0.517,-0.547
3097059,8046.0,1829.0,-1007.0,316.0,59.0,-98.0,0.351,-0.556,-0.518,-0.547
3097072,7992.0,1849.0,-967.0,352.0,75.0,-122.0,0.353,-0.554,-0.52,-0.546
3097095,7854.0,1863.0,-933.0,387.0,94.0,-106.0,0.354,-0.552,-0.522,-0.545
3097108,7836.0,1905.0,-1005.0,392.0,116.0,-109.0,0.356,-0.55,-0.524,-0.544
3097131,7866.0,1939.0,-985.0,376.0,108.0,-129.0,0.358,-0.547,-0.526,-0.543
3097144,7838.0,1883.0,-839.0,337.0,86.0,-130.0,0.359,-0.545,-0.528,-0.543
3097167,7922.0,1771.0,-1307.0,300.0,66.0,-133.0,0.36,-0.543,-0.53,-0.542
3097180,7694.0,1783.0,-1295.0,252.0,56.0,-140.0,0.361,-0.542,-0.532,-0.542
3097193,7816.0,1857.0,-1231.0,203.0,44.0,-131.0,0.361,-0.54,-0.533,-0.542
3097216,7930.0,1907.0,-1257.0,144.0,43.0,-104.0,0.361,-0.539,-0.534,-0.541
3097229,7710.0,1583.0,-1503.0,108.0,63.0,-68.0,0.361,-0.539,-0.535,-0.541
3097252,8572.0,2095.0,-1327.0,112.0,-47.0,-76.0,0.361,-0.538,-0.536,-0.541
3097265,7822.0,1813.0,-1199.0,23.0,9.0,-95.0,0.361,-0.538,-0.536,-0.541
3097288,8058.0,1773.0,-1321.0,-4.0,15.0,-23.0,0.361,-0.538,-0.536,-0.542
3097301,7916.0,1877.0,-1175.0,-56.0,-2.0,-1.0,0.36,-0.538,-0.536,-0.542
3097324,7926.0,1773.0,-1217.0,-85.0,-4.0,18.0,0.359,-0.539,-0.535,-0.542
3097337,7938.0,1705.0,-1153.0,-110.0,-2.0,15.0,0.359,-0.539,-0.534,-0.543
3097360,7998.0,1815.0,-1171.0,-127.0,-1.0,21.0,0.358,-0.54,-0.534,-0.544
3097373,7982.0,1667.0,-1121.0,-132.0,9.0,25.0,0.357,-0.541,-0.533,-0.544
3097386,7902.0,1661.0,-1107.0,-81.0,1.0,0.0,0.357,-0.541,-0.532,-0.545
3097409,8074.0,1789.0,-1063.0,-83.0,8.0,-8.0,0.356,-0.541,-0.531,-0.545
3097422,8004.0,1787.0,-1099.0,-66.0,8.0,-17.0,0.356,-0.542,-0.531,-0.546
3097445,8034.0,1731.0,-1195.0,-93.0,-2.0,-18.0,0.355,-0.542,-0.531,-0.546
3097458,8036.0,1769.0,-1261.0,-77.0,-11.0,-18.0,0.354,-0.543,-0.53,-0.547
3097481,8036.0,1685.0,-1259.0,-72.0,-15.0,-17.0,0.354,-0.543,-0.53,-0.547
3097494,7996.0,1577.0,-1263.0,-54.0,-7.0,-7.0,0.353,-0.543,-0.529,-0.547
3097517,7990.0,1699.0,-1269.0,-45.0,-14.0,-11.0,0.353,-0.544,-0.529,-0.548
3097530,8010.0,1575.0,-1275.0,-54.0,-9.0,-24.0,0.352,-0.544,-0.529,-0.548
3097553,7996.0,1641.0,-1353.0,-53.0,-2.0,-34.0,0.352,-0.544,-0.529,-0.548
3097566,7966.0,1577.0,-1317.0,-44.0,7.0,-37.0,0.351,-0.544,-0.529,-0.549
3097589,7990.0,1585.0,-1229.0,-24.0,14.0,-31.0,0.351,-0.544,-0.528,-0.549
3097602,8008.0,1585.0,-1207.0,-10.0,18.0,-48.0,0.35,-0.544,-0.528,-0.549
3097615,8058.0,1659.0,-1221.0,10.0,18.0,-57.0,0.35,-0.544,-0.528,-0.55
3097638,8018.0,1647.0,-1235.0,3.0,12.0,-59.0,0.35,-0.544,-0.529,-0.55
3097651,8018.0,1657.0,-1159.0,-2.0,8.0,-36.0,0.349,-0.544,-0.529,-0.55
3097674,7998.0,1621.0,-1137.0,10.0,9.0,-29.0,0.349,-0.544,-0.529,-0.55
3097687,8038.0,1581.0,-1115.0,16.0,18.0,-30.0,0.349,-0.544,-0.529,-0.551
3097710,7988.0,1731.0,-1167.0,18.0,6.0,-53.0,0.349,-0.544,-0.529,-0.551
3097723,7848.0,1371.0,-1071.0,27.0,24.0,-24.0,0.349,-0.544,-0.529,-0.551
3097736,7982.0,1615.0,-1147.0,49.0,32.0,-47.0,0.349,-0.543,-0.529,-0.551
3097759,7934.0,1717.0,-1303.0,39.0,25.0,-72.0,0.349,-0.543,-0.529,-0.551
3097772,7828.0,1629.0,-1171.0,17.0,16.0,-24.0,0.349,-0.543,-0.529,-0.551
3097795,7886.0,1609.0,-1119.0,32.0,5.0,-13.0,0.348,-0.543,-0.529,-0.551
3097808,7984.0,1717.0,-1203.0,27.0,10.0,-41.0,0.348,-0.543,-0.53,-0.551
3097831,8026.0,1751.0,-1221.0,11.0,5.0,-22.0,0.348,-0.543,-0.53,-0.551
3097844,7910.0,1693.0,-1183.0,-3.0,5.0,1.0,0.348,-0.543,-0.529,-0.551
3097867,7872.0,1729.0,-1151.0,1.0,-7.0,4.0,0.348,-0.543,-0.529,-0.551
3097880,7942.0,1689.0,-1111.0,-17.0,-6.0,0.0,0.348,-0.543,-0.529,-0.552
3097903,8012.0,1775.0,-1189.0,-20.0,-9.0,1.0,0.347,-0.543,-0.529,-0.552
3097916,8008.0,1713.0,-1181.0,-30.0,-7.0,3.0,0.347,-0.544,-0.529,-0.552
3097929,7980.0,1757.0,-1157.0,-42.0,-3.0,5.0,0.347,-0.544,-0.528,-0.552
3097952,7950.0,1625.0,-1165.0,-23.0,-14.0,22.0,0.346,-0.545,-0.528,-0.552
3097965,7910.0,1691.0,-1243.0,-29.0,-12.0,18.0,0.346,-0.545,-0.528,-0.552
3097988,7838.0,1625.0,-1209.0,-28.0,-15.0,-2.0,0.346,-0.545,-0.527,-0.552
3098001,7948.0,1667.0,-1189.0,-28.0,-15.0,-18.0,0.345,-0.546,-0.527,-0.552
3098024,7992.0,1673.0,-1269.0,-24.0,-10.0,-29.0,0.345,-0.546,-0.527,-0.552
3098037,7962.0,1653.0,-1153.0,-28.0,-26.0,-17.0,0.345,-0.546,-0.527,-0.553
3098060,8034.0,1587.0,-1049.0,-33.0,-29.0,9.0,0.344,-0.547,-0.527,-0.553
3098073,8026.0,1505.0,-1137.0,-4.0,-26.0,15.0,0.344,-0.547,-0.527,-0.553
3098096,8100.0,1693.0,-1121.0,-11.0,-48.0,2.0,0.344,-0.547,-0.527,-0.552
3098109,8066.0,1625.0,-1263.0,-15.0,-42.0,-4.0,0.343,-0.548,-0.526,-0.552
3098122,7998.0,1761.0,-1355.0,-10.0,-64.0,13.0,0.343,-0.548,-0.526,-0.552
3098145,7954.0,1631.0,-1321.0,-17.0,-44.0,10.0,0.342,-0.549,-0.526,-0.552
3098158,7972.0,1647.0,-1303.0,-22.0,-43.0,38.0,0.342,-0.55,-0.526,-0.552
3098181,7846.0,1723.0,-1345.0,-42.0,-28.0,44.0,0.342,-0.55,-0.526,-0.552
3098194,7876.0,1567.0,-1249.0,-44.0,-20.0,51.0,0.342,-0.551,-0.525,-0.551
3098217,7910.0,1699.0,-1225.0,-16.0,-20.0,49.0,0.342,-0.552,-0.525,-0.551
3098230,7932.0,1653.0,-1263.0,-15.0,-13.0,47.0,0.342,-0.552,-0.524,-0.551
3098253,7926.0,1707.0,-1255.0,0.0,-18.0,54.0,0.342,-0.553,-0.524,-0.551
3098266,7980.0,1605.0,-1289.0,15.0,-8.0,37.0,0.342,-0.553,-0.524,-0.551
3098279,7938.0,1667.0,-1269.0,37.0,-3.0,22.0,0.342,-0.553,-0.523,-0.551
3098302,7948.0,1727.0,-1307.0,63.0,-12.0,-11.0,0.342,-0.553,-0.524,-0.55
3098315,8104.0,2009.0,-1245.0,14.0,-39.0,-22.0,0.342,-0.553,-0.524,-0.55
3098338,8024.0,1649.0,-1341.0,-23.0,-25.0,-5.0,0.341,-0.554,-0.524,-0.55
3098351,7974.0,1871.0,-1331.0,-26.0,-44.0,16.0,0.341,-0.554,-0.524,-0.55
3098374,7950.0,1687.0,-1279.0,-16.0,-43.0,-3.0,0.34,-0.555,-0.524,-0.55
3098387,7972.0,1755.0,-1279.0,-12.0,-34.0,1.0,0.34,-0.555,-0.524,-0.55
3098410,7924.0,1909.0,-1177.0,-19.0,-50.0,2.0,0.34,-0.555,-0.524,-0.55
3098423,7942.0,1679.0,-1125.0,-46.0,-50.0,19.0,0.339,-0.556,-0.523,-0.55
3098446,7824.0,1679.0,-1121.0,1.0,-71.0,32.0,0.339,-0.557,-0.523,-0.549
3098459,7922.0,1945.0,-1177.0,-63.0,-81.0,37.0,0.338,-0.558,-0.523,-0.549
3098472,7994.0,1665.0,-1099.0,-114.0,-82.0,65.0,0.337,-0.559,-0.522,-0.549
3098495,8062.0,1383.0,-1191.0,-45.0,-50.0,31.0,0.337,-0.559,-0.522,-0.549
3098508,7982.0,1555.0,-1345.0,29.0,-35.0,-21.0,0.337,-0.56,-0.522,-0.549
3098531,7922.0,1587.0,-1417.0,-16.0,34.0,-32.0,0.336,-0.56,-0.522,-0.549
3098544,7904.0,1651.0,-1723.0,-64.0,111.0,-32.0,0.336,-0.559,-0.521,-0.55
3098567,7938.0,1779.0,-1807.0,-44.0,129.0,-59.0,0.336,-0.559,-0.521,-0.551
3098580,7880.0,1771.0,-1625.0,-41.0,113.0,-86.0,0.336,-0.558,-0.52,-0.552
3098603,7932.0,1447.0,-1377.0,-5.0,145.0,-65.0,0.336,-0.557,-0.52,-0.553
3098616,8258.0,1837.0,-1141.0,29.0,84.0,-85.0,0.336,-0.556,-0.52,-0.554
3098639,7840.0,1701.0,-1083.0,-10.0,77.0,-70.0,0.336,-0.556,-0.52,-0.555
3098652,7938.0,1425.0,-1225.0,31.0,57.0,-16.0,0.336,-0.555,-0.52,-0.555
3098665,7984.0,1853.0,-1255.0,39.0,54.0,-58.0,0.336,-0.555,-0.52,-0.555
3098688,7884.0,1899.0,-1405.0,37.0,42.0,-63.0,0.336,-0.554,-0.521,-0.555
3098701,7852.0,1335.0,-1389.0,50.0,85.0,21.0,0.337,-0.554,-0.52,-0.556
3098724,7978.0,1887.0,-1433.0,75.0,103.0,-8.0,0.338,-0.553,-0.52,-0.556
3098737,7872.0,1505.0,-1321.0,75.0,99.0,-8.0,0.338,-0.553,-0.52,-0.556
3098760,7994.0,1845.0,-893.0,79.0,70.0,5.0,0.339,-0.552,-0.52,-0.556
3098773,7996.0,1463.0,-1123.0,76.0,54.0,-1.0,0.34,-0.552,-0.521,-0.556
3098796,7838.0,2041.0,-1207.0,62.0,-17.0,13.0,0.34,-0.552,-0.521,-0.556
3098809,7706.0,1857.0,-1349.0,-90.0,-71.0,54.0,0.339,-0.553,-0.52,-0.556
3098822,7410.0,1767.0,-1127.0,-242.0,-168.0,144.0,0.337,-0.556,-0.518,-0.555
3098850,7834.0,1681.0,-669.0,-203.0,-199.0,156.0,0.336,-0.558,-0.517,-0.555
3098863,8548.0,1511.0,-1647.0,-57.0,-123.0,-43.0,0.335,-0.559,-0.517,-0.555
3098876,8216.0,1809.0,-1985.0,25.0,-40.0,-172.0,0.334,-0.559,-0.518,-0.555
3098899,8072.0,1683.0,-1547.0,0.0,15.0,-126.0,0.333,-0.558,-0.519,-0.555
3098912,7868.0,1449.0,-1477.0,76.0,52.0,-101.0,0.333,-0.558,-0.519,-0.556
3098935,7864.0,2335.0,-1195.0,75.0,-5.0,-114.0,0.332,-0.557,-0.52,-0.556
3098948,7840.0,2149.0,-1111.0,-77.0,-59.0,-54.0,0.331,-0.558,-0.52,-0.556
3098971,7834.0,1401.0,-825.0,-104.0,-50.0,71.0,0.33,-0.559,-0.519,-0.556
3098984,7900.0,1431.0,-1075.0,-35.0,-85.0,87.0,0.33,-0.56,-0.518,-0.556
3099007,7980.0,1591.0,-1321.0,-52.0,-94.0,35.0,0.329,-0.561,-0.518,-0.556
3099020,8126.0,1625.0,-1287.0,-24.0,-97.0,46.0,0.329,-0.562,-0.518,-0.555
3099033,8014.0,1629.0,-1489.0,-50.0,-47.0,58.0,0.328,-0.563,-0.517,-0.555
3099056,8070.0,1759.0,-1217.0,-79.0,-75.0,54.0,0.328,-0.564,-0.516,-0.555
3099069,8222.0,1769.0,-1275.0,-104.0,-74.0,97.0,0.327,-0.566,-0.515,-0.555
3099092,8274.0,1939.0,-1465.0,-134.0,-50.0,131.0,0.326,-0.567,-0.513,-0.555
3099105,8278.0,1917.0,-1367.0,-111.0,-40.0,160.0,0.326,-0.569,-0.512,-0.555
3099128,8206.0,1695.0,-1195.0,-123.0,-50.0,185.0,0.326,-0.57,-0.51,-0.555
3099141,7996.0,1505.0,-1089.0,-83.0,-57.0,216.0,0.326,-0.572,-0.509,-0.554
3099164,7994.0,1607.0,-1143.0,-79.0,-102.0,218.0,0.326,-0.574,-0.507,-0.554
3099177,7920.0,1459.0,-1303.0,-87.0,-77.0,180.0,0.326,-0.576,-0.506,-0.553
3099190,7630.0,1095.0,-1269.0,-43.0,-51.0,158.0,0.327,-0.577,-0.505,-0.553
3099213,7964.0,1721.0,-1475.0,4.0,-46.0,87.0,0.327,-0.578,-0.504,-0.552
3099226,7924.0,1589.0,-1737.0,-39.0,-9.0,54.0,0.326,-0.579,-0.503,-0.552
3099249,7760.0,1601.0,-1633.0,-56.0,29.0,102.0,0.326,-0.58,-0.502,-0.552
3099262,7918.0,1221.0,-1587.0,-52.0,37.0,95.0,0.327,-0.58,-0.501,-0.553
3099285,7896.0,1763.0,-1755.0,-79.0,31.0,17.0,0.326,-0.581,-0.501,-0.553
3099298,7876.0,1539.0,-1589.0,-179.0,51.0,21.0,0.325,-0.581,-0.499,-0.554
3099321,7906.0,1539.0,-1437.0,-189.0,58.0,29.0,0.325,-0.582,-0.498,-0.555
3099334,8134.0,1519.0,-1221.0,-228.0,27.0,3.0,0.323,-0.583,-0.496,-0.557
3099357,7806.0,1649.0,-1377.0,-258.0,32.0,10.0,0.322,-0.583,-0.495,-0.558
3099370,8098.0,1337.0,-1337.0,-204.0,40.0,14.0,0.321,-0.584,-0.493,-0.559
3099383,7984.0,1603.0,-1151.0,-167.0,41.0,-49.0,0.32,-0.584,-0.492,-0.56
3099406,7940.0,1639.0,-1173.0,-121.0,24.0,-85.0,0.319,-0.584,-0.492,-0.561
3099419,7830.0,1411.0,-1405.0,-54.0,37.0,-70.0,0.318,-0.584,-0.491,-0.562
3099442,8006.0,1389.0,-1591.0,-88.0,-24.0,-29.0,0.317,-0.585,-0.491,-0.563
3099455,7818.0,1429.0,-1555.0,-87.0,-21.0,-37.0,0.316,-0.585,-0.491,-0.563
3099478,7666.0,1347.0,-1479.0,-107.0,-23.0,7.0,0.315,-0.586,-0.49,-0.563
3099491,7794.0,1419.0,-1247.0,-108.0,-35.0,21.0,0.314,-0.587,-0.489,-0.564
3099514,7846.0,1353.0,-1459.0,-107.0,-54.0,20.0,0.314,-0.588,-0.489,-0.564
3099527,7888.0,1499.0,-1539.0,-124.0,-69.0,14.0,0.312,-0.589,-0.488,-0.564
3099550,7884.0,1233.0,-1585.0,-103.0,-69.0,34.0,0.312,-0.59,-0.487,-0.564
3099563,7808.0,1427.0,-1199.0,-102.0,-99.0,54.0,0.311,-0.591,-0.487,-0.564
3099576,7964.0,1375.0,-1199.0,-71.0,-104.0,42.0,0.31,-0.592,-0.486,-0.563
3099599,8004.0,1693.0,-1397.0,-75.0,-117.0,20.0,0.309,-0.593,-0.486,-0.563
3099612,8150.0,1747.0,-1155.0,-151.0,-136.0,33.0,0.308,-0.594,-0.485,-0.563
3099635,8104.0,1629.0,-1225.0,-152.0,-142.0,89.0,0.307,-0.596,-0.484,-0.563
3099648,8062.0,1781.0,-1155.0,-112.0,-160.0,96.0,0.306,-0.598,-0.483,-0.562
3099671,8016.0,1399.0,-1453.0,-126.0,-178.0,118.0,0.305,-0.6,-0.482,-0.561
3099684,7646.0,993.0,-1957.0,-135.0,-180.0,153.0,0.304,-0.602,-0.481,-0.56
3099707,7528.0,759.0,-1667.0,-121.0,-156.0,181.0,0.303,-0.604,-0.48,-0.559
3099720,7722.0,765.0,-1781.0,-9.0,-123.0,127.0,0.303,-0.606,-0.479,-0.558
3099733,8120.0,955.0,-1803.0,98.0,-59.0,6.0,0.304,-0.606,-0.48,-0.557
3099756,8112.0,1435.0,-1947.0,136.0,-23.0,-94.0,0.304,-0.605,-0.481,-0.557
3099769,8002.0,1539.0,-1653.0,163.0,-8.0,-84.0,0.304,-0.605,-0.482,-0.556
3099792,7970.0,1539.0,-1357.0,149.0,-31.0,-44.0,0.304,-0.604,-0.483,-0.556
3099805,7966.0,1287.0,-1337.0,136.0,-39.0,-25.0,0.305,-0.604,-0.484,-0.555
3099828,7952.0,1413.0,-1549.0,166.0,-49.0,-62.0,0.305,-0.604,-0.485,-0.554
3099841,8116.0,1509.0,-1557.0,185.0,-30.0,-140.0,0.305,-0.603,-0.487,-0.553
3099864,7874.0,1191.0,-1863.0,274.0,30.0,-175.0,0.306,-0.601,-0.489,-0.553
3099877,7870.0,1575.0,-1739.0,323.0,7.0,-175.0,0.307,-0.599,-0.492,-0.552
3099900,7874.0,1751.0,-1659.0,315.0,13.0,-192.0,0.308,-0.598,-0.495,-0.551
3099913,8016.0,1703.0,-1675.0,298.0,-1.0,-159.0,0.308,-0.596,-0.497,-0.55
3099936,7674.0,1503.0,-1877.0,401.0,-24.0,-139.0,0.31,-0.595,-0.5,-0.548
3099949,8226.0,1621.0,-1593.0,507.0,-92.0,-180.0,0.311,-0.593,-0.504,-0.546
3099962,8478.0,1675.0,-951.0,590.0,-87.0,-223.0,0.313,-0.59,-0.508,-0.544
3099985,8386.0,1133.0,-969.0,639.0,-28.0,-135.0,0.316,-0.588,-0.512,-0.541
3099998,7834.0,1253.0,-1299.0,647.0,-75.0,-19.0,0.319,-0.586,-0.515,-0.537
3100021,7732.0,1165.0,-1583.0,564.0,-97.0,51.0,0.322,-0.586,-0.518,-0.534
3100034,7658.0,1307.0,-1651.0,538.0,-98.0,89.0,0.325,-0.585,-0.52,-0.531
3100057,7702.0,1087.0,-1853.0,524.0,-40.0,85.0,0.328,-0.584,-0.523,-0.528
3100070,7458.0,1137.0,-1979.0,492.0,0.0,108.0,0.331,-0.583,-0.524,-0.525
3100093,7558.0,941.0,-1805.0,445.0,29.0,133.0,0.334,-0.583,-0.526,-0.522
3100106,7680.0,707.0,-1951.0,453.0,54.0,120.0,0.337,-0.582,-0.527,-0.52
3100119,7818.0,1037.0,-1929.0,468.0,48.0,78.0,0.341,-0.58,-0.529,-0.517
3100142,7870.0,657.0,-1969.0,436.0,84.0,26.0,0.344,-0.579,-0.53,-0.516
3100155,7922.0,1063.0,-1989.0,444.0,77.0,-31.0,0.346,-0.577,-0.532,-0.514
3100178,8010.0,1375.0,-1751.0,391.0,54.0,-68.0,0.348,-0.575,-0.534,-0.512
3100191,8138.0,1307.0,-1787.0,370.0,61.0,-86.0,0.35,-0.573,-0.536,-0.511
3100214,8230.0,1243.0,-1743.0,374.0,69.0,-71.0,0.352,-0.572,-0.538,-0.51
3100227,8274.0,1307.0,-1791.0,431.0,83.0,-65.0,0.354,-0.569,-0.54,-0.508
3100250,8070.0,1445.0,-1981.0,530.0,64.0,-61.0,0.357,-0.567,-0.543,-0.506
3100263,7794.0,1845.0,-2225.0,478.0,19.0,-39.0,0.359,-0.565,-0.545,-0.504
3100276,7688.0,1799.0,-2147.0,349.0,-28.0,23.0,0.361,-0.564,-0.547,-0.502
3100299,7852.0,1105.0,-1729.0,311.0,18.0,62.0,0.363,-0.564,-0.548,-0.5
3100312,7686.0,1235.0,-1955.0,383.0,31.0,-14.0,0.365,-0.562,-0.55,-0.499
3100335,7412.0,1597.0,-2269.0,324.0,9.0,-77.0,0.366,-0.561,-0.552,-0.497
3100348,7572.0,1591.0,-2397.0,210.0,-42.0,-81.0,0.367,-0.56,-0.553,-0.496
3100371,7646.0,1825.0,-2475.0,78.0,-104.0,-71.0,0.366,-0.56,-0.554,-0.495
3100384,7854.0,1465.0,-2457.0,-101.0,-103.0,0.0,0.365,-0.561,-0.554,-0.495
3100407,7800.0,1155.0,-2533.0,-156.0,-115.0,45.0,0.363,-0.562,-0.554,-0.495
3100420,7958.0,1093.0,-2257.0,-188.0,-89.0,45.0,0.362,-0.564,-0.553,-0.496
3100443,7992.0,1249.0,-2369.0,-186.0,-77.0,17.0,0.361,-0.565,-0.552,-0.496
3100456,7742.0,1397.0,-2035.0,-250.0,-82.0,49.0,0.359,-0.566,-0.551,-0.497
3100469,7810.0,949.0,-1779.0,-267.0,-88.0,88.0,0.358,-0.568,-0.549,-0.497
3100492,8062.0,885.0,-2079.0,-308.0,-125.0,69.0,0.356,-0.57,-0.548,-0.498
3100505,8034.0,1137.0,-2613.0,-272.0,-162.0,-13.0,0.353,-0.572,-0.547,-0.498
3100528,8244.0,1249.0,-2945.0,-373.0,-243.0,23.0,0.35,-0.575,-0.546,-0.499
3100541,8632.0,833.0,-2817.0,-374.0,-137.0,80.0,0.348,-0.577,-0.545,-0.5
3100564,8404.0,1271.0,-2135.0,-384.0,-62.0,188.0,0.346,-0.58,-0.542,-0.501
3100577,8208.0,1535.0,-1703.0,-479.0,-12.0,294.0,0.345,-0.583,-0.538,-0.502
3100600,8268.0,919.0,-1341.0,-483.0,23.0,336.0,0.344,-0.586,-0.534,-0.504
3100613,8060.0,1287.0,-1733.0,-468.0,-2.0,270.0,0.343,-0.589,-0.53,-0.505
3100636,7810.0,1769.0,-1739.0,-449.0,-58.0,199.0,0.341,-0.591,-0.527,-0.506
3100649,7620.0,1823.0,-1735.0,-541.0,-80.0,257.0,0.338,-0.595,-0.523,-0.508
3100662,7724.0,911.0,-1473.0,-568.0,-56.0,359.0,0.337,-0.599,-0.519,-0.509
3100685,7996.0,1013.0,-1301.0,-438.0,1.0,341.0,0.336,-0.602,-0.514,-0.51
3100698,8196.0,1031.0,-1481.0,-312.0,57.0,189.0,0.335,-0.603,-0.512,-0.512
3100721,8148.0,1607.0,-1701.0,-210.0,81.0,47.0,0.335,-0.604,-0.51,-0.513
3100734,8078.0,1623.0,-1573.0,-202.0,100.0,15.0,0.334,-0.604,-0.509,-0.515
3100757,8080.0,1355.0,-1349.0,-155.0,117.0,-10.0,0.334,-0.604,-0.508,-0.516
3100770,8310.0,1557.0,-1359.0,-125.0,65.0,-25.0,0.333,-0.604,-0.507,-0.517
3100793,8226.0,1365.0,-1279.0,-129.0,59.0,-11.0,0.333,-0.604,-0.506,-0.518
3100806,8352.0,1461.0,-1679.0,-93.0,55.0,6.0,0.332,-0.604,-0.505,-0.519
3100819,8132.0,1555.0,-1831.0,-111.0,50.0,-16.0,0.332,-0.604,-0.505,-0.52
3100842,8116.0,1697.0,-1911.0,-188.0,11.0,11.0,0.331,-0.604,-0.504,-0.521
3100860,8084.0,1143.0,-2017.0,-197.0,32.0,37.0,0.33,-0.605,-0.503,-0.522
3100873,7886.0,1603.0,-1899.0,-193.0,-1.0,54.0,0.329,-0.606,-0.502,-0.523
3100896,7856.0,1561.0,-1947.0,-244.0,-21.0,100.0,0.328,-0.607,-0.5,-0.523
3100909,7720.0,1105.0,-2317.0,-385.0,9.0,153.0,0.326,-0.609,-0.497,-0.525
3100932,7732.0,1171.0,-2543.0,-457.0,-11.0,142.0,0.324,-0.611,-0.494,-0.526
3100945,7780.0,1163.0,-2523.0,-482.0,30.0,85.0,0.322,-0.613,-0.491,-0.528
3100968,7962.0,1199.0,-2341.0,-424.0,223.0,16.0,0.321,-0.613,-0.489,-0.531
3100981,7622.0,1663.0,-2325.0,-425.0,247.0,18.0,0.319,-0.614,-0.486,-0.534
3101004,7652.0,1163.0,-2321.0,-459.0,170.0,51.0,0.318,-0.614,-0.483,-0.537
3101017,7684.0,687.0,-2215.0,-520.0,119.0,48.0,0.315,-0.616,-0.479,-0.54
3101030,7614.0,909.0,-1861.0,-488.0,70.0,-3.0,0.313,-0.617,-0.477,-0.543
3101053,7750.0,1207.0,-1265.0,-503.0,5.0,-63.0,0.31,-0.618,-0.474,-0.545
3101066,7892.0,1075.0,-1393.0,-486.0,-13.0,-93.0,0.306,-0.619,-0.472,-0.547
3101089,7932.0,1081.0,-1975.0,-520.0,-67.0,-48.0,0.303,-0.621,-0.47,-0.549
3101102,7786.0,1105.0,-2291.0,-601.0,-72.0,4.0,0.299,-0.623,-0.467,-0.551
3101125,7640.0,911.0,-1985.0,-619.0,-68.0,67.0,0.296,-0.625,-0.464,-0.553
3101138,7742.0,1121.0,-1717.0,-583.0,-85.0,68.0,0.292,-0.628,-0.461,-0.555
3101161,7880.0,1025.0,-1783.0,-568.0,-78.0,39.0,0.289,-0.63,-0.458,-0.557
3101174,7860.0,893.0,-2065.0,-518.0,-83.0,33.0,0.285,-0.632,-0.455,-0.558
3101187,7910.0,893.0,-2239.0,-525.0,-94.0,36.0,0.282,-0.634,-0.452,-0.56
3101210,7988.0,1119.0,-2127.0,-549.0,-132.0,50.0,0.279,-0.637,-0.45,-0.561
3101223,7980.0,923.0,-1943.0,-550.0,-117.0,86.0,0.275,-0.639,-0.447,-0.562
3101246,8022.0,479.0,-1683.0,-502.0,-102.0,153.0,0.273,-0.642,-0.443,-0.563
3101259,7840.0,581.0,-1939.0,-382.0,-97.0,128.0,0.271,-0.644,-0.441,-0.564
3101282,7532.0,1083.0,-1911.0,-384.0,-143.0,124.0,0.269,-0.646,-0.438,-0.564
3101295,7650.0,1441.0,-1869.0,-446.0,-191.0,143.0,0.266,-0.649,-0.436,-0.564
3101318,7762.0,957.0,-1831.0,-481.0,-180.0,194.0,0.264,-0.652,-0.432,-0.565
3101331,7506.0,809.0,-1827.0,-413.0,-160.0,237.0,0.262,-0.655,-0.429,-0.565
3101354,7838.0,969.0,-1989.0,-370.0,-155.0,189.0,0.26,-0.657,-0.426,-0.565
3101367,7904.0,401.0,-2101.0,-318.0,-72.0,87.0,0.258,-0.659,-0.424,-0.565
3101380,8032.0,831.0,-2009.0,-144.0,-49.0,-3.0,0.257,-0.659,-0.424,-0.565
3101403,8196.0,1275.0,-2065.0,-128.0,-49.0,-55.0,0.256,-0.66,-0.424,-0.565
3101416,8180.0,1207.0,-2039.0,-140.0,-54.0,-56.0,0.255,-0.66,-0.423,-0.566
3101439,8342.0,1379.0,-1857.0,-136.0,-73.0,-17.0,0.253,-0.661,-0.423,-0.566
3101452,8252.0,775.0,-1773.0,-142.0,-39.0,16.0,0.253,-0.661,-0.422,-0.566
3101475,8172.0,1201.0,-1821.0,-77.0,-62.0,-1.0,0.252,-0.662,-0.422,-0.566
3101488,7906.0,1659.0,-1883.0,-153.0,-108.0,13.0,0.251,-0.663,-0.422,-0.566
3101511,7992.0,1061.0,-2011.0,-226.0,-106.0,107.0,0.25,-0.664,-0.42,-0.566
3101524,7850.0,997.0,-2325.0,-176.0,-123.0,158.0,0.249,-0.666,-0.418,-0.565
3101547,7758.0,1591.0,-2345.0,-196.0,-179.0,161.0,0.248,-0.668,-0.417,-0.564
3101560,7750.0,895.0,-1967.0,-259.0,-153.0,230.0,0.247,-0.671,-0.414,-0.564
3101573,7748.0,1203.0,-1789.0,-251.0,-159.0,294.0,0.246,-0.673,-0.412,-0.563
3101596,7800.0,723.0,-1901.0,-213.0,-138.0,258.0,0.246,-0.675,-0.409,-0.562
3101609,7736.0,1321.0,-2149.0,-190.0,-188.0,188.0,0.245,-0.678,-0.407,-0.561
3101632,7832.0,1115.0,-2309.0,-268.0,-167.0,155.0,0.243,-0.68,-0.405,-0.561
3101645,7854.0,589.0,-2169.0,-252.0,-141.0,163.0,0.242,-0.682,-0.403,-0.56
3101668,7874.0,663.0,-2079.0,-187.0,-114.0,105.0,0.241,-0.683,-0.402,-0.56
3101681,7826.0,791.0,-1909.0,-156.0,-103.0,46.0,0.24,-0.684,-0.401,-0.56
3101704,7972.0,863.0,-1843.0,-118.0,-101.0,-3.0,0.239,-0.685,-0.401,-0.56
3101717,7998.0,1205.0,-1995.0,-148.0,-110.0,-18.0,0.237,-0.686,-0.4,-0.559
3101730,8222.0,1039.0,-2147.0,-192.0,-103.0,-5.0,0.236,-0.687,-0.4,-0.559
3101753,8074.0,883.0,-2125.0,-199.0,-74.0,15.0,0.234,-0.688,-0.399,-0.56
3101766,8028.0,1037.0,-2011.0,-183.0,-71.0,31.0,0.233,-0.689,-0.398,-0.56
3101789,8072.0,1129.0,-1985.0,-175.0,-57.0,17.0,0.232,-0.689,-0.397,-0.56
3101802,7994.0,917.0,-1929.0,-169.0,-38.0,2.0,0.231,-0.69,-0.396,-0.56
3101825,7926.0,997.0,-1967.0,-169.0,-34.0,-19.0,0.23,-0.69,-0.395,-0.561
3101838,7894.0,1197.0,-2111.0,-158.0,-54.0,-60.0,0.228,-0.691,-0.395,-0.561
3101861,7978.0,1225.0,-2159.0,-197.0,-53.0,-71.0,0.226,-0.691,-0.395,-0.561
3101874,8080.0,827.0,-1999.0,-175.0,-28.0,-42.0,0.225,-0.692,-0.394,-0.562
3101897,8150.0,289.0,-2033.0,18.0,95.0,-92.0,0.225,-0.691,-0.394,-0.563
3101910,7684.0,321.0,-2063.0,304.0,199.0,-201.0,0.227,-0.689,-0.397,-0.563
3101923,7562.0,1011.0,-1861.0,427.0,204.0,-315.0,0.229,-0.685,-0.4,-0.563
3101946,7612.0,1449.0,-1857.0,346.0,179.0,-349.0,0.23,-0.682,-0.404,-0.564
3101959,7626.0,1147.0,-1671.0,258.0,149.0,-313.0,0.23,-0.68,-0.407,-0.565
3101982,7802.0,1017.0,-1971.0,169.0,138.0,-289.0,0.23,-0.678,-0.41,-0.566
3101995,7806.0,1263.0,-1931.0,207.0,120.0,-347.0,0.23,-0.675,-0.413,-0.566
3102018,7924.0,1673.0,-2165.0,112.0,99.0,-362.0,0.23,-0.673,-0.415,-0.567
3102031,7806.0,1771.0,-2391.0,29.0,95.0,-287.0,0.229,-0.672,-0.417,-0.568
3102054,7692.0,2003.0,-2415.0,-145.0,63.0,-161.0,0.227,-0.671,-0.417,-0.569
3102067,8008.0,1961.0,-2167.0,-297.0,-2.0,-32.0,0.225,-0.672,-0.416,-0.571
3102090,8386.0,1403.0,-1869.0,-345.0,-13.0,25.0,0.223,-0.672,-0.414,-0.572
3102103,8080.0,1079.0,-2091.0,-232.0,-21.0,45.0,0.222,-0.673,-0.412,-0.572
3102116,7750.0,1587.0,-2325.0,-215.0,-58.0,56.0,0.22,-0.674,-0.411,-0.573
3102139,7758.0,1561.0,-2283.0,-305.0,-78.0,69.0,0.218,-0.676,-0.409,-0.573
3102152,7752.0,1307.0,-2357.0,-358.0,-89.0,93.0,0.216,-0.677,-0.407,-0.573
3102175,7876.0,827.0,-2309.0,-338.0,-76.0,93.0,0.214,-0.679,-0.405,-0.574
3102188,7570.0,871.0,-2259.0,-199.0,-63.0,31.0,0.213,-0.68,-0.403,-0.574
3102211,7774.0,1361.0,-2073.0,-142.0,-73.0,-30.0,0.212,-0.68,-0.403,-0.574
3102224,7770.0,1641.0,-2075.0,-166.0,-84.0,-27.0,0.21,-0.681,-0.403,-0.574
3102247,7846.0,1351.0,-1983.0,-200.0,-71.0,57.0,0.209,-0.682,-0.401,-0.574
3102260,7740.0,1209.0,-1951.0,-146.0,-86.0,91.0,0.209,-0.683,-0.4,-0.574
3102273,7762.0,1469.0,-1965.0,-123.0,-110.0,47.0,0.208,-0.684,-0.399,-0.574
3102296,7830.0,1217.0,-1875.0,-122.0,-87.0,43.0,0.207,-0.685,-0.399,-0.573
3102309,8036.0,1355.0,-1871.0,-60.0,-73.0,53.0,0.207,-0.686,-0.398,-0.573
3102332,7900.0,1305.0,-2083.0,-40.0,-61.0,31.0,0.206,-0.686,-0.398,-0.573
3102345,7990.0,1379.0,-2139.0,-33.0,-74.0,24.0,0.206,-0.687,-0.398,-0.572
3102368,7970.0,1433.0,-2167.0,-24.0,-67.0,33.0,0.206,-0.687,-0.397,-0.572
3102381,7912.0,1379.0,-2151.0,-45.0,-46.0,64.0,0.206,-0.688,-0.397,-0.572
3102404,7862.0,1241.0,-2199.0,-66.0,-38.0,58.0,0.206,-0.689,-0.396,-0.571
3102417,7958.0,1377.0,-2111.0,-45.0,-32.0,14.0,0.205,-0.689,-0.396,-0.571
3102440,7986.0,1309.0,-2183.0,-2.0,0.0,-2.0,0.205,-0.689,-0.396,-0.571
3102453,7892.0,1437.0,-2189.0,21.0,-12.0,17.0,0.206,-0.689,-0.396,-0.571
3102466,7788.0,1371.0,-2021.0,12.0,-19.0,42.0,0.206,-0.689,-0.396,-0.571
3102489,7798.0,1421.0,-2101.0,-14.0,-24.0,54.0,0.206,-0.69,-0.396,-0.57
3102502,7856.0,1369.0,-2163.0,-38.0,-17.0,62.0,0.206,-0.69,-0.395,-0.57
3102525,7886.0,1291.0,-2119.0,-28.0,-9.0,59.0,0.206,-0.69,-0.395,-0.57
3102538,7960.0,1223.0,-2189.0,-1.0,10.0,22.0,0.207,-0.691,-0.394,-0.57
3102561,7832.0,1407.0,-2157.0,-13.0,9.0,16.0,0.207,-0.691,-0.394,-0.57
3102574,7938.0,1495.0,-2095.0,-13.0,7.0,38.0,0.207,-0.691,-0.394,-0.57
3102597,7876.0,1371.0,-2055.0,-33.0,14.0,60.0,0.207,-0.691,-0.393,-0.57
3102610,7868.0,1549.0,-2195.0,-26.0,-6.0,55.0,0.207,-0.691,-0.393,-0.57
3102633,7790.0,1447.0,-2173.0,-54.0,0.0,39.0,0.207,-0.691,-0.393,-0.57
3102646,7862.0,1511.0,-2135.0,-62.0,-4.0,48.0,0.207,-0.692,-0.392,-0.57
3102659,7718.0,1449.0,-2175.0,-73.0,1.0,62.0,0.207,-0.692,-0.391,-0.57
3102682,7704.0,1619.0,-2247.0,-95.0,-6.0,61.0,0.206,-0.693,-0.39,-0.57
3102695,7766.0,1717.0,-2101.0,-109.0,-17.0,48.0,0.206,-0.693,-0.39,-0.57
3102718,7848.0,1607.0,-2127.0,-166.0,-13.0,58.0,0.205,-0.694,-0.389,-0.571
3102731,7818.0,1335.0,-2035.0,-218.0,-8.0,92.0,0.204,-0.694,-0.387,-0.571
3102754,7888.0,1115.0,-2067.0,-165.0,5.0,48.0,0.203,-0.695,-0.386,-0.572
3102767,7896.0,1281.0,-2215.0,-162.0,31.0,-5.0,0.203,-0.695,-0.385,-0.573
3102790,7960.0,1475.0,-2177.0,-144.0,50.0,-64.0,0.201,-0.695,-0.384,-0.573
3102803,7858.0,1511.0,-2089.0,-147.0,63.0,-50.0,0.201,-0.695,-0.384,-0.574
3102826,7790.0,1485.0,-1963.0,-137.0,48.0,-12.0,0.2,-0.695,-0.383,-0.575
3102839,7800.0,1413.0,-1869.0,-109.0,25.0,-5.0,0.199,-0.695,-0.383,-0.576
3102852,7754.0,1597.0,-1991.0,-115.0,-3.0,5.0,0.198,-0.695,-0.382,-0.576
3102870,7826.0,1381.0,-2037.0,-153.0,4.0,27.0,0.198,-0.695,-0.381,-0.577
3102893,7804.0,1373.0,-2109.0,-148.0,-8.0,42.0,0.197,-0.696,-0.38,-0.577
3102906,7788.0,1245.0,-2139.0,-142.0,-19.0,32.0,0.196,-0.696,-0.379,-0.577
3102929,7760.0,1281.0,-2105.0,-144.0,-17.0,55.0,0.196,-0.697,-0.378,-0.577
3102942,7858.0,1171.0,-2215.0,-143.0,-6.0,46.0,0.195,-0.697,-0.377,-0.578
3102965,7874.0,1323.0,-2259.0,-120.0,-10.0,12.0,0.194,-0.698,-0.376,-0.578
3102978,7806.0,1239.0,-2217.0,-128.0,1.0,10.0,0.193,-0.698,-0.375,-0.578
3103001,7810.0,1239.0,-2049.0,-127.0,2.0,24.0,0.193,-0.698,-0.375,-0.579
3103014,7814.0,1217.0,-2129.0,-104.0,1.0,16.0,0.192,-0.699,-0.374,-0.579
3103027,7870.0,1401.0,-2087.0,-88.0,5.0,5.0,0.192,-0.699,-0.374,-0.579
3103050,7904.0,1211.0,-2191.0,-75.0,7.0,1.0,0.191,-0.699,-0.373,-0.579
3103063,7870.0,1347.0,-2089.0,-64.0,-16.0,12.0,0.191,-0.699,-0.373,-0.579
3103086,7840.0,1381.0,-2001.0,-88.0,-10.0,24.0,0.191,-0.699,-0.372,-0.579
3103099,7840.0,1089.0,-2059.0,-104.0,4.0,54.0,0.19,-0.7,-0.371,-0.58
3103122,7608.0,1227.0,-2257.0,-82.0,33.0,44.0,0.19,-0.7,-0.371,-0.58
3103135,8184.0,1121.0,-2101.0,-53.0,52.0,-26.0,0.19,-0.7,-0.37,-0.581
3103158,7806.0,1387.0,-1983.0,-8.0,73.0,-65.0,0.19,-0.699,-0.371,-0.581
3103171,7880.0,1229.0,-1859.0,32.0,69.0,-41.0,0.19,-0.699,-0.371,-0.581
3103184,8080.0,1347.0,-1809.0,73.0,64.0,-51.0,0.191,-0.698,-0.372,-0.582
3103207,7954.0,1557.0,-2121.0,93.0,36.0,-90.0,0.191,-0.697,-0.373,-0.582
3103220,7954.0,1619.0,-2049.0,80.0,19.0,-61.0,0.191,-0.697,-0.373,-0.582
3103243,7922.0,1539.0,-1963.0,85.0,8.0,-26.0,0.192,-0.697,-0.374,-0.581
3103256,7858.0,1461.0,-1971.0,92.0,-17.0,-8.0,0.192,-0.697,-0.375,-0.581
3103279,7848.0,1485.0,-2027.0,83.0,-25.0,-14.0,0.193,-0.697,-0.375,-0.58
3103292,7868.0,1447.0,-2157.0,77.0,-8.0,-29.0,0.193,-0.696,-0.376,-0.58
3103315,7798.0,1313.0,-2187.0,79.0,7.0,-22.0,0.193,-0.696,-0.376,-0.58
3103328,7794.0,1407.0,-2139.0,101.0,9.0,-47.0,0.194,-0.696,-0.377,-0.58
3103351,7732.0,1439.0,-1999.0,86.0,15.0,-31.0,0.194,-0.695,-0.378,-0.579
3103364,7958.0,1429.0,-1961.0,88.0,29.0,-24.0,0.195,-0.695,-0.379,-0.579
3103377,7914.0,1313.0,-1991.0,73.0,34.0,-38.0,0.195,-0.695,-0.379,-0.579
3103400,7922.0,1427.0,-2149.0,50.0,40.0,-57.0,0.196,-0.694,-0.38,-0.579
3103413,8006.0,1577.0,-2231.0,66.0,36.0,-82.0,0.196,-0.694,-0.381,-0.579
3103436,8152.0,1523.0,-2179.0,70.0,52.0,-108.0,0.196,-0.693,-0.382,-0.58
3103449,8012.0,1391.0,-1953.0,72.0,58.0,-90.0,0.196,-0.692,-0.383,-0.58
3103472,7936.0,1489.0,-1909.0,66.0,44.0,-86.0,0.196,-0.691,-0.384,-0.58
3103485,7906.0,1535.0,-1927.0,-2.0,53.0,-97.0,0.196,-0.691,-0.384,-0.581
3103508,7822.0,1641.0,-2027.0,-21.0,39.0,-88.0,0.195,-0.69,-0.385,-0.581
3103521,7712.0,1661.0,-2019.0,-38.0,42.0,-57.0,0.195,-0.69,-0.385,-0.581
3103544,7708.0,1539.0,-1957.0,-23.0,22.0,-28.0,0.195,-0.69,-0.385,-0.582
3103557,7644.0,1529.0,-2011.0,-10.0,12.0,-6.0,0.195,-0.69,-0.385,-0.582
3103570,7742.0,1623.0,-2131.0,-58.0,0.0,8.0,0.194,-0.69,-0.384,-0.582
3103593,7714.0,1373.0,-2137.0,-82.0,3.0,21.0,0.194,-0.69,-0.384,-0.582
3103606,7762.0,1389.0,-2093.0,-82.0,8.0,9.0,0.194,-0.69,-0.383,-0.582
3103629,7800.0,1359.0,-2053.0,-86.0,9.0,-8.0,0.193,-0.691,-0.383,-0.583
3103642,7790.0,1519.0,-2043.0,-107.0,-3.0,-3.0,0.192,-0.691,-0.382,-0.583
3103665,7838.0,1551.0,-2005.0,-138.0,-4.0,13.0,0.192,-0.691,-0.381,-0.583
3103678,7836.0,1695.0,-1839.0,-198.0,-38.0,50.0,0.19,-0.692,-0.38,-0.584
3103701,7846.0,1297.0,-1841.0,-224.0,-34.0,96.0,0.189,-0.693,-0.378,-0.584
3103714,7928.0,1455.0,-2103.0,-207.0,-31.0,104.0,0.189,-0.694,-0.376,-0.584
3103727,7936.0,1357.0,-2033.0,-186.0,-33.0,83.0,0.188,-0.695,-0.375,-0.585
3103750,7976.0,1421.0,-2049.0,-140.0,-24.0,47.0,0.187,-0.695,-0.374,-0.585
3103763,7874.0,1569.0,-1941.0,-125.0,-23.0,61.0,0.187,-0.696,-0.373,-0.585
3103786,7818.0,1397.0,-1921.0,-131.0,-11.0,85.0,0.186,-0.696,-0.372,-0.585
3103799,7850.0,1333.0,-1853.0,-100.0,-9.0,88.0,0.186,-0.697,-0.371,-0.585
3103822,7922.0,1463.0,-1909.0,-67.0,1.0,50.0,0.186,-0.697,-0.37,-0.585
3103835,7988.0,1539.0,-1999.0,-48.0,2.0,21.0,0.186,-0.697,-0.37,-0.585
3103858,7942.0,1385.0,-2001.0,-25.0,19.0,31.0,0.186,-0.697,-0.369,-0.585
3103871,7778.0,1501.0,-2023.0,-1.0,18.0,38.0,0.186,-0.697,-0.369,-0.585
3103894,7768.0,1469.0,-1903.0,-5.0,21.0,32.0,0.187,-0.697,-0.369,-0.585
3103907,7822.0,1567.0,-1993.0,3.0,26.0,-6.0,0.187,-0.697,-0.369,-0.586
3103920,7818.0,1491.0,-2095.0,-14.0,30.0,-30.0,0.186,-0.697,-0.369,-0.586
3103943,7802.0,1419.0,-2135.0,-3.0,27.0,-34.0,0.186,-0.697,-0.369,-0.586
3103956,7844.0,1465.0,-2079.0,-20.0,17.0,-33.0,0.186,-0.697,-0.369,-0.586
3103979,7788.0,1411.0,-2053.0,-35.0,16.0,-13.0,0.186,-0.697,-0.369,-0.586
3103992,7758.0,1389.0,-2023.0,-25.0,3.0,-17.0,0.186,-0.697,-0.369,-0.586
3104015,7814.0,1465.0,-2095.0,-26.0,-10.0,-49.0,0.185,-0.697,-0.369,-0.586
3104028,7746.0,1423.0,-2155.0,-34.0,-9.0,-50.0,0.185,-0.697,-0.37,-0.586
3104051,7842.0,1375.0,-2071.0,-34.0,-19.0,-28.0,0.184,-0.697,-0.37,-0.586
3104064,7828.0,1359.0,-2005.0,-48.0,-14.0,-21.0,0.184,-0.697,-0.369,-0.586
3104087,7866.0,1363.0,-1963.0,-46.0,-28.0,1.0,0.184,-0.697,-0.369,-0.586
3104100,7884.0,1395.0,-1983.0,-40.0,-32.0,-13.0,0.183,-0.698,-0.369,-0.586
3104113,7824.0,1423.0,-1903.0,-70.0,-37.0,-2.0,0.183,-0.698,-0.369,-0.586
3104136,7974.0,1395.0,-1925.0,-83.0,-35.0,0.0,0.182,-0.698,-0.368,-0.586
3104149,7914.0,1397.0,-1953.0,-91.0,-37.0,8.0,0.181,-0.699,-0.368,-0.586
3104172,7914.0,1481.0,-2041.0,-80.0,-35.0,13.0,0.181,-0.699,-0.367,-0.586
3104185,7850.0,1479.0,-2111.0,-59.0,-15.0,14.0,0.181,-0.699,-0.367,-0.586
3104208,7770.0,1577.0,-2033.0,-48.0,-19.0,38.0,0.18,-0.7,-0.367,-0.586
3104221,7750.0,1387.0,-1887.0,-64.0,-10.0,66.0,0.18,-0.7,-0.366,-0.586
3104244,7778.0,1461.0,-1949.0,-38.0,-9.0,52.0,0.18,-0.7,-0.365,-0.586
3104257,7764.0,1435.0,-2037.0,-42.0,-8.0,36.0,0.18,-0.701,-0.365,-0.586
3104280,7878.0,1435.0,-2067.0,-43.0,-1.0,29.0,0.18,-0.701,-0.364,-0.586
3104293,7868.0,1501.0,-2149.0,-50.0,-6.0,21.0,0.18,-0.701,-0.364,-0.586
3104306,7906.0,1479.0,-2195.0,-50.0,-5.0,21.0,0.18,-0.701,-0.364,-0.586
3104329,7812.0,1485.0,-2085.0,-49.0,-1.0,10.0,0.179,-0.702,-0.363,-0.586
3104342,7848.0,1493.0,-2015.0,-37.0,-4.0,7.0,0.179,-0.702,-0.363,-0.586
3104365,7862.0,1417.0,-2073.0,-36.0,11.0,-4.0,0.179,-0.702,-0.363,-0.586
3104378,7864.0,1397.0,-2165.0,-31.0,12.0,-21.0,0.179,-0.702,-0.363,-0.587
3104401,7860.0,1413.0,-2133.0,-45.0,0.0,-29.0,0.178,-0.702,-0.363,-0.587
3104414,7842.0,1393.0,-2001.0,-45.0,5.0,-25.0,0.178,-0.702,-0.363,-0.587
3104437,7806.0,1453.0,-2015.0,-43.0,2.0,-31.0,0.177,-0.702,-0.363,-0.587
3104450,7858.0,1385.0,-2079.0,-46.0,1.0,-45.0,0.177,-0.702,-0.363,-0.587
3104463,7904.0,1365.0,-2171.0,-61.0,-2.0,-55.0,0.176,-0.702,-0.363,-0.587
3104486,7938.0,1321.0,-2059.0,-79.0,-6.0,-49.0,0.175,-0.702,-0.362,-0.588
3104499,7904.0,1195.0,-2015.0,-81.0,8.0,-43.0,0.175,-0.702,-0.362,-0.588
3104522,7860.0,1281.0,-2091.0,-64.0,14.0,-62.0,0.174,-0.702,-0.362,-0.588
3104535,7898.0,1315.0,-2123.0,-64.0,16.0,-84.0,0.173,-0.701,-0.362,-0.589
3104558,7856.0,1331.0,-2103.0,-49.0,26.0,-72.0,0.173,-0.701,-0.363,-0.589
3104571,7876.0,1357.0,-2145.0,-12.0,31.0,-61.0,0.173,-0.701,-0.363,-0.589
3104594,7880.0,1293.0,-2155.0,13.0,36.0,-53.0,0.173,-0.701,-0.363,-0.589
3104607,7768.0,1355.0,-2109.0,24.0,34.0,-36.0,0.173,-0.7,-0.364,-0.59
3104630,7774.0,1347.0,-1921.0,22.0,33.0,-3.0,0.173,-0.7,-0.364,-0.59
3104643,7800.0,1417.0,-2051.0,26.0,30.0,8.0,0.173,-0.7,-0.364,-0.59
3104656,7772.0,1327.0,-2099.0,24.0,13.0,10.0,0.174,-0.7,-0.364,-0.59
3104679,7824.0,1399.0,-2039.0,34.0,5.0,25.0,0.174,-0.7,-0.364,-0.589
3104692,7744.0,1261.0,-2081.0,54.0,9.0,41.0,0.175,-0.7,-0.364,-0.589
3104715,7950.0,1269.0,-2061.0,104.0,22.0,28.0,0.176,-0.7,-0.364,-0.589
3104728,8032.0,1535.0,-2131.0,127.0,7.0,7.0,0.177,-0.7,-0.365,-0.588
3104751,8222.0,1277.0,-1987.0,175.0,30.0,-9.0,0.178,-0.699,-0.366,-0.588
3104764,8500.0,1509.0,-2059.0,236.0,74.0,-24.0,0.18,-0.698,-0.367,-0.588
3104787,8718.0,1197.0,-1903.0,366.0,219.0,-100.0,0.182,-0.696,-0.369,-0.588
3104800,8648.0,1783.0,-1983.0,381.0,399.0,-185.0,0.185,-0.693,-0.372,-0.589
3104823,8274.0,1945.0,-1059.0,394.0,520.0,-215.0,0.189,-0.688,-0.375,-0.592
3104836,7728.0,2221.0,-715.0,492.0,590.0,-215.0,0.193,-0.683,-0.378,-0.594
3104849,7842.0,3711.0,-563.0,277.0,567.0,-417.0,0.194,-0.678,-0.381,-0.598
3104877,7902.0,3851.0,-723.0,-24.0,587.0,-715.0,0.192,-0.672,-0.385,-0.603
3104890,7466.0,3535.0,-893.0,-103.0,460.0,-758.0,0.188,-0.667,-0.388,-0.608
3104903,7720.0,4033.0,-1341.0,4.0,433.0,-844.0,0.185,-0.661,-0.393,-0.612
3104926,8724.0,3255.0,-1159.0,308.0,625.0,-1142.0,0.182,-0.653,-0.401,-0.617
3104939,8568.0,4675.0,-407.0,642.0,772.0,-1513.0,0.18,-0.641,-0.412,-0.622
3104962,10446.0,5763.0,387.0,683.0,977.0,-1215.0,0.181,-0.63,-0.422,-0.627
3104975,8132.0,5219.0,455.0,116.0,723.0,-1927.0,0.174,-0.618,-0.433,-0.634
3104998,8034.0,6523.0,-11.0,99.0,396.0,-1981.0,0.164,-0.607,-0.444,-0.638
3105011,8532.0,7167.0,-329.0,-103.0,269.0,-1756.0,0.154,-0.598,-0.453,-0.643
3105034,8376.0,6729.0,-737.0,-304.0,244.0,-1958.0,0.142,-0.589,-0.462,-0.648
3105047,8790.0,6783.0,-1993.0,-404.0,251.0,-2180.0,0.128,-0.578,-0.471,-0.654
3105060,9022.0,6993.0,-2397.0,-354.0,337.0,-2429.0,0.113,-0.566,-0.482,-0.66
3105083,9450.0,7791.0,-1497.0,-326.0,409.0,-2836.0,0.096,-0.55,-0.494,-0.666
3105096,9244.0,8113.0,-1633.0,-442.0,380.0,-3053.0,0.076,-0.534,-0.507,-0.673
3105119,9192.0,8747.0,-1691.0,-742.0,272.0,-3120.0,0.055,-0.518,-0.517,-0.679
3105132,8798.0,8047.0,-2027.0,-1021.0,327.0,-3071.0,0.032,-0.501,-0.525,-0.687
3105155,8128.0,8319.0,-2019.0,-1025.0,349.0,-3219.0,0.009,-0.483,-0.534,-0.694
3105168,7772.0,8555.0,-1351.0,-979.0,308.0,-3411.0,0.016,0.463,0.543,0.7
3105191,7616.0,8209.0,-1489.0,-1021.0,321.0,-3461.0,0.041,0.443,0.551,0.706
3105204,6700.0,8281.0,-1719.0,-1031.0,312.0,-3479.0,0.066,0.423,0.558,0.711
3105217,6882.0,8541.0,-803.0,-1152.0,257.0,-3657.0,0.093,0.401,0.565,0.715
3105240,6216.0,7861.0,-973.0,-1226.0,346.0,-3595.0,0.12,0.378,0.57,0.719
3105253,5920.0,7725.0,-1661.0,-1124.0,224.0,-3074.0,0.143,0.358,0.574,0.723
3105276,5086.0,8081.0,-855.0,-1133.0,391.0,-3628.0,0.168,0.334,0.579,0.725
3105289,4808.0,7659.0,-751.0,-1158.0,409.0,-3579.0,0.194,0.31,0.582,0.726
3105312,4754.0,8017.0,483.0,-1271.0,351.0,-3547.0,0.219,0.286,0.584,0.727
3105325,3734.0,6505.0,521.0,-1362.0,469.0,-3451.0,0.243,0.261,0.585,0.729
3105348,3286.0,6831.0,959.0,-1336.0,374.0,-3526.0,0.267,0.237,0.585,0.729
3105361,2140.0,4731.0,1027.0,-1261.0,501.0,-3380.0,0.29,0.212,0.585,0.728
3105384,1692.0,5967.0,1135.0,-1078.0,308.0,-3268.0,0.312,0.189,0.584,0.725
3105397,1414.0,5077.0,1191.0,-1089.0,495.0,-2992.0,0.331,0.166,0.583,0.723
3105410,746.0,4115.0,1763.0,-868.0,476.0,-2766.0,0.348,0.145,0.583,0.72
3105433,202.0,4439.0,2501.0,-783.0,357.0,-2583.0,0.364,0.126,0.582,0.716
3105446,-222.0,4193.0,2511.0,-791.0,122.0,-2218.0,0.379,0.11,0.58,0.713
3105469,-764.0,3495.0,1423.0,-906.0,49.0,-1946.0,0.393,0.096,0.576,0.711
3105482,-860.0,2113.0,935.0,-869.0,203.0,-1777.0,0.404,0.082,0.572,0.709
3105505,-1234.0,2501.0,2459.0,-559.0,206.0,-1554.0,0.414,0.07,0.57,0.706
3105518,-1476.0,3221.0,2593.0,-455.0,108.0,-1207.0,0.421,0.061,0.568,0.704
3105541,-1490.0,2635.0,2375.0,-480.0,107.0,-785.0,0.426,0.054,0.566,0.704
3105554,-2064.0,1727.0,1881.0,-367.0,154.0,-453.0,0.428,0.05,0.564,0.704
3105567,-1606.0,1785.0,1885.0,-331.0,362.0,-156.0,0.427,0.045,0.564,0.705
3105590,-1656.0,1137.0,2109.0,-152.0,681.0,150.0,0.423,0.041,0.565,0.707
3105603,-1614.0,1829.0,2999.0,218.0,761.0,475.0,0.416,0.039,0.57,0.708
3105626,-1240.0,3405.0,3265.0,233.0,737.0,969.0,0.405,0.041,0.574,0.711
3105639,-2632.0,3033.0,2553.0,164.0,-306.0,1602.0,0.396,0.052,0.573,0.716
3105662,-854.0,2241.0,2445.0,253.0,-48.0,1839.0,0.384,0.063,0.573,0.721
3105675,-1040.0,2735.0,2503.0,542.0,-229.0,2156.0,0.37,0.078,0.575,0.726
3105698,-64.0,4001.0,2717.0,625.0,-493.0,2502.0,0.356,0.097,0.575,0.73
3105711,14.0,4151.0,2373.0,431.0,-521.0,2821.0,0.339,0.118,0.574,0.736
3105724,1128.0,4947.0,1635.0,300.0,-657.0,3033.0,0.321,0.139,0.57,0.743
3105747,1466.0,3869.0,1463.0,654.0,-521.0,3206.0,0.301,0.162,0.568,0.748
3105760,1460.0,4033.0,1637.0,1089.0,-471.0,3303.0,0.279,0.186,0.569,0.751
3105783,2430.0,7501.0,1739.0,1108.0,-799.0,3213.0,0.258,0.212,0.569,0.751
3105796,2710.0,8953.0,-85.0,544.0,-945.0,3173.0,0.24,0.237,0.564,0.754
3105819,4102.0,4825.0,-461.0,352.0,-33.0,3945.0,0.212,0.259,0.557,0.76
3105832,3418.0,3419.0,377.0,1101.0,192.0,3822.0,0.181,0.279,0.556,0.762
3105855,4662.0,10633.0,2019.0,1678.0,-339.0,3056.0,0.157,0.3,0.559,0.757
3105868,6280.0,14231.0,3331.0,998.0,-668.0,2998.0,0.136,0.322,0.556,0.754
3105891,6334.0,6959.0,-143.0,247.0,100.0,3975.0,0.107,0.342,0.545,0.758
3105904,3188.0,2369.0,-2409.0,638.0,522.0,4454.0,0.071,0.362,0.536,0.76
3105927,4948.0,5421.0,1241.0,1950.0,170.0,3323.0,0.04,0.379,0.538,0.752
3105940,6950.0,12305.0,3019.0,2171.0,-387.0,2408.0,0.017,0.394,0.544,0.741
3105953,6884.0,13769.0,2493.0,1148.0,-327.0,1990.0,0.001,0.407,0.544,0.734
3105976,8002.0,5609.0,-2351.0,-125.0,-78.0,3825.0,0.024,-0.426,-0.529,-0.734
3105989,5550.0,1439.0,-1143.0,355.0,135.0,4574.0,0.057,-0.448,-0.512,-0.731
3106012,7880.0,9353.0,1295.0,1426.0,-614.0,2998.0,0.081,-0.465,-0.509,-0.719
3106025,9736.0,8919.0,1481.0,920.0,-384.0,2522.0,0.1,-0.479,-0.505,-0.711
3106048,8978.0,8255.0,111.0,722.0,-585.0,2513.0,0.117,-0.494,-0.499,-0.702
3106061,8928.0,4935.0,-2785.0,621.0,-250.0,2800.0,0.137,-0.508,-0.49,-0.695
3106084,8436.0,4333.0,-1885.0,1019.0,-108.0,3048.0,0.161,-0.521,-0.482,-0.686
3106097,8946.0,7059.0,-263.0,1126.0,-89.0,2436.0,0.181,-0.531,-0.477,-0.676
3106110,9624.0,7063.0,1001.0,923.0,-193.0,2181.0,0.199,-0.54,-0.472,-0.667
3106133,9234.0,7619.0,-271.0,600.0,-289.0,2111.0,0.213,-0.55,-0.466,-0.659
3106146,9368.0,5487.0,-803.0,670.0,-215.0,2205.0,0.229,-0.56,-0.459,-0.651
3106169,8574.0,5487.0,-905.0,814.0,-158.0,1979.0,0.245,-0.568,-0.453,-0.642
3106182,9234.0,6997.0,-1275.0,751.0,-27.0,1360.0,0.257,-0.572,-0.451,-0.636
3106205,9536.0,5741.0,-1959.0,566.0,228.0,951.0,0.266,-0.573,-0.448,-0.632
3106218,8756.0,6303.0,-2303.0,499.0,519.0,525.0,0.274,-0.571,-0.447,-0.631
3106241,8760.0,6015.0,-1235.0,582.0,677.0,34.0,0.28,-0.566,-0.449,-0.632
3106254,8094.0,8787.0,545.0,515.0,486.0,-625.0,0.281,-0.559,-0.454,-0.634
3106267,8094.0,9149.0,359.0,88.0,143.0,-1018.0,0.276,-0.554,-0.459,-0.637
3106290,7626.0,7835.0,225.0,-163.0,-152.0,-1290.0,0.267,-0.55,-0.465,-0.64
3106303,8028.0,7725.0,-165.0,-104.0,-416.0,-1503.0,0.256,-0.546,-0.473,-0.642
3106326,7468.0,8289.0,-687.0,-166.0,-314.0,-1860.0,0.242,-0.54,-0.482,-0.646
3106339,8312.0,8125.0,-557.0,-273.0,-183.0,-2220.0,0.227,-0.532,-0.492,-0.651
3106362,8130.0,8109.0,-325.0,-371.0,-125.0,-2503.0,0.209,-0.522,-0.502,-0.657
3106375,8692.0,8361.0,-391.0,-542.0,-120.0,-2721.0,0.189,-0.511,-0.512,-0.664
3106398,8442.0,8133.0,-261.0,-666.0,-155.0,-2894.0,0.167,-0.499,-0.522,-0.671
3106411,8674.0,8145.0,-1183.0,-798.0,-167.0,-3075.0,0.144,-0.486,-0.532,-0.679
3106434,8952.0,8333.0,-1041.0,-819.0,-78.0,-3341.0,0.118,-0.47,-0.541,-0.687
3106447,8670.0,8747.0,-313.0,-820.0,-84.0,-3577.0,0.092,-0.453,-0.552,-0.694
3106460,8696.0,9577.0,-641.0,-1035.0,-208.0,-3723.0,0.062,-0.436,-0.561,-0.701
3106483,8346.0,8321.0,-717.0,-1215.0,-198.0,-3641.0,0.033,-0.419,-0.568,-0.708
3106496,7858.0,9171.0,-325.0,-1154.0,-360.0,-3807.0,0.002,-0.401,-0.575,-0.714
3106519,8172.0,9331.0,-189.0,-1292.0,-315.0,-3996.0,0.031,0.381,0.581,0.719
3106532,7244.0,9589.0,-445.0,-1412.0,-339.0,-3958.0,0.064,0.361,0.585,0.724
3106555,7112.0,8779.0,-111.0,-1585.0,-191.0,-3824.0,0.096,0.34,0.587,0.729
3106568,5278.0,8445.0,-37.0,-1591.0,-260.0,-3749.0,0.128,0.319,0.587,0.733
3106591,4760.0,8777.0,909.0,-1713.0,-370.0,-3750.0,0.16,0.299,0.586,0.736
3106604,4448.0,7517.0,619.0,-1827.0,-375.0,-3535.0,0.19,0.279,0.582,0.739
3106627,3892.0,6397.0,147.0,-1796.0,-313.0,-3205.0,0.218,0.261,0.577,0.742
3106640,3324.0,6419.0,1297.0,-1612.0,-338.0,-3397.0,0.247,0.242,0.573,0.743
3106663,3166.0,7063.0,579.0,-1580.0,-288.0,-3432.0,0.275,0.222,0.569,0.742
3106676,2540.0,4545.0,623.0,-1567.0,-90.0,-3145.0,0.3,0.202,0.564,0.742
3106689,2032.0,5833.0,833.0,-1406.0,-173.0,-3010.0,0.324,0.183,0.56,0.741
3106712,1934.0,5153.0,877.0,-1399.0,28.0,-2823.0,0.345,0.164,0.555,0.739
3106725,1460.0,4153.0,1281.0,-1263.0,82.0,-2605.0,0.364,0.145,0.55,0.737
3106748,1022.0,4339.0,1629.0,-1174.0,116.0,-2459.0,0.382,0.128,0.546,0.735
3106761,836.0,4377.0,1695.0,-1267.0,173.0,-2195.0,0.397,0.111,0.54,0.734
3106784,336.0,2553.0,1561.0,-1256.0,344.0,-1864.0,0.409,0.094,0.534,0.734
3106797,-424.0,1229.0,1167.0,-796.0,313.0,-1596.0,0.419,0.081,0.531,0.732
3106820,-490.0,437.0,1613.0,-355.0,371.0,-1359.0,0.427,0.071,0.531,0.728
3106833,-790.0,2467.0,2301.0,-114.0,351.0,-1078.0,0.432,0.062,0.533,0.725
3106846,-420.0,3219.0,2911.0,-414.0,389.0,-472.0,0.434,0.056,0.532,0.725
3106869,-1222.0,1269.0,2515.0,-350.0,338.0,50.0,0.432,0.052,0.531,0.727
3106887,-846.0,1135.0,2179.0,24.0,228.0,328.0,0.429,0.053,0.531,0.729
3106900,-874.0,1759.0,2495.0,123.0,196.0,715.0,0.423,0.055,0.533,0.731
3106923,-618.0,2073.0,2355.0,213.0,121.0,1179.0,0.414,0.061,0.534,0.735
3106936,-664.0,1589.0,2119.0,429.0,56.0,1600.0,0.402,0.071,0.536,0.739
3106959,-360.0,2105.0,1837.0,677.0,-14.0,1896.0,0.389,0.083,0.539,0.742
3106972,88.0,2967.0,1757.0,650.0,-76.0,2248.0,0.373,0.097,0.542,0.747
3106995,200.0,2889.0,1667.0,765.0,-142.0,2632.0,0.355,0.114,0.544,0.752
3107008,712.0,3493.0,2125.0,1168.0,-301.0,2860.0,0.335,0.135,0.548,0.755
3107031,1320.0,4913.0,1815.0,1179.0,-365.0,3054.0,0.314,0.157,0.551,0.757
3107044,1516.0,4619.0,1133.0,896.0,-393.0,3391.0,0.291,0.18,0.55,0.762
3107057,1742.0,3297.0,825.0,1407.0,-423.0,3631.0,0.265,0.205,0.553,0.763
3107080,3166.0,6959.0,1155.0,1686.0,-578.0,3386.0,0.24,0.232,0.556,0.761
3107093,3550.0,7803.0,2121.0,1184.0,-525.0,3548.0,0.215,0.257,0.555,0.761
3107116,3320.0,6683.0,907.0,985.0,-541.0,4045.0,0.186,0.284,0.551,0.762
3107129,3912.0,4473.0,63.0,1264.0,-495.0,4166.0,0.156,0.311,0.548,0.761
3107152,4700.0,7703.0,173.0,1990.0,-605.0,3943.0,0.125,0.338,0.549,0.754
3107165,6364.0,9327.0,1947.0,1678.0,-544.0,3595.0,0.098,0.362,0.548,0.747
3107188,6612.0,9881.0,1187.0,1138.0,-635.0,3799.0,0.071,0.387,0.542,0.742
3107201,6868.0,5893.0,-703.0,1084.0,-356.0,4287.0,0.039,0.412,0.533,0.738
3107224,7954.0,6595.0,-1201.0,1683.0,-331.0,3871.0,0.008,0.434,0.53,0.729
3107237,9220.0,9841.0,47.0,1839.0,-354.0,3288.0,0.02,-0.452,-0.528,-0.718
3107250,9582.0,10073.0,151.0,1219.0,-228.0,2889.0,0.044,-0.468,-0.524,-0.71
3107273,10166.0,8997.0,-817.0,874.0,-160.0,3427.0,0.069,-0.485,-0.515,-0.704
3107286,9734.0,5049.0,-1947.0,1152.0,175.0,3847.0,0.1,-0.502,-0.504,-0.696
3107309,9406.0,7165.0,-1173.0,1440.0,4.0,3237.0,0.128,-0.515,-0.498,-0.686
3107322,10966.0,8743.0,453.0,1064.0,-116.0,2746.0,0.15,-0.527,-0.491,-0.677
3107345,10132.0,5915.0,-575.0,739.0,-26.0,2729.0,0.171,-0.539,-0.482,-0.669
3107358,10008.0,6279.0,-1481.0,996.0,-95.0,2647.0,0.192,-0.55,-0.475,-0.66
3107371,10210.0,6009.0,-1101.0,924.0,-60.0,2686.0,0.212,-0.56,-0.467,-0.65
3107394,9394.0,5237.0,-951.0,974.0,-27.0,2465.0,0.232,-0.569,-0.46,-0.641
3107407,9638.0,6515.0,-207.0,826.0,-109.0,2228.0,0.249,-0.578,-0.453,-0.632
3107430,9026.0,4793.0,-889.0,488.0,-43.0,1820.0,0.262,-0.585,-0.446,-0.625
3107443,8878.0,4655.0,-941.0,564.0,-103.0,1505.0,0.273,-0.59,-0.441,-0.618
3107466,8860.0,5789.0,-443.0,562.0,-162.0,1336.0,0.283,-0.595,-0.437,-0.612
3107479,8534.0,5655.0,-397.0,475.0,-124.0,1234.0,0.292,-0.6,-0.433,-0.606
3107502,8154.0,5659.0,-931.0,372.0,-89.0,1106.0,0.3,-0.604,-0.429,-0.601
3107515,7910.0,5311.0,-857.0,269.0,-61.0,796.0,0.306,-0.607,-0.426,-0.597
3107538,7550.0,5211.0,-697.0,185.0,105.0,373.0,0.309,-0.607,-0.425,-0.596
3107551,7636.0,5541.0,-803.0,183.0,102.0,-82.0,0.31,-0.606,-0.426,-0.596
3107564,7714.0,5449.0,-753.0,80.0,149.0,-363.0,0.309,-0.604,-0.428,-0.597
3107587,7678.0,6077.0,-675.0,-6.0,78.0,-633.0,0.306,-0.601,-0.431,-0.6
3107600,7722.0,5523.0,-557.0,-94.0,28.0,-882.0,0.3,-0.598,-0.435,-0.603
3107623,8014.0,5385.0,-775.0,-102.0,-62.0,-950.0,0.294,-0.594,-0.44,-0.605
3107636,8412.0,5805.0,-1127.0,-246.0,25.0,-1218.0,0.286,-0.59,-0.445,-0.61
3107659,8272.0,5141.0,-1321.0,-301.0,104.0,-1576.0,0.276,-0.584,-0.452,-0.616
3107672,8774.0,5101.0,-1255.0,-396.0,120.0,-1923.0,0.263,-0.576,-0.46,-0.623
3107695,9082.0,5365.0,-1193.0,-373.0,127.0,-2290.0,0.248,-0.566,-0.469,-0.631
3107708,9940.0,6491.0,-1007.0,-438.0,35.0,-2708.0,0.23,-0.555,-0.481,-0.639
3107731,10402.0,5787.0,-1153.0,-627.0,61.0,-2992.0,0.209,-0.542,-0.492,-0.648
3107744,10292.0,6355.0,-1505.0,-681.0,90.0,-3204.0,0.187,-0.528,-0.504,-0.657
3107757,10402.0,6749.0,-1395.0,-784.0,84.0,-3452.0,0.162,-0.512,-0.516,-0.667
3107780,10346.0,7143.0,-1211.0,-846.0,151.0,-3693.0,0.136,-0.494,-0.528,-0.677
3107793,9980.0,7971.0,-1763.0,-935.0,144.0,-3886.0,0.108,-0.475,-0.539,-0.687
3107816,10208.0,7903.0,-1263.0,-1079.0,229.0,-4009.0,0.079,-0.454,-0.55,-0.697
3107829,9204.0,8301.0,-1349.0,-1193.0,425.0,-4050.0,0.05,-0.431,-0.559,-0.707
3107852,8700.0,8147.0,-393.0,-1212.0,566.0,-4136.0,0.021,-0.406,-0.567,-0.717
3107865,6936.0,8123.0,7.0,-1161.0,540.0,-4134.0,0.008,0.38,0.574,0.725
3107888,6420.0,9253.0,359.0,-1351.0,339.0,-4175.0,0.038,0.355,0.58,0.733
3107901,6346.0,7619.0,-83.0,-1395.0,518.0,-4032.0,0.067,0.328,0.583,0.74
3107924,5232.0,7521.0,221.0,-1173.0,552.0,-3962.0,0.095,0.302,0.587,0.745
3107937,4566.0,7241.0,627.0,-1108.0,668.0,-4076.0,0.122,0.274,0.591,0.749
3107950,4024.0,8195.0,1773.0,-1308.0,97.0,-3841.0,0.151,0.25,0.592,0.751
3107973,3708.0,7391.0,1225.0,-1480.0,151.0,-3578.0,0.178,0.228,0.589,0.754
3107986,3186.0,6071.0,1337.0,-1492.0,252.0,-3378.0,0.203,0.205,0.586,0.757
3108009,2684.0,5133.0,1653.0,-1206.0,216.0,-3234.0,0.227,0.183,0.584,0.758
3108022,2222.0,6933.0,1757.0,-1242.0,37.0,-3211.0,0.251,0.163,0.58,0.757
3108045,1714.0,4483.0,2037.0,-1461.0,247.0,-2673.0,0.27,0.143,0.574,0.759
3108058,1190.0,3521.0,1401.0,-1164.0,214.0,-2662.0,0.289,0.124,0.57,0.759
3108081,728.0,4257.0,1581.0,-932.0,146.0,-2738.0,0.309,0.106,0.567,0.756
3108094,780.0,3925.0,1239.0,-867.0,229.0,-2478.0,0.326,0.089,0.564,0.754
3108107,406.0,3409.0,1723.0,-730.0,236.0,-2155.0,0.34,0.073,0.561,0.751
3108130,-170.0,3055.0,2511.0,-579.0,176.0,-1755.0,0.352,0.061,0.558,0.749
3108143,-296.0,3339.0,2433.0,-454.0,5.0,-1373.0,0.361,0.053,0.556,0.747
3108166,-588.0,3187.0,1649.0,-534.0,6.0,-949.0,0.368,0.046,0.553,0.746
3108179,-868.0,2025.0,1247.0,-503.0,161.0,-606.0,0.372,0.04,0.55,0.747
3108202,-1298.0,1997.0,1599.0,-295.0,313.0,-342.0,0.373,0.035,0.549,0.747
3108215,-1352.0,2277.0,2963.0,117.0,224.0,-33.0,0.372,0.034,0.551,0.747
3108238,-1196.0,2901.0,2623.0,389.0,101.0,371.0,0.369,0.036,0.554,0.746
3108251,-1430.0,2603.0,1907.0,263.0,114.0,830.0,0.362,0.041,0.555,0.747
3108274,-1350.0,2191.0,2003.0,313.0,162.0,1175.0,0.353,0.047,0.558,0.75
3108287,-1080.0,2899.0,2615.0,529.0,99.0,1423.0,0.342,0.056,0.561,0.752
3108310,-866.0,2957.0,2841.0,708.0,72.0,1813.0,0.329,0.067,0.565,0.754
3108323,-584.0,3615.0,2273.0,859.0,-71.0,2146.0,0.314,0.082,0.569,0.755
3108336,-204.0,4069.0,1807.0,743.0,-92.0,2438.0,0.297,0.098,0.572,0.758
3108359,92.0,3837.0,1477.0,861.0,-53.0,2740.0,0.277,0.115,0.575,0.761
3108372,712.0,5239.0,2305.0,1012.0,-214.0,2873.0,0.256,0.135,0.579,0.762
3108395,830.0,6667.0,1831.0,816.0,-374.0,3121.0,0.235,0.156,0.579,0.765
3108408,1826.0,6445.0,891.0,364.0,-387.0,3357.0,0.213,0.178,0.576,0.769
3108431,1802.0,5217.0,1115.0,260.0,-240.0,3533.0,0.189,0.2,0.571,0.774
3108444,2702.0,6895.0,1161.0,681.0,-543.0,3298.0,0.166,0.223,0.568,0.774
3108467,4054.0,5365.0,853.0,1039.0,-248.0,3345.0,0.142,0.244,0.568,0.773
3108480,3794.0,7499.0,621.0,1209.0,-413.0,3338.0,0.117,0.267,0.568,0.77
3108493,4708.0,8247.0,-327.0,1233.0,-422.0,3085.0,0.094,0.287,0.569,0.765
3108516,5974.0,8257.0,441.0,1276.0,-327.0,2937.0,0.071,0.306,0.569,0.759
3108529,6010.0,8037.0,1243.0,1354.0,-124.0,3112.0,0.046,0.325,0.57,0.754
3108552,5706.0,8489.0,1101.0,1424.0,-265.0,3121.0,0.021,0.344,0.57,0.746
3108565,6042.0,8921.0,-119.0,996.0,-410.0,3234.0,0.002,-0.364,-0.566,-0.74
3108588,7958.0,8019.0,359.0,778.0,-301.0,3111.0,0.024,-0.383,-0.56,-0.734
3108601,6004.0,8265.0,-43.0,1206.0,-363.0,3214.0,0.049,-0.401,-0.557,-0.726
3108624,8096.0,8015.0,751.0,1175.0,-356.0,2924.0,0.071,-0.419,-0.554,-0.716
3108637,7036.0,6575.0,61.0,721.0,-195.0,2884.0,0.092,-0.434,-0.547,-0.71
3108650,7550.0,8031.0,7.0,772.0,-524.0,2853.0,0.111,-0.451,-0.541,-0.701
3108673,8818.0,7379.0,65.0,824.0,-518.0,2411.0,0.128,-0.466,-0.536,-0.692
3108686,8660.0,7483.0,-399.0,898.0,-507.0,2488.0,0.145,-0.481,-0.532,-0.682
3108709,8714.0,4969.0,-1809.0,660.0,-232.0,2682.0,0.164,-0.495,-0.524,-0.674
3108722,8210.0,4401.0,-1135.0,1082.0,-48.0,2656.0,0.185,-0.506,-0.518,-0.664
3108745,8998.0,6027.0,-41.0,1326.0,-64.0,2367.0,0.206,-0.516,-0.515,-0.653
3108758,8992.0,8217.0,211.0,1137.0,-232.0,2086.0,0.223,-0.525,-0.513,-0.642
3108781,8704.0,6697.0,-487.0,614.0,-110.0,2138.0,0.238,-0.534,-0.506,-0.634
3108794,8810.0,5621.0,-921.0,306.0,-242.0,2542.0,0.253,-0.547,-0.495,-0.626
3108817,8822.0,3747.0,-733.0,196.0,-127.0,2541.0,0.268,-0.559,-0.484,-0.618
3108830,8612.0,3799.0,-623.0,541.0,-77.0,2229.0,0.283,-0.568,-0.475,-0.609
3108853,9036.0,4497.0,-855.0,496.0,-28.0,2014.0,0.297,-0.576,-0.467,-0.601
3108866,9150.0,4721.0,-413.0,393.0,-76.0,1773.0,0.309,-0.583,-0.46,-0.594
3108879,9514.0,4965.0,-485.0,303.0,-63.0,1546.0,0.319,-0.589,-0.453,-0.588
3108897,8946.0,4747.0,-245.0,222.0,-51.0,1335.0,0.327,-0.595,-0.447,-0.583
3108920,8964.0,3637.0,-427.0,133.0,51.0,1151.0,0.334,-0.599,-0.441,-0.579
3108933,8488.0,4057.0,-539.0,112.0,97.0,822.0,0.34,-0.601,-0.437,-0.576
3108956,8506.0,4163.0,-675.0,58.0,111.0,359.0,0.342,-0.602,-0.435,-0.576
3108969,8544.0,4161.0,-659.0,44.0,136.0,-95.0,0.343,-0.601,-0.435,-0.577
3108992,8364.0,3957.0,-583.0,89.0,230.0,-423.0,0.342,-0.598,-0.437,-0.579
3109005,8358.0,4463.0,-713.0,140.0,301.0,-672.0,0.34,-0.593,-0.441,-0.582
3109018,8352.0,5025.0,-939.0,139.0,336.0,-1031.0,0.336,-0.586,-0.446,-0.586
3109041,8490.0,5369.0,-841.0,-8.0,346.0,-1305.0,0.331,-0.579,-0.452,-0.592
3109054,8330.0,4983.0,-807.0,-163.0,350.0,-1546.0,0.323,-0.571,-0.458,-0.6
3109077,8234.0,5731.0,-1223.0,-301.0,286.0,-1771.0,0.312,-0.563,-0.465,-0.608
3109090,7762.0,5687.0,-1945.0,-327.0,296.0,-1914.0,0.301,-0.554,-0.472,-0.616
3109113,8366.0,5063.0,-1539.0,-438.0,347.0,-2096.0,0.288,-0.544,-0.48,-0.625
3109126,9014.0,5461.0,-665.0,-473.0,355.0,-2391.0,0.274,-0.532,-0.488,-0.635
3109149,9470.0,7071.0,-545.0,-776.0,275.0,-2783.0,0.254,-0.52,-0.496,-0.647
3109162,9142.0,6929.0,-361.0,-1022.0,302.0,-2992.0,0.233,-0.506,-0.504,-0.66
3109185,8988.0,7251.0,-793.0,-1066.0,222.0,-3035.0,0.21,-0.492,-0.511,-0.672
3109198,9030.0,7035.0,-969.0,-1236.0,211.0,-3072.0,0.186,-0.479,-0.517,-0.685
3109221,8830.0,7605.0,-811.0,-1346.0,178.0,-3178.0,0.161,-0.464,-0.522,-0.697
3109234,8880.0,7189.0,-1647.0,-1324.0,188.0,-3281.0,0.135,-0.449,-0.527,-0.709
3109247,9076.0,6565.0,-1601.0,-1163.0,337.0,-3478.0,0.109,-0.431,-0.533,-0.72
3109270,8244.0,7787.0,-469.0,-936.0,230.0,-3786.0,0.081,-0.411,-0.542,-0.729
3109283,7990.0,8163.0,285.0,-1192.0,209.0,-3936.0,0.051,-0.39,-0.548,-0.738
3109306,8016.0,8713.0,321.0,-1361.0,160.0,-3858.0,0.021,-0.369,-0.553,-0.747
3109319,7192.0,7259.0,-169.0,-1373.0,371.0,-3699.0,0.008,0.347,0.556,0.755
3109342,5882.0,8391.0,825.0,-1180.0,248.0,-3781.0,0.036,0.326,0.559,0.762
3109355,6204.0,8679.0,1291.0,-1321.0,114.0,-3777.0,0.066,0.304,0.561,0.767
3109368,5272.0,7547.0,1327.0,-1550.0,193.0,-3436.0,0.094,0.284,0.56,0.773
3109391,4326.0,6635.0,1293.0,-1407.0,50.0,-3412.0,0.121,0.264,0.558,0.777
3109404,4218.0,6253.0,2163.0,-1386.0,-124.0,-3429.0,0.15,0.246,0.556,0.78
3109427,3368.0,5475.0,2297.0,-1507.0,-136.0,-3185.0,0.177,0.228,0.552,0.782
3109440,3426.0,5721.0,2613.0,-1258.0,-244.0,-3025.0,0.202,0.212,0.548,0.783
3109463,3056.0,5461.0,1663.0,-1235.0,-156.0,-2695.0,0.225,0.197,0.544,0.784
3109476,1552.0,1485.0,345.0,-1264.0,302.0,-2287.0,0.242,0.18,0.54,0.786
3109499,2032.0,2545.0,677.0,-846.0,120.0,-2197.0,0.259,0.167,0.537,0.785
3109512,2050.0,4081.0,1851.0,-643.0,176.0,-2275.0,0.276,0.152,0.536,0.783
3109535,1660.0,2853.0,3305.0,-387.0,299.0,-1778.0,0.287,0.14,0.537,0.781
3109548,1070.0,3159.0,3059.0,-114.0,297.0,-1425.0,0.296,0.131,0.539,0.778
3109561,200.0,2225.0,1127.0,-376.0,339.0,-1081.0,0.303,0.122,0.538,0.777
3109584,460.0,1363.0,1639.0,-279.0,209.0,-679.0,0.307,0.116,0.537,0.777
3109597,904.0,1657.0,2267.0,181.0,91.0,-400.0,0.309,0.114,0.539,0.775
3109620,938.0,2921.0,3327.0,534.0,62.0,-77.0,0.309,0.115,0.543,0.772
3109633,190.0,3015.0,3085.0,425.0,36.0,410.0,0.306,0.118,0.546,0.771
3109656,292.0,1645.0,1545.0,233.0,33.0,876.0,0.299,0.123,0.547,0.772
3109669,846.0,1263.0,1201.0,616.0,-23.0,1173.0,0.29,0.131,0.55,0.772
3109692,1190.0,3131.0,2209.0,977.0,-103.0,1364.0,0.28,0.142,0.555,0.771
3109705,1244.0,3893.0,2641.0,1093.0,-74.0,1823.0,0.265,0.154,0.56,0.77
3109728,1718.0,4111.0,1981.0,1050.0,-50.0,2200.0,0.248,0.169,0.564,0.769
3109741,1724.0,3475.0,841.0,1086.0,4.0,2541.0,0.228,0.185,0.567,0.769
3109754,2310.0,4425.0,1187.0,1275.0,-33.0,2683.0,0.207,0.202,0.572,0.768
3109777,2844.0,5703.0,1627.0,1248.0,-62.0,2815.0,0.185,0.22,0.575,0.766
3109790,3664.0,6467.0,1781.0,1479.0,-8.0,2999.0,0.161,0.24,0.578,0.763
3109813,3818.0,8227.0,183.0,1135.0,-150.0,3120.0,0.137,0.259,0.579,0.761
3109826,4220.0,5091.0,1043.0,665.0,97.0,3594.0,0.109,0.279,0.575,0.762
3109849,4558.0,5333.0,711.0,1133.0,13.0,3524.0,0.082,0.299,0.573,0.759
3109862,5630.0,8489.0,667.0,1720.0,-245.0,3222.0,0.055,0.319,0.576,0.751
3109885,7220.0,10667.0,1383.0,1530.0,-372.0,3152.0,0.031,0.34,0.576,0.743
3109898,5878.0,6787.0,-1861.0,388.0,105.0,3765.0,0.003,0.359,0.567,0.741
3109921,6282.0,2485.0,-1575.0,953.0,34.0,4103.0,0.028,-0.381,-0.559,-0.736
3109934,7372.0,7781.0,-915.0,1869.0,-269.0,3227.0,0.056,-0.399,-0.56,-0.724
3109947,9516.0,10639.0,473.0,1582.0,-268.0,2792.0,0.079,-0.414,-0.56,-0.713
3109970,8230.0,10741.0,437.0,1275.0,-295.0,2825.0,0.101,-0.43,-0.558,-0.703
3109983,8336.0,4381.0,-2897.0,236.0,23.0,3747.0,0.127,-0.449,-0.544,-0.698
3110006,8442.0,1775.0,-1631.0,1375.0,-47.0,3800.0,0.157,-0.467,-0.536,-0.685
3110019,9268.0,8559.0,-405.0,1794.0,-298.0,2746.0,0.181,-0.48,-0.536,-0.671
3110042,9938.0,10005.0,-113.0,1421.0,-341.0,2486.0,0.201,-0.492,-0.534,-0.657
3110055,9764.0,6139.0,-1403.0,848.0,-18.0,2646.0,0.221,-0.504,-0.527,-0.648
3110078,8926.0,2579.0,-2417.0,873.0,34.0,2851.0,0.242,-0.516,-0.518,-0.638
3110091,9582.0,6079.0,-1199.0,1411.0,-191.0,2290.0,0.261,-0.525,-0.516,-0.625
3110114,9876.0,7039.0,-465.0,1135.0,-75.0,2099.0,0.279,-0.533,-0.512,-0.613
3110127,9018.0,5123.0,-1125.0,993.0,-85.0,2024.0,0.295,-0.54,-0.508,-0.603
3110140,8954.0,5887.0,-1369.0,819.0,-171.0,2055.0,0.309,-0.549,-0.502,-0.592
3110163,8918.0,5353.0,-865.0,591.0,-196.0,1757.0,0.321,-0.556,-0.497,-0.583
3110176,8496.0,4649.0,-1193.0,543.0,-81.0,1500.0,0.331,-0.562,-0.492,-0.576
3110199,8548.0,5333.0,-1401.0,689.0,-115.0,1312.0,0.341,-0.567,-0.489,-0.568
3110212,8398.0,5259.0,-1533.0,571.0,-99.0,1243.0,0.35,-0.571,-0.486,-0.561
3110235,7752.0,4929.0,-1035.0,510.0,-42.0,1174.0,0.359,-0.575,-0.482,-0.555
3110248,7718.0,5217.0,-851.0,512.0,-64.0,902.0,0.366,-0.578,-0.48,-0.549
3110271,7866.0,4799.0,-1033.0,423.0,34.0,474.0,0.371,-0.579,-0.48,-0.545
3110284,7660.0,5157.0,-1177.0,385.0,22.0,96.0,0.373,-0.578,-0.481,-0.544
3110297,7422.0,4993.0,-1109.0,246.0,3.0,-144.0,0.374,-0.576,-0.483,-0.543
3110320,7564.0,5181.0,-555.0,154.0,1.0,-304.0,0.373,-0.575,-0.485,-0.543
3110333,7914.0,4987.0,-611.0,-11.0,41.0,-510.0,0.371,-0.572,-0.488,-0.545
3110356,7976.0,4767.0,-1273.0,-109.0,42.0,-802.0,0.366,-0.569,-0.491,-0.549
3110369,8094.0,4753.0,-1343.0,-139.0,14.0,-1082.0,0.36,-0.564,-0.496,-0.553
3110392,8652.0,5113.0,-1127.0,-208.0,-11.0,-1393.0,0.351,-0.559,-0.502,-0.559
3110404,8834.0,5471.0,-1913.0,-393.0,-56.0,-1675.0,0.34,-0.553,-0.509,-0.566
3110427,9234.0,6013.0,-1775.0,-545.0,-169.0,-1986.0,0.326,-0.546,-0.517,-0.574
3110440,10356.0,5337.0,-1713.0,-723.0,-122.0,-2362.0,0.309,-0.537,-0.525,-0.584
3110463,10696.0,5741.0,-2391.0,-795.0,-32.0,-2810.0,0.289,-0.526,-0.535,-0.595
3110476,10638.0,6651.0,-2599.0,-868.0,-73.0,-3204.0,0.267,-0.512,-0.546,-0.607
3110499,11218.0,7479.0,-2157.0,-985.0,-45.0,-3523.0,0.242,-0.497,-0.557,-0.62
3110512,11188.0,7573.0,-2039.0,-1173.0,28.0,-3725.0,0.215,-0.48,-0.567,-0.635
3110525,10446.0,8361.0,-2043.0,-1299.0,-18.0,-3830.0,0.186,-0.462,-0.576,-0.649
3110548,10516.0,9123.0,-2089.0,-1541.0,-23.0,-3939.0,0.156,-0.443,-0.583,-0.663
3110561,10104.0,8355.0,-2579.0,-1783.0,-34.0,-4061.0,0.123,-0.423,-0.589,-0.678
3110584,9846.0,8343.0,-1439.0,-1857.0,51.0,-4225.0,0.09,-0.401,-0.593,-0.692
3110597,9096.0,8679.0,-951.0,-1703.0,89.0,-4396.0,0.056,-0.377,-0.598,-0.705
3110620,7102.0,8239.0,-969.0,-1537.0,145.0,-4471.0,0.022,-0.352,-0.603,-0.716
3110633,6434.0,9539.0,-1423.0,-1610.0,-126.0,-4297.0,0.013,0.328,0.606,0.725
3110656,6976.0,8177.0,-613.0,-1872.0,41.0,-3725.0,0.043,0.306,0.604,0.734
3110669,5414.0,7051.0,-603.0,-1897.0,77.0,-3781.0,0.073,0.284,0.602,0.743
3110692,4538.0,5655.0,819.0,-1682.0,39.0,-3971.0,0.104,0.26,0.6,0.749
3110705,4222.0,8029.0,169.0,-1805.0,-262.0,-4111.0,0.139,0.236,0.597,0.754
3110718,3946.0,4233.0,567.0,-1967.0,-20.0,-3655.0,0.168,0.213,0.591,0.76
3110741,2742.0,4593.0,621.0,-1711.0,-32.0,-3695.0,0.198,0.19,0.586,0.763
3110754,3146.0,5233.0,427.0,-1642.0,-70.0,-3538.0,0.226,0.168,0.58,0.765
3110777,2486.0,2587.0,1071.0,-1430.0,107.0,-3076.0,0.249,0.147,0.574,0.766
3110790,1932.0,3413.0,907.0,-1118.0,34.0,-2960.0,0.271,0.129,0.57,0.765
3110813,1856.0,2603.0,1207.0,-973.0,147.0,-2548.0,0.289,0.111,0.566,0.763
3110826,820.0,2683.0,1607.0,-816.0,211.0,-2187.0,0.305,0.096,0.563,0.762
3110849,672.0,2581.0,2269.0,-608.0,179.0,-1800.0,0.317,0.084,0.561,0.76
3110862,402.0,2629.0,1941.0,-473.0,212.0,-1382.0,0.326,0.074,0.559,0.759
3110885,88.0,1913.0,1475.0,-421.0,191.0,-1080.0,0.333,0.065,0.558,0.758
3110903,-498.0,1439.0,1457.0,-346.0,201.0,-689.0,0.337,0.059,0.556,0.758
3110916,-494.0,909.0,2189.0,-7.0,157.0,-347.0,0.338,0.056,0.557,0.757
3110929,-446.0,2203.0,3109.0,367.0,60.0,9.0,0.338,0.057,0.56,0.755
3110952,-468.0,2371.0,2165.0,368.0,139.0,598.0,0.333,0.061,0.562,0.755
3110965,-762.0,1509.0,1239.0,290.0,99.0,1113.0,0.324,0.067,0.564,0.757
3110988,-408.0,2493.0,2413.0,587.0,-38.0,1428.0,0.314,0.077,0.567,0.758
3111001,-22.0,2561.0,2259.0,697.0,-14.0,1854.0,0.301,0.089,0.57,0.759
3111024,260.0,3331.0,1969.0,877.0,-56.0,2177.0,0.285,0.103,0.574,0.76
3111037,270.0,2987.0,1283.0,891.0,-72.0,2523.0,0.267,0.12,0.578,0.762
3111060,1256.0,4001.0,1637.0,1200.0,-134.0,2671.0,0.247,0.138,0.583,0.762
3111073,1818.0,4611.0,1841.0,1437.0,-25.0,2865.0,0.225,0.158,0.589,0.76
3111086,2796.0,7043.0,2273.0,1450.0,-86.0,2998.0,0.202,0.178,0.594,0.758
3111109,2648.0,5831.0,-67.0,1236.0,48.0,3481.0,0.175,0.2,0.597,0.757
3111122,3638.0,4803.0,325.0,1719.0,22.0,3517.0,0.147,0.222,0.602,0.753
3111145,4362.0,7367.0,1363.0,2246.0,-72.0,3128.0,0.121,0.244,0.61,0.744
3111158,4348.0,10169.0,1613.0,1841.0,-179.0,3138.0,0.096,0.265,0.615,0.736
3111181,4678.0,6791.0,-2287.0,929.0,-140.0,3831.0,0.068,0.289,0.612,0.733
3111194,5560.0,5953.0,-1061.0,1332.0,-213.0,3684.0,0.04,0.313,0.61,0.727
3111217,5808.0,7905.0,109.0,1864.0,-113.0,3271.0,0.013,0.333,0.613,0.716
3111230,6180.0,9205.0,-891.0,1662.0,20.0,3033.0,0.012,-0.351,-0.614,-0.707
3111243,6434.0,8851.0,-1585.0,1377.0,-80.0,3259.0,0.038,-0.37,-0.612,-0.698
3111266,6812.0,7393.0,-2073.0,1117.0,-72.0,3473.0,0.063,-0.39,-0.607,-0.69
3111279,7548.0,7055.0,-1349.0,1106.0,-22.0,3457.0,0.089,-0.409,-0.601,-0.681
3111302,7626.0,6803.0,-1321.0,1482.0,124.0,3284.0,0.116,-0.425,-0.597,-0.67
3111315,8256.0,9679.0,-1583.0,1386.0,-78.0,2978.0,0.14,-0.441,-0.594,-0.658
3111338,8480.0,6425.0,-2223.0,982.0,76.0,3194.0,0.164,-0.457,-0.586,-0.649
3111351,8544.0,5773.0,-2259.0,984.0,51.0,3069.0,0.186,-0.472,-0.579,-0.639
3111374,8970.0,7435.0,-1527.0,1102.0,37.0,2795.0,0.208,-0.485,-0.572,-0.628
3111387,9364.0,7587.0,-1699.0,991.0,-7.0,2653.0,0.228,-0.497,-0.566,-0.617
3111410,9266.0,6461.0,-1733.0,838.0,80.0,2454.0,0.246,-0.508,-0.559,-0.608
3111423,9088.0,4793.0,-2459.0,813.0,49.0,2502.0,0.264,-0.519,-0.551,-0.598
3111436,8856.0,6041.0,-2633.0,920.0,-14.0,2235.0,0.28,-0.528,-0.545,-0.587
3111459,8828.0,6225.0,-2441.0,615.0,-102.0,2194.0,0.295,-0.538,-0.538,-0.578
3111472,9490.0,6249.0,-1171.0,450.0,-174.0,2030.0,0.307,-0.548,-0.53,-0.569
3111495,8500.0,4507.0,-2253.0,430.0,100.0,1749.0,0.319,-0.555,-0.523,-0.563
3111508,8410.0,5117.0,-2131.0,576.0,143.0,1426.0,0.329,-0.56,-0.518,-0.556
3111531,8226.0,6171.0,-1019.0,454.0,60.0,1261.0,0.339,-0.565,-0.513,-0.551
3111544,8050.0,5577.0,-963.0,253.0,17.0,1188.0,0.346,-0.57,-0.508,-0.546
3111567,7566.0,5329.0,-1501.0,126.0,-98.0,1026.0,0.351,-0.575,-0.503,-0.541
3111580,8020.0,5019.0,-1621.0,16.0,-114.0,697.0,0.354,-0.579,-0.5,-0.538
3111593,7530.0,4917.0,-1487.0,39.0,-79.0,301.0,0.355,-0.581,-0.499,-0.537
3111616,7668.0,5329.0,-1531.0,5.0,-60.0,-120.0,0.354,-0.58,-0.499,-0.537
3111629,7568.0,5771.0,-1579.0,-37.0,-39.0,-432.0,0.352,-0.579,-0.502,-0.538
3111652,7840.0,6217.0,-1391.0,-221.0,-80.0,-702.0,0.346,-0.577,-0.504,-0.541
3111665,8080.0,5827.0,-1467.0,-344.0,-24.0,-964.0,0.339,-0.574,-0.508,-0.546
3111688,7994.0,5677.0,-1813.0,-401.0,-119.0,-1285.0,0.33,-0.57,-0.513,-0.551
3111701,8612.0,5219.0,-1905.0,-509.0,-76.0,-1636.0,0.318,-0.564,-0.519,-0.558
3111724,8824.0,6373.0,-2129.0,-466.0,-85.0,-2001.0,0.305,-0.556,-0.527,-0.566
3111737,9386.0,6535.0,-2235.0,-723.0,-90.0,-2267.0,0.289,-0.547,-0.535,-0.575
3111760,9508.0,5529.0,-2717.0,-912.0,-1.0,-2376.0,0.271,-0.538,-0.542,-0.586
3111773,9810.0,6053.0,-2763.0,-939.0,-72.0,-2628.0,0.252,-0.527,-0.55,-0.597
3111786,10042.0,6819.0,-2691.0,-1035.0,-37.0,-3038.0,0.229,-0.514,-0.559,-0.608
3111809,10592.0,6951.0,-2357.0,-999.0,7.0,-3372.0,0.206,-0.498,-0.57,-0.621
3111822,10488.0,8093.0,-2757.0,-1113.0,-73.0,-3659.0,0.179,-0.481,-0.58,-0.633
3111845,10476.0,7151.0,-2547.0,-1106.0,8.0,-3653.0,0.152,-0.463,-0.59,-0.644
3111858,10022.0,9243.0,-2711.0,-1165.0,-109.0,-3935.0,0.123,-0.443,-0.599,-0.655
3111881,10076.0,9015.0,-2545.0,-1482.0,-120.0,-4004.0,0.092,-0.423,-0.607,-0.667
3111894,9340.0,9511.0,-1991.0,-1717.0,-166.0,-4022.0,0.059,-0.402,-0.611,-0.679
3111917,8820.0,9339.0,-1935.0,-1871.0,-108.0,-3942.0,0.027,-0.381,-0.614,-0.691
3111930,7918.0,7971.0,-2065.0,-1744.0,36.0,-4003.0,0.005,0.357,0.617,0.701
3111953,6944.0,8019.0,-1133.0,-1653.0,66.0,-4208.0,0.037,0.332,0.619,0.71
3111966,5620.0,9193.0,-571.0,-1491.0,-34.0,-4230.0,0.069,0.307,0.622,0.717
3111979,5422.0,8197.0,99.0,-1825.0,-50.0,-4011.0,0.101,0.282,0.621,0.724
3112002,4190.0,7209.0,-299.0,-1938.0,-53.0,-3766.0,0.132,0.259,0.617,0.731
3112015,3760.0,7353.0,19.0,-1777.0,-232.0,-3890.0,0.163,0.236,0.614,0.735
3112038,3534.0,4995.0,575.0,-1854.0,-77.0,-3615.0,0.192,0.213,0.609,0.74
3112051,2302.0,6167.0,-91.0,-1759.0,-60.0,-3622.0,0.22,0.19,0.603,0.743
3112074,2354.0,4383.0,289.0,-1806.0,-174.0,-3237.0,0.246,0.169,0.596,0.746
3112087,1286.0,2293.0,899.0,-1435.0,-56.0,-2947.0,0.269,0.149,0.59,0.746
3112110,986.0,4139.0,2033.0,-1141.0,-221.0,-3090.0,0.293,0.131,0.586,0.744
3112123,556.0,3873.0,2561.0,-1309.0,-166.0,-2601.0,0.313,0.114,0.579,0.744
3112146,222.0,2593.0,1803.0,-1390.0,-144.0,-2107.0,0.33,0.1,0.571,0.745
3112159,54.0,1221.0,1083.0,-1199.0,-24.0,-1757.0,0.343,0.087,0.564,0.746
3112172,-314.0,2285.0,1479.0,-933.0,-38.0,-1509.0,0.355,0.076,0.559,0.746
3112195,194.0,1565.0,2383.0,-646.0,33.0,-1018.0,0.362,0.068,0.555,0.746
3112208,-230.0,2163.0,2323.0,-379.0,60.0,-620.0,0.366,0.063,0.553,0.746
3112231,-376.0,1037.0,1779.0,-222.0,97.0,-85.0,0.367,0.062,0.552,0.747
3112244,-664.0,759.0,1045.0,-96.0,120.0,288.0,0.364,0.062,0.551,0.748
3112267,-184.0,1621.0,1583.0,107.0,147.0,642.0,0.359,0.065,0.552,0.75
3112280,-320.0,2115.0,2543.0,257.0,105.0,1123.0,0.35,0.071,0.553,0.752
3112303,-34.0,2145.0,2815.0,491.0,75.0,1590.0,0.338,0.08,0.556,0.755
3112316,-572.0,1573.0,877.0,495.0,104.0,2022.0,0.323,0.092,0.558,0.759
3112329,296.0,1997.0,1103.0,746.0,-49.0,2294.0,0.307,0.106,0.561,0.761
3112352,530.0,3465.0,2031.0,1038.0,-149.0,2461.0,0.289,0.123,0.565,0.763
3112365,1356.0,4401.0,3141.0,1253.0,-192.0,2739.0,0.269,0.143,0.57,0.763
3112388,954.0,4669.0,727.0,988.0,-176.0,3073.0,0.247,0.163,0.572,0.765
3112401,1444.0,3183.0,-861.0,1036.0,-329.0,3518.0,0.222,0.187,0.573,0.766
3112424,2880.0,5571.0,1207.0,1470.0,-425.0,3220.0,0.199,0.21,0.577,0.764
3112437,3836.0,7751.0,1983.0,1514.0,-402.0,3113.0,0.176,0.233,0.58,0.76
3112460,3872.0,8729.0,527.0,1006.0,-420.0,3471.0,0.151,0.257,0.579,0.759
3112473,4738.0,5715.0,259.0,949.0,-256.0,3877.0,0.123,0.281,0.575,0.758
3112486,4650.0,8471.0,315.0,1502.0,-379.0,3558.0,0.096,0.305,0.576,0.753
3112509,5622.0,8925.0,1137.0,1677.0,-390.0,3365.0,0.07,0.327,0.577,0.745
3112532,5822.0,9059.0,-367.0,1273.0,-487.0,3188.0,0.046,0.348,0.575,0.738
3112545,6518.0,7335.0,-745.0,1203.0,-420.0,3328.0,0.022,0.37,0.572,0.732
3112558,7410.0,10569.0,-217.0,1377.0,-480.0,3454.0,0.004,-0.392,-0.569,-0.723
3112581,7556.0,7645.0,419.0,1407.0,-304.0,3494.0,0.031,-0.412,-0.566,-0.714
3112594,7134.0,8355.0,-897.0,1443.0,-407.0,3226.0,0.056,-0.431,-0.562,-0.703
3112617,7568.0,7551.0,-967.0,1170.0,-416.0,3219.0,0.079,-0.45,-0.557,-0.693
3112630,8268.0,8907.0,-877.0,1139.0,-495.0,3005.0,0.1,-0.468,-0.552,-0.683
3112653,8826.0,7065.0,-531.0,964.0,-383.0,2990.0,0.122,-0.485,-0.545,-0.673
3112666,8382.0,6311.0,-1749.0,1090.0,-294.0,2942.0,0.143,-0.501,-0.538,-0.663
3112679,8412.0,6287.0,-1115.0,1202.0,-249.0,2787.0,0.165,-0.515,-0.533,-0.651
3112702,8304.0,6715.0,-957.0,1173.0,-212.0,2480.0,0.184,-0.526,-0.528,-0.641
3112715,8888.0,7811.0,-355.0,918.0,-387.0,2251.0,0.2,-0.538,-0.523,-0.63
3112738,8682.0,6991.0,-1177.0,575.0,-424.0,2371.0,0.214,-0.551,-0.515,-0.621
3112751,8352.0,3941.0,-2331.0,510.0,-226.0,2497.0,0.23,-0.564,-0.505,-0.612
3112774,8682.0,5039.0,-1703.0,811.0,-193.0,2279.0,0.246,-0.574,-0.498,-0.602
3112787,8792.0,5739.0,-557.0,828.0,-208.0,2015.0,0.261,-0.583,-0.492,-0.592
3112810,8600.0,5465.0,7.0,761.0,-224.0,1826.0,0.274,-0.59,-0.486,-0.583
3112823,8864.0,5933.0,-871.0,643.0,-270.0,1838.0,0.286,-0.599,-0.48,-0.574
3112846,8990.0,5285.0,-1791.0,288.0,-152.0,1879.0,0.297,-0.607,-0.471,-0.567
3112859,9134.0,5597.0,-1561.0,256.0,-118.0,1706.0,0.306,-0.615,-0.463,-0.56
3112872,9302.0,4687.0,-1257.0,120.0,37.0,1344.0,0.314,-0.62,-0.456,-0.556
3112895,8834.0,4035.0,-1767.0,206.0,133.0,864.0,0.32,-0.623,-0.451,-0.553
3112913,9078.0,4961.0,-1673.0,94.0,173.0,231.0,0.323,-0.623,-0.45,-0.553
3112926,8772.0,4503.0,-1345.0,34.0,262.0,-225.0,0.323,-0.62,-0.45,-0.555
3112949,8830.0,5125.0,-971.0,2.0,227.0,-647.0,0.32,-0.617,-0.453,-0.559
3112962,8684.0,5183.0,-1117.0,-148.0,281.0,-949.0,0.315,-0.612,-0.457,-0.564
3112985,8654.0,5725.0,-1253.0,-310.0,224.0,-1227.0,0.308,-0.606,-0.461,-0.57
3112998,8794.0,5235.0,-1725.0,-533.0,262.0,-1458.0,0.298,-0.6,-0.466,-0.578
3113021,9098.0,5063.0,-2241.0,-555.0,280.0,-1754.0,0.287,-0.593,-0.472,-0.587
3113034,9402.0,5247.0,-2527.0,-606.0,319.0,-2194.0,0.273,-0.583,-0.479,-0.597
3113047,9746.0,6051.0,-2133.0,-573.0,245.0,-2650.0,0.256,-0.571,-0.49,-0.607
3113070,10884.0,5869.0,-2117.0,-660.0,362.0,-3112.0,0.236,-0.556,-0.502,-0.619
3113083,10714.0,6753.0,-2267.0,-621.0,590.0,-3495.0,0.215,-0.537,-0.515,-0.632
3113106,11018.0,7587.0,-2027.0,-779.0,547.0,-3777.0,0.192,-0.517,-0.528,-0.646
3113119,10832.0,8127.0,-1561.0,-1200.0,469.0,-3942.0,0.165,-0.497,-0.538,-0.661
3113142,10404.0,6939.0,-1689.0,-1443.0,566.0,-3833.0,0.137,-0.476,-0.546,-0.676
3113155,9050.0,7541.0,-1767.0,-1280.0,617.0,-3950.0,0.11,-0.453,-0.554,-0.69
3113178,8712.0,8861.0,-1061.0,-1108.0,451.0,-4243.0,0.08,-0.429,-0.564,-0.701
3113191,7700.0,8537.0,-1387.0,-1204.0,366.0,-4229.0,0.05,-0.405,-0.573,-0.711
3113214,7044.0,7475.0,-793.0,-1272.0,446.0,-4078.0,0.021,-0.38,-0.579,-0.721
3113227,5624.0,8707.0,-411.0,-1168.0,157.0,-4242.0,0.011,0.356,0.586,0.728
3113250,5492.0,8479.0,-191.0,-1410.0,-26.0,-4204.0,0.044,0.333,0.59,0.735
3113263,5410.0,7913.0,129.0,-1565.0,-98.0,-3881.0,0.076,0.311,0.591,0.741
3113276,4724.0,7905.0,323.0,-1721.0,-59.0,-3630.0,0.106,0.29,0.589,0.747
3113299,4120.0,7161.0,-791.0,-1588.0,-108.0,-3542.0,0.135,0.27,0.587,0.751
3113312,3582.0,5033.0,753.0,-1461.0,-8.0,-3563.0,0.163,0.248,0.586,0.754
3113335,2334.0,6561.0,-823.0,-1492.0,-123.0,-3808.0,0.193,0.226,0.583,0.756
3113348,3432.0,5363.0,743.0,-1652.0,-126.0,-3555.0,0.222,0.204,0.579,0.758
3113371,1986.0,4585.0,779.0,-1617.0,-16.0,-3297.0,0.248,0.183,0.573,0.759
3113384,1914.0,3787.0,1283.0,-1370.0,37.0,-3045.0,0.272,0.163,0.568,0.759
3113397,1214.0,4065.0,1707.0,-1233.0,-7.0,-2842.0,0.293,0.145,0.564,0.758
3113420,872.0,3833.0,1785.0,-1273.0,-40.0,-2573.0,0.313,0.128,0.558,0.758
3113433,1122.0,2973.0,817.0,-1250.0,-58.0,-2152.0,0.33,0.113,0.551,0.758
3113456,498.0,2525.0,1501.0,-1098.0,-26.0,-1877.0,0.344,0.1,0.545,0.758
3113469,126.0,1967.0,2297.0,-867.0,18.0,-1555.0,0.356,0.089,0.541,0.757
3113492,-68.0,2655.0,2569.0,-738.0,10.0,-1199.0,0.365,0.081,0.536,0.757
3113505,-404.0,1781.0,2173.0,-636.0,31.0,-669.0,0.37,0.075,0.532,0.758
3113528,-628.0,1829.0,2485.0,-286.0,1.0,-383.0,0.373,0.072,0.531,0.758
3113541,-642.0,1883.0,2529.0,-95.0,35.0,-21.0,0.373,0.072,0.53,0.758
3113564,-672.0,2101.0,2597.0,-3.0,49.0,370.0,0.37,0.073,0.53,0.759
3113577,-834.0,2473.0,2647.0,154.0,18.0,787.0,0.365,0.078,0.53,0.761
3113590,-454.0,2317.0,2321.0,416.0,-25.0,1203.0,0.356,0.086,0.532,0.763
3113613,-500.0,2383.0,2175.0,632.0,-17.0,1538.0,0.345,0.096,0.535,0.765
3113626,-356.0,2619.0,2195.0,728.0,-15.0,1844.0,0.331,0.107,0.539,0.767
3113649,40.0,3091.0,1807.0,917.0,-103.0,2156.0,0.315,0.122,0.543,0.769
3113662,400.0,2895.0,2465.0,1054.0,-59.0,2480.0,0.297,0.138,0.547,0.77
3113685,828.0,3005.0,2101.0,1393.0,-77.0,2754.0,0.276,0.157,0.553,0.77
3113698,1112.0,3303.0,87.0,1459.0,-197.0,2981.0,0.253,0.178,0.558,0.77
3113721,2034.0,5891.0,673.0,1469.0,-291.0,2975.0,0.231,0.199,0.563,0.768
3113734,2580.0,6107.0,2285.0,1195.0,-283.0,3345.0,0.206,0.221,0.564,0.768
3113757,2870.0,5357.0,1379.0,1209.0,-232.0,3701.0,0.179,0.244,0.564,0.768
3113770,3612.0,6339.0,273.0,1418.0,-308.0,3588.0,0.151,0.268,0.565,0.765
3113783,4510.0,6475.0,409.0,1557.0,-212.0,3512.0,0.123,0.291,0.567,0.761
3113806,4774.0,7815.0,363.0,1639.0,-190.0,3295.0,0.097,0.311,0.569,0.755
3113819,5282.0,7859.0,263.0,1545.0,-174.0,3373.0,0.069,0.332,0.569,0.749
3113842,6142.0,6241.0,33.0,1642.0,-24.0,3581.0,0.039,0.353,0.569,0.742
3113855,5950.0,9135.0,-619.0,1927.0,-239.0,3276.0,0.012,0.372,0.571,0.731
3113878,7868.0,9609.0,683.0,1568.0,-289.0,3167.0,0.014,-0.391,-0.57,-0.722
3113891,7292.0,7899.0,-407.0,1566.0,-153.0,3482.0,0.042,-0.411,-0.568,-0.712
3113914,7696.0,7651.0,-1963.0,1441.0,-264.0,3416.0,0.069,-0.43,-0.564,-0.702
3113927,8742.0,6449.0,-951.0,1421.0,-180.0,3245.0,0.094,-0.447,-0.56,-0.691
3113950,8504.0,8157.0,-1475.0,1639.0,-172.0,2939.0,0.119,-0.462,-0.558,-0.679
3113963,9346.0,9913.0,-1089.0,1362.0,-369.0,2751.0,0.14,-0.477,-0.555,-0.667
3113986,9226.0,5577.0,-1175.0,1129.0,-49.0,3012.0,0.164,-0.491,-0.548,-0.657
3113999,9040.0,6303.0,-1917.0,1311.0,-101.0,2784.0,0.186,-0.504,-0.543,-0.645
3114012,8904.0,5909.0,-1661.0,1281.0,-32.0,2609.0,0.207,-0.515,-0.538,-0.634
3114035,8998.0,6237.0,-1345.0,1384.0,-165.0,2390.0,0.227,-0.526,-0.535,-0.621
3114048,9510.0,6633.0,-1415.0,1077.0,-311.0,2270.0,0.244,-0.537,-0.531,-0.609
3114071,10310.0,6473.0,-1387.0,647.0,-348.0,2212.0,0.258,-0.548,-0.524,-0.599
3114084,9896.0,4499.0,-2211.0,521.0,-19.0,2263.0,0.273,-0.558,-0.515,-0.591
3114107,9818.0,3243.0,-2325.0,649.0,106.0,2118.0,0.288,-0.566,-0.507,-0.583
3114120,10056.0,4501.0,-1493.0,842.0,107.0,1876.0,0.303,-0.572,-0.501,-0.574
3114133,9514.0,5121.0,-1075.0,927.0,112.0,1647.0,0.317,-0.577,-0.497,-0.566
3114156,9294.0,5345.0,-911.0,755.0,44.0,1464.0,0.329,-0.581,-0.492,-0.558
3114169,9058.0,5023.0,-783.0,494.0,-41.0,1359.0,0.338,-0.587,-0.487,-0.552
3114192,8972.0,4641.0,-1225.0,229.0,-75.0,1270.0,0.345,-0.592,-0.482,-0.546
3114205,8562.0,3627.0,-1611.0,113.0,2.0,1089.0,0.351,-0.597,-0.476,-0.542
3114228,8594.0,3583.0,-1905.0,99.0,84.0,653.0,0.355,-0.599,-0.472,-0.54
3114241,8330.0,3703.0,-1929.0,162.0,136.0,94.0,0.357,-0.598,-0.472,-0.54
3114264,8206.0,4407.0,-1251.0,147.0,155.0,-391.0,0.357,-0.596,-0.474,-0.541
3114277,8274.0,4759.0,-1223.0,11.0,171.0,-647.0,0.354,-0.592,-0.477,-0.544
3114300,8062.0,3899.0,-1689.0,29.0,210.0,-900.0,0.351,-0.587,-0.482,-0.548
3114313,7808.0,5123.0,-1779.0,110.0,191.0,-1230.0,0.346,-0.58,-0.488,-0.553
3114326,8504.0,5327.0,-1567.0,12.0,245.0,-1563.0,0.339,-0.572,-0.496,-0.559
3114349,8232.0,5669.0,-1203.0,-112.0,285.0,-1831.0,0.33,-0.562,-0.504,-0.567
3114362,7898.0,5501.0,-1259.0,-9.0,259.0,-1974.0,0.32,-0.552,-0.513,-0.574
3114385,7866.0,7165.0,-1703.0,-300.0,21.0,-2273.0,0.306,-0.542,-0.523,-0.582
3114398,8358.0,7209.0,-1515.0,-716.0,-149.0,-2478.0,0.289,-0.532,-0.532,-0.592
3114421,8288.0,6571.0,-1807.0,-961.0,-189.0,-2575.0,0.268,-0.523,-0.54,-0.603
3114434,7926.0,6419.0,-1581.0,-944.0,-225.0,-2706.0,0.247,-0.513,-0.548,-0.613
3114457,8416.0,7491.0,-1891.0,-1097.0,-330.0,-3061.0,0.223,-0.501,-0.557,-0.623
3114470,8162.0,7273.0,-1859.0,-1155.0,-294.0,-3182.0,0.197,-0.489,-0.565,-0.634
3114483,8504.0,7965.0,-2065.0,-1201.0,-330.0,-3356.0,0.17,-0.475,-0.574,-0.645
3114506,8406.0,7937.0,-2031.0,-1159.0,-254.0,-3422.0,0.143,-0.46,-0.582,-0.655
3114519,8214.0,8763.0,-1759.0,-1260.0,-267.0,-3500.0,0.115,-0.444,-0.59,-0.665
3114542,7870.0,8705.0,-1917.0,-1218.0,-230.0,-3591.0,0.087,-0.426,-0.597,-0.674
3114555,7642.0,8599.0,-1695.0,-1215.0,-227.0,-3737.0,0.057,-0.407,-0.604,-0.682
3114578,6968.0,9897.0,-1141.0,-1412.0,-297.0,-3815.0,0.026,-0.388,-0.609,-0.691
3114591,6990.0,8327.0,-1433.0,-1518.0,-238.0,-3757.0,0.005,0.368,0.613,0.699
3114614,5922.0,8545.0,-1137.0,-1444.0,-205.0,-3746.0,0.035,0.348,0.616,0.706
3114627,5564.0,9107.0,-649.0,-1620.0,-290.0,-3937.0,0.067,0.326,0.618,0.712
3114650,5288.0,8141.0,-589.0,-1726.0,-215.0,-3750.0,0.098,0.304,0.617,0.719
3114663,4632.0,7989.0,-449.0,-1737.0,-223.0,-3570.0,0.128,0.283,0.615,0.724
3114686,4008.0,7365.0,-441.0,-1613.0,-127.0,-3481.0,0.156,0.263,0.613,0.729
3114699,3688.0,7443.0,293.0,-1614.0,-193.0,-3535.0,0.184,0.241,0.61,0.732
3114712,3682.0,6555.0,827.0,-1709.0,-98.0,-3353.0,0.211,0.22,0.605,0.735
3114735,2246.0,5155.0,405.0,-1547.0,41.0,-3128.0,0.235,0.199,0.601,0.738
3114748,2236.0,6241.0,937.0,-1390.0,-60.0,-3224.0,0.26,0.178,0.597,0.738
3114771,1586.0,5359.0,1043.0,-1397.0,91.0,-3041.0,0.282,0.157,0.592,0.738
3114784,1150.0,4551.0,877.0,-1294.0,150.0,-2727.0,0.302,0.138,0.587,0.738
3114807,636.0,4127.0,1147.0,-1172.0,214.0,-2439.0,0.319,0.12,0.583,0.738
3114820,138.0,3693.0,1801.0,-1010.0,244.0,-2158.0,0.333,0.103,0.579,0.737
3114843,-212.0,3939.0,1543.0,-983.0,188.0,-1796.0,0.345,0.089,0.574,0.737
3114856,-724.0,2341.0,1183.0,-976.0,321.0,-1348.0,0.354,0.077,0.57,0.738
3114869,-440.0,2557.0,1487.0,-773.0,297.0,-1105.0,0.36,0.066,0.566,0.739
3114892,-1038.0,2541.0,2173.0,-646.0,353.0,-916.0,0.365,0.057,0.563,0.739
3114905,-1124.0,2281.0,2241.0,-535.0,323.0,-524.0,0.367,0.05,0.561,0.74
3114923,-1482.0,2633.0,2107.0,-293.0,222.0,-150.0,0.367,0.047,0.56,0.741
3114946,-1386.0,1899.0,1799.0,-220.0,256.0,275.0,0.364,0.046,0.559,0.744
3114959,-1566.0,2153.0,1661.0,-18.0,238.0,618.0,0.359,0.048,0.559,0.746
3114982,-1372.0,2953.0,2009.0,167.0,158.0,954.0,0.351,0.052,0.561,0.748
3114995,-1332.0,2745.0,2211.0,295.0,79.0,1414.0,0.341,0.06,0.562,0.751
3115018,-1094.0,3505.0,2185.0,452.0,-84.0,1710.0,0.329,0.071,0.564,0.754
3115031,-876.0,3159.0,1631.0,530.0,-87.0,2108.0,0.315,0.085,0.566,0.757
3115044,-480.0,4179.0,1949.0,717.0,-205.0,2305.0,0.299,0.101,0.568,0.76
3115067,-226.0,4169.0,2355.0,884.0,-262.0,2612.0,0.281,0.119,0.571,0.762
3115080,-28.0,4185.0,2063.0,1115.0,-386.0,2830.0,0.262,0.14,0.574,0.763
3115103,424.0,4403.0,2017.0,1389.0,-472.0,2934.0,0.242,0.163,0.579,0.761
3115116,906.0,6301.0,2151.0,1499.0,-649.0,2946.0,0.222,0.187,0.583,0.759
3115139,1756.0,6593.0,1815.0,1298.0,-687.0,3172.0,0.201,0.212,0.585,0.756
3115152,2154.0,6783.0,379.0,1190.0,-753.0,3307.0,0.18,0.237,0.585,0.754
3115175,3010.0,6549.0,139.0,1171.0,-762.0,3333.0,0.158,0.263,0.584,0.751
3115188,3798.0,7543.0,249.0,1148.0,-813.0,3397.0,0.136,0.289,0.582,0.747
3115211,4186.0,7197.0,611.0,1389.0,-748.0,3414.0,0.112,0.315,0.581,0.742
3115224,5224.0,7623.0,751.0,1426.0,-751.0,3098.0,0.091,0.339,0.581,0.734
3115237,4976.0,7087.0,-563.0,1343.0,-588.0,3266.0,0.067,0.362,0.579,0.728
3115260,5764.0,7661.0,-827.0,1156.0,-604.0,3241.0,0.045,0.384,0.575,0.721
3115273,5680.0,6635.0,-669.0,1629.0,-444.0,3184.0,0.02,0.405,0.574,0.711
3115296,6472.0,8213.0,-133.0,1700.0,-443.0,2906.0,0.003,-0.424,-0.574,-0.701
3115309,6494.0,9327.0,-639.0,1421.0,-511.0,3028.0,0.026,-0.443,-0.571,-0.691
3115332,7788.0,6663.0,-1189.0,400.0,-401.0,3269.0,0.046,-0.463,-0.56,-0.686
3115345,6818.0,4797.0,-1913.0,1201.0,-158.0,3364.0,0.072,-0.481,-0.553,-0.677
3115368,7950.0,6953.0,-1781.0,1748.0,-163.0,2702.0,0.096,-0.495,-0.551,-0.665
3115381,8602.0,9295.0,-1099.0,1416.0,-402.0,2286.0,0.115,-0.508,-0.55,-0.653
3115394,8828.0,7245.0,-1569.0,747.0,-266.0,2371.0,0.131,-0.521,-0.543,-0.646
3115417,9420.0,4927.0,-2697.0,741.0,20.0,2843.0,0.152,-0.534,-0.533,-0.638
3115430,8952.0,5541.0,-2535.0,1135.0,112.0,2671.0,0.174,-0.545,-0.526,-0.629
3115453,9378.0,5807.0,-1819.0,1301.0,140.0,2300.0,0.194,-0.553,-0.522,-0.619
3115466,9306.0,6497.0,-1713.0,1188.0,48.0,1966.0,0.212,-0.561,-0.518,-0.61
3115489,9392.0,7225.0,-2247.0,860.0,-161.0,1765.0,0.226,-0.568,-0.514,-0.602
3115502,9506.0,5801.0,-1937.0,513.0,-168.0,2042.0,0.239,-0.578,-0.506,-0.594
3115525,9348.0,4679.0,-1435.0,248.0,-183.0,2234.0,0.252,-0.589,-0.496,-0.587
3115538,8830.0,4239.0,-1353.0,202.0,-194.0,2195.0,0.264,-0.6,-0.485,-0.579
3115561,9064.0,5471.0,-1459.0,61.0,-136.0,1789.0,0.273,-0.609,-0.475,-0.574
3115574,9204.0,4803.0,-1975.0,-33.0,-180.0,1267.0,0.279,-0.615,-0.468,-0.57
3115587,9168.0,4537.0,-2045.0,62.0,-66.0,1109.0,0.284,-0.621,-0.462,-0.566
3115610,9094.0,4325.0,-1987.0,-9.0,85.0,859.0,0.289,-0.624,-0.457,-0.564
3115623,9044.0,4729.0,-1801.0,-26.0,133.0,498.0,0.292,-0.626,-0.453,-0.564
3115646,9084.0,4509.0,-1771.0,-94.0,235.0,92.0,0.293,-0.625,-0.451,-0.565
3115659,8594.0,4685.0,-1601.0,-56.0,252.0,-450.0,0.291,-0.622,-0.453,-0.568
3115682,8638.0,5621.0,-1301.0,-76.0,200.0,-850.0,0.287,-0.618,-0.457,-0.572
3115695,8420.0,6021.0,-1869.0,-252.0,190.0,-1159.0,0.28,-0.613,-0.462,-0.577
3115718,8304.0,5965.0,-1933.0,-480.0,151.0,-1330.0,0.271,-0.607,-0.466,-0.584
3115731,9098.0,6237.0,-1899.0,-642.0,161.0,-1599.0,0.259,-0.601,-0.471,-0.591
3115754,8868.0,6039.0,-2187.0,-683.0,221.0,-1911.0,0.246,-0.593,-0.478,-0.6
3115767,9150.0,7203.0,-2369.0,-729.0,147.0,-2287.0,0.23,-0.583,-0.486,-0.609
3115780,9674.0,6443.0,-1531.0,-985.0,215.0,-2594.0,0.21,-0.572,-0.494,-0.62
3115803,9550.0,6795.0,-1985.0,-976.0,225.0,-2863.0,0.19,-0.56,-0.503,-0.631
3115816,10246.0,8155.0,-1937.0,-1126.0,115.0,-3190.0,0.166,-0.546,-0.513,-0.642
3115839,10140.0,7357.0,-1389.0,-1261.0,237.0,-3305.0,0.141,-0.53,-0.521,-0.654
3115852,9692.0,7503.0,-1575.0,-1230.0,213.0,-3286.0,0.116,-0.514,-0.53,-0.665
3115875,9530.0,8071.0,-1409.0,-1397.0,258.0,-3453.0,0.089,-0.496,-0.537,-0.676
3115888,8934.0,7433.0,-1285.0,-1427.0,410.0,-3604.0,0.062,-0.477,-0.544,-0.688
3115911,7980.0,7267.0,-1617.0,-1269.0,599.0,-3757.0,0.035,-0.454,-0.552,-0.698
3115924,7276.0,7847.0,-899.0,-1281.0,701.0,-3926.0,0.008,-0.429,-0.56,-0.709
3115937,6334.0,8403.0,-947.0,-1347.0,703.0,-3976.0,0.02,0.403,0.567,0.718
3115960,6358.0,8015.0,-259.0,-1531.0,651.0,-3991.0,0.048,0.377,0.571,0.728
3115983,5898.0,6909.0,21.0,-1436.0,800.0,-3832.0,0.075,0.35,0.575,0.736
3115996,4474.0,6949.0,739.0,-1299.0,794.0,-3805.0,0.1,0.323,0.579,0.742
3116009,3648.0,7393.0,523.0,-1240.0,558.0,-3892.0,0.127,0.297,0.582,0.746
3116032,3694.0,6993.0,1083.0,-1575.0,517.0,-3684.0,0.154,0.272,0.581,0.751
3116045,3190.0,6261.0,1143.0,-1630.0,639.0,-3375.0,0.178,0.246,0.579,0.757
3116068,2344.0,4201.0,1371.0,-1395.0,784.0,-3163.0,0.199,0.221,0.577,0.76
3116081,1822.0,4429.0,1755.0,-1096.0,537.0,-3132.0,0.22,0.198,0.577,0.761
3116104,1046.0,6087.0,1475.0,-1247.0,404.0,-3099.0,0.242,0.176,0.574,0.762
3116117,1824.0,3303.0,1845.0,-1366.0,645.0,-2685.0,0.26,0.154,0.57,0.764
3116140,-108.0,1683.0,1703.0,-861.0,706.0,-2469.0,0.275,0.134,0.569,0.763
3116153,-38.0,4321.0,1619.0,-554.0,345.0,-2456.0,0.291,0.117,0.569,0.76
3116166,610.0,4079.0,2035.0,-821.0,419.0,-1996.0,0.303,0.101,0.566,0.76
3116189,-226.0,3047.0,2315.0,-797.0,380.0,-1525.0,0.313,0.088,0.563,0.76
3116202,-406.0,2861.0,2273.0,-534.0,310.0,-1304.0,0.321,0.077,0.561,0.759
3116225,-540.0,3201.0,2181.0,-388.0,222.0,-976.0,0.327,0.07,0.56,0.758
3116238,-766.0,3135.0,1737.0,-515.0,219.0,-546.0,0.33,0.064,0.557,0.759
3116261,-1140.0,2063.0,1467.0,-464.0,288.0,-162.0,0.33,0.06,0.555,0.761
3116274,-1072.0,2681.0,2071.0,45.0,127.0,94.0,0.329,0.06,0.555,0.762
3116297,-548.0,3475.0,2745.0,145.0,143.0,541.0,0.324,0.062,0.556,0.763
3116310,-958.0,3697.0,2235.0,153.0,64.0,1032.0,0.316,0.067,0.557,0.765
3116323,-818.0,2837.0,1691.0,154.0,62.0,1458.0,0.306,0.075,0.557,0.768
3116346,-710.0,2851.0,1683.0,349.0,-16.0,1726.0,0.293,0.085,0.558,0.771
3116359,-534.0,2801.0,2039.0,623.0,-46.0,2007.0,0.279,0.098,0.561,0.773
3116382,-128.0,3673.0,2379.0,849.0,-153.0,2216.0,0.263,0.113,0.564,0.774
3116395,-246.0,4543.0,1511.0,777.0,-231.0,2524.0,0.246,0.13,0.567,0.776
3116418,480.0,3597.0,1455.0,531.0,-173.0,2926.0,0.225,0.149,0.566,0.779
3116431,746.0,5203.0,1959.0,895.0,-377.0,3088.0,0.203,0.17,0.567,0.78
3116454,1618.0,4231.0,1377.0,1279.0,-273.0,3232.0,0.179,0.191,0.571,0.778
3116467,1514.0,5457.0,759.0,1504.0,-346.0,3200.0,0.156,0.214,0.575,0.774
3116480,2296.0,7639.0,1207.0,861.0,-560.0,3294.0,0.133,0.237,0.573,0.773
3116503,3878.0,6963.0,1813.0,574.0,-505.0,3445.0,0.11,0.26,0.569,0.773
3116516,4624.0,5407.0,645.0,1076.0,-269.0,3884.0,0.081,0.284,0.566,0.77
3116539,3484.0,5505.0,-393.0,1421.0,-360.0,3759.0,0.052,0.307,0.566,0.763
3116552,5884.0,8409.0,1241.0,1065.0,-647.0,3365.0,0.029,0.33,0.563,0.757
3116575,6544.0,8269.0,1727.0,1064.0,-673.0,3193.0,0.006,0.352,0.56,0.75
3116588,7174.0,7041.0,329.0,1559.0,-573.0,3320.0,0.019,-0.373,-0.559,-0.74
3116611,7244.0,6885.0,-851.0,1810.0,-624.0,3420.0,0.045,-0.395,-0.56,-0.727
3116624,7972.0,9435.0,-551.0,1260.0,-881.0,3268.0,0.067,-0.418,-0.556,-0.715
3116647,11178.0,8683.0,613.0,495.0,-795.0,2884.0,0.084,-0.438,-0.548,-0.708
3116660,8766.0,7821.0,-1325.0,718.0,-797.0,3187.0,0.104,-0.459,-0.54,-0.698
3116673,9258.0,5945.0,-1647.0,1029.0,-443.0,3383.0,0.128,-0.477,-0.533,-0.687
3116696,8812.0,5495.0,-2437.0,1397.0,-252.0,3077.0,0.152,-0.492,-0.528,-0.675
3116709,9090.0,8547.0,-1129.0,1552.0,-405.0,2665.0,0.174,-0.506,-0.526,-0.661
3116732,9994.0,7069.0,493.0,1040.0,-392.0,2482.0,0.192,-0.519,-0.521,-0.65
3116745,9542.0,6749.0,-473.0,849.0,-364.0,2421.0,0.209,-0.531,-0.515,-0.64
3116768,8794.0,5969.0,-1631.0,930.0,-357.0,2624.0,0.228,-0.544,-0.508,-0.628
3116781,9060.0,4345.0,-1917.0,818.0,-176.0,2582.0,0.246,-0.555,-0.499,-0.618
3116804,8884.0,5481.0,-1103.0,878.0,-207.0,2138.0,0.262,-0.565,-0.494,-0.607
3116817,8924.0,5989.0,-487.0,669.0,-229.0,1815.0,0.274,-0.573,-0.488,-0.599
3116840,8754.0,4933.0,-917.0,553.0,-165.0,1839.0,0.286,-0.581,-0.482,-0.591
3116853,8304.0,4547.0,-1481.0,593.0,-104.0,1995.0,0.3,-0.589,-0.474,-0.582
3116866,8216.0,4453.0,-1309.0,543.0,-109.0,2169.0,0.314,-0.598,-0.465,-0.573
3116889,8094.0,4123.0,-905.0,405.0,-84.0,2092.0,0.327,-0.606,-0.456,-0.564
3116902,8426.0,3557.0,-1127.0,331.0,-32.0,1883.0,0.338,-0.613,-0.447,-0.557
3116930,8382.0,3237.0,-1447.0,365.0,38.0,1636.0,0.349,-0.619,-0.439,-0.55
3116943,8360.0,3241.0,-1447.0,413.0,88.0,1450.0,0.359,-0.623,-0.432,-0.544
3116956,8966.0,3117.0,-1387.0,329.0,143.0,1237.0,0.368,-0.626,-0.426,-0.54
3116979,8774.0,3127.0,-1863.0,131.0,352.0,901.0,0.374,-0.628,-0.42,-0.538
3116992,8846.0,2529.0,-1089.0,160.0,335.0,532.0,0.379,-0.628,-0.416,-0.538
3117015,8870.0,2643.0,-1023.0,112.0,345.0,222.0,0.382,-0.626,-0.414,-0.539
3117028,8868.0,3231.0,-711.0,0.0,251.0,-192.0,0.382,-0.625,-0.414,-0.541
3117041,8974.0,2599.0,-847.0,-136.0,271.0,-421.0,0.38,-0.622,-0.415,-0.544
3117064,8550.0,2947.0,-903.0,-89.0,181.0,-725.0,0.376,-0.619,-0.418,-0.548
3117077,9000.0,3455.0,-981.0,-213.0,186.0,-1063.0,0.37,-0.615,-0.422,-0.554
3117100,9006.0,3143.0,-1383.0,-256.0,269.0,-1334.0,0.363,-0.609,-0.428,-0.561
3117113,9142.0,3157.0,-1555.0,-216.0,391.0,-1634.0,0.355,-0.601,-0.434,-0.569
3117136,9164.0,3193.0,-1421.0,-159.0,473.0,-1996.0,0.345,-0.591,-0.443,-0.579
3117149,9256.0,3919.0,-1609.0,-3.0,542.0,-2552.0,0.333,-0.577,-0.455,-0.59
3117172,9592.0,5207.0,-1727.0,-19.0,456.0,-3004.0,0.319,-0.562,-0.47,-0.602
3117185,10342.0,5399.0,-1207.0,-24.0,270.0,-3298.0,0.301,-0.546,-0.486,-0.613
3117208,10794.0,6645.0,-881.0,-364.0,350.0,-3529.0,0.281,-0.528,-0.501,-0.626
3117221,10932.0,7389.0,-787.0,-554.0,280.0,-3737.0,0.257,-0.51,-0.515,-0.639
3117244,10668.0,6147.0,-1643.0,-669.0,435.0,-3747.0,0.234,-0.491,-0.527,-0.653
3117257,10038.0,7615.0,-987.0,-752.0,354.0,-3827.0,0.209,-0.471,-0.539,-0.666
3117270,9538.0,7503.0,-727.0,-886.0,448.0,-4031.0,0.182,-0.45,-0.55,-0.679
3117293,8818.0,7179.0,-491.0,-691.0,495.0,-4091.0,0.156,-0.426,-0.562,-0.691
3117306,8262.0,8231.0,-1085.0,-705.0,431.0,-4140.0,0.129,-0.402,-0.573,-0.702
3117329,8550.0,7687.0,-155.0,-980.0,488.0,-4178.0,0.1,-0.378,-0.581,-0.714
3117342,6882.0,7307.0,199.0,-1181.0,505.0,-4000.0,0.073,-0.353,-0.587,-0.725
3117365,6214.0,8079.0,289.0,-1173.0,430.0,-4046.0,0.044,-0.329,-0.591,-0.735
3117378,6110.0,7375.0,453.0,-1032.0,522.0,-4102.0,0.016,-0.303,-0.596,-0.743
3117391,5346.0,8115.0,423.0,-1015.0,349.0,-4046.0,0.013,0.277,0.6,0.75
3117414,4836.0,7685.0,951.0,-1212.0,350.0,-3841.0,0.041,0.253,0.601,0.757
3117427,4830.0,7465.0,1497.0,-1367.0,312.0,-3731.0,0.068,0.229,0.6,0.763
3117450,4358.0,6935.0,1275.0,-1420.0,393.0,-3444.0,0.093,0.206,0.597,0.769
3117463,2520.0,5363.0,795.0,-1185.0,423.0,-3198.0,0.116,0.184,0.595,0.774
3117486,2890.0,5937.0,1035.0,-909.0,325.0,-3245.0,0.138,0.163,0.594,0.775
3117499,2722.0,6551.0,2273.0,-869.0,195.0,-3157.0,0.161,0.143,0.593,0.776
3117522,3066.0,6907.0,1225.0,-1258.0,161.0,-2918.0,0.182,0.124,0.587,0.779
3117535,1886.0,4227.0,151.0,-1368.0,366.0,-2664.0,0.201,0.105,0.581,0.782
3117558,2086.0,3399.0,943.0,-946.0,319.0,-2523.0,0.219,0.087,0.577,0.782
3117571,926.0,4023.0,1297.0,-709.0,300.0,-2472.0,0.235,0.07,0.574,0.781
3117594,820.0,4037.0,1621.0,-717.0,288.0,-2214.0,0.25,0.055,0.571,0.78
3117607,290.0,4227.0,2077.0,-824.0,262.0,-1867.0,0.263,0.041,0.566,0.78
3117620,-462.0,2737.0,1639.0,-783.0,394.0,-1512.0,0.272,0.028,0.562,0.781
3117643,-882.0,2651.0,1841.0,-463.0,235.0,-1216.0,0.28,0.019,0.559,0.78
3117656,-1084.0,3007.0,2037.0,-411.0,206.0,-905.0,0.286,0.012,0.557,0.78
3117679,-1570.0,2339.0,1989.0,-577.0,378.0,-504.0,0.287,0.005,0.554,0.781
3117692,-2066.0,1835.0,2065.0,-378.0,375.0,-116.0,0.286,0.001,0.552,0.783
3117715,-2094.0,1937.0,2523.0,-42.0,258.0,221.0,0.284,0.0,0.552,0.784
3117728,-1960.0,2285.0,1997.0,127.0,228.0,579.0,0.278,0.002,0.554,0.785
3117751,-2318.0,2021.0,1111.0,-51.0,238.0,1016.0,0.27,0.006,0.554,0.788
3117764,-2188.0,2273.0,2157.0,-22.0,114.0,1401.0,0.259,0.012,0.554,0.791
3117777,-1486.0,2533.0,3309.0,307.0,-53.0,1660.0,0.247,0.022,0.556,0.793
3117800,-1158.0,2755.0,3157.0,454.0,5.0,1983.0,0.233,0.034,0.559,0.795
3117813,-1034.0,3527.0,2743.0,460.0,-62.0,2305.0,0.216,0.047,0.561,0.798
3117836,-368.0,3537.0,1917.0,513.0,-103.0,2596.0,0.197,0.063,0.563,0.8
3117849,124.0,3053.0,2325.0,1112.0,-158.0,2898.0,0.176,0.082,0.569,0.799
3117872,468.0,4649.0,2619.0,1505.0,-171.0,2855.0,0.155,0.101,0.578,0.795
3117885,1394.0,5635.0,2815.0,1451.0,-263.0,2871.0,0.134,0.121,0.585,0.791
3117908,2164.0,5495.0,1883.0,1275.0,-203.0,3288.0,0.109,0.142,0.59,0.787
3117921,2660.0,4763.0,407.0,1596.0,-159.0,3567.0,0.082,0.165,0.597,0.781
3117944,3128.0,6979.0,211.0,1601.0,-253.0,3412.0,0.056,0.187,0.603,0.774
3117957,4012.0,7877.0,1225.0,1113.0,-331.0,3405.0,0.031,0.21,0.604,0.768
3117980,5122.0,7623.0,1477.0,1191.0,-321.0,3318.0,0.007,0.231,0.606,0.761
3117993,4564.0,7391.0,-1237.0,999.0,-380.0,3902.0,0.02,-0.256,-0.604,-0.754
3118006,6266.0,4083.0,-899.0,1122.0,-269.0,4047.0,0.05,-0.281,-0.602,-0.746
3118029,6816.0,8985.0,-9.0,1451.0,-630.0,3405.0,0.074,-0.304,-0.603,-0.734
3118042,8160.0,10069.0,-187.0,1669.0,-661.0,3101.0,0.096,-0.325,-0.605,-0.72
3118065,7924.0,9395.0,-171.0,1170.0,-609.0,3091.0,0.117,-0.346,-0.604,-0.709
3118078,8534.0,6875.0,-1447.0,704.0,-538.0,3619.0,0.14,-0.369,-0.597,-0.698
3118101,7858.0,5231.0,-2363.0,928.0,-406.0,3873.0,0.166,-0.392,-0.59,-0.686
3118114,9332.0,7435.0,-1831.0,1656.0,-445.0,3157.0,0.189,-0.409,-0.589,-0.67
3118127,9470.0,9259.0,-1241.0,1576.0,-286.0,2699.0,0.21,-0.423,-0.589,-0.656
3118150,9626.0,7395.0,-1051.0,1127.0,-111.0,2814.0,0.231,-0.437,-0.585,-0.643
3118163,8784.0,6323.0,-1749.0,1029.0,-128.0,2828.0,0.251,-0.451,-0.579,-0.631
3118186,8764.0,6479.0,-1871.0,1053.0,-175.0,2726.0,0.27,-0.465,-0.574,-0.618
3118199,8878.0,6417.0,-803.0,871.0,-317.0,2502.0,0.287,-0.478,-0.568,-0.605
3118222,9292.0,6257.0,-879.0,634.0,-358.0,2345.0,0.301,-0.491,-0.562,-0.594
3118235,8904.0,5165.0,-1701.0,730.0,-220.0,1981.0,0.314,-0.5,-0.558,-0.583
3118258,8984.0,5473.0,-1933.0,762.0,-221.0,1734.0,0.325,-0.508,-0.554,-0.573
3118271,8436.0,3581.0,-1959.0,568.0,23.0,1666.0,0.337,-0.515,-0.549,-0.565
3118294,8672.0,4557.0,-1593.0,619.0,-129.0,1868.0,0.349,-0.524,-0.543,-0.556
3118307,8882.0,4515.0,-1393.0,458.0,-152.0,1946.0,0.36,-0.533,-0.536,-0.546
3118320,8542.0,3929.0,-1501.0,379.0,-116.0,1834.0,0.37,-0.542,-0.529,-0.538
3118343,8456.0,3549.0,-1585.0,331.0,-129.0,1633.0,0.379,-0.55,-0.523,-0.53
3118356,8234.0,3209.0,-1667.0,278.0,-154.0,1511.0,0.387,-0.557,-0.517,-0.523
3118379,8308.0,3087.0,-1673.0,133.0,-176.0,1416.0,0.393,-0.564,-0.511,-0.516
3118392,8192.0,2633.0,-1731.0,29.0,-163.0,1276.0,0.398,-0.571,-0.505,-0.51
3118415,8072.0,2419.0,-1785.0,-80.0,-185.0,1053.0,0.402,-0.577,-0.5,-0.506
3118428,7972.0,1965.0,-1793.0,-114.0,-215.0,796.0,0.403,-0.582,-0.496,-0.503
