timeMs,ax,ay,az,gx,gy,gz,q0,q1,q2,q3
2659588,6142.0,6168.0,1662.0,159.0,143.0,-411.0,0.092,-0.446,-0.442,-0.772
2659610,6042.0,6168.0,1796.0,100.0,131.0,-459.0,0.09,-0.443,-0.445,-0.773
2659622,6074.0,6494.0,2000.0,25.0,104.0,-536.0,0.086,-0.44,-0.447,-0.774
2659644,6350.0,6470.0,2238.0,30.0,131.0,-630.0,0.083,-0.437,-0.45,-0.775
2659666,6654.0,6952.0,2550.0,109.0,213.0,-764.0,0.079,-0.432,-0.454,-0.775
2659678,6780.0,7342.0,2984.0,188.0,348.0,-971.0,0.074,-0.425,-0.459,-0.777
2659700,6976.0,7472.0,3448.0,345.0,538.0,-1200.0,0.069,-0.415,-0.466,-0.778
2659712,7166.0,7864.0,3876.0,562.0,787.0,-1492.0,0.064,-0.403,-0.476,-0.779
2659734,7446.0,8488.0,4164.0,588.0,1003.0,-1794.0,0.058,-0.387,-0.486,-0.781
2659746,7534.0,8500.0,4440.0,424.0,1204.0,-2042.0,0.051,-0.368,-0.496,-0.785
2659768,7404.0,8078.0,4196.0,322.0,1393.0,-2209.0,0.042,-0.348,-0.505,-0.789
2659780,6986.0,7406.0,3992.0,377.0,1575.0,-2298.0,0.034,-0.325,-0.515,-0.793
2659802,6532.0,7974.0,4234.0,444.0,1722.0,-2388.0,0.027,-0.3,-0.525,-0.796
2659824,5952.0,8218.0,3912.0,197.0,1781.0,-2422.0,0.018,-0.275,-0.532,-0.801
2659836,5094.0,7870.0,3668.0,-92.0,1868.0,-2317.0,0.01,-0.249,-0.537,-0.806
2659858,3940.0,7436.0,3638.0,-264.0,1940.0,-2215.0,0.003,-0.223,-0.54,-0.812
2659870,3078.0,6798.0,3558.0,-238.0,1930.0,-2109.0,0.004,0.198,0.542,0.817
2659892,2292.0,6394.0,3210.0,-168.0,1924.0,-2032.0,0.009,0.173,0.544,0.821
2659904,1242.0,5972.0,3132.0,-119.0,1894.0,-1917.0,0.015,0.149,0.547,0.824
2659926,372.0,6590.0,3024.0,-237.0,1770.0,-1816.0,0.02,0.126,0.547,0.827
2659938,-96.0,6336.0,2708.0,-440.0,1587.0,-1724.0,0.025,0.104,0.546,0.831
2659960,-682.0,5968.0,2742.0,-442.0,1511.0,-1579.0,0.03,0.085,0.545,0.834
2659982,-1256.0,6242.0,2626.0,-311.0,1412.0,-1518.0,0.035,0.066,0.544,0.836
2659994,-1440.0,6586.0,2602.0,-181.0,1343.0,-1448.0,0.04,0.048,0.543,0.837
2660016,-1448.0,7274.0,2364.0,-274.0,1254.0,-1405.0,0.045,0.031,0.543,0.838
2660028,-1528.0,7204.0,1966.0,-495.0,1146.0,-1363.0,0.05,0.015,0.54,0.84
2660050,-1682.0,6754.0,2062.0,-624.0,1037.0,-1331.0,0.055,-0.0,0.535,0.843
2660062,-1494.0,6554.0,2432.0,-572.0,947.0,-1392.0,0.061,-0.015,0.531,0.845
2660084,-1214.0,6582.0,2424.0,-521.0,833.0,-1348.0,0.068,-0.029,0.527,0.846
2660096,-1084.0,6300.0,2412.0,-554.0,754.0,-1189.0,0.074,-0.041,0.523,0.848
2660118,-1132.0,6534.0,2650.0,-687.0,694.0,-1216.0,0.08,-0.052,0.518,0.85
2660140,-750.0,6876.0,3002.0,-885.0,612.0,-1152.0,0.085,-0.063,0.511,0.853
2660152,-654.0,6286.0,3086.0,-990.0,560.0,-935.0,0.09,-0.073,0.503,0.857
2660174,-704.0,5888.0,3180.0,-835.0,556.0,-922.0,0.094,-0.082,0.496,0.859
2660186,-668.0,5786.0,3506.0,-597.0,577.0,-923.0,0.098,-0.091,0.491,0.861
2660208,-802.0,6150.0,3744.0,-514.0,593.0,-827.0,0.102,-0.1,0.486,0.862
2660220,-1052.0,5980.0,3750.0,-631.0,607.0,-670.0,0.104,-0.109,0.481,0.864
2660242,-1410.0,5748.0,3586.0,-810.0,581.0,-610.0,0.106,-0.117,0.475,0.866
2660254,-1650.0,5762.0,3872.0,-836.0,580.0,-597.0,0.107,-0.125,0.468,0.868
2660276,-1950.0,5286.0,4004.0,-787.0,571.0,-521.0,0.108,-0.132,0.462,0.871
2660288,-2400.0,5078.0,4056.0,-684.0,578.0,-448.0,0.109,-0.139,0.456,0.872
2660310,-2682.0,5228.0,4236.0,-664.0,596.0,-341.0,0.108,-0.146,0.451,0.874
2660332,-2924.0,5132.0,4462.0,-719.0,610.0,-139.0,0.106,-0.152,0.445,0.876
2660344,-3186.0,5080.0,4454.0,-789.0,612.0,-3.0,0.103,-0.158,0.439,0.878
2660366,-3430.0,5006.0,4298.0,-832.0,629.0,74.0,0.099,-0.164,0.433,0.881
2660378,-3822.0,4592.0,4280.0,-804.0,608.0,90.0,0.095,-0.169,0.427,0.883
2660400,-3926.0,4490.0,4520.0,-659.0,631.0,69.0,0.091,-0.174,0.422,0.885
2660412,-3922.0,4662.0,4596.0,-566.0,627.0,140.0,0.087,-0.179,0.418,0.886
2660434,-3978.0,4884.0,4502.0,-586.0,591.0,246.0,0.081,-0.184,0.414,0.888
2660446,-3996.0,4674.0,4538.0,-599.0,565.0,350.0,0.075,-0.188,0.41,0.889
2660468,-3988.0,4860.0,4660.0,-564.0,581.0,386.0,0.069,-0.192,0.407,0.891
2660490,-3992.0,4832.0,4664.0,-494.0,561.0,402.0,0.063,-0.195,0.403,0.892
2660502,-3902.0,5292.0,4672.0,-442.0,537.0,348.0,0.058,-0.199,0.401,0.893
2660524,-3810.0,5208.0,4702.0,-490.0,544.0,404.0,0.052,-0.202,0.398,0.894
2660536,-3628.0,5776.0,4748.0,-653.0,549.0,459.0,0.045,-0.205,0.393,0.895
2660558,-3842.0,5782.0,4878.0,-900.0,546.0,517.0,0.037,-0.208,0.387,0.897
2660570,-3918.0,5538.0,4664.0,-1086.0,524.0,557.0,0.028,-0.211,0.379,0.9
2660587,-4102.0,4960.0,4552.0,-1213.0,517.0,589.0,0.019,-0.213,0.37,0.904
2660609,-4008.0,4844.0,4576.0,-1287.0,504.0,617.0,0.01,-0.216,0.361,0.907
2660621,-3868.0,5300.0,5080.0,-1328.0,546.0,641.0,0.0,-0.218,0.351,0.911
2660643,-4032.0,5104.0,5072.0,-1424.0,496.0,662.0,0.01,0.22,-0.34,-0.914
2660665,-4166.0,4612.0,5004.0,-1452.0,454.0,606.0,0.019,0.222,-0.329,-0.918
2660677,-4328.0,3898.0,4966.0,-1374.0,387.0,544.0,0.027,0.224,-0.318,-0.921
2660699,-4102.0,3934.0,5412.0,-1177.0,352.0,570.0,0.036,0.225,-0.309,-0.923
2660711,-3790.0,4532.0,5166.0,-982.0,313.0,621.0,0.044,0.226,-0.302,-0.925
2660733,-3798.0,5086.0,4882.0,-873.0,288.0,655.0,0.052,0.226,-0.296,-0.927
2660745,-4050.0,5092.0,4434.0,-813.0,196.0,575.0,0.059,0.226,-0.29,-0.928
2660767,-4076.0,4354.0,4416.0,-718.0,129.0,515.0,0.066,0.226,-0.285,-0.929
2660779,-3860.0,4504.0,4546.0,-720.0,2.0,386.0,0.07,0.224,-0.28,-0.931
2660801,-3480.0,5272.0,5128.0,-683.0,-122.0,328.0,0.074,0.222,-0.275,-0.932
2660813,-3436.0,5332.0,5780.0,-677.0,-268.0,327.0,0.078,0.219,-0.27,-0.934
2660835,-2752.0,5570.0,6026.0,-542.0,-274.0,320.0,0.081,0.215,-0.266,-0.936
2660857,-2516.0,4924.0,5518.0,-345.0,-257.0,661.0,0.087,0.211,-0.265,-0.937
2660869,-3496.0,4100.0,4744.0,-99.0,-354.0,573.0,0.092,0.206,-0.266,-0.937
2660891,-2668.0,4650.0,4744.0,-99.0,-464.0,359.0,0.094,0.201,-0.266,-0.938
2660903,-2302.0,5346.0,6036.0,-335.0,-438.0,220.0,0.096,0.196,-0.264,-0.939
2660925,-1618.0,6074.0,7502.0,-555.0,-342.0,76.0,0.097,0.193,-0.26,-0.941
2660937,-1618.0,5516.0,7982.0,-537.0,-218.0,-148.0,0.096,0.191,-0.255,-0.943
2660959,-1680.0,4022.0,7370.0,-285.0,-154.0,-157.0,0.095,0.189,-0.252,-0.944
2660971,-2302.0,3790.0,6444.0,27.0,-135.0,-448.0,0.091,0.189,-0.251,-0.945
2660993,-2642.0,3906.0,6224.0,43.0,-119.0,-511.0,0.087,0.189,-0.251,-0.945
2661015,-2976.0,3476.0,6408.0,-20.0,-104.0,-345.0,0.084,0.189,-0.25,-0.946
2661027,-3084.0,3184.0,6496.0,-74.0,-90.0,-104.0,0.083,0.189,-0.249,-0.946
2661049,-3188.0,3362.0,6818.0,-178.0,-52.0,86.0,0.084,0.188,-0.247,-0.947
2661061,-3040.0,3480.0,7152.0,-297.0,-26.0,162.0,0.086,0.187,-0.245,-0.947
2661083,-2920.0,3688.0,7268.0,-230.0,-5.0,104.0,0.088,0.187,-0.243,-0.948
2661095,-2860.0,4048.0,7166.0,-84.0,17.0,108.0,0.09,0.187,-0.242,-0.948
2661117,-2846.0,4140.0,6814.0,39.0,21.0,146.0,0.091,0.187,-0.243,-0.948
2661129,-3050.0,4158.0,6494.0,47.0,-7.0,151.0,0.093,0.187,-0.243,-0.947
2661151,-3108.0,4064.0,6236.0,-11.0,-46.0,150.0,0.094,0.186,-0.243,-0.947
2661173,-3168.0,4166.0,6032.0,-131.0,-85.0,99.0,0.096,0.185,-0.242,-0.948
2661185,-3156.0,3990.0,6082.0,-234.0,-119.0,107.0,0.097,0.184,-0.241,-0.948
2661207,-2666.0,3994.0,6250.0,-235.0,-7.0,520.0,0.103,0.182,-0.239,-0.948
2661219,-2950.0,4000.0,6580.0,-226.0,-158.0,401.0,0.107,0.18,-0.238,-0.948
2661241,-2894.0,4070.0,7010.0,-212.0,-109.0,385.0,0.111,0.178,-0.237,-0.949
2661253,-2416.0,3990.0,7126.0,-106.0,-97.0,388.0,0.115,0.176,-0.237,-0.949
2661275,-2432.0,3896.0,6972.0,-3.0,-72.0,288.0,0.117,0.175,-0.237,-0.948
2661287,-2258.0,3720.0,6936.0,22.0,-30.0,264.0,0.12,0.175,-0.238,-0.948
2661309,-2304.0,3874.0,6690.0,64.0,7.0,281.0,0.123,0.174,-0.238,-0.947
2661321,-2412.0,3990.0,6602.0,74.0,26.0,269.0,0.126,0.174,-0.239,-0.947
2661343,-2446.0,4064.0,6560.0,37.0,26.0,245.0,0.129,0.174,-0.24,-0.946
2661365,-2438.0,4146.0,6428.0,-9.0,20.0,177.0,0.131,0.174,-0.24,-0.946
2661377,-2404.0,4096.0,6570.0,-16.0,34.0,131.0,0.133,0.174,-0.24,-0.946
2661399,-2472.0,4042.0,6690.0,7.0,29.0,95.0,0.135,0.174,-0.24,-0.945
2661411,-2578.0,4178.0,6646.0,24.0,33.0,108.0,0.136,0.174,-0.24,-0.945
2661433,-2500.0,4120.0,6546.0,25.0,31.0,92.0,0.138,0.175,-0.241,-0.945
2661445,-2502.0,4116.0,6502.0,12.0,24.0,72.0,0.139,0.175,-0.241,-0.945
2661467,-2450.0,4064.0,6622.0,18.0,13.0,35.0,0.14,0.175,-0.241,-0.944
2661479,-2572.0,4156.0,6684.0,7.0,27.0,101.0,0.142,0.176,-0.241,-0.944
2661501,-2604.0,4126.0,6712.0,26.0,30.0,105.0,0.144,0.176,-0.241,-0.944
2661523,-2598.0,4256.0,6674.0,45.0,27.0,95.0,0.145,0.176,-0.241,-0.943
2661535,-2522.0,4002.0,6710.0,71.0,20.0,70.0,0.147,0.176,-0.242,-0.943
2661557,-2568.0,4196.0,6500.0,64.0,37.0,132.0,0.148,0.177,-0.242,-0.942
2661569,-2542.0,4288.0,6434.0,39.0,35.0,142.0,0.151,0.177,-0.243,-0.942
2661591,-2458.0,4282.0,6466.0,16.0,29.0,110.0,0.152,0.177,-0.243,-0.941
2661603,-2574.0,4054.0,6578.0,6.0,23.0,116.0,0.154,0.178,-0.243,-0.941
2661625,-2446.0,4102.0,6680.0,3.0,25.0,104.0,0.156,0.178,-0.243,-0.941
2661637,-2376.0,3848.0,6828.0,-26.0,34.0,157.0,0.158,0.178,-0.243,-0.94
2661659,-2300.0,4266.0,6482.0,-34.0,34.0,116.0,0.16,0.178,-0.243,-0.94
2661681,-2106.0,4204.0,6506.0,-64.0,28.0,99.0,0.162,0.178,-0.242,-0.94
2661693,-2136.0,4346.0,6418.0,-51.0,-35.0,1.0,0.163,0.178,-0.242,-0.94
2661715,-1710.0,4402.0,6240.0,-40.0,-63.0,-113.0,0.163,0.178,-0.241,-0.94
2661727,-1486.0,4204.0,6258.0,60.0,-159.0,-412.0,0.159,0.177,-0.241,-0.941
2661749,-1906.0,5148.0,5562.0,438.0,-192.0,-1336.0,0.147,0.179,-0.243,-0.942
2661761,-1214.0,6420.0,5710.0,339.0,-208.0,-1380.0,0.135,0.181,-0.245,-0.943
2661783,-672.0,5624.0,6476.0,419.0,-144.0,-1033.0,0.126,0.183,-0.247,-0.943
2661795,-772.0,6510.0,6434.0,645.0,-63.0,-1161.0,0.115,0.186,-0.251,-0.943
2661817,-618.0,6774.0,5612.0,680.0,-50.0,-1338.0,0.103,0.189,-0.255,-0.943
2661839,-1010.0,7244.0,5182.0,593.0,-37.0,-1558.0,0.089,0.193,-0.258,-0.943
2661851,-1212.0,7292.0,4942.0,429.0,-68.0,-1572.0,0.075,0.196,-0.259,-0.943
2661873,-1712.0,6894.0,4438.0,346.0,-168.0,-1703.0,0.06,0.199,-0.26,-0.943
2661885,-1894.0,5946.0,4334.0,389.0,-336.0,-1759.0,0.044,0.2,-0.261,-0.943
2661907,-2412.0,5046.0,4026.0,584.0,-463.0,-1814.0,0.026,0.201,-0.263,-0.943
2661919,-2984.0,4614.0,3730.0,796.0,-637.0,-1812.0,0.007,0.2,-0.266,-0.943
2661941,-3416.0,4166.0,3216.0,991.0,-874.0,-1788.0,0.013,-0.197,0.272,0.942
2661953,-3546.0,3378.0,3200.0,1169.0,-1163.0,-1749.0,0.033,-0.191,0.279,0.941
2661975,-3530.0,2596.0,3610.0,1279.0,-1420.0,-1661.0,0.053,-0.182,0.286,0.939
2661987,-3678.0,2564.0,3982.0,1267.0,-1623.0,-1422.0,0.073,-0.171,0.294,0.938
2662009,-3630.0,2592.0,3950.0,1206.0,-1803.0,-1198.0,0.09,-0.157,0.302,0.936
2662031,-3824.0,2332.0,3832.0,1161.0,-2004.0,-992.0,0.106,-0.142,0.309,0.935
2662043,-3430.0,1990.0,4636.0,1231.0,-2197.0,-845.0,0.122,-0.123,0.316,0.933
2662065,-2900.0,2620.0,6002.0,1358.0,-2308.0,-662.0,0.136,-0.104,0.324,0.93
2662077,-2314.0,3814.0,7136.0,1361.0,-2322.0,-420.0,0.148,-0.083,0.332,0.928
2662099,-2356.0,4014.0,7270.0,1241.0,-2333.0,-252.0,0.159,-0.062,0.339,0.925
2662111,-2186.0,4176.0,6822.0,1029.0,-2341.0,-240.0,0.17,-0.041,0.344,0.923
2662133,-2052.0,4102.0,6600.0,778.0,-2316.0,-201.0,0.179,-0.02,0.347,0.92
2662145,-1736.0,4294.0,7002.0,594.0,-2299.0,-164.0,0.189,0.0,0.348,0.918
2662167,-1110.0,4880.0,7528.0,567.0,-2268.0,-218.0,0.198,0.02,0.349,0.916
2662179,-440.0,5980.0,8312.0,430.0,-2166.0,-268.0,0.208,0.039,0.348,0.913
2662202,-236.0,6424.0,7698.0,149.0,-2155.0,-322.0,0.218,0.056,0.345,0.911
2662224,-292.0,5842.0,6736.0,-143.0,-2200.0,-363.0,0.228,0.074,0.34,0.909
2662236,-32.0,4946.0,5926.0,-337.0,-2215.0,-488.0,0.24,0.09,0.332,0.908
2662258,150.0,4154.0,5632.0,-384.0,-2223.0,-610.0,0.252,0.107,0.325,0.905
2662270,310.0,4060.0,6324.0,-275.0,-2217.0,-706.0,0.265,0.123,0.317,0.902
2662292,922.0,5722.0,7502.0,-77.0,-2088.0,-765.0,0.278,0.138,0.312,0.898
2662304,934.0,6560.0,7548.0,-129.0,-2050.0,-875.0,0.292,0.152,0.307,0.893
2662326,2536.0,7112.0,7124.0,-539.0,-1555.0,-900.0,0.305,0.161,0.299,0.89
2662338,1804.0,5010.0,11814.0,-662.0,-1064.0,-681.0,0.315,0.167,0.292,0.888
2662360,2296.0,4640.0,18226.0,-670.0,-548.0,-645.0,0.323,0.167,0.286,0.887
2662382,1386.0,2836.0,16442.0,-883.0,-359.0,-106.0,0.326,0.168,0.277,0.888
2662394,32.0,1544.0,11820.0,-409.0,90.0,201.0,0.325,0.166,0.274,0.89
2662416,-168.0,2896.0,7582.0,-16.0,371.0,14.0,0.325,0.163,0.274,0.89
2662428,22.0,3668.0,5502.0,-67.0,375.0,118.0,0.323,0.16,0.275,0.891
2662450,342.0,3854.0,5044.0,-373.0,198.0,167.0,0.322,0.158,0.272,0.893
2662462,486.0,3456.0,4922.0,-670.0,-76.0,55.0,0.323,0.157,0.266,0.895
2662484,1034.0,3542.0,5414.0,-828.0,-173.0,42.0,0.324,0.156,0.258,0.897
2662496,1310.0,4402.0,6270.0,-964.0,-233.0,107.0,0.326,0.156,0.249,0.899
2662518,1518.0,4694.0,7480.0,-960.0,-256.0,147.0,0.327,0.155,0.24,0.901
2662530,1518.0,4952.0,8188.0,-699.0,-134.0,128.0,0.327,0.155,0.234,0.903
2662552,1256.0,4972.0,8034.0,-445.0,-38.0,132.0,0.327,0.154,0.229,0.904
2662574,900.0,4852.0,7212.0,-365.0,6.0,240.0,0.326,0.154,0.226,0.905
2662591,642.0,4470.0,6448.0,-423.0,10.0,275.0,0.324,0.153,0.222,0.907
2662603,688.0,4124.0,6250.0,-468.0,-10.0,246.0,0.323,0.152,0.218,0.908
2662625,824.0,4218.0,6488.0,-495.0,-23.0,251.0,0.322,0.152,0.213,0.91
2662637,882.0,4306.0,7082.0,-576.0,-67.0,299.0,0.321,0.151,0.208,0.912
2662659,1044.0,4032.0,7506.0,-616.0,-111.0,318.0,0.32,0.151,0.202,0.913
2662671,1112.0,3486.0,7672.0,-559.0,-115.0,326.0,0.318,0.151,0.196,0.915
2662693,1266.0,2920.0,7550.0,-437.0,-93.0,377.0,0.316,0.151,0.191,0.917
2662705,1210.0,2794.0,7258.0,-272.0,-50.0,377.0,0.313,0.151,0.188,0.918
2662727,1454.0,2860.0,7286.0,-188.0,-53.0,425.0,0.311,0.152,0.185,0.92
2662749,1614.0,2766.0,7446.0,-137.0,-38.0,463.0,0.307,0.153,0.183,0.921
2662761,1926.0,2800.0,7648.0,-121.0,-8.0,487.0,0.303,0.154,0.181,0.923
2662783,1968.0,2438.0,7730.0,-68.0,34.0,473.0,0.3,0.154,0.18,0.924
2662795,2104.0,2350.0,7762.0,52.0,94.0,445.0,0.296,0.155,0.179,0.925
2662817,1946.0,2474.0,7612.0,170.0,158.0,459.0,0.292,0.155,0.18,0.927
2662829,1904.0,2586.0,7548.0,253.0,204.0,473.0,0.287,0.154,0.182,0.928
2662851,1826.0,2744.0,7458.0,274.0,222.0,473.0,0.283,0.154,0.184,0.929
2662863,1766.0,2822.0,7342.0,249.0,222.0,471.0,0.278,0.154,0.186,0.93
2662885,1642.0,3290.0,7226.0,181.0,204.0,476.0,0.274,0.154,0.187,0.931
2662907,1492.0,3298.0,7376.0,58.0,155.0,463.0,0.27,0.153,0.187,0.932
2662919,1518.0,3336.0,7510.0,-35.0,97.0,402.0,0.266,0.153,0.187,0.933
2662941,1378.0,3324.0,7706.0,-132.0,31.0,347.0,0.264,0.153,0.185,0.934
2662953,1254.0,3272.0,7772.0,-204.0,-21.0,297.0,0.262,0.153,0.182,0.935
2662975,1224.0,3270.0,7782.0,-259.0,-68.0,240.0,0.261,0.154,0.18,0.936
2662987,1128.0,3242.0,7680.0,-265.0,-105.0,181.0,0.26,0.154,0.177,0.937
2663009,1200.0,3168.0,7622.0,-323.0,-167.0,186.0,0.259,0.155,0.173,0.937
2663021,1230.0,2968.0,7640.0,-356.0,-204.0,186.0,0.259,0.157,0.169,0.938
2663043,1262.0,2958.0,7652.0,-357.0,-211.0,186.0,0.258,0.158,0.165,0.939
2663055,1276.0,3000.0,7616.0,-362.0,-227.0,189.0,0.258,0.159,0.161,0.939
2663077,1354.0,2942.0,7522.0,-351.0,-218.0,176.0,0.258,0.161,0.157,0.94
2663099,1438.0,3364.0,7524.0,-366.0,-188.0,154.0,0.257,0.162,0.153,0.94
2663111,1396.0,3428.0,7444.0,-380.0,-186.0,140.0,0.257,0.163,0.149,0.941
2663133,1320.0,3318.0,7388.0,-383.0,-182.0,91.0,0.258,0.163,0.145,0.941
2663145,1344.0,3094.0,7436.0,-351.0,-170.0,36.0,0.259,0.164,0.142,0.941
2663167,1302.0,2814.0,7356.0,-323.0,-143.0,4.0,0.26,0.165,0.139,0.941
2663179,1392.0,2654.0,7418.0,-308.0,-130.0,-30.0,0.261,0.165,0.136,0.942
2663201,1514.0,2362.0,7674.0,-292.0,-98.0,-36.0,0.262,0.165,0.133,0.942
2663213,1636.0,2152.0,7986.0,-214.0,-51.0,-33.0,0.263,0.165,0.13,0.942
2663235,1610.0,2092.0,8082.0,-168.0,-4.0,-13.0,0.264,0.164,0.129,0.942
2663257,1798.0,2082.0,8182.0,-138.0,32.0,5.0,0.264,0.164,0.127,0.942
2663269,2156.0,2438.0,8468.0,-59.0,103.0,-18.0,0.264,0.163,0.127,0.942
2663291,2242.0,3060.0,8464.0,21.0,182.0,-63.0,0.265,0.161,0.128,0.942
2663303,2056.0,3258.0,8278.0,41.0,231.0,-135.0,0.266,0.159,0.129,0.942
2663325,1932.0,3282.0,7964.0,7.0,259.0,-221.0,0.268,0.157,0.13,0.942
2663337,1702.0,2880.0,7604.0,13.0,294.0,-287.0,0.27,0.154,0.131,0.941
2663359,1552.0,2634.0,7528.0,47.0,298.0,-310.0,0.273,0.151,0.133,0.941
2663371,1258.0,2288.0,7086.0,105.0,288.0,-290.0,0.275,0.149,0.135,0.94
2663393,1190.0,1862.0,6858.0,117.0,254.0,-230.0,0.277,0.147,0.137,0.94
2663415,1030.0,1604.0,6818.0,66.0,188.0,-147.0,0.278,0.145,0.138,0.939
2663427,948.0,1258.0,7108.0,31.0,130.0,-54.0,0.279,0.144,0.138,0.939
2663449,1014.0,1114.0,7226.0,47.0,84.0,59.0,0.278,0.143,0.139,0.94
2663461,1076.0,944.0,7276.0,111.0,62.0,160.0,0.277,0.143,0.139,0.94
2663483,1134.0,1324.0,7458.0,115.0,25.0,181.0,0.276,0.144,0.14,0.94
2663495,1232.0,1834.0,7842.0,149.0,-7.0,184.0,0.274,0.144,0.14,0.94
2663517,1262.0,2098.0,8100.0,183.0,-25.0,188.0,0.273,0.145,0.142,0.941
2663529,1180.0,2214.0,8056.0,234.0,-37.0,188.0,0.271,0.146,0.143,0.941
2663551,1186.0,2268.0,7790.0,266.0,-49.0,190.0,0.269,0.148,0.145,0.941
2663563,1272.0,2456.0,7882.0,247.0,-58.0,202.0,0.268,0.149,0.146,0.941
2663585,1458.0,2844.0,8126.0,204.0,-52.0,209.0,0.266,0.15,0.148,0.941
2663607,1632.0,3178.0,8316.0,148.0,-47.0,213.0,0.264,0.151,0.148,0.941
2663619,1756.0,3144.0,8246.0,125.0,-20.0,213.0,0.262,0.152,0.149,0.941
2663641,1746.0,3110.0,7990.0,131.0,1.0,180.0,0.261,0.153,0.15,0.941
2663653,1608.0,3020.0,7528.0,126.0,9.0,140.0,0.26,0.154,0.151,0.941
2663675,1418.0,2828.0,7284.0,131.0,-1.0,121.0,0.259,0.154,0.152,0.941
2663687,1364.0,2870.0,7288.0,134.0,-4.0,104.0,0.258,0.155,0.153,0.941
2663709,1386.0,2952.0,7430.0,93.0,-23.0,108.0,0.257,0.155,0.153,0.941
2663721,1454.0,2870.0,7614.0,56.0,-35.0,119.0,0.256,0.156,0.153,0.941
2663743,1382.0,2802.0,7760.0,62.0,-29.0,123.0,0.256,0.156,0.154,0.942
2663765,1356.0,2782.0,7718.0,86.0,-17.0,131.0,0.255,0.157,0.154,0.942
2663777,1274.0,2776.0,7660.0,125.0,-8.0,136.0,0.254,0.158,0.155,0.942
2663799,1286.0,2884.0,7646.0,150.0,6.0,132.0,0.253,0.158,0.156,0.942
2663811,1370.0,3104.0,7648.0,150.0,12.0,118.0,0.252,0.158,0.157,0.942
2663833,1358.0,3204.0,7536.0,121.0,14.0,98.0,0.251,0.159,0.158,0.942
2663845,1378.0,3108.0,7498.0,102.0,23.0,95.0,0.25,0.159,0.159,0.942
2663867,1332.0,2978.0,7478.0,95.0,22.0,92.0,0.25,0.159,0.159,0.942
2663879,1354.0,3000.0,7412.0,99.0,28.0,82.0,0.249,0.159,0.16,0.942
2663901,1406.0,3048.0,7426.0,105.0,36.0,91.0,0.248,0.159,0.161,0.942
2663923,1384.0,3216.0,7504.0,102.0,42.0,83.0,0.247,0.159,0.162,0.942
2663935,1526.0,3440.0,7614.0,82.0,54.0,50.0,0.247,0.159,0.162,0.942
2663957,1630.0,3848.0,7594.0,69.0,76.0,20.0,0.247,0.159,0.163,0.942
2663969,1648.0,4212.0,7398.0,75.0,102.0,-10.0,0.247,0.158,0.164,0.942
2663991,1552.0,4488.0,7362.0,70.0,119.0,-99.0,0.248,0.157,0.166,0.941
2664003,1420.0,4514.0,7558.0,-4.0,99.0,-197.0,0.25,0.156,0.166,0.941
2664025,1286.0,3936.0,7568.0,-109.0,70.0,-260.0,0.252,0.155,0.166,0.941
2664037,1198.0,3232.0,7436.0,-113.0,59.0,-303.0,0.255,0.154,0.166,0.94
2664059,1078.0,2856.0,7350.0,-42.0,66.0,-315.0,0.258,0.153,0.166,0.939
2664071,1064.0,2688.0,7358.0,13.0,58.0,-311.0,0.261,0.152,0.166,0.939
2664093,964.0,2574.0,7290.0,10.0,31.0,-291.0,0.264,0.151,0.167,0.938
2664115,894.0,2378.0,7262.0,-26.0,-4.0,-260.0,0.267,0.15,0.167,0.937
2664127,984.0,2114.0,7338.0,-51.0,-21.0,-217.0,0.269,0.15,0.166,0.937
2664149,1022.0,1700.0,7468.0,-29.0,-15.0,-114.0,0.27,0.15,0.166,0.937
2664161,1010.0,1682.0,7694.0,30.0,-3.0,-35.0,0.271,0.15,0.166,0.936
2664183,1124.0,1816.0,7954.0,76.0,17.0,54.0,0.27,0.15,0.166,0.936
2664195,1258.0,2226.0,7970.0,101.0,36.0,150.0,0.269,0.15,0.166,0.937
2664217,1338.0,2468.0,8030.0,120.0,46.0,231.0,0.267,0.15,0.167,0.937
2664229,1372.0,2650.0,7926.0,122.0,37.0,273.0,0.265,0.151,0.168,0.938
2664251,1424.0,2712.0,7874.0,109.0,19.0,308.0,0.262,0.151,0.168,0.938
2664273,1440.0,2678.0,7658.0,119.0,15.0,302.0,0.26,0.152,0.169,0.939
2664285,1520.0,2932.0,7622.0,172.0,-1.0,257.0,0.257,0.153,0.17,0.939
2664307,1530.0,3216.0,7594.0,154.0,-29.0,252.0,0.255,0.154,0.17,0.939
2664319,1604.0,3432.0,7498.0,132.0,-55.0,192.0,0.254,0.155,0.171,0.939
2664341,1758.0,3644.0,7468.0,92.0,-77.0,136.0,0.253,0.156,0.172,0.939
2664353,1854.0,3788.0,7446.0,42.0,-89.0,84.0,0.252,0.157,0.172,0.939
2664375,1930.0,3938.0,7400.0,-20.0,-98.0,28.0,0.252,0.158,0.171,0.939
2664387,1998.0,3778.0,7380.0,-62.0,-83.0,-20.0,0.253,0.159,0.17,0.939
2664409,1888.0,3922.0,7330.0,-35.0,-51.0,-91.0,0.254,0.16,0.17,0.939
2664421,1780.0,4134.0,7380.0,-22.0,-20.0,-169.0,0.256,0.16,0.17,0.938
2664444,1538.0,4080.0,7340.0,-56.0,-9.0,-224.0,0.258,0.159,0.17,0.938
2664466,1424.0,3970.0,7304.0,-83.0,-14.0,-266.0,0.261,0.159,0.17,0.937
2664478,1236.0,3780.0,7258.0,-84.0,-8.0,-281.0,0.264,0.158,0.17,0.936
2664500,1082.0,3576.0,7220.0,-73.0,-15.0,-292.0,0.267,0.158,0.17,0.936
2664512,944.0,3474.0,7274.0,-83.0,-20.0,-300.0,0.27,0.157,0.169,0.935
2664534,860.0,3196.0,7416.0,-119.0,-35.0,-284.0,0.273,0.157,0.169,0.934
2664546,822.0,2726.0,7530.0,-178.0,-53.0,-256.0,0.275,0.156,0.167,0.934
2664568,880.0,2158.0,7622.0,-213.0,-50.0,-184.0,0.278,0.156,0.165,0.933
2664580,1112.0,1716.0,7740.0,-169.0,-24.0,-86.0,0.279,0.155,0.163,0.933
2664597,1304.0,1532.0,7806.0,-64.0,7.0,45.0,0.279,0.155,0.162,0.934
2664619,1536.0,1686.0,7768.0,18.0,30.0,151.0,0.278,0.155,0.162,0.934
2664641,1614.0,1724.0,7602.0,75.0,31.0,234.0,0.276,0.155,0.162,0.935
2664653,1630.0,1940.0,7540.0,108.0,38.0,288.0,0.273,0.156,0.162,0.935
2664675,1718.0,2220.0,7614.0,138.0,39.0,315.0,0.27,0.156,0.163,0.936
2664687,1734.0,2564.0,7734.0,150.0,40.0,329.0,0.267,0.157,0.164,0.937
2664709,1834.0,2880.0,7778.0,170.0,41.0,294.0,0.265,0.157,0.165,0.937
2664721,1752.0,3140.0,7714.0,195.0,50.0,251.0,0.262,0.158,0.166,0.937
2664743,1656.0,3456.0,7528.0,201.0,52.0,201.0,0.26,0.158,0.168,0.938
2664755,1534.0,3604.0,7348.0,186.0,46.0,157.0,0.259,0.159,0.169,0.938
2664777,1512.0,3844.0,7316.0,145.0,22.0,118.0,0.258,0.159,0.17,0.938
2664789,1458.0,3968.0,7238.0,84.0,7.0,67.0,0.257,0.16,0.171,0.938
2664811,1250.0,3944.0,7224.0,39.0,1.0,33.0,0.257,0.16,0.172,0.938
2664833,1184.0,3858.0,7282.0,-8.0,-20.0,8.0,0.257,0.16,0.172,0.937
2664845,1106.0,3588.0,7298.0,-42.0,-27.0,-6.0,0.258,0.16,0.171,0.937
2664867,1148.0,3296.0,7410.0,-51.0,-25.0,1.0,0.258,0.16,0.171,0.937
2664879,1220.0,3128.0,7444.0,-27.0,-18.0,8.0,0.258,0.16,0.17,0.937
2664901,1260.0,2998.0,7506.0,3.0,-13.0,23.0,0.258,0.16,0.17,0.937
2664913,1366.0,2960.0,7550.0,21.0,-5.0,53.0,0.258,0.16,0.17,0.937
2664935,1450.0,2984.0,7522.0,30.0,3.0,70.0,0.257,0.161,0.17,0.938
2664947,1600.0,2988.0,7606.0,32.0,11.0,79.0,0.257,0.161,0.17,0.938
2664969,1612.0,3096.0,7606.0,38.0,21.0,93.0,0.256,0.161,0.17,0.938
2664991,1648.0,3104.0,7536.0,45.0,26.0,100.0,0.255,0.161,0.171,0.938
2665003,1618.0,3150.0,7494.0,50.0,42.0,98.0,0.254,0.161,0.171,0.938
2665025,1698.0,3148.0,7452.0,57.0,45.0,99.0,0.254,0.161,0.171,0.938
2665037,1690.0,3118.0,7430.0,66.0,55.0,92.0,0.253,0.161,0.172,0.938
2665059,1628.0,3168.0,7410.0,84.0,58.0,96.0,0.252,0.161,0.172,0.939
2665071,1606.0,3236.0,7412.0,84.0,61.0,86.0,0.251,0.161,0.173,0.939
2665093,1592.0,3380.0,7440.0,74.0,48.0,77.0,0.25,0.161,0.174,0.939
2665105,1538.0,3418.0,7378.0,68.0,42.0,55.0,0.25,0.16,0.174,0.939
2665127,1514.0,3540.0,7386.0,47.0,30.0,37.0,0.25,0.16,0.175,0.939
2665149,1470.0,3474.0,7356.0,27.0,21.0,13.0,0.25,0.16,0.175,0.939
2665161,1514.0,3434.0,7382.0,8.0,15.0,5.0,0.25,0.16,0.175,0.939
2665183,1514.0,3308.0,7412.0,-6.0,0.0,-3.0,0.25,0.16,0.175,0.939
2665195,1450.0,3212.0,7446.0,-2.0,2.0,-14.0,0.25,0.16,0.175,0.939
2665217,1412.0,3224.0,7408.0,5.0,5.0,-4.0,0.251,0.16,0.175,0.939
2665229,1412.0,3270.0,7412.0,9.0,0.0,-8.0,0.251,0.16,0.175,0.939
2665251,1388.0,3246.0,7424.0,6.0,-4.0,-2.0,0.251,0.16,0.175,0.938
2665263,1444.0,3322.0,7444.0,0.0,-6.0,-5.0,0.251,0.16,0.175,0.938
2665285,1458.0,3348.0,7436.0,-17.0,-10.0,-1.0,0.251,0.161,0.175,0.938
2665297,1500.0,3226.0,7412.0,-14.0,-7.0,11.0,0.252,0.161,0.174,0.938
2665319,1552.0,3184.0,7444.0,-13.0,-1.0,11.0,0.252,0.161,0.174,0.938
2665341,1556.0,3176.0,7480.0,-3.0,7.0,12.0,0.252,0.161,0.174,0.938
2665353,1612.0,3200.0,7422.0,15.0,9.0,7.0,0.252,0.161,0.174,0.938
2665375,1586.0,3218.0,7430.0,19.0,12.0,4.0,0.252,0.161,0.174,0.938
2665387,1560.0,3216.0,7382.0,8.0,17.0,-1.0,0.252,0.161,0.174,0.938
2665409,1560.0,3200.0,7408.0,15.0,22.0,0.0,0.252,0.16,0.174,0.938
2665421,1542.0,3284.0,7440.0,18.0,29.0,-3.0,0.252,0.16,0.175,0.938
2665443,1520.0,3264.0,7398.0,12.0,27.0,0.0,0.252,0.16,0.175,0.938
2665455,1480.0,3262.0,7350.0,12.0,32.0,-5.0,0.252,0.16,0.175,0.938
2665477,1512.0,3298.0,7402.0,12.0,21.0,-5.0,0.253,0.16,0.175,0.938
2665499,1492.0,3316.0,7420.0,3.0,15.0,-1.0,0.253,0.16,0.175,0.938
2665511,1484.0,3216.0,7424.0,-8.0,6.0,-6.0,0.253,0.16,0.175,0.938
2665533,1504.0,3212.0,7446.0,-2.0,5.0,-2.0,0.253,0.16,0.175,0.938
2665545,1534.0,3200.0,7474.0,-3.0,1.0,-7.0,0.253,0.16,0.175,0.938
2665567,1486.0,3168.0,7436.0,-4.0,6.0,-4.0,0.253,0.16,0.175,0.938
2665579,1492.0,3202.0,7386.0,4.0,-2.0,1.0,0.254,0.16,0.175,0.938
2665601,1504.0,3222.0,7454.0,2.0,0.0,0.0,0.254,0.16,0.175,0.938
2665613,1524.0,3236.0,7466.0,5.0,0.0,-1.0,0.254,0.16,0.175,0.938
2665635,1496.0,3264.0,7436.0,9.0,6.0,8.0,0.254,0.16,0.175,0.938
2665657,1544.0,3252.0,7394.0,5.0,10.0,13.0,0.254,0.16,0.175,0.938
2665669,1440.0,3240.0,7424.0,1.0,8.0,12.0,0.254,0.16,0.175,0.938
2665691,1516.0,3218.0,7416.0,1.0,11.0,15.0,0.254,0.16,0.175,0.938
2665703,1456.0,3276.0,7402.0,2.0,9.0,11.0,0.254,0.16,0.175,0.938
2665725,1474.0,3300.0,7474.0,-4.0,3.0,8.0,0.254,0.16,0.174,0.938
2665737,1524.0,3314.0,7458.0,-7.0,0.0,5.0,0.254,0.16,0.174,0.938
2665759,1464.0,3264.0,7408.0,-6.0,-7.0,2.0,0.254,0.16,0.174,0.938
2665771,1502.0,3222.0,7418.0,0.0,-7.0,-1.0,0.255,0.16,0.174,0.938
2665793,1512.0,3238.0,7380.0,0.0,-3.0,-5.0,0.255,0.16,0.174,0.938
2665805,1562.0,3274.0,7426.0,0.0,-8.0,-8.0,0.255,0.16,0.174,0.938
2665827,1556.0,3242.0,7444.0,-1.0,5.0,-13.0,0.255,0.16,0.174,0.938
2665849,1486.0,3264.0,7406.0,-5.0,7.0,-8.0,0.255,0.16,0.174,0.938
2665861,1468.0,3264.0,7426.0,-1.0,7.0,0.0,0.256,0.16,0.174,0.937
2665883,1460.0,3276.0,7414.0,7.0,3.0,-1.0,0.256,0.16,0.174,0.937
2665895,1528.0,3292.0,7414.0,3.0,9.0,3.0,0.256,0.16,0.174,0.937
2665917,1552.0,3224.0,7492.0,6.0,8.0,8.0,0.256,0.16,0.174,0.937
2665929,1556.0,3178.0,7486.0,13.0,15.0,6.0,0.256,0.16,0.174,0.937
2665951,1542.0,3182.0,7448.0,27.0,16.0,3.0,0.256,0.16,0.174,0.937
2665963,1662.0,3152.0,7430.0,33.0,22.0,3.0,0.256,0.16,0.174,0.937
2665985,1660.0,3180.0,7466.0,44.0,29.0,-5.0,0.256,0.16,0.175,0.937
2666007,1648.0,3100.0,7432.0,53.0,34.0,-8.0,0.256,0.16,0.175,0.937
2666019,1518.0,3214.0,7430.0,58.0,40.0,-4.0,0.256,0.159,0.176,0.937
2666041,1464.0,3260.0,7454.0,54.0,41.0,-6.0,0.256,0.159,0.176,0.937
2666053,1454.0,3312.0,7450.0,45.0,32.0,1.0,0.256,0.159,0.177,0.937
2666075,1484.0,3358.0,7418.0,34.0,22.0,8.0,0.256,0.159,0.177,0.937
2666087,1404.0,3384.0,7388.0,17.0,8.0,6.0,0.256,0.159,0.177,0.937
2666109,1336.0,3368.0,7302.0,0.0,-3.0,6.0,0.256,0.159,0.177,0.937
2666121,1394.0,3380.0,7302.0,-30.0,-19.0,4.0,0.256,0.159,0.177,0.937
2666143,1342.0,3390.0,7368.0,-49.0,-23.0,9.0,0.257,0.159,0.176,0.937
2666165,1328.0,3496.0,7406.0,-50.0,-28.0,17.0,0.257,0.159,0.176,0.937
2666177,1370.0,3540.0,7404.0,-68.0,-40.0,24.0,0.257,0.16,0.175,0.937
2666199,1388.0,3466.0,7356.0,-82.0,-44.0,29.0,0.257,0.16,0.174,0.937
2666211,1476.0,3400.0,7346.0,-87.0,-54.0,33.0,0.257,0.16,0.173,0.937
2666233,1604.0,3282.0,7414.0,-94.0,-47.0,29.0,0.257,0.161,0.172,0.937
2666245,1720.0,3178.0,7416.0,-88.0,-43.0,21.0,0.257,0.161,0.171,0.937
2666267,1730.0,3118.0,7438.0,-75.0,-30.0,17.0,0.257,0.161,0.17,0.937
2666279,1784.0,3018.0,7470.0,-56.0,-19.0,12.0,0.257,0.161,0.17,0.938
2666301,1810.0,2996.0,7500.0,-32.0,-1.0,10.0,0.258,0.161,0.169,0.938
2666313,1626.0,2998.0,7526.0,-8.0,16.0,19.0,0.258,0.161,0.169,0.938
2666335,1604.0,3078.0,7530.0,17.0,29.0,23.0,0.257,0.161,0.169,0.938
2666357,1542.0,3094.0,7462.0,19.0,21.0,33.0,0.257,0.161,0.169,0.938
2666369,1504.0,3628.0,7122.0,18.0,15.0,31.0,0.257,0.161,0.17,0.938
2666391,1368.0,3608.0,7596.0,-48.0,-35.0,-2.0,0.257,0.161,0.169,0.938
2666403,1522.0,3398.0,7230.0,-286.0,-102.0,87.0,0.257,0.162,0.166,0.938
2666425,1352.0,1842.0,7686.0,-224.0,-64.0,75.0,0.257,0.162,0.164,0.939
2666437,1810.0,2560.0,8086.0,118.0,39.0,67.0,0.256,0.162,0.164,0.939
2666459,1732.0,3222.0,7720.0,78.0,28.0,38.0,0.256,0.162,0.165,0.939
2666471,1790.0,3072.0,7232.0,45.0,34.0,29.0,0.255,0.162,0.166,0.939
2666493,1944.0,2992.0,7252.0,78.0,51.0,-3.0,0.255,0.161,0.166,0.939
2666515,1924.0,3320.0,7380.0,33.0,53.0,-17.0,0.256,0.161,0.167,0.939
2666527,1920.0,2808.0,7400.0,17.0,54.0,-16.0,0.256,0.161,0.167,0.939
2666549,1732.0,3048.0,7472.0,73.0,71.0,-35.0,0.256,0.16,0.168,0.939
2666561,1560.0,3126.0,7384.0,65.0,63.0,-34.0,0.256,0.16,0.168,0.938
2666583,1336.0,3252.0,7296.0,65.0,49.0,-7.0,0.256,0.16,0.169,0.938
2666600,1200.0,3404.0,7354.0,71.0,27.0,9.0,0.256,0.16,0.17,0.938
2666612,1082.0,3640.0,7384.0,31.0,-4.0,35.0,0.256,0.16,0.17,0.938
2666634,1110.0,3506.0,7388.0,1.0,-27.0,42.0,0.255,0.16,0.17,0.938
2666646,1218.0,3552.0,7336.0,-4.0,-35.0,56.0,0.255,0.16,0.17,0.938
2666668,1358.0,3502.0,7338.0,-30.0,-51.0,35.0,0.255,0.161,0.169,0.938
2666690,1560.0,3410.0,7348.0,-49.0,-50.0,20.0,0.255,0.161,0.169,0.938
2666702,1670.0,3276.0,7382.0,-46.0,-30.0,-4.0,0.255,0.161,0.168,0.938
2666724,1700.0,3134.0,7452.0,-18.0,-14.0,-24.0,0.256,0.161,0.168,0.938
2666736,1798.0,3094.0,7426.0,28.0,19.0,-33.0,0.256,0.161,0.168,0.938
2666758,1778.0,3202.0,7420.0,48.0,35.0,-40.0,0.256,0.161,0.169,0.938
2666770,1762.0,3150.0,7438.0,56.0,49.0,-42.0,0.257,0.161,0.169,0.938
2666792,1690.0,3056.0,7518.0,51.0,55.0,-33.0,0.257,0.161,0.17,0.938
2666804,1660.0,3022.0,7388.0,60.0,55.0,-28.0,0.257,0.16,0.171,0.938
2666826,1618.0,3048.0,7426.0,54.0,46.0,-16.0,0.257,0.16,0.171,0.938
2666848,1646.0,3076.0,7412.0,54.0,38.0,-6.0,0.257,0.16,0.172,0.937
2666860,1578.0,3104.0,7484.0,50.0,36.0,9.0,0.257,0.16,0.172,0.937
2666882,1576.0,3074.0,7500.0,53.0,31.0,15.0,0.257,0.16,0.172,0.937
2666894,1548.0,3214.0,7456.0,56.0,25.0,22.0,0.257,0.16,0.173,0.937
2666916,1526.0,3352.0,7442.0,43.0,21.0,11.0,0.256,0.16,0.173,0.937
2666928,1524.0,3332.0,7426.0,34.0,12.0,5.0,0.256,0.16,0.174,0.937
2666950,1482.0,3360.0,7426.0,36.0,5.0,-7.0,0.256,0.16,0.174,0.937
2666962,1456.0,3362.0,7312.0,27.0,2.0,-10.0,0.257,0.16,0.174,0.937
2666984,1468.0,3360.0,7350.0,17.0,3.0,-16.0,0.257,0.16,0.174,0.937
2666996,1466.0,3364.0,7384.0,8.0,3.0,-13.0,0.257,0.16,0.174,0.937
2667018,1506.0,3358.0,7374.0,12.0,-1.0,-12.0,0.257,0.16,0.175,0.937
2667040,1538.0,3296.0,7346.0,9.0,-5.0,-7.0,0.257,0.16,0.175,0.937
2667052,1564.0,3302.0,7328.0,10.0,6.0,-5.0,0.257,0.16,0.175,0.937
2667074,1524.0,3314.0,7384.0,9.0,1.0,-11.0,0.257,0.16,0.175,0.937
2667086,1588.0,3276.0,7382.0,13.0,8.0,-6.0,0.257,0.16,0.175,0.937
2667108,1564.0,3274.0,7384.0,14.0,18.0,7.0,0.257,0.16,0.175,0.937
2667120,1520.0,3302.0,7308.0,20.0,25.0,5.0,0.257,0.16,0.175,0.937
2667142,1510.0,3280.0,7382.0,22.0,23.0,5.0,0.257,0.16,0.175,0.937
2667154,1456.0,3420.0,7366.0,18.0,22.0,7.0,0.257,0.159,0.176,0.937
2667176,1512.0,3394.0,7372.0,15.0,19.0,3.0,0.257,0.159,0.176,0.937
2667198,1554.0,3412.0,7370.0,15.0,17.0,0.0,0.257,0.159,0.176,0.937
2667210,1476.0,3346.0,7356.0,7.0,14.0,-6.0,0.257,0.159,0.176,0.937
2667232,1550.0,3346.0,7384.0,-2.0,13.0,-6.0,0.257,0.159,0.176,0.937
2667244,1574.0,3366.0,7434.0,-8.0,10.0,-8.0,0.258,0.159,0.176,0.937
2667266,1532.0,3246.0,7400.0,-13.0,7.0,-6.0,0.258,0.159,0.176,0.937
2667278,1556.0,3236.0,7368.0,-5.0,8.0,-7.0,0.258,0.159,0.176,0.937
2667300,1506.0,3212.0,7364.0,2.0,6.0,-5.0,0.258,0.159,0.176,0.937
2667312,1576.0,3284.0,7380.0,2.0,2.0,-2.0,0.258,0.159,0.176,0.937
2667334,1466.0,3248.0,7394.0,6.0,11.0,-4.0,0.258,0.159,0.176,0.937
2667356,1500.0,3272.0,7374.0,6.0,6.0,2.0,0.258,0.159,0.176,0.937
2667368,1534.0,3300.0,7446.0,1.0,5.0,-1.0,0.258,0.159,0.176,0.937
2667390,1524.0,3306.0,7338.0,-7.0,8.0,6.0,0.258,0.159,0.175,0.937
2667402,1504.0,3268.0,7386.0,4.0,8.0,6.0,0.258,0.159,0.176,0.937
2667424,1516.0,3330.0,7404.0,12.0,4.0,8.0,0.258,0.159,0.176,0.937
2667436,1496.0,3332.0,7370.0,5.0,8.0,2.0,0.258,0.159,0.176,0.937
2667458,1520.0,3400.0,7362.0,-2.0,11.0,1.0,0.258,0.159,0.176,0.937
2667470,1526.0,3234.0,7380.0,-1.0,7.0,-2.0,0.259,0.159,0.176,0.937
2667492,1496.0,3340.0,7378.0,1.0,3.0,2.0,0.259,0.159,0.176,0.937
2667504,1518.0,3304.0,7390.0,2.0,7.0,-4.0,0.259,0.159,0.176,0.937
2667526,1496.0,3314.0,7432.0,2.0,10.0,2.0,0.259,0.159,0.176,0.937
2667548,1598.0,3318.0,7368.0,6.0,11.0,3.0,0.259,0.159,0.176,0.937
2667560,1538.0,3298.0,7378.0,4.0,13.0,-1.0,0.259,0.159,0.176,0.937
2667582,1536.0,3290.0,7364.0,2.0,9.0,-7.0,0.259,0.159,0.176,0.936
2667594,1518.0,3302.0,7336.0,-2.0,7.0,-4.0,0.259,0.159,0.176,0.936
2667616,1558.0,3350.0,7324.0,0.0,8.0,-3.0,0.259,0.159,0.176,0.936
2667628,1466.0,3386.0,7396.0,-2.0,7.0,-6.0,0.259,0.158,0.176,0.936
2667650,1534.0,3326.0,7392.0,3.0,4.0,-8.0,0.259,0.158,0.176,0.936
2667662,1570.0,3294.0,7382.0,11.0,12.0,-5.0,0.259,0.158,0.176,0.936
2667684,1530.0,3344.0,7428.0,11.0,7.0,-4.0,0.259,0.158,0.176,0.936
2667706,1556.0,3310.0,7432.0,6.0,15.0,-5.0,0.26,0.158,0.176,0.936
2667718,1542.0,3310.0,7368.0,10.0,11.0,3.0,0.26,0.158,0.176,0.936
2667740,1458.0,3316.0,7366.0,3.0,16.0,4.0,0.26,0.158,0.176,0.936
2667752,1532.0,3324.0,7328.0,3.0,13.0,2.0,0.26,0.158,0.176,0.936
2667774,1504.0,3324.0,7414.0,6.0,15.0,2.0,0.26,0.158,0.176,0.936
2667786,1504.0,3332.0,7402.0,6.0,16.0,5.0,0.26,0.158,0.176,0.936
2667808,1540.0,3312.0,7400.0,6.0,17.0,-3.0,0.26,0.158,0.176,0.936
2667820,1486.0,3358.0,7378.0,4.0,14.0,-10.0,0.26,0.158,0.176,0.936
2667842,1520.0,3360.0,7298.0,3.0,3.0,-3.0,0.26,0.158,0.176,0.936
2667864,1496.0,3314.0,7438.0,-4.0,7.0,-5.0,0.26,0.158,0.176,0.936
2667876,1532.0,3374.0,7382.0,-3.0,5.0,-4.0,0.26,0.158,0.176,0.936
2667898,1546.0,3330.0,7378.0,-5.0,8.0,1.0,0.26,0.158,0.176,0.936
2667910,1506.0,3326.0,7376.0,-3.0,8.0,-4.0,0.26,0.158,0.176,0.936
2667932,1530.0,3338.0,7404.0,1.0,7.0,0.0,0.26,0.158,0.176,0.936
2667944,1518.0,3316.0,7396.0,-3.0,13.0,-1.0,0.26,0.158,0.176,0.936
2667966,1512.0,3340.0,7368.0,1.0,12.0,1.0,0.26,0.158,0.176,0.936
2667978,1512.0,3324.0,7398.0,1.0,11.0,3.0,0.26,0.158,0.176,0.936
2668000,1466.0,3314.0,7396.0,-2.0,10.0,-2.0,0.261,0.158,0.176,0.936
2668012,1534.0,3286.0,7360.0,-1.0,9.0,0.0,0.261,0.157,0.176,0.936
2668034,1538.0,3320.0,7362.0,-3.0,4.0,5.0,0.261,0.158,0.176,0.936
2668056,1554.0,3304.0,7412.0,-4.0,1.0,3.0,0.261,0.158,0.176,0.936
2668068,1440.0,3276.0,7388.0,-9.0,-1.0,-1.0,0.261,0.158,0.176,0.936
2668090,1492.0,3350.0,7374.0,-1.0,-1.0,1.0,0.261,0.158,0.176,0.936
2668102,1580.0,3392.0,7368.0,-14.0,-5.0,-3.0,0.261,0.158,0.175,0.936
2668124,1548.0,3266.0,7376.0,-15.0,1.0,-7.0,0.261,0.158,0.175,0.936
2668136,1538.0,3358.0,7356.0,-8.0,0.0,-8.0,0.261,0.158,0.175,0.936
2668158,1588.0,3338.0,7362.0,-9.0,2.0,-2.0,0.262,0.158,0.175,0.936
2668170,1522.0,3328.0,7376.0,-3.0,2.0,-7.0,0.262,0.158,0.175,0.936
2668192,1530.0,3346.0,7346.0,-7.0,10.0,-1.0,0.262,0.158,0.175,0.936
2668214,1590.0,3312.0,7376.0,-9.0,2.0,-5.0,0.262,0.158,0.175,0.936
2668226,1518.0,3298.0,7366.0,-4.0,12.0,-3.0,0.262,0.158,0.175,0.936
2668248,1494.0,3306.0,7372.0,-1.0,9.0,1.0,0.262,0.158,0.175,0.936
2668260,1554.0,3332.0,7378.0,7.0,5.0,-6.0,0.262,0.158,0.175,0.936
2668282,1480.0,3328.0,7370.0,1.0,11.0,-3.0,0.262,0.158,0.175,0.936
2668294,1574.0,3402.0,7396.0,-5.0,11.0,2.0,0.262,0.158,0.175,0.936
2668316,1524.0,3328.0,7362.0,-7.0,12.0,4.0,0.263,0.157,0.175,0.936
2668328,1536.0,3264.0,7386.0,-2.0,14.0,-3.0,0.263,0.157,0.175,0.936
2668350,1562.0,3284.0,7398.0,1.0,12.0,1.0,0.263,0.157,0.175,0.936
2668372,1556.0,3330.0,7376.0,-8.0,8.0,-4.0,0.263,0.157,0.175,0.936
2668384,1548.0,3330.0,7398.0,-3.0,13.0,-7.0,0.263,0.157,0.175,0.936
2668406,1536.0,3310.0,7360.0,-2.0,12.0,0.0,0.263,0.157,0.175,0.936
2668418,1542.0,3304.0,7386.0,1.0,9.0,-2.0,0.263,0.157,0.175,0.936
2668440,1508.0,3300.0,7360.0,1.0,10.0,-5.0,0.263,0.157,0.175,0.936
2668452,1574.0,3334.0,7356.0,-5.0,8.0,-5.0,0.263,0.157,0.175,0.936
2668474,1518.0,3306.0,7386.0,2.0,6.0,-1.0,0.263,0.157,0.175,0.936
2668486,1522.0,3282.0,7384.0,5.0,5.0,-6.0,0.263,0.157,0.175,0.936
2668508,1500.0,3296.0,7396.0,5.0,2.0,-8.0,0.263,0.157,0.175,0.936
2668520,1534.0,3368.0,7384.0,7.0,9.0,-1.0,0.263,0.157,0.175,0.936
2668542,1528.0,3338.0,7394.0,11.0,9.0,-3.0,0.263,0.157,0.175,0.936
2668564,1508.0,3292.0,7368.0,5.0,8.0,2.0,0.263,0.157,0.175,0.936
2668576,1580.0,3314.0,7364.0,16.0,-3.0,-4.0,0.263,0.157,0.175,0.936
2668603,1472.0,3348.0,7398.0,9.0,15.0,-7.0,0.264,0.157,0.175,0.936
2668615,1486.0,3320.0,7322.0,15.0,11.0,-13.0,0.264,0.157,0.175,0.935
2668627,1530.0,3356.0,7348.0,9.0,15.0,-12.0,0.264,0.157,0.175,0.935
2668649,1504.0,3332.0,7360.0,2.0,13.0,-4.0,0.264,0.157,0.175,0.935
2668661,1486.0,3302.0,7386.0,2.0,12.0,-1.0,0.264,0.157,0.175,0.935
2668683,1560.0,3348.0,7384.0,4.0,10.0,3.0,0.264,0.157,0.175,0.935
2668695,1508.0,3304.0,7362.0,4.0,10.0,-1.0,0.264,0.157,0.175,0.935
2668717,1540.0,3344.0,7338.0,3.0,10.0,-5.0,0.264,0.157,0.175,0.935
2668739,1490.0,3332.0,7346.0,4.0,16.0,-1.0,0.264,0.157,0.175,0.935
2668751,1514.0,3330.0,7400.0,10.0,8.0,0.0,0.264,0.157,0.175,0.935
2668773,1540.0,3344.0,7386.0,13.0,7.0,-4.0,0.264,0.157,0.175,0.935
2668785,1512.0,3382.0,7396.0,8.0,18.0,0.0,0.264,0.157,0.176,0.935
2668807,1488.0,3372.0,7354.0,15.0,14.0,-8.0,0.264,0.157,0.176,0.935
2668819,1534.0,3372.0,7348.0,11.0,10.0,-1.0,0.264,0.157,0.176,0.935
2668841,1496.0,3376.0,7366.0,8.0,10.0,0.0,0.264,0.157,0.176,0.935
2668853,1504.0,3334.0,7392.0,3.0,8.0,2.0,0.264,0.157,0.176,0.935
2668875,1508.0,3372.0,7378.0,4.0,7.0,1.0,0.264,0.157,0.176,0.935
2668897,1498.0,3330.0,7396.0,7.0,8.0,0.0,0.264,0.157,0.176,0.935
2668909,1540.0,3352.0,7396.0,4.0,13.0,-6.0,0.265,0.156,0.176,0.935
2668931,1528.0,3302.0,7332.0,3.0,13.0,-7.0,0.265,0.156,0.176,0.935
2668943,1498.0,3402.0,7414.0,6.0,15.0,-8.0,0.265,0.156,0.176,0.935
2668965,1488.0,3412.0,7378.0,11.0,13.0,-8.0,0.265,0.156,0.176,0.935
2668977,1478.0,3380.0,7394.0,13.0,11.0,-7.0,0.265,0.156,0.176,0.935
2668999,1480.0,3360.0,7372.0,15.0,7.0,-12.0,0.265,0.156,0.176,0.935
2669011,1456.0,3364.0,7276.0,10.0,8.0,-10.0,0.265,0.156,0.177,0.935
2669033,1510.0,3364.0,7332.0,11.0,19.0,-9.0,0.265,0.156,0.177,0.935
2669055,1504.0,3382.0,7384.0,14.0,15.0,-9.0,0.265,0.156,0.177,0.935
2669067,1506.0,3386.0,7352.0,18.0,10.0,-12.0,0.265,0.156,0.177,0.935
2669089,1502.0,3376.0,7322.0,9.0,11.0,-8.0,0.265,0.156,0.177,0.935
2669101,1522.0,3344.0,7342.0,5.0,8.0,-10.0,0.266,0.156,0.177,0.935
2669123,1504.0,3408.0,7342.0,6.0,8.0,-9.0,0.266,0.156,0.177,0.935
2669135,1506.0,3416.0,7358.0,1.0,12.0,-4.0,0.266,0.156,0.177,0.935
2669157,1416.0,3404.0,7334.0,-5.0,6.0,3.0,0.266,0.156,0.177,0.935
2669169,1428.0,3378.0,7338.0,-12.0,2.0,9.0,0.266,0.156,0.177,0.935
2669191,1476.0,3380.0,7324.0,-18.0,0.0,6.0,0.266,0.156,0.177,0.935
2669203,1476.0,3378.0,7358.0,-22.0,0.0,5.0,0.266,0.156,0.177,0.935
2669225,1510.0,3412.0,7334.0,-21.0,-3.0,14.0,0.266,0.156,0.176,0.935
2669247,1516.0,3362.0,7378.0,-18.0,-2.0,8.0,0.266,0.156,0.176,0.935
2669259,1516.0,3374.0,7368.0,-14.0,1.0,5.0,0.266,0.156,0.176,0.935
2669281,1554.0,3312.0,7352.0,-15.0,3.0,7.0,0.266,0.156,0.176,0.935
2669293,1546.0,3354.0,7364.0,-10.0,4.0,2.0,0.266,0.156,0.176,0.935
2669315,1524.0,3318.0,7352.0,-8.0,6.0,0.0,0.266,0.156,0.176,0.935
2669327,1570.0,3360.0,7372.0,-7.0,5.0,-3.0,0.266,0.156,0.176,0.935
2669349,1522.0,3410.0,7340.0,-1.0,5.0,-4.0,0.266,0.156,0.176,0.935
2669361,1518.0,3394.0,7400.0,3.0,8.0,-4.0,0.266,0.156,0.176,0.935
2669383,1458.0,3340.0,7424.0,-1.0,9.0,-3.0,0.266,0.156,0.176,0.935
2669405,1508.0,3332.0,7398.0,-2.0,6.0,-7.0,0.266,0.156,0.176,0.935
2669417,1536.0,3372.0,7406.0,1.0,7.0,-6.0,0.266,0.156,0.176,0.935
2669439,1494.0,3394.0,7382.0,2.0,6.0,1.0,0.266,0.156,0.176,0.935
2669451,1566.0,3378.0,7434.0,7.0,13.0,-2.0,0.266,0.156,0.176,0.935
2669473,1498.0,3372.0,7344.0,-4.0,11.0,-1.0,0.266,0.156,0.176,0.935
2669485,1530.0,3334.0,7340.0,-3.0,7.0,-4.0,0.266,0.156,0.176,0.935
2669507,1502.0,3320.0,7364.0,-3.0,10.0,2.0,0.266,0.156,0.176,0.935
2669519,1552.0,3384.0,7388.0,0.0,13.0,2.0,0.266,0.156,0.176,0.935
2669541,1510.0,3300.0,7328.0,1.0,12.0,-1.0,0.266,0.156,0.176,0.935
2669563,1492.0,3320.0,7354.0,2.0,9.0,-6.0,0.266,0.156,0.176,0.935
2669575,1486.0,3330.0,7338.0,1.0,5.0,2.0,0.266,0.156,0.176,0.935
2669597,1514.0,3348.0,7360.0,-5.0,3.0,0.0,0.267,0.156,0.176,0.935
2669609,1446.0,3382.0,7352.0,-3.0,7.0,2.0,0.267,0.156,0.176,0.935
2669631,1502.0,3420.0,7338.0,-1.0,2.0,1.0,0.267,0.156,0.175,0.935
2669643,1526.0,3388.0,7362.0,-14.0,8.0,-1.0,0.267,0.156,0.175,0.935
2669665,1488.0,3408.0,7362.0,-5.0,2.0,6.0,0.267,0.156,0.175,0.935
2669677,1536.0,3332.0,7408.0,-1.0,8.0,1.0,0.267,0.156,0.175,0.935
2669699,1562.0,3290.0,7360.0,-7.0,7.0,-1.0,0.267,0.156,0.175,0.935
2669711,1518.0,3368.0,7332.0,5.0,10.0,-3.0,0.267,0.156,0.175,0.935
2669733,1496.0,3404.0,7368.0,0.0,9.0,-6.0,0.267,0.156,0.175,0.935
2669755,1486.0,3344.0,7384.0,-2.0,9.0,-3.0,0.267,0.156,0.175,0.935
2669767,1460.0,3382.0,7374.0,0.0,5.0,0.0,0.267,0.156,0.175,0.935
2669789,1466.0,3334.0,7382.0,1.0,4.0,-4.0,0.267,0.156,0.175,0.935
2669801,1472.0,3320.0,7360.0,-3.0,3.0,0.0,0.267,0.155,0.175,0.935
2669823,1510.0,3348.0,7330.0,-1.0,6.0,-3.0,0.267,0.155,0.175,0.935
2669835,1530.0,3368.0,7350.0,-5.0,5.0,-6.0,0.267,0.155,0.175,0.935
2669857,1500.0,3362.0,7352.0,-4.0,6.0,-7.0,0.267,0.155,0.175,0.935
2669869,1430.0,3344.0,7434.0,-8.0,13.0,-3.0,0.267,0.155,0.175,0.935
2669891,1470.0,3340.0,7384.0,8.0,8.0,-6.0,0.267,0.155,0.175,0.935
2669913,1496.0,3378.0,7322.0,0.0,9.0,1.0,0.268,0.155,0.175,0.935
2669925,1490.0,3376.0,7332.0,2.0,7.0,-5.0,0.268,0.155,0.175,0.935
2669947,1492.0,3374.0,7366.0,-4.0,8.0,3.0,0.268,0.155,0.175,0.935
2669959,1506.0,3390.0,7392.0,-1.0,8.0,-4.0,0.268,0.155,0.175,0.935
2669981,1496.0,3382.0,7418.0,4.0,7.0,-1.0,0.268,0.155,0.175,0.935
2669993,1482.0,3406.0,7398.0,-1.0,13.0,2.0,0.268,0.155,0.175,0.935
2670015,1480.0,3352.0,7346.0,1.0,8.0,1.0,0.268,0.155,0.175,0.935
2670027,1562.0,3346.0,7346.0,-5.0,4.0,7.0,0.268,0.155,0.175,0.935
2670049,1488.0,3364.0,7284.0,-7.0,1.0,0.0,0.268,0.155,0.175,0.935
2670071,1444.0,3286.0,7388.0,-8.0,2.0,2.0,0.268,0.155,0.175,0.935
2670083,1526.0,3406.0,7442.0,-2.0,5.0,-2.0,0.268,0.155,0.175,0.935
2670105,1506.0,3288.0,7386.0,-4.0,10.0,1.0,0.268,0.155,0.175,0.935
2670117,1492.0,3400.0,7376.0,0.0,8.0,0.0,0.268,0.155,0.175,0.935
2670139,1472.0,3336.0,7376.0,-1.0,9.0,2.0,0.268,0.155,0.175,0.935
2670151,1464.0,3368.0,7370.0,-3.0,9.0,-7.0,0.268,0.155,0.175,0.935
2670173,1476.0,3380.0,7384.0,4.0,12.0,5.0,0.268,0.155,0.175,0.935
2670185,1504.0,3400.0,7354.0,5.0,8.0,0.0,0.268,0.155,0.175,0.935
2670207,1546.0,3328.0,7376.0,-3.0,11.0,-3.0,0.268,0.155,0.175,0.935
2670219,1526.0,3418.0,7350.0,-4.0,13.0,-4.0,0.268,0.155,0.175,0.935
2670241,1474.0,3348.0,7412.0,-5.0,6.0,-6.0,0.268,0.155,0.175,0.935
2670263,1486.0,3322.0,7336.0,3.0,8.0,0.0,0.268,0.155,0.175,0.935
2670275,1510.0,3330.0,7398.0,5.0,6.0,-2.0,0.268,0.155,0.175,0.935
2670297,1472.0,3350.0,7400.0,4.0,4.0,-10.0,0.269,0.155,0.175,0.935
2670309,1470.0,3324.0,7356.0,-1.0,4.0,-3.0,0.269,0.155,0.175,0.934
2670331,1500.0,3344.0,7356.0,8.0,8.0,-2.0,0.269,0.155,0.175,0.934
2670343,1556.0,3362.0,7364.0,-3.0,6.0,-6.0,0.269,0.155,0.175,0.934
2670365,1498.0,3388.0,7368.0,1.0,6.0,-1.0,0.269,0.155,0.175,0.934
2670377,1496.0,3378.0,7380.0,-8.0,2.0,0.0,0.269,0.155,0.175,0.934
2670399,1496.0,3356.0,7400.0,0.0,7.0,-3.0,0.269,0.155,0.175,0.934
2670421,1466.0,3346.0,7350.0,-3.0,6.0,-5.0,0.269,0.155,0.175,0.934
2670433,1514.0,3362.0,7396.0,-1.0,8.0,-7.0,0.269,0.155,0.175,0.934
2670455,1506.0,3362.0,7360.0,-8.0,6.0,0.0,0.269,0.155,0.175,0.934
2670467,1478.0,3320.0,7398.0,0.0,12.0,-5.0,0.269,0.155,0.175,0.934
2670489,1528.0,3368.0,7338.0,5.0,7.0,-4.0,0.269,0.155,0.175,0.934
2670501,1506.0,3326.0,7376.0,-3.0,9.0,-2.0,0.269,0.155,0.175,0.934
2670523,1506.0,3346.0,7358.0,-3.0,6.0,-5.0,0.269,0.155,0.175,0.934
2670535,1432.0,3360.0,7328.0,-3.0,8.0,0.0,0.269,0.155,0.175,0.934
2670557,1478.0,3398.0,7370.0,-4.0,4.0,-1.0,0.269,0.155,0.175,0.934
2670569,1478.0,3368.0,7364.0,2.0,4.0,-1.0,0.269,0.155,0.175,0.934
2670592,1468.0,3350.0,7374.0,6.0,6.0,-2.0,0.269,0.155,0.175,0.934
2670609,1470.0,3334.0,7350.0,1.0,4.0,-4.0,0.269,0.155,0.175,0.934
2670631,1486.0,3314.0,7366.0,-5.0,8.0,-7.0,0.269,0.155,0.175,0.934
2670643,1530.0,3362.0,7328.0,-2.0,11.0,-6.0,0.269,0.155,0.175,0.934
2670665,1508.0,3358.0,7342.0,-2.0,8.0,-8.0,0.27,0.155,0.175,0.934
2670677,1498.0,3390.0,7338.0,3.0,12.0,-4.0,0.27,0.155,0.175,0.934
2670699,1526.0,3356.0,7364.0,5.0,8.0,-3.0,0.27,0.155,0.175,0.934
2670711,1492.0,3372.0,7374.0,3.0,9.0,-5.0,0.27,0.154,0.175,0.934
2670733,1458.0,3326.0,7372.0,1.0,2.0,-6.0,0.27,0.155,0.175,0.934
2670745,1430.0,3402.0,7350.0,5.0,6.0,0.0,0.27,0.155,0.175,0.934
2670767,1468.0,3306.0,7366.0,12.0,6.0,-6.0,0.27,0.155,0.175,0.934
2670789,1458.0,3344.0,7370.0,16.0,10.0,-3.0,0.27,0.155,0.175,0.934
2670801,1498.0,3362.0,7380.0,14.0,8.0,-4.0,0.27,0.155,0.175,0.934
2670823,1552.0,3348.0,7360.0,16.0,9.0,-9.0,0.27,0.155,0.175,0.934
2670835,1552.0,3390.0,7390.0,27.0,16.0,-16.0,0.27,0.154,0.176,0.934
2670857,1584.0,3432.0,7384.0,32.0,15.0,-19.0,0.27,0.154,0.176,0.934
2670869,1570.0,3314.0,7396.0,36.0,21.0,-28.0,0.27,0.154,0.176,0.934
2670891,1534.0,3310.0,7370.0,52.0,27.0,-25.0,0.27,0.154,0.177,0.934
2670903,1540.0,3382.0,7344.0,52.0,26.0,-29.0,0.27,0.154,0.177,0.934
2670925,1502.0,3354.0,7324.0,51.0,24.0,-33.0,0.271,0.154,0.178,0.933
2670937,1516.0,3360.0,7390.0,56.0,22.0,-31.0,0.271,0.154,0.179,0.933
2670959,1472.0,3298.0,7378.0,68.0,34.0,-33.0,0.271,0.154,0.179,0.933
2670981,1550.0,3328.0,7372.0,91.0,49.0,-37.0,0.271,0.154,0.18,0.933
2670993,1554.0,3314.0,7460.0,116.0,53.0,-36.0,0.271,0.154,0.181,0.933
2671015,1688.0,3232.0,7424.0,146.0,79.0,-53.0,0.271,0.153,0.183,0.933
2671027,1982.0,3052.0,7606.0,183.0,113.0,-62.0,0.271,0.153,0.185,0.932
2671049,2610.0,2460.0,7736.0,275.0,168.0,-86.0,0.271,0.152,0.187,0.932
2671061,3008.0,2090.0,7862.0,457.0,277.0,-102.0,0.271,0.151,0.191,0.931
2671083,2950.0,1834.0,7684.0,653.0,380.0,-76.0,0.27,0.149,0.198,0.93
2671095,2326.0,2282.0,7644.0,776.0,476.0,19.0,0.268,0.147,0.205,0.93
2671117,1946.0,2606.0,7580.0,788.0,497.0,116.0,0.265,0.145,0.213,0.929
2671139,1636.0,2780.0,7266.0,738.0,491.0,175.0,0.261,0.143,0.22,0.929
2671151,1596.0,2876.0,6698.0,634.0,500.0,221.0,0.257,0.141,0.226,0.929
2671173,1678.0,2528.0,7276.0,722.0,513.0,307.0,0.252,0.139,0.233,0.929
2671185,1526.0,2182.0,7336.0,1004.0,538.0,333.0,0.247,0.138,0.242,0.928
2671207,1698.0,2872.0,6720.0,1129.0,525.0,281.0,0.242,0.137,0.252,0.927
2671219,1544.0,2830.0,6066.0,1114.0,454.0,378.0,0.236,0.136,0.262,0.926
2671241,1460.0,2962.0,5696.0,1131.0,419.0,428.0,0.23,0.136,0.272,0.924
2671253,1604.0,3444.0,5638.0,1176.0,404.0,443.0,0.224,0.136,0.283,0.923
2671275,1728.0,3766.0,5576.0,1219.0,336.0,548.0,0.216,0.137,0.293,0.921
2671297,1758.0,3888.0,5246.0,1333.0,258.0,753.0,0.208,0.14,0.304,0.919
2671309,1844.0,3622.0,5018.0,1577.0,172.0,986.0,0.196,0.144,0.317,0.917
2671331,1916.0,3712.0,4760.0,1968.0,95.0,1127.0,0.184,0.151,0.332,0.913
2671343,2072.0,4496.0,4460.0,2243.0,46.0,1236.0,0.17,0.158,0.349,0.908
2671365,2344.0,6068.0,4458.0,2119.0,-12.0,1375.0,0.155,0.166,0.365,0.903
2671377,2320.0,7520.0,4488.0,1620.0,-49.0,1511.0,0.14,0.174,0.376,0.899
2671399,2226.0,7932.0,3972.0,983.0,-283.0,1567.0,0.126,0.183,0.382,0.897
2671411,2282.0,7020.0,3188.0,649.0,-456.0,1470.0,0.114,0.193,0.384,0.895
2671433,2350.0,6924.0,3188.0,583.0,-533.0,1209.0,0.105,0.203,0.387,0.893
2671455,2390.0,7626.0,3544.0,371.0,-575.0,975.0,0.098,0.212,0.388,0.892
2671467,2064.0,8086.0,4014.0,-13.0,-602.0,894.0,0.093,0.22,0.386,0.891
2671489,2030.0,7558.0,4460.0,-259.0,-660.0,962.0,0.088,0.228,0.381,0.891
2671501,1960.0,6812.0,4496.0,-318.0,-644.0,982.0,0.083,0.237,0.376,0.892
2671523,2038.0,6090.0,4424.0,-303.0,-679.0,1001.0,0.077,0.246,0.371,0.892
2671535,2144.0,5326.0,4322.0,-161.0,-710.0,1035.0,0.071,0.255,0.367,0.892
2671557,2338.0,5274.0,4124.0,-106.0,-727.0,1052.0,0.065,0.265,0.363,0.891
2671569,2724.0,5232.0,4006.0,-178.0,-767.0,1116.0,0.059,0.275,0.358,0.89
2671591,3102.0,4962.0,3866.0,-226.0,-798.0,1188.0,0.052,0.285,0.353,0.89
2671603,3614.0,4684.0,3758.0,-166.0,-835.0,1235.0,0.045,0.296,0.348,0.888
2671625,4216.0,4668.0,3812.0,-9.0,-848.0,1282.0,0.037,0.307,0.344,0.887
2671647,4740.0,4962.0,3900.0,103.0,-847.0,1335.0,0.028,0.318,0.341,0.884
2671659,5188.0,4936.0,3962.0,108.0,-843.0,1415.0,0.018,0.33,0.338,0.881
2671681,5252.0,4878.0,3928.0,94.0,-838.0,1399.0,0.009,0.341,0.334,0.879
2671693,5714.0,4846.0,3784.0,87.0,-871.0,1446.0,0.001,-0.353,-0.33,-0.875
2671715,6048.0,4784.0,3744.0,82.0,-879.0,1471.0,0.011,-0.365,-0.326,-0.872
2671727,6402.0,4680.0,3686.0,82.0,-895.0,1466.0,0.021,-0.377,-0.322,-0.868
2671749,6750.0,4722.0,3724.0,76.0,-915.0,1449.0,0.031,-0.388,-0.318,-0.864
2671771,6908.0,4612.0,3806.0,75.0,-911.0,1448.0,0.04,-0.4,-0.314,-0.86
2671783,7114.0,4556.0,3824.0,69.0,-903.0,1450.0,0.05,-0.411,-0.309,-0.856
2671805,7274.0,4480.0,3914.0,64.0,-886.0,1413.0,0.059,-0.422,-0.305,-0.852
2671817,7330.0,4476.0,4002.0,60.0,-855.0,1370.0,0.068,-0.433,-0.301,-0.847
2671839,7440.0,4440.0,4098.0,61.0,-802.0,1314.0,0.077,-0.443,-0.297,-0.843
2671851,7416.0,4354.0,4088.0,59.0,-745.0,1249.0,0.086,-0.452,-0.293,-0.838
2671873,7420.0,4346.0,4104.0,46.0,-687.0,1158.0,0.093,-0.46,-0.289,-0.834
2671885,7340.0,4222.0,4196.0,35.0,-633.0,1051.0,0.101,-0.468,-0.286,-0.83
2671907,7374.0,4104.0,4184.0,20.0,-562.0,937.0,0.107,-0.474,-0.282,-0.827
2671919,7326.0,3976.0,4184.0,14.0,-496.0,817.0,0.113,-0.48,-0.28,-0.824
2671941,7272.0,3950.0,4268.0,25.0,-428.0,699.0,0.118,-0.485,-0.278,-0.821
2671953,7112.0,3744.0,4454.0,6.0,-369.0,603.0,0.122,-0.489,-0.276,-0.818
2671975,6916.0,3602.0,4788.0,-15.0,-327.0,538.0,0.126,-0.493,-0.274,-0.816
2671997,6742.0,3584.0,4980.0,9.0,-261.0,507.0,0.129,-0.496,-0.272,-0.814
2672009,6638.0,3668.0,5094.0,119.0,-188.0,498.0,0.134,-0.499,-0.271,-0.812
2672031,6676.0,3956.0,4908.0,230.0,-88.0,487.0,0.139,-0.5,-0.271,-0.811
2672043,6810.0,4156.0,4382.0,287.0,0.0,442.0,0.144,-0.501,-0.272,-0.809
2672065,6910.0,4188.0,3700.0,294.0,92.0,338.0,0.149,-0.5,-0.273,-0.808
2672077,7060.0,4276.0,3288.0,239.0,168.0,212.0,0.152,-0.499,-0.274,-0.808
2672099,7092.0,4256.0,2982.0,157.0,225.0,83.0,0.155,-0.496,-0.275,-0.809
2672111,7072.0,4154.0,2922.0,82.0,249.0,-59.0,0.156,-0.494,-0.277,-0.809
2672133,7138.0,3964.0,2888.0,23.0,248.0,-181.0,0.155,-0.491,-0.278,-0.811
2672155,7104.0,3766.0,3088.0,-15.0,245.0,-287.0,0.154,-0.489,-0.279,-0.812
2672167,6966.0,3712.0,3242.0,-33.0,246.0,-371.0,0.152,-0.486,-0.281,-0.814
2672189,6806.0,3594.0,3368.0,-46.0,241.0,-430.0,0.15,-0.482,-0.283,-0.815
2672201,6772.0,3640.0,3568.0,-22.0,235.0,-478.0,0.147,-0.479,-0.285,-0.817
2672223,6800.0,3988.0,3770.0,27.0,254.0,-537.0,0.145,-0.475,-0.288,-0.819
2672235,6918.0,4048.0,3764.0,43.0,259.0,-579.0,0.141,-0.471,-0.291,-0.821
2672257,6914.0,4020.0,3686.0,186.0,308.0,-650.0,0.139,-0.467,-0.295,-0.822
2672269,7098.0,4740.0,4036.0,296.0,344.0,-775.0,0.135,-0.461,-0.301,-0.824
2672291,7342.0,5582.0,4076.0,317.0,392.0,-935.0,0.131,-0.455,-0.307,-0.826
2672303,7470.0,6070.0,4104.0,237.0,484.0,-1119.0,0.126,-0.448,-0.313,-0.828
2672325,7468.0,7090.0,4114.0,114.0,571.0,-1332.0,0.118,-0.439,-0.319,-0.831
2672347,7408.0,7072.0,4104.0,108.0,656.0,-1518.0,0.11,-0.429,-0.326,-0.835
2672359,7354.0,7300.0,3964.0,148.0,768.0,-1763.0,0.099,-0.417,-0.334,-0.839
2672381,7354.0,8760.0,4180.0,-542.0,728.0,-2026.0,0.084,-0.405,-0.337,-0.846
2672393,7538.0,9172.0,5048.0,-1249.0,739.0,-2282.0,0.065,-0.393,-0.335,-0.854
2672415,7742.0,8806.0,5470.0,-1768.0,829.0,-2504.0,0.041,-0.379,-0.33,-0.863
2672427,8024.0,7566.0,5330.0,-1760.0,1017.0,-2676.0,0.017,-0.363,-0.325,-0.873
2672449,7720.0,7462.0,5204.0,-1501.0,1255.0,-2828.0,0.006,0.344,0.322,0.882
2672471,7718.0,6932.0,5242.0,-1225.0,1442.0,-2963.0,0.03,0.323,0.322,0.889
2672483,7702.0,6934.0,5038.0,-919.0,1621.0,-3088.0,0.052,0.3,0.324,0.896
2672505,7114.0,6188.0,4486.0,-540.0,1751.0,-3106.0,0.074,0.275,0.329,0.9
2672517,6360.0,6064.0,4480.0,-214.0,1798.0,-3155.0,0.095,0.25,0.336,0.903
2672539,6294.0,6566.0,5878.0,-684.0,1921.0,-2982.0,0.115,0.224,0.339,0.906
2672551,6978.0,622.0,4052.0,-1770.0,1618.0,-1596.0,0.126,0.204,0.329,0.913
2672573,5376.0,-4298.0,5644.0,912.0,2389.0,-2285.0,0.136,0.178,0.342,0.913
2672585,1792.0,6442.0,5480.0,3020.0,1902.0,-3656.0,0.155,0.154,0.376,0.901
2672612,3480.0,10090.0,4436.0,2020.0,1176.0,-3473.0,0.177,0.135,0.399,0.89
2672624,3414.0,9728.0,3682.0,118.0,1000.0,-2601.0,0.195,0.117,0.405,0.886
2672646,2428.0,6868.0,3924.0,-687.0,973.0,-2652.0,0.213,0.098,0.404,0.884
2672658,2510.0,5902.0,4658.0,-905.0,1000.0,-3104.0,0.235,0.077,0.401,0.882
2672680,2154.0,5596.0,4544.0,-847.0,1054.0,-3018.0,0.256,0.056,0.398,0.879
2672692,1462.0,5328.0,4836.0,-542.0,1141.0,-2952.0,0.276,0.034,0.398,0.874
2672714,862.0,4124.0,4490.0,-221.0,1129.0,-2830.0,0.295,0.014,0.4,0.868
2672726,114.0,4082.0,4360.0,37.0,1134.0,-2682.0,0.312,-0.005,0.403,0.86
2672748,-282.0,3940.0,4008.0,223.0,1022.0,-2690.0,0.329,-0.023,0.408,0.851
2672760,-488.0,4226.0,4148.0,358.0,962.0,-2681.0,0.347,-0.04,0.413,0.841
2672782,-1162.0,4144.0,4022.0,451.0,790.0,-2617.0,0.364,-0.054,0.418,0.831
2672794,-1044.0,1402.0,3908.0,869.0,639.0,-2621.0,0.382,-0.067,0.425,0.818
2672816,-30.0,5812.0,3810.0,830.0,919.0,-147.0,0.38,-0.071,0.435,0.813
2672838,-3216.0,3858.0,3940.0,653.0,622.0,-1199.0,0.387,-0.078,0.441,0.806
2672850,-2332.0,3804.0,4330.0,896.0,301.0,-2337.0,0.404,-0.087,0.447,0.793
2672872,-1700.0,5668.0,4598.0,988.0,213.0,-2392.0,0.422,-0.094,0.453,0.78
2672884,-2200.0,5024.0,4692.0,887.0,129.0,-2220.0,0.438,-0.101,0.458,0.767
2672906,-3064.0,3056.0,3910.0,858.0,124.0,-2086.0,0.453,-0.107,0.462,0.755
2672918,-4016.0,596.0,3416.0,942.0,76.0,-2097.0,0.469,-0.112,0.467,0.741
2672940,-4680.0,-700.0,3606.0,1046.0,41.0,-2191.0,0.485,-0.117,0.472,0.727
2672962,-4980.0,140.0,4068.0,1071.0,-71.0,-2105.0,0.5,-0.121,0.477,0.713
2672974,-4852.0,-182.0,4372.0,740.0,-151.0,-1491.0,0.512,-0.123,0.479,0.702
2672996,-5062.0,-2268.0,4322.0,97.0,-154.0,-766.0,0.518,-0.125,0.478,0.698
2673008,-4848.0,-3600.0,4068.0,-327.0,-97.0,-122.0,0.519,-0.126,0.475,0.699
2673030,-4512.0,-2472.0,3924.0,-549.0,-8.0,510.0,0.515,-0.127,0.472,0.704
2673042,-4188.0,-1400.0,3900.0,-803.0,-53.0,1016.0,0.508,-0.125,0.468,0.712
2673064,-3620.0,-498.0,3634.0,-882.0,-95.0,1657.0,0.496,-0.121,0.463,0.724
2673076,-3424.0,-338.0,3290.0,-926.0,-236.0,2157.0,0.482,-0.115,0.458,0.738
2673098,-3070.0,266.0,3148.0,-743.0,-438.0,2385.0,0.467,-0.104,0.454,0.752
2673110,-2342.0,1392.0,3752.0,-483.0,-636.0,2736.0,0.45,-0.09,0.45,0.766
2673132,-1394.0,3452.0,4244.0,-110.0,-741.0,3065.0,0.431,-0.072,0.449,0.779
2673154,-1292.0,4212.0,3818.0,115.0,-803.0,3204.0,0.412,-0.052,0.448,0.792
2673166,-1420.0,3816.0,3808.0,159.0,-857.0,2992.0,0.393,-0.033,0.447,0.803
2673188,-1084.0,4384.0,4264.0,369.0,-881.0,2545.0,0.378,-0.014,0.448,0.81
2673200,360.0,6960.0,4856.0,690.0,-898.0,2123.0,0.366,0.005,0.45,0.815
2673222,148.0,7194.0,4744.0,785.0,-880.0,2299.0,0.352,0.025,0.452,0.819
2673234,678.0,7176.0,5026.0,577.0,-740.0,2995.0,0.332,0.046,0.453,0.826
2673256,170.0,7056.0,5044.0,277.0,-630.0,3224.0,0.31,0.066,0.452,0.834
2673268,516.0,8290.0,4876.0,37.0,-703.0,3088.0,0.289,0.084,0.448,0.842
2673290,1210.0,7908.0,5130.0,-283.0,-726.0,3028.0,0.268,0.102,0.441,0.85
2673302,1652.0,9356.0,4932.0,-288.0,-751.0,2897.0,0.249,0.119,0.434,0.858
2673324,2056.0,7848.0,4688.0,-342.0,-768.0,2868.0,0.229,0.137,0.426,0.864
2673346,1654.0,5790.0,4392.0,-160.0,-723.0,2801.0,0.21,0.153,0.419,0.87
2673358,1638.0,5504.0,4732.0,218.0,-811.0,2534.0,0.192,0.17,0.416,0.873
2673380,2590.0,7294.0,3942.0,392.0,-940.0,2411.0,0.175,0.188,0.413,0.873
2673392,4646.0,6082.0,6882.0,1481.0,-444.0,2398.0,0.155,0.204,0.42,0.871
2673414,4800.0,9318.0,8212.0,3685.0,352.0,1784.0,0.132,0.213,0.447,0.859
2673426,3604.0,13290.0,6162.0,2516.0,398.0,1961.0,0.11,0.221,0.464,0.851
2673448,2746.0,8848.0,3102.0,-851.0,-21.0,2655.0,0.09,0.232,0.451,0.857
2673460,2226.0,3976.0,2274.0,-1867.0,-377.0,2450.0,0.076,0.244,0.43,0.866
2673482,3456.0,4950.0,3052.0,-974.0,-658.0,1988.0,0.065,0.256,0.417,0.869
2673504,4264.0,6270.0,3208.0,-366.0,-796.0,1920.0,0.053,0.27,0.409,0.87
2673516,5252.0,6446.0,3220.0,-113.0,-810.0,2187.0,0.039,0.285,0.403,0.869
2673538,5770.0,6208.0,3158.0,-151.0,-896.0,2319.0,0.023,0.301,0.395,0.868
2673550,6120.0,5598.0,3300.0,-310.0,-911.0,2334.0,0.009,0.317,0.386,0.866
2673572,6306.0,5950.0,3558.0,-273.0,-821.0,2201.0,0.006,-0.332,-0.377,-0.865
2673584,6448.0,5836.0,3420.0,24.0,-727.0,2207.0,0.021,-0.345,-0.37,-0.862
2673606,6714.0,5754.0,3132.0,330.0,-605.0,2342.0,0.039,-0.358,-0.365,-0.858
2673618,6712.0,5696.0,3154.0,464.0,-573.0,2371.0,0.058,-0.371,-0.361,-0.854
2673640,6856.0,5676.0,3216.0,423.0,-638.0,2345.0,0.076,-0.383,-0.357,-0.848
2673662,7158.0,5648.0,3050.0,328.0,-719.0,2340.0,0.093,-0.396,-0.352,-0.843
2673674,7276.0,5344.0,2852.0,290.0,-765.0,2342.0,0.111,-0.41,-0.346,-0.837
2673696,7422.0,5514.0,3042.0,246.0,-778.0,2248.0,0.127,-0.423,-0.34,-0.83
2673708,7504.0,6040.0,3422.0,108.0,-790.0,2112.0,0.141,-0.435,-0.334,-0.824
2673730,7564.0,5952.0,3532.0,-79.0,-753.0,2030.0,0.155,-0.447,-0.326,-0.818
2673742,7432.0,5700.0,3516.0,-196.0,-695.0,1932.0,0.167,-0.459,-0.318,-0.813
2673764,7374.0,5514.0,3538.0,-208.0,-628.0,1752.0,0.177,-0.469,-0.31,-0.808
2673776,7122.0,5552.0,3502.0,-159.0,-549.0,1511.0,0.187,-0.477,-0.303,-0.803
2673798,6972.0,5908.0,3802.0,-128.0,-478.0,1252.0,0.195,-0.485,-0.297,-0.799
2673810,6910.0,6234.0,4012.0,-123.0,-416.0,961.0,0.2,-0.491,-0.293,-0.796
2673832,6922.0,6876.0,4252.0,-189.0,-335.0,669.0,0.204,-0.495,-0.289,-0.793
2673854,6940.0,6784.0,4466.0,-316.0,-262.0,308.0,0.204,-0.498,-0.286,-0.792
2673866,7008.0,6718.0,4696.0,-258.0,-129.0,-100.0,0.202,-0.5,-0.285,-0.792
2673888,6914.0,6290.0,4896.0,48.0,60.0,-541.0,0.199,-0.497,-0.288,-0.794
2673900,7064.0,6580.0,5306.0,296.0,220.0,-946.0,0.195,-0.493,-0.295,-0.795
2673922,7178.0,7008.0,5558.0,242.0,301.0,-1283.0,0.187,-0.486,-0.302,-0.798
2673934,7166.0,7296.0,5632.0,-83.0,376.0,-1504.0,0.177,-0.479,-0.308,-0.803
2673956,7208.0,7314.0,5676.0,-467.0,430.0,-1719.0,0.164,-0.472,-0.312,-0.808
2673968,7452.0,6996.0,5352.0,-708.0,517.0,-2007.0,0.148,-0.463,-0.315,-0.815
2673990,8030.0,6520.0,5302.0,-713.0,692.0,-2302.0,0.13,-0.451,-0.318,-0.823
2674002,8178.0,6876.0,5072.0,-514.0,909.0,-2577.0,0.111,-0.437,-0.324,-0.831
2674024,8318.0,7024.0,4822.0,-419.0,1094.0,-2780.0,0.092,-0.42,-0.332,-0.84
2674046,8320.0,7430.0,4634.0,-386.0,1225.0,-2984.0,0.071,-0.402,-0.339,-0.848
2674058,8334.0,7172.0,4622.0,-453.0,1307.0,-3157.0,0.049,-0.381,-0.347,-0.856
2674080,8112.0,7202.0,4386.0,-517.0,1351.0,-3286.0,0.026,-0.36,-0.354,-0.863
2674092,7816.0,7156.0,4202.0,-626.0,1391.0,-3355.0,0.002,-0.337,-0.36,-0.87
2674114,7438.0,7228.0,4116.0,-699.0,1384.0,-3385.0,0.023,0.314,0.364,0.876
2674126,7254.0,7140.0,4022.0,-761.0,1393.0,-3388.0,0.047,0.291,0.368,0.882
2674148,6838.0,7216.0,3874.0,-843.0,1374.0,-3375.0,0.072,0.267,0.371,0.886
2674160,6442.0,7254.0,3580.0,-915.0,1329.0,-3361.0,0.097,0.244,0.373,0.89
2674182,6158.0,7014.0,3862.0,-940.0,1339.0,-3405.0,0.122,0.22,0.374,0.893
2674204,5728.0,7374.0,3538.0,-1010.0,1272.0,-3446.0,0.148,0.196,0.374,0.894
2674216,4994.0,6154.0,3790.0,-1341.0,1220.0,-3246.0,0.173,0.173,0.37,0.896
2674238,4438.0,6896.0,3502.0,-1272.0,1110.0,-3358.0,0.198,0.151,0.367,0.896
2674250,4638.0,4324.0,3716.0,-1025.0,1112.0,-3197.0,0.222,0.129,0.365,0.895
2674272,3604.0,4998.0,3670.0,-585.0,1225.0,-3102.0,0.244,0.106,0.366,0.892
2674284,2100.0,3274.0,3974.0,-75.0,1009.0,-3611.0,0.271,0.086,0.371,0.884
2674306,2462.0,4322.0,4444.0,256.0,942.0,-3291.0,0.294,0.067,0.378,0.875
2674318,1794.0,4352.0,4572.0,296.0,959.0,-2810.0,0.313,0.05,0.384,0.867
2674340,1046.0,4904.0,4906.0,202.0,869.0,-2738.0,0.332,0.034,0.39,0.858
2674362,1112.0,4992.0,4998.0,80.0,788.0,-2802.0,0.351,0.018,0.393,0.849
2674374,1082.0,5920.0,5118.0,105.0,815.0,-2748.0,0.37,0.002,0.397,0.84
2674396,480.0,5656.0,5312.0,179.0,894.0,-2730.0,0.387,-0.014,0.401,0.83
2674408,0.0,5742.0,5386.0,241.0,854.0,-2780.0,0.405,-0.029,0.406,0.819
2674430,-1276.0,2174.0,5352.0,687.0,724.0,-3741.0,0.431,-0.046,0.412,0.801
2674442,3590.0,6362.0,4308.0,675.0,1220.0,15.0,0.426,-0.051,0.422,0.799
2674464,-2838.0,2654.0,4118.0,529.0,1145.0,-744.0,0.427,-0.06,0.43,0.793
2674476,-4564.0,138.0,3634.0,866.0,555.0,-2336.0,0.443,-0.07,0.437,0.779
2674499,-3574.0,-200.0,3786.0,1092.0,302.0,-2966.0,0.464,-0.08,0.444,0.762
2674511,-3892.0,-1270.0,4202.0,728.0,158.0,-2593.0,0.482,-0.088,0.448,0.748
2674534,-4288.0,-2374.0,4338.0,277.0,44.0,-2138.0,0.497,-0.096,0.449,0.736
2674546,-3848.0,-2704.0,4074.0,-90.0,16.0,-1170.0,0.505,-0.101,0.447,0.731
2674568,-4092.0,-3294.0,3842.0,-381.0,-37.0,-337.0,0.508,-0.104,0.444,0.731
2674580,-3926.0,-2544.0,3886.0,-477.0,-146.0,247.0,0.506,-0.104,0.44,0.734
2674602,-3460.0,-1258.0,4312.0,-564.0,-193.0,900.0,0.501,-0.102,0.436,0.741
2674619,-3354.0,474.0,4298.0,-435.0,-260.0,1199.0,0.493,-0.097,0.433,0.748
2674641,-2834.0,902.0,4000.0,-479.0,-249.0,1928.0,0.48,-0.089,0.43,0.759
2674653,-2868.0,258.0,3588.0,-386.0,-221.0,2609.0,0.463,-0.079,0.429,0.772
2674675,-2810.0,1110.0,3804.0,41.0,-385.0,2614.0,0.446,-0.065,0.429,0.783
2674687,-2152.0,2844.0,4366.0,343.0,-509.0,2548.0,0.43,-0.049,0.431,0.792
2674709,-1124.0,3934.0,4508.0,663.0,-490.0,2940.0,0.41,-0.031,0.435,0.801
2674731,-1562.0,4478.0,4180.0,486.0,-451.0,2996.0,0.39,-0.013,0.437,0.81
2674743,-1452.0,3882.0,3930.0,217.0,-567.0,2836.0,0.371,0.004,0.437,0.819
2674765,-898.0,3804.0,4248.0,277.0,-621.0,2695.0,0.353,0.021,0.437,0.827
2674777,-300.0,6136.0,4700.0,562.0,-614.0,2647.0,0.335,0.038,0.438,0.833
2674799,512.0,7528.0,4964.0,412.0,-634.0,2722.0,0.317,0.056,0.439,0.839
2674811,460.0,8418.0,4954.0,53.0,-629.0,2606.0,0.299,0.072,0.436,0.846
2674833,536.0,6770.0,4940.0,-193.0,-720.0,2712.0,0.281,0.088,0.43,0.853
2674845,648.0,6440.0,4936.0,80.0,-726.0,2601.0,0.263,0.105,0.426,0.859
2674867,814.0,6086.0,5174.0,294.0,-734.0,2545.0,0.245,0.122,0.424,0.863
2674879,1644.0,8202.0,5262.0,360.0,-707.0,2645.0,0.227,0.139,0.422,0.867
2674901,2654.0,8862.0,5370.0,-92.0,-680.0,2824.0,0.207,0.156,0.416,0.872
2674913,2950.0,8188.0,5056.0,-542.0,-628.0,2858.0,0.187,0.171,0.406,0.878
2674935,2680.0,7290.0,4592.0,-483.0,-642.0,2524.0,0.169,0.185,0.397,0.883
2674957,2498.0,6072.0,4342.0,-95.0,-669.0,2257.0,0.153,0.199,0.391,0.885
2674969,2634.0,5510.0,4330.0,352.0,-670.0,2047.0,0.138,0.213,0.389,0.886
2674991,2978.0,5468.0,4494.0,541.0,-719.0,2141.0,0.122,0.227,0.388,0.885
2675003,3744.0,5852.0,4090.0,240.0,-788.0,2329.0,0.105,0.243,0.384,0.884
2675025,4186.0,5796.0,3586.0,-533.0,-958.0,2443.0,0.09,0.259,0.373,0.886
2675037,4672.0,6292.0,3944.0,-1261.0,-1204.0,2398.0,0.077,0.277,0.356,0.889
2675059,5318.0,6014.0,4326.0,-1378.0,-1414.0,2310.0,0.066,0.295,0.338,0.891
2675081,5748.0,5050.0,4364.0,-907.0,-1452.0,2273.0,0.054,0.314,0.323,0.891
2675093,6298.0,4586.0,4456.0,-186.0,-1428.0,2257.0,0.04,0.333,0.314,0.888
2675115,6892.0,4726.0,4418.0,345.0,-1397.0,2279.0,0.024,0.351,0.309,0.884
2675127,7240.0,4250.0,3542.0,644.0,-1385.0,2416.0,0.006,0.37,0.306,0.877
2675149,7892.0,3898.0,3468.0,664.0,-1326.0,2518.0,0.013,-0.388,-0.302,-0.871
2675161,8182.0,5834.0,4380.0,600.0,-1296.0,2335.0,0.031,-0.405,-0.299,-0.864
2675183,8606.0,5778.0,4558.0,445.0,-1256.0,2357.0,0.048,-0.421,-0.294,-0.857
2675195,8572.0,5320.0,4394.0,468.0,-1109.0,2476.0,0.067,-0.436,-0.288,-0.85
2675217,8376.0,5546.0,4448.0,515.0,-1020.0,2380.0,0.085,-0.451,-0.283,-0.842
2675229,8228.0,5282.0,4122.0,492.0,-946.0,2249.0,0.102,-0.463,-0.279,-0.835
2675251,8040.0,5326.0,4030.0,424.0,-863.0,2090.0,0.119,-0.475,-0.274,-0.828
2675273,7878.0,5404.0,3850.0,337.0,-814.0,1887.0,0.133,-0.486,-0.269,-0.821
2675285,7578.0,5106.0,3818.0,316.0,-726.0,1667.0,0.145,-0.495,-0.265,-0.815
2675307,7614.0,4998.0,3898.0,250.0,-684.0,1438.0,0.156,-0.503,-0.261,-0.809
2675319,7322.0,5542.0,3926.0,177.0,-609.0,1212.0,0.165,-0.51,-0.258,-0.804
2675341,7426.0,5400.0,3986.0,80.0,-558.0,1077.0,0.172,-0.517,-0.254,-0.799
2675353,7292.0,5094.0,4088.0,55.0,-482.0,920.0,0.178,-0.523,-0.251,-0.795
2675375,7092.0,5074.0,4252.0,102.0,-391.0,732.0,0.184,-0.527,-0.249,-0.791
2675387,7048.0,5076.0,4306.0,169.0,-287.0,519.0,0.188,-0.53,-0.249,-0.789
2675409,7066.0,5270.0,4606.0,230.0,-124.0,269.0,0.191,-0.531,-0.25,-0.787
2675421,6998.0,5652.0,5048.0,241.0,23.0,-20.0,0.192,-0.531,-0.252,-0.786
2675443,7016.0,5692.0,4978.0,193.0,181.0,-322.0,0.192,-0.528,-0.255,-0.787
2675465,7250.0,5714.0,4890.0,189.0,325.0,-597.0,0.189,-0.524,-0.258,-0.789
2675477,7346.0,5612.0,4982.0,182.0,474.0,-937.0,0.185,-0.518,-0.264,-0.793
2675499,7448.0,5910.0,4864.0,142.0,592.0,-1272.0,0.178,-0.51,-0.27,-0.797
2675511,7600.0,5786.0,4726.0,117.0,722.0,-1603.0,0.169,-0.5,-0.278,-0.803
2675533,7816.0,5902.0,4700.0,82.0,848.0,-1867.0,0.158,-0.489,-0.286,-0.809
2675545,7958.0,5854.0,4602.0,39.0,932.0,-2155.0,0.145,-0.475,-0.295,-0.816
2675567,8120.0,6178.0,4486.0,-95.0,1002.0,-2371.0,0.129,-0.461,-0.304,-0.824
2675579,8306.0,6052.0,4598.0,-227.0,1090.0,-2554.0,0.112,-0.446,-0.312,-0.832
2675601,8306.0,6072.0,4594.0,-198.0,1214.0,-2717.0,0.095,-0.428,-0.32,-0.84
2675623,8262.0,6020.0,4432.0,-141.0,1296.0,-2846.0,0.076,-0.409,-0.33,-0.847
2675635,8066.0,6066.0,4332.0,-40.0,1391.0,-2948.0,0.057,-0.389,-0.34,-0.854
2675657,7874.0,6398.0,4318.0,-8.0,1407.0,-3059.0,0.038,-0.368,-0.35,-0.861
2675669,7752.0,6516.0,4234.0,-17.0,1408.0,-3134.0,0.018,-0.346,-0.36,-0.866
2675691,7386.0,6532.0,4154.0,76.0,1433.0,-3179.0,0.003,0.323,0.371,0.871
2675703,7024.0,6456.0,4128.0,323.0,1419.0,-3232.0,0.022,0.3,0.383,0.873
2675725,6836.0,6846.0,3984.0,271.0,1339.0,-3308.0,0.043,0.277,0.395,0.875
2675747,6246.0,7816.0,4282.0,-341.0,1212.0,-3295.0,0.066,0.255,0.401,0.877
2675759,6144.0,8334.0,4312.0,-1105.0,1035.0,-3210.0,0.091,0.234,0.4,0.882
2675781,6078.0,7146.0,3902.0,-1469.0,1044.0,-3162.0,0.116,0.212,0.395,0.886
2675793,5458.0,4770.0,3566.0,-1002.0,1145.0,-3313.0,0.14,0.19,0.395,0.888
2675815,5052.0,5682.0,3766.0,-186.0,1383.0,-3031.0,0.16,0.167,0.4,0.887
2675827,3670.0,5428.0,3762.0,350.0,1198.0,-3230.0,0.181,0.147,0.409,0.882
2675849,3064.0,5674.0,3878.0,371.0,981.0,-3414.0,0.204,0.126,0.419,0.876
2675861,3070.0,6432.0,3560.0,69.0,899.0,-2883.0,0.223,0.109,0.424,0.871
2675883,2328.0,5206.0,3498.0,115.0,855.0,-2370.0,0.239,0.093,0.429,0.866
2675895,1046.0,4090.0,3762.0,674.0,848.0,-2574.0,0.256,0.077,0.439,0.858
2675917,712.0,6114.0,3630.0,582.0,672.0,-2949.0,0.276,0.061,0.447,0.849
2675939,912.0,7938.0,3718.0,-568.0,593.0,-2769.0,0.295,0.044,0.445,0.844
2675951,280.0,6260.0,3688.0,-1607.0,410.0,-2406.0,0.313,0.026,0.435,0.844
2675973,-374.0,2660.0,4312.0,-1192.0,393.0,-2329.0,0.33,0.01,0.427,0.842
2675985,-1132.0,2602.0,4506.0,42.0,504.0,-2529.0,0.348,-0.004,0.429,0.834
2676007,-954.0,5510.0,4602.0,521.0,429.0,-2562.0,0.366,-0.015,0.434,0.823
2676019,-1914.0,6436.0,4550.0,-51.0,184.0,-2721.0,0.386,-0.028,0.434,0.814
2676041,-796.0,4246.0,5210.0,-399.0,412.0,27.0,0.384,-0.032,0.432,0.815
2676053,-2448.0,6056.0,5320.0,-203.0,725.0,-149.0,0.382,-0.039,0.433,0.815
2676075,-3546.0,3182.0,5176.0,259.0,343.0,-2168.0,0.397,-0.049,0.436,0.806
2676097,-2210.0,4394.0,4958.0,673.0,313.0,-2860.0,0.418,-0.06,0.44,0.792
2676109,-2926.0,3954.0,4852.0,129.0,422.0,-2393.0,0.434,-0.072,0.441,0.782
2676131,-3976.0,998.0,4576.0,-379.0,346.0,-2239.0,0.449,-0.086,0.438,0.774
2676143,-4512.0,-1860.0,4532.0,-340.0,350.0,-1971.0,0.461,-0.097,0.436,0.767
2676165,-5010.0,-3524.0,4636.0,39.0,286.0,-1839.0,0.474,-0.108,0.435,0.758
2676177,-4696.0,-2806.0,4252.0,281.0,199.0,-1656.0,0.485,-0.114,0.436,0.749
2676199,-4118.0,-1764.0,3858.0,80.0,142.0,-784.0,0.491,-0.118,0.436,0.745
2676211,-4076.0,-2192.0,3686.0,-353.0,94.0,300.0,0.488,-0.119,0.435,0.748
2676233,-4060.0,-1746.0,3552.0,-540.0,1.0,1006.0,0.481,-0.117,0.432,0.754
2676245,-3686.0,-628.0,3556.0,-340.0,-72.0,1458.0,0.471,-0.112,0.431,0.762
2676267,-3304.0,164.0,3476.0,-279.0,-189.0,2049.0,0.457,-0.103,0.43,0.772
2676279,-3222.0,26.0,3402.0,80.0,-296.0,2273.0,0.442,-0.091,0.431,0.781
2676301,-2722.0,936.0,3832.0,510.0,-383.0,2324.0,0.427,-0.077,0.435,0.789
2676323,-2026.0,2132.0,3768.0,746.0,-450.0,2448.0,0.412,-0.06,0.441,0.795
2676335,-1532.0,3698.0,3856.0,698.0,-436.0,2744.0,0.394,-0.043,0.446,0.803
2676357,-1034.0,5774.0,3924.0,452.0,-398.0,2956.0,0.374,-0.026,0.449,0.811
2676369,-1138.0,6008.0,4540.0,7.0,-390.0,3086.0,0.352,-0.009,0.448,0.822
2676391,-864.0,5858.0,4270.0,-122.0,-465.0,2852.0,0.333,0.006,0.445,0.831
2676403,-952.0,4974.0,4706.0,-113.0,-562.0,2583.0,0.315,0.021,0.442,0.839
2676425,-478.0,5308.0,4286.0,187.0,-622.0,2235.0,0.3,0.036,0.441,0.845
2676437,-90.0,5062.0,4474.0,223.0,-659.0,2336.0,0.285,0.052,0.44,0.85
2676459,950.0,7224.0,4614.0,168.0,-668.0,2334.0,0.269,0.068,0.439,0.855
2676481,940.0,7212.0,4816.0,-208.0,-740.0,2663.0,0.251,0.084,0.433,0.861
2676493,1714.0,7510.0,4924.0,-374.0,-747.0,2950.0,0.231,0.102,0.426,0.869
2676515,1328.0,6102.0,5058.0,-197.0,-771.0,2843.0,0.211,0.119,0.42,0.875
2676527,1480.0,5476.0,4810.0,246.0,-811.0,2642.0,0.192,0.137,0.417,0.878
2676549,1836.0,5982.0,5128.0,540.0,-782.0,2501.0,0.174,0.154,0.417,0.879
2676561,2796.0,8946.0,4880.0,443.0,-799.0,2440.0,0.157,0.171,0.415,0.88
2676583,3572.0,9128.0,5354.0,-156.0,-776.0,2637.0,0.139,0.188,0.408,0.882
2676605,3526.0,7512.0,4760.0,-323.0,-734.0,2617.0,0.121,0.203,0.4,0.885
2676622,3036.0,6130.0,4710.0,73.0,-680.0,2178.0,0.105,0.217,0.396,0.886
2676634,2926.0,5906.0,4470.0,622.0,-678.0,1889.0,0.091,0.231,0.396,0.884
2676656,3426.0,5486.0,4300.0,864.0,-677.0,1962.0,0.075,0.244,0.398,0.881
2676668,3806.0,5154.0,4086.0,773.0,-709.0,2195.0,0.058,0.259,0.399,0.878
2676690,4844.0,5876.0,3980.0,387.0,-832.0,2392.0,0.041,0.275,0.396,0.875
2676702,6098.0,7414.0,4286.0,-98.0,-925.0,2376.0,0.025,0.291,0.388,0.874
2676724,6340.0,7002.0,4624.0,-265.0,-862.0,2508.0,0.008,0.307,0.379,0.873
2676736,6196.0,6964.0,4434.0,11.0,-762.0,2518.0,0.01,-0.323,-0.372,-0.87
2676758,6346.0,6658.0,4202.0,333.0,-761.0,2324.0,0.027,-0.337,-0.368,-0.866
2676770,6914.0,6378.0,4230.0,383.0,-776.0,2332.0,0.044,-0.351,-0.363,-0.862
2676792,7134.0,5838.0,4006.0,294.0,-793.0,2363.0,0.062,-0.365,-0.358,-0.857
2676814,7114.0,5714.0,3932.0,208.0,-840.0,2300.0,0.078,-0.379,-0.353,-0.852
2676826,7138.0,5678.0,3956.0,155.0,-871.0,2274.0,0.094,-0.393,-0.346,-0.846
2676848,7152.0,5638.0,3986.0,87.0,-864.0,2255.0,0.109,-0.407,-0.34,-0.841
2676860,7336.0,5588.0,3942.0,7.0,-893.0,2169.0,0.124,-0.421,-0.332,-0.835
2676882,7414.0,5228.0,3794.0,-87.0,-909.0,2104.0,0.137,-0.435,-0.324,-0.829
2676894,7616.0,5208.0,3840.0,-199.0,-884.0,1993.0,0.149,-0.448,-0.316,-0.823
2676916,7682.0,5090.0,4094.0,-311.0,-838.0,1859.0,0.16,-0.46,-0.307,-0.818
2676928,7604.0,4672.0,3930.0,-312.0,-725.0,1745.0,0.17,-0.471,-0.298,-0.813
2676950,7628.0,3978.0,3992.0,-118.0,-585.0,1617.0,0.18,-0.48,-0.291,-0.808
2676972,7706.0,3720.0,3874.0,168.0,-427.0,1492.0,0.191,-0.487,-0.287,-0.803
2676984,7744.0,3692.0,3814.0,426.0,-300.0,1385.0,0.203,-0.492,-0.284,-0.797
2677006,7600.0,4036.0,3658.0,583.0,-164.0,1318.0,0.215,-0.496,-0.283,-0.792
2677018,7280.0,4518.0,3654.0,595.0,-87.0,1212.0,0.227,-0.498,-0.282,-0.788
2677040,7130.0,5022.0,3908.0,473.0,-57.0,1060.0,0.237,-0.5,-0.281,-0.784
2677052,7002.0,5044.0,3954.0,316.0,-53.0,824.0,0.244,-0.502,-0.279,-0.781
2677074,6976.0,5266.0,3968.0,105.0,-50.0,622.0,0.249,-0.504,-0.278,-0.779
2677086,7084.0,5152.0,4058.0,31.0,24.0,366.0,0.252,-0.505,-0.276,-0.778
2677108,7074.0,5772.0,3852.0,-54.0,149.0,159.0,0.254,-0.504,-0.275,-0.778
2677120,7030.0,5498.0,3468.0,25.0,286.0,-165.0,0.254,-0.502,-0.275,-0.78
2677142,6988.0,5760.0,3244.0,154.0,424.0,-547.0,0.252,-0.497,-0.278,-0.783
2677164,6954.0,5628.0,3294.0,245.0,514.0,-959.0,0.248,-0.49,-0.283,-0.786
2677176,6988.0,5530.0,3276.0,331.0,548.0,-1320.0,0.241,-0.481,-0.291,-0.791
2677198,7096.0,5640.0,3202.0,321.0,565.0,-1605.0,0.233,-0.472,-0.299,-0.796
2677210,7180.0,5780.0,3366.0,256.0,548.0,-1819.0,0.222,-0.462,-0.308,-0.801
2677232,7346.0,5782.0,3610.0,159.0,542.0,-1986.0,0.21,-0.452,-0.317,-0.807
2677244,7482.0,5618.0,3702.0,78.0,562.0,-2140.0,0.196,-0.441,-0.326,-0.813
2677266,7516.0,5848.0,4308.0,50.0,612.0,-2318.0,0.181,-0.429,-0.335,-0.819
2677278,7732.0,5716.0,4632.0,22.0,663.0,-2470.0,0.165,-0.416,-0.344,-0.826
2677300,7544.0,5950.0,4696.0,-22.0,750.0,-2542.0,0.148,-0.402,-0.352,-0.832
2677322,7452.0,6444.0,4924.0,-136.0,780.0,-2596.0,0.13,-0.387,-0.36,-0.839
2677334,7708.0,6518.0,5038.0,-330.0,797.0,-2671.0,0.111,-0.372,-0.366,-0.846
2677356,7588.0,6448.0,4914.0,-450.0,875.0,-2759.0,0.091,-0.356,-0.371,-0.853
2677368,7404.0,6670.0,4950.0,-416.0,945.0,-2881.0,0.07,-0.339,-0.377,-0.859
2677390,7178.0,6592.0,4898.0,-303.0,1008.0,-2965.0,0.05,-0.32,-0.383,-0.865
2677402,7030.0,6980.0,4674.0,-167.0,1035.0,-3062.0,0.029,-0.3,-0.39,-0.87
2677424,6720.0,6874.0,4698.0,-139.0,1056.0,-3105.0,0.007,-0.28,-0.398,-0.874
2677436,6270.0,7106.0,4580.0,-235.0,1024.0,-3107.0,0.014,0.26,0.404,0.877
2677458,5872.0,7094.0,4560.0,-481.0,973.0,-3085.0,0.037,0.24,0.407,0.88
2677470,5596.0,6908.0,4392.0,-745.0,950.0,-3021.0,0.059,0.221,0.408,0.884
2677493,5138.0,6864.0,4514.0,-884.0,940.0,-2978.0,0.082,0.201,0.407,0.887
2677505,4938.0,6878.0,4526.0,-951.0,959.0,-2955.0,0.104,0.181,0.406,0.89
2677528,4684.0,7468.0,4586.0,-1004.0,1000.0,-2928.0,0.126,0.16,0.403,0.892
2677550,4250.0,7034.0,4888.0,-1224.0,1056.0,-2884.0,0.148,0.139,0.398,0.895
2677562,4036.0,8052.0,4994.0,-1429.0,1100.0,-2944.0,0.17,0.117,0.391,0.897
2677584,3648.0,7388.0,5188.0,-1850.0,1205.0,-2955.0,0.192,0.093,0.381,0.9
2677596,3080.0,6756.0,5026.0,-2148.0,1283.0,-2958.0,0.213,0.069,0.368,0.903
2677618,2378.0,5572.0,4540.0,-2135.0,1351.0,-2965.0,0.234,0.044,0.354,0.904
2677630,1602.0,3082.0,4422.0,-1671.0,1428.0,-2950.0,0.255,0.018,0.344,0.903
2677652,614.0,2084.0,4458.0,-721.0,1505.0,-2968.0,0.275,-0.006,0.342,0.899
2677664,160.0,2642.0,4516.0,180.0,1421.0,-3033.0,0.296,-0.027,0.347,0.89
2677686,-76.0,2942.0,4494.0,660.0,1283.0,-2986.0,0.316,-0.045,0.355,0.879
2677698,-490.0,3442.0,4738.0,775.0,1179.0,-2793.0,0.336,-0.062,0.363,0.867
2677720,-1024.0,3600.0,5158.0,635.0,1059.0,-2613.0,0.354,-0.077,0.37,0.856
2677742,-1072.0,4742.0,4968.0,345.0,916.0,-2380.0,0.37,-0.091,0.374,0.846
2677754,-2250.0,2320.0,5194.0,264.0,710.0,-2914.0,0.39,-0.106,0.376,0.834
2677776,-1598.0,2074.0,5092.0,519.0,910.0,-1365.0,0.398,-0.116,0.382,0.826
2677788,-1948.0,5294.0,5054.0,262.0,1356.0,507.0,0.39,-0.123,0.39,0.825
2677810,-5134.0,1020.0,4752.0,268.0,955.0,-1320.0,0.397,-0.134,0.394,0.818
2677822,-4422.0,-560.0,4572.0,957.0,618.0,-2496.0,0.415,-0.144,0.4,0.804
2677844,-4428.0,-1356.0,4534.0,1387.0,570.0,-2592.0,0.435,-0.152,0.409,0.788
2677856,-5206.0,-1548.0,4154.0,1212.0,443.0,-2327.0,0.452,-0.159,0.416,0.773
2677878,-4976.0,-1212.0,3860.0,676.0,330.0,-1766.0,0.464,-0.165,0.42,0.762
2677900,-5076.0,-1874.0,3378.0,-118.0,222.0,-900.0,0.47,-0.171,0.419,0.758
2677912,-5064.0,-3420.0,3116.0,-720.0,81.0,11.0,0.469,-0.174,0.414,0.761
2677934,-4856.0,-3042.0,3312.0,-871.0,-99.0,577.0,0.464,-0.175,0.408,0.766
2677946,-4222.0,-622.0,3532.0,-910.0,-258.0,1305.0,0.454,-0.171,0.403,0.776
2677968,-3828.0,1240.0,3340.0,-1013.0,-400.0,1899.0,0.441,-0.165,0.397,0.788
2677980,-3920.0,1280.0,3210.0,-1229.0,-551.0,2279.0,0.425,-0.158,0.389,0.802
2678002,-3896.0,920.0,2984.0,-1211.0,-733.0,2344.0,0.408,-0.148,0.38,0.816
2678024,-3466.0,252.0,3078.0,-888.0,-967.0,2297.0,0.394,-0.136,0.373,0.829
2678036,-2934.0,30.0,3974.0,-301.0,-1115.0,2298.0,0.38,-0.12,0.37,0.84
2678048,-2280.0,1904.0,5018.0,142.0,-1210.0,2198.0,0.367,-0.102,0.369,0.848
2678071,-1210.0,4644.0,5838.0,151.0,-1232.0,2357.0,0.353,-0.083,0.368,0.856
2678093,-1084.0,5570.0,5392.0,-530.0,-1222.0,2590.0,0.337,-0.065,0.362,0.867
2678105,-1336.0,3872.0,4358.0,-1309.0,-1335.0,2858.0,0.317,-0.049,0.348,0.881
2678127,-1574.0,1622.0,4160.0,-1266.0,-1555.0,2479.0,0.302,-0.031,0.334,0.892
2678139,-666.0,922.0,5026.0,-467.0,-1758.0,2109.0,0.29,-0.011,0.326,0.9
2678161,746.0,3756.0,6354.0,405.0,-1778.0,2066.0,0.278,0.012,0.324,0.904
2678173,908.0,5224.0,6748.0,413.0,-1715.0,2083.0,0.266,0.034,0.323,0.908
2678195,1886.0,5266.0,5930.0,-125.0,-1761.0,2976.0,0.246,0.058,0.316,0.914
2678207,1522.0,3258.0,5460.0,-488.0,-1770.0,3392.0,0.223,0.083,0.306,0.922
2678229,1632.0,2308.0,6308.0,34.0,-1832.0,3047.0,0.203,0.107,0.3,0.926
2678251,3014.0,5196.0,7438.0,861.0,-1725.0,2643.0,0.184,0.131,0.301,0.926
2678263,3992.0,7422.0,7820.0,825.0,-1601.0,2513.0,0.166,0.154,0.302,0.926
2678285,4616.0,9328.0,7228.0,150.0,-1513.0,2804.0,0.146,0.175,0.297,0.927
2678297,3786.0,6844.0,6582.0,-415.0,-1471.0,3055.0,0.124,0.196,0.286,0.93
2678319,2952.0,3598.0,5724.0,-65.0,-1522.0,2728.0,0.105,0.216,0.279,0.93
2678331,3524.0,2342.0,4960.0,907.0,-1574.0,2212.0,0.089,0.237,0.28,0.926
2678353,4386.0,2894.0,4658.0,1732.0,-1597.0,1823.0,0.073,0.257,0.29,0.919
2678365,5978.0,4442.0,5542.0,1963.0,-1641.0,1921.0,0.057,0.277,0.301,0.911
2678387,6704.0,6250.0,5418.0,1676.0,-1624.0,2174.0,0.039,0.298,0.308,0.903
2678399,7392.0,7616.0,4976.0,878.0,-1478.0,2651.0,0.019,0.319,0.308,0.896
2678421,7764.0,6056.0,4776.0,304.0,-1444.0,3041.0,0.004,-0.339,-0.301,-0.891
2678443,7632.0,4658.0,4802.0,519.0,-1346.0,2902.0,0.025,-0.359,-0.296,-0.885
2678455,8018.0,5746.0,4964.0,815.0,-1266.0,2561.0,0.046,-0.376,-0.294,-0.878
2678477,8666.0,5208.0,4890.0,1063.0,-1132.0,2416.0,0.066,-0.391,-0.294,-0.869
2678489,8900.0,5082.0,4940.0,1337.0,-955.0,2406.0,0.088,-0.405,-0.297,-0.86
2678511,8866.0,5630.0,5112.0,1425.0,-797.0,2402.0,0.11,-0.416,-0.3,-0.851
2678523,8704.0,5928.0,5178.0,1284.0,-652.0,2345.0,0.132,-0.427,-0.302,-0.842
2678545,8336.0,5872.0,5116.0,1088.0,-550.0,2187.0,0.152,-0.436,-0.302,-0.834
2678557,8140.0,5780.0,4890.0,885.0,-489.0,1967.0,0.17,-0.444,-0.302,-0.827
2678579,7714.0,5856.0,4768.0,651.0,-429.0,1764.0,0.185,-0.451,-0.3,-0.82
2678601,7530.0,5328.0,4714.0,429.0,-406.0,1652.0,0.198,-0.458,-0.297,-0.814
2678613,7328.0,5310.0,4608.0,320.0,-314.0,1512.0,0.21,-0.464,-0.294,-0.809
2678630,7180.0,5120.0,4518.0,281.0,-229.0,1366.0,0.221,-0.469,-0.29,-0.804
2678652,6972.0,4890.0,4360.0,343.0,-97.0,1230.0,0.232,-0.472,-0.288,-0.8
2678664,6698.0,4790.0,4152.0,416.0,16.0,1052.0,0.241,-0.474,-0.286,-0.797
2678686,6342.0,4792.0,4066.0,440.0,66.0,908.0,0.25,-0.475,-0.286,-0.794
2678698,6212.0,4876.0,4094.0,442.0,97.0,817.0,0.258,-0.474,-0.286,-0.792
2678720,6088.0,5242.0,3942.0,306.0,108.0,727.0,0.265,-0.474,-0.285,-0.79
2678732,6096.0,4998.0,3680.0,203.0,105.0,606.0,0.27,-0.474,-0.284,-0.788
2678754,6074.0,4904.0,3312.0,219.0,148.0,450.0,0.275,-0.473,-0.284,-0.787
2678776,6124.0,5116.0,2948.0,226.0,176.0,300.0,0.278,-0.472,-0.285,-0.787
2678788,6296.0,5106.0,2810.0,264.0,226.0,123.0,0.28,-0.47,-0.287,-0.787
2678810,6232.0,5726.0,2670.0,101.0,193.0,-52.0,0.281,-0.467,-0.288,-0.787
2678822,6208.0,5790.0,2744.0,-127.0,125.0,-329.0,0.278,-0.465,-0.289,-0.789
2678844,6564.0,5990.0,2666.0,-366.0,46.0,-606.0,0.272,-0.464,-0.289,-0.792
2678856,6746.0,5512.0,2528.0,-496.0,27.0,-861.0,0.264,-0.463,-0.289,-0.795
2678878,7058.0,5272.0,2640.0,-449.0,64.0,-1219.0,0.253,-0.46,-0.291,-0.8
2678890,7136.0,5354.0,3070.0,-359.0,130.0,-1591.0,0.24,-0.456,-0.295,-0.805
2678912,7346.0,5900.0,3688.0,-125.0,200.0,-1938.0,0.226,-0.449,-0.302,-0.81
2678934,7690.0,5476.0,4120.0,184.0,321.0,-2210.0,0.212,-0.44,-0.312,-0.815
2678946,7682.0,5560.0,4066.0,621.0,477.0,-2424.0,0.197,-0.428,-0.326,-0.82
2678968,7774.0,5964.0,4246.0,895.0,522.0,-2660.0,0.182,-0.414,-0.343,-0.824
2678980,7774.0,6504.0,4604.0,836.0,563.0,-2858.0,0.166,-0.399,-0.359,-0.827
2679002,7586.0,7514.0,4844.0,534.0,506.0,-2990.0,0.147,-0.384,-0.374,-0.832
2679014,7648.0,7824.0,5028.0,73.0,434.0,-3032.0,0.125,-0.369,-0.384,-0.837
2679036,7722.0,7192.0,4878.0,-413.0,388.0,-2997.0,0.102,-0.356,-0.391,-0.843
2679048,7670.0,7094.0,4874.0,-738.0,407.0,-3001.0,0.078,-0.342,-0.395,-0.849
2679070,7850.0,6408.0,4870.0,-823.0,481.0,-3088.0,0.053,-0.327,-0.398,-0.855
2679082,7482.0,6398.0,5138.0,-667.0,636.0,-3182.0,0.028,-0.31,-0.402,-0.861
2679104,7100.0,6888.0,5108.0,-355.0,720.0,-3291.0,0.004,-0.292,-0.408,-0.865
2679126,6826.0,6268.0,4680.0,-6.0,785.0,-3302.0,0.019,0.273,0.417,0.867
2679138,6442.0,5536.0,4244.0,823.0,953.0,-3292.0,0.04,0.252,0.432,0.865
2679160,5358.0,6140.0,4288.0,1371.0,990.0,-3391.0,0.06,0.231,0.451,0.86
2679172,4682.0,7490.0,4546.0,1017.0,790.0,-3352.0,0.081,0.211,0.467,0.855
2679194,4476.0,8742.0,4510.0,-152.0,572.0,-3165.0,0.103,0.192,0.472,0.854
2679206,4378.0,8162.0,4036.0,-1303.0,440.0,-2999.0,0.127,0.174,0.468,0.857
2679228,4280.0,6818.0,3720.0,-1740.0,507.0,-2915.0,0.151,0.156,0.459,0.862
2679240,3816.0,5966.0,3674.0,-1541.0,653.0,-2924.0,0.173,0.136,0.451,0.865
2679262,3320.0,5716.0,3958.0,-1091.0,792.0,-2972.0,0.194,0.116,0.447,0.865
2679284,2782.0,5222.0,4204.0,-402.0,846.0,-2925.0,0.215,0.097,0.448,0.862
2679296,2004.0,4522.0,4194.0,175.0,880.0,-2847.0,0.234,0.078,0.454,0.856
2679318,1364.0,5166.0,3802.0,726.0,866.0,-2817.0,0.252,0.061,0.464,0.847
2679330,974.0,5520.0,3760.0,900.0,844.0,-2718.0,0.269,0.044,0.474,0.837
2679352,388.0,6154.0,3610.0,1158.0,818.0,-2626.0,0.285,0.029,0.486,0.826
2679364,-80.0,6052.0,3432.0,1449.0,781.0,-2590.0,0.301,0.016,0.5,0.812
2679386,-950.0,7108.0,3300.0,1321.0,563.0,-2685.0,0.318,0.003,0.511,0.798
2679398,-66.0,746.0,3822.0,1199.0,433.0,-1648.0,0.329,-0.005,0.522,0.787
2679420,-250.0,10322.0,3416.0,357.0,919.0,-124.0,0.325,-0.011,0.527,0.785
2679432,-3810.0,6090.0,2962.0,-479.0,162.0,-1959.0,0.339,-0.023,0.524,0.781
2679454,-1214.0,5432.0,2846.0,-451.0,-49.0,-2909.0,0.36,-0.038,0.52,0.774
2679476,-1752.0,5490.0,2996.0,-464.0,73.0,-2374.0,0.377,-0.052,0.515,0.768
2679488,-2984.0,3236.0,3098.0,-231.0,-37.0,-2370.0,0.394,-0.063,0.512,0.761
2679510,-3298.0,2300.0,3530.0,18.0,-59.0,-2273.0,0.41,-0.074,0.511,0.752
2679522,-3746.0,2594.0,3916.0,12.0,-77.0,-1988.0,0.424,-0.082,0.509,0.744
2679544,-4384.0,1248.0,3934.0,-140.0,-97.0,-1741.0,0.437,-0.09,0.506,0.738
2679556,-4902.0,-458.0,3896.0,-280.0,-101.0,-1455.0,0.447,-0.098,0.503,0.733
2679578,-4976.0,-1432.0,3836.0,-214.0,-92.0,-1186.0,0.456,-0.103,0.5,0.729
2679590,-5174.0,-1214.0,3924.0,-192.0,-132.0,-969.0,0.463,-0.107,0.497,0.726
2679612,-4692.0,-1522.0,3778.0,-344.0,-117.0,-236.0,0.465,-0.109,0.494,0.726
2679634,-4446.0,-1558.0,3430.0,-541.0,-7.0,747.0,0.46,-0.108,0.491,0.732
2679646,-4458.0,-1134.0,3376.0,-628.0,6.0,1418.0,0.45,-0.103,0.488,0.741
2679668,-4436.0,-238.0,3076.0,-668.0,-116.0,1730.0,0.438,-0.097,0.485,0.751
2679680,-3888.0,-560.0,3334.0,-454.0,-135.0,2191.0,0.423,-0.088,0.483,0.762
2679702,-3474.0,1380.0,3208.0,-204.0,-245.0,2289.0,0.408,-0.076,0.482,0.771
2679714,-2976.0,1054.0,3188.0,-214.0,-435.0,2498.0,0.392,-0.063,0.481,0.782
2679736,-2004.0,1810.0,3284.0,47.0,-532.0,2566.0,0.376,-0.047,0.48,0.791
2679758,-1174.0,3726.0,3548.0,393.0,-546.0,2688.0,0.359,-0.029,0.482,0.798
2679770,-724.0,5246.0,3878.0,436.0,-491.0,2980.0,0.34,-0.01,0.485,0.806
2679792,-418.0,5994.0,3982.0,260.0,-442.0,3147.0,0.318,0.008,0.485,0.814
2679804,-254.0,7566.0,3898.0,112.0,-451.0,3115.0,0.297,0.027,0.484,0.823
2679826,-42.0,6672.0,3978.0,-79.0,-512.0,2993.0,0.276,0.045,0.481,0.831
2679838,480.0,6168.0,3866.0,42.0,-491.0,2835.0,0.256,0.062,0.479,0.837
2679860,484.0,5854.0,4126.0,193.0,-479.0,2749.0,0.237,0.078,0.477,0.842
2679872,1150.0,8398.0,4334.0,347.0,-485.0,2667.0,0.218,0.095,0.477,0.846
2679894,1298.0,8828.0,4756.0,122.0,-468.0,2754.0,0.199,0.111,0.474,0.85
2679906,2046.0,9194.0,3766.0,-172.0,-567.0,3115.0,0.177,0.129,0.468,0.856
2679928,2024.0,6770.0,3310.0,-352.0,-629.0,2969.0,0.157,0.147,0.461,0.861
2679950,2302.0,6036.0,3846.0,15.0,-646.0,2478.0,0.14,0.164,0.456,0.863
2679962,2892.0,7666.0,4140.0,516.0,-669.0,2035.0,0.125,0.178,0.456,0.863
2679984,3054.0,7360.0,4258.0,409.0,-668.0,2197.0,0.11,0.194,0.455,0.862
2679996,3026.0,6212.0,4112.0,267.0,-679.0,2472.0,0.093,0.21,0.452,0.862
2680018,3318.0,5914.0,3926.0,259.0,-723.0,2473.0,0.075,0.227,0.448,0.861
2680030,3990.0,5510.0,3342.0,321.0,-796.0,2500.0,0.058,0.244,0.445,0.86
2680052,4946.0,4298.0,2440.0,537.0,-800.0,2587.0,0.039,0.262,0.442,0.857
2680064,6070.0,4024.0,2196.0,999.0,-694.0,2527.0,0.019,0.279,0.444,0.852
2680086,6558.0,6108.0,2638.0,1441.0,-575.0,2410.0,0.001,-0.294,-0.449,-0.844
2680098,7276.0,7712.0,2752.0,1458.0,-498.0,2617.0,0.024,-0.308,-0.453,-0.836
2680120,7292.0,7826.0,2600.0,1066.0,-505.0,2893.0,0.047,-0.324,-0.452,-0.829
2680142,7458.0,8464.0,2698.0,436.0,-676.0,3027.0,0.069,-0.342,-0.447,-0.824
2680154,7808.0,7912.0,2646.0,-243.0,-992.0,2980.0,0.087,-0.362,-0.436,-0.819
2680176,8126.0,7538.0,2664.0,-811.0,-1252.0,3045.0,0.102,-0.385,-0.42,-0.815
2680188,8074.0,7142.0,2590.0,-1267.0,-1474.0,2985.0,0.114,-0.409,-0.401,-0.812
2680210,8556.0,6664.0,2960.0,-1498.0,-1644.0,2767.0,0.124,-0.433,-0.381,-0.808
2680222,8888.0,6414.0,3296.0,-1552.0,-1605.0,2550.0,0.131,-0.456,-0.361,-0.803
2680244,8574.0,5814.0,3212.0,-1387.0,-1402.0,2347.0,0.138,-0.475,-0.342,-0.799
2680266,8150.0,5178.0,3148.0,-922.0,-1128.0,2068.0,0.146,-0.491,-0.327,-0.794
2680278,7852.0,5108.0,3252.0,-374.0,-855.0,1765.0,0.155,-0.504,-0.318,-0.788
2680290,7748.0,5134.0,3602.0,29.0,-642.0,1520.0,0.164,-0.513,-0.312,-0.783
2680313,7504.0,5148.0,3758.0,225.0,-507.0,1310.0,0.174,-0.52,-0.308,-0.778
2680335,7194.0,5042.0,3760.0,272.0,-418.0,1124.0,0.182,-0.525,-0.306,-0.773
2680347,6640.0,4768.0,3980.0,288.0,-380.0,998.0,0.19,-0.531,-0.303,-0.768
2680369,6448.0,4772.0,5004.0,188.0,-440.0,964.0,0.197,-0.536,-0.301,-0.764
2680381,6814.0,5014.0,5458.0,-53.0,-457.0,926.0,0.202,-0.542,-0.297,-0.76
2680403,6908.0,4764.0,4796.0,-164.0,-400.0,862.0,0.206,-0.547,-0.292,-0.757
2680415,7092.0,4792.0,3766.0,-63.0,-221.0,827.0,0.211,-0.551,-0.288,-0.754
2680437,7146.0,4914.0,2868.0,125.0,1.0,667.0,0.217,-0.553,-0.286,-0.752
2680449,7156.0,5614.0,2650.0,171.0,206.0,569.0,0.222,-0.553,-0.283,-0.751
2680471,6786.0,5882.0,2356.0,155.0,306.0,222.0,0.226,-0.551,-0.283,-0.752
2680483,6914.0,5760.0,2644.0,131.0,331.0,-171.0,0.226,-0.548,-0.284,-0.754
2680505,7222.0,5984.0,2996.0,-40.0,315.0,-495.0,0.224,-0.544,-0.286,-0.756
2680527,7560.0,5532.0,3204.0,-170.0,318.0,-813.0,0.218,-0.54,-0.288,-0.76
2680539,7766.0,5494.0,3102.0,-217.0,338.0,-1119.0,0.21,-0.535,-0.292,-0.764
2680561,8048.0,5320.0,3130.0,-215.0,390.0,-1417.0,0.2,-0.529,-0.297,-0.769
2680573,8260.0,5336.0,3102.0,-252.0,489.0,-1676.0,0.189,-0.521,-0.303,-0.776
2680595,8536.0,5586.0,3310.0,-372.0,616.0,-1939.0,0.175,-0.511,-0.308,-0.783
2680607,8656.0,5456.0,3676.0,-442.0,742.0,-2139.0,0.16,-0.5,-0.314,-0.791
2680634,8824.0,5286.0,4076.0,-368.0,861.0,-2303.0,0.144,-0.488,-0.321,-0.799
2680646,8878.0,5434.0,4312.0,-302.0,963.0,-2420.0,0.128,-0.473,-0.329,-0.807
2680658,8590.0,5364.0,4052.0,-382.0,1006.0,-2449.0,0.111,-0.458,-0.336,-0.815
2680680,8178.0,5432.0,3576.0,-655.0,999.0,-2458.0,0.093,-0.443,-0.341,-0.824
2680702,7936.0,5646.0,3522.0,-967.0,1013.0,-2507.0,0.074,-0.428,-0.343,-0.833
2680714,7852.0,6002.0,3738.0,-1176.0,977.0,-2544.0,0.053,-0.413,-0.343,-0.842
2680736,7686.0,5540.0,4074.0,-1133.0,1147.0,-2544.0,0.033,-0.396,-0.344,-0.851
2680748,7386.0,5502.0,4232.0,-916.0,1208.0,-2553.0,0.014,-0.378,-0.346,-0.859
2680770,7334.0,6048.0,4516.0,-782.0,1246.0,-2640.0,0.006,0.36,0.349,0.865
2680782,7194.0,5840.0,4188.0,-695.0,1279.0,-2648.0,0.025,0.341,0.352,0.872
2680804,6840.0,5544.0,3770.0,-406.0,1399.0,-2657.0,0.043,0.32,0.357,0.876
2680826,5962.0,6254.0,3878.0,-143.0,1479.0,-2726.0,0.06,0.299,0.365,0.88
2680838,5482.0,6624.0,4342.0,-131.0,1447.0,-2705.0,0.078,0.277,0.372,0.882
2680860,5256.0,6450.0,4710.0,-486.0,1303.0,-2586.0,0.096,0.257,0.376,0.885
2680872,5898.0,5124.0,4652.0,-1643.0,1150.0,-2102.0,0.112,0.239,0.368,0.892
2680894,5990.0,874.0,4688.0,-2412.0,1354.0,-1467.0,0.125,0.221,0.352,0.901
2680906,4260.0,88.0,4902.0,-590.0,1773.0,-1601.0,0.133,0.2,0.352,0.905
2680928,2842.0,4182.0,4806.0,1805.0,1793.0,-2294.0,0.143,0.179,0.374,0.899
2680940,2310.0,7378.0,4100.0,2923.0,1610.0,-2684.0,0.155,0.161,0.405,0.887
2680962,1820.0,9376.0,3422.0,1701.0,1210.0,-2400.0,0.168,0.144,0.424,0.878
2680974,1716.0,9382.0,3472.0,-345.0,814.0,-2048.0,0.182,0.129,0.425,0.877
2680996,1360.0,7036.0,3954.0,-1441.0,643.0,-2060.0,0.198,0.113,0.417,0.88
2681018,1360.0,5180.0,4114.0,-1137.0,624.0,-2187.0,0.214,0.097,0.411,0.881
2681030,974.0,4452.0,4560.0,-159.0,762.0,-2136.0,0.229,0.083,0.413,0.878
2681052,412.0,5394.0,4494.0,773.0,799.0,-2199.0,0.243,0.069,0.423,0.87
2681064,208.0,5500.0,3958.0,1032.0,771.0,-2197.0,0.257,0.057,0.434,0.861
2681086,-464.0,6866.0,4164.0,528.0,699.0,-2072.0,0.271,0.044,0.441,0.854
2681098,-844.0,6984.0,4528.0,-258.0,599.0,-1881.0,0.284,0.032,0.441,0.851
2681120,-954.0,6224.0,4378.0,-617.0,502.0,-1784.0,0.296,0.019,0.438,0.849
2681132,-1050.0,5558.0,4862.0,-378.0,528.0,-1803.0,0.308,0.007,0.437,0.845
2681154,-1136.0,6164.0,5072.0,205.0,526.0,-2035.0,0.322,-0.005,0.44,0.838
2681166,-1120.0,5438.0,4632.0,621.0,539.0,-1787.0,0.334,-0.014,0.446,0.83
2681188,-1464.0,7414.0,4182.0,443.0,589.0,-1108.0,0.34,-0.022,0.452,0.825
2681210,-3366.0,6944.0,4150.0,160.0,424.0,-2038.0,0.354,-0.033,0.454,0.817
2681222,-2708.0,6242.0,3724.0,-111.0,205.0,-2476.0,0.372,-0.045,0.453,0.809
2681244,-2846.0,3706.0,3956.0,-404.0,176.0,-2374.0,0.389,-0.058,0.449,0.802
2681256,-3196.0,1378.0,4748.0,-395.0,137.0,-2134.0,0.404,-0.069,0.446,0.796
2681278,-4016.0,-1024.0,4732.0,-104.0,119.0,-2282.0,0.42,-0.079,0.444,0.787
2681290,-4522.0,-2160.0,4244.0,360.0,129.0,-2262.0,0.437,-0.088,0.445,0.777
2681312,-4616.0,-2168.0,3768.0,751.0,100.0,-1912.0,0.451,-0.094,0.449,0.765
2681334,-4314.0,-2182.0,3702.0,900.0,66.0,-1302.0,0.461,-0.095,0.455,0.756
2681346,-4148.0,-2172.0,3812.0,579.0,68.0,-451.0,0.465,-0.095,0.459,0.751
2681368,-4114.0,-1386.0,4090.0,144.0,101.0,421.0,0.462,-0.093,0.461,0.752
2681380,-3894.0,-368.0,4140.0,-321.0,108.0,1064.0,0.454,-0.09,0.46,0.758
2681402,-3658.0,1166.0,3752.0,-596.0,76.0,1545.0,0.443,-0.086,0.457,0.767
2681414,-3584.0,1142.0,3316.0,-796.0,-3.0,1957.0,0.428,-0.081,0.453,0.778
2681436,-3578.0,802.0,3280.0,-783.0,-138.0,2157.0,0.413,-0.074,0.448,0.789
2681448,-3464.0,466.0,3602.0,-515.0,-306.0,2187.0,0.398,-0.064,0.445,0.8
2681470,-2486.0,2580.0,4356.0,-35.0,-482.0,2156.0,0.384,-0.051,0.444,0.808
2681482,-2024.0,3696.0,5120.0,185.0,-548.0,2283.0,0.37,-0.037,0.444,0.815
2681504,-1610.0,5764.0,4726.0,249.0,-608.0,2467.0,0.354,-0.02,0.445,0.822
2681526,-1710.0,4540.0,3916.0,-11.0,-658.0,2592.0,0.337,-0.004,0.443,0.831
2681538,-1442.0,3356.0,3946.0,-117.0,-704.0,2433.0,0.322,0.011,0.44,0.838
2681560,-776.0,4304.0,4164.0,125.0,-693.0,2188.0,0.308,0.026,0.438,0.844
2681572,-274.0,5448.0,5258.0,92.0,-699.0,2336.0,0.293,0.042,0.436,0.85
2681594,762.0,7614.0,5358.0,-53.0,-677.0,2602.0,0.275,0.058,0.433,0.857
2681606,992.0,7362.0,5426.0,-610.0,-657.0,2996.0,0.254,0.074,0.424,0.866
2681628,1252.0,6960.0,4814.0,-837.0,-695.0,2959.0,0.234,0.09,0.414,0.875
2681640,902.0,5156.0,4834.0,-685.0,-736.0,2776.0,0.215,0.105,0.404,0.883
2681662,1254.0,5696.0,5088.0,17.0,-785.0,2470.0,0.198,0.121,0.4,0.887
2681684,1960.0,6936.0,4912.0,553.0,-802.0,2314.0,0.181,0.138,0.4,0.888
2681696,2610.0,7884.0,5508.0,513.0,-752.0,2258.0,0.165,0.154,0.4,0.888
2681718,2724.0,8390.0,5086.0,158.0,-832.0,2097.0,0.15,0.169,0.397,0.89
2681730,2906.0,7438.0,5018.0,-339.0,-871.0,2058.0,0.137,0.183,0.389,0.892
2681752,2868.0,6978.0,4814.0,-431.0,-936.0,1625.0,0.128,0.197,0.382,0.894
2681764,2876.0,6514.0,5004.0,-232.0,-1031.0,1450.0,0.12,0.211,0.376,0.894
2681786,3076.0,5918.0,5516.0,289.0,-975.0,1416.0,0.111,0.224,0.374,0.893
2681798,3684.0,7182.0,5346.0,574.0,-941.0,1537.0,0.101,0.238,0.375,0.89
2681820,3396.0,7180.0,5062.0,243.0,-1033.0,1606.0,0.091,0.253,0.372,0.888
2681832,3868.0,9156.0,5344.0,-74.0,-976.0,1536.0,0.082,0.266,0.367,0.888
2681854,4742.0,6282.0,5250.0,88.0,-1038.0,1768.0,0.071,0.281,0.363,0.886
2681876,4466.0,6698.0,5012.0,338.0,-853.0,1827.0,0.058,0.294,0.36,0.883
2681888,4300.0,6768.0,4842.0,545.0,-751.0,1694.0,0.045,0.307,0.359,0.88
2681910,4222.0,6042.0,4600.0,618.0,-765.0,1518.0,0.033,0.318,0.36,0.877
2681922,4456.0,5168.0,4332.0,779.0,-739.0,1582.0,0.02,0.33,0.361,0.872
2681944,4580.0,4884.0,3940.0,897.0,-754.0,1701.0,0.006,0.342,0.363,0.867
2681956,5068.0,4218.0,3534.0,920.0,-755.0,1822.0,0.009,-0.354,-0.364,-0.861
2681978,5316.0,4302.0,3296.0,985.0,-738.0,1798.0,0.024,-0.366,-0.366,-0.855
2682000,5490.0,4774.0,3400.0,961.0,-746.0,1752.0,0.039,-0.378,-0.368,-0.849
2682012,6346.0,4836.0,3272.0,897.0,-729.0,1898.0,0.055,-0.39,-0.369,-0.842
2682034,6766.0,4940.0,3134.0,867.0,-691.0,2059.0,0.072,-0.402,-0.368,-0.835
2682046,7076.0,4956.0,2874.0,878.0,-678.0,2149.0,0.089,-0.414,-0.367,-0.828
2682068,7404.0,5182.0,2726.0,877.0,-643.0,2185.0,0.107,-0.426,-0.366,-0.82
2682080,7506.0,5428.0,2698.0,829.0,-622.0,2181.0,0.125,-0.437,-0.364,-0.813
2682102,7750.0,5414.0,2720.0,706.0,-596.0,2119.0,0.142,-0.448,-0.362,-0.805
2682114,7654.0,5640.0,2662.0,573.0,-563.0,1998.0,0.158,-0.458,-0.359,-0.798
2682136,7540.0,5706.0,2546.0,440.0,-521.0,1853.0,0.172,-0.468,-0.355,-0.791
2682148,7312.0,5574.0,2480.0,347.0,-469.0,1701.0,0.184,-0.476,-0.351,-0.785
2682170,7094.0,5438.0,2526.0,284.0,-402.0,1506.0,0.196,-0.483,-0.347,-0.78
2682182,7056.0,5576.0,2554.0,263.0,-353.0,1242.0,0.205,-0.489,-0.344,-0.775
2682204,7186.0,5152.0,2632.0,357.0,-291.0,953.0,0.213,-0.494,-0.343,-0.77
2682226,7048.0,4906.0,2386.0,588.0,-164.0,740.0,0.22,-0.496,-0.344,-0.766
2682238,6740.0,5046.0,2676.0,824.0,-87.0,575.0,0.227,-0.496,-0.348,-0.762
2682260,6316.0,5172.0,3316.0,880.0,-174.0,492.0,0.234,-0.497,-0.353,-0.758
2682272,6902.0,6092.0,5640.0,485.0,-340.0,489.0,0.239,-0.5,-0.355,-0.753
2682294,7324.0,6606.0,5042.0,122.0,-289.0,407.0,0.241,-0.503,-0.355,-0.75
2682306,7508.0,5030.0,3724.0,339.0,81.0,220.0,0.245,-0.502,-0.356,-0.749
2682328,7058.0,6276.0,3316.0,1274.0,537.0,-183.0,0.252,-0.495,-0.364,-0.748
2682340,6882.0,6864.0,2642.0,2052.0,840.0,-517.0,0.26,-0.482,-0.379,-0.746
2682362,6556.0,7246.0,2548.0,2459.0,967.0,-893.0,0.269,-0.466,-0.398,-0.743
2682384,6422.0,8286.0,2812.0,2373.0,849.0,-1291.0,0.273,-0.449,-0.418,-0.741
2682396,6592.0,7716.0,2516.0,1982.0,651.0,-1590.0,0.273,-0.433,-0.437,-0.739
2682418,6564.0,7646.0,1878.0,1610.0,473.0,-1884.0,0.269,-0.418,-0.454,-0.739
2682430,6748.0,7964.0,1670.0,1456.0,363.0,-2154.0,0.262,-0.403,-0.472,-0.74
2682452,7122.0,7810.0,1704.0,1450.0,308.0,-2395.0,0.252,-0.386,-0.49,-0.74
2682464,7196.0,7948.0,1756.0,1416.0,295.0,-2604.0,0.241,-0.368,-0.509,-0.74
2682486,7182.0,8550.0,2004.0,1234.0,231.0,-2804.0,0.227,-0.35,-0.526,-0.741
2682498,7230.0,8404.0,1888.0,1024.0,164.0,-2949.0,0.211,-0.332,-0.543,-0.742
2682520,6980.0,8534.0,1776.0,784.0,107.0,-3048.0,0.193,-0.314,-0.557,-0.744
2682542,7120.0,9204.0,1894.0,560.0,41.0,-3182.0,0.174,-0.296,-0.57,-0.746
2682554,7204.0,8960.0,2044.0,458.0,60.0,-3318.0,0.152,-0.277,-0.582,-0.749
2682576,6770.0,9182.0,2362.0,345.0,70.0,-3399.0,0.13,-0.257,-0.593,-0.752
2682588,6522.0,8898.0,2312.0,77.0,36.0,-3428.0,0.107,-0.237,-0.602,-0.755
2682610,6152.0,8192.0,1804.0,-51.0,73.0,-3425.0,0.084,-0.217,-0.609,-0.759
2682622,5756.0,8234.0,1970.0,-85.0,127.0,-3450.0,0.06,-0.196,-0.615,-0.761
2682639,5398.0,8632.0,2002.0,-236.0,162.0,-3456.0,0.036,-0.175,-0.619,-0.765
2682661,5174.0,8496.0,1840.0,-278.0,245.0,-3473.0,0.013,-0.153,-0.623,-0.767
2682683,4832.0,8816.0,2048.0,-171.0,326.0,-3513.0,0.011,0.13,0.626,0.769
2682695,4186.0,8750.0,2278.0,-170.0,348.0,-3463.0,0.033,0.107,0.629,0.769
2682717,3790.0,8334.0,1926.0,-386.0,317.0,-3402.0,0.056,0.085,0.629,0.771
2682729,3324.0,8142.0,2160.0,-835.0,352.0,-3362.0,0.079,0.062,0.626,0.774
2682751,3136.0,8112.0,1928.0,-1045.0,413.0,-3272.0,0.1,0.04,0.62,0.777
2682763,2640.0,7426.0,1712.0,-1024.0,533.0,-3139.0,0.119,0.017,0.614,0.78
2682785,1954.0,7184.0,1560.0,-736.0,645.0,-3042.0,0.137,-0.005,0.609,0.781
2682797,1290.0,7214.0,1590.0,-548.0,689.0,-2946.0,0.154,-0.027,0.606,0.78
2682819,618.0,6878.0,1716.0,-566.0,663.0,-2824.0,0.171,-0.049,0.602,0.779
2682831,16.0,6436.0,1780.0,-672.0,611.0,-2726.0,0.187,-0.069,0.597,0.777
2682853,-474.0,6204.0,1762.0,-579.0,588.0,-2668.0,0.202,-0.089,0.591,0.775
2682865,-1028.0,5388.0,1496.0,-409.0,565.0,-2552.0,0.217,-0.108,0.587,0.772
2682887,-1826.0,4682.0,1222.0,-259.0,543.0,-2433.0,0.232,-0.126,0.584,0.768
2682909,-2444.0,4874.0,1030.0,-147.0,455.0,-2347.0,0.246,-0.142,0.581,0.763
2682921,-2754.0,5182.0,1138.0,-154.0,390.0,-2252.0,0.26,-0.157,0.578,0.758
2682943,-3062.0,5488.0,1562.0,-294.0,334.0,-2083.0,0.272,-0.171,0.573,0.754
2682955,-3294.0,6278.0,1742.0,-350.0,346.0,-2009.0,0.284,-0.185,0.568,0.75
2682977,-3492.0,6588.0,1498.0,-396.0,340.0,-1924.0,0.295,-0.198,0.563,0.746
2682989,-3660.0,6436.0,1258.0,-687.0,391.0,-1938.0,0.305,-0.213,0.556,0.743
2683011,-4428.0,5136.0,1078.0,-915.0,419.0,-2017.0,0.315,-0.229,0.547,0.741
2683033,-5226.0,1874.0,1346.0,-984.0,377.0,-1956.0,0.324,-0.244,0.537,0.74
2683045,-6362.0,-2064.0,1566.0,-694.0,381.0,-2135.0,0.336,-0.259,0.528,0.736
2683067,-7100.0,-4590.0,1266.0,-194.0,297.0,-2327.0,0.351,-0.274,0.521,0.728
2683079,-6552.0,-3998.0,1102.0,57.0,78.0,-1960.0,0.365,-0.285,0.516,0.72
2683101,-5640.0,-2670.0,-62.0,-83.0,-171.0,-732.0,0.371,-0.287,0.513,0.719
2683113,-5372.0,-3672.0,360.0,-205.0,-291.0,465.0,0.369,-0.284,0.512,0.722
2683135,-5072.0,-1372.0,1078.0,-16.0,-267.0,1132.0,0.363,-0.276,0.514,0.726
2683147,-4804.0,2270.0,1724.0,-57.0,-301.0,1655.0,0.353,-0.266,0.517,0.733
2683169,-5112.0,2904.0,1480.0,-218.0,-348.0,2046.0,0.34,-0.254,0.52,0.741
2683181,-5410.0,1678.0,1310.0,-232.0,-486.0,2006.0,0.329,-0.241,0.521,0.75
2683203,-5162.0,1544.0,1288.0,-96.0,-543.0,2055.0,0.317,-0.228,0.524,0.757
2683225,-5010.0,2076.0,1678.0,7.0,-708.0,2049.0,0.306,-0.212,0.526,0.765
2683237,-4102.0,2526.0,2186.0,117.0,-811.0,2195.0,0.295,-0.195,0.529,0.772
2683259,-3498.0,3480.0,2440.0,162.0,-845.0,2332.0,0.283,-0.177,0.532,0.778
2683271,-3306.0,3384.0,2064.0,64.0,-845.0,2538.0,0.269,-0.157,0.534,0.786
2683293,-3204.0,2552.0,2480.0,0.0,-873.0,2579.0,0.255,-0.138,0.536,0.793
2683305,-2418.0,4638.0,3252.0,290.0,-892.0,2518.0,0.242,-0.118,0.539,0.799
2683327,-1850.0,6240.0,3088.0,391.0,-901.0,2689.0,0.227,-0.096,0.542,0.803
2683339,-1492.0,7136.0,3118.0,237.0,-903.0,2871.0,0.21,-0.074,0.545,0.809
2683361,-1002.0,8028.0,2880.0,-99.0,-884.0,2940.0,0.193,-0.052,0.544,0.815
2683373,-1088.0,6920.0,3138.0,-407.0,-970.0,2965.0,0.175,-0.03,0.54,0.822
2683395,-640.0,6178.0,3304.0,-209.0,-1056.0,2799.0,0.159,-0.007,0.538,0.828
2683417,-4.0,6008.0,3474.0,218.0,-1049.0,2725.0,0.144,0.015,0.538,0.831
2683429,940.0,8320.0,3378.0,532.0,-1042.0,2701.0,0.128,0.038,0.54,0.831
2683451,1386.0,8514.0,3016.0,450.0,-1019.0,2731.0,0.112,0.06,0.541,0.831
2683463,1502.0,8428.0,3258.0,562.0,-980.0,2478.0,0.098,0.081,0.543,0.83
2683485,2188.0,8936.0,3110.0,884.0,-952.0,2126.0,0.086,0.1,0.547,0.827
2683497,2482.0,8296.0,3274.0,1318.0,-742.0,1901.0,0.074,0.117,0.555,0.821
2683519,2670.0,9804.0,3936.0,1347.0,-454.0,1534.0,0.063,0.129,0.563,0.814
2683531,2598.0,12500.0,3258.0,177.0,-631.0,1477.0,0.055,0.142,0.562,0.813
2683553,2634.0,11090.0,3106.0,-1389.0,-824.0,1918.0,0.047,0.158,0.548,0.82
2683575,2644.0,9628.0,2366.0,-2009.0,-1062.0,1936.0,0.04,0.175,0.529,0.829
2683587,2696.0,7526.0,2468.0,-1616.0,-950.0,1629.0,0.035,0.19,0.514,0.836
2683609,3400.0,5332.0,2386.0,-22.0,-818.0,1590.0,0.027,0.204,0.51,0.835
2683621,3066.0,6340.0,2638.0,1148.0,-617.0,1402.0,0.017,0.216,0.516,0.829
2683643,3344.0,5928.0,2668.0,1609.0,-489.0,1572.0,0.004,0.227,0.525,0.82
2683655,3474.0,5604.0,2058.0,1712.0,-416.0,1962.0,0.013,-0.24,-0.534,-0.81
2683677,3894.0,7222.0,2194.0,1303.0,-466.0,2114.0,0.03,-0.254,-0.539,-0.802
2683699,4598.0,7954.0,2116.0,533.0,-676.0,2194.0,0.044,-0.27,-0.538,-0.797
2683711,5136.0,7768.0,2114.0,-196.0,-838.0,2246.0,0.056,-0.288,-0.531,-0.795
2683733,5466.0,7424.0,1900.0,-558.0,-985.0,2246.0,0.066,-0.307,-0.521,-0.794
2683745,5876.0,6494.0,1732.0,-369.0,-943.0,2201.0,0.077,-0.325,-0.513,-0.791
2683767,6040.0,6372.0,1772.0,23.0,-838.0,2099.0,0.088,-0.341,-0.507,-0.787
2683779,6566.0,6740.0,1908.0,191.0,-741.0,2010.0,0.1,-0.356,-0.503,-0.781
2683801,6748.0,6728.0,1976.0,157.0,-685.0,2066.0,0.113,-0.37,-0.498,-0.776
2683813,6662.0,6528.0,2032.0,106.0,-633.0,2152.0,0.126,-0.384,-0.492,-0.771
2683835,6620.0,6528.0,1912.0,64.0,-613.0,2151.0,0.139,-0.398,-0.485,-0.766
2683847,6818.0,6240.0,1764.0,45.0,-605.0,2115.0,0.151,-0.412,-0.478,-0.76
2683869,6890.0,6102.0,1820.0,122.0,-537.0,2052.0,0.164,-0.425,-0.472,-0.755
2683881,6962.0,6266.0,1936.0,205.0,-457.0,1997.0,0.177,-0.436,-0.466,-0.749
2683903,6830.0,6226.0,1822.0,313.0,-377.0,1888.0,0.19,-0.447,-0.462,-0.743
2683925,6986.0,6374.0,1830.0,305.0,-315.0,1804.0,0.203,-0.456,-0.457,-0.736
2683937,6946.0,6804.0,2024.0,211.0,-275.0,1685.0,0.214,-0.464,-0.452,-0.731
2683959,7010.0,6750.0,1870.0,266.0,-206.0,1522.0,0.225,-0.472,-0.447,-0.726
2683971,7020.0,7010.0,1310.0,635.0,-47.0,1250.0,0.236,-0.476,-0.446,-0.72
2683993,6692.0,7718.0,1400.0,1012.0,119.0,892.0,0.247,-0.476,-0.449,-0.714
2684005,6366.0,8604.0,1872.0,984.0,141.0,558.0,0.256,-0.475,-0.453,-0.709
2684027,6186.0,9074.0,2162.0,477.0,21.0,341.0,0.261,-0.476,-0.454,-0.707
2684039,6286.0,8570.0,2128.0,-85.0,-72.0,172.0,0.261,-0.477,-0.453,-0.706
2684061,6458.0,7756.0,2098.0,-298.0,-55.0,-125.0,0.259,-0.477,-0.452,-0.707
2684083,6454.0,7108.0,1982.0,-19.0,115.0,-531.0,0.256,-0.474,-0.454,-0.709
2684095,6656.0,6986.0,2188.0,391.0,276.0,-972.0,0.253,-0.467,-0.461,-0.711
2684117,6666.0,7656.0,2548.0,623.0,390.0,-1340.0,0.249,-0.457,-0.47,-0.713
2684129,6776.0,8138.0,2602.0,522.0,411.0,-1589.0,0.242,-0.446,-0.479,-0.716
2684151,6920.0,8482.0,3032.0,206.0,411.0,-1804.0,0.233,-0.435,-0.487,-0.72
2684163,7270.0,8400.0,3104.0,-9.0,451.0,-2059.0,0.222,-0.422,-0.495,-0.726
2684185,7388.0,8110.0,2980.0,5.0,588.0,-2320.0,0.209,-0.407,-0.503,-0.733
2684197,7436.0,8588.0,2686.0,69.0,683.0,-2554.0,0.196,-0.39,-0.512,-0.74
2684220,7302.0,8360.0,2680.0,21.0,722.0,-2740.0,0.181,-0.371,-0.521,-0.747
2684232,7154.0,8340.0,2744.0,-110.0,682.0,-2877.0,0.164,-0.352,-0.529,-0.754
2684254,7096.0,8054.0,2642.0,-195.0,682.0,-3001.0,0.146,-0.333,-0.536,-0.762
2684266,6884.0,8028.0,2278.0,24.0,759.0,-3089.0,0.128,-0.311,-0.545,-0.768
2684289,6728.0,8392.0,2404.0,165.0,836.0,-3185.0,0.11,-0.289,-0.554,-0.773
2684301,6430.0,8928.0,2566.0,8.0,837.0,-3266.0,0.091,-0.265,-0.562,-0.778
2684324,6162.0,8760.0,2374.0,-340.0,791.0,-3367.0,0.071,-0.242,-0.567,-0.784
2684346,5958.0,8840.0,2092.0,-443.0,799.0,-3449.0,0.049,-0.218,-0.571,-0.79
2684358,5828.0,8150.0,1888.0,-367.0,821.0,-3458.0,0.027,-0.193,-0.575,-0.795
2684380,5308.0,8198.0,1962.0,-303.0,856.0,-3434.0,0.006,-0.168,-0.578,-0.798
2684392,4792.0,7932.0,2068.0,-437.0,835.0,-3416.0,0.015,0.143,0.58,0.802
2684414,4326.0,7782.0,2108.0,-527.0,778.0,-3370.0,0.037,0.119,0.58,0.805
2684426,4248.0,8078.0,2128.0,-527.0,766.0,-3323.0,0.058,0.095,0.58,0.807
2684448,3930.0,7888.0,1770.0,-393.0,829.0,-3237.0,0.077,0.072,0.58,0.808
2684460,3074.0,7204.0,1790.0,-116.0,929.0,-3228.0,0.096,0.048,0.582,0.806
2684482,2374.0,6958.0,1534.0,27.0,913.0,-3187.0,0.114,0.024,0.584,0.803
2684494,1934.0,7824.0,1986.0,50.0,863.0,-3164.0,0.133,0.001,0.586,0.799
2684516,1824.0,7540.0,1784.0,-49.0,809.0,-3051.0,0.151,-0.021,0.587,0.795
2684538,1040.0,6234.0,1304.0,130.0,816.0,-2959.0,0.168,-0.043,0.588,0.79
2684550,-52.0,4848.0,890.0,416.0,770.0,-2914.0,0.186,-0.064,0.591,0.783
2684572,-770.0,4658.0,642.0,672.0,681.0,-2901.0,0.203,-0.083,0.595,0.773
2684584,-1104.0,5614.0,854.0,471.0,505.0,-2744.0,0.221,-0.101,0.597,0.765
2684606,-1174.0,5786.0,986.0,254.0,387.0,-2478.0,0.236,-0.117,0.597,0.758
2684618,-1564.0,5006.0,808.0,354.0,342.0,-2348.0,0.251,-0.132,0.598,0.75
2684645,-2554.0,3976.0,718.0,497.0,312.0,-2307.0,0.267,-0.146,0.599,0.741
2684657,-3028.0,4104.0,1078.0,418.0,297.0,-2357.0,0.282,-0.159,0.599,0.732
2684669,-3456.0,3680.0,1682.0,325.0,217.0,-2205.0,0.296,-0.172,0.598,0.724
2684691,-3688.0,4714.0,1734.0,671.0,211.0,-1998.0,0.31,-0.183,0.6,0.714
2684713,-4254.0,4660.0,1502.0,832.0,197.0,-1865.0,0.323,-0.192,0.603,0.704
2684725,-4730.0,6434.0,1320.0,381.0,113.0,-1713.0,0.334,-0.201,0.603,0.696
2684747,-5532.0,5528.0,1350.0,-479.0,3.0,-1434.0,0.342,-0.21,0.597,0.694
2684759,-5916.0,2698.0,1228.0,-614.0,-28.0,-1282.0,0.35,-0.219,0.591,0.694
2684781,-6582.0,244.0,1188.0,-304.0,-28.0,-1599.0,0.36,-0.228,0.585,0.69
2684793,-6752.0,-1578.0,1404.0,-79.0,-103.0,-1419.0,0.369,-0.235,0.581,0.686
2684815,-6388.0,-3646.0,1874.0,-22.0,-149.0,-918.0,0.377,-0.24,0.578,0.683
2684827,-5938.0,-2978.0,2198.0,14.0,21.0,14.0,0.377,-0.24,0.578,0.682
2684849,-5966.0,-10.0,2098.0,-600.0,48.0,689.0,0.372,-0.238,0.576,0.688
2684871,-5986.0,-372.0,1500.0,-517.0,65.0,1005.0,0.364,-0.235,0.575,0.694
2684883,-6020.0,2296.0,896.0,-61.0,-18.0,1030.0,0.358,-0.229,0.577,0.697
2684905,-5830.0,2576.0,784.0,113.0,-97.0,1232.0,0.351,-0.221,0.58,0.701
2684917,-5444.0,2148.0,1160.0,231.0,-112.0,1583.0,0.342,-0.211,0.585,0.705
2684939,-5436.0,2534.0,1252.0,-31.0,-124.0,1877.0,0.33,-0.2,0.588,0.711
2684951,-5162.0,3260.0,992.0,-509.0,-301.0,1914.0,0.319,-0.188,0.587,0.72
2684973,-4432.0,2388.0,1108.0,-207.0,-204.0,2387.0,0.304,-0.174,0.589,0.728
2684995,-4272.0,5056.0,1406.0,476.0,-207.0,2168.0,0.291,-0.159,0.595,0.732
2685007,-3718.0,5006.0,1534.0,770.0,-203.0,1980.0,0.28,-0.144,0.603,0.733
2685029,-3574.0,6512.0,1554.0,230.0,-200.0,2105.0,0.267,-0.13,0.607,0.737
2685041,-3458.0,7570.0,1598.0,-948.0,-251.0,2473.0,0.251,-0.116,0.603,0.749
2685063,-3346.0,7196.0,1398.0,-1366.0,-442.0,2504.0,0.235,-0.102,0.595,0.762
2685075,-2818.0,5432.0,1704.0,-468.0,-558.0,2162.0,0.222,-0.086,0.592,0.77
2685097,-1954.0,6188.0,1982.0,656.0,-515.0,1957.0,0.212,-0.07,0.597,0.77
2685109,-1964.0,7836.0,2028.0,371.0,-456.0,2191.0,0.199,-0.053,0.6,0.773
2685131,-2204.0,8296.0,2430.0,-1057.0,-464.0,2324.0,0.185,-0.039,0.593,0.783
2685143,-2350.0,6186.0,2326.0,-1798.0,-670.0,2189.0,0.172,-0.024,0.579,0.797
2685165,-908.0,4066.0,2146.0,-299.0,-790.0,1910.0,0.162,-0.008,0.576,0.801
2685187,732.0,6566.0,2952.0,1598.0,-475.0,1948.0,0.151,0.008,0.587,0.795
2685199,624.0,10120.0,2382.0,1660.0,-332.0,2065.0,0.137,0.025,0.599,0.789
2685221,220.0,11934.0,2830.0,271.0,-275.0,1862.0,0.125,0.038,0.6,0.789
2685233,-560.0,10186.0,2436.0,-1273.0,-407.0,1691.0,0.116,0.049,0.589,0.798
2685255,-492.0,5846.0,1468.0,-1068.0,-513.0,1627.0,0.107,0.061,0.58,0.805
2685267,628.0,4088.0,1572.0,994.0,-309.0,1661.0,0.096,0.073,0.586,0.801
2685289,1264.0,8608.0,1892.0,2297.0,-81.0,1589.0,0.083,0.085,0.602,0.79
2685301,1642.0,12106.0,1944.0,1756.0,-21.0,1553.0,0.071,0.095,0.613,0.781
2685323,754.0,13190.0,2276.0,-46.0,-299.0,1377.0,0.063,0.106,0.611,0.782
2685335,726.0,9888.0,1932.0,-1412.0,-481.0,1600.0,0.055,0.118,0.599,0.79
2685357,192.0,6072.0,1284.0,-1508.0,-564.0,1595.0,0.048,0.13,0.586,0.798
2685379,1076.0,4196.0,1362.0,-132.0,-511.0,1519.0,0.04,0.142,0.583,0.799
2685391,1864.0,5716.0,1682.0,1338.0,-333.0,1476.0,0.029,0.153,0.59,0.792
2685413,2236.0,8918.0,1782.0,1431.0,-287.0,1630.0,0.017,0.165,0.598,0.784
2685425,2252.0,10564.0,2360.0,378.0,-408.0,1727.0,0.006,0.178,0.598,0.781
2685447,2372.0,8742.0,2614.0,-526.0,-559.0,1761.0,0.003,-0.192,-0.591,-0.783
2685459,2706.0,6942.0,2348.0,-600.0,-593.0,1731.0,0.011,-0.206,-0.584,-0.785
2685481,3240.0,6294.0,2190.0,-82.0,-488.0,1656.0,0.02,-0.219,-0.58,-0.785
2685493,3694.0,6294.0,1614.0,750.0,-256.0,1613.0,0.032,-0.229,-0.582,-0.78
2685515,3878.0,6538.0,624.0,1280.0,-91.0,1673.0,0.046,-0.239,-0.588,-0.772
2685537,3994.0,8606.0,1244.0,1153.0,-48.0,1615.0,0.06,-0.248,-0.592,-0.764
2685549,4340.0,8636.0,1814.0,573.0,-134.0,1685.0,0.073,-0.258,-0.592,-0.76
2685571,4528.0,7348.0,1912.0,156.0,-159.0,1854.0,0.086,-0.269,-0.589,-0.757
2685583,4632.0,6852.0,1326.0,-93.0,-238.0,1860.0,0.097,-0.281,-0.584,-0.756
2685605,5014.0,6052.0,906.0,-90.0,-263.0,1835.0,0.108,-0.293,-0.579,-0.753
2685617,5352.0,5726.0,794.0,108.0,-222.0,1865.0,0.121,-0.304,-0.574,-0.75
2685639,5740.0,5956.0,856.0,262.0,-172.0,1869.0,0.134,-0.316,-0.571,-0.746
2685651,6176.0,6070.0,800.0,320.0,-114.0,1866.0,0.147,-0.326,-0.568,-0.741
2685673,6344.0,7026.0,1094.0,234.0,-93.0,1855.0,0.16,-0.336,-0.564,-0.737
2685685,6484.0,7016.0,1054.0,76.0,-104.0,1922.0,0.173,-0.347,-0.559,-0.733
2685707,6614.0,6716.0,992.0,15.0,-105.0,1955.0,0.186,-0.357,-0.553,-0.73
2685729,6662.0,6784.0,678.0,120.0,-57.0,1974.0,0.2,-0.368,-0.547,-0.725
2685741,6648.0,7030.0,486.0,278.0,-28.0,1934.0,0.214,-0.377,-0.542,-0.72
2685763,6610.0,7434.0,666.0,360.0,33.0,1821.0,0.228,-0.385,-0.538,-0.714
2685775,6330.0,8388.0,1060.0,322.0,40.0,1613.0,0.24,-0.392,-0.535,-0.709
2685797,6160.0,8730.0,1180.0,213.0,32.0,1401.0,0.251,-0.398,-0.531,-0.705
2685809,5754.0,8842.0,1436.0,88.0,23.0,1176.0,0.259,-0.404,-0.527,-0.702
2685831,5718.0,8768.0,1450.0,15.0,1.0,898.0,0.265,-0.408,-0.524,-0.699
2685843,5596.0,8574.0,1606.0,57.0,24.0,598.0,0.27,-0.41,-0.522,-0.697
2685865,5632.0,8556.0,1750.0,175.0,62.0,285.0,0.273,-0.411,-0.522,-0.696
2685887,5570.0,8892.0,1964.0,347.0,154.0,-20.0,0.275,-0.409,-0.524,-0.695
2685899,5504.0,9006.0,2016.0,526.0,225.0,-336.0,0.276,-0.404,-0.529,-0.694
2685921,5586.0,9762.0,1870.0,538.0,252.0,-657.0,0.275,-0.398,-0.534,-0.694
2685933,5652.0,9806.0,1760.0,349.0,257.0,-982.0,0.272,-0.39,-0.54,-0.695
2685955,5734.0,9526.0,1396.0,270.0,253.0,-1353.0,0.266,-0.381,-0.546,-0.698
2685967,5842.0,9258.0,1070.0,376.0,246.0,-1789.0,0.257,-0.369,-0.554,-0.701
2685989,6056.0,9658.0,1056.0,419.0,226.0,-2125.0,0.246,-0.355,-0.564,-0.704
2686001,6364.0,9492.0,846.0,380.0,192.0,-2399.0,0.233,-0.34,-0.574,-0.708
2686023,6480.0,9718.0,996.0,311.0,182.0,-2674.0,0.217,-0.323,-0.584,-0.712
2686045,6570.0,9994.0,1042.0,293.0,161.0,-2953.0,0.2,-0.305,-0.594,-0.717
2686057,6698.0,10124.0,1034.0,185.0,121.0,-3124.0,0.181,-0.286,-0.604,-0.722
2686079,6706.0,9716.0,896.0,58.0,73.0,-3270.0,0.159,-0.266,-0.613,-0.726
2686091,6530.0,9848.0,1036.0,-23.0,39.0,-3438.0,0.137,-0.246,-0.621,-0.731
2686113,6278.0,9474.0,766.0,-51.0,10.0,-3564.0,0.112,-0.225,-0.629,-0.736
2686125,5938.0,8836.0,492.0,75.0,10.0,-3656.0,0.088,-0.203,-0.637,-0.739
2686147,5612.0,9276.0,730.0,9.0,43.0,-3693.0,0.063,-0.181,-0.643,-0.741
2686159,5200.0,9424.0,990.0,-244.0,-48.0,-3710.0,0.037,-0.159,-0.648,-0.744
2686181,4970.0,8500.0,470.0,-399.0,-74.0,-3717.0,0.01,-0.137,-0.65,-0.747
2686203,4346.0,7692.0,444.0,-273.0,-33.0,-3696.0,0.016,0.115,0.653,0.749
2686215,3988.0,8118.0,638.0,-9.0,-9.0,-3649.0,0.041,0.093,0.656,0.748
2686237,3602.0,7718.0,1044.0,-3.0,-9.0,-3553.0,0.065,0.071,0.659,0.746
2686249,2892.0,8008.0,866.0,-234.0,-44.0,-3515.0,0.09,0.051,0.659,0.745
2686271,2524.0,8072.0,818.0,-615.0,-69.0,-3451.0,0.114,0.03,0.656,0.746
2686283,2184.0,7458.0,686.0,-722.0,9.0,-3356.0,0.137,0.009,0.652,0.746
2686305,1418.0,6288.0,412.0,-390.0,104.0,-3227.0,0.158,-0.012,0.649,0.744
2686317,572.0,5566.0,616.0,-157.0,138.0,-3141.0,0.179,-0.032,0.647,0.74
2686339,142.0,6422.0,656.0,-254.0,97.0,-3010.0,0.199,-0.051,0.645,0.736
2686351,-48.0,6672.0,846.0,-573.0,121.0,-2823.0,0.218,-0.07,0.639,0.734
2686373,-494.0,6454.0,686.0,-731.0,171.0,-2670.0,0.235,-0.088,0.633,0.733
2686395,-1134.0,6176.0,904.0,-720.0,229.0,-2582.0,0.25,-0.106,0.626,0.731
2686407,-1658.0,5518.0,944.0,-484.0,242.0,-2510.0,0.266,-0.124,0.621,0.727
2686429,-2232.0,4592.0,720.0,-61.0,284.0,-2501.0,0.281,-0.14,0.618,0.721
2686441,-2834.0,5432.0,770.0,200.0,285.0,-2504.0,0.296,-0.156,0.617,0.713
2686463,-3310.0,5732.0,998.0,-99.0,216.0,-2373.0,0.311,-0.171,0.613,0.706
2686475,-3596.0,5722.0,868.0,-519.0,183.0,-2206.0,0.324,-0.186,0.606,0.702
2686497,-4216.0,3710.0,1086.0,-783.0,148.0,-2031.0,0.335,-0.2,0.598,0.7
2686509,-4646.0,3698.0,1274.0,-374.0,152.0,-2085.0,0.347,-0.214,0.592,0.695
2686531,-5288.0,3584.0,968.0,-22.0,85.0,-2214.0,0.361,-0.226,0.588,0.688
2686543,-5696.0,728.0,1052.0,305.0,27.0,-2310.0,0.376,-0.238,0.585,0.678
2686566,-5980.0,1870.0,1522.0,-204.0,179.0,-1320.0,0.384,-0.247,0.581,0.674
2686588,-6372.0,-2006.0,1292.0,-304.0,164.0,-743.0,0.387,-0.253,0.578,0.672
2686600,-7350.0,-3956.0,988.0,568.0,-5.0,-1387.0,0.398,-0.259,0.578,0.664
2686622,-6114.0,-3016.0,1164.0,1303.0,-228.0,-1135.0,0.41,-0.259,0.583,0.653
2686634,-5880.0,-1214.0,1250.0,1083.0,-135.0,-275.0,0.415,-0.255,0.588,0.646
2686651,-6048.0,414.0,1854.0,355.0,-52.0,423.0,0.414,-0.251,0.591,0.645
2686673,-5830.0,896.0,1736.0,12.0,-59.0,605.0,0.411,-0.246,0.592,0.648
2686685,-5570.0,2030.0,1712.0,37.0,83.0,873.0,0.406,-0.242,0.595,0.65
2686707,-5682.0,2612.0,1540.0,-58.0,193.0,1213.0,0.397,-0.236,0.598,0.655
2686719,-5974.0,1926.0,1480.0,-159.0,235.0,1396.0,0.387,-0.23,0.601,0.66
2686741,-6152.0,1230.0,1528.0,-239.0,182.0,1601.0,0.376,-0.222,0.604,0.667
2686763,-6160.0,1298.0,1226.0,-443.0,98.0,1755.0,0.364,-0.214,0.605,0.675
2686775,-5032.0,1190.0,966.0,-374.0,0.0,2227.0,0.35,-0.203,0.607,0.684
2686797,-5050.0,2802.0,1148.0,-141.0,61.0,2513.0,0.334,-0.189,0.611,0.693
2686809,-4874.0,4382.0,1016.0,130.0,-41.0,2421.0,0.319,-0.174,0.616,0.699
2686831,-4708.0,3916.0,1024.0,353.0,-61.0,2340.0,0.305,-0.159,0.622,0.704
2686843,-4176.0,4510.0,1290.0,391.0,-106.0,2326.0,0.291,-0.143,0.627,0.708
2686865,-3606.0,6616.0,1272.0,57.0,-155.0,2566.0,0.275,-0.126,0.631,0.715
2686877,-3388.0,6904.0,1130.0,-484.0,-161.0,2831.0,0.257,-0.109,0.63,0.725
2686899,-3316.0,7120.0,706.0,-667.0,-249.0,2807.0,0.239,-0.092,0.628,0.735
2686911,-3064.0,5952.0,604.0,-565.0,-313.0,2684.0,0.222,-0.075,0.625,0.744
2686933,-2478.0,5312.0,1424.0,-61.0,-417.0,2453.0,0.208,-0.058,0.626,0.75
2686955,-1026.0,7860.0,1534.0,479.0,-414.0,2472.0,0.193,-0.039,0.629,0.752
2686967,-960.0,8396.0,1564.0,548.0,-242.0,2559.0,0.177,-0.02,0.634,0.753
2686989,-866.0,9392.0,1746.0,391.0,-185.0,2410.0,0.162,-0.004,0.636,0.754
2687001,-1160.0,8026.0,1252.0,-5.0,-174.0,2254.0,0.147,0.011,0.636,0.757
2687023,-732.0,7504.0,1294.0,-20.0,-247.0,1980.0,0.135,0.025,0.635,0.76
2687035,260.0,9154.0,1306.0,191.0,-261.0,1964.0,0.123,0.039,0.636,0.761
2687057,972.0,9616.0,1342.0,457.0,-179.0,1967.0,0.11,0.053,0.638,0.76
2687069,542.0,9630.0,1306.0,616.0,-132.0,1801.0,0.098,0.065,0.641,0.758
2687091,456.0,9912.0,1068.0,456.0,-130.0,1657.0,0.087,0.077,0.643,0.757
2687113,90.0,8660.0,1026.0,141.0,-145.0,1606.0,0.076,0.087,0.643,0.757
2687125,224.0,7514.0,1190.0,-105.0,-193.0,1528.0,0.067,0.098,0.641,0.759
2687147,742.0,7716.0,1414.0,-137.0,-59.0,1300.0,0.059,0.106,0.638,0.76
2687159,1714.0,7946.0,1812.0,130.0,-236.0,1481.0,0.05,0.117,0.637,0.76
2687181,1954.0,8000.0,1086.0,428.0,-231.0,1742.0,0.038,0.13,0.638,0.758
2687193,2108.0,9148.0,1054.0,419.0,-188.0,1665.0,0.027,0.141,0.639,0.755
2687215,2076.0,9464.0,1302.0,41.0,-204.0,1630.0,0.017,0.153,0.637,0.755
2687237,2088.0,8330.0,1382.0,-259.0,-227.0,1652.0,0.007,0.164,0.633,0.757
2687249,2224.0,7028.0,1206.0,-200.0,-246.0,1633.0,0.003,-0.176,-0.629,-0.758
2687271,2502.0,6934.0,1212.0,113.0,-222.0,1618.0,0.013,-0.187,-0.627,-0.756
2687283,3124.0,7236.0,1224.0,336.0,-167.0,1726.0,0.025,-0.198,-0.626,-0.754
2687305,3380.0,7334.0,888.0,386.0,-146.0,1882.0,0.038,-0.21,-0.625,-0.751
2687317,3652.0,7982.0,698.0,219.0,-170.0,1928.0,0.051,-0.223,-0.623,-0.748
2687339,3980.0,8558.0,984.0,-31.0,-197.0,1915.0,0.063,-0.236,-0.619,-0.747
2687351,4288.0,8054.0,1078.0,-157.0,-218.0,1939.0,0.074,-0.248,-0.613,-0.746
2687373,4306.0,7682.0,1048.0,-113.0,-200.0,1885.0,0.086,-0.261,-0.608,-0.745
2687385,4414.0,7662.0,998.0,-81.0,-214.0,1824.0,0.097,-0.273,-0.603,-0.743
2687407,4662.0,7184.0,726.0,-96.0,-204.0,1810.0,0.108,-0.284,-0.598,-0.741
2687419,4840.0,7082.0,812.0,-109.0,-205.0,1817.0,0.119,-0.296,-0.593,-0.739
2687441,5204.0,6832.0,868.0,-156.0,-218.0,1822.0,0.13,-0.308,-0.587,-0.737
2687463,5428.0,6628.0,788.0,-173.0,-226.0,1836.0,0.141,-0.319,-0.581,-0.735
2687475,5696.0,6322.0,644.0,-110.0,-229.0,1843.0,0.152,-0.331,-0.575,-0.733
2687497,5900.0,6380.0,640.0,-74.0,-215.0,1822.0,0.163,-0.342,-0.569,-0.73
2687509,6178.0,6600.0,718.0,-78.0,-212.0,1846.0,0.175,-0.354,-0.563,-0.726
2687531,6382.0,6618.0,754.0,-80.0,-202.0,1898.0,0.186,-0.365,-0.556,-0.723
2687543,6462.0,6722.0,710.0,-52.0,-185.0,1921.0,0.198,-0.376,-0.55,-0.719
2687565,6578.0,6814.0,612.0,-10.0,-165.0,1931.0,0.211,-0.387,-0.543,-0.715
2687577,6586.0,6858.0,642.0,-29.0,-162.0,1912.0,0.223,-0.398,-0.537,-0.71
2687599,6514.0,6980.0,724.0,-66.0,-161.0,1848.0,0.234,-0.408,-0.53,-0.706
2687621,6542.0,6966.0,830.0,-92.0,-143.0,1724.0,0.244,-0.418,-0.523,-0.702
2687633,6632.0,6954.0,968.0,14.0,-99.0,1576.0,0.254,-0.426,-0.517,-0.697
2687655,6584.0,7248.0,1136.0,129.0,-19.0,1386.0,0.264,-0.432,-0.513,-0.693
2687667,6544.0,7594.0,1182.0,186.0,41.0,1201.0,0.273,-0.437,-0.509,-0.689
2687689,6486.0,8054.0,1262.0,254.0,100.0,979.0,0.281,-0.44,-0.507,-0.686
2687701,6246.0,8698.0,1372.0,348.0,172.0,699.0,0.288,-0.441,-0.506,-0.683
2687723,6142.0,9008.0,1820.0,344.0,200.0,343.0,0.293,-0.441,-0.506,-0.681
2687735,6144.0,9634.0,1940.0,194.0,165.0,-109.0,0.294,-0.438,-0.508,-0.681
2687757,6260.0,9394.0,1748.0,29.0,133.0,-596.0,0.291,-0.434,-0.51,-0.683
2687779,6514.0,9012.0,1772.0,-16.0,151.0,-1078.0,0.285,-0.428,-0.514,-0.686
2687791,6644.0,8722.0,1872.0,-14.0,200.0,-1478.0,0.277,-0.419,-0.52,-0.691
2687813,6676.0,8506.0,1694.0,105.0,271.0,-1776.0,0.268,-0.409,-0.527,-0.696
2687825,6644.0,8320.0,1702.0,204.0,363.0,-2001.0,0.258,-0.395,-0.535,-0.701
2687847,6564.0,8988.0,1786.0,194.0,399.0,-2202.0,0.246,-0.381,-0.544,-0.706
2687859,6706.0,8850.0,1692.0,51.0,389.0,-2387.0,0.233,-0.366,-0.552,-0.712
2687881,6662.0,8668.0,1570.0,-40.0,382.0,-2529.0,0.218,-0.35,-0.559,-0.719
2687893,6740.0,8658.0,1338.0,-39.0,375.0,-2683.0,0.203,-0.333,-0.567,-0.726
2687915,6802.0,8520.0,1156.0,104.0,418.0,-2858.0,0.186,-0.315,-0.576,-0.731
2687927,6720.0,9162.0,1370.0,171.0,419.0,-3030.0,0.169,-0.295,-0.585,-0.736
2687949,6772.0,9200.0,1164.0,29.0,365.0,-3125.0,0.15,-0.275,-0.593,-0.742
2687971,6616.0,9216.0,1012.0,-89.0,339.0,-3263.0,0.129,-0.254,-0.6,-0.747
2687983,6506.0,9070.0,944.0,-101.0,330.0,-3383.0,0.107,-0.233,-0.607,-0.752
2688005,6300.0,8890.0,904.0,-13.0,340.0,-3479.0,0.085,-0.21,-0.614,-0.756
2688017,6074.0,8738.0,756.0,30.0,345.0,-3583.0,0.062,-0.187,-0.621,-0.759
2688039,5558.0,8616.0,974.0,24.0,348.0,-3661.0,0.038,-0.163,-0.627,-0.761
2688051,5084.0,8816.0,1094.0,-83.0,310.0,-3688.0,0.014,-0.139,-0.631,-0.763
2688073,4656.0,8376.0,986.0,-258.0,258.0,-3623.0,0.011,0.116,0.634,0.765
2688095,4172.0,7218.0,794.0,-414.0,238.0,-3529.0,0.034,0.094,0.634,0.767
2688107,3600.0,7354.0,936.0,-330.0,253.0,-3500.0,0.057,0.072,0.635,0.767
2688129,2986.0,7338.0,946.0,-277.0,249.0,-3378.0,0.08,0.05,0.635,0.767
2688141,2432.0,6888.0,1102.0,-394.0,255.0,-3260.0,0.101,0.029,0.634,0.767
2688163,1758.0,7074.0,910.0,-546.0,257.0,-3171.0,0.122,0.008,0.63,0.767
2688175,1362.0,7738.0,782.0,-567.0,290.0,-3067.0,0.142,-0.012,0.627,0.766
2688197,980.0,8212.0,588.0,-469.0,339.0,-2938.0,0.16,-0.031,0.624,0.764
2688209,388.0,7258.0,794.0,-533.0,369.0,-2839.0,0.178,-0.051,0.619,0.763
2688231,-218.0,6804.0,960.0,-557.0,370.0,-2888.0,0.196,-0.071,0.614,0.761
2688253,-636.0,6914.0,906.0,-582.0,338.0,-2901.0,0.215,-0.091,0.609,0.758
2688265,-1026.0,6244.0,756.0,-542.0,325.0,-2836.0,0.232,-0.111,0.603,0.755
2688287,-1762.0,4612.0,978.0,-394.0,329.0,-2761.0,0.25,-0.129,0.598,0.751
2688299,-2586.0,4278.0,1174.0,-111.0,272.0,-2763.0,0.267,-0.147,0.594,0.744
2688321,-2988.0,4292.0,1658.0,-15.0,178.0,-2648.0,0.285,-0.162,0.591,0.737
2688333,-3192.0,4202.0,1616.0,-15.0,129.0,-2416.0,0.301,-0.176,0.587,0.731
2688355,-3732.0,3150.0,1684.0,-192.0,161.0,-2153.0,0.314,-0.19,0.583,0.725
2688367,-4366.0,3746.0,1942.0,-165.0,165.0,-2150.0,0.328,-0.203,0.578,0.719
2688389,-4468.0,3730.0,1762.0,-136.0,148.0,-1973.0,0.34,-0.214,0.574,0.713
2688401,-4944.0,4098.0,1716.0,-97.0,161.0,-1977.0,0.353,-0.226,0.57,0.707
2688423,-4862.0,2114.0,2070.0,170.0,78.0,-1871.0,0.365,-0.236,0.567,0.7
2688435,-5018.0,3824.0,1888.0,226.0,283.0,-1146.0,0.372,-0.243,0.567,0.694
2688457,-5386.0,2690.0,1422.0,-73.0,168.0,-895.0,0.377,-0.248,0.565,0.691
2688479,-7046.0,-354.0,1506.0,-89.0,27.0,-1444.0,0.386,-0.256,0.561,0.686
2688491,-7010.0,-2446.0,2086.0,87.0,-77.0,-1656.0,0.398,-0.265,0.557,0.679
2688513,-6706.0,-2712.0,2406.0,191.0,-130.0,-1438.0,0.41,-0.271,0.554,0.673
2688525,-6508.0,-2792.0,2790.0,-21.0,-56.0,-731.0,0.416,-0.275,0.551,0.67
2688547,-6274.0,-3940.0,2844.0,-260.0,7.0,24.0,0.416,-0.277,0.548,0.671
2688559,-5770.0,-2086.0,2388.0,-154.0,188.0,898.0,0.409,-0.274,0.551,0.674
2688581,-5756.0,776.0,1728.0,-288.0,261.0,1536.0,0.398,-0.268,0.554,0.681
2688593,-6030.0,1800.0,898.0,-561.0,232.0,1695.0,0.385,-0.262,0.555,0.689
