timeMs,ax,ay,az,gx,gy,gz,q0,q1,q2,q3
1987064,4510.0,6092.0,5454.0,162.0,473.0,-530.0,0.04,0.319,0.348,0.881
1987086,4506.0,6594.0,5976.0,176.0,577.0,-588.0,0.042,0.312,0.352,0.881
1987098,4686.0,7094.0,6476.0,242.0,714.0,-690.0,0.045,0.304,0.356,0.882
1987120,4736.0,7372.0,7250.0,350.0,934.0,-833.0,0.047,0.294,0.362,0.883
1987132,4762.0,8046.0,7488.0,385.0,1179.0,-1032.0,0.051,0.281,0.368,0.885
1987154,4484.0,7818.0,7762.0,384.0,1441.0,-1148.0,0.054,0.265,0.375,0.887
1987176,4084.0,7740.0,8198.0,566.0,1712.0,-1294.0,0.057,0.247,0.384,0.888
1987188,3698.0,7586.0,8130.0,567.0,1887.0,-1445.0,0.061,0.226,0.392,0.889
1987210,3206.0,6944.0,8014.0,405.0,2057.0,-1455.0,0.065,0.204,0.4,0.891
1987222,2566.0,6196.0,7834.0,113.0,2136.0,-1429.0,0.068,0.181,0.405,0.894
1987244,2432.0,6348.0,7908.0,-210.0,2198.0,-1435.0,0.072,0.157,0.407,0.897
1987256,2678.0,6180.0,7968.0,-424.0,2267.0,-1374.0,0.076,0.133,0.407,0.901
1987278,2816.0,5590.0,7276.0,-286.0,2437.0,-1302.0,0.078,0.107,0.407,0.904
1987290,1382.0,4776.0,6396.0,19.0,2679.0,-1120.0,0.077,0.081,0.41,0.905
1987312,536.0,5530.0,5498.0,217.0,2759.0,-1094.0,0.076,0.053,0.415,0.905
1987334,-32.0,6790.0,4878.0,7.0,2720.0,-1033.0,0.074,0.027,0.417,0.906
1987346,-608.0,7096.0,4010.0,-338.0,2591.0,-869.0,0.071,0.001,0.416,0.906
1987368,-1584.0,6224.0,3330.0,-618.0,2407.0,-807.0,0.069,-0.023,0.413,0.908
1987380,-2208.0,5084.0,3500.0,-729.0,2321.0,-909.0,0.068,-0.046,0.408,0.909
1987402,-2308.0,5752.0,4030.0,-667.0,2272.0,-1075.0,0.068,-0.07,0.403,0.91
1987414,-1862.0,7450.0,3652.0,-846.0,2133.0,-1083.0,0.069,-0.092,0.397,0.911
1987436,-2274.0,6064.0,3254.0,-1412.0,2029.0,-742.0,0.067,-0.113,0.386,0.913
1987448,-2664.0,4686.0,2718.0,-1721.0,1949.0,-552.0,0.063,-0.133,0.371,0.917
1987470,-3190.0,3448.0,2464.0,-1785.0,1878.0,-507.0,0.059,-0.151,0.357,0.92
1987492,-3210.0,2930.0,3056.0,-1639.0,1770.0,-598.0,0.056,-0.169,0.343,0.922
1987504,-3088.0,2764.0,3566.0,-1485.0,1641.0,-490.0,0.053,-0.185,0.33,0.924
1987526,-3326.0,2472.0,3662.0,-1383.0,1422.0,-254.0,0.048,-0.199,0.318,0.926
1987538,-3368.0,1906.0,2874.0,-1376.0,1166.0,-9.0,0.042,-0.209,0.307,0.927
1987560,-3486.0,1372.0,2582.0,-1383.0,912.0,206.0,0.035,-0.217,0.296,0.93
1987572,-3364.0,1692.0,3178.0,-1250.0,640.0,343.0,0.028,-0.222,0.286,0.932
1987594,-2856.0,2678.0,3886.0,-1055.0,377.0,492.0,0.021,-0.224,0.278,0.934
1987606,-2456.0,3874.0,4718.0,-867.0,176.0,684.0,0.013,-0.224,0.272,0.936
1987628,-2374.0,3958.0,4872.0,-710.0,40.0,793.0,0.004,-0.222,0.267,0.938
1987640,-2380.0,3996.0,4640.0,-527.0,-36.0,746.0,0.003,0.22,-0.264,-0.939
1987662,-2470.0,3992.0,4598.0,-397.0,-35.0,630.0,0.01,0.218,-0.262,-0.94
1987684,-2416.0,4496.0,5054.0,-392.0,-12.0,589.0,0.015,0.216,-0.26,-0.941
1987696,-2530.0,4978.0,5636.0,-451.0,13.0,559.0,0.021,0.215,-0.257,-0.942
1987718,-2604.0,5348.0,6054.0,-473.0,44.0,476.0,0.027,0.214,-0.254,-0.943
1987730,-3192.0,4988.0,5728.0,-444.0,65.0,384.0,0.031,0.214,-0.251,-0.944
1987752,-3768.0,4358.0,5552.0,-357.0,92.0,302.0,0.035,0.214,-0.249,-0.944
1987764,-4202.0,3968.0,5390.0,-256.0,89.0,241.0,0.038,0.214,-0.247,-0.944
1987786,-4404.0,4056.0,5346.0,-198.0,79.0,229.0,0.04,0.214,-0.246,-0.944
1987798,-4266.0,4344.0,5956.0,-200.0,58.0,271.0,0.043,0.214,-0.245,-0.945
1987820,-4314.0,4378.0,5978.0,-207.0,35.0,301.0,0.047,0.214,-0.243,-0.945
1987842,-4366.0,4294.0,5806.0,-203.0,22.0,250.0,0.049,0.214,-0.242,-0.945
1987854,-4370.0,3842.0,5984.0,-189.0,8.0,164.0,0.051,0.214,-0.241,-0.945
1987876,-4206.0,4038.0,6046.0,-175.0,0.0,103.0,0.053,0.214,-0.24,-0.946
1987888,-3896.0,4240.0,6566.0,-210.0,-3.0,128.0,0.054,0.214,-0.238,-0.946
1987910,-3830.0,4204.0,6632.0,-252.0,2.0,201.0,0.057,0.213,-0.236,-0.946
1987922,-4020.0,3692.0,6226.0,-270.0,-10.0,237.0,0.059,0.212,-0.234,-0.947
1987944,-3858.0,3896.0,6078.0,-208.0,-13.0,227.0,0.062,0.212,-0.233,-0.947
1987956,-3864.0,3984.0,5986.0,-207.0,-18.0,284.0,0.065,0.211,-0.232,-0.947
1987978,-3730.0,3992.0,6324.0,-227.0,-39.0,333.0,0.068,0.21,-0.23,-0.948
1988000,-3616.0,4158.0,6144.0,-258.0,-79.0,387.0,0.072,0.209,-0.229,-0.948
1988012,-3664.0,3048.0,6110.0,-291.0,-124.0,786.0,0.08,0.206,-0.228,-0.948
1988034,-3192.0,4180.0,6030.0,17.0,-168.0,657.0,0.085,0.203,-0.229,-0.948
1988046,-2886.0,4918.0,5794.0,-135.0,-217.0,683.0,0.091,0.2,-0.23,-0.948
1988068,-3004.0,4428.0,5576.0,-286.0,-263.0,648.0,0.097,0.196,-0.229,-0.949
1988080,-2624.0,4366.0,5828.0,-244.0,-255.0,499.0,0.102,0.192,-0.228,-0.949
1988102,-2948.0,4288.0,6052.0,-302.0,-286.0,358.0,0.105,0.189,-0.226,-0.95
1988114,-2674.0,4212.0,6400.0,-224.0,-286.0,42.0,0.106,0.186,-0.225,-0.951
1988136,-2312.0,4386.0,6934.0,-236.0,-228.0,24.0,0.107,0.184,-0.223,-0.951
1988148,-2622.0,3954.0,6890.0,-210.0,-173.0,-24.0,0.107,0.182,-0.221,-0.952
1988170,-2892.0,3656.0,6492.0,-163.0,-144.0,-72.0,0.107,0.181,-0.22,-0.953
1988192,-2854.0,3546.0,6270.0,-151.0,-138.0,-79.0,0.106,0.18,-0.218,-0.953
1988204,-2924.0,3280.0,6358.0,-132.0,-144.0,-39.0,0.106,0.179,-0.217,-0.954
1988226,-2974.0,3408.0,6696.0,-129.0,-130.0,95.0,0.108,0.178,-0.216,-0.954
1988238,-2958.0,3490.0,6744.0,-103.0,-137.0,181.0,0.11,0.176,-0.215,-0.954
1988260,-2892.0,3494.0,6620.0,-74.0,-149.0,243.0,0.112,0.174,-0.215,-0.954
1988272,-2640.0,4340.0,6636.0,-171.0,-204.0,367.0,0.116,0.172,-0.215,-0.954
1988294,-2570.0,4314.0,6860.0,-361.0,-196.0,473.0,0.121,0.169,-0.212,-0.955
1988306,-2626.0,4138.0,6996.0,-366.0,-171.0,485.0,0.126,0.166,-0.21,-0.955
1988328,-2198.0,4390.0,7202.0,-352.0,-157.0,419.0,0.131,0.164,-0.208,-0.955
1988350,-2212.0,4170.0,7416.0,-183.0,-87.0,316.0,0.134,0.162,-0.207,-0.955
1988362,-2082.0,4232.0,7252.0,-64.0,-48.0,238.0,0.137,0.161,-0.207,-0.955
1988384,-2372.0,3948.0,6934.0,13.0,-21.0,161.0,0.139,0.161,-0.207,-0.955
1988396,-2614.0,3948.0,6690.0,58.0,-25.0,-13.0,0.14,0.161,-0.207,-0.955
1988418,-2266.0,3788.0,6574.0,-23.0,-13.0,29.0,0.141,0.161,-0.207,-0.955
1988430,-2614.0,3740.0,6532.0,-125.0,-37.0,120.0,0.143,0.161,-0.206,-0.955
1988452,-2266.0,3672.0,6868.0,-156.0,-63.0,94.0,0.145,0.16,-0.205,-0.955
1988464,-2374.0,3654.0,6980.0,-122.0,-49.0,28.0,0.146,0.159,-0.204,-0.955
1988486,-2104.0,3946.0,7192.0,-129.0,-29.0,116.0,0.148,0.159,-0.203,-0.955
1988508,-2396.0,3730.0,7138.0,-60.0,0.0,106.0,0.15,0.159,-0.202,-0.955
1988520,-2424.0,3894.0,7162.0,19.0,19.0,43.0,0.151,0.159,-0.203,-0.954
1988542,-2400.0,3764.0,6912.0,25.0,24.0,86.0,0.153,0.16,-0.203,-0.954
1988554,-2518.0,3832.0,6684.0,29.0,17.0,71.0,0.155,0.16,-0.203,-0.954
1988576,-2506.0,3862.0,6690.0,-24.0,-4.0,59.0,0.156,0.16,-0.203,-0.953
1988588,-2534.0,3836.0,6846.0,-48.0,-16.0,55.0,0.158,0.16,-0.202,-0.953
1988610,-2472.0,3670.0,6936.0,-28.0,-27.0,33.0,0.159,0.16,-0.202,-0.953
1988622,-2430.0,3818.0,6966.0,-32.0,-10.0,77.0,0.161,0.16,-0.202,-0.953
1988644,-2280.0,3652.0,7090.0,-18.0,-12.0,99.0,0.163,0.16,-0.202,-0.953
1988656,-2506.0,3674.0,7014.0,12.0,-1.0,66.0,0.164,0.16,-0.202,-0.952
1988678,-2294.0,3768.0,6866.0,27.0,0.0,69.0,0.166,0.16,-0.202,-0.952
1988700,-2216.0,3766.0,6838.0,15.0,1.0,80.0,0.167,0.16,-0.202,-0.952
1988712,-2206.0,3778.0,6856.0,-21.0,-3.0,57.0,0.169,0.16,-0.202,-0.951
1988734,-2394.0,3660.0,6966.0,15.0,-13.0,-42.0,0.17,0.161,-0.202,-0.951
1988746,-2162.0,3920.0,6982.0,-26.0,-9.0,0.0,0.171,0.161,-0.201,-0.951
1988768,-2104.0,3798.0,6976.0,-22.0,-7.0,-5.0,0.172,0.161,-0.201,-0.951
1988780,-2264.0,3816.0,7024.0,-5.0,-1.0,-28.0,0.173,0.161,-0.201,-0.951
1988802,-2288.0,3924.0,6968.0,1.0,-3.0,-29.0,0.174,0.161,-0.201,-0.951
1988814,-2306.0,3846.0,6882.0,17.0,-7.0,-43.0,0.174,0.162,-0.201,-0.95
1988836,-2220.0,3968.0,6836.0,-13.0,-16.0,-61.0,0.175,0.162,-0.201,-0.95
1988858,-2346.0,3860.0,6832.0,-18.0,-3.0,-109.0,0.175,0.162,-0.2,-0.95
1988870,-2460.0,3276.0,6934.0,29.0,45.0,-65.0,0.176,0.163,-0.2,-0.95
1988892,-2304.0,3970.0,6916.0,-7.0,-2.0,-106.0,0.176,0.164,-0.2,-0.95
1988904,-2528.0,3832.0,6930.0,-36.0,-18.0,-70.0,0.176,0.164,-0.199,-0.95
1988926,-2460.0,3852.0,6940.0,-43.0,-32.0,-33.0,0.177,0.164,-0.199,-0.95
1988938,-2486.0,3844.0,6898.0,-41.0,-29.0,-22.0,0.178,0.164,-0.198,-0.95
1988960,-2474.0,3752.0,6912.0,-55.0,-29.0,0.0,0.179,0.164,-0.198,-0.95
1988972,-2406.0,3806.0,6896.0,-76.0,-42.0,12.0,0.18,0.163,-0.197,-0.95
1988999,-2392.0,3764.0,6972.0,-73.0,-30.0,11.0,0.182,0.163,-0.196,-0.95
1989011,-2196.0,3732.0,6928.0,-53.0,-32.0,4.0,0.183,0.163,-0.196,-0.95
1989033,-2214.0,3578.0,6936.0,-35.0,-18.0,37.0,0.184,0.163,-0.195,-0.949
1989045,-2096.0,3724.0,6912.0,-51.0,-38.0,21.0,0.186,0.163,-0.195,-0.949
1989067,-2026.0,3762.0,6894.0,-46.0,-70.0,-43.0,0.186,0.162,-0.194,-0.949
1989079,-2134.0,3836.0,6754.0,-80.0,-106.0,-85.0,0.187,0.162,-0.194,-0.949
1989101,-2032.0,3714.0,6830.0,-108.0,-138.0,-135.0,0.187,0.161,-0.192,-0.95
1989113,-1746.0,3668.0,6816.0,-105.0,-151.0,-242.0,0.185,0.16,-0.191,-0.95
1989135,-1464.0,3142.0,6848.0,-106.0,-120.0,-289.0,0.184,0.159,-0.19,-0.951
1989147,-1414.0,3380.0,7006.0,-6.0,-50.0,-325.0,0.182,0.159,-0.189,-0.952
1989169,-908.0,3696.0,7234.0,101.0,50.0,-319.0,0.18,0.16,-0.19,-0.952
1989191,-1024.0,4454.0,6964.0,133.0,128.0,-352.0,0.178,0.162,-0.19,-0.952
1989203,-1100.0,4804.0,6306.0,218.0,165.0,-490.0,0.175,0.165,-0.191,-0.952
1989225,-1260.0,5498.0,6060.0,438.0,197.0,-690.0,0.169,0.169,-0.194,-0.951
1989237,-1634.0,6350.0,5714.0,543.0,218.0,-783.0,0.163,0.173,-0.198,-0.951
1989259,-1992.0,6634.0,5186.0,571.0,172.0,-795.0,0.156,0.177,-0.202,-0.95
1989271,-2222.0,7024.0,4316.0,550.0,26.0,-983.0,0.147,0.181,-0.206,-0.95
1989293,-2242.0,6968.0,3570.0,534.0,-176.0,-1277.0,0.135,0.182,-0.21,-0.951
1989305,-1932.0,7342.0,3502.0,536.0,-350.0,-1580.0,0.12,0.183,-0.214,-0.952
1989327,-2010.0,7110.0,3666.0,517.0,-544.0,-1748.0,0.103,0.183,-0.217,-0.953
1989349,-2586.0,6354.0,3910.0,614.0,-760.0,-1838.0,0.085,0.18,-0.22,-0.955
1989361,-3122.0,5556.0,3672.0,750.0,-1012.0,-1925.0,0.064,0.176,-0.225,-0.956
1989383,-3158.0,4778.0,3828.0,895.0,-1254.0,-1987.0,0.042,0.169,-0.23,-0.957
1989395,-3028.0,4076.0,3588.0,1036.0,-1511.0,-2002.0,0.019,0.16,-0.237,-0.958
1989417,-2936.0,3366.0,3778.0,1149.0,-1725.0,-1974.0,0.004,-0.149,0.244,0.958
1989429,-3038.0,2684.0,3942.0,1185.0,-1915.0,-1841.0,0.027,-0.136,0.252,0.958
1989451,-3322.0,2256.0,3996.0,1198.0,-2078.0,-1672.0,0.048,-0.121,0.26,0.957
1989463,-3290.0,1668.0,4456.0,1260.0,-2258.0,-1497.0,0.069,-0.104,0.269,0.955
1989485,-2882.0,2012.0,5660.0,1354.0,-2362.0,-1263.0,0.088,-0.085,0.278,0.953
1989497,-2330.0,3022.0,6268.0,1363.0,-2445.0,-985.0,0.104,-0.064,0.287,0.95
1989519,-2190.0,3934.0,6166.0,1292.0,-2503.0,-773.0,0.119,-0.043,0.296,0.947
1989541,-2286.0,4536.0,5634.0,1089.0,-2496.0,-556.0,0.132,-0.021,0.302,0.944
1989553,-2294.0,4018.0,5636.0,876.0,-2547.0,-403.0,0.143,0.001,0.307,0.941
1989575,-1940.0,3426.0,5462.0,783.0,-2600.0,-350.0,0.154,0.024,0.31,0.938
1989587,-1192.0,4036.0,5672.0,697.0,-2613.0,-289.0,0.164,0.048,0.312,0.935
1989609,-402.0,4240.0,5450.0,585.0,-2655.0,-220.0,0.174,0.071,0.313,0.931
1989621,-156.0,4884.0,5042.0,478.0,-2791.0,-181.0,0.184,0.096,0.313,0.927
1989643,710.0,5264.0,4600.0,347.0,-2905.0,-214.0,0.194,0.121,0.311,0.923
1989655,1388.0,5476.0,4454.0,109.0,-3016.0,-246.0,0.205,0.147,0.306,0.918
1989677,7184.0,7392.0,22112.0,-597.0,-2091.0,-565.0,0.217,0.162,0.298,0.915
1989699,10494.0,21502.0,31868.0,-1541.0,-503.0,-1034.0,0.23,0.16,0.285,0.917
1989711,-978.0,5458.0,19160.0,-1966.0,-169.0,380.0,0.23,0.159,0.267,0.922
1989733,-268.0,-792.0,9250.0,-1251.0,374.0,-455.0,0.235,0.152,0.258,0.925
1989745,148.0,850.0,4480.0,366.0,585.0,-884.0,0.241,0.146,0.264,0.923
1989767,1848.0,2372.0,2938.0,933.0,107.0,-119.0,0.241,0.147,0.272,0.92
1989779,1480.0,4138.0,3248.0,711.0,-165.0,1142.0,0.231,0.153,0.276,0.92
1989801,578.0,4920.0,4302.0,180.0,-577.0,452.0,0.229,0.16,0.276,0.92
1989813,2282.0,5082.0,4718.0,-480.0,-824.0,163.0,0.231,0.166,0.269,0.92
1989835,3212.0,5638.0,4258.0,-1024.0,-828.0,385.0,0.231,0.173,0.258,0.922
1989847,2900.0,4382.0,5420.0,-1054.0,-1003.0,235.0,0.234,0.18,0.247,0.923
1989869,3858.0,4020.0,5674.0,-763.0,-1011.0,148.0,0.236,0.188,0.238,0.923
1989891,3644.0,3156.0,5710.0,-510.0,-930.0,275.0,0.237,0.196,0.23,0.923
1989903,3370.0,3576.0,5772.0,-311.0,-838.0,164.0,0.238,0.204,0.225,0.922
1989925,3468.0,4412.0,6226.0,-480.0,-772.0,110.0,0.24,0.21,0.219,0.922
1989937,3442.0,5234.0,5736.0,-770.0,-701.0,135.0,0.243,0.215,0.211,0.922
1989959,2900.0,4528.0,5916.0,-886.0,-697.0,-44.0,0.247,0.219,0.202,0.922
1989971,3036.0,3540.0,6584.0,-793.0,-623.0,-118.0,0.251,0.223,0.193,0.922
1989993,2666.0,3074.0,6982.0,-819.0,-620.0,-193.0,0.255,0.226,0.185,0.922
1990005,2570.0,1280.0,7204.0,-820.0,-654.0,-236.0,0.261,0.229,0.176,0.921
1990027,2956.0,-1044.0,8214.0,-433.0,-614.0,-194.0,0.265,0.233,0.17,0.92
1990049,3308.0,-1052.0,8552.0,-150.0,-348.0,35.0,0.266,0.236,0.168,0.92
1990061,3528.0,652.0,8126.0,-557.0,-175.0,211.0,0.266,0.236,0.162,0.921
1990083,3506.0,-208.0,8524.0,-549.0,-93.0,175.0,0.266,0.236,0.156,0.922
1990095,3660.0,-164.0,8640.0,-367.0,-80.0,239.0,0.265,0.236,0.152,0.922
1990117,3550.0,676.0,8580.0,-258.0,-121.0,271.0,0.264,0.237,0.149,0.923
1990129,3270.0,1244.0,8374.0,-285.0,-266.0,129.0,0.264,0.239,0.145,0.923
1990151,3510.0,204.0,8242.0,-242.0,-315.0,64.0,0.265,0.241,0.141,0.923
1990163,3694.0,960.0,8354.0,-145.0,-318.0,141.0,0.265,0.244,0.139,0.923
1990185,3490.0,1684.0,8358.0,-117.0,-286.0,255.0,0.264,0.247,0.137,0.922
1990207,3270.0,2338.0,8176.0,-87.0,-262.0,269.0,0.262,0.249,0.134,0.922
1990219,3162.0,2942.0,8000.0,-119.0,-228.0,233.0,0.261,0.251,0.132,0.923
1990241,3156.0,3296.0,7994.0,-219.0,-175.0,159.0,0.261,0.253,0.129,0.923
1990253,3010.0,3506.0,7714.0,-255.0,-114.0,80.0,0.262,0.253,0.127,0.923
1990275,3080.0,3508.0,7652.0,-76.0,-44.0,43.0,0.262,0.253,0.126,0.923
1990287,2906.0,3926.0,7512.0,33.0,33.0,-6.0,0.262,0.253,0.126,0.923
1990309,2992.0,4240.0,7376.0,156.0,90.0,-67.0,0.263,0.253,0.128,0.922
1990321,2892.0,4546.0,7258.0,262.0,158.0,-139.0,0.264,0.252,0.131,0.922
1990343,2728.0,4590.0,7218.0,185.0,224.0,-186.0,0.265,0.25,0.133,0.922
1990355,2520.0,4514.0,6968.0,102.0,300.0,-193.0,0.266,0.248,0.136,0.922
1990377,2260.0,4536.0,7022.0,2.0,305.0,-142.0,0.268,0.245,0.137,0.922
1990399,2110.0,3870.0,7224.0,-94.0,318.0,-81.0,0.268,0.242,0.137,0.922
1990411,2160.0,2484.0,7180.0,-80.0,363.0,19.0,0.268,0.238,0.137,0.923
1990433,1936.0,2182.0,7064.0,-23.0,379.0,123.0,0.267,0.235,0.137,0.924
1990445,1860.0,2040.0,6790.0,-5.0,348.0,206.0,0.265,0.233,0.138,0.925
1990467,1846.0,2150.0,6884.0,5.0,317.0,232.0,0.263,0.23,0.138,0.927
1990479,1982.0,1924.0,7104.0,78.0,279.0,211.0,0.261,0.228,0.138,0.928
1990501,2076.0,1824.0,7104.0,160.0,244.0,153.0,0.26,0.226,0.14,0.928
1990513,2218.0,2066.0,7098.0,228.0,230.0,41.0,0.259,0.225,0.142,0.929
1990535,2210.0,2236.0,7014.0,298.0,231.0,-56.0,0.259,0.224,0.145,0.928
1990557,2262.0,2244.0,6896.0,364.0,224.0,-62.0,0.259,0.222,0.149,0.928
1990569,2320.0,2200.0,6880.0,378.0,215.0,69.0,0.257,0.222,0.152,0.928
1990591,2378.0,2922.0,7144.0,302.0,202.0,137.0,0.256,0.221,0.155,0.928
1990603,2342.0,3296.0,7634.0,173.0,167.0,54.0,0.255,0.22,0.156,0.929
1990625,2232.0,4576.0,8226.0,82.0,158.0,-107.0,0.256,0.219,0.157,0.928
1990637,2216.0,3918.0,8302.0,158.0,164.0,-206.0,0.257,0.217,0.159,0.928
1990659,2166.0,4132.0,7962.0,321.0,143.0,-207.0,0.259,0.217,0.163,0.927
1990671,1954.0,4380.0,7786.0,394.0,174.0,-222.0,0.26,0.216,0.167,0.926
1990693,1680.0,3760.0,7580.0,464.0,196.0,-308.0,0.262,0.215,0.172,0.925
1990705,1504.0,3834.0,7310.0,538.0,209.0,-355.0,0.264,0.214,0.178,0.924
1990728,1564.0,3768.0,6948.0,544.0,223.0,-333.0,0.266,0.213,0.184,0.922
1990750,1624.0,3406.0,6780.0,464.0,236.0,-210.0,0.266,0.211,0.189,0.921
1990762,1622.0,3156.0,6706.0,350.0,207.0,-43.0,0.266,0.21,0.192,0.921
1990784,1854.0,3088.0,6734.0,255.0,154.0,105.0,0.265,0.21,0.194,0.921
1990796,2096.0,3126.0,6748.0,213.0,121.0,224.0,0.262,0.21,0.196,0.921
1990818,2262.0,3304.0,6968.0,161.0,102.0,258.0,0.26,0.21,0.197,0.922
1990830,2398.0,3504.0,7214.0,140.0,108.0,233.0,0.258,0.21,0.198,0.922
1990852,2412.0,3618.0,7316.0,146.0,105.0,155.0,0.256,0.21,0.199,0.922
1990864,2376.0,3704.0,7214.0,172.0,83.0,76.0,0.256,0.21,0.2,0.922
1990886,2358.0,3884.0,7208.0,174.0,97.0,-22.0,0.256,0.209,0.202,0.922
1990898,2404.0,3956.0,7256.0,152.0,126.0,-122.0,0.256,0.208,0.203,0.922
1990920,2392.0,4134.0,7480.0,173.0,157.0,-207.0,0.258,0.207,0.205,0.921
1990942,2290.0,4252.0,7384.0,176.0,189.0,-279.0,0.26,0.206,0.208,0.92
1990954,2270.0,4140.0,7300.0,206.0,199.0,-352.0,0.262,0.204,0.211,0.919
1990976,2076.0,4176.0,7028.0,225.0,212.0,-411.0,0.265,0.202,0.214,0.918
1990988,1794.0,4120.0,6836.0,181.0,248.0,-436.0,0.269,0.199,0.217,0.917
1991005,1388.0,3676.0,6630.0,104.0,243.0,-411.0,0.272,0.197,0.219,0.916
1991027,1072.0,3446.0,6590.0,63.0,198.0,-324.0,0.274,0.194,0.22,0.916
1991039,974.0,3492.0,6700.0,99.0,143.0,-248.0,0.276,0.193,0.222,0.915
1991061,910.0,3632.0,6708.0,137.0,78.0,-172.0,0.278,0.192,0.223,0.914
1991073,824.0,3914.0,6722.0,142.0,26.0,-98.0,0.279,0.192,0.225,0.914
1991095,850.0,4122.0,6804.0,136.0,-14.0,-49.0,0.279,0.192,0.226,0.913
1991117,892.0,4286.0,6786.0,126.0,-49.0,-2.0,0.279,0.193,0.227,0.913
1991129,1006.0,4326.0,6814.0,100.0,-65.0,23.0,0.28,0.194,0.228,0.912
1991151,1124.0,4304.0,6716.0,90.0,-83.0,30.0,0.28,0.195,0.228,0.912
1991163,1270.0,4324.0,6726.0,47.0,-106.0,42.0,0.28,0.196,0.228,0.912
1991185,1364.0,4322.0,6764.0,12.0,-123.0,37.0,0.28,0.197,0.228,0.911
1991197,1572.0,4298.0,7020.0,-21.0,-127.0,29.0,0.281,0.198,0.227,0.911
1991219,1588.0,4298.0,7238.0,-58.0,-113.0,19.0,0.281,0.199,0.226,0.911
1991231,1578.0,4562.0,7622.0,-75.0,-102.0,5.0,0.281,0.2,0.225,0.911
1991253,1538.0,4542.0,7606.0,-28.0,-67.0,-25.0,0.282,0.2,0.225,0.911
1991275,1496.0,4320.0,7166.0,57.0,-28.0,-66.0,0.283,0.201,0.225,0.91
1991287,1522.0,4112.0,6822.0,85.0,7.0,-99.0,0.284,0.201,0.226,0.91
1991309,1508.0,4124.0,6700.0,42.0,7.0,-98.0,0.285,0.201,0.226,0.91
1991321,1610.0,4456.0,6792.0,-39.0,-2.0,-93.0,0.286,0.2,0.226,0.909
1991343,1580.0,4512.0,6808.0,-124.0,-25.0,-77.0,0.287,0.2,0.225,0.909
1991355,1550.0,4412.0,6794.0,-208.0,-50.0,-81.0,0.289,0.2,0.223,0.909
1991377,1552.0,4344.0,6984.0,-258.0,-59.0,-101.0,0.291,0.2,0.221,0.909
1991389,1548.0,4428.0,7030.0,-261.0,-36.0,-109.0,0.292,0.199,0.219,0.909
1991411,1550.0,4004.0,6946.0,-250.0,-4.0,-101.0,0.294,0.198,0.217,0.909
1991433,1472.0,3946.0,6916.0,-215.0,25.0,-89.0,0.295,0.197,0.215,0.91
1991445,1558.0,3630.0,6808.0,-167.0,35.0,-50.0,0.296,0.196,0.214,0.91
1991467,1596.0,3526.0,6680.0,-138.0,34.0,-29.0,0.297,0.196,0.213,0.91
1991479,1546.0,3094.0,6574.0,-104.0,26.0,-15.0,0.298,0.195,0.212,0.91
1991501,1532.0,2700.0,6584.0,11.0,17.0,-15.0,0.298,0.195,0.212,0.91
1991513,1604.0,2728.0,6550.0,149.0,-5.0,-26.0,0.298,0.196,0.213,0.91
1991535,1544.0,2718.0,6632.0,262.0,-41.0,-38.0,0.298,0.197,0.215,0.909
1991547,1572.0,3218.0,6958.0,313.0,-80.0,-23.0,0.299,0.198,0.217,0.908
1991569,1584.0,3950.0,7542.0,259.0,-90.0,3.0,0.298,0.2,0.219,0.907
1991581,1556.0,4604.0,7796.0,205.0,-71.0,32.0,0.298,0.201,0.221,0.907
1991603,1520.0,4612.0,7936.0,186.0,-9.0,53.0,0.298,0.202,0.222,0.906
1991625,1612.0,4610.0,7798.0,184.0,60.0,107.0,0.297,0.203,0.223,0.906
1991637,1632.0,4558.0,7490.0,123.0,122.0,181.0,0.295,0.202,0.224,0.907
1991659,1510.0,4224.0,6994.0,76.0,154.0,182.0,0.293,0.202,0.225,0.907
1991671,1422.0,3938.0,6654.0,97.0,158.0,156.0,0.291,0.201,0.226,0.908
1991693,1458.0,3768.0,6494.0,134.0,138.0,129.0,0.29,0.2,0.227,0.908
1991705,1566.0,3440.0,6532.0,154.0,126.0,95.0,0.289,0.2,0.228,0.908
1991727,1666.0,3618.0,6742.0,166.0,114.0,69.0,0.288,0.2,0.23,0.908
1991739,1672.0,3878.0,6886.0,189.0,95.0,45.0,0.287,0.199,0.231,0.908
1991761,1660.0,4568.0,6888.0,193.0,81.0,11.0,0.287,0.199,0.233,0.908
1991783,1618.0,4556.0,6868.0,135.0,66.0,-14.0,0.287,0.199,0.234,0.907
1991795,1546.0,4514.0,6802.0,106.0,51.0,-48.0,0.287,0.199,0.235,0.907
1991817,1456.0,4648.0,6834.0,86.0,25.0,-71.0,0.288,0.199,0.236,0.906
1991829,1388.0,4588.0,6848.0,45.0,3.0,-76.0,0.289,0.199,0.237,0.906
1991851,1286.0,4666.0,6854.0,33.0,-17.0,-65.0,0.29,0.199,0.237,0.906
1991863,1276.0,4676.0,7000.0,-31.0,-35.0,-31.0,0.291,0.199,0.237,0.905
1991885,1272.0,4948.0,7160.0,-74.0,-47.0,-11.0,0.291,0.199,0.236,0.905
1991897,1242.0,4972.0,7130.0,-127.0,-48.0,-27.0,0.292,0.199,0.235,0.905
1991919,1264.0,4806.0,7026.0,-134.0,-52.0,-53.0,0.293,0.199,0.234,0.905
1991941,1340.0,4584.0,6812.0,-109.0,-67.0,-53.0,0.294,0.199,0.233,0.905
1991953,1418.0,4532.0,6718.0,-123.0,-60.0,-76.0,0.295,0.2,0.232,0.905
1991975,1536.0,4420.0,6852.0,-152.0,-40.0,-61.0,0.296,0.199,0.23,0.905
1991987,1696.0,3984.0,6952.0,-212.0,-15.0,-31.0,0.297,0.199,0.228,0.905
1992009,1616.0,3644.0,6988.0,-222.0,24.0,-3.0,0.298,0.198,0.226,0.906
1992021,1662.0,3372.0,6988.0,-173.0,50.0,6.0,0.298,0.197,0.225,0.906
1992043,1664.0,3540.0,6804.0,-104.0,65.0,20.0,0.298,0.196,0.224,0.907
1992055,1658.0,3564.0,6412.0,-68.0,52.0,22.0,0.298,0.196,0.223,0.907
1992077,1492.0,3428.0,6008.0,-28.0,29.0,27.0,0.298,0.196,0.223,0.907
1992089,1520.0,3370.0,5848.0,-7.0,-16.0,36.0,0.298,0.196,0.223,0.907
1992111,1462.0,3400.0,5838.0,12.0,-57.0,31.0,0.298,0.197,0.223,0.907
1992133,1546.0,3386.0,5952.0,29.0,-89.0,2.0,0.299,0.198,0.223,0.907
1992145,1444.0,3430.0,6344.0,55.0,-108.0,-6.0,0.299,0.199,0.223,0.906
1992167,1520.0,3738.0,7082.0,84.0,-106.0,4.0,0.3,0.2,0.223,0.906
1992179,1490.0,4314.0,7804.0,59.0,-66.0,47.0,0.299,0.201,0.223,0.906
1992201,1454.0,4888.0,8250.0,16.0,-8.0,122.0,0.299,0.202,0.223,0.906
1992213,1468.0,5040.0,8568.0,8.0,57.0,161.0,0.297,0.202,0.223,0.906
1992235,1412.0,5056.0,8354.0,89.0,112.0,168.0,0.296,0.201,0.223,0.907
1992247,1304.0,4834.0,7514.0,200.0,137.0,168.0,0.294,0.201,0.225,0.907
1992269,1146.0,4662.0,6752.0,219.0,127.0,145.0,0.292,0.201,0.227,0.907
1992291,1160.0,4114.0,6418.0,206.0,78.0,125.0,0.291,0.201,0.229,0.907
1992303,1408.0,3974.0,6390.0,165.0,24.0,107.0,0.29,0.202,0.23,0.907
1992325,1528.0,4030.0,6348.0,141.0,-19.0,67.0,0.289,0.202,0.231,0.907
1992337,1630.0,4230.0,6414.0,101.0,-61.0,37.0,0.289,0.203,0.231,0.906
1992359,1640.0,4346.0,6472.0,69.0,-95.0,-2.0,0.289,0.204,0.232,0.906
1992371,1656.0,4300.0,6590.0,37.0,-110.0,-45.0,0.29,0.205,0.232,0.906
1992393,1578.0,4336.0,6784.0,19.0,-120.0,-70.0,0.291,0.206,0.232,0.905
1992405,1572.0,4376.0,6914.0,-1.0,-121.0,-77.0,0.292,0.207,0.231,0.904
1992427,1556.0,4380.0,7064.0,-6.0,-110.0,-64.0,0.293,0.208,0.231,0.904
1992449,1632.0,4386.0,7020.0,-11.0,-92.0,-53.0,0.294,0.209,0.231,0.904
1992461,1672.0,4374.0,6970.0,-21.0,-80.0,-43.0,0.295,0.209,0.23,0.903
1992483,1734.0,4226.0,6824.0,-44.0,-70.0,-23.0,0.295,0.21,0.23,0.903
1992495,1780.0,4194.0,6728.0,-85.0,-63.0,3.0,0.296,0.21,0.229,0.903
1992517,1764.0,4144.0,6644.0,-114.0,-55.0,21.0,0.296,0.21,0.228,0.903
1992529,1812.0,4314.0,6676.0,-136.0,-45.0,45.0,0.297,0.21,0.226,0.904
1992551,1804.0,4002.0,6624.0,-154.0,-40.0,50.0,0.297,0.21,0.224,0.904
1992563,1780.0,4094.0,6670.0,-159.0,-33.0,49.0,0.297,0.21,0.223,0.904
1992585,1702.0,4056.0,6676.0,-172.0,-31.0,58.0,0.297,0.21,0.221,0.905
1992597,1690.0,4034.0,6730.0,-183.0,-19.0,75.0,0.297,0.21,0.219,0.905
1992619,1692.0,3984.0,6844.0,-190.0,-6.0,97.0,0.296,0.21,0.217,0.906
1992641,1664.0,3954.0,7052.0,-177.0,19.0,107.0,0.296,0.209,0.216,0.907
1992653,1748.0,3988.0,7200.0,-132.0,43.0,106.0,0.295,0.209,0.214,0.907
1992675,1800.0,4048.0,7234.0,-85.0,64.0,101.0,0.295,0.208,0.214,0.908
1992687,1804.0,4160.0,7206.0,-43.0,83.0,94.0,0.294,0.208,0.213,0.908
1992709,1776.0,4084.0,7136.0,-16.0,86.0,79.0,0.293,0.207,0.213,0.909
1992721,1832.0,4084.0,7072.0,6.0,84.0,60.0,0.293,0.207,0.213,0.909
1992743,1770.0,4172.0,7076.0,20.0,77.0,50.0,0.292,0.206,0.213,0.909
1992755,1790.0,4146.0,6974.0,27.0,68.0,28.0,0.292,0.206,0.214,0.909
1992777,1768.0,4146.0,6906.0,28.0,47.0,7.0,0.292,0.205,0.214,0.909
1992799,1746.0,4134.0,6874.0,20.0,40.0,3.0,0.292,0.205,0.214,0.909
1992811,1766.0,4100.0,6868.0,-1.0,21.0,-7.0,0.292,0.205,0.214,0.909
1992833,1754.0,4118.0,6894.0,-6.0,15.0,-24.0,0.293,0.205,0.214,0.909
1992845,1790.0,4086.0,6970.0,-17.0,9.0,-31.0,0.293,0.205,0.214,0.909
1992867,1714.0,3998.0,6984.0,-12.0,3.0,-35.0,0.293,0.205,0.214,0.909
1992879,1748.0,4046.0,7048.0,-8.0,9.0,-44.0,0.294,0.204,0.214,0.909
1992901,1716.0,4042.0,6988.0,0.0,16.0,-38.0,0.294,0.204,0.214,0.909
1992913,1696.0,4010.0,6952.0,5.0,11.0,-38.0,0.295,0.204,0.214,0.909
1992935,1732.0,4046.0,6932.0,10.0,7.0,-37.0,0.295,0.204,0.214,0.908
1992947,1666.0,4052.0,6976.0,18.0,11.0,-41.0,0.296,0.204,0.214,0.908
1992970,1698.0,4048.0,6968.0,24.0,15.0,-36.0,0.296,0.204,0.215,0.908
1992992,1616.0,4014.0,6936.0,24.0,26.0,-33.0,0.297,0.204,0.215,0.908
1993009,1620.0,4040.0,7006.0,43.0,30.0,-28.0,0.297,0.203,0.215,0.908
1993021,1634.0,4086.0,6936.0,48.0,24.0,-18.0,0.297,0.203,0.216,0.908
1993043,1648.0,4136.0,6882.0,48.0,23.0,-15.0,0.297,0.203,0.216,0.908
1993055,1632.0,4090.0,6890.0,49.0,26.0,-9.0,0.297,0.203,0.217,0.907
1993077,1694.0,4096.0,6900.0,46.0,17.0,-7.0,0.297,0.203,0.217,0.907
1993089,1620.0,4160.0,6942.0,39.0,20.0,-15.0,0.298,0.203,0.217,0.907
1993111,1696.0,4122.0,6830.0,37.0,28.0,-13.0,0.298,0.203,0.218,0.907
1993123,1674.0,4098.0,6838.0,26.0,22.0,-26.0,0.298,0.203,0.218,0.907
1993145,1658.0,4174.0,6858.0,18.0,15.0,-23.0,0.298,0.203,0.218,0.907
1993167,1646.0,4152.0,6890.0,12.0,10.0,-28.0,0.299,0.203,0.218,0.907
1993179,1688.0,4142.0,6924.0,11.0,18.0,-28.0,0.299,0.203,0.218,0.907
1993201,1602.0,4102.0,6890.0,5.0,11.0,-18.0,0.299,0.202,0.218,0.906
1993213,1626.0,4122.0,6932.0,7.0,9.0,-19.0,0.3,0.202,0.218,0.906
1993235,1628.0,4142.0,6928.0,14.0,4.0,-14.0,0.3,0.202,0.219,0.906
1993247,1618.0,4152.0,6880.0,3.0,9.0,-13.0,0.3,0.202,0.219,0.906
1993269,1666.0,4142.0,6868.0,6.0,11.0,-13.0,0.3,0.202,0.219,0.906
1993281,1560.0,4124.0,6942.0,-4.0,13.0,-4.0,0.3,0.202,0.219,0.906
1993303,1656.0,4174.0,6820.0,6.0,13.0,-8.0,0.301,0.202,0.219,0.906
1993315,1624.0,4176.0,6826.0,2.0,7.0,-4.0,0.301,0.202,0.219,0.906
1993337,1612.0,4198.0,6906.0,-9.0,6.0,-7.0,0.301,0.202,0.218,0.906
1993359,1596.0,4200.0,6892.0,-14.0,5.0,-6.0,0.301,0.202,0.218,0.906
1993371,1582.0,4144.0,6880.0,-12.0,6.0,-7.0,0.301,0.202,0.218,0.906
1993393,1638.0,4194.0,6922.0,-11.0,10.0,1.0,0.302,0.202,0.218,0.906
1993405,1560.0,4092.0,6912.0,-8.0,11.0,6.0,0.302,0.202,0.218,0.906
1993427,1674.0,4104.0,6922.0,-2.0,12.0,5.0,0.302,0.202,0.218,0.906
1993439,1676.0,4138.0,6924.0,-4.0,14.0,5.0,0.302,0.201,0.218,0.906
1993461,1668.0,4190.0,6840.0,-8.0,11.0,1.0,0.302,0.201,0.218,0.906
1993473,1630.0,4124.0,6844.0,-6.0,12.0,5.0,0.302,0.201,0.218,0.906
1993495,1634.0,4164.0,6868.0,-12.0,7.0,1.0,0.302,0.201,0.218,0.906
1993517,1610.0,4098.0,6920.0,-17.0,0.0,9.0,0.302,0.201,0.217,0.906
1993529,1656.0,4100.0,6934.0,-14.0,3.0,5.0,0.302,0.201,0.217,0.906
1993551,1596.0,4096.0,6906.0,-10.0,5.0,5.0,0.302,0.201,0.217,0.906
1993563,1634.0,4146.0,6916.0,-14.0,8.0,3.0,0.303,0.201,0.217,0.906
1993585,1642.0,4138.0,6876.0,-14.0,3.0,1.0,0.303,0.201,0.217,0.906
1993597,1598.0,4120.0,6884.0,-13.0,7.0,7.0,0.303,0.201,0.217,0.906
1993619,1636.0,4108.0,6928.0,-18.0,-3.0,4.0,0.303,0.201,0.216,0.906
1993631,1662.0,4142.0,6950.0,-20.0,1.0,2.0,0.303,0.201,0.216,0.906
1993653,1670.0,4116.0,6958.0,-9.0,5.0,-2.0,0.303,0.201,0.216,0.906
1993675,1648.0,4078.0,6942.0,-2.0,10.0,-1.0,0.303,0.201,0.216,0.906
1993687,1644.0,4062.0,6896.0,3.0,11.0,-3.0,0.304,0.201,0.216,0.906
1993709,1632.0,4120.0,6920.0,-3.0,8.0,-4.0,0.304,0.201,0.216,0.906
1993721,1686.0,4126.0,6898.0,1.0,8.0,-5.0,0.304,0.201,0.216,0.906
1993743,1646.0,4148.0,6916.0,-1.0,7.0,-4.0,0.304,0.201,0.216,0.906
1993755,1668.0,4108.0,6888.0,0.0,4.0,3.0,0.304,0.201,0.216,0.906
1993777,1678.0,4106.0,6878.0,-6.0,10.0,-2.0,0.304,0.201,0.216,0.906
1993789,1640.0,4146.0,6906.0,3.0,9.0,-8.0,0.305,0.201,0.216,0.906
1993811,1660.0,4108.0,6924.0,-2.0,11.0,-7.0,0.305,0.201,0.216,0.906
1993823,1632.0,4162.0,6902.0,7.0,14.0,-10.0,0.305,0.201,0.216,0.906
1993845,1654.0,4086.0,6932.0,-1.0,15.0,-6.0,0.305,0.2,0.216,0.906
1993867,1650.0,4106.0,6872.0,0.0,9.0,-7.0,0.305,0.2,0.216,0.906
1993879,1586.0,4146.0,6916.0,3.0,14.0,-6.0,0.305,0.2,0.216,0.906
1993901,1612.0,4182.0,6918.0,8.0,13.0,-6.0,0.306,0.2,0.216,0.906
1993913,1656.0,4160.0,6900.0,5.0,13.0,-4.0,0.306,0.2,0.216,0.905
1993935,1626.0,4174.0,6870.0,2.0,11.0,-1.0,0.306,0.2,0.216,0.905
1993947,1672.0,4126.0,6878.0,-2.0,7.0,-5.0,0.306,0.2,0.216,0.905
1993969,1624.0,4130.0,6892.0,2.0,13.0,-1.0,0.306,0.2,0.216,0.905
1993981,1578.0,4172.0,6880.0,6.0,13.0,-7.0,0.306,0.2,0.216,0.905
1994003,1622.0,4130.0,6886.0,1.0,10.0,-4.0,0.306,0.2,0.216,0.905
1994025,1664.0,4110.0,6858.0,1.0,9.0,-12.0,0.306,0.2,0.216,0.905
1994037,1584.0,4124.0,6818.0,-2.0,8.0,-5.0,0.307,0.2,0.216,0.905
1994059,1588.0,4114.0,6848.0,-3.0,4.0,-12.0,0.307,0.2,0.216,0.905
1994071,1632.0,4118.0,6878.0,-3.0,5.0,-5.0,0.307,0.2,0.216,0.905
1994093,1618.0,4142.0,6886.0,1.0,4.0,-6.0,0.307,0.2,0.216,0.905
1994105,1650.0,4148.0,6850.0,-1.0,3.0,-9.0,0.307,0.2,0.216,0.905
1994127,1650.0,4198.0,6924.0,1.0,4.0,-2.0,0.307,0.2,0.216,0.905
1994139,1594.0,4150.0,6948.0,1.0,7.0,-9.0,0.308,0.2,0.216,0.905
1994161,1674.0,4172.0,6838.0,-1.0,-2.0,-3.0,0.308,0.2,0.216,0.905
1994183,1606.0,4218.0,6868.0,-1.0,-1.0,-10.0,0.308,0.2,0.216,0.905
1994195,1608.0,4110.0,6842.0,-5.0,8.0,-11.0,0.308,0.2,0.215,0.905
1994217,1612.0,4118.0,6882.0,-3.0,7.0,-11.0,0.308,0.2,0.215,0.905
1994229,1564.0,4154.0,6924.0,-4.0,1.0,-4.0,0.309,0.2,0.215,0.905
1994251,1622.0,4136.0,6902.0,-3.0,3.0,-6.0,0.309,0.2,0.215,0.905
1994263,1588.0,4186.0,6904.0,-3.0,6.0,-4.0,0.309,0.199,0.215,0.905
1994285,1636.0,4166.0,6928.0,-8.0,2.0,-6.0,0.309,0.199,0.215,0.905
1994297,1686.0,4170.0,6890.0,-7.0,6.0,-5.0,0.309,0.199,0.215,0.905
1994319,1606.0,4168.0,6854.0,-9.0,5.0,-7.0,0.309,0.199,0.215,0.905
1994331,1554.0,4126.0,6890.0,-13.0,1.0,0.0,0.31,0.199,0.215,0.905
1994353,1628.0,4158.0,6992.0,3.0,2.0,1.0,0.31,0.199,0.215,0.905
1994375,1782.0,4250.0,6840.0,4.0,-3.0,2.0,0.31,0.199,0.215,0.905
1994387,1552.0,4076.0,6892.0,-10.0,1.0,7.0,0.31,0.199,0.215,0.905
1994409,1612.0,4122.0,6888.0,-13.0,6.0,-1.0,0.31,0.199,0.215,0.905
1994421,1608.0,4148.0,6910.0,-8.0,6.0,-5.0,0.31,0.199,0.215,0.905
1994443,1656.0,4112.0,6916.0,-10.0,8.0,-3.0,0.31,0.199,0.215,0.905
1994455,1606.0,4148.0,6914.0,-12.0,7.0,-4.0,0.31,0.199,0.214,0.905
1994477,1608.0,4174.0,6898.0,-8.0,10.0,-5.0,0.31,0.199,0.214,0.905
1994489,1590.0,4118.0,6916.0,-9.0,6.0,-6.0,0.31,0.199,0.214,0.904
1994511,1616.0,4132.0,6892.0,-16.0,4.0,-8.0,0.311,0.199,0.214,0.904
1994533,1650.0,4138.0,6924.0,-20.0,7.0,-1.0,0.311,0.199,0.214,0.904
1994545,1702.0,4144.0,6856.0,-18.0,9.0,-9.0,0.311,0.199,0.214,0.904
1994567,1634.0,4160.0,6908.0,-17.0,9.0,-13.0,0.311,0.199,0.214,0.904
1994579,1632.0,4168.0,6844.0,-18.0,7.0,-9.0,0.312,0.199,0.213,0.904
1994601,1694.0,4172.0,6934.0,-16.0,12.0,-11.0,0.312,0.199,0.213,0.904
1994613,1638.0,4136.0,6940.0,-18.0,15.0,-13.0,0.312,0.198,0.213,0.904
1994635,1632.0,4116.0,6916.0,-8.0,17.0,-11.0,0.312,0.198,0.213,0.904
1994647,1606.0,4110.0,6910.0,-8.0,8.0,-11.0,0.312,0.198,0.213,0.904
1994669,1586.0,4152.0,6858.0,-7.0,7.0,-6.0,0.312,0.198,0.213,0.904
1994691,1574.0,4142.0,6874.0,-8.0,3.0,-6.0,0.313,0.198,0.213,0.904
1994703,1622.0,4130.0,6854.0,-14.0,-4.0,-12.0,0.313,0.198,0.213,0.904
1994725,1666.0,4156.0,6878.0,-24.0,-8.0,-9.0,0.313,0.198,0.213,0.904
1994737,1612.0,4144.0,6874.0,-27.0,-12.0,-8.0,0.313,0.198,0.212,0.904
1994759,1572.0,4056.0,6882.0,-29.0,-16.0,-10.0,0.314,0.198,0.212,0.904
1994771,1570.0,4120.0,6922.0,-31.0,-18.0,-5.0,0.314,0.198,0.212,0.904
1994793,1552.0,4046.0,6914.0,-28.0,-15.0,0.0,0.314,0.198,0.211,0.904
1994805,1554.0,4070.0,6938.0,-27.0,-11.0,8.0,0.314,0.198,0.211,0.904
1994827,1596.0,4070.0,6982.0,-10.0,-9.0,13.0,0.314,0.198,0.211,0.904
1994839,1674.0,4092.0,6934.0,-7.0,-4.0,12.0,0.314,0.199,0.211,0.904
1994861,1668.0,4082.0,6900.0,7.0,2.0,17.0,0.314,0.199,0.211,0.904
1994883,1694.0,4098.0,6872.0,3.0,5.0,4.0,0.314,0.199,0.211,0.904
1994895,1662.0,4118.0,6878.0,-3.0,15.0,-1.0,0.314,0.199,0.211,0.904
1994917,1680.0,4160.0,6824.0,-5.0,21.0,-13.0,0.314,0.198,0.211,0.904
1994929,1650.0,4152.0,6886.0,3.0,12.0,-12.0,0.314,0.198,0.211,0.904
1994951,1536.0,4148.0,6908.0,-1.0,8.0,-13.0,0.315,0.198,0.211,0.904
1994963,1630.0,4148.0,6906.0,5.0,9.0,-15.0,0.315,0.198,0.211,0.904
1994985,1594.0,4104.0,6908.0,9.0,1.0,-12.0,0.315,0.198,0.211,0.904
1994997,1568.0,4130.0,6906.0,2.0,0.0,3.0,0.315,0.198,0.211,0.904
1995014,1618.0,4114.0,6928.0,-5.0,-4.0,9.0,0.315,0.198,0.211,0.904
1995036,1622.0,4122.0,6914.0,3.0,-1.0,13.0,0.315,0.198,0.211,0.904
1995058,1690.0,4116.0,6952.0,-3.0,0.0,3.0,0.315,0.198,0.211,0.904
1995070,1698.0,4126.0,6924.0,-1.0,1.0,2.0,0.315,0.198,0.211,0.904
1995092,1620.0,4128.0,6910.0,-1.0,9.0,1.0,0.315,0.198,0.211,0.904
1995104,1658.0,4090.0,6924.0,-2.0,16.0,-12.0,0.315,0.198,0.211,0.904
1995126,1668.0,4064.0,6956.0,2.0,12.0,-13.0,0.316,0.198,0.211,0.904
1995138,1624.0,4114.0,6970.0,7.0,15.0,-6.0,0.316,0.198,0.211,0.904
1995160,1664.0,4100.0,6888.0,11.0,23.0,-13.0,0.316,0.198,0.211,0.904
1995172,1630.0,4166.0,6928.0,6.0,12.0,-14.0,0.316,0.198,0.211,0.904
1995194,1620.0,4116.0,6844.0,8.0,13.0,-8.0,0.316,0.198,0.211,0.904
1995216,1622.0,4158.0,6802.0,5.0,12.0,-1.0,0.316,0.198,0.211,0.904
1995228,1604.0,4152.0,6884.0,15.0,12.0,0.0,0.316,0.198,0.211,0.904
1995250,1630.0,4146.0,6914.0,3.0,17.0,-5.0,0.316,0.198,0.211,0.904
1995262,1650.0,4148.0,6938.0,9.0,15.0,-7.0,0.316,0.198,0.211,0.904
1995284,1620.0,4170.0,6846.0,2.0,16.0,-14.0,0.316,0.197,0.212,0.904
1995296,1602.0,4186.0,6856.0,1.0,15.0,-9.0,0.316,0.197,0.212,0.903
1995318,1612.0,4152.0,6878.0,4.0,12.0,-15.0,0.316,0.197,0.212,0.903
1995330,1616.0,4178.0,6914.0,6.0,3.0,-8.0,0.316,0.197,0.212,0.903
1995352,1598.0,4156.0,6888.0,-4.0,8.0,-2.0,0.317,0.197,0.212,0.903
1995374,1608.0,4148.0,6872.0,-3.0,7.0,2.0,0.317,0.197,0.212,0.903
1995386,1580.0,4128.0,6866.0,-5.0,6.0,4.0,0.317,0.197,0.212,0.903
1995408,1654.0,4140.0,6942.0,-2.0,3.0,6.0,0.317,0.197,0.212,0.903
1995420,1660.0,4162.0,6882.0,-2.0,10.0,1.0,0.317,0.197,0.212,0.903
1995442,1646.0,4194.0,6906.0,4.0,4.0,-6.0,0.317,0.197,0.212,0.903
1995454,1622.0,4114.0,6900.0,-2.0,8.0,-4.0,0.317,0.197,0.212,0.903
1995476,1632.0,4100.0,6924.0,-1.0,10.0,-6.0,0.317,0.197,0.212,0.903
1995488,1628.0,4168.0,6910.0,1.0,13.0,-2.0,0.317,0.197,0.212,0.903
1995510,1536.0,4156.0,6908.0,-3.0,6.0,-6.0,0.317,0.197,0.212,0.903
1995522,1642.0,4132.0,6882.0,0.0,5.0,-10.0,0.317,0.197,0.212,0.903
1995544,1592.0,4162.0,6916.0,1.0,8.0,-8.0,0.318,0.197,0.212,0.903
1995566,1550.0,4140.0,6788.0,-10.0,4.0,-5.0,0.318,0.197,0.212,0.903
1995578,1596.0,4168.0,6980.0,6.0,7.0,12.0,0.317,0.197,0.212,0.903
1995600,1508.0,4190.0,6818.0,-9.0,11.0,-6.0,0.318,0.197,0.212,0.903
1995612,1672.0,4164.0,6870.0,-5.0,2.0,-1.0,0.318,0.197,0.212,0.903
1995634,1560.0,4150.0,6904.0,-1.0,4.0,-2.0,0.318,0.197,0.212,0.903
1995646,1590.0,4174.0,6900.0,-9.0,7.0,-2.0,0.318,0.197,0.212,0.903
1995668,1644.0,4186.0,6960.0,-8.0,7.0,0.0,0.318,0.197,0.211,0.903
1995680,1632.0,4130.0,6948.0,-8.0,4.0,-4.0,0.318,0.197,0.211,0.903
1995702,1588.0,4178.0,6898.0,-5.0,4.0,-7.0,0.318,0.197,0.211,0.903
1995724,1610.0,4160.0,6908.0,-12.0,5.0,-1.0,0.318,0.196,0.211,0.903
1995736,1636.0,4102.0,6906.0,-15.0,4.0,-6.0,0.318,0.196,0.211,0.903
1995758,1624.0,4092.0,6938.0,-13.0,3.0,-5.0,0.318,0.196,0.211,0.903
1995770,1580.0,4140.0,6842.0,-15.0,4.0,0.0,0.318,0.196,0.211,0.903
1995792,1628.0,4180.0,6902.0,-16.0,4.0,0.0,0.319,0.196,0.211,0.903
1995804,1660.0,4136.0,6982.0,-9.0,1.0,-3.0,0.319,0.196,0.211,0.903
1995826,1598.0,4140.0,6898.0,-3.0,2.0,-1.0,0.319,0.196,0.211,0.903
1995838,1642.0,4140.0,6884.0,-8.0,6.0,-4.0,0.319,0.196,0.21,0.903
1995860,1558.0,4162.0,6904.0,-14.0,8.0,-8.0,0.319,0.196,0.21,0.903
1995882,1614.0,4170.0,6970.0,-10.0,10.0,0.0,0.319,0.196,0.21,0.903
1995894,1602.0,4186.0,6910.0,-2.0,11.0,-3.0,0.319,0.196,0.21,0.903
1995916,1570.0,4142.0,6924.0,0.0,14.0,-9.0,0.319,0.196,0.21,0.903
1995928,1608.0,4144.0,6854.0,2.0,15.0,-9.0,0.319,0.196,0.21,0.903
1995950,1578.0,4184.0,6878.0,2.0,15.0,-7.0,0.319,0.196,0.21,0.903
1995962,1588.0,4172.0,6924.0,-9.0,15.0,-8.0,0.32,0.196,0.21,0.903
1995984,1584.0,4170.0,6886.0,-5.0,8.0,-10.0,0.32,0.196,0.21,0.903
1995996,1588.0,4114.0,6856.0,-3.0,6.0,-4.0,0.32,0.196,0.21,0.903
1996018,1638.0,4190.0,6862.0,-10.0,4.0,-14.0,0.32,0.196,0.21,0.903
1996030,1604.0,4126.0,6946.0,-8.0,7.0,-6.0,0.32,0.195,0.21,0.903
1996052,1570.0,4156.0,6896.0,-7.0,10.0,-2.0,0.32,0.195,0.21,0.903
1996074,1616.0,4156.0,6928.0,-11.0,8.0,-6.0,0.32,0.195,0.21,0.903
1996086,1590.0,4140.0,6910.0,-7.0,5.0,-3.0,0.32,0.195,0.21,0.903
1996108,1600.0,4210.0,6876.0,-6.0,3.0,0.0,0.32,0.195,0.21,0.903
1996120,1576.0,4150.0,6908.0,-6.0,2.0,-4.0,0.32,0.195,0.21,0.903
1996142,1630.0,4158.0,6924.0,-3.0,5.0,-3.0,0.32,0.195,0.21,0.903
1996154,1590.0,4182.0,6896.0,1.0,1.0,-6.0,0.321,0.195,0.21,0.903
1996176,1566.0,4128.0,6924.0,-3.0,6.0,-5.0,0.321,0.195,0.21,0.903
1996188,1574.0,4188.0,6904.0,-3.0,5.0,-1.0,0.321,0.195,0.21,0.903
1996210,1668.0,4138.0,6882.0,-5.0,2.0,-4.0,0.321,0.195,0.21,0.903
1996232,1624.0,4102.0,6846.0,1.0,3.0,-3.0,0.321,0.195,0.21,0.903
1996244,1576.0,4158.0,6910.0,2.0,1.0,1.0,0.321,0.195,0.21,0.903
1996266,1644.0,4156.0,6876.0,-5.0,2.0,-1.0,0.321,0.195,0.21,0.903
1996278,1602.0,4136.0,6884.0,-5.0,5.0,-6.0,0.321,0.195,0.21,0.903
1996300,1560.0,4142.0,6896.0,3.0,4.0,-3.0,0.321,0.195,0.21,0.903
1996312,1652.0,4092.0,6882.0,8.0,9.0,-6.0,0.321,0.195,0.21,0.903
1996334,1594.0,4176.0,6914.0,10.0,5.0,-6.0,0.321,0.195,0.21,0.902
1996346,1618.0,4162.0,6882.0,1.0,10.0,-2.0,0.321,0.195,0.21,0.902
1996368,1548.0,4162.0,6902.0,3.0,5.0,-7.0,0.322,0.195,0.21,0.902
1996390,1638.0,4132.0,6914.0,-1.0,7.0,-4.0,0.322,0.195,0.21,0.902
1996402,1622.0,4166.0,6894.0,5.0,10.0,-7.0,0.322,0.195,0.21,0.902
1996424,1612.0,4134.0,6872.0,0.0,7.0,-6.0,0.322,0.195,0.21,0.902
1996436,1660.0,4154.0,6848.0,-2.0,9.0,-2.0,0.322,0.195,0.21,0.902
1996458,1622.0,4150.0,6894.0,-6.0,9.0,-10.0,0.322,0.195,0.21,0.902
1996470,1574.0,4166.0,6874.0,-1.0,10.0,0.0,0.322,0.195,0.21,0.902
1996492,1626.0,4128.0,6886.0,-8.0,7.0,0.0,0.322,0.195,0.21,0.902
1996504,1646.0,4174.0,6882.0,-8.0,3.0,3.0,0.322,0.195,0.21,0.902
1996526,1650.0,4186.0,6908.0,-4.0,10.0,-4.0,0.322,0.195,0.21,0.902
1996538,1620.0,4154.0,6916.0,-4.0,11.0,-9.0,0.322,0.195,0.21,0.902
1996560,1580.0,4150.0,6866.0,-6.0,10.0,-8.0,0.322,0.195,0.21,0.902
1996582,1610.0,4166.0,6840.0,1.0,13.0,-2.0,0.322,0.195,0.21,0.902
1996594,1606.0,4200.0,6890.0,2.0,7.0,-7.0,0.322,0.195,0.21,0.902
1996616,1608.0,4166.0,6866.0,2.0,9.0,-5.0,0.322,0.195,0.21,0.902
1996628,1594.0,4206.0,6876.0,-1.0,2.0,-3.0,0.323,0.195,0.21,0.902
1996650,1640.0,4146.0,6852.0,-2.0,4.0,-7.0,0.323,0.195,0.21,0.902
1996662,1616.0,4180.0,6882.0,6.0,7.0,-14.0,0.323,0.195,0.21,0.902
1996684,1570.0,4156.0,6894.0,2.0,4.0,-6.0,0.323,0.195,0.21,0.902
1996696,1608.0,4198.0,6918.0,-3.0,10.0,-6.0,0.323,0.195,0.21,0.902
1996718,1562.0,4146.0,6944.0,-5.0,9.0,-11.0,0.323,0.195,0.21,0.902
1996740,1606.0,4164.0,6908.0,-2.0,7.0,-11.0,0.323,0.194,0.21,0.902
1996752,1592.0,4172.0,6894.0,-3.0,8.0,-10.0,0.323,0.194,0.21,0.902
1996774,1622.0,4206.0,6884.0,1.0,12.0,-6.0,0.323,0.194,0.21,0.902
1996786,1582.0,4166.0,6858.0,-3.0,10.0,-8.0,0.324,0.194,0.21,0.902
1996808,1566.0,4162.0,6886.0,-8.0,8.0,-11.0,0.324,0.194,0.21,0.902
1996820,1592.0,4200.0,6926.0,-3.0,7.0,-10.0,0.324,0.194,0.21,0.902
1996842,1660.0,4154.0,6912.0,-4.0,-1.0,-10.0,0.324,0.194,0.21,0.902
1996854,1632.0,4144.0,6932.0,-4.0,-3.0,-22.0,0.324,0.194,0.21,0.902
1996876,1662.0,4136.0,6910.0,10.0,-2.0,-32.0,0.324,0.194,0.21,0.902
1996888,1734.0,4166.0,6998.0,6.0,-4.0,-53.0,0.325,0.194,0.21,0.901
1996911,1978.0,4178.0,7060.0,36.0,-6.0,-92.0,0.326,0.194,0.211,0.901
1996923,1940.0,4194.0,7068.0,50.0,20.0,-151.0,0.327,0.194,0.211,0.9
1996946,1858.0,4132.0,7150.0,81.0,22.0,-196.0,0.328,0.194,0.212,0.9
1996958,1882.0,4100.0,7144.0,95.0,30.0,-233.0,0.33,0.194,0.214,0.899
1996981,1984.0,4116.0,6974.0,118.0,40.0,-283.0,0.332,0.193,0.215,0.898
1997003,2052.0,4082.0,7042.0,137.0,39.0,-346.0,0.334,0.193,0.217,0.897
1997020,2096.0,4000.0,7076.0,168.0,47.0,-408.0,0.337,0.192,0.219,0.895
1997032,2120.0,4204.0,7032.0,212.0,72.0,-519.0,0.341,0.191,0.222,0.893
1997054,2004.0,4418.0,6832.0,188.0,110.0,-594.0,0.345,0.19,0.225,0.891
1997066,1896.0,4360.0,6846.0,141.0,139.0,-660.0,0.35,0.188,0.228,0.889
1997088,1810.0,4120.0,6830.0,62.0,183.0,-665.0,0.355,0.185,0.23,0.887
1997100,1974.0,3790.0,6664.0,-52.0,539.0,-854.0,0.361,0.179,0.232,0.885
1997122,1574.0,4070.0,7532.0,-78.0,322.0,-544.0,0.365,0.175,0.234,0.884
1997134,1526.0,3730.0,7620.0,-163.0,424.0,-337.0,0.367,0.17,0.234,0.884
1997156,1468.0,3880.0,8046.0,-204.0,524.0,-130.0,0.368,0.165,0.234,0.885
1997178,1400.0,3378.0,7620.0,-275.0,645.0,164.0,0.365,0.159,0.234,0.887
1997190,856.0,2862.0,7146.0,-119.0,721.0,381.0,0.361,0.154,0.234,0.89
1997212,920.0,3618.0,6804.0,23.0,703.0,274.0,0.357,0.149,0.236,0.891
1997224,1144.0,3956.0,7100.0,46.0,719.0,244.0,0.353,0.143,0.238,0.893
1997246,914.0,4194.0,7442.0,-45.0,794.0,374.0,0.349,0.138,0.24,0.896
1997258,772.0,4018.0,7454.0,-168.0,799.0,416.0,0.343,0.131,0.241,0.898
1997280,552.0,3710.0,7012.0,-206.0,741.0,431.0,0.338,0.125,0.24,0.901
1997292,536.0,3760.0,6674.0,-175.0,645.0,466.0,0.333,0.121,0.24,0.904
1997314,546.0,3726.0,6670.0,-125.0,606.0,647.0,0.327,0.117,0.24,0.907
1997326,374.0,3504.0,6520.0,-96.0,517.0,589.0,0.321,0.113,0.24,0.909
1997348,194.0,3344.0,6540.0,-30.0,460.0,527.0,0.315,0.111,0.241,0.911
1997370,100.0,3274.0,6254.0,74.0,347.0,535.0,0.31,0.109,0.242,0.913
1997382,156.0,3520.0,6198.0,239.0,274.0,559.0,0.304,0.109,0.244,0.914
1997404,302.0,4268.0,6166.0,279.0,230.0,567.0,0.299,0.109,0.247,0.915
1997416,162.0,4560.0,6102.0,211.0,170.0,662.0,0.293,0.11,0.249,0.917
1997438,94.0,4348.0,6252.0,166.0,97.0,765.0,0.286,0.111,0.25,0.918
1997450,206.0,3972.0,6518.0,263.0,71.0,773.0,0.279,0.113,0.251,0.92
1997472,390.0,3742.0,6968.0,690.0,99.0,713.0,0.272,0.116,0.256,0.92
1997484,400.0,5216.0,7134.0,930.0,205.0,560.0,0.266,0.118,0.264,0.92
1997506,266.0,5158.0,6872.0,900.0,259.0,505.0,0.26,0.119,0.272,0.919
1997528,164.0,5350.0,6360.0,780.0,282.0,494.0,0.254,0.12,0.279,0.918
1997540,-8.0,5596.0,6002.0,540.0,216.0,450.0,0.249,0.12,0.284,0.918
1997562,24.0,5720.0,5956.0,346.0,168.0,385.0,0.245,0.121,0.287,0.918
1997574,56.0,5536.0,5844.0,270.0,99.0,361.0,0.241,0.122,0.29,0.918
1997596,164.0,5020.0,5796.0,405.0,49.0,370.0,0.237,0.123,0.293,0.918
1997608,238.0,4968.0,5794.0,635.0,50.0,372.0,0.233,0.125,0.298,0.917
1997630,388.0,5182.0,5954.0,764.0,38.0,406.0,0.229,0.127,0.304,0.916
1997642,492.0,5068.0,5936.0,848.0,23.0,468.0,0.224,0.13,0.311,0.914
1997664,608.0,4882.0,5904.0,975.0,31.0,534.0,0.218,0.134,0.319,0.913
1997686,686.0,4798.0,5704.0,1106.0,37.0,549.0,0.212,0.137,0.328,0.911
1997698,850.0,4886.0,5482.0,1219.0,60.0,556.0,0.205,0.141,0.337,0.908
1997720,788.0,4996.0,5238.0,1300.0,68.0,607.0,0.198,0.145,0.348,0.905
1997732,846.0,4566.0,4948.0,1409.0,2.0,705.0,0.19,0.15,0.359,0.902
1997754,1060.0,4090.0,4712.0,1620.0,-86.0,769.0,0.182,0.156,0.371,0.897
1997766,1564.0,4456.0,4576.0,1659.0,-84.0,765.0,0.173,0.162,0.384,0.893
1997788,1808.0,5788.0,4452.0,1156.0,-96.0,799.0,0.165,0.168,0.392,0.89
1997800,2206.0,5944.0,4574.0,653.0,-154.0,973.0,0.156,0.174,0.395,0.888
1997822,2364.0,5956.0,4786.0,310.0,-233.0,1080.0,0.147,0.18,0.396,0.888
1997834,2738.0,6122.0,4374.0,169.0,-374.0,1008.0,0.14,0.188,0.395,0.888
1997856,3054.0,6064.0,3932.0,152.0,-443.0,920.0,0.133,0.195,0.394,0.888
1997878,3306.0,5486.0,3410.0,213.0,-493.0,911.0,0.127,0.203,0.394,0.888
1997890,3350.0,5310.0,3610.0,273.0,-448.0,888.0,0.121,0.21,0.394,0.887
1997912,3348.0,5510.0,3834.0,299.0,-430.0,895.0,0.114,0.218,0.394,0.886
1997924,2800.0,5508.0,4012.0,266.0,-442.0,755.0,0.109,0.224,0.394,0.885
1997946,3174.0,5710.0,3882.0,83.0,-473.0,1022.0,0.102,0.232,0.392,0.884
1997958,3280.0,6118.0,3848.0,-339.0,-590.0,1297.0,0.094,0.242,0.386,0.885
1997980,3224.0,5782.0,3724.0,-785.0,-819.0,1533.0,0.085,0.253,0.376,0.887
1998002,3346.0,5382.0,3318.0,-1165.0,-1131.0,1681.0,0.078,0.268,0.361,0.89
1998014,3788.0,4670.0,2994.0,-1402.0,-1335.0,1678.0,0.072,0.283,0.344,0.892
1998036,4332.0,3970.0,3236.0,-1344.0,-1427.0,1641.0,0.066,0.299,0.328,0.894
1998048,4920.0,3554.0,3778.0,-966.0,-1431.0,1589.0,0.06,0.316,0.314,0.893
1998070,5384.0,3452.0,4324.0,-357.0,-1373.0,1551.0,0.052,0.332,0.306,0.891
1998082,5776.0,3710.0,4614.0,263.0,-1276.0,1574.0,0.041,0.347,0.303,0.887
1998104,6434.0,4512.0,4684.0,747.0,-1172.0,1637.0,0.028,0.361,0.303,0.881
1998116,6474.0,4958.0,4458.0,892.0,-1118.0,1710.0,0.014,0.376,0.304,0.875
1998138,6740.0,5372.0,4432.0,859.0,-1069.0,1807.0,0.001,-0.39,-0.305,-0.869
1998160,6984.0,5742.0,4364.0,625.0,-1075.0,1875.0,0.016,-0.403,-0.303,-0.863
1998172,7282.0,5654.0,4472.0,333.0,-1077.0,1936.0,0.03,-0.417,-0.299,-0.858
1998194,7518.0,5752.0,4528.0,15.0,-1097.0,1930.0,0.042,-0.431,-0.292,-0.853
1998206,7626.0,5450.0,4584.0,-263.0,-1106.0,1874.0,0.054,-0.445,-0.283,-0.848
1998228,7738.0,5150.0,4464.0,-420.0,-1091.0,1768.0,0.063,-0.459,-0.273,-0.843
1998240,7768.0,5040.0,4452.0,-501.0,-1043.0,1593.0,0.072,-0.471,-0.263,-0.839
1998262,7822.0,4904.0,4290.0,-499.0,-969.0,1381.0,0.078,-0.482,-0.254,-0.835
1998274,7846.0,4772.0,4270.0,-469.0,-873.0,1172.0,0.084,-0.492,-0.246,-0.831
1998296,7662.0,4550.0,4064.0,-414.0,-762.0,983.0,0.088,-0.5,-0.239,-0.828
1998308,7588.0,4334.0,4004.0,-354.0,-657.0,821.0,0.092,-0.507,-0.233,-0.824
1998330,7496.0,4106.0,3944.0,-277.0,-545.0,648.0,0.095,-0.513,-0.229,-0.822
1998342,7410.0,3938.0,3956.0,-203.0,-440.0,472.0,0.097,-0.518,-0.226,-0.82
1998364,7316.0,3748.0,3946.0,-114.0,-335.0,306.0,0.099,-0.521,-0.224,-0.818
1998386,7204.0,3698.0,3888.0,-36.0,-233.0,163.0,0.1,-0.523,-0.224,-0.817
1998398,7190.0,3550.0,3874.0,32.0,-140.0,45.0,0.101,-0.523,-0.225,-0.816
1998420,6992.0,3488.0,3906.0,73.0,-68.0,-10.0,0.101,-0.523,-0.226,-0.815
1998432,6900.0,3360.0,3940.0,95.0,-13.0,-115.0,0.101,-0.523,-0.228,-0.815
1998454,6908.0,3350.0,3946.0,83.0,33.0,-162.0,0.101,-0.522,-0.229,-0.815
1998466,6882.0,3324.0,3906.0,97.0,78.0,-190.0,0.1,-0.52,-0.232,-0.816
1998488,6776.0,3338.0,3832.0,66.0,97.0,-245.0,0.1,-0.519,-0.234,-0.816
1998500,6898.0,3252.0,3728.0,53.0,137.0,-230.0,0.099,-0.517,-0.236,-0.817
1998522,6800.0,3208.0,3594.0,45.0,168.0,-257.0,0.098,-0.514,-0.237,-0.818
1998544,6836.0,3164.0,3478.0,25.0,191.0,-317.0,0.096,-0.512,-0.239,-0.819
1998556,6920.0,3026.0,3430.0,12.0,218.0,-322.0,0.095,-0.509,-0.241,-0.821
1998578,6878.0,3080.0,3374.0,14.0,246.0,-342.0,0.093,-0.506,-0.243,-0.822
1998590,6932.0,3032.0,3216.0,20.0,264.0,-360.0,0.092,-0.503,-0.245,-0.823
1998612,7182.0,3072.0,3156.0,32.0,271.0,-416.0,0.09,-0.5,-0.248,-0.825
1998624,7140.0,3042.0,3062.0,37.0,274.0,-409.0,0.088,-0.497,-0.25,-0.826
1998646,7080.0,2982.0,2998.0,26.0,258.0,-416.0,0.087,-0.494,-0.252,-0.828
1998658,7100.0,2968.0,2958.0,10.0,221.0,-441.0,0.084,-0.491,-0.255,-0.829
1998680,7068.0,2882.0,2960.0,-13.0,181.0,-447.0,0.082,-0.489,-0.257,-0.83
1998702,7030.0,2694.0,2870.0,-39.0,144.0,-463.0,0.079,-0.486,-0.259,-0.831
1998714,6996.0,2436.0,2728.0,-33.0,115.0,-470.0,0.076,-0.484,-0.261,-0.832
1998736,6966.0,2278.0,2690.0,-2.0,93.0,-451.0,0.073,-0.482,-0.263,-0.832
1998748,6852.0,2204.0,2652.0,46.0,82.0,-405.0,0.071,-0.481,-0.266,-0.833
1998770,6784.0,2190.0,2692.0,84.0,67.0,-342.0,0.07,-0.479,-0.268,-0.833
1998782,6734.0,2208.0,2610.0,110.0,49.0,-258.0,0.069,-0.478,-0.27,-0.833
1998804,6790.0,2368.0,2578.0,122.0,33.0,-173.0,0.069,-0.478,-0.272,-0.833
1998816,6798.0,2476.0,2592.0,103.0,9.0,-78.0,0.07,-0.477,-0.274,-0.832
1998838,6790.0,2542.0,2582.0,71.0,-15.0,8.0,0.071,-0.477,-0.274,-0.832
1998850,6864.0,2646.0,2596.0,37.0,-48.0,52.0,0.072,-0.478,-0.275,-0.831
1998872,6906.0,2796.0,2602.0,14.0,-74.0,86.0,0.073,-0.479,-0.275,-0.831
1998894,6932.0,2914.0,2630.0,-16.0,-97.0,124.0,0.074,-0.48,-0.275,-0.83
1998906,6904.0,2990.0,2658.0,-32.0,-107.0,167.0,0.076,-0.481,-0.274,-0.829
1998928,6944.0,3096.0,2722.0,-38.0,-121.0,180.0,0.077,-0.482,-0.273,-0.829
1998940,6982.0,3064.0,2770.0,-42.0,-132.0,198.0,0.078,-0.484,-0.272,-0.828
1998962,6930.0,3178.0,2814.0,-35.0,-136.0,217.0,0.08,-0.485,-0.272,-0.827
1998974,6852.0,3196.0,2846.0,-45.0,-136.0,230.0,0.082,-0.487,-0.271,-0.826
1998996,6906.0,3274.0,2952.0,-49.0,-141.0,236.0,0.084,-0.489,-0.27,-0.826
1999008,6926.0,3324.0,2982.0,-60.0,-139.0,236.0,0.085,-0.49,-0.269,-0.825
1999025,6886.0,3356.0,3006.0,-71.0,-124.0,243.0,0.087,-0.492,-0.267,-0.824
1999047,6844.0,3382.0,3068.0,-70.0,-123.0,238.0,0.088,-0.493,-0.266,-0.823
1999069,7020.0,3344.0,3098.0,-60.0,-106.0,214.0,0.09,-0.494,-0.265,-0.823
1999081,7116.0,3354.0,3098.0,-29.0,-73.0,201.0,0.092,-0.495,-0.265,-0.822
1999103,7130.0,3318.0,3016.0,14.0,-49.0,167.0,0.093,-0.496,-0.264,-0.822
1999115,7100.0,3352.0,3022.0,45.0,-28.0,138.0,0.095,-0.496,-0.264,-0.821
1999137,6996.0,3328.0,3066.0,50.0,-25.0,116.0,0.096,-0.497,-0.265,-0.821
1999149,6978.0,3346.0,3098.0,15.0,-30.0,80.0,0.097,-0.497,-0.265,-0.821
1999171,6984.0,3242.0,3172.0,-36.0,-41.0,47.0,0.098,-0.497,-0.265,-0.82
1999183,7008.0,3238.0,3204.0,-60.0,-35.0,10.0,0.098,-0.497,-0.265,-0.82
1999205,7062.0,3066.0,3176.0,-71.0,-17.0,-10.0,0.098,-0.497,-0.264,-0.82
1999227,7044.0,2960.0,3112.0,-56.0,14.0,-26.0,0.098,-0.497,-0.264,-0.821
1999239,6982.0,2924.0,3200.0,13.0,55.0,-46.0,0.098,-0.497,-0.265,-0.821
1999261,6994.0,3046.0,3240.0,85.0,86.0,-72.0,0.099,-0.495,-0.266,-0.821
1999273,7062.0,3058.0,3254.0,129.0,103.0,-94.0,0.099,-0.494,-0.268,-0.821
1999295,7052.0,3062.0,3216.0,151.0,116.0,-106.0,0.1,-0.493,-0.27,-0.821
1999307,6968.0,3204.0,3206.0,124.0,117.0,-129.0,0.101,-0.491,-0.272,-0.821
1999329,6950.0,3208.0,3254.0,61.0,104.0,-147.0,0.1,-0.49,-0.273,-0.822
1999341,6972.0,3218.0,3262.0,48.0,105.0,-166.0,0.1,-0.488,-0.274,-0.822
1999363,6908.0,3178.0,3380.0,57.0,116.0,-191.0,0.1,-0.487,-0.276,-0.823
1999385,6810.0,3238.0,3536.0,162.0,149.0,-222.0,0.1,-0.485,-0.278,-0.823
1999397,6768.0,3288.0,3842.0,349.0,203.0,-260.0,0.1,-0.482,-0.282,-0.823
1999419,6668.0,3746.0,4204.0,671.0,293.0,-319.0,0.102,-0.478,-0.289,-0.823
1999431,6894.0,4454.0,4798.0,963.0,393.0,-451.0,0.105,-0.472,-0.298,-0.823
1999453,7312.0,4802.0,4748.0,1154.0,522.0,-581.0,0.107,-0.465,-0.31,-0.822
1999465,7346.0,5546.0,4758.0,1330.0,690.0,-745.0,0.11,-0.456,-0.323,-0.822
1999487,7458.0,6334.0,4578.0,1391.0,840.0,-964.0,0.111,-0.445,-0.337,-0.822
1999499,7418.0,7264.0,4604.0,1422.0,996.0,-1240.0,0.111,-0.432,-0.352,-0.823
1999521,7472.0,7644.0,4778.0,1404.0,1117.0,-1508.0,0.11,-0.417,-0.368,-0.824
1999533,7470.0,7954.0,5074.0,1363.0,1200.0,-1789.0,0.106,-0.4,-0.384,-0.825
1999555,7360.0,7824.0,4916.0,1256.0,1241.0,-2054.0,0.1,-0.381,-0.401,-0.827
1999577,7336.0,7902.0,4506.0,1079.0,1259.0,-2330.0,0.091,-0.361,-0.416,-0.829
1999589,7042.0,8146.0,4072.0,883.0,1260.0,-2557.0,0.079,-0.341,-0.431,-0.832
1999611,6720.0,8208.0,3756.0,636.0,1226.0,-2725.0,0.066,-0.319,-0.443,-0.835
1999623,6532.0,7858.0,3666.0,436.0,1163.0,-2857.0,0.05,-0.298,-0.454,-0.838
1999645,6440.0,7922.0,3642.0,409.0,1174.0,-2988.0,0.033,-0.276,-0.465,-0.84
1999657,6236.0,8346.0,3496.0,354.0,1149.0,-3106.0,0.015,-0.253,-0.476,-0.842
1999679,6118.0,8000.0,3360.0,282.0,1121.0,-3153.0,0.003,0.229,0.485,0.844
1999701,5624.0,7832.0,2932.0,273.0,1097.0,-3186.0,0.022,0.206,0.494,0.844
1999713,5074.0,7252.0,2610.0,272.0,1020.0,-3247.0,0.042,0.183,0.502,0.844
1999735,4620.0,7616.0,2700.0,342.0,982.0,-3353.0,0.063,0.159,0.511,0.842
1999747,4202.0,7900.0,2572.0,276.0,870.0,-3391.0,0.085,0.136,0.519,0.84
1999769,3774.0,7334.0,2676.0,188.0,813.0,-3332.0,0.106,0.114,0.525,0.837
1999781,3204.0,7528.0,2418.0,208.0,729.0,-3328.0,0.127,0.093,0.53,0.833
1999803,2784.0,7256.0,2270.0,197.0,649.0,-3348.0,0.149,0.072,0.535,0.828
1999815,2156.0,7068.0,2222.0,114.0,545.0,-3292.0,0.171,0.052,0.539,0.823
1999837,1730.0,6592.0,2236.0,45.0,516.0,-3208.0,0.193,0.032,0.542,0.818
1999849,1046.0,5778.0,2172.0,-112.0,459.0,-3064.0,0.214,0.013,0.542,0.812
1999871,546.0,5928.0,1920.0,-164.0,421.0,-2989.0,0.234,-0.006,0.542,0.807
1999893,84.0,5622.0,1750.0,-121.0,332.0,-2818.0,0.254,-0.023,0.541,0.801
1999905,-526.0,4854.0,1902.0,45.0,282.0,-2702.0,0.272,-0.038,0.542,0.794
1999927,-1166.0,4828.0,2206.0,12.0,223.0,-2543.0,0.29,-0.053,0.541,0.788
1999939,-1552.0,3596.0,2252.0,-107.0,136.0,-2358.0,0.306,-0.066,0.54,0.781
1999961,-2178.0,4264.0,2256.0,86.0,149.0,-2227.0,0.322,-0.078,0.539,0.774
1999973,-2028.0,5510.0,2336.0,330.0,93.0,-2090.0,0.337,-0.088,0.54,0.766
1999995,-2394.0,4634.0,2376.0,497.0,48.0,-1836.0,0.35,-0.096,0.542,0.758
2000007,-2964.0,4460.0,2232.0,627.0,19.0,-1804.0,0.363,-0.103,0.545,0.749
2000029,-3270.0,5208.0,2300.0,688.0,-56.0,-1879.0,0.377,-0.11,0.548,0.739
2000051,-3666.0,5742.0,2646.0,769.0,-153.0,-2060.0,0.393,-0.117,0.55,0.728
2000063,-3180.0,4822.0,3532.0,620.0,71.0,-1472.0,0.403,-0.122,0.553,0.719
2000085,-4050.0,5398.0,3404.0,140.0,138.0,-512.0,0.406,-0.125,0.554,0.716
2000097,-5122.0,1810.0,3478.0,39.0,-4.0,-1147.0,0.414,-0.131,0.553,0.711
2000119,-5454.0,1152.0,3452.0,114.0,-126.0,-1695.0,0.426,-0.138,0.551,0.704
2000131,-5366.0,340.0,3392.0,-103.0,-174.0,-1525.0,0.437,-0.145,0.547,0.699
2000153,-5662.0,-1020.0,3264.0,-351.0,-173.0,-1146.0,0.445,-0.151,0.543,0.696
2000165,-5300.0,-2432.0,3466.0,-577.0,-141.0,-330.0,0.447,-0.154,0.538,0.698
2000187,-5278.0,-2572.0,3860.0,-657.0,-133.0,227.0,0.446,-0.154,0.534,0.702
2000199,-5002.0,-2060.0,3748.0,-779.0,-154.0,669.0,0.441,-0.153,0.529,0.709
2000221,-4276.0,-858.0,3276.0,-562.0,-155.0,1213.0,0.433,-0.148,0.526,0.717
2000243,-3844.0,340.0,2902.0,-487.0,-109.0,1897.0,0.421,-0.14,0.525,0.727
2000255,-3486.0,504.0,2688.0,-461.0,-120.0,2505.0,0.404,-0.128,0.524,0.738
2000277,-3068.0,992.0,3052.0,-265.0,-171.0,2762.0,0.386,-0.114,0.525,0.75
2000289,-2220.0,3778.0,3112.0,164.0,-216.0,2852.0,0.367,-0.098,0.528,0.759
2000311,-1766.0,6038.0,3094.0,351.0,-186.0,3093.0,0.347,-0.079,0.533,0.768
2000323,-1288.0,7526.0,2908.0,422.0,-140.0,3115.0,0.325,-0.061,0.538,0.776
2000345,-1574.0,6584.0,2732.0,109.0,-155.0,3109.0,0.304,-0.044,0.539,0.784
2000357,-1618.0,5572.0,2620.0,66.0,-216.0,2890.0,0.284,-0.027,0.54,0.792
2000379,-1288.0,5712.0,2626.0,120.0,-297.0,2733.0,0.266,-0.01,0.541,0.798
2000401,-488.0,7410.0,2936.0,162.0,-358.0,2618.0,0.248,0.007,0.541,0.803
2000413,516.0,9412.0,3340.0,87.0,-384.0,2653.0,0.23,0.023,0.541,0.809
2000435,540.0,8060.0,3068.0,-294.0,-400.0,2871.0,0.211,0.041,0.537,0.816
2000447,366.0,5644.0,2514.0,-528.0,-490.0,2851.0,0.192,0.058,0.531,0.824
2000469,992.0,6382.0,2530.0,-368.0,-547.0,2551.0,0.175,0.074,0.525,0.829
2000481,1418.0,8296.0,3646.0,-188.0,-539.0,2282.0,0.16,0.089,0.521,0.833
2000503,2560.0,11382.0,3804.0,-125.0,-546.0,2500.0,0.144,0.106,0.517,0.837
2000515,2664.0,9566.0,4126.0,-593.0,-487.0,2855.0,0.125,0.123,0.509,0.843
2000537,1940.0,7596.0,3632.0,-712.0,-589.0,2735.0,0.107,0.14,0.499,0.848
2000549,1958.0,5284.0,2506.0,-618.0,-776.0,2474.0,0.091,0.157,0.49,0.853
2000571,2852.0,4962.0,2050.0,-329.0,-877.0,2202.0,0.078,0.173,0.483,0.854
2000593,3778.0,6832.0,2988.0,215.0,-800.0,1920.0,0.066,0.189,0.481,0.853
2000605,4390.0,7894.0,4006.0,568.0,-744.0,2080.0,0.052,0.205,0.482,0.85
2000627,4694.0,8280.0,3770.0,107.0,-779.0,2362.0,0.037,0.222,0.478,0.849
2000639,4630.0,7112.0,3446.0,-278.0,-808.0,2490.0,0.021,0.239,0.47,0.85
2000661,5024.0,6334.0,3250.0,-233.0,-838.0,2431.0,0.006,0.257,0.462,0.849
2000673,5294.0,5742.0,3088.0,-117.0,-883.0,2344.0,0.009,-0.274,-0.455,-0.847
2000695,5866.0,5654.0,2988.0,-53.0,-925.0,2354.0,0.024,-0.292,-0.449,-0.844
2000707,6540.0,6244.0,2860.0,-89.0,-978.0,2369.0,0.038,-0.309,-0.442,-0.841
2000729,6930.0,6470.0,3046.0,-215.0,-1034.0,2501.0,0.053,-0.328,-0.433,-0.838
2000751,7454.0,6364.0,2996.0,-293.0,-1065.0,2668.0,0.069,-0.347,-0.423,-0.834
2000763,7656.0,6136.0,3088.0,-279.0,-1050.0,2723.0,0.085,-0.366,-0.413,-0.83
2000785,7834.0,5918.0,3086.0,-147.0,-1030.0,2663.0,0.101,-0.384,-0.403,-0.824
2000797,8032.0,6040.0,3058.0,56.0,-989.0,2543.0,0.117,-0.401,-0.396,-0.818
2000819,8108.0,6362.0,3064.0,194.0,-923.0,2441.0,0.133,-0.417,-0.389,-0.811
2000831,8052.0,6926.0,3100.0,310.0,-785.0,2306.0,0.149,-0.43,-0.383,-0.804
2000853,7740.0,7492.0,3296.0,424.0,-646.0,2134.0,0.165,-0.442,-0.379,-0.796
2000875,7436.0,8172.0,3476.0,451.0,-529.0,1876.0,0.179,-0.452,-0.375,-0.789
2000887,7134.0,8410.0,3810.0,439.0,-436.0,1582.0,0.191,-0.46,-0.373,-0.783
2000899,6836.0,8624.0,4194.0,550.0,-300.0,1187.0,0.202,-0.465,-0.372,-0.778
2000922,6420.0,9392.0,4160.0,634.0,-157.0,772.0,0.21,-0.467,-0.374,-0.773
2000944,6338.0,9114.0,4254.0,682.0,-8.0,344.0,0.215,-0.467,-0.378,-0.77
2000956,6228.0,9646.0,4516.0,807.0,127.0,-205.0,0.218,-0.464,-0.384,-0.768
2000978,6284.0,9670.0,4670.0,835.0,223.0,-708.0,0.218,-0.458,-0.393,-0.767
2000990,6364.0,9514.0,4722.0,894.0,365.0,-1241.0,0.215,-0.448,-0.405,-0.768
2001012,6432.0,9976.0,4640.0,846.0,451.0,-1738.0,0.208,-0.437,-0.417,-0.769
2001029,6756.0,9662.0,4488.0,752.0,548.0,-2113.0,0.199,-0.423,-0.43,-0.772
2001041,6828.0,9476.0,4170.0,704.0,635.0,-2483.0,0.187,-0.406,-0.444,-0.776
2001063,7094.0,9498.0,3930.0,559.0,689.0,-2745.0,0.172,-0.389,-0.458,-0.781
2001085,7144.0,9318.0,3678.0,316.0,691.0,-2947.0,0.155,-0.37,-0.47,-0.786
2001097,7370.0,9036.0,3488.0,27.0,675.0,-3156.0,0.136,-0.351,-0.48,-0.793
2001119,7588.0,8832.0,2892.0,-207.0,635.0,-3334.0,0.114,-0.331,-0.488,-0.799
2001131,7784.0,8354.0,2468.0,-192.0,682.0,-3473.0,0.091,-0.31,-0.497,-0.805
2001153,7816.0,8944.0,2646.0,29.0,730.0,-3648.0,0.067,-0.287,-0.507,-0.81
2001165,7892.0,8792.0,2508.0,66.0,743.0,-3735.0,0.043,-0.263,-0.517,-0.813
2001187,7550.0,8314.0,2030.0,-15.0,757.0,-3819.0,0.018,-0.239,-0.526,-0.816
2001199,7176.0,8976.0,2002.0,43.0,745.0,-3954.0,0.008,0.213,0.534,0.818
2001221,7216.0,9054.0,1824.0,-10.0,683.0,-3984.0,0.034,0.188,0.542,0.818
2001233,6880.0,8706.0,1706.0,-142.0,671.0,-3971.0,0.061,0.163,0.548,0.818
2001255,6318.0,8180.0,1988.0,-235.0,655.0,-4005.0,0.088,0.137,0.552,0.818
2001277,5562.0,8092.0,1732.0,-292.0,567.0,-4029.0,0.116,0.111,0.555,0.816
2001289,4778.0,7124.0,1830.0,-480.0,482.0,-3950.0,0.143,0.087,0.556,0.814
2001311,3970.0,6898.0,1756.0,-621.0,439.0,-3898.0,0.17,0.064,0.554,0.812
2001323,3230.0,6914.0,1734.0,-650.0,396.0,-3791.0,0.196,0.041,0.552,0.809
2001345,2678.0,6476.0,1472.0,-492.0,359.0,-3645.0,0.222,0.018,0.55,0.805
2001357,1860.0,4798.0,1640.0,-255.0,354.0,-3511.0,0.246,-0.003,0.549,0.799
2001379,778.0,4772.0,1938.0,5.0,299.0,-3519.0,0.271,-0.023,0.549,0.79
2001391,276.0,4876.0,2288.0,1.0,211.0,-3373.0,0.294,-0.042,0.549,0.781
2001413,-74.0,5118.0,1998.0,-84.0,119.0,-3264.0,0.317,-0.06,0.547,0.772
2001435,-326.0,6144.0,1884.0,137.0,108.0,-3142.0,0.339,-0.076,0.546,0.762
2001447,-1114.0,4782.0,1990.0,702.0,75.0,-3029.0,0.361,-0.09,0.549,0.749
2001469,-1912.0,4904.0,1870.0,1415.0,18.0,-3037.0,0.383,-0.101,0.556,0.731
2001481,-2424.0,6574.0,2026.0,1752.0,-226.0,-3125.0,0.407,-0.109,0.564,0.71
2001503,-4174.0,3686.0,2866.0,2067.0,-528.0,-4512.0,0.441,-0.121,0.571,0.682
2001515,854.0,4822.0,2780.0,-305.0,113.0,-236.0,0.442,-0.124,0.569,0.682
2001537,-4786.0,1268.0,3788.0,-1491.0,386.0,466.0,0.435,-0.13,0.562,0.692
2001549,-7430.0,-3140.0,3944.0,-2006.0,152.0,-1633.0,0.444,-0.149,0.546,0.695
2001571,-5928.0,-5462.0,3906.0,-1414.0,-228.0,-2641.0,0.461,-0.168,0.531,0.691
2001593,-5876.0,-4880.0,2966.0,-700.0,-442.0,-2753.0,0.481,-0.182,0.519,0.683
2001605,-4608.0,-4872.0,2466.0,-337.0,-594.0,-1704.0,0.494,-0.188,0.512,0.677
2001627,-3626.0,-5056.0,2508.0,-411.0,-441.0,171.0,0.494,-0.186,0.507,0.681
2001639,-4294.0,-3586.0,2908.0,-724.0,-372.0,1252.0,0.487,-0.181,0.503,0.69
2001661,-3972.0,-2748.0,2766.0,-1230.0,-507.0,1468.0,0.478,-0.176,0.495,0.703
2001673,-2592.0,-2328.0,2864.0,-1428.0,-608.0,1894.0,0.466,-0.17,0.486,0.719
2001695,-3668.0,-1398.0,3188.0,-1021.0,-688.0,2567.0,0.451,-0.157,0.48,0.736
2001707,-1106.0,1122.0,3698.0,-579.0,-717.0,3522.0,0.429,-0.139,0.478,0.753
2001729,-744.0,2478.0,3660.0,113.0,-603.0,4056.0,0.404,-0.116,0.482,0.769
2001741,-994.0,3008.0,3766.0,597.0,-566.0,4080.0,0.378,-0.091,0.488,0.782
2001763,-432.0,5936.0,3214.0,1012.0,-582.0,3730.0,0.354,-0.065,0.496,0.79
2001775,-264.0,6986.0,3474.0,950.0,-608.0,3605.0,0.331,-0.04,0.503,0.797
2001797,428.0,9794.0,3038.0,761.0,-655.0,3444.0,0.309,-0.017,0.508,0.804
2001819,996.0,8434.0,3998.0,392.0,-435.0,3950.0,0.281,0.007,0.51,0.813
2001831,58.0,8276.0,3894.0,118.0,-372.0,3753.0,0.255,0.028,0.509,0.822
2001853,-42.0,7184.0,4042.0,-168.0,-596.0,3154.0,0.234,0.048,0.505,0.829
2001865,1592.0,8596.0,4018.0,-103.0,-720.0,2699.0,0.216,0.066,0.501,0.835
2001887,2254.0,9222.0,3522.0,-192.0,-733.0,2841.0,0.198,0.085,0.496,0.841
2001899,2748.0,8382.0,3018.0,-290.0,-720.0,3146.0,0.177,0.104,0.49,0.847
2001921,2466.0,7746.0,3666.0,-203.0,-665.0,3262.0,0.154,0.125,0.484,0.852
2001943,2706.0,7362.0,3834.0,24.0,-722.0,3319.0,0.131,0.146,0.479,0.856
2001955,3332.0,6796.0,3810.0,357.0,-688.0,3404.0,0.106,0.168,0.476,0.857
2001977,4064.0,7438.0,4154.0,743.0,-602.0,3364.0,0.081,0.188,0.476,0.855
2001989,5176.0,8360.0,4282.0,1343.0,-481.0,3129.0,0.056,0.207,0.48,0.85
2002011,4916.0,8142.0,3134.0,590.0,-551.0,3247.0,0.032,0.226,0.478,0.848
2002023,4774.0,6532.0,2462.0,-363.0,-690.0,3148.0,0.011,0.246,0.468,0.849
2002045,5470.0,6372.0,3040.0,-363.0,-851.0,2806.0,0.007,-0.265,-0.459,-0.848
2002057,6234.0,6180.0,3424.0,160.0,-849.0,2748.0,0.026,-0.284,-0.453,-0.845
2002079,6816.0,6076.0,3326.0,551.0,-788.0,2776.0,0.046,-0.301,-0.45,-0.839
2002091,7544.0,5912.0,3268.0,536.0,-771.0,2824.0,0.066,-0.319,-0.447,-0.833
2002113,7960.0,6076.0,3308.0,318.0,-756.0,2839.0,0.086,-0.336,-0.441,-0.828
2002135,8222.0,6094.0,3000.0,114.0,-767.0,2938.0,0.106,-0.354,-0.433,-0.822
2002147,8606.0,6114.0,2970.0,105.0,-731.0,3026.0,0.127,-0.372,-0.425,-0.816
2002169,8824.0,7154.0,3090.0,116.0,-713.0,3002.0,0.147,-0.389,-0.416,-0.809
2002181,8912.0,7168.0,3286.0,46.0,-706.0,2975.0,0.167,-0.405,-0.406,-0.802
2002203,8568.0,7140.0,3222.0,-62.0,-711.0,2878.0,0.186,-0.422,-0.396,-0.794
2002215,8262.0,6956.0,3186.0,-232.0,-740.0,2698.0,0.202,-0.437,-0.385,-0.787
2002237,7944.0,6786.0,3036.0,-355.0,-761.0,2407.0,0.216,-0.452,-0.374,-0.781
2002249,7774.0,6290.0,3104.0,-396.0,-732.0,2090.0,0.227,-0.465,-0.364,-0.774
2002271,7606.0,6156.0,3108.0,-428.0,-664.0,1738.0,0.236,-0.477,-0.355,-0.769
2002283,7414.0,5958.0,3078.0,-454.0,-601.0,1399.0,0.242,-0.486,-0.347,-0.765
2002305,7384.0,5578.0,3006.0,-379.0,-491.0,1076.0,0.247,-0.494,-0.34,-0.761
2002327,7326.0,5350.0,2886.0,-212.0,-357.0,809.0,0.251,-0.5,-0.336,-0.758
2002339,7158.0,5328.0,2968.0,-23.0,-213.0,592.0,0.254,-0.503,-0.334,-0.755
2002361,7034.0,5232.0,3320.0,110.0,-85.0,378.0,0.257,-0.505,-0.333,-0.754
2002373,6806.0,5720.0,3458.0,151.0,8.0,219.0,0.26,-0.505,-0.333,-0.753
2002395,6542.0,5814.0,3590.0,161.0,30.0,29.0,0.261,-0.504,-0.335,-0.752
2002407,6542.0,6090.0,3562.0,273.0,72.0,-180.0,0.262,-0.502,-0.337,-0.752
2002429,6560.0,6230.0,3958.0,449.0,167.0,-433.0,0.262,-0.499,-0.342,-0.752
2002441,6596.0,6890.0,3934.0,557.0,263.0,-702.0,0.261,-0.493,-0.349,-0.753
2002463,6656.0,6990.0,3848.0,681.0,358.0,-1037.0,0.258,-0.485,-0.358,-0.755
2002485,6950.0,7462.0,3900.0,793.0,469.0,-1414.0,0.253,-0.475,-0.369,-0.757
2002497,7258.0,8000.0,3938.0,709.0,528.0,-1806.0,0.246,-0.463,-0.381,-0.761
2002519,7626.0,7912.0,3678.0,532.0,547.0,-2185.0,0.235,-0.45,-0.393,-0.766
2002531,7928.0,7958.0,3536.0,342.0,564.0,-2548.0,0.221,-0.436,-0.405,-0.773
2002553,8484.0,7644.0,3608.0,136.0,555.0,-2863.0,0.203,-0.42,-0.417,-0.78
2002565,8742.0,7764.0,3730.0,-35.0,569.0,-3148.0,0.183,-0.404,-0.428,-0.788
2002587,9028.0,7846.0,3556.0,-156.0,655.0,-3360.0,0.161,-0.385,-0.438,-0.796
2002609,9118.0,8080.0,3592.0,-196.0,754.0,-3523.0,0.137,-0.365,-0.449,-0.804
2002621,9020.0,8098.0,3450.0,-216.0,829.0,-3651.0,0.113,-0.343,-0.458,-0.812
2002643,8918.0,8324.0,3436.0,-287.0,880.0,-3734.0,0.088,-0.321,-0.467,-0.819
2002655,8840.0,8406.0,3380.0,-374.0,908.0,-3811.0,0.062,-0.297,-0.475,-0.826
2002677,8508.0,8154.0,3162.0,-480.0,939.0,-3850.0,0.036,-0.272,-0.481,-0.833
2002689,8026.0,8006.0,3158.0,-617.0,971.0,-3862.0,0.01,-0.247,-0.485,-0.838
2002711,7520.0,7926.0,3092.0,-726.0,984.0,-3879.0,0.018,0.222,0.488,0.844
2002723,6880.0,7290.0,3094.0,-787.0,1012.0,-3824.0,0.044,0.196,0.49,0.848
2002745,6388.0,6956.0,2890.0,-698.0,1048.0,-3799.0,0.071,0.17,0.492,0.851
2002757,5698.0,6984.0,2962.0,-658.0,1043.0,-3723.0,0.096,0.144,0.493,0.853
2002779,5056.0,6446.0,2860.0,-541.0,1038.0,-3595.0,0.12,0.119,0.494,0.853
2002791,4520.0,6524.0,2926.0,-390.0,1040.0,-3572.0,0.143,0.095,0.496,0.851
2002813,4046.0,5992.0,3064.0,-353.0,1000.0,-3412.0,0.165,0.071,0.497,0.849
2002835,3112.0,6726.0,2966.0,-668.0,1035.0,-3154.0,0.185,0.048,0.495,0.848
2002847,1888.0,6088.0,2746.0,-1032.0,846.0,-3446.0,0.208,0.024,0.49,0.846
2002869,2402.0,5488.0,2522.0,-1035.0,809.0,-3245.0,0.23,0.001,0.483,0.845
2002881,1604.0,5310.0,2812.0,-709.0,968.0,-2917.0,0.249,-0.022,0.48,0.841
2002903,644.0,5296.0,2782.0,-224.0,984.0,-2960.0,0.267,-0.043,0.479,0.835
2002915,-320.0,4696.0,2932.0,50.0,921.0,-2996.0,0.286,-0.064,0.481,0.826
2002937,-1136.0,5420.0,3200.0,292.0,863.0,-3002.0,0.306,-0.083,0.483,0.816
2002959,-1046.0,6364.0,3452.0,361.0,787.0,-2910.0,0.325,-0.101,0.486,0.805
2002971,-1340.0,6774.0,3382.0,417.0,759.0,-2806.0,0.342,-0.117,0.488,0.794
2002993,-1640.0,6524.0,3256.0,522.0,713.0,-2724.0,0.359,-0.132,0.492,0.782
2003005,-2270.0,5910.0,3132.0,704.0,577.0,-2848.0,0.378,-0.147,0.495,0.768
2003032,-3208.0,1486.0,3504.0,1759.0,624.0,-3919.0,0.406,-0.163,0.504,0.745
2003044,-1654.0,4622.0,3178.0,1124.0,741.0,-1100.0,0.411,-0.169,0.513,0.734
2003056,-4260.0,804.0,3790.0,628.0,649.0,-834.0,0.415,-0.175,0.518,0.727
2003078,-6570.0,-2448.0,3302.0,553.0,242.0,-2516.0,0.433,-0.188,0.518,0.713
2003090,-5648.0,-4004.0,3408.0,740.0,-137.0,-3130.0,0.456,-0.2,0.516,0.697
2003112,-5536.0,-5298.0,3546.0,536.0,-257.0,-2873.0,0.478,-0.21,0.512,0.682
2003134,-4594.0,-5800.0,3366.0,426.0,-260.0,-1622.0,0.492,-0.216,0.509,0.673
2003146,-4374.0,-5538.0,3160.0,304.0,-229.0,-224.0,0.496,-0.215,0.508,0.671
2003168,-4414.0,-3460.0,3154.0,215.0,-213.0,729.0,0.493,-0.209,0.51,0.673
2003180,-4168.0,-958.0,2882.0,-30.0,-257.0,1297.0,0.486,-0.201,0.511,0.68
2003202,-3796.0,-512.0,2500.0,-110.0,-260.0,1825.0,0.476,-0.191,0.513,0.689
2003214,-3288.0,-1572.0,2698.0,-195.0,-192.0,2594.0,0.46,-0.177,0.515,0.701
2003236,-3118.0,-1250.0,2968.0,-131.0,-132.0,2990.0,0.441,-0.162,0.519,0.714
2003248,-2434.0,444.0,2840.0,65.0,-213.0,3299.0,0.42,-0.144,0.523,0.727
2003270,-1746.0,3772.0,3028.0,232.0,-222.0,3485.0,0.398,-0.124,0.528,0.739
2003292,-1130.0,5420.0,2664.0,282.0,-245.0,3947.0,0.373,-0.102,0.534,0.752
2003304,-1466.0,5264.0,2610.0,38.0,-249.0,4191.0,0.345,-0.079,0.537,0.766
2003326,-1556.0,4262.0,2724.0,-162.0,-363.0,3950.0,0.319,-0.056,0.537,0.779
2003338,-182.0,6518.0,3006.0,188.0,-430.0,3501.0,0.296,-0.035,0.538,0.788
2003360,272.0,8892.0,3626.0,422.0,-355.0,3346.0,0.273,-0.014,0.541,0.795
2003372,918.0,10864.0,3382.0,396.0,-279.0,3256.0,0.25,0.006,0.544,0.801
2003394,36.0,8120.0,3150.0,-134.0,-255.0,3334.0,0.227,0.025,0.542,0.809
2003406,446.0,5684.0,2500.0,-431.0,-336.0,3438.0,0.203,0.044,0.537,0.818
2003428,1646.0,7702.0,2428.0,-81.0,-362.0,3055.0,0.181,0.062,0.534,0.824
2003440,2594.0,11288.0,3190.0,159.0,-417.0,2974.0,0.16,0.081,0.533,0.827
2003462,3252.0,11844.0,3664.0,69.0,-345.0,3319.0,0.136,0.1,0.53,0.831
2003484,2582.0,9880.0,3278.0,105.0,-277.0,3355.0,0.112,0.119,0.527,0.834
2003496,2486.0,6940.0,2928.0,295.0,-328.0,3056.0,0.089,0.137,0.525,0.835
2003518,2630.0,5770.0,2800.0,536.0,-357.0,2716.0,0.069,0.154,0.525,0.834
2003530,2950.0,6468.0,3014.0,475.0,-398.0,2502.0,0.051,0.17,0.525,0.832
2003552,3520.0,7970.0,3414.0,37.0,-443.0,2476.0,0.034,0.186,0.521,0.832
2003564,4752.0,9968.0,2934.0,-341.0,-559.0,2535.0,0.018,0.202,0.513,0.834
2003586,5340.0,7538.0,2650.0,-739.0,-618.0,2813.0,0.001,0.221,0.502,0.836
2003598,5528.0,5272.0,2734.0,-416.0,-541.0,2704.0,0.018,-0.238,-0.493,-0.837
2003620,5746.0,6288.0,2912.0,286.0,-511.0,2218.0,0.034,-0.252,-0.49,-0.834
2003632,6124.0,7438.0,3230.0,493.0,-502.0,2096.0,0.049,-0.266,-0.489,-0.829
2003654,6162.0,7162.0,3002.0,442.0,-433.0,2347.0,0.066,-0.28,-0.487,-0.825
2003676,6440.0,6990.0,2790.0,208.0,-486.0,2567.0,0.084,-0.295,-0.482,-0.821
2003688,6696.0,6632.0,2626.0,-24.0,-590.0,2692.0,0.102,-0.311,-0.475,-0.817
2003710,7106.0,6106.0,2428.0,-135.0,-654.0,2760.0,0.12,-0.329,-0.466,-0.813
2003722,7390.0,6292.0,2634.0,-207.0,-712.0,2741.0,0.137,-0.346,-0.457,-0.808
2003744,7904.0,6754.0,2876.0,-318.0,-766.0,2684.0,0.153,-0.364,-0.447,-0.803
2003756,7950.0,6832.0,3050.0,-466.0,-778.0,2653.0,0.168,-0.381,-0.435,-0.798
2003778,7974.0,6712.0,3016.0,-568.0,-768.0,2598.0,0.182,-0.398,-0.423,-0.793
2003800,7778.0,6692.0,2956.0,-598.0,-747.0,2449.0,0.195,-0.414,-0.411,-0.789
2003812,7634.0,6650.0,2986.0,-616.0,-728.0,2258.0,0.207,-0.429,-0.399,-0.784
2003834,7466.0,6456.0,3094.0,-584.0,-678.0,2045.0,0.217,-0.442,-0.388,-0.779
2003846,7346.0,6354.0,3314.0,-537.0,-632.0,1795.0,0.226,-0.455,-0.378,-0.774
2003868,7214.0,6070.0,3274.0,-494.0,-573.0,1560.0,0.234,-0.465,-0.369,-0.77
2003880,7124.0,5826.0,3254.0,-417.0,-488.0,1307.0,0.24,-0.474,-0.361,-0.766
2003902,7134.0,5820.0,3262.0,-351.0,-387.0,1031.0,0.244,-0.481,-0.355,-0.763
2003914,7012.0,5872.0,3314.0,-251.0,-282.0,758.0,0.248,-0.486,-0.351,-0.761
2003936,6958.0,5798.0,3424.0,-155.0,-191.0,511.0,0.251,-0.489,-0.348,-0.759
2003948,6774.0,5792.0,3578.0,0.0,-84.0,254.0,0.253,-0.49,-0.348,-0.758
2003970,6692.0,5920.0,3662.0,161.0,-15.0,-5.0,0.254,-0.49,-0.349,-0.758
2003982,6616.0,6168.0,3920.0,305.0,100.0,-247.0,0.254,-0.488,-0.352,-0.757
2004004,6860.0,6620.0,3992.0,431.0,212.0,-544.0,0.253,-0.483,-0.358,-0.758
2004026,6754.0,7252.0,3890.0,385.0,316.0,-794.0,0.251,-0.477,-0.363,-0.76
2004038,6880.0,7418.0,3614.0,281.0,400.0,-1088.0,0.246,-0.47,-0.369,-0.763
2004060,7218.0,7588.0,3686.0,132.0,442.0,-1440.0,0.238,-0.461,-0.376,-0.768
2004072,7538.0,7546.0,3694.0,-26.0,500.0,-1837.0,0.227,-0.451,-0.383,-0.774
2004094,7774.0,7280.0,3610.0,-63.0,553.0,-2219.0,0.213,-0.439,-0.391,-0.781
2004106,8092.0,7046.0,3620.0,12.0,624.0,-2552.0,0.197,-0.425,-0.4,-0.788
2004128,8330.0,7398.0,3874.0,-7.0,711.0,-2848.0,0.18,-0.409,-0.41,-0.795
2004140,8534.0,7946.0,4188.0,-98.0,810.0,-3100.0,0.16,-0.39,-0.42,-0.803
2004162,8658.0,8338.0,3864.0,-145.0,912.0,-3284.0,0.139,-0.37,-0.43,-0.812
2004184,8604.0,8094.0,3488.0,-97.0,1028.0,-3378.0,0.118,-0.349,-0.439,-0.819
2004196,8462.0,7602.0,3532.0,73.0,1104.0,-3499.0,0.096,-0.326,-0.45,-0.826
2004218,8170.0,7790.0,3802.0,165.0,1107.0,-3663.0,0.073,-0.301,-0.461,-0.831
2004230,7908.0,8026.0,3760.0,82.0,1070.0,-3762.0,0.05,-0.276,-0.472,-0.836
2004252,7372.0,7908.0,3234.0,-93.0,1051.0,-3743.0,0.025,-0.251,-0.48,-0.84
2004264,6906.0,8152.0,2920.0,-140.0,1008.0,-3720.0,0.001,-0.226,-0.487,-0.844
2004286,6618.0,7790.0,2958.0,-204.0,973.0,-3713.0,0.024,0.202,0.493,0.846
2004298,6228.0,7240.0,3198.0,-270.0,968.0,-3702.0,0.049,0.177,0.498,0.848
2004320,5684.0,7488.0,3166.0,-246.0,960.0,-3745.0,0.074,0.151,0.502,0.848
2004342,4966.0,6646.0,3368.0,-278.0,955.0,-3658.0,0.098,0.127,0.506,0.848
2004354,3902.0,6234.0,3072.0,-244.0,911.0,-3578.0,0.122,0.103,0.508,0.846
2004376,3472.0,6778.0,3084.0,-241.0,832.0,-3596.0,0.146,0.08,0.51,0.844
2004388,3438.0,6712.0,2636.0,-467.0,820.0,-3319.0,0.168,0.058,0.51,0.842
2004410,2560.0,6368.0,2946.0,-746.0,821.0,-3298.0,0.19,0.035,0.507,0.84
2004422,2048.0,6492.0,3074.0,-663.0,781.0,-3322.0,0.212,0.013,0.504,0.837
2004444,1810.0,5798.0,2790.0,-87.0,845.0,-3156.0,0.232,-0.009,0.505,0.831
2004456,1034.0,5544.0,2484.0,461.0,881.0,-3058.0,0.252,-0.029,0.51,0.822
2004478,676.0,7478.0,2694.0,829.0,823.0,-3118.0,0.271,-0.047,0.518,0.81
2004490,492.0,8114.0,2636.0,755.0,736.0,-3034.0,0.29,-0.065,0.524,0.798
2004512,-234.0,6090.0,2476.0,463.0,683.0,-2860.0,0.308,-0.083,0.527,0.787
2004534,-1080.0,4870.0,2096.0,542.0,606.0,-2906.0,0.327,-0.1,0.53,0.776
2004546,-1906.0,3162.0,2052.0,723.0,435.0,-3164.0,0.348,-0.116,0.534,0.762
2004568,-2590.0,2060.0,2388.0,1546.0,258.0,-3951.0,0.377,-0.132,0.541,0.74
2004580,570.0,6136.0,1710.0,1232.0,570.0,-730.0,0.38,-0.135,0.551,0.731
2004602,-3078.0,3212.0,1884.0,911.0,360.0,-642.0,0.384,-0.138,0.557,0.723
2004614,-4876.0,656.0,1696.0,1155.0,-203.0,-2035.0,0.401,-0.142,0.562,0.71
2004636,-4096.0,1826.0,2834.0,1393.0,-489.0,-2843.0,0.424,-0.149,0.565,0.692
2004658,-4128.0,2022.0,4756.0,1254.0,-470.0,-2745.0,0.446,-0.155,0.567,0.675
2004670,-4956.0,-1116.0,5996.0,1100.0,-330.0,-2414.0,0.465,-0.161,0.568,0.66
2004692,-5012.0,-3994.0,5790.0,943.0,-47.0,-1683.0,0.478,-0.167,0.57,0.647
2004704,-5694.0,-3288.0,4524.0,493.0,129.0,-1130.0,0.486,-0.172,0.57,0.639
2004726,-5396.0,-3498.0,3472.0,-266.0,144.0,-383.0,0.488,-0.176,0.569,0.638
2004738,-5114.0,-2982.0,2704.0,-699.0,182.0,580.0,0.482,-0.177,0.567,0.644
2004760,-5012.0,-2006.0,2402.0,-735.0,145.0,1238.0,0.473,-0.174,0.565,0.653
2004772,-4218.0,-432.0,2364.0,-448.0,112.0,1862.0,0.461,-0.166,0.566,0.663
2004794,-3822.0,-562.0,2254.0,-340.0,74.0,2600.0,0.444,-0.154,0.568,0.676
2004806,-3330.0,-526.0,2112.0,-509.0,-36.0,3200.0,0.423,-0.139,0.569,0.691
2004828,-2536.0,2758.0,1980.0,-618.0,-190.0,3407.0,0.402,-0.122,0.568,0.708
2004850,-1878.0,4378.0,2732.0,-868.0,-261.0,3823.0,0.377,-0.102,0.565,0.726
2004862,-1682.0,6768.0,2666.0,-704.0,-225.0,3989.0,0.351,-0.081,0.563,0.744
2004884,-1792.0,5000.0,3136.0,-697.0,-221.0,3932.0,0.324,-0.061,0.56,0.76
2004896,-1766.0,2660.0,2534.0,-328.0,-217.0,3697.0,0.299,-0.041,0.559,0.772
2004918,-912.0,3968.0,3108.0,244.0,-134.0,3348.0,0.276,-0.021,0.562,0.78
2004930,480.0,9544.0,2846.0,761.0,-109.0,3072.0,0.254,-0.002,0.567,0.783
2004952,2164.0,11446.0,3300.0,414.0,35.0,3114.0,0.232,0.015,0.57,0.788
2004964,1712.0,11254.0,3250.0,39.0,230.0,3390.0,0.206,0.032,0.57,0.795
2004986,554.0,7996.0,2582.0,-378.0,189.0,3424.0,0.179,0.048,0.566,0.803
2004998,286.0,5960.0,1974.0,-323.0,43.0,3152.0,0.156,0.064,0.562,0.81
2005020,1314.0,7968.0,1620.0,98.0,-97.0,2868.0,0.135,0.081,0.561,0.813
2005037,2888.0,11196.0,1998.0,339.0,-218.0,2911.0,0.114,0.098,0.561,0.814
2005059,4204.0,12436.0,2466.0,232.0,-222.0,3114.0,0.091,0.117,0.559,0.816
2005071,3402.0,9622.0,2246.0,-264.0,-247.0,3192.0,0.069,0.135,0.553,0.819
2005093,2596.0,7138.0,1710.0,-474.0,-451.0,2803.0,0.05,0.153,0.546,0.822
2005105,3002.0,6314.0,2030.0,-532.0,-560.0,2283.0,0.036,0.169,0.538,0.825
2005127,3310.0,7114.0,2718.0,-536.0,-570.0,2095.0,0.024,0.184,0.53,0.827
2005139,4500.0,8234.0,3070.0,-646.0,-684.0,2218.0,0.011,0.2,0.521,0.83
2005161,5308.0,8758.0,3044.0,-764.0,-689.0,2426.0,0.003,-0.217,-0.511,-0.832
2005183,5420.0,7712.0,3090.0,-940.0,-697.0,2594.0,0.018,-0.235,-0.498,-0.835
2005195,5246.0,6524.0,2884.0,-1052.0,-762.0,2592.0,0.032,-0.253,-0.484,-0.837
2005217,5286.0,5744.0,2748.0,-1024.0,-878.0,2401.0,0.045,-0.272,-0.47,-0.838
2005229,5744.0,5558.0,2744.0,-889.0,-985.0,2270.0,0.056,-0.29,-0.458,-0.839
2005251,6454.0,4978.0,2630.0,-708.0,-1047.0,2342.0,0.068,-0.309,-0.446,-0.837
2005263,6944.0,5088.0,2812.0,-527.0,-1061.0,2471.0,0.082,-0.328,-0.436,-0.834
2005285,7254.0,5528.0,2996.0,-415.0,-1106.0,2579.0,0.096,-0.347,-0.425,-0.83
2005297,7698.0,5746.0,3264.0,-381.0,-1154.0,2681.0,0.111,-0.367,-0.415,-0.825
2005319,8114.0,5712.0,3378.0,-345.0,-1150.0,2737.0,0.126,-0.386,-0.404,-0.82
2005341,8284.0,5840.0,3328.0,-298.0,-1120.0,2724.0,0.142,-0.405,-0.393,-0.813
2005353,8380.0,5746.0,3118.0,-213.0,-1070.0,2661.0,0.158,-0.423,-0.383,-0.806
2005375,8372.0,5650.0,3034.0,-97.0,-1008.0,2544.0,0.173,-0.44,-0.373,-0.798
2005387,8326.0,6104.0,3232.0,-24.0,-929.0,2373.0,0.187,-0.455,-0.365,-0.79
2005409,8204.0,6332.0,3698.0,-31.0,-843.0,2190.0,0.201,-0.469,-0.357,-0.783
2005421,7966.0,6102.0,3694.0,-41.0,-735.0,1994.0,0.213,-0.481,-0.349,-0.776
2005443,7626.0,6112.0,3602.0,12.0,-596.0,1720.0,0.224,-0.49,-0.343,-0.769
2005455,7338.0,6256.0,3702.0,100.0,-466.0,1414.0,0.233,-0.498,-0.339,-0.764
2005477,7158.0,6164.0,3864.0,206.0,-338.0,1126.0,0.241,-0.503,-0.336,-0.759
2005489,7052.0,6088.0,3962.0,356.0,-210.0,794.0,0.248,-0.506,-0.335,-0.755
2005511,6974.0,6290.0,3936.0,496.0,-81.0,491.0,0.254,-0.507,-0.337,-0.752
2005533,7000.0,6532.0,4122.0,695.0,68.0,163.0,0.259,-0.506,-0.341,-0.749
2005545,6810.0,7042.0,4178.0,868.0,229.0,-172.0,0.262,-0.501,-0.347,-0.748
2005567,6828.0,7254.0,4124.0,879.0,325.0,-520.0,0.264,-0.495,-0.355,-0.748
2005579,6832.0,7398.0,4020.0,782.0,392.0,-882.0,0.263,-0.487,-0.364,-0.749
2005601,6956.0,7648.0,4512.0,653.0,423.0,-1255.0,0.259,-0.478,-0.373,-0.751
2005613,7168.0,7702.0,4370.0,458.0,490.0,-1550.0,0.252,-0.468,-0.382,-0.755
2005635,7420.0,7668.0,4142.0,310.0,544.0,-1842.0,0.243,-0.457,-0.392,-0.761
2005647,7720.0,7244.0,3956.0,246.0,621.0,-2158.0,0.232,-0.444,-0.401,-0.767
2005669,7936.0,7414.0,3812.0,293.0,742.0,-2477.0,0.218,-0.428,-0.412,-0.774
2005681,8194.0,7886.0,3774.0,325.0,836.0,-2795.0,0.203,-0.41,-0.424,-0.781
2005703,8592.0,7954.0,3786.0,253.0,922.0,-3069.0,0.186,-0.391,-0.436,-0.789
2005725,8690.0,8300.0,3708.0,146.0,987.0,-3315.0,0.166,-0.369,-0.448,-0.797
2005737,8712.0,8696.0,3574.0,-2.0,1014.0,-3510.0,0.145,-0.347,-0.458,-0.806
2005759,8816.0,8504.0,3332.0,-149.0,1019.0,-3639.0,0.122,-0.323,-0.467,-0.814
2005771,8790.0,8256.0,3240.0,-185.0,1058.0,-3766.0,0.098,-0.298,-0.476,-0.822
2005793,8528.0,8538.0,3040.0,-217.0,1058.0,-3898.0,0.072,-0.273,-0.484,-0.828
2005805,8446.0,8450.0,2962.0,-371.0,1065.0,-3973.0,0.046,-0.247,-0.49,-0.835
2005827,7918.0,8188.0,2892.0,-466.0,1101.0,-4037.0,0.019,-0.219,-0.495,-0.84
2005839,7316.0,7978.0,2840.0,-421.0,1119.0,-4086.0,0.008,0.191,0.5,0.845
2005861,6626.0,7518.0,2872.0,-340.0,1135.0,-4027.0,0.035,0.163,0.504,0.847
2005883,6010.0,7338.0,2706.0,-229.0,1099.0,-3964.0,0.061,0.136,0.508,0.848
2005895,5412.0,6734.0,2422.0,-207.0,1099.0,-3858.0,0.086,0.109,0.512,0.848
2005917,4562.0,6652.0,2214.0,-201.0,1058.0,-3831.0,0.11,0.083,0.515,0.846
2005929,4192.0,6008.0,2768.0,9.0,1010.0,-3758.0,0.134,0.058,0.518,0.843
2005951,3500.0,8038.0,2778.0,41.0,1033.0,-3400.0,0.156,0.033,0.522,0.838
2005963,2370.0,6238.0,2702.0,-19.0,782.0,-3721.0,0.181,0.009,0.523,0.833
2005985,2298.0,6006.0,2328.0,142.0,678.0,-3723.0,0.206,-0.014,0.526,0.825
2006007,1804.0,5784.0,2150.0,170.0,651.0,-3481.0,0.229,-0.036,0.527,0.817
2006019,914.0,5848.0,2298.0,-12.0,642.0,-3276.0,0.251,-0.057,0.527,0.81
2006041,154.0,5724.0,2428.0,-281.0,568.0,-3232.0,0.273,-0.078,0.525,0.803
2006053,-188.0,5348.0,2294.0,-350.0,480.0,-3085.0,0.293,-0.097,0.521,0.796
2006075,-924.0,4654.0,2290.0,-182.0,424.0,-3011.0,0.313,-0.115,0.518,0.788
2006087,-1218.0,4584.0,2432.0,93.0,325.0,-2938.0,0.333,-0.131,0.516,0.778
2006109,-1822.0,4732.0,2670.0,124.0,246.0,-2916.0,0.353,-0.147,0.514,0.768
2006121,-2506.0,4938.0,2774.0,146.0,-98.0,-3181.0,0.377,-0.161,0.51,0.757
2006143,-324.0,3078.0,3376.0,29.0,-116.0,-2082.0,0.392,-0.169,0.506,0.749
2006155,-2154.0,7108.0,3122.0,-219.0,678.0,939.0,0.382,-0.169,0.509,0.753
2006177,-5868.0,3230.0,3298.0,-698.0,517.0,-796.0,0.384,-0.179,0.505,0.752
2006189,-5376.0,-1116.0,2968.0,-173.0,-112.0,-2729.0,0.404,-0.192,0.498,0.743
2006211,-5698.0,-4496.0,3490.0,231.0,-198.0,-3249.0,0.428,-0.206,0.492,0.729
2006233,-6600.0,-5574.0,3630.0,515.0,-256.0,-3478.0,0.454,-0.217,0.488,0.713
2006245,-5120.0,-4628.0,3562.0,357.0,-181.0,-2144.0,0.471,-0.225,0.484,0.702
2006267,-5380.0,-5462.0,3592.0,-496.0,-100.0,-497.0,0.475,-0.23,0.478,0.702
2006279,-5418.0,-6042.0,3576.0,-1061.0,-224.0,623.0,0.471,-0.231,0.471,0.71
2006301,-4748.0,-3850.0,3362.0,-1001.0,-291.0,1390.0,0.461,-0.227,0.466,0.72
2006313,-4618.0,-1402.0,2630.0,-708.0,-363.0,1763.0,0.449,-0.22,0.463,0.732
2006335,-4098.0,-1406.0,2316.0,-493.0,-466.0,2376.0,0.435,-0.208,0.463,0.744
2006347,-3556.0,-480.0,2520.0,-438.0,-534.0,2850.0,0.417,-0.193,0.463,0.758
2006369,-2738.0,2036.0,3252.0,-370.0,-586.0,3193.0,0.396,-0.176,0.464,0.773
2006391,-2252.0,3564.0,3778.0,-238.0,-686.0,3446.0,0.374,-0.157,0.465,0.787
2006403,-2122.0,5958.0,3714.0,-148.0,-739.0,3447.0,0.352,-0.137,0.466,0.8
2006425,-1670.0,4430.0,3716.0,84.0,-781.0,3669.0,0.329,-0.114,0.469,0.812
2006437,-1932.0,4322.0,3278.0,376.0,-766.0,3543.0,0.306,-0.092,0.473,0.821
2006459,-1730.0,3826.0,3276.0,500.0,-836.0,3071.0,0.287,-0.07,0.477,0.828
2006471,-678.0,6216.0,3828.0,664.0,-849.0,2658.0,0.271,-0.049,0.481,0.832
2006493,190.0,7980.0,4106.0,466.0,-801.0,2599.0,0.254,-0.029,0.484,0.837
2006515,66.0,9360.0,4732.0,-17.0,-672.0,2563.0,0.237,-0.012,0.483,0.843
2006527,510.0,8204.0,3982.0,-418.0,-774.0,3066.0,0.217,0.007,0.478,0.851
2006539,356.0,5478.0,3516.0,-497.0,-828.0,3202.0,0.195,0.027,0.472,0.859
2006562,874.0,4592.0,3732.0,29.0,-866.0,2925.0,0.176,0.047,0.469,0.864
2006584,1748.0,6928.0,4344.0,658.0,-862.0,2839.0,0.157,0.068,0.472,0.865
2006596,2846.0,10142.0,4524.0,863.0,-849.0,3046.0,0.135,0.09,0.475,0.865
2006618,3334.0,10444.0,4580.0,439.0,-715.0,3373.0,0.111,0.111,0.475,0.866
2006630,2702.0,8754.0,4124.0,-28.0,-738.0,3324.0,0.088,0.132,0.47,0.868
2006652,2570.0,6378.0,3498.0,-295.0,-885.0,2946.0,0.068,0.152,0.463,0.87
2006664,2822.0,5492.0,3412.0,-287.0,-1018.0,2575.0,0.052,0.171,0.456,0.872
2006686,3918.0,6912.0,4102.0,-67.0,-1016.0,2248.0,0.039,0.19,0.452,0.871
2006698,4716.0,8852.0,4314.0,-39.0,-1099.0,2245.0,0.025,0.208,0.447,0.87
2006720,5330.0,9316.0,4200.0,-381.0,-1079.0,2455.0,0.01,0.227,0.438,0.87
2006732,5064.0,7720.0,3848.0,-652.0,-1083.0,2504.0,0.004,-0.246,-0.428,-0.87
2006754,4962.0,6030.0,3582.0,-714.0,-1167.0,2367.0,0.017,-0.265,-0.416,-0.87
2006776,5230.0,5258.0,3554.0,-556.0,-1219.0,2070.0,0.028,-0.283,-0.407,-0.868
2006788,5682.0,5150.0,3594.0,-334.0,-1273.0,1901.0,0.037,-0.301,-0.399,-0.865
2006810,6126.0,4940.0,3684.0,-164.0,-1304.0,1995.0,0.048,-0.319,-0.393,-0.861
2006822,6596.0,4810.0,3662.0,-6.0,-1302.0,2198.0,0.061,-0.338,-0.386,-0.856
2006844,7008.0,5050.0,3634.0,89.0,-1311.0,2354.0,0.076,-0.357,-0.38,-0.85
2006856,7354.0,5428.0,3592.0,107.0,-1314.0,2424.0,0.091,-0.376,-0.374,-0.843
2006878,7834.0,5332.0,3660.0,85.0,-1291.0,2447.0,0.106,-0.394,-0.367,-0.836
2006900,7912.0,5422.0,3696.0,99.0,-1266.0,2400.0,0.12,-0.412,-0.36,-0.828
2006912,8274.0,5302.0,3634.0,58.0,-1253.0,2325.0,0.135,-0.43,-0.353,-0.82
2006934,8340.0,5860.0,3546.0,-7.0,-1197.0,2200.0,0.148,-0.446,-0.346,-0.812
2006946,8220.0,5996.0,3560.0,-148.0,-1136.0,2113.0,0.16,-0.461,-0.337,-0.805
2006968,8134.0,5830.0,3530.0,-239.0,-1055.0,1990.0,0.17,-0.476,-0.329,-0.798
2006980,8074.0,5904.0,3850.0,-262.0,-954.0,1771.0,0.18,-0.489,-0.321,-0.791
2007002,7996.0,5856.0,4034.0,-256.0,-832.0,1522.0,0.188,-0.5,-0.313,-0.786
2007014,7836.0,5642.0,4128.0,-159.0,-658.0,1280.0,0.195,-0.508,-0.307,-0.781
2007041,7648.0,5386.0,4032.0,102.0,-440.0,997.0,0.201,-0.514,-0.304,-0.776
2007053,7438.0,5372.0,4090.0,517.0,-180.0,671.0,0.208,-0.516,-0.306,-0.772
2007065,7168.0,5784.0,4358.0,985.0,93.0,312.0,0.216,-0.515,-0.311,-0.769
2007087,7086.0,6896.0,4894.0,1356.0,317.0,-79.0,0.223,-0.509,-0.321,-0.767
2007109,6816.0,7500.0,4954.0,1452.0,488.0,-433.0,0.229,-0.501,-0.332,-0.766
2007121,6810.0,7878.0,4814.0,1322.0,561.0,-758.0,0.231,-0.492,-0.344,-0.765
2007143,6824.0,7936.0,4732.0,1140.0,610.0,-1117.0,0.231,-0.481,-0.356,-0.767
2007155,7160.0,8212.0,4794.0,966.0,649.0,-1478.0,0.227,-0.47,-0.369,-0.769
2007177,7156.0,8070.0,4218.0,994.0,744.0,-1882.0,0.221,-0.455,-0.383,-0.773
2007189,7364.0,7850.0,4084.0,1071.0,859.0,-2200.0,0.213,-0.439,-0.398,-0.777
2007211,7336.0,8194.0,4260.0,1105.0,928.0,-2548.0,0.203,-0.42,-0.415,-0.781
2007223,7494.0,8696.0,4074.0,899.0,946.0,-2819.0,0.19,-0.4,-0.431,-0.786
2007245,7504.0,8778.0,3678.0,519.0,912.0,-3026.0,0.174,-0.38,-0.444,-0.792
2007267,7568.0,8552.0,3262.0,78.0,892.0,-3174.0,0.155,-0.36,-0.455,-0.8
2007279,7652.0,8554.0,3302.0,-249.0,890.0,-3331.0,0.133,-0.339,-0.463,-0.808
2007301,7756.0,8322.0,3332.0,-430.0,899.0,-3440.0,0.11,-0.317,-0.469,-0.817
2007313,7780.0,8268.0,3198.0,-485.0,911.0,-3543.0,0.086,-0.295,-0.475,-0.825
2007335,7702.0,7920.0,3038.0,-514.0,950.0,-3622.0,0.061,-0.272,-0.48,-0.832
2007347,7208.0,7924.0,3126.0,-530.0,1014.0,-3637.0,0.037,-0.248,-0.484,-0.838
2007369,6860.0,8130.0,3030.0,-605.0,983.0,-3653.0,0.012,-0.223,-0.488,-0.844
2007381,6780.0,7780.0,2774.0,-688.0,991.0,-3595.0,0.013,0.199,0.489,0.849
2007403,6360.0,7622.0,2828.0,-644.0,1042.0,-3586.0,0.038,0.174,0.491,0.853
2007415,5926.0,7722.0,2838.0,-543.0,1062.0,-3579.0,0.062,0.149,0.492,0.855
2007437,5398.0,6964.0,3138.0,-534.0,1069.0,-3519.0,0.086,0.124,0.493,0.857
2007459,4414.0,6482.0,3154.0,-531.0,1047.0,-3408.0,0.108,0.1,0.494,0.857
2007471,3804.0,6468.0,3134.0,-377.0,991.0,-3366.0,0.13,0.077,0.494,0.856
2007493,3318.0,5314.0,3016.0,-201.0,955.0,-3422.0,0.153,0.053,0.496,0.853
2007505,2946.0,6902.0,2636.0,-312.0,1061.0,-2913.0,0.171,0.032,0.497,0.85
2007527,1626.0,6352.0,2992.0,-452.0,918.0,-3227.0,0.192,0.009,0.495,0.847
2007539,1632.0,6132.0,3294.0,-351.0,792.0,-3375.0,0.215,-0.014,0.494,0.842
2007561,1524.0,5976.0,2998.0,-111.0,839.0,-3018.0,0.235,-0.034,0.494,0.836
2007573,450.0,5676.0,2896.0,169.0,859.0,-2805.0,0.253,-0.054,0.496,0.829
2007595,-176.0,5802.0,2690.0,387.0,764.0,-2862.0,0.271,-0.072,0.499,0.82
2007617,-372.0,6396.0,2810.0,332.0,675.0,-2803.0,0.29,-0.089,0.501,0.81
2007629,-588.0,7626.0,2934.0,46.0,625.0,-2858.0,0.308,-0.106,0.501,0.802
2007651,-700.0,8602.0,3040.0,-400.0,558.0,-2778.0,0.326,-0.124,0.497,0.795
2007663,-966.0,8014.0,2780.0,-877.0,518.0,-2702.0,0.342,-0.142,0.489,0.79
2007685,-1384.0,6044.0,2584.0,-934.0,441.0,-2836.0,0.36,-0.161,0.48,0.784
2007697,-2744.0,2646.0,2198.0,326.0,185.0,-3557.0,0.385,-0.177,0.477,0.77
2007719,-2770.0,1226.0,2960.0,810.0,341.0,-2371.0,0.402,-0.187,0.48,0.757
2007741,-3772.0,172.0,2614.0,1214.0,340.0,-1136.0,0.411,-0.19,0.488,0.746
2007753,-7004.0,-4452.0,2630.0,1571.0,25.0,-2255.0,0.43,-0.195,0.494,0.73
2007775,-5804.0,-4170.0,3432.0,1949.0,-494.0,-2886.0,0.457,-0.198,0.499,0.709
2007787,-5536.0,-5752.0,4572.0,1099.0,-522.0,-2422.0,0.477,-0.201,0.499,0.695
2007809,-5008.0,-7318.0,4382.0,480.0,-384.0,-1347.0,0.489,-0.202,0.498,0.687
2007821,-4316.0,-3786.0,3968.0,380.0,-238.0,-206.0,0.492,-0.2,0.499,0.684
2007843,-4440.0,-168.0,3934.0,-233.0,-185.0,657.0,0.489,-0.196,0.498,0.689
2007855,-4076.0,134.0,3488.0,-802.0,-159.0,1421.0,0.479,-0.192,0.495,0.699
2007877,-4272.0,-288.0,3038.0,-707.0,-113.0,1763.0,0.468,-0.186,0.493,0.71
2007889,-4020.0,-124.0,2834.0,-594.0,-126.0,2155.0,0.453,-0.177,0.492,0.722
2007911,-4010.0,-660.0,2908.0,-386.0,-175.0,2546.0,0.437,-0.166,0.493,0.734
2007923,-3734.0,234.0,2936.0,-94.0,-288.0,2856.0,0.419,-0.15,0.496,0.746
2007945,-2998.0,2596.0,3300.0,7.0,-490.0,2994.0,0.4,-0.133,0.498,0.758
2007967,-2076.0,3982.0,3224.0,112.0,-505.0,3501.0,0.378,-0.112,0.501,0.77
2007979,-2416.0,4506.0,2670.0,-170.0,-552.0,3713.0,0.354,-0.091,0.501,0.784
2008001,-2314.0,2332.0,2844.0,-462.0,-692.0,3581.0,0.331,-0.07,0.498,0.798
2008013,-1194.0,3602.0,3358.0,19.0,-779.0,3213.0,0.311,-0.049,0.498,0.808
2008035,-248.0,6060.0,4190.0,514.0,-789.0,2987.0,0.293,-0.027,0.501,0.814
2008047,914.0,8036.0,4250.0,647.0,-646.0,3101.0,0.273,-0.006,0.504,0.819
2008069,240.0,7360.0,3864.0,413.0,-477.0,3195.0,0.251,0.015,0.506,0.825
2008091,610.0,6336.0,3320.0,53.0,-464.0,3559.0,0.226,0.035,0.505,0.832
2008103,1128.0,6368.0,3600.0,29.0,-456.0,3395.0,0.202,0.056,0.503,0.839
2008125,1936.0,9470.0,4028.0,314.0,-454.0,3228.0,0.179,0.075,0.502,0.843
2008137,3312.0,12140.0,4270.0,597.0,-421.0,3307.0,0.154,0.095,0.504,0.845
2008159,3300.0,11294.0,3876.0,362.0,-292.0,3459.0,0.128,0.114,0.503,0.847
2008171,2788.0,8834.0,3412.0,206.0,-277.0,3223.0,0.104,0.132,0.5,0.849
2008193,2102.0,7480.0,2994.0,350.0,-349.0,2762.0,0.084,0.148,0.499,0.85
2008205,2252.0,7570.0,3120.0,416.0,-442.0,2451.0,0.066,0.164,0.499,0.849
2008227,3124.0,8410.0,4000.0,316.0,-470.0,2370.0,0.049,0.179,0.497,0.848
2008249,4104.0,12126.0,4672.0,86.0,-521.0,2259.0,0.034,0.194,0.494,0.847
2008261,5202.0,13380.0,4240.0,-540.0,-619.0,2247.0,0.02,0.209,0.485,0.849
2008283,4180.0,9678.0,3016.0,-1200.0,-635.0,2362.0,0.006,0.224,0.47,0.853
2008295,3702.0,6578.0,2510.0,-1115.0,-660.0,1926.0,0.004,-0.238,-0.458,-0.857
2008317,3542.0,6288.0,3018.0,-674.0,-730.0,1374.0,0.01,-0.25,-0.449,-0.858
2008329,3936.0,6382.0,3518.0,-272.0,-742.0,1223.0,0.016,-0.261,-0.444,-0.857
2008351,4124.0,5554.0,3634.0,-122.0,-736.0,1400.0,0.024,-0.273,-0.44,-0.855
2008363,4124.0,5132.0,3604.0,-54.0,-758.0,1592.0,0.033,-0.286,-0.436,-0.853
2008385,4292.0,5162.0,3558.0,-144.0,-830.0,1753.0,0.044,-0.3,-0.43,-0.851
2008397,4572.0,4964.0,3524.0,-340.0,-909.0,1916.0,0.054,-0.315,-0.422,-0.849
2008419,5008.0,4836.0,3658.0,-439.0,-977.0,2042.0,0.065,-0.331,-0.413,-0.846
2008441,5664.0,5168.0,3508.0,-418.0,-1017.0,2080.0,0.076,-0.347,-0.404,-0.843
2008453,6204.0,4842.0,3388.0,-378.0,-1034.0,2188.0,0.089,-0.364,-0.394,-0.839
2008475,6760.0,4406.0,3146.0,-203.0,-1001.0,2266.0,0.102,-0.38,-0.386,-0.834
2008487,7154.0,4732.0,3028.0,14.0,-971.0,2186.0,0.116,-0.395,-0.379,-0.829
2008509,7526.0,5260.0,3192.0,157.0,-947.0,2082.0,0.129,-0.41,-0.373,-0.822
2008521,7940.0,5462.0,3452.0,187.0,-908.0,2045.0,0.142,-0.424,-0.368,-0.815
2008543,7974.0,5550.0,3412.0,161.0,-838.0,2026.0,0.156,-0.437,-0.362,-0.808
2008555,7942.0,5826.0,3290.0,119.0,-777.0,1962.0,0.168,-0.449,-0.357,-0.802
2008577,7884.0,5776.0,3298.0,99.0,-707.0,1850.0,0.18,-0.46,-0.351,-0.795
2008599,7894.0,5796.0,3226.0,158.0,-616.0,1710.0,0.192,-0.47,-0.346,-0.789
2008611,7750.0,6032.0,3478.0,327.0,-474.0,1479.0,0.203,-0.478,-0.342,-0.783
2008633,7566.0,6318.0,3778.0,502.0,-310.0,1202.0,0.213,-0.483,-0.341,-0.778
2008645,7264.0,6914.0,4074.0,688.0,-106.0,825.0,0.222,-0.485,-0.343,-0.773
2008667,6908.0,7528.0,4322.0,755.0,50.0,436.0,0.229,-0.484,-0.347,-0.77
2008679,6826.0,7744.0,4420.0,758.0,152.0,45.0,0.233,-0.481,-0.352,-0.768
2008701,6774.0,7630.0,4560.0,674.0,223.0,-301.0,0.235,-0.477,-0.357,-0.767
2008713,6832.0,7828.0,4420.0,604.0,304.0,-679.0,0.234,-0.471,-0.364,-0.768
2008735,6796.0,7898.0,4348.0,535.0,370.0,-1031.0,0.231,-0.464,-0.372,-0.77
2008747,6788.0,7954.0,4318.0,429.0,457.0,-1380.0,0.225,-0.455,-0.38,-0.773
2008769,7076.0,8144.0,4608.0,391.0,498.0,-1723.0,0.216,-0.444,-0.39,-0.777
2008781,7216.0,7946.0,4068.0,439.0,635.0,-2064.0,0.206,-0.431,-0.4,-0.782
2008804,7248.0,8212.0,3988.0,543.0,760.0,-2392.0,0.193,-0.415,-0.412,-0.788
2008826,7268.0,8762.0,3862.0,580.0,841.0,-2678.0,0.18,-0.397,-0.426,-0.793
2008838,7548.0,8864.0,3602.0,440.0,838.0,-2941.0,0.163,-0.378,-0.438,-0.799
2008860,7742.0,9022.0,3594.0,223.0,844.0,-3146.0,0.144,-0.358,-0.45,-0.805
2008872,7852.0,9024.0,3426.0,23.0,844.0,-3340.0,0.123,-0.338,-0.46,-0.812
2008894,7884.0,8802.0,3210.0,-3.0,898.0,-3534.0,0.101,-0.315,-0.47,-0.818
2008906,7612.0,8630.0,3060.0,43.0,918.0,-3700.0,0.077,-0.292,-0.48,-0.824
2008928,7372.0,8614.0,3032.0,-74.0,915.0,-3801.0,0.052,-0.267,-0.489,-0.829
2008940,7056.0,8970.0,3162.0,-281.0,888.0,-3872.0,0.026,-0.243,-0.496,-0.833
2008962,6924.0,8598.0,3134.0,-509.0,876.0,-3850.0,0.001,0.218,0.5,0.838
2008984,6370.0,7742.0,2904.0,-506.0,903.0,-3790.0,0.027,0.193,0.504,0.842
2008996,5862.0,6918.0,2676.0,-388.0,929.0,-3733.0,0.052,0.168,0.507,0.844
2009018,5444.0,6516.0,3044.0,-267.0,949.0,-3667.0,0.077,0.142,0.511,0.844
2009030,4456.0,6430.0,3138.0,-85.0,896.0,-3600.0,0.1,0.119,0.516,0.843
2009047,3858.0,6510.0,2888.0,-44.0,778.0,-3551.0,0.124,0.096,0.52,0.84
2009069,3074.0,6064.0,2634.0,-212.0,684.0,-3406.0,0.147,0.074,0.521,0.837
2009081,2576.0,6718.0,2666.0,-350.0,615.0,-3356.0,0.17,0.053,0.522,0.834
2009103,2672.0,7432.0,2496.0,-494.0,614.0,-3027.0,0.19,0.034,0.52,0.832
2009115,1814.0,6294.0,2654.0,-517.0,553.0,-3157.0,0.212,0.013,0.518,0.829
2009137,1522.0,5992.0,2880.0,-269.0,544.0,-3221.0,0.234,-0.007,0.517,0.823
2009149,902.0,6104.0,2670.0,-81.0,549.0,-3038.0,0.255,-0.026,0.517,0.817
2009171,30.0,5508.0,2704.0,7.0,521.0,-2900.0,0.274,-0.044,0.518,0.809
2009193,-550.0,5100.0,2734.0,56.0,434.0,-2823.0,0.294,-0.061,0.518,0.801
2009205,-942.0,4696.0,2614.0,135.0,355.0,-2814.0,0.313,-0.076,0.518,0.792
2009227,-1078.0,4850.0,2504.0,219.0,266.0,-2762.0,0.332,-0.091,0.518,0.783
2009239,-1478.0,5836.0,2642.0,193.0,249.0,-2724.0,0.351,-0.105,0.518,0.773
2009261,-2242.0,5954.0,2572.0,137.0,100.0,-2819.0,0.371,-0.119,0.516,0.763
2009273,-2378.0,2170.0,3620.0,501.0,7.0,-3305.0,0.395,-0.133,0.516,0.748
2009295,-168.0,6634.0,2868.0,-183.0,604.0,108.0,0.392,-0.137,0.517,0.749
2009307,-4344.0,4412.0,3362.0,-508.0,676.0,-365.0,0.391,-0.145,0.516,0.749
2009329,-5468.0,1690.0,3140.0,-487.0,227.0,-1819.0,0.402,-0.157,0.51,0.744
2009351,-4574.0,732.0,2916.0,-133.0,-16.0,-2680.0,0.42,-0.17,0.505,0.734
2009363,-5872.0,-940.0,2994.0,-277.0,-163.0,-2880.0,0.44,-0.183,0.498,0.724
2009385,-5394.0,-3488.0,3390.0,-515.0,-157.0,-2489.0,0.457,-0.195,0.49,0.716
2009397,-5400.0,-4002.0,3728.0,-417.0,68.0,-1577.0,0.467,-0.206,0.483,0.711
2009419,-5864.0,-4010.0,3560.0,-532.0,-6.0,-1011.0,0.474,-0.213,0.477,0.709
2009431,-5312.0,-3486.0,3096.0,-796.0,-154.0,-292.0,0.476,-0.217,0.471,0.711
2009453,-5026.0,-3136.0,2816.0,-878.0,-218.0,685.0,0.471,-0.216,0.465,0.718
2009465,-4726.0,-2530.0,2792.0,-694.0,-268.0,1592.0,0.46,-0.21,0.463,0.728
2009487,-4472.0,-1326.0,2712.0,-341.0,-277.0,2151.0,0.446,-0.2,0.463,0.739
2009509,-4114.0,-742.0,2524.0,-411.0,-354.0,2556.0,0.43,-0.188,0.464,0.752
2009521,-3694.0,-1432.0,2606.0,-400.0,-424.0,2995.0,0.41,-0.173,0.464,0.766
2009543,-2952.0,442.0,3444.0,7.0,-570.0,3111.0,0.391,-0.155,0.467,0.778
2009555,-1912.0,4580.0,3796.0,521.0,-646.0,3241.0,0.371,-0.134,0.473,0.788
2009577,-1800.0,7058.0,3896.0,507.0,-671.0,3457.0,0.35,-0.111,0.479,0.798
2009589,-2140.0,5546.0,3362.0,88.0,-735.0,3547.0,0.327,-0.089,0.48,0.809
2009611,-2146.0,2422.0,2888.0,-152.0,-810.0,3361.0,0.305,-0.068,0.479,0.82
2009623,-1472.0,2492.0,3778.0,171.0,-864.0,2830.0,0.288,-0.048,0.48,0.827
2009645,-54.0,7672.0,4510.0,799.0,-911.0,2390.0,0.274,-0.027,0.484,0.83
2009657,1186.0,11098.0,4746.0,647.0,-776.0,2661.0,0.257,-0.007,0.488,0.834
2009679,566.0,10066.0,4400.0,-108.0,-595.0,2996.0,0.237,0.011,0.486,0.841
2009701,-6.0,6446.0,4108.0,-632.0,-662.0,3196.0,0.215,0.03,0.479,0.851
2009713,124.0,4724.0,3816.0,-163.0,-738.0,2767.0,0.197,0.048,0.475,0.856
2009735,1202.0,6356.0,4124.0,774.0,-713.0,2525.0,0.179,0.067,0.478,0.857
2009747,1902.0,8952.0,4426.0,1229.0,-582.0,2554.0,0.161,0.085,0.485,0.855
2009769,2768.0,11076.0,4374.0,691.0,-539.0,2988.0,0.139,0.105,0.487,0.856
2009781,2678.0,10086.0,4092.0,-278.0,-495.0,3075.0,0.118,0.122,0.481,0.86
2009803,1892.0,7648.0,3686.0,-789.0,-580.0,2788.0,0.099,0.139,0.471,0.865
2009815,1708.0,5776.0,3598.0,-527.0,-743.0,2336.0,0.084,0.155,0.463,0.869
2009837,2664.0,6336.0,3764.0,325.0,-815.0,1946.0,0.072,0.17,0.462,0.867
2009859,3350.0,7668.0,4630.0,1078.0,-658.0,1745.0,0.059,0.184,0.467,0.863
2009871,4226.0,10114.0,4660.0,1173.0,-644.0,1916.0,0.044,0.198,0.473,0.857
2009893,4236.0,9578.0,3852.0,463.0,-620.0,2170.0,0.029,0.213,0.472,0.855
2009905,3578.0,7174.0,3018.0,-416.0,-674.0,2189.0,0.015,0.228,0.464,0.855
2009927,3382.0,6488.0,3390.0,-788.0,-782.0,1787.0,0.006,0.242,0.454,0.857
2009939,3814.0,7220.0,3640.0,-944.0,-914.0,1600.0,0.0,-0.256,-0.443,-0.859
2009961,4106.0,5324.0,3764.0,-962.0,-1115.0,1704.0,0.007,-0.273,-0.431,-0.86
2009973,5030.0,4944.0,3814.0,-631.0,-1058.0,2170.0,0.019,-0.29,-0.42,-0.86
2009995,5216.0,5888.0,3998.0,-509.0,-1120.0,2202.0,0.031,-0.308,-0.41,-0.858
2010017,6030.0,5410.0,3958.0,-353.0,-1144.0,2269.0,0.044,-0.326,-0.401,-0.855
2010029,6354.0,4950.0,3814.0,-92.0,-1085.0,2324.0,0.058,-0.343,-0.394,-0.851
2010051,6694.0,4856.0,3614.0,159.0,-1016.0,2230.0,0.072,-0.359,-0.388,-0.846
2010063,7038.0,5362.0,3556.0,339.0,-959.0,2085.0,0.087,-0.374,-0.385,-0.839
2010085,7414.0,5566.0,3550.0,366.0,-917.0,2031.0,0.1,-0.388,-0.381,-0.833
2010097,7596.0,5612.0,3472.0,305.0,-860.0,2097.0,0.115,-0.402,-0.377,-0.827
2010119,7682.0,5618.0,3598.0,228.0,-806.0,2116.0,0.129,-0.415,-0.371,-0.82
2010131,7720.0,5728.0,3602.0,170.0,-768.0,2072.0,0.143,-0.428,-0.365,-0.814
2010153,7640.0,5654.0,3628.0,139.0,-713.0,1976.0,0.156,-0.44,-0.36,-0.808
2010165,7690.0,5630.0,3554.0,137.0,-660.0,1844.0,0.169,-0.451,-0.354,-0.802
2010187,7578.0,5748.0,3560.0,119.0,-598.0,1693.0,0.18,-0.461,-0.349,-0.796
2010209,7510.0,5644.0,3462.0,76.0,-536.0,1557.0,0.19,-0.47,-0.344,-0.791
2010221,7348.0,5546.0,3488.0,57.0,-454.0,1382.0,0.199,-0.477,-0.339,-0.786
2010243,7170.0,5662.0,3426.0,26.0,-379.0,1197.0,0.207,-0.484,-0.335,-0.782
2010255,6996.0,5650.0,3514.0,14.0,-313.0,1006.0,0.214,-0.489,-0.331,-0.778
2010277,7016.0,5392.0,3566.0,62.0,-230.0,798.0,0.22,-0.493,-0.328,-0.775
2010289,6874.0,5494.0,3646.0,101.0,-149.0,631.0,0.224,-0.496,-0.326,-0.773
2010311,6800.0,5454.0,3742.0,268.0,-28.0,429.0,0.229,-0.497,-0.327,-0.771
2010333,6718.0,5692.0,3738.0,493.0,95.0,259.0,0.233,-0.496,-0.329,-0.769
2010345,6584.0,6214.0,3780.0,754.0,227.0,2.0,0.238,-0.492,-0.334,-0.768
2010367,6568.0,7446.0,4086.0,647.0,272.0,-224.0,0.24,-0.488,-0.339,-0.767
2010379,6688.0,7592.0,4264.0,409.0,305.0,-490.0,0.24,-0.483,-0.344,-0.768
2010401,6840.0,7634.0,4024.0,263.0,368.0,-838.0,0.237,-0.477,-0.349,-0.771
2010413,7198.0,6922.0,3920.0,361.0,489.0,-1241.0,0.231,-0.469,-0.356,-0.774
2010435,7424.0,6892.0,4154.0,550.0,630.0,-1665.0,0.224,-0.458,-0.366,-0.779
2010447,7442.0,7264.0,4034.0,666.0,748.0,-2054.0,0.215,-0.443,-0.378,-0.784
2010469,7530.0,7840.0,3874.0,687.0,828.0,-2377.0,0.203,-0.427,-0.392,-0.789
2010491,7658.0,7728.0,3866.0,627.0,872.0,-2633.0,0.19,-0.41,-0.405,-0.795
2010503,7890.0,7926.0,3796.0,539.0,885.0,-2845.0,0.175,-0.391,-0.419,-0.801
2010525,7912.0,8160.0,3704.0,357.0,862.0,-3018.0,0.157,-0.372,-0.431,-0.807
2010537,8046.0,8104.0,3476.0,124.0,856.0,-3158.0,0.138,-0.352,-0.442,-0.814
2010559,8020.0,8008.0,3630.0,-41.0,845.0,-3304.0,0.116,-0.332,-0.451,-0.82
2010571,8030.0,8126.0,3516.0,-201.0,810.0,-3432.0,0.093,-0.311,-0.459,-0.827
2010593,7874.0,7768.0,3438.0,-249.0,853.0,-3491.0,0.07,-0.29,-0.466,-0.833
2010605,7494.0,7470.0,3212.0,-41.0,920.0,-3555.0,0.046,-0.267,-0.475,-0.837
2010627,7216.0,7888.0,2976.0,217.0,953.0,-3660.0,0.023,-0.243,-0.485,-0.84
2010639,6788.0,8256.0,3276.0,161.0,926.0,-3709.0,0.002,0.218,0.494,0.841
2010661,6262.0,8294.0,3478.0,-190.0,846.0,-3669.0,0.026,0.195,0.5,0.843
2010673,5800.0,7834.0,3330.0,-531.0,789.0,-3663.0,0.052,0.171,0.503,0.846
2010695,5338.0,6926.0,3226.0,-658.0,789.0,-3597.0,0.078,0.147,0.503,0.848
2010717,4746.0,6022.0,3316.0,-507.0,822.0,-3520.0,0.102,0.125,0.504,0.848
2010729,4006.0,6406.0,3122.0,-197.0,831.0,-3506.0,0.125,0.102,0.507,0.847
2010751,3722.0,6542.0,3308.0,-134.0,797.0,-3454.0,0.148,0.08,0.51,0.844
2010763,3304.0,7354.0,3512.0,-212.0,806.0,-3414.0,0.171,0.058,0.512,0.84
2010785,2560.0,6978.0,3366.0,-461.0,778.0,-3244.0,0.192,0.036,0.511,0.837
2010797,1932.0,6216.0,3148.0,-367.0,766.0,-3133.0,0.213,0.015,0.51,0.833
2010819,1370.0,5538.0,3076.0,-1.0,793.0,-3135.0,0.233,-0.006,0.512,0.827
2010841,858.0,5932.0,2842.0,346.0,760.0,-3151.0,0.254,-0.026,0.516,0.818
2010853,346.0,5928.0,2948.0,452.0,737.0,-3112.0,0.274,-0.046,0.52,0.808
2010875,-532.0,5490.0,2868.0,256.0,686.0,-2964.0,0.293,-0.065,0.522,0.798
2010887,-1184.0,5332.0,2668.0,34.0,593.0,-2936.0,0.312,-0.083,0.522,0.789
2010909,-1610.0,4688.0,2346.0,-114.0,506.0,-2867.0,0.331,-0.101,0.52,0.781
2010921,-2152.0,3842.0,2112.0,-15.0,400.0,-2864.0,0.35,-0.118,0.518,0.771
2010943,-3294.0,198.0,2970.0,674.0,60.0,-3865.0,0.378,-0.134,0.519,0.755
2010955,2742.0,7636.0,2074.0,176.0,857.0,425.0,0.37,-0.136,0.524,0.755
2010977,-4366.0,5600.0,2638.0,-218.0,705.0,-150.0,0.368,-0.142,0.525,0.754
2010999,-4938.0,3310.0,2294.0,-299.0,157.0,-1767.0,0.379,-0.153,0.521,0.749
2011011,-4000.0,1514.0,2660.0,34.0,-108.0,-2679.0,0.399,-0.165,0.517,0.74
2011023,-5148.0,930.0,3074.0,90.0,-229.0,-3031.0,0.421,-0.177,0.512,0.728
2011051,-5276.0,-1794.0,3632.0,-76.0,-285.0,-2824.0,0.441,-0.189,0.505,0.717
2011063,-5134.0,-4532.0,3766.0,-29.0,-32.0,-1740.0,0.454,-0.198,0.501,0.71
2011085,-6208.0,-4034.0,3118.0,76.0,47.0,-1335.0,0.464,-0.205,0.498,0.703
2011097,-5856.0,-2964.0,2824.0,-246.0,-85.0,-855.0,0.47,-0.209,0.495,0.701
2011119,-5228.0,-2946.0,2704.0,-683.0,-177.0,64.0,0.469,-0.21,0.49,0.704
2011131,-5070.0,-3694.0,2860.0,-580.0,-186.0,1050.0,0.462,-0.206,0.487,0.712
2011153,-4536.0,-1160.0,2950.0,-241.0,-141.0,1723.0,0.451,-0.198,0.488,0.72
2011165,-4398.0,534.0,2754.0,-352.0,-171.0,2403.0,0.436,-0.187,0.49,0.732
2011187,-4218.0,-826.0,2530.0,-351.0,-219.0,2910.0,0.416,-0.174,0.491,0.745
2011199,-3852.0,-896.0,2830.0,13.0,-300.0,3019.0,0.397,-0.157,0.495,0.757
2011221,-3136.0,2364.0,3138.0,379.0,-477.0,2815.0,0.38,-0.139,0.5,0.766
2011243,-1696.0,5540.0,3154.0,788.0,-419.0,3255.0,0.361,-0.117,0.508,0.773
2011255,-2286.0,7818.0,2750.0,600.0,-336.0,3364.0,0.338,-0.096,0.515,0.782
2011277,-2682.0,5652.0,2882.0,-72.0,-442.0,3240.0,0.317,-0.077,0.516,0.792
2011289,-2266.0,4352.0,3216.0,-222.0,-518.0,2809.0,0.299,-0.06,0.514,0.801
2011311,-1774.0,5524.0,3878.0,39.0,-583.0,2447.0,0.284,-0.044,0.514,0.808
2011323,-846.0,8032.0,3770.0,438.0,-574.0,2350.0,0.269,-0.026,0.517,0.812
2011345,-298.0,8392.0,3776.0,384.0,-488.0,2624.0,0.252,-0.009,0.519,0.817
2011357,-128.0,7846.0,3662.0,250.0,-457.0,2780.0,0.233,0.01,0.52,0.822
2011379,-24.0,6950.0,3596.0,106.0,-480.0,2790.0,0.214,0.028,0.519,0.827
2011391,380.0,6938.0,3760.0,139.0,-489.0,2761.0,0.196,0.046,0.518,0.831
2011413,1178.0,9026.0,4088.0,286.0,-483.0,2692.0,0.177,0.063,0.518,0.834
2011435,1782.0,10088.0,4362.0,209.0,-404.0,2789.0,0.158,0.08,0.518,0.837
2011447,1506.0,9866.0,3922.0,42.0,-349.0,2789.0,0.138,0.097,0.515,0.84
2011469,1114.0,7830.0,3346.0,-99.0,-412.0,2582.0,0.12,0.113,0.511,0.844
2011481,1140.0,5992.0,2938.0,-159.0,-483.0,2317.0,0.104,0.127,0.507,0.846
2011503,1636.0,5930.0,3360.0,-117.0,-559.0,2075.0,0.091,0.142,0.503,0.848
2011515,1964.0,7338.0,4460.0,-187.0,-615.0,1687.0,0.081,0.155,0.498,0.849
2011537,3454.0,10156.0,3968.0,-338.0,-625.0,1689.0,0.071,0.167,0.493,0.851
2011559,3536.0,8372.0,3864.0,-540.0,-627.0,2014.0,0.059,0.181,0.485,0.854
2011571,3260.0,6158.0,3684.0,-305.0,-574.0,2011.0,0.046,0.195,0.478,0.855
2011593,3122.0,6450.0,3640.0,64.0,-583.0,1729.0,0.034,0.208,0.475,0.854
2011605,3390.0,6734.0,3590.0,-59.0,-663.0,1761.0,0.024,0.221,0.471,0.854
2011627,3812.0,5900.0,3666.0,-279.0,-720.0,1985.0,0.011,0.236,0.465,0.854
2011639,4344.0,6450.0,3434.0,-267.0,-794.0,2020.0,0.001,-0.251,-0.458,-0.853
2011661,5004.0,6548.0,3322.0,-316.0,-871.0,2124.0,0.013,-0.267,-0.45,-0.852
2011673,5464.0,5778.0,3218.0,-335.0,-870.0,2225.0,0.026,-0.284,-0.442,-0.851
2011695,5718.0,5956.0,3386.0,-174.0,-844.0,2131.0,0.039,-0.299,-0.435,-0.848
2011707,6016.0,6414.0,3722.0,-7.0,-853.0,1977.0,0.051,-0.314,-0.43,-0.845
2011729,6258.0,6492.0,3714.0,60.0,-834.0,2023.0,0.064,-0.329,-0.424,-0.841
2011751,6454.0,6090.0,3634.0,92.0,-795.0,2125.0,0.078,-0.344,-0.419,-0.837
2011763,6674.0,5860.0,3414.0,93.0,-806.0,2192.0,0.092,-0.358,-0.413,-0.832
2011785,6922.0,5456.0,3214.0,90.0,-801.0,2216.0,0.107,-0.373,-0.407,-0.827
2011797,7144.0,5578.0,3318.0,112.0,-779.0,2170.0,0.121,-0.387,-0.401,-0.821
2011819,7424.0,5906.0,3520.0,138.0,-737.0,2119.0,0.135,-0.4,-0.395,-0.816
2011831,7448.0,6028.0,3596.0,139.0,-676.0,2102.0,0.149,-0.413,-0.39,-0.81
2011853,7420.0,6000.0,3524.0,128.0,-607.0,2058.0,0.163,-0.425,-0.383,-0.804
2011865,7288.0,6110.0,3464.0,97.0,-556.0,1937.0,0.176,-0.436,-0.377,-0.798
2011887,7252.0,5950.0,3348.0,75.0,-499.0,1785.0,0.188,-0.445,-0.371,-0.793
2011899,7142.0,5898.0,3370.0,77.0,-440.0,1599.0,0.199,-0.454,-0.366,-0.788
2011921,7052.0,5902.0,3460.0,87.0,-381.0,1401.0,0.208,-0.461,-0.362,-0.783
2011943,6948.0,5936.0,3442.0,85.0,-323.0,1205.0,0.217,-0.467,-0.358,-0.779
2011955,6870.0,5912.0,3362.0,75.0,-269.0,1007.0,0.224,-0.473,-0.355,-0.775
2011977,6816.0,5792.0,3310.0,70.0,-217.0,821.0,0.229,-0.477,-0.352,-0.772
2011989,6728.0,5696.0,3242.0,62.0,-158.0,670.0,0.234,-0.48,-0.35,-0.77
2012011,6648.0,5686.0,3208.0,43.0,-106.0,518.0,0.238,-0.482,-0.349,-0.768
2012023,6614.0,5462.0,3258.0,69.0,-53.0,389.0,0.241,-0.483,-0.348,-0.766
2012045,6532.0,5588.0,3302.0,88.0,21.0,264.0,0.244,-0.484,-0.347,-0.765
2012057,6498.0,5898.0,3466.0,136.0,74.0,94.0,0.245,-0.483,-0.348,-0.765
2012079,6618.0,5904.0,3492.0,306.0,180.0,-142.0,0.247,-0.481,-0.35,-0.765
2012101,6724.0,6524.0,3514.0,495.0,294.0,-411.0,0.247,-0.476,-0.355,-0.765
2012113,6796.0,6730.0,3796.0,561.0,384.0,-739.0,0.246,-0.47,-0.362,-0.767
2012135,6982.0,6936.0,3966.0,495.0,456.0,-1085.0,0.242,-0.462,-0.369,-0.77
2012147,7030.0,7400.0,3926.0,349.0,498.0,-1419.0,0.235,-0.452,-0.377,-0.773
2012169,7302.0,7102.0,3896.0,273.0,595.0,-1744.0,0.226,-0.441,-0.385,-0.779
2012181,7440.0,7258.0,3814.0,326.0,695.0,-2059.0,0.216,-0.428,-0.395,-0.784
2012203,7598.0,7370.0,3858.0,390.0,758.0,-2341.0,0.203,-0.412,-0.405,-0.79
2012215,7860.0,7462.0,3882.0,455.0,813.0,-2571.0,0.19,-0.395,-0.417,-0.796
2012237,7800.0,7694.0,3948.0,483.0,862.0,-2769.0,0.174,-0.377,-0.429,-0.802
2012259,7678.0,8530.0,3822.0,465.0,869.0,-2956.0,0.158,-0.358,-0.442,-0.807
2012271,7818.0,8638.0,3686.0,318.0,858.0,-3095.0,0.139,-0.338,-0.453,-0.813
2012293,7738.0,8628.0,3406.0,98.0,821.0,-3220.0,0.119,-0.317,-0.463,-0.819
2012305,7534.0,8406.0,3586.0,-64.0,794.0,-3344.0,0.097,-0.297,-0.472,-0.825
2012327,7478.0,8368.0,3542.0,-141.0,747.0,-3451.0,0.074,-0.275,-0.479,-0.83
2012339,7256.0,7594.0,3440.0,-187.0,781.0,-3496.0,0.05,-0.254,-0.486,-0.835
2012361,6780.0,8000.0,3332.0,-108.0,828.0,-3583.0,0.026,-0.231,-0.493,-0.838
2012373,6450.0,8712.0,3078.0,-124.0,833.0,-3626.0,0.002,-0.207,-0.5,-0.841
2012395,6196.0,8460.0,2934.0,-221.0,826.0,-3591.0,0.023,0.184,0.504,0.843
2012417,5562.0,7536.0,3146.0,-260.0,836.0,-3584.0,0.048,0.16,0.508,0.845
2012429,5026.0,7516.0,3068.0,-118.0,784.0,-3676.0,0.073,0.136,0.513,0.844
2012451,4560.0,7076.0,2932.0,37.0,738.0,-3663.0,0.097,0.114,0.518,0.842
2012463,3878.0,6750.0,2898.0,182.0,696.0,-3611.0,0.121,0.092,0.524,0.838
2012485,3154.0,6992.0,2918.0,110.0,611.0,-3569.0,0.146,0.07,0.528,0.834
2012497,2774.0,6820.0,3036.0,-168.0,533.0,-3466.0,0.17,0.049,0.529,0.83
2012519,2214.0,6590.0,2692.0,-374.0,503.0,-3354.0,0.193,0.029,0.529,0.826
2012531,1762.0,5864.0,2554.0,-249.0,496.0,-3308.0,0.216,0.009,0.528,0.821
2012553,892.0,5162.0,2542.0,-22.0,499.0,-3257.0,0.238,-0.011,0.529,0.814
2012575,354.0,5282.0,2688.0,10.0,445.0,-3195.0,0.26,-0.03,0.53,0.807
2012587,0.0,5394.0,2698.0,-319.0,388.0,-3061.0,0.281,-0.049,0.527,0.801
2012609,-476.0,5396.0,2552.0,-603.0,342.0,-2829.0,0.3,-0.067,0.522,0.796
2012621,-838.0,4532.0,2674.0,-459.0,317.0,-2779.0,0.319,-0.084,0.517,0.79
2012643,-1274.0,4444.0,2532.0,-74.0,283.0,-2799.0,0.338,-0.1,0.515,0.781
2012655,-2662.0,486.0,2878.0,694.0,-165.0,-3616.0,0.366,-0.114,0.516,0.766
2012677,2762.0,7662.0,2846.0,536.0,865.0,1012.0,0.354,-0.111,0.524,0.766
2012689,-2940.0,6748.0,2998.0,91.0,837.0,389.0,0.348,-0.115,0.528,0.766
2012711,-3890.0,5874.0,3080.0,-191.0,212.0,-1611.0,0.358,-0.124,0.526,0.761
2012723,-2398.0,4718.0,3124.0,-93.0,-42.0,-2558.0,0.377,-0.137,0.522,0.753
2012745,-3320.0,4696.0,2944.0,-123.0,-28.0,-2771.0,0.396,-0.15,0.517,0.744
2012767,-3838.0,3806.0,3116.0,-271.0,-50.0,-2851.0,0.416,-0.164,0.511,0.734
2012779,-4140.0,1638.0,3418.0,-487.0,43.0,-2393.0,0.431,-0.178,0.504,0.727
2012801,-5372.0,-418.0,3462.0,-474.0,150.0,-2110.0,0.444,-0.19,0.498,0.72
2012813,-6192.0,-1202.0,3366.0,-172.0,30.0,-2132.0,0.458,-0.201,0.493,0.712
2012835,-6236.0,-2592.0,3618.0,28.0,-87.0,-1872.0,0.472,-0.209,0.489,0.703
2012847,-6020.0,-3638.0,3544.0,97.0,-64.0,-1103.0,0.481,-0.214,0.486,0.698
2012869,-5820.0,-3168.0,3472.0,133.0,-45.0,-271.0,0.484,-0.215,0.485,0.696
2012881,-5784.0,-2048.0,3454.0,-304.0,6.0,685.0,0.479,-0.213,0.485,0.7
2012903,-5714.0,-1656.0,3408.0,-799.0,-30.0,1413.0,0.469,-0.21,0.482,0.709
2012915,-5444.0,-1908.0,3320.0,-786.0,-80.0,1881.0,0.456,-0.204,0.481,0.721
2012937,-5356.0,-526.0,2914.0,-568.0,-164.0,2174.0,0.441,-0.195,0.48,0.733
2012959,-5058.0,-1132.0,2678.0,-354.0,-307.0,2445.0,0.426,-0.183,0.481,0.744
2012971,-4456.0,-346.0,2968.0,11.0,-407.0,2552.0,0.41,-0.168,0.484,0.755
2012993,-3806.0,1586.0,3414.0,347.0,-469.0,2643.0,0.395,-0.151,0.488,0.763
2013005,-3320.0,3510.0,3694.0,455.0,-470.0,2789.0,0.378,-0.133,0.494,0.772
2013027,-2994.0,5136.0,3534.0,355.0,-446.0,2894.0,0.36,-0.115,0.498,0.78
2013039,-2712.0,5662.0,3434.0,22.0,-426.0,2930.0,0.341,-0.097,0.5,0.79
2013056,-2466.0,5844.0,3888.0,-184.0,-419.0,2747.0,0.323,-0.082,0.5,0.8
2013079,-2064.0,6774.0,4236.0,-77.0,-419.0,2495.0,0.307,-0.066,0.499,0.808
2013091,-1788.0,8190.0,4130.0,112.0,-407.0,2312.0,0.291,-0.052,0.5,0.814
2013113,-1952.0,7182.0,4056.0,-15.0,-379.0,2420.0,0.275,-0.037,0.5,0.82
2013125,-1864.0,6218.0,3540.0,-70.0,-424.0,2428.0,0.259,-0.022,0.5,0.826
2013147,-1758.0,5094.0,3400.0,-83.0,-479.0,2453.0,0.242,-0.007,0.498,0.833
2013169,-1022.0,5254.0,4170.0,-8.0,-512.0,2431.0,0.226,0.008,0.497,0.838
2013181,482.0,9494.0,3996.0,288.0,-494.0,2373.0,0.21,0.024,0.498,0.841
2013203,838.0,9818.0,4602.0,-155.0,-424.0,2671.0,0.192,0.04,0.495,0.847
2013215,726.0,9416.0,4456.0,-362.0,-446.0,2602.0,0.173,0.055,0.49,0.852
2013237,138.0,6978.0,3418.0,-408.0,-537.0,2343.0,0.158,0.069,0.485,0.857
2013249,106.0,5104.0,3350.0,-228.0,-569.0,1990.0,0.145,0.083,0.481,0.861
2013271,70.0,4916.0,3726.0,137.0,-608.0,1787.0,0.133,0.096,0.48,0.862
2013283,1038.0,6786.0,4384.0,324.0,-622.0,1797.0,0.122,0.11,0.48,0.862
2013305,2142.0,9612.0,4820.0,204.0,-606.0,1682.0,0.111,0.123,0.479,0.862
2013327,2832.0,10050.0,4594.0,-377.0,-622.0,1979.0,0.098,0.136,0.473,0.865
2013339,2442.0,7436.0,3746.0,-771.0,-609.0,2075.0,0.085,0.15,0.463,0.869
2013361,1976.0,5430.0,3240.0,-647.0,-646.0,1706.0,0.075,0.162,0.455,0.872
2013373,2314.0,5272.0,4100.0,163.0,-549.0,1209.0,0.068,0.172,0.454,0.872
2013395,2446.0,7330.0,4130.0,77.0,-714.0,1524.0,0.058,0.185,0.452,0.871
2013407,3186.0,4770.0,4576.0,436.0,-772.0,1867.0,0.046,0.199,0.451,0.869
2013429,3642.0,7786.0,4666.0,517.0,-753.0,1806.0,0.033,0.213,0.452,0.866
2013441,4416.0,8000.0,4294.0,73.0,-818.0,2049.0,0.02,0.228,0.448,0.864
2013463,4558.0,6228.0,3792.0,-131.0,-707.0,2434.0,0.004,0.245,0.441,0.863
2013485,4382.0,6054.0,3738.0,-41.0,-711.0,2184.0,0.01,-0.26,-0.436,-0.862
2013497,4794.0,6676.0,4012.0,177.0,-769.0,1726.0,0.021,-0.273,-0.433,-0.859
2013519,5158.0,6446.0,4070.0,207.0,-741.0,1726.0,0.033,-0.286,-0.43,-0.856
2013531,5404.0,5656.0,3980.0,233.0,-686.0,1915.0,0.046,-0.299,-0.427,-0.852
2013553,5472.0,5398.0,3700.0,258.0,-693.0,1969.0,0.06,-0.312,-0.424,-0.848
2013565,5836.0,5218.0,3522.0,237.0,-730.0,1980.0,0.073,-0.326,-0.42,-0.844
2013587,6312.0,5140.0,3390.0,252.0,-759.0,2036.0,0.087,-0.34,-0.417,-0.839
2013599,6708.0,5194.0,3316.0,288.0,-743.0,2108.0,0.101,-0.354,-0.413,-0.833
2013621,6936.0,5402.0,3306.0,291.0,-738.0,2189.0,0.117,-0.368,-0.408,-0.827
2013633,7104.0,5582.0,3246.0,220.0,-734.0,2241.0,0.132,-0.382,-0.403,-0.821
2013655,7254.0,5806.0,3338.0,101.0,-746.0,2238.0,0.146,-0.396,-0.397,-0.815
2013677,7236.0,5908.0,3454.0,-59.0,-753.0,2200.0,0.16,-0.409,-0.389,-0.81
2013689,7386.0,5862.0,3512.0,-196.0,-762.0,2109.0,0.173,-0.423,-0.381,-0.804
2013711,7434.0,5956.0,3608.0,-314.0,-764.0,1954.0,0.183,-0.436,-0.372,-0.799
2013723,7410.0,5832.0,3730.0,-438.0,-732.0,1788.0,0.192,-0.448,-0.362,-0.794
2013745,7344.0,5550.0,3632.0,-500.0,-691.0,1580.0,0.2,-0.46,-0.353,-0.79
2013757,7434.0,5120.0,3624.0,-474.0,-618.0,1340.0,0.206,-0.47,-0.345,-0.786
2013779,7548.0,4452.0,3358.0,-411.0,-546.0,1138.0,0.211,-0.478,-0.338,-0.783
2013791,7480.0,3768.0,3396.0,-165.0,-393.0,988.0,0.216,-0.484,-0.334,-0.779
2013813,7322.0,3426.0,3476.0,132.0,-263.0,919.0,0.222,-0.489,-0.331,-0.776
2013835,7292.0,3934.0,3768.0,345.0,-162.0,900.0,0.23,-0.492,-0.33,-0.772
2013847,7102.0,4588.0,3654.0,404.0,-81.0,959.0,0.239,-0.494,-0.329,-0.768
2013869,6916.0,4888.0,3508.0,298.0,-21.0,1019.0,0.248,-0.497,-0.326,-0.765
2013881,6754.0,4922.0,3136.0,236.0,-3.0,972.0,0.255,-0.499,-0.324,-0.762
2013903,6904.0,5256.0,3150.0,173.0,2.0,856.0,0.262,-0.501,-0.321,-0.759
2013915,6966.0,5226.0,3146.0,138.0,20.0,695.0,0.268,-0.503,-0.319,-0.757
2013937,7002.0,5358.0,3046.0,123.0,52.0,513.0,0.273,-0.504,-0.318,-0.756
2013949,6986.0,5428.0,3008.0,113.0,95.0,282.0,0.276,-0.503,-0.317,-0.755
2013971,7028.0,5564.0,3090.0,102.0,137.0,-24.0,0.277,-0.502,-0.318,-0.755
2013993,7074.0,5458.0,3204.0,76.0,177.0,-342.0,0.275,-0.5,-0.319,-0.757
2014005,7218.0,5390.0,3176.0,81.0,224.0,-653.0,0.272,-0.496,-0.323,-0.759
2014027,7346.0,5626.0,3444.0,169.0,302.0,-981.0,0.267,-0.49,-0.328,-0.762
2014039,7418.0,5550.0,3576.0,202.0,378.0,-1245.0,0.261,-0.483,-0.334,-0.766
2014061,7624.0,5782.0,3564.0,170.0,457.0,-1508.0,0.252,-0.475,-0.341,-0.771
2014073,7664.0,6014.0,3766.0,61.0,500.0,-1758.0,0.242,-0.465,-0.348,-0.777
2014095,7876.0,5750.0,3824.0,-89.0,536.0,-1947.0,0.229,-0.455,-0.355,-0.784
2014107,7964.0,5412.0,4120.0,-141.0,580.0,-2109.0,0.215,-0.444,-0.362,-0.791
2014129,8048.0,5702.0,4382.0,-124.0,649.0,-2292.0,0.201,-0.431,-0.369,-0.798
2014141,8100.0,6126.0,4020.0,-170.0,698.0,-2424.0,0.185,-0.418,-0.377,-0.806
2014163,8148.0,6200.0,4346.0,-225.0,773.0,-2536.0,0.168,-0.403,-0.384,-0.814
2014185,8216.0,6298.0,4600.0,-247.0,868.0,-2669.0,0.15,-0.387,-0.391,-0.822
2014197,8148.0,6644.0,4666.0,-301.0,937.0,-2779.0,0.131,-0.37,-0.397,-0.83
2014219,7868.0,6894.0,4538.0,-424.0,994.0,-2866.0,0.112,-0.352,-0.402,-0.838
2014231,7670.0,7090.0,4592.0,-598.0,1037.0,-2934.0,0.091,-0.333,-0.406,-0.846
2014253,7454.0,7222.0,4544.0,-731.0,1092.0,-2994.0,0.069,-0.314,-0.409,-0.854
2014265,7354.0,6822.0,4646.0,-710.0,1173.0,-3022.0,0.048,-0.293,-0.411,-0.862
2014287,7106.0,6914.0,4688.0,-705.0,1260.0,-3083.0,0.026,-0.271,-0.413,-0.869
2014299,6760.0,6862.0,4950.0,-675.0,1323.0,-3106.0,0.005,-0.248,-0.415,-0.875
2014321,6384.0,6736.0,4908.0,-679.0,1398.0,-3120.0,0.016,0.225,0.417,0.881
2014343,5894.0,6862.0,4548.0,-734.0,1442.0,-3139.0,0.038,0.2,0.417,0.886
2014355,5338.0,6568.0,4466.0,-643.0,1516.0,-3116.0,0.059,0.175,0.418,0.889
2014377,4898.0,6406.0,4376.0,-396.0,1578.0,-3141.0,0.079,0.15,0.421,0.891
2014389,4452.0,6312.0,4472.0,-214.0,1671.0,-3188.0,0.099,0.124,0.424,0.892
2014411,3842.0,6446.0,4588.0,-217.0,1655.0,-3187.0,0.118,0.098,0.427,0.891
2014423,3496.0,7382.0,4402.0,-325.0,1656.0,-3001.0,0.137,0.072,0.429,0.89
2014445,2714.0,5978.0,4236.0,-418.0,1503.0,-3005.0,0.156,0.047,0.429,0.888
2014457,2136.0,4502.0,3892.0,-164.0,1408.0,-3018.0,0.175,0.024,0.431,0.885
2014479,1608.0,4236.0,3906.0,325.0,1411.0,-2987.0,0.194,0.0,0.436,0.879
2014501,872.0,5534.0,3710.0,491.0,1384.0,-3023.0,0.213,-0.022,0.443,0.871
2014513,336.0,6040.0,3862.0,251.0,1294.0,-2899.0,0.231,-0.044,0.447,0.863
2014535,-168.0,5430.0,3998.0,-136.0,1118.0,-2789.0,0.249,-0.065,0.447,0.857
2014547,-744.0,4656.0,4034.0,-170.0,989.0,-2636.0,0.266,-0.084,0.446,0.851
2014569,-1230.0,4106.0,3858.0,63.0,921.0,-2655.0,0.283,-0.102,0.446,0.843
2014581,-1432.0,3664.0,3610.0,391.0,877.0,-2647.0,0.301,-0.119,0.449,0.833
2014603,-1944.0,3582.0,3462.0,422.0,852.0,-2580.0,0.318,-0.135,0.452,0.823
2014615,-2126.0,4554.0,3654.0,287.0,830.0,-2443.0,0.333,-0.15,0.453,0.813
2014637,-2496.0,4634.0,3804.0,-3.0,755.0,-2278.0,0.348,-0.166,0.452,0.805
2014659,-2830.0,4414.0,3710.0,-82.0,669.0,-2083.0,0.36,-0.179,0.451,0.797
2014671,-3538.0,3528.0,3842.0,174.0,663.0,-2217.0,0.375,-0.193,0.45,0.787
2014693,-2996.0,3296.0,3522.0,346.0,742.0,-1681.0,0.385,-0.204,0.452,0.778
2014705,-3500.0,3790.0,3414.0,261.0,815.0,-992.0,0.389,-0.213,0.455,0.772
2014727,-4230.0,3746.0,3400.0,205.0,736.0,-1480.0,0.397,-0.223,0.456,0.764
2014739,-4720.0,2472.0,3458.0,120.0,597.0,-1961.0,0.409,-0.235,0.455,0.755
2014761,-4758.0,1556.0,3536.0,108.0,547.0,-2070.0,0.422,-0.247,0.454,0.745
2014773,-5020.0,908.0,3142.0,275.0,502.0,-1963.0,0.434,-0.258,0.453,0.735
2014795,-5656.0,-550.0,3078.0,464.0,431.0,-1823.0,0.446,-0.266,0.454,0.724
2014807,-6036.0,-1584.0,3056.0,617.0,377.0,-1491.0,0.456,-0.272,0.456,0.714
2014829,-6490.0,-1958.0,3060.0,655.0,326.0,-1247.0,0.466,-0.277,0.458,0.705
2014851,-6558.0,-2758.0,2978.0,420.0,218.0,-941.0,0.473,-0.281,0.459,0.698
2014863,-6402.0,-3480.0,2844.0,223.0,205.0,-328.0,0.476,-0.284,0.459,0.694
2014885,-6550.0,-2574.0,2784.0,-75.0,131.0,104.0,0.476,-0.285,0.459,0.694
2014897,-6096.0,-2184.0,3118.0,-315.0,18.0,603.0,0.471,-0.284,0.459,0.698
2014919,-6058.0,-1404.0,3392.0,-524.0,-78.0,1090.0,0.463,-0.28,0.458,0.705
2014931,-5992.0,-934.0,3160.0,-702.0,-172.0,1549.0,0.453,-0.275,0.457,0.714
2014953,-5636.0,-280.0,2644.0,-781.0,-308.0,1885.0,0.44,-0.268,0.456,0.726
2014975,-5708.0,-770.0,2562.0,-842.0,-413.0,2164.0,0.425,-0.259,0.454,0.739
2014987,-5132.0,-208.0,2750.0,-633.0,-573.0,2314.0,0.41,-0.247,0.453,0.752
2014999,-4702.0,506.0,3390.0,-335.0,-654.0,2465.0,0.396,-0.233,0.453,0.764
2015022,-3854.0,2800.0,3764.0,-42.0,-738.0,2536.0,0.381,-0.217,0.456,0.775
2015044,-3610.0,4126.0,4362.0,-45.0,-775.0,2672.0,0.365,-0.2,0.458,0.785
2015061,-3052.0,6370.0,4284.0,-168.0,-789.0,2767.0,0.348,-0.182,0.459,0.797
2015073,-3538.0,5742.0,3820.0,-555.0,-819.0,2854.0,0.33,-0.165,0.458,0.809
2015095,-3364.0,4634.0,3320.0,-758.0,-955.0,2650.0,0.313,-0.148,0.453,0.821
2015107,-3228.0,4222.0,3674.0,-555.0,-1017.0,2379.0,0.299,-0.131,0.449,0.832
2015129,-2824.0,4592.0,4116.0,-262.0,-1095.0,2310.0,0.285,-0.114,0.447,0.84
2015141,-2102.0,5258.0,5034.0,-75.0,-1083.0,2364.0,0.272,-0.095,0.445,0.848
2015163,-1356.0,6936.0,5094.0,-277.0,-1009.0,2493.0,0.256,-0.077,0.443,0.856
2015185,-1522.0,6724.0,4994.0,-979.0,-1007.0,2720.0,0.238,-0.059,0.434,0.867
2015197,-1400.0,6252.0,4620.0,-1431.0,-1161.0,2533.0,0.222,-0.042,0.422,0.878
2015219,-1526.0,4950.0,5110.0,-1321.0,-1276.0,2255.0,0.208,-0.025,0.409,0.888
2015231,-508.0,5608.0,5746.0,-677.0,-1302.0,1997.0,0.197,-0.008,0.401,0.895
2015253,368.0,6756.0,6012.0,-172.0,-1161.0,1993.0,0.185,0.009,0.397,0.899
2015265,286.0,7460.0,5716.0,-300.0,-1052.0,2205.0,0.17,0.026,0.393,0.903
2015287,122.0,7128.0,5476.0,-652.0,-1149.0,2282.0,0.156,0.043,0.385,0.909
2015299,-36.0,4886.0,5122.0,-696.0,-1320.0,2018.0,0.144,0.061,0.376,0.913
2015321,1262.0,4118.0,6670.0,110.0,-1059.0,1660.0,0.134,0.076,0.374,0.914
2015333,2562.0,9116.0,6832.0,-142.0,-1185.0,1270.0,0.127,0.091,0.371,0.916
2015355,1434.0,7326.0,6590.0,-686.0,-1293.0,1440.0,0.12,0.106,0.362,0.918
2015367,2088.0,7036.0,5928.0,-796.0,-1168.0,2085.0,0.107,0.122,0.352,0.922
2015389,1250.0,5372.0,5014.0,-618.0,-1280.0,1967.0,0.095,0.139,0.343,0.924
2015411,1756.0,3152.0,4562.0,158.0,-1341.0,1746.0,0.085,0.157,0.341,0.923
2015423,2588.0,4480.0,5454.0,886.0,-1283.0,1510.0,0.074,0.173,0.345,0.92
2015445,3486.0,6598.0,6300.0,728.0,-1309.0,1688.0,0.063,0.191,0.347,0.916
2015457,4222.0,8654.0,7180.0,-302.0,-1365.0,2120.0,0.05,0.209,0.34,0.916
2015479,3782.0,7944.0,6436.0,-1207.0,-1562.0,2152.0,0.039,0.229,0.325,0.917
2015491,3652.0,4544.0,5068.0,-921.0,-1670.0,1913.0,0.03,0.249,0.312,0.917
2015513,4266.0,3034.0,4408.0,368.0,-1433.0,1389.0,0.022,0.265,0.311,0.912
2015535,4866.0,5012.0,4278.0,1378.0,-1201.0,916.0,0.014,0.278,0.321,0.905
2015547,4748.0,6720.0,4952.0,1303.0,-1254.0,1005.0,0.006,0.292,0.329,0.898
2015569,4974.0,6914.0,5586.0,601.0,-1399.0,1513.0,0.004,-0.309,-0.329,-0.892
2015581,5186.0,6164.0,5524.0,-18.0,-1630.0,1785.0,0.014,-0.328,-0.324,-0.887
2015603,5620.0,5022.0,4980.0,-26.0,-1719.0,1740.0,0.023,-0.347,-0.319,-0.882
2015615,6152.0,4414.0,4322.0,417.0,-1609.0,1544.0,0.032,-0.365,-0.317,-0.875
2015637,6434.0,5214.0,3994.0,810.0,-1459.0,1351.0,0.042,-0.381,-0.32,-0.867
2015649,6718.0,6206.0,4370.0,876.0,-1392.0,1327.0,0.051,-0.396,-0.323,-0.858
2015671,6868.0,6348.0,4736.0,732.0,-1368.0,1451.0,0.061,-0.411,-0.324,-0.85
2015693,6984.0,5710.0,4986.0,647.0,-1284.0,1469.0,0.072,-0.425,-0.324,-0.842
2015705,7032.0,5658.0,4754.0,590.0,-1215.0,1282.0,0.081,-0.438,-0.324,-0.835
2015727,7256.0,5596.0,4514.0,549.0,-1132.0,1074.0,0.088,-0.449,-0.325,-0.827
2015739,7384.0,5344.0,4190.0,527.0,-963.0,959.0,0.095,-0.459,-0.326,-0.821
2015761,7438.0,5390.0,3940.0,544.0,-774.0,900.0,0.102,-0.467,-0.327,-0.815
2015773,7322.0,5586.0,4254.0,629.0,-577.0,798.0,0.109,-0.474,-0.329,-0.81
2015795,6968.0,5764.0,4196.0,670.0,-394.0,654.0,0.116,-0.478,-0.332,-0.805
2015807,6734.0,6052.0,4116.0,555.0,-290.0,480.0,0.121,-0.481,-0.334,-0.802
2015829,6724.0,5932.0,4232.0,343.0,-253.0,307.0,0.125,-0.483,-0.336,-0.799
2015841,6822.0,5240.0,4338.0,216.0,-192.0,172.0,0.127,-0.485,-0.337,-0.797
2015863,6576.0,4924.0,4054.0,287.0,-51.0,20.0,0.128,-0.485,-0.339,-0.796
2015875,6484.0,4712.0,3768.0,423.0,127.0,-133.0,0.13,-0.483,-0.343,-0.795
2015897,6370.0,4958.0,3916.0,455.0,248.0,-258.0,0.131,-0.479,-0.348,-0.795
