timeMs,ax,ay,az,q0,q1,q2,q3
2405598,6789.0,4465.0,136.0,0.388,-0.386,-0.597,-0.586
2405615,6827.0,4387.0,268.0,0.391,-0.387,-0.597,-0.584
2405632,6969.0,4213.0,236.0,0.393,-0.389,-0.596,-0.583
2405649,7113.0,4295.0,198.0,0.396,-0.39,-0.594,-0.582
2405666,7251.0,4163.0,242.0,0.398,-0.391,-0.593,-0.581
2405684,7415.0,3825.0,186.0,0.4,-0.393,-0.591,-0.58
2405701,7483.0,3847.0,174.0,0.403,-0.394,-0.59,-0.579
2405727,7607.0,3855.0,272.0,0.405,-0.395,-0.588,-0.578
2405744,7845.0,3497.0,110.0,0.407,-0.397,-0.586,-0.578
2405761,7803.0,3455.0,242.0,0.41,-0.398,-0.584,-0.577
2405778,7717.0,3565.0,376.0,0.413,-0.399,-0.581,-0.577
2405796,7693.0,3323.0,442.0,0.415,-0.401,-0.579,-0.577
2405813,7879.0,2951.0,494.0,0.417,-0.403,-0.576,-0.576
2405830,7793.0,2975.0,602.0,0.418,-0.405,-0.574,-0.576
2405847,7705.0,2889.0,562.0,0.419,-0.407,-0.572,-0.576
2405864,7761.0,2639.0,600.0,0.42,-0.409,-0.57,-0.575
2405883,7521.0,2755.0,534.0,0.42,-0.412,-0.569,-0.575
2405900,7757.0,2601.0,516.0,0.419,-0.414,-0.567,-0.575
2405916,7733.0,2481.0,556.0,0.419,-0.416,-0.567,-0.574
2405933,7717.0,2399.0,446.0,0.419,-0.418,-0.566,-0.574
2405950,7875.0,2417.0,308.0,0.418,-0.42,-0.566,-0.573
2405976,7741.0,2635.0,374.0,0.418,-0.42,-0.566,-0.573
2405992,7651.0,2535.0,388.0,0.418,-0.421,-0.565,-0.573
2406008,7609.0,2469.0,446.0,0.418,-0.422,-0.565,-0.573
2406024,7549.0,2435.0,420.0,0.418,-0.422,-0.565,-0.573
2406040,7645.0,2623.0,410.0,0.418,-0.421,-0.565,-0.573
2406057,7621.0,2621.0,420.0,0.418,-0.421,-0.565,-0.572
2406073,7721.0,2543.0,372.0,0.419,-0.421,-0.566,-0.572
2406099,7755.0,2659.0,294.0,0.419,-0.421,-0.566,-0.572
2406116,7623.0,2651.0,338.0,0.42,-0.421,-0.566,-0.571
2406133,7673.0,2623.0,392.0,0.42,-0.421,-0.566,-0.571
2406150,7699.0,2661.0,350.0,0.421,-0.421,-0.566,-0.57
2406166,7711.0,2733.0,368.0,0.422,-0.421,-0.566,-0.569
2406183,7747.0,2585.0,298.0,0.423,-0.422,-0.566,-0.568
2406199,7735.0,2617.0,324.0,0.424,-0.422,-0.566,-0.567
2406215,7723.0,2637.0,338.0,0.425,-0.422,-0.566,-0.566
2406232,7731.0,2533.0,320.0,0.426,-0.423,-0.566,-0.565
2406259,7725.0,2535.0,288.0,0.427,-0.423,-0.566,-0.564
2406276,7729.0,2557.0,330.0,0.428,-0.424,-0.566,-0.562
2406293,7817.0,2453.0,300.0,0.43,-0.424,-0.566,-0.561
2406310,7759.0,2555.0,292.0,0.431,-0.424,-0.566,-0.56
2406328,7705.0,2603.0,302.0,0.432,-0.424,-0.567,-0.559
2406345,7737.0,2623.0,302.0,0.434,-0.424,-0.567,-0.558
2406362,7743.0,2705.0,246.0,0.435,-0.424,-0.567,-0.557
2406379,7787.0,2611.0,348.0,0.436,-0.424,-0.567,-0.556
2406396,7823.0,2571.0,240.0,0.437,-0.425,-0.567,-0.555
2406413,7727.0,2643.0,228.0,0.437,-0.425,-0.566,-0.554
2406434,7753.0,2553.0,372.0,0.438,-0.425,-0.566,-0.554
2406450,7793.0,2595.0,260.0,0.439,-0.425,-0.566,-0.553
2406466,7757.0,2689.0,268.0,0.439,-0.426,-0.566,-0.553
2406483,7743.0,2555.0,280.0,0.439,-0.426,-0.566,-0.552
2406499,7781.0,2569.0,296.0,0.44,-0.427,-0.565,-0.552
2406516,7773.0,2531.0,172.0,0.44,-0.427,-0.565,-0.552
2406542,7699.0,2581.0,240.0,0.44,-0.427,-0.565,-0.552
2406559,7719.0,2573.0,306.0,0.44,-0.428,-0.564,-0.552
2406576,7747.0,2475.0,280.0,0.44,-0.428,-0.564,-0.552
2406593,7817.0,2537.0,134.0,0.44,-0.429,-0.564,-0.552
2406610,7705.0,2501.0,196.0,0.44,-0.429,-0.563,-0.553
2406627,7689.0,2459.0,308.0,0.44,-0.429,-0.563,-0.553
2406643,7711.0,2391.0,188.0,0.439,-0.429,-0.563,-0.553
2406659,7715.0,2539.0,142.0,0.439,-0.429,-0.562,-0.553
2406676,7695.0,2461.0,190.0,0.439,-0.43,-0.562,-0.554
2406694,7703.0,2379.0,212.0,0.439,-0.43,-0.562,-0.554
2406711,7739.0,2455.0,124.0,0.439,-0.43,-0.561,-0.554
2406728,7707.0,2389.0,150.0,0.439,-0.43,-0.561,-0.555
2406755,7723.0,2381.0,134.0,0.439,-0.431,-0.561,-0.555
2406772,7731.0,2369.0,246.0,0.438,-0.431,-0.561,-0.555
2406789,7757.0,2395.0,166.0,0.438,-0.431,-0.56,-0.555
2406806,7743.0,2327.0,190.0,0.438,-0.431,-0.56,-0.555
2406823,7717.0,2463.0,156.0,0.438,-0.432,-0.56,-0.555
2406840,7827.0,2375.0,128.0,0.438,-0.432,-0.56,-0.555
2406857,7833.0,2409.0,156.0,0.438,-0.432,-0.56,-0.555
2406874,7779.0,2497.0,40.0,0.438,-0.432,-0.56,-0.556
2406891,7871.0,2483.0,110.0,0.438,-0.432,-0.559,-0.556
2406908,7889.0,2419.0,166.0,0.438,-0.432,-0.558,-0.557
2406925,7875.0,2505.0,118.0,0.438,-0.431,-0.557,-0.558
2406942,7827.0,2485.0,188.0,0.438,-0.431,-0.556,-0.559
2406959,7755.0,2325.0,282.0,0.439,-0.431,-0.555,-0.56
2406985,7737.0,2407.0,370.0,0.439,-0.431,-0.553,-0.561
2407002,7725.0,2425.0,386.0,0.439,-0.431,-0.552,-0.563
2407019,7699.0,2243.0,454.0,0.439,-0.432,-0.551,-0.564
2407035,7691.0,2267.0,474.0,0.438,-0.432,-0.55,-0.565
2407051,7713.0,2281.0,510.0,0.438,-0.433,-0.549,-0.566
2407067,7765.0,2357.0,496.0,0.437,-0.434,-0.547,-0.566
2407083,7817.0,1929.0,480.0,0.437,-0.435,-0.546,-0.567
2407109,7819.0,2151.0,474.0,0.436,-0.436,-0.545,-0.567
2407125,7863.0,2161.0,588.0,0.435,-0.438,-0.545,-0.568
2407142,7821.0,2025.0,528.0,0.434,-0.439,-0.544,-0.568
2407159,7879.0,2099.0,412.0,0.433,-0.44,-0.544,-0.569
2407175,7963.0,2081.0,450.0,0.432,-0.441,-0.544,-0.569
2407192,7969.0,2141.0,480.0,0.431,-0.441,-0.543,-0.569
2407209,7921.0,2151.0,410.0,0.43,-0.442,-0.543,-0.57
2407226,7939.0,2331.0,354.0,0.429,-0.443,-0.542,-0.571
2407243,7979.0,2345.0,460.0,0.429,-0.443,-0.541,-0.572
2407259,7805.0,2021.0,678.0,0.428,-0.444,-0.541,-0.573
2407286,7745.0,2099.0,660.0,0.427,-0.444,-0.54,-0.573
2407302,7651.0,2403.0,732.0,0.426,-0.444,-0.54,-0.574
2407318,7599.0,2235.0,600.0,0.425,-0.445,-0.54,-0.575
2407334,7695.0,2191.0,556.0,0.424,-0.446,-0.539,-0.576
2407350,7729.0,2409.0,500.0,0.423,-0.446,-0.538,-0.576
2407366,7877.0,2215.0,494.0,0.422,-0.447,-0.537,-0.577
2407392,7817.0,1865.0,396.0,0.422,-0.448,-0.537,-0.577
2407409,7731.0,2499.0,612.0,0.422,-0.449,-0.536,-0.577
2407426,7787.0,3493.0,560.0,0.42,-0.452,-0.533,-0.579
2407443,7861.0,497.0,826.0,0.419,-0.455,-0.53,-0.58
2407459,7611.0,1947.0,572.0,0.418,-0.456,-0.53,-0.579
2407475,7989.0,1861.0,468.0,0.417,-0.458,-0.53,-0.579
2407491,7945.0,2267.0,320.0,0.417,-0.459,-0.53,-0.578
2407507,7931.0,2263.0,278.0,0.416,-0.46,-0.53,-0.578
2407533,7853.0,2045.0,416.0,0.415,-0.461,-0.53,-0.578
2407550,7663.0,2219.0,610.0,0.414,-0.463,-0.53,-0.578
2407567,7765.0,2039.0,490.0,0.413,-0.465,-0.529,-0.577
2407584,7813.0,1885.0,396.0,0.412,-0.467,-0.529,-0.577
2407601,7921.0,1951.0,302.0,0.41,-0.469,-0.529,-0.576
2407618,8025.0,2107.0,178.0,0.41,-0.471,-0.529,-0.575
2407635,8015.0,2017.0,214.0,0.409,-0.472,-0.529,-0.575
2407652,7971.0,1855.0,268.0,0.408,-0.473,-0.528,-0.575
2407669,7903.0,1841.0,378.0,0.408,-0.474,-0.528,-0.575
2407686,7873.0,1937.0,392.0,0.407,-0.474,-0.529,-0.574
2407703,7859.0,1987.0,294.0,0.406,-0.475,-0.529,-0.574
2407720,7919.0,2109.0,310.0,0.406,-0.476,-0.53,-0.573
2407746,7835.0,2061.0,246.0,0.405,-0.476,-0.531,-0.572
2407762,7761.0,1981.0,274.0,0.404,-0.477,-0.531,-0.571
2407778,7711.0,1499.0,242.0,0.403,-0.478,-0.533,-0.57
2407794,7821.0,1447.0,40.0,0.402,-0.478,-0.536,-0.568
2407810,7967.0,2165.0,-64.0,0.401,-0.478,-0.539,-0.566
2407827,7919.0,2179.0,-148.0,0.399,-0.478,-0.541,-0.565
2407843,8013.0,2059.0,-260.0,0.398,-0.477,-0.543,-0.564
2407870,7949.0,2103.0,-240.0,0.397,-0.477,-0.545,-0.564
2407886,7801.0,2105.0,-120.0,0.396,-0.476,-0.546,-0.564
2407902,7841.0,2151.0,-80.0,0.396,-0.476,-0.547,-0.564
2407919,8339.0,2363.0,570.0,0.396,-0.476,-0.547,-0.564
2407936,7531.0,1591.0,294.0,0.397,-0.475,-0.547,-0.563
2407953,7951.0,2403.0,-32.0,0.397,-0.475,-0.548,-0.562
2407970,7925.0,2463.0,-246.0,0.398,-0.475,-0.549,-0.562
2407986,7991.0,2261.0,-372.0,0.398,-0.475,-0.549,-0.561
2408002,8021.0,2265.0,-316.0,0.397,-0.476,-0.549,-0.561
2408028,7855.0,2261.0,-328.0,0.397,-0.476,-0.549,-0.561
2408045,7881.0,2079.0,-294.0,0.398,-0.477,-0.548,-0.561
2408061,7759.0,2149.0,-210.0,0.398,-0.478,-0.547,-0.561
2408077,7765.0,2297.0,-170.0,0.398,-0.479,-0.546,-0.561
2408094,7943.0,3555.0,-132.0,0.398,-0.483,-0.542,-0.562
2408111,7367.0,1303.0,-198.0,0.396,-0.486,-0.539,-0.563
2408128,7727.0,433.0,-8.0,0.396,-0.487,-0.538,-0.563
2408144,7879.0,2321.0,-328.0,0.396,-0.488,-0.537,-0.562
2408171,8263.0,1851.0,-168.0,0.396,-0.489,-0.537,-0.562
2408187,7879.0,1791.0,-90.0,0.397,-0.488,-0.537,-0.562
2408203,7887.0,1997.0,-130.0,0.398,-0.488,-0.537,-0.562
2408219,7983.0,1941.0,-210.0,0.398,-0.488,-0.537,-0.561
2408236,7931.0,2055.0,-240.0,0.398,-0.488,-0.537,-0.561
2408253,8001.0,1867.0,-50.0,0.399,-0.488,-0.537,-0.56
2408269,7795.0,1797.0,-94.0,0.399,-0.488,-0.538,-0.56
2408285,8071.0,2087.0,-194.0,0.4,-0.487,-0.539,-0.559
2408311,7877.0,1857.0,-90.0,0.4,-0.486,-0.539,-0.559
2408327,7857.0,2023.0,-98.0,0.4,-0.485,-0.54,-0.559
2408344,7879.0,2099.0,-112.0,0.401,-0.485,-0.541,-0.558
2408361,7953.0,1959.0,-174.0,0.401,-0.484,-0.542,-0.558
2408378,7913.0,1897.0,-148.0,0.401,-0.484,-0.543,-0.557
2408394,7951.0,2035.0,-88.0,0.402,-0.483,-0.544,-0.557
2408411,7893.0,1963.0,-188.0,0.402,-0.482,-0.544,-0.556
2408427,7947.0,2015.0,-190.0,0.402,-0.482,-0.545,-0.556
2408446,7903.0,2083.0,-126.0,0.403,-0.481,-0.545,-0.556
2408463,7873.0,1975.0,-92.0,0.403,-0.481,-0.546,-0.555
2408480,7957.0,2027.0,-126.0,0.403,-0.481,-0.546,-0.555
2408507,7905.0,1955.0,-180.0,0.403,-0.481,-0.546,-0.555
2408523,8009.0,1985.0,-142.0,0.403,-0.48,-0.547,-0.555
2408539,7965.0,2033.0,-112.0,0.403,-0.48,-0.547,-0.555
2408556,7893.0,1983.0,-182.0,0.403,-0.48,-0.547,-0.555
2408572,7909.0,2013.0,-240.0,0.403,-0.48,-0.548,-0.555
2408589,7877.0,1963.0,-214.0,0.403,-0.48,-0.548,-0.555
2408606,7919.0,1963.0,-210.0,0.403,-0.479,-0.548,-0.555
2408623,7839.0,2065.0,-200.0,0.403,-0.479,-0.548,-0.555
2408639,7839.0,2017.0,-200.0,0.403,-0.479,-0.548,-0.555
2408666,7939.0,1887.0,-216.0,0.403,-0.479,-0.548,-0.555
2408682,7949.0,2033.0,-206.0,0.403,-0.478,-0.548,-0.555
2408698,7813.0,1969.0,-218.0,0.403,-0.478,-0.548,-0.555
2408714,7855.0,1975.0,-190.0,0.403,-0.478,-0.548,-0.555
2408730,7909.0,1935.0,-230.0,0.403,-0.478,-0.548,-0.556
2408746,7947.0,1925.0,-140.0,0.403,-0.477,-0.548,-0.556
2408772,7919.0,1999.0,-242.0,0.404,-0.477,-0.549,-0.556
2408788,7881.0,2057.0,-256.0,0.404,-0.477,-0.548,-0.556
2408804,7917.0,1983.0,-294.0,0.404,-0.477,-0.548,-0.556
2408820,7861.0,1971.0,-242.0,0.404,-0.477,-0.548,-0.556
2408836,7891.0,1973.0,-212.0,0.404,-0.477,-0.548,-0.556
2408852,7921.0,1909.0,-256.0,0.404,-0.477,-0.548,-0.556
2408878,7925.0,1973.0,-192.0,0.404,-0.477,-0.548,-0.556
2408894,7861.0,1961.0,-198.0,0.404,-0.477,-0.548,-0.556
2408910,7927.0,2015.0,-216.0,0.404,-0.478,-0.548,-0.556
2408926,7897.0,2049.0,-332.0,0.404,-0.478,-0.548,-0.555
2408942,8003.0,1745.0,-244.0,0.404,-0.478,-0.547,-0.555
2408958,7839.0,1987.0,-228.0,0.404,-0.479,-0.547,-0.555
2408984,7871.0,1915.0,-252.0,0.404,-0.479,-0.547,-0.555
2409000,7927.0,1771.0,-254.0,0.404,-0.479,-0.547,-0.555
2409016,7901.0,1931.0,-232.0,0.404,-0.479,-0.547,-0.555
2409032,7851.0,1863.0,-192.0,0.405,-0.479,-0.547,-0.554
2409048,7891.0,1771.0,-184.0,0.405,-0.479,-0.548,-0.554
2409064,7903.0,1869.0,-298.0,0.405,-0.478,-0.548,-0.554
2409090,7933.0,2011.0,-178.0,0.405,-0.478,-0.548,-0.554
2409106,7941.0,1895.0,-100.0,0.405,-0.478,-0.549,-0.553
2409122,7881.0,1943.0,-224.0,0.406,-0.477,-0.549,-0.553
2409138,7909.0,2007.0,-276.0,0.406,-0.477,-0.55,-0.553
2409154,7977.0,1929.0,-254.0,0.406,-0.477,-0.55,-0.553
2409170,7929.0,1965.0,-192.0,0.406,-0.476,-0.55,-0.553
2409197,7889.0,1991.0,-136.0,0.406,-0.476,-0.551,-0.553
2409213,7919.0,1985.0,-200.0,0.406,-0.476,-0.551,-0.552
2409229,7945.0,1965.0,-180.0,0.406,-0.476,-0.551,-0.552
2409245,7957.0,2029.0,-206.0,0.407,-0.475,-0.551,-0.552
2409261,7911.0,2023.0,-160.0,0.407,-0.475,-0.551,-0.552
2409277,7877.0,2007.0,-164.0,0.407,-0.475,-0.551,-0.552
2409294,7965.0,1945.0,-232.0,0.407,-0.475,-0.551,-0.552
2409320,7965.0,1935.0,-228.0,0.407,-0.475,-0.551,-0.552
2409336,7913.0,1963.0,-210.0,0.407,-0.475,-0.551,-0.552
2409352,7863.0,1929.0,-214.0,0.407,-0.475,-0.551,-0.552
2409368,7895.0,1955.0,-216.0,0.407,-0.475,-0.551,-0.552
2409385,7929.0,1903.0,-238.0,0.407,-0.475,-0.551,-0.552
2409401,7879.0,1969.0,-218.0,0.407,-0.475,-0.551,-0.552
2409418,7925.0,1951.0,-236.0,0.407,-0.475,-0.551,-0.552
2409444,7971.0,1869.0,-168.0,0.408,-0.475,-0.551,-0.552
2409460,7995.0,1931.0,-254.0,0.408,-0.475,-0.551,-0.552
2409476,7929.0,1977.0,-196.0,0.408,-0.475,-0.551,-0.552
2409492,7897.0,1935.0,-178.0,0.408,-0.475,-0.551,-0.552
2409508,7923.0,1885.0,-226.0,0.408,-0.475,-0.551,-0.552
2409524,7953.0,1987.0,-244.0,0.408,-0.475,-0.551,-0.552
2409550,7985.0,1897.0,-196.0,0.408,-0.475,-0.55,-0.552
2409568,7975.0,1987.0,-180.0,0.408,-0.475,-0.55,-0.552
2409584,7891.0,1993.0,-180.0,0.408,-0.475,-0.55,-0.552
2409600,7999.0,1945.0,-188.0,0.408,-0.476,-0.55,-0.552
2409616,7975.0,1873.0,-198.0,0.408,-0.476,-0.549,-0.552
2409632,8001.0,1855.0,-196.0,0.408,-0.477,-0.549,-0.552
2409649,7923.0,1837.0,-240.0,0.408,-0.478,-0.548,-0.553
2409675,7955.0,1779.0,-250.0,0.408,-0.478,-0.547,-0.553
2409692,7899.0,1761.0,-306.0,0.408,-0.479,-0.546,-0.553
2409708,7901.0,1837.0,-254.0,0.408,-0.479,-0.546,-0.553
2409725,7879.0,1887.0,-268.0,0.408,-0.48,-0.545,-0.553
2409742,7915.0,1747.0,-250.0,0.408,-0.48,-0.545,-0.554
2409759,8037.0,1765.0,-274.0,0.408,-0.48,-0.545,-0.553
2409775,7951.0,2065.0,-344.0,0.408,-0.48,-0.545,-0.554
2409792,7793.0,1951.0,-224.0,0.408,-0.48,-0.544,-0.554
2409809,7821.0,1335.0,-4.0,0.408,-0.48,-0.544,-0.554
2409826,7869.0,1895.0,-242.0,0.409,-0.48,-0.545,-0.554
2409843,7839.0,1847.0,-284.0,0.409,-0.479,-0.545,-0.554
2409870,7881.0,1853.0,-280.0,0.409,-0.479,-0.545,-0.554
2409886,7881.0,1755.0,-240.0,0.409,-0.479,-0.545,-0.553
2409902,7887.0,1821.0,-292.0,0.409,-0.478,-0.545,-0.553
2409919,7965.0,1879.0,-234.0,0.41,-0.478,-0.545,-0.553
2409936,7957.0,1785.0,-176.0,0.41,-0.478,-0.545,-0.553
2409953,7945.0,1859.0,-148.0,0.41,-0.478,-0.546,-0.553
2409969,8007.0,1807.0,-130.0,0.41,-0.477,-0.546,-0.553
2409985,7861.0,1737.0,-192.0,0.411,-0.477,-0.546,-0.553
2410002,7997.0,1801.0,-212.0,0.411,-0.477,-0.546,-0.552
2410028,7957.0,1737.0,-174.0,0.411,-0.477,-0.547,-0.552
2410044,7991.0,1857.0,-214.0,0.411,-0.476,-0.547,-0.552
2410061,7917.0,1871.0,-272.0,0.412,-0.476,-0.547,-0.552
2410078,7887.0,1835.0,-136.0,0.412,-0.476,-0.547,-0.552
2410094,7617.0,1761.0,-146.0,0.412,-0.476,-0.548,-0.552
2410111,8155.0,1889.0,-164.0,0.412,-0.475,-0.548,-0.551
2410127,7831.0,1687.0,-262.0,0.412,-0.475,-0.548,-0.551
2410144,8077.0,1845.0,-260.0,0.413,-0.475,-0.549,-0.551
2410171,7839.0,1761.0,-216.0,0.413,-0.475,-0.549,-0.55
2410187,7899.0,1851.0,-172.0,0.413,-0.474,-0.549,-0.55
2410203,7807.0,1785.0,-144.0,0.413,-0.474,-0.549,-0.55
2410219,7929.0,1719.0,-190.0,0.413,-0.474,-0.55,-0.55
2410235,7899.0,1869.0,-226.0,0.413,-0.473,-0.55,-0.55
2410251,7963.0,1845.0,-190.0,0.414,-0.473,-0.551,-0.549
2410277,7929.0,1783.0,-248.0,0.414,-0.473,-0.551,-0.549
2410294,8025.0,1847.0,-246.0,0.414,-0.472,-0.552,-0.549
2410311,7969.0,1843.0,-208.0,0.414,-0.472,-0.552,-0.549
2410327,7945.0,1897.0,-158.0,0.415,-0.472,-0.552,-0.548
2410344,7987.0,1833.0,-202.0,0.415,-0.471,-0.553,-0.548
2410361,8069.0,1793.0,-238.0,0.415,-0.471,-0.553,-0.548
2410378,7981.0,1853.0,-224.0,0.415,-0.471,-0.553,-0.548
2410395,7949.0,1861.0,-194.0,0.415,-0.471,-0.554,-0.547
2410412,7951.0,1885.0,-242.0,0.416,-0.47,-0.554,-0.547
2410429,7959.0,1903.0,-218.0,0.416,-0.47,-0.554,-0.547
2410450,7939.0,1901.0,-230.0,0.416,-0.47,-0.554,-0.547
2410467,7903.0,1893.0,-206.0,0.416,-0.47,-0.554,-0.547
2410484,7903.0,1809.0,-190.0,0.416,-0.469,-0.554,-0.547
2410500,7985.0,1877.0,-298.0,0.416,-0.469,-0.555,-0.547
2410517,7955.0,1861.0,-248.0,0.417,-0.469,-0.555,-0.547
2410533,7927.0,1863.0,-180.0,0.417,-0.469,-0.555,-0.547
2410559,7971.0,1913.0,-208.0,0.417,-0.468,-0.555,-0.546
2410576,8039.0,1897.0,-182.0,0.417,-0.468,-0.555,-0.546
2410592,8041.0,1909.0,-112.0,0.417,-0.468,-0.555,-0.546
2410609,8049.0,1907.0,-106.0,0.417,-0.468,-0.555,-0.546
2410626,8127.0,1919.0,-156.0,0.417,-0.468,-0.555,-0.546
2410643,8085.0,1897.0,-206.0,0.417,-0.469,-0.555,-0.546
2410660,8099.0,1985.0,-206.0,0.417,-0.469,-0.555,-0.546
2410677,8085.0,1965.0,-204.0,0.417,-0.469,-0.555,-0.546
2410694,8049.0,1881.0,-230.0,0.417,-0.469,-0.554,-0.547
2410710,8043.0,1817.0,-200.0,0.416,-0.47,-0.553,-0.547
2410737,7955.0,1767.0,-164.0,0.416,-0.47,-0.553,-0.548
2410753,7917.0,1845.0,-170.0,0.416,-0.471,-0.552,-0.549
2410769,7989.0,2157.0,-182.0,0.416,-0.472,-0.55,-0.55
2410785,7581.0,1537.0,-222.0,0.415,-0.473,-0.549,-0.551
2410802,7935.0,1557.0,-170.0,0.414,-0.473,-0.548,-0.551
2410819,7941.0,1661.0,-216.0,0.414,-0.473,-0.548,-0.552
2410835,7881.0,1811.0,-276.0,0.414,-0.473,-0.548,-0.552
2410852,7979.0,1887.0,-230.0,0.414,-0.473,-0.547,-0.553
2410878,7925.0,1881.0,-186.0,0.414,-0.473,-0.547,-0.553
2410895,7967.0,1867.0,-16.0,0.414,-0.473,-0.546,-0.554
2410911,7873.0,1751.0,-80.0,0.414,-0.473,-0.546,-0.554
2410928,7973.0,1795.0,-144.0,0.414,-0.473,-0.546,-0.554
2410945,8003.0,1611.0,-112.0,0.414,-0.473,-0.546,-0.555
2410962,8017.0,1845.0,-180.0,0.414,-0.472,-0.546,-0.555
2410979,7973.0,1855.0,-222.0,0.413,-0.472,-0.546,-0.555
2410996,7921.0,1761.0,-170.0,0.413,-0.472,-0.545,-0.556
2411013,7869.0,1833.0,-132.0,0.413,-0.472,-0.545,-0.556
2411030,7879.0,1569.0,-162.0,0.412,-0.472,-0.545,-0.557
2411047,7867.0,1753.0,-210.0,0.412,-0.472,-0.545,-0.557
2411064,7917.0,1791.0,-192.0,0.412,-0.471,-0.545,-0.557
2411091,7837.0,1757.0,-156.0,0.412,-0.471,-0.545,-0.557
2411108,7921.0,1821.0,-196.0,0.412,-0.471,-0.546,-0.558
2411125,7889.0,1779.0,-156.0,0.412,-0.47,-0.546,-0.558
2411142,7905.0,1673.0,-164.0,0.413,-0.47,-0.546,-0.557
2411159,7877.0,1839.0,-80.0,0.413,-0.469,-0.547,-0.557
2411175,7891.0,1887.0,-152.0,0.413,-0.469,-0.547,-0.557
2411191,7897.0,1935.0,-172.0,0.413,-0.468,-0.548,-0.557
2411207,7829.0,1915.0,-122.0,0.414,-0.468,-0.548,-0.556
2411223,7843.0,1875.0,-148.0,0.414,-0.468,-0.548,-0.556
2411250,7833.0,1921.0,-212.0,0.414,-0.468,-0.549,-0.555
2411266,7897.0,1967.0,-182.0,0.415,-0.468,-0.549,-0.555
2411282,7759.0,2003.0,-142.0,0.415,-0.467,-0.549,-0.555
2411298,7793.0,1869.0,-144.0,0.415,-0.467,-0.549,-0.554
2411314,7739.0,1797.0,-96.0,0.416,-0.467,-0.549,-0.554
2411330,7667.0,1881.0,-128.0,0.416,-0.467,-0.55,-0.554
2411356,7741.0,1895.0,-140.0,0.417,-0.466,-0.551,-0.553
2411373,7793.0,1909.0,-86.0,0.417,-0.466,-0.552,-0.552
2411389,8007.0,2079.0,-70.0,0.417,-0.466,-0.553,-0.551
2411405,8043.0,1893.0,18.0,0.417,-0.465,-0.554,-0.55
2411421,7981.0,1807.0,-50.0,0.417,-0.465,-0.555,-0.549
2411438,8101.0,1807.0,-148.0,0.418,-0.464,-0.557,-0.548
2411455,8189.0,1905.0,-264.0,0.418,-0.464,-0.558,-0.547
2411471,8167.0,2029.0,-290.0,0.418,-0.463,-0.559,-0.547
2411498,8111.0,2025.0,-202.0,0.418,-0.463,-0.559,-0.547
2411515,8113.0,1937.0,-192.0,0.418,-0.463,-0.559,-0.546
2411532,8075.0,2037.0,-174.0,0.418,-0.462,-0.559,-0.546
2411549,8007.0,2119.0,-210.0,0.419,-0.462,-0.559,-0.547
2411566,7981.0,1991.0,-142.0,0.419,-0.462,-0.559,-0.547
2411583,8033.0,1925.0,-156.0,0.419,-0.462,-0.559,-0.547
2411600,8015.0,1855.0,-248.0,0.419,-0.462,-0.558,-0.548
2411617,7949.0,1811.0,-208.0,0.418,-0.462,-0.558,-0.548
2411634,7937.0,1851.0,-268.0,0.418,-0.461,-0.557,-0.549
2411651,7869.0,1867.0,-246.0,0.418,-0.461,-0.557,-0.55
2411667,7801.0,1803.0,-126.0,0.418,-0.461,-0.556,-0.55
2411693,7773.0,1829.0,-182.0,0.418,-0.461,-0.556,-0.551
2411710,7775.0,1829.0,-204.0,0.418,-0.461,-0.556,-0.551
2411727,7807.0,1873.0,-190.0,0.418,-0.46,-0.556,-0.551
2411743,7899.0,1857.0,-230.0,0.419,-0.46,-0.556,-0.551
2411759,7923.0,1833.0,-262.0,0.419,-0.46,-0.556,-0.551
2411775,7971.0,1833.0,-222.0,0.419,-0.46,-0.557,-0.551
2411792,8007.0,1873.0,-190.0,0.42,-0.459,-0.557,-0.551
2411809,7991.0,1917.0,-190.0,0.42,-0.459,-0.557,-0.55
2411826,8071.0,1935.0,-146.0,0.42,-0.459,-0.557,-0.55
2411843,8053.0,1829.0,-150.0,0.42,-0.459,-0.557,-0.55
2411869,7997.0,1973.0,-160.0,0.42,-0.459,-0.557,-0.55
2411885,7995.0,1947.0,-178.0,0.42,-0.459,-0.558,-0.55
2411901,8005.0,1861.0,-218.0,0.42,-0.459,-0.558,-0.549
2411917,7919.0,1847.0,-158.0,0.42,-0.459,-0.558,-0.549
2411934,7867.0,1831.0,-132.0,0.42,-0.459,-0.559,-0.549
2411950,7809.0,1789.0,-152.0,0.42,-0.459,-0.559,-0.549
2411976,7763.0,1793.0,-242.0,0.42,-0.459,-0.559,-0.549
2411993,7781.0,1787.0,-144.0,0.42,-0.459,-0.559,-0.548
2412010,7817.0,1699.0,-250.0,0.42,-0.459,-0.559,-0.548
2412027,7793.0,1811.0,-274.0,0.42,-0.459,-0.559,-0.548
2412043,7971.0,1809.0,-328.0,0.42,-0.458,-0.56,-0.548
2412060,7925.0,1807.0,-200.0,0.421,-0.458,-0.56,-0.547
2412077,7937.0,1863.0,-132.0,0.421,-0.458,-0.56,-0.547
2412093,7983.0,1895.0,-196.0,0.422,-0.457,-0.56,-0.547
2412110,7963.0,1871.0,-164.0,0.422,-0.457,-0.561,-0.546
2412127,7931.0,1961.0,-210.0,0.422,-0.457,-0.561,-0.546
2412144,7937.0,1987.0,-168.0,0.423,-0.457,-0.561,-0.546
2412171,8007.0,1971.0,-172.0,0.423,-0.457,-0.561,-0.545
2412187,7957.0,1963.0,-228.0,0.424,-0.457,-0.561,-0.545
2412203,7951.0,1921.0,-172.0,0.424,-0.457,-0.561,-0.545
2412220,7899.0,1921.0,-156.0,0.424,-0.457,-0.561,-0.545
2412236,7917.0,1969.0,-200.0,0.425,-0.457,-0.56,-0.545
2412253,7935.0,1911.0,-214.0,0.425,-0.458,-0.56,-0.544
2412269,8021.0,1805.0,-160.0,0.425,-0.458,-0.56,-0.544
2412285,7891.0,1917.0,-188.0,0.426,-0.458,-0.56,-0.544
2412311,7917.0,1833.0,-224.0,0.426,-0.458,-0.559,-0.544
2412328,7841.0,1853.0,-274.0,0.426,-0.458,-0.559,-0.544
2412345,7883.0,1879.0,-254.0,0.426,-0.458,-0.559,-0.544
2412362,7861.0,1831.0,-216.0,0.427,-0.458,-0.559,-0.544
2412379,7913.0,1843.0,-264.0,0.427,-0.457,-0.56,-0.543
2412396,7895.0,1839.0,-214.0,0.427,-0.457,-0.56,-0.543
2412414,7905.0,1893.0,-216.0,0.428,-0.457,-0.56,-0.543
2412431,7889.0,1867.0,-182.0,0.428,-0.456,-0.561,-0.543
2412448,7931.0,1849.0,-196.0,0.428,-0.456,-0.561,-0.542
2412465,7947.0,1885.0,-220.0,0.428,-0.455,-0.562,-0.542
2412482,7999.0,1945.0,-162.0,0.429,-0.455,-0.562,-0.542
2412499,7947.0,1863.0,-120.0,0.429,-0.454,-0.563,-0.541
2412516,8029.0,1829.0,-172.0,0.429,-0.454,-0.563,-0.541
2412533,7945.0,1839.0,-230.0,0.429,-0.454,-0.563,-0.541
2412559,7939.0,1843.0,-180.0,0.43,-0.453,-0.564,-0.541
2412576,7955.0,1911.0,-188.0,0.43,-0.453,-0.564,-0.54
2412592,7971.0,1831.0,-152.0,0.43,-0.453,-0.564,-0.54
2412609,7925.0,1893.0,-202.0,0.43,-0.453,-0.564,-0.54
2412626,7917.0,1857.0,-238.0,0.43,-0.453,-0.565,-0.54
2412643,7929.0,1879.0,-114.0,0.43,-0.452,-0.565,-0.54
2412660,7945.0,1855.0,-122.0,0.43,-0.452,-0.565,-0.54
2412677,8005.0,1875.0,-230.0,0.43,-0.452,-0.565,-0.54
2412694,7975.0,1847.0,-262.0,0.43,-0.452,-0.565,-0.54
2412711,7983.0,1897.0,-180.0,0.43,-0.452,-0.565,-0.54
2412728,7927.0,1823.0,-152.0,0.43,-0.452,-0.565,-0.54
2412746,7929.0,1837.0,-132.0,0.43,-0.452,-0.565,-0.54
2412764,7965.0,1903.0,-236.0,0.43,-0.452,-0.565,-0.54
2412781,8007.0,1917.0,-236.0,0.43,-0.452,-0.565,-0.54
2412808,8087.0,1897.0,-180.0,0.43,-0.452,-0.565,-0.54
2412825,8139.0,1873.0,-268.0,0.43,-0.452,-0.565,-0.54
2412842,8007.0,1873.0,-160.0,0.43,-0.452,-0.564,-0.541
2412859,8059.0,1803.0,-130.0,0.43,-0.452,-0.564,-0.541
2412876,7937.0,1693.0,-76.0,0.43,-0.452,-0.564,-0.541
2412893,7913.0,1827.0,-114.0,0.43,-0.452,-0.564,-0.541
2412910,7865.0,1827.0,-174.0,0.43,-0.452,-0.564,-0.541
2412927,7965.0,1755.0,-158.0,0.43,-0.452,-0.564,-0.542
2412944,8009.0,1757.0,-200.0,0.43,-0.452,-0.564,-0.542
2412961,8047.0,1715.0,-186.0,0.43,-0.451,-0.564,-0.542
2412978,8001.0,1843.0,-162.0,0.43,-0.451,-0.564,-0.542
2412995,7931.0,1683.0,-96.0,0.429,-0.451,-0.564,-0.542
2413012,7943.0,1589.0,-116.0,0.429,-0.451,-0.564,-0.543
2413030,7869.0,1627.0,-106.0,0.429,-0.45,-0.565,-0.543
2413047,7945.0,1567.0,-152.0,0.429,-0.45,-0.565,-0.543
2413064,7853.0,1479.0,-134.0,0.429,-0.449,-0.566,-0.542
2413091,7827.0,1735.0,-204.0,0.429,-0.448,-0.567,-0.542
2413108,7755.0,1877.0,-228.0,0.429,-0.446,-0.569,-0.542
2413125,7739.0,1743.0,-188.0,0.429,-0.445,-0.57,-0.542
2413142,7623.0,1699.0,-90.0,0.43,-0.444,-0.571,-0.541
2413159,7643.0,1875.0,-42.0,0.43,-0.442,-0.572,-0.541
2413177,7583.0,1941.0,-216.0,0.43,-0.441,-0.573,-0.54
2413193,7897.0,2031.0,-256.0,0.43,-0.44,-0.574,-0.54
2413210,8089.0,2139.0,-260.0,0.431,-0.439,-0.575,-0.539
2413227,8039.0,2065.0,-302.0,0.431,-0.438,-0.576,-0.539
2413244,8053.0,2211.0,-326.0,0.432,-0.437,-0.576,-0.538
2413261,8107.0,2063.0,-182.0,0.433,-0.437,-0.576,-0.538
2413278,8005.0,2159.0,-114.0,0.434,-0.436,-0.576,-0.538
2413295,8087.0,2221.0,-128.0,0.435,-0.436,-0.576,-0.538
2413312,7917.0,2165.0,-250.0,0.435,-0.436,-0.575,-0.538
2413339,7961.0,2183.0,-202.0,0.436,-0.436,-0.575,-0.538
2413355,7891.0,1977.0,-212.0,0.437,-0.436,-0.574,-0.538
2413372,7819.0,1969.0,-218.0,0.438,-0.436,-0.573,-0.539
2413388,7915.0,1993.0,-260.0,0.438,-0.437,-0.572,-0.539
2413405,7793.0,2035.0,-244.0,0.439,-0.437,-0.571,-0.539
2413421,7785.0,1867.0,-156.0,0.44,-0.437,-0.57,-0.539
2413437,7861.0,1759.0,-224.0,0.441,-0.437,-0.57,-0.539
2413454,7895.0,1851.0,-314.0,0.441,-0.437,-0.57,-0.538
2413480,7893.0,1993.0,-284.0,0.442,-0.436,-0.57,-0.538
2413497,7771.0,1907.0,-166.0,0.443,-0.436,-0.57,-0.537
2413513,7743.0,1959.0,-208.0,0.444,-0.435,-0.57,-0.537
2413529,7825.0,1877.0,-230.0,0.445,-0.435,-0.571,-0.536
2413546,7877.0,1895.0,-202.0,0.446,-0.434,-0.571,-0.535
2413562,7863.0,2003.0,-280.0,0.447,-0.433,-0.572,-0.535
2413578,7913.0,1971.0,-218.0,0.447,-0.432,-0.573,-0.534
2413604,7847.0,2065.0,-240.0,0.448,-0.431,-0.574,-0.533
2413620,7883.0,2063.0,-208.0,0.448,-0.43,-0.574,-0.533
2413637,7895.0,1955.0,-190.0,0.449,-0.429,-0.575,-0.532
2413654,7841.0,2047.0,-252.0,0.449,-0.428,-0.576,-0.532
2413671,7865.0,2111.0,-314.0,0.449,-0.428,-0.577,-0.531
2413688,7857.0,2043.0,-286.0,0.449,-0.427,-0.578,-0.531
2413705,7783.0,2065.0,-162.0,0.449,-0.427,-0.579,-0.53
2413721,7891.0,1981.0,-232.0,0.449,-0.426,-0.58,-0.53
2413737,7787.0,2085.0,-230.0,0.449,-0.426,-0.58,-0.529
2413754,7885.0,2145.0,-258.0,0.448,-0.426,-0.581,-0.529
2413781,7963.0,2027.0,-200.0,0.448,-0.426,-0.582,-0.528
2413797,7863.0,2029.0,-188.0,0.448,-0.426,-0.582,-0.528
2413814,7953.0,1951.0,-236.0,0.447,-0.427,-0.582,-0.528
2413830,7903.0,2033.0,-242.0,0.446,-0.427,-0.582,-0.528
2413846,7921.0,1983.0,-118.0,0.446,-0.428,-0.582,-0.529
2413862,7981.0,1949.0,-174.0,0.445,-0.428,-0.582,-0.529
2413878,7881.0,1961.0,-194.0,0.444,-0.429,-0.582,-0.529
2413904,7941.0,1885.0,-188.0,0.443,-0.43,-0.582,-0.529
2413920,7979.0,1857.0,-250.0,0.443,-0.43,-0.582,-0.529
2413936,8077.0,1957.0,-216.0,0.442,-0.431,-0.582,-0.53
2413952,7887.0,1983.0,-184.0,0.441,-0.432,-0.582,-0.53
2413968,7957.0,1857.0,-148.0,0.441,-0.432,-0.581,-0.53
2413984,8041.0,1881.0,-144.0,0.44,-0.433,-0.581,-0.531
2414011,7973.0,1875.0,-198.0,0.439,-0.434,-0.58,-0.531
2414028,7951.0,1935.0,-162.0,0.439,-0.434,-0.58,-0.532
2414045,7899.0,1907.0,-146.0,0.438,-0.435,-0.579,-0.532
2414061,7967.0,1785.0,-190.0,0.437,-0.436,-0.579,-0.533
2414078,7905.0,1889.0,-206.0,0.437,-0.436,-0.578,-0.533
2414095,7893.0,1927.0,-180.0,0.437,-0.437,-0.577,-0.534
2414111,7863.0,1865.0,-164.0,0.436,-0.438,-0.576,-0.535
2414128,7873.0,1875.0,-134.0,0.436,-0.438,-0.576,-0.535
2414144,7899.0,1979.0,-214.0,0.436,-0.439,-0.575,-0.536
2414170,7925.0,1897.0,-228.0,0.435,-0.44,-0.574,-0.536
2414187,7899.0,1963.0,-168.0,0.435,-0.441,-0.573,-0.537
2414204,8293.0,1463.0,466.0,0.435,-0.441,-0.572,-0.538
2414220,7705.0,1797.0,-42.0,0.436,-0.441,-0.572,-0.537
2414236,8049.0,2149.0,-228.0,0.436,-0.441,-0.571,-0.537
2414252,7979.0,1825.0,-266.0,0.436,-0.441,-0.571,-0.537
2414268,8013.0,1973.0,-276.0,0.436,-0.442,-0.571,-0.537
2414294,8011.0,1701.0,-268.0,0.437,-0.442,-0.57,-0.537
2414310,7885.0,1929.0,-242.0,0.437,-0.442,-0.57,-0.537
2414326,7815.0,1911.0,-116.0,0.437,-0.442,-0.569,-0.538
2414342,7773.0,1835.0,-158.0,0.437,-0.442,-0.569,-0.538
2414359,7835.0,1859.0,-170.0,0.438,-0.443,-0.569,-0.537
2414375,7939.0,1789.0,-246.0,0.438,-0.443,-0.569,-0.537
2414401,7933.0,1803.0,-266.0,0.438,-0.443,-0.569,-0.537
2414418,7985.0,1883.0,-254.0,0.438,-0.443,-0.569,-0.537
2414435,7929.0,1831.0,-314.0,0.438,-0.443,-0.569,-0.537
2414451,7877.0,1863.0,-234.0,0.438,-0.443,-0.569,-0.537
2414467,7913.0,1849.0,-258.0,0.439,-0.442,-0.569,-0.536
2414483,7913.0,1859.0,-190.0,0.439,-0.442,-0.569,-0.536
2414499,7895.0,1877.0,-218.0,0.439,-0.442,-0.57,-0.536
2414515,7867.0,1873.0,-268.0,0.439,-0.442,-0.57,-0.536
2414542,7905.0,1893.0,-276.0,0.439,-0.442,-0.57,-0.536
2414558,7885.0,1873.0,-278.0,0.439,-0.442,-0.57,-0.536
2414575,7961.0,1853.0,-244.0,0.439,-0.442,-0.57,-0.536
2414591,7997.0,1905.0,-324.0,0.439,-0.442,-0.57,-0.535
2414608,7971.0,1925.0,-280.0,0.439,-0.442,-0.57,-0.535
2414624,7891.0,1929.0,-248.0,0.438,-0.442,-0.57,-0.535
2414640,7993.0,1899.0,-136.0,0.438,-0.443,-0.57,-0.535
2414657,8045.0,1095.0,276.0,0.439,-0.442,-0.57,-0.535
2414683,7857.0,1925.0,-120.0,0.439,-0.442,-0.571,-0.535
2414700,7923.0,2151.0,-362.0,0.439,-0.442,-0.571,-0.534
2414717,8001.0,1959.0,-394.0,0.439,-0.442,-0.572,-0.534
2414733,7993.0,1841.0,-318.0,0.439,-0.442,-0.572,-0.533
2414750,7993.0,1737.0,-118.0,0.439,-0.442,-0.572,-0.533
2414767,7933.0,1523.0,-94.0,0.44,-0.442,-0.572,-0.533
2414783,7867.0,2091.0,-252.0,0.44,-0.441,-0.573,-0.533
2414800,7871.0,1885.0,-208.0,0.44,-0.441,-0.573,-0.532
2414817,7969.0,1649.0,-172.0,0.44,-0.441,-0.573,-0.532
2414834,7953.0,1653.0,-218.0,0.44,-0.441,-0.574,-0.532
2414860,8021.0,1895.0,-252.0,0.441,-0.44,-0.574,-0.532
2414876,7941.0,2009.0,-256.0,0.441,-0.44,-0.574,-0.532
2414892,7965.0,1869.0,-190.0,0.441,-0.44,-0.574,-0.531
2414909,7985.0,1867.0,-160.0,0.441,-0.439,-0.575,-0.531
2414925,7863.0,1843.0,-150.0,0.441,-0.439,-0.575,-0.531
2414941,7869.0,1889.0,-214.0,0.441,-0.439,-0.575,-0.531
2414967,7917.0,1891.0,-240.0,0.442,-0.438,-0.575,-0.531
2414983,7929.0,1879.0,-220.0,0.442,-0.438,-0.575,-0.531
2414999,7947.0,1853.0,-244.0,0.442,-0.438,-0.576,-0.531
2415015,7937.0,1883.0,-246.0,0.442,-0.438,-0.576,-0.531
2415031,7957.0,1827.0,-248.0,0.442,-0.438,-0.576,-0.531
2415047,7979.0,1863.0,-216.0,0.442,-0.438,-0.576,-0.531
2415073,7875.0,1859.0,-196.0,0.442,-0.437,-0.576,-0.531
2415089,7951.0,1839.0,-234.0,0.442,-0.437,-0.576,-0.531
2415106,7975.0,1919.0,-236.0,0.442,-0.437,-0.576,-0.53
2415123,7919.0,1867.0,-254.0,0.442,-0.437,-0.576,-0.53
2415140,7949.0,1903.0,-262.0,0.442,-0.437,-0.576,-0.53
2415157,7891.0,1897.0,-296.0,0.443,-0.437,-0.576,-0.53
2415174,7929.0,1849.0,-212.0,0.443,-0.437,-0.576,-0.53
2415191,7985.0,1821.0,-180.0,0.443,-0.437,-0.576,-0.53
2415208,7901.0,1883.0,-226.0,0.443,-0.437,-0.576,-0.53
2415224,7919.0,1841.0,-316.0,0.443,-0.437,-0.576,-0.53
2415250,7999.0,1745.0,-268.0,0.443,-0.437,-0.576,-0.53
2415266,7917.0,1803.0,-268.0,0.443,-0.437,-0.576,-0.53
2415282,7961.0,1775.0,-180.0,0.443,-0.437,-0.576,-0.53
2415298,7949.0,1789.0,-262.0,0.443,-0.437,-0.576,-0.53
2415314,7975.0,1843.0,-266.0,0.444,-0.436,-0.576,-0.53
2415330,7931.0,1813.0,-266.0,0.444,-0.436,-0.577,-0.53
2415356,7887.0,1859.0,-196.0,0.444,-0.436,-0.577,-0.53
2415372,7997.0,1707.0,-282.0,0.444,-0.436,-0.577,-0.529
2415389,7933.0,1845.0,-288.0,0.444,-0.436,-0.577,-0.529
2415406,7897.0,1885.0,-228.0,0.444,-0.436,-0.577,-0.529
2415423,7913.0,1787.0,-216.0,0.444,-0.435,-0.577,-0.529
2415439,7925.0,1857.0,-248.0,0.444,-0.435,-0.578,-0.529
2415455,7929.0,1783.0,-308.0,0.444,-0.435,-0.578,-0.529
2415472,7923.0,1879.0,-256.0,0.444,-0.435,-0.578,-0.529
2415489,7935.0,1821.0,-256.0,0.444,-0.435,-0.578,-0.528
2415516,7907.0,1901.0,-282.0,0.444,-0.435,-0.578,-0.528
2415533,7897.0,1823.0,-298.0,0.445,-0.435,-0.578,-0.528
2415549,7959.0,1813.0,-236.0,0.445,-0.434,-0.578,-0.528
2415565,7937.0,1889.0,-236.0,0.445,-0.434,-0.579,-0.528
2415581,7907.0,1851.0,-244.0,0.445,-0.434,-0.579,-0.528
2415597,7947.0,1853.0,-208.0,0.445,-0.434,-0.579,-0.528
2415613,7911.0,1855.0,-216.0,0.445,-0.434,-0.579,-0.527
2415639,7905.0,1885.0,-242.0,0.445,-0.434,-0.579,-0.527
2415656,7921.0,1793.0,-318.0,0.445,-0.434,-0.579,-0.527
2415672,7937.0,1851.0,-268.0,0.446,-0.434,-0.579,-0.527
2415688,7925.0,1855.0,-238.0,0.446,-0.434,-0.579,-0.527
2415704,7947.0,1847.0,-296.0,0.446,-0.434,-0.579,-0.527
2415720,7937.0,1813.0,-250.0,0.446,-0.434,-0.579,-0.527
2415746,7895.0,1893.0,-250.0,0.446,-0.434,-0.579,-0.526
2415763,7883.0,1887.0,-230.0,0.446,-0.434,-0.579,-0.526
2415780,7891.0,1821.0,-260.0,0.446,-0.434,-0.58,-0.526
2415797,7943.0,1783.0,-280.0,0.446,-0.434,-0.58,-0.526
2415814,7895.0,1905.0,-264.0,0.447,-0.433,-0.58,-0.526
2415831,7911.0,1917.0,-246.0,0.447,-0.433,-0.58,-0.526
2415848,7909.0,1831.0,-278.0,0.447,-0.433,-0.58,-0.525
2415864,7961.0,1805.0,-318.0,0.447,-0.433,-0.58,-0.525
2415880,7935.0,1869.0,-276.0,0.447,-0.433,-0.58,-0.525
2415896,7939.0,1795.0,-264.0,0.447,-0.433,-0.58,-0.525
2415922,7969.0,1825.0,-298.0,0.448,-0.433,-0.58,-0.525
2415940,7939.0,1859.0,-284.0,0.448,-0.433,-0.581,-0.525
2415957,7929.0,1867.0,-278.0,0.448,-0.433,-0.581,-0.524
2415973,7973.0,1793.0,-280.0,0.448,-0.432,-0.581,-0.524
2415989,7985.0,1821.0,-256.0,0.448,-0.432,-0.581,-0.524
2416005,7957.0,1841.0,-266.0,0.448,-0.432,-0.581,-0.524
2416022,7953.0,1793.0,-232.0,0.449,-0.432,-0.581,-0.524
2416039,7963.0,1801.0,-258.0,0.449,-0.432,-0.581,-0.524
2416056,8029.0,1851.0,-278.0,0.449,-0.432,-0.582,-0.523
2416082,7967.0,1813.0,-306.0,0.449,-0.432,-0.582,-0.523
2416099,7979.0,1813.0,-236.0,0.449,-0.432,-0.582,-0.523
2416115,7959.0,1799.0,-262.0,0.449,-0.432,-0.582,-0.523
2416131,7941.0,1771.0,-348.0,0.449,-0.432,-0.582,-0.523
2416148,8005.0,1795.0,-308.0,0.449,-0.432,-0.582,-0.523
2416164,7961.0,1771.0,-250.0,0.45,-0.431,-0.582,-0.522
2416180,7983.0,1799.0,-268.0,0.45,-0.431,-0.582,-0.522
2416206,7985.0,1823.0,-300.0,0.45,-0.431,-0.582,-0.522
2416223,7975.0,1867.0,-280.0,0.45,-0.431,-0.582,-0.522
2416240,7949.0,1831.0,-250.0,0.45,-0.431,-0.582,-0.522
2416257,7899.0,1793.0,-214.0,0.45,-0.431,-0.583,-0.522
2416273,7943.0,1853.0,-322.0,0.45,-0.431,-0.583,-0.522
2416289,7961.0,1817.0,-330.0,0.45,-0.431,-0.583,-0.521
2416305,8011.0,1829.0,-318.0,0.451,-0.431,-0.583,-0.521
2416321,8001.0,1855.0,-244.0,0.451,-0.431,-0.583,-0.521
2416347,7907.0,1761.0,-242.0,0.451,-0.431,-0.583,-0.521
2416363,8005.0,1805.0,-326.0,0.451,-0.431,-0.583,-0.521
2416379,7961.0,1865.0,-318.0,0.451,-0.43,-0.583,-0.521
2416395,7953.0,1827.0,-226.0,0.451,-0.43,-0.583,-0.521
2416411,7965.0,1811.0,-250.0,0.451,-0.43,-0.583,-0.521
2416427,7993.0,1859.0,-312.0,0.451,-0.43,-0.583,-0.521
2416454,8009.0,1779.0,-300.0,0.451,-0.43,-0.583,-0.521
2416471,7957.0,1817.0,-226.0,0.451,-0.43,-0.583,-0.521
2416487,7975.0,1813.0,-238.0,0.452,-0.43,-0.582,-0.521
2416503,7945.0,1749.0,-310.0,0.452,-0.43,-0.582,-0.521
2416519,7955.0,1789.0,-314.0,0.452,-0.43,-0.582,-0.521
2416535,7985.0,1839.0,-296.0,0.452,-0.43,-0.582,-0.521
2416552,7961.0,1823.0,-252.0,0.452,-0.43,-0.582,-0.521
2416578,7939.0,1743.0,-238.0,0.452,-0.431,-0.581,-0.522
2416595,7909.0,1741.0,-216.0,0.453,-0.431,-0.581,-0.522
2416612,7937.0,1737.0,-226.0,0.453,-0.431,-0.581,-0.522
2416629,7925.0,1809.0,-292.0,0.453,-0.431,-0.581,-0.522
2416646,7963.0,1759.0,-268.0,0.453,-0.431,-0.581,-0.522
2416663,7985.0,1785.0,-292.0,0.453,-0.431,-0.58,-0.522
2416680,7939.0,1819.0,-296.0,0.453,-0.431,-0.58,-0.522
2416697,7989.0,1809.0,-204.0,0.453,-0.431,-0.58,-0.522
2416714,7935.0,1763.0,-252.0,0.453,-0.431,-0.58,-0.522
2416731,7935.0,1743.0,-212.0,0.453,-0.431,-0.58,-0.522
2416747,7935.0,1761.0,-238.0,0.453,-0.431,-0.579,-0.522
2416763,7953.0,1757.0,-282.0,0.453,-0.431,-0.579,-0.523
2416789,7951.0,1691.0,-292.0,0.453,-0.431,-0.579,-0.523
2416805,7969.0,1771.0,-250.0,0.453,-0.432,-0.579,-0.523
2416822,8017.0,1757.0,-246.0,0.453,-0.432,-0.579,-0.523
2416838,7953.0,1715.0,-234.0,0.453,-0.432,-0.578,-0.523
2416854,7881.0,1801.0,-210.0,0.453,-0.432,-0.578,-0.523
2416870,7961.0,1747.0,-238.0,0.453,-0.432,-0.578,-0.523
2416896,7973.0,1819.0,-324.0,0.453,-0.432,-0.578,-0.523
2416912,8007.0,1787.0,-290.0,0.453,-0.432,-0.578,-0.524
2416929,7985.0,1709.0,-246.0,0.453,-0.432,-0.578,-0.524
2416945,7975.0,1767.0,-222.0,0.453,-0.432,-0.578,-0.524
2416961,7993.0,1739.0,-162.0,0.453,-0.432,-0.578,-0.524
2416977,7993.0,1793.0,-144.0,0.453,-0.432,-0.577,-0.524
2416993,7939.0,1711.0,-204.0,0.453,-0.432,-0.577,-0.524
2417020,7921.0,1733.0,-158.0,0.453,-0.432,-0.577,-0.524
2417036,7915.0,1765.0,-226.0,0.453,-0.432,-0.577,-0.524
2417052,7939.0,1735.0,-288.0,0.453,-0.432,-0.577,-0.524
2417069,7977.0,1825.0,-238.0,0.453,-0.433,-0.577,-0.524
2417085,7937.0,1725.0,-230.0,0.453,-0.433,-0.577,-0.524
2417101,7911.0,1739.0,-178.0,0.453,-0.433,-0.577,-0.524
2417117,7911.0,1771.0,-224.0,0.453,-0.433,-0.577,-0.524
2417143,7951.0,1785.0,-224.0,0.453,-0.433,-0.577,-0.524
2417159,7893.0,1765.0,-246.0,0.453,-0.433,-0.577,-0.524
2417175,7987.0,1687.0,-190.0,0.453,-0.433,-0.577,-0.524
2417191,7981.0,1671.0,-260.0,0.453,-0.433,-0.577,-0.524
2417207,7961.0,1707.0,-238.0,0.453,-0.433,-0.577,-0.524
2417223,8015.0,1661.0,-188.0,0.453,-0.433,-0.577,-0.524
2417249,7969.0,1719.0,-212.0,0.453,-0.433,-0.577,-0.524
2417266,7923.0,1749.0,-238.0,0.454,-0.433,-0.577,-0.524
2417282,7949.0,1715.0,-200.0,0.454,-0.432,-0.577,-0.524
2417299,7971.0,1759.0,-264.0,0.454,-0.432,-0.578,-0.523
2417315,7973.0,1719.0,-190.0,0.454,-0.432,-0.578,-0.523
2417331,7955.0,1745.0,-194.0,0.454,-0.432,-0.578,-0.523
2417347,7919.0,1739.0,-222.0,0.454,-0.432,-0.578,-0.523
2417374,7915.0,1689.0,-236.0,0.454,-0.432,-0.578,-0.523
2417391,7965.0,1711.0,-260.0,0.454,-0.431,-0.578,-0.523
2417407,7945.0,1725.0,-230.0,0.454,-0.431,-0.578,-0.523
2417424,7967.0,1709.0,-256.0,0.454,-0.431,-0.578,-0.523
2417440,7951.0,1729.0,-234.0,0.454,-0.431,-0.579,-0.523
2417457,7999.0,1761.0,-240.0,0.454,-0.43,-0.579,-0.523
2417474,7929.0,1785.0,-206.0,0.454,-0.43,-0.579,-0.523
2417490,7963.0,1785.0,-220.0,0.454,-0.43,-0.58,-0.522
2417507,7913.0,1793.0,-232.0,0.454,-0.43,-0.58,-0.522
2417524,7959.0,1761.0,-250.0,0.454,-0.429,-0.58,-0.522
2417550,7947.0,1759.0,-316.0,0.454,-0.429,-0.58,-0.522
2417566,7941.0,1781.0,-252.0,0.454,-0.429,-0.581,-0.522
2417583,7985.0,1775.0,-274.0,0.455,-0.429,-0.581,-0.522
2417599,7953.0,1841.0,-242.0,0.455,-0.429,-0.581,-0.522
2417615,7967.0,1763.0,-276.0,0.455,-0.428,-0.581,-0.521
2417631,7961.0,1821.0,-214.0,0.455,-0.428,-0.581,-0.521
2417657,7943.0,1753.0,-256.0,0.455,-0.428,-0.582,-0.521
2417674,7981.0,1759.0,-258.0,0.455,-0.428,-0.582,-0.521
2417690,7971.0,1735.0,-276.0,0.455,-0.428,-0.582,-0.521
2417707,7801.0,1805.0,-296.0,0.455,-0.428,-0.582,-0.521
2417723,7969.0,1711.0,-2.0,0.455,-0.427,-0.581,-0.522
2417739,7837.0,1319.0,176.0,0.455,-0.427,-0.582,-0.522
2417755,8097.0,1325.0,-150.0,0.456,-0.426,-0.583,-0.521
2417772,8633.0,1615.0,-700.0,0.457,-0.424,-0.583,-0.522
2417799,8031.0,2441.0,-406.0,0.458,-0.422,-0.582,-0.523
2417815,7847.0,3199.0,64.0,0.46,-0.418,-0.582,-0.524
2417831,8091.0,1249.0,446.0,0.463,-0.414,-0.581,-0.526
2417848,8013.0,913.0,788.0,0.468,-0.407,-0.584,-0.525
2417864,8107.0,2371.0,638.0,0.473,-0.395,-0.59,-0.522
2417880,8297.0,4725.0,814.0,0.477,-0.383,-0.596,-0.52
2417897,8071.0,5361.0,786.0,0.481,-0.371,-0.601,-0.519
2417916,7893.0,5343.0,1048.0,0.484,-0.36,-0.605,-0.52
2417932,8141.0,4929.0,1432.0,0.485,-0.349,-0.608,-0.522
2417958,8059.0,4757.0,1256.0,0.486,-0.337,-0.612,-0.525
2417975,8111.0,5887.0,1374.0,0.486,-0.324,-0.617,-0.528
2417992,7783.0,5373.0,1050.0,0.483,-0.31,-0.622,-0.533
2418008,8235.0,5291.0,964.0,0.481,-0.295,-0.627,-0.537
2418024,8331.0,6079.0,798.0,0.477,-0.279,-0.634,-0.542
2418040,8129.0,6249.0,460.0,0.471,-0.261,-0.641,-0.547
2418057,8275.0,6227.0,646.0,0.465,-0.242,-0.648,-0.553
2418073,8297.0,6781.0,150.0,0.457,-0.222,-0.656,-0.558
2418100,8333.0,7327.0,216.0,0.447,-0.201,-0.664,-0.564
2418116,8669.0,7673.0,-30.0,0.434,-0.179,-0.673,-0.572
2418132,8931.0,7561.0,-528.0,0.418,-0.156,-0.681,-0.581
2418149,8561.0,7463.0,-548.0,0.402,-0.132,-0.689,-0.589
2418165,7825.0,8373.0,-572.0,0.383,-0.106,-0.697,-0.597
2418182,7627.0,9151.0,-320.0,0.362,-0.08,-0.705,-0.605
2418198,7273.0,8595.0,-1210.0,0.339,-0.056,-0.711,-0.614
2418215,6539.0,8767.0,-930.0,0.315,-0.031,-0.716,-0.622
2418242,6081.0,8341.0,-1058.0,0.29,-0.007,-0.72,-0.63
2418258,5829.0,9009.0,-1028.0,0.264,0.016,-0.723,-0.638
2418274,5001.0,8779.0,-1284.0,0.236,0.038,-0.725,-0.646
2418290,4567.0,9097.0,-1432.0,0.207,0.059,-0.725,-0.654
2418306,3983.0,8657.0,-1490.0,0.178,0.08,-0.723,-0.663
2418322,3421.0,8299.0,-1574.0,0.149,0.099,-0.719,-0.672
2418348,3093.0,7845.0,-1464.0,0.121,0.116,-0.713,-0.681
2418364,2333.0,7601.0,-1062.0,0.092,0.131,-0.706,-0.69
2418380,1921.0,7275.0,-1158.0,0.065,0.146,-0.697,-0.699
2418396,1463.0,6599.0,-590.0,0.039,0.16,-0.688,-0.707
2418412,859.0,6105.0,-300.0,0.013,0.173,-0.677,-0.715
2418428,363.0,6329.0,-298.0,0.012,-0.185,0.665,0.723
2418454,55.0,5849.0,132.0,0.035,-0.196,0.653,0.731
2418470,-675.0,4685.0,650.0,0.056,-0.205,0.64,0.739
2418486,-919.0,4495.0,390.0,0.077,-0.214,0.627,0.745
2418502,-1119.0,4033.0,772.0,0.095,-0.222,0.614,0.752
2418518,-1693.0,3617.0,1122.0,0.111,-0.23,0.601,0.757
2418534,-1961.0,3353.0,1290.0,0.126,-0.236,0.589,0.762
2418560,-2451.0,3055.0,1502.0,0.138,-0.242,0.578,0.767
2418577,-2719.0,2945.0,1716.0,0.148,-0.247,0.567,0.772
2418594,-3009.0,2133.0,1974.0,0.155,-0.251,0.558,0.776
2418610,-3309.0,1973.0,2318.0,0.16,-0.254,0.55,0.779
2418627,-3659.0,1717.0,2634.0,0.163,-0.256,0.544,0.782
2418644,-3905.0,1617.0,2906.0,0.165,-0.256,0.54,0.785
2418661,-3917.0,1425.0,3076.0,0.165,-0.254,0.537,0.787
2418677,-3771.0,1677.0,2962.0,0.163,-0.251,0.537,0.789
2418693,-3667.0,1639.0,2998.0,0.158,-0.246,0.539,0.79
2418710,-3169.0,1703.0,2850.0,0.152,-0.24,0.542,0.791
2418736,-2917.0,2025.0,2686.0,0.144,-0.233,0.547,0.791
2418752,-2689.0,2321.0,2562.0,0.133,-0.226,0.554,0.79
2418768,-2509.0,2761.0,2428.0,0.121,-0.218,0.563,0.788
2418784,-2331.0,3125.0,2198.0,0.106,-0.208,0.572,0.786
2418800,-1835.0,3661.0,1864.0,0.09,-0.198,0.582,0.783
2418816,-1621.0,4355.0,1724.0,0.072,-0.186,0.593,0.78
2418842,-1157.0,4393.0,1438.0,0.054,-0.173,0.604,0.776
2418858,-537.0,5329.0,1138.0,0.035,-0.159,0.615,0.771
2418874,-259.0,6393.0,956.0,0.015,-0.144,0.627,0.766
2418891,487.0,7055.0,882.0,0.007,0.128,-0.637,-0.76
2418908,959.0,6903.0,274.0,0.029,0.111,-0.646,-0.755
2418925,1485.0,7195.0,178.0,0.051,0.096,-0.655,-0.748
2418942,2055.0,8537.0,214.0,0.074,0.08,-0.664,-0.74
2418959,2451.0,9153.0,-366.0,0.097,0.064,-0.67,-0.733
2418986,2871.0,8657.0,-294.0,0.121,0.049,-0.676,-0.725
2419002,3219.0,9219.0,-62.0,0.144,0.034,-0.681,-0.717
2419018,3003.0,8683.0,-44.0,0.166,0.019,-0.685,-0.709
2419034,3561.0,9483.0,-224.0,0.187,0.004,-0.689,-0.7
2419050,3549.0,9713.0,-190.0,0.207,-0.012,-0.691,-0.693
2419066,4281.0,9125.0,-340.0,0.226,-0.028,-0.691,-0.686
2419082,4917.0,9505.0,-326.0,0.245,-0.043,-0.691,-0.679
2419108,4877.0,8783.0,-240.0,0.262,-0.059,-0.69,-0.672
2419125,4981.0,10607.0,66.0,0.277,-0.073,-0.69,-0.665
2419141,4799.0,8671.0,-118.0,0.292,-0.087,-0.689,-0.657
2419157,5029.0,8667.0,22.0,0.306,-0.1,-0.688,-0.65
2419173,5165.0,7995.0,-18.0,0.319,-0.113,-0.687,-0.643
2419189,5755.0,8581.0,-90.0,0.332,-0.126,-0.685,-0.636
2419206,6291.0,8353.0,128.0,0.344,-0.139,-0.681,-0.631
2419232,6097.0,6897.0,6.0,0.356,-0.151,-0.678,-0.625
2419248,6157.0,7515.0,-72.0,0.367,-0.161,-0.676,-0.619
2419264,6249.0,8045.0,108.0,0.378,-0.171,-0.673,-0.612
2419280,5985.0,6849.0,348.0,0.388,-0.181,-0.67,-0.606
2419296,6121.0,7601.0,346.0,0.397,-0.191,-0.667,-0.601
2419312,6415.0,6957.0,200.0,0.406,-0.201,-0.664,-0.595
2419338,6549.0,6795.0,294.0,0.414,-0.211,-0.66,-0.591
2419354,6711.0,7021.0,240.0,0.422,-0.219,-0.656,-0.586
2419370,6949.0,7045.0,212.0,0.429,-0.228,-0.652,-0.582
2419386,7075.0,6545.0,228.0,0.437,-0.235,-0.648,-0.578
2419402,7067.0,7133.0,420.0,0.443,-0.24,-0.645,-0.575
2419419,7041.0,7797.0,594.0,0.447,-0.245,-0.642,-0.573
2419445,7423.0,7909.0,432.0,0.449,-0.249,-0.64,-0.572
2419461,7561.0,7809.0,378.0,0.449,-0.252,-0.638,-0.573
2419477,7583.0,7707.0,448.0,0.448,-0.252,-0.637,-0.575
2419493,7421.0,8127.0,462.0,0.444,-0.25,-0.638,-0.578
2419509,7499.0,8437.0,466.0,0.438,-0.246,-0.639,-0.582
2419526,7507.0,8591.0,444.0,0.43,-0.241,-0.641,-0.589
2419542,7341.0,8673.0,426.0,0.419,-0.234,-0.643,-0.596
2419569,7839.0,9127.0,104.0,0.406,-0.225,-0.647,-0.605
2419585,7769.0,9355.0,296.0,0.392,-0.214,-0.649,-0.615
2419601,8049.0,8923.0,198.0,0.375,-0.201,-0.653,-0.627
2419617,8423.0,9081.0,-36.0,0.356,-0.186,-0.656,-0.639
2419633,7983.0,9589.0,174.0,0.336,-0.169,-0.659,-0.651
2419649,7703.0,9491.0,56.0,0.313,-0.151,-0.662,-0.664
2419675,7693.0,9591.0,46.0,0.289,-0.131,-0.663,-0.678
2419691,7021.0,8933.0,166.0,0.264,-0.111,-0.664,-0.691
2419707,6649.0,9435.0,32.0,0.237,-0.09,-0.664,-0.703
2419723,5789.0,9493.0,262.0,0.209,-0.069,-0.663,-0.715
2419739,5683.0,8733.0,230.0,0.182,-0.049,-0.661,-0.727
2419755,4473.0,7817.0,624.0,0.154,-0.028,-0.658,-0.737
2419781,3633.0,7821.0,964.0,0.126,-0.007,-0.655,-0.745
2419797,2939.0,7959.0,1012.0,0.099,0.012,-0.65,-0.753
2419813,2721.0,7271.0,902.0,0.072,0.03,-0.645,-0.76
2419830,2179.0,6069.0,1022.0,0.045,0.048,-0.639,-0.767
2419846,1815.0,5547.0,1084.0,0.018,0.065,-0.633,-0.771
2419862,1811.0,5701.0,1038.0,0.007,-0.081,0.626,0.775
2419878,1085.0,4897.0,1108.0,0.031,-0.096,0.62,0.778
2419904,731.0,4987.0,1140.0,0.054,-0.11,0.613,0.78
2419920,211.0,4755.0,1112.0,0.075,-0.124,0.607,0.782
2419937,-165.0,4531.0,1216.0,0.093,-0.136,0.601,0.782
2419953,-403.0,4155.0,1376.0,0.109,-0.147,0.595,0.782
2419969,-1207.0,3903.0,1530.0,0.124,-0.157,0.591,0.782
2419985,-1455.0,3683.0,1690.0,0.138,-0.167,0.586,0.781
2420011,-1949.0,2837.0,2006.0,0.151,-0.174,0.582,0.78
2420027,-2669.0,2227.0,2250.0,0.162,-0.18,0.579,0.778
2420043,-2809.0,2203.0,2470.0,0.173,-0.184,0.577,0.777
2420059,-2981.0,1317.0,2706.0,0.182,-0.185,0.576,0.775
2420075,-3299.0,839.0,3076.0,0.189,-0.184,0.577,0.773
2420091,-3027.0,889.0,2956.0,0.193,-0.181,0.579,0.772
2420117,-2669.0,961.0,3044.0,0.192,-0.176,0.581,0.771
2420133,-2399.0,769.0,3154.0,0.188,-0.169,0.585,0.771
2420149,-2051.0,1647.0,2996.0,0.179,-0.162,0.59,0.771
2420165,-2035.0,2067.0,2994.0,0.165,-0.153,0.595,0.771
2420181,-2099.0,2165.0,2944.0,0.149,-0.143,0.601,0.772
2420197,-1585.0,3415.0,2570.0,0.131,-0.132,0.609,0.771
2420214,-1079.0,4543.0,2378.0,0.111,-0.12,0.617,0.77
2420240,-971.0,6131.0,2240.0,0.089,-0.107,0.624,0.769
2420256,-261.0,6165.0,1560.0,0.065,-0.093,0.63,0.768
2420272,111.0,6137.0,1408.0,0.041,-0.077,0.637,0.766
2420288,451.0,7895.0,1328.0,0.018,-0.061,0.643,0.763
2420304,747.0,9213.0,1170.0,0.006,0.044,-0.645,-0.763
2420330,1303.0,7831.0,416.0,0.03,0.024,-0.648,-0.761
2420346,2333.0,6749.0,740.0,0.055,0.006,-0.649,-0.758
2420362,2199.0,8397.0,858.0,0.077,-0.013,-0.651,-0.755
2420378,2523.0,9453.0,374.0,0.098,-0.033,-0.651,-0.752
2420394,3485.0,7793.0,110.0,0.121,-0.054,-0.649,-0.749
2420410,4401.0,6557.0,38.0,0.143,-0.073,-0.649,-0.744
2420436,4281.0,7577.0,396.0,0.163,-0.09,-0.649,-0.738
2420453,4259.0,8601.0,206.0,0.181,-0.108,-0.649,-0.731
2420469,4925.0,7711.0,-124.0,0.199,-0.125,-0.646,-0.726
2420486,5061.0,8405.0,238.0,0.217,-0.142,-0.644,-0.72
2420502,5403.0,7921.0,540.0,0.234,-0.159,-0.642,-0.713
2420518,5885.0,7823.0,240.0,0.249,-0.176,-0.64,-0.706
2420535,6189.0,7041.0,292.0,0.263,-0.192,-0.637,-0.699
2420551,6203.0,7085.0,654.0,0.277,-0.207,-0.634,-0.691
2420577,6381.0,7151.0,550.0,0.291,-0.222,-0.632,-0.683
2420593,7113.0,8167.0,480.0,0.304,-0.237,-0.628,-0.676
2420609,7369.0,7537.0,246.0,0.317,-0.252,-0.624,-0.668
2420625,7847.0,6507.0,444.0,0.33,-0.265,-0.619,-0.661
2420642,7451.0,5539.0,682.0,0.341,-0.277,-0.615,-0.655
2420659,7303.0,7029.0,726.0,0.351,-0.288,-0.613,-0.647
2420676,6957.0,7029.0,716.0,0.359,-0.299,-0.61,-0.641
2420702,7057.0,6233.0,832.0,0.367,-0.31,-0.606,-0.634
2420718,6795.0,5419.0,908.0,0.374,-0.32,-0.604,-0.627
2420735,7009.0,5213.0,762.0,0.38,-0.33,-0.602,-0.62
2420751,7037.0,5253.0,424.0,0.386,-0.339,-0.601,-0.613
2420767,7357.0,5201.0,382.0,0.392,-0.348,-0.599,-0.606
2420783,7231.0,5077.0,780.0,0.398,-0.355,-0.596,-0.6
2420799,7643.0,5847.0,536.0,0.403,-0.363,-0.594,-0.594
2420825,8049.0,5147.0,444.0,0.409,-0.37,-0.592,-0.589
2420842,8103.0,4085.0,452.0,0.414,-0.375,-0.589,-0.584
2420859,7971.0,5909.0,704.0,0.418,-0.379,-0.588,-0.579
2420877,7715.0,5561.0,796.0,0.421,-0.384,-0.587,-0.575
2420894,8131.0,5659.0,852.0,0.423,-0.388,-0.586,-0.572
2420911,8111.0,6237.0,614.0,0.424,-0.391,-0.586,-0.569
2420928,8451.0,6053.0,588.0,0.425,-0.393,-0.586,-0.568
2420945,8241.0,6063.0,660.0,0.423,-0.392,-0.587,-0.568
2420963,7935.0,7023.0,606.0,0.421,-0.391,-0.588,-0.569
2420980,7791.0,6901.0,604.0,0.418,-0.388,-0.591,-0.571
2420996,7857.0,7237.0,622.0,0.413,-0.383,-0.593,-0.575
2421012,7901.0,6949.0,570.0,0.405,-0.377,-0.597,-0.581
2421038,8445.0,7421.0,364.0,0.396,-0.369,-0.601,-0.588
2421054,8625.0,7459.0,374.0,0.386,-0.359,-0.605,-0.596
2421070,8611.0,7559.0,320.0,0.374,-0.348,-0.61,-0.606
2421086,9139.0,7477.0,498.0,0.36,-0.334,-0.616,-0.617
2421102,8933.0,7909.0,336.0,0.344,-0.318,-0.622,-0.628
2421118,8931.0,8669.0,102.0,0.326,-0.301,-0.628,-0.639
2421144,9029.0,8077.0,26.0,0.306,-0.284,-0.633,-0.652
2421161,8747.0,7753.0,122.0,0.284,-0.264,-0.639,-0.664
2421177,8433.0,8839.0,48.0,0.261,-0.244,-0.645,-0.675
2421193,8167.0,8917.0,-100.0,0.236,-0.224,-0.649,-0.687
2421209,7699.0,7767.0,0.0,0.211,-0.203,-0.653,-0.699
2421225,7383.0,8515.0,-68.0,0.184,-0.181,-0.656,-0.709
2421251,6533.0,7949.0,134.0,0.156,-0.16,-0.658,-0.719
2421267,5467.0,7339.0,198.0,0.127,-0.139,-0.659,-0.728
2421283,4557.0,7625.0,280.0,0.098,-0.12,-0.66,-0.736
2421299,3795.0,7671.0,-80.0,0.068,-0.102,-0.659,-0.742
2421315,3851.0,7479.0,-252.0,0.038,-0.086,-0.657,-0.748
2421331,3281.0,6229.0,-176.0,0.008,-0.071,-0.653,-0.754
2421357,3121.0,6379.0,-482.0,0.022,0.056,0.65,0.758
2421373,2383.0,6401.0,120.0,0.051,0.041,0.645,0.761
2421389,1907.0,5783.0,-94.0,0.079,0.028,0.64,0.764
2421405,1725.0,5365.0,-88.0,0.105,0.015,0.634,0.766
2421421,1087.0,4995.0,358.0,0.129,0.003,0.627,0.768
2421438,661.0,5123.0,204.0,0.153,-0.009,0.621,0.769
2421454,437.0,4305.0,846.0,0.174,-0.019,0.614,0.77
2421480,-215.0,4017.0,1142.0,0.194,-0.027,0.608,0.77
2421496,-627.0,4083.0,1592.0,0.212,-0.033,0.602,0.769
2421512,-573.0,2955.0,1962.0,0.228,-0.038,0.596,0.768
2421528,-1423.0,1831.0,2522.0,0.243,-0.041,0.592,0.767
2421544,-1339.0,953.0,3012.0,0.255,-0.041,0.59,0.765
2421561,-893.0,433.0,2930.0,0.264,-0.04,0.592,0.761
2421578,-617.0,1419.0,3176.0,0.268,-0.038,0.595,0.757
2421604,-785.0,2491.0,3410.0,0.267,-0.034,0.598,0.754
2421620,-595.0,1601.0,3936.0,0.262,-0.03,0.602,0.754
2421637,-769.0,1565.0,4130.0,0.252,-0.024,0.606,0.754
2421653,-375.0,1631.0,3730.0,0.238,-0.018,0.612,0.754
2421669,-141.0,2353.0,3382.0,0.221,-0.011,0.62,0.753
2421686,-361.0,3635.0,2946.0,0.201,-0.005,0.628,0.751
2421703,-91.0,4457.0,2652.0,0.177,0.002,0.637,0.75
2421719,-357.0,5223.0,2024.0,0.152,0.01,0.645,0.749
2421745,793.0,6055.0,1430.0,0.125,0.019,0.653,0.747
2421761,185.0,6899.0,1338.0,0.097,0.028,0.659,0.745
2421777,677.0,7861.0,556.0,0.069,0.04,0.665,0.743
2421793,1691.0,6831.0,94.0,0.04,0.052,0.668,0.741
2421809,1727.0,7559.0,498.0,0.013,0.063,0.672,0.738
2421825,1727.0,9261.0,-96.0,0.013,-0.076,-0.675,-0.734
2421852,2829.0,9425.0,-776.0,0.04,-0.091,-0.676,-0.73
2421868,3989.0,6069.0,-1118.0,0.066,-0.105,-0.675,-0.727
2421884,3621.0,7187.0,-914.0,0.088,-0.115,-0.678,-0.72
2421901,3463.0,10673.0,-366.0,0.109,-0.126,-0.68,-0.714
2421917,3475.0,10473.0,-556.0,0.128,-0.142,-0.678,-0.709
2421933,4439.0,8467.0,-774.0,0.148,-0.159,-0.675,-0.705
2421949,4625.0,4965.0,-572.0,0.166,-0.175,-0.675,-0.698
2421975,5809.0,8335.0,-906.0,0.182,-0.188,-0.676,-0.689
2421991,5213.0,8969.0,-706.0,0.197,-0.201,-0.677,-0.68
2422007,6163.0,8777.0,-1174.0,0.213,-0.215,-0.676,-0.672
2422023,6179.0,7991.0,-1432.0,0.229,-0.228,-0.676,-0.663
2422039,6697.0,7195.0,-1184.0,0.245,-0.24,-0.674,-0.654
2422055,6087.0,6289.0,-1036.0,0.26,-0.251,-0.675,-0.644
2422081,6597.0,8141.0,-1264.0,0.274,-0.262,-0.675,-0.633
2422097,6523.0,7781.0,-978.0,0.289,-0.273,-0.673,-0.624
2422114,6961.0,6627.0,-1014.0,0.302,-0.284,-0.672,-0.614
2422130,7265.0,6383.0,-1392.0,0.314,-0.294,-0.67,-0.605
2422146,7339.0,6089.0,-1258.0,0.326,-0.302,-0.668,-0.597
2422162,7059.0,6413.0,-1036.0,0.337,-0.309,-0.667,-0.588
2422189,6867.0,5955.0,-920.0,0.347,-0.316,-0.666,-0.58
2422205,7003.0,6011.0,-1076.0,0.356,-0.322,-0.666,-0.571
2422221,6973.0,5837.0,-1058.0,0.364,-0.329,-0.665,-0.564
2422237,7215.0,5435.0,-1004.0,0.371,-0.334,-0.664,-0.557
2422253,7115.0,5291.0,-898.0,0.378,-0.339,-0.663,-0.55
2422269,7089.0,5259.0,-808.0,0.384,-0.344,-0.662,-0.545
2422285,7139.0,5063.0,-830.0,0.39,-0.349,-0.66,-0.539
2422312,7149.0,4941.0,-954.0,0.395,-0.353,-0.659,-0.534
2422328,7451.0,5249.0,-1032.0,0.4,-0.358,-0.657,-0.529
2422344,7481.0,4847.0,-830.0,0.405,-0.362,-0.655,-0.525
2422360,7869.0,5203.0,-904.0,0.409,-0.366,-0.653,-0.521
2422376,8139.0,5563.0,-1070.0,0.412,-0.37,-0.651,-0.519
2422392,8259.0,5963.0,-916.0,0.415,-0.372,-0.65,-0.517
2422418,7979.0,5669.0,-742.0,0.416,-0.373,-0.649,-0.516
2422434,8127.0,6513.0,-752.0,0.416,-0.373,-0.649,-0.516
2422452,8357.0,7347.0,-852.0,0.414,-0.371,-0.651,-0.517
2422469,8579.0,6999.0,-874.0,0.409,-0.369,-0.653,-0.52
2422485,8377.0,6941.0,-928.0,0.401,-0.364,-0.658,-0.524
2422501,8189.0,7817.0,-1216.0,0.391,-0.357,-0.663,-0.529
2422518,8037.0,8343.0,-1468.0,0.379,-0.349,-0.669,-0.535
2422535,8065.0,7929.0,-1672.0,0.365,-0.34,-0.675,-0.544
2422551,8235.0,7677.0,-1834.0,0.35,-0.329,-0.681,-0.553
2422577,8215.0,7455.0,-1964.0,0.333,-0.316,-0.687,-0.564
2422594,7243.0,5947.0,-2270.0,0.315,-0.3,-0.693,-0.575
2422610,7401.0,8081.0,-1656.0,0.295,-0.283,-0.7,-0.585
2422626,6831.0,8185.0,-1742.0,0.275,-0.265,-0.706,-0.596
2422643,6725.0,8525.0,-1930.0,0.253,-0.248,-0.712,-0.607
2422659,6435.0,7863.0,-1776.0,0.23,-0.23,-0.716,-0.617
2422675,6345.0,8293.0,-1660.0,0.206,-0.212,-0.721,-0.626
2422701,5699.0,8207.0,-1724.0,0.182,-0.193,-0.726,-0.635
2422717,5703.0,8281.0,-1950.0,0.156,-0.173,-0.731,-0.642
2422733,4821.0,8725.0,-1734.0,0.13,-0.152,-0.735,-0.648
2422749,3927.0,9223.0,-1616.0,0.103,-0.131,-0.739,-0.653
2422765,4019.0,9537.0,-1524.0,0.075,-0.112,-0.741,-0.658
2422781,3691.0,8321.0,-1736.0,0.047,-0.094,-0.742,-0.662
2422808,3747.0,6503.0,-1876.0,0.018,-0.076,-0.742,-0.666
2422824,2471.0,8339.0,-1502.0,0.011,0.058,0.741,0.668
2422840,2221.0,8813.0,-1300.0,0.04,0.042,0.739,0.672
2422856,2311.0,6889.0,-1282.0,0.068,0.027,0.734,0.675
2422872,2157.0,6075.0,-952.0,0.096,0.012,0.729,0.677
2422888,861.0,6373.0,-362.0,0.123,-0.002,0.723,0.68
2422914,1205.0,5405.0,-672.0,0.149,-0.014,0.716,0.682
2422932,1371.0,4515.0,-316.0,0.172,-0.025,0.708,0.684
2422948,321.0,4901.0,358.0,0.194,-0.036,0.7,0.686
2422964,-21.0,4659.0,642.0,0.214,-0.046,0.692,0.688
2422980,67.0,3813.0,472.0,0.23,-0.053,0.683,0.691
2422996,-299.0,3171.0,910.0,0.244,-0.06,0.676,0.692
2423012,-927.0,3611.0,1272.0,0.255,-0.066,0.67,0.694
2423028,-1133.0,3407.0,1634.0,0.263,-0.071,0.664,0.696
2423055,-1525.0,2511.0,1860.0,0.268,-0.075,0.659,0.699
2423071,-1643.0,1805.0,2098.0,0.269,-0.077,0.656,0.701
2423087,-2283.0,2085.0,2662.0,0.268,-0.077,0.655,0.702
2423104,-2369.0,2361.0,2772.0,0.264,-0.074,0.655,0.705
2423121,-2249.0,2213.0,2704.0,0.256,-0.07,0.655,0.708
2423137,-2109.0,2157.0,2696.0,0.245,-0.064,0.656,0.711
2423153,-1989.0,2717.0,2674.0,0.231,-0.057,0.658,0.715
2423179,-1601.0,3747.0,2224.0,0.214,-0.048,0.659,0.719
2423195,-1079.0,4277.0,1940.0,0.194,-0.038,0.661,0.724
2423211,-835.0,5327.0,1722.0,0.171,-0.027,0.663,0.729
2423227,-767.0,5991.0,1392.0,0.146,-0.015,0.663,0.734
2423243,135.0,6627.0,850.0,0.121,-0.003,0.664,0.738
2423269,-227.0,6553.0,1140.0,0.094,0.009,0.664,0.741
2423285,-75.0,7751.0,1096.0,0.07,0.023,0.664,0.744
2423301,807.0,8175.0,464.0,0.044,0.038,0.664,0.746
2423318,1005.0,7649.0,392.0,0.02,0.054,0.662,0.747
2423334,1519.0,8833.0,664.0,0.002,-0.07,-0.659,-0.749
2423350,1673.0,9173.0,230.0,0.025,-0.087,-0.654,-0.751
2423367,2887.0,8427.0,326.0,0.048,-0.106,-0.647,-0.753
2423383,2633.0,6919.0,306.0,0.07,-0.124,-0.641,-0.754
2423409,3703.0,7535.0,354.0,0.09,-0.141,-0.636,-0.753
2423425,4055.0,8529.0,660.0,0.109,-0.156,-0.63,-0.753
2423441,4027.0,7781.0,526.0,0.128,-0.172,-0.625,-0.751
2423457,4593.0,7141.0,978.0,0.146,-0.188,-0.622,-0.746
2423473,4703.0,8409.0,612.0,0.163,-0.203,-0.62,-0.74
2423499,5103.0,7399.0,866.0,0.179,-0.219,-0.618,-0.734
2423516,5089.0,7337.0,526.0,0.193,-0.234,-0.617,-0.726
2423532,5343.0,7581.0,576.0,0.207,-0.25,-0.614,-0.719
2423548,5473.0,5887.0,578.0,0.22,-0.265,-0.613,-0.711
2423564,6113.0,6473.0,388.0,0.233,-0.279,-0.612,-0.702
2423580,6597.0,7437.0,284.0,0.246,-0.292,-0.612,-0.693
2423596,7333.0,7151.0,-2.0,0.259,-0.304,-0.61,-0.684
2423622,7041.0,5029.0,268.0,0.272,-0.315,-0.609,-0.676
2423638,6947.0,6165.0,306.0,0.284,-0.324,-0.609,-0.666
2423654,6657.0,6947.0,424.0,0.294,-0.332,-0.61,-0.657
2423670,6911.0,5733.0,-10.0,0.304,-0.34,-0.61,-0.647
2423687,7705.0,6635.0,-264.0,0.314,-0.348,-0.611,-0.638
2423703,7351.0,6121.0,12.0,0.324,-0.354,-0.611,-0.63
2423720,7459.0,6069.0,162.0,0.332,-0.36,-0.611,-0.623
2423737,8007.0,6359.0,-136.0,0.339,-0.364,-0.611,-0.616
2423763,7925.0,6465.0,-142.0,0.345,-0.368,-0.61,-0.61
2423780,7803.0,6321.0,-82.0,0.351,-0.371,-0.609,-0.606
2423797,7573.0,6291.0,240.0,0.356,-0.373,-0.609,-0.602
2423813,7771.0,7335.0,-8.0,0.359,-0.375,-0.609,-0.599
2423829,8229.0,7499.0,14.0,0.361,-0.375,-0.609,-0.598
2423845,8033.0,6963.0,144.0,0.361,-0.375,-0.61,-0.598
2423861,8227.0,8049.0,-64.0,0.359,-0.373,-0.612,-0.598
2423887,8369.0,7983.0,-32.0,0.355,-0.369,-0.614,-0.601
2423903,8175.0,7947.0,64.0,0.349,-0.364,-0.617,-0.604
2423919,8187.0,7699.0,-88.0,0.342,-0.357,-0.621,-0.608
2423936,8135.0,8249.0,-174.0,0.333,-0.348,-0.626,-0.613
2423952,8043.0,8833.0,-88.0,0.322,-0.338,-0.632,-0.618
2423968,7915.0,8731.0,-70.0,0.309,-0.326,-0.639,-0.625
2423985,7935.0,8955.0,-376.0,0.292,-0.313,-0.646,-0.632
2424011,7521.0,9277.0,-324.0,0.274,-0.298,-0.652,-0.641
2424027,7321.0,8291.0,-540.0,0.255,-0.282,-0.659,-0.649
2424043,6987.0,9039.0,-512.0,0.234,-0.265,-0.667,-0.656
2424059,6723.0,9427.0,-494.0,0.211,-0.246,-0.674,-0.664
2424075,5991.0,9845.0,-518.0,0.187,-0.228,-0.68,-0.672
2424101,5731.0,9287.0,-338.0,0.161,-0.209,-0.685,-0.679
2424118,5389.0,8889.0,-518.0,0.133,-0.19,-0.689,-0.687
2424134,4805.0,9407.0,-548.0,0.105,-0.171,-0.692,-0.693
2424150,4759.0,9353.0,-600.0,0.077,-0.152,-0.694,-0.7
2424166,4321.0,8695.0,-532.0,0.048,-0.133,-0.693,-0.707
2424182,3679.0,8079.0,-310.0,0.019,-0.115,-0.691,-0.713
2424198,2867.0,7211.0,-328.0,0.012,0.096,0.689,0.718
2424224,2827.0,7635.0,-524.0,0.041,0.078,0.686,0.722
2424241,1997.0,7261.0,-12.0,0.07,0.061,0.68,0.727
2424258,1985.0,5955.0,-248.0,0.098,0.044,0.673,0.732
2424274,2083.0,5237.0,-262.0,0.125,0.028,0.665,0.736
2424291,905.0,4597.0,228.0,0.151,0.012,0.657,0.738
2424308,551.0,4839.0,356.0,0.176,-0.002,0.649,0.74
2424324,57.0,4241.0,688.0,0.199,-0.014,0.64,0.742
2424341,-697.0,3815.0,1014.0,0.22,-0.025,0.631,0.743
2424358,-675.0,3301.0,1116.0,0.238,-0.034,0.623,0.744
2424384,-1143.0,2917.0,1016.0,0.253,-0.041,0.615,0.745
2424400,-1601.0,2581.0,1430.0,0.265,-0.047,0.609,0.746
2424416,-2385.0,1743.0,2054.0,0.274,-0.05,0.604,0.747
2424432,-2517.0,1293.0,2130.0,0.281,-0.052,0.6,0.747
2424449,-2681.0,1457.0,2688.0,0.286,-0.051,0.597,0.748
2424465,-2343.0,1065.0,2918.0,0.288,-0.048,0.596,0.748
2424481,-1887.0,1543.0,3190.0,0.286,-0.043,0.597,0.748
2424497,-1537.0,2267.0,3038.0,0.281,-0.036,0.598,0.749
2424524,-1297.0,2317.0,3340.0,0.273,-0.029,0.601,0.751
2424541,-1039.0,3159.0,3518.0,0.263,-0.019,0.604,0.752
2424558,-957.0,3675.0,3398.0,0.251,-0.009,0.608,0.753
2424575,-615.0,4235.0,3170.0,0.237,0.003,0.613,0.754
2424592,-75.0,4405.0,2892.0,0.221,0.015,0.619,0.754
2424608,151.0,4625.0,2588.0,0.203,0.027,0.624,0.754
2424624,737.0,5391.0,2366.0,0.183,0.039,0.631,0.753
2424641,669.0,5787.0,1974.0,0.162,0.052,0.637,0.752
2424657,1289.0,5719.0,1428.0,0.139,0.064,0.642,0.752
2424684,1385.0,6871.0,1476.0,0.115,0.076,0.646,0.751
2424700,1475.0,7313.0,1558.0,0.09,0.089,0.649,0.75
2424716,1783.0,6885.0,1190.0,0.065,0.104,0.653,0.748
2424732,2627.0,8341.0,56.0,0.04,0.118,0.655,0.745
2424748,3171.0,7701.0,28.0,0.014,0.132,0.657,0.742
2424764,2775.0,8649.0,420.0,0.011,-0.145,-0.658,-0.739
2424790,2779.0,7933.0,458.0,0.036,-0.16,-0.659,-0.734
2424807,3283.0,9685.0,8.0,0.059,-0.176,-0.661,-0.727
2424824,4035.0,8663.0,-500.0,0.081,-0.193,-0.659,-0.722
2424841,5081.0,8559.0,-744.0,0.102,-0.21,-0.657,-0.717
2424858,5125.0,8371.0,-496.0,0.122,-0.226,-0.655,-0.711
2424875,5685.0,7553.0,46.0,0.141,-0.241,-0.655,-0.702
2424892,5911.0,9213.0,-1024.0,0.159,-0.257,-0.653,-0.695
2424909,6095.0,8105.0,-1224.0,0.176,-0.271,-0.649,-0.689
2424926,5915.0,7065.0,-466.0,0.192,-0.284,-0.646,-0.683
2424943,6479.0,7955.0,-648.0,0.208,-0.296,-0.643,-0.675
2424960,6711.0,8031.0,-638.0,0.222,-0.308,-0.639,-0.669
2424977,6877.0,7309.0,-598.0,0.235,-0.32,-0.635,-0.663
2424994,6537.0,6677.0,-538.0,0.246,-0.33,-0.632,-0.657
2425011,6403.0,6801.0,-364.0,0.257,-0.34,-0.628,-0.651
2425028,6609.0,6403.0,-360.0,0.266,-0.35,-0.625,-0.645
2425055,6817.0,6163.0,-266.0,0.275,-0.36,-0.621,-0.64
2425071,6919.0,5977.0,-400.0,0.284,-0.369,-0.617,-0.634
2425088,6957.0,6111.0,-278.0,0.292,-0.377,-0.613,-0.63
2425104,6909.0,6133.0,48.0,0.3,-0.385,-0.609,-0.625
2425120,7023.0,5671.0,58.0,0.307,-0.392,-0.605,-0.621
2425136,7319.0,5711.0,-200.0,0.313,-0.399,-0.601,-0.617
2425153,7355.0,6001.0,-90.0,0.32,-0.406,-0.598,-0.613
2425180,7437.0,6131.0,-14.0,0.326,-0.411,-0.594,-0.609
2425196,7733.0,7263.0,-178.0,0.331,-0.416,-0.591,-0.606
2425213,8125.0,6993.0,278.0,0.335,-0.421,-0.587,-0.605
2425229,8229.0,6721.0,176.0,0.339,-0.425,-0.584,-0.604
2425246,8797.0,7563.0,116.0,0.341,-0.426,-0.582,-0.604
2425262,8879.0,7223.0,452.0,0.341,-0.424,-0.581,-0.606
2425278,8613.0,7587.0,600.0,0.339,-0.419,-0.582,-0.609
2425294,8671.0,8457.0,698.0,0.334,-0.413,-0.585,-0.613
2425320,8851.0,8485.0,652.0,0.328,-0.404,-0.588,-0.619
2425337,8627.0,8155.0,642.0,0.318,-0.394,-0.593,-0.626
2425354,8851.0,8443.0,326.0,0.307,-0.381,-0.599,-0.634
2425370,8775.0,8409.0,442.0,0.293,-0.366,-0.606,-0.643
2425387,8399.0,8003.0,272.0,0.278,-0.348,-0.614,-0.652
2425404,8373.0,8991.0,4.0,0.261,-0.328,-0.622,-0.661
2425420,8255.0,8681.0,100.0,0.242,-0.307,-0.63,-0.671
2425436,8115.0,8781.0,-308.0,0.221,-0.284,-0.638,-0.681
2425463,7855.0,8571.0,-82.0,0.201,-0.261,-0.643,-0.691
2425479,7137.0,8239.0,-142.0,0.178,-0.236,-0.65,-0.7
2425495,7127.0,9353.0,-424.0,0.153,-0.21,-0.657,-0.708
2425511,5807.0,8989.0,300.0,0.127,-0.183,-0.662,-0.716
2425527,4779.0,8821.0,344.0,0.098,-0.157,-0.666,-0.722
2425543,4631.0,7977.0,184.0,0.069,-0.132,-0.669,-0.728
2425569,3727.0,7581.0,160.0,0.04,-0.108,-0.671,-0.732
2425585,3417.0,7567.0,654.0,0.013,-0.084,-0.671,-0.736
2425601,2869.0,6241.0,840.0,0.015,0.062,0.67,0.74
2425617,2473.0,6733.0,476.0,0.043,0.04,0.667,0.743
2425633,1907.0,5745.0,828.0,0.069,0.019,0.663,0.745
2425649,1449.0,4741.0,372.0,0.094,0.0,0.659,0.746
2425675,1171.0,6545.0,790.0,0.119,-0.018,0.655,0.746
2425691,519.0,6267.0,824.0,0.142,-0.035,0.648,0.748
2425707,693.0,4919.0,482.0,0.164,-0.049,0.64,0.749
2425723,-67.0,4623.0,928.0,0.183,-0.063,0.632,0.75
2425739,-491.0,4923.0,1046.0,0.2,-0.075,0.625,0.751
2425756,-965.0,3775.0,1292.0,0.215,-0.086,0.617,0.752
2425782,-1489.0,2959.0,1696.0,0.227,-0.096,0.61,0.753
2425798,-2111.0,2473.0,2122.0,0.238,-0.104,0.603,0.755
2425814,-2413.0,2297.0,2526.0,0.245,-0.109,0.597,0.756
2425830,-2663.0,2439.0,2514.0,0.25,-0.113,0.592,0.758
2425846,-2745.0,1151.0,2796.0,0.252,-0.115,0.587,0.761
2425862,-2993.0,1053.0,3204.0,0.252,-0.114,0.584,0.763
2425878,-2837.0,1887.0,3224.0,0.248,-0.112,0.582,0.766
2425904,-2591.0,1671.0,3040.0,0.242,-0.108,0.581,0.77
2425921,-2353.0,1389.0,3164.0,0.233,-0.103,0.581,0.773
2425937,-2287.0,2413.0,3184.0,0.222,-0.096,0.583,0.776
2425953,-2157.0,2765.0,3294.0,0.208,-0.088,0.586,0.779
2425969,-1777.0,2993.0,3004.0,0.192,-0.078,0.589,0.781
2425985,-1455.0,3191.0,2766.0,0.174,-0.067,0.593,0.783
2426011,-1157.0,3935.0,2630.0,0.155,-0.055,0.599,0.784
2426027,-925.0,4797.0,2784.0,0.134,-0.041,0.604,0.784
2426043,-291.0,5465.0,2374.0,0.113,-0.025,0.609,0.785
2426060,103.0,4813.0,1730.0,0.09,-0.008,0.613,0.785
2426076,1305.0,5169.0,1716.0,0.066,0.008,0.619,0.782
2426092,1191.0,7723.0,1948.0,0.042,0.026,0.625,0.779
2426118,1689.0,8075.0,1608.0,0.016,0.045,0.628,0.777
2426134,2879.0,5969.0,1060.0,0.009,-0.063,-0.63,-0.774
2426150,2957.0,5699.0,976.0,0.035,-0.081,-0.635,-0.768
2426166,3467.0,8841.0,1026.0,0.06,-0.097,-0.64,-0.76
2426182,4065.0,10113.0,872.0,0.085,-0.115,-0.642,-0.754
2426198,4479.0,8311.0,362.0,0.11,-0.133,-0.641,-0.748
2426214,5679.0,6081.0,28.0,0.135,-0.151,-0.641,-0.74
2426240,5109.0,7097.0,220.0,0.158,-0.164,-0.644,-0.731
2426257,5047.0,9215.0,762.0,0.179,-0.178,-0.645,-0.721
2426273,4621.0,9609.0,456.0,0.199,-0.194,-0.643,-0.714
2426290,6625.0,6977.0,-64.0,0.218,-0.209,-0.64,-0.707
2426307,6973.0,7467.0,254.0,0.236,-0.223,-0.638,-0.698
2426324,6417.0,8503.0,620.0,0.253,-0.236,-0.637,-0.689
2426341,6525.0,9327.0,306.0,0.268,-0.249,-0.635,-0.68
2426358,6873.0,7665.0,36.0,0.283,-0.263,-0.631,-0.672
2426375,7705.0,7189.0,-304.0,0.297,-0.275,-0.628,-0.665
2426392,7499.0,8519.0,202.0,0.31,-0.285,-0.624,-0.658
2426409,7671.0,7653.0,392.0,0.323,-0.295,-0.619,-0.652
2426435,7497.0,6613.0,296.0,0.334,-0.304,-0.615,-0.646
2426451,7023.0,6705.0,332.0,0.345,-0.312,-0.612,-0.64
2426467,6525.0,6209.0,514.0,0.355,-0.32,-0.608,-0.634
2426483,6939.0,5767.0,462.0,0.365,-0.327,-0.605,-0.628
2426499,6607.0,5377.0,890.0,0.374,-0.335,-0.601,-0.622
2426525,6825.0,5381.0,766.0,0.382,-0.342,-0.598,-0.616
2426541,7183.0,5229.0,604.0,0.39,-0.349,-0.595,-0.61
2426557,7131.0,4505.0,620.0,0.399,-0.355,-0.592,-0.604
2426573,7011.0,4513.0,516.0,0.407,-0.36,-0.589,-0.598
2426590,7519.0,4907.0,384.0,0.416,-0.365,-0.586,-0.592
2426607,7645.0,5315.0,660.0,0.425,-0.37,-0.582,-0.586
2426624,7765.0,4463.0,670.0,0.432,-0.374,-0.58,-0.581
2426641,8311.0,5117.0,452.0,0.439,-0.377,-0.578,-0.576
2426658,8785.0,5849.0,320.0,0.445,-0.38,-0.576,-0.571
2426675,8909.0,5185.0,416.0,0.449,-0.381,-0.574,-0.569
2426692,9097.0,5471.0,472.0,0.453,-0.382,-0.573,-0.566
2426719,8807.0,5715.0,566.0,0.454,-0.382,-0.573,-0.566
2426735,8641.0,5393.0,886.0,0.453,-0.38,-0.574,-0.566
2426752,8509.0,5699.0,828.0,0.45,-0.377,-0.577,-0.567
2426768,8433.0,5953.0,632.0,0.445,-0.373,-0.581,-0.57
2426784,8721.0,5993.0,674.0,0.437,-0.368,-0.586,-0.574
2426800,8883.0,6013.0,384.0,0.429,-0.361,-0.592,-0.579
2426816,8855.0,5731.0,516.0,0.42,-0.351,-0.598,-0.585
2426842,8585.0,6621.0,612.0,0.408,-0.339,-0.605,-0.593
2426859,8507.0,6381.0,500.0,0.395,-0.326,-0.612,-0.602
2426876,8393.0,6711.0,446.0,0.38,-0.311,-0.62,-0.612
2426893,8131.0,7281.0,522.0,0.364,-0.296,-0.627,-0.622
2426910,7797.0,7273.0,332.0,0.347,-0.28,-0.634,-0.632
2426926,7691.0,7629.0,374.0,0.329,-0.264,-0.64,-0.642
2426942,7411.0,8013.0,304.0,0.31,-0.247,-0.646,-0.653
2426968,7083.0,7047.0,190.0,0.29,-0.229,-0.651,-0.663
2426984,7113.0,7567.0,-120.0,0.27,-0.21,-0.657,-0.672
2427000,6275.0,8953.0,714.0,0.249,-0.191,-0.662,-0.681
2427016,5799.0,8753.0,130.0,0.226,-0.172,-0.665,-0.69
2427032,5787.0,8351.0,168.0,0.203,-0.152,-0.669,-0.699
2427048,4787.0,8459.0,290.0,0.179,-0.132,-0.672,-0.707
2427064,4367.0,9113.0,284.0,0.155,-0.112,-0.674,-0.714
2427090,3555.0,8257.0,474.0,0.129,-0.092,-0.675,-0.72
2427107,3221.0,8849.0,446.0,0.103,-0.072,-0.676,-0.726
2427124,2669.0,9031.0,628.0,0.077,-0.053,-0.675,-0.732
2427141,2247.0,8191.0,448.0,0.05,-0.035,-0.672,-0.738
2427158,2193.0,6721.0,356.0,0.024,-0.017,-0.67,-0.742
2427175,1481.0,6465.0,938.0,0.002,-0.0,0.667,0.745
2427191,905.0,7865.0,1216.0,0.028,-0.017,0.664,0.747
2427207,1051.0,6559.0,1046.0,0.054,-0.031,0.657,0.751
2427224,1205.0,4779.0,978.0,0.077,-0.046,0.65,0.755
2427250,31.0,4557.0,1306.0,0.1,-0.06,0.644,0.756
2427266,-15.0,4989.0,1416.0,0.122,-0.073,0.637,0.757
2427282,-371.0,4615.0,1462.0,0.142,-0.085,0.63,0.759
2427298,-613.0,4045.0,1466.0,0.159,-0.095,0.623,0.76
2427314,-971.0,3535.0,1770.0,0.174,-0.104,0.616,0.761
2427330,-1311.0,3239.0,1766.0,0.187,-0.111,0.609,0.762
2427356,-1625.0,3295.0,1992.0,0.198,-0.116,0.604,0.763
2427372,-1589.0,2519.0,2018.0,0.206,-0.12,0.599,0.765
2427388,-1945.0,2317.0,2376.0,0.211,-0.122,0.596,0.765
2427404,-2153.0,2673.0,2706.0,0.214,-0.123,0.593,0.766
2427420,-2313.0,2267.0,2676.0,0.214,-0.121,0.592,0.768
2427436,-2259.0,1971.0,2870.0,0.211,-0.118,0.591,0.769
2427462,-2153.0,2373.0,2686.0,0.206,-0.113,0.593,0.77
2427478,-2005.0,2475.0,2612.0,0.197,-0.107,0.595,0.772
2427494,-2029.0,2851.0,2734.0,0.186,-0.099,0.598,0.773
2427511,-1689.0,3371.0,2584.0,0.173,-0.09,0.602,0.774
2427527,-1673.0,3569.0,2634.0,0.158,-0.079,0.607,0.775
2427544,-1285.0,3677.0,2382.0,0.141,-0.066,0.611,0.776
2427560,-961.0,3769.0,2308.0,0.123,-0.053,0.617,0.776
2427586,-783.0,4205.0,2286.0,0.103,-0.038,0.622,0.775
2427603,177.0,5827.0,1864.0,0.083,-0.022,0.627,0.774
2427619,115.0,5933.0,1660.0,0.06,-0.004,0.632,0.773
2427635,1289.0,5373.0,1392.0,0.037,0.013,0.635,0.771
2427651,1553.0,5753.0,1284.0,0.014,0.03,0.64,0.768
2427667,2187.0,9113.0,1146.0,0.01,-0.046,-0.644,-0.764
2427683,2525.0,9081.0,1038.0,0.036,-0.065,-0.645,-0.76
2427709,3099.0,7175.0,790.0,0.061,-0.084,-0.645,-0.757
2427725,3067.0,6147.0,1000.0,0.083,-0.101,-0.647,-0.752
2427741,4245.0,9647.0,620.0,0.105,-0.117,-0.649,-0.744
2427757,4183.0,11215.0,946.0,0.129,-0.135,-0.647,-0.739
2427773,4101.0,7761.0,878.0,0.152,-0.156,-0.643,-0.735
2427799,4863.0,7185.0,-146.0,0.174,-0.175,-0.639,-0.729
2427815,5951.0,7915.0,374.0,0.194,-0.19,-0.639,-0.719
2427831,5903.0,10377.0,696.0,0.214,-0.205,-0.637,-0.711
2427847,6377.0,9353.0,1092.0,0.234,-0.223,-0.633,-0.703
2427864,6779.0,6775.0,112.0,0.252,-0.241,-0.627,-0.697
2427880,7069.0,4145.0,462.0,0.269,-0.255,-0.624,-0.689
2427896,6709.0,6975.0,674.0,0.284,-0.266,-0.622,-0.679
2427914,7279.0,10421.0,764.0,0.3,-0.278,-0.619,-0.671
2427931,7055.0,7159.0,890.0,0.316,-0.292,-0.612,-0.664
2427958,7895.0,4565.0,322.0,0.33,-0.306,-0.606,-0.656
2427975,8243.0,4565.0,418.0,0.344,-0.315,-0.602,-0.649
2427992,7159.0,6107.0,818.0,0.357,-0.323,-0.598,-0.641
2428009,7473.0,5415.0,608.0,0.37,-0.331,-0.595,-0.632
2428026,8127.0,6503.0,542.0,0.383,-0.34,-0.591,-0.624
2428043,8193.0,5847.0,682.0,0.395,-0.348,-0.586,-0.616
2428059,8371.0,4735.0,650.0,0.406,-0.356,-0.582,-0.609
2428075,8561.0,4803.0,612.0,0.415,-0.361,-0.579,-0.602
2428091,8453.0,5407.0,568.0,0.424,-0.366,-0.576,-0.595
2428117,8357.0,4649.0,580.0,0.432,-0.371,-0.574,-0.589
2428133,7873.0,4433.0,778.0,0.44,-0.374,-0.572,-0.583
2428149,7577.0,4555.0,928.0,0.447,-0.377,-0.57,-0.577
2428165,7383.0,4693.0,828.0,0.452,-0.38,-0.569,-0.572
2428181,7731.0,4589.0,696.0,0.458,-0.383,-0.568,-0.566
2428197,7929.0,4885.0,658.0,0.463,-0.386,-0.566,-0.562
2428223,7815.0,4211.0,746.0,0.468,-0.388,-0.565,-0.558
2428239,8081.0,4261.0,578.0,0.472,-0.388,-0.564,-0.555
2428255,8373.0,5379.0,682.0,0.475,-0.387,-0.565,-0.553
2428272,8607.0,4891.0,630.0,0.476,-0.385,-0.565,-0.552
2428288,8529.0,5471.0,866.0,0.477,-0.381,-0.567,-0.553
2428305,8473.0,5729.0,872.0,0.475,-0.377,-0.57,-0.555
2428322,8401.0,5667.0,922.0,0.472,-0.37,-0.573,-0.558
2428338,8333.0,5879.0,816.0,0.466,-0.363,-0.578,-0.564
2428364,8361.0,6243.0,848.0,0.459,-0.353,-0.583,-0.57
2428380,8443.0,6863.0,832.0,0.45,-0.342,-0.589,-0.577
2428396,8393.0,6293.0,836.0,0.44,-0.33,-0.595,-0.586
2428412,8475.0,6685.0,600.0,0.428,-0.315,-0.603,-0.595
2428428,8689.0,7351.0,638.0,0.414,-0.298,-0.611,-0.605
2428444,8439.0,7727.0,750.0,0.399,-0.281,-0.618,-0.617
2428471,8613.0,7735.0,528.0,0.381,-0.261,-0.626,-0.628
2428488,8365.0,8321.0,482.0,0.361,-0.241,-0.634,-0.64
2428505,8021.0,8139.0,376.0,0.34,-0.219,-0.64,-0.653
2428521,7071.0,7949.0,674.0,0.318,-0.197,-0.647,-0.665
2428537,5521.0,9007.0,1144.0,0.293,-0.174,-0.653,-0.677
2428554,5407.0,9359.0,1066.0,0.267,-0.153,-0.657,-0.688
2428571,4737.0,8481.0,1054.0,0.24,-0.133,-0.66,-0.699
2428588,4601.0,8817.0,890.0,0.212,-0.113,-0.662,-0.71
2428614,3911.0,8761.0,1210.0,0.183,-0.094,-0.663,-0.72
2428630,4319.0,8081.0,362.0,0.153,-0.074,-0.662,-0.73
2428646,4017.0,8323.0,480.0,0.124,-0.054,-0.661,-0.738
2428662,2913.0,7797.0,950.0,0.096,-0.034,-0.66,-0.745
2428678,2967.0,7907.0,838.0,0.067,-0.015,-0.656,-0.752
2428694,2361.0,7369.0,774.0,0.039,0.003,-0.651,-0.758
2428720,2117.0,6791.0,944.0,0.012,0.021,-0.646,-0.763
2428736,2099.0,6597.0,592.0,0.014,-0.037,0.64,0.767
2428752,1839.0,7003.0,796.0,0.039,-0.053,0.634,0.77
2428768,1227.0,7299.0,1182.0,0.063,-0.068,0.628,0.773
2428784,945.0,6017.0,1282.0,0.085,-0.081,0.62,0.776
2428800,579.0,5845.0,1082.0,0.108,-0.095,0.613,0.777
2428826,297.0,5545.0,1374.0,0.128,-0.107,0.607,0.777
2428842,-311.0,6089.0,1582.0,0.148,-0.118,0.6,0.777
2428858,-735.0,4973.0,1636.0,0.165,-0.128,0.593,0.778
2428874,-749.0,3911.0,1604.0,0.18,-0.137,0.587,0.778
2428890,-1501.0,3673.0,1774.0,0.194,-0.145,0.582,0.777
2428906,-1953.0,3133.0,2206.0,0.206,-0.151,0.577,0.775
2428922,-2397.0,3173.0,2430.0,0.217,-0.156,0.574,0.774
2428948,-2823.0,3173.0,2802.0,0.226,-0.159,0.571,0.773
2428965,-2729.0,2809.0,2956.0,0.232,-0.16,0.568,0.774
2428981,-2725.0,1529.0,2820.0,0.235,-0.16,0.565,0.775
2428997,-2907.0,1015.0,3034.0,0.236,-0.16,0.564,0.775
2429013,-2997.0,823.0,3354.0,0.235,-0.159,0.565,0.775
2429029,-3553.0,1607.0,3472.0,0.23,-0.156,0.567,0.775
2429055,-3229.0,1703.0,3174.0,0.222,-0.151,0.569,0.777
2429071,-3191.0,1271.0,3012.0,0.211,-0.145,0.572,0.779
2429087,-3005.0,1143.0,2986.0,0.198,-0.136,0.576,0.781
2429104,-2971.0,2815.0,3068.0,0.182,-0.126,0.581,0.783
2429120,-2515.0,3593.0,3058.0,0.165,-0.114,0.586,0.785
2429136,-2069.0,3551.0,2608.0,0.145,-0.099,0.59,0.788
2429162,-1171.0,3257.0,2244.0,0.125,-0.083,0.596,0.789
2429178,-721.0,4235.0,2294.0,0.104,-0.066,0.603,0.788
2429194,-341.0,6467.0,2130.0,0.082,-0.049,0.609,0.787
2429210,-379.0,6867.0,1990.0,0.059,-0.03,0.614,0.787
2429226,783.0,5401.0,1306.0,0.034,-0.009,0.618,0.786
2429243,1727.0,5343.0,1082.0,0.01,0.011,0.623,0.782
2429259,1649.0,7287.0,1538.0,0.013,-0.03,-0.629,-0.776
2429285,1863.0,8431.0,1520.0,0.037,-0.051,-0.634,-0.771
2429302,3137.0,8703.0,844.0,0.062,-0.073,-0.636,-0.765
2429318,3727.0,7269.0,688.0,0.087,-0.096,-0.637,-0.76
2429335,4447.0,5857.0,342.0,0.112,-0.116,-0.64,-0.752
2429352,4767.0,6555.0,782.0,0.135,-0.134,-0.644,-0.741
2429369,4807.0,9985.0,602.0,0.157,-0.152,-0.648,-0.73
2429385,5321.0,10499.0,254.0,0.18,-0.171,-0.647,-0.721
2429402,5979.0,6407.0,780.0,0.204,-0.191,-0.644,-0.712
2429428,6575.0,5393.0,58.0,0.225,-0.208,-0.644,-0.701
2429444,7177.0,7747.0,274.0,0.246,-0.222,-0.645,-0.689
2429460,6665.0,9561.0,424.0,0.266,-0.237,-0.644,-0.677
2429476,7871.0,8857.0,44.0,0.287,-0.252,-0.639,-0.668
2429492,8585.0,7843.0,114.0,0.306,-0.266,-0.634,-0.658
2429508,8651.0,5959.0,172.0,0.325,-0.279,-0.629,-0.649
2429524,8573.0,6419.0,394.0,0.341,-0.288,-0.626,-0.64
2429550,7977.0,7643.0,300.0,0.356,-0.297,-0.623,-0.63
2429567,7701.0,6347.0,328.0,0.371,-0.306,-0.619,-0.621
2429583,8007.0,5531.0,358.0,0.385,-0.315,-0.615,-0.612
2429599,7883.0,6009.0,432.0,0.4,-0.324,-0.61,-0.603
2429615,8263.0,5693.0,380.0,0.413,-0.333,-0.605,-0.594
2429631,8509.0,4953.0,278.0,0.426,-0.341,-0.599,-0.586
2429657,8233.0,4649.0,508.0,0.437,-0.349,-0.594,-0.578
2429674,8381.0,4707.0,330.0,0.448,-0.355,-0.59,-0.571
2429691,8415.0,4601.0,320.0,0.458,-0.36,-0.585,-0.564
2429708,8457.0,4793.0,364.0,0.468,-0.365,-0.581,-0.557
2429725,8411.0,4485.0,488.0,0.475,-0.369,-0.577,-0.551
2429742,8189.0,4535.0,574.0,0.481,-0.374,-0.575,-0.546
2429759,8151.0,4393.0,516.0,0.486,-0.378,-0.572,-0.542
2429776,8065.0,4011.0,608.0,0.49,-0.381,-0.571,-0.537
2429793,7917.0,3813.0,586.0,0.493,-0.384,-0.57,-0.534
2429809,7795.0,4257.0,632.0,0.494,-0.387,-0.569,-0.531
2429826,7761.0,4341.0,710.0,0.496,-0.389,-0.568,-0.529
2429852,7531.0,3989.0,982.0,0.496,-0.391,-0.568,-0.527
2429868,7923.0,4485.0,704.0,0.496,-0.393,-0.568,-0.526
2429884,8229.0,4183.0,544.0,0.495,-0.394,-0.568,-0.526
2429901,8373.0,3839.0,716.0,0.494,-0.393,-0.569,-0.527
2429918,8351.0,5189.0,764.0,0.491,-0.39,-0.571,-0.53
2429935,8779.0,4779.0,630.0,0.488,-0.386,-0.573,-0.533
2429952,8611.0,4985.0,746.0,0.483,-0.38,-0.577,-0.538
2429968,8315.0,5571.0,894.0,0.476,-0.372,-0.582,-0.544
2429985,9153.0,6243.0,702.0,0.467,-0.362,-0.59,-0.551
2430002,9311.0,6427.0,726.0,0.455,-0.35,-0.598,-0.56
2430028,9763.0,6999.0,432.0,0.441,-0.337,-0.606,-0.57
2430044,9409.0,7063.0,478.0,0.425,-0.321,-0.615,-0.582
2430060,8983.0,7545.0,644.0,0.407,-0.304,-0.624,-0.594
2430076,8771.0,8421.0,536.0,0.387,-0.286,-0.633,-0.607
2430092,8837.0,7361.0,142.0,0.366,-0.268,-0.641,-0.62
2430109,8091.0,7719.0,438.0,0.344,-0.247,-0.649,-0.633
2430135,7929.0,8957.0,190.0,0.319,-0.225,-0.656,-0.645
2430152,7569.0,8709.0,56.0,0.294,-0.204,-0.662,-0.658
2430168,6905.0,8197.0,36.0,0.268,-0.183,-0.668,-0.67
2430184,6621.0,8957.0,-160.0,0.24,-0.16,-0.672,-0.682
2430200,5931.0,9267.0,200.0,0.211,-0.137,-0.676,-0.693
2430217,5683.0,8879.0,-262.0,0.181,-0.114,-0.678,-0.703
2430234,4987.0,8757.0,26.0,0.15,-0.091,-0.68,-0.712
2430251,4467.0,9299.0,124.0,0.119,-0.069,-0.68,-0.72
2430268,4233.0,8159.0,-76.0,0.087,-0.046,-0.679,-0.728
2430285,3659.0,7693.0,78.0,0.056,-0.025,-0.678,-0.733
2430312,3105.0,8567.0,310.0,0.025,-0.003,-0.676,-0.737
2430328,2793.0,7697.0,100.0,0.005,-0.017,0.672,0.741
2430344,1857.0,5449.0,436.0,0.034,-0.037,0.667,0.744
2430360,1271.0,5949.0,664.0,0.064,-0.056,0.662,0.744
2430377,893.0,5919.0,804.0,0.092,-0.073,0.657,0.744
2430393,315.0,5187.0,886.0,0.119,-0.089,0.652,0.744
2430419,-161.0,4587.0,1156.0,0.145,-0.102,0.646,0.743
2430435,-205.0,4579.0,906.0,0.168,-0.114,0.639,0.742
2430451,-341.0,2139.0,636.0,0.188,-0.124,0.633,0.741
2430468,-1115.0,1809.0,1172.0,0.207,-0.133,0.628,0.738
2430484,-1473.0,2829.0,1438.0,0.223,-0.141,0.625,0.734
2430500,-1529.0,1863.0,1450.0,0.236,-0.145,0.623,0.732
2430517,-1979.0,1397.0,1752.0,0.246,-0.148,0.622,0.729
2430533,-2145.0,1153.0,2052.0,0.253,-0.149,0.621,0.726
2430559,-2467.0,1249.0,2586.0,0.257,-0.148,0.622,0.725
2430575,-2499.0,1001.0,2792.0,0.257,-0.144,0.623,0.724
2430591,-2517.0,875.0,2792.0,0.253,-0.139,0.626,0.724
2430607,-2409.0,1035.0,2834.0,0.246,-0.133,0.629,0.725
2430623,-2447.0,1203.0,2910.0,0.235,-0.125,0.633,0.727
2430639,-2419.0,1593.0,2912.0,0.22,-0.116,0.639,0.728
2430665,-2239.0,3031.0,2752.0,0.203,-0.105,0.644,0.73
2430682,-2153.0,3421.0,2702.0,0.183,-0.093,0.649,0.733
2430698,-1845.0,2535.0,2342.0,0.161,-0.079,0.653,0.736
2430714,-1155.0,3979.0,1984.0,0.137,-0.064,0.659,0.737
2430730,-1085.0,5715.0,1952.0,0.112,-0.048,0.664,0.737
2430746,-317.0,7045.0,1294.0,0.086,-0.03,0.667,0.74
2430772,435.0,5335.0,1092.0,0.058,-0.011,0.669,0.741
2430789,1505.0,6157.0,848.0,0.03,0.008,0.671,0.74
2430805,1669.0,8647.0,556.0,0.003,0.026,0.674,0.739
2430821,2213.0,8491.0,474.0,0.025,-0.046,-0.673,-0.738
2430837,2973.0,8303.0,532.0,0.053,-0.066,-0.671,-0.737
2430854,3335.0,7145.0,172.0,0.08,-0.086,-0.671,-0.732
2430871,4921.0,7339.0,-380.0,0.106,-0.105,-0.671,-0.726
2430887,4683.0,9353.0,202.0,0.131,-0.122,-0.671,-0.72
2430913,4497.0,8745.0,874.0,0.153,-0.14,-0.67,-0.713
2430929,5119.0,7685.0,180.0,0.175,-0.159,-0.668,-0.706
2430945,5797.0,11089.0,-244.0,0.197,-0.178,-0.665,-0.698
2430961,6185.0,8953.0,44.0,0.218,-0.195,-0.662,-0.69
2430977,6829.0,8997.0,228.0,0.238,-0.211,-0.657,-0.683
2430993,7215.0,7013.0,30.0,0.258,-0.227,-0.652,-0.676
2431019,7861.0,6499.0,-318.0,0.277,-0.241,-0.647,-0.668
2431036,7941.0,7503.0,-126.0,0.296,-0.252,-0.643,-0.659
2431053,7799.0,8409.0,138.0,0.314,-0.263,-0.639,-0.651
2431070,8053.0,7631.0,234.0,0.331,-0.275,-0.633,-0.644
2431086,8199.0,7415.0,-102.0,0.347,-0.286,-0.627,-0.637
2431102,8427.0,6515.0,160.0,0.362,-0.296,-0.62,-0.63
2431119,8141.0,6401.0,480.0,0.377,-0.305,-0.614,-0.623
2431135,7807.0,5953.0,474.0,0.39,-0.315,-0.608,-0.616
2431161,7777.0,5555.0,416.0,0.403,-0.323,-0.602,-0.609
2431178,7373.0,5255.0,740.0,0.414,-0.332,-0.596,-0.603
2431194,7393.0,4985.0,584.0,0.425,-0.34,-0.59,-0.596
2431211,7767.0,4795.0,518.0,0.436,-0.348,-0.585,-0.589
2431227,7869.0,4473.0,534.0,0.447,-0.356,-0.579,-0.582
2431243,7901.0,4625.0,562.0,0.457,-0.362,-0.574,-0.575
2431259,7889.0,4511.0,656.0,0.466,-0.369,-0.568,-0.569
2431285,7889.0,4253.0,792.0,0.473,-0.375,-0.564,-0.563
2431302,8197.0,4271.0,382.0,0.481,-0.381,-0.56,-0.557
2431319,8267.0,4561.0,532.0,0.488,-0.386,-0.556,-0.552
2431336,8351.0,4343.0,590.0,0.493,-0.39,-0.553,-0.547
2431353,8403.0,4607.0,584.0,0.498,-0.393,-0.55,-0.543
2431370,8291.0,4639.0,726.0,0.502,-0.396,-0.548,-0.539
2431386,8211.0,4841.0,846.0,0.504,-0.397,-0.548,-0.537
2431403,8051.0,4857.0,1042.0,0.504,-0.397,-0.549,-0.536
2431419,8055.0,4867.0,1094.0,0.503,-0.396,-0.551,-0.536
2431436,7617.0,5191.0,1058.0,0.5,-0.393,-0.555,-0.537
2431453,7925.0,5105.0,1200.0,0.495,-0.389,-0.559,-0.539
2431479,8073.0,5781.0,1418.0,0.49,-0.384,-0.564,-0.542
2431495,8603.0,4555.0,578.0,0.483,-0.377,-0.57,-0.547
2431511,8559.0,4987.0,984.0,0.477,-0.366,-0.576,-0.554
2431527,7779.0,5595.0,1312.0,0.469,-0.353,-0.584,-0.561
2431543,7829.0,5833.0,1392.0,0.46,-0.339,-0.592,-0.569
2431559,7891.0,6397.0,1364.0,0.448,-0.325,-0.6,-0.577
2431585,8125.0,6493.0,928.0,0.435,-0.311,-0.608,-0.587
2431602,8579.0,6303.0,540.0,0.421,-0.296,-0.616,-0.596
2431619,8473.0,7249.0,692.0,0.407,-0.28,-0.623,-0.606
2431635,8443.0,6841.0,556.0,0.391,-0.264,-0.63,-0.617
2431652,8909.0,7479.0,10.0,0.374,-0.246,-0.637,-0.627
2431668,8579.0,7157.0,446.0,0.356,-0.227,-0.644,-0.638
2431685,8253.0,8195.0,210.0,0.335,-0.206,-0.653,-0.648
2431702,7927.0,9361.0,326.0,0.312,-0.185,-0.66,-0.658
2431729,7371.0,9779.0,202.0,0.286,-0.164,-0.666,-0.669
2431746,7075.0,9567.0,-96.0,0.259,-0.144,-0.671,-0.68
2431763,6161.0,9589.0,32.0,0.231,-0.124,-0.674,-0.691
2431779,5679.0,9449.0,-80.0,0.201,-0.103,-0.677,-0.701
2431795,5247.0,9697.0,246.0,0.171,-0.083,-0.678,-0.71
2431812,4847.0,9189.0,220.0,0.141,-0.064,-0.677,-0.719
2431828,4115.0,8169.0,414.0,0.111,-0.045,-0.674,-0.729
2431844,3517.0,7347.0,146.0,0.081,-0.027,-0.671,-0.736
2431870,2853.0,7291.0,214.0,0.052,-0.008,-0.669,-0.742
2431887,1955.0,7083.0,970.0,0.024,0.01,-0.664,-0.747
2431904,1487.0,6781.0,634.0,0.005,-0.027,0.659,0.752
2431921,1451.0,6449.0,570.0,0.033,-0.043,0.653,0.756
2431938,1001.0,5151.0,766.0,0.06,-0.058,0.646,0.759
2431954,743.0,5485.0,666.0,0.086,-0.072,0.64,0.76
2431971,135.0,4939.0,868.0,0.111,-0.085,0.633,0.762
2431987,-125.0,4935.0,792.0,0.135,-0.096,0.625,0.763
2432004,-435.0,4127.0,818.0,0.156,-0.106,0.618,0.764
2432021,-475.0,2489.0,920.0,0.175,-0.114,0.611,0.764
2432038,-1377.0,2955.0,1422.0,0.193,-0.122,0.605,0.763
2432055,-1461.0,3271.0,1804.0,0.209,-0.127,0.599,0.762
2432082,-1813.0,2187.0,1646.0,0.222,-0.131,0.594,0.762
2432098,-2081.0,1187.0,2210.0,0.233,-0.132,0.59,0.762
2432114,-2523.0,1785.0,2470.0,0.242,-0.132,0.588,0.76
2432130,-2761.0,2293.0,2594.0,0.247,-0.13,0.587,0.76
2432146,-2885.0,1699.0,3008.0,0.249,-0.127,0.585,0.761
2432162,-3175.0,911.0,3386.0,0.248,-0.122,0.585,0.763
2432188,-2835.0,1207.0,3140.0,0.244,-0.115,0.586,0.764
2432205,-2693.0,1481.0,3288.0,0.236,-0.106,0.588,0.767
2432222,-2635.0,1571.0,3500.0,0.225,-0.097,0.59,0.769
2432239,-2237.0,2135.0,3468.0,0.211,-0.085,0.594,0.771
2432256,-1979.0,2147.0,3494.0,0.194,-0.072,0.599,0.774
2432273,-1637.0,3505.0,3048.0,0.175,-0.058,0.604,0.776
2432289,-1155.0,2479.0,2868.0,0.153,-0.044,0.608,0.777
2432305,-947.0,2545.0,3098.0,0.131,-0.028,0.615,0.777
2432322,-265.0,4841.0,2748.0,0.106,-0.011,0.622,0.776
2432348,113.0,5703.0,2412.0,0.08,0.008,0.626,0.775
2432364,539.0,6039.0,2122.0,0.053,0.028,0.629,0.775
2432380,1787.0,4221.0,1542.0,0.025,0.048,0.632,0.773
2432396,2523.0,4801.0,1638.0,0.004,-0.068,-0.635,-0.769
2432412,3223.0,7263.0,1242.0,0.033,-0.088,-0.639,-0.764
2432428,3651.0,8589.0,1326.0,0.062,-0.109,-0.638,-0.759
2432444,4445.0,8655.0,1040.0,0.091,-0.132,-0.635,-0.756
2432470,6487.0,6537.0,352.0,0.121,-0.156,-0.63,-0.751
2432487,6889.0,4725.0,558.0,0.152,-0.177,-0.628,-0.742
2432504,7165.0,7257.0,722.0,0.179,-0.195,-0.628,-0.731
2432520,7969.0,9997.0,206.0,0.206,-0.212,-0.627,-0.721
2432537,7421.0,10219.0,686.0,0.233,-0.232,-0.62,-0.712
2432553,9315.0,8993.0,226.0,0.259,-0.253,-0.612,-0.703
2432570,9805.0,7091.0,136.0,0.284,-0.272,-0.603,-0.694
2432587,9735.0,5573.0,482.0,0.305,-0.288,-0.597,-0.684
2432604,9401.0,8239.0,694.0,0.324,-0.301,-0.592,-0.674
2432630,8665.0,8475.0,318.0,0.344,-0.315,-0.586,-0.663
2432646,8833.0,7039.0,470.0,0.362,-0.329,-0.577,-0.654
2432662,8789.0,6321.0,728.0,0.379,-0.342,-0.569,-0.644
2432678,9121.0,5767.0,540.0,0.395,-0.353,-0.562,-0.635
2432694,9199.0,5291.0,660.0,0.409,-0.363,-0.556,-0.626
2432710,8739.0,5703.0,926.0,0.422,-0.372,-0.55,-0.617
2432736,8455.0,5871.0,904.0,0.433,-0.38,-0.545,-0.609
2432752,8397.0,4975.0,1034.0,0.442,-0.388,-0.541,-0.601
2432769,8237.0,4549.0,972.0,0.45,-0.395,-0.537,-0.594
2432786,8285.0,4785.0,778.0,0.457,-0.401,-0.535,-0.587
2432803,8195.0,4727.0,858.0,0.463,-0.405,-0.533,-0.581
2432820,8051.0,4399.0,806.0,0.469,-0.409,-0.532,-0.575
2432836,7919.0,4241.0,822.0,0.473,-0.412,-0.531,-0.57
2432852,7757.0,4213.0,794.0,0.476,-0.413,-0.531,-0.566
2432869,7551.0,4149.0,908.0,0.479,-0.414,-0.532,-0.562
2432895,7527.0,3813.0,994.0,0.481,-0.414,-0.533,-0.559
2432911,7473.0,3871.0,956.0,0.482,-0.414,-0.535,-0.557
2432927,7487.0,3981.0,866.0,0.483,-0.413,-0.537,-0.556
2432943,7355.0,3775.0,1040.0,0.483,-0.411,-0.539,-0.554
2432959,7459.0,3463.0,1046.0,0.482,-0.41,-0.542,-0.553
2432975,7783.0,3291.0,866.0,0.481,-0.408,-0.545,-0.553
2433001,7797.0,3299.0,754.0,0.479,-0.405,-0.548,-0.553
