timeMs,ax,ay,az,q0,q1,q2,q3
1292277,7146.0,3820.0,1154.0,0.092,0.668,0.082,0.734
1292293,7348.0,3744.0,1106.0,0.094,0.666,0.085,0.735
1292309,7486.0,3696.0,1158.0,0.097,0.665,0.088,0.735
1292325,7774.0,3712.0,1004.0,0.1,0.664,0.092,0.735
1292341,7718.0,3704.0,928.0,0.104,0.663,0.096,0.736
1292367,7902.0,3940.0,1022.0,0.108,0.661,0.1,0.736
1292383,7962.0,3762.0,950.0,0.112,0.659,0.105,0.736
1292399,7920.0,3940.0,1018.0,0.117,0.658,0.11,0.736
1292415,7846.0,3786.0,1050.0,0.123,0.656,0.115,0.736
1292431,7716.0,3886.0,1046.0,0.129,0.654,0.121,0.735
1292447,7862.0,4078.0,970.0,0.135,0.653,0.127,0.735
1292473,7696.0,3888.0,892.0,0.142,0.651,0.133,0.734
1292489,7750.0,4466.0,934.0,0.149,0.649,0.139,0.733
1292505,7502.0,4320.0,988.0,0.157,0.647,0.146,0.732
1292521,7616.0,4850.0,994.0,0.165,0.645,0.152,0.731
1292537,7630.0,5000.0,970.0,0.173,0.643,0.159,0.729
1292553,7844.0,5368.0,910.0,0.182,0.64,0.165,0.728
1292579,7700.0,5344.0,1046.0,0.193,0.637,0.172,0.726
1292595,7536.0,5780.0,1144.0,0.204,0.634,0.178,0.724
1292611,7390.0,5990.0,1132.0,0.216,0.631,0.184,0.722
1292628,7070.0,5758.0,1090.0,0.228,0.628,0.19,0.719
1292644,7000.0,6244.0,1140.0,0.241,0.625,0.197,0.716
1292660,6726.0,6116.0,1002.0,0.255,0.621,0.202,0.713
1292686,6522.0,6122.0,1212.0,0.269,0.617,0.208,0.709
1292702,6460.0,5982.0,1326.0,0.284,0.613,0.213,0.706
1292719,6154.0,4776.0,1956.0,0.297,0.607,0.218,0.704
1292736,5782.0,4622.0,2502.0,0.309,0.601,0.224,0.702
1292753,5302.0,4760.0,2538.0,0.319,0.595,0.23,0.701
1292770,4986.0,5438.0,2506.0,0.327,0.589,0.237,0.7
1292786,4386.0,4920.0,2364.0,0.335,0.584,0.245,0.698
1292802,4470.0,6980.0,1946.0,0.343,0.579,0.254,0.695
1292828,4384.0,7330.0,1510.0,0.351,0.575,0.261,0.692
1292844,4108.0,7288.0,946.0,0.36,0.571,0.268,0.687
1292860,4308.0,8128.0,586.0,0.371,0.567,0.273,0.683
1292877,3788.0,7622.0,518.0,0.383,0.563,0.277,0.678
1292893,3484.0,8028.0,536.0,0.396,0.558,0.28,0.673
1292910,2980.0,7760.0,548.0,0.411,0.552,0.281,0.669
1292927,2448.0,7502.0,766.0,0.426,0.546,0.28,0.664
1292944,2078.0,7204.0,850.0,0.442,0.54,0.278,0.66
1292960,2006.0,7106.0,928.0,0.459,0.534,0.273,0.655
1292987,1660.0,6732.0,1062.0,0.477,0.527,0.267,0.651
1293004,1640.0,6570.0,932.0,0.495,0.52,0.257,0.647
1293021,1586.0,6060.0,1020.0,0.514,0.511,0.245,0.643
1293038,1776.0,5498.0,1058.0,0.533,0.503,0.232,0.64
1293054,1710.0,5206.0,1400.0,0.551,0.494,0.217,0.637
1293071,1514.0,4918.0,1772.0,0.568,0.484,0.202,0.634
1293087,1528.0,5008.0,2500.0,0.584,0.475,0.186,0.631
1293104,1866.0,5210.0,3474.0,0.6,0.465,0.167,0.629
1293130,3196.0,5080.0,4526.0,0.615,0.455,0.148,0.627
1293147,4022.0,4028.0,5764.0,0.629,0.443,0.128,0.626
1293164,4368.0,4296.0,7280.0,0.641,0.432,0.111,0.624
1293180,4004.0,4800.0,7968.0,0.653,0.42,0.095,0.623
1293196,3754.0,4284.0,7678.0,0.663,0.409,0.08,0.622
1293212,3136.0,4638.0,7076.0,0.672,0.4,0.065,0.62
1293228,2890.0,4990.0,6374.0,0.681,0.392,0.052,0.617
1293254,2658.0,5440.0,5558.0,0.689,0.385,0.039,0.613
1293271,2808.0,4936.0,4884.0,0.697,0.379,0.025,0.608
1293287,3080.0,5066.0,4502.0,0.705,0.375,0.012,0.602
1293303,3184.0,5096.0,4148.0,0.713,0.37,0.0,0.595
1293319,3178.0,5314.0,4186.0,0.721,0.367,-0.011,0.587
1293336,3182.0,5218.0,4006.0,0.729,0.363,-0.023,0.58
1293353,3110.0,4856.0,4360.0,0.737,0.359,-0.035,0.572
1293369,3108.0,3948.0,4524.0,0.744,0.354,-0.047,0.565
1293385,3392.0,3210.0,4986.0,0.751,0.349,-0.058,0.558
1293412,3902.0,2546.0,5722.0,0.758,0.343,-0.069,0.551
1293429,4710.0,2192.0,6932.0,0.764,0.335,-0.08,0.545
1293446,4764.0,1046.0,7744.0,0.77,0.325,-0.091,0.541
1293463,4356.0,1292.0,7686.0,0.775,0.314,-0.101,0.539
1293479,3246.0,1006.0,7480.0,0.78,0.302,-0.111,0.537
1293495,2696.0,1884.0,7356.0,0.783,0.291,-0.121,0.536
1293511,2732.0,1038.0,7360.0,0.786,0.28,-0.131,0.535
1293537,2970.0,460.0,7300.0,0.789,0.271,-0.141,0.533
1293554,3004.0,620.0,7210.0,0.791,0.266,-0.149,0.531
1293571,2976.0,152.0,7122.0,0.792,0.263,-0.155,0.528
1293588,3302.0,442.0,6732.0,0.793,0.263,-0.161,0.526
1293604,3864.0,824.0,6510.0,0.793,0.265,-0.166,0.523
1293621,4408.0,1220.0,6886.0,0.794,0.266,-0.169,0.52
1293637,4838.0,630.0,7220.0,0.794,0.268,-0.172,0.518
1293653,5068.0,928.0,6814.0,0.794,0.269,-0.173,0.517
1293670,5068.0,1904.0,6762.0,0.795,0.269,-0.173,0.516
1293696,4582.0,1210.0,7210.0,0.796,0.267,-0.173,0.515
1293712,4458.0,656.0,7616.0,0.797,0.265,-0.174,0.515
1293729,4854.0,558.0,7828.0,0.797,0.264,-0.174,0.515
1293745,4566.0,1692.0,7114.0,0.797,0.264,-0.174,0.515
1293762,4096.0,1902.0,6674.0,0.796,0.263,-0.174,0.516
1293779,3506.0,1682.0,6168.0,0.796,0.262,-0.174,0.517
1293795,3446.0,1752.0,6710.0,0.796,0.262,-0.175,0.517
1293811,3732.0,1988.0,6418.0,0.796,0.263,-0.175,0.517
1293828,3966.0,2164.0,6838.0,0.795,0.263,-0.176,0.517
1293845,4186.0,1692.0,6760.0,0.795,0.263,-0.178,0.516
1293863,4302.0,1142.0,6974.0,0.795,0.264,-0.179,0.516
1293889,4532.0,900.0,7048.0,0.795,0.265,-0.18,0.515
1293905,4446.0,1168.0,7024.0,0.795,0.267,-0.181,0.514
1293921,4478.0,2152.0,6844.0,0.795,0.27,-0.181,0.512
1293937,4356.0,2140.0,6816.0,0.796,0.271,-0.181,0.511
1293954,4396.0,1958.0,6788.0,0.796,0.272,-0.182,0.509
1293971,4424.0,1848.0,6832.0,0.797,0.273,-0.183,0.507
1293987,4512.0,1746.0,6980.0,0.798,0.274,-0.184,0.505
1294014,4338.0,1792.0,7012.0,0.798,0.275,-0.183,0.503
1294031,4390.0,2224.0,6918.0,0.799,0.276,-0.183,0.502
1294047,4244.0,1938.0,6840.0,0.8,0.277,-0.183,0.5
1294064,4264.0,1748.0,6704.0,0.8,0.278,-0.182,0.499
1294081,4344.0,1564.0,6690.0,0.801,0.279,-0.182,0.498
1294097,4360.0,1812.0,6504.0,0.801,0.28,-0.18,0.498
1294114,4592.0,2682.0,6176.0,0.801,0.281,-0.179,0.497
1294131,4604.0,2650.0,6010.0,0.802,0.28,-0.178,0.497
1294150,4846.0,3230.0,5922.0,0.804,0.277,-0.177,0.496
1294166,5002.0,3380.0,5698.0,0.806,0.271,-0.177,0.494
1294183,4686.0,3656.0,5462.0,0.81,0.264,-0.178,0.492
1294200,4446.0,2438.0,6622.0,0.815,0.254,-0.18,0.488
1294217,3814.0,1520.0,7004.0,0.82,0.244,-0.183,0.484
1294244,3838.0,1962.0,7374.0,0.825,0.235,-0.186,0.479
1294260,3448.0,1494.0,7550.0,0.829,0.227,-0.189,0.474
1294276,3326.0,732.0,7454.0,0.833,0.218,-0.193,0.47
1294293,3268.0,52.0,7488.0,0.837,0.212,-0.195,0.465
1294309,3506.0,-180.0,7380.0,0.84,0.207,-0.197,0.462
1294326,3692.0,-216.0,7596.0,0.842,0.203,-0.197,0.459
1294343,3448.0,-602.0,7706.0,0.844,0.201,-0.196,0.456
1294360,3450.0,-70.0,7518.0,0.846,0.199,-0.193,0.455
1294377,3518.0,-74.0,7330.0,0.848,0.198,-0.188,0.455
1294394,3430.0,-92.0,6936.0,0.849,0.196,-0.183,0.456
1294421,3402.0,1212.0,6650.0,0.849,0.196,-0.176,0.457
1294437,2868.0,2018.0,6800.0,0.85,0.194,-0.171,0.459
1294454,2802.0,2950.0,6484.0,0.85,0.192,-0.167,0.462
1294471,2874.0,2180.0,7358.0,0.85,0.186,-0.166,0.465
1294487,3206.0,1304.0,7680.0,0.85,0.179,-0.166,0.467
1294503,3014.0,978.0,8200.0,0.85,0.174,-0.168,0.469
1294520,3190.0,934.0,8196.0,0.85,0.169,-0.171,0.469
1294537,3508.0,634.0,7590.0,0.85,0.165,-0.174,0.469
1294553,3760.0,480.0,7466.0,0.851,0.162,-0.177,0.467
1294580,3842.0,388.0,7380.0,0.852,0.159,-0.18,0.465
1294597,3834.0,282.0,7288.0,0.854,0.157,-0.182,0.462
1294613,3704.0,34.0,7220.0,0.855,0.155,-0.184,0.459
1294629,3826.0,-146.0,7374.0,0.857,0.153,-0.184,0.456
1294645,3662.0,-568.0,7618.0,0.859,0.152,-0.184,0.453
1294661,3506.0,-932.0,7752.0,0.861,0.151,-0.182,0.451
1294677,3354.0,-944.0,7624.0,0.862,0.151,-0.179,0.45
1294704,3474.0,-462.0,7116.0,0.862,0.152,-0.174,0.45
1294720,3346.0,-118.0,6968.0,0.863,0.153,-0.168,0.452
1294737,3062.0,-512.0,7024.0,0.862,0.154,-0.161,0.455
1294754,3038.0,-384.0,7282.0,0.861,0.155,-0.154,0.459
1294770,3292.0,1060.0,7344.0,0.859,0.158,-0.145,0.465
1294787,2960.0,1098.0,7628.0,0.857,0.16,-0.137,0.471
1294803,2540.0,1404.0,7928.0,0.855,0.161,-0.131,0.476
1294819,2470.0,2252.0,7670.0,0.853,0.162,-0.126,0.48
1294845,2350.0,2420.0,7590.0,0.852,0.16,-0.124,0.483
1294862,2154.0,730.0,7650.0,0.851,0.158,-0.126,0.484
1294879,2354.0,494.0,7722.0,0.852,0.157,-0.128,0.483
1294895,2572.0,410.0,7902.0,0.853,0.156,-0.132,0.481
1294911,2576.0,130.0,8050.0,0.854,0.154,-0.136,0.478
1294927,2450.0,-196.0,7920.0,0.855,0.154,-0.14,0.474
1294944,2524.0,-302.0,7646.0,0.857,0.154,-0.144,0.471
1294961,2580.0,-416.0,7576.0,0.858,0.156,-0.147,0.468
1294987,2680.0,-878.0,7716.0,0.858,0.158,-0.148,0.466
1295003,2706.0,-1024.0,7838.0,0.858,0.163,-0.148,0.465
1295020,2874.0,-328.0,7616.0,0.857,0.169,-0.144,0.465
1295037,2946.0,112.0,7524.0,0.855,0.176,-0.139,0.468
1295053,3020.0,180.0,7456.0,0.852,0.184,-0.133,0.472
1295070,3140.0,982.0,7158.0,0.848,0.192,-0.125,0.477
1295087,3170.0,1826.0,7072.0,0.844,0.2,-0.116,0.484
1295103,3152.0,2112.0,7038.0,0.84,0.206,-0.108,0.491
1295120,3128.0,3340.0,6886.0,0.835,0.212,-0.099,0.498
1295147,3008.0,4076.0,6858.0,0.83,0.216,-0.092,0.505
1295163,2592.0,3660.0,7120.0,0.827,0.218,-0.088,0.511
1295180,2456.0,3634.0,7448.0,0.825,0.218,-0.086,0.515
1295196,2468.0,3140.0,7838.0,0.823,0.218,-0.086,0.517
1295213,2420.0,2736.0,7970.0,0.823,0.218,-0.087,0.517
1295229,2250.0,2276.0,8000.0,0.823,0.218,-0.09,0.517
1295245,2298.0,2306.0,7746.0,0.824,0.219,-0.093,0.515
1295261,2378.0,2154.0,7576.0,0.825,0.22,-0.097,0.512
1295287,2434.0,1996.0,7286.0,0.826,0.222,-0.101,0.509
1295303,2568.0,1996.0,7252.0,0.827,0.224,-0.104,0.505
1295320,2528.0,1806.0,7546.0,0.829,0.225,-0.107,0.5
1295336,2214.0,924.0,7996.0,0.831,0.228,-0.109,0.496
1295352,1914.0,992.0,8450.0,0.833,0.232,-0.11,0.491
1295369,2334.0,1570.0,7890.0,0.833,0.238,-0.111,0.486
1295386,2898.0,1760.0,7602.0,0.833,0.244,-0.112,0.484
1295403,3180.0,1472.0,7224.0,0.833,0.249,-0.111,0.482
1295430,3332.0,1724.0,6816.0,0.832,0.254,-0.11,0.481
1295446,3720.0,2326.0,6296.0,0.831,0.259,-0.107,0.481
1295462,4024.0,2300.0,6186.0,0.829,0.263,-0.102,0.483
1295479,3952.0,2912.0,6224.0,0.826,0.266,-0.096,0.487
1295496,3916.0,2912.0,6508.0,0.823,0.268,-0.089,0.492
1295512,3758.0,3090.0,6554.0,0.82,0.27,-0.081,0.499
1295528,3592.0,3782.0,6732.0,0.816,0.271,-0.072,0.506
1295544,3100.0,4350.0,7046.0,0.812,0.272,-0.065,0.513
1295571,2684.0,4492.0,7026.0,0.808,0.271,-0.06,0.519
1295587,2708.0,3786.0,7018.0,0.805,0.27,-0.058,0.524
1295603,2562.0,3090.0,7024.0,0.803,0.269,-0.057,0.529
1295620,2490.0,2860.0,7152.0,0.802,0.267,-0.057,0.532
1295636,2266.0,2706.0,7304.0,0.801,0.266,-0.058,0.534
1295653,2202.0,2858.0,7286.0,0.8,0.265,-0.059,0.534
1295670,2042.0,2488.0,7448.0,0.801,0.264,-0.061,0.534
1295686,1760.0,2348.0,7816.0,0.801,0.264,-0.064,0.533
1295713,1558.0,1906.0,8162.0,0.802,0.266,-0.067,0.53
1295729,1984.0,2118.0,8012.0,0.803,0.269,-0.071,0.527
1295745,2124.0,1984.0,7482.0,0.803,0.274,-0.075,0.523
1295761,2882.0,2136.0,7062.0,0.804,0.279,-0.078,0.519
1295777,3110.0,2354.0,6610.0,0.804,0.285,-0.079,0.515
1295793,3354.0,2790.0,6550.0,0.805,0.29,-0.079,0.512
1295819,3418.0,2896.0,6442.0,0.805,0.295,-0.078,0.509
1295836,3794.0,3214.0,6346.0,0.804,0.299,-0.076,0.508
1295853,4148.0,3274.0,6076.0,0.803,0.302,-0.073,0.508
1295869,3916.0,3910.0,6234.0,0.802,0.304,-0.069,0.509
1295885,3334.0,3942.0,6748.0,0.801,0.305,-0.065,0.511
1295902,3342.0,3630.0,6910.0,0.799,0.306,-0.062,0.513
1295919,3362.0,3256.0,6826.0,0.798,0.307,-0.059,0.516
1295935,3238.0,3352.0,6802.0,0.795,0.309,-0.056,0.518
1295952,2768.0,3846.0,7000.0,0.793,0.311,-0.053,0.521
1295969,2408.0,3768.0,7104.0,0.791,0.312,-0.052,0.523
1295996,2576.0,3400.0,6988.0,0.79,0.314,-0.053,0.525
1296012,2626.0,3202.0,6814.0,0.788,0.315,-0.054,0.526
1296028,2838.0,3092.0,6634.0,0.787,0.317,-0.055,0.527
1296044,2882.0,3148.0,6616.0,0.785,0.319,-0.056,0.527
1296060,2928.0,3386.0,6626.0,0.784,0.321,-0.057,0.528
1296076,3188.0,3524.0,6562.0,0.784,0.322,-0.058,0.528
1296093,3340.0,3552.0,6504.0,0.783,0.324,-0.058,0.528
1296120,3466.0,3670.0,6444.0,0.782,0.325,-0.057,0.529
1296136,3478.0,3764.0,6492.0,0.781,0.327,-0.055,0.529
1296152,3436.0,3838.0,6432.0,0.78,0.328,-0.053,0.53
1296168,3310.0,3990.0,6458.0,0.779,0.329,-0.051,0.531
1296184,3392.0,3966.0,6454.0,0.778,0.33,-0.049,0.532
1296200,3430.0,4046.0,6416.0,0.777,0.33,-0.047,0.533
1296217,3442.0,3962.0,6432.0,0.777,0.331,-0.045,0.535
1296244,3272.0,3932.0,6516.0,0.776,0.33,-0.043,0.536
1296260,2844.0,3814.0,6706.0,0.775,0.33,-0.042,0.537
1296277,2700.0,3666.0,6748.0,0.775,0.33,-0.042,0.537
1296294,2872.0,3448.0,6564.0,0.774,0.331,-0.043,0.537
1296311,2822.0,3262.0,6422.0,0.774,0.332,-0.043,0.537
1296327,2794.0,3502.0,6492.0,0.773,0.334,-0.042,0.537
1296344,2684.0,3768.0,6616.0,0.773,0.335,-0.04,0.537
1296360,2634.0,4082.0,6806.0,0.773,0.338,-0.038,0.536
1296386,2668.0,4232.0,6748.0,0.772,0.34,-0.035,0.536
1296402,2592.0,4320.0,6774.0,0.772,0.342,-0.032,0.535
1296418,2566.0,4316.0,6554.0,0.772,0.344,-0.03,0.534
1296435,2632.0,4490.0,6584.0,0.771,0.345,-0.027,0.534
1296452,2590.0,4408.0,6464.0,0.772,0.346,-0.025,0.533
1296469,2716.0,4438.0,6466.0,0.772,0.347,-0.024,0.533
1296486,2806.0,4698.0,6314.0,0.772,0.347,-0.023,0.532
1296503,2814.0,4948.0,6242.0,0.773,0.345,-0.023,0.532
1296520,2892.0,4682.0,6082.0,0.774,0.343,-0.025,0.532
1296536,2938.0,4718.0,6122.0,0.775,0.34,-0.029,0.532
1296562,3112.0,4554.0,6080.0,0.776,0.335,-0.034,0.532
1296578,3244.0,4214.0,6080.0,0.778,0.33,-0.04,0.533
1296595,3388.0,4290.0,6088.0,0.78,0.324,-0.047,0.534
1296611,3430.0,3854.0,6216.0,0.781,0.317,-0.056,0.535
1296628,3622.0,3204.0,6368.0,0.783,0.309,-0.064,0.536
1296645,3756.0,2898.0,6492.0,0.785,0.302,-0.073,0.536
1296662,3912.0,2634.0,6618.0,0.787,0.294,-0.081,0.536
1296679,3948.0,2416.0,6784.0,0.789,0.287,-0.088,0.537
1296695,3898.0,2390.0,6832.0,0.79,0.28,-0.093,0.537
1296721,3746.0,2168.0,6860.0,0.792,0.274,-0.096,0.537
1296737,3498.0,1932.0,6908.0,0.794,0.268,-0.098,0.536
1296754,3358.0,1686.0,6974.0,0.796,0.264,-0.098,0.536
1296771,3176.0,1566.0,7152.0,0.798,0.262,-0.097,0.535
1296787,3096.0,1588.0,7368.0,0.799,0.26,-0.094,0.534
1296803,2946.0,1780.0,7580.0,0.8,0.26,-0.089,0.533
1296820,2730.0,2158.0,7856.0,0.801,0.261,-0.083,0.533
1296837,2548.0,2568.0,7918.0,0.801,0.263,-0.078,0.532
1296863,2582.0,2548.0,7636.0,0.801,0.265,-0.073,0.532
1296879,2614.0,2580.0,7434.0,0.801,0.267,-0.069,0.531
1296895,2524.0,2402.0,7190.0,0.801,0.269,-0.065,0.531
1296911,2516.0,2540.0,7036.0,0.8,0.27,-0.063,0.531
1296928,2612.0,2986.0,6772.0,0.8,0.272,-0.061,0.531
1296945,2674.0,2982.0,6774.0,0.8,0.273,-0.06,0.531
1296962,2714.0,2902.0,6714.0,0.8,0.273,-0.061,0.531
1296978,2856.0,2784.0,6744.0,0.8,0.272,-0.063,0.531
1297004,2994.0,2742.0,6842.0,0.8,0.271,-0.066,0.531
1297020,3132.0,2688.0,6974.0,0.8,0.27,-0.069,0.531
1297036,3258.0,2568.0,7156.0,0.8,0.268,-0.073,0.532
1297052,3438.0,2468.0,7130.0,0.8,0.266,-0.077,0.533
1297069,3554.0,2322.0,7204.0,0.799,0.265,-0.081,0.534
1297085,3662.0,2184.0,7224.0,0.798,0.263,-0.085,0.535
1297111,3788.0,1992.0,7190.0,0.798,0.263,-0.087,0.536
1297127,3682.0,2010.0,7188.0,0.797,0.263,-0.088,0.537
1297143,3624.0,2118.0,7122.0,0.796,0.264,-0.087,0.538
1297160,3562.0,2162.0,7026.0,0.795,0.265,-0.086,0.539
1297177,3452.0,2204.0,7032.0,0.794,0.268,-0.083,0.54
1297193,3292.0,2392.0,7054.0,0.792,0.271,-0.079,0.541
1297209,3094.0,2616.0,7076.0,0.791,0.275,-0.074,0.542
1297226,2972.0,2768.0,7178.0,0.789,0.278,-0.069,0.543
1297252,2848.0,2904.0,7226.0,0.788,0.282,-0.065,0.544
1297269,2732.0,3104.0,7152.0,0.786,0.286,-0.06,0.545
1297286,2646.0,3110.0,6966.0,0.784,0.289,-0.057,0.546
1297302,2652.0,3160.0,6796.0,0.782,0.292,-0.054,0.547
1297318,2590.0,3386.0,6788.0,0.781,0.296,-0.051,0.548
1297335,2632.0,3572.0,6688.0,0.779,0.298,-0.05,0.549
1297351,2742.0,3594.0,6598.0,0.778,0.301,-0.049,0.55
1297377,2990.0,3728.0,6628.0,0.776,0.303,-0.048,0.551
1297393,3054.0,3776.0,6652.0,0.775,0.305,-0.047,0.552
1297409,3156.0,3808.0,6670.0,0.774,0.306,-0.047,0.553
1297425,3026.0,3796.0,6776.0,0.773,0.307,-0.047,0.554
1297442,3108.0,3794.0,6692.0,0.772,0.307,-0.047,0.554
1297458,3062.0,3692.0,6648.0,0.771,0.308,-0.046,0.555
1297474,3090.0,3690.0,6660.0,0.771,0.308,-0.046,0.556
1297500,3044.0,3684.0,6650.0,0.77,0.308,-0.046,0.556
1297517,2970.0,3718.0,6734.0,0.77,0.308,-0.046,0.556
1297534,2890.0,3568.0,6858.0,0.77,0.308,-0.046,0.556
1297551,2968.0,3534.0,6846.0,0.77,0.308,-0.046,0.556
1297568,2900.0,3446.0,6784.0,0.771,0.308,-0.046,0.556
1297585,3012.0,3476.0,6742.0,0.771,0.308,-0.046,0.556
1297602,3034.0,3458.0,6678.0,0.771,0.307,-0.046,0.556
1297619,3058.0,3470.0,6664.0,0.771,0.306,-0.047,0.556
1297635,3046.0,3400.0,6650.0,0.771,0.306,-0.047,0.556
1297652,3082.0,3378.0,6662.0,0.771,0.305,-0.048,0.557
1297669,3164.0,3270.0,6690.0,0.772,0.304,-0.049,0.557
1297695,3138.0,3194.0,6742.0,0.772,0.303,-0.049,0.557
1297711,3142.0,3228.0,6790.0,0.772,0.302,-0.05,0.557
1297727,3206.0,3128.0,6806.0,0.772,0.301,-0.051,0.558
1297743,3248.0,3150.0,6784.0,0.772,0.3,-0.051,0.558
1297759,3188.0,3100.0,6812.0,0.772,0.299,-0.051,0.558
1297775,3204.0,3112.0,6796.0,0.772,0.298,-0.051,0.558
1297801,3180.0,3042.0,6870.0,0.773,0.298,-0.051,0.558
1297818,3204.0,3020.0,6896.0,0.773,0.298,-0.051,0.558
1297834,3158.0,2980.0,6876.0,0.773,0.297,-0.051,0.558
1297851,3150.0,2920.0,6842.0,0.773,0.297,-0.05,0.559
1297867,3128.0,2982.0,6826.0,0.773,0.297,-0.049,0.559
1297883,3098.0,3006.0,6878.0,0.772,0.297,-0.048,0.559
1297899,3118.0,3076.0,6880.0,0.772,0.298,-0.047,0.56
1297926,3054.0,3154.0,6886.0,0.772,0.298,-0.046,0.56
1297942,3046.0,3276.0,6802.0,0.771,0.298,-0.045,0.561
1297958,2998.0,3232.0,6850.0,0.77,0.299,-0.044,0.561
1297974,3018.0,3296.0,6850.0,0.77,0.3,-0.044,0.562
1297990,2964.0,3346.0,6788.0,0.769,0.3,-0.043,0.563
1298006,2886.0,3470.0,6860.0,0.768,0.301,-0.043,0.564
1298032,2922.0,3564.0,6842.0,0.767,0.302,-0.043,0.564
1298049,2964.0,3438.0,6772.0,0.767,0.302,-0.043,0.565
1298065,3034.0,3434.0,6676.0,0.766,0.303,-0.043,0.566
1298081,3044.0,3516.0,6718.0,0.765,0.303,-0.043,0.566
1298097,3106.0,3536.0,6664.0,0.765,0.303,-0.043,0.567
1298114,3198.0,3524.0,6728.0,0.765,0.303,-0.044,0.567
1298131,3250.0,3510.0,6652.0,0.765,0.302,-0.044,0.567
1298147,3294.0,3436.0,6640.0,0.765,0.302,-0.045,0.567
1298173,3254.0,3456.0,6688.0,0.765,0.301,-0.045,0.568
1298189,3204.0,3250.0,6690.0,0.766,0.299,-0.046,0.568
1298205,3168.0,3222.0,6718.0,0.766,0.298,-0.046,0.568
1298221,3118.0,3122.0,6798.0,0.767,0.296,-0.047,0.568
1298237,3050.0,3088.0,6846.0,0.767,0.295,-0.047,0.568
1298253,3000.0,3192.0,6872.0,0.768,0.293,-0.047,0.568
1298280,2904.0,3140.0,6922.0,0.768,0.292,-0.047,0.568
1298296,2816.0,3172.0,6954.0,0.769,0.291,-0.047,0.568
1298312,2594.0,3222.0,6964.0,0.769,0.29,-0.048,0.568
1298328,2344.0,3178.0,7010.0,0.769,0.289,-0.048,0.568
1298344,2248.0,3484.0,7078.0,0.769,0.288,-0.05,0.569
1298361,2328.0,3602.0,7140.0,0.769,0.288,-0.052,0.569
1298377,2394.0,3660.0,7156.0,0.768,0.287,-0.055,0.569
1298403,2500.0,3536.0,7106.0,0.768,0.287,-0.059,0.57
1298419,2672.0,3584.0,7026.0,0.767,0.287,-0.064,0.57
1298435,2904.0,3284.0,6856.0,0.767,0.286,-0.069,0.571
1298451,3120.0,3172.0,6708.0,0.766,0.285,-0.074,0.571
1298467,3270.0,3122.0,6582.0,0.766,0.284,-0.08,0.571
1298483,3554.0,2912.0,6562.0,0.767,0.282,-0.086,0.571
1298510,3694.0,2718.0,6510.0,0.767,0.279,-0.092,0.57
1298526,3822.0,2596.0,6534.0,0.768,0.276,-0.097,0.57
1298542,3888.0,2526.0,6498.0,0.769,0.272,-0.102,0.57
1298558,3976.0,2456.0,6526.0,0.77,0.268,-0.106,0.57
1298574,3848.0,2386.0,6676.0,0.771,0.263,-0.109,0.57
1298590,3848.0,2226.0,6776.0,0.772,0.258,-0.113,0.569
1298616,3922.0,2018.0,6864.0,0.774,0.253,-0.116,0.569
1298633,4098.0,2038.0,6874.0,0.775,0.248,-0.119,0.568
1298649,4014.0,1864.0,6712.0,0.777,0.243,-0.121,0.568
1298666,3988.0,1674.0,6782.0,0.779,0.237,-0.122,0.567
1298682,3892.0,1772.0,6866.0,0.782,0.231,-0.124,0.566
1298699,3866.0,1670.0,6916.0,0.784,0.225,-0.126,0.564
1298716,3796.0,1334.0,7212.0,0.787,0.218,-0.127,0.563
1298733,3718.0,1166.0,7266.0,0.79,0.211,-0.129,0.561
1298749,3664.0,866.0,7382.0,0.792,0.205,-0.131,0.559
1298766,3630.0,700.0,7444.0,0.795,0.199,-0.133,0.558
1298793,3668.0,468.0,7504.0,0.797,0.194,-0.134,0.556
1298809,3460.0,246.0,7510.0,0.8,0.189,-0.134,0.554
1298825,3274.0,268.0,7580.0,0.802,0.185,-0.134,0.552
1298841,3148.0,154.0,7612.0,0.804,0.182,-0.134,0.551
1298857,3086.0,122.0,7642.0,0.805,0.18,-0.133,0.55
1298874,3014.0,188.0,7696.0,0.805,0.179,-0.132,0.549
1298890,2926.0,162.0,7740.0,0.806,0.179,-0.131,0.549
1298916,2910.0,448.0,7644.0,0.805,0.18,-0.13,0.55
1298932,2942.0,596.0,7554.0,0.805,0.182,-0.128,0.55
1298948,2932.0,778.0,7562.0,0.804,0.184,-0.126,0.551
1298964,3046.0,966.0,7520.0,0.803,0.186,-0.125,0.552
1298980,3120.0,1086.0,7444.0,0.802,0.188,-0.123,0.553
1298997,3204.0,1182.0,7442.0,0.801,0.19,-0.122,0.554
1299014,3276.0,1322.0,7402.0,0.8,0.193,-0.121,0.555
1299041,3222.0,1482.0,7412.0,0.799,0.195,-0.12,0.556
1299057,3266.0,1566.0,7294.0,0.799,0.196,-0.119,0.556
1299073,3242.0,1624.0,7268.0,0.798,0.198,-0.118,0.557
1299089,3258.0,1692.0,7244.0,0.798,0.2,-0.116,0.557
1299105,3230.0,1816.0,7290.0,0.797,0.201,-0.115,0.557
1299121,3144.0,1900.0,7306.0,0.797,0.202,-0.114,0.557
1299147,3116.0,1832.0,7348.0,0.797,0.203,-0.113,0.557
1299164,3094.0,1830.0,7334.0,0.797,0.203,-0.112,0.557
1299181,3016.0,1832.0,7412.0,0.798,0.204,-0.111,0.557
1299198,2970.0,1804.0,7350.0,0.798,0.204,-0.11,0.557
1299215,2860.0,1836.0,7348.0,0.798,0.203,-0.109,0.557
1299232,2814.0,1714.0,7432.0,0.798,0.203,-0.108,0.557
1299249,2784.0,1776.0,7430.0,0.799,0.203,-0.108,0.556
1299266,2780.0,1666.0,7450.0,0.799,0.203,-0.108,0.556
1299283,2786.0,1708.0,7490.0,0.799,0.202,-0.107,0.556
1299300,2834.0,1668.0,7520.0,0.799,0.202,-0.107,0.556
1299316,2888.0,1628.0,7484.0,0.799,0.202,-0.107,0.555
1299342,2952.0,1608.0,7446.0,0.8,0.202,-0.107,0.555
1299358,3000.0,1698.0,7372.0,0.8,0.202,-0.107,0.555
1299374,3046.0,1614.0,7386.0,0.8,0.202,-0.107,0.555
1299390,3116.0,1538.0,7384.0,0.8,0.202,-0.106,0.555
1299406,3132.0,1574.0,7388.0,0.8,0.202,-0.106,0.555
1299422,3118.0,1574.0,7340.0,0.8,0.202,-0.106,0.555
1299448,3136.0,1500.0,7350.0,0.8,0.201,-0.106,0.555
1299464,3142.0,1516.0,7388.0,0.8,0.201,-0.105,0.555
1299480,3068.0,1544.0,7394.0,0.8,0.201,-0.105,0.555
1299497,3092.0,1460.0,7362.0,0.8,0.201,-0.104,0.556
1299513,3108.0,1406.0,7370.0,0.8,0.201,-0.104,0.556
1299529,3152.0,1402.0,7368.0,0.8,0.201,-0.103,0.556
1299545,3012.0,1584.0,7410.0,0.8,0.201,-0.102,0.556
1299571,2912.0,1536.0,7510.0,0.8,0.201,-0.101,0.557
1299587,2837.0,1472.0,7462.0,0.8,0.201,-0.1,0.557
1299603,2903.0,1202.0,7434.0,0.799,0.201,-0.099,0.557
1299619,2793.0,1542.0,7472.0,0.799,0.202,-0.098,0.557
1299635,2679.0,1630.0,7528.0,0.799,0.203,-0.097,0.557
1299651,2677.0,1538.0,7596.0,0.799,0.204,-0.097,0.557
1299677,2721.0,1684.0,7564.0,0.799,0.206,-0.096,0.557
1299694,2801.0,1678.0,7522.0,0.799,0.207,-0.095,0.557
1299710,2915.0,1838.0,7498.0,0.798,0.209,-0.095,0.557
1299726,3011.0,1932.0,7454.0,0.798,0.211,-0.095,0.557
1299742,3047.0,1984.0,7324.0,0.797,0.212,-0.094,0.557
1299758,3123.0,2020.0,7230.0,0.797,0.213,-0.094,0.558
1299784,3101.0,2092.0,7214.0,0.796,0.214,-0.093,0.558
1299800,3163.0,2142.0,7212.0,0.796,0.215,-0.093,0.558
1299817,3095.0,2170.0,7252.0,0.796,0.216,-0.093,0.558
1299834,3097.0,2152.0,7208.0,0.796,0.216,-0.093,0.558
1299851,3083.0,2134.0,7268.0,0.795,0.216,-0.093,0.559
1299868,3035.0,2054.0,7340.0,0.795,0.216,-0.093,0.559
1299884,2941.0,2030.0,7336.0,0.796,0.215,-0.093,0.559
1299901,2931.0,2020.0,7386.0,0.796,0.215,-0.093,0.559
1299917,2853.0,1902.0,7406.0,0.796,0.214,-0.094,0.559
1299934,2889.0,1876.0,7414.0,0.796,0.214,-0.094,0.559
1299961,2907.0,1790.0,7354.0,0.796,0.214,-0.095,0.559
1299977,2939.0,1786.0,7330.0,0.796,0.213,-0.095,0.559
1299993,2977.0,1788.0,7336.0,0.796,0.213,-0.095,0.559
1300009,3069.0,1792.0,7310.0,0.796,0.213,-0.095,0.559
1300025,3077.0,1778.0,7352.0,0.796,0.212,-0.096,0.559
1300041,3173.0,1714.0,7286.0,0.796,0.212,-0.096,0.56
1300067,3101.0,1846.0,7316.0,0.795,0.211,-0.095,0.56
1300084,3099.0,1770.0,7358.0,0.795,0.21,-0.095,0.56
1300101,3079.0,1818.0,7396.0,0.795,0.21,-0.095,0.561
1300117,3064.0,1700.0,7386.0,0.795,0.209,-0.095,0.561
1300133,3034.0,1714.0,7392.0,0.795,0.208,-0.095,0.562
1300149,2998.0,1654.0,7378.0,0.795,0.208,-0.095,0.562
1300165,2966.0,1646.0,7486.0,0.795,0.208,-0.095,0.562
1300191,2980.0,1630.0,7416.0,0.795,0.207,-0.095,0.562
1300207,2938.0,1644.0,7354.0,0.795,0.207,-0.095,0.562
1300223,2914.0,1610.0,7388.0,0.796,0.207,-0.095,0.562
1300239,2868.0,1633.0,7352.0,0.796,0.207,-0.094,0.561
1300255,2867.0,1618.0,7411.0,0.796,0.207,-0.094,0.561
1300281,2849.0,1626.0,7421.0,0.796,0.207,-0.094,0.561
1300297,2892.0,1728.0,7517.0,0.796,0.207,-0.093,0.561
1300313,2820.0,1758.0,7399.0,0.796,0.208,-0.093,0.561
1300329,2862.0,1736.0,7395.0,0.796,0.208,-0.092,0.561
1300345,2902.0,1860.0,7377.0,0.796,0.209,-0.092,0.561
1300361,2936.0,1886.0,7375.0,0.796,0.209,-0.091,0.561
1300377,3052.0,1930.0,7351.0,0.796,0.209,-0.091,0.561
1300403,3100.0,1898.0,7335.0,0.796,0.21,-0.09,0.56
1300420,3132.0,1886.0,7351.0,0.797,0.21,-0.09,0.56
1300436,3180.0,1846.0,7285.0,0.797,0.209,-0.089,0.559
1300453,3186.0,1804.0,7307.0,0.798,0.209,-0.089,0.558
1300469,3142.0,1796.0,7325.0,0.799,0.209,-0.088,0.557
1300485,3086.0,1738.0,7373.0,0.8,0.208,-0.088,0.556
1300501,3020.0,1726.0,7333.0,0.801,0.208,-0.087,0.554
1300527,2922.0,1694.0,7293.0,0.803,0.207,-0.086,0.552
1300543,2784.0,1864.0,7323.0,0.804,0.207,-0.085,0.55
1300559,2616.0,1738.0,7445.0,0.806,0.207,-0.084,0.549
1300575,2492.0,1784.0,7673.0,0.807,0.208,-0.083,0.546
1300591,2470.0,1824.0,7755.0,0.808,0.21,-0.082,0.544
1300607,2380.0,1690.0,7857.0,0.809,0.212,-0.081,0.542
1300633,2470.0,1810.0,7641.0,0.809,0.215,-0.081,0.541
1300649,2500.0,1972.0,7447.0,0.809,0.218,-0.08,0.54
1300665,2638.0,1992.0,7205.0,0.809,0.221,-0.079,0.539
1300681,2668.0,2170.0,7089.0,0.809,0.223,-0.079,0.538
1300697,2784.0,2268.0,7045.0,0.808,0.226,-0.078,0.538
1300713,2854.0,2414.0,7137.0,0.808,0.227,-0.077,0.538
1300739,2792.0,2482.0,7293.0,0.807,0.229,-0.076,0.539
1300755,2936.0,2614.0,7209.0,0.806,0.23,-0.075,0.54
1300771,2956.0,2756.0,7171.0,0.805,0.231,-0.074,0.541
1300787,2938.0,2846.0,7169.0,0.804,0.232,-0.073,0.543
1300803,2864.0,2828.0,7195.0,0.803,0.232,-0.072,0.544
1300820,2882.0,2724.0,7241.0,0.802,0.232,-0.072,0.546
1300837,2912.0,2664.0,7193.0,0.801,0.232,-0.071,0.547
1300864,2954.0,2640.0,7187.0,0.801,0.231,-0.071,0.548
1300880,2860.0,2568.0,7185.0,0.801,0.23,-0.071,0.549
1300896,2898.0,2484.0,7205.0,0.801,0.229,-0.072,0.549
1300912,2844.0,2398.0,7207.0,0.801,0.228,-0.072,0.549
1300928,2790.0,2330.0,7309.0,0.801,0.226,-0.073,0.549
1300944,2794.0,2300.0,7343.0,0.802,0.224,-0.073,0.549
1300970,2762.0,2184.0,7343.0,0.802,0.223,-0.073,0.549
1300986,2744.0,2190.0,7343.0,0.803,0.221,-0.074,0.549
1301002,2782.0,2140.0,7333.0,0.803,0.22,-0.074,0.549
1301018,2698.0,2144.0,7351.0,0.803,0.218,-0.074,0.549
1301034,2684.0,2036.0,7333.0,0.804,0.217,-0.074,0.549
1301050,2686.0,1992.0,7385.0,0.804,0.215,-0.074,0.55
1301076,2696.0,2004.0,7447.0,0.804,0.214,-0.075,0.55
1301092,2664.0,1994.0,7531.0,0.804,0.213,-0.075,0.55
1301108,2612.0,1944.0,7557.0,0.804,0.212,-0.075,0.55
1301124,2690.0,1882.0,7513.0,0.804,0.211,-0.076,0.551
1301140,2728.0,1936.0,7451.0,0.804,0.211,-0.077,0.551
1301156,2816.0,1928.0,7417.0,0.804,0.211,-0.078,0.551
1301182,2912.0,1916.0,7335.0,0.804,0.211,-0.079,0.551
1301198,2980.0,1926.0,7349.0,0.804,0.211,-0.08,0.551
1301214,3076.0,1874.0,7397.0,0.804,0.211,-0.081,0.55
1301231,3112.0,1880.0,7409.0,0.804,0.211,-0.082,0.55
1301247,3068.0,1634.0,7435.0,0.804,0.211,-0.083,0.549
1301263,3200.0,1600.0,7317.0,0.805,0.212,-0.085,0.548
1301289,3102.0,1452.0,7399.0,0.805,0.212,-0.086,0.547
1301305,2952.0,1456.0,7421.0,0.805,0.213,-0.087,0.547
1301321,2868.0,1434.0,7469.0,0.805,0.214,-0.088,0.546
1301337,2804.0,1380.0,7461.0,0.805,0.216,-0.089,0.545
1301353,2828.0,1386.0,7495.0,0.805,0.219,-0.089,0.545
1301369,2812.0,1598.0,7409.0,0.804,0.222,-0.089,0.544
1301395,2862.0,1810.0,7371.0,0.803,0.226,-0.089,0.544
1301411,2900.0,2108.0,7251.0,0.802,0.23,-0.088,0.544
1301427,3030.0,2332.0,7215.0,0.8,0.234,-0.087,0.545
1301443,3016.0,2384.0,7159.0,0.799,0.237,-0.086,0.546
1301459,3042.0,2518.0,7155.0,0.797,0.24,-0.085,0.547
1301475,3038.0,2620.0,7135.0,0.795,0.243,-0.084,0.549
1301501,3026.0,2532.0,7185.0,0.793,0.246,-0.083,0.55
1301517,3074.0,2474.0,7235.0,0.791,0.25,-0.081,0.552
1301533,3290.0,2598.0,7127.0,0.788,0.255,-0.079,0.554
1301549,3444.0,2608.0,6967.0,0.785,0.26,-0.076,0.556
1301565,3348.0,2634.0,7041.0,0.783,0.266,-0.073,0.558
1301581,3370.0,2880.0,7041.0,0.78,0.272,-0.069,0.559
1301607,3618.0,3416.0,6665.0,0.777,0.279,-0.066,0.561
1301623,3666.0,3758.0,6371.0,0.775,0.283,-0.063,0.562
1301639,3536.0,3436.0,6449.0,0.773,0.286,-0.06,0.562
1301655,3288.0,3388.0,6437.0,0.772,0.288,-0.058,0.563
1301671,3256.0,3500.0,6431.0,0.772,0.289,-0.056,0.564
1301697,3114.0,3454.0,6511.0,0.772,0.288,-0.054,0.564
1301713,3038.0,3392.0,6627.0,0.772,0.287,-0.052,0.564
1301729,2980.0,3406.0,6705.0,0.773,0.286,-0.051,0.565
1301745,2840.0,3402.0,6763.0,0.774,0.284,-0.05,0.565
1301761,2684.0,3278.0,6927.0,0.775,0.281,-0.05,0.564
1301777,2626.0,3154.0,7153.0,0.776,0.279,-0.05,0.564
1301793,2628.0,3018.0,7259.0,0.777,0.277,-0.051,0.564
1301819,2614.0,2894.0,7305.0,0.778,0.275,-0.053,0.563
1301835,2774.0,2812.0,7143.0,0.778,0.275,-0.055,0.562
1301851,2902.0,2654.0,6981.0,0.779,0.275,-0.057,0.561
1301867,3114.0,2668.0,6813.0,0.779,0.276,-0.06,0.56
1301883,3300.0,2704.0,6713.0,0.779,0.277,-0.062,0.559
1301899,3494.0,2734.0,6745.0,0.78,0.278,-0.064,0.558
1301925,3678.0,2712.0,6865.0,0.78,0.278,-0.067,0.557
1301941,3736.0,2654.0,6907.0,0.78,0.279,-0.068,0.556
1301957,3820.0,2598.0,6771.0,0.78,0.279,-0.07,0.556
1301973,3852.0,2626.0,6703.0,0.78,0.279,-0.07,0.556
1301989,3730.0,2680.0,6667.0,0.78,0.278,-0.07,0.556
1302005,3594.0,2782.0,6537.0,0.78,0.277,-0.069,0.557
1302031,3366.0,2826.0,6639.0,0.779,0.276,-0.068,0.558
1302047,3150.0,2724.0,6855.0,0.779,0.274,-0.067,0.56
1302063,3000.0,2872.0,7059.0,0.779,0.273,-0.065,0.562
1302079,2860.0,2982.0,7199.0,0.778,0.271,-0.063,0.564
1302095,2772.0,3000.0,7207.0,0.777,0.269,-0.061,0.566
1302111,2746.0,3058.0,7141.0,0.776,0.268,-0.06,0.568
1302137,2728.0,3124.0,7013.0,0.775,0.267,-0.059,0.57
1302153,2810.0,3226.0,6963.0,0.774,0.267,-0.059,0.572
1302170,2926.0,3234.0,6949.0,0.773,0.266,-0.059,0.573
1302186,3034.0,3112.0,6935.0,0.772,0.265,-0.059,0.574
1302202,2976.0,3062.0,7073.0,0.772,0.265,-0.06,0.575
1302218,2964.0,2944.0,7119.0,0.772,0.264,-0.061,0.575
1302235,3074.0,2876.0,7041.0,0.773,0.263,-0.062,0.574
1302262,3124.0,2856.0,7005.0,0.773,0.262,-0.064,0.574
1302278,3190.0,2788.0,7031.0,0.774,0.261,-0.066,0.573
1302294,3290.0,2658.0,6935.0,0.775,0.26,-0.069,0.572
1302310,3392.0,2656.0,6847.0,0.776,0.259,-0.071,0.571
1302326,3436.0,2574.0,6853.0,0.776,0.257,-0.074,0.571
1302342,3436.0,2466.0,6887.0,0.777,0.256,-0.076,0.571
1302368,3334.0,2232.0,6915.0,0.777,0.254,-0.078,0.571
1302384,3236.0,2250.0,6965.0,0.777,0.253,-0.079,0.571
1302400,3180.0,1988.0,7045.0,0.777,0.251,-0.08,0.571
1302416,3154.0,1932.0,7129.0,0.777,0.25,-0.08,0.572
1302432,3152.0,2036.0,7197.0,0.777,0.249,-0.08,0.573
1302458,3266.0,2200.0,7175.0,0.777,0.249,-0.079,0.573
1302474,3338.0,2390.0,7123.0,0.777,0.248,-0.078,0.574
1302490,3496.0,2594.0,7137.0,0.776,0.248,-0.077,0.574
1302506,3566.0,2806.0,7027.0,0.776,0.247,-0.076,0.575
1302522,3484.0,2684.0,7065.0,0.777,0.246,-0.075,0.575
1302538,3546.0,2594.0,7043.0,0.777,0.244,-0.075,0.575
1302554,3614.0,2310.0,6927.0,0.778,0.242,-0.074,0.575
1302580,3514.0,1938.0,6831.0,0.779,0.24,-0.072,0.574
1302596,3250.0,2038.0,6695.0,0.781,0.237,-0.07,0.573
1302612,2884.0,2104.0,6845.0,0.783,0.234,-0.066,0.572
1302628,2544.0,2208.0,7143.0,0.786,0.23,-0.063,0.571
1302644,2258.0,2328.0,7539.0,0.788,0.227,-0.06,0.569
1302660,2022.0,2416.0,7863.0,0.79,0.225,-0.058,0.568
1302686,1980.0,2326.0,8163.0,0.791,0.223,-0.056,0.567
1302702,1902.0,2334.0,8173.0,0.792,0.222,-0.056,0.566
1302718,1882.0,2280.0,7907.0,0.793,0.222,-0.055,0.564
1302734,1974.0,2172.0,7455.0,0.794,0.223,-0.056,0.563
1302750,2030.0,1936.0,7061.0,0.794,0.225,-0.057,0.562
1302766,2180.0,2078.0,6931.0,0.794,0.227,-0.058,0.561
1302792,2370.0,1952.0,7033.0,0.794,0.229,-0.06,0.56
1302808,2576.0,1930.0,7261.0,0.794,0.231,-0.062,0.559
1302824,2818.0,2012.0,7573.0,0.794,0.232,-0.064,0.559
1302841,3028.0,2248.0,7713.0,0.793,0.233,-0.066,0.558
1302857,3134.0,2372.0,7595.0,0.793,0.235,-0.068,0.558
1302873,3274.0,2336.0,7413.0,0.792,0.237,-0.069,0.559
1302899,3502.0,2592.0,7003.0,0.791,0.239,-0.069,0.559
1302916,3806.0,2722.0,6795.0,0.789,0.242,-0.07,0.56
1302932,3972.0,2970.0,6627.0,0.788,0.245,-0.07,0.561
1302948,4082.0,3194.0,6497.0,0.786,0.247,-0.07,0.563
1302964,4108.0,3228.0,6475.0,0.784,0.249,-0.069,0.565
1302981,4044.0,3092.0,6469.0,0.782,0.25,-0.069,0.567
1302997,3804.0,3048.0,6527.0,0.781,0.25,-0.068,0.569
1303023,3496.0,3000.0,6725.0,0.779,0.249,-0.068,0.571
1303040,3214.0,2776.0,6871.0,0.779,0.247,-0.068,0.573
1303056,2980.0,2566.0,7039.0,0.778,0.244,-0.068,0.575
1303073,2908.0,2330.0,7201.0,0.778,0.241,-0.069,0.577
1303090,2648.0,2484.0,7287.0,0.778,0.237,-0.07,0.578
1303106,2550.0,2164.0,7451.0,0.778,0.232,-0.072,0.58
1303122,2466.0,1944.0,7537.0,0.778,0.228,-0.074,0.581
1303138,2318.0,1732.0,7623.0,0.778,0.225,-0.075,0.582
1303164,2284.0,1766.0,7661.0,0.778,0.222,-0.076,0.582
1303180,2340.0,1924.0,7531.0,0.778,0.221,-0.077,0.583
1303196,2420.0,1640.0,7551.0,0.778,0.22,-0.077,0.583
1303212,2552.0,1560.0,7539.0,0.778,0.219,-0.078,0.583
1303228,2684.0,1706.0,7535.0,0.778,0.219,-0.077,0.584
1303244,2884.0,1814.0,7469.0,0.778,0.22,-0.076,0.584
1303270,3060.0,1916.0,7365.0,0.777,0.221,-0.075,0.584
1303286,3376.0,2094.0,7191.0,0.777,0.223,-0.073,0.584
1303302,3522.0,2168.0,7065.0,0.777,0.224,-0.071,0.584
1303318,3582.0,2392.0,6999.0,0.778,0.224,-0.069,0.583
1303334,3564.0,2400.0,6981.0,0.778,0.224,-0.067,0.583
1303350,3590.0,2528.0,7095.0,0.779,0.223,-0.065,0.583
1303376,3408.0,2424.0,7169.0,0.78,0.222,-0.063,0.582
1303392,3244.0,2454.0,7191.0,0.781,0.22,-0.062,0.582
1303408,3044.0,2346.0,7327.0,0.782,0.217,-0.061,0.581
1303424,2754.0,2406.0,7431.0,0.783,0.214,-0.061,0.581
1303440,2494.0,2154.0,7223.0,0.784,0.211,-0.061,0.58
1303466,2136.0,2044.0,7271.0,0.785,0.207,-0.061,0.58
1303483,2012.0,1718.0,7377.0,0.787,0.204,-0.062,0.579
1303500,1870.0,1386.0,7573.0,0.788,0.201,-0.064,0.578
1303516,1764.0,1206.0,7677.0,0.789,0.199,-0.065,0.577
1303532,1646.0,1254.0,7797.0,0.79,0.198,-0.066,0.576
1303549,1642.0,1204.0,7939.0,0.79,0.199,-0.067,0.576
1303566,1692.0,1302.0,7857.0,0.79,0.2,-0.068,0.575
1303582,1838.0,1566.0,7837.0,0.79,0.203,-0.069,0.575
1303598,2034.0,1602.0,7879.0,0.789,0.207,-0.069,0.574
1303624,2366.0,1900.0,7759.0,0.788,0.212,-0.069,0.574
1303640,2610.0,2148.0,7623.0,0.786,0.217,-0.069,0.574
1303656,2806.0,2434.0,7395.0,0.784,0.223,-0.07,0.574
1303672,3006.0,2434.0,7215.0,0.783,0.229,-0.071,0.575
1303688,3312.0,2426.0,7117.0,0.781,0.234,-0.072,0.575
1303714,3584.0,2636.0,6917.0,0.78,0.239,-0.073,0.575
1303730,3734.0,2658.0,6793.0,0.778,0.243,-0.074,0.575
1303747,3846.0,2862.0,6615.0,0.777,0.246,-0.075,0.575
1303763,3980.0,2752.0,6477.0,0.776,0.247,-0.077,0.575
1303780,4046.0,2622.0,6447.0,0.776,0.248,-0.078,0.575
1303796,3974.0,2516.0,6487.0,0.776,0.247,-0.08,0.575
1303813,3826.0,2678.0,6627.0,0.776,0.246,-0.081,0.575
1303830,3646.0,2496.0,6753.0,0.777,0.243,-0.082,0.575
1303846,3418.0,2524.0,6863.0,0.778,0.241,-0.083,0.574
1303872,3194.0,2628.0,7001.0,0.78,0.239,-0.084,0.573
1303888,2990.0,2416.0,7131.0,0.782,0.236,-0.085,0.571
1303904,2796.0,2300.0,7203.0,0.784,0.233,-0.087,0.569
1303920,2730.0,1980.0,7269.0,0.786,0.23,-0.089,0.566
1303936,2542.0,1670.0,7367.0,0.789,0.227,-0.092,0.563
1303952,2514.0,1518.0,7425.0,0.792,0.225,-0.095,0.56
1303978,2278.0,1306.0,7847.0,0.795,0.222,-0.098,0.556
1303994,2144.0,1104.0,8105.0,0.797,0.22,-0.101,0.553
1304010,2200.0,1046.0,8119.0,0.799,0.22,-0.105,0.55
1304026,2334.0,1088.0,7969.0,0.8,0.222,-0.107,0.547
1304042,2440.0,1326.0,7769.0,0.801,0.225,-0.109,0.544
1304068,2648.0,1326.0,7513.0,0.801,0.23,-0.111,0.542
1304084,3144.0,1790.0,7281.0,0.8,0.236,-0.113,0.54
1304100,3584.0,2050.0,7015.0,0.799,0.242,-0.114,0.539
1304116,4024.0,2238.0,6811.0,0.797,0.248,-0.115,0.538
1304132,4282.0,2492.0,6561.0,0.796,0.255,-0.116,0.537
1304149,4604.0,2620.0,6381.0,0.794,0.26,-0.116,0.537
1304165,4800.0,2532.0,6277.0,0.792,0.264,-0.115,0.538
1304191,4958.0,2540.0,6123.0,0.79,0.267,-0.113,0.54
1304207,5126.0,2838.0,5965.0,0.789,0.269,-0.11,0.542
1304223,5114.0,2742.0,5925.0,0.787,0.269,-0.105,0.545
1304239,4930.0,2834.0,6061.0,0.786,0.267,-0.099,0.548
1304255,4652.0,2940.0,6263.0,0.785,0.265,-0.092,0.552
1304271,4418.0,2870.0,6427.0,0.784,0.261,-0.084,0.556
1304297,4124.0,2814.0,6593.0,0.783,0.257,-0.076,0.561
1304313,3760.0,2822.0,6833.0,0.782,0.253,-0.067,0.565
1304329,3344.0,2742.0,6997.0,0.781,0.248,-0.057,0.57
1304345,2948.0,2898.0,7197.0,0.779,0.244,-0.047,0.575
1304362,2588.0,2928.0,7363.0,0.777,0.24,-0.038,0.581
1304378,2138.0,2964.0,7489.0,0.775,0.237,-0.03,0.586
1304404,1664.0,2818.0,7693.0,0.772,0.233,-0.022,0.59
1304420,1274.0,2682.0,7821.0,0.77,0.23,-0.017,0.595
1304436,1098.0,2276.0,7837.0,0.768,0.228,-0.013,0.598
1304453,1086.0,2224.0,7613.0,0.767,0.227,-0.01,0.6
1304469,1170.0,2198.0,7555.0,0.765,0.228,-0.008,0.602
1304485,1158.0,2720.0,7397.0,0.764,0.229,-0.006,0.603
1304501,1430.0,2830.0,7335.0,0.764,0.231,-0.007,0.603
1304528,1786.0,2694.0,7417.0,0.764,0.232,-0.008,0.602
1304544,2026.0,2590.0,7441.0,0.764,0.233,-0.011,0.601
1304560,2224.0,2578.0,7407.0,0.765,0.235,-0.013,0.6
1304576,2454.0,2680.0,7309.0,0.765,0.236,-0.016,0.598
1304592,2576.0,2780.0,7199.0,0.766,0.238,-0.019,0.597
1304608,2800.0,2732.0,7179.0,0.767,0.239,-0.022,0.595
1304634,2890.0,2710.0,7099.0,0.767,0.241,-0.024,0.594
1304650,3000.0,2732.0,7167.0,0.768,0.243,-0.025,0.593
1304667,2960.0,2858.0,7185.0,0.768,0.245,-0.025,0.591
1304684,2924.0,2904.0,7255.0,0.768,0.247,-0.024,0.59
1304701,2890.0,2886.0,7217.0,0.767,0.25,-0.023,0.59
1304718,2864.0,2862.0,7115.0,0.767,0.253,-0.021,0.59
1304734,2770.0,2960.0,7041.0,0.766,0.256,-0.019,0.59
1304750,2738.0,3036.0,7025.0,0.764,0.258,-0.016,0.59
1304776,2708.0,3094.0,6901.0,0.763,0.261,-0.013,0.591
1304792,2620.0,3236.0,6899.0,0.761,0.263,-0.01,0.592
1304808,2596.0,3364.0,6847.0,0.76,0.265,-0.007,0.594
1304825,2626.0,3458.0,6919.0,0.758,0.267,-0.004,0.595
1304841,2582.0,3532.0,6895.0,0.757,0.268,-0.002,0.597
1304857,2526.0,3628.0,6881.0,0.755,0.268,0.0,0.598
1304873,2460.0,3650.0,6897.0,0.754,0.269,0.002,0.6
1304899,2384.0,3660.0,6953.0,0.752,0.269,0.004,0.602
1304915,2354.0,3748.0,6973.0,0.751,0.269,0.005,0.603
1304931,2288.0,3714.0,6955.0,0.75,0.269,0.005,0.604
1304948,2216.0,3608.0,7025.0,0.749,0.269,0.006,0.605
1304964,2248.0,3550.0,7059.0,0.749,0.269,0.005,0.606
1304981,2238.0,3550.0,7089.0,0.748,0.27,0.005,0.606
1304998,2282.0,3644.0,7093.0,0.748,0.27,0.004,0.606
1305015,2298.0,3696.0,7139.0,0.748,0.271,0.003,0.606
1305032,2424.0,3886.0,7167.0,0.748,0.271,0.001,0.606
1305059,2574.0,3952.0,7109.0,0.748,0.271,-0.002,0.605
1305075,2620.0,3772.0,7031.0,0.749,0.272,-0.005,0.605
1305091,2684.0,3826.0,6969.0,0.749,0.272,-0.009,0.604
1305107,2630.0,3742.0,6837.0,0.749,0.272,-0.013,0.604
1305123,2748.0,3198.0,6677.0,0.75,0.271,-0.018,0.603
1305139,2836.0,2876.0,6657.0,0.75,0.271,-0.022,0.603
1305165,2894.0,2802.0,6653.0,0.751,0.27,-0.026,0.602
1305182,3018.0,2744.0,6749.0,0.752,0.269,-0.029,0.601
1305199,3084.0,2908.0,6795.0,0.753,0.267,-0.031,0.6
1305216,3018.0,2888.0,6827.0,0.755,0.265,-0.034,0.599
1305232,2990.0,2874.0,6855.0,0.756,0.263,-0.035,0.598
1305248,3020.0,2776.0,6963.0,0.757,0.26,-0.037,0.598
1305265,3026.0,2572.0,6967.0,0.759,0.257,-0.039,0.598
1305281,2978.0,2552.0,7075.0,0.76,0.254,-0.04,0.597
1305307,2944.0,2428.0,7167.0,0.761,0.251,-0.041,0.597
1305323,2886.0,2404.0,7281.0,0.761,0.249,-0.042,0.597
1305339,2860.0,2412.0,7329.0,0.762,0.246,-0.043,0.598
1305355,2858.0,2214.0,7311.0,0.762,0.245,-0.043,0.598
1305371,2816.0,2100.0,7309.0,0.762,0.244,-0.043,0.599
1305387,2820.0,2094.0,7295.0,0.762,0.244,-0.042,0.599
1305413,2828.0,2414.0,7409.0,0.761,0.244,-0.041,0.599
1305430,2550.0,2454.0,7757.0,0.761,0.244,-0.04,0.599
1305447,2524.0,2498.0,7901.0,0.761,0.245,-0.041,0.599
1305463,2622.0,2606.0,7781.0,0.761,0.247,-0.041,0.598
1305479,2524.0,2402.0,7587.0,0.762,0.249,-0.043,0.597
1305495,2422.0,2912.0,7575.0,0.762,0.252,-0.045,0.594
1305512,2274.0,3000.0,7631.0,0.764,0.255,-0.048,0.591
1305530,2588.0,2678.0,7643.0,0.765,0.258,-0.053,0.588
1305546,2720.0,2556.0,6891.0,0.766,0.263,-0.058,0.584
1305572,3044.0,2838.0,6791.0,0.767,0.268,-0.062,0.58
1305588,3318.0,2724.0,6645.0,0.768,0.273,-0.066,0.576
1305604,3216.0,3128.0,6675.0,0.768,0.279,-0.068,0.573
1305620,3334.0,3126.0,6585.0,0.767,0.285,-0.07,0.57
1305636,3320.0,3460.0,6429.0,0.767,0.291,-0.072,0.568
1305653,3408.0,3164.0,6209.0,0.767,0.295,-0.074,0.566
1305669,3592.0,3084.0,6037.0,0.766,0.299,-0.075,0.564
1305695,3678.0,3000.0,5931.0,0.765,0.301,-0.075,0.564
1305711,3544.0,3236.0,6215.0,0.765,0.303,-0.076,0.563
1305728,3166.0,3468.0,6453.0,0.765,0.304,-0.077,0.563
1305745,3290.0,3600.0,6347.0,0.764,0.304,-0.08,0.563
1305761,3566.0,3264.0,6321.0,0.764,0.303,-0.084,0.563
1305777,3816.0,2776.0,6135.0,0.763,0.302,-0.089,0.564
1305794,3874.0,2812.0,6199.0,0.763,0.301,-0.094,0.565
1305820,4044.0,2528.0,6241.0,0.762,0.3,-0.099,0.565
1305836,4288.0,2570.0,6317.0,0.761,0.299,-0.103,0.566
1305852,4478.0,2824.0,6383.0,0.76,0.298,-0.106,0.567
1305868,4536.0,2776.0,6455.0,0.759,0.297,-0.11,0.569
1305884,4466.0,2796.0,6827.0,0.758,0.296,-0.113,0.57
1305900,4296.0,2316.0,7125.0,0.757,0.295,-0.117,0.571
1305926,4226.0,2726.0,6949.0,0.756,0.295,-0.12,0.572
1305943,3638.0,3320.0,6939.0,0.754,0.296,-0.124,0.574
1305959,3960.0,2710.0,7023.0,0.751,0.297,-0.129,0.575
1305975,3990.0,1962.0,6957.0,0.749,0.299,-0.135,0.576
1305991,3952.0,2084.0,6873.0,0.747,0.302,-0.141,0.576
1306007,4272.0,1714.0,7217.0,0.745,0.306,-0.147,0.575
1306033,6508.0,-1152.0,10007.0,0.742,0.313,-0.151,0.573
1306050,4146.0,-26.0,6963.0,0.739,0.323,-0.153,0.57
1306066,5312.0,2692.0,5831.0,0.737,0.335,-0.155,0.567
1306082,5646.0,2168.0,6853.0,0.735,0.346,-0.156,0.562
1306098,5346.0,346.0,6089.0,0.732,0.36,-0.154,0.557
1306114,6106.0,2446.0,4165.0,0.729,0.378,-0.154,0.55
1306131,6344.0,3504.0,3237.0,0.727,0.391,-0.152,0.544
1306148,5404.0,5486.0,3657.0,0.727,0.404,-0.152,0.535
1306174,6488.0,4354.0,3793.0,0.727,0.412,-0.149,0.528
1306190,5890.0,3636.0,3855.0,0.728,0.419,-0.147,0.523
1306206,5168.0,3990.0,4119.0,0.729,0.424,-0.143,0.518
1306222,5152.0,4320.0,4557.0,0.731,0.427,-0.14,0.514
1306238,5372.0,3876.0,4937.0,0.732,0.429,-0.136,0.511
1306254,5236.0,4116.0,4635.0,0.733,0.431,-0.132,0.51
1306273,5434.0,3864.0,4361.0,0.733,0.433,-0.128,0.509
1306289,5342.0,4258.0,4095.0,0.734,0.432,-0.124,0.509
1306315,5432.0,4282.0,3885.0,0.734,0.431,-0.119,0.511
1306331,5212.0,4830.0,3289.0,0.736,0.426,-0.113,0.514
1306347,4480.0,7082.0,2641.0,0.739,0.418,-0.109,0.517
1306363,5378.0,5256.0,4029.0,0.744,0.404,-0.107,0.521
1306379,4148.0,4702.0,3821.0,0.752,0.384,-0.108,0.525
1306405,4800.0,3388.0,5625.0,0.76,0.363,-0.109,0.527
1306421,3444.0,794.0,7781.0,0.766,0.345,-0.109,0.531
1306437,3020.0,682.0,8943.0,0.769,0.335,-0.107,0.534
1306453,2962.0,3442.0,7805.0,0.769,0.332,-0.105,0.536
1306469,3812.0,4158.0,6943.0,0.769,0.329,-0.105,0.537
1306485,4022.0,3832.0,6237.0,0.77,0.325,-0.105,0.538
1306501,4258.0,2798.0,6171.0,0.771,0.321,-0.107,0.539
1306528,4044.0,2106.0,6397.0,0.773,0.317,-0.106,0.539
1306544,4158.0,1948.0,6487.0,0.773,0.315,-0.104,0.54
1306561,3850.0,2128.0,6583.0,0.773,0.316,-0.1,0.541
1306577,3394.0,4370.0,5457.0,0.774,0.315,-0.096,0.541
1306593,3936.0,4340.0,4557.0,0.776,0.31,-0.093,0.542
1306609,4082.0,2824.0,4901.0,0.778,0.3,-0.091,0.545
1306626,3654.0,706.0,6631.0,0.78,0.29,-0.088,0.547
1306652,3010.0,1940.0,6635.0,0.782,0.284,-0.082,0.549
1306669,2742.0,4206.0,7283.0,0.784,0.279,-0.076,0.55
1306685,3000.0,3776.0,7553.0,0.786,0.272,-0.071,0.551
1306701,2808.0,3288.0,7609.0,0.787,0.264,-0.068,0.553
1306717,2562.0,2840.0,8031.0,0.788,0.257,-0.066,0.555
1306733,2432.0,2582.0,8191.0,0.788,0.252,-0.063,0.558
1306749,2406.0,2750.0,7837.0,0.788,0.248,-0.061,0.56
1306775,2468.0,2400.0,7567.0,0.787,0.245,-0.06,0.563
1306791,2498.0,2216.0,7445.0,0.786,0.242,-0.06,0.566
1306807,2578.0,2134.0,7499.0,0.785,0.24,-0.059,0.568
1306823,2782.0,2234.0,7333.0,0.784,0.239,-0.058,0.569
1306839,2710.0,2582.0,7265.0,0.784,0.239,-0.058,0.57
1306855,2914.0,2540.0,7289.0,0.784,0.238,-0.058,0.571
1306882,2892.0,2636.0,7315.0,0.784,0.238,-0.059,0.571
1306898,2842.0,2504.0,7387.0,0.784,0.237,-0.059,0.571
1306914,2970.0,2496.0,7413.0,0.784,0.237,-0.06,0.57
1306930,3092.0,2250.0,7111.0,0.785,0.236,-0.061,0.57
1306946,2988.0,1980.0,6991.0,0.785,0.236,-0.062,0.569
1306963,2986.0,2032.0,7151.0,0.786,0.236,-0.062,0.568
1306979,2808.0,1890.0,7071.0,0.786,0.237,-0.063,0.567
1307005,3076.0,1764.0,7377.0,0.787,0.237,-0.062,0.567
1307021,2974.0,2170.0,7401.0,0.787,0.239,-0.061,0.566
1307037,2958.0,2100.0,7257.0,0.787,0.24,-0.06,0.566
1307053,3176.0,1880.0,7273.0,0.786,0.242,-0.058,0.566
1307069,3222.0,2228.0,7097.0,0.785,0.244,-0.055,0.566
1307085,3246.0,2328.0,7057.0,0.785,0.247,-0.052,0.567
1307111,3194.0,2718.0,7041.0,0.784,0.248,-0.048,0.567
1307127,3090.0,2852.0,7287.0,0.783,0.25,-0.044,0.568
1307143,2866.0,2826.0,7167.0,0.781,0.253,-0.041,0.569
1307159,2628.0,2696.0,7685.0,0.78,0.257,-0.037,0.57
1307175,2434.0,2932.0,7931.0,0.778,0.262,-0.035,0.571
1307191,2592.0,2794.0,8647.0,0.775,0.269,-0.033,0.57
1307217,2158.0,2942.0,8715.0,0.773,0.279,-0.033,0.569
1307233,2936.0,3382.0,7443.0,0.773,0.287,-0.035,0.564
1307249,2656.0,3228.0,6425.0,0.774,0.296,-0.039,0.559
1307265,2762.0,3596.0,5965.0,0.775,0.304,-0.044,0.552
1307282,3194.0,4106.0,5439.0,0.777,0.311,-0.05,0.544
1307298,2786.0,4080.0,5573.0,0.778,0.316,-0.054,0.54
1307324,3492.0,3078.0,6475.0,0.779,0.325,-0.057,0.533
1307340,3806.0,3698.0,5495.0,0.779,0.332,-0.06,0.529
1307356,3800.0,3758.0,5515.0,0.778,0.338,-0.061,0.526
1307372,4058.0,2786.0,5797.0,0.775,0.344,-0.06,0.527
1307388,4556.0,3474.0,6103.0,0.771,0.35,-0.056,0.529
1307404,4692.0,3570.0,5759.0,0.765,0.356,-0.05,0.534
1307430,4818.0,4052.0,6069.0,0.759,0.362,-0.041,0.539
1307446,4616.0,4146.0,6031.0,0.754,0.367,-0.032,0.544
1307462,4442.0,3942.0,6017.0,0.748,0.372,-0.022,0.549
1307479,4376.0,3588.0,5871.0,0.741,0.378,-0.01,0.555
1307495,4200.0,3810.0,5319.0,0.733,0.385,0.004,0.56
1307511,4778.0,2556.0,4357.0,0.723,0.393,0.022,0.568
1307537,3146.0,8566.0,5879.0,0.715,0.398,0.036,0.574
1307553,3190.0,372.0,5967.0,0.706,0.403,0.049,0.58
1307569,4172.0,3228.0,5127.0,0.695,0.414,0.065,0.585
1307586,3940.0,4344.0,4463.0,0.684,0.424,0.081,0.589
1307602,4044.0,4864.0,4033.0,0.672,0.433,0.095,0.593
1307618,3720.0,4524.0,4425.0,0.661,0.441,0.109,0.597
1307644,3596.0,3492.0,3855.0,0.648,0.451,0.124,0.601
1307660,3690.0,4934.0,3805.0,0.633,0.461,0.139,0.605
1307676,3718.0,3184.0,2805.0,0.617,0.473,0.156,0.609
1307693,3988.0,5270.0,2121.0,0.598,0.485,0.174,0.614
1307709,3678.0,5880.0,1929.0,0.578,0.496,0.191,0.619
1307725,3284.0,6424.0,1921.0,0.556,0.505,0.207,0.626
1307741,2984.0,5720.0,1777.0,0.534,0.513,0.221,0.635
1307767,2798.0,5860.0,1685.0,0.51,0.522,0.233,0.643
1307783,2478.0,6232.0,1731.0,0.486,0.531,0.243,0.65
1307799,2650.0,6532.0,1389.0,0.461,0.541,0.249,0.658
1307815,3218.0,6538.0,719.0,0.436,0.551,0.252,0.666
1307831,4166.0,5320.0,265.0,0.413,0.56,0.252,0.673
1307847,4270.0,5594.0,461.0,0.39,0.569,0.251,0.679
1307864,4556.0,6678.0,115.0,0.368,0.578,0.249,0.685
1307890,4666.0,6990.0,287.0,0.348,0.585,0.246,0.69
1307906,4612.0,6692.0,429.0,0.329,0.593,0.239,0.695
1307922,4400.0,6422.0,643.0,0.313,0.6,0.231,0.699
1307938,5264.0,6846.0,373.0,0.298,0.607,0.22,0.703
1307954,5514.0,8126.0,181.0,0.286,0.612,0.205,0.708
1307970,5756.0,8706.0,271.0,0.28,0.615,0.184,0.714
1307996,5566.0,4046.0,-157.0,0.276,0.616,0.156,0.721
1308013,6930.0,2626.0,331.0,0.273,0.617,0.124,0.728
1308029,6840.0,3502.0,-25.0,0.27,0.619,0.096,0.732
1308046,8898.0,9592.0,1549.0,0.271,0.618,0.065,0.735
1308062,8164.0,9358.0,1247.0,0.284,0.612,0.019,0.738
1308078,5608.0,-308.0,-1253.0,0.296,0.606,-0.026,0.737
1308104,6288.0,-2714.0,441.0,0.303,0.604,-0.063,0.734
1308121,8384.0,578.0,1285.0,0.305,0.604,-0.093,0.73
1308137,9084.0,20.0,565.0,0.307,0.604,-0.12,0.726
1308153,10060.0,-164.0,1025.0,0.307,0.604,-0.142,0.721
1308169,10954.0,-1642.0,1471.0,0.302,0.606,-0.158,0.719
1308186,10542.0,-5084.0,1089.0,0.291,0.612,-0.164,0.717
1308202,10842.0,-6462.0,1587.0,0.269,0.624,-0.154,0.717
1308219,11638.0,-348.0,2717.0,0.238,0.639,-0.131,0.719
1308245,10582.0,13032.0,5775.0,0.212,0.65,-0.109,0.722
1308261,6588.0,17524.0,2861.0,0.216,0.654,-0.126,0.714
1308278,7386.0,-7370.0,-787.0,0.219,0.658,-0.146,0.705
1308294,10580.0,-4336.0,2047.0,0.211,0.669,-0.15,0.697
1308311,10770.0,3184.0,-967.0,0.202,0.679,-0.146,0.691
1308328,11192.0,5726.0,-815.0,0.201,0.683,-0.149,0.686
1308344,10500.0,1570.0,-75.0,0.203,0.683,-0.155,0.684
1308360,9660.0,-148.0,671.0,0.201,0.683,-0.154,0.685
1308386,8372.0,180.0,1581.0,0.197,0.683,-0.151,0.687
1308402,8138.0,1498.0,2053.0,0.192,0.684,-0.146,0.689
1308418,7138.0,3048.0,2403.0,0.19,0.685,-0.143,0.688
1308434,7988.0,1492.0,2033.0,0.19,0.688,-0.143,0.686
1308450,8560.0,1034.0,1261.0,0.19,0.691,-0.142,0.683
1308467,8888.0,1820.0,323.0,0.19,0.694,-0.141,0.68
1308493,8632.0,1314.0,329.0,0.192,0.696,-0.14,0.678
1308510,8306.0,600.0,119.0,0.194,0.697,-0.137,0.677
1308527,7826.0,350.0,337.0,0.195,0.698,-0.133,0.676
1308543,7710.0,532.0,-13.0,0.195,0.698,-0.128,0.677
1308559,7780.0,1704.0,-241.0,0.194,0.698,-0.122,0.679
1308575,7800.0,1682.0,-557.0,0.194,0.695,-0.116,0.682
1308591,8118.0,1036.0,-99.0,0.193,0.692,-0.111,0.687
1308617,7796.0,236.0,347.0,0.191,0.688,-0.103,0.693
1308633,7776.0,820.0,437.0,0.188,0.684,-0.094,0.699
1308650,7658.0,1822.0,229.0,0.187,0.68,-0.086,0.704
1308666,7890.0,2046.0,329.0,0.186,0.676,-0.079,0.708
1308682,7894.0,1620.0,255.0,0.185,0.673,-0.073,0.713
1308699,8024.0,1030.0,195.0,0.184,0.67,-0.068,0.716
1308715,8100.0,688.0,99.0,0.183,0.667,-0.062,0.72
1308732,7898.0,646.0,83.0,0.182,0.664,-0.056,0.723
1308749,7834.0,934.0,303.0,0.181,0.661,-0.05,0.726
1308776,7532.0,1170.0,373.0,0.179,0.658,-0.043,0.73
1308792,7584.0,1014.0,399.0,0.177,0.655,-0.038,0.733
1308808,7476.0,542.0,483.0,0.175,0.652,-0.032,0.737
1308825,7640.0,1016.0,235.0,0.172,0.649,-0.025,0.741
1308841,7598.0,1572.0,533.0,0.17,0.645,-0.019,0.745
1308858,7204.0,2176.0,911.0,0.17,0.641,-0.015,0.749
1308875,6610.0,1094.0,1319.0,0.17,0.637,-0.012,0.752
1308892,6568.0,688.0,1319.0,0.169,0.634,-0.009,0.755
1308909,6602.0,1030.0,1395.0,0.168,0.632,-0.006,0.756
1308926,6656.0,1160.0,1549.0,0.167,0.631,-0.003,0.758
1308953,6744.0,1426.0,1483.0,0.165,0.63,0.0,0.759
1308969,7162.0,1396.0,1549.0,0.163,0.63,0.003,0.759
1308985,7500.0,1404.0,1539.0,0.16,0.63,0.006,0.76
1309001,7610.0,1576.0,1697.0,0.158,0.63,0.01,0.76
1309017,7784.0,1834.0,1751.0,0.155,0.631,0.012,0.76
1309033,7790.0,1834.0,1873.0,0.153,0.632,0.014,0.759
1309059,7746.0,1892.0,1907.0,0.152,0.634,0.016,0.758
1309076,7898.0,1946.0,1851.0,0.151,0.637,0.016,0.756
1309092,7814.0,1790.0,1837.0,0.15,0.64,0.017,0.754
1309108,7664.0,1662.0,1927.0,0.15,0.642,0.017,0.751
1309124,7640.0,1616.0,1875.0,0.15,0.645,0.017,0.749
1309141,7490.0,1504.0,1861.0,0.15,0.649,0.018,0.746
1309157,7462.0,1558.0,1763.0,0.151,0.652,0.019,0.743
1309183,7484.0,1708.0,1635.0,0.151,0.655,0.02,0.74
1309200,7630.0,1718.0,1487.0,0.152,0.659,0.021,0.736
1309217,7670.0,1808.0,1541.0,0.153,0.662,0.022,0.733
1309233,7764.0,1524.0,1465.0,0.153,0.666,0.023,0.73
1309250,7890.0,1512.0,1399.0,0.155,0.669,0.025,0.726
1309266,7908.0,1478.0,1283.0,0.156,0.673,0.028,0.723
1309283,7834.0,1938.0,1103.0,0.157,0.676,0.031,0.719
1309299,7982.0,2520.0,949.0,0.159,0.68,0.034,0.715
1309316,8092.0,2840.0,807.0,0.161,0.683,0.037,0.711
1309342,7982.0,2148.0,807.0,0.164,0.686,0.039,0.708
1309358,8050.0,2022.0,639.0,0.166,0.688,0.043,0.705
1309374,7844.0,2462.0,537.0,0.168,0.69,0.047,0.703
1309390,7770.0,2828.0,529.0,0.17,0.691,0.05,0.7
1309406,7732.0,2710.0,429.0,0.172,0.693,0.054,0.698
1309422,7694.0,2788.0,359.0,0.174,0.694,0.058,0.697
1309448,7442.0,2868.0,361.0,0.175,0.695,0.061,0.695
1309465,7478.0,2806.0,237.0,0.177,0.695,0.065,0.694
1309482,7306.0,3028.0,61.0,0.178,0.696,0.068,0.692
1309499,7250.0,3014.0,-9.0,0.179,0.696,0.071,0.691
1309516,7266.0,2990.0,-87.0,0.18,0.696,0.074,0.691
1309533,7148.0,2882.0,-127.0,0.181,0.696,0.077,0.691
1309550,7314.0,2808.0,-121.0,0.181,0.695,0.08,0.691
1309566,7188.0,2678.0,-163.0,0.181,0.694,0.083,0.692
1309583,7202.0,3104.0,-99.0,0.18,0.694,0.087,0.692
1309599,7312.0,3254.0,-87.0,0.18,0.693,0.091,0.692
1309625,7474.0,3124.0,-135.0,0.18,0.692,0.094,0.693
1309641,7690.0,3170.0,-115.0,0.179,0.692,0.097,0.693
1309657,7674.0,3008.0,-59.0,0.178,0.691,0.1,0.693
1309673,7664.0,2942.0,-47.0,0.177,0.691,0.102,0.694
1309689,7708.0,3258.0,-187.0,0.176,0.69,0.105,0.694
1309705,7682.0,3294.0,-133.0,0.175,0.69,0.108,0.694
1309731,7684.0,3194.0,-31.0,0.174,0.689,0.111,0.694
1309747,7660.0,3032.0,-51.0,0.172,0.689,0.113,0.695
1309763,7666.0,3172.0,-77.0,0.171,0.689,0.116,0.695
1309779,7494.0,3194.0,-5.0,0.169,0.689,0.119,0.695
1309796,7438.0,3262.0,69.0,0.168,0.689,0.122,0.695
1309813,7472.0,3006.0,31.0,0.166,0.689,0.124,0.695
1309829,7636.0,2970.0,43.0,0.164,0.689,0.126,0.695
1309855,7548.0,3106.0,115.0,0.162,0.689,0.128,0.694
1309871,7558.0,3368.0,129.0,0.159,0.69,0.129,0.694
1309887,7508.0,3182.0,101.0,0.156,0.69,0.13,0.694
1309903,7410.0,3262.0,113.0,0.153,0.691,0.13,0.694
1309919,7260.0,3506.0,203.0,0.15,0.692,0.13,0.695
1309935,7346.0,2920.0,239.0,0.147,0.692,0.129,0.695
1309961,7440.0,2982.0,115.0,0.143,0.693,0.128,0.695
1309978,7468.0,3142.0,187.0,0.138,0.693,0.128,0.696
1309994,7616.0,3074.0,127.0,0.134,0.693,0.128,0.697
1310010,7636.0,2902.0,165.0,0.13,0.693,0.128,0.697
1310026,7634.0,3420.0,237.0,0.126,0.693,0.129,0.698
1310043,7770.0,3128.0,253.0,0.122,0.693,0.129,0.699
1310059,7994.0,3474.0,89.0,0.118,0.692,0.131,0.7
1310085,8122.0,4280.0,75.0,0.114,0.691,0.133,0.702
1310101,8060.0,3906.0,385.0,0.111,0.689,0.135,0.703
1310117,8028.0,4506.0,619.0,0.107,0.687,0.14,0.705
1310133,7930.0,6032.0,739.0,0.105,0.685,0.145,0.707
1310153,7522.0,5708.0,1499.0,0.104,0.682,0.15,0.708
1310169,7832.0,7232.0,1069.0,0.104,0.678,0.157,0.71
1310185,7420.0,6902.0,1649.0,0.106,0.674,0.164,0.713
1310201,7624.0,6556.0,1819.0,0.109,0.668,0.174,0.715
1310227,7486.0,8184.0,1883.0,0.113,0.662,0.186,0.717
1310243,7640.0,8324.0,1993.0,0.119,0.655,0.199,0.719
1310259,7878.0,8458.0,1919.0,0.128,0.647,0.213,0.721
1310275,7842.0,8700.0,2015.0,0.139,0.638,0.229,0.722
1310291,8132.0,8762.0,1679.0,0.152,0.628,0.246,0.722
1310307,8158.0,8954.0,1543.0,0.166,0.617,0.265,0.722
1310333,8206.0,9012.0,1443.0,0.182,0.606,0.284,0.721
1310349,7900.0,8818.0,1549.0,0.199,0.593,0.305,0.718
1310365,7802.0,9036.0,1297.0,0.217,0.58,0.326,0.714
1310381,7776.0,9654.0,1077.0,0.236,0.567,0.348,0.709
1310397,7786.0,9488.0,1053.0,0.256,0.553,0.37,0.702
1310413,7622.0,9282.0,919.0,0.277,0.538,0.391,0.693
1310430,7444.0,9018.0,731.0,0.299,0.522,0.412,0.684
1310457,7192.0,8942.0,405.0,0.321,0.505,0.434,0.673
1310473,6638.0,9522.0,463.0,0.344,0.487,0.455,0.661
1310489,6458.0,8820.0,377.0,0.367,0.469,0.474,0.649
1310505,5696.0,8020.0,291.0,0.389,0.45,0.493,0.635
1310521,5242.0,7918.0,151.0,0.411,0.43,0.511,0.62
1310537,4456.0,7116.0,267.0,0.432,0.411,0.528,0.605
1310563,3974.0,7460.0,265.0,0.451,0.392,0.543,0.589
1310580,3740.0,8142.0,-11.0,0.47,0.373,0.558,0.574
1310596,3030.0,5648.0,335.0,0.488,0.354,0.571,0.557
1310613,2442.0,6898.0,219.0,0.505,0.336,0.584,0.54
1310629,1846.0,7228.0,179.0,0.52,0.319,0.596,0.522
1310645,1606.0,5810.0,217.0,0.536,0.301,0.605,0.506
1310661,918.0,5594.0,265.0,0.55,0.283,0.615,0.489
1310687,494.0,6008.0,215.0,0.563,0.266,0.623,0.473
1310703,98.0,5396.0,337.0,0.575,0.25,0.631,0.457
1310719,-358.0,4574.0,277.0,0.586,0.234,0.638,0.441
1310735,-1124.0,4648.0,423.0,0.596,0.219,0.644,0.427
1310752,-1330.0,4548.0,481.0,0.605,0.204,0.65,0.412
1310768,-1994.0,4088.0,455.0,0.613,0.19,0.655,0.399
1310784,-2228.0,3138.0,227.0,0.621,0.176,0.659,0.386
1310811,-3016.0,2792.0,437.0,0.627,0.163,0.663,0.374
1310827,-3860.0,1356.0,511.0,0.633,0.152,0.667,0.362
1310843,-4638.0,440.0,501.0,0.638,0.143,0.671,0.35
1310859,-5512.0,802.0,337.0,0.642,0.135,0.674,0.339
1310876,-6320.0,-686.0,583.0,0.645,0.129,0.676,0.332
1310893,-7052.0,-1070.0,759.0,0.646,0.125,0.677,0.328
1310910,-7158.0,-1710.0,725.0,0.646,0.122,0.678,0.327
1310927,-6674.0,-1378.0,709.0,0.644,0.123,0.678,0.331
1310944,-6204.0,-1308.0,793.0,0.641,0.126,0.677,0.339
1310970,-5926.0,-634.0,875.0,0.635,0.131,0.676,0.35
1310987,-5502.0,132.0,619.0,0.628,0.139,0.674,0.363
1311003,-5264.0,460.0,609.0,0.62,0.15,0.672,0.378
1311019,-4932.0,1624.0,551.0,0.61,0.162,0.668,0.394
1311035,-4494.0,2056.0,473.0,0.6,0.176,0.664,0.41
1311051,-3758.0,2796.0,497.0,0.589,0.191,0.659,0.427
1311077,-3174.0,4468.0,189.0,0.578,0.206,0.652,0.445
1311093,-2396.0,5384.0,67.0,0.566,0.222,0.644,0.464
1311109,-1830.0,5880.0,157.0,0.553,0.239,0.636,0.483
1311125,-1038.0,7014.0,187.0,0.539,0.255,0.626,0.503
1311141,-900.0,6174.0,653.0,0.525,0.27,0.615,0.522
1311157,-336.0,8680.0,703.0,0.51,0.286,0.605,0.541
1311183,152.0,6748.0,733.0,0.495,0.3,0.594,0.558
1311199,380.0,9622.0,793.0,0.48,0.314,0.584,0.574
1311215,454.0,8062.0,1017.0,0.465,0.328,0.572,0.59
1311231,1084.0,9278.0,1075.0,0.45,0.342,0.561,0.604
1311247,1688.0,9440.0,1025.0,0.435,0.357,0.55,0.618
1311263,2182.0,9516.0,1047.0,0.421,0.37,0.538,0.63
1311289,2194.0,8218.0,1201.0,0.407,0.383,0.525,0.642
1311305,2398.0,8866.0,1345.0,0.393,0.396,0.514,0.651
1311321,3000.0,9808.0,1213.0,0.378,0.41,0.504,0.659
1311337,3412.0,9352.0,1167.0,0.365,0.423,0.491,0.669
1311353,3646.0,8194.0,1289.0,0.352,0.435,0.478,0.677
1311379,3682.0,8216.0,1359.0,0.339,0.447,0.466,0.684
1311396,4092.0,8756.0,1371.0,0.326,0.459,0.455,0.69
1311412,4532.0,8784.0,1373.0,0.313,0.47,0.443,0.696
1311428,4504.0,8002.0,1533.0,0.301,0.481,0.431,0.702
1311444,4814.0,8372.0,1399.0,0.288,0.491,0.418,0.707
1311460,4884.0,6846.0,1493.0,0.276,0.502,0.406,0.712
1311476,5256.0,7794.0,1401.0,0.264,0.511,0.394,0.717
1311502,5542.0,8068.0,1453.0,0.252,0.52,0.382,0.721
1311518,5668.0,7286.0,1621.0,0.241,0.529,0.368,0.726
1311534,5882.0,7384.0,1645.0,0.229,0.538,0.355,0.729
1311550,5852.0,6324.0,1633.0,0.218,0.546,0.342,0.733
1311566,5968.0,6674.0,1731.0,0.207,0.555,0.33,0.735
1311582,6286.0,7186.0,1579.0,0.196,0.562,0.317,0.738
1311599,6428.0,5944.0,1687.0,0.185,0.57,0.304,0.741
1311625,6820.0,6352.0,1625.0,0.174,0.577,0.291,0.743
1311641,7090.0,5662.0,1605.0,0.163,0.584,0.278,0.745
1311657,7008.0,5562.0,1663.0,0.152,0.59,0.265,0.747
1311674,7368.0,6036.0,1425.0,0.141,0.597,0.253,0.748
1311690,7554.0,5592.0,1473.0,0.13,0.602,0.241,0.75
1311706,7582.0,5140.0,1617.0,0.12,0.608,0.228,0.751
1311732,7954.0,5338.0,1429.0,0.11,0.613,0.217,0.752
1311748,8048.0,4914.0,1473.0,0.101,0.618,0.206,0.752
1311764,8206.0,5594.0,1301.0,0.093,0.622,0.196,0.753
1311780,8088.0,5364.0,1215.0,0.085,0.625,0.187,0.753
1311796,8508.0,5988.0,1241.0,0.078,0.629,0.179,0.753
1311812,8376.0,5568.0,1383.0,0.073,0.632,0.172,0.752
1311838,8268.0,6478.0,1549.0,0.071,0.636,0.168,0.75
1311854,8160.0,6036.0,1197.0,0.071,0.639,0.165,0.748
1311870,7432.0,7184.0,1421.0,0.073,0.641,0.165,0.746
1311886,6828.0,7716.0,1627.0,0.076,0.642,0.167,0.744
1311902,6180.0,7392.0,2247.0,0.08,0.643,0.169,0.742
1311918,6250.0,8298.0,2231.0,0.087,0.644,0.174,0.74
1311944,6516.0,8846.0,2205.0,0.096,0.643,0.18,0.739
1311960,6880.0,8158.0,2157.0,0.106,0.64,0.187,0.738
1311977,7202.0,8800.0,2337.0,0.117,0.636,0.197,0.737
1311994,7446.0,8858.0,2345.0,0.129,0.63,0.209,0.737
1312010,7578.0,8934.0,2461.0,0.143,0.623,0.223,0.736
1312026,8292.0,9426.0,2297.0,0.159,0.615,0.24,0.734
1312042,8302.0,8868.0,2339.0,0.175,0.606,0.259,0.731
1312059,8762.0,9516.0,1927.0,0.194,0.597,0.28,0.727
1312086,8724.0,10046.0,1749.0,0.214,0.586,0.303,0.72
1312102,8934.0,10216.0,1237.0,0.236,0.575,0.327,0.712
1312118,9056.0,10502.0,1043.0,0.259,0.563,0.351,0.702
1312134,9184.0,10286.0,673.0,0.283,0.55,0.376,0.69
1312150,8954.0,10170.0,325.0,0.308,0.536,0.401,0.676
1312166,8586.0,9934.0,233.0,0.334,0.52,0.425,0.661
1312192,7676.0,9250.0,237.0,0.36,0.503,0.449,0.645
1312208,6906.0,9642.0,121.0,0.386,0.486,0.472,0.626
1312224,6366.0,9526.0,-67.0,0.412,0.467,0.493,0.607
1312241,5916.0,8278.0,-147.0,0.438,0.447,0.513,0.587
1312257,4928.0,7914.0,-63.0,0.463,0.426,0.532,0.567
1312273,4062.0,8134.0,27.0,0.488,0.405,0.549,0.545
1312290,3528.0,6752.0,-157.0,0.511,0.384,0.564,0.523
1312307,2508.0,6140.0,55.0,0.533,0.362,0.578,0.501
1312334,2224.0,6416.0,-107.0,0.554,0.341,0.59,0.478
1312350,2056.0,6046.0,-49.0,0.573,0.321,0.601,0.456
1312366,1322.0,4860.0,255.0,0.59,0.3,0.611,0.434
1312382,1026.0,5144.0,-157.0,0.607,0.28,0.62,0.411
1312398,52.0,4526.0,211.0,0.622,0.261,0.627,0.389
1312414,-660.0,3742.0,503.0,0.637,0.241,0.634,0.368
1312440,-1096.0,4808.0,183.0,0.65,0.222,0.639,0.346
1312456,-1810.0,2568.0,531.0,0.662,0.203,0.643,0.328
1312472,-2276.0,1736.0,697.0,0.673,0.185,0.646,0.309
1312488,-2812.0,2252.0,693.0,0.682,0.169,0.649,0.29
1312504,-3550.0,904.0,919.0,0.691,0.154,0.651,0.274
1312520,-3838.0,-378.0,1005.0,0.699,0.141,0.652,0.259
1312546,-4338.0,-1468.0,1123.0,0.704,0.131,0.654,0.244
1312562,-5166.0,-478.0,1177.0,0.709,0.124,0.655,0.23
1312578,-5520.0,-1098.0,1071.0,0.712,0.119,0.656,0.219
1312594,-5980.0,-2174.0,1603.0,0.714,0.117,0.657,0.213
1312610,-6516.0,-3702.0,1803.0,0.714,0.118,0.657,0.209
1312627,-6944.0,-2180.0,1751.0,0.713,0.123,0.658,0.209
1312643,-6792.0,-2014.0,1737.0,0.71,0.13,0.658,0.216
1312670,-6228.0,-2210.0,1627.0,0.704,0.141,0.658,0.226
1312686,-5820.0,-644.0,1605.0,0.697,0.155,0.658,0.24
1312702,-5230.0,-60.0,1385.0,0.687,0.17,0.658,0.257
1312719,-4560.0,954.0,1055.0,0.676,0.188,0.658,0.274
1312735,-3922.0,2310.0,899.0,0.663,0.206,0.657,0.294
1312751,-3098.0,3920.0,591.0,0.648,0.225,0.656,0.314
1312767,-2680.0,4138.0,465.0,0.634,0.243,0.654,0.335
1312793,-1996.0,5482.0,-7.0,0.618,0.262,0.651,0.356
1312809,-1886.0,5740.0,-97.0,0.601,0.28,0.647,0.377
1312825,-1500.0,8046.0,169.0,0.583,0.297,0.642,0.399
1312841,-1156.0,6374.0,-129.0,0.568,0.312,0.635,0.421
1312857,-992.0,7426.0,-125.0,0.551,0.327,0.627,0.442
1312883,-974.0,7542.0,-133.0,0.535,0.342,0.619,0.461
1312899,-54.0,8806.0,-457.0,0.519,0.356,0.611,0.48
1312915,-402.0,9056.0,123.0,0.503,0.369,0.601,0.499
1312931,902.0,8608.0,-643.0,0.487,0.382,0.592,0.516
1312947,484.0,8046.0,-127.0,0.471,0.394,0.583,0.532
1312963,968.0,9988.0,-471.0,0.454,0.406,0.574,0.546
1312979,1272.0,9906.0,-415.0,0.438,0.418,0.565,0.561
1313006,1198.0,9260.0,-95.0,0.421,0.428,0.555,0.575
1313022,1990.0,9252.0,-291.0,0.404,0.439,0.545,0.588
1313038,2640.0,9358.0,-409.0,0.387,0.45,0.536,0.6
1313054,2442.0,9662.0,-147.0,0.371,0.46,0.527,0.611
1313070,2488.0,9518.0,-153.0,0.355,0.47,0.517,0.622
1313087,3054.0,9438.0,-213.0,0.34,0.479,0.506,0.632
1313103,3234.0,8454.0,-1.0,0.326,0.488,0.495,0.641
1313129,3930.0,9524.0,-171.0,0.312,0.497,0.484,0.649
1313145,4250.0,8526.0,-85.0,0.298,0.505,0.473,0.657
1313161,4464.0,9256.0,47.0,0.285,0.513,0.462,0.665
1313177,4738.0,7864.0,347.0,0.273,0.52,0.451,0.672
1313193,4304.0,7990.0,371.0,0.261,0.528,0.441,0.678
1313219,4166.0,7426.0,529.0,0.249,0.535,0.43,0.684
1313235,4856.0,8094.0,339.0,0.236,0.542,0.419,0.689
1313251,4836.0,6374.0,757.0,0.224,0.55,0.407,0.694
1313267,5530.0,7254.0,555.0,0.212,0.557,0.395,0.699
1313283,5780.0,6910.0,559.0,0.2,0.564,0.382,0.704
1313299,6088.0,6148.0,585.0,0.186,0.571,0.37,0.709
1313325,6210.0,6136.0,689.0,0.172,0.577,0.357,0.714
1313341,6542.0,6736.0,773.0,0.158,0.583,0.345,0.718
1313357,7354.0,7062.0,497.0,0.145,0.59,0.332,0.722
1313374,7376.0,6136.0,621.0,0.132,0.596,0.318,0.726
1313391,7468.0,6144.0,731.0,0.12,0.601,0.306,0.729
1313407,7554.0,6006.0,587.0,0.108,0.606,0.293,0.731
1313423,7282.0,5788.0,779.0,0.098,0.611,0.281,0.734
1313449,7466.0,5776.0,721.0,0.087,0.616,0.269,0.736
1313465,7318.0,5570.0,815.0,0.077,0.62,0.257,0.737
1313481,7270.0,5598.0,823.0,0.069,0.624,0.245,0.738
1313497,7306.0,5532.0,777.0,0.061,0.628,0.234,0.739
1313514,7534.0,5398.0,773.0,0.054,0.632,0.223,0.74
1313531,7752.0,5452.0,799.0,0.047,0.635,0.212,0.741
1313547,7884.0,5858.0,841.0,0.042,0.637,0.202,0.742
1313564,7930.0,5598.0,959.0,0.038,0.639,0.194,0.743
1313581,7790.0,6018.0,1001.0,0.035,0.641,0.187,0.743
1313607,7662.0,6200.0,1103.0,0.034,0.643,0.181,0.743
1313624,7450.0,6546.0,1233.0,0.035,0.644,0.177,0.743
1313640,7138.0,6646.0,1295.0,0.038,0.646,0.175,0.742
1313657,6936.0,7086.0,1269.0,0.043,0.647,0.174,0.742
1313673,6786.0,7016.0,1337.0,0.049,0.647,0.174,0.741
1313689,7264.0,7472.0,1011.0,0.057,0.646,0.177,0.74
1313705,7536.0,6814.0,1117.0,0.067,0.645,0.181,0.74
1313732,7760.0,7428.0,1011.0,0.077,0.642,0.189,0.739
1313748,7674.0,7084.0,1189.0,0.09,0.638,0.198,0.738
1313764,7988.0,7768.0,1163.0,0.105,0.635,0.208,0.737
1313780,8100.0,7272.0,1229.0,0.121,0.63,0.221,0.735
1313796,8536.0,7924.0,1153.0,0.138,0.625,0.234,0.732
1313812,8766.0,7424.0,1233.0,0.157,0.618,0.25,0.729
1313839,8896.0,7840.0,1161.0,0.177,0.611,0.266,0.724
1313855,9020.0,7618.0,1155.0,0.198,0.602,0.284,0.719
1313871,9084.0,8670.0,1109.0,0.22,0.593,0.303,0.713
1313887,9300.0,8242.0,1085.0,0.242,0.582,0.323,0.706
1313903,9012.0,8702.0,1231.0,0.264,0.57,0.343,0.698
1313919,8680.0,8900.0,1163.0,0.287,0.557,0.364,0.689
1313935,8256.0,9556.0,1375.0,0.31,0.543,0.385,0.679
1313961,8022.0,10012.0,1255.0,0.334,0.529,0.405,0.667
1313978,7748.0,8930.0,785.0,0.359,0.513,0.424,0.654
1313995,6668.0,9286.0,999.0,0.382,0.498,0.443,0.64
1314012,5988.0,9188.0,815.0,0.406,0.481,0.462,0.625
1314029,5046.0,8100.0,783.0,0.429,0.464,0.479,0.61
1314046,3980.0,7846.0,757.0,0.451,0.447,0.495,0.593
1314062,3574.0,8576.0,545.0,0.473,0.429,0.51,0.576
1314078,3280.0,7168.0,567.0,0.494,0.412,0.522,0.561
1314105,2664.0,7166.0,805.0,0.513,0.394,0.534,0.544
1314121,2462.0,6692.0,671.0,0.532,0.375,0.545,0.528
1314137,1714.0,5800.0,747.0,0.55,0.356,0.556,0.512
1314153,1044.0,5582.0,779.0,0.567,0.338,0.565,0.495
1314170,338.0,5840.0,955.0,0.583,0.32,0.574,0.479
1314186,274.0,4984.0,719.0,0.598,0.301,0.581,0.463
1314202,-436.0,5342.0,783.0,0.612,0.284,0.588,0.447
1314219,-366.0,5606.0,553.0,0.625,0.267,0.593,0.432
1314236,-676.0,3738.0,639.0,0.638,0.25,0.597,0.418
1314262,-848.0,4666.0,291.0,0.649,0.234,0.602,0.403
1314278,-1638.0,3820.0,491.0,0.659,0.217,0.606,0.39
1314294,-2262.0,2752.0,871.0,0.668,0.201,0.609,0.378
1314311,-2754.0,1544.0,689.0,0.676,0.186,0.612,0.366
1314327,-3722.0,726.0,839.0,0.682,0.173,0.616,0.355
1314343,-4526.0,-2.0,851.0,0.687,0.163,0.619,0.344
1314360,-5558.0,-1070.0,1181.0,0.691,0.155,0.622,0.335
1314387,-6646.0,-1234.0,1265.0,0.694,0.15,0.624,0.326
1314403,-6988.0,-1768.0,1125.0,0.696,0.148,0.625,0.32
1314419,-7086.0,-2240.0,1151.0,0.698,0.147,0.625,0.316
1314435,-6762.0,-38.0,781.0,0.699,0.151,0.624,0.316
1314452,-6098.0,-410.0,781.0,0.698,0.155,0.621,0.321
1314469,-5406.0,-66.0,809.0,0.696,0.16,0.618,0.328
1314486,-5046.0,882.0,765.0,0.692,0.167,0.615,0.339
1314502,-4626.0,2060.0,777.0,0.686,0.176,0.612,0.351
1314528,-4510.0,2356.0,1073.0,0.679,0.185,0.608,0.367
1314544,-3852.0,1352.0,1385.0,0.67,0.198,0.605,0.381
1314560,-3870.0,4172.0,1521.0,0.659,0.212,0.604,0.395
1314576,-3846.0,5094.0,1911.0,0.648,0.228,0.601,0.41
1314592,-3508.0,5096.0,1825.0,0.636,0.244,0.597,0.424
1314608,-2518.0,5068.0,1397.0,0.624,0.261,0.593,0.437
1314635,-2112.0,6322.0,1185.0,0.611,0.279,0.59,0.448
1314651,-1710.0,9292.0,799.0,0.598,0.295,0.586,0.46
1314667,-1846.0,7258.0,1531.0,0.585,0.311,0.58,0.474
1314683,-1396.0,6636.0,1205.0,0.572,0.327,0.574,0.486
1314700,-574.0,7788.0,819.0,0.558,0.342,0.57,0.497
1314716,-784.0,8854.0,793.0,0.544,0.357,0.565,0.508
1314733,-556.0,8414.0,929.0,0.529,0.37,0.559,0.52
1314759,-752.0,7564.0,1199.0,0.515,0.383,0.552,0.532
1314775,132.0,8276.0,699.0,0.499,0.396,0.546,0.544
1314791,512.0,7570.0,935.0,0.484,0.409,0.54,0.554
1314807,458.0,8536.0,637.0,0.469,0.42,0.534,0.564
1314823,1316.0,9408.0,579.0,0.455,0.431,0.527,0.574
1314839,748.0,7368.0,823.0,0.44,0.441,0.518,0.586
1314865,2036.0,8190.0,369.0,0.425,0.452,0.51,0.596
1314881,1986.0,8186.0,487.0,0.409,0.462,0.501,0.607
1314897,2494.0,8940.0,331.0,0.393,0.472,0.49,0.619
1314913,3076.0,6924.0,481.0,0.378,0.481,0.478,0.631
1314929,3080.0,7516.0,1051.0,0.362,0.49,0.466,0.642
1314945,4076.0,7754.0,879.0,0.346,0.501,0.454,0.651
1314971,4778.0,8332.0,655.0,0.33,0.511,0.442,0.659
1314987,4732.0,8132.0,843.0,0.314,0.521,0.428,0.668
1315003,5182.0,7350.0,679.0,0.3,0.529,0.414,0.677
1315019,5582.0,7886.0,461.0,0.285,0.538,0.4,0.685
1315035,6420.0,7426.0,449.0,0.27,0.546,0.385,0.693
1315051,6274.0,7040.0,743.0,0.255,0.554,0.371,0.7
1315077,6610.0,7636.0,551.0,0.241,0.561,0.355,0.707
1315093,6438.0,5858.0,813.0,0.228,0.569,0.34,0.714
1315109,6680.0,6550.0,707.0,0.214,0.576,0.326,0.719
1315125,7208.0,7386.0,559.0,0.199,0.582,0.311,0.724
1315141,7568.0,5990.0,683.0,0.186,0.589,0.296,0.729
1315158,7426.0,6592.0,923.0,0.173,0.595,0.282,0.733
1315184,7812.0,5524.0,793.0,0.161,0.601,0.267,0.736
1315200,7604.0,5636.0,891.0,0.148,0.606,0.254,0.739
1315216,7812.0,6048.0,737.0,0.135,0.611,0.241,0.741
1315232,7894.0,6060.0,977.0,0.123,0.617,0.228,0.743
1315248,8026.0,5746.0,931.0,0.112,0.621,0.215,0.745
1315264,8080.0,5280.0,989.0,0.102,0.626,0.203,0.746
1315290,7966.0,5106.0,965.0,0.093,0.63,0.192,0.747
1315306,7656.0,5588.0,1089.0,0.084,0.634,0.183,0.747
1315322,7502.0,5462.0,1173.0,0.076,0.637,0.173,0.747
1315338,7688.0,5766.0,1087.0,0.068,0.641,0.164,0.747
1315355,7872.0,5252.0,1173.0,0.062,0.644,0.155,0.747
1315371,7890.0,5620.0,1161.0,0.057,0.647,0.148,0.746
1315387,7948.0,5814.0,1327.0,0.053,0.649,0.142,0.746
1315414,7986.0,6022.0,1313.0,0.051,0.65,0.137,0.745
1315430,7624.0,5762.0,1855.0,0.051,0.652,0.133,0.745
1315446,7510.0,5942.0,1737.0,0.052,0.653,0.132,0.744
1315462,7212.0,6508.0,1879.0,0.055,0.654,0.131,0.743
1315478,7284.0,6754.0,1895.0,0.06,0.655,0.132,0.742
1315494,7182.0,6854.0,2235.0,0.067,0.655,0.134,0.741
1315520,7400.0,6742.0,2385.0,0.076,0.653,0.139,0.74
1315536,7792.0,7296.0,2331.0,0.086,0.651,0.144,0.74
1315552,8148.0,7190.0,2269.0,0.098,0.647,0.152,0.741
1315568,8342.0,7442.0,2385.0,0.111,0.642,0.16,0.742
1315584,8648.0,7496.0,2249.0,0.127,0.635,0.17,0.743
1315600,8620.0,7220.0,2529.0,0.143,0.628,0.18,0.744
1315626,8886.0,6682.0,2413.0,0.161,0.619,0.191,0.744
1315642,9046.0,7422.0,2345.0,0.18,0.61,0.205,0.744
1315658,9234.0,7412.0,2365.0,0.2,0.599,0.219,0.744
1315674,9548.0,7340.0,2233.0,0.22,0.588,0.235,0.742
1315690,9594.0,7762.0,2169.0,0.242,0.575,0.252,0.74
1315706,9608.0,7916.0,2159.0,0.264,0.562,0.27,0.736
1315723,9442.0,8206.0,2127.0,0.286,0.547,0.289,0.732
1315749,9088.0,7580.0,2251.0,0.308,0.532,0.309,0.726
1315765,8534.0,8138.0,2139.0,0.33,0.516,0.33,0.718
1315781,8082.0,8354.0,2095.0,0.352,0.5,0.351,0.709
1315797,7376.0,7792.0,2087.0,0.374,0.483,0.372,0.699
1315813,6570.0,7826.0,1919.0,0.396,0.465,0.394,0.687
1315839,5928.0,8724.0,1609.0,0.417,0.448,0.415,0.673
1315855,5136.0,7802.0,1877.0,0.437,0.43,0.435,0.659
1315871,4834.0,7744.0,1551.0,0.457,0.412,0.454,0.644
1315888,4020.0,7170.0,1487.0,0.475,0.394,0.473,0.629
1315904,3272.0,7496.0,1393.0,0.493,0.377,0.49,0.613
1315920,2576.0,6288.0,1335.0,0.51,0.359,0.506,0.596
1315937,1972.0,6916.0,1097.0,0.526,0.341,0.521,0.579
1315953,1490.0,6030.0,1087.0,0.541,0.323,0.534,0.563
1315979,1006.0,6418.0,1009.0,0.556,0.305,0.545,0.548
1315995,390.0,4878.0,1167.0,0.57,0.288,0.555,0.533
1316011,10.0,4628.0,1165.0,0.582,0.271,0.565,0.519
1316027,-546.0,4110.0,999.0,0.594,0.255,0.573,0.504
1316044,-914.0,5552.0,839.0,0.605,0.239,0.58,0.49
1316061,-1094.0,3708.0,1005.0,0.615,0.223,0.586,0.477
1316078,-1796.0,3188.0,1039.0,0.625,0.208,0.592,0.465
1316095,-2282.0,3322.0,927.0,0.634,0.194,0.596,0.453
1316122,-2612.0,2844.0,939.0,0.642,0.181,0.6,0.442
1316139,-2806.0,2894.0,447.0,0.649,0.168,0.603,0.433
1316155,-3402.0,2002.0,711.0,0.655,0.155,0.605,0.425
1316171,-3970.0,1022.0,803.0,0.661,0.143,0.607,0.418
1316187,-4444.0,540.0,595.0,0.665,0.133,0.608,0.413
1316203,-5284.0,-266.0,711.0,0.669,0.124,0.608,0.41
1316219,-5888.0,-758.0,633.0,0.67,0.118,0.608,0.409
1316245,-6886.0,-1390.0,791.0,0.67,0.114,0.607,0.412
1316262,-7250.0,-1272.0,975.0,0.669,0.112,0.606,0.416
1316279,-7222.0,-1076.0,1145.0,0.666,0.113,0.603,0.423
1316296,-6916.0,-134.0,1311.0,0.662,0.118,0.599,0.434
1316312,-6238.0,214.0,1557.0,0.657,0.126,0.594,0.447
1316328,-5482.0,832.0,1725.0,0.651,0.137,0.589,0.459
1316344,-4942.0,2332.0,1793.0,0.644,0.15,0.582,0.473
1316360,-4218.0,3464.0,2055.0,0.635,0.164,0.576,0.488
1316387,-3176.0,4196.0,2205.0,0.626,0.18,0.569,0.502
1316403,-2494.0,5544.0,2135.0,0.616,0.196,0.561,0.517
1316419,-1682.0,6392.0,2297.0,0.605,0.212,0.554,0.532
1316435,-1372.0,6918.0,2451.0,0.594,0.228,0.545,0.546
1316451,-770.0,7326.0,2833.0,0.582,0.244,0.538,0.559
1316467,-642.0,7306.0,2555.0,0.57,0.259,0.53,0.572
1316493,-348.0,8908.0,2589.0,0.559,0.274,0.523,0.582
1316509,-384.0,7838.0,2489.0,0.547,0.288,0.515,0.594
1316525,-460.0,8930.0,2665.0,0.536,0.301,0.508,0.603
1316541,-268.0,7230.0,2573.0,0.525,0.314,0.5,0.613
1316557,-4.0,8508.0,2451.0,0.514,0.328,0.493,0.62
1316573,504.0,8318.0,2217.0,0.503,0.341,0.486,0.628
1316599,38.0,8148.0,2449.0,0.492,0.352,0.478,0.636
1316615,708.0,7984.0,2383.0,0.481,0.365,0.471,0.643
1316631,1140.0,7554.0,2267.0,0.469,0.377,0.464,0.65
1316647,1942.0,9276.0,1903.0,0.457,0.389,0.458,0.656
1316663,1952.0,8794.0,2035.0,0.445,0.399,0.45,0.663
1316689,2226.0,8052.0,2043.0,0.433,0.409,0.442,0.671
1316705,2484.0,8160.0,2221.0,0.42,0.42,0.435,0.677
1316721,2460.0,7518.0,2155.0,0.407,0.431,0.428,0.682
1316737,3224.0,8728.0,1685.0,0.395,0.44,0.42,0.688
1316753,2944.0,7392.0,2093.0,0.384,0.45,0.412,0.693
1316769,3236.0,8044.0,1965.0,0.373,0.46,0.403,0.698
1316795,3946.0,7504.0,1865.0,0.361,0.471,0.394,0.702
1316811,4090.0,7286.0,1847.0,0.348,0.482,0.386,0.705
1316828,4396.0,7690.0,1467.0,0.337,0.491,0.377,0.709
1316844,3902.0,6638.0,1885.0,0.325,0.5,0.368,0.713
1316861,4334.0,7036.0,1823.0,0.313,0.509,0.358,0.717
1316878,4744.0,6350.0,1885.0,0.3,0.519,0.349,0.72
1316895,5426.0,7158.0,1531.0,0.287,0.529,0.34,0.723
1316912,5352.0,6648.0,1793.0,0.275,0.537,0.331,0.725
1316928,5406.0,5956.0,1667.0,0.262,0.546,0.321,0.728
1316944,5812.0,6722.0,1499.0,0.249,0.555,0.312,0.73
1316970,6474.0,6958.0,1395.0,0.235,0.563,0.303,0.732
1316986,6758.0,6674.0,1379.0,0.222,0.571,0.293,0.734
1317002,6874.0,6268.0,1575.0,0.209,0.578,0.283,0.736
1317018,7104.0,6050.0,1457.0,0.196,0.584,0.275,0.738
1317034,6984.0,5864.0,1491.0,0.183,0.59,0.266,0.74
1317060,7208.0,6880.0,1215.0,0.17,0.596,0.259,0.741
1317076,6968.0,5862.0,1417.0,0.158,0.601,0.25,0.742
1317092,6890.0,5524.0,1365.0,0.146,0.607,0.242,0.743
1317108,6970.0,5404.0,1277.0,0.134,0.612,0.234,0.744
1317125,6938.0,5232.0,1247.0,0.121,0.617,0.226,0.744
1317141,7136.0,4876.0,1249.0,0.109,0.622,0.219,0.744
1317158,7524.0,5700.0,911.0,0.096,0.627,0.212,0.744
1317184,7516.0,4840.0,1049.0,0.084,0.631,0.205,0.744
1317200,7678.0,4984.0,1097.0,0.072,0.635,0.198,0.744
1317216,8250.0,5630.0,843.0,0.059,0.638,0.191,0.743
1317232,8264.0,5384.0,591.0,0.049,0.641,0.184,0.743
1317248,8394.0,4482.0,827.0,0.041,0.643,0.178,0.744
1317264,8174.0,5816.0,1069.0,0.034,0.645,0.175,0.743
1317290,7962.0,5804.0,1027.0,0.029,0.646,0.172,0.743
1317307,7758.0,6268.0,1163.0,0.026,0.648,0.17,0.742
1317324,7546.0,6694.0,1237.0,0.025,0.649,0.17,0.741
1317340,7598.0,6816.0,1259.0,0.027,0.649,0.171,0.741
1317357,7826.0,7014.0,1219.0,0.031,0.649,0.173,0.74
1317373,7830.0,7674.0,1353.0,0.037,0.648,0.176,0.74
1317389,7902.0,7478.0,1325.0,0.046,0.647,0.181,0.739
1317406,8102.0,7540.0,1227.0,0.056,0.645,0.187,0.739
1317422,8288.0,7694.0,1451.0,0.068,0.642,0.195,0.739
1317449,8780.0,7400.0,1459.0,0.082,0.638,0.204,0.738
1317465,9240.0,8244.0,1187.0,0.099,0.633,0.216,0.737
1317481,9494.0,8188.0,1253.0,0.118,0.627,0.228,0.736
1317497,9568.0,7594.0,1667.0,0.138,0.619,0.242,0.734
1317513,9588.0,7988.0,1801.0,0.159,0.61,0.259,0.732
1317529,9860.0,8746.0,1483.0,0.18,0.599,0.276,0.729
1317555,9846.0,8274.0,1633.0,0.203,0.588,0.295,0.726
1317571,9492.0,7858.0,1795.0,0.226,0.575,0.314,0.721
1317587,8946.0,7986.0,1707.0,0.25,0.562,0.335,0.714
1317603,8814.0,8576.0,1511.0,0.274,0.547,0.357,0.706
1317619,8598.0,7876.0,1423.0,0.297,0.532,0.379,0.697
1317635,7930.0,7864.0,1315.0,0.321,0.516,0.401,0.686
1317661,6930.0,8236.0,1309.0,0.345,0.499,0.423,0.673
1317677,6608.0,7848.0,1081.0,0.369,0.481,0.445,0.659
1317693,5568.0,7578.0,1045.0,0.393,0.463,0.466,0.643
1317709,4628.0,7042.0,1019.0,0.415,0.446,0.485,0.627
1317726,4392.0,7626.0,743.0,0.437,0.428,0.503,0.61
1317742,3784.0,7286.0,747.0,0.458,0.41,0.52,0.593
1317768,3340.0,7044.0,691.0,0.478,0.392,0.535,0.576
1317784,2842.0,6552.0,613.0,0.498,0.372,0.549,0.558
1317800,2174.0,5710.0,547.0,0.517,0.353,0.562,0.54
1317816,968.0,5636.0,595.0,0.535,0.333,0.574,0.523
1317832,500.0,5380.0,503.0,0.551,0.314,0.586,0.505
1317848,-90.0,5194.0,503.0,0.566,0.296,0.595,0.487
1317874,-520.0,4720.0,433.0,0.581,0.279,0.604,0.47
1317890,-858.0,4214.0,283.0,0.594,0.262,0.612,0.452
1317906,-1372.0,4226.0,187.0,0.606,0.246,0.618,0.436
1317922,-1988.0,3600.0,421.0,0.617,0.231,0.624,0.421
1317939,-2308.0,4084.0,231.0,0.627,0.217,0.629,0.406
1317956,-2656.0,3094.0,299.0,0.636,0.204,0.632,0.393
1317973,-2924.0,2248.0,231.0,0.644,0.191,0.635,0.381
1317999,-3582.0,2370.0,483.0,0.651,0.18,0.638,0.369
1318015,-4220.0,1468.0,401.0,0.657,0.171,0.641,0.358
1318031,-4582.0,1134.0,259.0,0.663,0.162,0.643,0.349
1318047,-5718.0,-120.0,647.0,0.667,0.156,0.644,0.341
1318064,-6476.0,-536.0,717.0,0.67,0.151,0.645,0.334
1318081,-7146.0,-748.0,803.0,0.672,0.15,0.646,0.33
1318097,-7172.0,-558.0,721.0,0.673,0.151,0.645,0.329
1318113,-7394.0,-1042.0,1187.0,0.673,0.152,0.644,0.331
1318130,-6970.0,-258.0,1219.0,0.671,0.158,0.641,0.337
1318156,-6486.0,-130.0,1407.0,0.668,0.164,0.638,0.346
1318172,-5982.0,558.0,1395.0,0.663,0.173,0.634,0.358
1318188,-5394.0,654.0,1413.0,0.657,0.185,0.63,0.371
1318204,-5064.0,1894.0,1543.0,0.648,0.198,0.627,0.385
1318220,-4350.0,2332.0,1599.0,0.639,0.212,0.623,0.399
1318246,-3880.0,3778.0,1347.0,0.629,0.227,0.618,0.413
1318262,-3070.0,5348.0,1155.0,0.619,0.243,0.612,0.429
1318278,-2242.0,3820.0,1201.0,0.607,0.259,0.605,0.445
1318294,-1638.0,5918.0,1039.0,0.595,0.277,0.599,0.459
1318310,-1432.0,6008.0,1159.0,0.582,0.293,0.593,0.474
1318326,-974.0,7882.0,973.0,0.568,0.31,0.585,0.49
1318352,-618.0,5416.0,1457.0,0.554,0.326,0.577,0.504
1318368,-240.0,7164.0,1003.0,0.539,0.343,0.569,0.518
1318384,1104.0,8138.0,379.0,0.523,0.359,0.562,0.531
1318400,314.0,7198.0,1213.0,0.508,0.373,0.552,0.546
1318416,1510.0,7928.0,801.0,0.491,0.389,0.543,0.559
1318432,1416.0,6534.0,883.0,0.474,0.404,0.534,0.572
1318458,2254.0,8298.0,337.0,0.455,0.419,0.526,0.583
1318474,2490.0,8628.0,419.0,0.437,0.433,0.516,0.596
1318490,2478.0,9022.0,535.0,0.418,0.446,0.505,0.609
1318506,3642.0,6766.0,459.0,0.399,0.46,0.494,0.621
1318522,3238.0,8016.0,717.0,0.378,0.473,0.482,0.633
1318538,4524.0,8278.0,147.0,0.358,0.487,0.47,0.643
1318564,4942.0,8360.0,263.0,0.339,0.499,0.458,0.654
1318580,4772.0,8030.0,489.0,0.32,0.509,0.443,0.664
1318596,5442.0,7654.0,347.0,0.301,0.521,0.43,0.674
1318613,5630.0,7800.0,291.0,0.281,0.532,0.415,0.683
1318630,6688.0,8050.0,229.0,0.262,0.542,0.4,0.691
1318646,6686.0,8274.0,483.0,0.244,0.551,0.385,0.699
1318662,6704.0,7442.0,623.0,0.227,0.56,0.369,0.706
1318688,7090.0,7538.0,587.0,0.21,0.569,0.353,0.712
1318704,7164.0,7148.0,755.0,0.194,0.578,0.337,0.717
1318720,7588.0,7302.0,631.0,0.178,0.586,0.321,0.722
1318736,7868.0,6138.0,911.0,0.163,0.594,0.306,0.726
1318752,7844.0,6714.0,839.0,0.148,0.601,0.291,0.729
1318768,8148.0,6798.0,795.0,0.133,0.608,0.276,0.732
1318794,8316.0,6612.0,761.0,0.118,0.615,0.261,0.735
1318810,8222.0,5880.0,975.0,0.104,0.621,0.246,0.737
1318826,8146.0,5670.0,969.0,0.091,0.627,0.231,0.739
1318843,8022.0,5438.0,1095.0,0.078,0.632,0.217,0.74
1318859,8278.0,5368.0,981.0,0.065,0.637,0.203,0.741
1318876,8672.0,5686.0,911.0,0.053,0.642,0.19,0.741
1318893,8662.0,5044.0,1001.0,0.041,0.645,0.177,0.742
1318909,8604.0,5034.0,1151.0,0.031,0.648,0.166,0.743
1318936,8284.0,5268.0,1293.0,0.022,0.651,0.156,0.743
1318952,8378.0,4976.0,1043.0,0.015,0.654,0.146,0.742
1318968,8362.0,5190.0,1151.0,0.008,0.656,0.139,0.742
1318984,8298.0,5504.0,1129.0,0.003,0.658,0.131,0.742
1319000,8194.0,4668.0,1291.0,0.001,-0.659,-0.125,-0.741
1319016,7974.0,5234.0,1307.0,0.002,-0.661,-0.121,-0.741
1319042,7832.0,5622.0,1359.0,0.003,-0.662,-0.119,-0.74
1319059,7652.0,5776.0,1353.0,0.0,-0.662,-0.118,-0.74
1319076,7334.0,5630.0,1633.0,0.003,0.663,0.118,0.74
1319093,7010.0,5842.0,1703.0,0.009,0.662,0.12,0.739
1319110,7102.0,6264.0,1827.0,0.016,0.662,0.123,0.739
1319126,7442.0,5940.0,1769.0,0.026,0.66,0.126,0.74
1319143,8048.0,6098.0,1619.0,0.036,0.658,0.132,0.741
1319159,8338.0,6376.0,1755.0,0.047,0.653,0.139,0.743
1319176,8480.0,6310.0,1837.0,0.06,0.648,0.148,0.745
1319192,8560.0,6648.0,1943.0,0.073,0.643,0.157,0.746
1319219,8970.0,6730.0,1931.0,0.089,0.637,0.168,0.747
1319235,9406.0,6620.0,2021.0,0.105,0.63,0.181,0.747
1319252,9916.0,6672.0,1795.0,0.122,0.623,0.197,0.747
1319268,10252.0,7228.0,1655.0,0.14,0.614,0.215,0.746
1319284,10172.0,8118.0,1647.0,0.159,0.605,0.234,0.744
1319300,9894.0,7758.0,1587.0,0.18,0.594,0.254,0.742
1319316,9352.0,7634.0,1659.0,0.201,0.583,0.275,0.738
1319342,9158.0,8456.0,1443.0,0.223,0.571,0.297,0.732
1319359,9038.0,7994.0,1519.0,0.245,0.559,0.319,0.725
1319376,8676.0,7926.0,1355.0,0.267,0.546,0.341,0.717
1319392,8490.0,8814.0,1221.0,0.29,0.532,0.363,0.708
1319409,7874.0,7588.0,1347.0,0.312,0.517,0.385,0.698
1319426,6906.0,7844.0,1325.0,0.335,0.501,0.407,0.686
1319443,6232.0,8318.0,1143.0,0.358,0.485,0.428,0.673
1319460,5546.0,7846.0,1173.0,0.381,0.468,0.448,0.659
1319477,4860.0,7854.0,1117.0,0.403,0.452,0.467,0.645
1319493,4596.0,7766.0,893.0,0.425,0.434,0.484,0.629
1319519,3684.0,6812.0,1031.0,0.447,0.417,0.499,0.615
1319535,3226.0,7048.0,901.0,0.468,0.399,0.513,0.599
1319551,2750.0,6990.0,851.0,0.488,0.381,0.526,0.584
1319567,2214.0,7044.0,909.0,0.506,0.363,0.538,0.568
1319583,2114.0,6284.0,861.0,0.524,0.344,0.548,0.553
1319599,1602.0,6348.0,729.0,0.541,0.326,0.558,0.538
1319625,902.0,5514.0,931.0,0.558,0.308,0.567,0.523
1319641,16.0,5730.0,955.0,0.573,0.29,0.575,0.508
1319658,102.0,5344.0,723.0,0.587,0.272,0.582,0.493
1319675,-986.0,4676.0,883.0,0.6,0.254,0.588,0.479
1319692,-1096.0,4176.0,887.0,0.613,0.237,0.594,0.464
1319709,-1770.0,4084.0,747.0,0.624,0.221,0.6,0.449
1319725,-2368.0,3812.0,925.0,0.635,0.206,0.604,0.435
1319742,-2288.0,3628.0,553.0,0.644,0.192,0.608,0.422
1319759,-2720.0,3218.0,613.0,0.653,0.178,0.612,0.41
1319776,-3186.0,2000.0,665.0,0.661,0.164,0.615,0.397
1319803,-3690.0,1782.0,581.0,0.668,0.152,0.618,0.385
1319819,-4164.0,1356.0,465.0,0.674,0.141,0.621,0.374
1319835,-4882.0,738.0,663.0,0.679,0.132,0.624,0.365
1319851,-5664.0,298.0,909.0,0.682,0.124,0.626,0.357
1319868,-6446.0,-1072.0,1033.0,0.684,0.119,0.628,0.351
1319884,-6948.0,-1282.0,897.0,0.685,0.117,0.629,0.347
1319900,-7466.0,-996.0,897.0,0.686,0.116,0.63,0.346
1319926,-7660.0,-1528.0,1023.0,0.685,0.118,0.629,0.347
1319943,-7238.0,-508.0,993.0,0.683,0.124,0.628,0.353
1319960,-6894.0,-512.0,1177.0,0.679,0.132,0.625,0.361
1319976,-6396.0,94.0,1407.0,0.675,0.142,0.621,0.372
1319992,-5828.0,506.0,1511.0,0.669,0.155,0.617,0.385
1320008,-5222.0,1436.0,1689.0,0.662,0.169,0.612,0.398
1320024,-4538.0,1802.0,1591.0,0.654,0.186,0.607,0.411
1320050,-3786.0,3528.0,1303.0,0.646,0.204,0.602,0.424
1320066,-3202.0,5522.0,1229.0,0.636,0.222,0.595,0.438
1320082,-2426.0,5642.0,1213.0,0.626,0.238,0.586,0.455
1320098,-1776.0,5036.0,1481.0,0.615,0.255,0.578,0.471
1320114,-1732.0,5498.0,1595.0,0.604,0.272,0.57,0.487
1320140,-1030.0,6494.0,1393.0,0.591,0.29,0.562,0.5
1320157,-850.0,8452.0,1281.0,0.578,0.306,0.554,0.515
1320174,-850.0,7488.0,1507.0,0.565,0.32,0.544,0.531
1320190,-356.0,6198.0,1703.0,0.552,0.335,0.534,0.545
1320206,-128.0,7116.0,1567.0,0.539,0.351,0.526,0.557
1320222,236.0,7798.0,1507.0,0.524,0.367,0.517,0.569
1320238,1098.0,9824.0,999.0,0.51,0.382,0.506,0.582
1320254,950.0,7676.0,1535.0,0.495,0.395,0.494,0.596
1320280,1682.0,6788.0,1423.0,0.48,0.409,0.482,0.608
1320296,2106.0,7584.0,1365.0,0.464,0.424,0.472,0.618
1320312,2318.0,8938.0,1351.0,0.447,0.439,0.462,0.627
1320328,3122.0,9106.0,903.0,0.432,0.452,0.45,0.638
1320344,3204.0,8138.0,1273.0,0.415,0.464,0.437,0.649
1320370,4170.0,7856.0,1307.0,0.398,0.477,0.425,0.659
1320386,4204.0,7652.0,1415.0,0.379,0.49,0.413,0.667
1320402,4634.0,7924.0,1333.0,0.361,0.503,0.401,0.675
1320418,5040.0,8334.0,1225.0,0.344,0.515,0.389,0.682
1320434,4666.0,6968.0,1461.0,0.328,0.526,0.375,0.69
1320450,5520.0,7740.0,1231.0,0.31,0.538,0.362,0.696
1320476,6130.0,6736.0,1353.0,0.292,0.55,0.348,0.701
1320492,6548.0,7434.0,1127.0,0.274,0.561,0.335,0.706
1320508,7056.0,6546.0,1151.0,0.256,0.571,0.322,0.711
1320524,6966.0,6598.0,1101.0,0.239,0.58,0.309,0.715
1320541,7206.0,7362.0,889.0,0.221,0.589,0.295,0.719
1320557,7512.0,6710.0,1139.0,0.203,0.597,0.281,0.723
1320573,7778.0,6564.0,1019.0,0.185,0.605,0.267,0.727
1320599,8114.0,5450.0,1213.0,0.169,0.612,0.252,0.73
1320615,8224.0,5606.0,1207.0,0.152,0.619,0.238,0.733
1320631,8416.0,5764.0,1097.0,0.136,0.625,0.225,0.735
1320647,8644.0,5534.0,995.0,0.12,0.63,0.211,0.738
1320663,8554.0,5266.0,1235.0,0.105,0.634,0.197,0.74
1320679,8576.0,5196.0,1131.0,0.091,0.638,0.184,0.742
1320705,8684.0,5342.0,919.0,0.079,0.642,0.17,0.743
1320721,8848.0,5186.0,879.0,0.068,0.646,0.156,0.744
1320737,9182.0,5186.0,789.0,0.056,0.649,0.142,0.746
1320753,9814.0,4380.0,1763.0,0.047,0.651,0.13,0.747
1320769,8520.0,4756.0,1449.0,0.039,0.652,0.12,0.747
1320785,8282.0,5076.0,1449.0,0.032,0.654,0.11,0.748
1320811,8094.0,4742.0,1357.0,0.028,0.655,0.1,0.748
1320827,8048.0,4676.0,1869.0,0.024,0.657,0.092,0.748
1320843,7808.0,5166.0,1979.0,0.022,0.659,0.084,0.747
1320859,7640.0,4766.0,1877.0,0.02,0.661,0.078,0.746
1320875,7918.0,5274.0,1487.0,0.019,0.663,0.074,0.745
1320901,7964.0,5304.0,1587.0,0.018,0.664,0.071,0.744
1320918,7912.0,4850.0,1795.0,0.019,0.664,0.071,0.744
1320934,7742.0,5412.0,1841.0,0.021,0.664,0.072,0.744
1320950,7736.0,6158.0,1787.0,0.024,0.663,0.075,0.744
1320966,7944.0,5842.0,1829.0,0.029,0.662,0.079,0.745
1320982,8246.0,6480.0,1741.0,0.036,0.66,0.085,0.746
1320998,8650.0,6406.0,1705.0,0.045,0.657,0.092,0.747
1321024,8928.0,5232.0,1783.0,0.057,0.652,0.102,0.749
1321041,9016.0,6104.0,1945.0,0.07,0.648,0.115,0.75
1321058,8934.0,6616.0,2011.0,0.085,0.643,0.13,0.75
1321075,9478.0,7168.0,1801.0,0.102,0.638,0.146,0.749
1321092,9476.0,6824.0,2105.0,0.121,0.632,0.163,0.748
1321108,9782.0,6942.0,1865.0,0.142,0.625,0.183,0.746
1321125,10294.0,7882.0,1533.0,0.164,0.617,0.203,0.743
1321142,10314.0,7922.0,1675.0,0.188,0.607,0.224,0.739
1321159,10330.0,7944.0,1523.0,0.213,0.597,0.246,0.734
1321185,9902.0,7626.0,1611.0,0.238,0.584,0.268,0.728
1321201,9246.0,7988.0,1783.0,0.264,0.571,0.292,0.72
1321217,8758.0,7794.0,1765.0,0.29,0.557,0.315,0.711
1321233,8076.0,7682.0,1825.0,0.317,0.542,0.339,0.7
1321249,7712.0,8350.0,1553.0,0.344,0.527,0.362,0.687
1321265,7494.0,8550.0,1389.0,0.371,0.511,0.385,0.673
1321291,6760.0,8090.0,1429.0,0.398,0.494,0.405,0.659
1321308,6068.0,7698.0,1455.0,0.423,0.476,0.425,0.643
1321325,5396.0,7292.0,1335.0,0.448,0.458,0.444,0.626
1321341,4604.0,7508.0,1335.0,0.471,0.44,0.462,0.61
1321358,4188.0,7514.0,1123.0,0.493,0.421,0.478,0.593
1321375,3542.0,6698.0,1249.0,0.513,0.403,0.492,0.576
1321391,2962.0,6430.0,1231.0,0.534,0.383,0.506,0.559
1321408,2252.0,6336.0,1067.0,0.552,0.365,0.518,0.542
1321425,1550.0,5954.0,1145.0,0.57,0.347,0.53,0.524
1321442,1100.0,5062.0,1125.0,0.586,0.329,0.54,0.507
1321458,590.0,5640.0,1047.0,0.601,0.312,0.549,0.489
1321485,256.0,5410.0,985.0,0.616,0.295,0.558,0.472
1321501,-356.0,4532.0,1129.0,0.629,0.278,0.565,0.456
1321517,-316.0,5268.0,1007.0,0.641,0.263,0.572,0.44
1321533,-1192.0,4474.0,745.0,0.652,0.248,0.578,0.425
1321549,-1226.0,4096.0,705.0,0.661,0.232,0.584,0.41
1321565,-1946.0,3424.0,757.0,0.67,0.217,0.589,0.396
1321591,-2616.0,2726.0,811.0,0.678,0.203,0.594,0.383
1321608,-2932.0,3272.0,717.0,0.684,0.189,0.599,0.37
1321625,-3654.0,2112.0,739.0,0.69,0.176,0.604,0.358
1321641,-3982.0,1060.0,865.0,0.696,0.165,0.607,0.347
1321658,-4750.0,1076.0,717.0,0.7,0.155,0.611,0.336
1321675,-5540.0,714.0,767.0,0.703,0.147,0.614,0.327
1321692,-6342.0,-218.0,991.0,0.706,0.141,0.616,0.32
1321709,-7012.0,-550.0,1017.0,0.707,0.137,0.618,0.314
1321726,-7468.0,-796.0,1139.0,0.708,0.135,0.619,0.311
1321743,-7680.0,-1088.0,1303.0,0.709,0.136,0.619,0.309
1321760,-7498.0,-774.0,1297.0,0.708,0.14,0.618,0.311
1321777,-7366.0,-442.0,1389.0,0.706,0.146,0.617,0.315
1321794,-7050.0,-78.0,1609.0,0.703,0.154,0.614,0.323
1321821,-6406.0,148.0,1589.0,0.698,0.165,0.611,0.333
1321837,-5812.0,362.0,1719.0,0.692,0.179,0.608,0.345
1321853,-5336.0,1050.0,1725.0,0.684,0.193,0.605,0.358
1321869,-4650.0,2086.0,1743.0,0.675,0.21,0.602,0.371
1321885,-4062.0,1974.0,1693.0,0.665,0.227,0.597,0.386
1321901,-3288.0,3456.0,1485.0,0.654,0.246,0.592,0.4
1321927,-2754.0,3802.0,1333.0,0.643,0.265,0.587,0.416
1321943,-2144.0,5026.0,1115.0,0.63,0.284,0.58,0.431
1321959,-1876.0,5082.0,1249.0,0.617,0.303,0.572,0.448
1321975,-802.0,5844.0,991.0,0.602,0.322,0.564,0.464
1321991,-410.0,6114.0,877.0,0.588,0.34,0.555,0.481
1322017,54.0,7442.0,897.0,0.572,0.357,0.545,0.498
1322033,518.0,7886.0,1081.0,0.555,0.374,0.534,0.516
1322049,864.0,6824.0,1103.0,0.538,0.39,0.522,0.535
1322065,2248.0,7466.0,749.0,0.52,0.406,0.512,0.551
1322081,1798.0,8722.0,937.0,0.501,0.42,0.5,0.568
1322097,2198.0,8888.0,1157.0,0.483,0.433,0.488,0.584
1322113,2322.0,7826.0,1371.0,0.465,0.447,0.474,0.6
1322139,3008.0,8260.0,1015.0,0.446,0.461,0.46,0.614
1322155,3638.0,8730.0,1015.0,0.428,0.474,0.447,0.627
1322172,3662.0,8594.0,1207.0,0.409,0.487,0.432,0.64
1322188,4440.0,8332.0,1155.0,0.391,0.499,0.416,0.652
1322204,4748.0,7698.0,1325.0,0.373,0.511,0.4,0.663
1322220,5124.0,7870.0,1075.0,0.354,0.523,0.384,0.673
1322246,6038.0,7422.0,1283.0,0.336,0.534,0.37,0.682
1322262,5864.0,8348.0,1433.0,0.318,0.544,0.354,0.691
1322278,6820.0,7958.0,1317.0,0.3,0.554,0.339,0.699
1322294,6656.0,6588.0,1361.0,0.281,0.563,0.323,0.706
1322310,7206.0,7196.0,1135.0,0.262,0.573,0.309,0.713
1322326,7308.0,7070.0,1133.0,0.244,0.581,0.295,0.718
1322352,7538.0,7288.0,979.0,0.226,0.589,0.28,0.724
1322368,7946.0,5932.0,1029.0,0.209,0.596,0.265,0.729
1322384,8040.0,6222.0,893.0,0.191,0.603,0.252,0.732
1322400,8102.0,6048.0,977.0,0.174,0.61,0.238,0.735
1322416,8286.0,5740.0,857.0,0.157,0.618,0.224,0.737
1322432,8636.0,5950.0,653.0,0.14,0.625,0.21,0.739
1322458,8654.0,5626.0,547.0,0.124,0.632,0.196,0.739
1322474,8618.0,5688.0,597.0,0.109,0.639,0.182,0.739
1322491,8598.0,4742.0,1043.0,0.096,0.646,0.168,0.739
1322508,9322.0,4160.0,183.0,0.083,0.652,0.156,0.737
1322524,8932.0,5192.0,357.0,0.071,0.656,0.145,0.737
1322541,8548.0,5494.0,647.0,0.058,0.659,0.134,0.738
1322558,7862.0,4828.0,1235.0,0.047,0.662,0.122,0.738
1322574,7972.0,4748.0,1263.0,0.038,0.666,0.112,0.737
1322600,8422.0,4784.0,1073.0,0.029,0.669,0.102,0.736
1322616,8506.0,4258.0,1213.0,0.022,0.671,0.093,0.735
1322632,8322.0,4948.0,1279.0,0.016,0.673,0.086,0.735
1322648,8116.0,5042.0,1491.0,0.011,0.674,0.08,0.734
1322664,7928.0,4766.0,1611.0,0.008,0.675,0.075,0.734
1322680,7830.0,5264.0,1629.0,0.006,0.677,0.071,0.733
1322706,7926.0,4638.0,1585.0,0.006,0.678,0.069,0.732
1322722,8080.0,5084.0,1373.0,0.008,0.678,0.069,0.731
1322738,8004.0,4968.0,1435.0,0.011,0.678,0.071,0.731
1322755,8128.0,5150.0,1377.0,0.015,0.677,0.074,0.732
1322771,8158.0,5392.0,1371.0,0.021,0.676,0.078,0.732
1322787,8106.0,5134.0,1581.0,0.029,0.675,0.084,0.733
1322803,8412.0,5334.0,1361.0,0.039,0.673,0.092,0.733
1322830,8384.0,5960.0,1275.0,0.05,0.67,0.102,0.734
1322846,8324.0,5520.0,1503.0,0.062,0.667,0.112,0.734
1322862,8524.0,5800.0,1397.0,0.076,0.664,0.123,0.734
1322878,8406.0,5840.0,1497.0,0.091,0.66,0.136,0.734
1322894,8214.0,6792.0,1797.0,0.108,0.655,0.15,0.733
1322911,8410.0,6410.0,2015.0,0.127,0.651,0.163,0.731
1322927,8930.0,7466.0,1577.0,0.148,0.645,0.177,0.728
1322953,9410.0,6468.0,1265.0,0.172,0.639,0.19,0.725
1322969,9488.0,6828.0,1051.0,0.196,0.631,0.206,0.722
1322986,9652.0,8642.0,885.0,0.22,0.621,0.223,0.719
1323002,9440.0,7926.0,1291.0,0.245,0.609,0.239,0.715
1323018,9280.0,7778.0,1461.0,0.269,0.597,0.257,0.711
1323034,9110.0,8882.0,1143.0,0.294,0.584,0.275,0.705
1323060,9008.0,8148.0,1257.0,0.32,0.569,0.292,0.699
1323077,8216.0,7944.0,1579.0,0.345,0.553,0.311,0.692
1323093,7512.0,8724.0,1667.0,0.369,0.536,0.329,0.684
1323110,7194.0,8816.0,1499.0,0.394,0.519,0.347,0.674
1323127,6682.0,7594.0,1637.0,0.419,0.502,0.364,0.664
1323144,6208.0,8860.0,1645.0,0.442,0.484,0.382,0.652
1323160,5332.0,7194.0,1635.0,0.465,0.465,0.399,0.639
1323176,4836.0,7010.0,1487.0,0.486,0.448,0.416,0.625
1323202,3712.0,7832.0,1591.0,0.506,0.429,0.433,0.61
1323218,3384.0,6876.0,1503.0,0.525,0.411,0.449,0.595
1323234,2746.0,6846.0,1605.0,0.543,0.393,0.464,0.579
1323250,2252.0,7224.0,1305.0,0.56,0.373,0.479,0.564
1323266,1274.0,5662.0,1707.0,0.576,0.354,0.493,0.548
1323282,414.0,5200.0,1663.0,0.591,0.334,0.507,0.531
1323308,-192.0,5750.0,1479.0,0.606,0.315,0.52,0.513
1323324,-502.0,6272.0,1349.0,0.62,0.296,0.531,0.496
1323341,-660.0,5404.0,1221.0,0.634,0.276,0.54,0.48
1323358,-1228.0,4194.0,1277.0,0.646,0.256,0.55,0.463
1323375,-1884.0,3906.0,1087.0,0.657,0.238,0.559,0.446
1323392,-2400.0,3314.0,1199.0,0.667,0.222,0.567,0.429
1323409,-2302.0,4998.0,855.0,0.676,0.207,0.575,0.412
1323425,-2772.0,4500.0,1083.0,0.683,0.193,0.581,0.398
1323441,-2902.0,3132.0,1321.0,0.689,0.179,0.587,0.384
1323467,-3106.0,3170.0,985.0,0.695,0.167,0.593,0.372
1323483,-3548.0,2086.0,1003.0,0.7,0.155,0.598,0.359
1323499,-4102.0,1658.0,1095.0,0.704,0.145,0.604,0.346
1323515,-4496.0,1926.0,1025.0,0.707,0.135,0.609,0.334
1323531,-5024.0,794.0,857.0,0.709,0.128,0.613,0.325
1323547,-5726.0,332.0,1235.0,0.71,0.122,0.617,0.317
1323573,-5942.0,-180.0,1029.0,0.711,0.119,0.619,0.311
1323589,-6124.0,-522.0,903.0,0.711,0.117,0.621,0.308
1323605,-6534.0,-600.0,1021.0,0.711,0.118,0.622,0.307
1323621,-6582.0,-880.0,931.0,0.709,0.12,0.622,0.31
1323637,-6748.0,-528.0,1191.0,0.707,0.125,0.62,0.315
1323653,-6508.0,-294.0,1351.0,0.705,0.132,0.618,0.324
1323679,-6372.0,-4.0,1485.0,0.701,0.142,0.614,0.334
1323695,-5970.0,496.0,1385.0,0.697,0.153,0.609,0.347
1323711,-5488.0,628.0,1505.0,0.691,0.167,0.604,0.36
1323727,-5002.0,1408.0,1571.0,0.684,0.183,0.599,0.375
1323743,-4292.0,2952.0,1383.0,0.676,0.201,0.593,0.39
1323769,-3766.0,3118.0,1591.0,0.666,0.219,0.586,0.406
1323785,-3136.0,4226.0,1613.0,0.656,0.238,0.579,0.422
1323801,-2570.0,4154.0,1693.0,0.644,0.258,0.572,0.438
1323817,-1560.0,6390.0,1445.0,0.632,0.279,0.565,0.452
1323833,-1552.0,7376.0,1367.0,0.619,0.298,0.557,0.468
1323849,-1164.0,6970.0,1533.0,0.605,0.315,0.547,0.484
1323865,-688.0,6056.0,1769.0,0.591,0.334,0.539,0.499
1323891,-170.0,7448.0,1251.0,0.576,0.354,0.53,0.512
1323907,536.0,9456.0,1147.0,0.56,0.372,0.522,0.524
1323923,254.0,8840.0,1155.0,0.546,0.387,0.511,0.539
1323940,438.0,7268.0,1861.0,0.531,0.403,0.501,0.552
1323957,656.0,8836.0,1613.0,0.515,0.419,0.49,0.564
1323973,1688.0,8758.0,1153.0,0.499,0.436,0.479,0.575
1323990,2024.0,8112.0,943.0,0.484,0.451,0.467,0.587
1324016,2524.0,8978.0,1017.0,0.469,0.464,0.455,0.598
1324032,2676.0,7520.0,1253.0,0.453,0.477,0.443,0.609
1324048,2752.0,8098.0,1277.0,0.436,0.491,0.431,0.619
1324064,3476.0,9788.0,1061.0,0.419,0.504,0.418,0.629
1324080,3204.0,8696.0,1165.0,0.403,0.515,0.402,0.641
1324096,4578.0,7310.0,547.0,0.388,0.526,0.386,0.652
1324122,4574.0,7020.0,1149.0,0.371,0.536,0.371,0.661
1324138,4960.0,8114.0,1267.0,0.355,0.547,0.357,0.669
1324154,5404.0,7660.0,1265.0,0.338,0.557,0.343,0.677
1324170,5250.0,7558.0,1097.0,0.322,0.566,0.329,0.683
1324187,5922.0,8104.0,1033.0,0.306,0.576,0.315,0.69
1324203,5982.0,7512.0,1123.0,0.291,0.584,0.3,0.696
1324229,6606.0,6796.0,1057.0,0.277,0.593,0.286,0.7
1324245,7292.0,7352.0,969.0,0.262,0.601,0.273,0.704
1324261,6972.0,7560.0,1173.0,0.248,0.608,0.261,0.708
1324277,6832.0,7036.0,1239.0,0.234,0.615,0.248,0.711
1324294,7272.0,6982.0,1005.0,0.221,0.622,0.236,0.713
1324310,7208.0,6562.0,925.0,0.208,0.628,0.224,0.715
1324326,7338.0,6324.0,981.0,0.196,0.634,0.213,0.718
1324352,7338.0,6400.0,1107.0,0.183,0.639,0.202,0.72
1324368,7290.0,6064.0,1033.0,0.171,0.643,0.19,0.722
1324384,7378.0,5864.0,1045.0,0.159,0.647,0.18,0.723
1324400,7144.0,5642.0,1149.0,0.146,0.651,0.169,0.725
1324416,7302.0,5518.0,1111.0,0.134,0.655,0.158,0.726
1324432,7500.0,5472.0,1135.0,0.123,0.659,0.148,0.728
1324458,7678.0,4958.0,1027.0,0.111,0.662,0.138,0.729
1324474,8088.0,5374.0,785.0,0.1,0.664,0.129,0.73
1324491,8148.0,5388.0,879.0,0.09,0.665,0.121,0.731
1324507,8150.0,5380.0,1091.0,0.083,0.667,0.114,0.732
1324523,8252.0,5544.0,959.0,0.076,0.668,0.108,0.733
1324540,8118.0,5790.0,1063.0,0.071,0.668,0.105,0.733
1324556,7462.0,5970.0,1515.0,0.069,0.669,0.102,0.733
1324573,7418.0,6250.0,1419.0,0.069,0.67,0.101,0.732
1324600,7314.0,6222.0,1189.0,0.071,0.672,0.101,0.73
1324616,7088.0,6416.0,1047.0,0.074,0.672,0.102,0.729
1324632,6918.0,6368.0,1039.0,0.078,0.672,0.103,0.729
1324648,6680.0,6320.0,1219.0,0.083,0.672,0.105,0.728
1324664,6802.0,6664.0,1095.0,0.09,0.671,0.108,0.728
1324680,7058.0,6528.0,1099.0,0.098,0.669,0.112,0.728
1324706,7356.0,6634.0,1249.0,0.108,0.666,0.117,0.729
1324722,7870.0,7038.0,1037.0,0.119,0.663,0.123,0.729
1324739,7954.0,6898.0,1249.0,0.13,0.659,0.13,0.729
1324756,8044.0,7124.0,1529.0,0.144,0.654,0.139,0.729
1324773,8434.0,7562.0,1401.0,0.16,0.649,0.149,0.728
1324790,8814.0,7880.0,1405.0,0.177,0.644,0.161,0.727
1324806,8796.0,7936.0,1571.0,0.196,0.638,0.173,0.725
1324823,8790.0,8272.0,1575.0,0.215,0.631,0.187,0.722
1324839,8722.0,8280.0,1627.0,0.237,0.623,0.202,0.718
1324856,8848.0,8254.0,1567.0,0.259,0.614,0.218,0.713
1324882,8784.0,8834.0,1711.0,0.282,0.604,0.235,0.707
1324898,8684.0,8716.0,1727.0,0.306,0.593,0.252,0.701
1324914,8536.0,8682.0,1757.0,0.331,0.581,0.27,0.693
1324930,8316.0,9134.0,1717.0,0.356,0.568,0.289,0.683
1324946,7836.0,8802.0,1887.0,0.382,0.554,0.308,0.673
1324972,7510.0,9460.0,1663.0,0.406,0.539,0.328,0.661
1324989,6872.0,8946.0,1979.0,0.431,0.523,0.348,0.648
1325006,6388.0,9204.0,1675.0,0.455,0.506,0.366,0.635
1325023,5624.0,8684.0,1939.0,0.479,0.488,0.385,0.62
1325040,4852.0,8316.0,1749.0,0.502,0.469,0.404,0.604
1325056,4182.0,8452.0,1729.0,0.524,0.45,0.421,0.588
1325072,3618.0,7940.0,1779.0,0.545,0.431,0.437,0.572
1325090,3054.0,7388.0,1657.0,0.564,0.411,0.453,0.555
1325106,1868.0,6482.0,1797.0,0.584,0.39,0.468,0.537
1325123,1450.0,6424.0,1799.0,0.602,0.37,0.482,0.519
1325149,970.0,6222.0,1429.0,0.618,0.35,0.496,0.5
1325165,390.0,5686.0,1625.0,0.633,0.33,0.508,0.482
1325181,-224.0,5190.0,1751.0,0.647,0.311,0.519,0.464
1325197,-652.0,4908.0,1467.0,0.66,0.292,0.529,0.447
1325213,-750.0,4476.0,1577.0,0.671,0.275,0.538,0.43
1325229,-1458.0,4682.0,1531.0,0.681,0.259,0.546,0.413
1325255,-1388.0,4372.0,1171.0,0.691,0.243,0.553,0.398
1325271,-1712.0,3344.0,1335.0,0.699,0.227,0.56,0.382
1325287,-2626.0,2784.0,1355.0,0.707,0.213,0.566,0.367
1325303,-2926.0,2398.0,1533.0,0.713,0.201,0.573,0.35
1325320,-2930.0,3102.0,1285.0,0.719,0.193,0.58,0.332
1325336,-3136.0,4168.0,825.0,0.724,0.182,0.585,0.316
1325352,-3522.0,2440.0,1129.0,0.729,0.171,0.59,0.303
1325378,-4104.0,798.0,1173.0,0.733,0.16,0.594,0.289
1325394,-4648.0,-70.0,999.0,0.737,0.151,0.599,0.275
1325410,-5232.0,-656.0,1037.0,0.739,0.143,0.604,0.263
1325426,-5484.0,-730.0,871.0,0.74,0.138,0.609,0.252
1325442,-5952.0,-1566.0,1111.0,0.739,0.134,0.613,0.245
1325458,-6100.0,-1502.0,1111.0,0.738,0.133,0.616,0.241
1325484,-5972.0,-1594.0,973.0,0.735,0.135,0.619,0.242
1325500,-5882.0,-1666.0,931.0,0.731,0.14,0.621,0.246
1325516,-5962.0,-968.0,955.0,0.727,0.147,0.622,0.253
1325532,-6068.0,-908.0,1043.0,0.721,0.156,0.622,0.264
1325548,-5972.0,-390.0,1027.0,0.714,0.169,0.621,0.276
1325564,-5658.0,398.0,1125.0,0.707,0.185,0.618,0.291
1325591,-5642.0,780.0,1341.0,0.699,0.202,0.614,0.306
1325607,-4998.0,1662.0,1183.0,0.69,0.221,0.609,0.322
1325623,-4222.0,2270.0,1003.0,0.681,0.241,0.602,0.34
1325639,-3558.0,3852.0,1039.0,0.671,0.262,0.593,0.358
1325655,-2682.0,4822.0,715.0,0.661,0.283,0.584,0.378
1325681,-2164.0,4510.0,873.0,0.649,0.304,0.573,0.398
1325697,-1120.0,6026.0,765.0,0.636,0.326,0.562,0.417
1325713,-1102.0,5698.0,1257.0,0.622,0.348,0.551,0.435
1325729,-40.0,9610.0,763.0,0.606,0.368,0.54,0.452
1325745,-872.0,7458.0,1565.0,0.592,0.387,0.528,0.471
1325761,266.0,9136.0,1167.0,0.576,0.405,0.515,0.488
1325787,560.0,7740.0,1179.0,0.56,0.423,0.503,0.505
1325804,914.0,8378.0,971.0,0.543,0.441,0.491,0.519
1325820,1110.0,8916.0,947.0,0.526,0.459,0.48,0.532
1325836,1626.0,9126.0,637.0,0.508,0.476,0.468,0.544
1325852,2100.0,7876.0,785.0,0.489,0.493,0.457,0.556
1325868,3128.0,9046.0,271.0,0.469,0.509,0.445,0.567
1325884,3542.0,9198.0,379.0,0.449,0.525,0.435,0.578
1325910,3502.0,8746.0,237.0,0.429,0.539,0.423,0.589
1325926,4150.0,8098.0,165.0,0.408,0.552,0.412,0.599
1325942,4100.0,7450.0,155.0,0.388,0.565,0.401,0.608
1325958,4628.0,8034.0,-139.0,0.367,0.576,0.391,0.617
1325974,5372.0,8464.0,-361.0,0.346,0.587,0.38,0.626
1325990,6038.0,8032.0,-447.0,0.326,0.596,0.369,0.634
1326016,5582.0,7740.0,-3.0,0.306,0.605,0.357,0.643
1326032,6530.0,7330.0,-627.0,0.287,0.613,0.345,0.651
1326048,6810.0,7156.0,-551.0,0.267,0.62,0.333,0.658
1326064,6538.0,7170.0,-315.0,0.248,0.626,0.321,0.666
1326080,7378.0,6938.0,-591.0,0.23,0.632,0.31,0.672
1326096,6812.0,6920.0,-233.0,0.213,0.637,0.298,0.678
1326122,7468.0,6848.0,-433.0,0.197,0.643,0.286,0.683
1326138,7396.0,7642.0,-497.0,0.181,0.648,0.273,0.687
1326155,7674.0,7348.0,-483.0,0.167,0.654,0.259,0.691
1326171,7830.0,6844.0,-233.0,0.154,0.659,0.245,0.694
1326187,7862.0,7094.0,-73.0,0.142,0.664,0.231,0.697
1326203,7934.0,6564.0,55.0,0.131,0.668,0.217,0.7
1326219,7796.0,6412.0,307.0,0.12,0.672,0.203,0.702
1326245,7736.0,6424.0,345.0,0.11,0.675,0.19,0.705
1326261,7478.0,6254.0,535.0,0.1,0.677,0.177,0.707
1326277,7564.0,6118.0,471.0,0.091,0.68,0.163,0.709
1326293,7552.0,6070.0,643.0,0.083,0.682,0.149,0.711
1326309,7660.0,5586.0,693.0,0.076,0.684,0.136,0.713
1326335,7916.0,5820.0,545.0,0.07,0.685,0.123,0.714
1326351,7868.0,5038.0,821.0,0.064,0.687,0.11,0.716
1326367,8030.0,5034.0,787.0,0.059,0.687,0.099,0.717
1326383,8214.0,5000.0,783.0,0.056,0.687,0.09,0.719
1326399,8024.0,5176.0,1031.0,0.054,0.687,0.082,0.72
1326415,8032.0,5362.0,997.0,0.053,0.687,0.076,0.72
1326441,7672.0,5748.0,1179.0,0.055,0.687,0.073,0.721
1326457,7896.0,6092.0,1103.0,0.058,0.688,0.07,0.72
1326473,8022.0,5976.0,1111.0,0.062,0.687,0.07,0.72
1326489,7954.0,6550.0,1293.0,0.069,0.687,0.072,0.72
1326505,7928.0,6488.0,1215.0,0.077,0.686,0.077,0.719
1326522,7908.0,6864.0,1209.0,0.086,0.684,0.083,0.719
1326539,7986.0,6952.0,1239.0,0.098,0.682,0.092,0.719
1326565,7932.0,7412.0,1347.0,0.111,0.679,0.102,0.719
1326581,8138.0,7340.0,1433.0,0.126,0.675,0.113,0.718
1326597,8298.0,6954.0,1347.0,0.142,0.67,0.126,0.717
1326613,8860.0,7642.0,1085.0,0.16,0.665,0.143,0.716
1326629,9132.0,7926.0,1087.0,0.178,0.657,0.161,0.714
1326646,8950.0,8722.0,1479.0,0.198,0.649,0.181,0.712
1326672,9008.0,9270.0,1415.0,0.218,0.64,0.203,0.709
1326688,9234.0,8974.0,1255.0,0.241,0.63,0.225,0.703
1326704,8976.0,9402.0,1099.0,0.264,0.62,0.249,0.696
1326720,8714.0,9600.0,1105.0,0.288,0.608,0.273,0.688
1326736,8378.0,9316.0,997.0,0.312,0.596,0.298,0.678
1326752,8080.0,10018.0,923.0,0.336,0.583,0.322,0.666
1326768,7772.0,9194.0,697.0,0.361,0.568,0.347,0.653
1326794,7084.0,9106.0,689.0,0.386,0.553,0.371,0.639
1326810,6466.0,8676.0,603.0,0.41,0.537,0.394,0.623
1326827,5912.0,8988.0,605.0,0.434,0.52,0.416,0.607
1326843,5838.0,8536.0,385.0,0.457,0.501,0.438,0.59
1326860,4940.0,7780.0,571.0,0.48,0.482,0.457,0.572
1326876,4372.0,8250.0,457.0,0.503,0.463,0.476,0.554
1326892,3598.0,7332.0,533.0,0.524,0.444,0.492,0.535
1326918,3046.0,7548.0,409.0,0.544,0.425,0.508,0.516
1326934,2728.0,6864.0,573.0,0.562,0.406,0.522,0.497
1326950,2178.0,6490.0,269.0,0.581,0.387,0.535,0.477
1326966,1914.0,6578.0,187.0,0.598,0.367,0.547,0.456
1326982,1262.0,5506.0,381.0,0.614,0.348,0.558,0.436
1326998,568.0,4902.0,287.0,0.629,0.329,0.569,0.415
1327025,-106.0,5610.0,323.0,0.642,0.311,0.579,0.394
1327041,-660.0,4524.0,261.0,0.655,0.292,0.587,0.374
1327057,-1136.0,3552.0,469.0,0.667,0.275,0.595,0.354
1327073,-1544.0,5216.0,531.0,0.678,0.257,0.601,0.334
1327089,-2104.0,2850.0,577.0,0.689,0.24,0.607,0.315
1327106,-2652.0,2752.0,357.0,0.698,0.224,0.612,0.297
1327122,-3094.0,1660.0,347.0,0.706,0.209,0.616,0.279
1327149,-3620.0,888.0,579.0,0.713,0.196,0.62,0.262
1327165,-4332.0,278.0,633.0,0.718,0.184,0.624,0.246
1327181,-4952.0,-318.0,769.0,0.722,0.175,0.628,0.232
1327197,-5326.0,-1010.0,725.0,0.725,0.167,0.632,0.22
1327213,-5904.0,-1720.0,1047.0,0.726,0.162,0.635,0.21
1327229,-6418.0,-2210.0,1235.0,0.726,0.159,0.637,0.204
1327255,-6448.0,-2224.0,1439.0,0.726,0.159,0.638,0.2
1327271,-6646.0,-2034.0,1547.0,0.725,0.162,0.639,0.201
1327287,-6690.0,-1790.0,1647.0,0.723,0.167,0.638,0.206
1327303,-6420.0,-1234.0,1511.0,0.719,0.174,0.637,0.215
1327320,-6182.0,-734.0,1495.0,0.715,0.183,0.636,0.227
1327336,-6018.0,-34.0,1505.0,0.709,0.195,0.634,0.241
1327353,-5600.0,742.0,1523.0,0.702,0.209,0.631,0.257
1327379,-5056.0,1806.0,1345.0,0.694,0.224,0.627,0.276
1327395,-4546.0,1914.0,1357.0,0.685,0.242,0.621,0.295
1327411,-3818.0,2432.0,1037.0,0.675,0.26,0.615,0.315
1327427,-3414.0,3722.0,949.0,0.663,0.279,0.608,0.335
1327443,-2908.0,3576.0,863.0,0.651,0.299,0.599,0.357
1327460,-2202.0,5182.0,675.0,0.638,0.318,0.59,0.379
1327476,-1730.0,5118.0,749.0,0.623,0.338,0.58,0.401
1327502,-1288.0,6322.0,753.0,0.607,0.357,0.569,0.424
1327518,-994.0,6626.0,935.0,0.591,0.376,0.557,0.447
1327534,-370.0,7016.0,675.0,0.574,0.394,0.543,0.469
1327550,526.0,7788.0,317.0,0.556,0.412,0.529,0.491
1327566,746.0,7310.0,751.0,0.538,0.428,0.515,0.512
1327592,1236.0,8596.0,707.0,0.52,0.444,0.499,0.532
1327608,1574.0,7916.0,933.0,0.501,0.46,0.483,0.551
1327624,3054.0,8894.0,45.0,0.481,0.475,0.469,0.568
1327640,2934.0,8762.0,657.0,0.461,0.49,0.454,0.585
1327656,3586.0,10178.0,505.0,0.442,0.503,0.438,0.6
1327672,3500.0,9152.0,775.0,0.424,0.515,0.422,0.614
1327698,3950.0,8002.0,705.0,0.404,0.528,0.406,0.627
1327714,4364.0,8682.0,697.0,0.384,0.54,0.39,0.639
1327730,5180.0,8896.0,467.0,0.365,0.552,0.375,0.649
1327746,5126.0,8672.0,759.0,0.346,0.563,0.359,0.659
1327763,5102.0,8376.0,809.0,0.328,0.574,0.343,0.668
1327779,6100.0,8126.0,573.0,0.309,0.583,0.327,0.676
1327795,6040.0,7016.0,761.0,0.289,0.593,0.311,0.684
1327821,6646.0,8038.0,601.0,0.27,0.601,0.296,0.692
1327838,6844.0,7212.0,867.0,0.251,0.61,0.28,0.698
1327854,6906.0,7176.0,869.0,0.233,0.617,0.262,0.704
1327870,7434.0,6214.0,677.0,0.216,0.624,0.245,0.71
1327886,7476.0,4996.0,877.0,0.198,0.631,0.227,0.715
1327902,8276.0,6056.0,577.0,0.179,0.637,0.21,0.72
1327928,8154.0,5220.0,783.0,0.16,0.642,0.191,0.725
1327944,8822.0,5428.0,633.0,0.142,0.646,0.173,0.729
1327960,9064.0,5074.0,719.0,0.125,0.65,0.155,0.734
1327976,9506.0,4390.0,749.0,0.109,0.653,0.137,0.737
1327992,9826.0,5050.0,715.0,0.094,0.655,0.12,0.74
1328008,9872.0,4456.0,883.0,0.08,0.657,0.104,0.743
1328034,9770.0,4288.0,1013.0,0.068,0.658,0.088,0.745
1328050,9570.0,4158.0,1185.0,0.057,0.66,0.074,0.745
1328066,9288.0,4270.0,1257.0,0.047,0.662,0.06,0.745
1328082,9072.0,3900.0,1439.0,0.039,0.665,0.048,0.744
1328098,9024.0,3918.0,1377.0,0.033,0.667,0.037,0.743
1328115,8622.0,3622.0,1481.0,0.027,0.669,0.027,0.742
1328131,8268.0,3678.0,1577.0,0.023,0.671,0.018,0.741
