timeMs,ax,ay,az,q0,q1,q2,q3
2952481,7403.0,5746.0,1367.0,0.249,0.666,-0.042,0.702
2952497,7433.0,5864.0,1515.0,0.255,0.666,-0.037,0.7
2952513,7647.0,5810.0,1473.0,0.263,0.665,-0.031,0.698
2952529,7751.0,5876.0,1369.0,0.271,0.664,-0.023,0.696
2952545,7729.0,5978.0,1309.0,0.28,0.664,-0.015,0.694
2952571,7745.0,6426.0,1317.0,0.29,0.663,-0.005,0.691
2952587,7701.0,6576.0,1293.0,0.3,0.661,0.005,0.687
2952603,7581.0,6644.0,1295.0,0.313,0.66,0.015,0.683
2952619,7667.0,6632.0,1085.0,0.326,0.659,0.026,0.678
2952635,7661.0,6838.0,993.0,0.339,0.657,0.037,0.672
2952661,7621.0,6964.0,873.0,0.353,0.656,0.049,0.666
2952677,7383.0,7094.0,877.0,0.368,0.654,0.061,0.659
2952693,7161.0,7080.0,783.0,0.384,0.651,0.072,0.651
2952710,6817.0,6984.0,735.0,0.401,0.648,0.083,0.642
2952726,6379.0,6658.0,635.0,0.417,0.645,0.093,0.633
2952742,6019.0,6770.0,627.0,0.434,0.642,0.103,0.624
2952758,5619.0,6086.0,923.0,0.451,0.638,0.112,0.614
2952784,5547.0,4596.0,1673.0,0.466,0.634,0.119,0.606
2952800,5753.0,3910.0,2011.0,0.479,0.629,0.126,0.599
2952816,5177.0,4238.0,2083.0,0.49,0.625,0.135,0.593
2952832,4867.0,5030.0,1761.0,0.499,0.621,0.143,0.587
2952848,4391.0,6138.0,1089.0,0.507,0.617,0.151,0.582
2952864,4169.0,6152.0,705.0,0.515,0.613,0.158,0.577
2952890,4129.0,6842.0,315.0,0.524,0.61,0.162,0.572
2952906,4265.0,6902.0,-85.0,0.533,0.606,0.165,0.566
2952922,3961.0,6706.0,-131.0,0.544,0.602,0.165,0.561
2952938,4011.0,6970.0,-155.0,0.556,0.598,0.163,0.554
2952954,3873.0,6664.0,-161.0,0.57,0.592,0.16,0.547
2952970,3661.0,6282.0,-83.0,0.585,0.585,0.154,0.541
2952996,3305.0,6066.0,169.0,0.6,0.577,0.147,0.534
2953012,3181.0,6154.0,303.0,0.615,0.568,0.138,0.529
2953028,2775.0,5072.0,613.0,0.632,0.558,0.125,0.523
2953044,2561.0,4910.0,629.0,0.649,0.546,0.109,0.519
2953060,2629.0,4836.0,337.0,0.667,0.532,0.088,0.514
2953076,2607.0,4558.0,-11.0,0.686,0.517,0.062,0.509
2953103,3373.0,4310.0,-319.0,0.704,0.5,0.034,0.504
2953120,4601.0,4526.0,255.0,0.722,0.481,0.005,0.498
2953136,5815.0,4062.0,2623.0,0.74,0.46,-0.024,0.49
2953153,7523.0,4464.0,6893.0,0.757,0.438,-0.049,0.482
2953169,7435.0,4452.0,10579.0,0.774,0.414,-0.068,0.474
2953186,4615.0,3678.0,9835.0,0.789,0.391,-0.083,0.467
2953202,2911.0,2406.0,8091.0,0.802,0.37,-0.096,0.459
2953219,2365.0,2122.0,6769.0,0.812,0.353,-0.108,0.451
2953246,2665.0,2102.0,6051.0,0.821,0.339,-0.119,0.443
2953263,2837.0,1860.0,5811.0,0.829,0.328,-0.13,0.435
2953279,3013.0,2344.0,5393.0,0.835,0.32,-0.138,0.426
2953295,3263.0,2620.0,5075.0,0.84,0.315,-0.146,0.416
2953311,3359.0,3832.0,4839.0,0.845,0.309,-0.153,0.408
2953328,3197.0,2886.0,5129.0,0.85,0.304,-0.16,0.4
2953345,3599.0,1964.0,5473.0,0.854,0.3,-0.166,0.391
2953361,4117.0,1628.0,5803.0,0.857,0.296,-0.172,0.385
2953377,5215.0,620.0,6589.0,0.861,0.287,-0.178,0.38
2953403,4465.0,-530.0,6791.0,0.865,0.276,-0.184,0.376
2953419,4299.0,-168.0,5959.0,0.87,0.264,-0.19,0.371
2953436,4281.0,1304.0,5667.0,0.874,0.252,-0.195,0.367
2953453,3791.0,2640.0,6143.0,0.879,0.237,-0.2,0.362
2953469,3307.0,2530.0,7451.0,0.884,0.222,-0.205,0.357
2953487,3275.0,1452.0,8485.0,0.888,0.207,-0.211,0.352
2953503,3089.0,1938.0,7343.0,0.891,0.195,-0.216,0.348
2953519,2725.0,1658.0,6891.0,0.895,0.183,-0.221,0.342
2953536,2763.0,-708.0,6993.0,0.897,0.173,-0.227,0.338
2953563,3471.0,-616.0,7267.0,0.898,0.168,-0.232,0.334
2953580,4171.0,-824.0,7871.0,0.899,0.163,-0.237,0.331
2953596,4533.0,-1466.0,8211.0,0.899,0.16,-0.242,0.329
2953613,4855.0,-1616.0,7859.0,0.898,0.157,-0.246,0.329
2953630,5257.0,-1928.0,6781.0,0.897,0.155,-0.25,0.329
2953647,6107.0,-1148.0,6665.0,0.897,0.155,-0.25,0.329
2953664,5951.0,736.0,6793.0,0.898,0.155,-0.247,0.329
2953681,5197.0,1732.0,6649.0,0.9,0.154,-0.243,0.327
2953698,4855.0,1652.0,6599.0,0.902,0.152,-0.239,0.326
2953715,4749.0,886.0,6859.0,0.904,0.15,-0.234,0.325
2953732,4575.0,106.0,7455.0,0.905,0.15,-0.23,0.325
2953750,4455.0,-270.0,8003.0,0.905,0.15,-0.225,0.327
2953769,4403.0,-314.0,8249.0,0.905,0.152,-0.221,0.329
2953786,4251.0,190.0,7983.0,0.905,0.154,-0.217,0.332
2953802,4083.0,400.0,7527.0,0.904,0.156,-0.213,0.335
2953829,3695.0,448.0,7129.0,0.904,0.158,-0.21,0.337
2953845,3469.0,558.0,7111.0,0.904,0.16,-0.207,0.338
2953861,3463.0,618.0,7225.0,0.904,0.162,-0.204,0.339
2953877,3263.0,598.0,7283.0,0.904,0.165,-0.201,0.34
2953893,3265.0,636.0,7291.0,0.904,0.167,-0.199,0.34
2953909,3233.0,870.0,7135.0,0.903,0.17,-0.198,0.341
2953935,3129.0,1068.0,6993.0,0.903,0.172,-0.196,0.342
2953952,2925.0,1178.0,7059.0,0.902,0.174,-0.196,0.342
2953969,2823.0,1098.0,7183.0,0.902,0.175,-0.196,0.342
2953985,2793.0,1120.0,7311.0,0.902,0.175,-0.196,0.342
2954002,2775.0,884.0,7541.0,0.902,0.176,-0.198,0.342
2954019,2885.0,742.0,7753.0,0.901,0.178,-0.199,0.341
2954035,3121.0,1038.0,7707.0,0.901,0.18,-0.201,0.34
2954052,3373.0,1362.0,7545.0,0.9,0.182,-0.203,0.34
2954069,3509.0,1398.0,7411.0,0.9,0.184,-0.205,0.339
2954086,3631.0,1394.0,7313.0,0.899,0.186,-0.206,0.339
2954112,3707.0,1480.0,7207.0,0.898,0.188,-0.207,0.339
2954128,3819.0,1576.0,7077.0,0.898,0.19,-0.207,0.339
2954144,3779.0,1288.0,7049.0,0.897,0.192,-0.207,0.34
2954160,3917.0,1466.0,6995.0,0.896,0.194,-0.206,0.342
2954176,3919.0,1460.0,7029.0,0.895,0.196,-0.204,0.344
2954192,3951.0,1510.0,6987.0,0.895,0.198,-0.201,0.346
2954218,3951.0,1680.0,6921.0,0.894,0.2,-0.198,0.35
2954234,3887.0,1880.0,6931.0,0.893,0.201,-0.194,0.353
2954250,3771.0,1954.0,7035.0,0.892,0.201,-0.19,0.358
2954267,3631.0,1866.0,7173.0,0.891,0.201,-0.186,0.362
2954284,3553.0,1656.0,7227.0,0.89,0.201,-0.183,0.366
2954301,3405.0,1602.0,7311.0,0.89,0.2,-0.179,0.369
2954318,3265.0,1550.0,7351.0,0.889,0.2,-0.177,0.372
2954334,3109.0,1464.0,7363.0,0.888,0.2,-0.175,0.375
2954351,3071.0,1350.0,7371.0,0.888,0.199,-0.173,0.377
2954368,2989.0,1366.0,7307.0,0.888,0.199,-0.173,0.377
2954394,2963.0,1468.0,7307.0,0.888,0.199,-0.173,0.377
2954410,2979.0,1664.0,7243.0,0.888,0.199,-0.173,0.377
2954426,3043.0,1728.0,7155.0,0.888,0.199,-0.174,0.375
2954442,2995.0,1536.0,7219.0,0.889,0.198,-0.176,0.373
2954458,3077.0,1300.0,7219.0,0.89,0.197,-0.178,0.371
2954484,3179.0,1170.0,7261.0,0.891,0.196,-0.181,0.368
2954501,3327.0,1412.0,7257.0,0.891,0.196,-0.184,0.365
2954518,3437.0,1438.0,7321.0,0.892,0.195,-0.188,0.362
2954535,3557.0,1170.0,7379.0,0.893,0.194,-0.191,0.359
2954552,3715.0,1066.0,7275.0,0.894,0.193,-0.194,0.356
2954568,3755.0,1060.0,7209.0,0.894,0.192,-0.196,0.354
2954585,3759.0,1192.0,7229.0,0.894,0.192,-0.197,0.353
2954602,3825.0,1156.0,7177.0,0.895,0.192,-0.197,0.352
2954618,3825.0,1098.0,7169.0,0.894,0.192,-0.197,0.352
2954634,3843.0,1128.0,7199.0,0.894,0.193,-0.196,0.353
2954660,3809.0,1096.0,7221.0,0.894,0.193,-0.194,0.355
2954676,3849.0,1294.0,7223.0,0.894,0.194,-0.192,0.356
2954692,3817.0,1342.0,7233.0,0.893,0.195,-0.189,0.359
2954708,3751.0,1374.0,7195.0,0.893,0.195,-0.186,0.361
2954724,3615.0,1440.0,7243.0,0.892,0.196,-0.183,0.364
2954740,3551.0,1386.0,7245.0,0.892,0.196,-0.18,0.366
2954767,3499.0,1472.0,7287.0,0.891,0.197,-0.176,0.368
2954784,3357.0,1520.0,7255.0,0.891,0.198,-0.174,0.37
2954800,3233.0,1470.0,7241.0,0.891,0.198,-0.171,0.372
2954817,3199.0,1470.0,7281.0,0.89,0.199,-0.169,0.373
2954833,3101.0,1448.0,7281.0,0.89,0.2,-0.168,0.373
2954849,3095.0,1534.0,7313.0,0.89,0.201,-0.167,0.373
2954865,3103.0,1526.0,7343.0,0.89,0.201,-0.166,0.373
2954891,3119.0,1594.0,7327.0,0.89,0.202,-0.165,0.373
2954907,3153.0,1610.0,7281.0,0.89,0.203,-0.164,0.373
2954923,3185.0,1692.0,7287.0,0.89,0.204,-0.164,0.373
2954939,3195.0,1686.0,7289.0,0.89,0.204,-0.163,0.373
2954956,3181.0,1706.0,7269.0,0.89,0.205,-0.163,0.373
2954972,3211.0,1706.0,7273.0,0.89,0.205,-0.162,0.373
2954988,3181.0,1744.0,7317.0,0.89,0.206,-0.162,0.373
2955014,3183.0,1724.0,7315.0,0.89,0.206,-0.161,0.374
2955031,3189.0,1768.0,7273.0,0.89,0.207,-0.161,0.374
2955048,3171.0,1830.0,7249.0,0.889,0.208,-0.16,0.375
2955065,3157.0,1786.0,7269.0,0.889,0.208,-0.16,0.375
2955081,3143.0,1928.0,7269.0,0.889,0.209,-0.159,0.375
2955097,3165.0,1866.0,7283.0,0.889,0.209,-0.159,0.375
2955113,3179.0,1896.0,7235.0,0.889,0.21,-0.159,0.375
2955139,3197.0,1978.0,7201.0,0.889,0.21,-0.159,0.375
2955155,3251.0,1910.0,7261.0,0.889,0.21,-0.159,0.375
2955172,3247.0,1918.0,7223.0,0.889,0.21,-0.159,0.375
2955189,3281.0,1958.0,7211.0,0.889,0.21,-0.159,0.375
2955206,3283.0,1906.0,7137.0,0.889,0.209,-0.159,0.375
2955222,3287.0,1858.0,7213.0,0.889,0.209,-0.159,0.375
2955238,3273.0,1816.0,7281.0,0.889,0.208,-0.159,0.375
2955254,3243.0,1736.0,7261.0,0.889,0.207,-0.159,0.375
2955280,3275.0,1656.0,7303.0,0.89,0.206,-0.159,0.375
2955297,3233.0,1616.0,7341.0,0.89,0.206,-0.159,0.375
2955314,3225.0,1590.0,7313.0,0.89,0.205,-0.159,0.375
2955331,3175.0,1568.0,7311.0,0.89,0.204,-0.16,0.375
2955347,3137.0,1604.0,7237.0,0.89,0.204,-0.16,0.375
2955363,3147.0,1584.0,7113.0,0.89,0.204,-0.16,0.375
2955379,3009.0,1244.0,7063.0,0.89,0.204,-0.16,0.375
2955395,2703.0,1566.0,7317.0,0.89,0.204,-0.16,0.375
2955422,2727.0,1738.0,7519.0,0.89,0.204,-0.161,0.374
2955439,2963.0,1732.0,7597.0,0.89,0.205,-0.162,0.373
2955456,3165.0,1658.0,7509.0,0.89,0.205,-0.165,0.372
2955472,3389.0,1672.0,7359.0,0.89,0.206,-0.167,0.371
2955488,3613.0,1760.0,7233.0,0.89,0.206,-0.169,0.37
2955504,3747.0,1792.0,7149.0,0.89,0.206,-0.17,0.37
2955520,3813.0,1726.0,7089.0,0.89,0.206,-0.172,0.369
2955546,3841.0,1772.0,7039.0,0.89,0.205,-0.172,0.369
2955563,3837.0,1774.0,7039.0,0.89,0.205,-0.173,0.369
2955581,3839.0,1668.0,7109.0,0.89,0.204,-0.172,0.37
2955598,3723.0,1632.0,7181.0,0.89,0.203,-0.171,0.37
2955615,3615.0,1624.0,7243.0,0.89,0.203,-0.17,0.371
2955632,3505.0,1552.0,7255.0,0.89,0.202,-0.169,0.372
2955648,3391.0,1504.0,7327.0,0.89,0.201,-0.167,0.373
2955665,3283.0,1460.0,7301.0,0.89,0.201,-0.165,0.374
2955682,3175.0,1436.0,7283.0,0.89,0.201,-0.163,0.375
2955699,3099.0,1430.0,7267.0,0.89,0.201,-0.162,0.376
2955716,3025.0,1480.0,7345.0,0.89,0.201,-0.16,0.377
2955733,2971.0,1520.0,7301.0,0.89,0.201,-0.159,0.378
2955750,2995.0,1564.0,7331.0,0.889,0.202,-0.158,0.379
2955767,3061.0,1608.0,7307.0,0.889,0.202,-0.157,0.379
2955784,3091.0,1660.0,7317.0,0.889,0.203,-0.157,0.38
2955811,3137.0,1786.0,7277.0,0.889,0.204,-0.157,0.38
2955828,3251.0,1774.0,7253.0,0.888,0.204,-0.157,0.38
2955845,3229.0,1818.0,7223.0,0.888,0.205,-0.157,0.38
2955862,3301.0,1824.0,7225.0,0.888,0.205,-0.156,0.38
2955878,3317.0,1788.0,7281.0,0.888,0.205,-0.156,0.38
2955895,3319.0,1796.0,7193.0,0.888,0.205,-0.156,0.38
2955912,3237.0,1772.0,7267.0,0.888,0.205,-0.156,0.38
2955929,3219.0,1794.0,7273.0,0.888,0.205,-0.156,0.38
2955946,3177.0,1760.0,7251.0,0.888,0.205,-0.155,0.38
2955963,3153.0,1756.0,7253.0,0.889,0.205,-0.155,0.38
2955980,3163.0,1806.0,7255.0,0.889,0.206,-0.155,0.38
2955997,3165.0,1782.0,7283.0,0.889,0.206,-0.154,0.38
2956023,3177.0,1822.0,7297.0,0.889,0.206,-0.154,0.38
2956039,3201.0,1870.0,7241.0,0.889,0.206,-0.154,0.38
2956055,3189.0,1908.0,7249.0,0.889,0.206,-0.154,0.38
2956072,3231.0,1842.0,7223.0,0.889,0.206,-0.153,0.38
2956092,3165.0,1870.0,7225.0,0.889,0.206,-0.153,0.38
2956109,3225.0,1892.0,7237.0,0.889,0.206,-0.153,0.38
2956126,3227.0,1866.0,7239.0,0.889,0.206,-0.153,0.38
2956148,3247.0,1792.0,7309.0,0.889,0.206,-0.153,0.38
2956165,3207.0,1790.0,7301.0,0.889,0.205,-0.153,0.38
2956181,3259.0,1814.0,7297.0,0.889,0.205,-0.153,0.38
2956198,3173.0,1750.0,7283.0,0.889,0.204,-0.153,0.38
2956215,3235.0,1682.0,7309.0,0.889,0.204,-0.153,0.38
2956231,3223.0,1734.0,7287.0,0.889,0.204,-0.153,0.38
2956248,3177.0,1702.0,7303.0,0.889,0.204,-0.153,0.38
2956265,3163.0,1720.0,7257.0,0.889,0.204,-0.153,0.38
2956282,3183.0,1678.0,7309.0,0.889,0.204,-0.153,0.38
2956299,3221.0,1694.0,7269.0,0.889,0.204,-0.153,0.38
2956316,3197.0,1706.0,7281.0,0.889,0.204,-0.153,0.38
2956333,3241.0,1770.0,7287.0,0.889,0.204,-0.153,0.381
2956360,3249.0,1770.0,7277.0,0.889,0.204,-0.153,0.381
2956377,3247.0,1812.0,7257.0,0.889,0.204,-0.153,0.381
2956393,3189.0,1806.0,7275.0,0.889,0.205,-0.153,0.381
2956410,3205.0,1824.0,7259.0,0.889,0.205,-0.153,0.381
2956427,3225.0,1862.0,7265.0,0.889,0.205,-0.153,0.381
2956444,3245.0,1828.0,7255.0,0.888,0.204,-0.153,0.381
2956461,3183.0,1860.0,7249.0,0.888,0.204,-0.153,0.381
2956477,3193.0,1804.0,7213.0,0.888,0.204,-0.153,0.382
2956493,3217.0,1812.0,7293.0,0.889,0.204,-0.153,0.382
2956510,3167.0,1788.0,7281.0,0.889,0.204,-0.153,0.382
2956537,3185.0,1792.0,7297.0,0.889,0.203,-0.153,0.382
2956553,3117.0,1816.0,7219.0,0.889,0.203,-0.153,0.382
2956569,3095.0,1732.0,7189.0,0.889,0.203,-0.153,0.382
2956585,3073.0,1770.0,7291.0,0.889,0.203,-0.154,0.382
2956601,3129.0,1754.0,7289.0,0.889,0.203,-0.154,0.382
2956618,3147.0,1716.0,7315.0,0.889,0.202,-0.155,0.381
2956634,3161.0,1742.0,7347.0,0.889,0.202,-0.155,0.381
2956661,3259.0,1804.0,7351.0,0.889,0.202,-0.156,0.38
2956677,3361.0,1746.0,7305.0,0.889,0.202,-0.157,0.38
2956694,3389.0,1716.0,7257.0,0.889,0.201,-0.158,0.379
2956710,3447.0,1684.0,7179.0,0.889,0.201,-0.159,0.379
2956726,3465.0,1654.0,7181.0,0.889,0.201,-0.159,0.379
2956743,3463.0,1616.0,7175.0,0.89,0.2,-0.16,0.378
2956759,3445.0,1622.0,7195.0,0.89,0.2,-0.16,0.378
2956776,3353.0,1592.0,7259.0,0.89,0.199,-0.159,0.378
2956802,3411.0,1540.0,7333.0,0.89,0.199,-0.159,0.379
2956819,3371.0,1562.0,7329.0,0.89,0.199,-0.158,0.379
2956835,3345.0,1506.0,7289.0,0.89,0.199,-0.158,0.379
2956851,3269.0,1570.0,7293.0,0.89,0.199,-0.157,0.38
2956868,3241.0,1562.0,7311.0,0.89,0.199,-0.156,0.38
2956884,3207.0,1572.0,7235.0,0.89,0.199,-0.156,0.381
2956901,3129.0,1602.0,7251.0,0.889,0.2,-0.155,0.381
2956918,3149.0,1700.0,7285.0,0.889,0.2,-0.154,0.381
2956944,3153.0,1770.0,7265.0,0.889,0.201,-0.153,0.382
2956961,3163.0,1732.0,7293.0,0.889,0.201,-0.153,0.382
2956978,3157.0,1762.0,7261.0,0.889,0.201,-0.152,0.383
2956994,3159.0,1786.0,7281.0,0.889,0.202,-0.152,0.383
2957011,3209.0,1860.0,7257.0,0.889,0.202,-0.151,0.383
2957028,3215.0,1904.0,7245.0,0.889,0.202,-0.151,0.383
2957045,3225.0,1854.0,7209.0,0.889,0.202,-0.151,0.383
2957061,3139.0,1902.0,7221.0,0.889,0.202,-0.15,0.383
2957077,3163.0,1872.0,7261.0,0.889,0.202,-0.15,0.382
2957103,3147.0,1818.0,7301.0,0.889,0.202,-0.15,0.382
2957120,3109.0,1786.0,7285.0,0.889,0.202,-0.15,0.382
2957136,3219.0,1828.0,7299.0,0.889,0.202,-0.15,0.382
2957153,3211.0,1834.0,7289.0,0.89,0.202,-0.15,0.381
2957169,3197.0,1850.0,7297.0,0.89,0.202,-0.149,0.381
2957185,3235.0,1840.0,7259.0,0.89,0.202,-0.149,0.381
2957201,3241.0,1912.0,7283.0,0.89,0.201,-0.149,0.381
2957218,3179.0,1824.0,7295.0,0.89,0.201,-0.148,0.381
2957244,3187.0,1756.0,7253.0,0.89,0.201,-0.148,0.381
2957261,3063.0,1896.0,7229.0,0.891,0.2,-0.148,0.38
2957277,3135.0,1578.0,7333.0,0.891,0.2,-0.148,0.38
2957293,3127.0,1642.0,7285.0,0.891,0.2,-0.148,0.38
2957310,3161.0,1686.0,7299.0,0.891,0.199,-0.149,0.379
2957326,3215.0,1686.0,7279.0,0.891,0.199,-0.149,0.379
2957342,3213.0,1684.0,7289.0,0.891,0.199,-0.149,0.379
2957368,3251.0,1680.0,7307.0,0.891,0.199,-0.149,0.379
2957384,3329.0,1670.0,7275.0,0.891,0.199,-0.15,0.379
2957401,3295.0,1600.0,7303.0,0.891,0.199,-0.149,0.379
2957417,3281.0,1588.0,7287.0,0.891,0.199,-0.149,0.379
2957434,3299.0,1626.0,7261.0,0.891,0.199,-0.149,0.38
2957451,3263.0,1720.0,7277.0,0.891,0.2,-0.148,0.38
2957467,3237.0,1828.0,7303.0,0.891,0.201,-0.147,0.38
2957493,3181.0,1834.0,7317.0,0.89,0.201,-0.147,0.381
2957509,3163.0,1804.0,7311.0,0.89,0.202,-0.146,0.381
2957526,3121.0,1894.0,7233.0,0.89,0.202,-0.146,0.382
2957542,3163.0,1898.0,7239.0,0.89,0.203,-0.145,0.382
2957559,3179.0,1868.0,7261.0,0.89,0.203,-0.145,0.382
2957576,3131.0,1828.0,7189.0,0.89,0.203,-0.145,0.382
2957592,3161.0,1830.0,7183.0,0.89,0.204,-0.144,0.382
2957608,3171.0,1880.0,7185.0,0.89,0.204,-0.144,0.382
2957625,3217.0,1876.0,7245.0,0.89,0.204,-0.143,0.382
2957651,3211.0,1856.0,7269.0,0.89,0.204,-0.143,0.382
2957667,3205.0,1836.0,7267.0,0.89,0.204,-0.143,0.382
2957684,3205.0,1850.0,7259.0,0.89,0.204,-0.142,0.382
2957701,3143.0,1894.0,7259.0,0.89,0.205,-0.141,0.382
2957717,3061.0,1910.0,7245.0,0.89,0.205,-0.14,0.382
2957733,2997.0,1792.0,7301.0,0.89,0.205,-0.139,0.382
2957750,2927.0,1904.0,7307.0,0.89,0.205,-0.138,0.382
2957767,2889.0,1916.0,7329.0,0.89,0.206,-0.137,0.382
2957794,2869.0,1938.0,7327.0,0.89,0.206,-0.137,0.382
2957810,2923.0,2002.0,7297.0,0.89,0.207,-0.136,0.382
2957826,2945.0,2034.0,7307.0,0.89,0.207,-0.135,0.382
2957843,2957.0,2094.0,7297.0,0.89,0.208,-0.134,0.382
2957860,2967.0,2090.0,7277.0,0.89,0.208,-0.134,0.382
2957876,2943.0,2088.0,7249.0,0.891,0.208,-0.134,0.382
2957893,2969.0,2158.0,7247.0,0.89,0.208,-0.133,0.382
2957909,3037.0,2160.0,7251.0,0.891,0.208,-0.133,0.382
2957935,3053.0,2174.0,7217.0,0.891,0.208,-0.133,0.382
2957951,3071.0,2114.0,7205.0,0.891,0.208,-0.133,0.382
2957967,3131.0,2088.0,7193.0,0.891,0.208,-0.133,0.381
2957984,3107.0,2114.0,7257.0,0.891,0.208,-0.133,0.381
2958000,3149.0,2120.0,7225.0,0.891,0.207,-0.133,0.381
2958017,3105.0,2004.0,7273.0,0.891,0.207,-0.133,0.381
2958034,3075.0,1932.0,7281.0,0.891,0.206,-0.133,0.381
2958050,3033.0,1936.0,7341.0,0.891,0.206,-0.133,0.381
2958077,2989.0,1886.0,7295.0,0.892,0.205,-0.133,0.381
2958093,2957.0,1840.0,7315.0,0.892,0.205,-0.133,0.381
2958109,2963.0,1840.0,7339.0,0.892,0.205,-0.134,0.381
2958126,2983.0,1874.0,7363.0,0.892,0.205,-0.134,0.381
2958143,2949.0,1848.0,7301.0,0.892,0.205,-0.134,0.381
2958160,3031.0,1882.0,7301.0,0.892,0.205,-0.134,0.381
2958176,2969.0,1936.0,7311.0,0.892,0.205,-0.134,0.381
2958192,3051.0,1892.0,7293.0,0.891,0.205,-0.134,0.381
2958218,3105.0,1912.0,7225.0,0.891,0.205,-0.134,0.381
2958234,3105.0,1962.0,7269.0,0.891,0.205,-0.134,0.382
2958250,3157.0,1998.0,7247.0,0.891,0.206,-0.134,0.382
2958266,3101.0,2002.0,7239.0,0.891,0.206,-0.134,0.382
2958283,3111.0,1990.0,7281.0,0.891,0.206,-0.133,0.382
2958300,3005.0,1958.0,7355.0,0.891,0.206,-0.133,0.382
2958317,3019.0,2088.0,7279.0,0.891,0.206,-0.133,0.382
2958333,3041.0,2008.0,7343.0,0.891,0.206,-0.133,0.382
2958360,2963.0,1986.0,7301.0,0.891,0.207,-0.132,0.383
2958377,2949.0,2052.0,7267.0,0.891,0.207,-0.132,0.383
2958393,2981.0,1980.0,7207.0,0.891,0.207,-0.132,0.383
2958410,2967.0,2064.0,7223.0,0.891,0.207,-0.132,0.383
2958426,2947.0,2104.0,7243.0,0.891,0.207,-0.131,0.383
2958443,3003.0,2034.0,7191.0,0.89,0.207,-0.131,0.383
2958459,3017.0,2074.0,7231.0,0.89,0.207,-0.131,0.383
2958475,3089.0,2030.0,7267.0,0.89,0.207,-0.131,0.384
2958501,3043.0,2084.0,7275.0,0.89,0.207,-0.131,0.384
2958518,3031.0,2038.0,7293.0,0.89,0.207,-0.131,0.384
2958534,3051.0,2026.0,7229.0,0.89,0.207,-0.131,0.384
2958550,3041.0,2038.0,7265.0,0.89,0.207,-0.13,0.384
2958567,3051.0,2034.0,7275.0,0.891,0.206,-0.13,0.384
2958583,3061.0,2032.0,7277.0,0.891,0.206,-0.13,0.384
2958600,3043.0,2000.0,7327.0,0.891,0.206,-0.13,0.384
2958626,3025.0,1980.0,7349.0,0.891,0.206,-0.13,0.384
2958643,2975.0,1944.0,7327.0,0.891,0.206,-0.13,0.384
2958659,2987.0,1958.0,7255.0,0.891,0.206,-0.13,0.384
2958676,3001.0,1960.0,7259.0,0.891,0.206,-0.13,0.384
2958693,3041.0,1984.0,7269.0,0.891,0.206,-0.129,0.384
2958710,3041.0,2036.0,7281.0,0.891,0.206,-0.129,0.384
2958726,2985.0,1984.0,7275.0,0.891,0.206,-0.129,0.384
2958742,3005.0,2012.0,7331.0,0.891,0.207,-0.128,0.384
2958758,2987.0,2052.0,7259.0,0.891,0.207,-0.128,0.384
2958784,2929.0,2048.0,7325.0,0.891,0.207,-0.128,0.384
2958800,2979.0,2062.0,7279.0,0.891,0.207,-0.127,0.384
2958816,2947.0,2078.0,7265.0,0.891,0.207,-0.127,0.384
2958835,2925.0,2072.0,7295.0,0.891,0.208,-0.127,0.384
2958852,2983.0,2172.0,7285.0,0.891,0.208,-0.127,0.384
2958869,2981.0,2114.0,7285.0,0.89,0.208,-0.126,0.384
2958885,2925.0,2126.0,7239.0,0.89,0.208,-0.126,0.385
2958901,2967.0,2142.0,7291.0,0.89,0.208,-0.126,0.385
2958927,2999.0,2104.0,7247.0,0.89,0.208,-0.126,0.385
2958943,3025.0,2166.0,7239.0,0.89,0.208,-0.126,0.385
2958960,3001.0,2044.0,7245.0,0.891,0.208,-0.126,0.385
2958977,2965.0,2106.0,7269.0,0.891,0.208,-0.126,0.385
2958993,2959.0,2110.0,7289.0,0.891,0.208,-0.126,0.385
2959009,3017.0,2058.0,7237.0,0.891,0.208,-0.126,0.385
2959025,2995.0,2078.0,7241.0,0.891,0.207,-0.126,0.385
2959041,3005.0,2034.0,7311.0,0.891,0.207,-0.126,0.385
2959068,2999.0,2004.0,7303.0,0.891,0.207,-0.126,0.385
2959085,3011.0,2042.0,7301.0,0.891,0.207,-0.126,0.385
2959102,2967.0,2108.0,7345.0,0.891,0.207,-0.126,0.385
2959118,2987.0,2128.0,7309.0,0.891,0.207,-0.126,0.385
2959134,2999.0,2140.0,7331.0,0.891,0.207,-0.126,0.385
2959151,2961.0,2080.0,7283.0,0.891,0.208,-0.126,0.385
2959167,2925.0,2082.0,7197.0,0.891,0.208,-0.126,0.385
2959183,2969.0,2120.0,7259.0,0.891,0.208,-0.126,0.385
2959209,2995.0,2114.0,7225.0,0.891,0.208,-0.126,0.385
2959225,2981.0,2106.0,7235.0,0.89,0.208,-0.126,0.385
2959242,3025.0,2096.0,7211.0,0.89,0.208,-0.126,0.385
2959259,3013.0,2110.0,7289.0,0.89,0.207,-0.126,0.385
2959275,3045.0,2092.0,7309.0,0.89,0.207,-0.126,0.385
2959291,3017.0,2094.0,7273.0,0.89,0.207,-0.126,0.385
2959307,3015.0,2060.0,7265.0,0.89,0.207,-0.126,0.385
2959333,2957.0,2052.0,7275.0,0.891,0.207,-0.126,0.385
2959350,2967.0,2050.0,7271.0,0.891,0.207,-0.126,0.385
2959367,2985.0,2056.0,7255.0,0.891,0.207,-0.126,0.385
2959383,2979.0,2050.0,7279.0,0.891,0.207,-0.125,0.385
2959400,2935.0,2036.0,7269.0,0.891,0.207,-0.125,0.385
2959416,2943.0,2088.0,7267.0,0.891,0.207,-0.125,0.385
2959433,2977.0,2088.0,7279.0,0.891,0.207,-0.125,0.385
2959449,2965.0,2094.0,7261.0,0.891,0.207,-0.125,0.385
2959475,3005.0,2090.0,7269.0,0.891,0.207,-0.125,0.385
2959491,3003.0,2132.0,7243.0,0.891,0.207,-0.125,0.385
2959507,2989.0,2092.0,7253.0,0.891,0.207,-0.125,0.385
2959523,2971.0,2090.0,7283.0,0.891,0.207,-0.125,0.385
2959539,3007.0,2104.0,7259.0,0.891,0.207,-0.125,0.385
2959555,2981.0,2070.0,7313.0,0.891,0.207,-0.125,0.385
2959572,2959.0,2048.0,7297.0,0.891,0.207,-0.125,0.385
2959599,2985.0,2100.0,7261.0,0.891,0.207,-0.125,0.385
2959615,2959.0,2092.0,7287.0,0.891,0.207,-0.125,0.385
2959631,3017.0,2060.0,7235.0,0.891,0.206,-0.125,0.385
2959647,2997.0,2094.0,7231.0,0.891,0.206,-0.125,0.385
2959663,2921.0,2036.0,7265.0,0.891,0.206,-0.125,0.385
2959680,2935.0,2050.0,7301.0,0.891,0.206,-0.125,0.385
2959696,2951.0,2080.0,7293.0,0.891,0.206,-0.125,0.385
2959722,2969.0,2074.0,7311.0,0.891,0.206,-0.125,0.385
2959738,2939.0,2138.0,7281.0,0.891,0.206,-0.125,0.385
2959755,2951.0,2088.0,7283.0,0.891,0.206,-0.125,0.385
2959771,2981.0,2080.0,7279.0,0.891,0.206,-0.125,0.385
2959787,2983.0,2146.0,7249.0,0.891,0.206,-0.125,0.385
2959803,2979.0,2086.0,7253.0,0.891,0.206,-0.125,0.385
2959829,3001.0,2138.0,7289.0,0.891,0.206,-0.125,0.385
2959846,3017.0,2090.0,7285.0,0.891,0.206,-0.125,0.385
2959863,3001.0,2112.0,7277.0,0.891,0.206,-0.125,0.385
2959880,2979.0,2066.0,7289.0,0.891,0.206,-0.125,0.385
2959896,3029.0,2102.0,7319.0,0.891,0.206,-0.125,0.385
2959913,2947.0,2024.0,7329.0,0.891,0.206,-0.125,0.385
2959929,2975.0,2028.0,7275.0,0.891,0.206,-0.125,0.385
2959945,2987.0,2048.0,7267.0,0.891,0.206,-0.125,0.385
2959971,2957.0,2066.0,7277.0,0.891,0.206,-0.125,0.385
2959987,2981.0,2072.0,7277.0,0.891,0.206,-0.125,0.385
2960003,2959.0,2064.0,7205.0,0.891,0.206,-0.125,0.385
2960019,2995.0,2066.0,7253.0,0.891,0.206,-0.125,0.385
2960035,3007.0,2100.0,7261.0,0.891,0.206,-0.125,0.385
2960052,3001.0,2066.0,7309.0,0.891,0.206,-0.125,0.385
2960068,3011.0,2096.0,7243.0,0.891,0.206,-0.124,0.385
2960094,2955.0,2112.0,7303.0,0.891,0.206,-0.124,0.385
2960111,2939.0,2128.0,7263.0,0.891,0.206,-0.124,0.385
2960127,2895.0,2042.0,7263.0,0.891,0.206,-0.124,0.385
2960143,2905.0,2112.0,7273.0,0.891,0.206,-0.124,0.385
2960165,2921.0,2134.0,7259.0,0.891,0.206,-0.124,0.385
2960181,2937.0,2116.0,7313.0,0.891,0.206,-0.124,0.385
2960197,3013.0,2112.0,7289.0,0.891,0.206,-0.124,0.385
2960213,3031.0,2122.0,7279.0,0.891,0.206,-0.124,0.385
2960229,2971.0,2130.0,7277.0,0.891,0.206,-0.124,0.385
2960246,3021.0,2114.0,7275.0,0.891,0.206,-0.125,0.385
2960272,3009.0,2086.0,7235.0,0.891,0.205,-0.125,0.385
2960288,3001.0,2052.0,7245.0,0.891,0.205,-0.125,0.384
2960305,2991.0,2054.0,7295.0,0.891,0.205,-0.125,0.384
2960321,2975.0,2010.0,7311.0,0.891,0.205,-0.125,0.384
2960337,3015.0,2008.0,7279.0,0.891,0.205,-0.125,0.384
2960353,3021.0,2046.0,7257.0,0.891,0.205,-0.125,0.384
2960369,2959.0,2006.0,7273.0,0.891,0.205,-0.125,0.384
2960395,3035.0,2056.0,7339.0,0.891,0.205,-0.125,0.385
2960412,2983.0,2100.0,7297.0,0.891,0.205,-0.125,0.385
2960429,2963.0,2004.0,7261.0,0.891,0.205,-0.125,0.385
2960445,3031.0,2088.0,7259.0,0.891,0.205,-0.125,0.385
2960461,2969.0,2060.0,7305.0,0.891,0.205,-0.125,0.385
2960477,2929.0,2070.0,7277.0,0.891,0.205,-0.124,0.385
2960493,2965.0,2146.0,7263.0,0.891,0.205,-0.124,0.385
2960519,2969.0,2146.0,7251.0,0.891,0.205,-0.124,0.385
2960535,3031.0,2098.0,7275.0,0.891,0.205,-0.124,0.385
2960551,2999.0,2134.0,7261.0,0.891,0.205,-0.124,0.385
2960567,2977.0,2056.0,7285.0,0.891,0.205,-0.124,0.385
2960583,3007.0,2108.0,7263.0,0.891,0.205,-0.124,0.385
2960600,2929.0,2094.0,7273.0,0.891,0.204,-0.124,0.385
2960626,2989.0,2214.0,7243.0,0.891,0.204,-0.124,0.385
2960642,3009.0,2068.0,7271.0,0.891,0.204,-0.124,0.385
2960658,2995.0,2048.0,7309.0,0.892,0.204,-0.124,0.385
2960674,3001.0,2078.0,7259.0,0.892,0.204,-0.125,0.385
2960690,3037.0,2076.0,7317.0,0.892,0.204,-0.125,0.385
2960706,3033.0,2096.0,7309.0,0.892,0.204,-0.125,0.385
2960732,3009.0,2048.0,7281.0,0.892,0.204,-0.125,0.385
2960748,2963.0,1960.0,7285.0,0.892,0.204,-0.124,0.385
2960764,2969.0,2062.0,7267.0,0.892,0.204,-0.124,0.385
2960780,2975.0,2006.0,7275.0,0.892,0.204,-0.124,0.385
2960796,2971.0,2098.0,7269.0,0.891,0.204,-0.124,0.385
2960812,2955.0,2092.0,7303.0,0.891,0.204,-0.124,0.385
2960838,2987.0,2108.0,7249.0,0.891,0.204,-0.124,0.385
2960854,2997.0,2134.0,7295.0,0.891,0.204,-0.124,0.385
2960870,2941.0,2128.0,7285.0,0.891,0.204,-0.124,0.385
2960886,2989.0,2078.0,7289.0,0.891,0.204,-0.124,0.386
2960902,2955.0,2056.0,7309.0,0.891,0.204,-0.124,0.386
2960918,2915.0,2112.0,7273.0,0.891,0.204,-0.124,0.386
2960944,2963.0,2112.0,7301.0,0.891,0.204,-0.124,0.386
2960960,2981.0,2108.0,7353.0,0.891,0.204,-0.124,0.386
2960976,2983.0,2084.0,7275.0,0.891,0.204,-0.124,0.386
2960992,2999.0,2082.0,7353.0,0.891,0.204,-0.124,0.386
2961008,2977.0,2082.0,7315.0,0.891,0.204,-0.124,0.386
2961024,2995.0,2078.0,7303.0,0.891,0.204,-0.124,0.386
2961050,3011.0,2110.0,7279.0,0.891,0.204,-0.124,0.386
2961067,3023.0,2092.0,7235.0,0.891,0.204,-0.124,0.386
2961083,2973.0,2028.0,7307.0,0.891,0.203,-0.124,0.386
2961100,2995.0,2058.0,7289.0,0.891,0.203,-0.124,0.385
2961117,3005.0,2096.0,7281.0,0.892,0.203,-0.124,0.385
2961134,2985.0,2072.0,7293.0,0.892,0.203,-0.124,0.385
2961151,2979.0,2060.0,7335.0,0.892,0.203,-0.124,0.385
2961168,2973.0,2070.0,7295.0,0.892,0.203,-0.124,0.385
2961184,2955.0,2060.0,7295.0,0.892,0.203,-0.123,0.385
2961210,2987.0,2046.0,7289.0,0.891,0.203,-0.123,0.386
2961226,2959.0,2102.0,7277.0,0.891,0.203,-0.123,0.386
2961242,2979.0,2090.0,7253.0,0.891,0.203,-0.123,0.386
2961258,2955.0,2118.0,7257.0,0.891,0.204,-0.123,0.386
2961274,2987.0,2060.0,7253.0,0.891,0.203,-0.123,0.386
2961290,2961.0,2158.0,7263.0,0.891,0.203,-0.123,0.386
2961316,2989.0,2108.0,7307.0,0.891,0.203,-0.123,0.386
2961332,2955.0,2120.0,7305.0,0.891,0.203,-0.123,0.386
2961348,2923.0,2124.0,7277.0,0.891,0.203,-0.123,0.386
2961364,2959.0,2150.0,7295.0,0.891,0.203,-0.123,0.386
2961380,2943.0,2080.0,7305.0,0.891,0.203,-0.123,0.386
2961396,2979.0,2052.0,7335.0,0.891,0.203,-0.123,0.386
2961422,2967.0,2060.0,7301.0,0.892,0.203,-0.123,0.386
2961438,2937.0,2066.0,7313.0,0.892,0.203,-0.123,0.386
2961454,2987.0,2066.0,7297.0,0.892,0.203,-0.123,0.386
2961470,2975.0,2100.0,7293.0,0.892,0.203,-0.123,0.386
2961487,3005.0,2028.0,7275.0,0.892,0.203,-0.123,0.386
2961503,2975.0,2080.0,7251.0,0.892,0.203,-0.123,0.386
2961529,2981.0,2038.0,7273.0,0.892,0.203,-0.122,0.386
2961545,2925.0,2026.0,7265.0,0.892,0.203,-0.122,0.386
2961561,2971.0,2086.0,7249.0,0.892,0.203,-0.122,0.386
2961577,2983.0,2094.0,7291.0,0.892,0.203,-0.123,0.386
2961593,2973.0,2146.0,7305.0,0.892,0.203,-0.123,0.386
2961609,2953.0,2114.0,7317.0,0.892,0.203,-0.123,0.386
2961635,2931.0,2078.0,7269.0,0.892,0.203,-0.123,0.386
2961651,2963.0,2138.0,7313.0,0.892,0.203,-0.123,0.386
2961667,2939.0,2060.0,7295.0,0.892,0.203,-0.123,0.386
2961683,2913.0,2122.0,7277.0,0.892,0.203,-0.123,0.386
2961699,2963.0,2096.0,7275.0,0.892,0.202,-0.123,0.386
2961715,2979.0,2058.0,7247.0,0.892,0.202,-0.123,0.386
2961741,2985.0,2078.0,7267.0,0.892,0.202,-0.123,0.386
2961757,2895.0,2118.0,7307.0,0.892,0.202,-0.123,0.386
2961773,2997.0,2078.0,7199.0,0.892,0.202,-0.123,0.386
2961789,2909.0,2026.0,7257.0,0.892,0.202,-0.123,0.386
2961805,2993.0,2082.0,7299.0,0.892,0.202,-0.123,0.386
2961821,2977.0,2078.0,7287.0,0.892,0.202,-0.123,0.386
2961847,2985.0,2048.0,7305.0,0.892,0.202,-0.124,0.385
2961863,2971.0,2066.0,7279.0,0.892,0.202,-0.124,0.385
2961879,2971.0,2058.0,7283.0,0.892,0.202,-0.124,0.385
2961895,3007.0,2068.0,7259.0,0.892,0.202,-0.124,0.385
2961911,2967.0,2092.0,7271.0,0.892,0.202,-0.124,0.385
2961927,2999.0,2096.0,7279.0,0.892,0.202,-0.124,0.385
2961953,2991.0,2088.0,7293.0,0.892,0.202,-0.124,0.385
2961969,3009.0,2074.0,7261.0,0.892,0.202,-0.124,0.385
2961985,2975.0,2076.0,7237.0,0.892,0.202,-0.124,0.385
2962001,2969.0,2040.0,7301.0,0.892,0.202,-0.124,0.385
2962017,2989.0,2148.0,7305.0,0.892,0.202,-0.124,0.385
2962033,2975.0,2080.0,7287.0,0.892,0.202,-0.124,0.385
2962059,3021.0,2114.0,7269.0,0.892,0.202,-0.124,0.385
2962075,3041.0,2098.0,7269.0,0.892,0.202,-0.124,0.385
2962091,2981.0,2110.0,7285.0,0.892,0.202,-0.124,0.385
2962107,3025.0,2136.0,7287.0,0.892,0.202,-0.124,0.385
2962123,2983.0,2118.0,7261.0,0.892,0.202,-0.125,0.385
2962139,2991.0,2070.0,7271.0,0.892,0.202,-0.125,0.385
2962165,2971.0,2104.0,7299.0,0.892,0.202,-0.125,0.385
2962181,2975.0,2070.0,7311.0,0.892,0.202,-0.125,0.385
2962197,3035.0,2040.0,7287.0,0.892,0.202,-0.125,0.385
2962213,3027.0,2074.0,7321.0,0.892,0.202,-0.126,0.385
2962229,3041.0,2050.0,7251.0,0.892,0.202,-0.126,0.385
2962245,3009.0,2078.0,7229.0,0.892,0.202,-0.126,0.385
2962271,3013.0,2034.0,7215.0,0.892,0.202,-0.126,0.385
2962287,3025.0,2038.0,7223.0,0.892,0.202,-0.126,0.385
2962303,3009.0,2054.0,7269.0,0.892,0.202,-0.126,0.385
2962319,2999.0,2132.0,7287.0,0.892,0.202,-0.126,0.385
2962335,3045.0,2086.0,7253.0,0.892,0.202,-0.126,0.385
2962351,3035.0,2042.0,7273.0,0.892,0.202,-0.126,0.385
2962378,3053.0,2084.0,7257.0,0.892,0.202,-0.126,0.385
2962394,3021.0,2070.0,7267.0,0.892,0.201,-0.126,0.385
2962410,3049.0,2034.0,7273.0,0.892,0.201,-0.126,0.385
2962426,2993.0,2080.0,7269.0,0.892,0.201,-0.126,0.385
2962442,2975.0,2080.0,7309.0,0.892,0.201,-0.126,0.385
2962458,3041.0,2030.0,7325.0,0.892,0.201,-0.126,0.384
2962484,3035.0,2034.0,7243.0,0.892,0.201,-0.126,0.384
2962500,3051.0,2044.0,7227.0,0.892,0.201,-0.126,0.384
2962516,3021.0,2072.0,7239.0,0.892,0.201,-0.126,0.385
2962532,3097.0,2082.0,7249.0,0.892,0.201,-0.126,0.384
2962548,3033.0,2012.0,7233.0,0.892,0.201,-0.126,0.384
2962564,3057.0,2064.0,7299.0,0.892,0.201,-0.126,0.385
2962590,2979.0,2128.0,7301.0,0.892,0.201,-0.126,0.385
2962606,2963.0,2034.0,7289.0,0.892,0.201,-0.125,0.385
2962622,3015.0,2026.0,7289.0,0.892,0.201,-0.125,0.385
2962638,3005.0,2038.0,7259.0,0.892,0.201,-0.125,0.385
2962654,2997.0,2036.0,7313.0,0.892,0.201,-0.125,0.385
2962670,2965.0,2074.0,7289.0,0.892,0.201,-0.125,0.385
2962696,2995.0,2106.0,7255.0,0.892,0.201,-0.124,0.385
2962712,2983.0,2114.0,7253.0,0.892,0.201,-0.124,0.385
2962728,3015.0,2080.0,7271.0,0.892,0.201,-0.124,0.385
2962744,2979.0,2086.0,7235.0,0.892,0.201,-0.124,0.385
2962761,2985.0,2124.0,7265.0,0.892,0.201,-0.124,0.385
2962777,2993.0,2044.0,7293.0,0.892,0.201,-0.124,0.385
2962803,2959.0,2096.0,7287.0,0.892,0.201,-0.123,0.385
2962819,2971.0,2116.0,7293.0,0.892,0.201,-0.123,0.385
2962836,3025.0,2110.0,7259.0,0.892,0.201,-0.123,0.385
2962852,2985.0,2094.0,7251.0,0.892,0.201,-0.123,0.385
2962869,3001.0,2070.0,7357.0,0.892,0.201,-0.123,0.385
2962885,2977.0,2096.0,7343.0,0.892,0.201,-0.123,0.385
2962901,2975.0,2046.0,7259.0,0.892,0.201,-0.123,0.385
2962927,2979.0,2056.0,7285.0,0.892,0.201,-0.123,0.385
2962943,2973.0,2044.0,7321.0,0.892,0.201,-0.123,0.385
2962959,2981.0,2062.0,7289.0,0.892,0.201,-0.123,0.385
2962975,2927.0,2102.0,7253.0,0.892,0.201,-0.123,0.385
2962991,2935.0,2056.0,7261.0,0.892,0.201,-0.123,0.385
2963007,2979.0,2058.0,7295.0,0.892,0.201,-0.123,0.385
2963033,2975.0,2144.0,7303.0,0.892,0.201,-0.123,0.385
2963050,2957.0,2122.0,7257.0,0.892,0.201,-0.123,0.385
2963066,3047.0,2156.0,7309.0,0.892,0.201,-0.123,0.385
2963083,2973.0,2100.0,7245.0,0.892,0.201,-0.123,0.385
2963100,2945.0,2066.0,7295.0,0.892,0.201,-0.123,0.385
2963116,2967.0,2132.0,7317.0,0.892,0.201,-0.123,0.385
2963133,2955.0,2118.0,7281.0,0.892,0.201,-0.123,0.385
2963150,2979.0,2084.0,7269.0,0.892,0.201,-0.123,0.385
2963166,2963.0,2094.0,7289.0,0.892,0.201,-0.123,0.385
2963192,2951.0,2120.0,7257.0,0.892,0.201,-0.123,0.385
2963208,2985.0,2108.0,7273.0,0.892,0.201,-0.123,0.385
2963224,2989.0,2068.0,7263.0,0.892,0.201,-0.123,0.385
2963240,2997.0,2056.0,7257.0,0.893,0.201,-0.123,0.385
2963257,2919.0,2056.0,7265.0,0.893,0.201,-0.123,0.385
2963273,3009.0,2052.0,7285.0,0.893,0.2,-0.123,0.384
2963299,2985.0,2038.0,7311.0,0.893,0.2,-0.123,0.384
2963316,3037.0,2088.0,7295.0,0.893,0.2,-0.123,0.384
2963333,3005.0,2058.0,7257.0,0.893,0.2,-0.123,0.384
2963349,3011.0,2070.0,7313.0,0.893,0.2,-0.123,0.384
2963366,3013.0,2028.0,7321.0,0.893,0.2,-0.123,0.384
2963383,2985.0,1996.0,7279.0,0.893,0.2,-0.124,0.384
2963399,3031.0,2078.0,7251.0,0.893,0.2,-0.124,0.384
2963416,3033.0,2002.0,7289.0,0.893,0.2,-0.124,0.384
2963432,3015.0,2038.0,7291.0,0.893,0.2,-0.124,0.384
2963449,3007.0,2070.0,7289.0,0.893,0.2,-0.124,0.384
2963476,3017.0,2034.0,7259.0,0.893,0.2,-0.124,0.384
2963492,2985.0,2044.0,7271.0,0.893,0.2,-0.123,0.384
2963508,2979.0,2082.0,7295.0,0.893,0.2,-0.123,0.384
2963524,3001.0,2080.0,7245.0,0.893,0.2,-0.123,0.384
2963540,3015.0,2080.0,7291.0,0.893,0.2,-0.123,0.384
2963556,2949.0,2116.0,7271.0,0.893,0.2,-0.123,0.384
2963582,2989.0,2072.0,7303.0,0.893,0.2,-0.123,0.384
2963599,2989.0,2092.0,7269.0,0.893,0.2,-0.123,0.384
2963615,3037.0,2114.0,7257.0,0.893,0.2,-0.123,0.384
2963631,3029.0,2124.0,7319.0,0.893,0.2,-0.123,0.384
2963647,3043.0,2114.0,7305.0,0.893,0.2,-0.123,0.384
2963663,3027.0,2036.0,7285.0,0.893,0.2,-0.123,0.384
2963679,2981.0,2072.0,7239.0,0.893,0.2,-0.123,0.384
2963705,2955.0,2040.0,7241.0,0.893,0.2,-0.123,0.384
2963721,2993.0,2024.0,7257.0,0.893,0.2,-0.123,0.384
2963737,2943.0,2074.0,7263.0,0.893,0.2,-0.123,0.384
2963753,2933.0,2024.0,7327.0,0.893,0.2,-0.123,0.384
2963769,2999.0,2060.0,7237.0,0.893,0.2,-0.123,0.384
2963785,2985.0,2080.0,7247.0,0.893,0.2,-0.123,0.384
2963811,2899.0,2128.0,7293.0,0.893,0.2,-0.123,0.384
2963827,2995.0,2078.0,7273.0,0.893,0.2,-0.123,0.384
2963844,2971.0,2108.0,7281.0,0.893,0.2,-0.123,0.384
2963860,2957.0,2052.0,7305.0,0.893,0.2,-0.123,0.384
2963876,2951.0,2074.0,7305.0,0.893,0.2,-0.123,0.384
2963892,3009.0,2088.0,7297.0,0.893,0.2,-0.123,0.384
2963918,2989.0,2060.0,7311.0,0.893,0.2,-0.123,0.384
2963934,2983.0,2110.0,7285.0,0.893,0.2,-0.123,0.384
2963951,2955.0,2080.0,7275.0,0.893,0.2,-0.123,0.384
2963968,3019.0,2092.0,7237.0,0.893,0.2,-0.123,0.384
2963984,2987.0,2100.0,7299.0,0.893,0.2,-0.123,0.384
2964001,2989.0,2062.0,7295.0,0.893,0.2,-0.123,0.384
2964018,2981.0,2052.0,7277.0,0.893,0.2,-0.123,0.384
2964034,2949.0,2076.0,7213.0,0.893,0.2,-0.123,0.384
2964051,2991.0,2098.0,7275.0,0.893,0.2,-0.123,0.384
2964068,2993.0,2074.0,7297.0,0.893,0.199,-0.123,0.384
2964094,3007.0,2062.0,7279.0,0.893,0.199,-0.123,0.384
2964110,2979.0,2046.0,7283.0,0.893,0.199,-0.123,0.384
2964126,2997.0,1996.0,7267.0,0.893,0.199,-0.123,0.384
2964142,2971.0,2070.0,7309.0,0.893,0.199,-0.123,0.384
2964158,2979.0,2060.0,7303.0,0.893,0.199,-0.123,0.384
2964184,2967.0,2040.0,7277.0,0.893,0.199,-0.123,0.384
2964200,2967.0,2068.0,7249.0,0.893,0.199,-0.123,0.384
2964216,2965.0,2012.0,7333.0,0.893,0.199,-0.123,0.384
2964232,2981.0,2062.0,7317.0,0.893,0.199,-0.123,0.384
2964248,3017.0,2050.0,7241.0,0.893,0.199,-0.123,0.384
2964264,2937.0,2062.0,7251.0,0.893,0.199,-0.123,0.384
2964290,2989.0,2100.0,7289.0,0.893,0.199,-0.123,0.384
2964306,2957.0,2098.0,7273.0,0.893,0.199,-0.123,0.384
2964322,2977.0,2114.0,7253.0,0.893,0.199,-0.123,0.384
2964338,2973.0,2076.0,7285.0,0.893,0.199,-0.123,0.384
2964354,2959.0,2090.0,7311.0,0.893,0.199,-0.123,0.383
2964370,3017.0,2104.0,7291.0,0.893,0.199,-0.123,0.383
2964387,2917.0,2054.0,7249.0,0.893,0.199,-0.123,0.383
2964413,2949.0,2076.0,7295.0,0.893,0.199,-0.123,0.383
2964429,2985.0,2062.0,7305.0,0.894,0.199,-0.123,0.383
2964445,3007.0,2082.0,7339.0,0.894,0.199,-0.123,0.383
2964461,2959.0,2074.0,7299.0,0.894,0.199,-0.123,0.383
2964478,2975.0,2034.0,7253.0,0.894,0.199,-0.123,0.383
2964494,2965.0,2048.0,7217.0,0.894,0.199,-0.123,0.383
2964511,2955.0,2044.0,7241.0,0.894,0.199,-0.123,0.383
2964537,2989.0,2088.0,7219.0,0.894,0.199,-0.123,0.383
2964553,3003.0,2090.0,7237.0,0.894,0.199,-0.123,0.382
2964569,3039.0,2068.0,7263.0,0.894,0.199,-0.123,0.382
2964585,2961.0,2052.0,7255.0,0.894,0.199,-0.123,0.382
2964601,2991.0,2082.0,7257.0,0.894,0.199,-0.123,0.382
2964617,2991.0,2060.0,7277.0,0.894,0.199,-0.123,0.382
2964644,2973.0,2044.0,7269.0,0.894,0.199,-0.123,0.382
2964660,2959.0,2062.0,7279.0,0.894,0.199,-0.123,0.382
2964676,2967.0,2118.0,7271.0,0.894,0.199,-0.124,0.382
2964693,2981.0,2118.0,7277.0,0.894,0.199,-0.124,0.382
2964709,2981.0,2068.0,7305.0,0.894,0.199,-0.124,0.382
2964726,3007.0,2070.0,7311.0,0.894,0.199,-0.124,0.382
2964743,3071.0,2068.0,7273.0,0.894,0.199,-0.124,0.382
2964759,2991.0,2014.0,7277.0,0.894,0.199,-0.124,0.382
2964776,2965.0,2048.0,7247.0,0.894,0.199,-0.124,0.382
2964803,3009.0,2042.0,7251.0,0.894,0.199,-0.124,0.382
2964819,3045.0,2068.0,7235.0,0.894,0.199,-0.124,0.382
2964835,3023.0,2056.0,7257.0,0.894,0.199,-0.125,0.382
2964853,3049.0,2040.0,7285.0,0.894,0.199,-0.125,0.382
2964869,3025.0,2094.0,7267.0,0.894,0.199,-0.125,0.382
2964885,3021.0,2044.0,7255.0,0.894,0.199,-0.125,0.382
2964901,2995.0,2032.0,7277.0,0.894,0.199,-0.125,0.382
2964918,3043.0,2082.0,7283.0,0.894,0.199,-0.125,0.382
2964944,3013.0,2030.0,7275.0,0.894,0.199,-0.125,0.382
2964960,3041.0,2068.0,7245.0,0.894,0.199,-0.125,0.382
2964976,3045.0,2062.0,7229.0,0.894,0.199,-0.125,0.382
2964992,3029.0,2124.0,7295.0,0.894,0.199,-0.125,0.382
2965008,2989.0,2042.0,7289.0,0.894,0.199,-0.125,0.382
2965025,3057.0,2032.0,7231.0,0.894,0.199,-0.125,0.382
2965051,3027.0,2072.0,7247.0,0.894,0.199,-0.125,0.382
2965067,2999.0,2064.0,7283.0,0.894,0.199,-0.125,0.382
2965083,3045.0,2062.0,7283.0,0.894,0.199,-0.125,0.382
2965099,3029.0,2046.0,7263.0,0.894,0.199,-0.126,0.381
2965115,3063.0,2048.0,7295.0,0.894,0.199,-0.126,0.381
2965132,3009.0,2048.0,7263.0,0.894,0.199,-0.126,0.381
2965148,3077.0,2100.0,7271.0,0.894,0.199,-0.126,0.381
2965175,3017.0,2036.0,7251.0,0.894,0.199,-0.126,0.381
2965191,3001.0,2076.0,7299.0,0.894,0.199,-0.126,0.381
2965207,3027.0,2026.0,7243.0,0.894,0.199,-0.126,0.381
2965223,3005.0,2110.0,7255.0,0.894,0.199,-0.126,0.381
2965239,3047.0,2046.0,7275.0,0.894,0.199,-0.126,0.381
2965255,3041.0,2048.0,7301.0,0.894,0.199,-0.126,0.381
2965281,3059.0,2048.0,7345.0,0.894,0.199,-0.126,0.381
2965298,3081.0,2044.0,7291.0,0.894,0.199,-0.126,0.381
2965315,3067.0,2020.0,7279.0,0.894,0.199,-0.126,0.381
2965332,3045.0,2052.0,7249.0,0.894,0.199,-0.126,0.381
2965349,3029.0,2054.0,7201.0,0.894,0.199,-0.125,0.381
2965366,2989.0,2070.0,7219.0,0.894,0.199,-0.125,0.381
2965382,2989.0,2074.0,7247.0,0.894,0.199,-0.125,0.381
2965399,3013.0,2074.0,7209.0,0.894,0.199,-0.125,0.381
2965416,3039.0,2134.0,7249.0,0.894,0.199,-0.125,0.381
2965432,3025.0,2096.0,7259.0,0.894,0.199,-0.125,0.381
2965449,3015.0,2072.0,7217.0,0.894,0.199,-0.125,0.381
2965476,3017.0,2110.0,7213.0,0.894,0.199,-0.125,0.381
2965492,2991.0,2122.0,7279.0,0.894,0.199,-0.125,0.381
2965508,3001.0,2100.0,7295.0,0.894,0.199,-0.125,0.381
2965525,3013.0,2094.0,7267.0,0.894,0.199,-0.125,0.381
2965541,3059.0,2030.0,7303.0,0.894,0.199,-0.125,0.381
2965558,3083.0,2054.0,7261.0,0.894,0.199,-0.125,0.381
2965574,3053.0,1994.0,7277.0,0.894,0.198,-0.125,0.381
2965600,3033.0,2046.0,7265.0,0.894,0.198,-0.125,0.381
2965616,3097.0,2062.0,7251.0,0.894,0.198,-0.125,0.381
2965632,3021.0,2024.0,7235.0,0.894,0.198,-0.125,0.381
2965648,3029.0,2024.0,7269.0,0.894,0.198,-0.125,0.381
2965664,2993.0,2082.0,7233.0,0.894,0.198,-0.125,0.381
2965680,3003.0,2092.0,7263.0,0.894,0.198,-0.125,0.381
2965697,3043.0,2028.0,7245.0,0.894,0.198,-0.125,0.381
2965723,3001.0,2038.0,7249.0,0.894,0.198,-0.125,0.381
2965739,3017.0,2082.0,7267.0,0.894,0.199,-0.125,0.381
2965755,3017.0,2108.0,7203.0,0.894,0.199,-0.124,0.381
2965771,3019.0,2096.0,7265.0,0.894,0.199,-0.124,0.381
2965787,3013.0,2124.0,7289.0,0.894,0.199,-0.124,0.381
2965803,3017.0,2100.0,7239.0,0.894,0.199,-0.124,0.381
2965829,3039.0,2130.0,7227.0,0.894,0.199,-0.124,0.381
2965845,3017.0,2118.0,7253.0,0.894,0.199,-0.124,0.381
2965862,2999.0,2092.0,7275.0,0.894,0.199,-0.124,0.381
2965879,2975.0,2058.0,7285.0,0.894,0.199,-0.124,0.381
2965896,2989.0,2048.0,7259.0,0.894,0.199,-0.124,0.381
2965912,3031.0,2090.0,7251.0,0.894,0.198,-0.124,0.381
2965928,3061.0,2034.0,7291.0,0.894,0.198,-0.124,0.381
2965954,3013.0,2042.0,7267.0,0.894,0.198,-0.124,0.381
2965970,3047.0,2042.0,7285.0,0.894,0.198,-0.124,0.381
2965986,3007.0,2050.0,7237.0,0.895,0.198,-0.124,0.381
2966002,3021.0,2062.0,7287.0,0.895,0.198,-0.124,0.381
2966018,3053.0,2026.0,7293.0,0.895,0.198,-0.124,0.381
2966034,3069.0,2044.0,7263.0,0.895,0.198,-0.124,0.381
2966060,3015.0,2050.0,7325.0,0.895,0.198,-0.123,0.381
2966076,3023.0,2044.0,7303.0,0.895,0.198,-0.123,0.381
2966092,2963.0,2038.0,7279.0,0.895,0.198,-0.123,0.381
2966108,2951.0,2064.0,7265.0,0.895,0.199,-0.123,0.381
2966125,2949.0,2094.0,7285.0,0.894,0.199,-0.123,0.381
2966141,2965.0,2106.0,7287.0,0.894,0.199,-0.122,0.381
2966157,2931.0,2102.0,7273.0,0.894,0.199,-0.122,0.381
2966183,2969.0,2110.0,7235.0,0.894,0.199,-0.122,0.382
2966199,2969.0,2124.0,7265.0,0.894,0.199,-0.122,0.382
2966215,3015.0,2154.0,7273.0,0.894,0.199,-0.122,0.382
2966231,3001.0,2162.0,7275.0,0.894,0.199,-0.122,0.382
2966247,3021.0,2214.0,7251.0,0.894,0.199,-0.122,0.382
2966263,2977.0,2076.0,7263.0,0.894,0.199,-0.122,0.382
2966289,2989.0,2126.0,7259.0,0.894,0.199,-0.122,0.382
2966305,2981.0,2098.0,7265.0,0.894,0.199,-0.122,0.381
2966321,2959.0,2134.0,7253.0,0.895,0.199,-0.122,0.381
2966337,2981.0,2082.0,7271.0,0.895,0.199,-0.122,0.381
2966353,3001.0,2124.0,7281.0,0.895,0.199,-0.122,0.381
2966369,2985.0,2088.0,7285.0,0.895,0.199,-0.122,0.381
2966396,3041.0,2054.0,7269.0,0.895,0.199,-0.122,0.381
2966413,2969.0,2090.0,7303.0,0.895,0.199,-0.122,0.381
2966430,2973.0,2088.0,7251.0,0.895,0.198,-0.122,0.381
2966447,3029.0,2004.0,7277.0,0.895,0.198,-0.122,0.381
2966463,3037.0,2074.0,7209.0,0.895,0.198,-0.122,0.381
2966480,3037.0,2062.0,7293.0,0.895,0.198,-0.122,0.381
2966496,2971.0,2086.0,7325.0,0.895,0.198,-0.122,0.381
2966513,2991.0,2092.0,7227.0,0.895,0.198,-0.122,0.381
2966530,2983.0,2084.0,7257.0,0.895,0.198,-0.122,0.381
2966547,2997.0,2108.0,7225.0,0.895,0.198,-0.122,0.381
2966573,2973.0,2088.0,7277.0,0.895,0.198,-0.122,0.381
2966589,2953.0,2106.0,7271.0,0.895,0.198,-0.122,0.381
2966605,2977.0,2070.0,7275.0,0.895,0.198,-0.122,0.381
2966621,2969.0,2136.0,7281.0,0.895,0.198,-0.122,0.381
2966637,2975.0,2090.0,7301.0,0.895,0.198,-0.122,0.381
2966653,2967.0,2118.0,7269.0,0.895,0.198,-0.122,0.381
2966679,3027.0,2214.0,7237.0,0.895,0.198,-0.122,0.381
2966695,2979.0,2154.0,7301.0,0.895,0.198,-0.122,0.381
2966711,3015.0,2060.0,7301.0,0.895,0.198,-0.122,0.381
2966727,2977.0,2124.0,7275.0,0.895,0.198,-0.122,0.381
2966743,2951.0,2154.0,7263.0,0.895,0.198,-0.122,0.381
2966759,2985.0,2034.0,7345.0,0.895,0.198,-0.122,0.381
2966785,3009.0,2118.0,7273.0,0.895,0.198,-0.123,0.381
2966801,2985.0,1998.0,7295.0,0.895,0.198,-0.123,0.381
2966817,3051.0,2064.0,7209.0,0.895,0.198,-0.123,0.381
2966833,3039.0,2090.0,7273.0,0.895,0.197,-0.123,0.381
2966849,3015.0,2016.0,7261.0,0.895,0.197,-0.123,0.381
2966865,3039.0,2002.0,7269.0,0.895,0.197,-0.123,0.381
2966891,2965.0,1954.0,7295.0,0.895,0.197,-0.123,0.381
2966907,2995.0,2056.0,7317.0,0.895,0.197,-0.123,0.381
2966923,3009.0,2062.0,7331.0,0.895,0.197,-0.123,0.381
2966939,3029.0,2062.0,7311.0,0.895,0.197,-0.123,0.381
2966955,3013.0,2016.0,7313.0,0.895,0.197,-0.123,0.381
2966971,2975.0,2058.0,7319.0,0.895,0.197,-0.123,0.381
2966997,2963.0,2034.0,7205.0,0.895,0.197,-0.123,0.381
2967013,2999.0,2072.0,7221.0,0.895,0.197,-0.123,0.381
2967029,2993.0,2134.0,7241.0,0.895,0.198,-0.123,0.381
2967046,3003.0,2140.0,7251.0,0.895,0.198,-0.123,0.382
2967062,2973.0,2188.0,7287.0,0.894,0.198,-0.123,0.382
2967078,2975.0,2160.0,7269.0,0.894,0.198,-0.122,0.382
2967104,2943.0,2194.0,7247.0,0.894,0.198,-0.122,0.382
2967120,2959.0,2152.0,7287.0,0.895,0.198,-0.122,0.382
2967136,2957.0,2128.0,7235.0,0.895,0.198,-0.122,0.382
2967152,3005.0,2084.0,7283.0,0.895,0.198,-0.122,0.382
2967168,2973.0,2096.0,7323.0,0.895,0.198,-0.122,0.382
2967184,2967.0,2086.0,7333.0,0.895,0.198,-0.122,0.382
2967210,3055.0,2056.0,7301.0,0.895,0.198,-0.122,0.382
2967226,3047.0,2080.0,7281.0,0.895,0.198,-0.122,0.382
2967242,2949.0,2002.0,7283.0,0.895,0.197,-0.122,0.382
2967258,3023.0,2044.0,7309.0,0.895,0.197,-0.122,0.382
2967274,3005.0,2006.0,7231.0,0.895,0.197,-0.122,0.381
2967290,2989.0,2068.0,7253.0,0.895,0.197,-0.122,0.382
2967316,3007.0,2054.0,7267.0,0.895,0.197,-0.122,0.382
2967332,3027.0,2060.0,7261.0,0.895,0.198,-0.122,0.382
2967348,2951.0,2070.0,7295.0,0.895,0.198,-0.122,0.382
2967365,2973.0,2106.0,7297.0,0.895,0.198,-0.122,0.382
2967382,3013.0,2044.0,7263.0,0.895,0.198,-0.122,0.382
2967398,2945.0,2108.0,7299.0,0.895,0.198,-0.122,0.382
2967415,3021.0,2102.0,7239.0,0.895,0.198,-0.122,0.382
2967432,2949.0,2118.0,7261.0,0.895,0.198,-0.122,0.382
2967449,3003.0,2128.0,7275.0,0.895,0.198,-0.122,0.382
2967475,3023.0,2120.0,7261.0,0.895,0.198,-0.122,0.382
2967491,3015.0,2146.0,7273.0,0.895,0.198,-0.122,0.382
2967508,2991.0,2138.0,7285.0,0.895,0.198,-0.122,0.382
2967524,2989.0,2100.0,7281.0,0.895,0.198,-0.122,0.382
2967540,2995.0,2164.0,7267.0,0.895,0.198,-0.122,0.382
2967557,2935.0,2052.0,7269.0,0.895,0.198,-0.122,0.382
2967574,2981.0,2082.0,7271.0,0.895,0.198,-0.122,0.382
2967600,2949.0,2100.0,7261.0,0.895,0.197,-0.122,0.382
2967617,2993.0,2072.0,7269.0,0.895,0.197,-0.122,0.382
2967633,2991.0,2110.0,7255.0,0.895,0.197,-0.122,0.382
2967650,2997.0,2076.0,7259.0,0.895,0.197,-0.122,0.382
2967666,3015.0,2084.0,7243.0,0.895,0.197,-0.122,0.382
2967682,2989.0,2078.0,7301.0,0.895,0.197,-0.122,0.382
2967698,2985.0,2082.0,7285.0,0.895,0.197,-0.122,0.382
2967724,3005.0,2042.0,7265.0,0.895,0.197,-0.122,0.382
2967740,3029.0,2116.0,7241.0,0.895,0.197,-0.122,0.382
2967756,3055.0,2114.0,7251.0,0.895,0.197,-0.122,0.382
2967772,2977.0,2060.0,7297.0,0.895,0.197,-0.122,0.382
2967788,3001.0,2084.0,7257.0,0.895,0.197,-0.122,0.382
2967804,2989.0,2058.0,7317.0,0.895,0.197,-0.122,0.382
2967830,3001.0,2102.0,7345.0,0.895,0.197,-0.122,0.382
2967846,3015.0,2052.0,7313.0,0.895,0.197,-0.122,0.382
2967863,2969.0,2072.0,7267.0,0.895,0.197,-0.122,0.382
2967879,2971.0,2072.0,7233.0,0.895,0.197,-0.122,0.382
2967896,2931.0,2062.0,7275.0,0.895,0.197,-0.122,0.382
2967912,2911.0,2102.0,7241.0,0.895,0.197,-0.122,0.382
2967929,2891.0,2088.0,7251.0,0.895,0.197,-0.122,0.382
2967946,2991.0,2082.0,7231.0,0.895,0.197,-0.122,0.382
2967972,3005.0,2078.0,7283.0,0.895,0.197,-0.122,0.382
2967988,2969.0,2116.0,7243.0,0.895,0.197,-0.122,0.382
2968004,2955.0,2116.0,7261.0,0.895,0.197,-0.122,0.382
2968020,2945.0,2012.0,7253.0,0.895,0.197,-0.122,0.382
2968037,2993.0,1994.0,7269.0,0.895,0.197,-0.122,0.382
2968054,3163.0,1340.0,7231.0,0.894,0.198,-0.122,0.382
2968071,3049.0,1898.0,7347.0,0.894,0.199,-0.121,0.383
2968088,3135.0,1836.0,7391.0,0.893,0.201,-0.12,0.384
2968105,3363.0,1518.0,7533.0,0.892,0.203,-0.119,0.386
2968122,3669.0,592.0,7593.0,0.89,0.207,-0.117,0.389
2968149,3563.0,1586.0,7723.0,0.888,0.212,-0.112,0.393
2968165,3097.0,1648.0,7483.0,0.885,0.217,-0.106,0.399
2968182,3811.0,1960.0,7475.0,0.882,0.223,-0.1,0.404
2968199,3661.0,1446.0,7541.0,0.878,0.229,-0.092,0.41
2968216,3179.0,1482.0,7713.0,0.874,0.237,-0.083,0.416
2968233,3153.0,1184.0,7691.0,0.869,0.246,-0.073,0.422
2968250,3101.0,1534.0,7415.0,0.863,0.257,-0.063,0.429
2968266,3001.0,1700.0,7271.0,0.857,0.27,-0.051,0.437
2968283,2913.0,1980.0,6955.0,0.849,0.284,-0.04,0.444
2968300,2879.0,2894.0,6623.0,0.841,0.298,-0.028,0.451
2968317,2759.0,3270.0,6363.0,0.832,0.313,-0.017,0.458
2968343,2905.0,3700.0,6107.0,0.823,0.328,-0.007,0.464
2968359,2835.0,4068.0,5753.0,0.814,0.341,0.002,0.47
2968375,3125.0,4390.0,5341.0,0.805,0.354,0.009,0.475
2968391,3259.0,4706.0,4965.0,0.797,0.366,0.015,0.48
2968407,3341.0,4250.0,4833.0,0.789,0.375,0.02,0.485
2968433,3469.0,4028.0,4865.0,0.782,0.385,0.024,0.49
2968449,3633.0,3820.0,4915.0,0.774,0.395,0.028,0.495
2968465,3927.0,3534.0,4667.0,0.764,0.406,0.033,0.5
2968481,4683.0,2654.0,4719.0,0.753,0.418,0.039,0.506
2968497,3741.0,2314.0,3911.0,0.738,0.436,0.049,0.512
2968513,4097.0,5158.0,3399.0,0.722,0.455,0.059,0.518
2968529,4063.0,4274.0,3039.0,0.704,0.473,0.07,0.525
2968555,4043.0,4642.0,2539.0,0.685,0.492,0.08,0.532
2968571,4239.0,5056.0,1893.0,0.665,0.51,0.09,0.538
2968587,4375.0,5470.0,1387.0,0.644,0.528,0.1,0.545
2968603,4209.0,5332.0,1269.0,0.621,0.545,0.108,0.552
2968619,4171.0,5330.0,1035.0,0.598,0.562,0.116,0.559
2968635,4297.0,5438.0,997.0,0.575,0.578,0.122,0.566
2968661,4561.0,5478.0,863.0,0.551,0.593,0.128,0.572
2968677,4953.0,5494.0,497.0,0.527,0.608,0.132,0.579
2968693,5445.0,5618.0,175.0,0.504,0.62,0.136,0.585
2968709,5795.0,6230.0,-5.0,0.482,0.631,0.139,0.592
2968725,6023.0,6288.0,-161.0,0.461,0.64,0.141,0.599
2968742,5957.0,6492.0,-153.0,0.441,0.647,0.142,0.606
2968769,5935.0,6694.0,-177.0,0.422,0.653,0.142,0.613
2968786,6185.0,6600.0,-267.0,0.405,0.657,0.139,0.62
2968802,6449.0,6508.0,-429.0,0.39,0.661,0.136,0.627
2968818,6485.0,6592.0,-313.0,0.376,0.663,0.133,0.633
2968834,6433.0,6688.0,-127.0,0.364,0.665,0.128,0.64
2968850,6537.0,6488.0,-5.0,0.353,0.666,0.123,0.646
2968866,6595.0,6312.0,27.0,0.344,0.666,0.116,0.651
2968892,6563.0,6160.0,191.0,0.336,0.667,0.109,0.656
2968908,6557.0,5856.0,123.0,0.329,0.667,0.102,0.661
2968924,6557.0,5906.0,167.0,0.323,0.667,0.093,0.665
2968940,6805.0,5766.0,229.0,0.318,0.667,0.084,0.669
2968956,6867.0,5626.0,291.0,0.314,0.666,0.074,0.672
2968972,6857.0,5342.0,397.0,0.31,0.666,0.063,0.675
2968998,6929.0,5224.0,485.0,0.307,0.666,0.052,0.678
2969015,7195.0,4882.0,519.0,0.303,0.665,0.041,0.681
2969031,7227.0,4480.0,533.0,0.3,0.665,0.029,0.683
2969047,7499.0,4356.0,469.0,0.297,0.665,0.018,0.685
2969063,7317.0,4206.0,699.0,0.294,0.664,0.006,0.687
2969079,7309.0,4002.0,875.0,0.292,0.664,-0.005,0.689
2969096,7349.0,3804.0,1017.0,0.289,0.663,-0.017,0.691
2969122,7387.0,3668.0,919.0,0.286,0.662,-0.029,0.692
2969138,7739.0,3662.0,617.0,0.285,0.661,-0.042,0.694
2969154,8019.0,3822.0,303.0,0.284,0.658,-0.055,0.696
2969170,8533.0,3318.0,463.0,0.285,0.652,-0.071,0.699
2969186,7799.0,3540.0,835.0,0.287,0.645,-0.087,0.703
2969212,7503.0,2230.0,1505.0,0.289,0.636,-0.104,0.708
2969229,7419.0,2876.0,2103.0,0.291,0.628,-0.12,0.711
2969245,7523.0,2366.0,2275.0,0.295,0.621,-0.138,0.713
2969262,7739.0,1276.0,2099.0,0.299,0.613,-0.156,0.714
2969279,8207.0,2544.0,2079.0,0.304,0.607,-0.172,0.714
2969296,8589.0,1652.0,1647.0,0.31,0.6,-0.189,0.713
2969313,8613.0,704.0,1845.0,0.316,0.593,-0.206,0.711
2969329,7773.0,654.0,1757.0,0.323,0.586,-0.222,0.709
2969345,8039.0,1344.0,2137.0,0.33,0.58,-0.237,0.706
2969362,8255.0,1142.0,2457.0,0.338,0.574,-0.252,0.702
2969389,8023.0,950.0,2029.0,0.347,0.568,-0.268,0.697
2969405,8377.0,-980.0,1991.0,0.354,0.563,-0.282,0.692
2969422,8121.0,-898.0,1079.0,0.359,0.56,-0.294,0.687
2969438,8271.0,-6.0,1483.0,0.363,0.558,-0.302,0.683
2969454,8355.0,-424.0,1621.0,0.367,0.556,-0.309,0.679
2969470,8105.0,-1416.0,1517.0,0.369,0.556,-0.313,0.676
2969486,8021.0,-2012.0,1437.0,0.369,0.557,-0.314,0.675
2969502,7825.0,-2140.0,1315.0,0.367,0.56,-0.311,0.675
2969529,7937.0,-1638.0,1203.0,0.364,0.564,-0.305,0.676
2969546,8203.0,-560.0,1255.0,0.358,0.569,-0.296,0.678
2969563,8203.0,632.0,1329.0,0.353,0.575,-0.286,0.681
2969580,7913.0,-60.0,1527.0,0.346,0.58,-0.276,0.684
2969597,7809.0,-778.0,1985.0,0.338,0.587,-0.264,0.687
2969613,7659.0,366.0,2443.0,0.33,0.594,-0.251,0.69
2969630,7701.0,1000.0,2047.0,0.322,0.601,-0.239,0.692
2969647,8023.0,1484.0,1317.0,0.314,0.608,-0.227,0.692
2969664,8497.0,2254.0,781.0,0.308,0.615,-0.218,0.692
2969681,8643.0,2160.0,291.0,0.304,0.619,-0.212,0.692
2969698,8793.0,1604.0,323.0,0.303,0.621,-0.208,0.692
2969715,8509.0,988.0,299.0,0.303,0.622,-0.205,0.693
2969741,8045.0,602.0,537.0,0.304,0.621,-0.203,0.693
2969757,7533.0,350.0,869.0,0.305,0.62,-0.201,0.694
2969773,7547.0,-132.0,1045.0,0.306,0.619,-0.2,0.695
2969789,7475.0,-414.0,1149.0,0.306,0.619,-0.197,0.696
2969805,7535.0,156.0,1133.0,0.305,0.62,-0.194,0.696
2969821,7659.0,222.0,893.0,0.304,0.621,-0.191,0.696
2969847,7815.0,312.0,935.0,0.302,0.623,-0.188,0.697
2969864,7985.0,334.0,913.0,0.3,0.625,-0.184,0.697
2969880,8049.0,682.0,945.0,0.297,0.627,-0.181,0.697
2969897,8023.0,758.0,857.0,0.294,0.629,-0.177,0.697
2969914,7969.0,690.0,919.0,0.291,0.632,-0.174,0.697
2969931,7887.0,802.0,781.0,0.289,0.633,-0.171,0.697
2969948,7935.0,952.0,831.0,0.286,0.635,-0.168,0.697
2969964,7867.0,980.0,921.0,0.284,0.637,-0.166,0.698
2969981,7855.0,668.0,1009.0,0.282,0.638,-0.164,0.698
2970007,7845.0,626.0,969.0,0.28,0.639,-0.163,0.698
2970023,7869.0,724.0,1059.0,0.277,0.64,-0.161,0.698
2970039,7867.0,962.0,989.0,0.274,0.642,-0.16,0.698
2970055,7859.0,894.0,995.0,0.272,0.643,-0.159,0.698
2970071,7953.0,942.0,991.0,0.269,0.644,-0.158,0.698
2970087,8085.0,954.0,921.0,0.266,0.646,-0.158,0.698
2970113,8105.0,1128.0,817.0,0.264,0.647,-0.157,0.698
2970130,8131.0,1232.0,857.0,0.261,0.648,-0.157,0.698
2970147,8169.0,1150.0,877.0,0.259,0.648,-0.158,0.698
2970164,8163.0,924.0,925.0,0.258,0.648,-0.159,0.699
2970181,8139.0,952.0,925.0,0.256,0.649,-0.159,0.699
2970197,8113.0,1002.0,991.0,0.255,0.649,-0.16,0.699
2970214,8097.0,924.0,979.0,0.253,0.649,-0.16,0.699
2970230,8091.0,978.0,977.0,0.252,0.65,-0.161,0.699
2970247,8137.0,896.0,913.0,0.251,0.65,-0.162,0.699
2970264,8093.0,892.0,977.0,0.251,0.65,-0.162,0.698
2970281,7957.0,842.0,1041.0,0.25,0.651,-0.163,0.698
2970307,8105.0,742.0,1015.0,0.249,0.652,-0.163,0.698
2970324,7987.0,826.0,1011.0,0.248,0.652,-0.163,0.697
2970340,8015.0,950.0,919.0,0.247,0.653,-0.163,0.697
2970356,8137.0,800.0,917.0,0.247,0.654,-0.164,0.696
2970372,8273.0,1110.0,695.0,0.246,0.654,-0.164,0.696
2970388,8313.0,1284.0,735.0,0.246,0.654,-0.164,0.696
2970414,8195.0,898.0,867.0,0.247,0.653,-0.165,0.697
2970430,8103.0,886.0,895.0,0.247,0.652,-0.165,0.698
2970446,8089.0,862.0,915.0,0.247,0.651,-0.166,0.698
2970462,8025.0,800.0,853.0,0.248,0.65,-0.166,0.699
2970478,8031.0,820.0,855.0,0.248,0.65,-0.166,0.699
2970494,8129.0,848.0,757.0,0.248,0.649,-0.166,0.7
2970520,8057.0,714.0,779.0,0.249,0.648,-0.166,0.7
2970536,8123.0,872.0,857.0,0.249,0.648,-0.165,0.701
2970552,8179.0,1132.0,661.0,0.249,0.648,-0.165,0.701
2970568,8227.0,308.0,775.0,0.249,0.648,-0.163,0.701
2970584,8581.0,180.0,909.0,0.248,0.648,-0.159,0.702
2970600,8743.0,2334.0,261.0,0.247,0.649,-0.154,0.702
2970626,9133.0,3750.0,387.0,0.247,0.649,-0.149,0.703
2970642,8417.0,4170.0,1525.0,0.249,0.649,-0.145,0.704
2970658,8285.0,2148.0,1945.0,0.252,0.65,-0.141,0.703
2970674,8561.0,3280.0,1485.0,0.253,0.651,-0.132,0.703
2970691,8953.0,5500.0,1187.0,0.258,0.652,-0.122,0.702
2970707,9069.0,3628.0,1813.0,0.265,0.653,-0.11,0.701
2970733,8963.0,4308.0,2033.0,0.273,0.653,-0.094,0.7
2970749,9179.0,5406.0,2331.0,0.284,0.654,-0.074,0.697
2970765,9233.0,5280.0,2497.0,0.296,0.655,-0.052,0.694
2970781,9429.0,7286.0,2029.0,0.309,0.655,-0.028,0.689
2970798,9893.0,7500.0,2069.0,0.325,0.653,-0.005,0.684
2970814,9719.0,6290.0,2487.0,0.341,0.651,0.02,0.678
2970840,9649.0,6376.0,2247.0,0.358,0.649,0.048,0.67
2970856,9379.0,7852.0,2317.0,0.375,0.646,0.077,0.661
2970872,9415.0,7632.0,2057.0,0.395,0.641,0.106,0.649
2970888,9341.0,8120.0,1549.0,0.414,0.636,0.137,0.637
2970904,8999.0,7752.0,1995.0,0.434,0.63,0.167,0.622
2970920,8347.0,8038.0,1581.0,0.455,0.622,0.198,0.606
2970936,7789.0,8278.0,1291.0,0.476,0.614,0.229,0.587
2970962,6905.0,8624.0,1009.0,0.498,0.604,0.258,0.567
2970978,6163.0,8596.0,609.0,0.519,0.594,0.285,0.545
2970994,5753.0,8556.0,349.0,0.539,0.582,0.311,0.524
2971010,4949.0,8646.0,423.0,0.558,0.569,0.334,0.503
2971026,4901.0,7828.0,191.0,0.577,0.556,0.355,0.481
2971052,4223.0,7614.0,263.0,0.594,0.542,0.376,0.46
2971068,3683.0,7494.0,389.0,0.611,0.527,0.394,0.44
2971084,3613.0,7220.0,215.0,0.627,0.512,0.411,0.419
2971100,2879.0,6342.0,551.0,0.642,0.497,0.427,0.399
2971116,2733.0,6674.0,241.0,0.656,0.482,0.442,0.378
2971132,2347.0,6932.0,399.0,0.669,0.466,0.455,0.358
2971158,1435.0,5092.0,619.0,0.682,0.45,0.467,0.338
2971174,1267.0,6256.0,365.0,0.693,0.435,0.478,0.318
2971190,869.0,5326.0,337.0,0.704,0.419,0.488,0.3
2971206,285.0,5238.0,599.0,0.714,0.405,0.498,0.281
2971222,133.0,6334.0,445.0,0.722,0.39,0.506,0.264
2971238,-481.0,5348.0,639.0,0.73,0.376,0.514,0.248
2971264,-867.0,6020.0,419.0,0.737,0.361,0.521,0.232
2971280,-1717.0,5396.0,821.0,0.745,0.346,0.527,0.218
2971296,-1937.0,4246.0,649.0,0.752,0.331,0.532,0.205
2971312,-3063.0,2412.0,887.0,0.759,0.316,0.537,0.192
2971329,-3569.0,3604.0,905.0,0.764,0.302,0.541,0.179
2971346,-4383.0,1072.0,1381.0,0.77,0.288,0.544,0.169
2971362,-5181.0,290.0,1699.0,0.774,0.277,0.547,0.161
2971388,-6075.0,-334.0,2339.0,0.777,0.269,0.548,0.154
2971404,-6537.0,-1380.0,2593.0,0.779,0.263,0.548,0.15
2971420,-6481.0,-2206.0,2365.0,0.782,0.26,0.547,0.149
2971436,-6663.0,-2020.0,2435.0,0.783,0.257,0.546,0.149
2971452,-6591.0,-1948.0,2171.0,0.784,0.258,0.544,0.153
2971468,-6209.0,-2180.0,1801.0,0.783,0.261,0.542,0.161
2971494,-5903.0,-1358.0,1819.0,0.781,0.266,0.539,0.171
2971512,-5597.0,-906.0,1819.0,0.777,0.274,0.535,0.184
2971528,-5157.0,-378.0,1701.0,0.773,0.285,0.531,0.199
2971544,-4647.0,58.0,1543.0,0.768,0.297,0.525,0.215
2971560,-4003.0,664.0,1531.0,0.762,0.312,0.517,0.233
2971576,-3283.0,1758.0,1575.0,0.756,0.328,0.508,0.251
2971593,-2885.0,2528.0,1481.0,0.748,0.347,0.496,0.271
2971609,-1401.0,3148.0,1257.0,0.74,0.366,0.483,0.292
2971635,-657.0,4108.0,999.0,0.731,0.385,0.468,0.314
2971651,451.0,5198.0,1009.0,0.722,0.403,0.451,0.337
2971667,1807.0,5214.0,683.0,0.71,0.421,0.434,0.361
2971683,2401.0,5150.0,831.0,0.696,0.44,0.417,0.384
2971699,3271.0,7726.0,961.0,0.68,0.461,0.4,0.407
2971715,3651.0,8478.0,1185.0,0.664,0.478,0.381,0.43
2971741,4279.0,8318.0,1429.0,0.649,0.493,0.361,0.454
2971757,4793.0,8848.0,1411.0,0.632,0.507,0.341,0.476
2971773,5621.0,7126.0,1295.0,0.614,0.522,0.321,0.497
2971789,6097.0,8980.0,1455.0,0.595,0.537,0.302,0.517
2971805,6463.0,10310.0,1685.0,0.577,0.549,0.281,0.536
2971831,6139.0,7748.0,1891.0,0.56,0.56,0.259,0.554
2971847,6609.0,7948.0,1735.0,0.541,0.571,0.238,0.57
2971863,7331.0,7816.0,1747.0,0.521,0.582,0.219,0.585
2971879,7905.0,8228.0,1587.0,0.5,0.593,0.2,0.599
2971895,8171.0,8816.0,1689.0,0.48,0.601,0.181,0.612
2971911,8097.0,7516.0,1999.0,0.461,0.609,0.162,0.624
2971927,7993.0,7458.0,1817.0,0.442,0.617,0.144,0.635
2971953,8553.0,7106.0,1761.0,0.422,0.625,0.127,0.645
2971969,8715.0,7958.0,1791.0,0.402,0.631,0.112,0.654
2971985,8961.0,8186.0,1449.0,0.382,0.637,0.096,0.662
2972001,9157.0,7890.0,1497.0,0.365,0.642,0.082,0.67
2972017,8991.0,6826.0,1427.0,0.348,0.645,0.069,0.676
2972043,9167.0,7458.0,1277.0,0.333,0.649,0.059,0.682
2972059,8981.0,8170.0,1465.0,0.32,0.651,0.051,0.686
2972075,8641.0,7920.0,1579.0,0.309,0.653,0.044,0.689
2972091,8065.0,8294.0,1723.0,0.301,0.655,0.039,0.692
2972107,7317.0,8124.0,1919.0,0.295,0.658,0.035,0.692
2972123,6977.0,8114.0,1917.0,0.291,0.66,0.033,0.692
2972149,6717.0,8434.0,1751.0,0.288,0.662,0.033,0.692
2972165,6333.0,8428.0,1855.0,0.287,0.663,0.033,0.691
2972181,5783.0,8564.0,2013.0,0.288,0.663,0.035,0.69
2972197,5635.0,8618.0,1895.0,0.29,0.663,0.037,0.689
2972213,5623.0,8628.0,1821.0,0.293,0.663,0.041,0.688
2972230,5831.0,8520.0,1885.0,0.298,0.661,0.046,0.687
2972247,6293.0,8476.0,1717.0,0.305,0.659,0.053,0.686
2972264,6681.0,8594.0,1725.0,0.313,0.656,0.061,0.684
2972290,7127.0,8804.0,1715.0,0.323,0.652,0.071,0.682
2972306,7557.0,8782.0,1765.0,0.335,0.648,0.082,0.679
2972323,7905.0,8920.0,1715.0,0.348,0.644,0.095,0.675
2972339,8017.0,8984.0,1717.0,0.363,0.639,0.11,0.669
2972355,7993.0,8788.0,1761.0,0.38,0.633,0.125,0.662
2972372,8047.0,9128.0,1733.0,0.398,0.627,0.142,0.654
2972388,8143.0,9392.0,1699.0,0.418,0.62,0.16,0.645
2972414,7943.0,9010.0,1535.0,0.438,0.612,0.179,0.634
2972430,7649.0,9280.0,1613.0,0.459,0.602,0.199,0.622
2972446,7341.0,9640.0,1807.0,0.48,0.592,0.22,0.608
2972462,6983.0,9194.0,1733.0,0.502,0.581,0.24,0.594
2972478,6999.0,9838.0,1643.0,0.523,0.57,0.261,0.578
2972504,6843.0,9834.0,1665.0,0.544,0.557,0.281,0.56
2972521,7095.0,10628.0,1361.0,0.564,0.545,0.302,0.542
2972537,6545.0,10302.0,1215.0,0.585,0.531,0.321,0.523
2972553,5617.0,9034.0,1321.0,0.605,0.515,0.341,0.502
2972569,5257.0,9236.0,1257.0,0.624,0.5,0.359,0.481
2972585,4377.0,7626.0,1373.0,0.642,0.485,0.376,0.459
2972601,4297.0,7280.0,1139.0,0.658,0.471,0.393,0.436
2972627,3761.0,8076.0,1369.0,0.674,0.456,0.409,0.413
2972643,3631.0,6640.0,1101.0,0.688,0.442,0.422,0.391
2972659,3333.0,5472.0,787.0,0.703,0.426,0.436,0.368
2972675,2687.0,6022.0,817.0,0.716,0.409,0.449,0.345
2972691,1989.0,5234.0,1059.0,0.728,0.392,0.46,0.323
2972707,1717.0,5038.0,929.0,0.74,0.374,0.471,0.302
2972733,909.0,4346.0,1037.0,0.751,0.354,0.48,0.283
2972749,399.0,4352.0,709.0,0.76,0.335,0.489,0.266
2972765,-645.0,2428.0,887.0,0.769,0.315,0.497,0.252
2972781,-1365.0,1206.0,1211.0,0.775,0.297,0.505,0.237
2972797,-2685.0,-188.0,1701.0,0.78,0.28,0.512,0.224
2972814,-2993.0,-1166.0,1625.0,0.784,0.266,0.519,0.212
2972840,-4097.0,-850.0,1801.0,0.786,0.255,0.525,0.202
2972856,-5249.0,-1798.0,2205.0,0.788,0.246,0.53,0.195
2972872,-5751.0,-2622.0,1935.0,0.789,0.241,0.532,0.192
2972889,-6183.0,-3198.0,1879.0,0.789,0.239,0.532,0.191
2972905,-6075.0,-3032.0,1483.0,0.789,0.241,0.53,0.195
2972921,-6003.0,-2154.0,1215.0,0.788,0.245,0.527,0.202
2972937,-5717.0,-2260.0,1169.0,0.787,0.25,0.522,0.213
2972954,-5605.0,-1770.0,1297.0,0.784,0.258,0.516,0.227
2972980,-5429.0,-872.0,1511.0,0.781,0.268,0.509,0.243
2972996,-4987.0,-758.0,1571.0,0.776,0.281,0.5,0.261
2973013,-4463.0,-10.0,1717.0,0.77,0.297,0.49,0.28
2973030,-3497.0,2266.0,1589.0,0.764,0.314,0.478,0.3
2973047,-3113.0,3012.0,2043.0,0.756,0.332,0.464,0.321
2973064,-1943.0,1942.0,2401.0,0.747,0.353,0.448,0.343
2973081,-303.0,3250.0,1597.0,0.736,0.376,0.432,0.363
2973097,2239.0,8010.0,969.0,0.723,0.397,0.416,0.383
2973113,2243.0,6018.0,2025.0,0.709,0.416,0.399,0.406
2973139,3463.0,8144.0,1991.0,0.694,0.436,0.383,0.426
2973155,4519.0,9042.0,1793.0,0.677,0.455,0.369,0.445
2973171,4599.0,9100.0,1611.0,0.662,0.47,0.355,0.463
2973187,3797.0,8728.0,2313.0,0.648,0.484,0.339,0.482
2973203,5003.0,10292.0,2139.0,0.631,0.499,0.323,0.498
2973229,4895.0,8242.0,1995.0,0.615,0.515,0.307,0.513
2973245,5647.0,8598.0,1363.0,0.599,0.529,0.291,0.526
2973261,4437.0,8086.0,2099.0,0.585,0.541,0.274,0.538
2973277,5009.0,8850.0,2155.0,0.57,0.553,0.258,0.55
2973295,6117.0,8412.0,1651.0,0.554,0.566,0.241,0.561
2973311,6741.0,9062.0,1445.0,0.537,0.578,0.225,0.571
2973327,6387.0,8642.0,1477.0,0.521,0.588,0.209,0.582
2973353,6603.0,8506.0,1577.0,0.506,0.596,0.193,0.592
2973370,6297.0,8278.0,1865.0,0.491,0.604,0.178,0.602
2973386,6115.0,7888.0,1783.0,0.476,0.611,0.163,0.611
2973402,6737.0,8232.0,1873.0,0.46,0.618,0.149,0.62
2973418,6319.0,6794.0,1779.0,0.445,0.625,0.134,0.628
2973434,6577.0,7154.0,2013.0,0.431,0.631,0.119,0.635
2973450,7063.0,6604.0,1605.0,0.415,0.637,0.105,0.641
2973476,7607.0,7040.0,1415.0,0.399,0.642,0.091,0.648
2973492,7719.0,7096.0,1305.0,0.384,0.646,0.078,0.655
2973508,7953.0,7074.0,1249.0,0.369,0.65,0.065,0.661
2973524,7957.0,6530.0,1303.0,0.356,0.653,0.053,0.667
2973540,8317.0,6910.0,1211.0,0.344,0.655,0.043,0.672
2973556,8233.0,6942.0,1249.0,0.333,0.656,0.033,0.677
2973582,8131.0,7592.0,1295.0,0.323,0.656,0.023,0.681
2973598,7939.0,7180.0,1451.0,0.316,0.657,0.015,0.685
2973614,7781.0,7254.0,1611.0,0.31,0.657,0.008,0.687
2973630,7741.0,7296.0,1565.0,0.307,0.658,0.003,0.687
2973647,7325.0,7724.0,2061.0,0.306,0.659,-0.001,0.687
2973663,7025.0,7812.0,2145.0,0.306,0.659,-0.002,0.687
2973680,6855.0,8194.0,2167.0,0.309,0.66,-0.003,0.685
2973697,6855.0,7864.0,2189.0,0.314,0.66,-0.002,0.683
2973724,6915.0,8160.0,2179.0,0.32,0.659,0.001,0.681
2973740,6937.0,8258.0,2123.0,0.327,0.657,0.006,0.679
2973756,6837.0,8232.0,2297.0,0.335,0.655,0.012,0.677
2973772,6945.0,8202.0,2433.0,0.346,0.652,0.021,0.674
2973788,7211.0,8344.0,2379.0,0.357,0.649,0.031,0.671
2973805,7433.0,8114.0,2283.0,0.37,0.646,0.044,0.667
2973831,7749.0,8596.0,2297.0,0.383,0.642,0.058,0.662
2973847,7851.0,8280.0,2343.0,0.397,0.637,0.075,0.656
2973863,7837.0,8656.0,2373.0,0.412,0.632,0.093,0.65
2973879,8107.0,8700.0,2139.0,0.428,0.626,0.113,0.642
2973895,7995.0,8878.0,2229.0,0.445,0.62,0.134,0.632
2973911,7935.0,9016.0,1947.0,0.462,0.613,0.156,0.621
2973937,7861.0,9134.0,1889.0,0.479,0.606,0.179,0.609
2973953,7615.0,9174.0,1753.0,0.497,0.598,0.203,0.596
2973969,7227.0,9188.0,1741.0,0.515,0.589,0.226,0.581
2973985,6825.0,9338.0,1663.0,0.533,0.579,0.25,0.564
2974001,6535.0,9198.0,1373.0,0.551,0.568,0.273,0.547
2974017,6297.0,9344.0,1287.0,0.568,0.557,0.296,0.528
2974043,6033.0,9166.0,1117.0,0.586,0.545,0.318,0.509
2974059,5203.0,8770.0,1249.0,0.603,0.531,0.339,0.489
2974075,4841.0,8576.0,1073.0,0.621,0.517,0.359,0.468
2974091,4101.0,7740.0,1057.0,0.637,0.502,0.377,0.448
2974107,3747.0,7682.0,969.0,0.652,0.486,0.395,0.427
2974123,3241.0,7138.0,917.0,0.667,0.47,0.412,0.406
2974149,2371.0,6388.0,985.0,0.681,0.453,0.428,0.384
2974165,2099.0,5974.0,813.0,0.695,0.436,0.443,0.363
2974181,1329.0,5612.0,1075.0,0.707,0.419,0.457,0.341
2974197,1255.0,6258.0,783.0,0.718,0.402,0.469,0.321
2974213,937.0,5142.0,1069.0,0.727,0.386,0.481,0.301
2974239,517.0,4818.0,861.0,0.736,0.37,0.491,0.283
2974255,95.0,4152.0,937.0,0.744,0.354,0.501,0.264
2974271,-427.0,4252.0,963.0,0.751,0.339,0.511,0.244
2974287,-997.0,4520.0,1141.0,0.757,0.325,0.52,0.226
2974303,-1225.0,3008.0,945.0,0.762,0.313,0.528,0.208
2974319,-1857.0,862.0,693.0,0.765,0.302,0.536,0.189
2974335,-2937.0,2290.0,753.0,0.768,0.294,0.543,0.17
2974361,-4459.0,1030.0,1307.0,0.77,0.285,0.549,0.156
2974377,-5409.0,-536.0,1713.0,0.771,0.279,0.554,0.145
2974393,-6567.0,-1150.0,2375.0,0.772,0.277,0.556,0.135
2974409,-6481.0,-1656.0,2231.0,0.772,0.278,0.557,0.13
2974426,-6151.0,-1936.0,1875.0,0.772,0.281,0.556,0.127
2974443,-6379.0,-2398.0,2261.0,0.771,0.286,0.555,0.129
2974460,-6131.0,-2366.0,1847.0,0.769,0.293,0.553,0.134
2974477,-6231.0,-2202.0,1761.0,0.765,0.303,0.55,0.141
2974494,-5955.0,-1398.0,1513.0,0.76,0.316,0.547,0.152
2974520,-5601.0,-1224.0,1349.0,0.755,0.331,0.542,0.164
2974536,-5111.0,-456.0,1135.0,0.748,0.347,0.537,0.179
2974552,-4501.0,638.0,923.0,0.74,0.365,0.53,0.195
2974568,-3799.0,1848.0,717.0,0.732,0.384,0.521,0.214
2974584,-2839.0,2904.0,603.0,0.723,0.403,0.51,0.234
2974600,-2053.0,3968.0,521.0,0.713,0.421,0.497,0.257
2974626,-1009.0,3896.0,409.0,0.703,0.44,0.483,0.28
2974643,-163.0,5794.0,305.0,0.691,0.459,0.468,0.305
2974660,937.0,5730.0,167.0,0.679,0.476,0.451,0.33
2974676,1637.0,6330.0,247.0,0.666,0.491,0.435,0.356
2974693,2683.0,7722.0,451.0,0.65,0.508,0.418,0.38
2974709,3515.0,9718.0,373.0,0.634,0.523,0.4,0.405
2974726,4057.0,8652.0,209.0,0.62,0.535,0.38,0.43
2974743,5243.0,9174.0,339.0,0.606,0.545,0.361,0.453
2974769,5107.0,8788.0,695.0,0.591,0.556,0.341,0.475
2974785,5765.0,8532.0,473.0,0.574,0.569,0.322,0.494
2974801,6449.0,10158.0,619.0,0.557,0.581,0.302,0.51
2974817,6233.0,9756.0,699.0,0.541,0.593,0.282,0.526
2974833,6581.0,8290.0,635.0,0.526,0.604,0.26,0.54
2974849,7739.0,8430.0,313.0,0.509,0.614,0.24,0.553
2974875,7949.0,8148.0,521.0,0.491,0.624,0.222,0.566
2974891,7553.0,8406.0,617.0,0.473,0.633,0.205,0.578
2974907,7553.0,7606.0,513.0,0.456,0.641,0.189,0.589
2974923,7379.0,8010.0,737.0,0.438,0.648,0.174,0.599
2974939,7501.0,7718.0,801.0,0.42,0.655,0.16,0.608
2974955,7887.0,7956.0,807.0,0.402,0.661,0.147,0.617
2974981,7791.0,7722.0,555.0,0.384,0.666,0.134,0.626
2974997,7423.0,7742.0,771.0,0.368,0.67,0.123,0.633
2975013,7123.0,8252.0,971.0,0.352,0.674,0.112,0.64
2975029,7089.0,7322.0,785.0,0.337,0.677,0.1,0.646
2975045,7165.0,7842.0,749.0,0.322,0.68,0.091,0.652
2975061,7249.0,7810.0,681.0,0.309,0.682,0.081,0.658
2975087,7225.0,7816.0,619.0,0.297,0.683,0.072,0.663
2975103,7291.0,7772.0,377.0,0.287,0.684,0.063,0.668
2975119,7347.0,7650.0,317.0,0.278,0.685,0.055,0.671
2975136,7173.0,7690.0,345.0,0.272,0.685,0.048,0.674
2975152,7201.0,7602.0,513.0,0.268,0.685,0.043,0.676
2975168,7509.0,7952.0,331.0,0.266,0.686,0.038,0.677
2975184,7397.0,7700.0,411.0,0.266,0.685,0.035,0.677
2975210,7097.0,7930.0,675.0,0.268,0.685,0.034,0.677
2975226,6969.0,8060.0,853.0,0.272,0.685,0.033,0.675
2975242,6901.0,7912.0,867.0,0.278,0.685,0.035,0.673
2975258,6967.0,7838.0,1005.0,0.285,0.684,0.038,0.67
2975274,6963.0,8072.0,1059.0,0.294,0.683,0.043,0.667
2975300,6959.0,7812.0,1179.0,0.304,0.681,0.051,0.664
2975316,7205.0,8188.0,1191.0,0.315,0.679,0.059,0.661
2975332,7319.0,7974.0,1265.0,0.328,0.676,0.07,0.657
2975348,7587.0,8200.0,1219.0,0.341,0.672,0.082,0.652
2975364,7555.0,8182.0,1329.0,0.355,0.669,0.096,0.646
2975380,7821.0,8604.0,1269.0,0.37,0.664,0.112,0.64
2975406,7969.0,8614.0,1197.0,0.386,0.659,0.129,0.632
2975422,7945.0,8710.0,1239.0,0.402,0.654,0.147,0.624
2975438,7935.0,9306.0,1269.0,0.42,0.648,0.167,0.614
2975454,7765.0,9348.0,1149.0,0.438,0.641,0.187,0.602
2975470,7597.0,9560.0,1121.0,0.456,0.633,0.209,0.589
2975486,7193.0,9880.0,1193.0,0.476,0.625,0.23,0.575
2975513,6989.0,10062.0,1107.0,0.496,0.616,0.25,0.559
2975529,6795.0,9884.0,815.0,0.516,0.605,0.27,0.542
2975546,6417.0,9390.0,541.0,0.537,0.594,0.29,0.524
2975562,5689.0,9470.0,767.0,0.558,0.581,0.31,0.506
2975578,5003.0,8456.0,685.0,0.578,0.566,0.33,0.486
2975594,5045.0,9468.0,745.0,0.597,0.552,0.349,0.466
2975610,4593.0,7876.0,569.0,0.616,0.536,0.367,0.446
2975636,3923.0,7770.0,605.0,0.633,0.521,0.384,0.425
2975652,3627.0,7682.0,551.0,0.649,0.504,0.4,0.404
2975668,2983.0,6798.0,733.0,0.664,0.488,0.417,0.383
2975684,2569.0,6826.0,687.0,0.678,0.471,0.433,0.361
2975700,2231.0,6006.0,381.0,0.691,0.454,0.449,0.339
2975716,1203.0,6370.0,839.0,0.702,0.438,0.464,0.317
2975733,1105.0,6084.0,279.0,0.712,0.422,0.478,0.295
2975760,499.0,4750.0,215.0,0.721,0.405,0.491,0.274
2975776,91.0,4822.0,255.0,0.729,0.389,0.505,0.252
2975793,-1089.0,4302.0,563.0,0.735,0.372,0.517,0.231
2975810,-1121.0,3894.0,167.0,0.741,0.357,0.528,0.212
2975826,-1695.0,2770.0,367.0,0.746,0.343,0.538,0.193
2975842,-2485.0,2486.0,557.0,0.75,0.329,0.547,0.174
2975858,-2883.0,1850.0,447.0,0.753,0.317,0.555,0.158
2975884,-3415.0,340.0,463.0,0.755,0.307,0.561,0.144
2975900,-4037.0,-44.0,605.0,0.756,0.299,0.567,0.131
2975916,-4913.0,-118.0,1071.0,0.757,0.294,0.571,0.121
2975932,-5267.0,-458.0,1175.0,0.757,0.29,0.574,0.114
2975948,-5663.0,-988.0,1383.0,0.757,0.289,0.575,0.111
2975964,-5905.0,-1448.0,1401.0,0.757,0.289,0.575,0.112
2975990,-6325.0,-1580.0,1479.0,0.756,0.292,0.575,0.115
2976007,-6523.0,-1650.0,1429.0,0.754,0.297,0.573,0.122
2976024,-6269.0,-1338.0,1371.0,0.751,0.305,0.57,0.131
2976040,-6145.0,-694.0,1401.0,0.748,0.315,0.567,0.143
2976057,-6101.0,-152.0,1365.0,0.744,0.326,0.561,0.158
2976074,-5767.0,700.0,1227.0,0.739,0.34,0.555,0.175
2976090,-5559.0,1122.0,1261.0,0.734,0.354,0.546,0.195
2976106,-5137.0,1700.0,1353.0,0.728,0.37,0.536,0.216
2976122,-3831.0,2408.0,915.0,0.72,0.386,0.525,0.238
2976149,-2689.0,3564.0,767.0,0.711,0.404,0.513,0.26
2976165,-1915.0,4136.0,833.0,0.701,0.421,0.501,0.284
2976181,-547.0,6680.0,537.0,0.689,0.439,0.489,0.307
2976197,51.0,7502.0,521.0,0.676,0.455,0.475,0.331
2976213,917.0,7330.0,263.0,0.664,0.469,0.461,0.356
2976229,1571.0,8664.0,503.0,0.651,0.483,0.447,0.378
2976255,1941.0,7768.0,561.0,0.638,0.497,0.431,0.399
2976272,3147.0,9412.0,271.0,0.625,0.511,0.417,0.418
2976288,3257.0,8656.0,483.0,0.613,0.523,0.401,0.437
2976304,3725.0,8652.0,497.0,0.6,0.534,0.386,0.454
2976320,3957.0,9044.0,685.0,0.586,0.546,0.37,0.47
2976336,3989.0,8212.0,647.0,0.572,0.558,0.355,0.486
2976362,4561.0,9018.0,311.0,0.557,0.57,0.338,0.501
2976379,5013.0,8920.0,741.0,0.543,0.579,0.322,0.516
2976395,4463.0,8106.0,1329.0,0.531,0.587,0.304,0.53
2976411,4691.0,7988.0,1295.0,0.519,0.594,0.285,0.544
2976427,4589.0,8088.0,1661.0,0.506,0.602,0.265,0.558
2976443,5345.0,8696.0,1389.0,0.491,0.61,0.245,0.572
2976469,5873.0,6982.0,955.0,0.477,0.616,0.225,0.585
2976485,6441.0,8194.0,1431.0,0.463,0.622,0.205,0.597
2976501,6637.0,8100.0,1441.0,0.45,0.626,0.186,0.609
2976517,7075.0,8202.0,1671.0,0.436,0.631,0.167,0.62
2976533,6741.0,8614.0,1911.0,0.422,0.634,0.148,0.631
2976549,6839.0,7038.0,1559.0,0.408,0.638,0.129,0.64
2976565,7385.0,7142.0,1489.0,0.395,0.641,0.112,0.648
2976591,6907.0,6786.0,1893.0,0.383,0.644,0.095,0.655
2976608,7187.0,6540.0,1611.0,0.371,0.647,0.079,0.661
2976625,7195.0,6372.0,1773.0,0.359,0.649,0.065,0.667
2976641,7409.0,6344.0,1583.0,0.345,0.652,0.052,0.673
2976658,8127.0,6758.0,1107.0,0.332,0.654,0.041,0.678
2976675,8257.0,6472.0,1261.0,0.32,0.655,0.032,0.683
2976691,8539.0,6826.0,1159.0,0.31,0.656,0.023,0.688
2976707,8405.0,6958.0,1273.0,0.302,0.657,0.017,0.691
2976733,8225.0,7152.0,1335.0,0.294,0.657,0.013,0.694
2976749,7993.0,7180.0,1549.0,0.289,0.658,0.011,0.695
2976765,7899.0,7040.0,1387.0,0.286,0.659,0.01,0.695
2976781,7813.0,7136.0,1267.0,0.285,0.66,0.012,0.695
2976797,7771.0,7828.0,1123.0,0.286,0.66,0.016,0.694
2976813,6835.0,8248.0,1527.0,0.29,0.661,0.021,0.692
2976839,6555.0,8358.0,1497.0,0.295,0.661,0.026,0.69
2976855,6711.0,8194.0,1007.0,0.303,0.661,0.032,0.686
2976871,6751.0,8182.0,923.0,0.311,0.66,0.04,0.683
2976887,6805.0,8364.0,1107.0,0.322,0.658,0.048,0.679
2976903,6755.0,8486.0,1325.0,0.334,0.656,0.058,0.675
2976920,6991.0,8502.0,1401.0,0.349,0.653,0.069,0.669
2976937,7387.0,8620.0,1479.0,0.365,0.649,0.08,0.663
2976963,7595.0,8686.0,1513.0,0.382,0.645,0.094,0.656
2976979,7687.0,8924.0,1741.0,0.4,0.64,0.109,0.647
2976995,7907.0,9078.0,1729.0,0.419,0.634,0.125,0.638
2977012,7881.0,8870.0,1799.0,0.439,0.628,0.143,0.627
2977028,7879.0,9458.0,1823.0,0.459,0.621,0.162,0.615
2977044,7673.0,9136.0,1841.0,0.479,0.613,0.182,0.601
2977070,7291.0,8998.0,1721.0,0.499,0.605,0.203,0.586
2977086,6575.0,9012.0,1885.0,0.519,0.596,0.224,0.57
2977102,6269.0,8658.0,1675.0,0.539,0.586,0.246,0.553
2977118,5537.0,8626.0,1683.0,0.558,0.576,0.267,0.534
2977134,5129.0,8786.0,1565.0,0.576,0.565,0.289,0.514
2977150,4847.0,8800.0,1441.0,0.594,0.554,0.31,0.494
2977176,4537.0,8274.0,1105.0,0.611,0.543,0.33,0.473
2977192,3919.0,8220.0,1177.0,0.627,0.53,0.35,0.452
2977208,3557.0,7900.0,1051.0,0.642,0.518,0.368,0.43
2977224,3169.0,7562.0,883.0,0.656,0.504,0.386,0.409
2977240,2403.0,7418.0,1213.0,0.669,0.49,0.402,0.387
2977256,2087.0,6946.0,955.0,0.682,0.476,0.419,0.365
2977282,1527.0,6472.0,907.0,0.694,0.461,0.434,0.344
2977298,1107.0,6394.0,1137.0,0.704,0.446,0.448,0.322
2977314,783.0,6142.0,971.0,0.715,0.431,0.461,0.301
2977330,-13.0,5374.0,1293.0,0.724,0.418,0.472,0.28
2977346,-461.0,5084.0,949.0,0.732,0.404,0.483,0.26
2977362,-755.0,5482.0,1059.0,0.74,0.389,0.493,0.24
2977379,-1373.0,5188.0,1231.0,0.748,0.375,0.502,0.221
2977405,-1771.0,4708.0,1181.0,0.754,0.362,0.509,0.203
2977421,-2005.0,3898.0,971.0,0.759,0.35,0.517,0.185
2977437,-2385.0,4806.0,1067.0,0.763,0.338,0.525,0.168
2977453,-2827.0,3066.0,1143.0,0.766,0.325,0.532,0.153
2977469,-3373.0,1838.0,1013.0,0.769,0.313,0.54,0.139
2977495,-3465.0,126.0,1127.0,0.77,0.303,0.547,0.127
2977511,-4743.0,374.0,1241.0,0.771,0.295,0.553,0.115
2977528,-5275.0,-74.0,1513.0,0.771,0.289,0.558,0.106
2977544,-5237.0,-748.0,1409.0,0.771,0.284,0.561,0.101
2977561,-5619.0,-1342.0,1567.0,0.771,0.281,0.563,0.099
2977578,-5635.0,-1830.0,1431.0,0.771,0.279,0.563,0.099
2977595,-5941.0,-2276.0,1451.0,0.771,0.28,0.563,0.102
2977612,-6203.0,-1608.0,1469.0,0.769,0.283,0.562,0.108
2977628,-6169.0,-1328.0,1331.0,0.767,0.289,0.56,0.118
2977654,-6079.0,-1066.0,1187.0,0.764,0.298,0.557,0.13
2977670,-6171.0,-406.0,1329.0,0.76,0.309,0.553,0.145
2977686,-5909.0,408.0,1393.0,0.756,0.322,0.546,0.162
2977702,-5491.0,1154.0,1359.0,0.752,0.336,0.538,0.18
2977718,-4817.0,1652.0,1257.0,0.746,0.353,0.527,0.2
2977734,-3937.0,2582.0,1253.0,0.741,0.37,0.515,0.221
2977760,-3063.0,2806.0,933.0,0.734,0.388,0.502,0.244
2977776,-2049.0,4312.0,1067.0,0.725,0.406,0.488,0.267
2977792,-1623.0,4966.0,1271.0,0.715,0.425,0.472,0.291
2977808,-319.0,7032.0,1455.0,0.704,0.444,0.455,0.316
2977824,35.0,5888.0,1467.0,0.692,0.463,0.437,0.341
2977840,1637.0,7104.0,635.0,0.68,0.479,0.419,0.365
2977866,3217.0,9204.0,537.0,0.666,0.495,0.402,0.388
2977882,3143.0,9592.0,1131.0,0.652,0.508,0.384,0.411
2977898,3231.0,9372.0,1599.0,0.639,0.52,0.365,0.434
2977914,4151.0,8832.0,993.0,0.625,0.531,0.347,0.455
2977930,4787.0,8868.0,1005.0,0.611,0.542,0.33,0.473
2977946,4949.0,9136.0,1201.0,0.597,0.552,0.313,0.491
2977972,5531.0,9834.0,1197.0,0.582,0.562,0.296,0.508
2977988,5105.0,8788.0,1617.0,0.567,0.571,0.278,0.524
2978004,5551.0,7616.0,969.0,0.552,0.581,0.261,0.538
2978021,6713.0,8506.0,663.0,0.536,0.59,0.246,0.551
2978038,6119.0,7650.0,1297.0,0.52,0.599,0.232,0.563
2978054,6327.0,7994.0,1201.0,0.504,0.607,0.218,0.574
2978071,6455.0,7836.0,977.0,0.487,0.615,0.205,0.585
2978088,6433.0,7146.0,885.0,0.469,0.623,0.192,0.596
2978105,6465.0,7120.0,753.0,0.451,0.63,0.181,0.606
2978131,6227.0,7382.0,975.0,0.432,0.637,0.169,0.615
2978147,6803.0,7738.0,643.0,0.414,0.643,0.158,0.624
2978163,6625.0,7802.0,875.0,0.397,0.649,0.148,0.632
2978179,6733.0,8070.0,1103.0,0.381,0.653,0.138,0.639
2978195,6925.0,8364.0,973.0,0.367,0.658,0.128,0.646
2978212,7291.0,8560.0,907.0,0.353,0.661,0.119,0.651
2978229,7279.0,8722.0,829.0,0.341,0.664,0.111,0.656
2978246,6939.0,8672.0,807.0,0.33,0.666,0.104,0.661
2978273,6719.0,8816.0,773.0,0.32,0.667,0.097,0.665
2978290,6325.0,8790.0,885.0,0.312,0.669,0.09,0.669
2978306,6535.0,8814.0,681.0,0.305,0.67,0.083,0.672
2978322,6427.0,8394.0,611.0,0.3,0.67,0.077,0.674
2978338,6485.0,8516.0,589.0,0.298,0.67,0.072,0.676
2978354,6263.0,8636.0,771.0,0.297,0.669,0.069,0.677
2978370,6047.0,8640.0,837.0,0.299,0.669,0.067,0.678
2978396,6071.0,8852.0,919.0,0.303,0.668,0.065,0.677
2978412,6291.0,8710.0,797.0,0.309,0.667,0.065,0.675
2978428,6465.0,8834.0,797.0,0.317,0.666,0.066,0.672
2978444,6615.0,8706.0,859.0,0.326,0.664,0.068,0.669
2978460,6665.0,8754.0,977.0,0.338,0.662,0.072,0.665
2978486,6619.0,8766.0,1137.0,0.35,0.659,0.078,0.661
2978502,6821.0,8716.0,1303.0,0.365,0.656,0.085,0.655
2978518,7081.0,8626.0,1335.0,0.38,0.653,0.093,0.649
2978534,7335.0,8766.0,1479.0,0.396,0.648,0.104,0.642
2978550,7371.0,8904.0,1591.0,0.413,0.644,0.116,0.634
2978566,7555.0,8966.0,1711.0,0.431,0.638,0.13,0.624
2978592,7537.0,8884.0,1627.0,0.45,0.632,0.145,0.614
2978608,7381.0,9184.0,1703.0,0.468,0.626,0.162,0.603
2978624,7365.0,9374.0,1761.0,0.486,0.619,0.18,0.59
2978640,7307.0,9240.0,1615.0,0.505,0.611,0.198,0.577
2978656,7081.0,9276.0,1563.0,0.524,0.602,0.217,0.562
2978673,6873.0,9216.0,1433.0,0.542,0.593,0.238,0.546
2978699,6243.0,8984.0,1485.0,0.56,0.583,0.258,0.529
2978715,5745.0,8894.0,1327.0,0.577,0.572,0.279,0.511
2978731,5241.0,9234.0,1435.0,0.595,0.561,0.299,0.493
2978747,4723.0,7968.0,1145.0,0.611,0.549,0.319,0.473
2978763,4201.0,8404.0,1157.0,0.627,0.536,0.338,0.453
2978779,3723.0,7754.0,1087.0,0.642,0.523,0.356,0.433
2978805,3013.0,7654.0,1163.0,0.657,0.51,0.373,0.412
2978822,2361.0,6678.0,947.0,0.671,0.495,0.389,0.391
2978838,2035.0,6688.0,1027.0,0.684,0.481,0.405,0.37
2978854,1511.0,6652.0,1005.0,0.696,0.467,0.42,0.349
2978871,1379.0,6954.0,1017.0,0.707,0.452,0.434,0.329
2978887,819.0,6040.0,797.0,0.718,0.436,0.447,0.31
2978903,703.0,6352.0,965.0,0.728,0.419,0.459,0.29
2978919,45.0,5212.0,743.0,0.737,0.402,0.471,0.271
2978945,-531.0,5288.0,1191.0,0.744,0.386,0.483,0.252
2978961,-1231.0,5484.0,1071.0,0.75,0.372,0.495,0.234
2978978,-1577.0,3930.0,1021.0,0.755,0.357,0.505,0.216
2978994,-2223.0,4184.0,1165.0,0.76,0.344,0.514,0.199
2979010,-2597.0,2944.0,1163.0,0.764,0.331,0.522,0.183
2979026,-2743.0,2560.0,991.0,0.768,0.32,0.529,0.168
2979043,-3315.0,1756.0,859.0,0.771,0.309,0.535,0.156
2979069,-3751.0,116.0,1403.0,0.773,0.299,0.54,0.146
2979085,-4837.0,-388.0,1523.0,0.775,0.292,0.544,0.138
2979101,-5319.0,-422.0,1627.0,0.776,0.286,0.546,0.132
2979117,-5387.0,-1378.0,1259.0,0.777,0.282,0.548,0.129
2979133,-6005.0,-1890.0,1467.0,0.777,0.281,0.549,0.129
2979149,-6419.0,-1594.0,1423.0,0.776,0.282,0.549,0.132
2979175,-6463.0,-1476.0,1219.0,0.774,0.285,0.548,0.138
2979191,-6677.0,-1566.0,1339.0,0.772,0.29,0.547,0.147
2979207,-6583.0,-1050.0,1281.0,0.769,0.297,0.543,0.158
2979224,-6425.0,-592.0,1403.0,0.766,0.306,0.538,0.172
2979240,-6157.0,-34.0,1565.0,0.763,0.318,0.53,0.188
2979256,-5525.0,480.0,1649.0,0.759,0.332,0.521,0.205
2979282,-4537.0,1172.0,1637.0,0.755,0.348,0.509,0.223
2979298,-3087.0,2664.0,1375.0,0.749,0.366,0.496,0.242
2979314,-1899.0,3594.0,1289.0,0.742,0.384,0.483,0.262
2979330,-833.0,5030.0,1169.0,0.734,0.402,0.469,0.283
2979346,-73.0,5464.0,1153.0,0.724,0.419,0.455,0.305
2979362,787.0,7236.0,999.0,0.713,0.436,0.441,0.327
2979388,1137.0,7532.0,1229.0,0.702,0.452,0.425,0.35
2979404,2035.0,8198.0,1131.0,0.69,0.468,0.41,0.372
2979420,2425.0,8724.0,1543.0,0.678,0.482,0.395,0.391
2979436,2847.0,9408.0,1409.0,0.666,0.495,0.379,0.411
2979452,3317.0,9072.0,1307.0,0.654,0.506,0.363,0.429
2979469,3375.0,9708.0,1515.0,0.642,0.517,0.348,0.447
2979495,3493.0,9144.0,1555.0,0.631,0.527,0.332,0.463
2979511,3473.0,9330.0,1705.0,0.619,0.537,0.316,0.479
2979527,3851.0,9324.0,1571.0,0.607,0.545,0.3,0.494
2979543,3857.0,9294.0,1881.0,0.595,0.553,0.285,0.509
2979559,3529.0,8500.0,1951.0,0.582,0.561,0.269,0.524
2979575,3851.0,8636.0,1937.0,0.57,0.569,0.253,0.537
2979601,3967.0,8266.0,1841.0,0.557,0.576,0.237,0.549
2979617,3961.0,7844.0,1923.0,0.544,0.583,0.221,0.562
2979633,4697.0,8366.0,1711.0,0.53,0.59,0.204,0.573
2979649,5021.0,7616.0,1697.0,0.516,0.598,0.188,0.584
2979665,5155.0,7884.0,1751.0,0.502,0.604,0.173,0.594
2979681,5345.0,7538.0,1847.0,0.489,0.61,0.157,0.604
2979707,5865.0,7296.0,1481.0,0.474,0.615,0.141,0.614
2979723,5735.0,7160.0,1729.0,0.46,0.62,0.127,0.623
2979739,6023.0,7370.0,1727.0,0.446,0.625,0.113,0.631
2979755,6719.0,7554.0,1637.0,0.431,0.629,0.1,0.639
2979771,6899.0,7030.0,1755.0,0.418,0.633,0.087,0.646
2979787,7341.0,7310.0,1753.0,0.404,0.636,0.076,0.653
2979813,7367.0,6934.0,1703.0,0.39,0.639,0.066,0.66
2979829,7907.0,7476.0,1497.0,0.377,0.641,0.057,0.665
2979845,7943.0,7432.0,1503.0,0.366,0.643,0.049,0.671
2979861,7715.0,7124.0,1641.0,0.356,0.645,0.042,0.675
2979877,7855.0,7250.0,1537.0,0.346,0.647,0.036,0.678
2979903,7685.0,7030.0,1533.0,0.338,0.649,0.032,0.681
2979919,7683.0,7276.0,1455.0,0.331,0.65,0.03,0.683
2979935,7661.0,7308.0,1421.0,0.326,0.651,0.029,0.685
2979952,7363.0,7998.0,1619.0,0.324,0.651,0.031,0.686
2979969,6809.0,8426.0,1821.0,0.323,0.652,0.033,0.685
2979985,6493.0,8474.0,1743.0,0.324,0.652,0.037,0.684
2980001,6359.0,8874.0,1801.0,0.328,0.652,0.042,0.682
2980017,6191.0,9000.0,1773.0,0.333,0.652,0.049,0.679
2980043,6437.0,9318.0,1519.0,0.341,0.652,0.056,0.676
2980059,6407.0,9746.0,1529.0,0.35,0.65,0.065,0.671
2980075,6507.0,9644.0,1583.0,0.361,0.648,0.076,0.666
2980091,6573.0,9726.0,1619.0,0.374,0.646,0.087,0.659
2980107,6631.0,9908.0,1591.0,0.389,0.643,0.1,0.652
2980123,6763.0,9688.0,1561.0,0.406,0.64,0.115,0.643
2980149,6803.0,9664.0,1547.0,0.423,0.635,0.13,0.633
2980165,6881.0,9648.0,1477.0,0.442,0.631,0.146,0.621
2980181,6877.0,9390.0,1371.0,0.461,0.625,0.163,0.609
2980197,6835.0,9142.0,1323.0,0.481,0.618,0.181,0.595
2980213,6799.0,9324.0,1427.0,0.501,0.611,0.199,0.58
2980229,6623.0,9150.0,1355.0,0.522,0.602,0.218,0.563
2980256,6321.0,8842.0,1279.0,0.543,0.593,0.237,0.546
2980273,5929.0,8686.0,1387.0,0.563,0.582,0.255,0.528
2980289,5543.0,8462.0,1367.0,0.583,0.571,0.274,0.509
2980305,5241.0,8400.0,1375.0,0.602,0.559,0.292,0.49
2980321,4875.0,7976.0,1339.0,0.62,0.546,0.31,0.47
2980337,4613.0,8288.0,1477.0,0.637,0.533,0.328,0.45
2980363,4063.0,8056.0,1441.0,0.654,0.518,0.345,0.43
2980379,3475.0,7566.0,1459.0,0.669,0.503,0.361,0.411
2980395,3107.0,7418.0,1395.0,0.683,0.489,0.376,0.391
2980411,2461.0,7214.0,1501.0,0.696,0.474,0.391,0.371
2980427,1961.0,7394.0,1575.0,0.709,0.458,0.405,0.352
2980443,1441.0,6128.0,1301.0,0.72,0.442,0.42,0.331
2980469,549.0,6528.0,1707.0,0.731,0.427,0.433,0.311
2980485,345.0,5960.0,1481.0,0.74,0.412,0.446,0.29
2980502,-439.0,6028.0,1697.0,0.748,0.397,0.459,0.27
2980518,-1101.0,5476.0,1593.0,0.755,0.382,0.47,0.25
2980535,-1441.0,4654.0,1301.0,0.762,0.367,0.48,0.231
2980551,-1719.0,4494.0,1163.0,0.768,0.354,0.49,0.213
2980567,-2483.0,4332.0,1311.0,0.772,0.341,0.499,0.195
2980583,-2827.0,3258.0,1279.0,0.776,0.329,0.507,0.178
2980610,-3103.0,3282.0,1167.0,0.78,0.318,0.514,0.162
2980627,-3311.0,2164.0,1005.0,0.783,0.308,0.52,0.148
2980644,-4017.0,1284.0,1269.0,0.785,0.298,0.526,0.135
2980660,-4261.0,1142.0,1293.0,0.787,0.29,0.53,0.123
2980676,-4441.0,122.0,1307.0,0.789,0.283,0.534,0.113
2980693,-4991.0,-476.0,1311.0,0.79,0.277,0.537,0.105
2980710,-5085.0,-2040.0,1771.0,0.79,0.273,0.54,0.1
2980727,-5925.0,-1072.0,1703.0,0.789,0.272,0.542,0.097
2980744,-6195.0,-1784.0,1897.0,0.788,0.272,0.543,0.098
2980761,-6323.0,-1372.0,1947.0,0.787,0.274,0.543,0.102
2980787,-6537.0,-1946.0,2005.0,0.785,0.278,0.543,0.109
2980803,-6767.0,-994.0,1823.0,0.782,0.284,0.542,0.119
2980820,-6723.0,-702.0,1833.0,0.778,0.292,0.54,0.132
2980836,-6257.0,396.0,2001.0,0.774,0.301,0.537,0.148
2980852,-6009.0,686.0,1583.0,0.769,0.314,0.533,0.165
2980869,-5281.0,1860.0,1611.0,0.763,0.327,0.526,0.185
2980886,-4499.0,2494.0,1723.0,0.757,0.342,0.518,0.205
2980903,-3501.0,3656.0,1609.0,0.75,0.358,0.508,0.226
2980919,-2609.0,4714.0,1643.0,0.742,0.375,0.498,0.247
2980945,-1583.0,4840.0,1395.0,0.734,0.392,0.486,0.268
2980961,-721.0,6332.0,1361.0,0.724,0.408,0.476,0.288
2980978,-451.0,5976.0,1457.0,0.713,0.424,0.465,0.309
2980994,383.0,7514.0,1255.0,0.701,0.44,0.454,0.331
2981010,1035.0,7460.0,1009.0,0.688,0.455,0.444,0.351
2981036,979.0,8766.0,1321.0,0.674,0.469,0.434,0.371
2981052,1279.0,8414.0,1031.0,0.659,0.483,0.424,0.39
2981068,963.0,8446.0,1193.0,0.645,0.495,0.414,0.409
2981084,1607.0,9380.0,849.0,0.63,0.508,0.404,0.426
2981100,1703.0,8754.0,799.0,0.615,0.52,0.393,0.443
2981116,1863.0,9592.0,937.0,0.601,0.531,0.382,0.459
2981142,2511.0,9440.0,677.0,0.587,0.542,0.371,0.474
2981158,2323.0,9096.0,809.0,0.573,0.55,0.359,0.489
2981174,2387.0,9256.0,645.0,0.56,0.559,0.347,0.503
2981190,2795.0,9548.0,677.0,0.547,0.567,0.335,0.516
2981206,2653.0,8556.0,879.0,0.535,0.575,0.321,0.529
2981222,3395.0,8920.0,655.0,0.523,0.582,0.307,0.542
2981248,3387.0,8618.0,885.0,0.512,0.589,0.292,0.554
2981264,3347.0,8506.0,1043.0,0.5,0.595,0.277,0.564
2981280,4049.0,8286.0,841.0,0.489,0.601,0.262,0.575
2981296,4251.0,7734.0,1011.0,0.478,0.606,0.246,0.586
2981312,4917.0,7816.0,855.0,0.467,0.611,0.231,0.596
2981328,5103.0,7744.0,1177.0,0.456,0.616,0.216,0.606
2981344,5625.0,7726.0,1163.0,0.444,0.62,0.201,0.615
2981370,5487.0,7094.0,1387.0,0.433,0.623,0.187,0.624
2981387,6093.0,7298.0,1249.0,0.422,0.627,0.173,0.632
2981404,6211.0,6686.0,1359.0,0.41,0.63,0.159,0.64
2981420,6733.0,7278.0,1333.0,0.398,0.633,0.146,0.648
2981436,6969.0,6718.0,1343.0,0.386,0.635,0.133,0.656
2981452,7241.0,6968.0,1367.0,0.375,0.637,0.121,0.662
2981469,7317.0,6260.0,1243.0,0.364,0.64,0.109,0.668
2981496,7469.0,6452.0,1253.0,0.353,0.642,0.099,0.674
2981512,7387.0,6344.0,1177.0,0.342,0.644,0.09,0.679
2981528,7147.0,6184.0,1123.0,0.332,0.646,0.08,0.683
2981544,7205.0,6130.0,1213.0,0.322,0.648,0.071,0.686
2981560,7207.0,6018.0,1111.0,0.312,0.65,0.063,0.69
2981576,7321.0,5766.0,985.0,0.302,0.652,0.055,0.693
2981602,7269.0,6146.0,857.0,0.294,0.654,0.049,0.696
2981619,6975.0,6252.0,1165.0,0.286,0.655,0.045,0.698
2981635,7365.0,6556.0,959.0,0.279,0.656,0.042,0.7
2981651,7463.0,7096.0,1063.0,0.274,0.657,0.04,0.701
2981667,7535.0,7030.0,1053.0,0.269,0.659,0.04,0.702
2981683,7355.0,7592.0,1177.0,0.267,0.659,0.042,0.702
2981699,7005.0,7930.0,1355.0,0.266,0.661,0.046,0.701
2981725,6693.0,8236.0,1527.0,0.267,0.662,0.052,0.699
2981741,6771.0,8494.0,1443.0,0.27,0.663,0.059,0.696
2981757,6855.0,8822.0,1201.0,0.275,0.664,0.067,0.692
2981773,6613.0,9066.0,1191.0,0.282,0.664,0.077,0.688
2981789,6569.0,9340.0,1189.0,0.291,0.664,0.088,0.683
2981806,6987.0,9198.0,901.0,0.301,0.664,0.101,0.677
2981822,7245.0,9386.0,801.0,0.313,0.663,0.114,0.67
2981848,7427.0,9162.0,871.0,0.327,0.661,0.129,0.662
2981865,7587.0,9234.0,819.0,0.343,0.659,0.145,0.653
2981881,7647.0,9346.0,793.0,0.36,0.656,0.162,0.643
2981897,7627.0,9254.0,861.0,0.379,0.652,0.18,0.632
2981913,7839.0,9420.0,819.0,0.399,0.647,0.199,0.619
2981929,8141.0,9022.0,599.0,0.42,0.64,0.219,0.605
2981955,7875.0,9352.0,705.0,0.441,0.632,0.239,0.591
2981971,7339.0,9112.0,631.0,0.461,0.623,0.26,0.575
2981987,6895.0,8922.0,637.0,0.482,0.614,0.281,0.558
2982004,6585.0,8982.0,721.0,0.503,0.603,0.302,0.541
2982021,6351.0,8922.0,475.0,0.523,0.591,0.322,0.522
2982038,5455.0,8420.0,617.0,0.544,0.579,0.342,0.502
2982054,4937.0,8278.0,435.0,0.563,0.565,0.361,0.482
2982071,4517.0,8370.0,371.0,0.582,0.552,0.38,0.461
2982098,3909.0,7636.0,313.0,0.6,0.537,0.397,0.44
2982114,3449.0,8034.0,403.0,0.617,0.522,0.413,0.42
2982130,2861.0,7542.0,429.0,0.633,0.506,0.429,0.4
2982146,2337.0,6958.0,213.0,0.648,0.488,0.444,0.38
2982162,1243.0,6590.0,633.0,0.662,0.47,0.459,0.361
2982178,1021.0,6142.0,401.0,0.675,0.452,0.473,0.343
2982194,315.0,5846.0,749.0,0.686,0.433,0.486,0.325
2982220,-365.0,5670.0,697.0,0.696,0.415,0.498,0.308
2982236,-1129.0,5224.0,869.0,0.706,0.397,0.509,0.292
2982253,-1199.0,5004.0,429.0,0.714,0.38,0.519,0.276
2982269,-1699.0,4326.0,629.0,0.721,0.363,0.529,0.261
2982285,-2049.0,4856.0,823.0,0.727,0.348,0.538,0.246
2982301,-2277.0,5150.0,839.0,0.732,0.333,0.546,0.233
2982318,-2647.0,3436.0,827.0,0.737,0.318,0.554,0.22
2982344,-3043.0,3914.0,565.0,0.741,0.304,0.561,0.207
2982360,-3557.0,3094.0,909.0,0.745,0.292,0.568,0.194
2982377,-3887.0,2876.0,667.0,0.748,0.281,0.573,0.182
2982393,-4219.0,1346.0,685.0,0.751,0.271,0.578,0.17
2982410,-5375.0,1410.0,795.0,0.753,0.263,0.582,0.157
2982426,-5637.0,146.0,1101.0,0.755,0.257,0.585,0.145
2982442,-6405.0,-782.0,1271.0,0.757,0.254,0.587,0.134
2982469,-6871.0,-764.0,1129.0,0.759,0.253,0.586,0.125
2982486,-7071.0,-1510.0,1271.0,0.761,0.256,0.585,0.119
2982503,-6785.0,-1240.0,1071.0,0.762,0.259,0.583,0.116
2982520,-6581.0,-1708.0,1169.0,0.762,0.265,0.58,0.116
2982536,-6607.0,-740.0,1351.0,0.761,0.273,0.576,0.118
2982553,-6369.0,-1172.0,1459.0,0.76,0.282,0.572,0.124
2982569,-6167.0,-992.0,1551.0,0.757,0.294,0.568,0.132
2982586,-5767.0,-726.0,1505.0,0.753,0.307,0.564,0.141
2982602,-5511.0,130.0,1305.0,0.748,0.323,0.56,0.151
2982628,-4699.0,1978.0,763.0,0.741,0.34,0.555,0.164
2982644,-4533.0,2046.0,985.0,0.734,0.357,0.549,0.179
2982660,-3743.0,3336.0,937.0,0.727,0.375,0.541,0.196
2982676,-3027.0,3882.0,829.0,0.719,0.393,0.532,0.214
2982692,-2561.0,4374.0,965.0,0.71,0.41,0.523,0.233
2982708,-1941.0,4746.0,835.0,0.7,0.428,0.513,0.253
2982734,-1241.0,6528.0,765.0,0.689,0.445,0.503,0.272
2982750,-447.0,7332.0,527.0,0.678,0.461,0.492,0.292
2982766,-175.0,6942.0,335.0,0.667,0.475,0.481,0.313
2982782,203.0,7238.0,215.0,0.655,0.488,0.471,0.332
2982798,799.0,9154.0,365.0,0.643,0.501,0.459,0.352
2982815,1261.0,8402.0,21.0,0.63,0.513,0.447,0.374
2982832,865.0,8290.0,395.0,0.617,0.524,0.434,0.395
2982859,1345.0,8220.0,355.0,0.603,0.536,0.421,0.415
2982875,1793.0,7666.0,177.0,0.589,0.547,0.408,0.434
2982891,2129.0,8680.0,439.0,0.573,0.557,0.394,0.453
2982907,3097.0,9596.0,91.0,0.558,0.567,0.379,0.472
2982923,2763.0,8546.0,177.0,0.542,0.577,0.363,0.491
2982939,3751.0,8104.0,-153.0,0.524,0.587,0.347,0.51
2982955,4335.0,8148.0,-33.0,0.506,0.597,0.332,0.527
2982981,4471.0,8408.0,331.0,0.488,0.605,0.315,0.544
2982997,5497.0,8698.0,205.0,0.47,0.614,0.298,0.561
2983013,6089.0,7204.0,-87.0,0.451,0.621,0.28,0.576
2983029,7403.0,7170.0,-483.0,0.432,0.628,0.265,0.59
2983045,7649.0,8652.0,201.0,0.414,0.634,0.251,0.604
2983071,7607.0,8236.0,291.0,0.396,0.638,0.237,0.616
2983088,7265.0,8020.0,487.0,0.379,0.643,0.223,0.627
2983105,6953.0,7602.0,559.0,0.363,0.647,0.209,0.637
2983122,7161.0,8022.0,445.0,0.348,0.652,0.196,0.645
2983138,7299.0,7164.0,343.0,0.333,0.656,0.183,0.652
2983155,6983.0,7360.0,413.0,0.319,0.66,0.171,0.658
2983171,6961.0,7260.0,295.0,0.305,0.663,0.159,0.665
2983187,6939.0,7088.0,407.0,0.292,0.666,0.148,0.671
2983203,6753.0,6974.0,375.0,0.279,0.668,0.136,0.677
2983229,6659.0,7120.0,631.0,0.267,0.669,0.124,0.683
2983245,6839.0,6544.0,593.0,0.255,0.67,0.112,0.688
2983261,7421.0,6288.0,371.0,0.244,0.67,0.101,0.694
2983277,7421.0,6384.0,509.0,0.234,0.67,0.091,0.699
2983293,7541.0,6456.0,609.0,0.225,0.669,0.08,0.704
2983309,7463.0,6188.0,853.0,0.217,0.668,0.07,0.708
2983335,7333.0,6034.0,1141.0,0.211,0.668,0.059,0.712
2983351,7545.0,5462.0,915.0,0.207,0.667,0.047,0.714
2983367,7623.0,4698.0,857.0,0.204,0.666,0.036,0.716
2983384,7599.0,4604.0,959.0,0.202,0.665,0.027,0.718
2983400,7455.0,4346.0,995.0,0.2,0.664,0.018,0.72
2983416,7723.0,4516.0,965.0,0.198,0.664,0.01,0.721
2983433,7747.0,4004.0,973.0,0.196,0.662,0.002,0.723
2983459,8019.0,4090.0,895.0,0.195,0.661,-0.005,0.724
2983476,8055.0,3412.0,867.0,0.195,0.66,-0.012,0.726
2983493,8179.0,3484.0,647.0,0.196,0.658,-0.016,0.727
2983509,8199.0,3268.0,961.0,0.196,0.656,-0.017,0.728
2983526,8017.0,4342.0,1199.0,0.197,0.654,-0.018,0.73
2983542,7583.0,3936.0,1339.0,0.199,0.653,-0.016,0.73
2983559,7751.0,5126.0,1465.0,0.202,0.652,-0.014,0.73
2983576,7927.0,4852.0,1269.0,0.206,0.652,-0.011,0.73
2983593,7971.0,5150.0,1103.0,0.21,0.652,-0.006,0.729
2983619,7841.0,5592.0,1097.0,0.215,0.652,0.0,0.727
2983636,7881.0,6084.0,1071.0,0.222,0.652,0.008,0.725
2983652,7747.0,6230.0,1055.0,0.23,0.652,0.016,0.722
2983668,7557.0,6462.0,1227.0,0.241,0.652,0.025,0.719
2983684,7623.0,6462.0,1217.0,0.252,0.652,0.036,0.714
2983700,8111.0,6722.0,1013.0,0.265,0.653,0.047,0.708
2983716,8287.0,6968.0,975.0,0.28,0.653,0.061,0.702
2983742,8153.0,7468.0,1009.0,0.295,0.652,0.076,0.694
2983758,7685.0,7448.0,1191.0,0.312,0.65,0.091,0.686
2983774,7623.0,7670.0,1387.0,0.33,0.649,0.107,0.677
2983791,7667.0,7136.0,1391.0,0.349,0.646,0.123,0.668
2983808,7751.0,7456.0,1271.0,0.367,0.643,0.139,0.658
2983824,7471.0,7362.0,1371.0,0.385,0.638,0.156,0.648
2983841,7673.0,7358.0,1105.0,0.403,0.633,0.174,0.637
2983867,7477.0,7470.0,1091.0,0.422,0.628,0.192,0.626
2983883,7197.0,7580.0,1227.0,0.44,0.621,0.21,0.614
2983900,6847.0,7832.0,1349.0,0.458,0.614,0.229,0.601
2983918,6287.0,7312.0,1333.0,0.476,0.606,0.247,0.587
2983934,6131.0,7714.0,1131.0,0.493,0.599,0.265,0.573
2983950,5841.0,7984.0,991.0,0.51,0.591,0.283,0.558
2983966,5563.0,8042.0,791.0,0.526,0.582,0.3,0.542
2983982,5573.0,8798.0,807.0,0.542,0.572,0.317,0.527
2984009,4737.0,8028.0,829.0,0.559,0.561,0.333,0.511
2984026,4111.0,8170.0,1081.0,0.575,0.55,0.349,0.495
2984042,3531.0,7756.0,1043.0,0.59,0.538,0.364,0.479
2984058,3315.0,7900.0,761.0,0.604,0.526,0.38,0.462
2984074,2363.0,7936.0,1083.0,0.618,0.514,0.394,0.446
2984090,1745.0,7348.0,995.0,0.632,0.5,0.409,0.429
2984106,1071.0,7354.0,1085.0,0.645,0.486,0.422,0.411
2984132,539.0,6800.0,1147.0,0.659,0.472,0.436,0.393
2984148,243.0,6662.0,1249.0,0.67,0.458,0.449,0.374
2984164,-113.0,7672.0,783.0,0.681,0.444,0.462,0.355
2984180,-539.0,7212.0,1027.0,0.691,0.429,0.474,0.337
2984196,-1333.0,7102.0,765.0,0.701,0.414,0.485,0.318
2984222,-1637.0,5952.0,913.0,0.71,0.4,0.496,0.3
2984238,-2047.0,6424.0,1075.0,0.719,0.385,0.506,0.282
2984254,-1495.0,5960.0,739.0,0.726,0.371,0.515,0.264
2984272,-2381.0,5696.0,1085.0,0.734,0.356,0.523,0.247
2984288,-2439.0,4776.0,769.0,0.741,0.341,0.531,0.23
2984304,-2735.0,4994.0,891.0,0.748,0.326,0.538,0.213
2984320,-3075.0,4154.0,861.0,0.754,0.312,0.545,0.196
2984337,-3135.0,4076.0,889.0,0.759,0.298,0.551,0.181
2984363,-3677.0,2928.0,1195.0,0.763,0.285,0.556,0.166
2984379,-3657.0,2088.0,987.0,0.767,0.272,0.561,0.153
2984395,-4351.0,1082.0,1269.0,0.769,0.261,0.566,0.141
2984411,-4945.0,-112.0,1569.0,0.771,0.251,0.57,0.131
2984427,-5239.0,-918.0,1497.0,0.773,0.243,0.573,0.123
2984443,-5573.0,-1380.0,1507.0,0.774,0.238,0.575,0.118
2984459,-5837.0,-1814.0,1565.0,0.774,0.235,0.576,0.116
2984486,-6221.0,-2062.0,1503.0,0.774,0.234,0.576,0.117
2984502,-6515.0,-1794.0,1439.0,0.774,0.236,0.575,0.123
2984518,-6573.0,-1978.0,1491.0,0.772,0.24,0.573,0.131
2984534,-6675.0,-1536.0,1551.0,0.77,0.247,0.57,0.143
2984550,-6599.0,-1148.0,1735.0,0.768,0.256,0.566,0.157
2984566,-6449.0,-818.0,1665.0,0.765,0.267,0.56,0.174
2984592,-6013.0,-396.0,1503.0,0.761,0.281,0.552,0.193
2984608,-5351.0,-114.0,1409.0,0.756,0.297,0.543,0.213
2984624,-4869.0,1014.0,1535.0,0.75,0.316,0.532,0.234
2984640,-3725.0,1594.0,1595.0,0.743,0.337,0.518,0.257
2984656,-2747.0,1784.0,1111.0,0.735,0.359,0.503,0.28
2984672,-1771.0,2964.0,1285.0,0.724,0.383,0.488,0.303
2984698,-1101.0,3096.0,1143.0,0.711,0.408,0.471,0.327
2984714,585.0,4260.0,735.0,0.695,0.436,0.452,0.351
2984730,2339.0,5960.0,-75.0,0.677,0.462,0.433,0.375
2984746,3119.0,5580.0,271.0,0.657,0.487,0.414,0.399
2984762,3729.0,6962.0,753.0,0.636,0.511,0.395,0.423
2984788,5537.0,8900.0,33.0,0.614,0.532,0.377,0.445
2984805,5133.0,7460.0,241.0,0.592,0.551,0.358,0.468
2984821,6843.0,8084.0,-537.0,0.567,0.568,0.34,0.49
2984837,8243.0,10160.0,-853.0,0.542,0.583,0.324,0.511
2984853,6719.0,9644.0,5.0,0.519,0.594,0.306,0.533
2984869,8373.0,9382.0,-915.0,0.497,0.604,0.289,0.552
2984885,7093.0,9176.0,395.0,0.475,0.613,0.273,0.569
2984911,7125.0,9204.0,455.0,0.455,0.621,0.255,0.584
2984927,8025.0,9540.0,75.0,0.435,0.629,0.237,0.599
2984943,8077.0,8770.0,183.0,0.416,0.636,0.219,0.612
2984959,8415.0,9658.0,437.0,0.4,0.642,0.202,0.623
2984975,7977.0,8744.0,627.0,0.385,0.647,0.184,0.632
2985001,7751.0,8346.0,681.0,0.372,0.651,0.168,0.64
2985017,7823.0,7932.0,811.0,0.359,0.655,0.153,0.647
2985034,7575.0,8002.0,835.0,0.346,0.658,0.14,0.654
2985050,7459.0,7752.0,737.0,0.334,0.661,0.128,0.659
2985066,7397.0,8154.0,673.0,0.323,0.663,0.116,0.665
2985082,6755.0,7300.0,951.0,0.312,0.665,0.106,0.67
2985099,6835.0,7418.0,995.0,0.303,0.667,0.096,0.674
2985115,6453.0,6854.0,1295.0,0.294,0.668,0.086,0.678
2985141,6389.0,6536.0,1309.0,0.285,0.67,0.078,0.681
2985157,6623.0,6884.0,1087.0,0.275,0.673,0.07,0.683
2985174,6481.0,6818.0,1029.0,0.266,0.675,0.064,0.686
2985191,6807.0,6992.0,937.0,0.257,0.676,0.057,0.688
2985207,7131.0,6760.0,661.0,0.249,0.677,0.05,0.691
2985223,7207.0,6646.0,635.0,0.242,0.678,0.044,0.693
2985240,7445.0,6890.0,741.0,0.236,0.678,0.039,0.696
2985257,7379.0,7140.0,765.0,0.231,0.677,0.035,0.698
2985274,7469.0,6728.0,851.0,0.228,0.677,0.031,0.699
2985291,7547.0,6844.0,1033.0,0.227,0.676,0.029,0.701
2985317,7607.0,6466.0,1137.0,0.226,0.675,0.028,0.701
2985333,7737.0,6752.0,1035.0,0.226,0.675,0.03,0.702
2985349,7683.0,7396.0,1223.0,0.227,0.674,0.034,0.702
2985365,7579.0,7930.0,1369.0,0.232,0.674,0.04,0.701
2985381,7669.0,7746.0,1199.0,0.239,0.673,0.048,0.698
2985407,7777.0,7786.0,965.0,0.247,0.672,0.057,0.696
2985424,8031.0,8282.0,599.0,0.256,0.671,0.069,0.692
2985440,8217.0,8746.0,547.0,0.268,0.669,0.082,0.688
2985456,8195.0,8846.0,719.0,0.282,0.667,0.096,0.683
2985473,8043.0,8580.0,883.0,0.299,0.664,0.111,0.676
2985489,8109.0,8284.0,653.0,0.316,0.661,0.128,0.669
2985505,8069.0,9342.0,763.0,0.334,0.657,0.147,0.659
2985531,8353.0,9260.0,547.0,0.354,0.653,0.166,0.649
2985547,8421.0,9430.0,357.0,0.375,0.648,0.186,0.637
2985563,8201.0,9724.0,507.0,0.396,0.641,0.206,0.624
2985579,7547.0,9374.0,665.0,0.419,0.634,0.227,0.609
2985595,7079.0,9212.0,617.0,0.441,0.626,0.248,0.594
2985611,6441.0,9322.0,613.0,0.463,0.617,0.268,0.577
2985637,6221.0,9240.0,403.0,0.484,0.607,0.288,0.56
2985653,5915.0,9020.0,457.0,0.506,0.596,0.307,0.542
2985669,5751.0,8778.0,295.0,0.528,0.584,0.326,0.524
2985686,4971.0,8402.0,539.0,0.549,0.57,0.345,0.506
2985702,4855.0,8330.0,485.0,0.569,0.555,0.362,0.486
2985718,4111.0,7664.0,499.0,0.589,0.54,0.379,0.467
2985744,3823.0,7844.0,615.0,0.607,0.524,0.395,0.448
2985760,3215.0,7656.0,685.0,0.626,0.507,0.409,0.429
2985776,3399.0,7480.0,123.0,0.643,0.488,0.423,0.412
2985792,3063.0,7562.0,-1.0,0.659,0.468,0.437,0.395
2985808,2057.0,6550.0,595.0,0.674,0.446,0.452,0.377
2985824,1599.0,7246.0,1037.0,0.688,0.425,0.466,0.359
2985841,1499.0,6790.0,541.0,0.7,0.405,0.48,0.34
2985867,-129.0,6192.0,1845.0,0.711,0.385,0.493,0.321
2985883,-465.0,5284.0,1281.0,0.722,0.365,0.504,0.303
2985899,-493.0,4910.0,1049.0,0.732,0.345,0.515,0.284
2985915,-1561.0,4182.0,1467.0,0.741,0.325,0.524,0.266
2985931,-2253.0,3720.0,1325.0,0.749,0.306,0.533,0.247
2985947,-2447.0,4042.0,1269.0,0.757,0.288,0.54,0.229
2985973,-2493.0,3072.0,945.0,0.764,0.268,0.546,0.213
2985989,-3113.0,2744.0,1135.0,0.77,0.25,0.552,0.198
2986005,-3077.0,2086.0,681.0,0.776,0.231,0.558,0.183
2986021,-3469.0,1844.0,889.0,0.78,0.212,0.563,0.17
2986037,-3735.0,1042.0,1001.0,0.784,0.194,0.568,0.158
2986054,-4083.0,842.0,769.0,0.786,0.178,0.573,0.147
2986071,-4655.0,-498.0,1141.0,0.788,0.164,0.578,0.137
2986088,-5393.0,-1440.0,1101.0,0.788,0.152,0.582,0.129
2986115,-6037.0,-2324.0,1223.0,0.788,0.145,0.585,0.123
2986131,-6379.0,-2672.0,1015.0,0.789,0.14,0.586,0.12
2986147,-6853.0,-3442.0,1015.0,0.789,0.137,0.587,0.119
2986163,-7119.0,-3450.0,973.0,0.789,0.137,0.587,0.121
2986179,-7779.0,-2898.0,1011.0,0.788,0.141,0.585,0.127
2986196,-7429.0,-2484.0,1317.0,0.788,0.146,0.583,0.135
2986212,-7259.0,-3126.0,1463.0,0.787,0.154,0.58,0.146
2986238,-7349.0,-2148.0,1723.0,0.785,0.166,0.576,0.159
2986255,-7095.0,-1462.0,1893.0,0.782,0.18,0.571,0.173
2986272,-6757.0,-760.0,1873.0,0.779,0.198,0.564,0.189
2986289,-6115.0,336.0,1915.0,0.774,0.218,0.557,0.206
2986306,-5077.0,1390.0,1805.0,0.769,0.24,0.548,0.225
2986323,-4037.0,1708.0,1729.0,0.762,0.263,0.539,0.244
2986340,-3113.0,2700.0,1915.0,0.753,0.289,0.53,0.263
2986357,-1907.0,5134.0,1411.0,0.743,0.313,0.52,0.284
2986373,-1603.0,5062.0,1715.0,0.732,0.336,0.509,0.305
2986389,-877.0,5138.0,1657.0,0.719,0.359,0.497,0.326
2986415,145.0,6462.0,1503.0,0.705,0.383,0.486,0.347
2986432,973.0,7326.0,959.0,0.689,0.407,0.473,0.367
2986448,1427.0,7404.0,957.0,0.674,0.428,0.46,0.389
2986464,1751.0,8024.0,1247.0,0.657,0.448,0.446,0.41
2986480,1871.0,6668.0,975.0,0.639,0.468,0.433,0.43
2986496,2375.0,8258.0,1041.0,0.619,0.489,0.419,0.449
2986522,3879.0,8858.0,-45.0,0.6,0.507,0.404,0.468
2986538,2225.0,6842.0,1037.0,0.581,0.523,0.389,0.487
2986555,3759.0,7982.0,567.0,0.559,0.541,0.374,0.505
2986571,4077.0,8404.0,689.0,0.537,0.558,0.358,0.522
2986587,4823.0,8608.0,297.0,0.514,0.573,0.342,0.539
2986604,5737.0,8392.0,187.0,0.492,0.586,0.324,0.556
2986620,6915.0,8554.0,-141.0,0.469,0.598,0.308,0.572
2986637,6977.0,8776.0,-77.0,0.446,0.609,0.293,0.587
2986654,7243.0,9892.0,-43.0,0.426,0.616,0.276,0.602
2986680,7063.0,8530.0,79.0,0.407,0.622,0.259,0.616
2986696,7061.0,8870.0,109.0,0.39,0.628,0.241,0.629
2986712,7671.0,7948.0,-197.0,0.372,0.634,0.225,0.64
2986728,7683.0,8200.0,311.0,0.356,0.639,0.21,0.649
2986744,7585.0,7970.0,515.0,0.34,0.643,0.195,0.658
2986770,7239.0,7642.0,497.0,0.326,0.647,0.18,0.665
2986786,6737.0,7316.0,741.0,0.313,0.65,0.166,0.672
2986802,6473.0,6924.0,775.0,0.299,0.654,0.152,0.678
2986818,6957.0,6942.0,937.0,0.284,0.657,0.137,0.684
2986834,8289.0,7138.0,267.0,0.269,0.66,0.124,0.69
2986850,8317.0,6630.0,727.0,0.256,0.662,0.112,0.696
2986867,8223.0,7242.0,889.0,0.244,0.663,0.101,0.7
2986893,7833.0,6792.0,1181.0,0.234,0.665,0.091,0.704
2986909,7501.0,6334.0,1469.0,0.225,0.667,0.081,0.706
2986925,7539.0,5938.0,1321.0,0.217,0.669,0.072,0.708
2986941,7693.0,5982.0,977.0,0.208,0.67,0.063,0.709
2986957,7817.0,5606.0,911.0,0.202,0.672,0.054,0.71
2986983,7997.0,5488.0,637.0,0.196,0.673,0.046,0.712
2986999,7617.0,5562.0,919.0,0.191,0.673,0.039,0.713
2987016,7439.0,5454.0,1165.0,0.188,0.673,0.031,0.714
