timeMs,ax,ay,az,q0,q1,q2,q3
939793,8471.0,3453.0,1610.0,0.562,-0.396,-0.544,-0.48
939809,8155.0,3297.0,1934.0,0.561,-0.407,-0.54,-0.478
939826,7999.0,3333.0,2058.0,0.558,-0.417,-0.535,-0.477
939842,7839.0,2949.0,1998.0,0.555,-0.428,-0.531,-0.476
939858,8143.0,2371.0,1760.0,0.553,-0.437,-0.527,-0.475
939885,8031.0,2747.0,1692.0,0.55,-0.443,-0.525,-0.475
939902,8071.0,2753.0,1596.0,0.547,-0.449,-0.522,-0.476
939919,8033.0,2919.0,1570.0,0.544,-0.452,-0.521,-0.478
939935,8157.0,2969.0,1512.0,0.54,-0.455,-0.519,-0.481
939951,8333.0,2755.0,1594.0,0.537,-0.456,-0.518,-0.485
939968,8481.0,2475.0,1682.0,0.532,-0.456,-0.518,-0.491
939984,8813.0,2089.0,1628.0,0.528,-0.453,-0.519,-0.496
940001,8751.0,1725.0,1486.0,0.525,-0.447,-0.521,-0.503
940017,8427.0,2905.0,1686.0,0.522,-0.438,-0.525,-0.51
940043,8189.0,2893.0,1756.0,0.519,-0.428,-0.528,-0.518
940060,8167.0,2919.0,1668.0,0.515,-0.416,-0.533,-0.527
940077,7927.0,3085.0,1792.0,0.509,-0.404,-0.538,-0.537
940094,7669.0,3501.0,1688.0,0.502,-0.391,-0.543,-0.548
940110,8017.0,3527.0,1522.0,0.495,-0.379,-0.549,-0.558
940126,8213.0,3299.0,1316.0,0.487,-0.366,-0.555,-0.567
940142,8275.0,3515.0,1346.0,0.479,-0.352,-0.561,-0.576
940159,8583.0,3867.0,1330.0,0.471,-0.337,-0.568,-0.585
940186,8945.0,3953.0,1018.0,0.462,-0.321,-0.576,-0.594
940202,8849.0,4373.0,930.0,0.452,-0.304,-0.583,-0.602
940219,8995.0,4923.0,806.0,0.442,-0.286,-0.592,-0.61
940235,8919.0,5171.0,510.0,0.431,-0.269,-0.599,-0.618
940252,8957.0,5573.0,308.0,0.42,-0.251,-0.607,-0.627
940268,8607.0,6223.0,392.0,0.406,-0.233,-0.614,-0.635
940285,8363.0,6365.0,464.0,0.392,-0.217,-0.62,-0.645
940311,8237.0,6175.0,374.0,0.376,-0.201,-0.625,-0.654
940327,7913.0,6349.0,504.0,0.36,-0.186,-0.629,-0.663
940344,7965.0,5919.0,18.0,0.343,-0.17,-0.634,-0.672
940360,7659.0,6499.0,18.0,0.326,-0.154,-0.638,-0.68
940377,7297.0,6931.0,190.0,0.309,-0.139,-0.642,-0.688
940394,7027.0,6751.0,-48.0,0.29,-0.124,-0.645,-0.696
940411,6823.0,6739.0,-248.0,0.271,-0.111,-0.646,-0.705
940430,6167.0,6505.0,-320.0,0.25,-0.099,-0.647,-0.714
940446,5851.0,7395.0,-422.0,0.229,-0.088,-0.645,-0.723
940463,5815.0,7223.0,-526.0,0.208,-0.079,-0.642,-0.734
940480,5165.0,7029.0,-904.0,0.187,-0.072,-0.636,-0.745
940497,4383.0,6933.0,-546.0,0.165,-0.066,-0.629,-0.757
940514,3357.0,7195.0,-484.0,0.141,-0.063,-0.62,-0.769
940531,3195.0,6655.0,-536.0,0.117,-0.063,-0.609,-0.782
940548,2853.0,6369.0,-330.0,0.092,-0.065,-0.596,-0.795
940575,2399.0,6059.0,-222.0,0.066,-0.069,-0.58,-0.809
940592,2497.0,5845.0,-202.0,0.041,-0.076,-0.563,-0.822
940609,2519.0,5539.0,-490.0,0.016,-0.085,-0.544,-0.835
940626,2475.0,4891.0,-470.0,0.009,0.094,0.524,0.847
940643,2527.0,4239.0,-90.0,0.032,0.105,0.501,0.859
940659,2561.0,3599.0,844.0,0.054,0.119,0.474,0.871
940676,2927.0,2615.0,2014.0,0.073,0.135,0.44,0.885
940692,3615.0,1539.0,1620.0,0.089,0.152,0.402,0.898
940718,3953.0,2191.0,2084.0,0.101,0.169,0.365,0.91
940734,4667.0,2595.0,3632.0,0.111,0.184,0.328,0.92
940750,5767.0,3059.0,7078.0,0.118,0.194,0.297,0.927
940766,6009.0,4487.0,10358.0,0.123,0.2,0.269,0.934
940782,4071.0,3547.0,9906.0,0.127,0.203,0.244,0.94
940799,2525.0,2659.0,8902.0,0.13,0.206,0.223,0.944
940815,2159.0,3191.0,7668.0,0.132,0.211,0.205,0.947
940835,2149.0,1209.0,6418.0,0.136,0.217,0.188,0.948
940852,2411.0,-199.0,4508.0,0.142,0.225,0.177,0.948
940869,3285.0,389.0,4804.0,0.148,0.233,0.173,0.945
940885,3931.0,2943.0,4278.0,0.155,0.24,0.172,0.943
940902,4247.0,2261.0,5306.0,0.162,0.246,0.168,0.941
940929,5107.0,-411.0,6008.0,0.166,0.25,0.16,0.94
940945,5193.0,-1061.0,6160.0,0.168,0.254,0.153,0.94
940961,5897.0,1431.0,4880.0,0.17,0.258,0.151,0.939
940977,5303.0,1435.0,5246.0,0.168,0.26,0.151,0.939
940993,6263.0,3851.0,6792.0,0.165,0.257,0.153,0.94
941009,5845.0,4169.0,8286.0,0.162,0.252,0.155,0.941
941026,4737.0,3865.0,8046.0,0.158,0.247,0.159,0.943
941052,3743.0,3935.0,6558.0,0.154,0.242,0.162,0.944
941069,3355.0,3525.0,6062.0,0.149,0.238,0.165,0.945
941085,3939.0,2475.0,6980.0,0.144,0.236,0.168,0.946
941101,4603.0,2623.0,7072.0,0.138,0.235,0.172,0.947
941117,4725.0,3811.0,6556.0,0.131,0.234,0.178,0.947
941133,4355.0,4459.0,5884.0,0.125,0.232,0.182,0.947
941159,3997.0,4057.0,5960.0,0.12,0.23,0.184,0.948
941176,3741.0,4013.0,5906.0,0.114,0.227,0.185,0.949
941193,3359.0,4477.0,6032.0,0.108,0.225,0.185,0.95
941212,3183.0,4465.0,5956.0,0.103,0.224,0.183,0.952
941228,2871.0,4241.0,5972.0,0.099,0.223,0.179,0.953
941244,2739.0,3663.0,6230.0,0.095,0.223,0.173,0.955
941260,2943.0,3133.0,6594.0,0.091,0.225,0.165,0.956
941276,3333.0,2553.0,7012.0,0.088,0.226,0.158,0.957
941292,3691.0,2279.0,7002.0,0.085,0.229,0.151,0.958
941309,3843.0,2701.0,6974.0,0.083,0.231,0.144,0.959
941335,3871.0,2337.0,7002.0,0.082,0.233,0.138,0.959
941351,3967.0,1967.0,7200.0,0.082,0.235,0.131,0.96
941367,4201.0,1695.0,7122.0,0.083,0.238,0.126,0.96
941383,4427.0,1531.0,7186.0,0.084,0.241,0.122,0.959
941399,4543.0,1673.0,7100.0,0.086,0.243,0.12,0.959
941415,4707.0,2027.0,6924.0,0.088,0.245,0.118,0.958
941441,4757.0,2021.0,6960.0,0.091,0.247,0.117,0.958
941458,4965.0,2041.0,7216.0,0.094,0.248,0.117,0.957
941475,5135.0,2295.0,7410.0,0.097,0.248,0.117,0.957
941492,4947.0,2293.0,7506.0,0.099,0.247,0.118,0.957
941509,4627.0,2077.0,7418.0,0.101,0.245,0.12,0.957
941525,4273.0,2033.0,7076.0,0.102,0.243,0.122,0.957
941541,4091.0,1843.0,6692.0,0.103,0.24,0.125,0.957
941558,3949.0,2391.0,6008.0,0.102,0.237,0.128,0.958
941575,3777.0,2913.0,5546.0,0.102,0.233,0.132,0.958
941592,3461.0,2959.0,5588.0,0.101,0.229,0.134,0.959
941619,3333.0,3015.0,5820.0,0.1,0.225,0.135,0.96
941635,3393.0,2815.0,5984.0,0.099,0.221,0.136,0.961
941651,3367.0,2535.0,6364.0,0.099,0.219,0.136,0.961
941667,3317.0,2419.0,6718.0,0.098,0.217,0.136,0.962
941684,3289.0,2343.0,6884.0,0.097,0.216,0.136,0.962
941700,3345.0,2159.0,6968.0,0.097,0.215,0.136,0.962
941717,3457.0,2123.0,7062.0,0.096,0.216,0.136,0.962
941734,3681.0,2121.0,7296.0,0.096,0.216,0.136,0.962
941761,3949.0,2265.0,7534.0,0.096,0.217,0.137,0.962
941777,4045.0,2225.0,7774.0,0.096,0.216,0.138,0.962
941793,4027.0,2383.0,7526.0,0.096,0.216,0.139,0.962
941810,3891.0,2395.0,7324.0,0.096,0.215,0.141,0.962
941827,3657.0,2579.0,6934.0,0.095,0.214,0.143,0.962
941843,3641.0,2675.0,6702.0,0.095,0.212,0.145,0.962
941860,3475.0,2575.0,6600.0,0.095,0.211,0.147,0.962
941876,3139.0,2553.0,6660.0,0.095,0.209,0.149,0.962
941893,2687.0,2511.0,6940.0,0.094,0.208,0.152,0.962
941920,2717.0,2579.0,6918.0,0.094,0.208,0.154,0.961
941936,2897.0,2389.0,6850.0,0.094,0.209,0.157,0.961
941953,2877.0,1949.0,7046.0,0.094,0.21,0.16,0.96
941969,3019.0,2081.0,7092.0,0.095,0.211,0.164,0.959
941986,3205.0,2149.0,7184.0,0.095,0.213,0.168,0.958
942003,3443.0,2449.0,7238.0,0.095,0.214,0.174,0.957
942019,3561.0,2789.0,7204.0,0.094,0.215,0.18,0.955
942035,3665.0,3239.0,6836.0,0.093,0.215,0.187,0.954
942061,3807.0,3607.0,6442.0,0.091,0.215,0.194,0.953
942078,3915.0,3831.0,6052.0,0.09,0.215,0.2,0.952
942094,3973.0,3959.0,5782.0,0.089,0.213,0.206,0.951
942110,3891.0,4057.0,5596.0,0.088,0.212,0.211,0.95
942126,3923.0,4119.0,5622.0,0.088,0.209,0.215,0.95
942143,3699.0,4331.0,5798.0,0.087,0.207,0.219,0.949
942159,3497.0,4261.0,6008.0,0.087,0.205,0.222,0.949
942186,3317.0,4241.0,6208.0,0.087,0.203,0.224,0.949
942202,3211.0,4125.0,6374.0,0.087,0.202,0.226,0.949
942219,3137.0,4065.0,6356.0,0.087,0.2,0.227,0.949
942236,2875.0,3991.0,6454.0,0.087,0.199,0.227,0.949
942252,2701.0,3789.0,6696.0,0.088,0.198,0.226,0.95
942268,2637.0,3587.0,6810.0,0.089,0.198,0.225,0.95
942284,2643.0,3337.0,7092.0,0.09,0.198,0.224,0.95
942300,2737.0,3337.0,7206.0,0.092,0.199,0.223,0.95
942326,2841.0,3383.0,7082.0,0.094,0.2,0.223,0.949
942342,3037.0,3431.0,6952.0,0.096,0.202,0.223,0.949
942358,3233.0,3473.0,6812.0,0.097,0.204,0.224,0.948
942375,3403.0,3517.0,6626.0,0.098,0.206,0.225,0.947
942391,3489.0,3589.0,6490.0,0.099,0.208,0.227,0.946
942408,3623.0,3729.0,6296.0,0.1,0.21,0.229,0.945
942424,3671.0,3915.0,6122.0,0.1,0.211,0.232,0.944
942451,3729.0,3881.0,5998.0,0.1,0.212,0.234,0.943
942467,3689.0,3969.0,6028.0,0.1,0.212,0.237,0.943
942483,3571.0,4193.0,5950.0,0.099,0.212,0.24,0.942
942499,3525.0,4291.0,6010.0,0.098,0.21,0.243,0.942
942515,3545.0,4369.0,5966.0,0.096,0.208,0.246,0.942
942531,3327.0,4475.0,6010.0,0.095,0.205,0.249,0.942
942557,3141.0,4627.0,6100.0,0.093,0.202,0.251,0.942
942574,3065.0,4689.0,6238.0,0.092,0.199,0.252,0.943
942591,2977.0,4639.0,6404.0,0.091,0.195,0.252,0.943
942608,2819.0,4589.0,6480.0,0.09,0.192,0.252,0.944
942625,2699.0,4683.0,6458.0,0.089,0.188,0.252,0.945
942642,2535.0,4725.0,6540.0,0.088,0.185,0.251,0.946
942659,2501.0,4615.0,6596.0,0.088,0.182,0.249,0.947
942676,2553.0,4453.0,6634.0,0.088,0.179,0.247,0.948
942693,2459.0,4263.0,6618.0,0.088,0.176,0.245,0.949
942709,2409.0,4199.0,6630.0,0.089,0.174,0.243,0.95
942725,2423.0,4181.0,6614.0,0.09,0.172,0.241,0.951
942752,2401.0,4125.0,6658.0,0.091,0.17,0.239,0.952
942768,2415.0,4065.0,6804.0,0.093,0.168,0.237,0.953
942784,2419.0,4043.0,6830.0,0.095,0.166,0.234,0.953
942800,2441.0,3961.0,6918.0,0.097,0.164,0.232,0.954
942816,2415.0,3991.0,6974.0,0.099,0.162,0.231,0.954
942832,2389.0,4151.0,6796.0,0.102,0.16,0.23,0.954
942858,2267.0,4001.0,6716.0,0.104,0.159,0.23,0.955
942874,2281.0,3935.0,6698.0,0.107,0.157,0.229,0.955
942890,2247.0,3917.0,6608.0,0.109,0.156,0.23,0.954
942906,2249.0,3801.0,6584.0,0.112,0.155,0.23,0.954
942922,2275.0,3819.0,6594.0,0.114,0.154,0.23,0.954
942938,2245.0,3707.0,6880.0,0.117,0.153,0.229,0.954
942964,2193.0,3633.0,7046.0,0.12,0.152,0.228,0.954
942980,2239.0,3703.0,6980.0,0.123,0.152,0.227,0.954
942996,2247.0,3683.0,7006.0,0.125,0.152,0.226,0.954
943012,2203.0,3577.0,6990.0,0.127,0.152,0.224,0.954
943028,2279.0,3701.0,6838.0,0.13,0.152,0.223,0.954
943044,2275.0,3749.0,6720.0,0.131,0.153,0.221,0.954
943070,2387.0,3769.0,6640.0,0.133,0.153,0.219,0.954
943087,2431.0,3755.0,6614.0,0.134,0.154,0.217,0.954
943104,2491.0,3765.0,6616.0,0.135,0.155,0.215,0.955
943121,2575.0,3697.0,6654.0,0.136,0.156,0.212,0.955
943138,2517.0,3725.0,6778.0,0.137,0.157,0.21,0.955
943155,2549.0,3509.0,6842.0,0.137,0.158,0.207,0.956
943171,2557.0,3461.0,6814.0,0.138,0.159,0.205,0.956
943187,2557.0,3351.0,6866.0,0.138,0.16,0.203,0.956
943203,2533.0,3113.0,6860.0,0.138,0.162,0.2,0.956
943230,2555.0,2913.0,6860.0,0.137,0.164,0.197,0.957
943246,2601.0,2671.0,6814.0,0.137,0.167,0.194,0.957
943262,2601.0,2479.0,6820.0,0.137,0.17,0.19,0.957
943278,2655.0,2369.0,6904.0,0.136,0.173,0.185,0.958
943295,2659.0,2423.0,7102.0,0.136,0.176,0.181,0.958
943311,2823.0,2297.0,7338.0,0.136,0.178,0.176,0.959
943327,2885.0,2359.0,7428.0,0.135,0.18,0.173,0.959
943353,2975.0,2343.0,7532.0,0.134,0.182,0.171,0.959
943369,3189.0,2721.0,7468.0,0.132,0.184,0.171,0.959
943385,3425.0,2835.0,7610.0,0.13,0.184,0.172,0.959
943401,3535.0,3439.0,7482.0,0.126,0.185,0.176,0.959
943417,3517.0,3639.0,7302.0,0.121,0.185,0.182,0.958
943433,3107.0,4163.0,7032.0,0.115,0.185,0.189,0.958
943459,2977.0,4085.0,6924.0,0.109,0.184,0.196,0.957
943475,3055.0,3425.0,7104.0,0.102,0.185,0.203,0.956
943492,3053.0,4139.0,6514.0,0.096,0.184,0.209,0.956
943508,2939.0,4291.0,6208.0,0.091,0.183,0.213,0.955
943525,2735.0,3645.0,6306.0,0.087,0.181,0.216,0.956
943541,2453.0,3443.0,6514.0,0.084,0.178,0.218,0.956
943558,2325.0,3829.0,6722.0,0.081,0.176,0.221,0.956
943584,2453.0,4225.0,7068.0,0.079,0.173,0.223,0.956
943600,2639.0,4625.0,7432.0,0.078,0.171,0.224,0.956
943616,2639.0,4715.0,7712.0,0.078,0.169,0.224,0.957
943632,2543.0,4555.0,7348.0,0.079,0.168,0.223,0.957
943648,2459.0,4281.0,6794.0,0.081,0.167,0.222,0.957
943664,2569.0,3917.0,6332.0,0.083,0.167,0.221,0.957
943690,2505.0,3663.0,6068.0,0.086,0.167,0.219,0.958
943706,2589.0,3313.0,6032.0,0.089,0.167,0.217,0.958
943722,2455.0,3091.0,6430.0,0.093,0.169,0.215,0.957
943738,2287.0,3085.0,6716.0,0.096,0.172,0.214,0.957
943754,2881.0,2677.0,7126.0,0.098,0.176,0.214,0.956
943771,2569.0,2983.0,6104.0,0.101,0.181,0.214,0.954
943787,2935.0,2601.0,6082.0,0.104,0.187,0.214,0.953
943813,3143.0,2477.0,6166.0,0.107,0.193,0.213,0.952
943829,3213.0,2531.0,6228.0,0.111,0.199,0.211,0.951
943845,3113.0,2385.0,6390.0,0.114,0.204,0.208,0.95
943861,2945.0,2475.0,6518.0,0.117,0.209,0.205,0.949
943877,2797.0,2777.0,6686.0,0.119,0.213,0.203,0.948
943893,2875.0,3035.0,6804.0,0.12,0.217,0.202,0.948
943919,3009.0,3563.0,6806.0,0.119,0.22,0.201,0.947
943935,3171.0,4417.0,6346.0,0.118,0.222,0.199,0.947
943951,2887.0,5201.0,6214.0,0.116,0.223,0.196,0.948
943967,2445.0,4929.0,6380.0,0.114,0.224,0.19,0.949
943983,2863.0,2957.0,7230.0,0.113,0.226,0.183,0.95
943999,3215.0,2139.0,7752.0,0.11,0.229,0.178,0.951
944025,3161.0,3279.0,7832.0,0.108,0.232,0.175,0.951
944041,3147.0,3585.0,7724.0,0.106,0.237,0.174,0.95
944057,3337.0,3525.0,7458.0,0.103,0.242,0.173,0.949
944073,3909.0,3257.0,6930.0,0.1,0.247,0.173,0.948
944090,4213.0,2919.0,6436.0,0.096,0.251,0.174,0.947
944116,4539.0,2889.0,6238.0,0.092,0.254,0.176,0.947
944132,4555.0,2855.0,6488.0,0.089,0.256,0.178,0.946
944148,4637.0,2941.0,6352.0,0.086,0.256,0.179,0.946
944164,4739.0,3195.0,6168.0,0.084,0.255,0.181,0.946
944180,4553.0,2851.0,6314.0,0.083,0.253,0.181,0.947
944196,4475.0,2429.0,6000.0,0.082,0.249,0.182,0.948
944212,4609.0,3457.0,4834.0,0.081,0.244,0.185,0.948
944238,3717.0,4877.0,5148.0,0.08,0.239,0.185,0.95
944254,3387.0,3605.0,6232.0,0.08,0.235,0.182,0.952
944270,3551.0,3487.0,5568.0,0.081,0.231,0.179,0.953
944286,3139.0,5085.0,5250.0,0.082,0.228,0.175,0.954
944302,2467.0,4359.0,6404.0,0.086,0.228,0.166,0.956
944318,2419.0,3103.0,7398.0,0.09,0.23,0.155,0.956
944344,2705.0,2075.0,8014.0,0.095,0.234,0.144,0.957
944360,3231.0,921.0,8232.0,0.1,0.241,0.134,0.956
944376,3437.0,1305.0,8058.0,0.103,0.249,0.127,0.955
944392,3721.0,1633.0,7600.0,0.105,0.257,0.122,0.953
944408,4011.0,2001.0,7016.0,0.107,0.263,0.118,0.951
944425,4155.0,1887.0,6796.0,0.108,0.269,0.115,0.95
944451,4061.0,1721.0,6766.0,0.109,0.274,0.111,0.949
944467,4195.0,1499.0,6608.0,0.11,0.278,0.109,0.948
944484,4573.0,1169.0,6370.0,0.111,0.281,0.107,0.947
944500,4851.0,1237.0,6262.0,0.111,0.283,0.106,0.947
944516,4873.0,1371.0,6202.0,0.112,0.284,0.107,0.946
944532,4951.0,1811.0,6186.0,0.111,0.284,0.109,0.946
944548,4953.0,2259.0,6118.0,0.111,0.284,0.111,0.946
944574,5059.0,2303.0,5794.0,0.11,0.283,0.113,0.946
944591,4955.0,2069.0,5982.0,0.11,0.282,0.114,0.946
944607,5053.0,2297.0,6034.0,0.11,0.281,0.115,0.946
944623,4959.0,2403.0,6250.0,0.11,0.28,0.115,0.947
944639,4969.0,2443.0,6252.0,0.11,0.279,0.115,0.947
944655,4663.0,2091.0,6320.0,0.11,0.279,0.115,0.947
944681,4585.0,2321.0,6188.0,0.11,0.279,0.113,0.947
944697,4133.0,2361.0,6350.0,0.11,0.279,0.11,0.947
944713,3889.0,1679.0,6728.0,0.11,0.28,0.107,0.948
944729,3879.0,1317.0,6976.0,0.11,0.282,0.103,0.948
944745,3953.0,1005.0,7110.0,0.109,0.285,0.1,0.947
944761,4217.0,787.0,7228.0,0.107,0.288,0.098,0.947
944787,4577.0,889.0,7062.0,0.104,0.291,0.099,0.946
944803,4665.0,1201.0,6868.0,0.101,0.295,0.101,0.945
944819,4899.0,1369.0,6696.0,0.097,0.297,0.105,0.944
944835,4983.0,1843.0,6434.0,0.094,0.3,0.109,0.943
944851,5115.0,1901.0,6280.0,0.09,0.301,0.114,0.942
944867,5229.0,2173.0,5618.0,0.087,0.302,0.119,0.942
944893,5093.0,2137.0,6088.0,0.083,0.302,0.124,0.941
944910,5161.0,2647.0,5894.0,0.08,0.302,0.129,0.941
944926,4983.0,2635.0,5938.0,0.076,0.301,0.134,0.941
944942,4901.0,2613.0,6014.0,0.072,0.301,0.138,0.941
944958,4735.0,2659.0,6190.0,0.069,0.3,0.142,0.941
944974,4699.0,2571.0,6284.0,0.065,0.3,0.146,0.94
945000,4597.0,2741.0,6372.0,0.062,0.3,0.149,0.94
945017,4667.0,2901.0,6296.0,0.059,0.3,0.153,0.94
945034,4549.0,2789.0,6328.0,0.056,0.301,0.156,0.939
945051,4609.0,2903.0,6274.0,0.054,0.301,0.16,0.939
945067,4675.0,2995.0,6170.0,0.052,0.302,0.163,0.938
945083,4629.0,3135.0,6084.0,0.05,0.302,0.166,0.937
945099,4625.0,3285.0,5982.0,0.049,0.303,0.169,0.937
945116,4611.0,3403.0,6006.0,0.048,0.303,0.171,0.936
945132,4611.0,3393.0,6050.0,0.048,0.303,0.173,0.936
945158,4609.0,3373.0,6008.0,0.048,0.302,0.175,0.936
945175,4583.0,3409.0,6060.0,0.048,0.302,0.177,0.936
945191,4505.0,3451.0,6098.0,0.048,0.301,0.178,0.936
945208,4461.0,3395.0,6108.0,0.048,0.3,0.18,0.936
945226,4409.0,3389.0,6078.0,0.049,0.299,0.18,0.936
945242,4421.0,3261.0,6032.0,0.049,0.298,0.181,0.936
945258,4463.0,3133.0,5968.0,0.05,0.298,0.18,0.936
945274,4423.0,3103.0,5892.0,0.05,0.297,0.18,0.936
945291,4409.0,3263.0,5872.0,0.051,0.296,0.178,0.937
945309,4483.0,3019.0,5928.0,0.052,0.296,0.176,0.938
945335,4515.0,2877.0,5996.0,0.053,0.295,0.173,0.938
945351,4501.0,2799.0,6194.0,0.054,0.294,0.17,0.939
945367,4543.0,2571.0,6278.0,0.055,0.294,0.167,0.94
945383,4501.0,2477.0,6342.0,0.056,0.294,0.165,0.94
945399,4483.0,2463.0,6438.0,0.056,0.293,0.163,0.94
945415,4513.0,2349.0,6484.0,0.056,0.293,0.162,0.941
945441,4581.0,2345.0,6496.0,0.057,0.294,0.161,0.941
945457,4615.0,2295.0,6448.0,0.057,0.294,0.161,0.941
945473,4643.0,2375.0,6378.0,0.057,0.294,0.161,0.94
945489,4727.0,2417.0,6326.0,0.056,0.295,0.162,0.94
945505,4701.0,2497.0,6218.0,0.056,0.295,0.162,0.94
945531,4715.0,2557.0,6098.0,0.056,0.296,0.163,0.94
945547,4721.0,2533.0,6064.0,0.055,0.296,0.164,0.939
945563,4771.0,2561.0,5976.0,0.055,0.296,0.165,0.939
945579,4693.0,2527.0,5996.0,0.054,0.296,0.166,0.939
945595,4651.0,2771.0,5964.0,0.054,0.295,0.167,0.939
945611,4559.0,2687.0,6082.0,0.054,0.295,0.167,0.939
945637,4527.0,2875.0,6166.0,0.054,0.294,0.167,0.939
945653,4569.0,2815.0,6180.0,0.054,0.294,0.168,0.939
945669,4533.0,2781.0,6268.0,0.054,0.294,0.168,0.94
945685,4469.0,2803.0,6236.0,0.055,0.293,0.168,0.94
945701,4469.0,2765.0,6376.0,0.055,0.293,0.168,0.94
945717,4471.0,2769.0,6338.0,0.056,0.293,0.168,0.94
945743,4487.0,2755.0,6302.0,0.056,0.293,0.168,0.94
945759,4481.0,2729.0,6260.0,0.057,0.293,0.168,0.94
945775,4447.0,2671.0,6236.0,0.057,0.292,0.169,0.94
945791,4481.0,2739.0,6198.0,0.057,0.292,0.169,0.94
945807,4483.0,2745.0,6146.0,0.058,0.291,0.17,0.94
945823,4473.0,2761.0,6152.0,0.058,0.29,0.17,0.94
945849,4427.0,2813.0,6208.0,0.058,0.289,0.171,0.94
945865,4475.0,2723.0,6244.0,0.058,0.289,0.171,0.94
945881,4401.0,2835.0,6228.0,0.058,0.288,0.172,0.94
945897,4421.0,2791.0,6274.0,0.058,0.287,0.172,0.941
945914,4455.0,2787.0,6316.0,0.058,0.286,0.172,0.941
945930,4471.0,2757.0,6244.0,0.058,0.286,0.173,0.941
945956,4513.0,2775.0,6284.0,0.058,0.285,0.173,0.941
945972,4469.0,2835.0,6238.0,0.057,0.285,0.174,0.941
945989,4471.0,2833.0,6250.0,0.057,0.284,0.175,0.941
946006,4377.0,2831.0,6246.0,0.057,0.283,0.175,0.941
946023,4409.0,2763.0,6202.0,0.057,0.283,0.176,0.941
946039,4415.0,2817.0,6238.0,0.057,0.282,0.177,0.941
946056,4295.0,2911.0,6262.0,0.057,0.281,0.177,0.941
946072,4291.0,2933.0,6296.0,0.057,0.28,0.178,0.942
946088,4193.0,2877.0,6316.0,0.057,0.28,0.178,0.942
946114,4173.0,2967.0,6300.0,0.057,0.279,0.179,0.942
946132,4181.0,2933.0,6306.0,0.056,0.279,0.179,0.942
946148,4103.0,3087.0,6388.0,0.056,0.278,0.18,0.942
946164,4115.0,3017.0,6336.0,0.056,0.278,0.18,0.942
946180,4145.0,3141.0,6480.0,0.056,0.278,0.18,0.942
946196,4189.0,3107.0,6344.0,0.056,0.279,0.18,0.942
946212,4205.0,2761.0,6184.0,0.055,0.279,0.18,0.942
946229,4349.0,3201.0,6262.0,0.055,0.279,0.181,0.941
946255,4481.0,3263.0,6120.0,0.054,0.279,0.181,0.941
946271,4555.0,3137.0,6090.0,0.054,0.279,0.181,0.942
946287,4369.0,3153.0,6146.0,0.055,0.278,0.181,0.942
946303,4397.0,3061.0,6148.0,0.056,0.278,0.18,0.942
946319,4333.0,2897.0,6176.0,0.057,0.277,0.179,0.942
946345,4145.0,2891.0,6238.0,0.059,0.275,0.179,0.943
946361,3995.0,2899.0,6398.0,0.06,0.274,0.178,0.943
946377,3935.0,2841.0,6512.0,0.062,0.273,0.177,0.944
946393,3973.0,2763.0,6646.0,0.063,0.271,0.176,0.944
946409,4021.0,2835.0,6638.0,0.064,0.271,0.176,0.944
946425,4147.0,2791.0,6512.0,0.065,0.27,0.175,0.945
946451,4267.0,2853.0,6408.0,0.066,0.269,0.175,0.945
946467,4331.0,2835.0,6464.0,0.067,0.268,0.175,0.945
946483,4389.0,2737.0,6430.0,0.068,0.267,0.174,0.945
946499,4389.0,2701.0,6368.0,0.069,0.266,0.174,0.946
946515,4365.0,2787.0,6268.0,0.069,0.265,0.174,0.946
946531,4361.0,2659.0,6310.0,0.07,0.263,0.174,0.946
946557,4263.0,2677.0,6376.0,0.07,0.262,0.174,0.947
946573,4067.0,2649.0,6486.0,0.071,0.26,0.174,0.947
946589,3931.0,2519.0,6556.0,0.071,0.258,0.174,0.948
946605,3833.0,2515.0,6676.0,0.071,0.257,0.174,0.948
946621,3767.0,2557.0,6766.0,0.071,0.256,0.175,0.948
946637,3777.0,2599.0,6750.0,0.071,0.255,0.177,0.948
946663,3747.0,2743.0,6684.0,0.07,0.254,0.179,0.948
946679,3761.0,2863.0,6606.0,0.07,0.253,0.181,0.948
946699,3791.0,3087.0,6544.0,0.069,0.253,0.184,0.947
946715,3881.0,3227.0,6508.0,0.068,0.253,0.186,0.947
946731,3887.0,3295.0,6398.0,0.068,0.252,0.188,0.947
946747,3917.0,3389.0,6368.0,0.067,0.252,0.19,0.947
946763,3877.0,3449.0,6342.0,0.067,0.251,0.192,0.946
946779,3847.0,3393.0,6336.0,0.066,0.251,0.194,0.946
946805,3801.0,3533.0,6276.0,0.066,0.25,0.195,0.946
946821,3669.0,3553.0,6334.0,0.066,0.249,0.196,0.946
946837,3551.0,3489.0,6384.0,0.066,0.248,0.196,0.946
946853,3467.0,3509.0,6550.0,0.067,0.247,0.196,0.947
946869,3407.0,3353.0,6606.0,0.067,0.246,0.196,0.947
946885,3401.0,3335.0,6660.0,0.068,0.246,0.196,0.947
946911,3475.0,3285.0,6686.0,0.068,0.246,0.196,0.947
946927,3547.0,3365.0,6614.0,0.068,0.246,0.195,0.947
946943,3673.0,3297.0,6562.0,0.069,0.246,0.195,0.947
946959,3737.0,3251.0,6520.0,0.069,0.246,0.194,0.947
946975,3835.0,3243.0,6436.0,0.069,0.246,0.194,0.947
946991,3931.0,3145.0,6432.0,0.069,0.246,0.193,0.947
947017,3969.0,3037.0,6404.0,0.07,0.246,0.193,0.947
947033,3979.0,3089.0,6404.0,0.07,0.246,0.192,0.948
947050,3939.0,3063.0,6478.0,0.071,0.245,0.192,0.948
947066,3849.0,3061.0,6492.0,0.071,0.244,0.191,0.948
947082,3739.0,3035.0,6512.0,0.072,0.244,0.191,0.948
947098,3667.0,2981.0,6606.0,0.072,0.243,0.19,0.948
947114,3503.0,2969.0,6676.0,0.072,0.242,0.19,0.949
947140,3479.0,2905.0,6744.0,0.072,0.242,0.19,0.949
947156,3403.0,2889.0,6726.0,0.072,0.242,0.19,0.949
947172,3451.0,2983.0,6724.0,0.072,0.243,0.191,0.948
947188,3539.0,3009.0,6698.0,0.072,0.244,0.191,0.948
947204,3657.0,3165.0,6628.0,0.071,0.245,0.192,0.948
947230,3815.0,3203.0,6572.0,0.071,0.246,0.193,0.947
947246,3955.0,3289.0,6512.0,0.071,0.247,0.194,0.947
947262,4009.0,3391.0,6476.0,0.071,0.248,0.194,0.946
947279,4137.0,3447.0,6402.0,0.07,0.249,0.195,0.946
947295,4129.0,3393.0,6300.0,0.07,0.249,0.196,0.946
947311,4037.0,3345.0,6312.0,0.07,0.25,0.196,0.946
947328,3899.0,3329.0,6372.0,0.07,0.25,0.197,0.946
947344,3759.0,3295.0,6364.0,0.07,0.25,0.197,0.946
947371,3693.0,3059.0,6462.0,0.07,0.249,0.197,0.946
947387,3645.0,3079.0,6476.0,0.07,0.249,0.196,0.946
947404,3597.0,3079.0,6484.0,0.07,0.249,0.197,0.946
947420,3469.0,3035.0,6504.0,0.07,0.248,0.197,0.946
947436,3473.0,3129.0,6548.0,0.07,0.248,0.197,0.946
947452,3405.0,3089.0,6614.0,0.07,0.248,0.197,0.946
947468,3509.0,3207.0,6610.0,0.07,0.249,0.198,0.946
947494,3531.0,3303.0,6570.0,0.069,0.249,0.198,0.945
947510,3575.0,3453.0,6546.0,0.069,0.251,0.199,0.945
947526,3755.0,3395.0,6460.0,0.068,0.252,0.2,0.944
947542,3837.0,3521.0,6448.0,0.068,0.253,0.2,0.944
947558,3797.0,3553.0,6398.0,0.067,0.254,0.201,0.944
947584,3941.0,3515.0,6340.0,0.066,0.256,0.201,0.943
947600,3975.0,3431.0,6294.0,0.066,0.257,0.201,0.943
947616,3981.0,3345.0,6382.0,0.066,0.257,0.201,0.943
947632,4019.0,3319.0,6346.0,0.065,0.258,0.201,0.943
947648,4041.0,3193.0,6362.0,0.065,0.258,0.2,0.943
947664,4097.0,3219.0,6206.0,0.064,0.257,0.201,0.943
947690,4101.0,3357.0,6018.0,0.062,0.256,0.201,0.944
947706,3989.0,3387.0,6138.0,0.061,0.255,0.201,0.944
947723,3907.0,3465.0,6262.0,0.06,0.253,0.2,0.945
947739,4019.0,3267.0,6266.0,0.058,0.251,0.199,0.945
947755,3833.0,3157.0,6482.0,0.057,0.25,0.198,0.946
947771,3699.0,3143.0,6644.0,0.056,0.249,0.197,0.947
947787,3701.0,3013.0,6726.0,0.055,0.248,0.196,0.947
947813,3663.0,2695.0,6820.0,0.054,0.247,0.195,0.948
947829,3701.0,2643.0,6810.0,0.052,0.246,0.195,0.948
947845,3741.0,2709.0,6788.0,0.051,0.245,0.196,0.948
947861,3807.0,2785.0,6674.0,0.049,0.244,0.197,0.948
947877,3917.0,2779.0,6576.0,0.047,0.243,0.198,0.948
947893,3897.0,2873.0,6546.0,0.044,0.241,0.2,0.949
947919,3937.0,2979.0,6528.0,0.041,0.239,0.203,0.949
947935,4011.0,3045.0,6510.0,0.038,0.236,0.206,0.949
947951,3921.0,2957.0,6728.0,0.034,0.233,0.209,0.949
947968,4073.0,3023.0,6472.0,0.03,0.229,0.213,0.949
947984,3967.0,3383.0,6264.0,0.024,0.224,0.217,0.95
948000,3655.0,3519.0,6286.0,0.018,0.22,0.222,0.95
948026,3441.0,3691.0,6286.0,0.012,0.215,0.226,0.95
948042,3255.0,3703.0,6358.0,0.006,0.211,0.229,0.95
948058,3183.0,3687.0,6338.0,0.001,0.208,0.232,0.95
948074,2999.0,3769.0,6502.0,0.004,-0.205,-0.235,-0.95
948092,2875.0,3831.0,6630.0,0.009,-0.203,-0.237,-0.95
948108,2775.0,3779.0,6742.0,0.012,-0.201,-0.238,-0.95
948124,2769.0,3561.0,6820.0,0.014,-0.201,-0.239,-0.95
948150,2787.0,3535.0,6774.0,0.015,-0.201,-0.24,-0.95
948167,2869.0,3489.0,6744.0,0.015,-0.202,-0.241,-0.949
948183,2971.0,3617.0,6632.0,0.015,-0.204,-0.241,-0.949
948200,3089.0,3595.0,6564.0,0.014,-0.206,-0.242,-0.948
948217,3167.0,3619.0,6494.0,0.012,-0.208,-0.242,-0.948
948233,3275.0,3585.0,6470.0,0.011,-0.21,-0.243,-0.947
948250,3387.0,3649.0,6432.0,0.009,-0.213,-0.243,-0.946
948267,3419.0,3689.0,6406.0,0.007,-0.215,-0.244,-0.946
948284,3475.0,3769.0,6404.0,0.006,-0.217,-0.244,-0.945
948301,3585.0,3805.0,6358.0,0.005,-0.218,-0.245,-0.945
948318,3615.0,3779.0,6286.0,0.004,-0.22,-0.245,-0.944
948345,3639.0,3825.0,6244.0,0.004,-0.221,-0.246,-0.944
948362,3687.0,3819.0,6200.0,0.004,-0.221,-0.246,-0.944
948379,3711.0,3839.0,6210.0,0.004,-0.222,-0.247,-0.943
948396,3673.0,3865.0,6204.0,0.005,-0.222,-0.247,-0.943
948413,3691.0,3769.0,6186.0,0.005,-0.221,-0.247,-0.943
948430,3701.0,3787.0,6266.0,0.006,-0.221,-0.246,-0.944
948447,3599.0,3751.0,6292.0,0.007,-0.22,-0.246,-0.944
948463,3573.0,3705.0,6362.0,0.008,-0.22,-0.245,-0.944
948480,3527.0,3679.0,6382.0,0.009,-0.219,-0.245,-0.944
948498,3503.0,3593.0,6408.0,0.009,-0.219,-0.244,-0.945
948514,3493.0,3575.0,6466.0,0.009,-0.218,-0.243,-0.945
948531,3481.0,3605.0,6492.0,0.009,-0.218,-0.243,-0.945
948548,3475.0,3517.0,6494.0,0.009,-0.218,-0.242,-0.945
948575,3519.0,3477.0,6512.0,0.009,-0.218,-0.242,-0.946
948592,3431.0,3465.0,6482.0,0.008,-0.218,-0.241,-0.946
948608,3449.0,3439.0,6468.0,0.007,-0.219,-0.241,-0.946
948624,3461.0,3465.0,6472.0,0.007,-0.219,-0.241,-0.946
948640,3495.0,3413.0,6448.0,0.006,-0.219,-0.241,-0.945
948657,3503.0,3485.0,6484.0,0.006,-0.219,-0.241,-0.945
948673,3525.0,3479.0,6470.0,0.006,-0.22,-0.242,-0.945
948690,3513.0,3529.0,6492.0,0.006,-0.22,-0.242,-0.945
948707,3521.0,3545.0,6378.0,0.006,-0.22,-0.243,-0.945
948733,3585.0,3551.0,6410.0,0.007,-0.221,-0.243,-0.945
948750,3625.0,3575.0,6446.0,0.007,-0.221,-0.244,-0.944
948767,3635.0,3625.0,6426.0,0.007,-0.221,-0.244,-0.944
948784,3613.0,3659.0,6318.0,0.008,-0.221,-0.245,-0.944
948800,3627.0,3699.0,6326.0,0.008,-0.221,-0.246,-0.944
948817,3623.0,3729.0,6336.0,0.008,-0.221,-0.246,-0.944
948834,3565.0,3773.0,6338.0,0.008,-0.221,-0.247,-0.944
948851,3527.0,3787.0,6296.0,0.008,-0.221,-0.247,-0.943
948872,3543.0,3817.0,6298.0,0.008,-0.221,-0.247,-0.943
948889,3479.0,3813.0,6372.0,0.007,-0.22,-0.248,-0.943
948906,3463.0,3817.0,6362.0,0.007,-0.22,-0.248,-0.943
948923,3459.0,3835.0,6348.0,0.007,-0.22,-0.248,-0.943
948940,3415.0,3777.0,6348.0,0.007,-0.22,-0.248,-0.944
948957,3349.0,3775.0,6406.0,0.007,-0.219,-0.248,-0.944
948973,3379.0,3775.0,6404.0,0.007,-0.219,-0.247,-0.944
948990,3379.0,3727.0,6366.0,0.007,-0.219,-0.247,-0.944
949017,3389.0,3697.0,6404.0,0.007,-0.219,-0.247,-0.944
949034,3483.0,3731.0,6416.0,0.007,-0.219,-0.246,-0.944
949051,3527.0,3679.0,6390.0,0.007,-0.219,-0.246,-0.944
949068,3509.0,3619.0,6380.0,0.007,-0.219,-0.245,-0.944
949085,3571.0,3655.0,6400.0,0.007,-0.22,-0.245,-0.944
949101,3543.0,3601.0,6426.0,0.006,-0.22,-0.244,-0.944
949118,3533.0,3535.0,6430.0,0.006,-0.22,-0.244,-0.945
949135,3555.0,3493.0,6432.0,0.006,-0.22,-0.243,-0.945
949153,3573.0,3521.0,6448.0,0.006,-0.22,-0.243,-0.945
949170,3545.0,3523.0,6464.0,0.006,-0.22,-0.243,-0.945
949187,3505.0,3535.0,6438.0,0.005,-0.221,-0.243,-0.945
949203,3521.0,3553.0,6456.0,0.005,-0.221,-0.243,-0.945
949230,3559.0,3573.0,6434.0,0.006,-0.221,-0.243,-0.944
949246,3553.0,3571.0,6462.0,0.006,-0.221,-0.244,-0.944
949263,3567.0,3651.0,6406.0,0.006,-0.221,-0.244,-0.944
949279,3581.0,3649.0,6356.0,0.006,-0.221,-0.244,-0.944
949295,3531.0,3631.0,6360.0,0.006,-0.221,-0.245,-0.944
949311,3523.0,3651.0,6308.0,0.006,-0.221,-0.245,-0.944
949328,3519.0,3715.0,6374.0,0.007,-0.221,-0.245,-0.944
949345,3523.0,3703.0,6322.0,0.007,-0.221,-0.246,-0.944
949362,3511.0,3757.0,6328.0,0.007,-0.221,-0.246,-0.944
949389,3523.0,3785.0,6382.0,0.007,-0.221,-0.246,-0.944
949406,3559.0,3743.0,6380.0,0.007,-0.221,-0.246,-0.944
949423,3485.0,3715.0,6332.0,0.007,-0.221,-0.246,-0.944
949440,3481.0,3695.0,6398.0,0.007,-0.221,-0.246,-0.944
949456,3465.0,3715.0,6394.0,0.007,-0.221,-0.245,-0.944
949473,3441.0,3643.0,6402.0,0.006,-0.221,-0.245,-0.944
949489,3467.0,3691.0,6402.0,0.006,-0.221,-0.245,-0.944
949506,3455.0,3653.0,6390.0,0.006,-0.221,-0.245,-0.944
949522,3515.0,3633.0,6412.0,0.006,-0.221,-0.244,-0.944
949539,3511.0,3567.0,6446.0,0.006,-0.222,-0.244,-0.944
949566,3493.0,3641.0,6428.0,0.006,-0.222,-0.244,-0.944
949582,3533.0,3597.0,6402.0,0.006,-0.222,-0.244,-0.944
949598,3553.0,3597.0,6410.0,0.005,-0.222,-0.243,-0.944
949614,3595.0,3535.0,6396.0,0.005,-0.222,-0.243,-0.944
949630,3591.0,3557.0,6412.0,0.005,-0.222,-0.243,-0.944
949646,3541.0,3551.0,6454.0,0.005,-0.222,-0.243,-0.944
949672,3565.0,3579.0,6424.0,0.005,-0.222,-0.243,-0.944
949689,3523.0,3555.0,6424.0,0.005,-0.222,-0.243,-0.944
949706,3535.0,3597.0,6404.0,0.005,-0.222,-0.243,-0.944
949723,3505.0,3523.0,6440.0,0.005,-0.222,-0.243,-0.944
949740,3537.0,3625.0,6402.0,0.005,-0.221,-0.244,-0.944
949756,3525.0,3635.0,6394.0,0.005,-0.221,-0.244,-0.944
949773,3463.0,3605.0,6392.0,0.005,-0.221,-0.244,-0.944
949789,3551.0,3683.0,6382.0,0.006,-0.221,-0.244,-0.944
949806,3537.0,3659.0,6396.0,0.006,-0.221,-0.244,-0.944
949823,3523.0,3709.0,6440.0,0.006,-0.221,-0.244,-0.944
949849,3511.0,3717.0,6450.0,0.005,-0.221,-0.244,-0.944
949865,3523.0,3669.0,6468.0,0.005,-0.221,-0.244,-0.944
949882,3527.0,3679.0,6436.0,0.005,-0.221,-0.244,-0.944
949899,3493.0,3673.0,6414.0,0.005,-0.221,-0.244,-0.944
949916,3469.0,3641.0,6400.0,0.005,-0.221,-0.244,-0.944
949933,3419.0,3655.0,6408.0,0.005,-0.221,-0.244,-0.944
949950,3471.0,3619.0,6412.0,0.005,-0.221,-0.245,-0.944
949967,3459.0,3649.0,6378.0,0.005,-0.221,-0.245,-0.944
949984,3487.0,3661.0,6372.0,0.005,-0.221,-0.245,-0.944
950001,3487.0,3723.0,6406.0,0.005,-0.221,-0.245,-0.944
950018,3523.0,3671.0,6452.0,0.005,-0.221,-0.244,-0.944
950035,3499.0,3667.0,6372.0,0.004,-0.221,-0.244,-0.944
950052,3491.0,3641.0,6382.0,0.004,-0.221,-0.244,-0.944
950079,3509.0,3667.0,6384.0,0.004,-0.221,-0.244,-0.944
950095,3461.0,3661.0,6428.0,0.004,-0.221,-0.244,-0.944
950111,3487.0,3563.0,6422.0,0.004,-0.221,-0.244,-0.944
950127,3515.0,3601.0,6446.0,0.004,-0.221,-0.244,-0.944
950143,3485.0,3611.0,6448.0,0.004,-0.221,-0.244,-0.944
950160,3507.0,3619.0,6466.0,0.004,-0.221,-0.244,-0.944
950177,3493.0,3611.0,6446.0,0.004,-0.221,-0.244,-0.944
950194,3527.0,3617.0,6400.0,0.004,-0.221,-0.244,-0.944
950220,3515.0,3655.0,6380.0,0.004,-0.221,-0.244,-0.944
950237,3529.0,3609.0,6424.0,0.004,-0.221,-0.244,-0.944
950254,3529.0,3651.0,6380.0,0.004,-0.221,-0.244,-0.944
950271,3533.0,3617.0,6380.0,0.004,-0.221,-0.244,-0.944
950287,3493.0,3693.0,6368.0,0.004,-0.221,-0.245,-0.944
950304,3539.0,3629.0,6422.0,0.004,-0.221,-0.245,-0.944
950321,3513.0,3683.0,6354.0,0.004,-0.221,-0.245,-0.944
950338,3425.0,3665.0,6374.0,0.004,-0.221,-0.245,-0.944
950355,3513.0,3697.0,6414.0,0.004,-0.221,-0.245,-0.944
950372,3477.0,3655.0,6404.0,0.004,-0.221,-0.245,-0.944
950389,3513.0,3667.0,6434.0,0.004,-0.221,-0.245,-0.944
950406,3495.0,3651.0,6364.0,0.004,-0.221,-0.244,-0.944
950432,3459.0,3659.0,6446.0,0.004,-0.221,-0.244,-0.944
950448,3503.0,3677.0,6416.0,0.004,-0.221,-0.244,-0.944
950464,3503.0,3633.0,6432.0,0.004,-0.221,-0.244,-0.944
950480,3559.0,3627.0,6432.0,0.004,-0.221,-0.244,-0.944
950496,3521.0,3619.0,6382.0,0.004,-0.221,-0.244,-0.944
950522,3509.0,3603.0,6438.0,0.004,-0.221,-0.244,-0.944
950538,3485.0,3687.0,6410.0,0.003,-0.221,-0.244,-0.944
950554,3485.0,3617.0,6386.0,0.003,-0.221,-0.244,-0.944
950570,3517.0,3575.0,6442.0,0.003,-0.221,-0.244,-0.944
950586,3499.0,3607.0,6422.0,0.003,-0.221,-0.244,-0.944
950602,3533.0,3607.0,6386.0,0.003,-0.221,-0.244,-0.944
950628,3493.0,3603.0,6414.0,0.003,-0.222,-0.244,-0.944
950644,3499.0,3605.0,6404.0,0.003,-0.222,-0.244,-0.944
950660,3517.0,3627.0,6452.0,0.003,-0.222,-0.244,-0.944
950676,3527.0,3615.0,6394.0,0.003,-0.222,-0.244,-0.944
950692,3531.0,3621.0,6400.0,0.003,-0.222,-0.244,-0.944
950708,3501.0,3665.0,6418.0,0.003,-0.222,-0.244,-0.944
950734,3461.0,3659.0,6452.0,0.003,-0.222,-0.244,-0.944
950750,3525.0,3661.0,6398.0,0.003,-0.222,-0.244,-0.944
950766,3461.0,3635.0,6402.0,0.003,-0.222,-0.244,-0.944
950782,3501.0,3665.0,6398.0,0.003,-0.221,-0.244,-0.944
950798,3515.0,3647.0,6426.0,0.003,-0.221,-0.244,-0.944
950814,3481.0,3621.0,6430.0,0.003,-0.221,-0.244,-0.944
950840,3497.0,3689.0,6352.0,0.003,-0.221,-0.244,-0.944
950856,3515.0,3643.0,6384.0,0.003,-0.221,-0.244,-0.944
950872,3505.0,3627.0,6432.0,0.003,-0.221,-0.244,-0.944
950889,3473.0,3645.0,6414.0,0.003,-0.221,-0.244,-0.944
950906,3451.0,3697.0,6438.0,0.002,-0.221,-0.244,-0.944
950922,3451.0,3651.0,6426.0,0.002,-0.221,-0.244,-0.944
950939,3451.0,3621.0,6484.0,0.002,-0.221,-0.244,-0.944
950955,3443.0,3661.0,6438.0,0.002,-0.221,-0.244,-0.944
950981,3443.0,3629.0,6404.0,0.002,-0.221,-0.244,-0.944
950997,3467.0,3635.0,6400.0,0.002,-0.221,-0.244,-0.944
951013,3463.0,3661.0,6394.0,0.002,-0.221,-0.244,-0.944
951030,3491.0,3617.0,6388.0,0.002,-0.221,-0.244,-0.944
951046,3511.0,3671.0,6382.0,0.002,-0.221,-0.244,-0.944
951062,3491.0,3617.0,6376.0,0.002,-0.221,-0.244,-0.944
951088,3539.0,3667.0,6428.0,0.002,-0.221,-0.244,-0.944
951104,3525.0,3671.0,6386.0,0.002,-0.221,-0.244,-0.944
951120,3509.0,3711.0,6398.0,0.002,-0.221,-0.244,-0.944
951136,3493.0,3665.0,6434.0,0.002,-0.221,-0.244,-0.944
951153,3433.0,3641.0,6452.0,0.002,-0.221,-0.244,-0.944
951169,3443.0,3633.0,6428.0,0.002,-0.221,-0.244,-0.944
951186,3453.0,3591.0,6414.0,0.002,-0.221,-0.244,-0.944
951203,3455.0,3645.0,6424.0,0.002,-0.221,-0.244,-0.944
951220,3517.0,3647.0,6486.0,0.002,-0.221,-0.244,-0.944
951247,3439.0,3583.0,6430.0,0.002,-0.221,-0.244,-0.944
951263,3453.0,3651.0,6438.0,0.002,-0.221,-0.244,-0.944
951279,3475.0,3655.0,6376.0,0.002,-0.222,-0.244,-0.944
951295,3481.0,3613.0,6442.0,0.002,-0.222,-0.244,-0.944
951311,3509.0,3687.0,6426.0,0.002,-0.222,-0.244,-0.944
951327,3507.0,3669.0,6392.0,0.002,-0.222,-0.244,-0.944
951344,3537.0,3663.0,6412.0,0.002,-0.222,-0.244,-0.944
951371,3547.0,3655.0,6394.0,0.002,-0.222,-0.244,-0.944
951387,3549.0,3645.0,6402.0,0.002,-0.222,-0.244,-0.944
951403,3493.0,3627.0,6412.0,0.002,-0.222,-0.244,-0.944
951419,3471.0,3629.0,6412.0,0.002,-0.222,-0.243,-0.944
951435,3441.0,3631.0,6450.0,0.002,-0.222,-0.243,-0.944
951452,3469.0,3563.0,6468.0,0.002,-0.222,-0.243,-0.944
951468,3503.0,3563.0,6442.0,0.001,-0.222,-0.243,-0.944
951494,3473.0,3569.0,6424.0,0.001,-0.222,-0.243,-0.944
951511,3477.0,3629.0,6452.0,0.001,-0.222,-0.243,-0.944
951527,3507.0,3603.0,6466.0,0.001,-0.222,-0.243,-0.944
951543,3457.0,3633.0,6408.0,0.001,-0.222,-0.243,-0.944
951559,3515.0,3633.0,6442.0,0.001,-0.222,-0.243,-0.944
951575,3485.0,3597.0,6448.0,0.001,-0.222,-0.244,-0.944
951601,3503.0,3737.0,6418.0,0.001,-0.222,-0.244,-0.944
951617,3463.0,3615.0,6392.0,0.001,-0.222,-0.244,-0.944
951634,3493.0,3683.0,6406.0,0.001,-0.222,-0.244,-0.944
951650,3505.0,3667.0,6396.0,0.001,-0.222,-0.244,-0.944
951666,3489.0,3683.0,6414.0,0.001,-0.222,-0.244,-0.944
951682,3479.0,3645.0,6420.0,0.001,-0.222,-0.244,-0.944
951698,3473.0,3649.0,6418.0,0.001,-0.222,-0.244,-0.944
951724,3497.0,3659.0,6430.0,0.001,-0.222,-0.243,-0.944
951740,3485.0,3645.0,6440.0,0.001,-0.222,-0.243,-0.944
951757,3465.0,3615.0,6414.0,0.001,-0.222,-0.243,-0.944
951773,3473.0,3635.0,6414.0,0.001,-0.222,-0.243,-0.944
951789,3467.0,3619.0,6480.0,0.001,-0.222,-0.243,-0.944
951805,3491.0,3671.0,6436.0,0.001,-0.222,-0.243,-0.944
951831,3475.0,3657.0,6386.0,0.001,-0.222,-0.244,-0.944
951847,3509.0,3623.0,6430.0,0.001,-0.222,-0.244,-0.944
951863,3507.0,3633.0,6398.0,0.001,-0.222,-0.244,-0.944
951879,3509.0,3653.0,6376.0,0.001,-0.222,-0.244,-0.944
951896,3463.0,3669.0,6404.0,0.001,-0.222,-0.244,-0.944
951912,3475.0,3633.0,6380.0,0.0,-0.222,-0.244,-0.944
951928,3535.0,3661.0,6380.0,0.0,-0.222,-0.243,-0.944
951954,3513.0,3667.0,6406.0,0.0,-0.222,-0.243,-0.944
951970,3517.0,3637.0,6454.0,0.0,-0.222,-0.243,-0.944
951986,3451.0,3625.0,6452.0,0.0,-0.222,-0.243,-0.944
952002,3497.0,3655.0,6440.0,0.0,-0.222,-0.243,-0.944
952124,3479.0,3605.0,6394.0,0.0,-0.222,-0.243,-0.944
952150,3445.0,3635.0,6406.0,0.0,-0.222,-0.243,-0.944
952167,3521.0,3685.0,6408.0,0.0,-0.222,-0.243,-0.944
952183,3529.0,3679.0,6354.0,0.0,-0.223,-0.243,-0.944
952199,3527.0,3637.0,6420.0,0.0,-0.223,-0.243,-0.944
952215,3495.0,3651.0,6386.0,0.0,-0.223,-0.243,-0.944
952231,3475.0,3681.0,6412.0,0.0,-0.223,-0.243,-0.944
952247,3473.0,3665.0,6406.0,0.0,-0.223,-0.243,-0.944
952273,3479.0,3629.0,6398.0,0.0,-0.223,-0.243,-0.944
952289,3469.0,3649.0,6492.0,0.0,-0.223,-0.243,-0.944
952305,3475.0,3613.0,6414.0,0.0,-0.223,-0.243,-0.944
952321,3487.0,3623.0,6402.0,0.0,-0.223,-0.243,-0.944
952337,3495.0,3643.0,6420.0,0.0,0.223,0.243,0.944
952353,3503.0,3615.0,6444.0,0.0,0.223,0.243,0.944
952379,3479.0,3653.0,6472.0,0.0,0.223,0.243,0.944
952395,3435.0,3661.0,6422.0,0.0,0.223,0.243,0.944
952411,3507.0,3665.0,6438.0,0.0,0.223,0.243,0.944
952427,3423.0,3653.0,6480.0,0.0,0.223,0.243,0.944
952443,3453.0,3627.0,6400.0,0.0,0.223,0.243,0.944
952459,3485.0,3541.0,6414.0,0.0,0.223,0.243,0.944
952485,3497.0,3605.0,6408.0,0.0,0.223,0.242,0.944
952501,3519.0,3601.0,6414.0,0.001,0.223,0.242,0.944
952517,3545.0,3615.0,6396.0,0.001,0.223,0.242,0.944
952533,3541.0,3627.0,6396.0,0.001,0.224,0.242,0.944
952549,3509.0,3637.0,6444.0,0.001,0.223,0.242,0.944
952575,3483.0,3591.0,6478.0,0.001,0.223,0.242,0.944
952591,3495.0,3593.0,6478.0,0.001,0.223,0.242,0.944
952607,3499.0,3641.0,6390.0,0.001,0.223,0.243,0.944
952623,3457.0,3629.0,6380.0,0.001,0.223,0.243,0.944
952639,3499.0,3675.0,6428.0,0.001,0.223,0.243,0.944
952655,3505.0,3683.0,6378.0,0.001,0.223,0.243,0.944
952681,3419.0,3693.0,6396.0,0.001,0.223,0.243,0.944
952697,3441.0,3659.0,6396.0,0.001,0.223,0.243,0.944
952713,3463.0,3625.0,6452.0,0.001,0.224,0.243,0.944
952729,3465.0,3617.0,6468.0,0.001,0.224,0.243,0.944
952745,3431.0,3613.0,6442.0,0.001,0.224,0.243,0.944
952761,3519.0,3623.0,6422.0,0.001,0.224,0.243,0.944
952787,3499.0,3669.0,6442.0,0.001,0.224,0.242,0.944
952803,3549.0,3613.0,6438.0,0.001,0.224,0.242,0.944
952819,3571.0,3621.0,6370.0,0.001,0.224,0.242,0.944
952835,3547.0,3611.0,6364.0,0.001,0.224,0.242,0.944
952851,3563.0,3633.0,6422.0,0.001,0.224,0.242,0.944
952867,3505.0,3593.0,6430.0,0.001,0.224,0.242,0.944
952893,3469.0,3639.0,6400.0,0.002,0.224,0.243,0.944
952909,3485.0,3633.0,6414.0,0.002,0.223,0.243,0.944
952925,3505.0,3643.0,6438.0,0.002,0.223,0.243,0.944
952941,3499.0,3669.0,6352.0,0.002,0.223,0.243,0.944
952957,3465.0,3635.0,6338.0,0.002,0.223,0.243,0.944
952973,3427.0,3693.0,6376.0,0.002,0.223,0.243,0.944
952990,3509.0,3675.0,6412.0,0.002,0.223,0.243,0.944
953016,3469.0,3605.0,6448.0,0.002,0.222,0.243,0.944
953032,3505.0,3653.0,6426.0,0.002,0.222,0.243,0.944
953048,3399.0,3677.0,6470.0,0.002,0.222,0.243,0.944
953064,3437.0,3627.0,6446.0,0.002,0.222,0.243,0.944
953080,3475.0,3635.0,6422.0,0.002,0.222,0.243,0.944
953106,3427.0,3653.0,6432.0,0.002,0.222,0.243,0.944
953122,3379.0,3655.0,6504.0,0.002,0.223,0.244,0.944
953138,3391.0,3655.0,6528.0,0.002,0.223,0.244,0.944
953154,3385.0,3637.0,6518.0,0.002,0.224,0.244,0.944
953170,3387.0,3651.0,6428.0,0.002,0.224,0.244,0.943
953186,3363.0,3615.0,6364.0,0.002,0.225,0.245,0.943
953212,3393.0,3631.0,6328.0,0.002,0.225,0.245,0.943
953228,3469.0,3655.0,6300.0,0.002,0.226,0.245,0.943
953244,3567.0,3671.0,6292.0,0.002,0.226,0.245,0.943
953261,3675.0,3759.0,6278.0,0.002,0.226,0.245,0.943
953278,3689.0,3803.0,6310.0,0.002,0.226,0.246,0.943
953295,3857.0,3773.0,6324.0,0.002,0.226,0.245,0.943
953311,3653.0,3993.0,6300.0,0.002,0.225,0.245,0.943
953327,3667.0,3893.0,6284.0,0.003,0.224,0.245,0.943
953353,3611.0,3789.0,6288.0,0.003,0.223,0.245,0.944
953369,3519.0,3793.0,6252.0,0.003,0.222,0.245,0.944
953385,3465.0,3665.0,6374.0,0.004,0.221,0.244,0.944
953401,3347.0,3623.0,6382.0,0.004,0.22,0.243,0.945
953418,3287.0,3481.0,6504.0,0.004,0.219,0.243,0.945
953434,3243.0,3463.0,6540.0,0.004,0.219,0.242,0.945
953450,3111.0,3371.0,6568.0,0.005,0.219,0.241,0.945
953476,3129.0,3341.0,6622.0,0.005,0.219,0.241,0.945
953492,3189.0,3363.0,6650.0,0.005,0.22,0.241,0.945
953508,3237.0,3461.0,6582.0,0.005,0.22,0.241,0.945
953524,3341.0,3577.0,6550.0,0.005,0.22,0.241,0.945
953540,3405.0,3589.0,6478.0,0.005,0.22,0.242,0.945
953566,3499.0,3659.0,6432.0,0.005,0.22,0.243,0.945
953582,3567.0,3757.0,6372.0,0.005,0.219,0.244,0.945
953598,3603.0,3789.0,6296.0,0.005,0.219,0.244,0.945
953614,3607.0,3877.0,6274.0,0.005,0.219,0.245,0.945
953630,3589.0,3909.0,6378.0,0.005,0.218,0.246,0.944
953646,3453.0,3807.0,6410.0,0.005,0.218,0.246,0.944
953672,3321.0,3787.0,6388.0,0.004,0.219,0.246,0.944
953688,3293.0,3697.0,6450.0,0.004,0.219,0.245,0.944
953705,3209.0,3619.0,6536.0,0.004,0.22,0.245,0.944
953721,3211.0,3607.0,6456.0,0.004,0.221,0.245,0.944
953737,3227.0,3491.0,6408.0,0.004,0.222,0.244,0.944
953753,3323.0,3505.0,6460.0,0.004,0.222,0.244,0.944
953769,3447.0,3697.0,6370.0,0.004,0.223,0.244,0.944
953795,3521.0,3791.0,6324.0,0.003,0.223,0.244,0.944
953811,3625.0,3799.0,6310.0,0.003,0.223,0.245,0.944
953827,3687.0,3861.0,6342.0,0.002,0.223,0.245,0.944
953844,3661.0,3861.0,6362.0,0.001,0.222,0.245,0.944
953860,3651.0,3891.0,6392.0,0.001,0.221,0.245,0.944
953876,3585.0,3901.0,6288.0,0.001,0.22,0.245,0.944
953902,3489.0,3807.0,6320.0,0.0,0.219,0.245,0.944
953918,3357.0,3783.0,6376.0,0.0,0.219,0.245,0.945
953934,3287.0,3707.0,6420.0,0.0,0.218,0.244,0.945
953950,3229.0,3577.0,6426.0,0.001,0.218,0.243,0.945
953966,3215.0,3571.0,6538.0,0.001,0.219,0.242,0.945
953982,3229.0,3455.0,6604.0,0.001,0.219,0.241,0.945
954008,3247.0,3395.0,6612.0,0.001,0.22,0.24,0.946
954024,3239.0,3343.0,6608.0,0.002,0.221,0.239,0.946
954040,3289.0,3293.0,6686.0,0.002,0.222,0.238,0.945
954056,3321.0,3325.0,6656.0,0.002,0.223,0.238,0.945
954073,3391.0,3379.0,6620.0,0.002,0.224,0.238,0.945
954090,3491.0,3425.0,6550.0,0.002,0.225,0.238,0.945
954106,3585.0,3441.0,6478.0,0.002,0.226,0.239,0.944
954123,3667.0,3559.0,6442.0,0.002,0.227,0.24,0.944
954149,3691.0,3679.0,6374.0,0.002,0.228,0.242,0.943
954165,3725.0,3725.0,6262.0,0.002,0.228,0.243,0.943
954181,3713.0,3789.0,6276.0,0.001,0.229,0.244,0.942
954197,3771.0,3781.0,6222.0,0.001,0.229,0.245,0.942
954213,3715.0,3823.0,6120.0,0.001,0.229,0.246,0.942
954229,3741.0,3861.0,6100.0,0.001,0.229,0.247,0.942
954255,3683.0,3851.0,6096.0,0.001,0.229,0.247,0.942
954271,3663.0,3889.0,6138.0,0.001,0.228,0.247,0.942
954287,3557.0,3805.0,6230.0,0.001,0.227,0.246,0.942
954303,3585.0,3817.0,6282.0,0.001,0.227,0.245,0.943
954320,3483.0,3777.0,6380.0,0.0,0.226,0.244,0.943
954336,3399.0,3689.0,6476.0,0.0,0.225,0.243,0.944
954362,3337.0,3679.0,6492.0,0.0,0.224,0.242,0.944
954378,3343.0,3577.0,6548.0,0.0,0.223,0.242,0.944
954394,3283.0,3591.0,6580.0,0.0,0.223,0.241,0.945
954468,3349.0,3537.0,6510.0,0.0,0.223,0.241,0.945
954484,3443.0,3547.0,6478.0,0.0,0.223,0.241,0.945
954500,3483.0,3555.0,6462.0,0.0,0.223,0.241,0.944
954516,3539.0,3555.0,6326.0,0.001,0.224,0.241,0.944
954532,3585.0,3569.0,6384.0,0.001,0.224,0.242,0.944
954548,3629.0,3567.0,6358.0,0.001,0.224,0.242,0.944
954574,3669.0,3659.0,6344.0,0.001,0.224,0.242,0.944
954590,3701.0,3581.0,6370.0,0.001,0.224,0.242,0.944
954606,3673.0,3639.0,6348.0,0.001,0.224,0.242,0.944
954622,3627.0,3661.0,6450.0,0.001,0.224,0.242,0.944
954638,3499.0,3633.0,6482.0,0.001,0.223,0.243,0.944
954654,3485.0,3631.0,6466.0,0.001,0.223,0.243,0.944
954681,3407.0,3599.0,6460.0,0.002,0.223,0.243,0.944
954697,3349.0,3611.0,6522.0,0.002,0.223,0.243,0.944
954713,3289.0,3639.0,6520.0,0.002,0.223,0.244,0.944
954730,3323.0,3649.0,6452.0,0.001,0.223,0.244,0.944
954746,3315.0,3587.0,6428.0,0.001,0.223,0.245,0.944
954762,3387.0,3691.0,6442.0,0.001,0.223,0.245,0.943
954778,3483.0,3875.0,6464.0,0.001,0.223,0.246,0.943
954804,3571.0,4003.0,6446.0,0.001,0.222,0.247,0.943
954820,3689.0,4151.0,6502.0,0.001,0.221,0.247,0.943
954836,3697.0,4195.0,6450.0,0.001,0.22,0.247,0.944
954853,3641.0,4205.0,6378.0,0.001,0.219,0.247,0.944
954870,3497.0,4129.0,6258.0,0.002,0.218,0.248,0.944
954886,3431.0,4087.0,6232.0,0.003,0.216,0.247,0.944
954903,3293.0,3979.0,6262.0,0.005,0.215,0.247,0.945
954919,3179.0,3945.0,6262.0,0.006,0.213,0.246,0.946
954946,3059.0,3797.0,6230.0,0.008,0.212,0.245,0.946
954962,2959.0,3593.0,6234.0,0.01,0.211,0.243,0.947
954978,2971.0,3489.0,6336.0,0.012,0.21,0.241,0.947
954994,2957.0,3385.0,6376.0,0.013,0.209,0.239,0.948
955010,3005.0,3321.0,6396.0,0.015,0.208,0.237,0.949
955026,3073.0,3237.0,6566.0,0.016,0.208,0.235,0.949
955052,3175.0,3271.0,6676.0,0.017,0.208,0.232,0.95
955069,3335.0,3145.0,6876.0,0.018,0.207,0.23,0.951
955086,3383.0,3115.0,6922.0,0.019,0.207,0.228,0.951
955102,3489.0,3109.0,6956.0,0.019,0.207,0.227,0.952
955118,3445.0,3085.0,6940.0,0.019,0.207,0.226,0.952
955134,3415.0,3031.0,6820.0,0.019,0.206,0.225,0.952
955151,3371.0,3041.0,6728.0,0.019,0.206,0.226,0.952
955177,3351.0,3049.0,6686.0,0.019,0.205,0.227,0.952
955193,3259.0,3075.0,6754.0,0.019,0.205,0.229,0.951
955209,3239.0,3199.0,6752.0,0.018,0.204,0.231,0.951
955225,3187.0,3357.0,6700.0,0.018,0.203,0.234,0.951
955242,3155.0,3505.0,6628.0,0.018,0.202,0.237,0.95
955258,3173.0,3689.0,6570.0,0.018,0.201,0.24,0.95
955274,3055.0,3761.0,6536.0,0.018,0.2,0.243,0.949
955300,3057.0,3835.0,6510.0,0.018,0.199,0.245,0.949
955316,3015.0,3885.0,6506.0,0.018,0.198,0.248,0.948
955332,3013.0,3947.0,6522.0,0.018,0.197,0.25,0.948
955348,2931.0,3939.0,6478.0,0.018,0.197,0.251,0.948
955364,2929.0,3971.0,6454.0,0.018,0.196,0.253,0.947
955380,2919.0,4083.0,6440.0,0.018,0.196,0.254,0.947
955406,2757.0,4237.0,6448.0,0.017,0.195,0.255,0.947
955422,2741.0,4151.0,6528.0,0.017,0.195,0.256,0.947
955439,2793.0,4225.0,6544.0,0.016,0.195,0.257,0.946
955455,2769.0,4215.0,6532.0,0.015,0.196,0.257,0.946
955471,2843.0,4111.0,6484.0,0.015,0.196,0.257,0.946
955487,2929.0,4063.0,6418.0,0.014,0.196,0.258,0.946
955503,2951.0,4045.0,6430.0,0.014,0.197,0.258,0.946
955530,3009.0,3973.0,6510.0,0.014,0.197,0.257,0.946
955546,3125.0,3957.0,6518.0,0.014,0.197,0.257,0.946
955562,3117.0,3931.0,6508.0,0.015,0.197,0.257,0.946
955578,3143.0,4001.0,6512.0,0.016,0.197,0.257,0.946
955594,3155.0,3993.0,6524.0,0.017,0.196,0.257,0.946
955610,3099.0,4053.0,6502.0,0.018,0.196,0.257,0.946
955636,3153.0,4017.0,6424.0,0.019,0.195,0.257,0.946
955652,3137.0,3995.0,6434.0,0.02,0.195,0.257,0.946
955668,3071.0,4009.0,6478.0,0.021,0.194,0.257,0.946
955684,3061.0,3959.0,6548.0,0.022,0.193,0.257,0.947
955701,3063.0,3931.0,6488.0,0.023,0.192,0.257,0.947
955717,2973.0,3839.0,6522.0,0.024,0.191,0.257,0.947
955734,2911.0,3699.0,6662.0,0.025,0.19,0.258,0.947
955751,3105.0,3583.0,6670.0,0.025,0.189,0.26,0.947
955777,3015.0,3515.0,6760.0,0.026,0.188,0.262,0.946
955794,2905.0,3737.0,6776.0,0.026,0.186,0.266,0.945
955810,2913.0,3563.0,7056.0,0.027,0.185,0.271,0.944
955826,2879.0,3467.0,7696.0,0.028,0.185,0.276,0.943
955842,3661.0,3041.0,7226.0,0.029,0.184,0.284,0.94
955858,3627.0,3961.0,7016.0,0.029,0.183,0.294,0.938
955884,3357.0,3585.0,7324.0,0.028,0.181,0.305,0.935
955900,3727.0,3559.0,6952.0,0.025,0.178,0.318,0.931
955916,3445.0,4391.0,7302.0,0.023,0.175,0.332,0.927
955932,3355.0,3837.0,6962.0,0.02,0.171,0.346,0.922
955948,3943.0,3405.0,6400.0,0.016,0.167,0.363,0.917
955964,4113.0,3657.0,5384.0,0.011,0.161,0.382,0.91
955990,3717.0,4471.0,5072.0,0.004,0.153,0.404,0.902
956006,3205.0,4557.0,4690.0,0.003,-0.145,-0.426,-0.893
956023,3175.0,4927.0,4352.0,0.012,-0.136,-0.449,-0.883
956040,3109.0,4473.0,4144.0,0.022,-0.126,-0.471,-0.873
956057,3057.0,4539.0,3550.0,0.033,-0.117,-0.493,-0.862
956074,2971.0,4749.0,3484.0,0.045,-0.107,-0.515,-0.849
956090,2511.0,4535.0,3180.0,0.059,-0.098,-0.536,-0.836
956107,3035.0,3243.0,3046.0,0.073,-0.089,-0.557,-0.823
956123,2861.0,625.0,1900.0,0.091,-0.081,-0.583,-0.803
956150,2797.0,4615.0,520.0,0.108,-0.07,-0.612,-0.78
956166,3077.0,6917.0,80.0,0.128,-0.062,-0.639,-0.756
956182,3101.0,6333.0,-418.0,0.15,-0.057,-0.661,-0.733
956198,3625.0,6063.0,-1334.0,0.173,-0.053,-0.68,-0.71
956215,4405.0,4593.0,-1464.0,0.196,-0.049,-0.698,-0.687
956232,3787.0,5985.0,-2818.0,0.218,-0.046,-0.715,-0.663
956249,4703.0,6687.0,-2808.0,0.239,-0.043,-0.73,-0.64
956266,4749.0,7485.0,-2766.0,0.259,-0.041,-0.74,-0.62
956283,4847.0,7409.0,-2738.0,0.278,-0.042,-0.747,-0.603
956309,5279.0,7087.0,-2938.0,0.297,-0.044,-0.751,-0.588
956325,5433.0,7463.0,-2658.0,0.316,-0.049,-0.751,-0.578
956341,5467.0,7791.0,-2420.0,0.334,-0.056,-0.748,-0.57
956357,5143.0,7933.0,-2594.0,0.352,-0.066,-0.741,-0.568
956373,4845.0,6171.0,-2810.0,0.369,-0.079,-0.732,-0.568
956389,4685.0,5679.0,-2236.0,0.384,-0.092,-0.722,-0.568
956415,5195.0,6065.0,-1878.0,0.399,-0.107,-0.712,-0.569
956432,5405.0,6091.0,-1576.0,0.413,-0.123,-0.701,-0.569
956449,5415.0,5691.0,-906.0,0.427,-0.14,-0.689,-0.569
956466,6165.0,5751.0,-1374.0,0.439,-0.157,-0.677,-0.569
956483,6297.0,4823.0,-1178.0,0.451,-0.175,-0.666,-0.568
956500,6751.0,5193.0,-1082.0,0.461,-0.191,-0.656,-0.566
956517,6949.0,3959.0,-858.0,0.471,-0.207,-0.646,-0.563
956533,7421.0,3639.0,-460.0,0.481,-0.221,-0.639,-0.558
956550,7403.0,5115.0,232.0,0.489,-0.233,-0.633,-0.553
956566,8299.0,6689.0,944.0,0.497,-0.248,-0.624,-0.549
956593,7929.0,5839.0,906.0,0.504,-0.265,-0.612,-0.548
956610,7379.0,3737.0,1554.0,0.511,-0.284,-0.599,-0.547
956626,7419.0,3599.0,1548.0,0.516,-0.304,-0.586,-0.545
956643,7715.0,2875.0,1658.0,0.522,-0.324,-0.575,-0.541
956659,8345.0,2769.0,1644.0,0.526,-0.343,-0.564,-0.536
956676,8827.0,2707.0,1316.0,0.531,-0.362,-0.553,-0.53
956693,9165.0,2273.0,1218.0,0.534,-0.379,-0.543,-0.525
956709,9471.0,2165.0,1002.0,0.537,-0.396,-0.534,-0.52
956726,9533.0,1841.0,1158.0,0.54,-0.41,-0.525,-0.515
956743,9531.0,1833.0,1336.0,0.541,-0.423,-0.517,-0.511
956770,9313.0,1641.0,1220.0,0.542,-0.434,-0.51,-0.508
956786,9003.0,1345.0,1574.0,0.542,-0.443,-0.504,-0.505
956803,8797.0,1259.0,1574.0,0.542,-0.451,-0.501,-0.502
956819,8765.0,1303.0,1554.0,0.54,-0.458,-0.498,-0.5
956835,8621.0,1299.0,1270.0,0.538,-0.463,-0.497,-0.499
956852,8507.0,1209.0,1296.0,0.537,-0.467,-0.496,-0.498
956868,8453.0,1203.0,1254.0,0.535,-0.47,-0.496,-0.497
956885,8287.0,1583.0,1260.0,0.533,-0.472,-0.497,-0.496
956902,8331.0,1369.0,1060.0,0.531,-0.473,-0.498,-0.496
956919,8153.0,1335.0,1070.0,0.529,-0.474,-0.5,-0.496
956946,8103.0,1261.0,1156.0,0.527,-0.474,-0.501,-0.497
956963,8259.0,1495.0,1122.0,0.525,-0.473,-0.504,-0.497
956980,8395.0,1295.0,1062.0,0.523,-0.472,-0.506,-0.498
956997,8473.0,1387.0,918.0,0.522,-0.47,-0.508,-0.499
957013,8363.0,1305.0,916.0,0.52,-0.468,-0.511,-0.5
957030,8395.0,1423.0,948.0,0.519,-0.465,-0.513,-0.501
957047,8371.0,1445.0,954.0,0.518,-0.462,-0.515,-0.503
957064,8395.0,1453.0,844.0,0.517,-0.459,-0.518,-0.505
957081,8489.0,1391.0,740.0,0.516,-0.455,-0.52,-0.507
957098,8427.0,1603.0,816.0,0.515,-0.452,-0.522,-0.508
957115,8235.0,1671.0,832.0,0.514,-0.448,-0.524,-0.51
957132,8365.0,1565.0,694.0,0.514,-0.445,-0.525,-0.512
957149,8445.0,1499.0,670.0,0.513,-0.441,-0.526,-0.514
957176,8439.0,1791.0,698.0,0.513,-0.438,-0.527,-0.516
957193,8371.0,1765.0,742.0,0.513,-0.435,-0.528,-0.519
957210,8227.0,1651.0,784.0,0.513,-0.432,-0.528,-0.521
957227,8151.0,1275.0,928.0,0.513,-0.43,-0.527,-0.523
957243,8089.0,1329.0,1092.0,0.513,-0.428,-0.527,-0.526
957259,8133.0,1179.0,1080.0,0.512,-0.426,-0.526,-0.528
957275,8249.0,625.0,1064.0,0.512,-0.425,-0.526,-0.53
957291,8301.0,1099.0,1140.0,0.511,-0.424,-0.527,-0.531
957318,8661.0,961.0,1022.0,0.51,-0.422,-0.527,-0.532
957335,8613.0,759.0,846.0,0.508,-0.421,-0.529,-0.533
957352,8297.0,737.0,748.0,0.506,-0.421,-0.53,-0.534
957369,8209.0,591.0,590.0,0.504,-0.42,-0.532,-0.535
957386,8489.0,291.0,406.0,0.502,-0.421,-0.534,-0.535
957403,8603.0,193.0,-202.0,0.501,-0.422,-0.536,-0.533
957419,9083.0,2033.0,-248.0,0.5,-0.424,-0.536,-0.532
957436,9317.0,3419.0,808.0,0.498,-0.43,-0.53,-0.535
957453,9277.0,1229.0,762.0,0.494,-0.442,-0.518,-0.54
957469,8257.0,-10345.0,1402.0,0.495,-0.45,-0.512,-0.538
957486,8553.0,729.0,-26.0,0.5,-0.45,-0.513,-0.533
957503,7717.0,1853.0,-1006.0,0.504,-0.452,-0.51,-0.531
957529,7747.0,-837.0,-1014.0,0.506,-0.455,-0.502,-0.534
957546,8123.0,-3737.0,-748.0,0.509,-0.455,-0.496,-0.537
957563,7591.0,-941.0,132.0,0.512,-0.453,-0.49,-0.541
957580,7673.0,273.0,1138.0,0.515,-0.45,-0.486,-0.544
957597,7379.0,-189.0,1948.0,0.517,-0.447,-0.482,-0.548
957614,8531.0,-1585.0,2198.0,0.52,-0.441,-0.482,-0.551
957631,7819.0,-1847.0,1246.0,0.524,-0.432,-0.485,-0.55
957648,7865.0,963.0,1058.0,0.529,-0.423,-0.489,-0.55
957665,8239.0,1707.0,1766.0,0.532,-0.416,-0.491,-0.55
957682,8059.0,1291.0,1526.0,0.535,-0.41,-0.492,-0.551
957699,7889.0,1099.0,1474.0,0.537,-0.405,-0.493,-0.552
957725,7995.0,1433.0,1326.0,0.537,-0.402,-0.494,-0.553
957742,7983.0,1499.0,1206.0,0.537,-0.399,-0.494,-0.555
957759,8165.0,1387.0,1084.0,0.535,-0.399,-0.494,-0.557
957775,8423.0,1385.0,1154.0,0.532,-0.399,-0.494,-0.56
957792,8353.0,985.0,930.0,0.529,-0.4,-0.492,-0.564
957808,8553.0,623.0,1024.0,0.527,-0.4,-0.491,-0.567
957825,8685.0,1215.0,830.0,0.525,-0.4,-0.489,-0.57
957842,8249.0,1337.0,1272.0,0.524,-0.401,-0.486,-0.573
957859,7521.0,1003.0,1654.0,0.523,-0.402,-0.484,-0.575
957876,7163.0,1567.0,1786.0,0.523,-0.404,-0.481,-0.576
957893,7373.0,1215.0,1970.0,0.523,-0.407,-0.479,-0.576
957910,7403.0,1065.0,1800.0,0.523,-0.411,-0.476,-0.575
957937,7823.0,1571.0,1738.0,0.523,-0.415,-0.474,-0.574
957953,7939.0,1779.0,1742.0,0.523,-0.419,-0.471,-0.573
957970,8019.0,1563.0,2112.0,0.523,-0.424,-0.468,-0.573
957986,7991.0,1387.0,2388.0,0.522,-0.428,-0.464,-0.573
958003,7869.0,1217.0,2564.0,0.521,-0.432,-0.462,-0.573
958019,7845.0,1467.0,2870.0,0.519,-0.436,-0.46,-0.573
958035,8253.0,1611.0,2278.0,0.518,-0.44,-0.459,-0.573
958052,8251.0,1571.0,1924.0,0.516,-0.442,-0.458,-0.573
958079,8429.0,709.0,1838.0,0.512,-0.445,-0.455,-0.576
958096,8329.0,1015.0,2260.0,0.51,-0.446,-0.453,-0.579
958113,8281.0,1349.0,2478.0,0.508,-0.445,-0.451,-0.583
958130,7693.0,1075.0,2796.0,0.506,-0.444,-0.449,-0.587
958146,7847.0,797.0,2702.0,0.504,-0.442,-0.447,-0.592
958164,7941.0,1047.0,2780.0,0.503,-0.438,-0.447,-0.596
958180,7979.0,889.0,2610.0,0.503,-0.433,-0.446,-0.601
958197,8009.0,991.0,2446.0,0.504,-0.426,-0.445,-0.605
958214,8103.0,1321.0,2448.0,0.506,-0.418,-0.445,-0.609
958231,8175.0,1405.0,2352.0,0.507,-0.41,-0.444,-0.614
958248,8439.0,1727.0,2122.0,0.509,-0.402,-0.444,-0.619
958265,8253.0,1529.0,2134.0,0.51,-0.394,-0.442,-0.624
958291,7887.0,1189.0,2140.0,0.51,-0.385,-0.441,-0.63
958308,7599.0,1487.0,2226.0,0.509,-0.378,-0.441,-0.636
958324,7025.0,1153.0,2298.0,0.507,-0.37,-0.44,-0.642
958340,6383.0,891.0,2280.0,0.505,-0.363,-0.44,-0.647
958356,5855.0,753.0,2184.0,0.503,-0.357,-0.441,-0.652
958372,5541.0,1073.0,2248.0,0.501,-0.35,-0.443,-0.655
958388,5357.0,1099.0,2126.0,0.499,-0.344,-0.446,-0.658
958414,5265.0,1143.0,1968.0,0.496,-0.339,-0.449,-0.661
958430,5293.0,1451.0,1878.0,0.494,-0.335,-0.453,-0.663
958446,5333.0,1577.0,1938.0,0.49,-0.331,-0.457,-0.664
958463,5397.0,1547.0,1930.0,0.486,-0.329,-0.46,-0.666
958480,5593.0,1439.0,1898.0,0.482,-0.327,-0.463,-0.668
958497,5565.0,1155.0,1930.0,0.478,-0.326,-0.467,-0.669
958513,5695.0,1169.0,1956.0,0.474,-0.326,-0.47,-0.669
958539,5783.0,1115.0,2020.0,0.47,-0.326,-0.474,-0.67
958555,6041.0,1197.0,2068.0,0.466,-0.326,-0.479,-0.669
958572,6437.0,1353.0,2124.0,0.462,-0.327,-0.483,-0.668
958588,6707.0,1531.0,2206.0,0.458,-0.329,-0.488,-0.666
958605,7071.0,1469.0,2164.0,0.455,-0.331,-0.493,-0.664
958622,7379.0,1399.0,2152.0,0.451,-0.333,-0.498,-0.661
958639,7633.0,1843.0,2318.0,0.448,-0.336,-0.503,-0.658
958655,7871.0,2109.0,2424.0,0.446,-0.338,-0.508,-0.655
958672,8033.0,1869.0,2280.0,0.443,-0.341,-0.512,-0.652
958689,8351.0,1699.0,2058.0,0.441,-0.344,-0.517,-0.648
958716,8329.0,1865.0,2154.0,0.439,-0.346,-0.522,-0.644
958732,8301.0,2169.0,2334.0,0.438,-0.347,-0.526,-0.641
958749,8087.0,2315.0,2398.0,0.437,-0.348,-0.531,-0.638
958766,7917.0,2205.0,2340.0,0.436,-0.349,-0.534,-0.635
958783,7743.0,1881.0,2090.0,0.436,-0.349,-0.538,-0.632
958799,7427.0,2339.0,2112.0,0.437,-0.349,-0.541,-0.628
958816,7183.0,2371.0,2132.0,0.439,-0.349,-0.543,-0.625
958832,6879.0,2365.0,2106.0,0.441,-0.35,-0.545,-0.621
958849,6745.0,2397.0,1880.0,0.443,-0.35,-0.547,-0.618
958875,6781.0,2441.0,1782.0,0.447,-0.351,-0.548,-0.614
958891,7227.0,2877.0,1714.0,0.45,-0.351,-0.548,-0.611
958907,7931.0,3117.0,1486.0,0.454,-0.353,-0.548,-0.607
958924,8191.0,2913.0,1374.0,0.457,-0.355,-0.548,-0.604
958941,8593.0,3053.0,1406.0,0.461,-0.358,-0.547,-0.6
958957,8873.0,2711.0,1176.0,0.464,-0.361,-0.546,-0.597
958974,8705.0,2697.0,1078.0,0.468,-0.364,-0.545,-0.593
958991,8467.0,2593.0,998.0,0.471,-0.366,-0.544,-0.59
959017,8291.0,2603.0,994.0,0.474,-0.369,-0.544,-0.586
959034,8251.0,2593.0,982.0,0.476,-0.371,-0.545,-0.582
959050,8233.0,2201.0,732.0,0.478,-0.373,-0.546,-0.579
959067,8251.0,2011.0,686.0,0.479,-0.375,-0.547,-0.575
959084,8389.0,1945.0,690.0,0.48,-0.376,-0.55,-0.57
959101,8703.0,2611.0,408.0,0.482,-0.377,-0.553,-0.565
959118,8717.0,2405.0,362.0,0.485,-0.378,-0.555,-0.561
959135,8631.0,2009.0,120.0,0.487,-0.378,-0.557,-0.556
959152,8361.0,2207.0,120.0,0.489,-0.378,-0.56,-0.552
959168,8111.0,2665.0,328.0,0.49,-0.377,-0.562,-0.55
959185,7895.0,2563.0,444.0,0.49,-0.376,-0.564,-0.548
959202,7727.0,2433.0,542.0,0.49,-0.376,-0.566,-0.547
959229,7713.0,2441.0,558.0,0.49,-0.375,-0.567,-0.546
959245,7799.0,2383.0,584.0,0.49,-0.375,-0.568,-0.545
959262,7925.0,2407.0,612.0,0.489,-0.375,-0.57,-0.544
959279,8047.0,2443.0,534.0,0.489,-0.375,-0.571,-0.543
959296,8065.0,2457.0,532.0,0.489,-0.376,-0.572,-0.541
959313,8191.0,2317.0,384.0,0.488,-0.377,-0.573,-0.54
959330,8351.0,2269.0,234.0,0.488,-0.378,-0.574,-0.538
959347,8419.0,2267.0,210.0,0.489,-0.378,-0.574,-0.537
959364,8307.0,2247.0,288.0,0.489,-0.379,-0.575,-0.535
959390,8177.0,2245.0,336.0,0.49,-0.38,-0.575,-0.534
959407,8085.0,2055.0,360.0,0.49,-0.38,-0.575,-0.533
959424,7991.0,2195.0,450.0,0.491,-0.381,-0.575,-0.532
959441,8037.0,2259.0,470.0,0.491,-0.383,-0.575,-0.53
959457,8175.0,2191.0,398.0,0.492,-0.385,-0.575,-0.529
959474,8179.0,2103.0,366.0,0.492,-0.387,-0.575,-0.527
959491,8237.0,1821.0,270.0,0.492,-0.389,-0.575,-0.526
959507,8285.0,1759.0,218.0,0.493,-0.391,-0.575,-0.524
959524,8347.0,1999.0,236.0,0.493,-0.392,-0.575,-0.522
959541,8319.0,2027.0,188.0,0.494,-0.394,-0.575,-0.52
959557,8187.0,1953.0,216.0,0.495,-0.395,-0.574,-0.518
959574,8031.0,1949.0,250.0,0.496,-0.397,-0.574,-0.517
959601,8027.0,2063.0,344.0,0.497,-0.398,-0.573,-0.516
959618,7995.0,1999.0,300.0,0.498,-0.399,-0.572,-0.515
959635,7967.0,1919.0,360.0,0.499,-0.401,-0.571,-0.514
959651,7857.0,1897.0,416.0,0.5,-0.402,-0.57,-0.514
959668,7855.0,1841.0,358.0,0.5,-0.403,-0.569,-0.513
959685,8013.0,2075.0,312.0,0.501,-0.404,-0.568,-0.513
959701,8115.0,2003.0,336.0,0.501,-0.404,-0.567,-0.514
959718,8153.0,1971.0,354.0,0.501,-0.405,-0.565,-0.515
959735,8113.0,1967.0,420.0,0.501,-0.406,-0.564,-0.516
959752,8197.0,1945.0,462.0,0.501,-0.406,-0.563,-0.517
959778,8309.0,1895.0,442.0,0.5,-0.406,-0.561,-0.519
959794,8299.0,1721.0,478.0,0.5,-0.406,-0.56,-0.522
959810,8391.0,1731.0,480.0,0.499,-0.405,-0.559,-0.524
959826,8289.0,1741.0,486.0,0.498,-0.404,-0.558,-0.527
959842,8245.0,1757.0,542.0,0.496,-0.402,-0.557,-0.53
959858,8209.0,1757.0,578.0,0.495,-0.401,-0.557,-0.533
959884,8199.0,1805.0,516.0,0.493,-0.399,-0.556,-0.537
959900,8091.0,1861.0,644.0,0.492,-0.398,-0.556,-0.54
959916,7957.0,1831.0,674.0,0.49,-0.396,-0.555,-0.543
959933,7913.0,1865.0,698.0,0.489,-0.395,-0.554,-0.546
959950,7941.0,1957.0,684.0,0.487,-0.394,-0.553,-0.548
959966,7917.0,1921.0,664.0,0.486,-0.394,-0.552,-0.551
959983,7901.0,1851.0,672.0,0.484,-0.393,-0.551,-0.554
959999,7927.0,1809.0,586.0,0.482,-0.393,-0.55,-0.557
960026,7845.0,1705.0,598.0,0.481,-0.393,-0.549,-0.56
960043,7933.0,1783.0,578.0,0.479,-0.392,-0.547,-0.563
960059,8029.0,1673.0,554.0,0.477,-0.391,-0.546,-0.566
960075,8197.0,1585.0,516.0,0.475,-0.391,-0.545,-0.57
960091,8203.0,1383.0,544.0,0.473,-0.39,-0.544,-0.573
960107,7987.0,1155.0,596.0,0.471,-0.388,-0.543,-0.576
960124,7765.0,1055.0,766.0,0.469,-0.387,-0.543,-0.579
960141,7825.0,1367.0,826.0,0.468,-0.386,-0.542,-0.581
960158,7687.0,1461.0,800.0,0.468,-0.385,-0.542,-0.583
960184,7519.0,1437.0,744.0,0.468,-0.385,-0.541,-0.583
960200,7451.0,1559.0,840.0,0.468,-0.386,-0.54,-0.584
960216,7543.0,1437.0,808.0,0.468,-0.387,-0.538,-0.584
960233,7681.0,1263.0,716.0,0.468,-0.388,-0.537,-0.584
960250,7693.0,1499.0,816.0,0.469,-0.389,-0.536,-0.584
960267,7775.0,1799.0,992.0,0.47,-0.391,-0.534,-0.583
960283,7843.0,1669.0,934.0,0.471,-0.394,-0.532,-0.582
960309,7657.0,1587.0,1078.0,0.472,-0.398,-0.53,-0.581
960325,7727.0,1451.0,1050.0,0.473,-0.402,-0.527,-0.579
960341,7811.0,1345.0,1028.0,0.474,-0.407,-0.525,-0.578
960357,7773.0,1251.0,1030.0,0.476,-0.412,-0.522,-0.576
960374,7851.0,1167.0,930.0,0.477,-0.416,-0.52,-0.574
960391,7887.0,1071.0,836.0,0.479,-0.42,-0.517,-0.572
960408,8025.0,1311.0,856.0,0.48,-0.424,-0.515,-0.57
960424,8017.0,1109.0,798.0,0.482,-0.427,-0.512,-0.568
960441,7833.0,1111.0,792.0,0.484,-0.431,-0.509,-0.566
960468,7993.0,1153.0,840.0,0.485,-0.434,-0.506,-0.566
960484,7995.0,1201.0,798.0,0.486,-0.437,-0.503,-0.565
960501,8157.0,1187.0,758.0,0.486,-0.441,-0.501,-0.565
960517,8347.0,667.0,556.0,0.487,-0.443,-0.5,-0.564
960534,8343.0,169.0,778.0,0.487,-0.442,-0.501,-0.562
960551,8679.0,1785.0,1038.0,0.488,-0.438,-0.505,-0.561
960568,8099.0,3417.0,1456.0,0.49,-0.433,-0.509,-0.56
960584,7963.0,3419.0,1842.0,0.489,-0.43,-0.513,-0.559
960610,7557.0,3679.0,2070.0,0.488,-0.426,-0.518,-0.559
960626,7663.0,4865.0,2166.0,0.485,-0.422,-0.524,-0.559
960642,7493.0,5075.0,2210.0,0.482,-0.419,-0.528,-0.56
960658,6757.0,5475.0,2734.0,0.478,-0.413,-0.534,-0.562
960674,7699.0,6643.0,2234.0,0.473,-0.406,-0.541,-0.565
960690,7767.0,6201.0,1964.0,0.468,-0.396,-0.547,-0.569
960707,7761.0,7275.0,2174.0,0.463,-0.383,-0.556,-0.575
960734,7889.0,8179.0,2724.0,0.455,-0.367,-0.564,-0.583
960751,8105.0,8651.0,2750.0,0.446,-0.35,-0.573,-0.592
960768,8667.0,8733.0,2470.0,0.434,-0.331,-0.581,-0.603
960784,9371.0,8579.0,2514.0,0.423,-0.309,-0.59,-0.615
960801,10067.0,9585.0,2580.0,0.408,-0.285,-0.598,-0.628
960818,10989.0,9727.0,2220.0,0.392,-0.258,-0.607,-0.642
960834,11067.0,10171.0,2678.0,0.373,-0.228,-0.615,-0.656
960851,11205.0,10551.0,2472.0,0.351,-0.198,-0.623,-0.671
960867,11259.0,10629.0,1934.0,0.327,-0.166,-0.63,-0.685
960894,10835.0,10989.0,2082.0,0.3,-0.133,-0.636,-0.699
960910,10559.0,10127.0,1330.0,0.272,-0.101,-0.64,-0.712
960926,10027.0,10231.0,1020.0,0.242,-0.067,-0.643,-0.723
960942,8935.0,9541.0,810.0,0.212,-0.034,-0.644,-0.734
960958,7465.0,8545.0,884.0,0.182,-0.001,-0.643,-0.744
960974,6729.0,7893.0,842.0,0.152,0.03,-0.641,-0.752
961000,5875.0,6915.0,688.0,0.122,0.06,-0.637,-0.758
961017,4883.0,6863.0,602.0,0.093,0.088,-0.633,-0.763
961034,4727.0,6291.0,284.0,0.065,0.114,-0.628,-0.767
961051,4365.0,5717.0,208.0,0.037,0.14,-0.621,-0.77
961067,3771.0,6097.0,230.0,0.011,0.164,-0.614,-0.772
961085,4117.0,6029.0,-80.0,0.015,-0.186,0.606,0.773
961101,3589.0,5103.0,260.0,0.039,-0.208,0.597,0.774
961117,3077.0,5833.0,266.0,0.063,-0.227,0.587,0.774
961134,2985.0,4933.0,456.0,0.085,-0.245,0.578,0.774
961150,2887.0,5279.0,-202.0,0.107,-0.262,0.568,0.773
961176,2311.0,6031.0,-406.0,0.128,-0.279,0.558,0.771
961193,1197.0,4197.0,16.0,0.147,-0.295,0.547,0.77
961209,-313.0,2837.0,64.0,0.165,-0.312,0.535,0.768
961225,-1635.0,1199.0,196.0,0.182,-0.327,0.524,0.765
961241,-3253.0,-165.0,244.0,0.197,-0.34,0.514,0.762
961257,-4557.0,-1985.0,606.0,0.209,-0.351,0.506,0.76
961273,-5945.0,-5197.0,1346.0,0.22,-0.359,0.498,0.758
961299,-6771.0,-5419.0,1848.0,0.23,-0.365,0.494,0.755
961316,-7609.0,-4619.0,2276.0,0.234,-0.364,0.494,0.754
961332,-6927.0,-4115.0,2502.0,0.235,-0.359,0.495,0.756
961348,-5765.0,-3169.0,2260.0,0.228,-0.351,0.499,0.759
961365,-4865.0,-2335.0,1942.0,0.217,-0.34,0.503,0.765
961382,-4331.0,-2133.0,1984.0,0.201,-0.328,0.509,0.77
961399,-3955.0,-1467.0,2130.0,0.182,-0.315,0.517,0.775
961425,-3463.0,3.0,2280.0,0.161,-0.301,0.526,0.779
961441,-2969.0,1923.0,2564.0,0.137,-0.284,0.537,0.783
961457,-1809.0,2029.0,2538.0,0.112,-0.264,0.548,0.786
961473,-455.0,2639.0,1894.0,0.087,-0.242,0.56,0.787
961490,1043.0,5857.0,1054.0,0.062,-0.219,0.573,0.787
961506,1793.0,7679.0,1204.0,0.035,-0.195,0.584,0.787
961522,2449.0,8465.0,1118.0,0.006,-0.168,0.592,0.788
961548,4681.0,8387.0,472.0,0.02,0.143,-0.6,-0.787
961565,4003.0,8915.0,612.0,0.046,0.119,-0.606,-0.785
961581,3917.0,8895.0,1544.0,0.071,0.096,-0.61,-0.784
961597,5009.0,8789.0,1342.0,0.095,0.073,-0.615,-0.78
961613,4083.0,8229.0,1900.0,0.121,0.048,-0.619,-0.774
961629,4821.0,7601.0,1358.0,0.146,0.024,-0.623,-0.768
961646,6153.0,8691.0,368.0,0.171,-0.0,-0.626,-0.761
961672,6179.0,8161.0,1086.0,0.197,-0.024,-0.626,-0.754
961689,6999.0,8213.0,1082.0,0.222,-0.049,-0.626,-0.746
961705,7139.0,7225.0,1786.0,0.247,-0.073,-0.625,-0.737
961721,7743.0,7219.0,1440.0,0.271,-0.096,-0.626,-0.725
961737,7751.0,7353.0,1508.0,0.293,-0.118,-0.624,-0.715
961753,8941.0,8117.0,1122.0,0.314,-0.139,-0.622,-0.704
961779,8971.0,7483.0,1362.0,0.334,-0.159,-0.619,-0.692
961795,9105.0,7785.0,1524.0,0.353,-0.178,-0.617,-0.68
961812,9139.0,7429.0,1692.0,0.371,-0.196,-0.614,-0.668
961828,8933.0,7479.0,1928.0,0.388,-0.213,-0.611,-0.656
961844,9223.0,7517.0,1778.0,0.405,-0.23,-0.608,-0.643
961861,9475.0,7697.0,1334.0,0.422,-0.247,-0.604,-0.63
961877,9217.0,7441.0,1192.0,0.438,-0.262,-0.6,-0.616
961903,9241.0,6873.0,1216.0,0.452,-0.278,-0.595,-0.604
961920,9413.0,7533.0,1170.0,0.466,-0.291,-0.59,-0.592
961937,9275.0,7283.0,1212.0,0.478,-0.304,-0.585,-0.58
961954,8881.0,6715.0,1054.0,0.489,-0.315,-0.581,-0.569
961971,8417.0,7451.0,1224.0,0.499,-0.325,-0.577,-0.559
961988,7831.0,7963.0,1502.0,0.506,-0.335,-0.574,-0.55
962005,7795.0,7797.0,1500.0,0.511,-0.344,-0.572,-0.543
962022,7291.0,7605.0,1780.0,0.513,-0.351,-0.57,-0.537
962039,6981.0,8283.0,1762.0,0.514,-0.357,-0.569,-0.534
962056,6573.0,8327.0,1832.0,0.513,-0.361,-0.568,-0.533
962073,6197.0,8365.0,1912.0,0.51,-0.364,-0.568,-0.534
962090,6539.0,8675.0,1906.0,0.506,-0.364,-0.569,-0.536
962107,6141.0,8513.0,2134.0,0.501,-0.362,-0.57,-0.541
962123,6169.0,8879.0,2268.0,0.493,-0.358,-0.573,-0.548
962140,7109.0,8553.0,1816.0,0.485,-0.351,-0.577,-0.556
962166,7695.0,8661.0,1818.0,0.475,-0.341,-0.582,-0.565
962183,8047.0,8797.0,2050.0,0.464,-0.327,-0.588,-0.577
962200,8579.0,8785.0,2180.0,0.449,-0.312,-0.594,-0.59
962216,9567.0,8453.0,1960.0,0.433,-0.294,-0.601,-0.604
962233,10395.0,8969.0,1920.0,0.414,-0.273,-0.609,-0.619
962249,11319.0,9585.0,1806.0,0.393,-0.251,-0.617,-0.635
962266,11973.0,9057.0,1354.0,0.37,-0.225,-0.623,-0.651
962283,12431.0,9525.0,1262.0,0.347,-0.198,-0.63,-0.666
962310,12279.0,9851.0,1424.0,0.321,-0.169,-0.635,-0.682
962327,12585.0,9517.0,854.0,0.293,-0.139,-0.638,-0.698
962343,11725.0,8769.0,1094.0,0.263,-0.108,-0.64,-0.713
962359,10975.0,9185.0,1032.0,0.233,-0.077,-0.641,-0.727
962375,10133.0,8623.0,834.0,0.202,-0.046,-0.641,-0.739
962391,8883.0,7955.0,866.0,0.169,-0.016,-0.638,-0.751
962407,8075.0,8277.0,592.0,0.138,0.012,-0.635,-0.76
962433,6939.0,6893.0,416.0,0.106,0.04,-0.63,-0.768
962450,5519.0,6927.0,528.0,0.075,0.065,-0.624,-0.775
962467,4873.0,6205.0,378.0,0.045,0.089,-0.618,-0.78
962483,3879.0,6571.0,742.0,0.016,0.112,-0.61,-0.784
962499,3483.0,5651.0,658.0,0.012,-0.133,0.602,0.787
962516,3499.0,3535.0,454.0,0.04,-0.154,0.594,0.789
962532,2715.0,4595.0,978.0,0.067,-0.174,0.588,0.787
962549,2275.0,6463.0,774.0,0.093,-0.193,0.58,0.786
962566,2005.0,2837.0,668.0,0.116,-0.211,0.57,0.785
962592,1573.0,3637.0,354.0,0.14,-0.228,0.563,0.782
962608,-215.0,3303.0,848.0,0.161,-0.244,0.555,0.779
962625,-705.0,1925.0,694.0,0.181,-0.26,0.546,0.775
962641,-1763.0,1159.0,764.0,0.198,-0.274,0.539,0.772
962657,-2967.0,1101.0,984.0,0.213,-0.286,0.532,0.768
962673,-3675.0,-415.0,1272.0,0.224,-0.296,0.526,0.765
962689,-4201.0,-2253.0,1806.0,0.231,-0.304,0.522,0.763
962716,-5263.0,-4519.0,2456.0,0.235,-0.31,0.52,0.761
962733,-6249.0,-5191.0,3052.0,0.237,-0.312,0.52,0.759
962750,-6549.0,-3833.0,2596.0,0.235,-0.31,0.523,0.758
962767,-5941.0,-3891.0,2862.0,0.228,-0.303,0.529,0.759
962783,-4923.0,-2679.0,2256.0,0.216,-0.292,0.536,0.762
962800,-4195.0,-1247.0,2004.0,0.199,-0.277,0.544,0.767
962816,-3561.0,-199.0,1934.0,0.177,-0.261,0.553,0.771
962833,-2469.0,1109.0,1906.0,0.153,-0.244,0.562,0.776
962850,-1201.0,1427.0,2024.0,0.125,-0.225,0.572,0.779
962867,-357.0,2119.0,1876.0,0.096,-0.206,0.582,0.781
962893,1501.0,6277.0,1036.0,0.066,-0.186,0.592,0.781
962909,1401.0,5863.0,966.0,0.034,-0.165,0.599,0.783
962925,2863.0,5947.0,834.0,0.003,-0.143,0.604,0.784
962941,3175.0,6147.0,1272.0,0.027,0.121,-0.611,-0.782
962957,4027.0,9247.0,786.0,0.057,0.097,-0.617,-0.779
962973,4931.0,7971.0,1044.0,0.087,0.072,-0.621,-0.776
962999,4673.0,7455.0,1642.0,0.116,0.046,-0.623,-0.773
963016,5871.0,8709.0,1474.0,0.144,0.019,-0.626,-0.766
963033,7581.0,6437.0,296.0,0.173,-0.009,-0.629,-0.758
963049,8057.0,7915.0,966.0,0.2,-0.033,-0.632,-0.748
963066,8395.0,9339.0,1180.0,0.227,-0.058,-0.631,-0.739
963083,8819.0,7827.0,1700.0,0.254,-0.083,-0.63,-0.729
963099,9301.0,7727.0,1148.0,0.282,-0.107,-0.629,-0.717
963116,10775.0,7951.0,648.0,0.309,-0.129,-0.626,-0.704
963133,10167.0,7847.0,1284.0,0.335,-0.149,-0.623,-0.691
963159,10797.0,8327.0,904.0,0.359,-0.169,-0.619,-0.678
963176,9955.0,6687.0,1334.0,0.382,-0.188,-0.614,-0.664
963192,10273.0,7185.0,994.0,0.404,-0.206,-0.609,-0.65
963208,10173.0,7181.0,1086.0,0.424,-0.224,-0.605,-0.635
963224,10059.0,7233.0,792.0,0.442,-0.242,-0.601,-0.621
963240,10143.0,7305.0,686.0,0.458,-0.258,-0.596,-0.606
963256,9673.0,7463.0,1096.0,0.471,-0.274,-0.592,-0.594
963273,9967.0,6921.0,308.0,0.483,-0.287,-0.588,-0.582
963300,9425.0,7705.0,532.0,0.493,-0.298,-0.584,-0.572
963316,7653.0,9039.0,1306.0,0.501,-0.308,-0.582,-0.562
963333,7509.0,8419.0,1396.0,0.507,-0.317,-0.579,-0.555
963350,6595.0,8877.0,1586.0,0.51,-0.326,-0.576,-0.55
963367,5789.0,8803.0,1814.0,0.51,-0.333,-0.574,-0.547
963383,5415.0,8959.0,1954.0,0.509,-0.339,-0.573,-0.546
963400,5245.0,8529.0,1748.0,0.508,-0.342,-0.572,-0.547
963416,5067.0,8871.0,1872.0,0.504,-0.342,-0.573,-0.548
963433,5155.0,9213.0,2026.0,0.499,-0.34,-0.575,-0.552
963450,5455.0,9279.0,2204.0,0.491,-0.336,-0.579,-0.558
963476,6031.0,9207.0,2012.0,0.482,-0.328,-0.583,-0.566
963492,6721.0,9441.0,2024.0,0.472,-0.318,-0.589,-0.574
963508,7605.0,9631.0,1674.0,0.46,-0.305,-0.595,-0.584
963524,8707.0,9777.0,1972.0,0.445,-0.29,-0.602,-0.596
963540,10033.0,9861.0,1776.0,0.428,-0.272,-0.61,-0.609
963566,10311.0,10131.0,2272.0,0.409,-0.251,-0.618,-0.623
963583,11161.0,10417.0,1904.0,0.387,-0.229,-0.625,-0.638
963600,11421.0,10763.0,1922.0,0.364,-0.204,-0.633,-0.653
963616,11551.0,10967.0,1674.0,0.337,-0.178,-0.639,-0.668
963632,11035.0,10357.0,1686.0,0.309,-0.15,-0.644,-0.683
963649,10375.0,10463.0,1382.0,0.278,-0.123,-0.649,-0.698
963666,8989.0,9507.0,1370.0,0.246,-0.095,-0.652,-0.711
963682,8135.0,9289.0,1076.0,0.215,-0.068,-0.654,-0.722
963708,7157.0,8767.0,794.0,0.182,-0.042,-0.654,-0.733
963724,6029.0,8471.0,600.0,0.15,-0.016,-0.653,-0.742
963740,5689.0,8813.0,252.0,0.118,0.01,-0.65,-0.751
963756,5429.0,8981.0,192.0,0.086,0.035,-0.646,-0.758
963772,4999.0,8689.0,120.0,0.056,0.059,-0.639,-0.765
963788,4741.0,7439.0,-8.0,0.028,0.081,-0.632,-0.771
963805,4811.0,7689.0,300.0,0.001,-0.104,0.623,0.776
963831,4393.0,7433.0,784.0,0.027,-0.125,0.614,0.779
963847,4075.0,8015.0,854.0,0.052,-0.145,0.604,0.782
963863,4195.0,7463.0,196.0,0.075,-0.163,0.593,0.785
963879,3697.0,5589.0,112.0,0.097,-0.181,0.581,0.788
963895,3421.0,3589.0,538.0,0.123,-0.198,0.569,0.789
963912,1107.0,4393.0,1114.0,0.148,-0.215,0.559,0.787
963938,307.0,4571.0,1250.0,0.174,-0.228,0.549,0.785
963954,327.0,3921.0,344.0,0.198,-0.24,0.538,0.784
963970,-83.0,2235.0,964.0,0.219,-0.25,0.527,0.782
963987,-831.0,-557.0,760.0,0.239,-0.259,0.518,0.78
964004,-2283.0,-1047.0,1408.0,0.257,-0.267,0.513,0.775
964021,-3463.0,59.0,1258.0,0.271,-0.274,0.509,0.77
964037,-4485.0,-2023.0,2362.0,0.28,-0.279,0.504,0.768
964054,-5261.0,-4889.0,3232.0,0.286,-0.284,0.501,0.766
964071,-5963.0,-4445.0,3642.0,0.289,-0.286,0.502,0.764
964088,-5563.0,-3501.0,3068.0,0.284,-0.283,0.505,0.764
964105,-4923.0,-3289.0,2936.0,0.274,-0.277,0.51,0.767
964132,-4795.0,-1501.0,2794.0,0.259,-0.269,0.516,0.771
964149,-3957.0,-377.0,2434.0,0.241,-0.258,0.521,0.777
964166,-2915.0,-1327.0,2116.0,0.219,-0.246,0.527,0.784
964182,-2259.0,-295.0,1858.0,0.196,-0.232,0.536,0.788
964199,-1379.0,1413.0,2020.0,0.172,-0.216,0.547,0.79
964216,-901.0,4265.0,1612.0,0.146,-0.199,0.557,0.793
964232,55.0,4053.0,1368.0,0.119,-0.179,0.567,0.795
964249,1297.0,4195.0,850.0,0.09,-0.159,0.576,0.797
964266,1847.0,5735.0,822.0,0.062,-0.137,0.585,0.797
964292,3013.0,7965.0,778.0,0.032,-0.115,0.594,0.796
964308,2847.0,7313.0,2052.0,0.001,-0.091,0.601,0.794
964324,4755.0,7701.0,1142.0,0.029,0.066,-0.607,-0.792
964340,6225.0,8541.0,848.0,0.059,0.042,-0.612,-0.788
964356,5379.0,7489.0,1668.0,0.09,0.018,-0.617,-0.782
964372,7277.0,9579.0,914.0,0.12,-0.006,-0.62,-0.776
964398,6687.0,8151.0,1492.0,0.15,-0.031,-0.622,-0.768
964415,7209.0,8105.0,754.0,0.179,-0.055,-0.625,-0.758
964432,8109.0,8199.0,820.0,0.207,-0.079,-0.626,-0.747
964448,7291.0,7541.0,1492.0,0.235,-0.103,-0.626,-0.736
964465,8513.0,8855.0,1436.0,0.264,-0.126,-0.625,-0.724
964482,7917.0,7149.0,1406.0,0.293,-0.15,-0.621,-0.711
964499,9863.0,7389.0,416.0,0.321,-0.172,-0.618,-0.697
964516,9195.0,7279.0,1332.0,0.349,-0.192,-0.613,-0.682
964532,10045.0,9643.0,1510.0,0.375,-0.213,-0.607,-0.667
964549,10175.0,8187.0,1756.0,0.399,-0.234,-0.6,-0.652
964566,10717.0,8955.0,1076.0,0.422,-0.256,-0.592,-0.637
964593,11659.0,5667.0,636.0,0.442,-0.275,-0.584,-0.623
964610,11285.0,7497.0,1230.0,0.46,-0.291,-0.577,-0.608
964626,10415.0,8679.0,1766.0,0.478,-0.307,-0.57,-0.594
964643,9543.0,8921.0,1650.0,0.494,-0.323,-0.561,-0.58
964660,8773.0,7747.0,1640.0,0.507,-0.34,-0.552,-0.568
964676,8985.0,6877.0,1296.0,0.516,-0.355,-0.544,-0.558
964692,8539.0,7341.0,1804.0,0.52,-0.368,-0.539,-0.55
964708,8105.0,7807.0,1804.0,0.522,-0.378,-0.536,-0.545
964724,7483.0,6227.0,1396.0,0.521,-0.386,-0.535,-0.542
964750,6619.0,7593.0,2350.0,0.519,-0.389,-0.537,-0.54
964766,6017.0,8811.0,3054.0,0.512,-0.392,-0.54,-0.541
964782,5699.0,8565.0,3168.0,0.502,-0.395,-0.544,-0.544
964799,5695.0,7995.0,2944.0,0.49,-0.397,-0.549,-0.549
964816,6319.0,7945.0,2620.0,0.478,-0.396,-0.554,-0.555
964832,6863.0,8275.0,2048.0,0.467,-0.39,-0.56,-0.562
964849,7071.0,8605.0,1920.0,0.456,-0.381,-0.566,-0.572
964875,7319.0,8887.0,1984.0,0.445,-0.367,-0.572,-0.583
964891,7851.0,9345.0,2162.0,0.432,-0.352,-0.577,-0.597
964907,8895.0,8999.0,1910.0,0.417,-0.335,-0.582,-0.613
964923,9657.0,8511.0,1980.0,0.4,-0.316,-0.588,-0.629
964940,10569.0,9351.0,1816.0,0.381,-0.294,-0.593,-0.646
964956,11479.0,9279.0,1624.0,0.36,-0.271,-0.598,-0.663
964975,11949.0,9601.0,1500.0,0.337,-0.247,-0.603,-0.679
964991,12361.0,9531.0,1102.0,0.311,-0.221,-0.608,-0.696
965008,12289.0,9579.0,1114.0,0.284,-0.194,-0.613,-0.712
965034,11971.0,9449.0,982.0,0.255,-0.165,-0.617,-0.726
965050,11703.0,9895.0,938.0,0.225,-0.136,-0.619,-0.74
965066,10569.0,8943.0,958.0,0.194,-0.107,-0.621,-0.752
965082,9499.0,8777.0,916.0,0.163,-0.077,-0.621,-0.763
965098,8509.0,8555.0,1222.0,0.131,-0.048,-0.619,-0.773
965114,7183.0,7641.0,1126.0,0.099,-0.02,-0.616,-0.782
965140,5997.0,7831.0,1446.0,0.068,0.008,-0.611,-0.788
965156,5343.0,6881.0,1414.0,0.039,0.033,-0.606,-0.794
965172,5307.0,6985.0,1028.0,0.01,0.057,-0.6,-0.798
965188,4911.0,6579.0,948.0,0.016,-0.08,0.594,0.8
965204,4489.0,6305.0,1048.0,0.042,-0.103,0.588,0.801
965220,3381.0,6023.0,1368.0,0.068,-0.127,0.582,0.801
965246,2909.0,4741.0,1092.0,0.093,-0.15,0.574,0.8
965262,2261.0,3593.0,1196.0,0.117,-0.172,0.566,0.798
965278,1249.0,4723.0,1404.0,0.14,-0.193,0.558,0.795
965294,423.0,2357.0,1170.0,0.16,-0.211,0.55,0.792
965310,141.0,1231.0,964.0,0.179,-0.228,0.544,0.787
965326,-1019.0,87.0,800.0,0.196,-0.243,0.54,0.782
965352,-1827.0,29.0,852.0,0.21,-0.256,0.537,0.776
965368,-3563.0,1869.0,1510.0,0.221,-0.266,0.535,0.771
965384,-3937.0,-387.0,2428.0,0.228,-0.274,0.53,0.769
965400,-4221.0,-5021.0,2508.0,0.232,-0.281,0.527,0.768
965416,-4353.0,-3959.0,2022.0,0.234,-0.285,0.528,0.765
965432,-5803.0,-3087.0,2686.0,0.232,-0.286,0.531,0.763
965459,-5643.0,-2835.0,2584.0,0.225,-0.283,0.537,0.763
965475,-5093.0,-1721.0,1820.0,0.214,-0.275,0.543,0.764
965491,-4231.0,-1053.0,962.0,0.198,-0.264,0.55,0.767
965507,-3611.0,-575.0,1150.0,0.18,-0.25,0.557,0.771
965524,-3413.0,367.0,1486.0,0.159,-0.235,0.563,0.776
965540,-2877.0,1383.0,1828.0,0.137,-0.216,0.57,0.781
965557,-1389.0,1693.0,1948.0,0.112,-0.194,0.577,0.786
965583,-399.0,1313.0,2036.0,0.087,-0.17,0.586,0.787
965599,1939.0,5653.0,984.0,0.062,-0.146,0.597,0.786
965615,2601.0,7819.0,1024.0,0.034,-0.121,0.606,0.786
965632,3863.0,6145.0,1052.0,0.006,-0.096,0.614,0.784
965649,4917.0,9057.0,1070.0,0.019,0.073,-0.622,-0.779
965665,5517.0,8517.0,170.0,0.044,0.049,-0.626,-0.777
965682,6345.0,9977.0,150.0,0.07,0.028,-0.63,-0.773
965708,6507.0,9885.0,962.0,0.095,0.007,-0.633,-0.768
965724,5397.0,9167.0,1260.0,0.12,-0.016,-0.634,-0.764
965740,6933.0,8789.0,600.0,0.144,-0.037,-0.636,-0.757
965756,5889.0,8605.0,1282.0,0.167,-0.059,-0.637,-0.751
965772,5799.0,6135.0,558.0,0.19,-0.08,-0.638,-0.742
965789,6423.0,8389.0,1274.0,0.212,-0.102,-0.637,-0.734
965805,6353.0,7469.0,1182.0,0.235,-0.124,-0.636,-0.724
965831,6489.0,6471.0,1404.0,0.259,-0.147,-0.634,-0.714
965848,8197.0,6719.0,548.0,0.282,-0.168,-0.631,-0.703
965865,8465.0,6013.0,1026.0,0.305,-0.187,-0.628,-0.691
965882,9149.0,7695.0,1058.0,0.329,-0.204,-0.624,-0.679
965898,8631.0,6497.0,1248.0,0.351,-0.222,-0.617,-0.668
965915,9657.0,7261.0,1246.0,0.373,-0.239,-0.61,-0.657
965932,9899.0,7261.0,1162.0,0.395,-0.257,-0.602,-0.644
965949,11165.0,7599.0,444.0,0.417,-0.274,-0.595,-0.63
965965,10657.0,7657.0,920.0,0.436,-0.289,-0.587,-0.618
965982,10893.0,8507.0,1372.0,0.45,-0.302,-0.58,-0.608
966008,10075.0,7929.0,1350.0,0.462,-0.316,-0.572,-0.599
966024,9041.0,7375.0,1462.0,0.473,-0.329,-0.565,-0.591
966040,8831.0,7775.0,1686.0,0.484,-0.341,-0.558,-0.582
966057,8489.0,7971.0,1782.0,0.492,-0.352,-0.552,-0.574
966074,7941.0,7621.0,1912.0,0.497,-0.363,-0.546,-0.569
966091,7229.0,7411.0,2290.0,0.499,-0.371,-0.542,-0.565
966108,6245.0,7755.0,2638.0,0.499,-0.378,-0.54,-0.563
966124,5895.0,7147.0,2462.0,0.497,-0.382,-0.539,-0.562
966141,5713.0,7603.0,2380.0,0.495,-0.383,-0.541,-0.562
966158,5365.0,8275.0,2606.0,0.492,-0.381,-0.543,-0.564
966184,5467.0,8251.0,2406.0,0.486,-0.379,-0.545,-0.568
966201,5657.0,8283.0,2482.0,0.48,-0.374,-0.548,-0.573
966218,6265.0,7817.0,2228.0,0.473,-0.367,-0.552,-0.58
966235,6921.0,7825.0,2224.0,0.465,-0.357,-0.556,-0.589
966252,7481.0,8313.0,2482.0,0.456,-0.345,-0.562,-0.598
966269,8023.0,8171.0,2494.0,0.445,-0.331,-0.568,-0.609
966286,8651.0,8299.0,2590.0,0.431,-0.315,-0.575,-0.62
966303,9465.0,8083.0,2392.0,0.416,-0.298,-0.583,-0.631
966320,10063.0,8113.0,2086.0,0.4,-0.278,-0.591,-0.643
966336,10771.0,9091.0,1908.0,0.382,-0.256,-0.6,-0.654
966363,11133.0,8891.0,1670.0,0.363,-0.234,-0.608,-0.666
966380,11049.0,9885.0,1798.0,0.342,-0.21,-0.616,-0.678
966397,10659.0,9265.0,1610.0,0.32,-0.186,-0.623,-0.689
966414,10161.0,9233.0,1536.0,0.295,-0.162,-0.629,-0.701
966431,9589.0,9093.0,1354.0,0.27,-0.139,-0.633,-0.712
966448,8519.0,8393.0,1282.0,0.244,-0.116,-0.636,-0.723
966465,8155.0,8571.0,886.0,0.217,-0.094,-0.638,-0.733
966482,7837.0,7877.0,666.0,0.19,-0.072,-0.639,-0.742
966498,7125.0,8019.0,766.0,0.162,-0.05,-0.64,-0.749
966515,6149.0,7869.0,854.0,0.133,-0.028,-0.639,-0.757
966531,5871.0,7073.0,578.0,0.105,-0.007,-0.637,-0.763
966558,5313.0,6995.0,570.0,0.078,0.013,-0.635,-0.768
966574,4641.0,7135.0,404.0,0.052,0.032,-0.632,-0.772
966590,4091.0,6371.0,560.0,0.028,0.051,-0.628,-0.776
966606,3633.0,5781.0,752.0,0.003,0.07,-0.624,-0.779
966622,3563.0,6741.0,710.0,0.021,-0.088,0.62,0.78
966638,2793.0,5665.0,820.0,0.046,-0.106,0.614,0.781
966664,2247.0,3369.0,1420.0,0.072,-0.123,0.609,0.78
966681,1433.0,5457.0,984.0,0.097,-0.14,0.606,0.777
966698,797.0,3631.0,742.0,0.122,-0.155,0.602,0.774
966715,47.0,3485.0,526.0,0.144,-0.169,0.598,0.77
966731,-1509.0,2173.0,826.0,0.164,-0.182,0.594,0.766
966748,-2563.0,2529.0,1370.0,0.182,-0.192,0.59,0.763
966765,-2349.0,-175.0,1188.0,0.196,-0.199,0.584,0.762
966783,-2375.0,-2063.0,1680.0,0.208,-0.205,0.578,0.762
966799,-4381.0,-5565.0,3344.0,0.217,-0.208,0.572,0.763
966815,-4237.0,-5691.0,2860.0,0.222,-0.206,0.573,0.762
966831,-4331.0,-2879.0,2576.0,0.22,-0.199,0.576,0.762
966848,-3377.0,-3005.0,2390.0,0.211,-0.189,0.579,0.764
966875,-2499.0,-1421.0,1936.0,0.198,-0.176,0.582,0.769
966891,-2533.0,-149.0,2342.0,0.179,-0.161,0.584,0.775
966907,-2269.0,433.0,2520.0,0.156,-0.145,0.586,0.781
966923,-1169.0,871.0,2684.0,0.131,-0.127,0.589,0.787
966939,-3.0,1957.0,2478.0,0.104,-0.108,0.594,0.791
966955,1201.0,4105.0,2196.0,0.075,-0.087,0.599,0.793
966982,2765.0,6797.0,1518.0,0.045,-0.065,0.605,0.792
966998,3443.0,8819.0,1238.0,0.013,-0.042,0.609,0.792
967014,3989.0,9641.0,1058.0,0.02,0.019,-0.61,-0.792
967030,5991.0,7363.0,624.0,0.05,-0.004,-0.612,-0.789
967046,6707.0,9609.0,1032.0,0.079,-0.025,-0.615,-0.784
967063,6897.0,9939.0,1186.0,0.106,-0.046,-0.617,-0.779
967079,7817.0,9651.0,890.0,0.132,-0.066,-0.618,-0.772
967096,5875.0,7659.0,1882.0,0.156,-0.086,-0.618,-0.766
967122,7115.0,8461.0,844.0,0.18,-0.107,-0.618,-0.758
967138,7109.0,7769.0,846.0,0.204,-0.127,-0.621,-0.746
967154,7281.0,7139.0,1234.0,0.226,-0.147,-0.623,-0.735
967171,7293.0,7011.0,1356.0,0.247,-0.166,-0.625,-0.722
967188,7195.0,7481.0,1310.0,0.267,-0.185,-0.625,-0.71
967204,7607.0,6791.0,1032.0,0.288,-0.204,-0.625,-0.696
967221,8285.0,7037.0,706.0,0.309,-0.222,-0.625,-0.681
967238,8357.0,7175.0,772.0,0.33,-0.24,-0.623,-0.668
967264,8413.0,6037.0,502.0,0.35,-0.256,-0.619,-0.654
967281,8353.0,5865.0,706.0,0.37,-0.273,-0.615,-0.641
967298,8885.0,7305.0,786.0,0.39,-0.289,-0.611,-0.626
967315,9583.0,6769.0,152.0,0.409,-0.304,-0.604,-0.612
967332,9855.0,6205.0,416.0,0.428,-0.319,-0.598,-0.598
967348,9459.0,6843.0,756.0,0.444,-0.333,-0.591,-0.585
967365,9411.0,7125.0,802.0,0.457,-0.346,-0.584,-0.574
967381,9141.0,5495.0,566.0,0.468,-0.358,-0.578,-0.565
967397,9123.0,6445.0,748.0,0.478,-0.367,-0.573,-0.556
967424,8593.0,7195.0,1174.0,0.487,-0.375,-0.568,-0.547
967440,8239.0,7015.0,1192.0,0.494,-0.382,-0.564,-0.54
967456,8269.0,7655.0,1124.0,0.5,-0.388,-0.561,-0.533
967472,7805.0,8173.0,1138.0,0.503,-0.393,-0.559,-0.529
967488,7471.0,7797.0,1420.0,0.502,-0.398,-0.558,-0.528
967504,7499.0,7437.0,1474.0,0.499,-0.4,-0.558,-0.529
967530,7315.0,7137.0,1536.0,0.495,-0.4,-0.559,-0.531
967547,7193.0,7595.0,1712.0,0.488,-0.398,-0.563,-0.535
967564,7431.0,7459.0,1626.0,0.48,-0.395,-0.566,-0.541
967581,7783.0,7289.0,1526.0,0.471,-0.389,-0.571,-0.549
967597,8023.0,7207.0,1516.0,0.461,-0.38,-0.576,-0.558
967614,8279.0,7345.0,1644.0,0.449,-0.37,-0.582,-0.568
967630,8671.0,7013.0,1682.0,0.436,-0.357,-0.588,-0.58
967646,9307.0,7309.0,1574.0,0.422,-0.342,-0.595,-0.592
967663,9529.0,7337.0,1472.0,0.406,-0.325,-0.603,-0.605
967680,10079.0,7647.0,1218.0,0.388,-0.306,-0.61,-0.619
967707,10775.0,8367.0,1116.0,0.369,-0.286,-0.618,-0.633
967724,10909.0,7795.0,784.0,0.347,-0.265,-0.625,-0.647
967740,11297.0,8265.0,568.0,0.324,-0.241,-0.632,-0.661
967756,11119.0,8649.0,612.0,0.3,-0.217,-0.639,-0.675
967772,10783.0,8685.0,584.0,0.274,-0.192,-0.644,-0.688
967788,10289.0,8349.0,556.0,0.246,-0.166,-0.648,-0.701
967804,9791.0,8315.0,526.0,0.218,-0.14,-0.651,-0.713
967830,8775.0,8097.0,474.0,0.189,-0.114,-0.654,-0.724
967846,7775.0,8311.0,432.0,0.16,-0.087,-0.655,-0.733
967863,7033.0,8501.0,628.0,0.131,-0.061,-0.654,-0.742
967880,6505.0,8219.0,406.0,0.102,-0.035,-0.652,-0.751
967896,5973.0,8033.0,414.0,0.074,-0.01,-0.648,-0.758
967913,4663.0,6865.0,522.0,0.047,0.014,-0.643,-0.764
967930,3955.0,7165.0,676.0,0.02,0.037,-0.637,-0.769
967947,3689.0,5983.0,970.0,0.006,-0.061,0.63,0.774
967973,2999.0,5711.0,714.0,0.031,-0.083,0.623,0.777
967990,2051.0,5277.0,792.0,0.056,-0.106,0.615,0.779
968006,1693.0,3661.0,1014.0,0.081,-0.127,0.607,0.78
968022,999.0,5399.0,1052.0,0.105,-0.148,0.601,0.779
968038,259.0,3405.0,1098.0,0.128,-0.167,0.592,0.778
968054,-699.0,2675.0,1150.0,0.15,-0.186,0.583,0.776
968070,-895.0,1417.0,1218.0,0.17,-0.203,0.575,0.774
968096,-2123.0,1947.0,1328.0,0.187,-0.22,0.568,0.771
968112,-2759.0,1063.0,1250.0,0.2,-0.234,0.561,0.768
968128,-3133.0,-141.0,1508.0,0.211,-0.246,0.557,0.765
968145,-3487.0,-459.0,1708.0,0.22,-0.255,0.554,0.761
968162,-3851.0,-987.0,1496.0,0.226,-0.262,0.551,0.759
968179,-4127.0,-1299.0,1450.0,0.229,-0.267,0.55,0.757
968195,-4985.0,-1105.0,1780.0,0.229,-0.267,0.551,0.757
968211,-5269.0,-931.0,2094.0,0.225,-0.263,0.553,0.758
968238,-5043.0,-993.0,1924.0,0.217,-0.255,0.557,0.76
968254,-4317.0,-759.0,1304.0,0.206,-0.243,0.562,0.763
968270,-3961.0,53.0,1366.0,0.192,-0.229,0.568,0.766
968287,-3283.0,1135.0,1638.0,0.176,-0.212,0.575,0.77
968303,-2399.0,2027.0,1554.0,0.157,-0.193,0.583,0.774
968320,-1431.0,2625.0,1678.0,0.136,-0.171,0.591,0.776
968336,-193.0,2665.0,1336.0,0.114,-0.148,0.599,0.778
968363,1601.0,4715.0,828.0,0.091,-0.125,0.608,0.779
968380,2279.0,6605.0,644.0,0.067,-0.103,0.616,0.778
968396,3209.0,7661.0,466.0,0.04,-0.078,0.624,0.776
968412,3107.0,7245.0,1158.0,0.014,-0.054,0.631,0.774
968429,4029.0,8461.0,598.0,0.011,0.031,-0.635,-0.771
968446,5273.0,7645.0,256.0,0.036,0.009,-0.639,-0.769
968463,4531.0,8725.0,1032.0,0.062,-0.014,-0.641,-0.765
968480,6049.0,8667.0,704.0,0.087,-0.036,-0.643,-0.76
968496,5307.0,8441.0,1204.0,0.113,-0.058,-0.645,-0.753
968522,6539.0,8775.0,738.0,0.138,-0.08,-0.647,-0.746
968539,5863.0,8167.0,1568.0,0.162,-0.102,-0.647,-0.738
968556,7019.0,9337.0,1288.0,0.186,-0.124,-0.645,-0.731
968572,6795.0,7381.0,1184.0,0.211,-0.147,-0.643,-0.721
968588,7423.0,8123.0,962.0,0.236,-0.168,-0.641,-0.711
968604,7771.0,7563.0,1042.0,0.259,-0.188,-0.639,-0.699
968620,7509.0,7789.0,1494.0,0.282,-0.209,-0.635,-0.688
968637,7741.0,7039.0,1518.0,0.304,-0.23,-0.63,-0.677
968664,9045.0,6859.0,730.0,0.328,-0.249,-0.625,-0.663
968680,9161.0,6871.0,654.0,0.354,-0.267,-0.619,-0.648
968697,9805.0,7329.0,714.0,0.378,-0.282,-0.613,-0.634
968714,9689.0,7327.0,986.0,0.399,-0.297,-0.606,-0.621
968730,9375.0,6879.0,1390.0,0.418,-0.31,-0.599,-0.609
968747,10119.0,6499.0,746.0,0.437,-0.321,-0.592,-0.597
968763,9409.0,7099.0,880.0,0.455,-0.33,-0.585,-0.585
968781,9549.0,7135.0,1194.0,0.471,-0.339,-0.579,-0.573
968798,9325.0,7071.0,1118.0,0.485,-0.348,-0.573,-0.562
968814,8881.0,6795.0,960.0,0.496,-0.355,-0.568,-0.552
968830,8619.0,7121.0,810.0,0.505,-0.361,-0.565,-0.543
968857,8169.0,7143.0,784.0,0.513,-0.366,-0.563,-0.535
968873,7839.0,7261.0,606.0,0.518,-0.37,-0.561,-0.529
968889,7183.0,7335.0,834.0,0.521,-0.372,-0.56,-0.525
968905,6569.0,7335.0,988.0,0.522,-0.373,-0.561,-0.523
968921,6117.0,7397.0,1172.0,0.52,-0.373,-0.563,-0.523
968937,6009.0,7329.0,1240.0,0.517,-0.372,-0.565,-0.525
968963,6297.0,7471.0,1120.0,0.511,-0.37,-0.568,-0.528
968980,6567.0,7511.0,1090.0,0.505,-0.366,-0.571,-0.534
968996,6979.0,7505.0,988.0,0.497,-0.36,-0.575,-0.541
969012,7397.0,7785.0,1270.0,0.489,-0.352,-0.578,-0.551
969028,7471.0,7513.0,1554.0,0.478,-0.343,-0.582,-0.561
969045,8401.0,7847.0,1548.0,0.466,-0.333,-0.587,-0.573
969061,9027.0,7499.0,1590.0,0.452,-0.321,-0.593,-0.584
969078,9849.0,7777.0,1404.0,0.436,-0.307,-0.6,-0.596
969104,10653.0,7825.0,1284.0,0.419,-0.293,-0.607,-0.608
969120,11025.0,7947.0,1120.0,0.399,-0.276,-0.615,-0.621
969136,11275.0,7945.0,1208.0,0.377,-0.258,-0.624,-0.634
969152,11657.0,7705.0,914.0,0.354,-0.239,-0.632,-0.647
969168,11281.0,8047.0,854.0,0.328,-0.217,-0.64,-0.66
969184,10999.0,8137.0,660.0,0.301,-0.195,-0.647,-0.673
969211,10445.0,8225.0,742.0,0.272,-0.172,-0.654,-0.685
969228,10149.0,7979.0,490.0,0.242,-0.149,-0.659,-0.697
969245,9659.0,8253.0,198.0,0.212,-0.126,-0.663,-0.707
969262,9285.0,8315.0,34.0,0.181,-0.102,-0.665,-0.718
969279,8403.0,8271.0,252.0,0.151,-0.078,-0.665,-0.728
969296,7411.0,7535.0,390.0,0.121,-0.054,-0.663,-0.737
969313,6365.0,7359.0,472.0,0.091,-0.031,-0.659,-0.746
969329,5591.0,7125.0,698.0,0.061,-0.007,-0.654,-0.754
969346,4995.0,7165.0,688.0,0.033,0.014,-0.647,-0.762
969363,5335.0,7847.0,56.0,0.006,0.037,-0.637,-0.77
969389,4495.0,6309.0,554.0,0.02,-0.059,0.626,0.777
969405,3653.0,6081.0,448.0,0.047,-0.083,0.613,0.784
969421,1993.0,5125.0,1452.0,0.073,-0.108,0.6,0.789
969437,857.0,4027.0,1548.0,0.098,-0.131,0.587,0.793
969453,-309.0,3467.0,1218.0,0.12,-0.152,0.573,0.796
969469,-1063.0,2063.0,1572.0,0.14,-0.171,0.56,0.799
969485,-1433.0,1401.0,1600.0,0.158,-0.188,0.548,0.799
969511,-2229.0,1009.0,1710.0,0.175,-0.201,0.538,0.8
969527,-1975.0,633.0,1096.0,0.191,-0.212,0.529,0.799
969543,-2731.0,-51.0,1478.0,0.205,-0.222,0.521,0.798
969560,-3249.0,-923.0,1608.0,0.216,-0.229,0.515,0.798
969577,-3625.0,-1651.0,1644.0,0.224,-0.234,0.51,0.797
969594,-4149.0,-2061.0,1528.0,0.228,-0.238,0.507,0.796
969611,-4529.0,-2053.0,1398.0,0.227,-0.239,0.505,0.798
969637,-4737.0,-2019.0,1668.0,0.22,-0.237,0.505,0.8
969653,-4909.0,-805.0,1846.0,0.209,-0.232,0.507,0.804
969669,-4549.0,-217.0,2174.0,0.193,-0.223,0.509,0.809
969686,-3885.0,-7.0,2294.0,0.173,-0.211,0.512,0.814
969703,-3677.0,-593.0,2560.0,0.152,-0.194,0.516,0.82
969720,-2983.0,-25.0,2804.0,0.13,-0.175,0.523,0.824
969736,-2257.0,1333.0,2718.0,0.107,-0.152,0.529,0.828
969753,-1369.0,3345.0,3330.0,0.082,-0.127,0.538,0.829
969779,55.0,2393.0,2612.0,0.055,-0.099,0.547,0.83
969795,2035.0,5057.0,1650.0,0.028,-0.069,0.556,0.828
969811,3925.0,4111.0,2354.0,0.001,0.041,-0.563,-0.825
969827,3885.0,6509.0,1920.0,0.03,0.012,-0.57,-0.821
969844,5123.0,7441.0,2846.0,0.059,-0.018,-0.579,-0.813
969861,5681.0,7119.0,2266.0,0.087,-0.049,-0.586,-0.804
969878,7859.0,7259.0,64.0,0.116,-0.079,-0.592,-0.794
969895,7381.0,5591.0,2298.0,0.144,-0.107,-0.598,-0.781
969912,7869.0,5651.0,2708.0,0.171,-0.135,-0.607,-0.764
969929,10317.0,8139.0,1134.0,0.201,-0.162,-0.618,-0.742
969955,12043.0,10577.0,-948.0,0.229,-0.187,-0.624,-0.724
969971,10733.0,6393.0,-666.0,0.256,-0.211,-0.624,-0.708
969988,11153.0,3145.0,-292.0,0.279,-0.231,-0.627,-0.69
970004,10859.0,6307.0,-454.0,0.3,-0.248,-0.629,-0.673
970020,10927.0,7797.0,-398.0,0.323,-0.264,-0.629,-0.655
970036,11103.0,7733.0,-1050.0,0.347,-0.28,-0.626,-0.64
970053,10583.0,6277.0,-600.0,0.369,-0.296,-0.619,-0.627
970070,9383.0,5483.0,46.0,0.387,-0.311,-0.611,-0.617
970087,9357.0,4861.0,196.0,0.403,-0.326,-0.605,-0.605
970113,9657.0,5385.0,698.0,0.42,-0.34,-0.598,-0.592
970130,9901.0,5987.0,864.0,0.438,-0.352,-0.592,-0.577
970146,9169.0,6279.0,498.0,0.457,-0.364,-0.585,-0.563
970163,9657.0,6501.0,430.0,0.471,-0.376,-0.578,-0.55
970179,10221.0,5751.0,-10.0,0.484,-0.386,-0.57,-0.54
970196,10531.0,6519.0,-88.0,0.496,-0.394,-0.564,-0.53
970213,10509.0,7379.0,-362.0,0.507,-0.397,-0.56,-0.521
970230,9627.0,8415.0,504.0,0.517,-0.395,-0.558,-0.515
970247,9927.0,9123.0,1806.0,0.522,-0.391,-0.557,-0.514
970273,8877.0,8733.0,2504.0,0.524,-0.385,-0.558,-0.516
970289,7119.0,9431.0,3334.0,0.524,-0.379,-0.559,-0.519
970305,6069.0,9421.0,3156.0,0.521,-0.373,-0.562,-0.524
970321,6105.0,9393.0,2514.0,0.516,-0.367,-0.565,-0.529
970337,6365.0,8999.0,2080.0,0.51,-0.36,-0.569,-0.535
970353,6193.0,8763.0,1692.0,0.502,-0.351,-0.574,-0.543
970379,6117.0,8595.0,1222.0,0.494,-0.34,-0.581,-0.551
970396,6101.0,8351.0,1216.0,0.484,-0.327,-0.588,-0.56
970412,6467.0,8169.0,854.0,0.472,-0.312,-0.596,-0.569
970429,7153.0,7939.0,760.0,0.459,-0.296,-0.606,-0.579
970445,7713.0,8533.0,788.0,0.443,-0.278,-0.615,-0.59
970462,8559.0,8001.0,306.0,0.426,-0.259,-0.625,-0.601
970478,9059.0,8761.0,272.0,0.406,-0.238,-0.635,-0.613
970495,9477.0,9611.0,266.0,0.384,-0.217,-0.644,-0.625
970522,9837.0,9983.0,186.0,0.36,-0.196,-0.652,-0.638
970538,10131.0,9735.0,-22.0,0.334,-0.175,-0.659,-0.651
970554,10617.0,9831.0,-312.0,0.306,-0.154,-0.664,-0.664
970570,10453.0,9803.0,18.0,0.278,-0.133,-0.668,-0.678
970587,10561.0,9843.0,114.0,0.249,-0.112,-0.668,-0.692
970604,9911.0,9117.0,476.0,0.217,-0.092,-0.667,-0.707
970621,9563.0,8935.0,812.0,0.185,-0.072,-0.664,-0.721
970638,9017.0,8241.0,904.0,0.153,-0.051,-0.66,-0.734
970664,8263.0,7879.0,904.0,0.12,-0.029,-0.655,-0.746
970680,7599.0,8213.0,782.0,0.088,-0.008,-0.649,-0.756
970697,6905.0,7251.0,640.0,0.057,0.013,-0.641,-0.765
970713,5653.0,6765.0,932.0,0.027,0.034,-0.634,-0.772
970730,4727.0,7249.0,1050.0,0.003,-0.054,0.624,0.779
970746,3871.0,6391.0,1210.0,0.032,-0.074,0.613,0.786
970762,2965.0,6067.0,1106.0,0.06,-0.096,0.602,0.791
970778,2629.0,7185.0,1106.0,0.086,-0.115,0.589,0.795
970804,2383.0,5631.0,1168.0,0.109,-0.134,0.576,0.799
970820,1925.0,4563.0,740.0,0.131,-0.153,0.562,0.802
970836,1379.0,5155.0,1228.0,0.15,-0.171,0.55,0.804
970852,1271.0,3233.0,1188.0,0.169,-0.189,0.536,0.806
970868,927.0,983.0,1010.0,0.187,-0.207,0.522,0.806
970894,-941.0,-389.0,1322.0,0.204,-0.225,0.511,0.804
970911,-2451.0,43.0,2088.0,0.219,-0.24,0.505,0.8
970927,-3499.0,1261.0,1820.0,0.231,-0.253,0.499,0.796
970944,-4053.0,-985.0,1832.0,0.239,-0.263,0.493,0.794
970960,-4687.0,-3639.0,1602.0,0.243,-0.27,0.49,0.792
970977,-4839.0,-3753.0,988.0,0.245,-0.273,0.49,0.791
970993,-5695.0,-3913.0,1292.0,0.243,-0.273,0.493,0.79
971010,-6043.0,-3213.0,1462.0,0.238,-0.268,0.498,0.79
971026,-5969.0,-2519.0,1852.0,0.229,-0.259,0.504,0.792
971052,-5445.0,-1869.0,2004.0,0.217,-0.246,0.511,0.795
971069,-4787.0,-1431.0,1782.0,0.202,-0.23,0.519,0.798
971086,-4071.0,-1477.0,1792.0,0.185,-0.211,0.528,0.801
971102,-3193.0,-395.0,2110.0,0.167,-0.19,0.54,0.803
971118,-2203.0,1633.0,2326.0,0.147,-0.167,0.553,0.803
971134,-595.0,1705.0,2198.0,0.125,-0.141,0.567,0.802
971150,1075.0,2373.0,1628.0,0.101,-0.114,0.582,0.799
971167,2639.0,4823.0,1538.0,0.076,-0.088,0.598,0.793
971193,3523.0,7117.0,1516.0,0.05,-0.061,0.613,0.786
971209,4375.0,8081.0,1072.0,0.023,-0.037,0.624,0.78
971226,5737.0,7589.0,732.0,0.005,0.013,-0.636,-0.771
971243,5705.0,8957.0,666.0,0.033,-0.009,-0.647,-0.762
971259,6695.0,9021.0,934.0,0.06,-0.029,-0.654,-0.753
971276,6703.0,9851.0,570.0,0.088,-0.049,-0.66,-0.745
971293,7469.0,9119.0,546.0,0.116,-0.068,-0.665,-0.735
971309,7913.0,10641.0,156.0,0.145,-0.086,-0.668,-0.724
971326,7433.0,10345.0,90.0,0.174,-0.105,-0.668,-0.715
971353,7581.0,10255.0,250.0,0.201,-0.124,-0.666,-0.707
971369,7423.0,8145.0,658.0,0.226,-0.144,-0.663,-0.699
971386,7245.0,8349.0,964.0,0.25,-0.164,-0.659,-0.69
971402,8631.0,8667.0,636.0,0.275,-0.184,-0.655,-0.679
971419,7933.0,8207.0,610.0,0.299,-0.205,-0.648,-0.669
971436,8789.0,7909.0,238.0,0.32,-0.226,-0.641,-0.66
971453,8597.0,7371.0,286.0,0.341,-0.246,-0.632,-0.651
971469,8071.0,7083.0,990.0,0.36,-0.265,-0.624,-0.641
971486,9043.0,7267.0,546.0,0.378,-0.285,-0.615,-0.631
971512,8891.0,6965.0,936.0,0.394,-0.303,-0.606,-0.621
971529,8865.0,6613.0,924.0,0.408,-0.32,-0.596,-0.613
971546,8957.0,6267.0,602.0,0.422,-0.337,-0.587,-0.603
971562,8907.0,7271.0,686.0,0.435,-0.352,-0.578,-0.594
971578,8883.0,7597.0,616.0,0.446,-0.367,-0.569,-0.586
971595,8817.0,7257.0,906.0,0.456,-0.381,-0.56,-0.578
971611,8605.0,6603.0,1272.0,0.462,-0.393,-0.552,-0.572
971628,8401.0,6735.0,1474.0,0.467,-0.404,-0.545,-0.567
971654,8029.0,6863.0,1684.0,0.471,-0.413,-0.54,-0.563
971671,7937.0,7043.0,1798.0,0.473,-0.42,-0.536,-0.56
971687,7845.0,6653.0,1622.0,0.474,-0.425,-0.533,-0.557
971703,7263.0,7119.0,1992.0,0.474,-0.428,-0.532,-0.557
971719,7001.0,7195.0,2062.0,0.471,-0.429,-0.532,-0.557
971735,7169.0,6925.0,1968.0,0.468,-0.429,-0.533,-0.56
971751,7145.0,7117.0,2026.0,0.463,-0.426,-0.536,-0.563
971768,7087.0,7071.0,2046.0,0.457,-0.421,-0.539,-0.568
971794,7467.0,6729.0,1830.0,0.451,-0.414,-0.544,-0.575
971811,7755.0,7191.0,1868.0,0.443,-0.403,-0.55,-0.582
971829,8029.0,7179.0,1826.0,0.434,-0.391,-0.557,-0.591
971846,8335.0,7051.0,1682.0,0.423,-0.377,-0.565,-0.6
971862,8781.0,7485.0,1642.0,0.409,-0.361,-0.574,-0.611
971879,9243.0,7563.0,1420.0,0.394,-0.343,-0.583,-0.622
971896,9599.0,7851.0,1280.0,0.377,-0.324,-0.593,-0.633
971912,9981.0,8077.0,1136.0,0.359,-0.303,-0.603,-0.645
971929,9975.0,8523.0,1024.0,0.338,-0.281,-0.613,-0.656
971946,9799.0,8901.0,1134.0,0.315,-0.259,-0.622,-0.668
971963,9611.0,8327.0,1652.0,0.29,-0.238,-0.63,-0.68
971989,9487.0,9005.0,844.0,0.263,-0.216,-0.637,-0.692
972005,9711.0,9017.0,658.0,0.235,-0.194,-0.643,-0.702
972021,9029.0,9277.0,640.0,0.206,-0.172,-0.647,-0.713
972037,9119.0,9053.0,408.0,0.175,-0.15,-0.651,-0.724
972053,8549.0,9401.0,216.0,0.143,-0.127,-0.653,-0.733
972079,8271.0,9417.0,220.0,0.11,-0.104,-0.652,-0.742
972095,7603.0,8969.0,234.0,0.078,-0.081,-0.65,-0.751
972112,6837.0,8563.0,512.0,0.047,-0.058,-0.646,-0.76
972129,5975.0,7795.0,846.0,0.017,-0.034,-0.641,-0.767
972145,5525.0,7263.0,800.0,0.012,0.01,0.635,0.773
972161,4499.0,6819.0,896.0,0.039,-0.013,0.628,0.777
972177,3729.0,6601.0,1142.0,0.065,-0.036,0.621,0.78
972203,3311.0,5343.0,1446.0,0.091,-0.059,0.613,0.782
972219,2331.0,5293.0,1562.0,0.116,-0.081,0.607,0.782
972235,2037.0,5259.0,1508.0,0.14,-0.101,0.6,0.781
972251,1507.0,4557.0,1258.0,0.163,-0.12,0.593,0.779
972267,865.0,3917.0,1170.0,0.186,-0.138,0.587,0.775
972283,43.0,3275.0,1042.0,0.208,-0.155,0.581,0.772
972300,-941.0,2221.0,1056.0,0.228,-0.171,0.574,0.767
972317,-1357.0,1021.0,746.0,0.247,-0.185,0.568,0.763
972344,-2261.0,1433.0,452.0,0.262,-0.198,0.562,0.759
972361,-3349.0,295.0,276.0,0.273,-0.209,0.555,0.758
972378,-3931.0,-2627.0,502.0,0.28,-0.218,0.548,0.757
972395,-5653.0,-4457.0,1674.0,0.286,-0.225,0.543,0.757
972411,-5931.0,-3361.0,2312.0,0.287,-0.227,0.541,0.757
972428,-5879.0,-4283.0,2458.0,0.284,-0.225,0.54,0.759
972445,-5665.0,-3593.0,2606.0,0.276,-0.217,0.542,0.763
972461,-5037.0,-2539.0,2318.0,0.264,-0.206,0.544,0.769
972477,-3825.0,-2339.0,1906.0,0.249,-0.191,0.547,0.776
972503,-3195.0,-1435.0,1712.0,0.23,-0.173,0.55,0.784
972519,-2715.0,-561.0,1758.0,0.208,-0.154,0.554,0.791
972535,-1909.0,441.0,1714.0,0.183,-0.133,0.558,0.798
972551,-1051.0,1419.0,1896.0,0.157,-0.11,0.563,0.804
972567,-37.0,2141.0,2188.0,0.129,-0.086,0.566,0.809
972583,1489.0,3225.0,2236.0,0.101,-0.06,0.571,0.812
972609,3149.0,4611.0,2032.0,0.071,-0.033,0.577,0.813
972625,4625.0,7561.0,764.0,0.039,-0.005,0.582,0.813
972642,5393.0,6769.0,1088.0,0.007,0.023,0.585,0.81
972659,5763.0,6615.0,1884.0,0.023,-0.051,-0.589,-0.806
972676,6169.0,7543.0,2036.0,0.052,-0.078,-0.594,-0.799
972693,6975.0,9851.0,1170.0,0.081,-0.105,-0.596,-0.792
972710,7803.0,7717.0,814.0,0.111,-0.133,-0.598,-0.783
972726,8203.0,6777.0,300.0,0.142,-0.161,-0.6,-0.771
972743,9135.0,7433.0,-158.0,0.172,-0.186,-0.602,-0.757
972760,8633.0,8419.0,930.0,0.2,-0.211,-0.602,-0.744
972787,9611.0,8119.0,776.0,0.229,-0.237,-0.599,-0.73
972803,10979.0,7595.0,684.0,0.258,-0.261,-0.596,-0.714
972819,11307.0,6149.0,884.0,0.286,-0.283,-0.592,-0.699
972835,11695.0,7035.0,988.0,0.313,-0.303,-0.586,-0.683
972852,11657.0,6225.0,908.0,0.338,-0.322,-0.579,-0.669
972868,11643.0,6209.0,942.0,0.362,-0.34,-0.571,-0.653
972885,11413.0,5563.0,1094.0,0.386,-0.357,-0.564,-0.637
972901,11607.0,6207.0,1314.0,0.408,-0.373,-0.555,-0.621
972928,11177.0,5801.0,1570.0,0.427,-0.389,-0.547,-0.606
972945,11225.0,5427.0,1598.0,0.443,-0.405,-0.538,-0.592
972961,10795.0,5079.0,1396.0,0.458,-0.42,-0.529,-0.578
972978,10403.0,4693.0,1120.0,0.474,-0.434,-0.519,-0.564
972995,10253.0,5249.0,1158.0,0.488,-0.446,-0.51,-0.551
973011,9939.0,5519.0,1542.0,0.5,-0.458,-0.5,-0.539
973028,9515.0,5099.0,1826.0,0.509,-0.47,-0.491,-0.529
973044,9053.0,4543.0,2026.0,0.514,-0.481,-0.484,-0.52
973061,9141.0,3843.0,1712.0,0.517,-0.49,-0.479,-0.513
973078,8803.0,4501.0,1792.0,0.52,-0.496,-0.476,-0.507
973105,8511.0,4517.0,2000.0,0.521,-0.501,-0.474,-0.504
973121,8297.0,4939.0,2014.0,0.521,-0.504,-0.473,-0.501
973137,7943.0,4967.0,2138.0,0.519,-0.505,-0.474,-0.501
973153,7673.0,5375.0,2044.0,0.516,-0.504,-0.477,-0.502
973169,7515.0,5839.0,2264.0,0.512,-0.502,-0.48,-0.505
973185,7475.0,5809.0,2140.0,0.507,-0.499,-0.483,-0.511
973211,7403.0,5779.0,2306.0,0.501,-0.494,-0.487,-0.518
973228,7625.0,5863.0,2236.0,0.494,-0.487,-0.491,-0.527
973245,7887.0,5555.0,2230.0,0.486,-0.479,-0.496,-0.537
973262,8463.0,5499.0,2084.0,0.477,-0.47,-0.502,-0.548
973278,8921.0,5345.0,2070.0,0.466,-0.458,-0.509,-0.56
973294,9397.0,5367.0,1814.0,0.455,-0.445,-0.517,-0.572
973311,9863.0,5641.0,1760.0,0.442,-0.43,-0.526,-0.585
973328,10153.0,5919.0,1796.0,0.428,-0.414,-0.536,-0.599
973344,10803.0,6057.0,1410.0,0.411,-0.396,-0.545,-0.614
973370,11147.0,6247.0,1332.0,0.394,-0.377,-0.556,-0.628
973386,11625.0,6253.0,1122.0,0.374,-0.356,-0.566,-0.643
973402,11689.0,6631.0,1024.0,0.354,-0.333,-0.577,-0.657
973418,11495.0,7099.0,1092.0,0.332,-0.309,-0.587,-0.671
973435,11307.0,7291.0,1288.0,0.309,-0.284,-0.597,-0.684
973452,11449.0,7125.0,870.0,0.284,-0.259,-0.606,-0.697
973469,11029.0,7215.0,836.0,0.258,-0.233,-0.614,-0.708
973495,10705.0,7873.0,792.0,0.231,-0.206,-0.623,-0.719
973511,10347.0,7821.0,838.0,0.203,-0.179,-0.63,-0.728
973528,9539.0,7775.0,860.0,0.174,-0.152,-0.635,-0.737
973545,8583.0,7629.0,898.0,0.145,-0.124,-0.64,-0.744
973562,7471.0,7297.0,882.0,0.116,-0.097,-0.644,-0.75
973579,6699.0,8041.0,876.0,0.087,-0.071,-0.646,-0.755
973595,6001.0,7661.0,564.0,0.059,-0.045,-0.646,-0.76
973612,4873.0,6517.0,618.0,0.032,-0.021,-0.645,-0.763
973629,4317.0,6661.0,324.0,0.005,0.003,-0.644,-0.765
973645,3175.0,5953.0,612.0,0.021,-0.028,0.641,0.767
973671,3141.0,5331.0,398.0,0.046,-0.052,0.639,0.766
973688,2847.0,6861.0,306.0,0.071,-0.074,0.636,0.765
973704,1985.0,5783.0,722.0,0.095,-0.096,0.63,0.764
973720,1987.0,4347.0,750.0,0.12,-0.116,0.625,0.762
973736,1443.0,5083.0,582.0,0.145,-0.136,0.62,0.759
973752,589.0,3985.0,844.0,0.169,-0.154,0.615,0.755
973778,193.0,3509.0,438.0,0.192,-0.171,0.609,0.75
973795,-983.0,2159.0,726.0,0.214,-0.186,0.603,0.746
973811,-1985.0,1415.0,770.0,0.233,-0.2,0.598,0.74
973828,-2877.0,1317.0,590.0,0.249,-0.211,0.594,0.735
973845,-3657.0,-63.0,618.0,0.26,-0.22,0.589,0.733
973861,-4797.0,-2987.0,1624.0,0.268,-0.227,0.585,0.731
973878,-5679.0,-3439.0,2544.0,0.273,-0.231,0.584,0.729
973895,-6231.0,-3633.0,2970.0,0.275,-0.231,0.583,0.728
973911,-5771.0,-4079.0,2882.0,0.274,-0.226,0.586,0.728
973928,-5423.0,-2801.0,2542.0,0.266,-0.216,0.592,0.729
973945,-4449.0,-1703.0,2074.0,0.255,-0.203,0.599,0.731
973971,-3621.0,-587.0,1526.0,0.238,-0.188,0.606,0.735
973987,-3269.0,-453.0,1600.0,0.218,-0.172,0.612,0.74
974003,-2915.0,133.0,1724.0,0.195,-0.155,0.618,0.746
974019,-2567.0,1037.0,2032.0,0.169,-0.136,0.623,0.751
974035,-1341.0,1283.0,2282.0,0.141,-0.114,0.629,0.756
974062,839.0,2247.0,1158.0,0.111,-0.09,0.637,0.758
974078,1551.0,4429.0,1458.0,0.08,-0.065,0.644,0.758
974095,3003.0,7175.0,860.0,0.048,-0.039,0.648,0.759
974111,4615.0,6279.0,482.0,0.016,-0.013,0.651,0.759
974127,5067.0,6347.0,1118.0,0.015,-0.013,-0.655,-0.755
974143,5801.0,10799.0,262.0,0.046,-0.038,-0.658,-0.751
974159,7873.0,7863.0,-816.0,0.075,-0.062,-0.657,-0.747
974175,6653.0,7823.0,512.0,0.104,-0.085,-0.655,-0.744
974201,7795.0,9809.0,270.0,0.132,-0.107,-0.653,-0.738
974217,7815.0,8357.0,430.0,0.16,-0.13,-0.649,-0.732
974233,7957.0,8159.0,520.0,0.188,-0.153,-0.646,-0.724
974249,7571.0,7617.0,672.0,0.214,-0.177,-0.641,-0.716
974265,7355.0,5199.0,292.0,0.24,-0.201,-0.636,-0.705
974291,9243.0,6577.0,256.0,0.267,-0.224,-0.631,-0.693
974308,9929.0,6865.0,808.0,0.295,-0.246,-0.626,-0.678
974324,9991.0,7001.0,760.0,0.323,-0.269,-0.619,-0.664
974341,10105.0,5603.0,904.0,0.348,-0.291,-0.609,-0.65
974358,11505.0,5007.0,512.0,0.371,-0.312,-0.599,-0.637
974374,12269.0,5923.0,492.0,0.395,-0.33,-0.589,-0.624
974390,10673.0,4837.0,1096.0,0.416,-0.345,-0.578,-0.611
974416,11661.0,5573.0,1042.0,0.436,-0.358,-0.568,-0.599
974432,11101.0,4557.0,1244.0,0.452,-0.372,-0.557,-0.589
974449,11705.0,3083.0,1018.0,0.467,-0.384,-0.547,-0.579
974466,11323.0,3631.0,1960.0,0.481,-0.393,-0.54,-0.568
974483,10503.0,4841.0,2194.0,0.494,-0.4,-0.535,-0.556
974500,10067.0,5429.0,1886.0,0.506,-0.407,-0.531,-0.545
974517,10547.0,5265.0,1142.0,0.516,-0.413,-0.529,-0.533
974533,9659.0,4937.0,680.0,0.523,-0.418,-0.526,-0.524
974549,9197.0,5831.0,888.0,0.528,-0.424,-0.524,-0.517
