timeMs,ax,ay,az,q0,q1,q2,q3
2433034,7781.0,3311.0,922.0,0.476,-0.399,-0.555,-0.554
2433050,7711.0,3211.0,946.0,0.473,-0.395,-0.559,-0.554
2433066,7763.0,3245.0,934.0,0.47,-0.392,-0.563,-0.555
2433082,7745.0,3145.0,930.0,0.467,-0.39,-0.566,-0.556
2433099,7753.0,2861.0,898.0,0.463,-0.387,-0.57,-0.558
2433126,7823.0,3091.0,858.0,0.459,-0.384,-0.574,-0.559
2433143,7657.0,3165.0,844.0,0.456,-0.382,-0.577,-0.56
2433160,7697.0,2971.0,828.0,0.452,-0.38,-0.58,-0.562
2433176,7639.0,3037.0,812.0,0.448,-0.379,-0.582,-0.563
2433192,7629.0,2959.0,802.0,0.445,-0.378,-0.583,-0.565
2433208,7497.0,2871.0,796.0,0.441,-0.377,-0.585,-0.567
2433225,7519.0,2843.0,732.0,0.438,-0.377,-0.585,-0.569
2433241,7499.0,2803.0,778.0,0.435,-0.377,-0.585,-0.57
2433268,7521.0,2725.0,694.0,0.433,-0.378,-0.585,-0.572
2433285,7449.0,2637.0,592.0,0.431,-0.379,-0.584,-0.574
2433302,7589.0,2629.0,632.0,0.429,-0.38,-0.583,-0.576
2433319,7493.0,2623.0,658.0,0.428,-0.382,-0.581,-0.577
2433336,7519.0,2559.0,580.0,0.427,-0.384,-0.579,-0.579
2433352,7503.0,2479.0,558.0,0.426,-0.385,-0.577,-0.581
2433369,7561.0,2537.0,604.0,0.426,-0.387,-0.574,-0.582
2433386,7595.0,2473.0,596.0,0.425,-0.39,-0.571,-0.584
2433403,7669.0,2395.0,444.0,0.425,-0.392,-0.568,-0.585
2433420,7753.0,2465.0,424.0,0.425,-0.395,-0.565,-0.587
2433437,7583.0,2541.0,550.0,0.425,-0.397,-0.562,-0.588
2433453,7677.0,2445.0,660.0,0.424,-0.4,-0.559,-0.59
2433480,7729.0,2291.0,460.0,0.424,-0.403,-0.556,-0.591
2433496,7719.0,2417.0,472.0,0.423,-0.405,-0.553,-0.592
2433512,7713.0,2309.0,516.0,0.423,-0.408,-0.551,-0.593
2433529,7579.0,2417.0,548.0,0.422,-0.411,-0.548,-0.594
2433546,7559.0,2393.0,582.0,0.421,-0.414,-0.546,-0.595
2433562,7675.0,2347.0,578.0,0.42,-0.416,-0.543,-0.596
2433578,7605.0,2315.0,590.0,0.42,-0.419,-0.541,-0.596
2433595,7543.0,2363.0,632.0,0.419,-0.421,-0.54,-0.597
2433612,7559.0,2471.0,632.0,0.418,-0.424,-0.538,-0.597
2433639,7587.0,2449.0,576.0,0.417,-0.426,-0.537,-0.597
2433656,7619.0,2467.0,672.0,0.416,-0.429,-0.536,-0.597
2433672,7561.0,2455.0,740.0,0.415,-0.431,-0.534,-0.597
2433688,7767.0,2483.0,736.0,0.414,-0.434,-0.533,-0.597
2433704,7669.0,2377.0,704.0,0.413,-0.436,-0.532,-0.597
2433720,7641.0,2407.0,748.0,0.412,-0.438,-0.532,-0.596
2433736,7741.0,2597.0,762.0,0.411,-0.44,-0.531,-0.596
2433763,7713.0,2559.0,756.0,0.411,-0.442,-0.53,-0.596
2433780,7583.0,2423.0,830.0,0.41,-0.444,-0.53,-0.595
2433797,7663.0,2523.0,778.0,0.409,-0.446,-0.529,-0.595
2433814,7719.0,2559.0,722.0,0.408,-0.448,-0.529,-0.594
2433831,7683.0,2579.0,704.0,0.407,-0.45,-0.528,-0.594
2433848,7639.0,2621.0,752.0,0.407,-0.452,-0.528,-0.593
2433865,7651.0,2561.0,832.0,0.406,-0.453,-0.527,-0.593
2433881,7743.0,2691.0,864.0,0.405,-0.455,-0.527,-0.593
2433898,7645.0,2665.0,938.0,0.404,-0.456,-0.527,-0.592
2433915,7713.0,2521.0,838.0,0.403,-0.458,-0.526,-0.592
2433932,7717.0,2607.0,734.0,0.401,-0.46,-0.526,-0.592
2433949,7813.0,2479.0,730.0,0.399,-0.462,-0.526,-0.592
2433975,7967.0,2507.0,760.0,0.398,-0.464,-0.525,-0.592
2433992,7831.0,2245.0,642.0,0.397,-0.466,-0.525,-0.592
2434008,7859.0,2311.0,576.0,0.397,-0.467,-0.524,-0.591
2434024,8253.0,1907.0,524.0,0.397,-0.469,-0.523,-0.591
2434040,7709.0,2887.0,484.0,0.396,-0.47,-0.522,-0.591
2434056,7929.0,2449.0,636.0,0.396,-0.472,-0.521,-0.591
2434082,7819.0,2163.0,608.0,0.395,-0.473,-0.52,-0.591
2434099,8053.0,2061.0,682.0,0.395,-0.475,-0.518,-0.591
2434116,8065.0,2021.0,592.0,0.395,-0.476,-0.518,-0.592
2434133,7901.0,2169.0,486.0,0.395,-0.476,-0.517,-0.592
2434150,7997.0,2339.0,578.0,0.395,-0.477,-0.516,-0.592
2434167,8001.0,2245.0,600.0,0.394,-0.477,-0.516,-0.593
2434184,7923.0,2031.0,686.0,0.394,-0.477,-0.515,-0.593
2434201,7879.0,2069.0,598.0,0.394,-0.478,-0.515,-0.593
2434218,7959.0,2039.0,504.0,0.393,-0.478,-0.514,-0.594
2434235,7933.0,1915.0,494.0,0.393,-0.477,-0.515,-0.594
2434252,7877.0,1989.0,522.0,0.393,-0.476,-0.515,-0.595
2434269,7859.0,2179.0,472.0,0.393,-0.476,-0.515,-0.595
2434286,7779.0,2105.0,446.0,0.392,-0.475,-0.516,-0.596
2434303,7697.0,2049.0,484.0,0.392,-0.474,-0.516,-0.596
2434320,7753.0,2223.0,454.0,0.391,-0.473,-0.517,-0.596
2434346,7787.0,2165.0,438.0,0.391,-0.473,-0.518,-0.596
2434363,7761.0,2123.0,336.0,0.39,-0.472,-0.518,-0.596
2434380,7821.0,2133.0,360.0,0.39,-0.472,-0.519,-0.596
2434397,7829.0,2199.0,310.0,0.389,-0.472,-0.52,-0.596
2434414,7761.0,2145.0,266.0,0.389,-0.472,-0.52,-0.596
2434431,7841.0,2277.0,210.0,0.389,-0.472,-0.52,-0.597
2434448,7813.0,2147.0,266.0,0.388,-0.472,-0.52,-0.597
2434464,7855.0,2105.0,260.0,0.388,-0.472,-0.52,-0.597
2434480,7821.0,2299.0,224.0,0.387,-0.473,-0.519,-0.597
2434506,7799.0,2203.0,318.0,0.387,-0.473,-0.518,-0.598
2434523,7707.0,2321.0,346.0,0.386,-0.474,-0.518,-0.598
2434540,7765.0,2299.0,356.0,0.386,-0.476,-0.516,-0.599
2434558,7793.0,2151.0,332.0,0.385,-0.477,-0.515,-0.599
2434574,7843.0,2277.0,296.0,0.384,-0.479,-0.514,-0.6
2434590,7883.0,2211.0,334.0,0.383,-0.48,-0.512,-0.6
2434606,7871.0,2161.0,382.0,0.382,-0.482,-0.51,-0.601
2434623,7827.0,2073.0,368.0,0.381,-0.484,-0.509,-0.601
2434640,7839.0,2049.0,360.0,0.38,-0.486,-0.507,-0.601
2434657,8203.0,1937.0,950.0,0.379,-0.488,-0.506,-0.602
2434674,8137.0,407.0,1332.0,0.382,-0.487,-0.505,-0.602
2434701,7243.0,1971.0,440.0,0.384,-0.486,-0.507,-0.6
2434717,7839.0,2309.0,484.0,0.385,-0.485,-0.509,-0.598
2434734,7869.0,1671.0,302.0,0.386,-0.484,-0.511,-0.596
2434750,8213.0,2211.0,110.0,0.387,-0.483,-0.514,-0.594
2434767,8013.0,2277.0,32.0,0.389,-0.481,-0.516,-0.593
2434783,7929.0,2143.0,288.0,0.39,-0.479,-0.517,-0.592
2434800,7671.0,2279.0,470.0,0.392,-0.478,-0.519,-0.591
2434817,7731.0,2189.0,444.0,0.393,-0.477,-0.52,-0.59
2434843,7777.0,2167.0,378.0,0.394,-0.476,-0.521,-0.589
2434859,7811.0,2237.0,310.0,0.395,-0.476,-0.522,-0.588
2434875,7855.0,2327.0,280.0,0.395,-0.476,-0.523,-0.587
2434891,7913.0,2251.0,244.0,0.396,-0.475,-0.524,-0.586
2434908,7957.0,2165.0,228.0,0.396,-0.475,-0.524,-0.585
2434924,7859.0,2219.0,236.0,0.397,-0.475,-0.524,-0.585
2434940,7809.0,2187.0,286.0,0.397,-0.475,-0.524,-0.585
2434966,7803.0,2181.0,314.0,0.397,-0.475,-0.524,-0.584
2434983,7817.0,2185.0,278.0,0.397,-0.475,-0.524,-0.584
2434999,7841.0,2197.0,284.0,0.397,-0.475,-0.524,-0.584
2435015,7867.0,2179.0,330.0,0.397,-0.476,-0.524,-0.584
2435032,7829.0,2185.0,280.0,0.396,-0.476,-0.524,-0.585
2435048,7885.0,2223.0,252.0,0.396,-0.477,-0.523,-0.585
2435064,7857.0,2155.0,316.0,0.396,-0.477,-0.523,-0.585
2435090,7943.0,2133.0,330.0,0.395,-0.478,-0.522,-0.586
2435106,7953.0,2033.0,360.0,0.394,-0.479,-0.521,-0.586
2435122,7879.0,2205.0,280.0,0.394,-0.48,-0.521,-0.586
2435138,8671.0,1645.0,1368.0,0.394,-0.48,-0.519,-0.587
2435154,7245.0,1605.0,500.0,0.395,-0.479,-0.519,-0.587
2435170,8033.0,2245.0,306.0,0.396,-0.479,-0.52,-0.587
2435196,7853.0,1909.0,184.0,0.396,-0.478,-0.521,-0.586
2435212,8049.0,2137.0,80.0,0.396,-0.477,-0.522,-0.586
2435229,7967.0,2263.0,74.0,0.397,-0.476,-0.523,-0.586
2435246,7771.0,2193.0,96.0,0.397,-0.475,-0.523,-0.586
2435263,7703.0,2135.0,212.0,0.397,-0.475,-0.523,-0.586
2435280,7675.0,2179.0,318.0,0.397,-0.474,-0.523,-0.586
2435296,7697.0,2121.0,336.0,0.397,-0.474,-0.523,-0.586
2435312,7773.0,2297.0,242.0,0.397,-0.475,-0.523,-0.587
2435338,7861.0,2239.0,120.0,0.396,-0.475,-0.522,-0.587
2435355,7937.0,2181.0,168.0,0.395,-0.476,-0.521,-0.587
2435372,7917.0,2129.0,148.0,0.394,-0.477,-0.52,-0.588
2435389,7829.0,1945.0,144.0,0.393,-0.479,-0.519,-0.589
2435406,8629.0,1947.0,1166.0,0.393,-0.48,-0.518,-0.59
2435423,7409.0,1067.0,544.0,0.394,-0.48,-0.516,-0.59
2435439,7783.0,1555.0,346.0,0.394,-0.48,-0.517,-0.589
2435455,7809.0,1941.0,80.0,0.394,-0.48,-0.519,-0.588
2435471,7929.0,1919.0,-62.0,0.394,-0.479,-0.52,-0.587
2435497,8291.0,2193.0,366.0,0.394,-0.478,-0.522,-0.587
2435514,7817.0,1667.0,268.0,0.395,-0.477,-0.523,-0.586
2435530,7785.0,2015.0,180.0,0.396,-0.476,-0.524,-0.585
2435546,7779.0,2361.0,210.0,0.396,-0.475,-0.525,-0.585
2435562,7829.0,2119.0,380.0,0.396,-0.474,-0.526,-0.584
2435578,7695.0,2035.0,252.0,0.396,-0.473,-0.527,-0.584
2435604,7763.0,2151.0,174.0,0.397,-0.473,-0.528,-0.583
2435621,7879.0,2179.0,114.0,0.397,-0.472,-0.529,-0.582
2435638,7909.0,2209.0,122.0,0.397,-0.472,-0.53,-0.582
2435655,7885.0,2267.0,156.0,0.397,-0.472,-0.531,-0.581
2435672,7857.0,2205.0,208.0,0.397,-0.472,-0.531,-0.581
2435689,7917.0,2083.0,212.0,0.398,-0.472,-0.531,-0.581
2435706,7841.0,2135.0,232.0,0.398,-0.472,-0.531,-0.58
2435723,7829.0,2087.0,294.0,0.398,-0.472,-0.531,-0.58
2435740,7921.0,2075.0,192.0,0.398,-0.472,-0.532,-0.58
2435757,7947.0,2161.0,174.0,0.398,-0.473,-0.532,-0.58
2435774,7907.0,2149.0,230.0,0.397,-0.473,-0.531,-0.579
2435791,7837.0,2087.0,264.0,0.397,-0.474,-0.531,-0.58
2435808,7831.0,2123.0,284.0,0.397,-0.474,-0.531,-0.58
2435834,7901.0,2095.0,158.0,0.396,-0.475,-0.53,-0.58
2435851,7945.0,2149.0,188.0,0.395,-0.476,-0.53,-0.58
2435867,7857.0,2127.0,112.0,0.395,-0.477,-0.529,-0.58
2435884,7907.0,2097.0,126.0,0.394,-0.478,-0.528,-0.581
2435900,7833.0,2107.0,138.0,0.394,-0.479,-0.527,-0.581
2435916,7821.0,1969.0,152.0,0.393,-0.481,-0.526,-0.581
2435932,7861.0,1933.0,184.0,0.393,-0.482,-0.525,-0.581
2435958,7897.0,1941.0,176.0,0.393,-0.482,-0.524,-0.581
2435974,7843.0,1821.0,170.0,0.393,-0.483,-0.524,-0.581
2435990,7939.0,1835.0,190.0,0.393,-0.484,-0.524,-0.581
2436006,7855.0,1837.0,218.0,0.393,-0.484,-0.523,-0.581
2436022,7871.0,1881.0,246.0,0.393,-0.483,-0.524,-0.581
2436038,7937.0,1929.0,180.0,0.393,-0.483,-0.524,-0.581
2436064,7945.0,2011.0,152.0,0.393,-0.483,-0.524,-0.581
2436080,7881.0,2065.0,254.0,0.393,-0.482,-0.525,-0.581
2436096,7941.0,1987.0,224.0,0.393,-0.482,-0.525,-0.581
2436113,7961.0,2137.0,126.0,0.393,-0.482,-0.525,-0.581
2436129,7933.0,2095.0,126.0,0.393,-0.482,-0.525,-0.581
2436145,7971.0,2075.0,192.0,0.393,-0.482,-0.525,-0.581
2436161,7833.0,2103.0,190.0,0.393,-0.482,-0.525,-0.581
2436187,7975.0,1989.0,244.0,0.393,-0.482,-0.525,-0.581
2436203,7935.0,2015.0,200.0,0.393,-0.482,-0.525,-0.581
2436219,7947.0,1999.0,282.0,0.393,-0.482,-0.524,-0.582
2436235,8037.0,1955.0,172.0,0.393,-0.482,-0.524,-0.582
2436251,7961.0,1999.0,98.0,0.393,-0.482,-0.524,-0.582
2436270,7933.0,2035.0,148.0,0.393,-0.483,-0.523,-0.582
2436286,7943.0,1913.0,154.0,0.393,-0.483,-0.523,-0.582
2436312,7823.0,1971.0,236.0,0.393,-0.483,-0.522,-0.583
2436329,7879.0,1867.0,238.0,0.393,-0.483,-0.522,-0.583
2436345,7983.0,1947.0,132.0,0.393,-0.483,-0.521,-0.583
2436362,7889.0,2047.0,166.0,0.393,-0.483,-0.521,-0.584
2436378,7945.0,1853.0,184.0,0.393,-0.483,-0.521,-0.584
2436394,7927.0,1897.0,188.0,0.393,-0.483,-0.52,-0.584
2436411,7931.0,1991.0,146.0,0.393,-0.483,-0.52,-0.584
2436427,7855.0,1915.0,204.0,0.394,-0.483,-0.52,-0.585
2436444,7885.0,1947.0,264.0,0.394,-0.483,-0.52,-0.585
2436470,7879.0,1801.0,268.0,0.394,-0.483,-0.519,-0.585
2436486,7891.0,1963.0,174.0,0.394,-0.482,-0.519,-0.585
2436502,7939.0,1917.0,202.0,0.394,-0.482,-0.519,-0.585
2436518,7921.0,1895.0,172.0,0.394,-0.482,-0.519,-0.585
2436534,7901.0,1917.0,118.0,0.395,-0.482,-0.519,-0.585
2436550,7923.0,1921.0,188.0,0.395,-0.482,-0.519,-0.585
2436577,7885.0,1879.0,230.0,0.395,-0.482,-0.519,-0.585
2436594,7969.0,1875.0,142.0,0.395,-0.482,-0.519,-0.585
2436610,7895.0,1853.0,130.0,0.395,-0.481,-0.519,-0.585
2436627,7863.0,1935.0,214.0,0.396,-0.481,-0.519,-0.585
2436643,7851.0,1867.0,212.0,0.396,-0.481,-0.52,-0.585
2436659,7893.0,1831.0,212.0,0.396,-0.481,-0.52,-0.584
2436676,7905.0,1895.0,160.0,0.397,-0.481,-0.52,-0.584
2436693,7813.0,1915.0,190.0,0.397,-0.48,-0.521,-0.584
2436719,7863.0,1797.0,260.0,0.397,-0.48,-0.521,-0.583
2436735,7897.0,1865.0,140.0,0.398,-0.48,-0.521,-0.583
2436752,7901.0,1955.0,108.0,0.398,-0.48,-0.522,-0.583
2436768,7865.0,1833.0,232.0,0.398,-0.479,-0.522,-0.582
2436785,7927.0,1917.0,210.0,0.399,-0.479,-0.523,-0.582
2436801,7851.0,1955.0,242.0,0.399,-0.478,-0.523,-0.581
2436818,7917.0,1853.0,200.0,0.4,-0.478,-0.524,-0.581
2436835,7897.0,1921.0,138.0,0.4,-0.478,-0.524,-0.581
2436851,7933.0,1953.0,156.0,0.4,-0.477,-0.525,-0.58
2436877,7931.0,1957.0,258.0,0.401,-0.477,-0.525,-0.58
2436894,7961.0,1965.0,222.0,0.401,-0.476,-0.526,-0.579
2436910,7967.0,1945.0,178.0,0.402,-0.476,-0.527,-0.579
2436926,8009.0,1961.0,198.0,0.402,-0.475,-0.527,-0.578
2436942,7945.0,1915.0,240.0,0.403,-0.475,-0.528,-0.578
2436958,7885.0,1971.0,232.0,0.403,-0.474,-0.528,-0.578
2436984,7865.0,1939.0,220.0,0.403,-0.474,-0.529,-0.577
2437002,7925.0,1971.0,160.0,0.403,-0.474,-0.529,-0.577
2437019,7921.0,2001.0,224.0,0.404,-0.473,-0.53,-0.577
2437036,7885.0,1917.0,124.0,0.404,-0.473,-0.53,-0.577
2437053,7839.0,1979.0,152.0,0.404,-0.472,-0.53,-0.576
2437070,7909.0,1923.0,212.0,0.405,-0.472,-0.531,-0.576
2437087,7927.0,1961.0,184.0,0.405,-0.471,-0.531,-0.576
2437104,7813.0,1983.0,178.0,0.406,-0.471,-0.532,-0.576
2437121,7929.0,1915.0,198.0,0.406,-0.47,-0.532,-0.575
2437138,7911.0,2001.0,186.0,0.406,-0.47,-0.533,-0.575
2437155,7925.0,2005.0,198.0,0.407,-0.469,-0.533,-0.575
2437172,7937.0,1939.0,170.0,0.407,-0.469,-0.533,-0.575
2437189,7973.0,2007.0,156.0,0.407,-0.468,-0.534,-0.575
2437206,7885.0,2007.0,172.0,0.408,-0.468,-0.534,-0.574
2437232,7907.0,1981.0,144.0,0.408,-0.468,-0.534,-0.574
2437249,7857.0,1957.0,152.0,0.409,-0.467,-0.534,-0.574
2437266,7943.0,1901.0,200.0,0.409,-0.467,-0.534,-0.574
2437283,7903.0,1941.0,146.0,0.41,-0.466,-0.535,-0.574
2437300,7911.0,2057.0,168.0,0.41,-0.466,-0.535,-0.573
2437317,7933.0,1909.0,148.0,0.411,-0.466,-0.535,-0.573
2437334,7959.0,1939.0,150.0,0.411,-0.465,-0.535,-0.573
2437351,7975.0,1967.0,128.0,0.412,-0.465,-0.535,-0.573
2437368,7943.0,1901.0,178.0,0.412,-0.464,-0.535,-0.573
2437385,8015.0,1815.0,220.0,0.413,-0.464,-0.536,-0.572
2437401,8007.0,1873.0,146.0,0.413,-0.463,-0.536,-0.572
2437418,8075.0,1949.0,186.0,0.414,-0.463,-0.536,-0.572
2437435,8047.0,1939.0,148.0,0.414,-0.462,-0.537,-0.572
2437462,7965.0,1925.0,136.0,0.414,-0.462,-0.537,-0.572
2437479,7941.0,1941.0,236.0,0.415,-0.461,-0.538,-0.571
2437495,7905.0,1997.0,222.0,0.415,-0.46,-0.538,-0.571
2437512,7863.0,1993.0,252.0,0.416,-0.459,-0.539,-0.571
2437528,7835.0,2013.0,254.0,0.416,-0.459,-0.539,-0.571
2437544,7779.0,2021.0,222.0,0.416,-0.459,-0.54,-0.57
2437561,7867.0,2013.0,214.0,0.417,-0.459,-0.54,-0.57
2437578,7933.0,2043.0,164.0,0.417,-0.459,-0.54,-0.57
2437604,7815.0,1959.0,198.0,0.417,-0.459,-0.54,-0.57
2437620,7875.0,1951.0,274.0,0.417,-0.459,-0.54,-0.57
2437637,7831.0,1761.0,224.0,0.417,-0.459,-0.54,-0.569
2437654,7851.0,1819.0,248.0,0.417,-0.459,-0.54,-0.569
2437671,7869.0,1951.0,186.0,0.417,-0.458,-0.541,-0.569
2437688,7863.0,2069.0,132.0,0.418,-0.458,-0.541,-0.568
2437705,7823.0,2173.0,194.0,0.418,-0.457,-0.542,-0.568
2437722,8029.0,1979.0,178.0,0.419,-0.457,-0.542,-0.567
2437739,7935.0,2135.0,98.0,0.42,-0.457,-0.542,-0.567
2437755,7973.0,2259.0,224.0,0.42,-0.456,-0.542,-0.567
2437772,7973.0,1961.0,324.0,0.421,-0.456,-0.542,-0.567
2437798,7991.0,1825.0,324.0,0.421,-0.456,-0.542,-0.567
2437814,8051.0,1759.0,354.0,0.421,-0.456,-0.541,-0.567
2437831,8119.0,1783.0,322.0,0.421,-0.456,-0.541,-0.567
2437848,8141.0,2001.0,226.0,0.421,-0.456,-0.542,-0.567
2437865,8057.0,2145.0,238.0,0.421,-0.456,-0.542,-0.567
2437881,8075.0,2039.0,178.0,0.421,-0.456,-0.541,-0.567
2437898,8069.0,2131.0,200.0,0.421,-0.456,-0.541,-0.568
2437914,8069.0,2045.0,258.0,0.421,-0.456,-0.541,-0.568
2437931,8035.0,1933.0,372.0,0.421,-0.456,-0.54,-0.568
2437958,7917.0,2055.0,348.0,0.42,-0.457,-0.54,-0.569
2437974,7825.0,2119.0,494.0,0.42,-0.458,-0.539,-0.569
2437990,7985.0,2043.0,316.0,0.419,-0.459,-0.537,-0.57
2438006,8031.0,1975.0,114.0,0.419,-0.461,-0.536,-0.57
2438023,7971.0,2065.0,94.0,0.418,-0.463,-0.533,-0.571
2438040,7903.0,1853.0,232.0,0.418,-0.466,-0.531,-0.572
2438056,7865.0,1489.0,246.0,0.417,-0.467,-0.529,-0.573
2438073,7811.0,1687.0,178.0,0.417,-0.469,-0.527,-0.573
2438099,7743.0,1793.0,200.0,0.417,-0.47,-0.525,-0.574
2438115,7915.0,1631.0,234.0,0.417,-0.471,-0.523,-0.575
2438131,7735.0,1731.0,200.0,0.417,-0.471,-0.522,-0.576
2438148,7785.0,1743.0,164.0,0.417,-0.471,-0.521,-0.577
2438164,7781.0,1787.0,236.0,0.417,-0.471,-0.52,-0.578
2438180,7779.0,1907.0,354.0,0.417,-0.471,-0.519,-0.579
2438196,7653.0,1261.0,430.0,0.417,-0.47,-0.519,-0.579
2438223,7839.0,1791.0,330.0,0.417,-0.469,-0.52,-0.58
2438239,8033.0,1787.0,208.0,0.417,-0.468,-0.521,-0.58
2438255,7973.0,1711.0,366.0,0.416,-0.467,-0.521,-0.58
2438271,8055.0,1783.0,464.0,0.417,-0.466,-0.522,-0.58
2438287,8035.0,1993.0,500.0,0.417,-0.466,-0.522,-0.581
2438303,7949.0,1971.0,502.0,0.417,-0.466,-0.522,-0.58
2438329,7967.0,1945.0,434.0,0.417,-0.466,-0.522,-0.58
2438346,7853.0,2081.0,328.0,0.417,-0.467,-0.521,-0.58
2438362,7835.0,1899.0,304.0,0.417,-0.468,-0.52,-0.581
2438379,7729.0,1721.0,280.0,0.416,-0.469,-0.519,-0.581
2438396,7853.0,1705.0,308.0,0.416,-0.47,-0.518,-0.582
2438413,7843.0,1643.0,450.0,0.416,-0.47,-0.516,-0.582
2438429,7675.0,1447.0,522.0,0.416,-0.471,-0.515,-0.583
2438446,7763.0,1577.0,446.0,0.416,-0.471,-0.515,-0.583
2438463,7845.0,1743.0,312.0,0.416,-0.471,-0.515,-0.584
2438489,7969.0,1815.0,360.0,0.416,-0.471,-0.514,-0.584
2438505,8043.0,1611.0,286.0,0.416,-0.47,-0.514,-0.585
2438522,7945.0,1639.0,336.0,0.416,-0.47,-0.514,-0.585
2438538,7881.0,1713.0,406.0,0.416,-0.469,-0.514,-0.586
2438555,7981.0,1765.0,466.0,0.416,-0.468,-0.514,-0.586
2438572,7983.0,1733.0,492.0,0.416,-0.467,-0.514,-0.587
2438588,8045.0,1579.0,490.0,0.416,-0.466,-0.515,-0.587
2438605,7827.0,1883.0,512.0,0.415,-0.466,-0.515,-0.587
2438622,7887.0,1985.0,524.0,0.415,-0.465,-0.516,-0.588
2438639,7973.0,1817.0,422.0,0.415,-0.465,-0.516,-0.588
2438665,7979.0,1847.0,344.0,0.414,-0.465,-0.516,-0.588
2438681,7829.0,1911.0,498.0,0.414,-0.465,-0.516,-0.588
2438697,7915.0,1717.0,590.0,0.414,-0.465,-0.516,-0.589
2438713,7979.0,1727.0,466.0,0.413,-0.465,-0.516,-0.588
2438730,7949.0,1825.0,366.0,0.413,-0.465,-0.517,-0.588
2438747,7947.0,1837.0,438.0,0.413,-0.465,-0.517,-0.588
2438764,7971.0,1703.0,400.0,0.412,-0.466,-0.517,-0.588
2438780,7939.0,1761.0,370.0,0.412,-0.465,-0.517,-0.588
2438807,7853.0,1835.0,382.0,0.412,-0.465,-0.518,-0.588
2438823,7795.0,1801.0,376.0,0.413,-0.465,-0.518,-0.587
2438839,7859.0,1749.0,452.0,0.413,-0.464,-0.519,-0.587
2438855,7897.0,1775.0,358.0,0.413,-0.464,-0.52,-0.586
2438871,7893.0,1877.0,358.0,0.414,-0.463,-0.521,-0.585
2438888,7945.0,1971.0,336.0,0.414,-0.462,-0.522,-0.584
2438905,7985.0,1885.0,322.0,0.415,-0.462,-0.523,-0.584
2438922,7957.0,1891.0,312.0,0.416,-0.461,-0.524,-0.583
2438948,7961.0,1899.0,418.0,0.416,-0.46,-0.525,-0.583
2438964,7963.0,1879.0,406.0,0.417,-0.459,-0.526,-0.582
2438981,7969.0,1949.0,476.0,0.417,-0.458,-0.527,-0.581
2438998,7931.0,1899.0,450.0,0.418,-0.458,-0.528,-0.581
2439015,7969.0,1973.0,376.0,0.418,-0.457,-0.529,-0.58
2439032,7945.0,2015.0,362.0,0.419,-0.456,-0.53,-0.579
2439049,7887.0,2037.0,420.0,0.419,-0.456,-0.53,-0.579
2439065,7905.0,2007.0,458.0,0.42,-0.456,-0.531,-0.579
2439082,8027.0,1953.0,400.0,0.42,-0.455,-0.531,-0.578
2439099,7919.0,2057.0,422.0,0.42,-0.455,-0.531,-0.578
2439125,7923.0,1963.0,464.0,0.421,-0.455,-0.531,-0.577
2439141,7921.0,1981.0,332.0,0.421,-0.455,-0.532,-0.577
2439157,7893.0,1957.0,336.0,0.421,-0.455,-0.532,-0.577
2439173,7849.0,1895.0,368.0,0.422,-0.455,-0.532,-0.576
2439190,7847.0,1845.0,444.0,0.422,-0.455,-0.532,-0.576
2439207,7849.0,1885.0,364.0,0.422,-0.455,-0.532,-0.576
2439223,7899.0,1817.0,336.0,0.422,-0.455,-0.532,-0.576
2439249,7869.0,1933.0,374.0,0.423,-0.455,-0.532,-0.576
2439265,7793.0,1817.0,404.0,0.423,-0.454,-0.533,-0.575
2439282,7913.0,1911.0,358.0,0.423,-0.454,-0.533,-0.575
2439299,7931.0,1925.0,374.0,0.424,-0.453,-0.534,-0.575
2439315,7929.0,1921.0,398.0,0.424,-0.453,-0.534,-0.575
2439331,7921.0,1963.0,392.0,0.424,-0.452,-0.534,-0.574
2439348,7935.0,1947.0,380.0,0.424,-0.452,-0.535,-0.574
2439374,7927.0,1915.0,324.0,0.425,-0.452,-0.535,-0.574
2439391,7997.0,1917.0,364.0,0.425,-0.451,-0.535,-0.574
2439407,7897.0,1949.0,356.0,0.425,-0.451,-0.535,-0.574
2439423,7989.0,1907.0,350.0,0.425,-0.451,-0.536,-0.574
2439439,7937.0,1983.0,344.0,0.425,-0.451,-0.536,-0.573
2439455,7933.0,1979.0,382.0,0.425,-0.451,-0.536,-0.573
2439471,7935.0,1951.0,320.0,0.425,-0.451,-0.536,-0.573
2439488,7937.0,1957.0,354.0,0.426,-0.451,-0.536,-0.573
2439515,7913.0,1879.0,306.0,0.426,-0.451,-0.536,-0.573
2439532,7905.0,1895.0,282.0,0.426,-0.451,-0.536,-0.573
2439549,7821.0,1913.0,416.0,0.426,-0.45,-0.536,-0.573
2439566,7921.0,1869.0,370.0,0.426,-0.45,-0.536,-0.573
2439582,7917.0,1901.0,278.0,0.426,-0.45,-0.536,-0.573
2439599,7887.0,1893.0,298.0,0.426,-0.45,-0.537,-0.573
2439616,7837.0,1891.0,310.0,0.426,-0.45,-0.537,-0.573
2439633,7933.0,1855.0,258.0,0.426,-0.449,-0.537,-0.573
2439650,7831.0,1867.0,306.0,0.427,-0.449,-0.537,-0.573
2439667,7871.0,1931.0,298.0,0.427,-0.449,-0.538,-0.572
2439684,7821.0,2003.0,336.0,0.427,-0.448,-0.538,-0.572
2439701,7861.0,1967.0,290.0,0.427,-0.448,-0.538,-0.572
2439728,7951.0,1915.0,270.0,0.427,-0.448,-0.538,-0.572
2439745,7937.0,1873.0,286.0,0.428,-0.447,-0.539,-0.572
2439761,7941.0,1969.0,294.0,0.428,-0.447,-0.539,-0.572
2439778,7833.0,1947.0,348.0,0.428,-0.447,-0.539,-0.571
2439795,7861.0,1871.0,290.0,0.429,-0.446,-0.539,-0.571
2439812,7863.0,1921.0,262.0,0.429,-0.446,-0.539,-0.571
2439828,7913.0,1859.0,322.0,0.429,-0.446,-0.54,-0.571
2439845,7881.0,1915.0,316.0,0.429,-0.445,-0.54,-0.571
2439861,7915.0,1883.0,310.0,0.43,-0.445,-0.54,-0.57
2439878,7879.0,1869.0,288.0,0.43,-0.445,-0.541,-0.57
2439904,7871.0,1911.0,364.0,0.43,-0.444,-0.541,-0.57
2439921,7875.0,1901.0,294.0,0.431,-0.444,-0.541,-0.57
2439937,7883.0,1949.0,270.0,0.431,-0.443,-0.542,-0.569
2439954,7875.0,1961.0,290.0,0.431,-0.443,-0.543,-0.569
2439971,7903.0,1911.0,344.0,0.431,-0.442,-0.543,-0.569
2439988,7847.0,1913.0,348.0,0.432,-0.442,-0.544,-0.568
2440005,7971.0,2011.0,258.0,0.432,-0.442,-0.544,-0.568
2440021,7997.0,1991.0,322.0,0.432,-0.441,-0.545,-0.567
2440038,7955.0,2015.0,332.0,0.432,-0.441,-0.545,-0.567
2440055,8039.0,1979.0,242.0,0.433,-0.44,-0.546,-0.566
2440072,7943.0,2067.0,268.0,0.433,-0.44,-0.546,-0.566
2440099,7855.0,2021.0,358.0,0.433,-0.44,-0.547,-0.566
2440116,7977.0,1923.0,358.0,0.433,-0.44,-0.547,-0.565
2440133,7985.0,2023.0,232.0,0.433,-0.44,-0.547,-0.565
2440149,7895.0,2065.0,262.0,0.434,-0.439,-0.548,-0.565
2440165,7849.0,1951.0,416.0,0.434,-0.439,-0.548,-0.565
2440181,7839.0,2051.0,388.0,0.434,-0.439,-0.548,-0.565
2440197,7893.0,2011.0,276.0,0.434,-0.439,-0.548,-0.564
2440223,7817.0,2043.0,244.0,0.434,-0.439,-0.548,-0.564
2440240,7825.0,2047.0,284.0,0.434,-0.439,-0.548,-0.564
2440257,7865.0,1953.0,326.0,0.434,-0.439,-0.548,-0.564
2440273,7839.0,1961.0,304.0,0.435,-0.438,-0.548,-0.564
2440289,7943.0,1977.0,242.0,0.435,-0.438,-0.548,-0.564
2440305,7889.0,2085.0,310.0,0.435,-0.438,-0.548,-0.564
2440321,7949.0,2029.0,332.0,0.435,-0.438,-0.549,-0.564
2440347,7945.0,2075.0,292.0,0.435,-0.437,-0.549,-0.564
2440363,8047.0,2075.0,254.0,0.435,-0.437,-0.549,-0.564
2440379,8075.0,2095.0,396.0,0.436,-0.437,-0.549,-0.564
2440395,8025.0,2133.0,496.0,0.436,-0.437,-0.549,-0.564
2440411,8069.0,2197.0,340.0,0.436,-0.437,-0.549,-0.564
2440427,8183.0,2229.0,266.0,0.436,-0.437,-0.548,-0.564
2440444,8067.0,2013.0,356.0,0.436,-0.438,-0.548,-0.565
2440470,7929.0,1973.0,362.0,0.435,-0.438,-0.546,-0.565
2440487,7777.0,1931.0,412.0,0.435,-0.439,-0.545,-0.567
2440504,7639.0,1759.0,482.0,0.434,-0.44,-0.543,-0.568
2440521,7669.0,1773.0,450.0,0.434,-0.441,-0.542,-0.569
2440538,7669.0,1825.0,304.0,0.433,-0.442,-0.541,-0.569
2440554,7811.0,1865.0,202.0,0.432,-0.443,-0.541,-0.57
2440571,7797.0,1817.0,190.0,0.432,-0.443,-0.54,-0.571
2440588,7827.0,1857.0,228.0,0.432,-0.443,-0.54,-0.571
2440604,7823.0,1909.0,296.0,0.432,-0.442,-0.539,-0.572
2440621,7867.0,1901.0,368.0,0.432,-0.442,-0.539,-0.572
2440647,7803.0,1801.0,374.0,0.432,-0.441,-0.539,-0.573
2440664,7873.0,2017.0,434.0,0.433,-0.441,-0.539,-0.573
2440680,7895.0,2009.0,406.0,0.433,-0.44,-0.539,-0.573
2440696,8007.0,2015.0,354.0,0.433,-0.44,-0.539,-0.573
2440713,8007.0,1937.0,268.0,0.432,-0.44,-0.539,-0.573
2440729,8047.0,2011.0,296.0,0.432,-0.44,-0.539,-0.574
2440746,7999.0,1909.0,352.0,0.432,-0.44,-0.538,-0.574
2440763,7919.0,1893.0,320.0,0.432,-0.441,-0.538,-0.575
2440780,7933.0,1833.0,290.0,0.432,-0.441,-0.537,-0.575
2440807,8007.0,1915.0,378.0,0.432,-0.441,-0.537,-0.575
2440824,7841.0,1813.0,366.0,0.432,-0.441,-0.537,-0.575
2440840,7833.0,1825.0,370.0,0.432,-0.441,-0.537,-0.575
2440856,7907.0,1829.0,296.0,0.432,-0.441,-0.537,-0.575
2440872,7837.0,1831.0,316.0,0.432,-0.441,-0.538,-0.574
2440888,7833.0,1917.0,372.0,0.432,-0.441,-0.538,-0.574
2440905,7799.0,1815.0,406.0,0.432,-0.441,-0.538,-0.574
2440931,7847.0,1921.0,306.0,0.433,-0.441,-0.539,-0.573
2440948,7875.0,1911.0,288.0,0.433,-0.44,-0.539,-0.572
2440965,7813.0,1935.0,362.0,0.433,-0.44,-0.54,-0.572
2440982,7903.0,1857.0,384.0,0.433,-0.44,-0.541,-0.571
2440999,7971.0,1939.0,302.0,0.434,-0.439,-0.542,-0.571
2441016,8019.0,1941.0,320.0,0.434,-0.439,-0.542,-0.57
2441033,7969.0,1989.0,374.0,0.435,-0.438,-0.543,-0.569
2441050,8093.0,1941.0,328.0,0.435,-0.438,-0.544,-0.569
2441067,8001.0,2049.0,354.0,0.436,-0.437,-0.544,-0.568
2441084,7903.0,1957.0,422.0,0.436,-0.437,-0.545,-0.568
2441100,7871.0,2095.0,442.0,0.437,-0.436,-0.545,-0.567
2441126,7867.0,2001.0,370.0,0.437,-0.436,-0.546,-0.567
2441143,7827.0,2053.0,370.0,0.437,-0.436,-0.546,-0.566
2441159,7811.0,2023.0,420.0,0.437,-0.436,-0.546,-0.566
2441175,7853.0,1939.0,426.0,0.437,-0.436,-0.546,-0.566
2441191,7901.0,2053.0,334.0,0.438,-0.436,-0.547,-0.565
2441207,7757.0,1995.0,338.0,0.438,-0.436,-0.546,-0.565
2441223,7869.0,1933.0,336.0,0.438,-0.436,-0.546,-0.565
2441249,7827.0,1959.0,370.0,0.438,-0.436,-0.547,-0.565
2441266,7865.0,1927.0,392.0,0.439,-0.436,-0.547,-0.565
2441282,7813.0,1909.0,374.0,0.439,-0.435,-0.547,-0.565
2441298,7871.0,1975.0,380.0,0.439,-0.435,-0.547,-0.565
2441315,7853.0,1903.0,320.0,0.439,-0.435,-0.547,-0.565
2441332,7849.0,1999.0,370.0,0.439,-0.434,-0.547,-0.565
2441349,7867.0,1925.0,376.0,0.44,-0.434,-0.547,-0.565
2441366,7913.0,1959.0,346.0,0.44,-0.433,-0.548,-0.565
2441383,7857.0,1959.0,386.0,0.44,-0.433,-0.548,-0.565
2441409,7895.0,1945.0,354.0,0.44,-0.432,-0.548,-0.565
2441426,7839.0,1947.0,346.0,0.44,-0.432,-0.548,-0.565
2441442,7935.0,1985.0,390.0,0.44,-0.432,-0.549,-0.565
2441458,7943.0,1963.0,350.0,0.44,-0.431,-0.549,-0.565
2441474,7923.0,1961.0,298.0,0.44,-0.431,-0.549,-0.565
2441490,7919.0,1961.0,252.0,0.441,-0.431,-0.549,-0.564
2441506,7957.0,1969.0,276.0,0.441,-0.43,-0.55,-0.564
2441532,7907.0,1925.0,340.0,0.441,-0.43,-0.55,-0.564
2441548,7903.0,1913.0,392.0,0.441,-0.43,-0.55,-0.564
2441565,7895.0,1887.0,328.0,0.441,-0.43,-0.55,-0.564
2441582,7967.0,1991.0,298.0,0.441,-0.429,-0.551,-0.564
2441598,7963.0,1935.0,316.0,0.441,-0.429,-0.551,-0.563
2441614,7897.0,1953.0,328.0,0.441,-0.429,-0.551,-0.563
2441631,7937.0,1937.0,282.0,0.442,-0.428,-0.552,-0.563
2441657,7843.0,2005.0,338.0,0.442,-0.428,-0.552,-0.563
2441673,7877.0,1991.0,318.0,0.442,-0.428,-0.553,-0.562
2441689,7907.0,2053.0,220.0,0.442,-0.428,-0.553,-0.562
2441705,7859.0,1985.0,292.0,0.442,-0.427,-0.553,-0.562
2441721,7843.0,1985.0,284.0,0.442,-0.427,-0.554,-0.562
2441737,7889.0,2011.0,304.0,0.443,-0.427,-0.554,-0.561
2441763,7903.0,2035.0,280.0,0.443,-0.427,-0.554,-0.561
2441780,7919.0,2045.0,274.0,0.443,-0.427,-0.554,-0.56
2441796,7845.0,2007.0,308.0,0.443,-0.427,-0.555,-0.56
2441813,7923.0,1997.0,264.0,0.444,-0.426,-0.555,-0.56
2441830,7903.0,2025.0,272.0,0.444,-0.426,-0.555,-0.559
2441847,7855.0,1977.0,238.0,0.444,-0.426,-0.556,-0.559
2441863,7955.0,1977.0,280.0,0.445,-0.426,-0.556,-0.558
2441880,7913.0,1951.0,350.0,0.445,-0.425,-0.557,-0.558
2441896,7873.0,1993.0,278.0,0.445,-0.425,-0.557,-0.558
2441922,7959.0,2055.0,278.0,0.445,-0.425,-0.558,-0.557
2441938,7971.0,1987.0,312.0,0.446,-0.424,-0.558,-0.557
2441954,7921.0,2091.0,324.0,0.446,-0.424,-0.559,-0.556
2441970,7885.0,2049.0,298.0,0.446,-0.424,-0.559,-0.556
2441986,7889.0,1991.0,280.0,0.446,-0.423,-0.559,-0.556
2442002,7807.0,1995.0,278.0,0.447,-0.423,-0.56,-0.555
2442028,7853.0,2145.0,282.0,0.447,-0.423,-0.56,-0.555
2442044,7843.0,2073.0,262.0,0.447,-0.423,-0.56,-0.555
2442060,7921.0,2035.0,262.0,0.447,-0.423,-0.56,-0.554
2442076,7891.0,1983.0,244.0,0.447,-0.423,-0.56,-0.554
2442092,7965.0,1965.0,296.0,0.447,-0.423,-0.56,-0.554
2442108,7887.0,1949.0,246.0,0.447,-0.423,-0.56,-0.554
2442135,7861.0,2003.0,238.0,0.447,-0.423,-0.56,-0.554
2442152,7933.0,1981.0,240.0,0.448,-0.423,-0.56,-0.554
2442168,7843.0,1919.0,274.0,0.448,-0.423,-0.56,-0.554
2442184,7895.0,1985.0,284.0,0.448,-0.423,-0.56,-0.554
2442200,7887.0,2001.0,252.0,0.448,-0.423,-0.561,-0.553
2442216,7933.0,2035.0,176.0,0.448,-0.423,-0.561,-0.553
2442232,7939.0,2017.0,242.0,0.448,-0.422,-0.561,-0.553
2442249,7869.0,1981.0,272.0,0.448,-0.422,-0.561,-0.553
2442267,7955.0,2029.0,200.0,0.449,-0.422,-0.561,-0.553
2442294,7955.0,2015.0,206.0,0.449,-0.422,-0.561,-0.553
2442311,7925.0,1955.0,316.0,0.449,-0.422,-0.561,-0.553
2442327,7943.0,2031.0,246.0,0.449,-0.421,-0.561,-0.553
2442344,7889.0,2055.0,266.0,0.449,-0.421,-0.561,-0.553
2442361,7977.0,1963.0,222.0,0.449,-0.421,-0.562,-0.553
2442378,7937.0,2033.0,274.0,0.449,-0.421,-0.562,-0.553
2442395,7889.0,1985.0,246.0,0.449,-0.421,-0.562,-0.553
2442412,7871.0,1987.0,208.0,0.449,-0.421,-0.562,-0.553
2442429,7895.0,1999.0,246.0,0.45,-0.421,-0.562,-0.553
2442446,7869.0,1999.0,280.0,0.45,-0.421,-0.561,-0.553
2442463,7869.0,2001.0,226.0,0.45,-0.421,-0.561,-0.553
2442480,7839.0,1933.0,262.0,0.45,-0.421,-0.562,-0.553
2442497,7877.0,1973.0,258.0,0.45,-0.421,-0.562,-0.552
2442523,7941.0,2025.0,216.0,0.45,-0.421,-0.562,-0.552
2442539,7851.0,2029.0,248.0,0.45,-0.421,-0.562,-0.552
2442555,7953.0,2017.0,196.0,0.45,-0.42,-0.562,-0.552
2442572,7881.0,2009.0,252.0,0.45,-0.42,-0.562,-0.552
2442588,7917.0,1933.0,272.0,0.45,-0.42,-0.562,-0.552
2442604,7903.0,1983.0,220.0,0.45,-0.42,-0.562,-0.552
2442630,7929.0,2047.0,240.0,0.45,-0.42,-0.562,-0.552
2442647,7949.0,2001.0,256.0,0.45,-0.42,-0.562,-0.552
2442664,7923.0,2003.0,234.0,0.451,-0.42,-0.562,-0.552
2442681,7871.0,2035.0,224.0,0.451,-0.42,-0.562,-0.552
2442698,7917.0,1973.0,214.0,0.451,-0.42,-0.562,-0.552
2442715,7951.0,1971.0,242.0,0.451,-0.42,-0.563,-0.551
2442732,7845.0,2029.0,244.0,0.451,-0.42,-0.563,-0.551
2442749,7925.0,1991.0,246.0,0.451,-0.42,-0.563,-0.551
2442766,7901.0,2005.0,204.0,0.451,-0.42,-0.563,-0.551
2442784,7895.0,1985.0,210.0,0.451,-0.42,-0.563,-0.551
2442801,7943.0,1993.0,258.0,0.451,-0.42,-0.563,-0.551
2442818,7889.0,2031.0,252.0,0.451,-0.42,-0.563,-0.551
2442835,7863.0,1989.0,286.0,0.452,-0.42,-0.563,-0.551
2442852,7963.0,1967.0,258.0,0.452,-0.42,-0.563,-0.55
2442869,7915.0,2063.0,228.0,0.452,-0.42,-0.563,-0.55
2442896,7893.0,1951.0,216.0,0.452,-0.42,-0.563,-0.55
2442913,7933.0,2009.0,208.0,0.452,-0.42,-0.563,-0.55
2442930,7975.0,2009.0,232.0,0.452,-0.42,-0.563,-0.55
2442947,7885.0,1939.0,270.0,0.452,-0.42,-0.563,-0.55
2442963,7923.0,2013.0,254.0,0.452,-0.42,-0.563,-0.55
2442980,7885.0,1965.0,220.0,0.452,-0.42,-0.563,-0.55
2442996,7919.0,1983.0,278.0,0.452,-0.42,-0.563,-0.55
2443013,7933.0,2001.0,216.0,0.452,-0.42,-0.563,-0.55
2443030,7919.0,1957.0,286.0,0.452,-0.42,-0.563,-0.55
2443047,7837.0,1961.0,224.0,0.452,-0.42,-0.563,-0.55
2443073,7863.0,1969.0,256.0,0.452,-0.42,-0.563,-0.55
2443089,7893.0,1949.0,224.0,0.452,-0.42,-0.563,-0.55
2443105,7909.0,2005.0,240.0,0.452,-0.419,-0.563,-0.55
2443121,7905.0,1941.0,260.0,0.452,-0.419,-0.562,-0.551
2443138,7983.0,2019.0,286.0,0.452,-0.419,-0.563,-0.55
2443154,7933.0,2053.0,254.0,0.452,-0.419,-0.563,-0.55
2443171,7983.0,1993.0,264.0,0.452,-0.419,-0.563,-0.551
2443188,7921.0,1993.0,272.0,0.452,-0.419,-0.563,-0.551
2443205,7889.0,1959.0,252.0,0.452,-0.419,-0.563,-0.551
2443231,7927.0,1993.0,272.0,0.452,-0.419,-0.562,-0.551
2443248,7909.0,1949.0,234.0,0.452,-0.419,-0.562,-0.551
2443265,7897.0,1975.0,210.0,0.452,-0.419,-0.562,-0.551
2443283,7863.0,1925.0,248.0,0.452,-0.419,-0.562,-0.551
2443300,7833.0,1935.0,300.0,0.453,-0.419,-0.562,-0.551
2443317,7917.0,1985.0,218.0,0.453,-0.419,-0.562,-0.551
2443334,7865.0,1969.0,220.0,0.453,-0.419,-0.562,-0.551
2443351,7903.0,1985.0,230.0,0.453,-0.419,-0.562,-0.551
2443368,7895.0,1961.0,304.0,0.453,-0.419,-0.562,-0.551
2443385,7961.0,1959.0,266.0,0.453,-0.419,-0.562,-0.551
2443402,7955.0,1941.0,262.0,0.453,-0.419,-0.562,-0.551
2443418,7859.0,1969.0,268.0,0.453,-0.419,-0.562,-0.551
2443435,7931.0,1915.0,252.0,0.453,-0.419,-0.562,-0.551
2443462,7949.0,1997.0,202.0,0.453,-0.419,-0.562,-0.551
2443478,7883.0,1955.0,192.0,0.453,-0.419,-0.562,-0.551
2443495,7889.0,1979.0,218.0,0.453,-0.419,-0.562,-0.551
2443512,7853.0,1939.0,300.0,0.453,-0.419,-0.562,-0.551
2443529,7907.0,1957.0,290.0,0.453,-0.419,-0.562,-0.551
2443545,7917.0,2047.0,200.0,0.453,-0.419,-0.562,-0.551
2443562,7853.0,1949.0,270.0,0.453,-0.419,-0.562,-0.55
2443579,7879.0,1941.0,254.0,0.453,-0.419,-0.562,-0.55
2443596,7875.0,1983.0,228.0,0.453,-0.419,-0.562,-0.55
2443613,7851.0,1921.0,230.0,0.453,-0.419,-0.562,-0.55
2443630,7933.0,1907.0,264.0,0.453,-0.419,-0.562,-0.55
2443657,7873.0,1961.0,248.0,0.454,-0.419,-0.563,-0.55
2443673,7895.0,1905.0,216.0,0.454,-0.419,-0.563,-0.55
2443690,7927.0,1945.0,204.0,0.454,-0.419,-0.563,-0.55
2443707,7901.0,1941.0,186.0,0.454,-0.418,-0.563,-0.55
2443723,7869.0,1917.0,306.0,0.454,-0.418,-0.563,-0.549
2443739,7845.0,2007.0,276.0,0.454,-0.418,-0.563,-0.549
2443755,7883.0,1965.0,220.0,0.454,-0.418,-0.564,-0.549
2443781,7973.0,1999.0,214.0,0.454,-0.418,-0.564,-0.549
2443798,7889.0,1983.0,240.0,0.454,-0.418,-0.564,-0.549
2443815,7883.0,2033.0,240.0,0.454,-0.418,-0.564,-0.549
2443832,7953.0,1951.0,200.0,0.454,-0.418,-0.564,-0.549
2443849,7967.0,2001.0,200.0,0.454,-0.417,-0.564,-0.548
2443866,7913.0,1983.0,194.0,0.455,-0.417,-0.565,-0.548
2443884,7951.0,1937.0,268.0,0.455,-0.417,-0.565,-0.548
2443901,7905.0,1975.0,288.0,0.455,-0.417,-0.565,-0.548
2443918,7919.0,1967.0,272.0,0.455,-0.417,-0.565,-0.548
2443935,7933.0,2043.0,240.0,0.455,-0.417,-0.565,-0.548
2443951,7961.0,1991.0,222.0,0.455,-0.417,-0.565,-0.548
2443967,7887.0,1965.0,248.0,0.455,-0.416,-0.565,-0.548
2443993,7873.0,1961.0,206.0,0.455,-0.416,-0.566,-0.547
2444010,7913.0,1965.0,226.0,0.455,-0.416,-0.566,-0.547
2444026,7903.0,1979.0,190.0,0.455,-0.416,-0.566,-0.547
2444043,7863.0,1987.0,246.0,0.455,-0.416,-0.566,-0.547
2444060,7887.0,1963.0,226.0,0.456,-0.416,-0.566,-0.547
2444076,7897.0,1973.0,218.0,0.456,-0.416,-0.566,-0.547
2444092,7893.0,2005.0,212.0,0.456,-0.415,-0.566,-0.547
2444108,7879.0,1957.0,176.0,0.456,-0.415,-0.566,-0.547
2444134,7909.0,1977.0,236.0,0.456,-0.415,-0.566,-0.547
2444150,7885.0,1961.0,228.0,0.456,-0.415,-0.566,-0.547
2444166,7921.0,1935.0,232.0,0.456,-0.415,-0.566,-0.546
2444182,7907.0,1945.0,196.0,0.457,-0.415,-0.567,-0.546
2444198,7919.0,1929.0,212.0,0.457,-0.415,-0.567,-0.546
2444214,7929.0,1929.0,178.0,0.457,-0.415,-0.567,-0.546
2444240,7915.0,1967.0,190.0,0.457,-0.415,-0.567,-0.546
2444257,7927.0,1969.0,192.0,0.457,-0.415,-0.567,-0.546
2444273,7901.0,1987.0,234.0,0.457,-0.415,-0.567,-0.546
2444290,7901.0,1943.0,232.0,0.457,-0.415,-0.567,-0.546
2444308,7863.0,1963.0,188.0,0.457,-0.415,-0.567,-0.545
2444325,7831.0,1923.0,250.0,0.457,-0.415,-0.567,-0.545
2444342,7913.0,1953.0,202.0,0.457,-0.414,-0.567,-0.545
2444359,7913.0,1999.0,226.0,0.457,-0.414,-0.567,-0.545
2444376,7917.0,1951.0,210.0,0.457,-0.414,-0.568,-0.545
2444393,7915.0,1971.0,160.0,0.457,-0.414,-0.568,-0.545
2444409,7899.0,1973.0,206.0,0.458,-0.414,-0.568,-0.545
2444426,7921.0,1985.0,184.0,0.458,-0.414,-0.568,-0.545
2444453,7917.0,1963.0,210.0,0.458,-0.414,-0.568,-0.544
2444469,7895.0,1955.0,200.0,0.458,-0.414,-0.568,-0.544
2444486,7957.0,1953.0,198.0,0.458,-0.414,-0.568,-0.544
2444503,7905.0,1979.0,196.0,0.458,-0.414,-0.568,-0.544
2444520,7913.0,1953.0,202.0,0.458,-0.414,-0.568,-0.544
2444537,7931.0,1965.0,172.0,0.458,-0.414,-0.568,-0.544
2444553,7901.0,1923.0,198.0,0.458,-0.414,-0.568,-0.543
2444570,7943.0,1979.0,194.0,0.459,-0.414,-0.568,-0.543
2444587,7943.0,1953.0,184.0,0.459,-0.414,-0.569,-0.543
2444603,8021.0,2023.0,136.0,0.459,-0.414,-0.569,-0.543
2444630,7937.0,1919.0,214.0,0.459,-0.414,-0.569,-0.542
2444647,7883.0,1993.0,272.0,0.46,-0.413,-0.569,-0.542
2444664,7963.0,2025.0,210.0,0.46,-0.413,-0.569,-0.542
2444681,7965.0,1975.0,196.0,0.46,-0.413,-0.57,-0.542
2444698,7939.0,1963.0,212.0,0.46,-0.413,-0.57,-0.542
2444715,7855.0,1897.0,154.0,0.46,-0.413,-0.57,-0.541
2444732,7865.0,2065.0,190.0,0.46,-0.413,-0.57,-0.541
2444749,7783.0,1749.0,178.0,0.46,-0.413,-0.57,-0.541
2444766,7937.0,1679.0,262.0,0.461,-0.413,-0.57,-0.54
2444783,7945.0,1075.0,368.0,0.462,-0.412,-0.571,-0.539
2444800,8221.0,943.0,526.0,0.465,-0.41,-0.574,-0.536
2444817,8587.0,1203.0,-120.0,0.469,-0.406,-0.577,-0.531
2444834,8821.0,1651.0,-68.0,0.475,-0.401,-0.58,-0.527
2444851,7999.0,2889.0,636.0,0.48,-0.395,-0.582,-0.524
2444878,7669.0,2503.0,878.0,0.485,-0.388,-0.586,-0.52
2444895,8211.0,3269.0,962.0,0.489,-0.381,-0.59,-0.517
2444912,8779.0,3921.0,1150.0,0.491,-0.373,-0.595,-0.515
2444929,8695.0,4201.0,1008.0,0.493,-0.365,-0.6,-0.515
2444945,8401.0,4133.0,1204.0,0.493,-0.355,-0.604,-0.516
2444961,8085.0,4757.0,1238.0,0.493,-0.343,-0.609,-0.518
2444978,7899.0,4915.0,1308.0,0.493,-0.33,-0.614,-0.52
2444995,7819.0,4865.0,1318.0,0.492,-0.315,-0.62,-0.523
2445011,7569.0,5987.0,1418.0,0.491,-0.3,-0.627,-0.526
2445028,7671.0,5869.0,1110.0,0.488,-0.285,-0.632,-0.53
2445054,7745.0,5095.0,1162.0,0.485,-0.269,-0.639,-0.534
2445071,7785.0,4531.0,914.0,0.481,-0.251,-0.646,-0.537
2445087,8219.0,5811.0,552.0,0.476,-0.232,-0.655,-0.539
2445104,8147.0,6229.0,174.0,0.469,-0.211,-0.664,-0.543
2445121,8201.0,6331.0,-220.0,0.461,-0.189,-0.673,-0.547
2445138,7995.0,7553.0,2.0,0.452,-0.166,-0.682,-0.551
2445155,7893.0,7109.0,-180.0,0.44,-0.144,-0.689,-0.558
2445172,7921.0,7325.0,-774.0,0.426,-0.121,-0.696,-0.565
2445189,7407.0,8039.0,-838.0,0.411,-0.097,-0.703,-0.573
2445206,7629.0,7507.0,-702.0,0.395,-0.072,-0.709,-0.58
2445233,7269.0,7703.0,-816.0,0.377,-0.046,-0.715,-0.587
2445250,6753.0,8667.0,-1092.0,0.358,-0.02,-0.72,-0.594
2445267,6675.0,8413.0,-1516.0,0.339,0.006,-0.723,-0.601
2445284,6177.0,8005.0,-1250.0,0.318,0.031,-0.727,-0.608
2445301,5687.0,9415.0,-1438.0,0.296,0.057,-0.729,-0.615
2445318,5667.0,9873.0,-1382.0,0.273,0.082,-0.73,-0.622
2445335,4633.0,9131.0,-1308.0,0.248,0.104,-0.728,-0.631
2445352,4165.0,9381.0,-1568.0,0.222,0.126,-0.725,-0.64
2445368,3593.0,9717.0,-1640.0,0.195,0.147,-0.72,-0.649
2445385,2955.0,8785.0,-1478.0,0.169,0.166,-0.713,-0.66
2445402,2559.0,7619.0,-1726.0,0.142,0.184,-0.706,-0.669
2445418,1511.0,8367.0,-886.0,0.115,0.201,-0.698,-0.678
2445445,1417.0,8215.0,-1098.0,0.088,0.217,-0.687,-0.687
2445461,723.0,7005.0,-882.0,0.062,0.233,-0.675,-0.698
2445478,363.0,5951.0,-522.0,0.036,0.247,-0.662,-0.706
2445495,-201.0,6153.0,-524.0,0.01,0.261,-0.65,-0.714
2445512,-671.0,5997.0,-26.0,0.014,-0.273,0.636,0.722
2445529,-1181.0,5351.0,208.0,0.037,-0.285,0.621,0.73
2445546,-1241.0,4379.0,122.0,0.057,-0.295,0.606,0.736
2445563,-1727.0,3351.0,682.0,0.075,-0.305,0.592,0.742
2445580,-2427.0,2719.0,1044.0,0.092,-0.313,0.579,0.747
2445596,-2887.0,2481.0,1150.0,0.107,-0.321,0.566,0.751
2445613,-3469.0,1773.0,1700.0,0.12,-0.328,0.555,0.755
2445630,-3573.0,1143.0,1650.0,0.131,-0.333,0.545,0.758
2445657,-3949.0,619.0,1884.0,0.139,-0.337,0.537,0.76
2445674,-4453.0,713.0,2190.0,0.145,-0.34,0.531,0.762
2445690,-4313.0,57.0,2082.0,0.149,-0.341,0.528,0.764
2445706,-4663.0,-483.0,2426.0,0.15,-0.34,0.527,0.764
2445722,-4653.0,343.0,2328.0,0.148,-0.337,0.529,0.765
2445739,-4355.0,223.0,2244.0,0.143,-0.333,0.532,0.765
2445755,-4345.0,413.0,2244.0,0.135,-0.327,0.538,0.765
2445771,-4067.0,575.0,2226.0,0.125,-0.319,0.546,0.764
2445797,-3759.0,1477.0,1924.0,0.113,-0.311,0.555,0.763
2445814,-3395.0,2285.0,1724.0,0.099,-0.301,0.566,0.761
2445831,-2871.0,3281.0,1388.0,0.084,-0.29,0.576,0.76
2445847,-2435.0,3433.0,1160.0,0.067,-0.277,0.588,0.757
2445863,-1889.0,4757.0,928.0,0.049,-0.265,0.6,0.753
2445879,-1565.0,6519.0,820.0,0.031,-0.251,0.611,0.75
2445895,-905.0,6059.0,458.0,0.011,-0.235,0.62,0.748
2445921,-37.0,5193.0,-16.0,0.01,0.219,-0.631,-0.744
2445938,205.0,7073.0,190.0,0.03,0.204,-0.643,-0.738
2445954,109.0,9901.0,438.0,0.05,0.188,-0.651,-0.733
2445970,837.0,8913.0,-68.0,0.072,0.171,-0.658,-0.73
2445986,919.0,7343.0,90.0,0.093,0.153,-0.664,-0.726
2446012,1809.0,8015.0,-138.0,0.114,0.136,-0.67,-0.721
2446029,1949.0,9313.0,284.0,0.133,0.12,-0.675,-0.715
2446046,2091.0,10119.0,362.0,0.152,0.103,-0.679,-0.711
2446062,2561.0,9707.0,278.0,0.171,0.084,-0.681,-0.707
2446078,3051.0,8969.0,142.0,0.19,0.066,-0.682,-0.703
2446094,2971.0,7771.0,66.0,0.208,0.049,-0.683,-0.698
2446110,3471.0,9685.0,360.0,0.224,0.034,-0.685,-0.692
2446126,3443.0,9489.0,200.0,0.241,0.016,-0.685,-0.687
2446152,4171.0,8763.0,264.0,0.258,-0.0,-0.685,-0.681
2446168,4341.0,9827.0,158.0,0.273,-0.016,-0.684,-0.676
2446184,4403.0,8677.0,344.0,0.287,-0.032,-0.682,-0.671
2446200,4913.0,7875.0,178.0,0.301,-0.047,-0.681,-0.666
2446217,5135.0,9081.0,174.0,0.314,-0.06,-0.681,-0.659
2446234,4797.0,7983.0,510.0,0.326,-0.073,-0.68,-0.653
2446251,4671.0,7707.0,402.0,0.337,-0.085,-0.679,-0.647
2446267,5257.0,9543.0,474.0,0.348,-0.097,-0.676,-0.642
2446294,4973.0,6965.0,486.0,0.359,-0.11,-0.673,-0.637
2446311,5351.0,5849.0,472.0,0.368,-0.121,-0.672,-0.631
2446328,5393.0,8601.0,350.0,0.377,-0.13,-0.672,-0.624
2446345,5813.0,8471.0,442.0,0.387,-0.142,-0.669,-0.618
2446361,5973.0,6849.0,528.0,0.395,-0.152,-0.667,-0.613
2446377,6337.0,7331.0,528.0,0.402,-0.161,-0.665,-0.608
2446394,6353.0,7637.0,302.0,0.408,-0.169,-0.664,-0.604
2446411,6697.0,8337.0,394.0,0.413,-0.176,-0.662,-0.6
2446427,6299.0,7675.0,656.0,0.418,-0.183,-0.66,-0.597
2446444,6491.0,8057.0,606.0,0.421,-0.189,-0.658,-0.594
2446471,6303.0,8111.0,548.0,0.424,-0.194,-0.657,-0.593
2446487,6521.0,8425.0,508.0,0.425,-0.198,-0.656,-0.592
2446503,6351.0,8907.0,584.0,0.426,-0.2,-0.654,-0.592
2446519,6283.0,8715.0,652.0,0.425,-0.201,-0.653,-0.594
2446535,6069.0,9003.0,898.0,0.423,-0.201,-0.652,-0.596
2446551,5997.0,9741.0,1022.0,0.419,-0.199,-0.653,-0.599
2446568,6561.0,9685.0,644.0,0.412,-0.196,-0.653,-0.605
2446595,6911.0,9023.0,694.0,0.404,-0.19,-0.653,-0.611
2446612,7241.0,9291.0,692.0,0.395,-0.181,-0.655,-0.618
2446629,7345.0,9541.0,572.0,0.384,-0.168,-0.658,-0.626
2446646,6721.0,10245.0,970.0,0.371,-0.153,-0.661,-0.635
2446663,6723.0,10583.0,672.0,0.355,-0.137,-0.664,-0.644
2446680,7055.0,10091.0,518.0,0.338,-0.119,-0.666,-0.654
2446697,7261.0,10143.0,204.0,0.319,-0.1,-0.67,-0.663
2446714,6619.0,10763.0,562.0,0.298,-0.079,-0.672,-0.673
2446731,6403.0,10497.0,96.0,0.274,-0.057,-0.674,-0.684
2446747,5595.0,10337.0,344.0,0.249,-0.034,-0.674,-0.695
2446773,4761.0,9213.0,322.0,0.223,-0.012,-0.673,-0.706
2446790,4621.0,9355.0,206.0,0.196,0.011,-0.671,-0.715
2446806,4009.0,8841.0,304.0,0.167,0.034,-0.668,-0.724
2446822,3683.0,8959.0,352.0,0.138,0.056,-0.664,-0.732
2446838,3437.0,8365.0,420.0,0.109,0.078,-0.659,-0.741
2446854,2717.0,7405.0,354.0,0.08,0.099,-0.652,-0.748
2446870,2535.0,7631.0,120.0,0.051,0.119,-0.645,-0.753
2446886,2289.0,7769.0,236.0,0.023,0.139,-0.637,-0.758
2446913,1603.0,6607.0,660.0,0.004,-0.16,0.626,0.763
2446930,1203.0,5785.0,688.0,0.031,-0.179,0.615,0.767
2446947,761.0,4701.0,674.0,0.057,-0.197,0.604,0.77
2446965,13.0,4619.0,816.0,0.082,-0.214,0.593,0.772
2446981,-417.0,4699.0,1176.0,0.107,-0.23,0.583,0.772
2446998,-953.0,3919.0,1354.0,0.129,-0.244,0.572,0.772
2447015,-1309.0,2743.0,1318.0,0.15,-0.256,0.562,0.772
2447032,-1973.0,2007.0,1556.0,0.169,-0.265,0.554,0.77
2447049,-2701.0,1521.0,1928.0,0.187,-0.273,0.549,0.768
2447066,-2983.0,2185.0,1742.0,0.203,-0.279,0.544,0.765
2447082,-3243.0,-437.0,1734.0,0.215,-0.284,0.54,0.763
2447108,-4587.0,-1051.0,2654.0,0.225,-0.288,0.54,0.758
2447125,-5211.0,423.0,2782.0,0.232,-0.289,0.542,0.754
2447141,-5253.0,-29.0,3040.0,0.235,-0.288,0.544,0.753
2447157,-5323.0,-429.0,3216.0,0.234,-0.284,0.547,0.752
2447174,-4987.0,-151.0,3028.0,0.23,-0.278,0.552,0.751
2447190,-4567.0,-177.0,2756.0,0.224,-0.271,0.559,0.751
2447206,-4329.0,1001.0,2784.0,0.215,-0.261,0.567,0.751
2447232,-3799.0,2383.0,2374.0,0.204,-0.251,0.576,0.751
2447249,-3351.0,2943.0,2036.0,0.191,-0.239,0.585,0.751
2447266,-2891.0,3159.0,1854.0,0.176,-0.227,0.594,0.751
2447283,-2235.0,4103.0,1460.0,0.16,-0.214,0.604,0.751
2447300,-1907.0,4851.0,1366.0,0.142,-0.2,0.614,0.75
2447317,-1697.0,5599.0,1130.0,0.122,-0.185,0.624,0.749
2447334,-963.0,6037.0,766.0,0.103,-0.171,0.633,0.748
2447351,-833.0,6945.0,1000.0,0.082,-0.157,0.641,0.747
2447368,-487.0,7149.0,748.0,0.061,-0.141,0.649,0.745
2447385,3.0,7513.0,416.0,0.04,-0.125,0.656,0.743
2447402,361.0,7091.0,618.0,0.019,-0.11,0.662,0.741
2447418,595.0,8927.0,490.0,0.001,0.095,-0.667,-0.739
2447444,1019.0,8527.0,534.0,0.022,0.078,-0.671,-0.737
2447460,1491.0,7997.0,-26.0,0.043,0.06,-0.674,-0.735
2447477,1473.0,8059.0,566.0,0.063,0.044,-0.677,-0.732
2447493,2175.0,8669.0,408.0,0.081,0.028,-0.678,-0.73
2447509,2483.0,9361.0,256.0,0.1,0.011,-0.68,-0.727
2447525,2819.0,8365.0,330.0,0.12,-0.007,-0.68,-0.723
2447542,3081.0,8767.0,354.0,0.138,-0.024,-0.68,-0.719
2447559,3241.0,9863.0,318.0,0.155,-0.04,-0.679,-0.716
2447586,3959.0,10037.0,-28.0,0.172,-0.057,-0.676,-0.714
2447602,3715.0,8153.0,406.0,0.19,-0.074,-0.673,-0.711
2447618,4217.0,8087.0,278.0,0.206,-0.089,-0.671,-0.707
2447634,4229.0,9289.0,432.0,0.221,-0.103,-0.668,-0.703
2447650,4351.0,8863.0,326.0,0.235,-0.117,-0.664,-0.7
2447666,4867.0,8895.0,502.0,0.25,-0.132,-0.661,-0.695
2447692,4953.0,7993.0,558.0,0.264,-0.147,-0.657,-0.691
2447708,5451.0,7245.0,448.0,0.276,-0.16,-0.653,-0.687
2447724,5289.0,8387.0,766.0,0.287,-0.173,-0.65,-0.683
2447740,5487.0,8459.0,656.0,0.298,-0.186,-0.646,-0.678
2447757,5955.0,7425.0,572.0,0.308,-0.198,-0.641,-0.674
2447774,6005.0,6319.0,582.0,0.317,-0.209,-0.638,-0.67
2447790,6391.0,7775.0,744.0,0.325,-0.218,-0.636,-0.665
2447816,6135.0,8657.0,836.0,0.333,-0.228,-0.632,-0.661
2447833,6043.0,7093.0,1056.0,0.34,-0.237,-0.629,-0.658
2447850,5991.0,6573.0,718.0,0.346,-0.245,-0.627,-0.654
2447867,6195.0,7917.0,864.0,0.351,-0.251,-0.625,-0.65
2447884,5919.0,8303.0,1090.0,0.356,-0.258,-0.623,-0.647
2447901,6465.0,7753.0,852.0,0.359,-0.264,-0.621,-0.644
2447917,6607.0,7621.0,798.0,0.361,-0.269,-0.62,-0.642
2447934,6647.0,8243.0,934.0,0.363,-0.272,-0.62,-0.641
2447950,6465.0,8649.0,1100.0,0.363,-0.274,-0.619,-0.64
2447966,6517.0,8449.0,1102.0,0.362,-0.274,-0.619,-0.64
2447992,6657.0,8345.0,1120.0,0.36,-0.273,-0.62,-0.642
2448008,6555.0,8489.0,1186.0,0.356,-0.269,-0.622,-0.644
2448025,6743.0,8861.0,1076.0,0.351,-0.264,-0.624,-0.647
2448041,7091.0,8409.0,1120.0,0.344,-0.256,-0.626,-0.651
2448057,6781.0,9047.0,1526.0,0.336,-0.246,-0.63,-0.656
2448073,6881.0,8759.0,1466.0,0.326,-0.234,-0.634,-0.661
2448090,6661.0,9263.0,1558.0,0.314,-0.22,-0.638,-0.667
2448116,6235.0,9547.0,1544.0,0.301,-0.205,-0.643,-0.674
2448133,6293.0,9369.0,1228.0,0.286,-0.19,-0.647,-0.681
2448150,6335.0,9285.0,1060.0,0.27,-0.174,-0.65,-0.689
2448167,6039.0,9581.0,766.0,0.252,-0.157,-0.653,-0.697
2448184,5963.0,9367.0,382.0,0.232,-0.138,-0.656,-0.705
2448201,5771.0,10223.0,432.0,0.211,-0.119,-0.658,-0.713
2448217,5289.0,10119.0,202.0,0.188,-0.099,-0.66,-0.721
2448234,4967.0,10381.0,-68.0,0.163,-0.078,-0.661,-0.729
2448251,4831.0,10651.0,18.0,0.137,-0.056,-0.66,-0.737
2448267,4209.0,9597.0,144.0,0.111,-0.035,-0.658,-0.744
2448293,3835.0,8851.0,344.0,0.084,-0.013,-0.656,-0.75
2448309,2363.0,9693.0,708.0,0.055,0.01,-0.653,-0.755
2448325,1681.0,9105.0,952.0,0.026,0.032,-0.649,-0.76
2448341,1435.0,8157.0,736.0,0.003,-0.053,0.643,0.764
2448357,791.0,6989.0,1042.0,0.032,-0.074,0.637,0.767
2448383,197.0,6825.0,968.0,0.062,-0.095,0.63,0.768
2448400,69.0,6083.0,1014.0,0.091,-0.114,0.622,0.769
2448417,-161.0,5179.0,904.0,0.119,-0.132,0.613,0.77
2448434,-593.0,4645.0,646.0,0.146,-0.149,0.604,0.769
2448451,-1025.0,3293.0,1014.0,0.171,-0.165,0.596,0.767
2448467,-1483.0,3005.0,1228.0,0.195,-0.179,0.588,0.764
2448484,-2047.0,2991.0,1516.0,0.217,-0.191,0.581,0.761
2448501,-2191.0,2427.0,1382.0,0.237,-0.201,0.573,0.759
2448517,-2325.0,1579.0,1588.0,0.254,-0.209,0.565,0.757
2448534,-2745.0,1065.0,2026.0,0.269,-0.215,0.559,0.754
2448550,-2729.0,1519.0,2054.0,0.282,-0.219,0.554,0.752
2448577,-2811.0,1011.0,2148.0,0.291,-0.221,0.55,0.751
2448593,-3081.0,263.0,2496.0,0.297,-0.221,0.549,0.75
2448610,-3315.0,645.0,2784.0,0.3,-0.219,0.549,0.749
2448626,-3357.0,1107.0,2972.0,0.3,-0.215,0.55,0.75
2448642,-3083.0,893.0,2882.0,0.296,-0.209,0.552,0.751
2448658,-3093.0,1083.0,3238.0,0.289,-0.201,0.556,0.753
2448674,-3059.0,1729.0,3408.0,0.279,-0.192,0.561,0.756
2448700,-2785.0,2313.0,3344.0,0.267,-0.182,0.566,0.759
2448716,-2637.0,2677.0,3152.0,0.251,-0.17,0.572,0.762
2448733,-2395.0,3337.0,3086.0,0.234,-0.158,0.578,0.766
2448750,-2257.0,3509.0,2920.0,0.215,-0.145,0.584,0.769
2448767,-2079.0,4195.0,2458.0,0.195,-0.132,0.591,0.771
2448784,-1773.0,5139.0,2246.0,0.173,-0.118,0.599,0.773
2448800,-1811.0,6561.0,2314.0,0.15,-0.104,0.605,0.775
2448817,-1457.0,6561.0,2024.0,0.127,-0.089,0.611,0.777
2448833,-921.0,6067.0,1826.0,0.103,-0.073,0.616,0.777
2448860,-347.0,7175.0,1218.0,0.08,-0.058,0.621,0.777
2448876,253.0,8455.0,1600.0,0.057,-0.043,0.624,0.778
2448893,-89.0,9253.0,1602.0,0.035,-0.027,0.626,0.779
2448910,475.0,8283.0,1270.0,0.012,-0.008,0.627,0.779
2448927,1705.0,7523.0,1218.0,0.01,-0.009,-0.627,-0.779
2448944,1915.0,8061.0,1208.0,0.03,-0.025,-0.628,-0.777
2448960,1995.0,9733.0,1412.0,0.049,-0.041,-0.628,-0.775
2448977,2263.0,9959.0,1692.0,0.067,-0.057,-0.627,-0.774
2449003,2893.0,9133.0,1146.0,0.085,-0.075,-0.624,-0.773
2449019,3851.0,7339.0,764.0,0.102,-0.09,-0.622,-0.771
2449035,3765.0,8867.0,1472.0,0.117,-0.103,-0.621,-0.768
2449051,3749.0,10005.0,1324.0,0.132,-0.116,-0.62,-0.765
2449067,3727.0,8885.0,1426.0,0.147,-0.129,-0.617,-0.762
2449083,4231.0,8723.0,1242.0,0.161,-0.143,-0.615,-0.758
2449099,4353.0,7257.0,1546.0,0.174,-0.155,-0.614,-0.754
2449125,4379.0,8445.0,1474.0,0.186,-0.166,-0.613,-0.75
2449141,4715.0,8837.0,1272.0,0.198,-0.177,-0.611,-0.746
2449157,4583.0,7585.0,1410.0,0.209,-0.188,-0.61,-0.741
2449173,5209.0,7241.0,944.0,0.219,-0.198,-0.609,-0.736
2449189,5299.0,7913.0,1254.0,0.229,-0.207,-0.609,-0.731
2449215,4893.0,7453.0,1382.0,0.239,-0.215,-0.609,-0.725
2449231,5047.0,7799.0,1390.0,0.248,-0.223,-0.609,-0.72
2449247,4931.0,7013.0,1246.0,0.257,-0.231,-0.609,-0.714
2449263,5229.0,7305.0,1246.0,0.265,-0.239,-0.609,-0.709
2449279,5409.0,7487.0,1288.0,0.272,-0.246,-0.608,-0.704
2449295,5479.0,6397.0,1294.0,0.28,-0.253,-0.608,-0.699
2449311,5431.0,6365.0,1176.0,0.288,-0.259,-0.608,-0.693
2449337,5609.0,6975.0,1132.0,0.295,-0.264,-0.608,-0.688
2449353,5557.0,7305.0,1304.0,0.302,-0.27,-0.608,-0.683
2449369,6089.0,7441.0,1108.0,0.309,-0.275,-0.607,-0.678
2449385,6665.0,6993.0,856.0,0.315,-0.28,-0.606,-0.674
2449401,7165.0,7575.0,692.0,0.32,-0.282,-0.606,-0.671
2449418,7443.0,8877.0,792.0,0.325,-0.283,-0.607,-0.668
2449444,7109.0,9449.0,1096.0,0.328,-0.282,-0.607,-0.667
2449461,7121.0,10173.0,1108.0,0.328,-0.28,-0.607,-0.668
2449477,7115.0,9583.0,980.0,0.326,-0.277,-0.608,-0.669
2449494,6729.0,9905.0,1200.0,0.32,-0.272,-0.61,-0.672
2449510,6883.0,11587.0,1086.0,0.312,-0.265,-0.613,-0.676
2449527,6833.0,10309.0,1042.0,0.301,-0.258,-0.614,-0.682
2449544,6725.0,9751.0,1062.0,0.288,-0.247,-0.618,-0.689
2449561,6621.0,11085.0,972.0,0.273,-0.234,-0.622,-0.696
2449578,6175.0,10753.0,1152.0,0.256,-0.219,-0.625,-0.704
2449594,5827.0,10431.0,1240.0,0.237,-0.203,-0.627,-0.713
2449621,5423.0,10259.0,1374.0,0.216,-0.186,-0.63,-0.722
2449637,5015.0,10131.0,1094.0,0.193,-0.167,-0.632,-0.732
2449653,4695.0,10037.0,1048.0,0.169,-0.147,-0.633,-0.741
2449669,4521.0,10349.0,1116.0,0.143,-0.127,-0.633,-0.75
2449685,4345.0,9639.0,940.0,0.117,-0.106,-0.632,-0.759
2449711,3829.0,8679.0,1120.0,0.089,-0.084,-0.631,-0.766
2449728,3341.0,9353.0,1106.0,0.06,-0.062,-0.63,-0.772
2449745,2765.0,8661.0,1030.0,0.03,-0.039,-0.627,-0.777
2449762,2613.0,8469.0,946.0,0.0,-0.017,-0.624,-0.781
2449779,2223.0,7781.0,1038.0,0.029,-0.005,0.62,0.784
2449796,1805.0,7083.0,1106.0,0.058,-0.026,0.616,0.785
2449812,1757.0,7063.0,1060.0,0.087,-0.047,0.61,0.786
2449829,1141.0,6217.0,1462.0,0.116,-0.068,0.604,0.786
2449845,901.0,5555.0,1272.0,0.143,-0.088,0.597,0.784
2449862,657.0,4465.0,1354.0,0.17,-0.106,0.59,0.782
2449879,-227.0,4161.0,1626.0,0.195,-0.123,0.584,0.778
2449896,-399.0,4535.0,1364.0,0.22,-0.139,0.578,0.774
2449913,-821.0,3325.0,1790.0,0.242,-0.152,0.571,0.77
2449940,-1483.0,2927.0,2088.0,0.261,-0.163,0.564,0.766
2449958,-1497.0,1659.0,2158.0,0.279,-0.172,0.559,0.762
2449975,-1913.0,1429.0,2152.0,0.294,-0.18,0.555,0.757
2449991,-2359.0,745.0,2826.0,0.306,-0.186,0.551,0.754
2450007,-2633.0,-645.0,3024.0,0.314,-0.189,0.549,0.751
2450024,-2953.0,-895.0,3324.0,0.319,-0.191,0.55,0.748
2450040,-3303.0,-1077.0,3412.0,0.32,-0.19,0.554,0.745
2450057,-3321.0,493.0,3570.0,0.317,-0.187,0.557,0.744
2450073,-3375.0,-537.0,3924.0,0.309,-0.181,0.561,0.746
2450090,-3375.0,-583.0,3726.0,0.298,-0.173,0.566,0.749
2450117,-3023.0,581.0,3504.0,0.284,-0.162,0.571,0.753
2450133,-2857.0,907.0,3024.0,0.267,-0.15,0.577,0.757
2450149,-2371.0,1937.0,3006.0,0.248,-0.136,0.584,0.761
2450165,-2169.0,3349.0,2974.0,0.226,-0.121,0.592,0.764
2450181,-1721.0,4467.0,2712.0,0.203,-0.106,0.599,0.767
2450197,-1169.0,4745.0,2376.0,0.179,-0.089,0.608,0.769
2450223,-777.0,5703.0,2378.0,0.153,-0.073,0.616,0.769
2450239,-337.0,7561.0,2194.0,0.127,-0.056,0.623,0.77
2450255,-383.0,6481.0,1680.0,0.101,-0.04,0.628,0.771
2450271,799.0,7455.0,1526.0,0.075,-0.023,0.634,0.769
2450287,911.0,8877.0,1424.0,0.05,-0.006,0.639,0.767
2450303,1537.0,9329.0,930.0,0.025,0.012,0.642,0.766
2450329,2391.0,8523.0,582.0,0.001,0.03,0.644,0.764
2450346,2411.0,8325.0,682.0,0.022,-0.047,-0.646,-0.761
2450363,3145.0,9125.0,580.0,0.044,-0.063,-0.649,-0.757
2450380,3125.0,10779.0,444.0,0.065,-0.08,-0.651,-0.752
2450397,3689.0,9213.0,298.0,0.085,-0.097,-0.649,-0.749
2450414,3949.0,6623.0,230.0,0.103,-0.112,-0.649,-0.745
2450431,4129.0,8361.0,68.0,0.122,-0.125,-0.651,-0.738
2450448,3993.0,10505.0,476.0,0.14,-0.138,-0.653,-0.732
2450465,4423.0,10077.0,412.0,0.159,-0.154,-0.651,-0.726
2450482,4883.0,6723.0,-20.0,0.176,-0.169,-0.648,-0.722
2450499,5501.0,6899.0,-58.0,0.192,-0.181,-0.648,-0.714
2450516,5597.0,9007.0,226.0,0.208,-0.191,-0.649,-0.707
2450533,5393.0,9815.0,350.0,0.223,-0.203,-0.648,-0.7
2450560,5735.0,8777.0,172.0,0.238,-0.214,-0.646,-0.693
2450577,6283.0,7835.0,-78.0,0.251,-0.225,-0.644,-0.687
2450594,6039.0,7633.0,-40.0,0.263,-0.234,-0.643,-0.68
2450611,5931.0,7427.0,12.0,0.275,-0.241,-0.642,-0.674
2450628,5511.0,7413.0,214.0,0.286,-0.249,-0.642,-0.667
2450645,5473.0,8099.0,284.0,0.296,-0.256,-0.64,-0.661
2450662,5421.0,6731.0,296.0,0.305,-0.264,-0.639,-0.655
2450679,5863.0,6385.0,10.0,0.313,-0.272,-0.638,-0.649
2450695,5927.0,6283.0,92.0,0.321,-0.278,-0.638,-0.643
2450712,6033.0,7067.0,114.0,0.329,-0.284,-0.637,-0.637
2450728,5909.0,6623.0,256.0,0.336,-0.29,-0.636,-0.632
2450745,6275.0,5889.0,104.0,0.342,-0.296,-0.635,-0.626
2450771,6421.0,6911.0,-8.0,0.348,-0.301,-0.635,-0.621
2450787,6619.0,7167.0,132.0,0.354,-0.306,-0.634,-0.616
2450803,6861.0,6873.0,180.0,0.359,-0.31,-0.633,-0.612
2450819,7131.0,7231.0,134.0,0.363,-0.314,-0.633,-0.608
2450835,7273.0,8471.0,138.0,0.366,-0.317,-0.633,-0.604
2450851,7237.0,8365.0,324.0,0.366,-0.319,-0.634,-0.602
2450877,7661.0,8841.0,178.0,0.365,-0.32,-0.635,-0.601
2450893,7261.0,9063.0,384.0,0.362,-0.319,-0.637,-0.602
2450909,7409.0,9007.0,62.0,0.356,-0.316,-0.64,-0.603
2450925,7325.0,9747.0,26.0,0.348,-0.31,-0.644,-0.606
2450941,7223.0,9867.0,226.0,0.338,-0.304,-0.648,-0.611
2450957,7405.0,9151.0,-128.0,0.326,-0.295,-0.653,-0.617
2450984,6983.0,9527.0,90.0,0.311,-0.285,-0.657,-0.624
2451000,6869.0,9111.0,-22.0,0.294,-0.273,-0.662,-0.633
2451016,6573.0,9429.0,-110.0,0.276,-0.261,-0.667,-0.642
2451032,6693.0,9343.0,-200.0,0.257,-0.247,-0.67,-0.651
2451048,6681.0,9133.0,-84.0,0.236,-0.233,-0.673,-0.661
2451064,6563.0,8825.0,-304.0,0.214,-0.218,-0.676,-0.671
2451090,6583.0,8667.0,-444.0,0.191,-0.202,-0.677,-0.681
2451106,6345.0,8731.0,-576.0,0.167,-0.185,-0.679,-0.691
2451122,5977.0,8605.0,-568.0,0.142,-0.166,-0.679,-0.701
2451138,5677.0,9003.0,-300.0,0.115,-0.148,-0.679,-0.71
2451154,5401.0,9199.0,-388.0,0.089,-0.129,-0.677,-0.719
2451170,4765.0,7991.0,-512.0,0.061,-0.11,-0.673,-0.728
2451196,4189.0,7977.0,-288.0,0.033,-0.09,-0.67,-0.736
2451213,3801.0,8741.0,-232.0,0.007,-0.071,-0.666,-0.743
2451230,2743.0,7327.0,202.0,0.019,0.054,0.66,0.749
2451246,2617.0,7859.0,58.0,0.046,0.037,0.655,0.754
2451263,2217.0,7325.0,248.0,0.073,0.021,0.648,0.758
2451279,1251.0,6551.0,538.0,0.1,0.006,0.641,0.761
2451295,861.0,7565.0,254.0,0.128,-0.009,0.633,0.763
2451311,577.0,6921.0,414.0,0.155,-0.022,0.624,0.766
2451337,-95.0,5709.0,260.0,0.181,-0.034,0.613,0.768
2451353,-9.0,4953.0,680.0,0.207,-0.045,0.604,0.769
2451369,-1081.0,4681.0,938.0,0.231,-0.055,0.594,0.769
2451385,-899.0,4035.0,764.0,0.255,-0.065,0.584,0.768
2451401,-1031.0,2999.0,1366.0,0.276,-0.074,0.574,0.767
2451417,-1987.0,2165.0,2068.0,0.296,-0.082,0.566,0.765
2451443,-2199.0,2619.0,2342.0,0.313,-0.088,0.56,0.762
2451459,-2511.0,1705.0,2850.0,0.327,-0.093,0.554,0.76
2451476,-3037.0,865.0,3166.0,0.339,-0.097,0.549,0.758
2451492,-3349.0,669.0,3556.0,0.349,-0.098,0.546,0.755
2451508,-3445.0,761.0,4120.0,0.355,-0.097,0.544,0.754
2451524,-3169.0,369.0,4320.0,0.359,-0.095,0.542,0.754
2451541,-3087.0,325.0,4820.0,0.36,-0.09,0.542,0.754
2451567,-2819.0,493.0,4840.0,0.357,-0.083,0.544,0.755
2451583,-2025.0,1193.0,4408.0,0.351,-0.075,0.548,0.755
2451599,-1807.0,1347.0,4206.0,0.342,-0.067,0.554,0.756
2451616,-1707.0,2331.0,4386.0,0.329,-0.059,0.562,0.757
2451632,-2029.0,3741.0,4324.0,0.313,-0.05,0.57,0.758
2451648,-1495.0,3783.0,4022.0,0.294,-0.04,0.579,0.76
2451665,-1251.0,3671.0,3524.0,0.273,-0.03,0.587,0.762
2451691,-987.0,4517.0,3232.0,0.251,-0.02,0.596,0.762
2451707,-735.0,5155.0,3016.0,0.227,-0.008,0.606,0.762
2451724,-297.0,6293.0,2102.0,0.203,0.003,0.615,0.762
2451740,305.0,6187.0,1934.0,0.177,0.014,0.623,0.762
2451756,67.0,6653.0,1784.0,0.15,0.025,0.631,0.761
2451772,787.0,7965.0,1252.0,0.123,0.038,0.639,0.759
2451798,987.0,8137.0,612.0,0.094,0.051,0.645,0.757
2451815,2281.0,7757.0,-98.0,0.066,0.063,0.648,0.756
2451831,1719.0,7971.0,176.0,0.039,0.074,0.65,0.755
2451847,2443.0,7669.0,82.0,0.013,0.086,0.653,0.752
2451863,2319.0,7843.0,-82.0,0.012,-0.098,-0.658,-0.747
2451880,3153.0,10041.0,-618.0,0.036,-0.11,-0.661,-0.742
2451897,3433.0,9029.0,-914.0,0.059,-0.124,-0.66,-0.739
2451914,4191.0,8351.0,-752.0,0.081,-0.136,-0.66,-0.735
2451941,3761.0,7791.0,-592.0,0.102,-0.149,-0.661,-0.729
2451957,4387.0,7853.0,-886.0,0.122,-0.161,-0.662,-0.722
2451974,4475.0,8385.0,-886.0,0.14,-0.172,-0.663,-0.715
2451991,4241.0,8939.0,-542.0,0.158,-0.184,-0.663,-0.708
2452008,4889.0,8789.0,-856.0,0.175,-0.196,-0.664,-0.7
2452025,5513.0,8271.0,-818.0,0.192,-0.208,-0.663,-0.693
2452042,5187.0,7309.0,-606.0,0.208,-0.218,-0.663,-0.685
2452059,5209.0,7491.0,-716.0,0.222,-0.228,-0.664,-0.676
2452076,4971.0,8231.0,-684.0,0.236,-0.237,-0.665,-0.668
2452092,5819.0,9595.0,-884.0,0.25,-0.246,-0.665,-0.66
2452109,6137.0,8119.0,-488.0,0.263,-0.256,-0.663,-0.653
2452126,6291.0,6205.0,-538.0,0.274,-0.265,-0.662,-0.645
2452153,6445.0,7957.0,-748.0,0.285,-0.271,-0.663,-0.637
2452169,5879.0,8239.0,-160.0,0.295,-0.277,-0.663,-0.63
2452185,5757.0,7347.0,-512.0,0.304,-0.284,-0.662,-0.623
2452201,6167.0,7753.0,-466.0,0.312,-0.29,-0.661,-0.618
2452217,5993.0,7849.0,-388.0,0.318,-0.296,-0.66,-0.613
2452233,6171.0,6891.0,-346.0,0.324,-0.302,-0.659,-0.608
2452249,6081.0,6923.0,-390.0,0.329,-0.306,-0.658,-0.604
2452276,5885.0,7659.0,-244.0,0.333,-0.31,-0.657,-0.601
2452293,5957.0,7269.0,-294.0,0.337,-0.314,-0.655,-0.598
2452310,6543.0,7467.0,-426.0,0.34,-0.317,-0.654,-0.596
2452327,7105.0,7775.0,-774.0,0.343,-0.319,-0.653,-0.595
2452344,7685.0,8319.0,-216.0,0.345,-0.318,-0.653,-0.594
2452361,7269.0,8509.0,0.0,0.344,-0.316,-0.654,-0.595
2452378,7109.0,9129.0,12.0,0.34,-0.312,-0.657,-0.596
2452395,6861.0,9711.0,-24.0,0.335,-0.307,-0.66,-0.599
2452412,6625.0,9495.0,56.0,0.327,-0.301,-0.663,-0.603
2452429,6533.0,9241.0,106.0,0.318,-0.293,-0.667,-0.607
2452446,6881.0,9299.0,-154.0,0.307,-0.284,-0.671,-0.612
2452463,6893.0,8997.0,-112.0,0.295,-0.272,-0.676,-0.618
2452479,6987.0,8635.0,-182.0,0.282,-0.258,-0.682,-0.624
2452506,6517.0,9263.0,-84.0,0.268,-0.242,-0.688,-0.63
2452522,6567.0,9201.0,-424.0,0.253,-0.225,-0.693,-0.637
2452538,5915.0,8995.0,-314.0,0.237,-0.207,-0.698,-0.643
2452554,5897.0,8987.0,-506.0,0.22,-0.187,-0.703,-0.65
2452570,5747.0,9705.0,-554.0,0.202,-0.166,-0.708,-0.656
2452596,5425.0,8911.0,-536.0,0.183,-0.146,-0.712,-0.662
2452613,4857.0,9115.0,-790.0,0.163,-0.125,-0.715,-0.668
2452630,4241.0,9663.0,-908.0,0.141,-0.104,-0.718,-0.673
2452646,3753.0,8959.0,-908.0,0.118,-0.084,-0.72,-0.679
2452662,3511.0,8711.0,-1384.0,0.094,-0.063,-0.721,-0.683
2452678,2625.0,9781.0,-914.0,0.07,-0.043,-0.721,-0.688
2452694,2629.0,8265.0,-990.0,0.044,-0.024,-0.72,-0.693
2452711,2489.0,8367.0,-1068.0,0.019,-0.005,-0.717,-0.696
2452727,2147.0,8313.0,-994.0,0.007,-0.013,0.714,0.7
2452753,1913.0,7933.0,-892.0,0.033,-0.031,0.71,0.703
2452769,1327.0,7629.0,-636.0,0.058,-0.049,0.704,0.706
2452785,759.0,7169.0,-402.0,0.083,-0.066,0.697,0.709
2452801,393.0,7119.0,-142.0,0.108,-0.083,0.69,0.711
2452817,161.0,6025.0,-18.0,0.133,-0.099,0.681,0.713
2452833,-195.0,5387.0,156.0,0.157,-0.114,0.673,0.714
2452859,-613.0,5689.0,176.0,0.179,-0.129,0.664,0.714
2452875,-1391.0,5051.0,648.0,0.2,-0.142,0.655,0.714
2452892,-1493.0,4257.0,794.0,0.22,-0.154,0.647,0.714
2452909,-1819.0,3355.0,910.0,0.238,-0.166,0.638,0.713
2452926,-2383.0,2281.0,1350.0,0.254,-0.176,0.63,0.712
2452942,-2935.0,1551.0,1792.0,0.268,-0.185,0.624,0.711
2452958,-3211.0,1151.0,1684.0,0.28,-0.191,0.619,0.709
2452984,-3651.0,487.0,2150.0,0.289,-0.196,0.615,0.707
2453000,-3881.0,261.0,2406.0,0.295,-0.199,0.612,0.706
2453016,-4133.0,-23.0,2582.0,0.297,-0.199,0.611,0.707
2453032,-4025.0,-383.0,2372.0,0.296,-0.196,0.611,0.707
2453048,-4109.0,19.0,2434.0,0.291,-0.192,0.613,0.708
2453065,-4111.0,799.0,2534.0,0.284,-0.186,0.617,0.71
2453081,-3961.0,1185.0,2282.0,0.273,-0.178,0.621,0.713
2453108,-3641.0,1333.0,2010.0,0.259,-0.168,0.627,0.715
2453125,-3685.0,2495.0,2026.0,0.244,-0.157,0.634,0.717
2453141,-3517.0,4143.0,1756.0,0.227,-0.144,0.641,0.719
2453158,-3141.0,4273.0,1364.0,0.208,-0.13,0.648,0.721
2453174,-2623.0,4279.0,1336.0,0.189,-0.115,0.656,0.722
2453190,-2027.0,5941.0,1132.0,0.169,-0.098,0.664,0.722
2453206,-1509.0,7407.0,750.0,0.148,-0.081,0.671,0.722
2453232,-1049.0,8073.0,936.0,0.127,-0.063,0.676,0.723
2453248,-327.0,7093.0,290.0,0.106,-0.045,0.681,0.723
2453264,265.0,7353.0,426.0,0.086,-0.028,0.688,0.72
2453280,435.0,8869.0,148.0,0.066,-0.012,0.693,0.718
2453296,181.0,9681.0,452.0,0.046,0.003,0.697,0.715
2453313,737.0,8531.0,208.0,0.026,0.02,0.699,0.714
2453330,1711.0,7995.0,-96.0,0.006,0.035,0.703,0.711
2453347,1509.0,8797.0,-122.0,0.013,-0.05,-0.707,-0.706
2453374,1907.0,10151.0,-268.0,0.03,-0.062,-0.709,-0.701
2453391,1725.0,9099.0,-166.0,0.048,-0.076,-0.711,-0.698
2453408,2605.0,8153.0,-510.0,0.065,-0.089,-0.713,-0.693
2453425,2709.0,8579.0,-750.0,0.081,-0.101,-0.716,-0.686
2453442,3341.0,9931.0,-1024.0,0.097,-0.112,-0.718,-0.68
2453459,3211.0,9153.0,-880.0,0.112,-0.122,-0.719,-0.675
2453476,3341.0,8247.0,-916.0,0.128,-0.132,-0.72,-0.67
2453492,3351.0,8331.0,-1096.0,0.142,-0.141,-0.722,-0.663
2453509,3673.0,8643.0,-1614.0,0.156,-0.149,-0.724,-0.655
2453525,3695.0,9543.0,-1220.0,0.168,-0.157,-0.725,-0.649
2453541,4189.0,9129.0,-1390.0,0.18,-0.165,-0.725,-0.643
2453567,4273.0,8315.0,-1412.0,0.191,-0.174,-0.725,-0.638
2453583,4561.0,7599.0,-1678.0,0.202,-0.182,-0.725,-0.632
2453599,4733.0,8005.0,-1644.0,0.212,-0.188,-0.726,-0.626
2453615,4441.0,8335.0,-1290.0,0.221,-0.195,-0.727,-0.621
2453631,4911.0,8067.0,-1600.0,0.23,-0.201,-0.727,-0.615
2453648,4675.0,8227.0,-1364.0,0.238,-0.206,-0.727,-0.611
2453665,4785.0,7741.0,-1438.0,0.246,-0.212,-0.726,-0.607
2453692,4765.0,7545.0,-1422.0,0.252,-0.218,-0.724,-0.604
2453708,4643.0,7527.0,-1186.0,0.258,-0.223,-0.722,-0.602
2453725,4681.0,6999.0,-1228.0,0.263,-0.229,-0.72,-0.6
2453741,4745.0,7015.0,-1246.0,0.268,-0.236,-0.717,-0.598
2453758,4855.0,7185.0,-1014.0,0.273,-0.242,-0.714,-0.597
2453775,5049.0,6811.0,-1124.0,0.277,-0.249,-0.711,-0.596
2453792,5071.0,6669.0,-1040.0,0.281,-0.257,-0.707,-0.596
2453809,5323.0,6459.0,-1026.0,0.285,-0.264,-0.702,-0.596
2453826,5325.0,6705.0,-826.0,0.289,-0.271,-0.698,-0.597
2453843,5523.0,6809.0,-668.0,0.292,-0.279,-0.692,-0.598
2453860,5705.0,6491.0,-852.0,0.296,-0.286,-0.687,-0.599
2453877,5973.0,6897.0,-586.0,0.299,-0.293,-0.682,-0.6
2453895,6037.0,6931.0,-616.0,0.302,-0.301,-0.676,-0.601
2453922,6517.0,7357.0,-514.0,0.305,-0.307,-0.67,-0.603
2453939,6757.0,7653.0,-418.0,0.306,-0.312,-0.666,-0.605
2453956,7005.0,7783.0,-274.0,0.306,-0.317,-0.661,-0.607
2453973,7099.0,7887.0,-276.0,0.305,-0.319,-0.658,-0.61
2453990,7087.0,8577.0,108.0,0.302,-0.319,-0.656,-0.613
2454007,6957.0,8725.0,82.0,0.297,-0.318,-0.655,-0.618
2454024,6799.0,8285.0,218.0,0.291,-0.315,-0.654,-0.623
2454041,6633.0,8457.0,378.0,0.283,-0.311,-0.655,-0.628
2454058,6353.0,8413.0,398.0,0.274,-0.305,-0.656,-0.634
2454075,6283.0,8485.0,296.0,0.265,-0.297,-0.657,-0.64
2454092,6325.0,8231.0,342.0,0.254,-0.288,-0.659,-0.647
2454109,6649.0,8193.0,54.0,0.243,-0.277,-0.662,-0.652
2454125,6821.0,8877.0,-60.0,0.231,-0.264,-0.666,-0.658
2454152,6317.0,9463.0,248.0,0.218,-0.249,-0.67,-0.664
2454168,6551.0,9441.0,-388.0,0.204,-0.234,-0.674,-0.67
2454184,6315.0,9157.0,-320.0,0.189,-0.217,-0.679,-0.676
2454200,5443.0,8879.0,-272.0,0.172,-0.198,-0.683,-0.681
2454216,5241.0,10269.0,-742.0,0.155,-0.178,-0.688,-0.686
2454242,5109.0,9941.0,-500.0,0.136,-0.159,-0.692,-0.691
2454258,4777.0,9239.0,-604.0,0.116,-0.139,-0.695,-0.696
2454274,3791.0,9781.0,-526.0,0.094,-0.118,-0.698,-0.7
2454291,2909.0,8449.0,-578.0,0.071,-0.098,-0.7,-0.704
2454307,2735.0,9223.0,-824.0,0.048,-0.077,-0.702,-0.706
2454324,2033.0,9169.0,-484.0,0.024,-0.057,-0.702,-0.709
2454341,2189.0,8129.0,-922.0,0.0,0.038,0.701,0.712
2454357,1431.0,7325.0,-502.0,0.025,0.019,0.7,0.714
2454383,929.0,7855.0,-540.0,0.051,0.0,0.698,0.715
2454399,879.0,7631.0,-944.0,0.076,-0.017,0.694,0.715
2454415,317.0,6783.0,-280.0,0.101,-0.035,0.69,0.716
2454431,17.0,5689.0,-430.0,0.126,-0.052,0.685,0.716
2454447,-351.0,6275.0,-516.0,0.151,-0.067,0.68,0.714
2454464,-885.0,5477.0,30.0,0.176,-0.082,0.674,0.713
2454480,-1257.0,5119.0,140.0,0.199,-0.096,0.666,0.712
2454506,-1585.0,3765.0,358.0,0.221,-0.107,0.659,0.711
2454522,-1839.0,3191.0,716.0,0.242,-0.117,0.653,0.708
2454539,-2011.0,2565.0,880.0,0.261,-0.125,0.646,0.706
2454555,-2189.0,1109.0,1264.0,0.277,-0.132,0.64,0.705
2454572,-2777.0,757.0,1896.0,0.29,-0.137,0.635,0.702
2454589,-3007.0,515.0,2452.0,0.3,-0.139,0.633,0.701
2454606,-3001.0,369.0,2506.0,0.306,-0.139,0.63,0.7
2454622,-3291.0,-27.0,3000.0,0.308,-0.137,0.63,0.7
2454639,-3433.0,-359.0,3162.0,0.305,-0.133,0.631,0.701
2454665,-3313.0,247.0,3024.0,0.299,-0.126,0.634,0.702
2454681,-3277.0,697.0,3020.0,0.289,-0.117,0.638,0.704
2454697,-3167.0,1043.0,2866.0,0.276,-0.107,0.644,0.706
2454713,-2767.0,1939.0,2508.0,0.26,-0.094,0.651,0.707
2454729,-2507.0,3031.0,2292.0,0.241,-0.08,0.659,0.708
2454755,-2171.0,4113.0,2262.0,0.22,-0.065,0.668,0.708
2454771,-1673.0,4843.0,1796.0,0.198,-0.049,0.676,0.709
2454788,-945.0,5145.0,1304.0,0.173,-0.032,0.684,0.708
2454804,-543.0,6707.0,1268.0,0.149,-0.016,0.692,0.706
2454821,-49.0,8493.0,420.0,0.123,0.0,0.698,0.706
2454837,567.0,8197.0,82.0,0.097,0.017,0.703,0.705
2454853,1073.0,8573.0,-132.0,0.071,0.033,0.707,0.703
2454870,1523.0,8627.0,-712.0,0.046,0.048,0.711,0.7
2454886,1727.0,10509.0,-694.0,0.022,0.061,0.713,0.698
2454912,2025.0,10359.0,-780.0,0.001,-0.075,-0.714,-0.696
2454928,2233.0,9195.0,-828.0,0.022,-0.089,-0.714,-0.694
2454944,2763.0,8191.0,-984.0,0.041,-0.101,-0.714,-0.691
2454961,2319.0,10279.0,-844.0,0.059,-0.113,-0.714,-0.688
2454978,2609.0,10049.0,-792.0,0.076,-0.125,-0.712,-0.687
2454995,3221.0,8987.0,-896.0,0.093,-0.138,-0.709,-0.685
2455012,3545.0,8379.0,-990.0,0.109,-0.151,-0.706,-0.683
2455029,3615.0,7621.0,-1052.0,0.124,-0.161,-0.704,-0.68
2455046,3269.0,8465.0,-528.0,0.138,-0.171,-0.702,-0.677
2455063,3269.0,8771.0,-646.0,0.152,-0.18,-0.699,-0.675
2455090,3781.0,8749.0,-850.0,0.166,-0.191,-0.695,-0.673
2455107,3315.0,5917.0,-1808.0,0.181,-0.201,-0.691,-0.67
2455124,4587.0,7437.0,-868.0,0.194,-0.209,-0.688,-0.667
2455140,4663.0,8459.0,-616.0,0.206,-0.217,-0.686,-0.663
2455156,4501.0,8725.0,-560.0,0.217,-0.226,-0.683,-0.66
2455172,5023.0,8347.0,-700.0,0.228,-0.235,-0.679,-0.657
2455188,5675.0,7485.0,-514.0,0.237,-0.244,-0.676,-0.654
2455214,5641.0,7433.0,-358.0,0.246,-0.253,-0.672,-0.651
2455230,5775.0,7687.0,-476.0,0.253,-0.261,-0.669,-0.648
2455247,5621.0,6927.0,-274.0,0.261,-0.269,-0.666,-0.645
2455263,5855.0,6861.0,-228.0,0.268,-0.276,-0.663,-0.642
2455279,5803.0,6693.0,-156.0,0.275,-0.283,-0.66,-0.639
2455296,5881.0,6781.0,-32.0,0.281,-0.289,-0.657,-0.637
2455313,5805.0,6239.0,8.0,0.287,-0.296,-0.654,-0.634
2455330,5901.0,5807.0,110.0,0.293,-0.303,-0.651,-0.632
2455347,5881.0,5779.0,-70.0,0.298,-0.31,-0.647,-0.629
2455364,5971.0,5623.0,-2.0,0.304,-0.316,-0.644,-0.627
2455391,5963.0,5147.0,98.0,0.31,-0.324,-0.64,-0.624
2455407,6031.0,5361.0,310.0,0.316,-0.331,-0.636,-0.622
2455424,6153.0,5421.0,350.0,0.322,-0.339,-0.631,-0.619
2455441,6729.0,4553.0,-62.0,0.329,-0.347,-0.626,-0.616
2455458,7349.0,4579.0,-306.0,0.337,-0.354,-0.621,-0.613
2455474,7673.0,5957.0,110.0,0.346,-0.36,-0.616,-0.609
2455490,7557.0,5879.0,410.0,0.355,-0.367,-0.611,-0.605
2455506,8459.0,5943.0,236.0,0.362,-0.373,-0.606,-0.602
2455533,8979.0,5479.0,72.0,0.367,-0.377,-0.602,-0.6
2455549,8741.0,6573.0,528.0,0.371,-0.38,-0.599,-0.599
2455565,8379.0,6957.0,862.0,0.374,-0.381,-0.597,-0.6
2455581,8219.0,6659.0,912.0,0.374,-0.379,-0.596,-0.601
2455597,7887.0,6745.0,1250.0,0.372,-0.376,-0.597,-0.603
2455613,7849.0,7175.0,1258.0,0.368,-0.371,-0.601,-0.606
2455630,7905.0,7101.0,908.0,0.362,-0.363,-0.605,-0.609
2455647,7823.0,7603.0,1008.0,0.354,-0.353,-0.611,-0.614
2455673,7751.0,7681.0,732.0,0.345,-0.341,-0.619,-0.618
2455689,7615.0,7763.0,584.0,0.335,-0.327,-0.627,-0.623
2455705,7451.0,8129.0,428.0,0.323,-0.31,-0.636,-0.628
2455721,7261.0,8245.0,384.0,0.31,-0.293,-0.646,-0.633
2455738,7459.0,9137.0,218.0,0.295,-0.274,-0.656,-0.638
2455754,7221.0,9139.0,10.0,0.278,-0.254,-0.666,-0.644
2455780,7251.0,9179.0,-338.0,0.26,-0.233,-0.675,-0.65
2455797,6635.0,9093.0,-260.0,0.241,-0.21,-0.684,-0.656
2455814,6247.0,9827.0,-374.0,0.22,-0.187,-0.692,-0.662
2455830,5703.0,9719.0,-692.0,0.199,-0.163,-0.699,-0.667
2455847,4903.0,9603.0,-352.0,0.176,-0.139,-0.705,-0.673
2455864,4411.0,9575.0,-638.0,0.152,-0.114,-0.711,-0.677
2455880,3739.0,9493.0,-556.0,0.127,-0.091,-0.715,-0.682
2455897,3079.0,9233.0,-754.0,0.102,-0.068,-0.717,-0.686
2455914,2777.0,8873.0,-570.0,0.075,-0.046,-0.718,-0.69
2455941,2303.0,8299.0,-620.0,0.048,-0.025,-0.719,-0.693
2455958,1821.0,8723.0,-420.0,0.02,-0.005,-0.717,-0.697
2455975,1695.0,7995.0,-594.0,0.007,-0.013,0.713,0.701
2455992,1423.0,6063.0,-1156.0,0.034,-0.03,0.707,0.706
2456009,795.0,5505.0,-356.0,0.061,-0.047,0.702,0.708
2456026,511.0,6753.0,-658.0,0.087,-0.063,0.697,0.709
2456043,285.0,5977.0,-540.0,0.111,-0.078,0.689,0.712
2456060,-141.0,4473.0,-190.0,0.135,-0.092,0.681,0.714
2456077,-267.0,5053.0,-150.0,0.157,-0.105,0.674,0.714
2456094,-851.0,4265.0,234.0,0.178,-0.117,0.666,0.715
2456111,-1117.0,3507.0,552.0,0.197,-0.128,0.658,0.716
2456128,-1639.0,3257.0,868.0,0.214,-0.139,0.65,0.716
2456145,-2191.0,2329.0,1056.0,0.228,-0.148,0.644,0.716
2456162,-2459.0,2265.0,1332.0,0.24,-0.155,0.638,0.715
2456179,-2885.0,1953.0,1720.0,0.249,-0.16,0.634,0.714
2456205,-3389.0,2029.0,2020.0,0.256,-0.164,0.631,0.714
2456222,-3517.0,1631.0,2228.0,0.261,-0.165,0.629,0.713
2456238,-3429.0,1353.0,2406.0,0.263,-0.164,0.629,0.713
2456254,-3421.0,1581.0,2380.0,0.263,-0.161,0.629,0.713
2456270,-3263.0,1579.0,2316.0,0.26,-0.156,0.631,0.714
2456286,-3101.0,1881.0,2164.0,0.254,-0.15,0.635,0.714
2456302,-2879.0,2083.0,2002.0,0.246,-0.142,0.64,0.714
2456328,-2789.0,2615.0,1996.0,0.235,-0.133,0.646,0.714
2456344,-2591.0,2895.0,1784.0,0.221,-0.121,0.653,0.714
2456360,-2339.0,3025.0,1616.0,0.205,-0.109,0.661,0.714
2456376,-2069.0,3743.0,1382.0,0.188,-0.095,0.669,0.713
2456393,-1795.0,4157.0,1288.0,0.168,-0.08,0.677,0.712
2456409,-1091.0,4783.0,644.0,0.147,-0.064,0.686,0.71
2456436,-815.0,5425.0,650.0,0.124,-0.046,0.694,0.708
2456452,-267.0,6113.0,536.0,0.1,-0.028,0.7,0.706
2456468,171.0,6311.0,-42.0,0.076,-0.009,0.706,0.705
2456484,775.0,5603.0,-216.0,0.05,0.01,0.711,0.702
2456500,1753.0,8481.0,-562.0,0.024,0.028,0.716,0.697
2456516,1307.0,10143.0,-664.0,0.003,-0.047,-0.718,-0.694
2456542,1971.0,9221.0,-200.0,0.029,-0.067,-0.717,-0.693
2456559,2579.0,7369.0,-812.0,0.053,-0.086,-0.715,-0.692
2456577,3735.0,7633.0,-1168.0,0.078,-0.104,-0.715,-0.687
2456594,3611.0,10179.0,-694.0,0.102,-0.121,-0.715,-0.681
2456611,3879.0,11453.0,-1062.0,0.125,-0.139,-0.71,-0.679
2456628,4341.0,8647.0,-526.0,0.147,-0.159,-0.702,-0.678
2456645,5231.0,7315.0,-1004.0,0.167,-0.177,-0.696,-0.676
2456662,5391.0,7251.0,-708.0,0.186,-0.193,-0.691,-0.672
2456679,6059.0,10285.0,-444.0,0.205,-0.208,-0.686,-0.666
2456696,5781.0,9385.0,-340.0,0.223,-0.226,-0.677,-0.664
2456713,6439.0,6629.0,-666.0,0.238,-0.242,-0.669,-0.661
2456730,6769.0,6829.0,-342.0,0.253,-0.256,-0.662,-0.657
2456747,7005.0,8545.0,-230.0,0.268,-0.27,-0.655,-0.653
2456763,6993.0,7183.0,-14.0,0.282,-0.284,-0.647,-0.649
2456780,7107.0,6735.0,8.0,0.295,-0.298,-0.639,-0.644
2456807,7315.0,6265.0,-34.0,0.308,-0.31,-0.632,-0.64
2456824,7151.0,5869.0,262.0,0.32,-0.322,-0.625,-0.635
2456841,7053.0,5861.0,436.0,0.331,-0.333,-0.618,-0.63
2456857,7393.0,5819.0,316.0,0.343,-0.344,-0.612,-0.625
2456874,7421.0,5787.0,336.0,0.354,-0.354,-0.605,-0.619
2456891,7945.0,5907.0,356.0,0.365,-0.364,-0.599,-0.613
2456907,8001.0,5857.0,408.0,0.375,-0.373,-0.592,-0.607
2456924,8483.0,5427.0,292.0,0.384,-0.38,-0.588,-0.602
2456940,8829.0,6239.0,146.0,0.393,-0.386,-0.584,-0.597
2456966,8853.0,6585.0,338.0,0.4,-0.389,-0.581,-0.592
2456982,8493.0,6911.0,506.0,0.406,-0.391,-0.579,-0.589
2456998,8229.0,6749.0,574.0,0.41,-0.391,-0.579,-0.586
2457014,7997.0,7033.0,630.0,0.411,-0.39,-0.581,-0.585
2457030,8051.0,6617.0,610.0,0.41,-0.386,-0.584,-0.584
2457047,7813.0,7223.0,428.0,0.408,-0.381,-0.589,-0.585
2457063,7807.0,6601.0,392.0,0.405,-0.373,-0.594,-0.587
2457089,7349.0,7377.0,624.0,0.401,-0.362,-0.601,-0.589
2457106,7127.0,7585.0,722.0,0.395,-0.351,-0.608,-0.592
2457123,6953.0,6613.0,748.0,0.388,-0.337,-0.617,-0.596
2457140,6837.0,7567.0,668.0,0.378,-0.321,-0.627,-0.601
2457157,6971.0,7895.0,480.0,0.368,-0.306,-0.636,-0.606
2457174,6851.0,7591.0,380.0,0.356,-0.291,-0.645,-0.611
2457191,7031.0,7777.0,114.0,0.342,-0.274,-0.654,-0.617
2457208,7263.0,8065.0,8.0,0.328,-0.258,-0.662,-0.623
2457224,7069.0,8533.0,130.0,0.313,-0.241,-0.67,-0.629
2457250,6773.0,8431.0,-24.0,0.295,-0.224,-0.677,-0.636
2457266,6727.0,8073.0,-434.0,0.276,-0.206,-0.685,-0.642
2457282,6193.0,8633.0,-328.0,0.257,-0.188,-0.692,-0.648
2457299,5615.0,9073.0,-352.0,0.236,-0.17,-0.698,-0.655
2457315,5677.0,9115.0,-448.0,0.215,-0.151,-0.702,-0.662
2457331,5239.0,8647.0,-580.0,0.193,-0.133,-0.705,-0.669
2457357,4893.0,8657.0,-570.0,0.171,-0.115,-0.708,-0.675
2457374,4383.0,8973.0,-538.0,0.148,-0.097,-0.711,-0.681
2457391,4235.0,9323.0,-448.0,0.124,-0.079,-0.711,-0.687
2457408,3689.0,8897.0,-432.0,0.1,-0.061,-0.711,-0.693
2457425,3609.0,7999.0,-568.0,0.076,-0.043,-0.711,-0.698
2457442,2591.0,8879.0,-306.0,0.051,-0.025,-0.709,-0.703
2457459,2531.0,9085.0,-394.0,0.025,-0.007,-0.707,-0.707
2457476,1641.0,7529.0,-180.0,0.0,-0.01,0.703,0.712
2457493,1497.0,7363.0,-278.0,0.026,-0.026,0.698,0.715
2457510,673.0,6753.0,-14.0,0.051,-0.043,0.692,0.718
2457526,771.0,6451.0,-44.0,0.076,-0.059,0.687,0.721
2457543,11.0,6157.0,112.0,0.099,-0.074,0.68,0.723
2457560,-323.0,5075.0,314.0,0.122,-0.088,0.673,0.724
2457577,-315.0,5429.0,242.0,0.143,-0.101,0.666,0.725
2457603,-1061.0,4263.0,690.0,0.163,-0.113,0.66,0.725
2457619,-1433.0,3823.0,822.0,0.182,-0.124,0.654,0.724
2457635,-1821.0,3967.0,978.0,0.199,-0.134,0.648,0.723
2457651,-2135.0,3345.0,1148.0,0.214,-0.143,0.641,0.723
2457667,-2761.0,2197.0,1476.0,0.226,-0.149,0.635,0.723
2457683,-2943.0,1641.0,1740.0,0.236,-0.154,0.631,0.723
2457709,-3367.0,2089.0,2006.0,0.245,-0.156,0.628,0.722
2457726,-3535.0,2243.0,2260.0,0.25,-0.157,0.625,0.722
2457743,-3635.0,1697.0,2322.0,0.253,-0.155,0.623,0.724
2457759,-3635.0,1403.0,2338.0,0.254,-0.151,0.622,0.725
2457776,-3617.0,1665.0,2344.0,0.252,-0.145,0.623,0.727
2457792,-3557.0,2345.0,2354.0,0.247,-0.138,0.624,0.728
2457809,-3411.0,2235.0,2292.0,0.24,-0.129,0.627,0.73
2457826,-3149.0,2381.0,2224.0,0.23,-0.119,0.631,0.732
2457843,-3005.0,2509.0,2204.0,0.218,-0.107,0.635,0.733
2457870,-2577.0,3301.0,2074.0,0.204,-0.095,0.641,0.733
2457886,-2517.0,3987.0,1990.0,0.188,-0.082,0.648,0.734
2457902,-2151.0,4123.0,1888.0,0.17,-0.068,0.654,0.734
2457918,-1889.0,3881.0,1594.0,0.15,-0.053,0.66,0.734
2457934,-1097.0,4629.0,1436.0,0.128,-0.037,0.667,0.733
2457950,-773.0,5927.0,1356.0,0.106,-0.02,0.674,0.731
2457966,-263.0,6587.0,1086.0,0.083,-0.003,0.679,0.729
2457992,267.0,6211.0,1280.0,0.059,0.015,0.681,0.729
2458009,1071.0,6005.0,936.0,0.035,0.034,0.684,0.728
2458025,1713.0,6157.0,826.0,0.01,0.053,0.688,0.724
2458041,2849.0,7959.0,234.0,0.015,-0.072,-0.69,-0.72
2458058,3069.0,9385.0,208.0,0.039,-0.089,-0.69,-0.717
2458075,3707.0,7965.0,308.0,0.064,-0.108,-0.688,-0.715
2458092,4801.0,7643.0,138.0,0.09,-0.126,-0.686,-0.711
2458109,5085.0,8193.0,-226.0,0.116,-0.144,-0.684,-0.706
2458126,5827.0,9721.0,-368.0,0.139,-0.159,-0.681,-0.701
2458143,5751.0,10369.0,48.0,0.163,-0.175,-0.675,-0.698
2458170,5931.0,8427.0,168.0,0.185,-0.193,-0.667,-0.696
2458187,6751.0,6807.0,-396.0,0.206,-0.208,-0.66,-0.691
2458203,6969.0,8993.0,78.0,0.227,-0.223,-0.654,-0.686
2458220,6851.0,8235.0,194.0,0.245,-0.238,-0.647,-0.682
2458236,7345.0,7945.0,128.0,0.263,-0.252,-0.64,-0.677
2458252,7195.0,8769.0,318.0,0.279,-0.267,-0.632,-0.672
2458268,7329.0,7797.0,276.0,0.294,-0.282,-0.622,-0.668
2458284,7365.0,5899.0,384.0,0.307,-0.296,-0.614,-0.664
2458311,7339.0,6111.0,398.0,0.32,-0.309,-0.606,-0.659
2458328,7231.0,6063.0,466.0,0.332,-0.321,-0.6,-0.653
2458345,7119.0,6693.0,530.0,0.343,-0.332,-0.593,-0.648
2458362,7363.0,6121.0,602.0,0.354,-0.343,-0.586,-0.643
2458379,7321.0,5167.0,726.0,0.364,-0.353,-0.58,-0.638
2458396,7285.0,5189.0,800.0,0.374,-0.361,-0.574,-0.632
2458413,7143.0,5215.0,852.0,0.383,-0.37,-0.569,-0.627
2458429,7139.0,5161.0,854.0,0.391,-0.377,-0.565,-0.62
2458446,7345.0,5259.0,938.0,0.4,-0.385,-0.561,-0.614
2458462,7499.0,5429.0,1042.0,0.408,-0.393,-0.558,-0.607
2458488,7811.0,5093.0,1034.0,0.416,-0.4,-0.555,-0.599
2458504,8835.0,5449.0,654.0,0.424,-0.406,-0.553,-0.592
2458521,9087.0,4995.0,728.0,0.431,-0.408,-0.551,-0.587
2458537,9145.0,5919.0,1064.0,0.436,-0.409,-0.55,-0.583
2458553,8541.0,5927.0,1238.0,0.441,-0.408,-0.55,-0.58
2458569,8047.0,5771.0,1562.0,0.444,-0.405,-0.552,-0.578
2458585,7569.0,6459.0,1558.0,0.446,-0.402,-0.555,-0.576
2458611,7457.0,6425.0,1340.0,0.446,-0.399,-0.559,-0.575
2458628,7511.0,5297.0,1280.0,0.444,-0.395,-0.563,-0.575
2458645,7871.0,5921.0,866.0,0.441,-0.389,-0.568,-0.575
2458662,7955.0,5879.0,658.0,0.438,-0.382,-0.575,-0.576
2458679,7881.0,5395.0,658.0,0.434,-0.372,-0.582,-0.578
2458696,8045.0,6585.0,550.0,0.429,-0.359,-0.591,-0.581
2458712,8205.0,6833.0,500.0,0.421,-0.346,-0.599,-0.586
2458729,8619.0,6443.0,402.0,0.411,-0.332,-0.609,-0.592
2458746,8861.0,7105.0,-256.0,0.399,-0.316,-0.619,-0.598
2458763,8661.0,7213.0,158.0,0.385,-0.3,-0.629,-0.605
2458789,8465.0,7521.0,100.0,0.368,-0.282,-0.639,-0.613
2458806,8493.0,8279.0,-306.0,0.35,-0.265,-0.65,-0.621
2458822,8527.0,8179.0,-420.0,0.329,-0.247,-0.658,-0.63
2458839,7807.0,7601.0,-186.0,0.307,-0.228,-0.666,-0.64
2458856,7171.0,8185.0,-248.0,0.284,-0.208,-0.674,-0.65
2458873,6521.0,8399.0,-182.0,0.259,-0.189,-0.68,-0.66
2458890,6299.0,7995.0,-322.0,0.235,-0.169,-0.685,-0.669
2458907,5541.0,8149.0,30.0,0.211,-0.149,-0.688,-0.678
2458923,5191.0,9441.0,6.0,0.184,-0.13,-0.691,-0.687
2458940,4585.0,9223.0,402.0,0.157,-0.112,-0.69,-0.698
2458967,4317.0,7911.0,96.0,0.129,-0.094,-0.688,-0.708
2458983,4233.0,7909.0,-376.0,0.101,-0.076,-0.687,-0.716
2458999,3513.0,9137.0,308.0,0.073,-0.057,-0.685,-0.723
2459015,2937.0,9001.0,402.0,0.045,-0.038,-0.68,-0.731
2459031,2919.0,8263.0,170.0,0.018,-0.02,-0.673,-0.739
2459047,2311.0,7179.0,264.0,0.009,0.002,0.666,0.746
2459063,1587.0,6927.0,352.0,0.035,-0.017,0.659,0.751
2459089,1165.0,7701.0,812.0,0.06,-0.035,0.651,0.756
2459105,593.0,6359.0,872.0,0.084,-0.052,0.642,0.761
2459122,583.0,5557.0,812.0,0.107,-0.068,0.634,0.763
2459138,-285.0,5815.0,1038.0,0.13,-0.084,0.626,0.764
2459155,-513.0,4857.0,1246.0,0.151,-0.098,0.618,0.765
2459172,-881.0,4785.0,1414.0,0.172,-0.112,0.61,0.766
2459189,-1379.0,3745.0,1490.0,0.192,-0.125,0.602,0.765
2459205,-1681.0,3111.0,1648.0,0.21,-0.136,0.596,0.763
2459222,-2027.0,2391.0,1864.0,0.226,-0.145,0.591,0.761
2459249,-2337.0,2323.0,1766.0,0.241,-0.153,0.586,0.758
2459265,-2779.0,1667.0,2038.0,0.253,-0.159,0.583,0.755
2459281,-3021.0,1329.0,2518.0,0.263,-0.163,0.582,0.752
2459297,-3127.0,1279.0,2464.0,0.269,-0.164,0.582,0.75
2459313,-3193.0,431.0,2554.0,0.272,-0.164,0.582,0.748
2459329,-3623.0,79.0,2864.0,0.273,-0.162,0.585,0.747
2459355,-3859.0,407.0,3110.0,0.27,-0.157,0.59,0.745
2459371,-3865.0,711.0,3092.0,0.264,-0.15,0.595,0.744
2459387,-3867.0,647.0,3184.0,0.255,-0.14,0.602,0.744
2459403,-3451.0,699.0,3010.0,0.242,-0.129,0.609,0.744
2459419,-3241.0,1267.0,2810.0,0.228,-0.116,0.618,0.744
2459436,-2781.0,1957.0,2432.0,0.21,-0.101,0.627,0.743
2459462,-2557.0,2651.0,2326.0,0.19,-0.084,0.637,0.742
2459478,-2175.0,2963.0,2154.0,0.168,-0.067,0.647,0.741
2459495,-1353.0,4697.0,1898.0,0.144,-0.048,0.657,0.739
2459512,-865.0,6139.0,1382.0,0.117,-0.027,0.666,0.736
2459529,341.0,6047.0,552.0,0.09,-0.006,0.673,0.734
2459545,997.0,4949.0,510.0,0.062,0.014,0.68,0.73
2459562,1973.0,8109.0,344.0,0.034,0.033,0.688,0.724
2459578,2101.0,9793.0,214.0,0.006,0.052,0.694,0.718
2459604,2571.0,10681.0,-260.0,0.023,-0.073,-0.697,-0.713
2459621,3359.0,8563.0,-622.0,0.05,-0.093,-0.695,-0.711
2459638,3645.0,5491.0,-540.0,0.076,-0.112,-0.696,-0.705
2459655,4781.0,7533.0,-488.0,0.101,-0.128,-0.701,-0.694
2459672,4299.0,11643.0,-624.0,0.125,-0.144,-0.705,-0.683
2459689,4605.0,12087.0,-912.0,0.148,-0.163,-0.702,-0.677
2459706,5213.0,8287.0,-722.0,0.171,-0.185,-0.696,-0.673
2459723,5557.0,4193.0,-1146.0,0.193,-0.204,-0.692,-0.665
2459740,6869.0,6181.0,-1282.0,0.213,-0.218,-0.691,-0.655
2459757,6869.0,10265.0,-1072.0,0.232,-0.23,-0.69,-0.645
2459774,6573.0,9119.0,-1112.0,0.252,-0.244,-0.686,-0.638
2459790,7355.0,6499.0,-1080.0,0.27,-0.258,-0.68,-0.631
2459816,7859.0,7313.0,-1458.0,0.287,-0.269,-0.675,-0.624
2459832,7531.0,6407.0,-1060.0,0.304,-0.28,-0.669,-0.618
2459848,7237.0,6147.0,-776.0,0.32,-0.289,-0.663,-0.611
2459865,7163.0,6445.0,-806.0,0.335,-0.298,-0.659,-0.604
2459881,7681.0,6977.0,-1038.0,0.349,-0.308,-0.654,-0.597
2459897,7805.0,5853.0,-890.0,0.362,-0.317,-0.648,-0.591
2459913,7919.0,4769.0,-802.0,0.373,-0.325,-0.643,-0.585
2459939,7955.0,5251.0,-812.0,0.384,-0.332,-0.639,-0.578
2459955,7485.0,5231.0,-650.0,0.394,-0.339,-0.634,-0.573
2459972,7263.0,4727.0,-336.0,0.404,-0.346,-0.63,-0.566
2459988,7415.0,4219.0,-480.0,0.413,-0.353,-0.625,-0.56
2460005,7989.0,4095.0,-856.0,0.423,-0.36,-0.621,-0.553
2460022,8471.0,4545.0,-942.0,0.434,-0.366,-0.615,-0.548
2460038,8251.0,4617.0,-454.0,0.444,-0.372,-0.608,-0.543
2460055,7903.0,4205.0,-40.0,0.453,-0.377,-0.602,-0.538
2460072,8105.0,3805.0,96.0,0.461,-0.382,-0.597,-0.534
2460098,8267.0,3869.0,212.0,0.466,-0.387,-0.593,-0.529
2460114,8245.0,4141.0,304.0,0.47,-0.392,-0.591,-0.525
2460130,8493.0,3857.0,150.0,0.473,-0.397,-0.589,-0.521
2460146,8703.0,3649.0,-2.0,0.475,-0.402,-0.588,-0.517
2460162,8557.0,4031.0,82.0,0.477,-0.405,-0.586,-0.514
2460179,8295.0,3593.0,284.0,0.48,-0.408,-0.585,-0.511
2460205,7989.0,3701.0,348.0,0.481,-0.41,-0.585,-0.508
2460221,7831.0,3677.0,360.0,0.482,-0.411,-0.585,-0.507
2460237,7821.0,3581.0,314.0,0.482,-0.411,-0.586,-0.505
2460254,7801.0,3615.0,252.0,0.482,-0.411,-0.587,-0.504
