timeMs,ax,ay,az,q0,q1,q2,q3
796358,8688.0,2789.0,1022.0,0.534,-0.477,-0.519,-0.467
796385,8382.0,2585.0,990.0,0.533,-0.484,-0.515,-0.466
796401,7972.0,2501.0,1070.0,0.531,-0.49,-0.51,-0.466
796417,7698.0,2499.0,1004.0,0.529,-0.497,-0.507,-0.466
796433,7658.0,2513.0,1012.0,0.526,-0.502,-0.503,-0.467
796449,7766.0,2111.0,864.0,0.522,-0.507,-0.5,-0.47
796466,7836.0,1883.0,888.0,0.519,-0.511,-0.497,-0.473
796483,7898.0,1829.0,802.0,0.515,-0.513,-0.495,-0.477
796500,7966.0,1885.0,770.0,0.512,-0.513,-0.493,-0.481
796526,8042.0,1919.0,876.0,0.508,-0.513,-0.491,-0.487
796543,8036.0,1677.0,782.0,0.505,-0.511,-0.491,-0.493
796560,8134.0,1927.0,1010.0,0.501,-0.508,-0.491,-0.5
796577,8104.0,2121.0,1128.0,0.497,-0.504,-0.492,-0.507
796594,8336.0,1913.0,1104.0,0.492,-0.499,-0.493,-0.515
796610,8502.0,2145.0,1198.0,0.487,-0.492,-0.496,-0.524
796626,8676.0,1877.0,1028.0,0.483,-0.485,-0.499,-0.532
796652,8842.0,2301.0,1006.0,0.478,-0.476,-0.502,-0.54
796669,8888.0,2865.0,1282.0,0.473,-0.467,-0.507,-0.549
796686,9014.0,3143.0,1314.0,0.467,-0.458,-0.51,-0.559
796703,9098.0,2775.0,1130.0,0.461,-0.447,-0.514,-0.568
796720,9368.0,2689.0,1056.0,0.456,-0.436,-0.518,-0.578
796737,9294.0,2945.0,1220.0,0.449,-0.421,-0.523,-0.589
796754,10092.0,3995.0,1228.0,0.442,-0.406,-0.528,-0.601
796771,9892.0,4157.0,1236.0,0.434,-0.388,-0.533,-0.614
796787,10384.0,5113.0,1100.0,0.425,-0.369,-0.538,-0.628
796804,9494.0,4513.0,1512.0,0.413,-0.35,-0.542,-0.643
796821,9296.0,5887.0,1916.0,0.399,-0.33,-0.547,-0.657
796838,8784.0,6397.0,2166.0,0.384,-0.312,-0.551,-0.672
796855,8628.0,5881.0,1838.0,0.367,-0.296,-0.552,-0.687
796872,8108.0,5501.0,1866.0,0.35,-0.28,-0.553,-0.702
796899,7758.0,6035.0,1850.0,0.331,-0.264,-0.555,-0.716
796915,7768.0,6207.0,1384.0,0.313,-0.249,-0.555,-0.729
796931,7300.0,6237.0,1130.0,0.294,-0.234,-0.555,-0.742
796947,7010.0,6813.0,946.0,0.274,-0.22,-0.553,-0.755
796963,6470.0,6563.0,836.0,0.255,-0.208,-0.55,-0.768
796980,6198.0,6219.0,660.0,0.234,-0.198,-0.545,-0.781
796997,5828.0,6337.0,512.0,0.215,-0.189,-0.538,-0.793
797013,5316.0,6063.0,530.0,0.196,-0.181,-0.529,-0.806
797039,4834.0,6055.0,730.0,0.178,-0.176,-0.518,-0.818
797055,4642.0,5755.0,758.0,0.16,-0.172,-0.505,-0.831
797072,4372.0,5201.0,834.0,0.141,-0.169,-0.491,-0.843
797089,3934.0,5015.0,1058.0,0.124,-0.167,-0.475,-0.855
797106,3694.0,4823.0,1262.0,0.106,-0.166,-0.459,-0.866
797123,3686.0,4481.0,1430.0,0.088,-0.166,-0.443,-0.877
797140,3712.0,4433.0,1642.0,0.071,-0.168,-0.426,-0.886
797157,4148.0,4561.0,1626.0,0.055,-0.171,-0.409,-0.895
797174,3844.0,4223.0,1776.0,0.039,-0.175,-0.392,-0.902
797191,3566.0,3687.0,1940.0,0.023,-0.179,-0.374,-0.91
797218,3458.0,3563.0,1984.0,0.008,-0.184,-0.357,-0.916
797234,3380.0,3091.0,1998.0,0.007,0.19,0.34,0.921
797250,3512.0,3405.0,2042.0,0.022,0.197,0.325,0.925
797266,3824.0,3949.0,2354.0,0.035,0.204,0.311,0.928
797283,3994.0,3017.0,2406.0,0.049,0.213,0.295,0.93
797300,4970.0,2259.0,3536.0,0.062,0.221,0.281,0.932
797316,6896.0,2049.0,5922.0,0.075,0.227,0.266,0.934
797333,6690.0,723.0,7388.0,0.085,0.23,0.243,0.938
797359,4344.0,-2365.0,5786.0,0.094,0.234,0.22,0.942
797375,5538.0,-2939.0,5396.0,0.102,0.236,0.201,0.945
797391,5422.0,-2639.0,7172.0,0.104,0.235,0.193,0.947
797407,5718.0,3297.0,8516.0,0.107,0.23,0.188,0.949
797423,3212.0,5737.0,9090.0,0.112,0.223,0.179,0.952
797439,1868.0,4569.0,9032.0,0.117,0.218,0.166,0.955
797465,1938.0,1859.0,7782.0,0.12,0.215,0.153,0.957
797481,2376.0,723.0,6894.0,0.123,0.215,0.142,0.958
797497,3360.0,-435.0,6628.0,0.126,0.217,0.133,0.959
797514,4226.0,-39.0,6762.0,0.129,0.219,0.126,0.959
797531,4302.0,863.0,7240.0,0.132,0.22,0.118,0.959
797547,4234.0,-215.0,7924.0,0.134,0.221,0.11,0.96
797563,3914.0,359.0,7592.0,0.135,0.223,0.105,0.96
797589,4032.0,1681.0,7562.0,0.135,0.224,0.1,0.96
797605,4098.0,2247.0,7620.0,0.133,0.225,0.096,0.961
797622,3924.0,1753.0,7430.0,0.13,0.225,0.093,0.961
797638,3848.0,2069.0,6952.0,0.126,0.224,0.091,0.962
797654,3890.0,1419.0,6734.0,0.121,0.224,0.09,0.963
797670,3760.0,1539.0,6542.0,0.114,0.223,0.09,0.964
797686,3744.0,1245.0,6324.0,0.107,0.222,0.091,0.965
797712,3746.0,1315.0,6430.0,0.1,0.221,0.092,0.966
797728,3860.0,1173.0,6820.0,0.094,0.219,0.092,0.967
797745,3692.0,2389.0,7140.0,0.089,0.216,0.092,0.968
797761,3442.0,2309.0,7494.0,0.084,0.214,0.09,0.969
797777,3162.0,1969.0,7730.0,0.08,0.212,0.087,0.97
797793,2860.0,1803.0,7634.0,0.076,0.21,0.083,0.971
797819,2946.0,1281.0,7790.0,0.072,0.21,0.079,0.972
797835,3066.0,1429.0,7684.0,0.069,0.21,0.076,0.972
797852,3130.0,1343.0,7546.0,0.066,0.211,0.072,0.973
797869,3128.0,1425.0,7604.0,0.063,0.212,0.069,0.973
797885,3128.0,711.0,7610.0,0.061,0.213,0.066,0.973
797901,3544.0,1071.0,7292.0,0.06,0.215,0.064,0.973
797917,3612.0,1177.0,7330.0,0.06,0.217,0.063,0.972
797943,3630.0,1157.0,7426.0,0.06,0.219,0.062,0.972
797959,3580.0,1455.0,7106.0,0.059,0.22,0.061,0.972
797975,3550.0,1161.0,7350.0,0.06,0.221,0.059,0.972
797991,3544.0,1149.0,7344.0,0.06,0.222,0.059,0.971
798007,3676.0,1155.0,7294.0,0.06,0.223,0.058,0.971
798023,3644.0,1213.0,7354.0,0.061,0.224,0.057,0.971
798049,3742.0,1069.0,7406.0,0.061,0.226,0.056,0.971
798065,4062.0,1503.0,7036.0,0.063,0.227,0.055,0.97
798082,4154.0,1607.0,6884.0,0.065,0.228,0.053,0.97
798098,4378.0,1765.0,6582.0,0.069,0.228,0.047,0.97
798114,4388.0,347.0,7408.0,0.076,0.229,0.041,0.97
798130,4774.0,287.0,7452.0,0.085,0.229,0.034,0.969
798146,4940.0,305.0,7260.0,0.094,0.229,0.029,0.968
798172,4954.0,261.0,6900.0,0.103,0.228,0.025,0.968
798188,4606.0,347.0,6882.0,0.111,0.227,0.022,0.967
798205,4084.0,289.0,6988.0,0.118,0.226,0.019,0.967
798221,3714.0,169.0,6976.0,0.124,0.224,0.018,0.967
798237,3638.0,125.0,6956.0,0.129,0.223,0.017,0.966
798253,3232.0,-21.0,7112.0,0.132,0.221,0.017,0.966
798279,3168.0,199.0,7230.0,0.135,0.219,0.018,0.966
798295,3060.0,95.0,7390.0,0.136,0.217,0.02,0.966
798311,2982.0,255.0,7644.0,0.136,0.215,0.023,0.967
798327,2840.0,915.0,7618.0,0.136,0.213,0.025,0.967
798343,2658.0,809.0,7982.0,0.135,0.211,0.027,0.968
798359,2660.0,1191.0,8164.0,0.135,0.21,0.029,0.968
798385,2908.0,1299.0,7958.0,0.134,0.21,0.03,0.968
798401,2982.0,1461.0,7792.0,0.132,0.211,0.031,0.968
798417,3058.0,1391.0,7826.0,0.131,0.211,0.031,0.968
798433,3226.0,1305.0,7720.0,0.13,0.212,0.03,0.968
798449,3478.0,1031.0,7696.0,0.128,0.213,0.029,0.968
798465,3634.0,849.0,7660.0,0.127,0.213,0.028,0.968
798491,3716.0,849.0,7426.0,0.126,0.212,0.027,0.969
798507,3650.0,1079.0,7042.0,0.125,0.212,0.026,0.969
798523,3422.0,959.0,6868.0,0.125,0.211,0.023,0.969
798539,3506.0,615.0,6920.0,0.125,0.21,0.021,0.969
798555,3534.0,617.0,6782.0,0.126,0.21,0.018,0.97
798571,3480.0,257.0,6774.0,0.127,0.209,0.016,0.97
798597,3696.0,487.0,6640.0,0.128,0.208,0.014,0.97
798613,3558.0,323.0,6704.0,0.13,0.207,0.012,0.97
798629,3498.0,-151.0,7172.0,0.131,0.206,0.01,0.97
798646,3688.0,207.0,7126.0,0.133,0.206,0.01,0.969
798662,3318.0,245.0,7354.0,0.135,0.205,0.009,0.969
798678,3248.0,-379.0,7668.0,0.136,0.205,0.008,0.969
798704,3380.0,-425.0,7900.0,0.137,0.205,0.01,0.969
798720,3650.0,-335.0,7954.0,0.137,0.206,0.012,0.969
798736,3854.0,-529.0,7982.0,0.136,0.207,0.016,0.969
798752,4082.0,113.0,7388.0,0.135,0.208,0.021,0.969
798768,3766.0,1201.0,7124.0,0.134,0.207,0.026,0.969
798784,3510.0,1115.0,7390.0,0.132,0.207,0.03,0.969
798810,3412.0,1053.0,7380.0,0.131,0.206,0.033,0.969
798826,3494.0,1257.0,7252.0,0.13,0.206,0.035,0.969
798842,3180.0,1063.0,7264.0,0.128,0.206,0.036,0.969
798858,3170.0,843.0,7520.0,0.127,0.208,0.037,0.969
798874,3358.0,1185.0,7440.0,0.125,0.21,0.038,0.969
798890,3584.0,1075.0,7324.0,0.124,0.212,0.038,0.969
798916,3604.0,863.0,7370.0,0.123,0.214,0.038,0.968
798932,3750.0,899.0,7224.0,0.122,0.217,0.037,0.968
798948,3876.0,955.0,7180.0,0.122,0.219,0.037,0.967
798964,3860.0,1061.0,7026.0,0.122,0.221,0.037,0.967
798980,3884.0,1027.0,6996.0,0.122,0.222,0.036,0.967
798996,3872.0,773.0,7118.0,0.122,0.222,0.036,0.967
799013,3850.0,605.0,7152.0,0.122,0.222,0.035,0.967
799040,3770.0,851.0,7110.0,0.123,0.221,0.036,0.967
799056,3570.0,761.0,7262.0,0.123,0.22,0.037,0.967
799073,3384.0,815.0,7404.0,0.123,0.219,0.038,0.967
799089,3214.0,717.0,7574.0,0.123,0.218,0.039,0.967
799105,3172.0,767.0,7594.0,0.123,0.217,0.04,0.968
799122,3194.0,961.0,7596.0,0.122,0.216,0.042,0.968
799139,3202.0,853.0,7568.0,0.122,0.216,0.044,0.968
799156,3286.0,855.0,7490.0,0.121,0.216,0.046,0.968
799172,3466.0,941.0,7310.0,0.12,0.216,0.048,0.968
799199,3632.0,965.0,7306.0,0.119,0.216,0.051,0.968
799215,3754.0,827.0,7316.0,0.118,0.216,0.053,0.968
799231,3930.0,473.0,7304.0,0.118,0.215,0.056,0.968
799247,4268.0,2035.0,6476.0,0.117,0.214,0.06,0.968
799263,3740.0,1565.0,7030.0,0.117,0.211,0.062,0.968
799279,3540.0,1377.0,7478.0,0.117,0.209,0.064,0.969
799305,3604.0,1047.0,7562.0,0.118,0.207,0.066,0.969
799321,3620.0,795.0,7422.0,0.118,0.205,0.069,0.969
799337,3460.0,1287.0,7356.0,0.118,0.203,0.072,0.97
799353,3194.0,921.0,7654.0,0.117,0.2,0.075,0.97
799369,3234.0,1047.0,7442.0,0.116,0.198,0.079,0.97
799385,3166.0,1175.0,7482.0,0.114,0.196,0.084,0.97
799411,3210.0,1415.0,7148.0,0.111,0.193,0.09,0.971
799427,2768.0,3037.0,6924.0,0.108,0.19,0.095,0.971
799443,2448.0,1749.0,7746.0,0.105,0.188,0.098,0.972
799459,2636.0,1071.0,7702.0,0.102,0.186,0.101,0.972
799475,2920.0,1091.0,7562.0,0.1,0.184,0.106,0.972
799501,2972.0,1387.0,7460.0,0.097,0.183,0.111,0.972
799517,2874.0,3265.0,6886.0,0.094,0.181,0.117,0.972
799533,2446.0,2759.0,7412.0,0.091,0.18,0.12,0.972
799549,2538.0,1755.0,7530.0,0.089,0.179,0.122,0.972
799565,2828.0,1849.0,7302.0,0.087,0.178,0.125,0.972
799581,2644.0,2535.0,7252.0,0.086,0.178,0.127,0.972
799597,2554.0,2547.0,7360.0,0.085,0.179,0.129,0.972
799623,2608.0,2211.0,7358.0,0.084,0.179,0.13,0.972
799639,2762.0,2191.0,7288.0,0.084,0.18,0.131,0.971
799655,2816.0,2247.0,7282.0,0.084,0.182,0.132,0.971
799671,2826.0,2385.0,7156.0,0.084,0.183,0.132,0.971
799687,2832.0,2411.0,7160.0,0.084,0.184,0.132,0.97
799703,2952.0,2297.0,7208.0,0.084,0.185,0.132,0.97
799729,2920.0,2433.0,7160.0,0.084,0.185,0.132,0.97
799745,2858.0,2309.0,7320.0,0.084,0.186,0.131,0.97
799761,2846.0,2177.0,7330.0,0.084,0.186,0.13,0.97
799778,2890.0,2265.0,7352.0,0.084,0.186,0.13,0.97
799794,2894.0,2187.0,7506.0,0.084,0.186,0.129,0.97
799811,2836.0,2165.0,7518.0,0.084,0.187,0.128,0.97
799827,2906.0,2205.0,7436.0,0.084,0.187,0.128,0.97
799853,2932.0,2281.0,7410.0,0.084,0.187,0.128,0.97
799869,2982.0,2141.0,7418.0,0.084,0.188,0.128,0.97
799885,3036.0,2261.0,7314.0,0.083,0.188,0.128,0.97
799901,2966.0,2213.0,7264.0,0.083,0.188,0.128,0.97
799917,3018.0,2061.0,7244.0,0.083,0.189,0.128,0.97
799943,3086.0,2049.0,7260.0,0.083,0.189,0.128,0.97
799959,3066.0,2177.0,7212.0,0.083,0.189,0.129,0.97
799975,3064.0,2091.0,7254.0,0.083,0.189,0.128,0.97
799991,3100.0,2099.0,7218.0,0.083,0.189,0.128,0.97
800007,3114.0,2123.0,7250.0,0.083,0.188,0.128,0.97
800023,3034.0,2071.0,7300.0,0.082,0.188,0.128,0.97
800049,3010.0,2073.0,7292.0,0.082,0.188,0.128,0.97
800065,3014.0,2043.0,7354.0,0.082,0.187,0.128,0.971
800081,2998.0,1973.0,7446.0,0.081,0.187,0.128,0.971
800097,2944.0,1901.0,7452.0,0.081,0.187,0.128,0.971
800113,2974.0,1897.0,7408.0,0.08,0.186,0.128,0.971
800129,2962.0,2055.0,7314.0,0.08,0.186,0.129,0.971
800155,2812.0,2207.0,7316.0,0.079,0.185,0.13,0.971
800172,2812.0,1959.0,7398.0,0.078,0.185,0.131,0.971
800188,2824.0,2059.0,7350.0,0.078,0.185,0.132,0.971
800204,2866.0,2195.0,7270.0,0.077,0.185,0.133,0.971
800220,2796.0,2253.0,7334.0,0.076,0.185,0.134,0.971
800236,2822.0,2231.0,7314.0,0.076,0.185,0.135,0.971
800253,2890.0,2341.0,7246.0,0.075,0.185,0.136,0.97
800279,2898.0,2347.0,7334.0,0.075,0.185,0.137,0.97
800295,2930.0,2443.0,7288.0,0.074,0.185,0.137,0.97
800311,2922.0,2427.0,7234.0,0.074,0.185,0.137,0.97
800327,2944.0,2339.0,7208.0,0.074,0.185,0.137,0.97
800344,2946.0,2455.0,7238.0,0.074,0.186,0.137,0.97
800360,2926.0,2323.0,7326.0,0.074,0.186,0.137,0.97
800376,2920.0,2303.0,7292.0,0.074,0.186,0.137,0.97
800402,2942.0,2255.0,7334.0,0.074,0.186,0.136,0.97
800418,2904.0,2313.0,7326.0,0.074,0.186,0.136,0.97
800434,2904.0,2279.0,7360.0,0.074,0.186,0.136,0.97
800450,2928.0,2261.0,7334.0,0.074,0.186,0.136,0.97
800466,2912.0,2255.0,7358.0,0.074,0.186,0.136,0.97
800482,2900.0,2163.0,7324.0,0.074,0.186,0.135,0.97
800508,2908.0,2193.0,7332.0,0.074,0.186,0.135,0.97
800524,2868.0,2147.0,7288.0,0.073,0.186,0.135,0.97
800540,2880.0,2127.0,7314.0,0.073,0.186,0.135,0.97
800556,2950.0,2237.0,7294.0,0.073,0.186,0.135,0.97
800573,2912.0,2133.0,7314.0,0.073,0.186,0.135,0.97
800589,2922.0,2205.0,7332.0,0.073,0.186,0.135,0.97
800606,2950.0,2169.0,7276.0,0.072,0.186,0.136,0.97
800633,3012.0,2225.0,7310.0,0.072,0.186,0.136,0.97
800650,3022.0,2219.0,7248.0,0.072,0.186,0.136,0.97
800666,2972.0,2203.0,7270.0,0.072,0.187,0.136,0.97
800682,2966.0,2203.0,7252.0,0.072,0.187,0.136,0.97
800698,2954.0,2179.0,7302.0,0.072,0.187,0.136,0.97
800714,2962.0,2201.0,7330.0,0.071,0.187,0.136,0.97
800730,2976.0,2197.0,7302.0,0.071,0.187,0.136,0.97
800756,2938.0,2231.0,7280.0,0.071,0.187,0.136,0.97
800773,2920.0,2269.0,7304.0,0.071,0.187,0.136,0.97
800789,2928.0,2235.0,7306.0,0.07,0.187,0.136,0.97
800805,2940.0,2263.0,7306.0,0.07,0.187,0.136,0.97
800821,2948.0,2233.0,7254.0,0.07,0.187,0.137,0.97
800837,2894.0,2277.0,7256.0,0.07,0.187,0.137,0.97
800863,2976.0,2295.0,7328.0,0.069,0.188,0.137,0.97
800879,2976.0,2271.0,7250.0,0.069,0.188,0.137,0.97
800895,2926.0,2223.0,7264.0,0.069,0.188,0.137,0.97
800911,2962.0,2255.0,7256.0,0.069,0.188,0.136,0.97
800927,2884.0,2243.0,7312.0,0.069,0.188,0.136,0.97
800943,2926.0,2229.0,7286.0,0.069,0.188,0.136,0.97
800969,2956.0,2219.0,7280.0,0.069,0.188,0.136,0.97
800985,2962.0,2237.0,7266.0,0.069,0.188,0.136,0.97
801001,2994.0,2197.0,7256.0,0.069,0.188,0.136,0.97
801018,3010.0,2209.0,7258.0,0.069,0.188,0.136,0.97
801034,2984.0,2193.0,7246.0,0.068,0.188,0.136,0.97
801050,2968.0,2179.0,7282.0,0.068,0.188,0.136,0.97
801066,2958.0,2205.0,7284.0,0.068,0.188,0.136,0.97
801092,2942.0,2169.0,7276.0,0.068,0.189,0.136,0.97
801108,2936.0,2183.0,7282.0,0.068,0.189,0.136,0.97
801125,2992.0,2187.0,7302.0,0.068,0.189,0.136,0.97
801141,2958.0,2155.0,7284.0,0.068,0.189,0.136,0.97
801157,2996.0,2221.0,7312.0,0.068,0.189,0.136,0.97
801173,2974.0,2201.0,7292.0,0.068,0.189,0.136,0.97
801199,2984.0,2209.0,7290.0,0.068,0.189,0.136,0.97
801215,2960.0,2231.0,7288.0,0.067,0.189,0.136,0.97
801231,2976.0,2183.0,7276.0,0.067,0.189,0.136,0.97
801247,2944.0,2233.0,7236.0,0.067,0.189,0.136,0.97
801263,2966.0,2213.0,7276.0,0.067,0.189,0.136,0.97
801279,3006.0,2267.0,7288.0,0.067,0.189,0.136,0.97
801305,2976.0,2211.0,7298.0,0.067,0.189,0.136,0.97
801321,2966.0,2251.0,7212.0,0.066,0.189,0.136,0.97
801338,2918.0,2237.0,7308.0,0.066,0.189,0.136,0.97
801354,2944.0,2241.0,7280.0,0.066,0.189,0.136,0.97
801371,2980.0,2255.0,7266.0,0.066,0.189,0.136,0.97
801388,2986.0,2227.0,7276.0,0.066,0.189,0.136,0.97
801404,3004.0,2245.0,7248.0,0.066,0.189,0.136,0.97
801421,2974.0,2271.0,7308.0,0.066,0.189,0.136,0.97
801438,2966.0,2193.0,7292.0,0.066,0.189,0.136,0.97
801465,2934.0,2173.0,7274.0,0.066,0.189,0.136,0.97
801481,3004.0,2173.0,7284.0,0.066,0.19,0.136,0.97
801497,3000.0,2249.0,7296.0,0.065,0.19,0.136,0.97
801513,2946.0,2219.0,7290.0,0.065,0.19,0.136,0.97
801529,3024.0,2231.0,7256.0,0.065,0.19,0.136,0.97
801545,3020.0,2177.0,7280.0,0.065,0.19,0.136,0.97
801571,2972.0,2211.0,7270.0,0.065,0.19,0.136,0.97
801587,3044.0,2213.0,7266.0,0.065,0.19,0.136,0.97
801603,2988.0,2169.0,7302.0,0.065,0.19,0.136,0.97
801620,3010.0,2207.0,7328.0,0.065,0.19,0.136,0.97
801636,2996.0,2205.0,7334.0,0.064,0.19,0.136,0.97
801652,2952.0,2189.0,7344.0,0.064,0.19,0.136,0.97
801668,3036.0,2231.0,7252.0,0.064,0.19,0.136,0.97
801694,3034.0,2229.0,7266.0,0.064,0.19,0.137,0.97
801711,2962.0,2205.0,7270.0,0.064,0.19,0.137,0.97
801727,2962.0,2237.0,7282.0,0.063,0.19,0.137,0.97
801743,2912.0,2255.0,7222.0,0.063,0.189,0.137,0.97
801760,2964.0,2259.0,7218.0,0.063,0.189,0.138,0.97
801776,2964.0,2209.0,7300.0,0.063,0.19,0.138,0.97
801792,2954.0,2243.0,7264.0,0.062,0.19,0.138,0.97
801818,2966.0,2307.0,7270.0,0.062,0.19,0.138,0.97
801834,2950.0,2267.0,7256.0,0.062,0.19,0.138,0.97
801850,2956.0,2273.0,7288.0,0.062,0.19,0.138,0.97
801866,2940.0,2283.0,7266.0,0.062,0.19,0.138,0.97
801882,2954.0,2259.0,7258.0,0.062,0.19,0.138,0.97
801898,2934.0,2275.0,7294.0,0.062,0.19,0.138,0.97
801924,2970.0,2239.0,7326.0,0.062,0.19,0.138,0.97
801941,2994.0,2271.0,7300.0,0.062,0.19,0.138,0.97
801958,2984.0,2257.0,7262.0,0.062,0.19,0.138,0.97
801974,3044.0,2201.0,7286.0,0.062,0.19,0.138,0.97
801991,2982.0,2233.0,7310.0,0.061,0.19,0.138,0.97
802007,2990.0,2227.0,7244.0,0.061,0.19,0.138,0.97
802023,3016.0,2247.0,7176.0,0.061,0.19,0.138,0.97
802049,2996.0,2197.0,7284.0,0.061,0.19,0.138,0.97
802065,2968.0,2265.0,7312.0,0.061,0.19,0.138,0.97
802081,2936.0,2213.0,7290.0,0.061,0.19,0.138,0.97
802097,2930.0,2241.0,7226.0,0.061,0.189,0.138,0.97
802113,2992.0,2231.0,7282.0,0.061,0.19,0.138,0.97
802129,3018.0,2235.0,7286.0,0.061,0.19,0.138,0.97
802155,2934.0,2257.0,7306.0,0.061,0.19,0.138,0.97
802171,2990.0,2267.0,7250.0,0.061,0.19,0.138,0.97
802187,3010.0,2179.0,7302.0,0.061,0.19,0.138,0.97
802203,2962.0,2179.0,7308.0,0.061,0.19,0.138,0.97
802219,2946.0,2277.0,7286.0,0.06,0.19,0.138,0.97
802235,2998.0,2195.0,7280.0,0.06,0.19,0.138,0.97
802261,2990.0,2237.0,7294.0,0.06,0.19,0.138,0.97
802277,2970.0,2215.0,7252.0,0.06,0.19,0.138,0.97
802293,3038.0,2227.0,7314.0,0.06,0.191,0.138,0.97
802309,3016.0,2243.0,7282.0,0.06,0.191,0.138,0.97
802325,3002.0,2219.0,7250.0,0.06,0.191,0.138,0.97
802341,3024.0,2195.0,7332.0,0.06,0.191,0.138,0.97
802358,3024.0,2213.0,7290.0,0.06,0.191,0.138,0.97
802384,3080.0,2243.0,7282.0,0.059,0.191,0.138,0.97
802400,3036.0,2257.0,7286.0,0.059,0.191,0.138,0.97
802416,3022.0,2269.0,7280.0,0.059,0.191,0.138,0.97
802432,3002.0,2247.0,7210.0,0.059,0.191,0.138,0.97
802448,2994.0,2255.0,7194.0,0.059,0.191,0.139,0.97
802464,2940.0,2239.0,7248.0,0.059,0.191,0.139,0.97
802490,2970.0,2271.0,7230.0,0.059,0.191,0.139,0.97
802507,2948.0,2263.0,7246.0,0.059,0.191,0.139,0.97
802524,2956.0,2297.0,7234.0,0.059,0.191,0.139,0.97
802541,2982.0,2293.0,7218.0,0.058,0.191,0.139,0.97
802558,2994.0,2297.0,7280.0,0.058,0.191,0.139,0.97
802574,2950.0,2239.0,7300.0,0.058,0.192,0.138,0.97
802590,2982.0,2243.0,7252.0,0.058,0.192,0.138,0.97
802606,2992.0,2227.0,7296.0,0.058,0.192,0.138,0.97
802632,3002.0,2203.0,7246.0,0.058,0.192,0.138,0.97
802648,3004.0,2199.0,7268.0,0.059,0.192,0.137,0.97
802664,2980.0,2227.0,7286.0,0.059,0.193,0.137,0.97
802680,2992.0,2219.0,7246.0,0.059,0.193,0.137,0.97
802696,3010.0,2183.0,7276.0,0.059,0.193,0.137,0.97
802712,3028.0,2153.0,7258.0,0.059,0.193,0.137,0.97
802738,3074.0,2207.0,7242.0,0.059,0.193,0.137,0.97
802754,3048.0,2189.0,7244.0,0.059,0.193,0.137,0.97
802770,3008.0,2215.0,7220.0,0.059,0.194,0.137,0.97
802786,3066.0,2233.0,7260.0,0.059,0.194,0.137,0.97
802802,3034.0,2213.0,7238.0,0.059,0.194,0.137,0.97
802818,3040.0,2265.0,7226.0,0.059,0.194,0.137,0.97
802844,3058.0,2205.0,7276.0,0.059,0.194,0.137,0.97
802861,3054.0,2175.0,7266.0,0.059,0.194,0.137,0.97
802877,3006.0,2231.0,7220.0,0.058,0.194,0.137,0.97
802894,3042.0,2239.0,7252.0,0.058,0.194,0.137,0.97
802911,3022.0,2267.0,7278.0,0.058,0.194,0.137,0.97
802927,2992.0,2197.0,7294.0,0.058,0.194,0.137,0.97
802943,3076.0,2247.0,7230.0,0.058,0.194,0.138,0.97
802969,3062.0,2193.0,7244.0,0.058,0.194,0.138,0.97
802985,3024.0,2257.0,7282.0,0.058,0.194,0.138,0.97
803001,3002.0,2249.0,7248.0,0.058,0.194,0.138,0.97
803017,3032.0,2211.0,7238.0,0.058,0.194,0.138,0.97
803033,3036.0,2275.0,7238.0,0.058,0.194,0.138,0.97
803049,2966.0,2227.0,7276.0,0.058,0.194,0.138,0.97
803075,3044.0,2197.0,7298.0,0.058,0.194,0.138,0.97
803091,3046.0,2171.0,7238.0,0.058,0.195,0.138,0.969
803107,3028.0,2231.0,7280.0,0.058,0.195,0.138,0.969
803123,3036.0,2233.0,7278.0,0.057,0.195,0.138,0.969
803139,3022.0,2249.0,7228.0,0.057,0.195,0.138,0.969
803155,3046.0,2261.0,7194.0,0.057,0.195,0.138,0.969
803181,3006.0,2253.0,7190.0,0.057,0.194,0.138,0.969
803197,3034.0,2251.0,7240.0,0.057,0.194,0.138,0.969
803213,3018.0,2243.0,7216.0,0.057,0.194,0.138,0.969
803229,3022.0,2243.0,7244.0,0.057,0.195,0.138,0.969
803245,3022.0,2249.0,7206.0,0.057,0.195,0.138,0.969
803262,3066.0,2201.0,7242.0,0.057,0.195,0.138,0.969
803279,3006.0,2193.0,7224.0,0.056,0.195,0.138,0.969
803305,3044.0,2235.0,7214.0,0.056,0.195,0.138,0.969
803321,3026.0,2173.0,7256.0,0.056,0.195,0.138,0.97
803337,3010.0,2215.0,7286.0,0.056,0.194,0.138,0.97
803353,3082.0,2217.0,7250.0,0.056,0.194,0.138,0.97
803369,3024.0,2217.0,7276.0,0.056,0.194,0.138,0.97
803385,3030.0,2241.0,7232.0,0.056,0.194,0.138,0.97
803411,3028.0,2233.0,7278.0,0.056,0.194,0.138,0.97
803427,3052.0,2225.0,7282.0,0.056,0.194,0.138,0.97
803443,3052.0,2179.0,7234.0,0.055,0.194,0.138,0.97
803459,3080.0,2177.0,7244.0,0.055,0.194,0.138,0.97
803475,2970.0,2239.0,7296.0,0.055,0.194,0.138,0.97
803491,3018.0,2207.0,7270.0,0.055,0.194,0.139,0.97
803517,3020.0,2207.0,7252.0,0.055,0.194,0.139,0.97
803533,3014.0,2281.0,7206.0,0.055,0.194,0.139,0.97
803549,3054.0,2235.0,7268.0,0.054,0.193,0.139,0.97
803565,3042.0,2265.0,7256.0,0.054,0.193,0.139,0.97
803581,3064.0,2237.0,7242.0,0.054,0.193,0.139,0.97
803597,3032.0,2203.0,7230.0,0.054,0.193,0.14,0.97
803623,3054.0,2243.0,7266.0,0.053,0.193,0.14,0.97
803639,3038.0,2299.0,7236.0,0.053,0.193,0.14,0.97
803655,3008.0,2251.0,7246.0,0.053,0.192,0.14,0.97
803671,3004.0,2247.0,7282.0,0.053,0.192,0.14,0.97
803687,2996.0,2275.0,7326.0,0.052,0.192,0.141,0.97
803703,2990.0,2319.0,7306.0,0.052,0.192,0.141,0.97
803729,2972.0,2233.0,7218.0,0.052,0.192,0.141,0.97
803745,2980.0,2281.0,7248.0,0.052,0.192,0.141,0.97
803761,2964.0,2269.0,7262.0,0.052,0.192,0.141,0.97
803777,2962.0,2267.0,7296.0,0.052,0.192,0.141,0.97
803793,3030.0,2277.0,7226.0,0.051,0.192,0.141,0.97
803809,2972.0,2269.0,7212.0,0.051,0.192,0.142,0.97
803835,2948.0,2269.0,7262.0,0.051,0.192,0.142,0.97
803851,2972.0,2263.0,7220.0,0.051,0.192,0.142,0.97
803867,3026.0,2241.0,7194.0,0.051,0.192,0.142,0.97
803883,2986.0,2263.0,7204.0,0.051,0.192,0.142,0.97
803899,2984.0,2307.0,7254.0,0.051,0.192,0.142,0.97
803925,2998.0,2337.0,7228.0,0.05,0.192,0.142,0.97
803941,3014.0,2287.0,7256.0,0.05,0.192,0.142,0.97
803957,2958.0,2271.0,7260.0,0.05,0.192,0.142,0.97
803973,3014.0,2263.0,7244.0,0.05,0.192,0.142,0.97
803989,2960.0,2287.0,7250.0,0.05,0.192,0.142,0.97
804005,3008.0,2281.0,7256.0,0.05,0.192,0.142,0.97
804031,2936.0,2325.0,7236.0,0.05,0.192,0.142,0.97
804047,2990.0,2301.0,7328.0,0.05,0.192,0.142,0.97
804063,2990.0,2247.0,7242.0,0.05,0.192,0.142,0.97
804079,2970.0,2303.0,7246.0,0.05,0.192,0.142,0.97
804095,3012.0,2289.0,7210.0,0.05,0.192,0.142,0.97
804111,3008.0,2277.0,7300.0,0.05,0.192,0.142,0.97
804137,3064.0,2305.0,7228.0,0.05,0.192,0.142,0.97
804153,3046.0,2283.0,7210.0,0.05,0.192,0.142,0.97
804169,3060.0,2283.0,7214.0,0.049,0.192,0.142,0.97
804186,2992.0,2215.0,7242.0,0.049,0.192,0.142,0.97
804202,3024.0,2247.0,7268.0,0.049,0.192,0.142,0.97
804218,3028.0,2271.0,7224.0,0.049,0.192,0.142,0.97
804234,3010.0,2261.0,7276.0,0.049,0.192,0.142,0.97
804260,2996.0,2249.0,7290.0,0.049,0.192,0.142,0.97
804276,2986.0,2257.0,7238.0,0.049,0.192,0.142,0.97
804292,3002.0,2321.0,7268.0,0.049,0.191,0.142,0.97
804308,2998.0,2287.0,7234.0,0.049,0.191,0.142,0.97
804324,2974.0,2225.0,7258.0,0.048,0.191,0.142,0.97
804340,2992.0,2227.0,7244.0,0.048,0.191,0.143,0.97
804366,3048.0,2241.0,7226.0,0.048,0.191,0.143,0.97
804383,3024.0,2277.0,7228.0,0.048,0.191,0.143,0.97
804399,2972.0,2301.0,7246.0,0.048,0.191,0.144,0.97
804415,3020.0,2307.0,7264.0,0.047,0.19,0.144,0.97
804431,2966.0,2261.0,7244.0,0.047,0.19,0.144,0.97
804447,2998.0,2257.0,7238.0,0.047,0.19,0.144,0.97
804473,2946.0,2335.0,7276.0,0.047,0.189,0.145,0.97
804490,2908.0,2363.0,7248.0,0.046,0.189,0.145,0.97
804507,2954.0,2339.0,7260.0,0.046,0.189,0.145,0.97
804524,2916.0,2295.0,7252.0,0.046,0.189,0.146,0.97
804540,2884.0,2323.0,7264.0,0.046,0.188,0.146,0.97
804556,2940.0,2313.0,7266.0,0.046,0.188,0.146,0.97
804573,2930.0,2323.0,7258.0,0.045,0.188,0.146,0.97
804590,2984.0,2321.0,7238.0,0.045,0.188,0.146,0.97
804606,2986.0,2325.0,7232.0,0.045,0.188,0.147,0.97
804633,2982.0,2337.0,7196.0,0.045,0.188,0.147,0.97
804649,2956.0,2353.0,7228.0,0.045,0.188,0.147,0.97
804665,2908.0,2367.0,7210.0,0.045,0.188,0.147,0.97
804682,2908.0,2319.0,7294.0,0.045,0.188,0.147,0.97
804698,2930.0,2275.0,7282.0,0.045,0.188,0.147,0.97
804714,2858.0,2327.0,7272.0,0.045,0.188,0.147,0.97
804730,2920.0,2283.0,7290.0,0.045,0.188,0.147,0.97
804756,2952.0,2345.0,7304.0,0.045,0.188,0.147,0.97
804772,2996.0,2335.0,7238.0,0.045,0.188,0.147,0.97
804788,2942.0,2375.0,7266.0,0.045,0.188,0.148,0.97
804804,2918.0,2361.0,7246.0,0.045,0.188,0.148,0.97
804820,2948.0,2385.0,7280.0,0.045,0.188,0.148,0.97
804836,2990.0,2361.0,7216.0,0.045,0.188,0.148,0.97
804862,3006.0,2347.0,7208.0,0.045,0.188,0.148,0.97
804878,2944.0,2449.0,7246.0,0.044,0.188,0.148,0.97
804894,2964.0,2395.0,7268.0,0.044,0.188,0.148,0.97
804910,2944.0,2465.0,7240.0,0.044,0.188,0.148,0.97
804926,2914.0,2331.0,7240.0,0.044,0.188,0.148,0.97
804942,2968.0,2377.0,7306.0,0.044,0.188,0.148,0.97
804968,2948.0,2319.0,7272.0,0.044,0.188,0.148,0.97
804984,2924.0,2315.0,7296.0,0.044,0.188,0.148,0.97
805001,2918.0,2345.0,7252.0,0.044,0.188,0.148,0.97
805017,2978.0,2341.0,7216.0,0.044,0.188,0.148,0.97
805033,2912.0,2325.0,7318.0,0.044,0.188,0.148,0.97
805049,2980.0,2305.0,7194.0,0.044,0.187,0.148,0.97
805075,2958.0,2319.0,7186.0,0.044,0.187,0.148,0.97
805091,2982.0,2305.0,7234.0,0.044,0.187,0.148,0.97
805107,2986.0,2311.0,7294.0,0.043,0.187,0.148,0.97
805123,2962.0,2333.0,7254.0,0.043,0.187,0.149,0.97
805140,2922.0,2333.0,7248.0,0.043,0.187,0.149,0.97
805156,2982.0,2281.0,7274.0,0.043,0.186,0.149,0.97
805173,2962.0,2203.0,7326.0,0.043,0.186,0.15,0.97
805199,3002.0,2215.0,7328.0,0.042,0.185,0.151,0.97
805215,3000.0,2185.0,7262.0,0.041,0.184,0.152,0.97
805231,3000.0,2257.0,7272.0,0.041,0.183,0.154,0.97
805247,2940.0,2273.0,7266.0,0.039,0.182,0.156,0.97
805263,2910.0,2337.0,7268.0,0.038,0.181,0.158,0.97
805279,2880.0,2329.0,7276.0,0.037,0.179,0.161,0.97
805305,2886.0,2159.0,7340.0,0.035,0.177,0.163,0.97
805321,2854.0,2725.0,7086.0,0.033,0.176,0.167,0.97
805337,2744.0,2771.0,7272.0,0.03,0.174,0.17,0.97
805353,2662.0,2605.0,7334.0,0.028,0.172,0.173,0.969
805369,2584.0,2739.0,7198.0,0.026,0.17,0.176,0.969
805385,2548.0,3091.0,7150.0,0.025,0.169,0.179,0.969
805411,2546.0,2793.0,7232.0,0.023,0.167,0.181,0.969
805427,2528.0,2763.0,7254.0,0.022,0.167,0.184,0.968
805443,2560.0,2881.0,7170.0,0.021,0.166,0.186,0.968
805459,2552.0,2807.0,7110.0,0.02,0.166,0.188,0.968
805475,2642.0,2979.0,7190.0,0.019,0.165,0.19,0.968
805492,2728.0,2863.0,7138.0,0.018,0.165,0.192,0.967
805518,2642.0,2967.0,7130.0,0.018,0.164,0.193,0.967
805534,2768.0,2611.0,7272.0,0.017,0.164,0.195,0.967
805551,2600.0,2591.0,7196.0,0.016,0.164,0.197,0.966
805567,3018.0,1755.0,7278.0,0.015,0.163,0.201,0.966
805583,2852.0,2753.0,7288.0,0.013,0.162,0.206,0.965
805599,2798.0,2759.0,7524.0,0.01,0.161,0.213,0.964
805616,2878.0,1881.0,7144.0,0.008,0.159,0.222,0.962
805632,3548.0,1239.0,8060.0,0.005,0.157,0.236,0.959
805658,2938.0,2023.0,7450.0,0.002,0.153,0.253,0.955
805674,2856.0,5817.0,6642.0,0.001,0.15,0.272,0.951
805690,3408.0,4315.0,7112.0,0.0,0.147,0.286,0.947
805706,4090.0,3309.0,7146.0,0.0,0.144,0.301,0.943
805722,3082.0,3797.0,7130.0,0.0,-0.139,-0.318,-0.938
805739,2766.0,4325.0,6404.0,0.002,-0.135,-0.336,-0.932
805756,2952.0,4163.0,6004.0,0.005,-0.13,-0.354,-0.926
805782,2880.0,4115.0,5880.0,0.01,-0.124,-0.372,-0.92
805798,2782.0,4869.0,5210.0,0.015,-0.117,-0.39,-0.913
805815,3170.0,4613.0,5850.0,0.021,-0.11,-0.407,-0.907
805832,2820.0,4335.0,4764.0,0.028,-0.102,-0.424,-0.899
805848,2892.0,4259.0,4510.0,0.035,-0.093,-0.443,-0.891
805864,2776.0,3299.0,4132.0,0.045,-0.084,-0.464,-0.881
805880,2822.0,4873.0,3472.0,0.057,-0.075,-0.487,-0.868
805906,2734.0,4519.0,3162.0,0.071,-0.066,-0.51,-0.855
805923,2868.0,5813.0,2408.0,0.085,-0.056,-0.534,-0.839
805940,2654.0,6121.0,1956.0,0.101,-0.048,-0.556,-0.824
805957,2548.0,6573.0,1528.0,0.118,-0.039,-0.578,-0.807
805974,2500.0,7313.0,954.0,0.135,-0.031,-0.597,-0.79
805991,2294.0,7449.0,970.0,0.153,-0.024,-0.614,-0.774
806008,2216.0,6867.0,580.0,0.17,-0.018,-0.629,-0.758
806025,2778.0,7427.0,-28.0,0.187,-0.014,-0.643,-0.742
806042,2732.0,7433.0,-56.0,0.203,-0.012,-0.656,-0.727
806059,3120.0,8189.0,-244.0,0.218,-0.011,-0.666,-0.713
806076,3112.0,7411.0,-216.0,0.233,-0.012,-0.675,-0.7
806102,3240.0,7751.0,-214.0,0.246,-0.015,-0.682,-0.689
806119,3236.0,7361.0,-366.0,0.259,-0.019,-0.687,-0.678
806135,3666.0,6963.0,-878.0,0.272,-0.025,-0.692,-0.668
806152,4140.0,6943.0,-1356.0,0.284,-0.03,-0.696,-0.659
806169,4124.0,7245.0,-1130.0,0.295,-0.036,-0.699,-0.651
806185,3918.0,7345.0,-892.0,0.305,-0.042,-0.7,-0.645
806202,3948.0,7033.0,-808.0,0.316,-0.048,-0.7,-0.638
806219,4098.0,7009.0,-844.0,0.326,-0.056,-0.7,-0.633
806236,4134.0,6517.0,-808.0,0.336,-0.064,-0.699,-0.628
806253,4454.0,6329.0,-926.0,0.345,-0.072,-0.698,-0.623
806279,4660.0,6713.0,-796.0,0.354,-0.081,-0.697,-0.618
806296,4848.0,6759.0,-716.0,0.363,-0.089,-0.695,-0.614
806312,5048.0,6581.0,-632.0,0.371,-0.098,-0.694,-0.61
806328,5130.0,6559.0,-582.0,0.379,-0.107,-0.691,-0.606
806344,5300.0,6289.0,-632.0,0.387,-0.116,-0.689,-0.601
806360,5528.0,6319.0,-516.0,0.396,-0.125,-0.686,-0.597
806377,5556.0,6237.0,-288.0,0.403,-0.134,-0.684,-0.593
806403,5804.0,6111.0,-138.0,0.411,-0.143,-0.681,-0.589
806420,5922.0,5917.0,-78.0,0.418,-0.153,-0.678,-0.585
806437,6202.0,5915.0,-54.0,0.425,-0.162,-0.675,-0.581
806454,6188.0,5809.0,166.0,0.432,-0.171,-0.672,-0.577
806471,6300.0,5881.0,220.0,0.438,-0.18,-0.669,-0.573
806488,6370.0,5533.0,392.0,0.444,-0.189,-0.666,-0.569
806504,6468.0,5387.0,392.0,0.449,-0.199,-0.662,-0.566
806520,6616.0,5179.0,338.0,0.455,-0.208,-0.659,-0.562
806537,6860.0,4979.0,424.0,0.461,-0.218,-0.655,-0.557
806554,7156.0,5095.0,474.0,0.467,-0.227,-0.652,-0.553
806570,7340.0,5253.0,596.0,0.473,-0.236,-0.648,-0.548
806597,7318.0,4641.0,674.0,0.478,-0.246,-0.644,-0.544
806613,7306.0,4431.0,888.0,0.482,-0.255,-0.64,-0.541
806629,7564.0,4221.0,790.0,0.487,-0.265,-0.636,-0.537
806645,7732.0,4153.0,790.0,0.491,-0.274,-0.633,-0.533
806661,8060.0,4215.0,844.0,0.494,-0.283,-0.629,-0.529
806687,8100.0,4141.0,782.0,0.498,-0.293,-0.625,-0.525
806704,8264.0,3939.0,708.0,0.5,-0.302,-0.622,-0.522
806721,8464.0,3899.0,610.0,0.503,-0.311,-0.618,-0.519
806738,8712.0,3545.0,558.0,0.504,-0.319,-0.614,-0.516
806755,8610.0,3297.0,796.0,0.505,-0.327,-0.611,-0.514
806772,8422.0,3299.0,940.0,0.506,-0.334,-0.608,-0.513
806789,8124.0,3117.0,1020.0,0.505,-0.341,-0.605,-0.512
806805,8060.0,2871.0,908.0,0.504,-0.347,-0.603,-0.512
806821,8122.0,2765.0,794.0,0.503,-0.353,-0.601,-0.511
806837,8048.0,2661.0,580.0,0.502,-0.359,-0.599,-0.51
806863,8014.0,2833.0,634.0,0.501,-0.364,-0.598,-0.51
806879,7962.0,2869.0,570.0,0.5,-0.368,-0.596,-0.51
806895,7896.0,2481.0,688.0,0.499,-0.373,-0.593,-0.51
806911,7812.0,2487.0,592.0,0.499,-0.376,-0.591,-0.51
806927,8000.0,2343.0,520.0,0.498,-0.38,-0.589,-0.511
806943,8080.0,2231.0,650.0,0.498,-0.383,-0.586,-0.512
806960,8036.0,2085.0,638.0,0.498,-0.385,-0.584,-0.513
806986,7926.0,2227.0,744.0,0.497,-0.387,-0.582,-0.515
807002,7926.0,2239.0,756.0,0.497,-0.389,-0.58,-0.516
807018,8070.0,2053.0,622.0,0.496,-0.39,-0.578,-0.517
807035,8108.0,2045.0,534.0,0.496,-0.391,-0.577,-0.518
807052,8156.0,2049.0,474.0,0.495,-0.392,-0.576,-0.519
807069,8124.0,1981.0,610.0,0.495,-0.392,-0.575,-0.52
807086,8034.0,1947.0,618.0,0.494,-0.393,-0.574,-0.521
807103,8098.0,1945.0,506.0,0.493,-0.392,-0.574,-0.523
807119,8320.0,1955.0,364.0,0.493,-0.392,-0.573,-0.524
807146,8208.0,2041.0,572.0,0.492,-0.391,-0.573,-0.525
807163,8438.0,1989.0,504.0,0.491,-0.39,-0.573,-0.527
807179,8468.0,1913.0,438.0,0.491,-0.389,-0.573,-0.529
807195,8266.0,1971.0,532.0,0.49,-0.388,-0.573,-0.531
807211,8038.0,1991.0,628.0,0.489,-0.386,-0.573,-0.533
807227,7846.0,1773.0,622.0,0.488,-0.385,-0.573,-0.534
807243,7824.0,1883.0,552.0,0.488,-0.383,-0.573,-0.536
807269,7556.0,1837.0,518.0,0.488,-0.381,-0.573,-0.537
807285,7396.0,1857.0,526.0,0.488,-0.38,-0.573,-0.538
807302,7448.0,2017.0,406.0,0.488,-0.378,-0.573,-0.539
807319,7416.0,2033.0,418.0,0.488,-0.376,-0.573,-0.54
807336,7478.0,2065.0,442.0,0.488,-0.375,-0.573,-0.541
807353,7370.0,2005.0,482.0,0.489,-0.374,-0.573,-0.541
807370,7032.0,1887.0,494.0,0.489,-0.373,-0.573,-0.542
807386,7180.0,1859.0,488.0,0.489,-0.373,-0.573,-0.541
807403,7376.0,2009.0,336.0,0.49,-0.374,-0.573,-0.541
807420,7554.0,1993.0,350.0,0.491,-0.374,-0.573,-0.539
807447,7648.0,1663.0,130.0,0.493,-0.374,-0.572,-0.538
807463,7396.0,1777.0,306.0,0.495,-0.373,-0.573,-0.536
807479,7806.0,3021.0,172.0,0.497,-0.372,-0.574,-0.534
807496,7352.0,2873.0,452.0,0.498,-0.371,-0.575,-0.532
807512,7490.0,2791.0,204.0,0.499,-0.37,-0.576,-0.531
807528,7852.0,3733.0,-16.0,0.5,-0.368,-0.577,-0.53
807544,8088.0,3727.0,100.0,0.501,-0.365,-0.578,-0.53
807570,8046.0,4759.0,608.0,0.502,-0.361,-0.58,-0.53
807587,8170.0,5443.0,736.0,0.501,-0.357,-0.582,-0.531
807604,8298.0,5343.0,602.0,0.499,-0.353,-0.585,-0.533
807622,8292.0,5899.0,794.0,0.496,-0.347,-0.588,-0.537
807639,8112.0,6165.0,1106.0,0.491,-0.339,-0.593,-0.541
807656,8308.0,6711.0,1072.0,0.486,-0.33,-0.598,-0.546
807673,8328.0,7075.0,930.0,0.479,-0.319,-0.604,-0.552
807690,8306.0,7657.0,1166.0,0.471,-0.306,-0.61,-0.559
807707,8696.0,8273.0,940.0,0.46,-0.292,-0.617,-0.568
807724,8838.0,8511.0,1136.0,0.448,-0.276,-0.625,-0.577
807741,9670.0,9231.0,858.0,0.434,-0.257,-0.632,-0.587
807758,10182.0,9823.0,758.0,0.418,-0.237,-0.64,-0.599
807775,10622.0,10601.0,910.0,0.399,-0.215,-0.648,-0.612
807801,11048.0,10289.0,716.0,0.378,-0.192,-0.655,-0.626
807817,10426.0,9583.0,1344.0,0.353,-0.165,-0.663,-0.64
807834,9262.0,10165.0,904.0,0.325,-0.139,-0.669,-0.654
807850,8286.0,9523.0,1012.0,0.296,-0.112,-0.674,-0.667
807866,7618.0,9383.0,838.0,0.265,-0.085,-0.678,-0.68
807883,7278.0,9537.0,574.0,0.233,-0.058,-0.681,-0.691
807900,6664.0,8735.0,354.0,0.201,-0.032,-0.682,-0.702
807917,6330.0,8519.0,368.0,0.168,-0.006,-0.681,-0.713
807943,5886.0,7957.0,434.0,0.135,0.019,-0.678,-0.723
807959,5564.0,7715.0,434.0,0.102,0.045,-0.673,-0.731
807976,5142.0,7561.0,670.0,0.071,0.07,-0.666,-0.739
807993,4814.0,6881.0,246.0,0.041,0.093,-0.658,-0.746
808010,4400.0,7077.0,356.0,0.012,0.116,-0.651,-0.75
808026,3692.0,6753.0,604.0,0.016,-0.138,0.643,0.753
808042,3020.0,6773.0,270.0,0.043,-0.16,0.635,0.754
808058,2748.0,8381.0,428.0,0.068,-0.179,0.625,0.757
808085,2678.0,5255.0,554.0,0.094,-0.199,0.615,0.757
808101,2066.0,5403.0,608.0,0.12,-0.219,0.605,0.756
808118,1984.0,6681.0,306.0,0.144,-0.237,0.594,0.755
808135,1168.0,5033.0,710.0,0.168,-0.255,0.582,0.754
808151,366.0,5071.0,694.0,0.191,-0.273,0.569,0.752
808168,-588.0,4823.0,578.0,0.213,-0.29,0.555,0.75
808185,-1214.0,3483.0,774.0,0.233,-0.308,0.54,0.748
808201,-1772.0,2883.0,280.0,0.252,-0.325,0.524,0.746
808217,-2242.0,729.0,488.0,0.268,-0.342,0.508,0.744
808243,-3138.0,-261.0,380.0,0.283,-0.358,0.494,0.74
808260,-3546.0,-4023.0,1270.0,0.295,-0.372,0.482,0.736
808276,-4166.0,-2731.0,876.0,0.307,-0.383,0.478,0.728
808293,-5430.0,993.0,1712.0,0.317,-0.392,0.477,0.721
808310,-5946.0,-561.0,2044.0,0.319,-0.398,0.473,0.718
808326,-5982.0,-3519.0,2200.0,0.317,-0.401,0.471,0.719
808343,-5958.0,-2819.0,1794.0,0.311,-0.4,0.471,0.722
808360,-5446.0,-3339.0,1580.0,0.301,-0.395,0.474,0.727
808376,-5410.0,-2253.0,1480.0,0.288,-0.387,0.481,0.732
808393,-5610.0,-1309.0,1798.0,0.272,-0.375,0.489,0.739
808419,-5510.0,-795.0,1828.0,0.254,-0.359,0.498,0.747
808436,-5226.0,23.0,1834.0,0.233,-0.34,0.509,0.756
808452,-4470.0,303.0,1696.0,0.21,-0.318,0.52,0.765
808468,-3522.0,663.0,1574.0,0.185,-0.294,0.531,0.773
808484,-2420.0,1363.0,1672.0,0.158,-0.268,0.543,0.78
808500,-1712.0,2453.0,1354.0,0.13,-0.239,0.556,0.785
808526,-472.0,2997.0,1808.0,0.1,-0.21,0.569,0.789
808542,974.0,4295.0,1562.0,0.068,-0.18,0.581,0.791
808558,2160.0,6197.0,958.0,0.036,-0.15,0.592,0.791
808574,3012.0,5995.0,1132.0,0.005,-0.121,0.601,0.79
808591,3696.0,7927.0,1270.0,0.028,0.092,-0.608,-0.788
808608,3430.0,5825.0,2122.0,0.057,0.064,-0.613,-0.785
808625,4668.0,8123.0,892.0,0.086,0.036,-0.618,-0.78
808642,5582.0,8147.0,1370.0,0.115,0.009,-0.622,-0.774
808669,7126.0,9363.0,558.0,0.145,-0.019,-0.625,-0.766
808686,7162.0,9033.0,1628.0,0.174,-0.045,-0.63,-0.755
808703,7288.0,10223.0,1648.0,0.202,-0.072,-0.634,-0.743
808721,9296.0,7611.0,476.0,0.229,-0.096,-0.636,-0.731
808738,8750.0,8505.0,1960.0,0.254,-0.12,-0.637,-0.718
808754,9708.0,8889.0,1292.0,0.28,-0.143,-0.637,-0.704
808770,10412.0,8407.0,1046.0,0.305,-0.164,-0.638,-0.688
808786,10262.0,8213.0,788.0,0.328,-0.184,-0.638,-0.672
808802,10112.0,6921.0,678.0,0.35,-0.203,-0.636,-0.657
808828,10026.0,6707.0,812.0,0.372,-0.22,-0.634,-0.641
808844,10260.0,7127.0,560.0,0.395,-0.237,-0.632,-0.623
808860,10230.0,6485.0,790.0,0.417,-0.253,-0.63,-0.604
808876,10054.0,6105.0,592.0,0.436,-0.267,-0.627,-0.587
808892,10352.0,5283.0,480.0,0.452,-0.281,-0.624,-0.572
808908,9914.0,5391.0,422.0,0.468,-0.292,-0.621,-0.557
808925,9838.0,4613.0,28.0,0.483,-0.302,-0.618,-0.542
808942,9500.0,6193.0,382.0,0.499,-0.31,-0.614,-0.527
808968,9096.0,5989.0,464.0,0.513,-0.318,-0.61,-0.513
808985,9060.0,5815.0,398.0,0.523,-0.326,-0.606,-0.503
809002,8886.0,5841.0,286.0,0.531,-0.332,-0.603,-0.494
809018,8350.0,6233.0,536.0,0.538,-0.337,-0.601,-0.486
809035,7658.0,6645.0,664.0,0.544,-0.342,-0.598,-0.479
809052,7468.0,6667.0,526.0,0.548,-0.346,-0.596,-0.474
809068,7298.0,6721.0,590.0,0.55,-0.35,-0.595,-0.47
809085,7230.0,6699.0,758.0,0.55,-0.355,-0.593,-0.468
809101,6940.0,6361.0,752.0,0.55,-0.359,-0.592,-0.467
809127,6856.0,5913.0,418.0,0.55,-0.362,-0.591,-0.466
809143,6710.0,6569.0,628.0,0.55,-0.362,-0.59,-0.466
809160,6810.0,6945.0,684.0,0.549,-0.362,-0.59,-0.469
809176,7094.0,7025.0,774.0,0.545,-0.36,-0.592,-0.473
809192,7568.0,7213.0,532.0,0.539,-0.357,-0.594,-0.479
809208,7708.0,6943.0,524.0,0.531,-0.352,-0.597,-0.487
809235,7976.0,7297.0,530.0,0.522,-0.346,-0.601,-0.496
809251,8082.0,7545.0,736.0,0.511,-0.338,-0.605,-0.508
809267,8204.0,7601.0,942.0,0.498,-0.33,-0.61,-0.521
809284,8518.0,7497.0,984.0,0.482,-0.32,-0.616,-0.535
809300,8976.0,7519.0,964.0,0.464,-0.309,-0.621,-0.551
809317,9622.0,7721.0,806.0,0.445,-0.296,-0.627,-0.567
809333,10220.0,7615.0,626.0,0.425,-0.281,-0.633,-0.584
809350,10570.0,8003.0,810.0,0.403,-0.264,-0.638,-0.6
809376,10840.0,8065.0,652.0,0.38,-0.245,-0.644,-0.617
809392,11046.0,8213.0,484.0,0.357,-0.225,-0.649,-0.633
809408,11004.0,8675.0,676.0,0.332,-0.203,-0.653,-0.649
809424,11218.0,8577.0,478.0,0.306,-0.181,-0.657,-0.665
809440,10920.0,8081.0,396.0,0.279,-0.157,-0.659,-0.681
809456,10540.0,8237.0,428.0,0.251,-0.131,-0.661,-0.695
809482,9872.0,8295.0,424.0,0.224,-0.104,-0.661,-0.708
809498,9038.0,8177.0,428.0,0.197,-0.076,-0.662,-0.719
809514,8100.0,7837.0,338.0,0.171,-0.048,-0.661,-0.729
809530,7148.0,8009.0,510.0,0.144,-0.02,-0.66,-0.737
809546,6120.0,7355.0,528.0,0.118,0.007,-0.657,-0.744
809563,5326.0,7107.0,598.0,0.092,0.033,-0.654,-0.75
809579,4580.0,7031.0,522.0,0.068,0.058,-0.651,-0.754
809605,3738.0,7315.0,644.0,0.045,0.083,-0.648,-0.756
809621,2986.0,6065.0,604.0,0.02,0.107,-0.643,-0.758
809637,2442.0,6227.0,594.0,0.004,-0.131,0.638,0.759
809653,1836.0,6139.0,686.0,0.027,-0.153,0.633,0.759
809669,1340.0,6047.0,714.0,0.049,-0.173,0.628,0.757
809695,946.0,6371.0,522.0,0.07,-0.192,0.623,0.755
809711,722.0,4909.0,174.0,0.09,-0.209,0.615,0.755
809727,442.0,4291.0,358.0,0.111,-0.227,0.608,0.753
809743,114.0,5169.0,580.0,0.131,-0.243,0.602,0.749
809759,-718.0,4391.0,614.0,0.149,-0.257,0.594,0.747
809775,-870.0,3949.0,350.0,0.167,-0.271,0.586,0.745
809801,-1264.0,2611.0,248.0,0.184,-0.285,0.577,0.743
809818,-2102.0,1461.0,228.0,0.199,-0.299,0.567,0.741
809834,-3136.0,1877.0,494.0,0.213,-0.313,0.557,0.739
809851,-3064.0,1155.0,-272.0,0.222,-0.326,0.547,0.739
809868,-3816.0,-663.0,1034.0,0.226,-0.337,0.537,0.739
809884,-4244.0,-2189.0,1410.0,0.227,-0.348,0.529,0.74
809900,-5806.0,-2611.0,2138.0,0.223,-0.355,0.525,0.741
809917,-5606.0,-3289.0,1780.0,0.216,-0.358,0.523,0.742
809934,-5732.0,-2819.0,1260.0,0.207,-0.357,0.524,0.745
809951,-5988.0,-2505.0,1360.0,0.194,-0.352,0.528,0.748
809968,-5822.0,-1693.0,1436.0,0.18,-0.343,0.533,0.752
809995,-5294.0,-1205.0,1392.0,0.164,-0.329,0.54,0.757
810011,-4796.0,-421.0,1528.0,0.147,-0.312,0.548,0.762
810027,-4082.0,729.0,1698.0,0.128,-0.291,0.558,0.766
810043,-3128.0,1391.0,1880.0,0.108,-0.266,0.569,0.77
810059,-1604.0,2593.0,1566.0,0.087,-0.24,0.581,0.773
810075,-128.0,4377.0,1044.0,0.065,-0.213,0.593,0.774
810102,1086.0,5401.0,862.0,0.04,-0.185,0.605,0.773
810118,2172.0,7255.0,1158.0,0.013,-0.157,0.616,0.772
810134,2786.0,7967.0,1334.0,0.014,0.129,-0.624,-0.771
810150,3672.0,8467.0,990.0,0.042,0.101,-0.63,-0.769
810166,4378.0,7231.0,1300.0,0.069,0.074,-0.637,-0.764
810182,4616.0,8187.0,1024.0,0.095,0.048,-0.642,-0.759
810208,5902.0,10311.0,554.0,0.122,0.023,-0.647,-0.752
810224,5600.0,8587.0,1334.0,0.148,-0.001,-0.649,-0.746
810240,5904.0,8577.0,978.0,0.173,-0.026,-0.649,-0.74
810256,6918.0,7727.0,802.0,0.197,-0.049,-0.651,-0.731
810272,6696.0,8231.0,1382.0,0.22,-0.072,-0.654,-0.721
810288,7672.0,9637.0,602.0,0.242,-0.094,-0.654,-0.711
810314,6722.0,7469.0,1040.0,0.264,-0.117,-0.651,-0.702
810331,7944.0,8713.0,946.0,0.287,-0.139,-0.649,-0.691
810347,7924.0,6787.0,1078.0,0.309,-0.16,-0.647,-0.678
810364,8848.0,7849.0,772.0,0.33,-0.181,-0.645,-0.665
810381,8820.0,7543.0,1050.0,0.35,-0.2,-0.64,-0.654
810397,8412.0,6799.0,1308.0,0.368,-0.221,-0.634,-0.643
810414,8520.0,6325.0,940.0,0.386,-0.241,-0.628,-0.632
810430,8858.0,6729.0,766.0,0.405,-0.26,-0.622,-0.618
810447,9578.0,6169.0,804.0,0.425,-0.278,-0.616,-0.603
810464,10044.0,6481.0,1056.0,0.442,-0.296,-0.608,-0.589
810490,10040.0,6125.0,982.0,0.457,-0.312,-0.6,-0.577
810507,9768.0,5735.0,956.0,0.471,-0.329,-0.592,-0.566
810524,9692.0,5369.0,632.0,0.485,-0.343,-0.584,-0.554
810541,9414.0,5583.0,886.0,0.498,-0.357,-0.575,-0.542
810558,9838.0,5887.0,968.0,0.51,-0.369,-0.567,-0.531
810574,9610.0,5277.0,1020.0,0.519,-0.381,-0.559,-0.522
810591,9364.0,5079.0,1020.0,0.526,-0.391,-0.553,-0.514
810607,8776.0,5275.0,1282.0,0.532,-0.399,-0.548,-0.508
810623,8324.0,5305.0,1400.0,0.536,-0.406,-0.543,-0.503
810649,8054.0,5535.0,1508.0,0.538,-0.411,-0.54,-0.499
810666,7814.0,5633.0,1508.0,0.539,-0.416,-0.538,-0.496
810682,7548.0,5417.0,1444.0,0.539,-0.419,-0.538,-0.495
810699,7350.0,5663.0,1472.0,0.537,-0.421,-0.538,-0.494
810716,7186.0,5889.0,1458.0,0.534,-0.421,-0.54,-0.496
810733,7146.0,5907.0,1366.0,0.53,-0.42,-0.542,-0.499
810750,7128.0,6017.0,1326.0,0.525,-0.417,-0.545,-0.503
810767,7290.0,6277.0,1490.0,0.519,-0.413,-0.548,-0.509
810784,7656.0,6071.0,1390.0,0.512,-0.407,-0.553,-0.516
810801,8010.0,6091.0,1310.0,0.504,-0.398,-0.559,-0.525
810827,8316.0,6747.0,1526.0,0.493,-0.387,-0.565,-0.536
810843,8554.0,6483.0,1448.0,0.482,-0.375,-0.572,-0.547
810859,8852.0,6633.0,1466.0,0.468,-0.361,-0.58,-0.56
810875,9210.0,7303.0,1544.0,0.453,-0.346,-0.589,-0.573
810891,10176.0,7873.0,1308.0,0.435,-0.329,-0.597,-0.588
810908,10668.0,7865.0,1222.0,0.415,-0.31,-0.606,-0.603
810924,11344.0,8507.0,1228.0,0.394,-0.289,-0.615,-0.619
810950,11746.0,8535.0,1118.0,0.371,-0.267,-0.622,-0.636
810967,11528.0,7885.0,1140.0,0.347,-0.244,-0.629,-0.651
810984,11292.0,8435.0,1198.0,0.323,-0.219,-0.636,-0.666
811001,10986.0,8493.0,1068.0,0.298,-0.193,-0.642,-0.68
811017,10394.0,8215.0,1116.0,0.273,-0.167,-0.646,-0.693
811033,10022.0,8211.0,894.0,0.246,-0.14,-0.65,-0.705
811050,9390.0,7943.0,816.0,0.219,-0.113,-0.653,-0.716
811066,8448.0,8117.0,906.0,0.192,-0.085,-0.656,-0.725
811092,7344.0,7713.0,958.0,0.163,-0.056,-0.657,-0.734
811108,6916.0,8299.0,482.0,0.135,-0.027,-0.658,-0.741
811124,6060.0,8095.0,288.0,0.107,0.002,-0.657,-0.747
811140,5122.0,8249.0,272.0,0.08,0.03,-0.654,-0.752
811156,4194.0,7257.0,672.0,0.053,0.057,-0.65,-0.756
811172,3646.0,7369.0,646.0,0.027,0.083,-0.647,-0.758
811198,3220.0,6517.0,814.0,0.001,0.108,-0.642,-0.759
811215,2772.0,6697.0,692.0,0.024,-0.132,0.636,0.76
811231,1994.0,5789.0,1130.0,0.048,-0.154,0.631,0.759
811247,1892.0,5345.0,754.0,0.072,-0.175,0.625,0.757
811263,1238.0,4797.0,944.0,0.096,-0.195,0.62,0.754
811279,776.0,5621.0,700.0,0.118,-0.214,0.613,0.751
811305,182.0,4577.0,856.0,0.139,-0.231,0.606,0.748
811321,172.0,3889.0,352.0,0.16,-0.247,0.599,0.745
811337,-472.0,4015.0,432.0,0.179,-0.261,0.592,0.742
811353,-918.0,2719.0,386.0,0.197,-0.275,0.584,0.738
811369,-1814.0,2451.0,742.0,0.214,-0.288,0.576,0.735
811395,-2440.0,1693.0,630.0,0.229,-0.299,0.569,0.731
811411,-3214.0,773.0,624.0,0.242,-0.309,0.561,0.728
811427,-3920.0,-5.0,786.0,0.253,-0.318,0.555,0.726
811443,-4674.0,-1133.0,1070.0,0.261,-0.326,0.55,0.724
811459,-5534.0,-1929.0,1718.0,0.266,-0.331,0.547,0.722
811475,-5872.0,-1893.0,1762.0,0.267,-0.332,0.547,0.72
811491,-5766.0,-1497.0,1338.0,0.264,-0.332,0.549,0.72
811517,-5854.0,-1715.0,1366.0,0.258,-0.328,0.552,0.722
811533,-5616.0,-965.0,1214.0,0.247,-0.323,0.557,0.724
811550,-5354.0,-831.0,1230.0,0.233,-0.314,0.563,0.728
811566,-4966.0,-625.0,1224.0,0.216,-0.304,0.57,0.732
811583,-4664.0,55.0,1490.0,0.197,-0.291,0.578,0.736
811600,-3852.0,567.0,1450.0,0.176,-0.275,0.588,0.74
811616,-2868.0,2043.0,1236.0,0.155,-0.256,0.598,0.744
811632,-1856.0,2831.0,1136.0,0.132,-0.235,0.609,0.746
811659,-564.0,4825.0,590.0,0.107,-0.212,0.62,0.748
811675,68.0,4877.0,492.0,0.081,-0.19,0.628,0.751
811691,390.0,6009.0,702.0,0.053,-0.167,0.634,0.753
811707,1164.0,6731.0,1104.0,0.026,-0.143,0.641,0.754
811723,1464.0,6625.0,1334.0,0.003,0.118,-0.647,-0.753
811739,3108.0,8133.0,380.0,0.031,0.093,-0.653,-0.751
811765,3584.0,8061.0,1446.0,0.059,0.067,-0.657,-0.749
811782,3610.0,9341.0,1354.0,0.086,0.042,-0.659,-0.746
811798,4614.0,8009.0,1304.0,0.112,0.015,-0.663,-0.74
811814,5556.0,9123.0,656.0,0.138,-0.011,-0.665,-0.734
811830,6890.0,9245.0,332.0,0.163,-0.036,-0.666,-0.727
811846,7116.0,8723.0,952.0,0.186,-0.059,-0.666,-0.719
811863,6844.0,8985.0,1042.0,0.21,-0.082,-0.666,-0.711
811889,6866.0,8877.0,784.0,0.233,-0.104,-0.665,-0.702
811906,7772.0,8353.0,422.0,0.256,-0.126,-0.663,-0.692
811923,7564.0,7535.0,832.0,0.277,-0.147,-0.66,-0.683
811940,8462.0,8699.0,426.0,0.299,-0.167,-0.657,-0.672
811957,8410.0,8219.0,538.0,0.319,-0.186,-0.653,-0.661
811974,8066.0,7681.0,480.0,0.338,-0.205,-0.65,-0.649
811991,7636.0,6499.0,638.0,0.356,-0.222,-0.645,-0.638
812008,8604.0,7001.0,56.0,0.373,-0.238,-0.641,-0.627
812024,8086.0,6455.0,390.0,0.391,-0.254,-0.636,-0.615
812040,8548.0,6857.0,274.0,0.408,-0.269,-0.63,-0.603
812057,8162.0,6097.0,592.0,0.424,-0.283,-0.624,-0.592
812083,8286.0,5131.0,598.0,0.439,-0.298,-0.618,-0.58
812100,9092.0,6147.0,544.0,0.455,-0.311,-0.612,-0.568
812117,8886.0,5217.0,822.0,0.469,-0.324,-0.605,-0.556
812133,9214.0,5237.0,802.0,0.482,-0.336,-0.598,-0.545
812149,9002.0,5569.0,1206.0,0.495,-0.348,-0.591,-0.534
812165,9540.0,4561.0,890.0,0.506,-0.36,-0.584,-0.523
812181,9646.0,4791.0,812.0,0.517,-0.37,-0.578,-0.513
812207,9314.0,4867.0,880.0,0.527,-0.379,-0.571,-0.503
812223,9196.0,5301.0,958.0,0.535,-0.387,-0.565,-0.495
812239,8920.0,4953.0,1048.0,0.542,-0.394,-0.559,-0.489
812256,8830.0,4687.0,1108.0,0.546,-0.401,-0.554,-0.484
812272,8612.0,5095.0,1166.0,0.549,-0.406,-0.551,-0.48
812288,8394.0,4547.0,1186.0,0.55,-0.409,-0.549,-0.479
812314,8018.0,4993.0,1088.0,0.551,-0.411,-0.548,-0.477
812331,7362.0,5211.0,1748.0,0.55,-0.411,-0.549,-0.477
812348,7338.0,5201.0,1616.0,0.545,-0.411,-0.551,-0.479
812364,7702.0,5315.0,1144.0,0.54,-0.409,-0.555,-0.483
812380,7776.0,5273.0,984.0,0.534,-0.405,-0.559,-0.487
812397,7828.0,5999.0,1014.0,0.528,-0.399,-0.565,-0.494
812414,8040.0,6213.0,776.0,0.52,-0.391,-0.57,-0.502
812430,8112.0,6473.0,866.0,0.51,-0.382,-0.577,-0.511
812446,8422.0,6361.0,914.0,0.498,-0.372,-0.584,-0.522
812473,8866.0,6519.0,932.0,0.485,-0.36,-0.591,-0.534
812489,9172.0,6577.0,888.0,0.47,-0.347,-0.599,-0.547
812505,9290.0,7055.0,862.0,0.454,-0.332,-0.608,-0.561
812521,9684.0,7305.0,772.0,0.436,-0.316,-0.616,-0.574
812537,9942.0,7567.0,620.0,0.417,-0.298,-0.625,-0.588
812553,10320.0,7775.0,414.0,0.397,-0.279,-0.634,-0.603
812580,10386.0,8013.0,364.0,0.375,-0.26,-0.641,-0.617
812596,10172.0,7937.0,376.0,0.352,-0.239,-0.648,-0.632
812612,9984.0,8107.0,532.0,0.328,-0.217,-0.654,-0.646
812628,9648.0,8383.0,720.0,0.303,-0.194,-0.659,-0.66
812644,9432.0,8153.0,486.0,0.277,-0.171,-0.664,-0.674
812660,8794.0,8085.0,510.0,0.251,-0.147,-0.667,-0.686
812676,8218.0,8073.0,504.0,0.224,-0.123,-0.669,-0.698
812703,7590.0,7807.0,478.0,0.196,-0.099,-0.67,-0.709
812720,7316.0,8025.0,570.0,0.17,-0.075,-0.67,-0.719
812737,7032.0,7625.0,322.0,0.144,-0.051,-0.669,-0.727
812754,6464.0,7899.0,294.0,0.118,-0.028,-0.667,-0.735
812772,5694.0,7631.0,472.0,0.092,-0.004,-0.664,-0.742
812789,4860.0,6869.0,498.0,0.066,0.018,-0.66,-0.748
812806,4484.0,7681.0,780.0,0.042,0.04,-0.656,-0.753
812822,3572.0,7323.0,822.0,0.018,0.061,-0.651,-0.757
812839,3102.0,6911.0,632.0,0.005,-0.081,0.645,0.76
812855,2620.0,6315.0,756.0,0.028,-0.102,0.639,0.762
812872,1902.0,6381.0,634.0,0.051,-0.122,0.634,0.762
812899,1290.0,5731.0,1252.0,0.074,-0.141,0.629,0.761
812915,582.0,6393.0,792.0,0.096,-0.159,0.622,0.76
812932,44.0,5291.0,1142.0,0.117,-0.176,0.616,0.759
812948,-678.0,5451.0,1060.0,0.137,-0.191,0.609,0.757
812965,-770.0,4737.0,786.0,0.157,-0.205,0.603,0.755
812981,-1320.0,4089.0,712.0,0.175,-0.219,0.596,0.753
812998,-1724.0,3871.0,774.0,0.192,-0.232,0.588,0.751
813015,-2230.0,2889.0,674.0,0.208,-0.245,0.581,0.748
813032,-2670.0,1779.0,744.0,0.223,-0.257,0.573,0.745
813048,-3330.0,2099.0,838.0,0.237,-0.268,0.567,0.742
813075,-3830.0,1305.0,808.0,0.249,-0.278,0.56,0.739
813091,-4304.0,-361.0,1140.0,0.259,-0.288,0.553,0.737
813107,-4888.0,-895.0,1284.0,0.266,-0.295,0.549,0.735
813123,-5716.0,-235.0,1618.0,0.271,-0.299,0.548,0.733
813139,-5814.0,-1925.0,1812.0,0.27,-0.298,0.549,0.733
813156,-5800.0,-1729.0,1444.0,0.267,-0.295,0.552,0.733
813172,-5670.0,-1145.0,1642.0,0.259,-0.288,0.557,0.735
813199,-5808.0,-1059.0,2030.0,0.248,-0.279,0.562,0.738
813216,-5122.0,-879.0,1944.0,0.233,-0.268,0.569,0.742
813233,-4502.0,-1203.0,1618.0,0.215,-0.253,0.577,0.746
813250,-3754.0,-17.0,1278.0,0.195,-0.236,0.586,0.75
813267,-3306.0,733.0,1476.0,0.173,-0.217,0.596,0.753
813283,-2394.0,1327.0,1812.0,0.148,-0.194,0.608,0.755
813299,-1166.0,2807.0,1222.0,0.123,-0.169,0.622,0.755
813315,-82.0,3767.0,920.0,0.095,-0.143,0.634,0.754
813331,514.0,4003.0,1026.0,0.067,-0.117,0.644,0.753
813357,1054.0,4301.0,1182.0,0.04,-0.092,0.653,0.751
813373,2696.0,9349.0,-480.0,0.011,-0.067,0.658,0.75
813389,2578.0,7083.0,844.0,0.02,0.04,-0.661,-0.749
813405,2648.0,8907.0,1596.0,0.051,0.013,-0.66,-0.749
813421,4208.0,7767.0,786.0,0.082,-0.018,-0.661,-0.746
813437,6726.0,7189.0,-908.0,0.111,-0.046,-0.661,-0.741
813463,7754.0,9963.0,256.0,0.139,-0.071,-0.658,-0.737
813480,6982.0,8645.0,1422.0,0.166,-0.097,-0.651,-0.734
813496,8364.0,9471.0,844.0,0.192,-0.124,-0.646,-0.729
813513,8550.0,7255.0,994.0,0.218,-0.15,-0.642,-0.72
813529,9250.0,7829.0,1158.0,0.242,-0.176,-0.637,-0.71
813545,9570.0,6365.0,580.0,0.262,-0.2,-0.632,-0.701
813571,9674.0,6725.0,1124.0,0.282,-0.223,-0.626,-0.691
813588,9982.0,6183.0,1136.0,0.303,-0.247,-0.621,-0.68
813605,10014.0,5687.0,1262.0,0.325,-0.269,-0.615,-0.666
813622,10148.0,6779.0,1126.0,0.346,-0.291,-0.608,-0.652
813638,11686.0,3793.0,506.0,0.364,-0.312,-0.6,-0.64
813655,11240.0,4329.0,820.0,0.379,-0.331,-0.592,-0.629
813672,10864.0,4879.0,1324.0,0.394,-0.348,-0.584,-0.618
813689,10676.0,4053.0,1012.0,0.41,-0.365,-0.575,-0.607
813706,10624.0,4769.0,884.0,0.428,-0.381,-0.566,-0.593
813723,10896.0,4795.0,868.0,0.445,-0.396,-0.555,-0.58
813740,10782.0,4239.0,1192.0,0.46,-0.412,-0.543,-0.569
813757,10224.0,3617.0,1190.0,0.471,-0.427,-0.533,-0.559
813784,10022.0,4059.0,1526.0,0.48,-0.44,-0.523,-0.549
813801,9788.0,4091.0,1464.0,0.489,-0.453,-0.514,-0.54
813818,9796.0,4049.0,1182.0,0.498,-0.466,-0.505,-0.53
813835,9614.0,4199.0,986.0,0.506,-0.477,-0.496,-0.52
813851,9570.0,4025.0,1036.0,0.512,-0.488,-0.488,-0.511
813868,9068.0,4091.0,1450.0,0.516,-0.498,-0.481,-0.504
813884,8376.0,3893.0,1914.0,0.52,-0.506,-0.475,-0.498
813901,8292.0,3893.0,1548.0,0.523,-0.513,-0.469,-0.493
813918,7976.0,4077.0,1506.0,0.525,-0.52,-0.464,-0.488
813935,7880.0,3707.0,1508.0,0.525,-0.526,-0.46,-0.486
813951,7866.0,3713.0,1748.0,0.523,-0.531,-0.457,-0.485
813968,7656.0,3313.0,1838.0,0.52,-0.536,-0.454,-0.486
813995,7662.0,2987.0,1738.0,0.517,-0.539,-0.452,-0.487
814011,7510.0,3323.0,1578.0,0.514,-0.541,-0.451,-0.489
814027,7590.0,3583.0,1874.0,0.51,-0.542,-0.451,-0.493
814043,7724.0,3687.0,1980.0,0.505,-0.542,-0.451,-0.498
814059,7862.0,3429.0,1900.0,0.5,-0.54,-0.452,-0.504
814076,8178.0,3231.0,1802.0,0.494,-0.537,-0.455,-0.511
814093,8756.0,3267.0,1664.0,0.489,-0.531,-0.458,-0.519
814119,9178.0,3739.0,1814.0,0.484,-0.522,-0.463,-0.528
814135,9560.0,4205.0,2056.0,0.477,-0.512,-0.469,-0.539
814152,10012.0,3707.0,2086.0,0.469,-0.501,-0.475,-0.551
814169,10402.0,3399.0,2230.0,0.46,-0.487,-0.484,-0.564
814186,10832.0,3539.0,2204.0,0.45,-0.471,-0.493,-0.577
814202,11254.0,3753.0,2036.0,0.439,-0.452,-0.504,-0.591
814219,11456.0,4427.0,2096.0,0.426,-0.431,-0.516,-0.605
814236,11928.0,4801.0,2026.0,0.412,-0.409,-0.528,-0.62
814252,12336.0,4545.0,1602.0,0.396,-0.385,-0.54,-0.635
814278,12038.0,5005.0,1680.0,0.38,-0.359,-0.553,-0.649
814294,12094.0,5593.0,1646.0,0.362,-0.331,-0.565,-0.663
814310,11802.0,5235.0,1274.0,0.344,-0.302,-0.578,-0.676
814326,11082.0,6193.0,1570.0,0.324,-0.272,-0.59,-0.688
814343,10846.0,7259.0,1642.0,0.303,-0.242,-0.6,-0.699
814361,10270.0,6431.0,1176.0,0.28,-0.212,-0.609,-0.711
814378,9510.0,7039.0,1292.0,0.256,-0.182,-0.618,-0.721
814395,8874.0,7419.0,1256.0,0.232,-0.153,-0.625,-0.73
814421,8352.0,6797.0,742.0,0.207,-0.124,-0.632,-0.737
814438,7842.0,7845.0,780.0,0.182,-0.094,-0.638,-0.742
814455,7334.0,8301.0,780.0,0.157,-0.066,-0.642,-0.748
814472,6142.0,7377.0,868.0,0.131,-0.039,-0.642,-0.754
814488,5750.0,6645.0,704.0,0.105,-0.013,-0.643,-0.758
814504,5266.0,6931.0,666.0,0.08,0.013,-0.644,-0.761
814520,4404.0,7275.0,678.0,0.056,0.038,-0.644,-0.762
814537,3336.0,6779.0,854.0,0.03,0.062,-0.643,-0.763
814563,2956.0,6135.0,908.0,0.004,0.086,-0.64,-0.764
814580,2308.0,6273.0,812.0,0.022,-0.11,0.636,0.764
814596,1570.0,6155.0,760.0,0.048,-0.132,0.632,0.763
814612,1076.0,5517.0,716.0,0.074,-0.153,0.627,0.76
814628,414.0,5373.0,702.0,0.1,-0.173,0.621,0.758
814644,-78.0,5791.0,816.0,0.125,-0.192,0.614,0.755
814660,-852.0,4853.0,908.0,0.149,-0.211,0.605,0.754
814677,-1082.0,4055.0,628.0,0.172,-0.228,0.595,0.751
814703,-1872.0,3343.0,740.0,0.195,-0.245,0.586,0.747
814719,-1862.0,3839.0,602.0,0.216,-0.261,0.577,0.744
814735,-2592.0,2765.0,574.0,0.236,-0.276,0.566,0.74
814752,-3232.0,1779.0,628.0,0.254,-0.291,0.555,0.737
814768,-3992.0,1339.0,1092.0,0.27,-0.305,0.544,0.734
814784,-4362.0,279.0,1334.0,0.284,-0.319,0.532,0.731
814810,-4596.0,-189.0,1694.0,0.295,-0.331,0.524,0.728
814826,-4734.0,321.0,1404.0,0.303,-0.34,0.517,0.725
814842,-5502.0,-2171.0,1902.0,0.307,-0.345,0.513,0.723
814858,-5606.0,-1825.0,1728.0,0.308,-0.347,0.513,0.723
814874,-5626.0,-2237.0,1908.0,0.306,-0.345,0.515,0.723
814890,-5358.0,-2067.0,1746.0,0.301,-0.339,0.52,0.724
814906,-5130.0,-1385.0,1858.0,0.293,-0.33,0.526,0.727
814933,-4544.0,-1169.0,1604.0,0.282,-0.319,0.534,0.731
814949,-4298.0,-831.0,1752.0,0.268,-0.305,0.543,0.735
814965,-4194.0,149.0,1978.0,0.252,-0.289,0.552,0.74
814981,-3818.0,659.0,2160.0,0.233,-0.27,0.563,0.746
814998,-2978.0,1163.0,1928.0,0.212,-0.249,0.575,0.75
815014,-2200.0,2275.0,1794.0,0.188,-0.226,0.587,0.754
815030,-1186.0,3623.0,1858.0,0.162,-0.202,0.601,0.756
815057,-556.0,4293.0,1912.0,0.133,-0.176,0.616,0.756
815074,-266.0,5823.0,2600.0,0.103,-0.151,0.629,0.755
815090,1372.0,6993.0,1626.0,0.073,-0.127,0.638,0.756
815106,2162.0,6901.0,1494.0,0.042,-0.103,0.643,0.758
815123,3636.0,8271.0,896.0,0.011,-0.08,0.647,0.758
815140,3734.0,8865.0,1316.0,0.021,0.057,-0.653,-0.755
815156,3766.0,9637.0,1746.0,0.052,0.033,-0.655,-0.753
815172,4560.0,8629.0,1440.0,0.082,0.009,-0.655,-0.751
815198,5516.0,7429.0,696.0,0.111,-0.015,-0.654,-0.748
815215,6334.0,9233.0,1042.0,0.142,-0.039,-0.654,-0.742
815231,6726.0,9897.0,1454.0,0.172,-0.063,-0.653,-0.735
815247,6582.0,9633.0,1416.0,0.201,-0.089,-0.648,-0.729
815263,7176.0,7353.0,814.0,0.229,-0.116,-0.643,-0.722
815279,7852.0,5447.0,662.0,0.255,-0.14,-0.637,-0.714
815305,8982.0,8373.0,478.0,0.282,-0.163,-0.632,-0.703
815321,8612.0,7013.0,1394.0,0.307,-0.185,-0.627,-0.692
815337,8350.0,7543.0,1390.0,0.331,-0.207,-0.62,-0.681
815354,8806.0,6915.0,1162.0,0.353,-0.23,-0.611,-0.67
815370,9050.0,5321.0,942.0,0.375,-0.252,-0.602,-0.658
815386,9830.0,5435.0,788.0,0.396,-0.271,-0.594,-0.645
815412,10822.0,6167.0,922.0,0.417,-0.289,-0.585,-0.632
815428,10058.0,5737.0,1124.0,0.436,-0.305,-0.576,-0.62
815444,9912.0,5865.0,1330.0,0.453,-0.321,-0.567,-0.609
815461,9286.0,5647.0,1770.0,0.468,-0.338,-0.557,-0.597
815478,9444.0,4755.0,1286.0,0.483,-0.355,-0.546,-0.585
815494,9994.0,4779.0,1168.0,0.497,-0.37,-0.537,-0.572
815510,9982.0,4803.0,1418.0,0.51,-0.384,-0.528,-0.56
815526,9788.0,4743.0,1708.0,0.52,-0.398,-0.519,-0.549
815552,9390.0,4277.0,1668.0,0.528,-0.411,-0.511,-0.539
815569,8810.0,3885.0,1664.0,0.535,-0.422,-0.504,-0.53
815586,8478.0,4505.0,1792.0,0.542,-0.431,-0.499,-0.521
815603,8262.0,4977.0,2054.0,0.546,-0.44,-0.494,-0.513
815620,8528.0,4603.0,1904.0,0.549,-0.45,-0.49,-0.506
815636,8356.0,4263.0,1990.0,0.549,-0.458,-0.487,-0.502
815652,8120.0,4267.0,2126.0,0.548,-0.465,-0.485,-0.498
815668,8002.0,4221.0,2162.0,0.547,-0.471,-0.483,-0.496
815694,7814.0,4197.0,2244.0,0.545,-0.476,-0.481,-0.494
815710,7822.0,4171.0,2244.0,0.543,-0.479,-0.481,-0.494
815726,7794.0,4017.0,2280.0,0.54,-0.48,-0.482,-0.496
815742,7868.0,4055.0,2146.0,0.536,-0.48,-0.483,-0.499
815758,7830.0,3977.0,2214.0,0.533,-0.477,-0.487,-0.502
815774,7856.0,4627.0,2438.0,0.528,-0.472,-0.491,-0.507
815791,7920.0,4513.0,2368.0,0.523,-0.466,-0.496,-0.514
815817,8146.0,4461.0,2176.0,0.517,-0.457,-0.502,-0.521
815834,8598.0,4819.0,2088.0,0.511,-0.447,-0.509,-0.529
815851,8932.0,4845.0,1940.0,0.503,-0.434,-0.517,-0.539
815868,9256.0,5247.0,1972.0,0.494,-0.42,-0.526,-0.55
815885,9348.0,5505.0,1900.0,0.484,-0.404,-0.535,-0.562
815902,9614.0,5425.0,1930.0,0.473,-0.387,-0.545,-0.574
815919,10174.0,5645.0,1904.0,0.46,-0.369,-0.555,-0.587
815936,10474.0,5609.0,1858.0,0.445,-0.349,-0.566,-0.6
815953,10838.0,5909.0,1792.0,0.429,-0.327,-0.577,-0.613
815970,10956.0,6167.0,1680.0,0.411,-0.304,-0.588,-0.626
815987,11040.0,6631.0,1542.0,0.391,-0.28,-0.6,-0.639
816014,10808.0,7041.0,1638.0,0.37,-0.255,-0.611,-0.652
816031,10580.0,7325.0,1630.0,0.347,-0.229,-0.622,-0.664
816048,10328.0,7267.0,1214.0,0.323,-0.203,-0.632,-0.675
816064,9966.0,8111.0,1102.0,0.299,-0.177,-0.641,-0.685
816081,9522.0,8459.0,940.0,0.273,-0.151,-0.649,-0.694
816097,8666.0,8755.0,1034.0,0.246,-0.125,-0.656,-0.703
816113,7834.0,8427.0,1022.0,0.218,-0.099,-0.661,-0.711
816130,7662.0,8453.0,720.0,0.191,-0.074,-0.665,-0.718
816147,6838.0,8157.0,708.0,0.163,-0.048,-0.668,-0.725
816164,6674.0,9155.0,656.0,0.134,-0.023,-0.669,-0.73
816190,5964.0,8053.0,386.0,0.105,0.001,-0.669,-0.736
816206,4868.0,7697.0,824.0,0.075,0.026,-0.668,-0.74
816222,4536.0,8655.0,776.0,0.044,0.051,-0.665,-0.743
816238,3576.0,7281.0,864.0,0.015,0.075,-0.661,-0.747
816254,3116.0,6841.0,522.0,0.014,-0.098,0.657,0.748
816270,2564.0,7363.0,742.0,0.043,-0.121,0.653,0.747
816296,2074.0,6923.0,634.0,0.072,-0.144,0.646,0.746
816313,1820.0,7007.0,340.0,0.101,-0.167,0.637,0.746
816329,746.0,4513.0,632.0,0.129,-0.19,0.627,0.745
816345,296.0,5893.0,600.0,0.158,-0.212,0.616,0.742
816361,-584.0,4401.0,708.0,0.185,-0.234,0.604,0.739
816378,-1322.0,3507.0,612.0,0.211,-0.255,0.591,0.736
816394,-1370.0,3711.0,558.0,0.234,-0.275,0.579,0.731
816420,-2120.0,2525.0,814.0,0.256,-0.293,0.567,0.726
816436,-2490.0,1591.0,490.0,0.276,-0.31,0.555,0.721
816452,-2958.0,1069.0,934.0,0.295,-0.326,0.543,0.716
816468,-3464.0,319.0,1366.0,0.311,-0.341,0.531,0.711
816485,-3852.0,97.0,1400.0,0.326,-0.353,0.52,0.706
816501,-4080.0,-503.0,1196.0,0.338,-0.364,0.511,0.701
816527,-4486.0,-1399.0,1472.0,0.347,-0.372,0.504,0.698
816543,-5178.0,-2489.0,1602.0,0.352,-0.376,0.5,0.696
816559,-5444.0,-2311.0,1630.0,0.354,-0.377,0.5,0.695
816575,-5272.0,-2391.0,1224.0,0.352,-0.374,0.502,0.696
816591,-5290.0,-2063.0,1178.0,0.346,-0.37,0.507,0.698
816607,-5416.0,-1537.0,1588.0,0.338,-0.362,0.512,0.701
816623,-5506.0,-763.0,1848.0,0.326,-0.352,0.519,0.707
816649,-5224.0,-825.0,1734.0,0.311,-0.339,0.526,0.715
816666,-5082.0,-989.0,1600.0,0.294,-0.325,0.534,0.723
816683,-4766.0,-913.0,1618.0,0.274,-0.307,0.544,0.731
816699,-4452.0,711.0,1938.0,0.251,-0.288,0.556,0.738
816716,-3774.0,1299.0,1924.0,0.227,-0.266,0.567,0.746
816733,-2828.0,1363.0,1678.0,0.201,-0.242,0.58,0.751
816749,-1936.0,2595.0,1782.0,0.174,-0.218,0.593,0.755
816775,-1068.0,4417.0,1680.0,0.146,-0.193,0.605,0.759
816791,-416.0,4391.0,1700.0,0.117,-0.167,0.616,0.761
816807,664.0,5731.0,1280.0,0.087,-0.14,0.626,0.762
816823,2008.0,6881.0,1420.0,0.057,-0.114,0.633,0.763
816839,2500.0,8001.0,1524.0,0.025,-0.086,0.639,0.764
816855,3414.0,8619.0,1760.0,0.007,0.058,-0.645,-0.762
816871,3986.0,7253.0,562.0,0.039,0.03,-0.649,-0.759
816898,5710.0,8913.0,610.0,0.07,0.003,-0.65,-0.756
816915,6756.0,9239.0,1240.0,0.1,-0.023,-0.652,-0.752
816932,5872.0,8643.0,1456.0,0.131,-0.049,-0.65,-0.747
816949,7696.0,10567.0,980.0,0.161,-0.075,-0.649,-0.74
816966,7506.0,7415.0,878.0,0.19,-0.1,-0.645,-0.733
816983,7800.0,9047.0,1302.0,0.217,-0.123,-0.642,-0.725
816999,8266.0,7893.0,1608.0,0.242,-0.147,-0.637,-0.717
817015,8454.0,7381.0,1800.0,0.267,-0.17,-0.633,-0.707
817032,9390.0,8341.0,1318.0,0.293,-0.192,-0.628,-0.695
817048,9662.0,7355.0,1470.0,0.318,-0.214,-0.623,-0.683
817074,9748.0,7575.0,1700.0,0.339,-0.233,-0.617,-0.671
817090,9718.0,6731.0,1614.0,0.358,-0.253,-0.61,-0.66
817106,9542.0,6567.0,1632.0,0.378,-0.27,-0.604,-0.648
817122,9562.0,6831.0,1498.0,0.398,-0.288,-0.597,-0.634
817138,9662.0,5965.0,1666.0,0.417,-0.305,-0.59,-0.621
817164,9918.0,6213.0,1474.0,0.434,-0.321,-0.582,-0.608
817180,9500.0,5503.0,1532.0,0.45,-0.336,-0.574,-0.596
817197,9202.0,5335.0,1576.0,0.466,-0.35,-0.565,-0.584
817213,9072.0,5151.0,1458.0,0.48,-0.365,-0.556,-0.572
817229,8602.0,5031.0,1586.0,0.495,-0.379,-0.546,-0.56
817245,8430.0,5077.0,1662.0,0.507,-0.394,-0.536,-0.548
817261,8738.0,4565.0,1486.0,0.519,-0.408,-0.525,-0.537
817287,9132.0,3715.0,1266.0,0.529,-0.423,-0.513,-0.527
817303,9408.0,3495.0,1360.0,0.538,-0.435,-0.503,-0.519
817319,9400.0,3515.0,1452.0,0.546,-0.446,-0.493,-0.511
817335,9000.0,3513.0,1724.0,0.552,-0.455,-0.484,-0.504
817351,8532.0,3357.0,2004.0,0.557,-0.464,-0.476,-0.498
817367,8310.0,3431.0,2214.0,0.559,-0.471,-0.47,-0.494
817394,8126.0,3303.0,2264.0,0.56,-0.478,-0.465,-0.492
817411,7964.0,2915.0,2162.0,0.559,-0.483,-0.462,-0.49
817427,7982.0,3281.0,2042.0,0.558,-0.486,-0.461,-0.49
817443,7952.0,3895.0,1878.0,0.557,-0.488,-0.46,-0.489
817459,7726.0,4069.0,2002.0,0.554,-0.49,-0.461,-0.491
817475,7800.0,3719.0,1710.0,0.55,-0.491,-0.462,-0.494
817491,7546.0,3633.0,1780.0,0.545,-0.49,-0.464,-0.498
817508,7670.0,3675.0,1708.0,0.539,-0.486,-0.468,-0.504
817534,7844.0,4141.0,1738.0,0.533,-0.481,-0.473,-0.51
817550,8124.0,4243.0,1724.0,0.527,-0.474,-0.479,-0.518
817567,8344.0,4543.0,1782.0,0.519,-0.466,-0.486,-0.527
817584,8680.0,4251.0,1782.0,0.51,-0.455,-0.494,-0.537
817601,8942.0,4465.0,1888.0,0.501,-0.442,-0.503,-0.549
817618,9154.0,4703.0,1740.0,0.491,-0.427,-0.513,-0.561
817634,9472.0,5195.0,1844.0,0.48,-0.409,-0.523,-0.573
817650,9800.0,5349.0,1866.0,0.469,-0.39,-0.535,-0.585
817667,10142.0,6247.0,2092.0,0.455,-0.369,-0.548,-0.597
817694,10614.0,6315.0,2004.0,0.439,-0.348,-0.561,-0.61
817711,10836.0,6401.0,1912.0,0.421,-0.325,-0.574,-0.622
817727,10974.0,6335.0,1644.0,0.403,-0.301,-0.588,-0.634
817743,11060.0,6877.0,1502.0,0.382,-0.277,-0.602,-0.644
817759,10804.0,7177.0,1434.0,0.361,-0.251,-0.616,-0.654
817775,10542.0,7519.0,1176.0,0.337,-0.225,-0.63,-0.663
817791,10146.0,8109.0,1042.0,0.312,-0.198,-0.643,-0.671
817817,9708.0,8317.0,854.0,0.286,-0.171,-0.654,-0.679
817834,9400.0,8723.0,552.0,0.258,-0.145,-0.665,-0.686
817851,8706.0,8983.0,548.0,0.23,-0.118,-0.674,-0.692
817867,8482.0,9211.0,286.0,0.2,-0.093,-0.68,-0.699
817883,7730.0,8943.0,302.0,0.169,-0.067,-0.685,-0.706
817899,6868.0,9101.0,472.0,0.138,-0.042,-0.687,-0.712
817916,6012.0,7479.0,524.0,0.107,-0.018,-0.688,-0.718
817942,5070.0,8551.0,406.0,0.077,0.006,-0.688,-0.721
817958,4540.0,8325.0,384.0,0.047,0.029,-0.686,-0.725
817974,3706.0,7553.0,836.0,0.019,0.05,-0.683,-0.729
817990,3776.0,7813.0,958.0,0.008,-0.071,0.679,0.731
818006,3110.0,7171.0,390.0,0.033,-0.093,0.673,0.733
818022,2630.0,6655.0,582.0,0.058,-0.115,0.667,0.734
818048,1502.0,6295.0,1012.0,0.084,-0.137,0.658,0.735
818064,1408.0,6645.0,910.0,0.109,-0.159,0.649,0.735
818080,620.0,5821.0,778.0,0.133,-0.181,0.639,0.735
818096,-46.0,5189.0,822.0,0.157,-0.201,0.629,0.734
818113,-278.0,5419.0,820.0,0.18,-0.221,0.619,0.732
818130,-902.0,4901.0,802.0,0.202,-0.24,0.608,0.729
818147,-1492.0,3503.0,822.0,0.224,-0.259,0.596,0.727
818164,-1958.0,2959.0,776.0,0.246,-0.276,0.583,0.723
818181,-2492.0,2387.0,768.0,0.266,-0.293,0.571,0.72
818207,-3132.0,931.0,1126.0,0.285,-0.307,0.559,0.715
818224,-3214.0,593.0,1186.0,0.301,-0.32,0.548,0.711
818241,-3912.0,-1957.0,1212.0,0.313,-0.33,0.541,0.707
818257,-4104.0,-1277.0,1220.0,0.325,-0.339,0.537,0.701
818273,-4938.0,-1039.0,1674.0,0.334,-0.346,0.534,0.695
818290,-5276.0,-1979.0,1648.0,0.341,-0.352,0.532,0.69
818306,-5194.0,-2291.0,1740.0,0.344,-0.357,0.533,0.686
818322,-5516.0,-2101.0,2036.0,0.344,-0.359,0.536,0.682
818348,-5508.0,-2695.0,2070.0,0.34,-0.358,0.543,0.68
818364,-5062.0,-2193.0,1304.0,0.332,-0.353,0.552,0.679
818380,-4940.0,-967.0,1072.0,0.32,-0.345,0.562,0.68
818396,-4724.0,-775.0,932.0,0.305,-0.335,0.573,0.683
818413,-4190.0,-731.0,1142.0,0.287,-0.321,0.584,0.688
818430,-3828.0,-301.0,1168.0,0.266,-0.304,0.597,0.693
818446,-3002.0,179.0,1160.0,0.244,-0.283,0.61,0.699
818473,-1996.0,1117.0,550.0,0.219,-0.259,0.625,0.703
818489,-768.0,2887.0,-120.0,0.192,-0.232,0.64,0.707
818505,-414.0,3141.0,664.0,0.163,-0.204,0.654,0.71
818521,302.0,5071.0,546.0,0.134,-0.175,0.667,0.712
818539,2194.0,6969.0,-320.0,0.104,-0.147,0.677,0.713
818556,2398.0,7987.0,-104.0,0.072,-0.117,0.686,0.715
818573,3898.0,9375.0,-650.0,0.04,-0.09,0.691,0.717
818589,4110.0,9157.0,-260.0,0.009,-0.062,0.693,0.718
818616,4990.0,10003.0,-472.0,0.023,0.035,-0.693,-0.72
818634,6438.0,11003.0,-794.0,0.054,0.008,-0.69,-0.722
818650,6266.0,9097.0,6.0,0.083,-0.018,-0.685,-0.724
818667,6428.0,8853.0,684.0,0.109,-0.044,-0.68,-0.724
818684,6018.0,9955.0,1306.0,0.133,-0.07,-0.676,-0.721
818700,5766.0,9133.0,1672.0,0.157,-0.098,-0.671,-0.718
818716,6472.0,10127.0,810.0,0.179,-0.127,-0.666,-0.713
818733,7458.0,6975.0,206.0,0.2,-0.157,-0.659,-0.708
818749,8070.0,7203.0,144.0,0.22,-0.185,-0.653,-0.701
818766,8100.0,8063.0,548.0,0.24,-0.21,-0.646,-0.693
818792,8390.0,7893.0,834.0,0.259,-0.234,-0.639,-0.685
818808,8398.0,8973.0,854.0,0.28,-0.258,-0.631,-0.676
818824,8234.0,6323.0,584.0,0.3,-0.282,-0.62,-0.668
818840,8196.0,6311.0,1172.0,0.318,-0.303,-0.61,-0.659
818857,8848.0,5967.0,964.0,0.337,-0.324,-0.6,-0.65
818873,8614.0,6687.0,1722.0,0.355,-0.343,-0.59,-0.639
818899,9602.0,6259.0,1350.0,0.373,-0.363,-0.579,-0.628
818915,9748.0,5471.0,1358.0,0.39,-0.381,-0.567,-0.617
818931,9950.0,5727.0,1568.0,0.406,-0.398,-0.556,-0.607
818947,9958.0,5309.0,1512.0,0.421,-0.416,-0.544,-0.595
818963,10198.0,4979.0,1560.0,0.436,-0.431,-0.533,-0.583
818980,10488.0,5641.0,1464.0,0.451,-0.446,-0.521,-0.571
818996,10064.0,4461.0,1652.0,0.463,-0.46,-0.51,-0.56
819012,10030.0,4599.0,1534.0,0.473,-0.472,-0.5,-0.55
819039,9596.0,4155.0,1616.0,0.482,-0.482,-0.491,-0.541
819056,9218.0,4545.0,1852.0,0.49,-0.491,-0.484,-0.533
819073,9098.0,4053.0,1726.0,0.497,-0.499,-0.478,-0.526
819090,8704.0,4089.0,1864.0,0.502,-0.505,-0.472,-0.52
819106,8594.0,4071.0,1694.0,0.506,-0.509,-0.469,-0.515
819122,8132.0,4059.0,1806.0,0.509,-0.512,-0.466,-0.512
819139,7808.0,4351.0,1776.0,0.51,-0.513,-0.466,-0.51
819155,7742.0,4253.0,1664.0,0.511,-0.512,-0.466,-0.51
819181,7506.0,4529.0,1722.0,0.51,-0.509,-0.468,-0.512
819198,7458.0,4419.0,1746.0,0.508,-0.505,-0.471,-0.515
819215,7512.0,4677.0,1726.0,0.505,-0.5,-0.476,-0.518
819232,7590.0,4579.0,1638.0,0.502,-0.493,-0.481,-0.523
819249,7794.0,4721.0,1568.0,0.497,-0.485,-0.488,-0.53
819265,8028.0,4961.0,1586.0,0.491,-0.474,-0.495,-0.537
819282,8242.0,5135.0,1610.0,0.484,-0.463,-0.504,-0.545
819299,8618.0,5067.0,1400.0,0.476,-0.45,-0.514,-0.554
819316,9014.0,5511.0,1360.0,0.467,-0.435,-0.524,-0.564
819332,9358.0,5341.0,1436.0,0.457,-0.418,-0.535,-0.575
819350,9632.0,5659.0,1328.0,0.444,-0.401,-0.547,-0.585
819377,9720.0,5769.0,1372.0,0.431,-0.381,-0.559,-0.597
819393,9780.0,6013.0,1388.0,0.415,-0.362,-0.572,-0.608
819410,9920.0,6121.0,1260.0,0.399,-0.341,-0.584,-0.619
819427,9858.0,6229.0,1098.0,0.382,-0.319,-0.597,-0.63
819443,10182.0,6731.0,778.0,0.363,-0.296,-0.609,-0.64
819459,10056.0,6485.0,824.0,0.343,-0.273,-0.621,-0.649
819476,10238.0,7853.0,716.0,0.322,-0.248,-0.633,-0.659
819492,9808.0,7827.0,752.0,0.299,-0.223,-0.644,-0.668
819508,9286.0,7843.0,1000.0,0.275,-0.198,-0.653,-0.677
819534,9454.0,7991.0,544.0,0.249,-0.174,-0.662,-0.685
819550,8410.0,7771.0,718.0,0.223,-0.149,-0.67,-0.693
819566,8134.0,8697.0,464.0,0.196,-0.124,-0.677,-0.699
819583,7150.0,8381.0,598.0,0.169,-0.1,-0.682,-0.704
819599,6638.0,8667.0,466.0,0.141,-0.077,-0.686,-0.71
819616,6016.0,8253.0,350.0,0.113,-0.054,-0.689,-0.714
819633,5460.0,8585.0,296.0,0.084,-0.031,-0.69,-0.718
819659,4838.0,8469.0,174.0,0.056,-0.009,-0.691,-0.721
819675,4378.0,8403.0,78.0,0.029,0.013,-0.69,-0.723
819691,3500.0,8131.0,444.0,0.002,0.034,-0.687,-0.726
819707,3418.0,8291.0,38.0,0.024,-0.055,0.683,0.728
819723,2518.0,7433.0,46.0,0.05,-0.074,0.678,0.73
819740,1944.0,6785.0,318.0,0.076,-0.095,0.673,0.73
819756,2086.0,8599.0,282.0,0.101,-0.114,0.667,0.729
819773,906.0,7293.0,460.0,0.125,-0.133,0.659,0.73
819800,516.0,5551.0,478.0,0.15,-0.151,0.65,0.73
819816,588.0,6149.0,232.0,0.174,-0.168,0.642,0.727
819832,-404.0,5707.0,438.0,0.196,-0.184,0.632,0.727
819849,-606.0,4035.0,586.0,0.217,-0.2,0.622,0.725
819865,-1148.0,4179.0,880.0,0.239,-0.216,0.611,0.723
819881,-1782.0,3213.0,894.0,0.258,-0.23,0.6,0.721
819898,-2088.0,1227.0,1082.0,0.277,-0.244,0.588,0.72
819924,-2658.0,917.0,1230.0,0.294,-0.257,0.577,0.717
819941,-3544.0,-99.0,1756.0,0.308,-0.269,0.567,0.715
819958,-3882.0,-1049.0,1896.0,0.32,-0.278,0.559,0.712
819975,-4314.0,-1107.0,2148.0,0.329,-0.284,0.555,0.709
819992,-4454.0,-1103.0,2156.0,0.334,-0.286,0.552,0.708
820009,-4244.0,-1705.0,1910.0,0.336,-0.286,0.551,0.708
820025,-4238.0,-1953.0,1932.0,0.334,-0.283,0.553,0.709
820041,-4114.0,-1279.0,1824.0,0.328,-0.278,0.555,0.712
820057,-4108.0,-925.0,1948.0,0.318,-0.27,0.56,0.716
820083,-3920.0,-583.0,2054.0,0.304,-0.259,0.564,0.722
820099,-3770.0,-429.0,2114.0,0.287,-0.246,0.57,0.729
820116,-3486.0,-445.0,1994.0,0.268,-0.23,0.577,0.736
820133,-3034.0,-11.0,2260.0,0.246,-0.212,0.586,0.743
820150,-2224.0,1499.0,1966.0,0.222,-0.19,0.596,0.748
820166,-1510.0,2027.0,1934.0,0.195,-0.167,0.606,0.753
820183,-262.0,3697.0,1424.0,0.167,-0.142,0.617,0.756
820199,616.0,5483.0,1300.0,0.136,-0.117,0.626,0.759
820226,1410.0,6005.0,1208.0,0.105,-0.093,0.634,0.761
820242,2586.0,8379.0,1254.0,0.073,-0.067,0.641,0.761
820258,3052.0,8923.0,988.0,0.041,-0.043,0.645,0.762
820274,3546.0,7731.0,1086.0,0.01,-0.018,0.647,0.762
820290,4734.0,10579.0,996.0,0.021,-0.005,-0.649,-0.76
820307,5354.0,8581.0,996.0,0.051,-0.029,-0.65,-0.757
820324,5416.0,9127.0,934.0,0.079,-0.052,-0.65,-0.754
820341,6244.0,9515.0,664.0,0.106,-0.074,-0.65,-0.749
820367,6152.0,8551.0,930.0,0.133,-0.096,-0.649,-0.743
820383,6702.0,8571.0,724.0,0.159,-0.118,-0.647,-0.736
820399,7604.0,9037.0,752.0,0.185,-0.14,-0.647,-0.726
820416,7162.0,8419.0,880.0,0.211,-0.163,-0.645,-0.716
820432,7726.0,7791.0,894.0,0.235,-0.184,-0.642,-0.706
820449,8140.0,7251.0,502.0,0.258,-0.204,-0.64,-0.695
820466,8506.0,7479.0,742.0,0.282,-0.222,-0.637,-0.682
820482,8866.0,8029.0,520.0,0.306,-0.24,-0.634,-0.669
820509,8930.0,7837.0,422.0,0.33,-0.257,-0.629,-0.655
820525,8700.0,6869.0,820.0,0.352,-0.274,-0.623,-0.642
820541,8860.0,6375.0,942.0,0.372,-0.291,-0.616,-0.63
820558,9540.0,6347.0,510.0,0.392,-0.306,-0.609,-0.617
820574,10100.0,5937.0,630.0,0.414,-0.321,-0.601,-0.604
820590,9426.0,7183.0,982.0,0.434,-0.335,-0.593,-0.59
820606,9518.0,6437.0,1088.0,0.452,-0.35,-0.582,-0.578
820623,9518.0,5451.0,1010.0,0.467,-0.366,-0.572,-0.567
820650,9822.0,4809.0,774.0,0.48,-0.379,-0.562,-0.557
820666,9556.0,5181.0,1168.0,0.492,-0.39,-0.553,-0.548
820683,9172.0,5427.0,1308.0,0.504,-0.401,-0.543,-0.539
820699,8760.0,5203.0,1322.0,0.514,-0.411,-0.534,-0.53
820716,8762.0,5113.0,1446.0,0.521,-0.422,-0.526,-0.523
820732,8726.0,5075.0,1632.0,0.525,-0.432,-0.519,-0.518
820749,8634.0,4553.0,1378.0,0.527,-0.441,-0.513,-0.515
820765,8384.0,4367.0,1326.0,0.528,-0.449,-0.508,-0.512
820782,7958.0,4695.0,1430.0,0.529,-0.455,-0.503,-0.509
820809,7880.0,4579.0,1316.0,0.529,-0.461,-0.499,-0.508
820825,7740.0,4385.0,1350.0,0.527,-0.466,-0.496,-0.508
820841,7600.0,4239.0,1284.0,0.525,-0.47,-0.494,-0.51
820857,7376.0,4181.0,1434.0,0.522,-0.472,-0.492,-0.512
820873,7250.0,4171.0,1442.0,0.517,-0.473,-0.492,-0.516
820889,7320.0,4177.0,1428.0,0.512,-0.472,-0.493,-0.521
820915,7512.0,4437.0,1346.0,0.507,-0.47,-0.495,-0.527
820932,7562.0,4535.0,1364.0,0.501,-0.466,-0.498,-0.533
820949,7794.0,4809.0,1424.0,0.493,-0.462,-0.501,-0.541
820965,8040.0,4503.0,1274.0,0.485,-0.456,-0.506,-0.549
820982,8366.0,4751.0,1270.0,0.476,-0.448,-0.511,-0.558
820999,8554.0,5157.0,1340.0,0.467,-0.438,-0.518,-0.567
821016,8846.0,5243.0,1416.0,0.456,-0.427,-0.526,-0.577
821032,9008.0,5437.0,1506.0,0.443,-0.414,-0.535,-0.588
821049,9540.0,5517.0,1402.0,0.429,-0.4,-0.544,-0.599
821076,9724.0,5859.0,1474.0,0.415,-0.385,-0.554,-0.611
821092,10028.0,6195.0,1570.0,0.398,-0.367,-0.565,-0.622
821108,10304.0,6227.0,1480.0,0.381,-0.349,-0.576,-0.634
821124,10418.0,6533.0,1404.0,0.362,-0.329,-0.587,-0.645
821140,10460.0,6601.0,1300.0,0.343,-0.307,-0.598,-0.656
821156,10120.0,6909.0,1458.0,0.322,-0.284,-0.609,-0.666
821173,10422.0,7419.0,1386.0,0.301,-0.261,-0.619,-0.677
821190,11138.0,7233.0,450.0,0.278,-0.235,-0.628,-0.688
821216,10364.0,8415.0,898.0,0.253,-0.206,-0.637,-0.698
821232,9120.0,8823.0,1452.0,0.226,-0.178,-0.645,-0.708
821250,7822.0,8305.0,1490.0,0.199,-0.151,-0.651,-0.716
821266,7126.0,8067.0,1116.0,0.171,-0.125,-0.657,-0.723
821282,6592.0,8655.0,752.0,0.145,-0.098,-0.663,-0.728
821298,6422.0,10013.0,468.0,0.119,-0.074,-0.668,-0.731
821315,5900.0,9621.0,604.0,0.092,-0.05,-0.669,-0.736
821332,5398.0,8469.0,460.0,0.063,-0.027,-0.668,-0.741
821359,4510.0,8055.0,962.0,0.034,-0.004,-0.667,-0.745
821375,3646.0,7433.0,1044.0,0.007,0.018,-0.665,-0.747
821391,3096.0,7089.0,954.0,0.019,-0.039,0.662,0.748
821407,2636.0,7333.0,968.0,0.044,-0.059,0.66,0.748
821423,1806.0,6407.0,940.0,0.069,-0.077,0.656,0.748
821439,1220.0,5433.0,1076.0,0.093,-0.096,0.651,0.747
821455,1170.0,5659.0,816.0,0.117,-0.114,0.647,0.744
821481,1056.0,5653.0,546.0,0.139,-0.133,0.644,0.74
821498,546.0,7039.0,716.0,0.158,-0.15,0.639,0.737
821515,72.0,5107.0,644.0,0.176,-0.166,0.634,0.735
821531,-56.0,4879.0,176.0,0.193,-0.183,0.628,0.731
821547,-878.0,4737.0,568.0,0.211,-0.201,0.622,0.727
821564,-1428.0,4563.0,930.0,0.227,-0.217,0.615,0.723
821580,-2032.0,3487.0,1166.0,0.244,-0.233,0.606,0.72
821607,-2506.0,3387.0,1178.0,0.259,-0.248,0.598,0.717
821623,-2934.0,2537.0,1138.0,0.274,-0.261,0.589,0.714
821639,-3530.0,1723.0,1054.0,0.287,-0.274,0.58,0.712
821655,-4152.0,449.0,1374.0,0.299,-0.285,0.571,0.71
821671,-4700.0,451.0,1516.0,0.309,-0.294,0.563,0.708
821687,-5002.0,-101.0,1654.0,0.317,-0.3,0.557,0.707
821704,-5324.0,-1027.0,1584.0,0.321,-0.302,0.554,0.706
821720,-5188.0,-1163.0,1606.0,0.323,-0.302,0.553,0.706
821747,-5276.0,-1213.0,1830.0,0.321,-0.299,0.555,0.707
821764,-5216.0,-823.0,1682.0,0.315,-0.293,0.558,0.71
821780,-4844.0,-1043.0,1786.0,0.306,-0.284,0.562,0.714
821797,-4550.0,-701.0,1838.0,0.294,-0.273,0.568,0.719
821813,-4340.0,-539.0,1828.0,0.279,-0.259,0.575,0.724
821830,-3986.0,-43.0,1752.0,0.262,-0.243,0.583,0.73
821847,-3560.0,305.0,2052.0,0.242,-0.223,0.593,0.735
821864,-2904.0,561.0,2054.0,0.22,-0.201,0.604,0.739
821881,-1850.0,1805.0,2022.0,0.198,-0.176,0.616,0.742
821898,-820.0,3619.0,1688.0,0.173,-0.15,0.627,0.745
821924,100.0,3451.0,1310.0,0.146,-0.122,0.638,0.747
821940,964.0,4659.0,1194.0,0.118,-0.095,0.648,0.747
821956,3042.0,7707.0,314.0,0.09,-0.069,0.654,0.748
821972,2720.0,7597.0,798.0,0.059,-0.043,0.657,0.75
821988,3228.0,7875.0,870.0,0.028,-0.018,0.66,0.751
822004,4254.0,8003.0,750.0,0.003,-0.006,-0.662,-0.749
822031,5054.0,9463.0,338.0,0.034,-0.03,-0.663,-0.747
822048,5494.0,9205.0,454.0,0.065,-0.053,-0.659,-0.748
822064,5802.0,8517.0,1440.0,0.094,-0.076,-0.655,-0.746
822080,6098.0,9415.0,1486.0,0.124,-0.1,-0.651,-0.742
822096,5980.0,8045.0,1874.0,0.152,-0.125,-0.647,-0.737
822112,6374.0,6715.0,1056.0,0.179,-0.151,-0.643,-0.729
822129,7954.0,8389.0,626.0,0.206,-0.178,-0.639,-0.72
822155,8178.0,7897.0,1336.0,0.231,-0.205,-0.633,-0.71
822172,9176.0,7107.0,1146.0,0.254,-0.233,-0.625,-0.7
822188,10042.0,6761.0,216.0,0.276,-0.261,-0.618,-0.689
822205,10948.0,5091.0,-792.0,0.296,-0.286,-0.609,-0.678
822222,11446.0,3967.0,-1122.0,0.317,-0.304,-0.603,-0.665
822239,10668.0,6345.0,346.0,0.339,-0.319,-0.597,-0.653
822256,10414.0,6849.0,774.0,0.361,-0.334,-0.589,-0.642
822272,10442.0,6229.0,816.0,0.381,-0.349,-0.579,-0.63
822289,9858.0,5607.0,1046.0,0.399,-0.365,-0.568,-0.62
822306,9886.0,4749.0,1294.0,0.415,-0.381,-0.557,-0.61
822323,10268.0,4421.0,1406.0,0.429,-0.396,-0.547,-0.6
822349,10258.0,4353.0,1568.0,0.444,-0.411,-0.536,-0.588
822365,10236.0,4413.0,1686.0,0.458,-0.426,-0.527,-0.576
822382,10336.0,4885.0,1582.0,0.471,-0.44,-0.516,-0.564
822399,10298.0,4589.0,1144.0,0.481,-0.455,-0.506,-0.553
822415,9936.0,4033.0,1096.0,0.49,-0.468,-0.496,-0.543
822432,9512.0,3773.0,1166.0,0.496,-0.481,-0.487,-0.534
822448,8852.0,3427.0,1198.0,0.502,-0.491,-0.48,-0.526
822465,8794.0,4051.0,1592.0,0.506,-0.501,-0.472,-0.519
822491,8454.0,3649.0,1642.0,0.509,-0.511,-0.465,-0.513
822507,8436.0,3045.0,1494.0,0.51,-0.521,-0.458,-0.508
822524,8294.0,2943.0,1732.0,0.51,-0.53,-0.452,-0.504
822540,8046.0,2687.0,1846.0,0.51,-0.538,-0.447,-0.501
822556,7916.0,2447.0,1666.0,0.51,-0.544,-0.442,-0.499
822573,7602.0,2685.0,1698.0,0.51,-0.548,-0.439,-0.497
822589,7788.0,2521.0,1552.0,0.51,-0.551,-0.436,-0.496
822615,7776.0,2925.0,1642.0,0.509,-0.553,-0.434,-0.497
822632,7830.0,2817.0,1478.0,0.508,-0.554,-0.432,-0.499
822649,7866.0,2429.0,1402.0,0.506,-0.553,-0.431,-0.502
822666,7996.0,2185.0,1450.0,0.505,-0.55,-0.431,-0.507
822683,8242.0,2591.0,1544.0,0.503,-0.545,-0.434,-0.512
822699,8514.0,2733.0,1520.0,0.501,-0.538,-0.437,-0.518
822715,8470.0,2333.0,1752.0,0.498,-0.53,-0.442,-0.526
822731,8638.0,2501.0,1826.0,0.494,-0.52,-0.448,-0.534
822747,8720.0,2835.0,1906.0,0.489,-0.509,-0.456,-0.542
822773,8982.0,3033.0,1774.0,0.483,-0.498,-0.464,-0.551
822790,9250.0,2857.0,1570.0,0.476,-0.484,-0.474,-0.561
822806,9772.0,3715.0,1556.0,0.467,-0.47,-0.485,-0.571
822822,9958.0,3787.0,1574.0,0.457,-0.454,-0.496,-0.582
822838,10112.0,3851.0,1556.0,0.446,-0.437,-0.508,-0.594
822855,10248.0,3777.0,1478.0,0.433,-0.419,-0.52,-0.606
822871,10602.0,4537.0,1628.0,0.42,-0.398,-0.533,-0.617
822888,10442.0,4977.0,1676.0,0.405,-0.377,-0.546,-0.629
822914,10446.0,5535.0,1922.0,0.388,-0.356,-0.557,-0.642
822930,11004.0,5583.0,1730.0,0.371,-0.335,-0.567,-0.655
822946,10820.0,4995.0,1476.0,0.353,-0.312,-0.578,-0.667
822962,10218.0,5973.0,1734.0,0.334,-0.288,-0.588,-0.678
822978,9810.0,6121.0,1614.0,0.314,-0.264,-0.598,-0.688
823004,9048.0,6785.0,1860.0,0.294,-0.24,-0.607,-0.698
823020,8588.0,6863.0,1650.0,0.272,-0.216,-0.614,-0.708
823037,8628.0,6859.0,1126.0,0.251,-0.192,-0.622,-0.717
823053,7900.0,6953.0,1114.0,0.229,-0.168,-0.629,-0.724
823069,7186.0,7991.0,1456.0,0.207,-0.143,-0.635,-0.731
823085,6404.0,7653.0,1466.0,0.184,-0.12,-0.638,-0.738
823111,6306.0,7803.0,1356.0,0.161,-0.098,-0.64,-0.745
823127,5596.0,7191.0,1300.0,0.138,-0.075,-0.642,-0.75
823143,4886.0,7327.0,1336.0,0.114,-0.054,-0.643,-0.755
823159,4162.0,7105.0,1236.0,0.089,-0.033,-0.643,-0.76
823175,3862.0,7377.0,1202.0,0.065,-0.012,-0.644,-0.762
823191,3046.0,7095.0,1092.0,0.041,0.009,-0.645,-0.763
823207,2112.0,7475.0,1532.0,0.016,0.029,-0.644,-0.765
823233,2162.0,7231.0,1338.0,0.008,-0.049,0.641,0.766
823249,1274.0,7247.0,1236.0,0.032,-0.067,0.638,0.766
823265,1688.0,7145.0,564.0,0.055,-0.086,0.636,0.765
823281,720.0,7047.0,1014.0,0.078,-0.105,0.633,0.763
823297,-22.0,6875.0,1238.0,0.101,-0.124,0.628,0.761
823314,-678.0,6489.0,1358.0,0.122,-0.141,0.623,0.759
823341,-586.0,5889.0,1068.0,0.142,-0.158,0.619,0.756
823357,-1178.0,5919.0,1324.0,0.161,-0.172,0.614,0.753
823373,-1560.0,5399.0,1444.0,0.179,-0.187,0.608,0.75
823389,-1640.0,5169.0,1456.0,0.195,-0.2,0.604,0.746
823405,-2002.0,5955.0,1580.0,0.211,-0.211,0.6,0.742
823421,-2294.0,4965.0,1204.0,0.225,-0.222,0.596,0.738
823437,-2026.0,5293.0,634.0,0.238,-0.232,0.593,0.733
823463,-2190.0,5255.0,562.0,0.251,-0.242,0.59,0.728
823479,-2584.0,4629.0,776.0,0.262,-0.252,0.587,0.723
823495,-2950.0,3853.0,1230.0,0.274,-0.263,0.583,0.718
823511,-3162.0,2859.0,1032.0,0.286,-0.275,0.579,0.712
823527,-4050.0,2413.0,1846.0,0.297,-0.287,0.576,0.705
823553,-4450.0,1009.0,1918.0,0.308,-0.297,0.574,0.698
823569,-5016.0,333.0,1664.0,0.316,-0.307,0.571,0.692
823585,-5602.0,-2729.0,2184.0,0.322,-0.314,0.571,0.687
823607,-6912.0,-1893.0,2226.0,0.328,-0.317,0.574,0.68
823624,-6706.0,-1149.0,1560.0,0.329,-0.316,0.58,0.675
823640,-5986.0,-1807.0,1822.0,0.326,-0.311,0.586,0.673
823656,-5660.0,-1043.0,1656.0,0.321,-0.302,0.595,0.672
823673,-4900.0,591.0,1328.0,0.312,-0.29,0.605,0.672
823689,-4592.0,265.0,1232.0,0.301,-0.277,0.615,0.674
823705,-4146.0,641.0,1226.0,0.287,-0.262,0.625,0.677
823721,-3440.0,1543.0,1138.0,0.271,-0.246,0.636,0.68
823747,-2828.0,1937.0,1176.0,0.252,-0.229,0.647,0.683
823763,-2334.0,2655.0,1038.0,0.231,-0.21,0.657,0.686
823779,-1600.0,3141.0,730.0,0.207,-0.19,0.668,0.689
823795,-990.0,4307.0,448.0,0.181,-0.17,0.678,0.692
823811,-592.0,4887.0,366.0,0.153,-0.15,0.687,0.695
823828,92.0,5841.0,360.0,0.123,-0.13,0.694,0.697
823854,234.0,7289.0,328.0,0.091,-0.11,0.698,0.701
823870,1482.0,7723.0,-366.0,0.057,-0.088,0.701,0.706
823886,1236.0,6483.0,-26.0,0.025,-0.067,0.701,0.71
823902,2204.0,9577.0,376.0,0.008,0.046,-0.698,-0.714
823918,3214.0,7775.0,378.0,0.04,0.023,-0.695,-0.718
823934,3452.0,9417.0,614.0,0.071,-0.002,-0.689,-0.721
823960,5380.0,9315.0,308.0,0.102,-0.028,-0.682,-0.723
823976,5320.0,7545.0,698.0,0.13,-0.054,-0.675,-0.725
823993,6708.0,9077.0,442.0,0.156,-0.08,-0.667,-0.724
824010,7328.0,9875.0,1172.0,0.182,-0.106,-0.659,-0.722
824027,7134.0,8477.0,924.0,0.206,-0.134,-0.648,-0.72
824044,8362.0,9163.0,804.0,0.23,-0.162,-0.638,-0.717
824061,7946.0,7935.0,522.0,0.255,-0.191,-0.628,-0.71
824077,9028.0,5199.0,-114.0,0.277,-0.218,-0.618,-0.703
824094,8896.0,6563.0,890.0,0.295,-0.242,-0.609,-0.695
824111,8778.0,6611.0,1274.0,0.311,-0.266,-0.599,-0.689
824128,9142.0,5891.0,1292.0,0.327,-0.291,-0.588,-0.681
824154,9142.0,5341.0,1500.0,0.344,-0.315,-0.577,-0.671
824170,10100.0,5517.0,914.0,0.362,-0.339,-0.565,-0.659
824186,9616.0,3835.0,1498.0,0.378,-0.361,-0.554,-0.648
824203,11188.0,4019.0,1322.0,0.391,-0.381,-0.544,-0.638
824220,10632.0,4759.0,1664.0,0.404,-0.4,-0.533,-0.626
824236,9940.0,4545.0,1836.0,0.418,-0.418,-0.522,-0.615
824253,10104.0,4509.0,1810.0,0.43,-0.437,-0.511,-0.603
824279,10184.0,4377.0,1880.0,0.44,-0.455,-0.5,-0.591
824296,10472.0,4069.0,1812.0,0.448,-0.473,-0.489,-0.58
824313,10466.0,2559.0,1638.0,0.454,-0.489,-0.479,-0.57
824329,10098.0,2853.0,1824.0,0.458,-0.502,-0.471,-0.562
824345,9300.0,2609.0,1992.0,0.463,-0.513,-0.465,-0.553
824362,8906.0,3043.0,2108.0,0.466,-0.522,-0.46,-0.546
824378,8662.0,2899.0,2020.0,0.469,-0.531,-0.455,-0.54
824395,8632.0,2651.0,1970.0,0.469,-0.539,-0.451,-0.535
824412,8592.0,2497.0,2078.0,0.468,-0.546,-0.447,-0.532
824428,8628.0,1935.0,2112.0,0.466,-0.552,-0.445,-0.53
