timeMs,ax,ay,az,q0,q1,q2,q3
1672695,5350.0,3520.0,5260.0,0.889,0.182,-0.4,-0.127
1672715,5348.0,3498.0,5260.0,0.889,0.182,-0.4,-0.128
1672733,5346.0,3478.0,5296.0,0.889,0.182,-0.4,-0.128
1672752,5372.0,3460.0,5240.0,0.889,0.182,-0.4,-0.128
1672772,5384.0,3460.0,5232.0,0.889,0.182,-0.4,-0.129
1672792,5408.0,3440.0,5230.0,0.889,0.181,-0.4,-0.129
1672811,5414.0,3418.0,5292.0,0.889,0.181,-0.4,-0.129
1672821,5422.0,3486.0,5228.0,0.889,0.181,-0.401,-0.13
1672841,5442.0,3472.0,5258.0,0.889,0.181,-0.401,-0.13
1672861,5392.0,3352.0,5204.0,0.889,0.181,-0.401,-0.13
1672880,5368.0,3372.0,5252.0,0.888,0.181,-0.401,-0.131
1672900,5434.0,3364.0,5254.0,0.888,0.18,-0.402,-0.131
1672910,5432.0,3334.0,5220.0,0.888,0.18,-0.402,-0.131
1672931,5402.0,3330.0,5152.0,0.888,0.18,-0.402,-0.131
1672952,5456.0,3296.0,5232.0,0.888,0.18,-0.402,-0.131
1672962,5428.0,3162.0,5142.0,0.888,0.18,-0.402,-0.132
1672983,5444.0,3246.0,5228.0,0.888,0.18,-0.402,-0.132
1673003,5496.0,3278.0,5218.0,0.888,0.18,-0.402,-0.132
1673022,5414.0,3288.0,5248.0,0.888,0.18,-0.402,-0.132
1673033,5464.0,3344.0,5190.0,0.888,0.181,-0.403,-0.131
1673052,5502.0,3436.0,5168.0,0.887,0.181,-0.403,-0.131
1673070,5534.0,3454.0,5138.0,0.887,0.182,-0.403,-0.131
1673090,5504.0,3334.0,5154.0,0.887,0.182,-0.403,-0.131
1673108,5452.0,3442.0,5172.0,0.887,0.183,-0.404,-0.131
1673118,5514.0,3486.0,5130.0,0.887,0.183,-0.404,-0.13
1673137,5472.0,3456.0,5124.0,0.887,0.184,-0.404,-0.13
1673157,5526.0,3498.0,5176.0,0.886,0.184,-0.404,-0.13
1673177,5540.0,3532.0,5178.0,0.886,0.184,-0.404,-0.13
1673198,5462.0,3468.0,5144.0,0.886,0.185,-0.404,-0.13
1673208,5444.0,3510.0,5096.0,0.886,0.185,-0.404,-0.13
1673226,5390.0,3620.0,5186.0,0.886,0.185,-0.404,-0.13
1673246,5392.0,3536.0,5164.0,0.886,0.185,-0.405,-0.129
1673267,5456.0,3404.0,5154.0,0.886,0.186,-0.405,-0.129
1673278,5396.0,3630.0,5152.0,0.886,0.186,-0.405,-0.129
1673298,5428.0,3648.0,5132.0,0.886,0.187,-0.405,-0.129
1673318,5446.0,3586.0,5146.0,0.886,0.187,-0.405,-0.128
1673328,5404.0,3620.0,5184.0,0.886,0.187,-0.405,-0.128
1673348,5340.0,3678.0,5104.0,0.886,0.188,-0.405,-0.128
1673367,5308.0,3656.0,5192.0,0.886,0.188,-0.404,-0.128
1673388,5352.0,3666.0,5160.0,0.886,0.188,-0.405,-0.128
1673399,5416.0,3682.0,5140.0,0.886,0.188,-0.405,-0.128
1673419,5462.0,3640.0,5088.0,0.886,0.188,-0.405,-0.129
1673439,5470.0,3630.0,5056.0,0.886,0.187,-0.405,-0.129
1673460,5508.0,3520.0,5146.0,0.886,0.187,-0.405,-0.129
1673469,5452.0,3490.0,5092.0,0.886,0.187,-0.405,-0.129
1673487,5486.0,3446.0,5068.0,0.886,0.186,-0.405,-0.129
1673507,5488.0,3440.0,5102.0,0.886,0.186,-0.405,-0.13
1673526,5478.0,3514.0,5132.0,0.886,0.186,-0.405,-0.13
1673544,5510.0,3420.0,5138.0,0.886,0.186,-0.405,-0.13
1673563,5468.0,3532.0,5080.0,0.886,0.186,-0.405,-0.129
1673572,5494.0,3494.0,5130.0,0.886,0.186,-0.405,-0.129
1673590,5482.0,3460.0,5144.0,0.886,0.186,-0.405,-0.129
1673609,5460.0,3474.0,5142.0,0.886,0.186,-0.405,-0.129
1673629,5472.0,3510.0,5080.0,0.886,0.186,-0.405,-0.129
1673648,5552.0,3546.0,5070.0,0.886,0.186,-0.405,-0.129
1673666,5622.0,3620.0,5060.0,0.886,0.186,-0.405,-0.129
1673683,5556.0,3518.0,5124.0,0.886,0.185,-0.404,-0.129
1673703,5458.0,3522.0,5184.0,0.886,0.185,-0.404,-0.129
1673713,5542.0,3674.0,5112.0,0.887,0.186,-0.404,-0.129
1673733,5718.0,3698.0,5300.0,0.887,0.186,-0.403,-0.129
1673753,5526.0,3590.0,5254.0,0.887,0.186,-0.402,-0.129
1673773,5474.0,3578.0,5114.0,0.887,0.186,-0.402,-0.129
1673784,5232.0,3418.0,5104.0,0.888,0.186,-0.401,-0.129
1673804,5170.0,3284.0,5120.0,0.888,0.185,-0.401,-0.129
1673824,5136.0,3244.0,5112.0,0.888,0.185,-0.401,-0.128
1673843,5348.0,3302.0,5208.0,0.888,0.185,-0.402,-0.128
1673851,5480.0,3410.0,5122.0,0.887,0.184,-0.403,-0.128
1673871,5590.0,3416.0,5218.0,0.887,0.184,-0.404,-0.128
1673891,5676.0,3466.0,5214.0,0.887,0.184,-0.404,-0.128
1673910,5618.0,3558.0,5174.0,0.887,0.183,-0.404,-0.129
1673930,5482.0,3444.0,5166.0,0.887,0.183,-0.404,-0.129
1673941,5276.0,3426.0,5212.0,0.887,0.183,-0.403,-0.129
1673961,5286.0,3542.0,5118.0,0.887,0.183,-0.403,-0.129
1673981,5344.0,3604.0,5082.0,0.888,0.183,-0.402,-0.129
1674000,5364.0,3456.0,5124.0,0.888,0.183,-0.402,-0.129
1674010,5328.0,3510.0,5230.0,0.888,0.184,-0.401,-0.129
1674029,5282.0,3646.0,5224.0,0.888,0.184,-0.401,-0.129
1674046,5282.0,3576.0,5284.0,0.888,0.184,-0.401,-0.129
1674064,5448.0,3694.0,5150.0,0.888,0.184,-0.4,-0.129
1674083,5630.0,3800.0,5028.0,0.889,0.184,-0.4,-0.129
1674101,5774.0,3802.0,5008.0,0.889,0.184,-0.399,-0.129
1674120,5686.0,3826.0,4966.0,0.89,0.183,-0.398,-0.129
1674141,5564.0,3612.0,4982.0,0.891,0.182,-0.396,-0.129
1674151,5468.0,3444.0,5086.0,0.892,0.181,-0.394,-0.129
1674169,5318.0,3410.0,5166.0,0.893,0.179,-0.393,-0.13
1674189,5182.0,3338.0,5364.0,0.894,0.178,-0.391,-0.13
1674210,5230.0,3294.0,5496.0,0.894,0.176,-0.39,-0.131
1674222,5152.0,3280.0,5640.0,0.895,0.175,-0.388,-0.131
1674244,5040.0,3162.0,5702.0,0.896,0.174,-0.388,-0.132
1674254,5048.0,2964.0,5718.0,0.896,0.173,-0.387,-0.132
1674275,5104.0,3022.0,5742.0,0.896,0.172,-0.388,-0.133
1674295,5112.0,3098.0,5740.0,0.896,0.172,-0.388,-0.133
1674317,5274.0,3040.0,5658.0,0.895,0.172,-0.389,-0.133
1674329,5270.0,3028.0,5432.0,0.895,0.173,-0.39,-0.132
1674349,5290.0,3046.0,5338.0,0.894,0.173,-0.392,-0.132
1674360,5022.0,2966.0,5234.0,0.893,0.174,-0.393,-0.131
1674382,5304.0,3126.0,5238.0,0.892,0.175,-0.396,-0.13
1674403,5472.0,3146.0,5044.0,0.891,0.177,-0.399,-0.129
1674417,5830.0,3466.0,5016.0,0.889,0.178,-0.401,-0.128
1674438,5832.0,4138.0,5042.0,0.888,0.18,-0.403,-0.128
1674449,5882.0,3930.0,4998.0,0.887,0.181,-0.404,-0.127
1674469,5622.0,3758.0,5118.0,0.887,0.182,-0.405,-0.128
1674489,5386.0,3788.0,5200.0,0.887,0.183,-0.405,-0.128
1674496,5196.0,3586.0,5248.0,0.887,0.183,-0.405,-0.129
1674512,5152.0,3590.0,5196.0,0.886,0.183,-0.405,-0.129
1674529,5194.0,3634.0,5048.0,0.886,0.183,-0.406,-0.129
1674546,5334.0,3672.0,5026.0,0.886,0.183,-0.407,-0.129
1674566,5432.0,3698.0,5010.0,0.885,0.183,-0.407,-0.13
1674583,5500.0,3754.0,4976.0,0.885,0.183,-0.408,-0.13
1674600,5476.0,3656.0,4962.0,0.885,0.182,-0.409,-0.131
1674617,5486.0,3530.0,4944.0,0.885,0.181,-0.409,-0.131
1674637,5474.0,3352.0,5022.0,0.884,0.181,-0.41,-0.132
1674658,5552.0,3504.0,4976.0,0.884,0.18,-0.411,-0.132
1674678,5568.0,3408.0,4766.0,0.884,0.18,-0.412,-0.132
1674697,5798.0,3546.0,4940.0,0.883,0.179,-0.412,-0.133
1674717,5780.0,3462.0,4952.0,0.883,0.179,-0.413,-0.133
1674728,5734.0,3418.0,4902.0,0.883,0.178,-0.413,-0.134
1674749,5692.0,3316.0,5038.0,0.883,0.177,-0.413,-0.135
1674769,5564.0,3398.0,5092.0,0.883,0.177,-0.413,-0.135
1674778,5580.0,3314.0,5198.0,0.883,0.176,-0.412,-0.136
1674798,5624.0,3222.0,5266.0,0.884,0.176,-0.412,-0.136
1674817,5546.0,3274.0,5242.0,0.884,0.176,-0.412,-0.136
1674838,5576.0,3206.0,5198.0,0.884,0.176,-0.412,-0.136
1674859,5608.0,3256.0,5160.0,0.884,0.176,-0.411,-0.136
1674870,5532.0,3254.0,5146.0,0.884,0.176,-0.411,-0.136
1674891,5586.0,3190.0,5166.0,0.884,0.176,-0.411,-0.136
1674902,5604.0,3296.0,5122.0,0.884,0.176,-0.411,-0.135
1674923,5630.0,3294.0,5222.0,0.884,0.176,-0.411,-0.134
1674943,5772.0,3386.0,5188.0,0.884,0.177,-0.412,-0.134
1674955,5740.0,3504.0,4990.0,0.884,0.178,-0.412,-0.133
1674975,5656.0,3346.0,4758.0,0.883,0.179,-0.413,-0.132
1674994,5516.0,3268.0,4738.0,0.883,0.18,-0.414,-0.132
1675013,5692.0,3306.0,4644.0,0.882,0.181,-0.415,-0.131
1675022,5930.0,3452.0,4598.0,0.881,0.182,-0.416,-0.13
1675042,6104.0,3756.0,4694.0,0.881,0.182,-0.417,-0.129
1675061,5900.0,3942.0,4854.0,0.881,0.182,-0.417,-0.129
1675080,5716.0,3976.0,4952.0,0.882,0.182,-0.416,-0.129
1675101,5488.0,3798.0,4984.0,0.882,0.183,-0.415,-0.13
1675110,5322.0,3626.0,5092.0,0.883,0.183,-0.413,-0.13
1675129,5214.0,3528.0,5144.0,0.883,0.183,-0.412,-0.131
1675150,5200.0,3516.0,5146.0,0.883,0.182,-0.411,-0.131
1675169,5256.0,3548.0,5158.0,0.884,0.182,-0.411,-0.132
1675189,5278.0,3638.0,5162.0,0.884,0.181,-0.411,-0.132
1675200,5302.0,3496.0,5190.0,0.884,0.181,-0.411,-0.133
1675217,5358.0,3612.0,5098.0,0.884,0.18,-0.411,-0.133
1675235,5324.0,3540.0,5034.0,0.884,0.18,-0.411,-0.134
1675252,5404.0,3408.0,5032.0,0.884,0.179,-0.411,-0.134
1675270,5456.0,3346.0,5038.0,0.883,0.179,-0.412,-0.134
1675287,5506.0,3432.0,4950.0,0.883,0.179,-0.413,-0.134
1675305,5544.0,3514.0,4906.0,0.882,0.179,-0.414,-0.135
1675324,5676.0,3434.0,4940.0,0.882,0.179,-0.414,-0.135
1675341,5766.0,3554.0,4840.0,0.881,0.179,-0.416,-0.135
1675362,5926.0,3530.0,4868.0,0.881,0.18,-0.416,-0.135
1675381,5860.0,3496.0,4886.0,0.881,0.179,-0.417,-0.136
1675393,5724.0,3484.0,4904.0,0.881,0.179,-0.417,-0.136
1675414,5656.0,3444.0,5076.0,0.881,0.179,-0.417,-0.137
1675434,5662.0,3456.0,5042.0,0.881,0.179,-0.417,-0.137
1675443,5598.0,3460.0,5074.0,0.881,0.179,-0.416,-0.137
1675464,5626.0,3448.0,5052.0,0.881,0.179,-0.416,-0.137
1675484,5656.0,3446.0,4998.0,0.881,0.179,-0.416,-0.137
1675503,5738.0,3374.0,5006.0,0.881,0.179,-0.416,-0.137
1675510,5728.0,3416.0,4952.0,0.881,0.179,-0.416,-0.137
1675527,5720.0,3492.0,4998.0,0.881,0.179,-0.416,-0.136
1675546,5754.0,3414.0,4960.0,0.881,0.179,-0.415,-0.136
1675567,5714.0,3398.0,4912.0,0.881,0.18,-0.415,-0.135
1675587,5774.0,3502.0,4890.0,0.882,0.18,-0.415,-0.135
1675608,5760.0,3520.0,4920.0,0.882,0.181,-0.415,-0.134
1675617,5586.0,3456.0,4812.0,0.882,0.181,-0.414,-0.134
1675634,5650.0,3604.0,4810.0,0.882,0.182,-0.415,-0.133
1675655,5540.0,3460.0,4740.0,0.881,0.183,-0.415,-0.133
1675673,5794.0,3752.0,4856.0,0.881,0.183,-0.416,-0.132
1675691,5838.0,3882.0,4970.0,0.881,0.183,-0.416,-0.132
1675711,5636.0,3818.0,5058.0,0.881,0.182,-0.415,-0.132
1675729,5534.0,3786.0,5132.0,0.881,0.182,-0.415,-0.133
1675751,5328.0,3582.0,5224.0,0.882,0.181,-0.414,-0.134
1675763,5138.0,3422.0,5260.0,0.882,0.181,-0.414,-0.134
1675783,5122.0,3386.0,5182.0,0.882,0.181,-0.414,-0.134
1675795,5192.0,3476.0,5118.0,0.882,0.181,-0.414,-0.134
1675817,5318.0,3420.0,5020.0,0.882,0.18,-0.414,-0.134
1675827,5448.0,3464.0,5090.0,0.882,0.18,-0.415,-0.134
1675848,5544.0,3688.0,4996.0,0.882,0.181,-0.415,-0.134
1675868,5596.0,3726.0,4912.0,0.881,0.181,-0.416,-0.134
1675887,5688.0,3600.0,4774.0,0.881,0.181,-0.416,-0.134
1675897,5772.0,3614.0,4706.0,0.881,0.182,-0.417,-0.134
1675918,5786.0,3598.0,4632.0,0.88,0.182,-0.417,-0.134
1675935,5818.0,3546.0,4610.0,0.88,0.182,-0.418,-0.134
1675956,5794.0,3542.0,4674.0,0.88,0.181,-0.418,-0.135
1675973,5804.0,3522.0,4696.0,0.88,0.181,-0.419,-0.135
1675992,5820.0,3472.0,4730.0,0.879,0.18,-0.419,-0.136
1676002,5870.0,3486.0,4804.0,0.879,0.179,-0.42,-0.137
1676020,5770.0,3366.0,4860.0,0.879,0.179,-0.42,-0.138
1676040,5650.0,3358.0,4952.0,0.879,0.178,-0.42,-0.139
1676063,5580.0,3348.0,5130.0,0.879,0.178,-0.42,-0.139
1676074,5534.0,3466.0,5132.0,0.879,0.178,-0.42,-0.14
1676095,5594.0,3422.0,5228.0,0.879,0.178,-0.42,-0.14
1676115,5524.0,3282.0,5200.0,0.879,0.178,-0.42,-0.14
1676126,5642.0,3400.0,5218.0,0.879,0.178,-0.42,-0.14
1676143,5536.0,3360.0,5170.0,0.879,0.178,-0.42,-0.14
1676160,5566.0,3344.0,5112.0,0.879,0.178,-0.42,-0.139
1676178,5560.0,3332.0,5000.0,0.879,0.179,-0.42,-0.138
1676199,5658.0,3416.0,4952.0,0.879,0.18,-0.42,-0.137
1676219,5644.0,3484.0,4818.0,0.879,0.18,-0.42,-0.136
1676231,5620.0,3452.0,4870.0,0.879,0.181,-0.419,-0.134
1676250,5740.0,3668.0,4922.0,0.879,0.183,-0.419,-0.133
1676271,5796.0,3676.0,4836.0,0.879,0.184,-0.419,-0.132
1676281,5768.0,3692.0,4608.0,0.879,0.186,-0.42,-0.13
1676299,5618.0,3648.0,4360.0,0.878,0.187,-0.421,-0.129
1676320,5648.0,3644.0,4358.0,0.877,0.188,-0.422,-0.128
1676341,5846.0,3512.0,4300.0,0.877,0.189,-0.424,-0.128
1676352,6098.0,3626.0,4336.0,0.876,0.189,-0.425,-0.127
1676371,6182.0,3984.0,4430.0,0.875,0.189,-0.426,-0.127
1676389,6116.0,4052.0,4636.0,0.876,0.189,-0.426,-0.128
1676410,5978.0,4040.0,4730.0,0.876,0.188,-0.426,-0.129
1676430,5782.0,3730.0,4794.0,0.876,0.187,-0.424,-0.13
1676443,5612.0,3676.0,4912.0,0.877,0.186,-0.423,-0.131
1676463,5448.0,3506.0,5016.0,0.878,0.185,-0.422,-0.132
1676481,5336.0,3522.0,5026.0,0.879,0.183,-0.42,-0.133
1676491,5336.0,3512.0,5010.0,0.879,0.182,-0.419,-0.134
1676511,5310.0,3436.0,5146.0,0.88,0.181,-0.418,-0.135
1676530,5348.0,3486.0,5202.0,0.881,0.18,-0.417,-0.135
1676550,5342.0,3412.0,5172.0,0.881,0.179,-0.417,-0.136
1676570,5332.0,3344.0,5120.0,0.881,0.178,-0.416,-0.136
1676582,5372.0,3236.0,5078.0,0.881,0.178,-0.416,-0.136
1676603,5398.0,3362.0,5018.0,0.881,0.178,-0.417,-0.136
1676624,5516.0,3336.0,4930.0,0.881,0.178,-0.418,-0.136
1676632,5656.0,3440.0,4832.0,0.88,0.178,-0.419,-0.136
1676650,5870.0,3546.0,4838.0,0.879,0.179,-0.42,-0.136
1676670,5898.0,3486.0,4818.0,0.879,0.179,-0.421,-0.136
1676690,5774.0,3398.0,4846.0,0.879,0.179,-0.421,-0.136
1676709,5802.0,3482.0,4812.0,0.878,0.179,-0.422,-0.136
1676719,5794.0,3496.0,4848.0,0.878,0.179,-0.422,-0.136
1676739,5756.0,3422.0,4844.0,0.878,0.178,-0.422,-0.136
1676759,5864.0,3454.0,4918.0,0.878,0.178,-0.423,-0.136
1676779,5862.0,3400.0,4858.0,0.878,0.178,-0.423,-0.136
1676787,5860.0,3460.0,4872.0,0.878,0.178,-0.423,-0.136
1676804,5884.0,3442.0,4854.0,0.878,0.178,-0.423,-0.136
1676820,5744.0,3394.0,4810.0,0.878,0.178,-0.423,-0.135
1676840,5818.0,3400.0,4754.0,0.878,0.178,-0.422,-0.135
1676859,5746.0,3410.0,4744.0,0.879,0.178,-0.422,-0.134
1676879,5708.0,3442.0,4864.0,0.879,0.178,-0.422,-0.134
1676900,5786.0,3448.0,4824.0,0.879,0.179,-0.422,-0.134
1676919,5858.0,3560.0,4906.0,0.879,0.179,-0.421,-0.133
1676929,5706.0,3552.0,4884.0,0.879,0.18,-0.421,-0.133
1676949,5580.0,3484.0,4866.0,0.879,0.181,-0.421,-0.133
1676969,5596.0,3408.0,4600.0,0.878,0.181,-0.422,-0.132
1676989,5892.0,3534.0,4560.0,0.878,0.182,-0.423,-0.132
1676999,6068.0,3814.0,4574.0,0.878,0.182,-0.423,-0.132
1677019,5870.0,3774.0,4708.0,0.878,0.182,-0.423,-0.132
1677039,5712.0,3820.0,4866.0,0.878,0.182,-0.422,-0.132
1677058,5532.0,3628.0,4958.0,0.879,0.181,-0.421,-0.133
1677070,5336.0,3450.0,5024.0,0.879,0.181,-0.42,-0.133
1677091,5350.0,3460.0,5036.0,0.879,0.181,-0.42,-0.134
1677113,5352.0,3474.0,5026.0,0.88,0.181,-0.419,-0.134
1677123,5438.0,3492.0,5038.0,0.88,0.18,-0.419,-0.134
1677143,5466.0,3620.0,5040.0,0.88,0.18,-0.419,-0.134
1677163,5444.0,3502.0,5056.0,0.88,0.18,-0.419,-0.135
1677173,5506.0,3552.0,4964.0,0.879,0.18,-0.42,-0.135
1677191,5504.0,3548.0,4822.0,0.879,0.18,-0.42,-0.135
1677212,5598.0,3516.0,4816.0,0.879,0.18,-0.421,-0.135
1677232,5678.0,3536.0,4768.0,0.878,0.18,-0.422,-0.136
1677253,5694.0,3564.0,4726.0,0.878,0.181,-0.422,-0.136
1677265,5724.0,3590.0,4730.0,0.877,0.181,-0.423,-0.136
1677286,5746.0,3614.0,4676.0,0.876,0.182,-0.425,-0.137
1677296,5878.0,3760.0,4680.0,0.876,0.182,-0.426,-0.137
1677317,6002.0,3738.0,4692.0,0.875,0.182,-0.427,-0.138
1677337,5884.0,3734.0,4680.0,0.875,0.182,-0.427,-0.139
1677344,5856.0,3460.0,4746.0,0.875,0.181,-0.427,-0.14
1677363,5820.0,3434.0,4802.0,0.875,0.18,-0.427,-0.14
1677382,5780.0,3356.0,4756.0,0.875,0.179,-0.427,-0.141
1677399,5900.0,3398.0,4856.0,0.875,0.179,-0.427,-0.141
1677417,5926.0,3394.0,4804.0,0.875,0.178,-0.427,-0.142
1677436,5984.0,3350.0,4768.0,0.875,0.177,-0.427,-0.142
1677455,5944.0,3288.0,4780.0,0.876,0.177,-0.427,-0.142
1677475,5856.0,3340.0,4696.0,0.876,0.177,-0.426,-0.141
1677495,5880.0,3310.0,4712.0,0.876,0.177,-0.425,-0.141
1677507,5814.0,3328.0,4760.0,0.876,0.178,-0.425,-0.14
1677525,5816.0,3478.0,4748.0,0.877,0.179,-0.424,-0.139
1677543,5822.0,3540.0,4830.0,0.877,0.18,-0.423,-0.139
1677563,5828.0,3648.0,4822.0,0.878,0.181,-0.422,-0.138
1677583,5750.0,3728.0,4866.0,0.878,0.182,-0.421,-0.137
1677591,5632.0,3700.0,4806.0,0.879,0.183,-0.42,-0.136
1677607,5560.0,3852.0,4830.0,0.879,0.184,-0.419,-0.136
1677624,5624.0,3584.0,4740.0,0.879,0.184,-0.418,-0.135
1677641,5670.0,3528.0,4678.0,0.879,0.185,-0.418,-0.135
1677658,5718.0,3838.0,4700.0,0.879,0.185,-0.417,-0.135
1677676,5530.0,3876.0,4796.0,0.88,0.184,-0.417,-0.135
1677692,5470.0,3876.0,4896.0,0.88,0.184,-0.416,-0.135
1677708,5408.0,3824.0,4884.0,0.881,0.184,-0.415,-0.136
1677725,5354.0,3618.0,4984.0,0.881,0.183,-0.415,-0.136
1677742,5320.0,3528.0,5048.0,0.881,0.183,-0.414,-0.137
1677759,5372.0,3506.0,5008.0,0.881,0.182,-0.414,-0.137
1677777,5456.0,3498.0,5040.0,0.881,0.181,-0.414,-0.137
1677794,5454.0,3574.0,5106.0,0.882,0.18,-0.414,-0.138
1677812,5398.0,3460.0,5042.0,0.882,0.179,-0.414,-0.138
1677829,5504.0,3552.0,4998.0,0.882,0.179,-0.414,-0.139
1677846,5458.0,3530.0,5056.0,0.882,0.178,-0.414,-0.139
1677864,5496.0,3432.0,5002.0,0.881,0.178,-0.415,-0.14
1677882,5540.0,3478.0,4936.0,0.881,0.178,-0.415,-0.14
1677900,5572.0,3426.0,4936.0,0.881,0.178,-0.416,-0.141
1677918,5608.0,3538.0,4898.0,0.88,0.179,-0.417,-0.141
1677936,5656.0,3508.0,4826.0,0.88,0.179,-0.418,-0.141
1677954,5742.0,3676.0,4742.0,0.879,0.179,-0.418,-0.142
1677971,5784.0,3586.0,4782.0,0.879,0.179,-0.419,-0.142
1677988,5782.0,3570.0,4882.0,0.879,0.179,-0.419,-0.142
1678006,5654.0,3544.0,4916.0,0.879,0.178,-0.419,-0.142
1678023,5636.0,3474.0,4918.0,0.879,0.178,-0.42,-0.143
1678041,5746.0,3480.0,4962.0,0.879,0.177,-0.42,-0.143
1678059,5800.0,3426.0,4936.0,0.879,0.177,-0.42,-0.143
1678076,5794.0,3374.0,4918.0,0.879,0.176,-0.42,-0.142
1678093,5780.0,3398.0,4836.0,0.879,0.176,-0.42,-0.142
1678110,5778.0,3324.0,4844.0,0.879,0.176,-0.42,-0.142
1678128,5734.0,3260.0,4884.0,0.879,0.176,-0.42,-0.142
1678146,5748.0,3280.0,4858.0,0.879,0.176,-0.419,-0.141
1678164,5788.0,3338.0,4894.0,0.88,0.176,-0.419,-0.141
1678181,5820.0,3414.0,4938.0,0.88,0.176,-0.419,-0.14
1678199,5778.0,3438.0,4874.0,0.88,0.177,-0.419,-0.14
1678216,5766.0,3548.0,4874.0,0.88,0.178,-0.419,-0.139
1678233,5742.0,3600.0,4810.0,0.879,0.178,-0.419,-0.139
1678250,5568.0,3582.0,4786.0,0.879,0.179,-0.419,-0.138
1678267,5492.0,3688.0,4968.0,0.879,0.18,-0.42,-0.137
1678284,5650.0,3562.0,4794.0,0.879,0.181,-0.42,-0.137
1678301,5924.0,3880.0,4748.0,0.878,0.182,-0.421,-0.136
1678318,5878.0,4010.0,4732.0,0.878,0.182,-0.421,-0.136
1678335,5746.0,3944.0,4780.0,0.878,0.182,-0.421,-0.136
1678352,5532.0,3870.0,4832.0,0.878,0.182,-0.421,-0.137
1678369,5372.0,3694.0,4868.0,0.879,0.182,-0.42,-0.137
1678386,5298.0,3562.0,4926.0,0.879,0.181,-0.419,-0.138
1678413,5498.0,3662.0,4964.0,0.879,0.18,-0.419,-0.139
1678431,5634.0,3728.0,4856.0,0.879,0.179,-0.419,-0.139
1678448,5778.0,3692.0,4864.0,0.88,0.177,-0.418,-0.14
1678466,5774.0,3580.0,4890.0,0.881,0.175,-0.417,-0.141
1678484,5634.0,3524.0,4946.0,0.881,0.173,-0.416,-0.142
1678502,5602.0,3396.0,4926.0,0.882,0.171,-0.415,-0.143
1678520,5584.0,3276.0,4918.0,0.883,0.17,-0.414,-0.144
1678537,5592.0,3236.0,4906.0,0.883,0.169,-0.413,-0.145
1678554,5670.0,3208.0,4978.0,0.884,0.168,-0.412,-0.145
1678572,5676.0,3108.0,4998.0,0.884,0.168,-0.412,-0.146
1678589,5622.0,3250.0,4956.0,0.884,0.168,-0.411,-0.146
1678607,5714.0,3406.0,4940.0,0.884,0.168,-0.411,-0.146
1678624,5710.0,3446.0,4966.0,0.884,0.168,-0.411,-0.146
1678641,5686.0,3284.0,5046.0,0.884,0.168,-0.411,-0.146
1678658,5610.0,3300.0,5120.0,0.884,0.168,-0.41,-0.147
1678675,5474.0,3226.0,5244.0,0.884,0.168,-0.41,-0.147
1678691,5446.0,3272.0,5208.0,0.884,0.167,-0.41,-0.147
1678708,5440.0,3312.0,5212.0,0.884,0.167,-0.41,-0.147
1678726,5398.0,3260.0,5240.0,0.884,0.167,-0.41,-0.147
1678743,5420.0,3334.0,5210.0,0.884,0.167,-0.41,-0.147
1678760,5508.0,3444.0,5198.0,0.884,0.167,-0.411,-0.147
1678777,5568.0,3434.0,5186.0,0.884,0.168,-0.411,-0.147
1678794,5528.0,3378.0,5116.0,0.884,0.168,-0.411,-0.146
1678811,5546.0,3422.0,5084.0,0.884,0.169,-0.411,-0.145
1678828,5550.0,3434.0,5064.0,0.884,0.169,-0.411,-0.145
1678846,5552.0,3586.0,5030.0,0.884,0.17,-0.41,-0.144
1678863,5596.0,3530.0,4944.0,0.884,0.17,-0.41,-0.143
1678881,5566.0,3502.0,4944.0,0.884,0.171,-0.41,-0.142
1678899,5622.0,3600.0,4984.0,0.884,0.172,-0.411,-0.142
1678917,5646.0,3608.0,4922.0,0.884,0.172,-0.411,-0.141
1678935,5580.0,3478.0,4908.0,0.884,0.173,-0.411,-0.141
1678952,5672.0,3654.0,4952.0,0.884,0.174,-0.411,-0.14
1678969,5846.0,3616.0,4784.0,0.883,0.175,-0.412,-0.14
1678987,5948.0,3720.0,4696.0,0.883,0.175,-0.412,-0.14
1679005,5766.0,3852.0,4714.0,0.883,0.175,-0.412,-0.141
1679023,5544.0,3698.0,4906.0,0.884,0.174,-0.411,-0.141
1679041,5426.0,3558.0,4958.0,0.884,0.174,-0.41,-0.142
1679059,5338.0,3414.0,5102.0,0.884,0.173,-0.409,-0.143
1679077,5382.0,3342.0,5182.0,0.885,0.172,-0.409,-0.144
1679095,5464.0,3382.0,5202.0,0.885,0.172,-0.409,-0.144
1679113,5490.0,3420.0,5236.0,0.885,0.172,-0.408,-0.145
1679133,5488.0,3508.0,5248.0,0.885,0.171,-0.408,-0.146
1679151,5402.0,3458.0,5174.0,0.885,0.171,-0.408,-0.146
1679169,5352.0,3364.0,5140.0,0.885,0.17,-0.407,-0.147
1679187,5378.0,3310.0,5130.0,0.885,0.17,-0.408,-0.147
1679205,5432.0,3328.0,5092.0,0.885,0.17,-0.408,-0.147
1679223,5484.0,3306.0,5080.0,0.885,0.17,-0.408,-0.147
1679241,5568.0,3336.0,5050.0,0.884,0.171,-0.409,-0.148
1679259,5576.0,3404.0,5006.0,0.884,0.171,-0.409,-0.148
1679276,5566.0,3434.0,4932.0,0.884,0.171,-0.41,-0.148
1679294,5574.0,3410.0,4940.0,0.884,0.171,-0.41,-0.148
1679313,5586.0,3428.0,4912.0,0.883,0.171,-0.41,-0.148
1679321,5662.0,3458.0,5014.0,0.883,0.171,-0.411,-0.148
1679339,5710.0,3598.0,4978.0,0.883,0.171,-0.411,-0.149
1679357,5702.0,3502.0,4968.0,0.883,0.171,-0.411,-0.149
1679375,5578.0,3460.0,5050.0,0.883,0.17,-0.411,-0.149
1679393,5570.0,3454.0,5138.0,0.883,0.17,-0.411,-0.149
1679411,5588.0,3424.0,5102.0,0.883,0.17,-0.411,-0.149
1679430,5608.0,3534.0,5074.0,0.883,0.17,-0.411,-0.149
1679448,5544.0,3494.0,5098.0,0.883,0.171,-0.411,-0.149
1679466,5542.0,3506.0,5124.0,0.883,0.171,-0.411,-0.149
1679484,5496.0,3470.0,5074.0,0.883,0.171,-0.41,-0.148
1679502,5526.0,3440.0,5056.0,0.883,0.171,-0.41,-0.148
1679520,5484.0,3464.0,5070.0,0.884,0.172,-0.41,-0.148
1679538,5456.0,3492.0,5070.0,0.884,0.172,-0.41,-0.147
1679556,5576.0,3462.0,5024.0,0.884,0.172,-0.41,-0.147
1679574,5576.0,3546.0,5042.0,0.884,0.172,-0.41,-0.147
1679582,5628.0,3536.0,4976.0,0.884,0.172,-0.41,-0.146
1679600,5504.0,3504.0,4918.0,0.884,0.172,-0.41,-0.146
1679618,5518.0,3532.0,4982.0,0.884,0.173,-0.41,-0.146
1679636,5662.0,3474.0,4814.0,0.883,0.173,-0.411,-0.145
1679653,5950.0,3682.0,4904.0,0.883,0.173,-0.412,-0.145
1679671,5976.0,3830.0,4942.0,0.883,0.173,-0.412,-0.145
1679688,5688.0,3778.0,4978.0,0.883,0.173,-0.411,-0.146
1679705,5378.0,3670.0,4964.0,0.883,0.173,-0.41,-0.146
1679722,5244.0,3432.0,5038.0,0.883,0.173,-0.41,-0.147
1679740,5242.0,3348.0,5090.0,0.883,0.173,-0.41,-0.147
1679759,5360.0,3380.0,5012.0,0.883,0.173,-0.41,-0.147
1679781,5564.0,3568.0,5040.0,0.883,0.173,-0.411,-0.147
1679800,5650.0,3646.0,5128.0,0.883,0.172,-0.411,-0.147
1679819,5578.0,3594.0,5148.0,0.883,0.171,-0.411,-0.148
1679828,5478.0,3668.0,5144.0,0.883,0.171,-0.411,-0.148
1679846,5390.0,3510.0,5094.0,0.883,0.17,-0.411,-0.149
1679864,5356.0,3396.0,5098.0,0.883,0.17,-0.411,-0.149
1679883,5454.0,3478.0,5104.0,0.883,0.17,-0.412,-0.149
1679901,5548.0,3470.0,5036.0,0.883,0.169,-0.412,-0.15
1679919,5626.0,3496.0,4964.0,0.882,0.169,-0.413,-0.15
1679937,5656.0,3544.0,4906.0,0.882,0.169,-0.414,-0.15
1679954,5628.0,3446.0,4876.0,0.881,0.169,-0.415,-0.151
1679972,5586.0,3394.0,4856.0,0.881,0.169,-0.416,-0.151
1679990,5576.0,3420.0,4820.0,0.88,0.168,-0.417,-0.151
1680008,5710.0,3436.0,4788.0,0.88,0.168,-0.418,-0.151
1680027,5856.0,3488.0,4860.0,0.88,0.167,-0.418,-0.152
1680045,5922.0,3416.0,4908.0,0.88,0.167,-0.419,-0.152
1680062,5806.0,3388.0,5014.0,0.88,0.166,-0.419,-0.152
1680080,5722.0,3314.0,5092.0,0.88,0.165,-0.418,-0.152
1680099,5638.0,3272.0,5136.0,0.88,0.164,-0.418,-0.152
1680108,5566.0,3234.0,5110.0,0.88,0.164,-0.418,-0.152
1680126,5602.0,3246.0,5062.0,0.88,0.165,-0.418,-0.152
1680145,5646.0,3304.0,5026.0,0.88,0.165,-0.418,-0.152
1680163,5706.0,3330.0,5028.0,0.88,0.166,-0.418,-0.151
1680182,5746.0,3414.0,5004.0,0.88,0.167,-0.418,-0.15
1680201,5678.0,3470.0,4920.0,0.88,0.168,-0.418,-0.15
1680219,5708.0,3486.0,4870.0,0.88,0.168,-0.418,-0.149
1680236,5714.0,3532.0,4858.0,0.88,0.169,-0.418,-0.148
1680253,5704.0,3670.0,4870.0,0.88,0.17,-0.418,-0.148
1680271,5608.0,3546.0,4764.0,0.88,0.17,-0.418,-0.147
1680288,5626.0,3498.0,4884.0,0.88,0.171,-0.419,-0.146
1680307,5806.0,3530.0,4682.0,0.879,0.171,-0.419,-0.146
1680326,6206.0,3634.0,4676.0,0.879,0.171,-0.42,-0.145
1680335,6148.0,3774.0,4766.0,0.88,0.171,-0.42,-0.146
1680353,5816.0,3816.0,4926.0,0.88,0.17,-0.418,-0.146
1680371,5486.0,3660.0,5042.0,0.881,0.17,-0.417,-0.147
1680389,5238.0,3466.0,5136.0,0.881,0.169,-0.416,-0.148
1680406,5226.0,3352.0,5172.0,0.881,0.169,-0.415,-0.149
1680424,5282.0,3410.0,5100.0,0.881,0.17,-0.415,-0.149
1680443,5406.0,3456.0,5020.0,0.881,0.17,-0.416,-0.149
1680461,5488.0,3406.0,5000.0,0.881,0.17,-0.416,-0.149
1680480,5508.0,3486.0,4974.0,0.881,0.17,-0.416,-0.149
1680498,5554.0,3518.0,4996.0,0.881,0.169,-0.417,-0.149
1680516,5556.0,3530.0,4994.0,0.881,0.169,-0.417,-0.149
1680534,5592.0,3698.0,4928.0,0.88,0.17,-0.417,-0.149
1680552,5646.0,3550.0,4874.0,0.88,0.17,-0.418,-0.149
1680570,5642.0,3474.0,4832.0,0.879,0.17,-0.419,-0.15
1680587,5660.0,3472.0,4842.0,0.879,0.17,-0.419,-0.15
1680605,5648.0,3596.0,4844.0,0.879,0.17,-0.42,-0.151
1680614,5666.0,3544.0,4814.0,0.879,0.169,-0.42,-0.151
1680633,5606.0,3518.0,4844.0,0.879,0.169,-0.42,-0.152
1680651,5602.0,3518.0,4904.0,0.879,0.168,-0.42,-0.152
1680669,5564.0,3450.0,4850.0,0.878,0.168,-0.421,-0.152
1680686,5610.0,3336.0,4836.0,0.878,0.168,-0.421,-0.153
1680703,5638.0,3480.0,4894.0,0.878,0.168,-0.422,-0.153
1680721,5752.0,3512.0,4908.0,0.877,0.168,-0.423,-0.153
1680739,5746.0,3512.0,4944.0,0.877,0.168,-0.423,-0.154
1680757,5756.0,3476.0,4940.0,0.876,0.169,-0.424,-0.154
1680775,5754.0,3494.0,4890.0,0.876,0.169,-0.425,-0.155
1680793,5874.0,3462.0,4928.0,0.875,0.168,-0.425,-0.156
1680812,5880.0,3460.0,4944.0,0.875,0.168,-0.425,-0.157
1680832,5842.0,3340.0,4918.0,0.875,0.167,-0.426,-0.158
1680850,5824.0,3318.0,4922.0,0.875,0.166,-0.426,-0.158
1680858,5838.0,3244.0,4978.0,0.875,0.165,-0.426,-0.159
1680877,5860.0,3232.0,4862.0,0.876,0.165,-0.426,-0.159
1680896,5866.0,3264.0,4876.0,0.876,0.164,-0.425,-0.159
1680915,5860.0,3226.0,4882.0,0.876,0.165,-0.425,-0.158
1680933,5886.0,3318.0,4874.0,0.876,0.165,-0.425,-0.158
1680952,5878.0,3336.0,4864.0,0.877,0.166,-0.424,-0.156
1680968,5892.0,3396.0,4752.0,0.877,0.167,-0.423,-0.155
1680985,5792.0,3310.0,4682.0,0.877,0.168,-0.423,-0.153
1681003,5622.0,3252.0,4586.0,0.877,0.17,-0.422,-0.151
1681021,5796.0,3490.0,4536.0,0.877,0.171,-0.422,-0.15
1681039,5930.0,3616.0,4530.0,0.877,0.173,-0.423,-0.148
1681059,6010.0,3834.0,4584.0,0.877,0.175,-0.422,-0.146
1681078,5940.0,4006.0,4624.0,0.877,0.176,-0.422,-0.146
1681088,5800.0,4216.0,4676.0,0.877,0.178,-0.421,-0.145
1681106,5582.0,4002.0,4706.0,0.878,0.179,-0.42,-0.146
1681123,5410.0,3888.0,4912.0,0.878,0.18,-0.419,-0.146
1681142,5270.0,3846.0,5000.0,0.878,0.181,-0.418,-0.147
1681160,5156.0,3826.0,5042.0,0.878,0.181,-0.417,-0.148
1681179,5108.0,3966.0,5126.0,0.879,0.182,-0.416,-0.149
1681198,5230.0,4102.0,5068.0,0.879,0.182,-0.415,-0.15
1681217,5196.0,4170.0,5166.0,0.879,0.182,-0.415,-0.151
1681226,5184.0,4058.0,5120.0,0.879,0.182,-0.414,-0.153
1681244,5134.0,3938.0,5032.0,0.879,0.181,-0.414,-0.154
1681263,5108.0,3758.0,5070.0,0.879,0.18,-0.413,-0.156
1681282,5160.0,3606.0,4990.0,0.879,0.179,-0.413,-0.157
1681301,5294.0,3488.0,4954.0,0.879,0.177,-0.413,-0.158
1681319,5354.0,3424.0,4896.0,0.88,0.175,-0.413,-0.159
1681336,5320.0,3342.0,4920.0,0.88,0.173,-0.413,-0.159
1681353,5334.0,3294.0,4946.0,0.88,0.172,-0.414,-0.16
1681370,5510.0,3376.0,4940.0,0.879,0.171,-0.416,-0.16
1681388,5724.0,3432.0,4858.0,0.878,0.17,-0.418,-0.161
1681408,5834.0,3428.0,4890.0,0.877,0.169,-0.419,-0.161
1681426,6012.0,3254.0,4916.0,0.876,0.168,-0.421,-0.162
1681445,5906.0,3160.0,4944.0,0.876,0.167,-0.423,-0.163
1681454,5968.0,3092.0,4982.0,0.875,0.167,-0.424,-0.164
1681472,5960.0,3182.0,4896.0,0.874,0.166,-0.426,-0.165
1681490,6032.0,3240.0,4844.0,0.873,0.166,-0.427,-0.165
1681508,6078.0,3242.0,4738.0,0.873,0.166,-0.428,-0.165
1681531,6096.0,3364.0,4692.0,0.872,0.167,-0.429,-0.165
1681550,6214.0,3316.0,4490.0,0.872,0.167,-0.429,-0.165
1681559,6232.0,3268.0,4558.0,0.872,0.168,-0.429,-0.165
1681578,6196.0,3312.0,4618.0,0.872,0.169,-0.428,-0.164
1681596,6092.0,3298.0,4632.0,0.873,0.17,-0.427,-0.163
1681616,6036.0,3400.0,4650.0,0.874,0.171,-0.426,-0.161
1681634,5744.0,3566.0,4514.0,0.874,0.173,-0.425,-0.159
1681652,5678.0,3578.0,4714.0,0.875,0.174,-0.424,-0.157
1681670,5832.0,3624.0,4502.0,0.875,0.176,-0.424,-0.155
1681688,6246.0,3874.0,4482.0,0.874,0.179,-0.425,-0.152
1681706,6252.0,4054.0,4466.0,0.875,0.18,-0.424,-0.151
1681714,5930.0,4022.0,4570.0,0.875,0.181,-0.422,-0.149
1681733,5538.0,3936.0,4760.0,0.877,0.182,-0.42,-0.148
1681751,5230.0,3916.0,5052.0,0.878,0.182,-0.417,-0.148
1681769,4914.0,3798.0,5276.0,0.879,0.183,-0.415,-0.147
1681786,4744.0,3832.0,5336.0,0.88,0.184,-0.413,-0.147
1681804,4758.0,4032.0,5426.0,0.88,0.186,-0.412,-0.147
1681821,4814.0,3956.0,5344.0,0.88,0.187,-0.411,-0.147
1681838,4828.0,3942.0,5228.0,0.88,0.188,-0.41,-0.148
1681856,4824.0,4008.0,5152.0,0.88,0.189,-0.411,-0.148
1681874,4922.0,4112.0,5024.0,0.879,0.189,-0.411,-0.148
1681892,5012.0,4052.0,4892.0,0.879,0.189,-0.412,-0.149
1681910,5330.0,3964.0,4648.0,0.878,0.188,-0.413,-0.15
1681928,5794.0,3818.0,4418.0,0.878,0.188,-0.414,-0.151
1681948,5718.0,4032.0,4658.0,0.878,0.188,-0.414,-0.152
1681966,5606.0,4304.0,4946.0,0.878,0.187,-0.414,-0.154
1681984,5578.0,4068.0,4908.0,0.877,0.186,-0.414,-0.156
1682002,5724.0,3790.0,4764.0,0.877,0.185,-0.415,-0.157
1682021,5798.0,3742.0,4718.0,0.876,0.184,-0.416,-0.159
1682029,5674.0,3664.0,4744.0,0.876,0.182,-0.416,-0.161
1682047,5632.0,3518.0,4858.0,0.876,0.181,-0.417,-0.162
1682065,5634.0,3342.0,4964.0,0.876,0.179,-0.417,-0.164
1682083,5618.0,3390.0,4990.0,0.876,0.178,-0.418,-0.165
1682102,5700.0,3432.0,4952.0,0.875,0.176,-0.418,-0.165
1682119,5750.0,3440.0,5060.0,0.875,0.175,-0.419,-0.166
1682138,5834.0,3372.0,4966.0,0.875,0.174,-0.42,-0.166
1682156,5946.0,3410.0,5004.0,0.875,0.173,-0.42,-0.166
1682174,6072.0,3680.0,5022.0,0.875,0.173,-0.42,-0.166
1682193,6108.0,4126.0,4776.0,0.876,0.172,-0.42,-0.166
1682212,6102.0,4226.0,4794.0,0.876,0.172,-0.418,-0.167
1682231,5880.0,3494.0,4420.0,0.877,0.171,-0.417,-0.167
1682240,5608.0,3850.0,4566.0,0.878,0.171,-0.415,-0.167
1682258,5568.0,3808.0,4608.0,0.879,0.17,-0.413,-0.167
1682276,5536.0,3332.0,4718.0,0.88,0.169,-0.411,-0.166
1682293,5740.0,3316.0,5036.0,0.882,0.167,-0.409,-0.166
1682310,5640.0,3436.0,5042.0,0.883,0.165,-0.407,-0.165
1682328,5484.0,3528.0,5126.0,0.885,0.163,-0.404,-0.165
1682347,5308.0,3644.0,5334.0,0.886,0.161,-0.402,-0.165
1682364,5244.0,3614.0,5480.0,0.888,0.158,-0.399,-0.165
1682382,4888.0,3522.0,5576.0,0.89,0.156,-0.395,-0.166
1682400,4850.0,3052.0,5786.0,0.891,0.155,-0.392,-0.167
1682418,4696.0,2790.0,5852.0,0.892,0.154,-0.39,-0.167
1682436,4686.0,2876.0,5748.0,0.892,0.154,-0.389,-0.167
1682454,4906.0,3128.0,5554.0,0.892,0.155,-0.389,-0.167
1682472,5020.0,3076.0,5358.0,0.892,0.156,-0.39,-0.167
1682490,5136.0,3276.0,5192.0,0.892,0.157,-0.391,-0.166
1682508,5214.0,3614.0,5068.0,0.891,0.158,-0.392,-0.166
1682526,5374.0,3688.0,5152.0,0.89,0.16,-0.393,-0.165
1682545,5472.0,3670.0,5216.0,0.89,0.16,-0.394,-0.165
1682553,5526.0,3634.0,5204.0,0.89,0.161,-0.394,-0.165
1682571,5586.0,3488.0,5216.0,0.889,0.161,-0.395,-0.165
1682588,5450.0,3582.0,5196.0,0.889,0.161,-0.396,-0.165
1682605,5292.0,3508.0,5110.0,0.889,0.161,-0.396,-0.166
1682623,5336.0,3628.0,5102.0,0.888,0.16,-0.397,-0.166
1682640,5412.0,3544.0,5120.0,0.888,0.159,-0.399,-0.167
1682658,5450.0,3548.0,5218.0,0.887,0.158,-0.4,-0.167
1682676,5508.0,3544.0,5306.0,0.887,0.157,-0.401,-0.168
1682695,5486.0,3384.0,5342.0,0.886,0.156,-0.402,-0.169
1682714,5544.0,3292.0,5452.0,0.886,0.156,-0.403,-0.17
1682732,5664.0,3348.0,5486.0,0.885,0.156,-0.404,-0.171
1682750,5766.0,3436.0,5340.0,0.884,0.156,-0.405,-0.171
1682768,5762.0,3254.0,5186.0,0.884,0.156,-0.406,-0.172
1682785,5744.0,3288.0,5016.0,0.883,0.156,-0.407,-0.172
1682803,5604.0,3124.0,4774.0,0.883,0.156,-0.408,-0.172
1682820,5658.0,3000.0,4728.0,0.883,0.156,-0.409,-0.171
1682837,5774.0,2992.0,4748.0,0.883,0.156,-0.41,-0.17
1682856,6000.0,3308.0,4740.0,0.882,0.156,-0.411,-0.169
1682875,6148.0,3574.0,4806.0,0.882,0.156,-0.411,-0.168
1682893,6154.0,3588.0,4962.0,0.883,0.156,-0.411,-0.167
1682912,5864.0,3434.0,5004.0,0.883,0.156,-0.41,-0.167
1682922,5728.0,3498.0,5106.0,0.884,0.155,-0.408,-0.167
1682940,5418.0,3446.0,5332.0,0.885,0.155,-0.406,-0.168
1682958,5188.0,3440.0,5506.0,0.886,0.155,-0.404,-0.168
1682976,5174.0,3574.0,5502.0,0.887,0.154,-0.401,-0.169
1682994,5334.0,3614.0,5542.0,0.888,0.153,-0.399,-0.169
1683012,5408.0,3568.0,5606.0,0.889,0.152,-0.397,-0.169
1683031,5558.0,3834.0,5626.0,0.89,0.151,-0.394,-0.17
1683049,5582.0,4022.0,5400.0,0.892,0.149,-0.391,-0.172
1683067,5408.0,3664.0,5524.0,0.894,0.146,-0.387,-0.173
1683085,5074.0,3138.0,5604.0,0.896,0.144,-0.383,-0.175
1683103,4684.0,3290.0,5530.0,0.897,0.143,-0.38,-0.176
1683121,4278.0,3536.0,5174.0,0.898,0.143,-0.378,-0.176
1683139,4180.0,3328.0,5100.0,0.898,0.143,-0.377,-0.177
1683148,4218.0,3222.0,4986.0,0.898,0.142,-0.377,-0.177
1683166,4556.0,3432.0,5120.0,0.898,0.141,-0.378,-0.177
1683185,4796.0,3140.0,5374.0,0.898,0.139,-0.378,-0.177
1683203,5024.0,3100.0,5610.0,0.898,0.137,-0.379,-0.177
1683221,5344.0,3174.0,5858.0,0.898,0.135,-0.38,-0.178
1683239,5402.0,3170.0,6082.0,0.898,0.133,-0.379,-0.179
1683257,5346.0,3012.0,6060.0,0.898,0.13,-0.379,-0.181
1683276,5346.0,2666.0,5970.0,0.898,0.128,-0.379,-0.182
1683294,5180.0,2516.0,5932.0,0.898,0.126,-0.379,-0.184
1683312,5224.0,2418.0,5858.0,0.898,0.124,-0.379,-0.186
1683330,5478.0,2362.0,5958.0,0.898,0.123,-0.38,-0.187
1683348,5602.0,2416.0,5938.0,0.897,0.123,-0.38,-0.188
1683367,5684.0,2556.0,5878.0,0.896,0.123,-0.382,-0.189
1683375,5776.0,2782.0,5706.0,0.896,0.123,-0.382,-0.19
1683392,5582.0,2612.0,5400.0,0.896,0.124,-0.383,-0.189
1683410,5200.0,2544.0,5268.0,0.895,0.124,-0.384,-0.188
1683429,5616.0,3044.0,5258.0,0.895,0.125,-0.385,-0.187
1683448,6106.0,3306.0,5226.0,0.895,0.126,-0.385,-0.186
1683466,6166.0,3330.0,5384.0,0.896,0.126,-0.384,-0.185
1683484,5906.0,3462.0,5496.0,0.897,0.126,-0.382,-0.184
1683501,5560.0,3490.0,5516.0,0.898,0.126,-0.379,-0.183
1683518,5140.0,3116.0,5694.0,0.899,0.127,-0.377,-0.183
1683535,4918.0,3162.0,5666.0,0.9,0.127,-0.375,-0.182
1683553,4792.0,3282.0,5644.0,0.9,0.128,-0.375,-0.181
1683571,4962.0,3168.0,5556.0,0.9,0.128,-0.374,-0.18
1683589,5146.0,3222.0,5496.0,0.901,0.129,-0.374,-0.18
1683606,5170.0,3220.0,5544.0,0.901,0.128,-0.374,-0.179
1683624,5114.0,3274.0,5626.0,0.901,0.128,-0.373,-0.179
1683642,4966.0,3326.0,5796.0,0.901,0.128,-0.373,-0.18
1683660,4934.0,3188.0,5816.0,0.902,0.128,-0.372,-0.18
1683678,4888.0,3080.0,5914.0,0.902,0.128,-0.371,-0.181
1683697,4990.0,3234.0,6070.0,0.902,0.128,-0.37,-0.182
1683715,5012.0,3230.0,6162.0,0.902,0.129,-0.369,-0.183
1683733,4938.0,3256.0,6146.0,0.902,0.129,-0.368,-0.184
1683751,4722.0,3142.0,5906.0,0.902,0.129,-0.368,-0.184
1683760,4512.0,2958.0,5572.0,0.902,0.13,-0.368,-0.185
1683778,4406.0,2876.0,5470.0,0.901,0.13,-0.369,-0.186
1683795,4556.0,3014.0,5520.0,0.901,0.131,-0.37,-0.187
1683813,4856.0,3166.0,5666.0,0.9,0.13,-0.371,-0.188
1683832,5174.0,3162.0,5878.0,0.899,0.13,-0.373,-0.188
1683851,5462.0,3320.0,6064.0,0.899,0.129,-0.374,-0.189
1683868,5476.0,3244.0,6130.0,0.898,0.129,-0.375,-0.19
1683885,5426.0,3100.0,5926.0,0.898,0.128,-0.376,-0.191
1683903,5322.0,2932.0,5690.0,0.898,0.128,-0.376,-0.191
1683921,5254.0,2762.0,5488.0,0.897,0.128,-0.377,-0.192
1683939,5308.0,2774.0,5432.0,0.897,0.127,-0.378,-0.192
1683956,5412.0,2724.0,5384.0,0.897,0.127,-0.378,-0.191
1683974,5350.0,2612.0,5540.0,0.897,0.126,-0.379,-0.19
1683992,5658.0,2718.0,5506.0,0.896,0.126,-0.381,-0.189
1684010,6048.0,3030.0,5378.0,0.896,0.126,-0.382,-0.188
1684029,6138.0,3062.0,5372.0,0.897,0.126,-0.382,-0.187
1684047,5828.0,2888.0,5536.0,0.897,0.125,-0.38,-0.186
1684066,5422.0,2982.0,5746.0,0.898,0.125,-0.378,-0.185
1684075,5010.0,2940.0,5924.0,0.899,0.125,-0.376,-0.185
1684093,4820.0,2840.0,5960.0,0.9,0.126,-0.375,-0.184
1684111,4764.0,2818.0,5914.0,0.9,0.127,-0.374,-0.184
1684131,4958.0,3236.0,5816.0,0.9,0.129,-0.374,-0.183
1684149,5076.0,3152.0,5732.0,0.9,0.131,-0.375,-0.182
1684167,5180.0,2956.0,5608.0,0.9,0.132,-0.375,-0.181
1684185,5372.0,3254.0,5498.0,0.9,0.133,-0.375,-0.181
1684203,5374.0,3598.0,5434.0,0.9,0.134,-0.374,-0.181
1684221,5122.0,3606.0,5254.0,0.9,0.134,-0.373,-0.181
1684243,5172.0,3356.0,5536.0,0.9,0.134,-0.372,-0.181
1684252,4964.0,3184.0,5654.0,0.9,0.134,-0.372,-0.182
1684270,4828.0,2948.0,5844.0,0.9,0.134,-0.372,-0.182
1684289,4818.0,3262.0,5796.0,0.9,0.135,-0.372,-0.182
1684308,4914.0,3212.0,5790.0,0.9,0.135,-0.373,-0.182
1684327,4956.0,3418.0,5712.0,0.899,0.136,-0.374,-0.182
1684344,5132.0,3604.0,5610.0,0.899,0.135,-0.374,-0.182
1684363,4984.0,3210.0,5672.0,0.899,0.135,-0.374,-0.182
1684373,4856.0,3102.0,5732.0,0.899,0.135,-0.375,-0.182
1684392,4970.0,3374.0,5746.0,0.898,0.136,-0.376,-0.182
1684410,4958.0,3460.0,5762.0,0.898,0.137,-0.376,-0.183
1684428,5084.0,3410.0,5746.0,0.897,0.137,-0.377,-0.183
1684447,5154.0,3386.0,5716.0,0.897,0.138,-0.378,-0.183
1684465,5160.0,3372.0,5698.0,0.897,0.138,-0.379,-0.184
1684482,5156.0,3252.0,5740.0,0.896,0.137,-0.379,-0.184
1684501,5108.0,3308.0,5768.0,0.896,0.137,-0.38,-0.185
1684519,5410.0,3214.0,5600.0,0.896,0.136,-0.38,-0.186
1684536,5700.0,3052.0,5414.0,0.896,0.134,-0.38,-0.187
1684555,5772.0,2952.0,5392.0,0.897,0.132,-0.378,-0.188
1684564,5326.0,2902.0,5764.0,0.897,0.131,-0.377,-0.19
1684581,5090.0,2944.0,5832.0,0.897,0.13,-0.376,-0.191
1684600,4972.0,2746.0,5756.0,0.897,0.129,-0.376,-0.192
1684618,5018.0,2648.0,5710.0,0.897,0.129,-0.378,-0.192
1684636,5096.0,2902.0,5644.0,0.896,0.129,-0.379,-0.191
1684654,5116.0,2920.0,5570.0,0.895,0.13,-0.381,-0.19
1684672,5336.0,3032.0,5540.0,0.895,0.13,-0.383,-0.189
1684690,5480.0,3290.0,5414.0,0.894,0.131,-0.385,-0.188
1684708,5608.0,3292.0,5330.0,0.894,0.131,-0.386,-0.186
1684726,5590.0,3344.0,5360.0,0.894,0.131,-0.387,-0.186
1684744,5526.0,3386.0,5530.0,0.894,0.131,-0.387,-0.185
1684761,5340.0,3500.0,5508.0,0.894,0.131,-0.387,-0.185
1684780,5292.0,3560.0,5572.0,0.894,0.131,-0.387,-0.185
1684799,5304.0,3428.0,5482.0,0.894,0.13,-0.386,-0.184
1684816,5268.0,3314.0,5606.0,0.895,0.129,-0.386,-0.184
1684834,5264.0,3170.0,5452.0,0.895,0.127,-0.386,-0.185
1684852,5292.0,3240.0,5544.0,0.895,0.126,-0.386,-0.185
1684861,5310.0,3280.0,5690.0,0.895,0.124,-0.385,-0.185
1684878,5168.0,3332.0,5648.0,0.896,0.122,-0.385,-0.185
1684896,5338.0,3212.0,5480.0,0.896,0.12,-0.385,-0.186
1684915,5452.0,3262.0,5688.0,0.896,0.117,-0.385,-0.187
1684934,5382.0,3110.0,5608.0,0.896,0.114,-0.385,-0.188
1684953,5496.0,3316.0,5736.0,0.896,0.111,-0.386,-0.189
1684971,5536.0,3008.0,5770.0,0.896,0.106,-0.386,-0.191
1684990,5272.0,3156.0,6862.0,0.895,0.101,-0.388,-0.193
1685008,4348.0,3024.0,7846.0,0.894,0.096,-0.393,-0.195
1685027,3804.0,3584.0,6624.0,0.89,0.091,-0.401,-0.196
1685036,5516.0,3916.0,4668.0,0.886,0.085,-0.411,-0.197
1685054,7184.0,2156.0,3828.0,0.883,0.077,-0.418,-0.198
1685071,6986.0,1532.0,3690.0,0.881,0.071,-0.423,-0.199
1685088,5792.0,2106.0,3732.0,0.88,0.066,-0.426,-0.2
1685105,6800.0,2322.0,4754.0,0.879,0.061,-0.429,-0.202
1685123,6852.0,2590.0,4626.0,0.878,0.057,-0.43,-0.203
1685141,6370.0,2264.0,5116.0,0.878,0.052,-0.431,-0.204
1685159,5828.0,1330.0,5188.0,0.877,0.049,-0.432,-0.203
1685178,6392.0,2342.0,4624.0,0.877,0.049,-0.433,-0.202
1685198,6544.0,2434.0,4220.0,0.877,0.051,-0.434,-0.198
1685216,6450.0,1504.0,3632.0,0.878,0.045,-0.433,-0.199
1685235,6798.0,1274.0,4628.0,0.879,0.04,-0.43,-0.2
1685253,5710.0,1520.0,5520.0,0.88,0.036,-0.427,-0.202
1685271,5538.0,1860.0,6126.0,0.881,0.033,-0.426,-0.204
1685279,5336.0,1232.0,6108.0,0.88,0.03,-0.426,-0.206
1685298,6074.0,2634.0,5382.0,0.879,0.029,-0.428,-0.207
1685317,6036.0,1130.0,5144.0,0.878,0.025,-0.429,-0.21
1685336,6144.0,1644.0,5304.0,0.877,0.023,-0.43,-0.211
1685353,6050.0,678.0,5230.0,0.877,0.021,-0.431,-0.213
1685370,5530.0,998.0,5512.0,0.876,0.02,-0.432,-0.214
1685389,5244.0,680.0,6342.0,0.875,0.022,-0.435,-0.213
1685407,5650.0,820.0,6538.0,0.872,0.027,-0.441,-0.21
1685425,6218.0,622.0,5618.0,0.869,0.036,-0.448,-0.206
1685444,7024.0,360.0,5860.0,0.865,0.046,-0.457,-0.202
1685463,6976.0,-608.0,5126.0,0.86,0.061,-0.467,-0.195
1685486,6654.0,-480.0,4936.0,0.855,0.082,-0.478,-0.186
1685494,6246.0,1902.0,3608.0,0.848,0.105,-0.489,-0.177
1685512,5642.0,4830.0,3206.0,0.84,0.128,-0.499,-0.168
1685531,6550.0,7824.0,3250.0,0.833,0.147,-0.509,-0.161
1685551,3420.0,7410.0,1592.0,0.826,0.156,-0.519,-0.158
1685560,6196.0,4880.0,2040.0,0.82,0.158,-0.528,-0.156
1685577,5622.0,4404.0,2466.0,0.814,0.159,-0.537,-0.154
1685600,5938.0,3224.0,2798.0,0.809,0.159,-0.545,-0.151
1685617,7894.0,4780.0,3588.0,0.805,0.159,-0.553,-0.148
1685635,7318.0,4694.0,2490.0,0.801,0.156,-0.559,-0.146
1685652,7082.0,2920.0,2754.0,0.8,0.149,-0.563,-0.144
1685671,7636.0,3566.0,3702.0,0.799,0.145,-0.566,-0.141
1685690,7234.0,3400.0,4094.0,0.8,0.14,-0.568,-0.136
1685709,6824.0,1720.0,3344.0,0.8,0.137,-0.57,-0.13
1685719,7152.0,3410.0,2752.0,0.799,0.136,-0.572,-0.125
1685737,6896.0,2610.0,3074.0,0.799,0.131,-0.574,-0.121
1685755,6692.0,3050.0,3216.0,0.798,0.127,-0.578,-0.117
1685773,6956.0,2170.0,2362.0,0.795,0.124,-0.583,-0.111
1685792,10230.0,3330.0,3460.0,0.792,0.12,-0.589,-0.105
1685810,8790.0,3478.0,-456.0,0.79,0.109,-0.594,-0.102
1685828,5404.0,1046.0,646.0,0.787,0.108,-0.599,-0.101
1685848,6308.0,700.0,2214.0,0.785,0.108,-0.602,-0.099
1685858,8270.0,816.0,84.0,0.781,0.112,-0.606,-0.097
1685875,10344.0,1884.0,-660.0,0.78,0.113,-0.607,-0.099
1685894,9394.0,270.0,-836.0,0.782,0.113,-0.605,-0.101
1685912,6346.0,-2208.0,540.0,0.785,0.112,-0.6,-0.103
1685930,5954.0,3564.0,4102.0,0.787,0.126,-0.596,-0.097
1685949,6354.0,10796.0,4180.0,0.79,0.135,-0.591,-0.092
1685967,6920.0,7014.0,2130.0,0.794,0.129,-0.587,-0.093
1685986,7848.0,2134.0,1038.0,0.799,0.118,-0.582,-0.098
1686004,8942.0,378.0,2936.0,0.803,0.109,-0.576,-0.104
1686022,6394.0,362.0,3066.0,0.806,0.106,-0.573,-0.109
1686040,6136.0,3906.0,2806.0,0.807,0.105,-0.57,-0.114
1686050,7514.0,2430.0,3312.0,0.808,0.099,-0.568,-0.12
1686067,7348.0,934.0,3240.0,0.808,0.097,-0.568,-0.125
1686085,7764.0,2320.0,3042.0,0.807,0.098,-0.568,-0.129
1686104,10460.0,3946.0,1814.0,0.808,0.099,-0.566,-0.133
1686122,8858.0,4060.0,3474.0,0.811,0.097,-0.561,-0.138
1686140,9284.0,2652.0,3668.0,0.815,0.095,-0.554,-0.143
1686158,8522.0,2564.0,3824.0,0.819,0.095,-0.546,-0.149
1686176,9788.0,3698.0,4222.0,0.824,0.094,-0.537,-0.154
1686195,9358.0,2440.0,4750.0,0.83,0.092,-0.526,-0.16
1686212,9046.0,2648.0,4626.0,0.836,0.093,-0.515,-0.165
1686229,9602.0,4148.0,4940.0,0.843,0.091,-0.502,-0.171
1686246,9908.0,2922.0,5656.0,0.851,0.089,-0.487,-0.177
1686263,9386.0,1878.0,5938.0,0.859,0.087,-0.471,-0.181
1686280,8066.0,3334.0,6856.0,0.867,0.087,-0.455,-0.186
1686298,7724.0,4314.0,7772.0,0.875,0.086,-0.438,-0.188
1686317,8808.0,2214.0,5264.0,0.884,0.083,-0.419,-0.19
1686335,7474.0,1468.0,7606.0,0.894,0.082,-0.397,-0.192
1686353,7006.0,2710.0,7206.0,0.903,0.081,-0.375,-0.193
1686370,6922.0,1996.0,7628.0,0.913,0.081,-0.351,-0.193
1686388,6250.0,2222.0,7418.0,0.922,0.082,-0.327,-0.192
1686406,6196.0,2202.0,7460.0,0.93,0.084,-0.301,-0.191
1686424,5232.0,2978.0,7716.0,0.939,0.086,-0.275,-0.189
1686442,4890.0,3816.0,7544.0,0.947,0.087,-0.246,-0.188
1686450,4562.0,3178.0,7438.0,0.954,0.086,-0.216,-0.187
1686468,4192.0,2868.0,7136.0,0.961,0.085,-0.184,-0.186
1686486,3670.0,3710.0,6594.0,0.968,0.082,-0.15,-0.185
1686505,2782.0,4490.0,6824.0,0.974,0.077,-0.112,-0.183
1686523,1750.0,3398.0,7896.0,0.978,0.069,-0.074,-0.181
1686540,2054.0,2126.0,7166.0,0.981,0.061,-0.034,-0.18
1686558,1576.0,2046.0,7140.0,0.982,0.053,0.006,-0.18
1686576,450.0,2008.0,7144.0,0.981,0.046,0.045,-0.181
1686594,-206.0,1788.0,7398.0,0.979,0.039,0.084,-0.181
1686613,-496.0,746.0,7376.0,0.975,0.033,0.121,-0.181
1686632,-320.0,984.0,6752.0,0.97,0.028,0.156,-0.184
1686650,-720.0,1290.0,6674.0,0.963,0.022,0.191,-0.187
1686668,-2032.0,816.0,7146.0,0.956,0.015,0.224,-0.189
1686687,-2188.0,62.0,6366.0,0.947,0.009,0.257,-0.191
1686695,-2458.0,-146.0,5998.0,0.938,0.004,0.288,-0.193
1686713,-2654.0,-92.0,5286.0,0.927,-0.0,0.318,-0.196
1686732,-4040.0,-326.0,5454.0,0.916,-0.004,0.348,-0.198
1686751,-4160.0,-894.0,5082.0,0.904,-0.007,0.377,-0.201
1686769,-4676.0,-1616.0,4656.0,0.892,-0.009,0.403,-0.203
1686787,-4386.0,-1144.0,4074.0,0.88,-0.011,0.429,-0.206
1686806,-4532.0,-624.0,3554.0,0.866,-0.015,0.454,-0.208
1686824,-5528.0,-1280.0,4132.0,0.853,-0.019,0.477,-0.21
1686843,-5298.0,-1526.0,3480.0,0.84,-0.022,0.499,-0.211
1686862,-4762.0,-2288.0,2608.0,0.828,-0.026,0.519,-0.211
1686872,-5390.0,-1514.0,1970.0,0.815,-0.031,0.539,-0.211
1686891,-5472.0,-1772.0,2020.0,0.802,-0.037,0.559,-0.209
1686909,-5624.0,-2874.0,2070.0,0.789,-0.043,0.577,-0.207
1686928,-5914.0,-2256.0,1488.0,0.777,-0.047,0.594,-0.205
1686946,-5270.0,-2272.0,700.0,0.764,-0.051,0.611,-0.2
1686965,-6124.0,-2506.0,1032.0,0.751,-0.057,0.628,-0.193
1686983,-6178.0,-2732.0,720.0,0.739,-0.061,0.645,-0.186
1687001,-6972.0,-2872.0,912.0,0.727,-0.064,0.66,-0.179
1687009,-6688.0,-2678.0,-18.0,0.716,-0.066,0.673,-0.173
1687028,-7284.0,-2640.0,190.0,0.706,-0.068,0.685,-0.167
1687047,-7388.0,-2160.0,118.0,0.698,-0.071,0.695,-0.161
1687066,-7610.0,-2506.0,-180.0,0.69,-0.074,0.703,-0.155
1687085,-7408.0,-2168.0,-738.0,0.684,-0.077,0.71,-0.151
1687102,-7630.0,-1692.0,-772.0,0.678,-0.08,0.716,-0.146
1687120,-7898.0,-1722.0,-796.0,0.673,-0.084,0.722,-0.141
1687138,-7798.0,-2394.0,-1016.0,0.668,-0.087,0.726,-0.136
1687156,-7716.0,-2120.0,-1374.0,0.664,-0.091,0.73,-0.132
1687175,-7816.0,-2348.0,-1488.0,0.66,-0.095,0.734,-0.128
1687194,-8034.0,-2322.0,-1278.0,0.656,-0.099,0.738,-0.125
1687202,-8174.0,-2524.0,-1168.0,0.653,-0.103,0.741,-0.121
1687220,-8350.0,-2346.0,-958.0,0.65,-0.106,0.744,-0.118
1687239,-7942.0,-2816.0,-1540.0,0.646,-0.109,0.747,-0.114
1687257,-8070.0,-2920.0,-1408.0,0.643,-0.113,0.75,-0.111
1687275,-8172.0,-2878.0,-1300.0,0.639,-0.115,0.752,-0.109
1687292,-8300.0,-2642.0,-1246.0,0.637,-0.117,0.755,-0.106
1687311,-7710.0,-2206.0,-1536.0,0.634,-0.118,0.757,-0.103
1687331,-7778.0,-2838.0,-1496.0,0.631,-0.12,0.76,-0.1
1687351,-7748.0,-3032.0,-1642.0,0.628,-0.121,0.763,-0.097
1687359,-7976.0,-2696.0,-1414.0,0.626,-0.121,0.765,-0.095
1687376,-8104.0,-2586.0,-1476.0,0.625,-0.12,0.766,-0.092
1687394,-7994.0,-2740.0,-1836.0,0.624,-0.119,0.767,-0.09
1687412,-8342.0,-3112.0,-1916.0,0.623,-0.117,0.769,-0.087
1687432,-8568.0,-2888.0,-1768.0,0.623,-0.116,0.769,-0.085
1687450,-8790.0,-2630.0,-1772.0,0.623,-0.114,0.769,-0.083
1687469,-8754.0,-2722.0,-1718.0,0.624,-0.111,0.769,-0.082
1687487,-8696.0,-2704.0,-1842.0,0.626,-0.109,0.768,-0.081
1687505,-8706.0,-2300.0,-1760.0,0.627,-0.107,0.767,-0.08
1687523,-8572.0,-1874.0,-1964.0,0.627,-0.105,0.768,-0.08
1687543,-8894.0,-2384.0,-1622.0,0.626,-0.103,0.769,-0.079
1687553,-8886.0,-2000.0,-1294.0,0.625,-0.101,0.77,-0.079
1687570,-8654.0,-2090.0,-1362.0,0.622,-0.098,0.772,-0.08
1687588,-8646.0,-1950.0,-1132.0,0.62,-0.096,0.775,-0.081
1687605,-8486.0,-1854.0,-1298.0,0.617,-0.095,0.777,-0.082
1687623,-8736.0,-2296.0,-1090.0,0.613,-0.093,0.78,-0.083
1687641,-8696.0,-2146.0,-1466.0,0.609,-0.092,0.783,-0.086
1687659,-8902.0,-2106.0,-1666.0,0.605,-0.091,0.786,-0.088
1687677,-8980.0,-2214.0,-1834.0,0.6,-0.09,0.789,-0.091
1687696,-9176.0,-2690.0,-1980.0,0.597,-0.089,0.792,-0.094
1687714,-9386.0,-2668.0,-2060.0,0.594,-0.088,0.794,-0.098
1687733,-9334.0,-2956.0,-2118.0,0.592,-0.086,0.795,-0.102
1687752,-8984.0,-2800.0,-2168.0,0.591,-0.085,0.795,-0.107
1687771,-8918.0,-2684.0,-1968.0,0.591,-0.084,0.794,-0.113
1687780,-9168.0,-2654.0,-1524.0,0.593,-0.083,0.792,-0.118
1687798,-8542.0,-3008.0,-1962.0,0.595,-0.081,0.79,-0.124
1687817,-7992.0,-2890.0,-2334.0,0.598,-0.079,0.787,-0.13
1687835,-7784.0,-2384.0,-2780.0,0.6,-0.078,0.785,-0.134
1687853,-8322.0,-2850.0,-2260.0,0.601,-0.077,0.783,-0.136
1687871,-8500.0,-2750.0,-1942.0,0.603,-0.075,0.782,-0.138
1687889,-8162.0,-3174.0,-2160.0,0.605,-0.073,0.781,-0.139
1687907,-8048.0,-2520.0,-2004.0,0.607,-0.071,0.78,-0.138
1687925,-8136.0,-2918.0,-1590.0,0.608,-0.068,0.779,-0.137
1687944,-8076.0,-1700.0,-1282.0,0.61,-0.066,0.778,-0.135
1687963,-7746.0,-2400.0,-1396.0,0.611,-0.063,0.778,-0.133
1687973,-7966.0,-1824.0,-814.0,0.613,-0.061,0.777,-0.13
1687991,-7592.0,-1834.0,-1222.0,0.614,-0.059,0.776,-0.128
1688010,-7768.0,-840.0,-908.0,0.617,-0.057,0.775,-0.126
1688029,-7088.0,-1986.0,-1424.0,0.619,-0.056,0.774,-0.124
1688048,-7252.0,-1200.0,-1094.0,0.62,-0.056,0.773,-0.122
1688067,-7348.0,-1152.0,-1130.0,0.622,-0.057,0.772,-0.119
1688075,-7080.0,-1374.0,-1496.0,0.623,-0.058,0.771,-0.116
1688094,-7438.0,-1852.0,-1512.0,0.624,-0.061,0.771,-0.112
1688113,-7590.0,-2268.0,-2474.0,0.623,-0.066,0.772,-0.107
1688133,-9716.0,-2728.0,-1418.0,0.623,-0.072,0.773,-0.1
1688151,-10432.0,-3656.0,-1398.0,0.625,-0.078,0.771,-0.092
1688169,-9940.0,-4250.0,-2684.0,0.629,-0.083,0.769,-0.085
1688188,-10896.0,-3438.0,-1420.0,0.634,-0.086,0.764,-0.077
1688207,-9552.0,-3096.0,-1414.0,0.641,-0.088,0.759,-0.068
1688216,-8204.0,-2016.0,-948.0,0.649,-0.089,0.753,-0.059
1688235,-6816.0,-1686.0,-316.0,0.657,-0.088,0.747,-0.049
1688254,-5746.0,-1476.0,-284.0,0.664,-0.087,0.742,-0.04
1688272,-5164.0,-1276.0,-536.0,0.669,-0.087,0.738,-0.031
1688291,-5342.0,-1040.0,154.0,0.672,-0.087,0.735,-0.022
1688310,-5354.0,-494.0,540.0,0.675,-0.087,0.733,-0.013
1688330,-5160.0,-656.0,-168.0,0.677,-0.087,0.731,-0.005
1688349,-5686.0,-260.0,780.0,0.678,-0.087,0.73,0.004
1688358,-6010.0,-692.0,428.0,0.678,-0.087,0.73,0.011
1688376,-6302.0,-174.0,374.0,0.678,-0.086,0.73,0.018
1688395,-6094.0,-596.0,198.0,0.678,-0.086,0.73,0.025
1688414,-6468.0,-858.0,636.0,0.677,-0.085,0.73,0.03
1688432,-6630.0,52.0,-92.0,0.676,-0.086,0.731,0.034
1688451,-7932.0,-498.0,230.0,0.675,-0.088,0.732,0.04
1688469,-8404.0,-1246.0,-164.0,0.674,-0.09,0.732,0.043
1688477,-8718.0,-1110.0,-854.0,0.674,-0.093,0.731,0.046
1688497,-9586.0,-520.0,-224.0,0.674,-0.095,0.731,0.05
1688515,-9412.0,-778.0,-200.0,0.674,-0.096,0.73,0.055
1688533,-8670.0,-598.0,-472.0,0.675,-0.097,0.729,0.059
1688552,-7794.0,-1140.0,-668.0,0.675,-0.098,0.728,0.063
1688570,-8212.0,-164.0,326.0,0.676,-0.098,0.727,0.067
1688588,-7134.0,-102.0,112.0,0.677,-0.097,0.726,0.071
1688606,-6650.0,-318.0,238.0,0.678,-0.098,0.725,0.074
1688623,-6078.0,-818.0,182.0,0.678,-0.098,0.724,0.076
1688641,-5720.0,-364.0,80.0,0.678,-0.099,0.724,0.076
1688658,-5652.0,152.0,-86.0,0.677,-0.101,0.725,0.076
1688676,-6392.0,-360.0,158.0,0.675,-0.105,0.726,0.075
1688695,-6970.0,-500.0,104.0,0.673,-0.11,0.728,0.073
1688715,-7358.0,-708.0,98.0,0.672,-0.115,0.729,0.071
1688724,-7750.0,-204.0,-56.0,0.67,-0.12,0.729,0.069
1688742,-8276.0,-1010.0,226.0,0.669,-0.126,0.729,0.067
1688761,-8128.0,-1248.0,-202.0,0.669,-0.131,0.729,0.064
1688781,-8404.0,-740.0,92.0,0.669,-0.136,0.728,0.062
1688799,-8054.0,-1138.0,-100.0,0.669,-0.141,0.728,0.06
1688818,-7390.0,-1712.0,-316.0,0.668,-0.146,0.727,0.058
1688835,-7508.0,-1402.0,-112.0,0.667,-0.15,0.727,0.056
1688852,-7410.0,-1320.0,-252.0,0.666,-0.154,0.727,0.054
1688870,-7128.0,-1812.0,-160.0,0.666,-0.158,0.728,0.052
1688889,-6620.0,-1890.0,-576.0,0.664,-0.16,0.729,0.049
1688897,-6884.0,-1680.0,-298.0,0.662,-0.163,0.73,0.047
1688915,-7092.0,-1630.0,-292.0,0.659,-0.166,0.732,0.044
1688935,-6830.0,-1998.0,-288.0,0.657,-0.168,0.734,0.041
1688954,-6044.0,-2488.0,-888.0,0.654,-0.169,0.736,0.037
1688972,-5748.0,-2168.0,-1720.0,0.651,-0.169,0.74,0.032
1688990,-6702.0,-954.0,-866.0,0.647,-0.169,0.743,0.027
1689008,-7262.0,-778.0,-746.0,0.643,-0.169,0.746,0.025
1689026,-7154.0,-3914.0,-1486.0,0.641,-0.169,0.749,0.022
1689044,-7072.0,-2820.0,-906.0,0.64,-0.168,0.75,0.017
1689063,-6730.0,-2138.0,-674.0,0.639,-0.165,0.751,0.01
1689082,-6408.0,-978.0,-1018.0,0.639,-0.164,0.752,0.004
1689091,-7100.0,-2254.0,-900.0,0.637,-0.164,0.753,-0.0
1689110,-7770.0,-3026.0,-872.0,0.637,-0.162,0.753,-0.006
1689129,-6880.0,-1926.0,-1464.0,0.638,-0.159,0.753,-0.013
1689148,-6806.0,-1484.0,-2042.0,0.638,-0.157,0.754,-0.018
1689167,-7688.0,-2590.0,-972.0,0.637,-0.156,0.755,-0.022
1689186,-8018.0,-2918.0,-966.0,0.637,-0.154,0.755,-0.026
1689195,-7238.0,-1686.0,-1234.0,0.639,-0.149,0.754,-0.032
1689213,-6984.0,-1468.0,-832.0,0.64,-0.145,0.754,-0.037
1689232,-6750.0,-2290.0,-762.0,0.64,-0.142,0.754,-0.041
1689251,-6822.0,-1262.0,-562.0,0.64,-0.14,0.754,-0.046
1689271,-6300.0,-1286.0,-820.0,0.639,-0.137,0.755,-0.05
1689289,-6784.0,-1236.0,-1308.0,0.638,-0.135,0.756,-0.053
1689308,-7774.0,-2394.0,-386.0,0.637,-0.133,0.757,-0.057
1689317,-8028.0,-2062.0,-678.0,0.638,-0.132,0.756,-0.062
1689335,-7816.0,-936.0,-1184.0,0.639,-0.131,0.755,-0.067
1689353,-7806.0,-1492.0,-1366.0,0.639,-0.129,0.755,-0.072
1689371,-8174.0,-2042.0,-1380.0,0.639,-0.129,0.754,-0.076
1689389,-8852.0,-2522.0,-1018.0,0.64,-0.128,0.753,-0.08
1689407,-8710.0,-2542.0,-1054.0,0.641,-0.127,0.752,-0.085
1689426,-8318.0,-2360.0,-1198.0,0.643,-0.125,0.75,-0.09
1689444,-8246.0,-2816.0,-886.0,0.644,-0.121,0.749,-0.096
1689464,-8084.0,-2412.0,-1056.0,0.645,-0.12,0.748,-0.101
1689483,-8380.0,-1830.0,-796.0,0.646,-0.118,0.747,-0.105
1689492,-8004.0,-2498.0,-854.0,0.645,-0.116,0.747,-0.108
1689510,-7550.0,-2024.0,-1138.0,0.644,-0.113,0.748,-0.11
1689528,-7954.0,-2720.0,-910.0,0.643,-0.111,0.75,-0.112
1689547,-8186.0,-1796.0,-962.0,0.64,-0.107,0.752,-0.113
1689565,-8480.0,-2510.0,-582.0,0.638,-0.103,0.755,-0.114
1689584,-8320.0,-2368.0,-838.0,0.635,-0.097,0.758,-0.114
1689602,-8578.0,-2264.0,-594.0,0.633,-0.091,0.76,-0.115
1689621,-8914.0,-2536.0,-620.0,0.631,-0.085,0.763,-0.115
1689640,-8998.0,-2280.0,-628.0,0.629,-0.078,0.764,-0.116
1689650,-8636.0,-2096.0,-900.0,0.629,-0.071,0.765,-0.118
1689668,-8590.0,-2178.0,-1090.0,0.628,-0.063,0.766,-0.119
1689686,-8962.0,-2172.0,-890.0,0.628,-0.055,0.767,-0.121
1689704,-9190.0,-2280.0,-870.0,0.629,-0.046,0.766,-0.123
1689723,-8798.0,-2276.0,-1184.0,0.632,-0.036,0.764,-0.125
1689742,-8508.0,-1700.0,-1178.0,0.635,-0.025,0.762,-0.127
1689760,-8754.0,-1986.0,-1074.0,0.638,-0.015,0.759,-0.127
1689779,-8954.0,-2330.0,-994.0,0.642,-0.005,0.756,-0.129
1689799,-9104.0,-2122.0,-988.0,0.647,0.004,0.751,-0.131
1689808,-9030.0,-2078.0,-1126.0,0.652,0.013,0.747,-0.133
1689826,-8894.0,-1654.0,-1060.0,0.657,0.021,0.742,-0.134
1689845,-9048.0,-1938.0,-878.0,0.661,0.027,0.738,-0.134
1689863,-9174.0,-1766.0,-830.0,0.665,0.034,0.734,-0.133
1689881,-9250.0,-1842.0,-860.0,0.668,0.039,0.732,-0.131
1689899,-9330.0,-1752.0,-662.0,0.67,0.044,0.73,-0.128
1689917,-9446.0,-1748.0,-528.0,0.672,0.049,0.728,-0.125
1689934,-9652.0,-1162.0,-274.0,0.673,0.053,0.727,-0.121
1689952,-9766.0,-1288.0,-176.0,0.674,0.056,0.727,-0.115
1689969,-10168.0,-1068.0,112.0,0.675,0.059,0.727,-0.11
1689987,-9872.0,-1168.0,-18.0,0.676,0.062,0.726,-0.106
1690005,-9966.0,-744.0,-34.0,0.678,0.065,0.725,-0.103
1690023,-9566.0,-1062.0,-328.0,0.679,0.066,0.725,-0.1
1690042,-9636.0,-486.0,-94.0,0.679,0.067,0.724,-0.098
1690061,-9718.0,-350.0,-22.0,0.68,0.068,0.723,-0.096
1690069,-9512.0,-220.0,-118.0,0.682,0.069,0.722,-0.095
1690087,-8862.0,-616.0,-282.0,0.682,0.069,0.722,-0.094
1690105,-8898.0,176.0,-176.0,0.683,0.069,0.721,-0.094
1690123,-8972.0,176.0,-102.0,0.683,0.068,0.722,-0.093
1690142,-8566.0,158.0,-168.0,0.682,0.067,0.722,-0.091
1690162,-8494.0,122.0,-96.0,0.681,0.065,0.724,-0.09
1690182,-8660.0,56.0,-100.0,0.679,0.062,0.726,-0.089
1690192,-8404.0,70.0,-414.0,0.677,0.059,0.728,-0.088
1690210,-8410.0,-140.0,-476.0,0.675,0.054,0.731,-0.088
1690228,-8614.0,-214.0,-344.0,0.672,0.05,0.734,-0.087
1690247,-8954.0,-390.0,-208.0,0.67,0.045,0.736,-0.087
1690267,-8294.0,-542.0,-806.0,0.667,0.039,0.739,-0.087
1690285,-9014.0,-654.0,-332.0,0.664,0.033,0.742,-0.087
1690304,-8914.0,-898.0,-808.0,0.662,0.027,0.744,-0.088
1690313,-9484.0,-554.0,-630.0,0.66,0.022,0.746,-0.09
1690331,-9518.0,-1088.0,-636.0,0.659,0.016,0.747,-0.091
1690351,-8832.0,-1334.0,-1426.0,0.657,0.01,0.748,-0.094
1690369,-9880.0,-1080.0,-814.0,0.656,0.003,0.749,-0.096
1690387,-10124.0,-1414.0,-898.0,0.654,-0.003,0.75,-0.099
1690406,-10214.0,-1298.0,-906.0,0.653,-0.008,0.75,-0.101
1690426,-9820.0,-1194.0,-1380.0,0.652,-0.013,0.751,-0.103
1690445,-9958.0,-1488.0,-1356.0,0.65,-0.018,0.753,-0.103
1690455,-10048.0,-1386.0,-1386.0,0.647,-0.023,0.755,-0.103
1690473,-10208.0,-2030.0,-1210.0,0.643,-0.028,0.758,-0.103
1690492,-10134.0,-2160.0,-908.0,0.64,-0.032,0.761,-0.103
1690511,-9464.0,-1880.0,-952.0,0.636,-0.037,0.764,-0.102
1690531,-8754.0,-2422.0,-1358.0,0.632,-0.042,0.767,-0.101
1690539,-9356.0,-2010.0,-708.0,0.627,-0.048,0.771,-0.1
1690558,-8552.0,-2344.0,-1148.0,0.622,-0.053,0.775,-0.098
1690576,-8114.0,-2156.0,-1456.0,0.617,-0.058,0.779,-0.096
1690594,-8246.0,-1994.0,-1444.0,0.612,-0.063,0.783,-0.093
1690613,-7658.0,-2324.0,-1900.0,0.606,-0.068,0.787,-0.09
1690632,-8340.0,-2432.0,-1440.0,0.602,-0.072,0.791,-0.086
1690651,-7866.0,-2264.0,-2152.0,0.598,-0.076,0.793,-0.082
1690669,-8514.0,-2482.0,-1892.0,0.596,-0.079,0.795,-0.078
1690686,-7840.0,-2336.0,-2346.0,0.596,-0.081,0.796,-0.075
1690703,-8346.0,-2084.0,-1874.0,0.596,-0.083,0.795,-0.071
1690722,-8030.0,-1608.0,-1816.0,0.598,-0.084,0.794,-0.066
1690740,-7590.0,-948.0,-2140.0,0.6,-0.083,0.793,-0.06
1690758,-7632.0,-542.0,-1804.0,0.603,-0.084,0.791,-0.052
1690777,-7694.0,-2116.0,-1592.0,0.607,-0.084,0.789,-0.044
1690786,-6868.0,-1110.0,-1266.0,0.611,-0.083,0.786,-0.038
1690804,-6822.0,-806.0,-1522.0,0.615,-0.082,0.784,-0.031
1690822,-5930.0,-1004.0,-1696.0,0.617,-0.081,0.782,-0.025
1690840,-6748.0,-908.0,-900.0,0.62,-0.081,0.78,-0.018
1690858,-6738.0,-860.0,-864.0,0.622,-0.081,0.779,-0.012
1690876,-6852.0,-428.0,-1414.0,0.624,-0.08,0.777,-0.007
1690895,-7214.0,-340.0,-1000.0,0.626,-0.081,0.776,-0.001
1690914,-7230.0,-98.0,-1244.0,0.627,-0.081,0.775,0.004
1690932,-7680.0,-460.0,-1212.0,0.629,-0.083,0.773,0.011
1690951,-7590.0,-1674.0,-1692.0,0.63,-0.085,0.772,0.017
1690960,-7980.0,-564.0,-1732.0,0.632,-0.087,0.77,0.024
1690977,-7830.0,-1224.0,-1982.0,0.633,-0.089,0.768,0.032
1690995,-8082.0,-1260.0,-1944.0,0.634,-0.091,0.767,0.04
1691014,-8544.0,-280.0,-760.0,0.636,-0.093,0.764,0.049
1691033,-7780.0,-496.0,-2136.0,0.639,-0.093,0.762,0.058
1691051,-7748.0,-1634.0,-706.0,0.643,-0.093,0.757,0.066
1691070,-7100.0,-290.0,36.0,0.648,-0.092,0.753,0.072
1691089,-5704.0,-618.0,-550.0,0.652,-0.09,0.749,0.078
1691107,-5032.0,222.0,-188.0,0.656,-0.09,0.745,0.083
1691125,-4022.0,370.0,-8.0,0.659,-0.09,0.742,0.088
1691144,-3484.0,656.0,-744.0,0.659,-0.091,0.741,0.093
1691154,-3826.0,-884.0,-558.0,0.657,-0.091,0.743,0.096
1691171,-5542.0,-346.0,492.0,0.655,-0.093,0.744,0.097
1691189,-5376.0,-594.0,-234.0,0.654,-0.097,0.744,0.096
1691207,-5570.0,-86.0,-586.0,0.652,-0.101,0.746,0.093
1691225,-6448.0,-48.0,-714.0,0.649,-0.107,0.748,0.091
1691244,-7536.0,-176.0,-698.0,0.646,-0.113,0.75,0.089
1691264,-8426.0,-876.0,-862.0,0.644,-0.118,0.751,0.086
1691283,-8484.0,-918.0,-920.0,0.643,-0.122,0.752,0.083
1691292,-8784.0,-84.0,-1062.0,0.642,-0.126,0.752,0.08
1691310,-8644.0,-1846.0,-1256.0,0.642,-0.13,0.752,0.078
1691329,-7758.0,-594.0,-1262.0,0.642,-0.132,0.752,0.074
1691348,-7220.0,-772.0,-1646.0,0.642,-0.135,0.751,0.072
1691367,-7714.0,-1374.0,-1190.0,0.642,-0.137,0.751,0.07
1691385,-7630.0,-1884.0,-906.0,0.644,-0.138,0.75,0.067
1691403,-6628.0,-1098.0,-1046.0,0.645,-0.137,0.749,0.062
1691421,-6240.0,-1138.0,-1404.0,0.646,-0.138,0.749,0.058
1691440,-6552.0,-476.0,-1114.0,0.645,-0.139,0.749,0.054
1691450,-6844.0,-1622.0,-828.0,0.645,-0.139,0.749,0.05
1691468,-6442.0,-1402.0,-958.0,0.645,-0.139,0.75,0.045
1691485,-6040.0,-966.0,-1038.0,0.645,-0.139,0.75,0.039
1691502,-6214.0,-568.0,-1128.0,0.643,-0.141,0.752,0.034
1691520,-7344.0,-1332.0,-962.0,0.642,-0.142,0.753,0.03
1691538,-7214.0,-1858.0,-984.0,0.642,-0.142,0.753,0.025
1691557,-6766.0,-1028.0,-2200.0,0.641,-0.143,0.754,0.02
1691576,-7970.0,-1758.0,-1252.0,0.64,-0.143,0.754,0.015
1691595,-7790.0,-2050.0,-1282.0,0.64,-0.143,0.755,0.011
1691614,-7420.0,-1854.0,-1122.0,0.641,-0.142,0.754,0.005
1691633,-6200.0,-1784.0,-2744.0,0.641,-0.14,0.755,-0.0
1691642,-8000.0,-1490.0,-1578.0,0.638,-0.14,0.757,-0.002
1691660,-8176.0,-1372.0,-1914.0,0.636,-0.138,0.759,-0.004
1691679,-8366.0,-2156.0,-1626.0,0.636,-0.135,0.76,-0.006
1691699,-7864.0,-1956.0,-1098.0,0.636,-0.132,0.76,-0.008
1691718,-6964.0,-2316.0,-1052.0,0.637,-0.129,0.76,-0.012
1691736,-6958.0,-796.0,-848.0,0.638,-0.127,0.759,-0.017
1691754,-6800.0,-1614.0,-750.0,0.638,-0.125,0.759,-0.021
1691772,-6938.0,-1136.0,-178.0,0.639,-0.123,0.759,-0.027
1691781,-6858.0,-1404.0,-408.0,0.639,-0.121,0.759,-0.032
1691799,-6746.0,-858.0,-552.0,0.638,-0.119,0.76,-0.038
1691818,-6910.0,-1034.0,-706.0,0.637,-0.118,0.761,-0.043
1691836,-7234.0,-1620.0,-914.0,0.636,-0.117,0.761,-0.048
1691855,-7332.0,-1572.0,-694.0,0.635,-0.116,0.762,-0.053
1691874,-7252.0,-1520.0,-756.0,0.634,-0.115,0.763,-0.059
1691892,-7146.0,-1220.0,-1522.0,0.632,-0.114,0.764,-0.064
1691911,-7832.0,-1542.0,-1042.0,0.63,-0.114,0.765,-0.068
1691931,-7578.0,-2028.0,-918.0,0.629,-0.114,0.766,-0.071
1691940,-7210.0,-1456.0,-1584.0,0.626,-0.112,0.768,-0.073
1691958,-8134.0,-2118.0,-1368.0,0.624,-0.111,0.77,-0.074
1691976,-8456.0,-2596.0,-1228.0,0.621,-0.11,0.772,-0.074
1691995,-8574.0,-2018.0,-1502.0,0.619,-0.108,0.774,-0.073
1692014,-8830.0,-2420.0,-1348.0,0.618,-0.105,0.776,-0.072
1692033,-8856.0,-2070.0,-1148.0,0.617,-0.101,0.778,-0.071
1692051,-8834.0,-2564.0,-1284.0,0.615,-0.095,0.779,-0.07
1692069,-8988.0,-1764.0,-1108.0,0.614,-0.09,0.781,-0.069
1692078,-9120.0,-1776.0,-1310.0,0.614,-0.084,0.782,-0.068
1692096,-8786.0,-986.0,-1730.0,0.614,-0.077,0.783,-0.067
1692114,-9250.0,-2028.0,-1350.0,0.614,-0.072,0.783,-0.065
1692132,-9578.0,-1526.0,-1122.0,0.616,-0.067,0.782,-0.066
1692152,-9368.0,-1502.0,-1262.0,0.619,-0.062,0.78,-0.067
1692170,-9130.0,-988.0,-1352.0,0.623,-0.057,0.777,-0.07
1692187,-9038.0,-1268.0,-1252.0,0.627,-0.052,0.774,-0.072
1692205,-9154.0,-938.0,-1174.0,0.633,-0.049,0.769,-0.074
1692223,-8960.0,-1024.0,-1380.0,0.638,-0.045,0.765,-0.076
1692241,-8806.0,-1062.0,-1376.0,0.643,-0.042,0.761,-0.077
1692260,-8728.0,-1326.0,-1344.0,0.649,-0.038,0.756,-0.078
1692279,-8466.0,-940.0,-1442.0,0.654,-0.035,0.752,-0.079
1692289,-8890.0,-1228.0,-1036.0,0.659,-0.032,0.747,-0.078
1692307,-8856.0,-1368.0,-906.0,0.665,-0.03,0.742,-0.077
1692326,-9004.0,-2368.0,-854.0,0.671,-0.028,0.737,-0.077
1692345,-9108.0,-1964.0,-644.0,0.677,-0.027,0.731,-0.078
1692365,-9176.0,-1112.0,-798.0,0.683,-0.027,0.726,-0.078
1692383,-9314.0,-1792.0,-804.0,0.688,-0.026,0.721,-0.076
1692402,-9438.0,-1760.0,-750.0,0.692,-0.025,0.718,-0.074
1692410,-9016.0,-1634.0,-740.0,0.696,-0.024,0.715,-0.071
1692428,-9572.0,-1836.0,-444.0,0.698,-0.024,0.712,-0.067
1692448,-9576.0,-1786.0,-322.0,0.701,-0.024,0.71,-0.063
1692467,-9632.0,-1862.0,-196.0,0.702,-0.024,0.709,-0.059
1692485,-9762.0,-1816.0,90.0,0.704,-0.023,0.708,-0.055
1692504,-10036.0,-1904.0,470.0,0.705,-0.023,0.707,-0.051
1692521,-9918.0,-1342.0,464.0,0.706,-0.023,0.706,-0.048
1692538,-9720.0,-1596.0,622.0,0.707,-0.022,0.706,-0.046
1692556,-9526.0,-1588.0,636.0,0.707,-0.02,0.705,-0.045
1692574,-9428.0,-984.0,830.0,0.708,-0.018,0.705,-0.046
1692592,-9148.0,-936.0,700.0,0.708,-0.015,0.705,-0.048
1692611,-8978.0,-1616.0,698.0,0.708,-0.012,0.705,-0.051
1692621,-8892.0,374.0,842.0,0.708,-0.008,0.704,-0.056
1692638,-9064.0,-358.0,830.0,0.707,-0.006,0.704,-0.06
1692656,-9242.0,-740.0,1146.0,0.707,-0.004,0.704,-0.065
1692675,-8592.0,-652.0,650.0,0.707,-0.002,0.704,-0.071
1692693,-8952.0,124.0,812.0,0.706,0.0,0.704,-0.078
1692712,-9342.0,-342.0,720.0,0.704,0.002,0.705,-0.084
1692732,-9588.0,-304.0,844.0,0.702,0.004,0.706,-0.091
1692750,-9354.0,-684.0,936.0,0.7,0.007,0.707,-0.098
1692768,-8980.0,-1176.0,710.0,0.697,0.01,0.709,-0.106
1692777,-9348.0,-444.0,474.0,0.693,0.011,0.712,-0.114
1692796,-10360.0,-1278.0,842.0,0.689,0.011,0.715,-0.121
1692814,-10416.0,-1136.0,504.0,0.685,0.013,0.717,-0.128
1692834,-10056.0,-2174.0,422.0,0.681,0.014,0.72,-0.135
1692852,-9388.0,-1886.0,-122.0,0.676,0.013,0.723,-0.143
1692872,-10756.0,-1450.0,92.0,0.671,0.013,0.727,-0.149
1692890,-10608.0,-2910.0,-38.0,0.667,0.013,0.729,-0.154
1692909,-10332.0,-4288.0,158.0,0.664,0.015,0.73,-0.162
1692918,-10042.0,-3420.0,230.0,0.663,0.017,0.728,-0.172
1692936,-8604.0,-866.0,-610.0,0.662,0.018,0.727,-0.181
1692954,-8736.0,-2548.0,110.0,0.662,0.016,0.726,-0.188
1692971,-8562.0,-2408.0,32.0,0.662,0.014,0.723,-0.196
1692990,-8442.0,-2524.0,-14.0,0.663,0.011,0.72,-0.203
1693008,-8266.0,-1778.0,-450.0,0.665,0.008,0.717,-0.21
1693028,-8412.0,-2138.0,-104.0,0.667,0.005,0.714,-0.214
1693047,-8618.0,-2894.0,46.0,0.669,0.003,0.711,-0.217
1693066,-7928.0,-2390.0,-258.0,0.671,0.001,0.708,-0.219
1693075,-8108.0,-2210.0,-32.0,0.673,-0.0,0.707,-0.218
1693094,-8042.0,-2406.0,48.0,0.674,-0.002,0.707,-0.215
1693113,-8896.0,-3208.0,710.0,0.675,-0.002,0.707,-0.212
1693132,-7938.0,-2616.0,-68.0,0.677,-0.001,0.706,-0.208
1693151,-7818.0,-1884.0,126.0,0.678,-0.0,0.706,-0.203
1693169,-7924.0,-2208.0,-12.0,0.679,0.001,0.707,-0.197
1693187,-7756.0,-2182.0,-164.0,0.679,0.002,0.709,-0.19
1693206,-7542.0,-2108.0,-364.0,0.68,0.004,0.71,-0.182
1693214,-7560.0,-1672.0,-168.0,0.68,0.007,0.712,-0.175
1693233,-7796.0,-2266.0,-232.0,0.68,0.008,0.713,-0.168
1693253,-8134.0,-1944.0,-236.0,0.681,0.008,0.714,-0.16
1693271,-7696.0,-1532.0,-578.0,0.683,0.01,0.715,-0.152
1693290,-7614.0,-1538.0,-356.0,0.684,0.011,0.715,-0.142
1693309,-6630.0,-1338.0,-524.0,0.686,0.012,0.715,-0.133
1693328,-6658.0,-1760.0,-694.0,0.688,0.011,0.715,-0.123
1693338,-7188.0,-1482.0,-380.0,0.69,0.011,0.715,-0.113
1693355,-7664.0,-1606.0,50.0,0.691,0.011,0.715,-0.104
1693373,-7152.0,-1784.0,-498.0,0.693,0.011,0.714,-0.094
1693392,-7292.0,-2114.0,-322.0,0.695,0.012,0.714,-0.084
1693410,-7596.0,-244.0,-752.0,0.696,0.012,0.714,-0.073
1693429,-8066.0,-1738.0,82.0,0.698,0.011,0.714,-0.058
1693448,-7704.0,-2160.0,306.0,0.7,0.011,0.712,-0.046
1693467,-5802.0,-1084.0,-248.0,0.702,0.013,0.711,-0.036
1693477,-5386.0,580.0,-110.0,0.703,0.016,0.711,-0.025
1693495,-4774.0,-128.0,-308.0,0.701,0.017,0.713,-0.012
1693514,-4082.0,280.0,-330.0,0.699,0.018,0.715,-0.0
1693534,-3776.0,-34.0,-484.0,0.695,0.019,0.718,0.01
1693552,-4338.0,-386.0,-452.0,0.691,0.018,0.723,0.017
1693570,-4828.0,600.0,-150.0,0.686,0.017,0.727,0.023
1693588,-6110.0,1330.0,70.0,0.683,0.014,0.729,0.028
1693608,-6640.0,-230.0,-314.0,0.682,0.009,0.731,0.033
1693618,-7140.0,-346.0,-308.0,0.681,0.003,0.731,0.035
1693635,-7604.0,338.0,-384.0,0.682,-0.002,0.731,0.036
1693653,-7836.0,1032.0,-322.0,0.683,-0.008,0.729,0.038
1693670,-7742.0,96.0,-448.0,0.686,-0.016,0.727,0.04
1693687,-7732.0,-120.0,-566.0,0.688,-0.023,0.724,0.04
1693705,-7318.0,734.0,-578.0,0.691,-0.03,0.721,0.041
1693722,-7782.0,532.0,-120.0,0.693,-0.038,0.718,0.042
1693739,-7422.0,-386.0,-212.0,0.696,-0.046,0.716,0.043
1693757,-6954.0,492.0,-12.0,0.698,-0.053,0.713,0.042
1693773,-7102.0,-132.0,194.0,0.699,-0.061,0.711,0.04
1693791,-7476.0,34.0,530.0,0.701,-0.069,0.709,0.037
1693809,-7530.0,-92.0,532.0,0.703,-0.077,0.706,0.034
1693827,-6994.0,-170.0,406.0,0.704,-0.084,0.704,0.03
1693846,-6760.0,-214.0,506.0,0.705,-0.093,0.703,0.025
1693863,-7070.0,-876.0,204.0,0.705,-0.101,0.702,0.02
1693882,-7804.0,-398.0,590.0,0.705,-0.109,0.701,0.014
1693900,-7642.0,-1216.0,200.0,0.705,-0.116,0.7,0.007
1693918,-8242.0,-1136.0,212.0,0.704,-0.123,0.699,0.001
1693936,-8634.0,-2028.0,-362.0,0.704,-0.13,0.698,-0.005
1693955,-8788.0,-2662.0,72.0,0.705,-0.135,0.696,-0.013
1693974,-7540.0,388.0,-292.0,0.706,-0.139,0.695,-0.02
1693983,-7542.0,-2696.0,-282.0,0.705,-0.145,0.694,-0.026
1694002,-8014.0,-2350.0,478.0,0.706,-0.15,0.691,-0.033
1694020,-7016.0,-1858.0,160.0,0.706,-0.155,0.689,-0.041
1694038,-6402.0,-2424.0,-612.0,0.706,-0.159,0.688,-0.048
1694056,-6838.0,-1920.0,-102.0,0.705,-0.162,0.689,-0.055
1694074,-7408.0,-2998.0,508.0,0.703,-0.166,0.689,-0.062
1694093,-6978.0,-2298.0,272.0,0.701,-0.169,0.689,-0.069
1694112,-5928.0,-2356.0,-128.0,0.699,-0.171,0.69,-0.076
1694132,-6366.0,-3018.0,300.0,0.696,-0.173,0.692,-0.082
1694141,-6392.0,-1906.0,-36.0,0.693,-0.175,0.694,-0.087
1694159,-6508.0,-2988.0,428.0,0.689,-0.176,0.697,-0.092
1694177,-6142.0,-3568.0,-578.0,0.685,-0.178,0.7,-0.097
1694196,-7008.0,-2340.0,12.0,0.681,-0.179,0.703,-0.102
1694216,-6870.0,-1914.0,-342.0,0.676,-0.18,0.707,-0.105
1694235,-6706.0,-4516.0,-1026.0,0.671,-0.181,0.711,-0.106
1694254,-7798.0,-3770.0,-108.0,0.668,-0.182,0.714,-0.109
1694264,-6730.0,-2590.0,-926.0,0.665,-0.181,0.716,-0.111
1694281,-6784.0,-2854.0,-694.0,0.662,-0.179,0.719,-0.112
1694298,-7202.0,-3326.0,-478.0,0.659,-0.177,0.722,-0.113
1694315,-7858.0,-4156.0,-130.0,0.658,-0.175,0.724,-0.114
1694333,-7544.0,-2838.0,-454.0,0.658,-0.172,0.724,-0.116
1694351,-6896.0,-2614.0,-900.0,0.658,-0.17,0.725,-0.117
1694370,-7744.0,-3806.0,-190.0,0.657,-0.167,0.726,-0.117
1694388,-7788.0,-3518.0,-744.0,0.657,-0.164,0.726,-0.117
1694407,-8086.0,-3682.0,-476.0,0.658,-0.16,0.726,-0.118
1694425,-8034.0,-3346.0,-430.0,0.66,-0.156,0.725,-0.118
1694443,-7528.0,-2862.0,-682.0,0.663,-0.151,0.724,-0.117
1694462,-7762.0,-3018.0,-76.0,0.664,-0.146,0.724,-0.116
1694481,-8206.0,-3122.0,404.0,0.667,-0.141,0.723,-0.115
1694491,-8276.0,-3144.0,536.0,0.669,-0.135,0.722,-0.114
1694509,-8262.0,-2608.0,696.0,0.672,-0.127,0.72,-0.115
1694526,-8406.0,-2852.0,700.0,0.676,-0.119,0.718,-0.116
1694545,-7940.0,-2920.0,266.0,0.679,-0.111,0.716,-0.118
1694564,-8324.0,-1128.0,378.0,0.681,-0.105,0.715,-0.12
1694583,-8834.0,-2704.0,242.0,0.683,-0.099,0.713,-0.122
1694602,-8882.0,-2430.0,206.0,0.686,-0.092,0.711,-0.124
1694622,-9322.0,-2190.0,564.0,0.688,-0.086,0.709,-0.127
1694631,-8802.0,-2852.0,-48.0,0.691,-0.079,0.707,-0.129
1694651,-9152.0,-2238.0,134.0,0.693,-0.073,0.705,-0.132
1694670,-9778.0,-3200.0,426.0,0.695,-0.067,0.703,-0.134
1694687,-9558.0,-2822.0,384.0,0.698,-0.06,0.701,-0.137
1694705,-8714.0,-2390.0,-186.0,0.699,-0.054,0.7,-0.139
1694723,-9178.0,-2966.0,288.0,0.699,-0.049,0.7,-0.14
1694741,-9884.0,-2830.0,330.0,0.698,-0.045,0.701,-0.141
1694759,-10010.0,-3340.0,520.0,0.698,-0.04,0.701,-0.143
1694777,-9758.0,-3126.0,358.0,0.698,-0.035,0.701,-0.144
1694796,-9812.0,-3200.0,412.0,0.697,-0.031,0.701,-0.146
1694805,-9896.0,-2674.0,392.0,0.696,-0.027,0.702,-0.147
1694823,-10316.0,-3100.0,546.0,0.694,-0.024,0.704,-0.148
1694841,-10096.0,-3096.0,476.0,0.693,-0.02,0.705,-0.15
1694859,-9796.0,-2554.0,426.0,0.692,-0.017,0.706,-0.153
1694877,-9576.0,-2724.0,324.0,0.69,-0.013,0.707,-0.155
1694896,-9574.0,-2078.0,484.0,0.687,-0.011,0.709,-0.158
1694914,-9676.0,-2378.0,486.0,0.685,-0.008,0.711,-0.16
1694933,-9066.0,-2294.0,250.0,0.683,-0.005,0.712,-0.162
1694952,-8844.0,-1934.0,386.0,0.68,-0.003,0.714,-0.165
1694970,-8742.0,-1876.0,222.0,0.677,-0.001,0.717,-0.167
1694979,-9154.0,-1362.0,516.0,0.674,0.0,0.719,-0.169
1694997,-8956.0,-1938.0,62.0,0.671,0.001,0.721,-0.17
1695015,-8610.0,-2058.0,-234.0,0.669,0.002,0.723,-0.171
1695033,-8738.0,-2382.0,-440.0,0.666,0.001,0.726,-0.172
1695051,-9574.0,-2468.0,-220.0,0.663,-0.0,0.728,-0.172
1695069,-9802.0,-2604.0,-302.0,0.661,-0.001,0.73,-0.173
1695087,-9414.0,-2954.0,-968.0,0.659,-0.003,0.732,-0.172
1695105,-10048.0,-2962.0,-530.0,0.658,-0.004,0.734,-0.171
1695123,-9950.0,-3242.0,-886.0,0.656,-0.006,0.735,-0.169
1695141,-9758.0,-2730.0,-978.0,0.656,-0.008,0.736,-0.167
1695159,-9800.0,-3584.0,-664.0,0.655,-0.01,0.737,-0.164
1695178,-9244.0,-2662.0,-1034.0,0.655,-0.012,0.738,-0.161
1695197,-9186.0,-2182.0,-946.0,0.655,-0.014,0.739,-0.157
1695206,-9072.0,-2480.0,-748.0,0.655,-0.016,0.74,-0.153
1695224,-8668.0,-2190.0,-790.0,0.654,-0.019,0.741,-0.149
1695242,-8294.0,-1778.0,-876.0,0.653,-0.022,0.743,-0.145
1695260,-8024.0,-1286.0,-1098.0,0.652,-0.026,0.745,-0.141
1695279,-8444.0,-1846.0,-850.0,0.65,-0.031,0.747,-0.137
1695299,-8570.0,-1990.0,-778.0,0.648,-0.037,0.749,-0.132
1695319,-8530.0,-1784.0,-998.0,0.647,-0.042,0.751,-0.128
1695338,-7942.0,-1584.0,-1310.0,0.645,-0.048,0.752,-0.123
1695347,-7956.0,-2108.0,-1296.0,0.643,-0.056,0.755,-0.118
1695366,-7592.0,-1784.0,-2036.0,0.64,-0.064,0.758,-0.113
1695386,-8398.0,-1798.0,-2170.0,0.637,-0.074,0.76,-0.108
1695404,-8922.0,-1738.0,-2384.0,0.635,-0.084,0.761,-0.1
1695422,-9262.0,-1584.0,-3252.0,0.634,-0.094,0.762,-0.093
1695440,-9974.0,-2788.0,-2384.0,0.636,-0.105,0.76,-0.086
1695458,-9524.0,-1262.0,-2320.0,0.64,-0.113,0.756,-0.081
1695476,-8798.0,-2316.0,-1514.0,0.645,-0.122,0.751,-0.076
1695495,-8270.0,-2322.0,-960.0,0.651,-0.132,0.744,-0.073
1695503,-7572.0,-1086.0,-1028.0,0.658,-0.144,0.736,-0.069
1695520,-7180.0,-1926.0,-370.0,0.664,-0.156,0.728,-0.065
1695539,-6140.0,-1866.0,-346.0,0.67,-0.166,0.721,-0.061
1695558,-5696.0,-2084.0,-1192.0,0.672,-0.179,0.716,-0.055
1695577,-7014.0,-2874.0,-312.0,0.673,-0.195,0.712,-0.046
1695595,-7972.0,-2746.0,-480.0,0.675,-0.209,0.707,-0.037
1695615,-8318.0,-2864.0,-1044.0,0.676,-0.222,0.702,-0.026
1695634,-8802.0,-3800.0,-902.0,0.677,-0.238,0.697,-0.015
1695643,-8760.0,-2902.0,-1056.0,0.678,-0.255,0.69,-0.002
1695661,-8080.0,-3562.0,-436.0,0.68,-0.27,0.682,0.01
1695680,-8198.0,-2376.0,674.0,0.682,-0.283,0.674,0.022
1695700,-7988.0,-2348.0,-10.0,0.683,-0.296,0.667,0.035
1695719,-7066.0,-2884.0,-308.0,0.684,-0.307,0.659,0.048
1695737,-6012.0,-2010.0,1046.0,0.685,-0.317,0.653,0.063
1695755,-5840.0,-1826.0,338.0,0.683,-0.326,0.649,0.077
1695774,-5758.0,-3044.0,-292.0,0.68,-0.333,0.646,0.092
1695783,-5800.0,-3042.0,-148.0,0.678,-0.338,0.645,0.106
1695802,-6696.0,-68.0,1104.0,0.674,-0.339,0.644,0.122
1695819,-6574.0,-4618.0,-970.0,0.672,-0.338,0.644,0.138
1695837,-6028.0,-2960.0,80.0,0.672,-0.333,0.644,0.151
1695855,-5190.0,-4302.0,464.0,0.675,-0.325,0.642,0.161
1695873,-4304.0,-1308.0,-264.0,0.678,-0.318,0.641,0.169
1695892,-3336.0,-1736.0,74.0,0.679,-0.313,0.64,0.178
1695911,-3048.0,-3004.0,68.0,0.679,-0.308,0.641,0.183
1695930,-3762.0,-2670.0,26.0,0.678,-0.304,0.644,0.184
1695950,-4912.0,-2136.0,474.0,0.676,-0.3,0.648,0.184
1695959,-5462.0,-3646.0,-100.0,0.674,-0.295,0.652,0.181
1695977,-5832.0,-2612.0,-1008.0,0.673,-0.291,0.657,0.175
1695995,-7322.0,-2038.0,-910.0,0.672,-0.286,0.661,0.168
1696015,-8022.0,-2298.0,-402.0,0.673,-0.28,0.665,0.162
1696033,-7766.0,-2888.0,-934.0,0.675,-0.271,0.669,0.155
1696051,-7490.0,-2706.0,-850.0,0.677,-0.262,0.672,0.147
1696069,-7798.0,-1898.0,-218.0,0.68,-0.254,0.674,0.139
1696088,-7238.0,-1410.0,-620.0,0.682,-0.246,0.676,0.132
1696106,-6928.0,-2074.0,-92.0,0.684,-0.239,0.678,0.124
1696114,-6570.0,-1962.0,-160.0,0.686,-0.234,0.679,0.115
1696132,-6806.0,-660.0,-858.0,0.686,-0.23,0.681,0.107
1696151,-7704.0,-160.0,44.0,0.686,-0.228,0.683,0.102
1696169,-7740.0,-1088.0,-462.0,0.686,-0.227,0.685,0.096
1696187,-6758.0,-1196.0,-560.0,0.685,-0.227,0.686,0.091
1696205,-7022.0,-456.0,-170.0,0.682,-0.23,0.689,0.085
1696222,-7680.0,-1038.0,90.0,0.68,-0.232,0.691,0.08
1696240,-7646.0,-1192.0,310.0,0.679,-0.232,0.692,0.073
1696258,-6756.0,-1188.0,-172.0,0.678,-0.233,0.694,0.066
1696276,-7416.0,-708.0,130.0,0.675,-0.237,0.697,0.059
1696294,-7720.0,-1924.0,-278.0,0.672,-0.241,0.699,0.052
1696313,-6768.0,-1600.0,-644.0,0.669,-0.245,0.701,0.045
1696333,-7174.0,-1744.0,-728.0,0.664,-0.251,0.703,0.039
1696352,-7280.0,-2722.0,-1252.0,0.66,-0.255,0.706,0.033
1696361,-6962.0,-3018.0,-1016.0,0.655,-0.259,0.709,0.026
1696379,-6468.0,-3240.0,-1176.0,0.653,-0.258,0.712,0.019
1696398,-4366.0,-2110.0,-3202.0,0.65,-0.254,0.716,0.011
1696416,-6146.0,-1880.0,-1148.0,0.646,-0.253,0.72,0.006
1696436,-6078.0,-2966.0,-1272.0,0.642,-0.251,0.725,0.001
1696455,-5804.0,-3198.0,-1182.0,0.639,-0.248,0.728,-0.006
1696473,-5382.0,-2360.0,-1988.0,0.636,-0.245,0.732,-0.013
1696483,-5782.0,-2250.0,-1620.0,0.632,-0.241,0.736,-0.019
1696502,-6590.0,-2368.0,-1580.0,0.628,-0.238,0.741,-0.023
1696521,-7456.0,-3298.0,-1598.0,0.625,-0.232,0.745,-0.027
1696540,-6646.0,-3230.0,-2310.0,0.624,-0.224,0.748,-0.033
1696559,-7882.0,-2930.0,-1338.0,0.623,-0.216,0.751,-0.036
1696578,-7502.0,-2816.0,-1506.0,0.624,-0.206,0.753,-0.04
1696588,-7002.0,-2624.0,-1382.0,0.625,-0.195,0.754,-0.044
1696605,-7330.0,-2578.0,-722.0,0.627,-0.183,0.755,-0.049
1696624,-7214.0,-2278.0,-394.0,0.63,-0.171,0.755,-0.053
1696642,-6836.0,-2000.0,-772.0,0.633,-0.159,0.756,-0.059
1696660,-7122.0,-828.0,-476.0,0.634,-0.148,0.756,-0.064
1696680,-7506.0,-1584.0,-504.0,0.635,-0.138,0.757,-0.069
1696699,-8370.0,-2354.0,-424.0,0.634,-0.13,0.759,-0.074
1696718,-9554.0,-1808.0,-722.0,0.634,-0.121,0.759,-0.081
1696727,-9002.0,-860.0,-1644.0,0.634,-0.112,0.76,-0.087
1696746,-9584.0,-1606.0,-1196.0,0.632,-0.105,0.762,-0.092
1696766,-9434.0,-1958.0,-1438.0,0.63,-0.099,0.765,-0.096
1696786,-9834.0,-1394.0,-1396.0,0.627,-0.094,0.767,-0.099
1696804,-9904.0,-1336.0,-1564.0,0.624,-0.089,0.77,-0.102
1696822,-9960.0,-1362.0,-1666.0,0.621,-0.086,0.773,-0.103
1696841,-9622.0,-1910.0,-1884.0,0.618,-0.083,0.775,-0.104
1696850,-9744.0,-1924.0,-1740.0,0.614,-0.08,0.778,-0.105
1696868,-9762.0,-2076.0,-1866.0,0.611,-0.08,0.78,-0.106
1696886,-9534.0,-2124.0,-1912.0,0.609,-0.079,0.782,-0.108
1696904,-9352.0,-2164.0,-2030.0,0.607,-0.079,0.783,-0.109
1696923,-9046.0,-2486.0,-2182.0,0.605,-0.079,0.784,-0.111
1696940,-8870.0,-2470.0,-2310.0,0.604,-0.08,0.785,-0.113
1696957,-9116.0,-3110.0,-2336.0,0.603,-0.081,0.786,-0.115
1696976,-9144.0,-3044.0,-2556.0,0.602,-0.081,0.786,-0.116
1696995,-9030.0,-3630.0,-2848.0,0.602,-0.081,0.785,-0.118
1697014,-8944.0,-3652.0,-2934.0,0.602,-0.081,0.785,-0.12
1697033,-9052.0,-3844.0,-3102.0,0.603,-0.082,0.784,-0.121
1697042,-9172.0,-3906.0,-2892.0,0.604,-0.082,0.783,-0.123
1697062,-9094.0,-3856.0,-2952.0,0.605,-0.081,0.782,-0.125
1697080,-8782.0,-3026.0,-2928.0,0.607,-0.08,0.78,-0.127
1697098,-8354.0,-2760.0,-2916.0,0.609,-0.078,0.779,-0.128
1697117,-8390.0,-3080.0,-2530.0,0.61,-0.077,0.778,-0.128
1697134,-8346.0,-2940.0,-2312.0,0.611,-0.076,0.777,-0.128
1697151,-8466.0,-2880.0,-1926.0,0.613,-0.074,0.776,-0.129
1697169,-8408.0,-2732.0,-1906.0,0.614,-0.072,0.775,-0.13
1697186,-8290.0,-2202.0,-1862.0,0.614,-0.07,0.775,-0.13
1697204,-8556.0,-2604.0,-1594.0,0.614,-0.068,0.775,-0.131
1697221,-8694.0,-2556.0,-1570.0,0.614,-0.066,0.775,-0.132
1697239,-8754.0,-2644.0,-1572.0,0.613,-0.064,0.776,-0.134
1697258,-8492.0,-2286.0,-1830.0,0.612,-0.061,0.777,-0.136
1697276,-8530.0,-2714.0,-1874.0,0.61,-0.059,0.778,-0.138
1697294,-8950.0,-2644.0,-1692.0,0.607,-0.058,0.78,-0.141
1697313,-9514.0,-3056.0,-1516.0,0.605,-0.058,0.781,-0.143
1697322,-9222.0,-3230.0,-1908.0,0.604,-0.056,0.781,-0.147
1697340,-8872.0,-3452.0,-2492.0,0.603,-0.055,0.782,-0.15
1697358,-9450.0,-3896.0,-2350.0,0.602,-0.055,0.782,-0.152
1697376,-9848.0,-3474.0,-2528.0,0.601,-0.055,0.783,-0.153
1697395,-10306.0,-4452.0,-2362.0,0.602,-0.055,0.782,-0.154
1697414,-9900.0,-3894.0,-2420.0,0.604,-0.054,0.78,-0.154
1697433,-9200.0,-4084.0,-2782.0,0.606,-0.053,0.779,-0.153
1697453,-9844.0,-3302.0,-2114.0,0.608,-0.052,0.777,-0.151
1697462,-9526.0,-3178.0,-2148.0,0.612,-0.051,0.775,-0.148
1697481,-8870.0,-3292.0,-2268.0,0.615,-0.05,0.774,-0.145
1697500,-9356.0,-2500.0,-1410.0,0.618,-0.049,0.772,-0.141
1697518,-8830.0,-2126.0,-1648.0,0.62,-0.049,0.771,-0.137
1697537,-8942.0,-1844.0,-1380.0,0.623,-0.048,0.77,-0.132
1697555,-8544.0,-1596.0,-1082.0,0.625,-0.046,0.768,-0.128
1697574,-7898.0,-1294.0,-1276.0,0.627,-0.046,0.768,-0.124
1697592,-7654.0,-884.0,-1320.0,0.628,-0.046,0.767,-0.12
1697601,-8012.0,-808.0,-1078.0,0.629,-0.048,0.767,-0.115
1697619,-8154.0,-1472.0,-824.0,0.63,-0.049,0.767,-0.112
1697637,-7478.0,-490.0,-1158.0,0.632,-0.051,0.766,-0.109
1697655,-7186.0,-1568.0,-1608.0,0.632,-0.053,0.766,-0.107
1697673,-8180.0,-248.0,-1200.0,0.633,-0.057,0.765,-0.104
1697691,-8484.0,-2696.0,-1120.0,0.634,-0.062,0.764,-0.102
1697710,-8422.0,-2528.0,-1202.0,0.637,-0.065,0.762,-0.103
1697729,-8824.0,-1370.0,-520.0,0.641,-0.068,0.757,-0.104
1697746,-7942.0,-1664.0,-616.0,0.647,-0.071,0.752,-0.106
1697765,-6820.0,-940.0,-1566.0,0.652,-0.075,0.746,-0.107
1697785,-8044.0,-1590.0,-1108.0,0.657,-0.082,0.742,-0.106
1697793,-8176.0,-3056.0,-944.0,0.662,-0.088,0.737,-0.104
1697811,-8720.0,-2220.0,-1374.0,0.667,-0.093,0.732,-0.1
1697829,-8432.0,-2266.0,-1210.0,0.671,-0.099,0.729,-0.094
1697849,-8714.0,-2184.0,-346.0,0.676,-0.103,0.725,-0.085
1697868,-7980.0,-2648.0,-604.0,0.68,-0.106,0.722,-0.075
1697886,-7490.0,-2500.0,-1010.0,0.684,-0.108,0.718,-0.064
1697905,-7798.0,-2142.0,60.0,0.688,-0.11,0.715,-0.053
1697924,-7188.0,-2158.0,38.0,0.692,-0.111,0.712,-0.041
1697933,-6576.0,-356.0,-480.0,0.694,-0.112,0.711,-0.027
1697951,-6724.0,-2134.0,-632.0,0.695,-0.112,0.71,-0.011
1697969,-7082.0,-1156.0,278.0,0.696,-0.112,0.709,0.004
1697987,-6288.0,-1866.0,-450.0,0.697,-0.11,0.709,0.019
1698005,-5934.0,-844.0,158.0,0.697,-0.107,0.708,0.033
1698022,-5342.0,-1612.0,252.0,0.697,-0.104,0.708,0.045
1698041,-4342.0,-614.0,-112.0,0.697,-0.1,0.708,0.055
1698059,-5198.0,24.0,-198.0,0.696,-0.097,0.709,0.066
1698077,-5050.0,806.0,-336.0,0.694,-0.097,0.709,0.08
1698096,-5646.0,-570.0,250.0,0.693,-0.097,0.708,0.092
1698115,-5748.0,-790.0,-210.0,0.692,-0.096,0.708,0.103
1698134,-5724.0,-1076.0,-284.0,0.691,-0.096,0.707,0.113
1698144,-5480.0,-1016.0,-382.0,0.69,-0.097,0.707,0.12
1698163,-5520.0,-1322.0,-348.0,0.689,-0.1,0.708,0.122
1698180,-5858.0,-946.0,-220.0,0.687,-0.103,0.708,0.123
1698199,-6734.0,-386.0,-36.0,0.687,-0.106,0.709,0.122
1698217,-7060.0,-328.0,-372.0,0.686,-0.11,0.709,0.121
1698236,-7434.0,-756.0,-832.0,0.686,-0.114,0.709,0.119
1698254,-8002.0,-348.0,-382.0,0.686,-0.118,0.709,0.117
1698273,-8202.0,-1060.0,-296.0,0.686,-0.121,0.708,0.115
1698291,-7672.0,-670.0,-392.0,0.687,-0.124,0.707,0.112
1698300,-7108.0,-542.0,-200.0,0.689,-0.128,0.706,0.108
1698317,-6634.0,-138.0,142.0,0.689,-0.131,0.705,0.104
1698335,-5852.0,-190.0,176.0,0.689,-0.134,0.705,0.1
1698353,-5010.0,-800.0,76.0,0.688,-0.136,0.707,0.094
1698371,-4856.0,-682.0,-52.0,0.685,-0.138,0.71,0.087
1698389,-5032.0,-220.0,350.0,0.682,-0.141,0.713,0.079
1698407,-5120.0,-468.0,422.0,0.678,-0.144,0.717,0.069
1698425,-5266.0,-280.0,-66.0,0.674,-0.148,0.721,0.059
1698444,-5796.0,260.0,-162.0,0.669,-0.153,0.726,0.049
1698461,-6510.0,-650.0,-444.0,0.663,-0.158,0.73,0.04
1698479,-7368.0,-762.0,-612.0,0.657,-0.163,0.735,0.03
1698497,-8156.0,-972.0,-532.0,0.651,-0.169,0.739,0.022
1698515,-8556.0,-2126.0,-1292.0,0.645,-0.174,0.744,0.015
1698533,-8608.0,-2642.0,-1294.0,0.641,-0.176,0.747,0.006
1698550,-8354.0,-1942.0,-1800.0,0.635,-0.178,0.751,-0.003
1698568,-9928.0,-3166.0,-1028.0,0.63,-0.181,0.755,-0.009
1698586,-8734.0,-2874.0,-2116.0,0.627,-0.18,0.758,-0.018
1698603,-8248.0,-2572.0,-1588.0,0.623,-0.179,0.761,-0.026
1698621,-7350.0,-2058.0,-2000.0,0.618,-0.177,0.765,-0.033
1698639,-7858.0,-2750.0,-2358.0,0.614,-0.176,0.769,-0.04
1698656,-8200.0,-2892.0,-1800.0,0.61,-0.174,0.772,-0.047
1698674,-7554.0,-2436.0,-1798.0,0.607,-0.17,0.775,-0.055
1698692,-7380.0,-2544.0,-1674.0,0.603,-0.167,0.778,-0.062
1698711,-7536.0,-2926.0,-1530.0,0.601,-0.164,0.78,-0.069
1698721,-7180.0,-2270.0,-1620.0,0.599,-0.16,0.781,-0.078
1698739,-6464.0,-1990.0,-2730.0,0.595,-0.157,0.784,-0.085
1698757,-7994.0,-1974.0,-2696.0,0.592,-0.154,0.786,-0.09
1698777,-8908.0,-4086.0,-2194.0,0.59,-0.15,0.787,-0.095
1698796,-7782.0,-3252.0,-2882.0,0.59,-0.145,0.787,-0.103
1698815,-7884.0,-3132.0,-2478.0,0.59,-0.14,0.787,-0.109
1698825,-7512.0,-2852.0,-2000.0,0.591,-0.134,0.787,-0.115
1698843,-7364.0,-2416.0,-1446.0,0.591,-0.128,0.787,-0.121
1698863,-6846.0,-2044.0,-1432.0,0.591,-0.121,0.787,-0.125
1698881,-6820.0,-1846.0,-948.0,0.591,-0.114,0.788,-0.13
1698900,-5652.0,-2238.0,-2674.0,0.59,-0.108,0.789,-0.134
1698919,-7326.0,-2048.0,-1412.0,0.588,-0.103,0.791,-0.136
1698938,-7496.0,-2632.0,-1650.0,0.587,-0.098,0.792,-0.139
1698947,-7692.0,-2122.0,-2066.0,0.586,-0.093,0.792,-0.142
1698966,-7610.0,-3096.0,-3328.0,0.586,-0.088,0.793,-0.143
1698985,-8290.0,-3170.0,-2270.0,0.587,-0.084,0.792,-0.145
1699003,-8560.0,-3048.0,-2374.0,0.589,-0.079,0.791,-0.146
1699020,-9146.0,-3238.0,-1994.0,0.593,-0.075,0.788,-0.147
1699040,-8544.0,-3538.0,-2502.0,0.598,-0.071,0.784,-0.149
1699058,-9166.0,-3100.0,-1874.0,0.603,-0.068,0.78,-0.151
1699077,-8660.0,-3046.0,-2074.0,0.609,-0.065,0.775,-0.153
1699087,-8812.0,-2288.0,-1764.0,0.615,-0.063,0.771,-0.153
1699106,-8434.0,-3200.0,-1818.0,0.62,-0.06,0.767,-0.153
1699125,-8106.0,-2752.0,-1796.0,0.625,-0.058,0.764,-0.152
1699143,-8072.0,-2742.0,-1724.0,0.628,-0.056,0.762,-0.15
1699162,-8270.0,-2928.0,-1498.0,0.631,-0.055,0.76,-0.146
1699180,-8656.0,-2990.0,-1562.0,0.633,-0.053,0.759,-0.142
1699199,-8774.0,-3230.0,-1390.0,0.636,-0.051,0.758,-0.138
1699209,-8708.0,-3192.0,-1482.0,0.638,-0.048,0.756,-0.134
1699232,-8780.0,-3048.0,-1388.0,0.641,-0.046,0.755,-0.13
1699251,-8440.0,-2114.0,-1526.0,0.644,-0.045,0.754,-0.125
1699270,-9076.0,-3158.0,-1176.0,0.647,-0.044,0.752,-0.119
1699278,-9076.0,-2560.0,-1180.0,0.651,-0.042,0.75,-0.115
1699296,-9028.0,-2654.0,-1104.0,0.655,-0.04,0.747,-0.111
1699315,-9238.0,-2828.0,-1010.0,0.659,-0.038,0.743,-0.108
1699334,-9036.0,-1556.0,-832.0,0.664,-0.036,0.739,-0.107
1699352,-8938.0,-2058.0,-676.0,0.669,-0.034,0.735,-0.104
1699371,-8852.0,-1728.0,-490.0,0.674,-0.032,0.731,-0.103
1699389,-8776.0,-1788.0,-416.0,0.678,-0.031,0.727,-0.102
1699408,-8666.0,-1564.0,-442.0,0.683,-0.029,0.723,-0.101
1699426,-8576.0,-1062.0,-314.0,0.686,-0.027,0.72,-0.1
1699445,-8554.0,-2040.0,-240.0,0.69,-0.024,0.716,-0.1
1699453,-8650.0,-1528.0,168.0,0.694,-0.021,0.713,-0.1
1699471,-8800.0,-1714.0,246.0,0.697,-0.018,0.71,-0.1
1699488,-8580.0,-1966.0,204.0,0.7,-0.013,0.706,-0.101
1699505,-8538.0,-1714.0,394.0,0.703,-0.008,0.703,-0.104
1699522,-8560.0,-1376.0,590.0,0.705,-0.003,0.701,-0.106
1699540,-8564.0,-1422.0,338.0,0.707,0.002,0.699,-0.107
1699558,-8758.0,-1398.0,460.0,0.708,0.007,0.698,-0.109
1699577,-8572.0,-896.0,244.0,0.708,0.012,0.698,-0.111
1699597,-8614.0,-1226.0,276.0,0.707,0.017,0.699,-0.111
1699616,-8930.0,-1260.0,426.0,0.705,0.021,0.7,-0.111
1699635,-8750.0,-820.0,28.0,0.702,0.025,0.703,-0.111
1699653,-9586.0,-982.0,260.0,0.699,0.027,0.706,-0.11
1699671,-9714.0,-1396.0,344.0,0.695,0.029,0.71,-0.109
1699679,-9832.0,-1170.0,216.0,0.691,0.031,0.713,-0.11
1699697,-9868.0,-1046.0,14.0,0.687,0.031,0.717,-0.111
1699717,-10176.0,-1074.0,-118.0,0.683,0.03,0.721,-0.113
1699735,-10384.0,-1300.0,-392.0,0.679,0.029,0.725,-0.114
1699753,-10658.0,-1174.0,-852.0,0.676,0.026,0.727,-0.116
1699772,-12186.0,-2694.0,-420.0,0.675,0.023,0.728,-0.118
1699790,-12542.0,-3578.0,-622.0,0.676,0.019,0.727,-0.124
1699808,-12722.0,-2932.0,-766.0,0.679,0.016,0.722,-0.131
1699827,-11784.0,-2218.0,-864.0,0.684,0.013,0.716,-0.139
1699846,-11048.0,-1880.0,-578.0,0.689,0.009,0.71,-0.145
1699855,-10214.0,-2574.0,-624.0,0.694,0.005,0.704,-0.15
1699874,-9424.0,-1536.0,-504.0,0.699,0.002,0.698,-0.155
1699892,-8898.0,-1404.0,-406.0,0.702,-0.0,0.694,-0.159
1699911,-8316.0,-1196.0,-296.0,0.705,-0.002,0.691,-0.161
1699931,-8018.0,-1362.0,4.0,0.707,-0.005,0.688,-0.163
1699950,-7604.0,-1618.0,-70.0,0.708,-0.006,0.686,-0.165
1699969,-7486.0,-704.0,100.0,0.709,-0.006,0.685,-0.166
1699978,-7968.0,-980.0,358.0,0.709,-0.006,0.685,-0.166
1699996,-7588.0,-1408.0,300.0,0.71,-0.006,0.685,-0.165
1700015,-7620.0,-1964.0,492.0,0.71,-0.005,0.684,-0.166
1700034,-7482.0,-1270.0,470.0,0.711,-0.004,0.683,-0.167
1700053,-7606.0,-1730.0,644.0,0.712,-0.002,0.681,-0.169
1700071,-8132.0,-1322.0,840.0,0.715,-0.001,0.679,-0.17
1700089,-8260.0,-2074.0,1220.0,0.719,0.0,0.674,-0.171
1700107,-7602.0,-2402.0,606.0,0.723,0.002,0.668,-0.174
1700125,-7428.0,-1428.0,772.0,0.729,0.004,0.662,-0.176
1700143,-7632.0,-1428.0,1194.0,0.734,0.005,0.656,-0.177
1700152,-7314.0,-1312.0,1244.0,0.739,0.006,0.65,-0.177
1700169,-7410.0,-2122.0,1492.0,0.745,0.006,0.644,-0.176
1700186,-7158.0,-1426.0,1578.0,0.749,0.007,0.639,-0.174
1700203,-7530.0,-1454.0,1242.0,0.752,0.007,0.637,-0.169
1700222,-8894.0,-2282.0,2218.0,0.754,0.006,0.636,-0.161
1700240,-8214.0,-2652.0,1590.0,0.756,0.006,0.636,-0.152
1700259,-8112.0,-1832.0,1476.0,0.758,0.008,0.637,-0.141
1700278,-8538.0,-1676.0,2360.0,0.759,0.009,0.638,-0.129
1700298,-8644.0,-722.0,2892.0,0.761,0.011,0.639,-0.116
1700317,-7478.0,-1230.0,2040.0,0.763,0.012,0.639,-0.102
1700336,-6490.0,-454.0,1468.0,0.764,0.014,0.639,-0.088
1700344,-6678.0,-34.0,1938.0,0.764,0.016,0.641,-0.074
1700362,-6890.0,1266.0,2630.0,0.764,0.017,0.643,-0.057
1700381,-5526.0,426.0,1872.0,0.763,0.017,0.645,-0.04
1700400,-4054.0,374.0,1160.0,0.761,0.018,0.648,-0.025
1700418,-4490.0,1444.0,1054.0,0.756,0.017,0.654,-0.008
1700436,-4916.0,172.0,1324.0,0.751,0.015,0.66,0.009
1700454,-5622.0,-748.0,1484.0,0.747,0.014,0.665,0.023
1700472,-5326.0,768.0,1580.0,0.743,0.012,0.669,0.034
1700491,-5326.0,-218.0,1018.0,0.739,0.009,0.672,0.044
1700510,-5410.0,48.0,518.0,0.735,0.004,0.676,0.051
1700519,-6212.0,144.0,962.0,0.732,-0.001,0.679,0.057
1700536,-6960.0,-232.0,1200.0,0.73,-0.009,0.68,0.061
1700554,-6954.0,-914.0,748.0,0.73,-0.017,0.681,0.063
1700571,-6482.0,-770.0,502.0,0.729,-0.026,0.681,0.062
1700588,-6832.0,492.0,438.0,0.729,-0.035,0.681,0.061
1700606,-7280.0,-460.0,624.0,0.728,-0.045,0.681,0.061
1700624,-7264.0,-838.0,172.0,0.728,-0.054,0.68,0.06
1700642,-7218.0,-908.0,284.0,0.728,-0.063,0.68,0.057
1700661,-7414.0,-966.0,460.0,0.729,-0.072,0.679,0.053
1700680,-6626.0,-818.0,14.0,0.728,-0.081,0.679,0.049
1700699,-6912.0,-512.0,212.0,0.727,-0.089,0.68,0.046
1700717,-7796.0,-1256.0,196.0,0.725,-0.096,0.681,0.042
1700734,-8644.0,-1234.0,846.0,0.724,-0.103,0.681,0.039
1700752,-7882.0,-1556.0,674.0,0.724,-0.109,0.68,0.034
1700771,-7024.0,-1050.0,-10.0,0.724,-0.116,0.679,0.028
1700790,-8068.0,-518.0,846.0,0.724,-0.122,0.679,0.025
1700800,-8320.0,-2346.0,676.0,0.724,-0.128,0.678,0.021
1700818,-7764.0,-1412.0,362.0,0.724,-0.134,0.677,0.015
1700836,-7470.0,-984.0,40.0,0.724,-0.139,0.676,0.01
1700855,-7908.0,-1382.0,562.0,0.723,-0.144,0.676,0.006
1700873,-7382.0,-1704.0,392.0,0.722,-0.15,0.676,0.002
1700892,-6922.0,-2118.0,-298.0,0.72,-0.154,0.676,-0.003
1700911,-7788.0,-1554.0,80.0,0.718,-0.159,0.678,-0.008
1700930,-8310.0,-2066.0,282.0,0.715,-0.164,0.679,-0.011
1700949,-7894.0,-2212.0,146.0,0.713,-0.168,0.68,-0.015
1700958,-7420.0,-2758.0,126.0,0.712,-0.171,0.681,-0.019
1700977,-7218.0,-2492.0,-130.0,0.71,-0.175,0.682,-0.024
1700996,-7660.0,-2122.0,148.0,0.708,-0.179,0.683,-0.028
1701015,-7240.0,-2716.0,-12.0,0.707,-0.182,0.683,-0.033
1701034,-6534.0,-2624.0,-846.0,0.705,-0.186,0.683,-0.037
1701043,-7922.0,-2186.0,-108.0,0.702,-0.191,0.685,-0.04
1701062,-8232.0,-2710.0,-152.0,0.7,-0.196,0.685,-0.042
1701082,-7488.0,-2146.0,-600.0,0.698,-0.2,0.686,-0.044
1701101,-7126.0,-2668.0,-118.0,0.696,-0.205,0.687,-0.045
1701120,-6944.0,-3264.0,-464.0,0.692,-0.212,0.688,-0.045
1701137,-7758.0,-3056.0,-22.0,0.69,-0.217,0.689,-0.046
1701155,-7208.0,-3208.0,-252.0,0.687,-0.221,0.691,-0.047
1701174,-6254.0,-3286.0,-1100.0,0.685,-0.223,0.692,-0.049
1701183,-7090.0,-3200.0,-446.0,0.681,-0.226,0.694,-0.051
1701202,-7108.0,-3204.0,-676.0,0.679,-0.228,0.696,-0.053
1701221,-6982.0,-3332.0,-638.0,0.676,-0.229,0.698,-0.056
1701240,-6592.0,-3732.0,-984.0,0.674,-0.23,0.7,-0.058
1701258,-6856.0,-3692.0,-652.0,0.672,-0.23,0.701,-0.062
1701278,-6658.0,-3064.0,-1058.0,0.67,-0.229,0.703,-0.065
1701298,-6800.0,-3990.0,-1004.0,0.669,-0.227,0.704,-0.068
1701307,-7646.0,-4870.0,-94.0,0.67,-0.225,0.704,-0.072
1701325,-5760.0,-3092.0,-824.0,0.672,-0.219,0.703,-0.078
1701344,-6114.0,-2874.0,-1630.0,0.673,-0.215,0.703,-0.082
1701363,-6392.0,-3454.0,-1200.0,0.672,-0.21,0.705,-0.084
1701383,-7448.0,-3654.0,-356.0,0.672,-0.203,0.707,-0.087
1701401,-7080.0,-3288.0,-758.0,0.671,-0.196,0.709,-0.089
1701409,-6792.0,-3524.0,-1006.0,0.671,-0.188,0.711,-0.092
1701429,-6886.0,-2934.0,-752.0,0.67,-0.18,0.714,-0.094
1701448,-7544.0,-3066.0,-224.0,0.669,-0.172,0.716,-0.095
1701467,-7204.0,-3708.0,-362.0,0.67,-0.161,0.718,-0.097
1701486,-7408.0,-2830.0,80.0,0.671,-0.151,0.72,-0.099
1701504,-6778.0,-2838.0,-414.0,0.671,-0.139,0.721,-0.1
1701523,-7262.0,-1360.0,96.0,0.671,-0.127,0.723,-0.1
1701540,-7596.0,-2952.0,44.0,0.671,-0.115,0.725,-0.099
1701558,-8012.0,-2036.0,252.0,0.672,-0.103,0.727,-0.099
1701576,-7852.0,-1900.0,238.0,0.673,-0.09,0.727,-0.099
1701586,-8184.0,-934.0,-90.0,0.673,-0.078,0.729,-0.098
1701603,-8688.0,-1238.0,46.0,0.673,-0.066,0.73,-0.096
1701621,-9162.0,-1624.0,-218.0,0.674,-0.055,0.731,-0.094
1701640,-9238.0,-698.0,-650.0,0.674,-0.044,0.732,-0.092
1701658,-10092.0,-1452.0,-618.0,0.673,-0.032,0.733,-0.09
1701676,-10904.0,-1464.0,-674.0,0.672,-0.02,0.735,-0.087
1701695,-11006.0,-1674.0,-720.0,0.671,-0.008,0.737,-0.085
1701713,-11016.0,-1796.0,-440.0,0.67,0.002,0.738,-0.084
1701732,-11026.0,-1452.0,-490.0,0.67,0.009,0.738,-0.085
1701751,-10814.0,-1418.0,-500.0,0.67,0.015,0.737,-0.086
1701760,-10552.0,-1150.0,-432.0,0.671,0.018,0.736,-0.088
1701778,-10168.0,-992.0,-404.0,0.672,0.021,0.735,-0.09
1701797,-9416.0,-546.0,-482.0,0.672,0.023,0.734,-0.093
1701817,-9104.0,-78.0,-268.0,0.673,0.023,0.733,-0.094
1701835,-8850.0,-828.0,-262.0,0.673,0.023,0.733,-0.096
1701854,-8406.0,-566.0,-472.0,0.672,0.022,0.734,-0.097
1701872,-8328.0,-396.0,-540.0,0.671,0.022,0.734,-0.099
1701890,-8328.0,-324.0,-474.0,0.669,0.022,0.736,-0.1
1701909,-8400.0,-212.0,-596.0,0.667,0.022,0.738,-0.101
1701919,-8506.0,-640.0,-632.0,0.665,0.022,0.74,-0.101
1701937,-8846.0,-178.0,-590.0,0.662,0.022,0.742,-0.102
1701954,-9286.0,-850.0,-730.0,0.66,0.021,0.744,-0.103
1701972,-9218.0,-768.0,-890.0,0.659,0.02,0.745,-0.104
1701991,-9464.0,-964.0,-888.0,0.657,0.019,0.746,-0.106
1702009,-9268.0,-1276.0,-1286.0,0.656,0.017,0.747,-0.109
1702027,-9466.0,-1018.0,-1394.0,0.654,0.015,0.749,-0.111
1702046,-10098.0,-1996.0,-1146.0,0.652,0.013,0.75,-0.113
1702065,-9406.0,-2148.0,-1696.0,0.65,0.011,0.751,-0.117
1702074,-9180.0,-1790.0,-2118.0,0.648,0.008,0.752,-0.12
1702091,-9482.0,-2098.0,-1890.0,0.646,0.005,0.753,-0.122
1702108,-9094.0,-2654.0,-1998.0,0.644,0.002,0.755,-0.124
1702125,-9008.0,-2254.0,-1996.0,0.642,-0.001,0.756,-0.125
1702143,-8926.0,-2472.0,-2058.0,0.641,-0.004,0.757,-0.127
1702161,-8692.0,-2732.0,-1982.0,0.639,-0.007,0.758,-0.128
1702179,-8766.0,-2040.0,-1794.0,0.638,-0.01,0.759,-0.129
1702199,-8778.0,-2590.0,-1750.0,0.637,-0.012,0.76,-0.129
1702218,-8802.0,-2596.0,-1838.0,0.637,-0.015,0.76,-0.129
1702236,-9098.0,-2462.0,-1716.0,0.637,-0.018,0.759,-0.13
1702253,-9034.0,-2214.0,-1916.0,0.637,-0.021,0.759,-0.13
1702271,-9790.0,-2456.0,-1730.0,0.639,-0.026,0.758,-0.131
1702289,-11576.0,-4030.0,-1286.0,0.642,-0.033,0.755,-0.132
1702307,-11360.0,-3752.0,-1764.0,0.647,-0.04,0.749,-0.137
1702325,-11962.0,-2774.0,-1158.0,0.654,-0.047,0.742,-0.142
1702344,-11446.0,-3562.0,-862.0,0.661,-0.054,0.734,-0.147
1702363,-10204.0,-2476.0,-798.0,0.668,-0.06,0.726,-0.152
1702381,-8808.0,-2098.0,-752.0,0.673,-0.065,0.72,-0.155
1702390,-8734.0,-1914.0,-348.0,0.676,-0.071,0.717,-0.157
1702408,-8066.0,-1490.0,-560.0,0.678,-0.076,0.714,-0.158
1702427,-7730.0,-1972.0,-300.0,0.679,-0.08,0.712,-0.158
1702445,-7010.0,-1814.0,-86.0,0.68,-0.083,0.712,-0.158
1702464,-6574.0,-1562.0,-284.0,0.679,-0.086,0.712,-0.158
1702483,-6700.0,-2352.0,-320.0,0.678,-0.089,0.713,-0.157
1702501,-7476.0,-2394.0,142.0,0.677,-0.09,0.713,-0.156
1702519,-7610.0,-2664.0,-84.0,0.677,-0.091,0.713,-0.155
1702537,-7086.0,-3058.0,-766.0,0.678,-0.092,0.713,-0.154
1702546,-7818.0,-3400.0,-238.0,0.679,-0.093,0.712,-0.152
1702564,-8250.0,-2924.0,-472.0,0.681,-0.094,0.71,-0.15
1702584,-8136.0,-4636.0,-1458.0,0.686,-0.094,0.707,-0.148
1702603,-9880.0,-4044.0,102.0,0.692,-0.095,0.701,-0.146
1702621,-9870.0,-3274.0,184.0,0.7,-0.096,0.693,-0.143
1702639,-9072.0,-2444.0,-162.0,0.709,-0.097,0.684,-0.137
1702658,-8306.0,-3508.0,76.0,0.719,-0.099,0.676,-0.129
1702677,-7502.0,-2356.0,346.0,0.728,-0.099,0.668,-0.12
1702686,-7114.0,-3064.0,646.0,0.735,-0.1,0.661,-0.111
1702704,-6212.0,-2090.0,756.0,0.741,-0.1,0.656,-0.1
1702721,-5340.0,-886.0,500.0,0.745,-0.1,0.653,-0.09
1702739,-5834.0,-2530.0,1150.0,0.747,-0.1,0.652,-0.078
1702757,-6124.0,-1068.0,1476.0,0.748,-0.1,0.652,-0.068
1702775,-5890.0,-1880.0,914.0,0.749,-0.098,0.653,-0.057
1702794,-6274.0,-1524.0,1594.0,0.748,-0.097,0.654,-0.047
1702812,-6986.0,-2600.0,1738.0,0.748,-0.096,0.656,-0.038
1702831,-6520.0,206.0,1100.0,0.747,-0.095,0.657,-0.028
1702850,-6868.0,-1544.0,1240.0,0.746,-0.095,0.659,-0.017
1702869,-6444.0,-726.0,1508.0,0.744,-0.095,0.661,-0.005
1702879,-6408.0,-2386.0,576.0,0.742,-0.094,0.664,0.005
1702897,-6194.0,-390.0,1156.0,0.74,-0.093,0.666,0.013
1702916,-6234.0,8.0,1016.0,0.738,-0.093,0.668,0.023
1702933,-5984.0,-1686.0,562.0,0.736,-0.094,0.67,0.033
1702951,-6260.0,-698.0,428.0,0.733,-0.095,0.672,0.042
1702969,-6170.0,-1070.0,892.0,0.731,-0.096,0.674,0.052
1702987,-6034.0,-2304.0,-4.0,0.728,-0.097,0.676,0.059
1703004,-6552.0,-456.0,574.0,0.725,-0.099,0.679,0.066
1703022,-6870.0,-1476.0,462.0,0.722,-0.101,0.681,0.071
1703040,-6618.0,-2188.0,280.0,0.72,-0.103,0.682,0.075
1703059,-6368.0,-1344.0,446.0,0.719,-0.105,0.683,0.077
1703077,-6420.0,-1978.0,160.0,0.718,-0.107,0.684,0.076
1703096,-6470.0,-1178.0,312.0,0.716,-0.109,0.685,0.074
1703115,-7068.0,-442.0,146.0,0.715,-0.112,0.686,0.073
1703124,-8034.0,-1562.0,-34.0,0.714,-0.116,0.686,0.073
1703142,-8418.0,-1648.0,150.0,0.714,-0.117,0.686,0.071
1703160,-7940.0,-1522.0,-266.0,0.715,-0.119,0.686,0.069
1703178,-7786.0,-654.0,-18.0,0.715,-0.121,0.685,0.068
1703197,-7662.0,-564.0,294.0,0.716,-0.122,0.684,0.068
1703215,-7028.0,-812.0,58.0,0.717,-0.123,0.683,0.067
1703233,-6588.0,-1244.0,326.0,0.717,-0.124,0.683,0.065
1703251,-6050.0,-936.0,362.0,0.717,-0.124,0.683,0.061
1703269,-5462.0,-608.0,464.0,0.716,-0.124,0.685,0.056
1703287,-4714.0,-714.0,194.0,0.714,-0.123,0.687,0.05
1703305,-5144.0,110.0,500.0,0.711,-0.123,0.691,0.043
1703323,-5084.0,-1382.0,-216.0,0.707,-0.124,0.695,0.036
1703341,-6304.0,-768.0,666.0,0.704,-0.125,0.699,0.028
1703349,-7124.0,-1354.0,144.0,0.7,-0.126,0.702,0.019
1703367,-7028.0,-720.0,-566.0,0.697,-0.126,0.706,0.01
1703386,-7890.0,-1618.0,114.0,0.694,-0.127,0.709,0.002
1703405,-7720.0,-1978.0,-512.0,0.691,-0.129,0.711,-0.006
1703423,-7628.0,-2018.0,-816.0,0.689,-0.129,0.713,-0.014
1703441,-7890.0,-1226.0,-256.0,0.687,-0.13,0.715,-0.022
1703460,-7808.0,-2562.0,-198.0,0.685,-0.132,0.716,-0.03
1703479,-7110.0,-2306.0,-464.0,0.685,-0.132,0.715,-0.039
1703498,-6428.0,-1920.0,-616.0,0.684,-0.132,0.716,-0.049
1703508,-7242.0,-670.0,-646.0,0.682,-0.134,0.717,-0.056
1703526,-7664.0,-2758.0,-374.0,0.68,-0.135,0.718,-0.062
1703545,-6648.0,-2034.0,-1314.0,0.678,-0.135,0.72,-0.068
1703564,-6822.0,-2056.0,-1332.0,0.674,-0.135,0.722,-0.074
1703582,-7614.0,-1704.0,-1282.0,0.67,-0.135,0.726,-0.077
1703600,-8026.0,-2300.0,-956.0,0.666,-0.133,0.73,-0.079
1703619,-6772.0,-2564.0,-1726.0,0.662,-0.13,0.734,-0.081
1703637,-6560.0,164.0,-2420.0,0.657,-0.127,0.739,-0.082
1703656,-6532.0,-1442.0,-210.0,0.651,-0.123,0.744,-0.081
1703664,-6960.0,-1522.0,-636.0,0.646,-0.119,0.75,-0.08
1703682,-6956.0,-1852.0,-434.0,0.642,-0.114,0.754,-0.078
1703701,-6886.0,-1276.0,-194.0,0.638,-0.108,0.759,-0.077
1703719,-6322.0,-886.0,-632.0,0.633,-0.101,0.764,-0.075
1703738,-7178.0,-652.0,-422.0,0.627,-0.095,0.77,-0.073
1703756,-7954.0,-1678.0,0.0,0.623,-0.088,0.774,-0.072
1703775,-8326.0,-1696.0,-462.0,0.619,-0.081,0.778,-0.072
1703793,-9074.0,-1664.0,-526.0,0.616,-0.074,0.781,-0.073
1703811,-9410.0,-938.0,-1294.0,0.614,-0.068,0.783,-0.074
1703829,-9956.0,-2554.0,-1840.0,0.614,-0.062,0.783,-0.075
1703848,-10714.0,-2422.0,-1976.0,0.615,-0.057,0.783,-0.077
1703856,-11108.0,-2392.0,-2276.0,0.617,-0.052,0.781,-0.079
1703876,-10924.0,-2586.0,-2690.0,0.621,-0.048,0.778,-0.082
1703894,-11156.0,-2356.0,-2414.0,0.626,-0.044,0.774,-0.084
1703911,-11042.0,-2678.0,-2410.0,0.631,-0.04,0.77,-0.087
1703929,-11082.0,-2162.0,-1974.0,0.637,-0.038,0.765,-0.09
1703947,-10748.0,-1930.0,-1984.0,0.642,-0.035,0.76,-0.092
1703965,-10716.0,-2484.0,-1694.0,0.648,-0.033,0.755,-0.093
1703983,-10418.0,-2154.0,-1598.0,0.653,-0.03,0.751,-0.095
1704001,-10122.0,-2246.0,-1404.0,0.658,-0.028,0.747,-0.096
1704020,-9648.0,-1446.0,-1360.0,0.662,-0.027,0.743,-0.098
1704039,-9292.0,-1786.0,-1404.0,0.666,-0.026,0.739,-0.097
1704057,-9090.0,-1806.0,-1136.0,0.669,-0.026,0.736,-0.097
1704077,-8904.0,-1600.0,-1016.0,0.673,-0.026,0.733,-0.096
1704086,-8660.0,-1608.0,-962.0,0.676,-0.026,0.73,-0.094
1704104,-8418.0,-1532.0,-846.0,0.679,-0.026,0.728,-0.092
1704123,-8212.0,-1264.0,-732.0,0.681,-0.026,0.726,-0.09
1704141,-8172.0,-1614.0,-514.0,0.683,-0.027,0.724,-0.087
1704159,-8098.0,-1400.0,-452.0,0.685,-0.027,0.723,-0.084
1704177,-7824.0,-1502.0,-538.0,0.686,-0.026,0.722,-0.081
1704196,-7142.0,-934.0,-646.0,0.687,-0.025,0.722,-0.078
1704216,-7224.0,-700.0,-702.0,0.687,-0.022,0.722,-0.074
1704226,-7380.0,-388.0,-398.0,0.687,-0.018,0.723,-0.068
1704245,-7534.0,-1044.0,-574.0,0.687,-0.014,0.724,-0.061
1704265,-7700.0,-1118.0,-490.0,0.686,-0.009,0.725,-0.056
1704284,-8208.0,-998.0,-326.0,0.686,-0.005,0.726,-0.051
1704302,-8766.0,-686.0,-214.0,0.686,0.0,0.726,-0.047
1704311,-9080.0,-970.0,-226.0,0.687,0.005,0.725,-0.043
1704329,-9416.0,-1042.0,-268.0,0.689,0.011,0.724,-0.04
1704348,-9568.0,-822.0,-238.0,0.691,0.017,0.722,-0.038
1704367,-9618.0,-588.0,-404.0,0.693,0.022,0.72,-0.037
1704386,-9736.0,-458.0,-476.0,0.695,0.027,0.718,-0.036
1704405,-9864.0,-584.0,-462.0,0.696,0.032,0.716,-0.036
1704423,-9918.0,-558.0,-394.0,0.698,0.036,0.715,-0.036
1704441,-9676.0,-306.0,-488.0,0.699,0.041,0.713,-0.038
1704461,-9592.0,228.0,-470.0,0.7,0.045,0.712,-0.038
1704470,-9082.0,50.0,-598.0,0.7,0.048,0.712,-0.039
1704488,-9272.0,376.0,-590.0,0.699,0.049,0.713,-0.038
1704505,-9764.0,-194.0,-286.0,0.697,0.051,0.714,-0.038
1704522,-9652.0,-168.0,-444.0,0.695,0.052,0.716,-0.039
1704540,-9952.0,348.0,-224.0,0.693,0.053,0.717,-0.041
1704559,-9754.0,-104.0,-332.0,0.691,0.052,0.72,-0.042
1704578,-10080.0,172.0,-98.0,0.689,0.05,0.722,-0.045
1704598,-10092.0,164.0,-370.0,0.687,0.048,0.724,-0.048
1704616,-10794.0,402.0,-8.0,0.685,0.046,0.725,-0.052
1704634,-10740.0,142.0,-366.0,0.684,0.045,0.726,-0.057
1704643,-10474.0,178.0,-474.0,0.682,0.044,0.727,-0.063
1704661,-9146.0,1036.0,-1202.0,0.68,0.042,0.729,-0.07
1704680,-9858.0,604.0,-240.0,0.677,0.039,0.731,-0.075
1704699,-8620.0,180.0,-1490.0,0.672,0.035,0.735,-0.08
1704717,-9438.0,628.0,-532.0,0.667,0.029,0.74,-0.085
1704734,-9742.0,-452.0,-380.0,0.663,0.024,0.743,-0.088
1704752,-9208.0,-1292.0,-604.0,0.659,0.02,0.747,-0.092
1704769,-8366.0,464.0,-652.0,0.654,0.015,0.751,-0.096
1704786,-8268.0,-452.0,-1378.0,0.648,0.008,0.755,-0.097
1704805,-9492.0,-1566.0,-434.0,0.643,0.002,0.76,-0.098
1704822,-9666.0,-1524.0,-224.0,0.639,-0.004,0.762,-0.099
1704839,-9274.0,-2178.0,-480.0,0.638,-0.006,0.763,-0.103
1704856,-8146.0,-2482.0,-1170.0,0.638,-0.009,0.762,-0.108
1704873,-8360.0,-1082.0,-1986.0,0.638,-0.011,0.761,-0.114
1704890,-8954.0,-1688.0,-1218.0,0.639,-0.017,0.76,-0.116
1704908,-9116.0,-3120.0,-1398.0,0.641,-0.021,0.758,-0.119
1704926,-9208.0,-3200.0,-1350.0,0.644,-0.024,0.754,-0.124
1704943,-8324.0,-2270.0,-1400.0,0.649,-0.025,0.749,-0.13
1704962,-6658.0,-692.0,-2306.0,0.653,-0.028,0.745,-0.133
1704981,-7680.0,-1850.0,-1346.0,0.656,-0.034,0.742,-0.132
1705000,-7816.0,-2452.0,-780.0,0.659,-0.04,0.739,-0.132
1705020,-7528.0,-2262.0,-658.0,0.664,-0.045,0.735,-0.131
1705029,-6962.0,-2862.0,-468.0,0.669,-0.047,0.729,-0.133
1705047,-6572.0,-1294.0,-522.0,0.676,-0.05,0.723,-0.135
1705065,-6684.0,-1896.0,258.0,0.682,-0.055,0.717,-0.134
1705083,-6564.0,-2478.0,-442.0,0.689,-0.059,0.709,-0.134
1705102,-6304.0,-1668.0,-316.0,0.696,-0.065,0.703,-0.133
1705121,-6758.0,-2114.0,132.0,0.703,-0.071,0.696,-0.131
1705139,-7494.0,-2444.0,482.0,0.71,-0.077,0.688,-0.128
1705157,-6008.0,-2132.0,76.0,0.716,-0.083,0.682,-0.124
1705175,-6630.0,-1816.0,-756.0,0.719,-0.091,0.679,-0.117
1705193,-8184.0,-3146.0,126.0,0.72,-0.098,0.678,-0.107
1705212,-8420.0,-2240.0,546.0,0.721,-0.1,0.678,-0.097
1705221,-8082.0,-2362.0,20.0,0.722,-0.102,0.679,-0.086
1705239,-8554.0,-3192.0,1284.0,0.722,-0.105,0.68,-0.073
1705257,-8500.0,-1712.0,1246.0,0.722,-0.107,0.681,-0.061
1705276,-8254.0,-1186.0,1854.0,0.723,-0.109,0.681,-0.049
1705294,-7268.0,-1878.0,1646.0,0.725,-0.109,0.679,-0.038
1705313,-6892.0,-1080.0,1684.0,0.725,-0.112,0.679,-0.028
1705330,-6728.0,-92.0,1306.0,0.724,-0.114,0.68,-0.018
1705347,-6712.0,-1562.0,922.0,0.721,-0.116,0.683,-0.009
1705365,-7230.0,-228.0,1176.0,0.718,-0.117,0.687,-0.001
1705383,-8056.0,-1712.0,-98.0,0.713,-0.117,0.691,0.007
1705401,-7970.0,-856.0,420.0,0.71,-0.116,0.695,0.017
1705418,-7230.0,-1034.0,182.0,0.706,-0.113,0.698,0.025
1705436,-6652.0,-1424.0,-652.0,0.702,-0.111,0.703,0.034
1705453,-6660.0,-524.0,80.0,0.697,-0.11,0.707,0.044
1705471,-6434.0,-1882.0,-354.0,0.694,-0.108,0.71,0.052
1705489,-6296.0,-952.0,-30.0,0.692,-0.106,0.712,0.06
1705506,-5836.0,-1744.0,62.0,0.691,-0.104,0.713,0.065
1705524,-4954.0,-1350.0,-270.0,0.69,-0.103,0.713,0.067
1705543,-4736.0,-326.0,-126.0,0.69,-0.104,0.713,0.067
1705552,-4628.0,-966.0,-344.0,0.69,-0.106,0.713,0.066
1705569,-5026.0,-1410.0,-786.0,0.689,-0.11,0.714,0.064
1705586,-6322.0,-262.0,-182.0,0.689,-0.115,0.713,0.062
1705604,-6164.0,-2466.0,-928.0,0.69,-0.119,0.712,0.058
1705623,-6370.0,-886.0,-954.0,0.69,-0.124,0.711,0.052
1705641,-7014.0,-1740.0,-700.0,0.69,-0.13,0.71,0.048
1705661,-7104.0,-1384.0,-648.0,0.691,-0.135,0.709,0.042
1705680,-6978.0,-2590.0,-1066.0,0.692,-0.14,0.707,0.037
1705699,-7276.0,-1146.0,-264.0,0.693,-0.145,0.705,0.031
1705717,-7324.0,-1850.0,-560.0,0.694,-0.151,0.703,0.026
1705735,-7136.0,-2610.0,-350.0,0.695,-0.157,0.701,0.02
1705743,-6758.0,-2242.0,108.0,0.697,-0.163,0.698,0.013
1705761,-6836.0,-1862.0,-298.0,0.698,-0.169,0.696,0.006
1705779,-6820.0,-1168.0,-708.0,0.697,-0.176,0.695,0.002
1705798,-6670.0,-2414.0,-526.0,0.696,-0.183,0.694,-0.003
1705818,-6994.0,-2786.0,-762.0,0.694,-0.189,0.695,-0.006
1705836,-8150.0,-2492.0,-328.0,0.692,-0.194,0.695,-0.01
1705854,-7624.0,-2788.0,-592.0,0.69,-0.198,0.696,-0.015
1705872,-7434.0,-2550.0,-454.0,0.688,-0.202,0.697,-0.019
1705891,-7600.0,-3360.0,-1348.0,0.686,-0.206,0.697,-0.024
1705910,-8646.0,-2844.0,-122.0,0.685,-0.208,0.698,-0.028
1705920,-7726.0,-2340.0,-768.0,0.684,-0.211,0.698,-0.033
1705938,-7532.0,-3580.0,-598.0,0.684,-0.212,0.697,-0.037
1705956,-7180.0,-3362.0,-458.0,0.684,-0.212,0.697,-0.042
1705975,-7000.0,-2526.0,-520.0,0.684,-0.213,0.696,-0.047
1705994,-6236.0,-2084.0,-1090.0,0.683,-0.214,0.697,-0.05
1706014,-5288.0,-2484.0,-1348.0,0.68,-0.214,0.699,-0.052
1706033,-5442.0,-3262.0,-1474.0,0.675,-0.214,0.704,-0.053
1706041,-6866.0,-3624.0,-490.0,0.671,-0.212,0.709,-0.054
1706059,-6186.0,-2752.0,-1204.0,0.667,-0.207,0.714,-0.055
1706077,-6474.0,-2660.0,-800.0,0.662,-0.201,0.72,-0.055
1706096,-6296.0,-3210.0,-644.0,0.658,-0.195,0.725,-0.055
1706115,-6384.0,-2684.0,-478.0,0.655,-0.19,0.729,-0.056
1706134,-6530.0,-2050.0,-494.0,0.652,-0.185,0.733,-0.057
1706153,-7002.0,-2416.0,-442.0,0.65,-0.179,0.736,-0.057
1706172,-7138.0,-1934.0,-428.0,0.649,-0.173,0.739,-0.058
1706182,-7146.0,-2018.0,-438.0,0.649,-0.167,0.74,-0.058
1706200,-7244.0,-2008.0,-612.0,0.649,-0.162,0.742,-0.057
1706219,-8568.0,-2482.0,-202.0,0.651,-0.155,0.741,-0.057
1706238,-8354.0,-1204.0,-758.0,0.655,-0.147,0.739,-0.057
1706258,-7666.0,-1528.0,-1136.0,0.658,-0.138,0.738,-0.056
1706277,-8016.0,-1200.0,-322.0,0.662,-0.127,0.737,-0.055
1706287,-8154.0,-2014.0,94.0,0.666,-0.117,0.735,-0.054
1706305,-8186.0,-1766.0,414.0,0.671,-0.109,0.732,-0.056
1706323,-8084.0,-1618.0,202.0,0.676,-0.101,0.728,-0.058
1706341,-8290.0,-1436.0,492.0,0.681,-0.095,0.724,-0.06
1706360,-9132.0,-1300.0,526.0,0.684,-0.089,0.721,-0.062
1706379,-9642.0,-1052.0,714.0,0.688,-0.083,0.718,-0.064
1706398,-9722.0,-720.0,368.0,0.691,-0.078,0.716,-0.065
1706417,-8880.0,-1628.0,28.0,0.693,-0.072,0.714,-0.066
1706426,-9472.0,-578.0,26.0,0.694,-0.068,0.713,-0.066
1706445,-9862.0,-1134.0,26.0,0.694,-0.066,0.714,-0.065
1706464,-9770.0,-1150.0,-122.0,0.694,-0.063,0.714,-0.064
1706483,-9866.0,-1200.0,-204.0,0.693,-0.062,0.716,-0.063
1706501,-9980.0,-1522.0,-118.0,0.691,-0.061,0.718,-0.06
1706520,-9892.0,-1286.0,-188.0,0.689,-0.06,0.72,-0.058
1706537,-9984.0,-1922.0,-224.0,0.686,-0.061,0.723,-0.056
1706555,-10174.0,-1892.0,-462.0,0.682,-0.062,0.726,-0.055
1706574,-10228.0,-1680.0,-618.0,0.679,-0.064,0.729,-0.054
1706584,-9844.0,-1572.0,-962.0,0.676,-0.066,0.732,-0.053
1706602,-9528.0,-2012.0,-998.0,0.672,-0.068,0.735,-0.051
1706620,-9424.0,-1998.0,-998.0,0.669,-0.071,0.738,-0.05
1706639,-9348.0,-1564.0,-1112.0,0.665,-0.074,0.742,-0.05
1706658,-9528.0,-1696.0,-1058.0,0.661,-0.077,0.744,-0.049
1706677,-8880.0,-2290.0,-1376.0,0.658,-0.08,0.747,-0.05
1706696,-8628.0,-1654.0,-1350.0,0.655,-0.081,0.749,-0.051
1706716,-8292.0,-1084.0,-1556.0,0.652,-0.084,0.752,-0.051
1706726,-8384.0,-2078.0,-1442.0,0.649,-0.085,0.754,-0.052
1706743,-8364.0,-1032.0,-1398.0,0.647,-0.087,0.756,-0.053
1706762,-8086.0,-2016.0,-1514.0,0.646,-0.087,0.757,-0.053
1706782,-8064.0,-1574.0,-1494.0,0.644,-0.088,0.758,-0.054
1706800,-8138.0,-2038.0,-1604.0,0.644,-0.088,0.758,-0.056
1706819,-8088.0,-1582.0,-1468.0,0.643,-0.087,0.758,-0.057
1706827,-8190.0,-1918.0,-1532.0,0.644,-0.086,0.758,-0.059
1706846,-8408.0,-1740.0,-1426.0,0.644,-0.085,0.758,-0.06
1706866,-8068.0,-2392.0,-1288.0,0.645,-0.084,0.757,-0.061
1706884,-8296.0,-884.0,-1752.0,0.646,-0.083,0.757,-0.062
1706903,-8912.0,-2838.0,-1798.0,0.647,-0.082,0.756,-0.062
1706923,-9368.0,-2648.0,-1500.0,0.648,-0.081,0.755,-0.063
1706942,-9162.0,-2224.0,-1722.0,0.649,-0.08,0.753,-0.066
1706951,-9066.0,-1578.0,-1956.0,0.65,-0.08,0.753,-0.069
1706969,-9382.0,-2242.0,-1652.0,0.65,-0.081,0.752,-0.07
1706987,-9218.0,-2700.0,-1562.0,0.65,-0.083,0.752,-0.073
1707006,-8918.0,-2152.0,-1678.0,0.65,-0.085,0.752,-0.075
1707026,-8550.0,-1882.0,-1842.0,0.649,-0.087,0.752,-0.077
1707044,-8068.0,-2296.0,-1888.0,0.648,-0.089,0.752,-0.079
1707064,-8084.0,-1698.0,-1986.0,0.646,-0.093,0.754,-0.079
1707074,-8256.0,-2532.0,-1942.0,0.643,-0.096,0.756,-0.078
1707092,-8278.0,-2330.0,-1952.0,0.64,-0.099,0.758,-0.077
1707111,-8468.0,-2544.0,-2046.0,0.637,-0.103,0.76,-0.076
1707130,-8236.0,-2164.0,-2200.0,0.634,-0.106,0.762,-0.075
1707149,-8504.0,-2314.0,-2068.0,0.631,-0.109,0.765,-0.072
1707168,-8492.0,-2248.0,-2114.0,0.627,-0.111,0.768,-0.07
1707177,-8452.0,-2832.0,-2110.0,0.623,-0.113,0.771,-0.068
1707196,-8596.0,-2128.0,-1964.0,0.619,-0.115,0.774,-0.066
1707216,-8466.0,-2252.0,-2212.0,0.615,-0.117,0.777,-0.065
1707233,-8668.0,-2302.0,-2110.0,0.611,-0.118,0.78,-0.063
1707251,-8312.0,-2354.0,-2300.0,0.608,-0.119,0.782,-0.062
1707270,-8126.0,-2528.0,-2470.0,0.605,-0.12,0.784,-0.062
1707287,-8194.0,-1810.0,-2332.0,0.603,-0.12,0.786,-0.061
1707304,-7982.0,-2284.0,-2484.0,0.601,-0.12,0.788,-0.061
1707322,-8294.0,-1874.0,-2264.0,0.6,-0.119,0.789,-0.061
1707340,-7992.0,-2176.0,-2410.0,0.599,-0.118,0.79,-0.061
1707358,-7686.0,-2102.0,-2782.0,0.598,-0.117,0.79,-0.063
1707377,-8234.0,-1932.0,-2632.0,0.597,-0.117,0.791,-0.065
1707397,-8654.0,-1838.0,-2724.0,0.595,-0.118,0.792,-0.068
1707406,-9014.0,-2408.0,-2372.0,0.594,-0.118,0.792,-0.071
1707424,-8900.0,-2110.0,-2140.0,0.594,-0.117,0.792,-0.076
1707443,-8398.0,-1394.0,-2392.0,0.595,-0.116,0.791,-0.081
1707462,-8430.0,-1370.0,-2326.0,0.595,-0.116,0.791,-0.086
1707481,-8148.0,-1804.0,-2256.0,0.596,-0.116,0.79,-0.09
1707500,-7410.0,-1472.0,-2492.0,0.595,-0.116,0.79,-0.093
1707510,-7502.0,-1790.0,-2432.0,0.594,-0.117,0.79,-0.096
1707528,-7356.0,-2532.0,-2408.0,0.593,-0.118,0.791,-0.099
1707548,-7030.0,-2098.0,-2820.0,0.591,-0.12,0.791,-0.101
1707568,-7960.0,-2134.0,-2214.0,0.589,-0.123,0.792,-0.102
1707587,-7994.0,-2766.0,-2318.0,0.59,-0.125,0.791,-0.103
1707606,-7604.0,-2860.0,-1978.0,0.591,-0.128,0.79,-0.102
1707615,-6896.0,-2840.0,-2484.0,0.591,-0.132,0.789,-0.101
1707633,-7928.0,-2914.0,-1832.0,0.591,-0.139,0.788,-0.097
1707652,-7958.0,-2804.0,-1994.0,0.592,-0.144,0.787,-0.094
1707670,-8100.0,-2818.0,-1410.0,0.594,-0.149,0.785,-0.09
1707689,-7094.0,-2914.0,-2108.0,0.596,-0.155,0.783,-0.085
1707708,-7718.0,-2294.0,-1578.0,0.597,-0.163,0.781,-0.08
1707726,-7864.0,-1786.0,-1516.0,0.598,-0.171,0.78,-0.073
1707745,-7822.0,-2264.0,-1226.0,0.599,-0.179,0.778,-0.066
1707755,-7492.0,-1936.0,-1070.0,0.601,-0.186,0.775,-0.059
1707774,-7040.0,-1708.0,-1164.0,0.602,-0.194,0.773,-0.053
1707793,-6708.0,-1278.0,-1694.0,0.602,-0.203,0.771,-0.048
1707812,-7578.0,-390.0,-1382.0,0.6,-0.213,0.77,-0.041
1707831,-8232.0,-2356.0,-828.0,0.6,-0.227,0.767,-0.035
1707850,-7596.0,-2040.0,-1144.0,0.6,-0.24,0.762,-0.031
1707859,-6966.0,-1246.0,-1590.0,0.601,-0.253,0.758,-0.029
1707877,-6714.0,-1764.0,-2104.0,0.6,-0.265,0.754,-0.027
1707896,-6516.0,-2944.0,-2886.0,0.598,-0.278,0.751,-0.025
1707917,-8776.0,-3086.0,-2516.0,0.595,-0.291,0.749,-0.02
1707936,-8688.0,-4648.0,-3658.0,0.593,-0.302,0.746,-0.016
1707955,-8536.0,-5524.0,-3970.0,0.594,-0.31,0.742,-0.012
1707964,-8358.0,-4802.0,-3376.0,0.595,-0.316,0.739,-0.008
1707983,-7074.0,-3484.0,-4318.0,0.597,-0.321,0.736,-0.004
1708002,-7772.0,-4296.0,-2748.0,0.598,-0.325,0.733,0.003
1708021,-7012.0,-3884.0,-2518.0,0.6,-0.328,0.73,0.01
1708039,-6794.0,-4036.0,-2722.0,0.602,-0.329,0.728,0.017
1708057,-6730.0,-3508.0,-2238.0,0.605,-0.327,0.726,0.023
1708075,-6448.0,-2488.0,-2250.0,0.607,-0.325,0.724,0.03
1708094,-6544.0,-3258.0,-2710.0,0.61,-0.322,0.723,0.038
1708113,-7160.0,-3004.0,-1634.0,0.613,-0.319,0.722,0.046
1708122,-6580.0,-3004.0,-2384.0,0.616,-0.313,0.721,0.054
1708139,-6742.0,-3598.0,-1620.0,0.621,-0.306,0.719,0.06
1708158,-5818.0,-1588.0,-1804.0,0.627,-0.297,0.717,0.065
1708177,-5302.0,-1622.0,-2612.0,0.631,-0.288,0.716,0.073
1708196,-6326.0,-2132.0,-1032.0,0.635,-0.28,0.716,0.082
1708214,-6190.0,-2720.0,-1828.0,0.638,-0.27,0.715,0.09
1708232,-5938.0,-1892.0,-2074.0,0.642,-0.259,0.715,0.098
1708251,-6360.0,-1144.0,-1122.0,0.646,-0.249,0.714,0.107
1708270,-5892.0,-1820.0,-1346.0,0.648,-0.238,0.714,0.117
1708278,-5772.0,-880.0,-1236.0,0.649,-0.228,0.715,0.127
1708297,-6222.0,-2300.0,-854.0,0.649,-0.217,0.716,0.135
1708317,-5568.0,-2194.0,-722.0,0.651,-0.207,0.717,0.139
1708336,-4902.0,-1786.0,-986.0,0.653,-0.197,0.718,0.14
1708354,-4608.0,-1556.0,-766.0,0.654,-0.188,0.72,0.138
1708372,-5222.0,-106.0,-962.0,0.654,-0.182,0.722,0.134
1708390,-6466.0,-312.0,-782.0,0.654,-0.176,0.724,0.131
1708408,-7232.0,-1342.0,-774.0,0.656,-0.17,0.725,0.127
1708426,-7454.0,-1138.0,-1310.0,0.658,-0.163,0.725,0.122
1708445,-7614.0,-744.0,-1178.0,0.66,-0.157,0.725,0.116
1708454,-7898.0,-1320.0,-672.0,0.664,-0.152,0.724,0.111
1708471,-7234.0,-1000.0,-654.0,0.668,-0.147,0.722,0.105
1708489,-6746.0,-1312.0,-846.0,0.671,-0.143,0.721,0.098
1708508,-6772.0,-694.0,-818.0,0.674,-0.141,0.719,0.091
1708526,-7100.0,-680.0,-304.0,0.677,-0.139,0.718,0.084
1708545,-6648.0,-664.0,-262.0,0.68,-0.137,0.717,0.077
1708564,-6018.0,-1912.0,-234.0,0.682,-0.135,0.716,0.068
1708583,-6374.0,-404.0,-28.0,0.684,-0.134,0.715,0.059
1708602,-6608.0,-1090.0,-12.0,0.686,-0.133,0.714,0.049
1708610,-6074.0,-198.0,-134.0,0.688,-0.134,0.712,0.039
1708629,-5878.0,-226.0,-196.0,0.689,-0.135,0.711,0.028
1708647,-6082.0,-304.0,-56.0,0.689,-0.139,0.711,0.018
1708667,-5662.0,842.0,-354.0,0.687,-0.146,0.711,0.01
1708686,-6256.0,-1010.0,56.0,0.684,-0.155,0.713,0.004
1708704,-6550.0,-858.0,-630.0,0.68,-0.164,0.715,-0.002
1708722,-6692.0,-1230.0,-310.0,0.676,-0.172,0.717,-0.008
1708740,-7240.0,-1678.0,-748.0,0.671,-0.179,0.719,-0.014
1708759,-7916.0,-1554.0,-548.0,0.667,-0.185,0.721,-0.019
1708768,-7448.0,-1408.0,-726.0,0.664,-0.19,0.723,-0.024
1708786,-7200.0,-1432.0,-2302.0,0.66,-0.194,0.725,-0.029
1708804,-8120.0,-2914.0,-548.0,0.657,-0.199,0.727,-0.033
1708822,-8232.0,-2648.0,-422.0,0.655,-0.203,0.727,-0.038
1708840,-7442.0,-1756.0,-1230.0,0.653,-0.206,0.728,-0.041
1708858,-7644.0,-3344.0,-534.0,0.651,-0.208,0.729,-0.044
1708876,-6288.0,-2870.0,-1320.0,0.648,-0.209,0.731,-0.047
1708894,-7140.0,-2120.0,-1374.0,0.643,-0.21,0.735,-0.049
1708914,-7960.0,-1426.0,-1216.0,0.639,-0.206,0.74,-0.049
1708933,-7730.0,-2778.0,-2102.0,0.633,-0.201,0.746,-0.048
1708942,-8110.0,-2930.0,-1598.0,0.628,-0.195,0.752,-0.046
1708960,-7872.0,-3036.0,-1928.0,0.622,-0.188,0.758,-0.046
1708978,-8906.0,-2410.0,-1714.0,0.619,-0.182,0.763,-0.046
1708997,-9132.0,-2892.0,-1292.0,0.617,-0.174,0.766,-0.047
1709016,-9184.0,-3098.0,-1094.0,0.618,-0.166,0.767,-0.048
1709035,-9032.0,-3644.0,-1196.0,0.62,-0.159,0.767,-0.051
1709053,-8900.0,-1894.0,-1536.0,0.623,-0.153,0.765,-0.056
1709072,-9088.0,-1832.0,-1548.0,0.626,-0.147,0.764,-0.06
1709090,-8988.0,-1754.0,-1612.0,0.629,-0.141,0.762,-0.063
1709108,-8836.0,-2444.0,-1592.0,0.632,-0.135,0.76,-0.066
1709117,-8606.0,-2146.0,-1472.0,0.636,-0.13,0.758,-0.069
1709136,-8642.0,-1506.0,-1416.0,0.638,-0.126,0.756,-0.071
1709154,-8924.0,-1930.0,-1086.0,0.641,-0.121,0.755,-0.071
1709173,-8834.0,-1766.0,-834.0,0.643,-0.116,0.753,-0.071
1709191,-8758.0,-2440.0,-746.0,0.645,-0.112,0.753,-0.07
1709210,-8940.0,-2272.0,-814.0,0.646,-0.108,0.752,-0.069
1709229,-8786.0,-1678.0,-896.0,0.647,-0.104,0.752,-0.067
1709249,-9130.0,-2240.0,-980.0,0.648,-0.099,0.753,-0.065
1709259,-9324.0,-1694.0,-1276.0,0.648,-0.096,0.753,-0.062
1709276,-9634.0,-2748.0,-1220.0,0.648,-0.092,0.754,-0.059
1709295,-9558.0,-1878.0,-1512.0,0.648,-0.088,0.755,-0.056
1709313,-9526.0,-1848.0,-1542.0,0.647,-0.085,0.755,-0.053
1709332,-9432.0,-2110.0,-1586.0,0.647,-0.082,0.757,-0.049
1709351,-9298.0,-1846.0,-1676.0,0.646,-0.08,0.758,-0.044
1709370,-9358.0,-1932.0,-1604.0,0.645,-0.078,0.759,-0.039
1709379,-9332.0,-2090.0,-1712.0,0.643,-0.076,0.761,-0.035
1709398,-9170.0,-1586.0,-1762.0,0.642,-0.074,0.762,-0.03
1709417,-9068.0,-1826.0,-1724.0,0.641,-0.071,0.764,-0.025
1709437,-8992.0,-1364.0,-1786.0,0.64,-0.069,0.765,-0.02
1709456,-8874.0,-1598.0,-1834.0,0.639,-0.067,0.766,-0.015
1709475,-8910.0,-1444.0,-1830.0,0.639,-0.065,0.766,-0.011
1709484,-8828.0,-1368.0,-1826.0,0.639,-0.063,0.767,-0.007
1709503,-8910.0,-1144.0,-1850.0,0.639,-0.061,0.766,-0.004
1709522,-8816.0,-944.0,-1856.0,0.64,-0.059,0.766,-0.002
1709541,-8678.0,-996.0,-1912.0,0.64,-0.057,0.766,0.0
1709560,-8508.0,-616.0,-2212.0,0.64,-0.056,0.766,0.002
1709579,-8710.0,-536.0,-2248.0,0.64,-0.054,0.766,0.004
1709598,-8882.0,-658.0,-2312.0,0.639,-0.053,0.767,0.005
1709606,-8902.0,-462.0,-2496.0,0.638,-0.051,0.768,0.006
1709625,-9292.0,-444.0,-2286.0,0.636,-0.05,0.77,0.006
1709643,-9378.0,-944.0,-2342.0,0.635,-0.049,0.771,0.005
1709661,-9238.0,-352.0,-2140.0,0.634,-0.049,0.772,0.003
1709680,-9188.0,-504.0,-2314.0,0.632,-0.049,0.773,0.001
1709699,-9268.0,-326.0,-2192.0,0.631,-0.05,0.774,-0.002
1709718,-9160.0,-528.0,-2178.0,0.631,-0.051,0.774,-0.004
1709736,-9044.0,-658.0,-2178.0,0.63,-0.053,0.775,-0.008
1709754,-9164.0,-564.0,-2146.0,0.63,-0.055,0.775,-0.011
1709773,-9300.0,-846.0,-1972.0,0.631,-0.057,0.773,-0.017
1709782,-9442.0,-108.0,-2070.0,0.633,-0.06,0.772,-0.022
1709800,-10316.0,-2088.0,-1372.0,0.636,-0.063,0.769,-0.027
1709818,-10116.0,-1616.0,-966.0,0.641,-0.065,0.764,-0.035
1709837,-8438.0,-2646.0,-1694.0,0.647,-0.066,0.758,-0.045
1709855,-9290.0,-1576.0,-1050.0,0.653,-0.066,0.752,-0.056
1709873,-9352.0,-584.0,-938.0,0.657,-0.067,0.748,-0.064
1709891,-9090.0,-1438.0,-1058.0,0.66,-0.068,0.745,-0.071
1709909,-8386.0,-1248.0,-1078.0,0.662,-0.068,0.743,-0.076
1709928,-7794.0,-1328.0,-1308.0,0.662,-0.069,0.742,-0.081
1709945,-7510.0,-2302.0,-1244.0,0.661,-0.07,0.742,-0.086
1709962,-7186.0,-1296.0,-1424.0,0.66,-0.071,0.742,-0.091
1709980,-7476.0,-1600.0,-1392.0,0.658,-0.073,0.744,-0.094
1709998,-8030.0,-2300.0,-896.0,0.656,-0.075,0.745,-0.097
1710015,-7672.0,-1990.0,-916.0,0.655,-0.076,0.745,-0.099
1710034,-7480.0,-2246.0,-934.0,0.654,-0.077,0.746,-0.101
1710044,-7372.0,-1990.0,-946.0,0.653,-0.078,0.746,-0.103
1710063,-7750.0,-1418.0,-686.0,0.653,-0.079,0.746,-0.103
1710081,-7576.0,-2094.0,-960.0,0.653,-0.08,0.746,-0.104
1710100,-7462.0,-1574.0,-974.0,0.653,-0.081,0.745,-0.106
1710120,-7228.0,-1094.0,-996.0,0.654,-0.081,0.745,-0.107
1710142,-7154.0,-1230.0,-1200.0,0.654,-0.082,0.745,-0.107
1710153,-7360.0,-1446.0,-1052.0,0.654,-0.083,0.744,-0.108
1710171,-6864.0,-1518.0,-1542.0,0.654,-0.084,0.744,-0.108
1710189,-6870.0,-1114.0,-1586.0,0.652,-0.086,0.745,-0.11
1710207,-7172.0,-1032.0,-1654.0,0.65,-0.088,0.746,-0.11
1710226,-7288.0,-1514.0,-1682.0,0.648,-0.091,0.748,-0.109
1710245,-7824.0,-1162.0,-1362.0,0.644,-0.095,0.751,-0.108
1710255,-8134.0,-3078.0,-1304.0,0.642,-0.099,0.753,-0.106
1710274,-7454.0,-2990.0,-1274.0,0.64,-0.103,0.754,-0.106
1710293,-7622.0,-1914.0,-1028.0,0.636,-0.109,0.756,-0.104
1710313,-8852.0,-2552.0,-1012.0,0.632,-0.117,0.76,-0.097
1710333,-10120.0,-4358.0,-176.0,0.628,-0.126,0.762,-0.09
1710343,-9870.0,-4430.0,-596.0,0.627,-0.134,0.763,-0.084
1710362,-8326.0,-3646.0,-1174.0,0.625,-0.141,0.763,-0.079
1710382,-8358.0,-3040.0,-582.0,0.623,-0.15,0.764,-0.073
1710401,-8282.0,-3484.0,-1400.0,0.619,-0.16,0.766,-0.066
1710409,-8648.0,-2592.0,-402.0,0.615,-0.167,0.768,-0.059
1710428,-7732.0,-2904.0,-1196.0,0.612,-0.173,0.77,-0.053
1710448,-7288.0,-2044.0,-1706.0,0.608,-0.178,0.773,-0.047
