timeMs,ax,ay,az,q0,q1,q2,q3
8239818,-1556.0,8156.0,420.0,0.668,0.583,0.365,0.283
8239845,-1690.0,8264.0,454.0,0.67,0.581,0.364,0.284
8239861,-1772.0,7710.0,632.0,0.672,0.579,0.363,0.286
8239878,-1870.0,7482.0,794.0,0.673,0.576,0.363,0.287
8239895,-1988.0,7512.0,894.0,0.675,0.574,0.363,0.288
8239911,-2048.0,7956.0,636.0,0.676,0.572,0.363,0.289
8239927,-2046.0,8028.0,838.0,0.678,0.57,0.362,0.29
8239944,-2210.0,7482.0,1100.0,0.681,0.568,0.36,0.291
8239960,-2416.0,7558.0,1016.0,0.682,0.567,0.358,0.291
8239986,-2566.0,7746.0,1050.0,0.684,0.567,0.357,0.291
8240003,-2574.0,8036.0,1046.0,0.684,0.567,0.355,0.29
8240020,-2418.0,8210.0,906.0,0.685,0.568,0.353,0.29
8240037,-2290.0,8342.0,796.0,0.685,0.569,0.351,0.289
8240053,-2162.0,8584.0,716.0,0.686,0.57,0.349,0.289
8240070,-1982.0,8268.0,794.0,0.686,0.57,0.347,0.289
8240087,-1886.0,7896.0,958.0,0.687,0.571,0.344,0.29
8240104,-1564.0,7804.0,1038.0,0.687,0.571,0.342,0.291
8240120,-1440.0,7398.0,1232.0,0.688,0.571,0.34,0.292
8240137,-1578.0,7676.0,1252.0,0.688,0.571,0.339,0.293
8240164,-1348.0,8258.0,1294.0,0.688,0.571,0.338,0.294
8240181,-1504.0,8190.0,1440.0,0.688,0.572,0.338,0.294
8240198,-1712.0,8886.0,1206.0,0.688,0.572,0.337,0.295
8240214,-1492.0,8170.0,1256.0,0.689,0.571,0.336,0.295
8240230,-1432.0,7650.0,1332.0,0.69,0.57,0.335,0.295
8240247,-1288.0,7408.0,1264.0,0.69,0.57,0.335,0.295
8240263,-1298.0,7444.0,1276.0,0.691,0.569,0.335,0.294
8240279,-1422.0,7804.0,1116.0,0.692,0.569,0.335,0.293
8240305,-1820.0,8134.0,1330.0,0.692,0.568,0.335,0.292
8240321,-1396.0,8230.0,1424.0,0.692,0.568,0.335,0.292
8240337,-1240.0,7836.0,1144.0,0.692,0.568,0.337,0.292
8240354,-1326.0,7966.0,972.0,0.691,0.569,0.338,0.291
8240371,-1438.0,7752.0,1068.0,0.689,0.57,0.341,0.291
8240388,-1458.0,7364.0,1388.0,0.687,0.572,0.343,0.29
8240404,-1626.0,7492.0,1422.0,0.683,0.575,0.345,0.289
8240421,-1788.0,7564.0,1500.0,0.68,0.578,0.348,0.288
8240447,-2002.0,7784.0,1408.0,0.676,0.582,0.35,0.286
8240464,-1646.0,8588.0,908.0,0.671,0.586,0.352,0.286
8240480,-1444.0,9056.0,406.0,0.668,0.589,0.354,0.286
8240497,-1520.0,9070.0,682.0,0.665,0.591,0.356,0.287
8240514,-1352.0,8632.0,690.0,0.663,0.591,0.357,0.288
8240530,-1252.0,9628.0,362.0,0.662,0.591,0.358,0.291
8240547,-982.0,9294.0,458.0,0.662,0.589,0.359,0.294
8240563,-398.0,7578.0,736.0,0.661,0.588,0.358,0.299
8240579,-962.0,7390.0,848.0,0.661,0.586,0.359,0.302
8240605,-768.0,6604.0,1198.0,0.66,0.584,0.361,0.305
8240621,-1344.0,6450.0,840.0,0.659,0.582,0.364,0.307
8240638,-1504.0,6932.0,712.0,0.657,0.581,0.369,0.308
8240654,-1672.0,8342.0,442.0,0.655,0.579,0.374,0.309
8240670,-1420.0,9938.0,-32.0,0.654,0.577,0.379,0.311
8240686,-938.0,10414.0,-138.0,0.654,0.573,0.381,0.314
8240712,-1108.0,9238.0,238.0,0.657,0.567,0.382,0.319
8240728,-748.0,7520.0,710.0,0.659,0.561,0.382,0.324
8240744,-1260.0,7240.0,-238.0,0.662,0.556,0.381,0.328
8240761,-1204.0,7454.0,366.0,0.665,0.553,0.378,0.331
8240777,-2232.0,8146.0,298.0,0.668,0.552,0.373,0.332
8240793,-1894.0,8314.0,546.0,0.671,0.552,0.367,0.332
8240810,-2252.0,9350.0,-402.0,0.674,0.554,0.358,0.332
8240827,-1712.0,7506.0,150.0,0.678,0.556,0.347,0.333
8240853,-1556.0,8580.0,1422.0,0.683,0.557,0.332,0.336
8240870,-1966.0,7234.0,3248.0,0.689,0.556,0.319,0.338
8240886,-1906.0,8736.0,3990.0,0.693,0.557,0.308,0.34
8240902,-1940.0,8904.0,4526.0,0.697,0.556,0.295,0.343
8240919,-1248.0,8768.0,4254.0,0.702,0.553,0.283,0.348
8240935,-1452.0,7746.0,3234.0,0.707,0.549,0.273,0.352
8240961,-908.0,7090.0,2020.0,0.712,0.545,0.264,0.356
8240977,-20.0,6560.0,1488.0,0.715,0.542,0.256,0.361
8240993,208.0,7244.0,2032.0,0.717,0.538,0.247,0.368
8241009,198.0,5690.0,2302.0,0.718,0.538,0.243,0.369
8241026,428.0,4834.0,2532.0,0.715,0.543,0.244,0.367
8241042,-948.0,3420.0,2724.0,0.705,0.557,0.252,0.361
8241058,-1182.0,11786.0,1342.0,0.698,0.567,0.258,0.355
8241084,388.0,12418.0,1978.0,0.699,0.565,0.258,0.355
8241100,-370.0,7870.0,1822.0,0.702,0.559,0.256,0.359
8241116,-288.0,6480.0,226.0,0.702,0.557,0.258,0.361
8241132,-704.0,6058.0,104.0,0.698,0.559,0.265,0.36
8241149,-636.0,7268.0,102.0,0.691,0.565,0.275,0.357
8241165,-1148.0,10354.0,68.0,0.687,0.566,0.284,0.355
8241182,-704.0,9878.0,1548.0,0.686,0.563,0.291,0.357
8241199,-510.0,9126.0,1818.0,0.686,0.558,0.296,0.361
8241225,-624.0,9218.0,2012.0,0.687,0.551,0.301,0.365
8241241,-1092.0,9274.0,1660.0,0.688,0.544,0.306,0.371
8241257,-744.0,7614.0,838.0,0.687,0.538,0.312,0.376
8241273,-1468.0,6932.0,46.0,0.684,0.534,0.321,0.38
8241289,-1780.0,7040.0,500.0,0.679,0.531,0.332,0.383
8241305,-1450.0,6732.0,2130.0,0.674,0.53,0.342,0.385
8241331,-1442.0,6262.0,3254.0,0.669,0.53,0.352,0.385
8241347,-942.0,7174.0,3682.0,0.664,0.531,0.361,0.383
8241363,-1812.0,7280.0,2704.0,0.659,0.533,0.37,0.381
8241379,-1566.0,7270.0,1774.0,0.654,0.535,0.379,0.376
8241395,-1982.0,9178.0,1208.0,0.65,0.538,0.386,0.372
8241421,-1752.0,8998.0,1820.0,0.649,0.539,0.391,0.368
8241437,-1522.0,7262.0,2934.0,0.648,0.54,0.395,0.364
8241453,-1444.0,8968.0,2462.0,0.648,0.542,0.397,0.359
8241469,-1506.0,10320.0,1334.0,0.649,0.543,0.397,0.356
8241486,-1614.0,9600.0,738.0,0.651,0.544,0.395,0.354
8241502,-1492.0,8976.0,1278.0,0.654,0.543,0.391,0.352
8241518,-1824.0,8440.0,1672.0,0.658,0.542,0.387,0.351
8241535,-1800.0,8452.0,728.0,0.663,0.54,0.383,0.35
8241561,-1796.0,7662.0,236.0,0.668,0.537,0.378,0.35
8241577,-1590.0,7506.0,336.0,0.672,0.535,0.373,0.35
8241593,-1282.0,8198.0,638.0,0.676,0.534,0.371,0.348
8241610,-1222.0,8682.0,1034.0,0.679,0.534,0.368,0.345
8241626,-976.0,8414.0,896.0,0.682,0.533,0.366,0.342
8241642,-1400.0,7108.0,1122.0,0.686,0.531,0.364,0.34
8241659,-1502.0,6566.0,1044.0,0.687,0.53,0.363,0.338
8241685,-1636.0,7166.0,1030.0,0.688,0.531,0.365,0.335
8241702,-1646.0,6434.0,1216.0,0.686,0.533,0.369,0.331
8241719,-1734.0,6994.0,1490.0,0.681,0.538,0.375,0.327
8241735,-2016.0,8472.0,1088.0,0.676,0.542,0.381,0.323
8241751,-1936.0,8374.0,1634.0,0.672,0.544,0.387,0.32
8241767,-2544.0,8412.0,980.0,0.668,0.545,0.393,0.318
8241783,-2726.0,7448.0,944.0,0.665,0.547,0.399,0.315
8241809,-2528.0,7180.0,1278.0,0.662,0.55,0.402,0.312
8241825,-2056.0,8374.0,1278.0,0.659,0.553,0.406,0.31
8241842,-2078.0,9602.0,722.0,0.658,0.554,0.407,0.308
8241859,-2254.0,9176.0,176.0,0.659,0.553,0.406,0.309
8241875,-2164.0,8422.0,166.0,0.662,0.551,0.403,0.309
8241892,-2150.0,7956.0,-278.0,0.665,0.55,0.399,0.309
8241908,-2392.0,8186.0,-108.0,0.669,0.55,0.395,0.308
8241934,-2114.0,8054.0,540.0,0.673,0.548,0.39,0.308
8241950,-1984.0,7900.0,1106.0,0.677,0.547,0.384,0.308
8241966,-1692.0,7708.0,1620.0,0.682,0.545,0.379,0.308
8241982,-1856.0,7356.0,2006.0,0.686,0.543,0.374,0.309
8241998,-2226.0,7430.0,1822.0,0.689,0.542,0.369,0.309
8242014,-1610.0,6192.0,1606.0,0.69,0.543,0.368,0.306
8242040,-1922.0,5646.0,1456.0,0.687,0.547,0.37,0.302
8242056,-2034.0,7486.0,212.0,0.682,0.554,0.375,0.297
8242072,-2690.0,8094.0,332.0,0.678,0.559,0.378,0.292
8242089,-2480.0,9848.0,364.0,0.675,0.563,0.379,0.29
8242106,-1086.0,8252.0,426.0,0.675,0.563,0.379,0.289
8242122,-708.0,7420.0,1538.0,0.674,0.565,0.379,0.289
8242138,-850.0,7324.0,1922.0,0.671,0.569,0.38,0.287
8242164,-1468.0,8096.0,1140.0,0.668,0.573,0.381,0.284
8242180,-1694.0,8654.0,-134.0,0.665,0.578,0.382,0.28
8242196,-1508.0,7934.0,274.0,0.662,0.582,0.382,0.278
8242212,-1740.0,8282.0,48.0,0.66,0.585,0.382,0.275
8242228,-1832.0,8660.0,188.0,0.66,0.586,0.382,0.274
8242244,-1918.0,8234.0,570.0,0.66,0.586,0.381,0.274
8242270,-1812.0,8048.0,736.0,0.661,0.586,0.381,0.273
8242287,-1722.0,7900.0,264.0,0.661,0.586,0.381,0.273
8242303,-1946.0,8352.0,-450.0,0.661,0.586,0.381,0.273
8242319,-1914.0,9126.0,-482.0,0.662,0.584,0.381,0.273
8242336,-1672.0,7416.0,384.0,0.664,0.582,0.38,0.274
8242352,-1890.0,7696.0,928.0,0.665,0.58,0.381,0.275
8242368,-2104.0,7450.0,1280.0,0.666,0.579,0.382,0.276
8242394,-2312.0,7820.0,836.0,0.665,0.579,0.383,0.275
8242411,-2244.0,8516.0,508.0,0.665,0.578,0.384,0.275
8242427,-2232.0,8146.0,694.0,0.666,0.577,0.384,0.276
8242443,-2160.0,7900.0,762.0,0.667,0.576,0.383,0.276
8242460,-2286.0,7812.0,742.0,0.668,0.575,0.383,0.277
8242477,-2130.0,7966.0,324.0,0.668,0.575,0.383,0.277
8242493,-2210.0,7876.0,600.0,0.669,0.573,0.383,0.277
8242510,-2292.0,7996.0,940.0,0.67,0.573,0.383,0.277
8242526,-2228.0,7960.0,1038.0,0.67,0.572,0.383,0.278
8242552,-2372.0,7910.0,482.0,0.671,0.571,0.383,0.278
8242568,-2196.0,7898.0,450.0,0.671,0.571,0.383,0.279
8242584,-2166.0,7878.0,514.0,0.671,0.57,0.383,0.279
8242600,-2218.0,7750.0,838.0,0.671,0.57,0.384,0.28
8242616,-2058.0,7848.0,964.0,0.67,0.57,0.384,0.28
8242633,-2156.0,7778.0,942.0,0.669,0.57,0.385,0.28
8242650,-2036.0,7910.0,774.0,0.668,0.571,0.386,0.28
8242676,-1936.0,7824.0,872.0,0.667,0.572,0.387,0.28
8242692,-1928.0,7690.0,702.0,0.665,0.573,0.388,0.28
8242708,-1880.0,7802.0,678.0,0.663,0.574,0.39,0.279
8242724,-1918.0,7820.0,696.0,0.661,0.576,0.392,0.279
8242740,-1832.0,7800.0,524.0,0.659,0.578,0.394,0.278
8242757,-2010.0,8008.0,368.0,0.656,0.58,0.396,0.278
8242783,-2176.0,7994.0,684.0,0.653,0.581,0.398,0.277
8242800,-2412.0,8530.0,630.0,0.651,0.583,0.399,0.277
8242816,-2340.0,9042.0,676.0,0.65,0.583,0.399,0.278
8242832,-2096.0,9434.0,294.0,0.653,0.581,0.396,0.281
8242848,-2210.0,8800.0,-210.0,0.657,0.577,0.393,0.285
8242864,-2092.0,8728.0,-662.0,0.663,0.571,0.389,0.291
8242880,-1516.0,8794.0,-1208.0,0.668,0.564,0.385,0.296
8242906,-1138.0,7896.0,-198.0,0.672,0.559,0.381,0.302
8242922,-1064.0,7154.0,582.0,0.675,0.555,0.379,0.305
8242939,-1066.0,6072.0,946.0,0.676,0.553,0.378,0.307
8242955,-1140.0,6888.0,962.0,0.675,0.554,0.378,0.307
8242972,-1444.0,7484.0,528.0,0.674,0.555,0.379,0.306
8242988,-1978.0,7940.0,494.0,0.674,0.556,0.381,0.304
8243005,-2290.0,8512.0,702.0,0.674,0.555,0.381,0.303
8243031,-2252.0,8182.0,606.0,0.674,0.555,0.381,0.303
8243047,-2124.0,8072.0,694.0,0.674,0.555,0.382,0.303
8243063,-1940.0,8132.0,490.0,0.675,0.555,0.382,0.302
8243079,-1748.0,7970.0,430.0,0.676,0.553,0.382,0.302
8243096,-1920.0,7856.0,700.0,0.677,0.552,0.382,0.301
8243112,-2234.0,8290.0,974.0,0.678,0.552,0.382,0.301
8243129,-2314.0,8190.0,1064.0,0.679,0.551,0.382,0.3
8243155,-2256.0,7954.0,1328.0,0.68,0.55,0.381,0.3
8243172,-1878.0,7528.0,1110.0,0.682,0.549,0.38,0.299
8243189,-2190.0,7934.0,1040.0,0.683,0.548,0.379,0.299
8243205,-2226.0,8296.0,1308.0,0.685,0.547,0.378,0.298
8243221,-2196.0,8110.0,1268.0,0.686,0.546,0.377,0.298
8243238,-2184.0,8370.0,1148.0,0.688,0.545,0.375,0.298
8243254,-2082.0,8248.0,1212.0,0.69,0.544,0.373,0.298
8243271,-1940.0,7850.0,1062.0,0.692,0.543,0.371,0.298
8243297,-1924.0,8086.0,802.0,0.692,0.543,0.371,0.298
8243313,-1792.0,8018.0,850.0,0.693,0.542,0.37,0.298
8243329,-2146.0,7714.0,1246.0,0.694,0.542,0.37,0.297
8243345,-2106.0,7472.0,1474.0,0.695,0.541,0.37,0.297
8243361,-2024.0,6868.0,1786.0,0.696,0.54,0.369,0.297
8243377,-2118.0,7798.0,1116.0,0.696,0.54,0.369,0.297
8243403,-2028.0,8082.0,1026.0,0.697,0.539,0.369,0.297
8243419,-2046.0,7506.0,1872.0,0.697,0.538,0.369,0.297
8243435,-2446.0,7498.0,2332.0,0.698,0.538,0.368,0.297
8243451,-2118.0,7800.0,1928.0,0.698,0.539,0.368,0.296
8243467,-1982.0,7820.0,1696.0,0.698,0.54,0.367,0.295
8243483,-1674.0,7830.0,1246.0,0.697,0.541,0.367,0.294
8243509,-1770.0,8252.0,774.0,0.697,0.542,0.367,0.295
8243525,-1776.0,8208.0,1276.0,0.696,0.542,0.367,0.296
8243541,-1930.0,8570.0,1764.0,0.696,0.541,0.366,0.298
8243558,-1538.0,8072.0,1802.0,0.697,0.54,0.365,0.3
8243574,-1582.0,7284.0,1848.0,0.697,0.538,0.364,0.303
8243591,-1964.0,7570.0,1710.0,0.697,0.537,0.364,0.306
8243607,-2376.0,7706.0,2374.0,0.696,0.537,0.364,0.308
8243633,-2146.0,7488.0,2568.0,0.695,0.537,0.364,0.311
8243649,-1916.0,7228.0,2292.0,0.693,0.538,0.364,0.313
8243665,-1722.0,7678.0,1562.0,0.69,0.54,0.366,0.315
8243683,-1520.0,7708.0,1372.0,0.686,0.542,0.368,0.317
8243699,-1416.0,7734.0,1382.0,0.682,0.544,0.371,0.318
8243715,-1428.0,7714.0,1534.0,0.678,0.547,0.374,0.32
8243731,-1654.0,7778.0,1650.0,0.672,0.551,0.377,0.321
8243748,-1310.0,7478.0,1552.0,0.666,0.556,0.38,0.321
8243774,-1324.0,7526.0,1070.0,0.658,0.562,0.384,0.321
8243790,-1292.0,7750.0,648.0,0.65,0.569,0.388,0.319
8243806,-1144.0,7572.0,368.0,0.642,0.576,0.393,0.318
8243822,-1070.0,8296.0,-12.0,0.633,0.582,0.399,0.317
8243838,-1998.0,9220.0,-390.0,0.625,0.587,0.404,0.319
8243854,-3058.0,11676.0,-482.0,0.619,0.588,0.406,0.325
8243881,-2282.0,9220.0,-746.0,0.616,0.587,0.405,0.334
8243898,-2488.0,7124.0,-146.0,0.612,0.587,0.406,0.34
8243914,-536.0,7000.0,802.0,0.607,0.589,0.407,0.344
8243930,-1874.0,8796.0,-738.0,0.603,0.592,0.41,0.343
8243946,514.0,9382.0,-578.0,0.597,0.599,0.412,0.34
8243962,1080.0,8362.0,-1408.0,0.594,0.602,0.412,0.339
8243978,-102.0,9794.0,-1532.0,0.594,0.603,0.413,0.336
8243995,1148.0,4400.0,-400.0,0.595,0.602,0.413,0.336
8244021,348.0,7020.0,-234.0,0.593,0.605,0.415,0.332
8244037,-474.0,8702.0,-1436.0,0.591,0.606,0.419,0.328
8244054,-496.0,10156.0,-1480.0,0.589,0.606,0.424,0.327
8244071,-1124.0,9200.0,-922.0,0.586,0.605,0.428,0.327
8244087,-1520.0,8352.0,-1250.0,0.584,0.604,0.432,0.329
8244103,-1322.0,8118.0,-1304.0,0.58,0.603,0.436,0.33
8244119,-1908.0,8828.0,-1140.0,0.577,0.603,0.44,0.332
8244146,-1722.0,9690.0,-1088.0,0.574,0.603,0.443,0.333
8244163,-1284.0,9592.0,-1638.0,0.571,0.603,0.444,0.336
8244180,-1216.0,9566.0,-1956.0,0.57,0.603,0.444,0.339
8244197,-1428.0,8432.0,-1430.0,0.57,0.602,0.442,0.342
8244213,-1602.0,6350.0,-964.0,0.572,0.602,0.439,0.344
8244229,-1906.0,6418.0,-974.0,0.574,0.602,0.437,0.342
8244245,-1846.0,7058.0,-958.0,0.578,0.601,0.435,0.339
8244261,-2122.0,7558.0,-716.0,0.583,0.6,0.433,0.336
8244287,-1940.0,7592.0,-660.0,0.588,0.598,0.431,0.333
8244304,-1676.0,8062.0,-822.0,0.593,0.596,0.429,0.331
8244321,-1776.0,8106.0,-794.0,0.598,0.593,0.427,0.33
8244338,-2158.0,7570.0,-310.0,0.603,0.59,0.424,0.331
8244355,-2268.0,7738.0,184.0,0.607,0.587,0.42,0.332
8244372,-1634.0,8536.0,680.0,0.611,0.584,0.416,0.335
8244388,-1420.0,10480.0,744.0,0.613,0.583,0.414,0.337
8244405,-1014.0,9854.0,42.0,0.615,0.58,0.412,0.341
8244421,-1192.0,7888.0,-76.0,0.615,0.577,0.412,0.345
8244438,-1004.0,7146.0,50.0,0.614,0.576,0.412,0.349
8244464,-942.0,6972.0,140.0,0.611,0.576,0.414,0.352
8244480,-788.0,7274.0,6.0,0.607,0.577,0.416,0.355
8244496,-824.0,8570.0,-50.0,0.603,0.578,0.419,0.357
8244512,-708.0,8174.0,38.0,0.599,0.579,0.42,0.359
8244529,-1094.0,8272.0,196.0,0.596,0.581,0.422,0.36
8244545,-834.0,8690.0,190.0,0.593,0.582,0.424,0.36
8244562,-280.0,7342.0,386.0,0.592,0.583,0.425,0.36
8244589,-528.0,7188.0,120.0,0.59,0.586,0.426,0.357
8244606,-834.0,7252.0,438.0,0.589,0.588,0.427,0.354
8244622,-790.0,7566.0,-400.0,0.588,0.591,0.428,0.35
8244639,-552.0,8680.0,-584.0,0.587,0.593,0.429,0.346
8244655,-444.0,8228.0,-988.0,0.586,0.595,0.43,0.343
8244672,-344.0,8654.0,-1500.0,0.585,0.596,0.431,0.341
8244689,-966.0,9222.0,-1214.0,0.583,0.597,0.433,0.341
8244705,-1064.0,8940.0,-1254.0,0.581,0.597,0.434,0.342
8244722,-1594.0,8394.0,-1100.0,0.579,0.598,0.435,0.344
8244739,-1868.0,8396.0,-982.0,0.577,0.599,0.435,0.345
8244765,-1332.0,8612.0,-1438.0,0.575,0.599,0.436,0.346
8244782,-1310.0,8370.0,-1494.0,0.575,0.599,0.435,0.348
8244798,-1478.0,8612.0,-1318.0,0.576,0.598,0.434,0.35
8244815,-1094.0,8560.0,-1398.0,0.578,0.596,0.432,0.352
8244832,-1118.0,8402.0,-1184.0,0.58,0.594,0.43,0.354
8244849,-1598.0,8490.0,-614.0,0.584,0.591,0.428,0.356
8244866,-1176.0,8248.0,-494.0,0.588,0.588,0.424,0.358
8244883,-1038.0,8124.0,-408.0,0.593,0.586,0.421,0.359
8244900,-1038.0,7924.0,-392.0,0.597,0.583,0.417,0.359
8244917,-642.0,7618.0,-482.0,0.601,0.581,0.415,0.36
8244934,-842.0,7366.0,-150.0,0.604,0.579,0.413,0.361
8244960,-1166.0,7546.0,236.0,0.606,0.577,0.412,0.36
8244977,-1046.0,7724.0,432.0,0.608,0.576,0.411,0.36
8244994,-1192.0,8120.0,444.0,0.61,0.576,0.41,0.359
8245010,-902.0,8332.0,260.0,0.611,0.575,0.41,0.358
8245026,-522.0,8694.0,-466.0,0.611,0.574,0.411,0.358
8245042,-680.0,9258.0,-658.0,0.612,0.572,0.411,0.358
8245059,-646.0,9198.0,-222.0,0.613,0.57,0.411,0.361
8245076,-824.0,8476.0,196.0,0.615,0.566,0.411,0.364
8245102,-1240.0,6722.0,1080.0,0.616,0.564,0.41,0.366
8245119,-1510.0,6930.0,1426.0,0.617,0.563,0.41,0.366
8245135,-862.0,7332.0,942.0,0.619,0.563,0.41,0.364
8245151,-736.0,7500.0,616.0,0.62,0.563,0.41,0.361
8245168,-644.0,8224.0,352.0,0.621,0.563,0.411,0.359
8245184,-664.0,8250.0,302.0,0.623,0.562,0.412,0.357
8245200,-914.0,8178.0,398.0,0.623,0.561,0.413,0.355
8245217,-948.0,8190.0,574.0,0.624,0.561,0.414,0.354
8245243,-958.0,7960.0,568.0,0.623,0.56,0.416,0.353
8245260,-1306.0,8040.0,680.0,0.622,0.56,0.419,0.352
8245276,-1592.0,8118.0,720.0,0.621,0.56,0.421,0.351
8245292,-1296.0,8018.0,604.0,0.62,0.559,0.423,0.352
8245308,-1498.0,8044.0,632.0,0.618,0.559,0.426,0.352
8245324,-1480.0,8216.0,690.0,0.616,0.559,0.428,0.353
8245350,-1302.0,7900.0,620.0,0.614,0.56,0.43,0.353
8245367,-1436.0,8046.0,548.0,0.611,0.56,0.432,0.354
8245383,-1448.0,8098.0,302.0,0.609,0.562,0.435,0.354
8245400,-1284.0,8986.0,-210.0,0.605,0.563,0.437,0.355
8245417,-1294.0,8616.0,-48.0,0.603,0.563,0.438,0.357
8245434,-1354.0,7608.0,-72.0,0.6,0.564,0.44,0.359
8245454,-1498.0,8908.0,-692.0,0.598,0.563,0.441,0.362
8245470,-1552.0,8890.0,-104.0,0.596,0.563,0.441,0.366
8245487,-1358.0,7012.0,-694.0,0.595,0.562,0.441,0.368
8245503,-904.0,7906.0,-718.0,0.593,0.563,0.441,0.37
8245520,-1048.0,8402.0,-934.0,0.591,0.564,0.441,0.37
8245536,-1226.0,8026.0,-810.0,0.59,0.565,0.441,0.371
8245553,-1038.0,8124.0,-748.0,0.59,0.566,0.441,0.371
8245579,-1056.0,8302.0,-884.0,0.59,0.566,0.441,0.37
8245596,-1192.0,8382.0,-756.0,0.592,0.565,0.441,0.369
8245612,-1108.0,8276.0,-738.0,0.593,0.564,0.44,0.369
8245629,-1294.0,8222.0,-586.0,0.595,0.563,0.44,0.368
8245646,-1214.0,8192.0,-446.0,0.597,0.561,0.44,0.367
8245662,-1316.0,8174.0,-240.0,0.599,0.559,0.44,0.367
8245678,-1520.0,8092.0,142.0,0.601,0.558,0.44,0.366
8245704,-1528.0,7998.0,220.0,0.603,0.556,0.44,0.365
8245720,-1528.0,7980.0,266.0,0.606,0.555,0.439,0.364
8245737,-1470.0,7922.0,198.0,0.608,0.553,0.439,0.363
8245754,-1532.0,7972.0,256.0,0.609,0.552,0.439,0.362
8245770,-1706.0,8148.0,376.0,0.611,0.551,0.439,0.362
8245787,-1712.0,8520.0,352.0,0.612,0.55,0.438,0.361
8245804,-1466.0,8238.0,360.0,0.613,0.55,0.437,0.361
8245821,-1524.0,8078.0,284.0,0.614,0.549,0.436,0.362
8245838,-1518.0,8464.0,318.0,0.615,0.549,0.435,0.362
8245855,-1576.0,7962.0,540.0,0.616,0.549,0.433,0.363
8245881,-1350.0,7652.0,478.0,0.616,0.55,0.431,0.363
8245897,-1430.0,8044.0,438.0,0.617,0.55,0.43,0.363
8245914,-1460.0,8466.0,426.0,0.617,0.551,0.429,0.364
8245930,-1064.0,8026.0,320.0,0.617,0.552,0.427,0.364
8245946,-842.0,7968.0,170.0,0.617,0.552,0.426,0.365
8245962,-966.0,8050.0,174.0,0.617,0.552,0.425,0.366
8245988,-1260.0,8118.0,282.0,0.617,0.552,0.425,0.366
8246005,-1106.0,8132.0,290.0,0.616,0.552,0.424,0.367
8246021,-1014.0,8230.0,204.0,0.616,0.552,0.424,0.368
8246038,-1158.0,8118.0,326.0,0.616,0.552,0.424,0.368
8246055,-1292.0,8256.0,382.0,0.616,0.552,0.423,0.369
8246071,-1102.0,8144.0,286.0,0.617,0.552,0.423,0.369
8246087,-1104.0,8130.0,312.0,0.617,0.552,0.422,0.369
8246103,-1164.0,8270.0,234.0,0.617,0.552,0.422,0.369
8246120,-1158.0,8240.0,234.0,0.618,0.552,0.421,0.369
8246137,-1070.0,8170.0,282.0,0.619,0.552,0.42,0.369
8246164,-1072.0,8224.0,214.0,0.62,0.552,0.419,0.368
8246180,-958.0,8202.0,160.0,0.621,0.551,0.419,0.368
8246197,-908.0,8236.0,190.0,0.622,0.551,0.418,0.368
8246213,-1026.0,8172.0,308.0,0.623,0.55,0.418,0.368
8246229,-1180.0,8150.0,440.0,0.624,0.549,0.418,0.368
8246246,-1238.0,8162.0,484.0,0.625,0.548,0.417,0.368
8246262,-1116.0,8132.0,442.0,0.626,0.547,0.417,0.368
8246288,-1230.0,8196.0,612.0,0.627,0.546,0.417,0.368
8246304,-1364.0,8220.0,678.0,0.627,0.545,0.417,0.368
8246321,-1172.0,8018.0,560.0,0.628,0.544,0.416,0.368
8246338,-1154.0,7952.0,536.0,0.629,0.544,0.416,0.368
8246354,-1304.0,8056.0,646.0,0.629,0.543,0.417,0.368
8246370,-1684.0,8170.0,914.0,0.63,0.542,0.416,0.368
8246386,-1324.0,8106.0,822.0,0.63,0.542,0.416,0.369
8246412,-1224.0,8130.0,690.0,0.631,0.542,0.415,0.369
8246428,-1366.0,8024.0,842.0,0.632,0.542,0.415,0.368
8246444,-1490.0,8106.0,770.0,0.632,0.542,0.414,0.368
8246460,-1178.0,8334.0,512.0,0.633,0.541,0.413,0.368
8246476,-1186.0,8356.0,652.0,0.634,0.541,0.411,0.369
8246492,-1258.0,8168.0,810.0,0.636,0.54,0.41,0.369
8246518,-1282.0,7946.0,806.0,0.637,0.539,0.408,0.37
8246534,-1096.0,8340.0,564.0,0.638,0.538,0.407,0.37
8246550,-1246.0,8570.0,730.0,0.639,0.537,0.406,0.371
8246566,-1106.0,8038.0,782.0,0.641,0.536,0.404,0.372
8246582,-1222.0,7948.0,614.0,0.642,0.535,0.403,0.373
8246598,-1308.0,8100.0,706.0,0.643,0.534,0.402,0.373
8246624,-1130.0,8124.0,730.0,0.645,0.533,0.401,0.374
8246640,-1120.0,8154.0,694.0,0.646,0.532,0.4,0.374
8246656,-1082.0,8212.0,778.0,0.647,0.531,0.4,0.374
8246672,-1192.0,8102.0,944.0,0.648,0.529,0.399,0.375
8246688,-1212.0,8040.0,1080.0,0.649,0.528,0.398,0.375
8246704,-1256.0,8034.0,1102.0,0.651,0.527,0.398,0.375
8246730,-1190.0,8072.0,1002.0,0.652,0.526,0.397,0.375
8246746,-1228.0,8080.0,976.0,0.653,0.525,0.397,0.376
8246762,-1342.0,8156.0,1146.0,0.654,0.523,0.396,0.376
8246778,-1494.0,8028.0,1366.0,0.656,0.522,0.395,0.377
8246794,-1588.0,7988.0,1522.0,0.657,0.521,0.394,0.377
8246810,-1382.0,8088.0,1448.0,0.658,0.52,0.392,0.378
8246836,-1336.0,8018.0,1480.0,0.66,0.519,0.39,0.378
8246852,-1322.0,7950.0,1440.0,0.661,0.519,0.389,0.378
8246868,-1300.0,7914.0,1424.0,0.662,0.518,0.387,0.378
8246884,-1280.0,7828.0,1538.0,0.663,0.518,0.386,0.378
8246900,-1314.0,7854.0,1646.0,0.664,0.518,0.384,0.378
8246916,-948.0,7558.0,1654.0,0.664,0.519,0.383,0.378
8246942,-1092.0,7456.0,1684.0,0.664,0.519,0.383,0.378
8246958,-1192.0,8164.0,1444.0,0.664,0.52,0.383,0.377
8246974,-946.0,8370.0,1324.0,0.664,0.52,0.383,0.376
8246990,-652.0,7860.0,1390.0,0.665,0.519,0.383,0.376
8247006,-900.0,7962.0,1562.0,0.666,0.518,0.384,0.376
8247022,-1110.0,8256.0,1640.0,0.666,0.517,0.384,0.376
8247048,-1110.0,8408.0,1806.0,0.666,0.517,0.384,0.376
8247065,-1144.0,8276.0,1860.0,0.666,0.517,0.383,0.376
8247081,-894.0,8034.0,1754.0,0.666,0.517,0.383,0.377
8247097,-830.0,7664.0,1606.0,0.666,0.518,0.382,0.377
8247113,-874.0,7768.0,1466.0,0.666,0.519,0.382,0.377
8247129,-808.0,8076.0,1282.0,0.665,0.519,0.382,0.377
8247155,-896.0,8202.0,1320.0,0.664,0.52,0.382,0.377
8247171,-1052.0,7886.0,1580.0,0.663,0.52,0.382,0.378
8247187,-996.0,7976.0,1592.0,0.662,0.521,0.383,0.378
8247203,-1076.0,8020.0,1504.0,0.661,0.522,0.384,0.379
8247219,-1070.0,8034.0,1386.0,0.66,0.522,0.384,0.379
8247235,-1056.0,8044.0,1374.0,0.659,0.523,0.385,0.38
8247261,-1136.0,8018.0,1374.0,0.658,0.523,0.386,0.38
8247277,-1136.0,8074.0,1246.0,0.656,0.523,0.388,0.381
8247293,-1148.0,7968.0,1296.0,0.655,0.524,0.389,0.382
8247309,-1208.0,8048.0,1240.0,0.654,0.524,0.39,0.382
8247325,-1318.0,8100.0,1202.0,0.653,0.525,0.391,0.382
8247341,-1288.0,8146.0,1246.0,0.651,0.525,0.392,0.383
8247367,-1164.0,8068.0,1202.0,0.65,0.526,0.392,0.383
8247383,-1210.0,8078.0,1178.0,0.649,0.527,0.393,0.383
8247399,-1270.0,8156.0,1194.0,0.648,0.528,0.393,0.383
8247415,-1140.0,7986.0,1146.0,0.647,0.529,0.394,0.383
8247431,-1170.0,8128.0,1102.0,0.646,0.531,0.394,0.383
8247447,-1206.0,8414.0,930.0,0.645,0.532,0.394,0.383
8247473,-1204.0,8578.0,782.0,0.645,0.532,0.393,0.383
8247490,-1232.0,8188.0,964.0,0.644,0.532,0.393,0.385
8247506,-1184.0,7866.0,1126.0,0.644,0.532,0.392,0.386
8247522,-1152.0,8002.0,1084.0,0.643,0.533,0.391,0.386
8247538,-1158.0,8282.0,1004.0,0.643,0.534,0.391,0.387
8247554,-1126.0,8190.0,996.0,0.642,0.535,0.39,0.388
8247580,-1028.0,8276.0,946.0,0.641,0.535,0.388,0.389
8247596,-894.0,8238.0,886.0,0.641,0.536,0.387,0.39
8247612,-812.0,8408.0,838.0,0.641,0.536,0.385,0.391
8247628,-820.0,8388.0,888.0,0.641,0.536,0.384,0.393
8247644,-798.0,8178.0,1010.0,0.641,0.536,0.382,0.394
8247660,-746.0,8036.0,1150.0,0.642,0.536,0.38,0.395
8247686,-718.0,8160.0,1092.0,0.643,0.536,0.377,0.396
8247702,-614.0,8180.0,1032.0,0.643,0.537,0.375,0.396
8247718,-414.0,8216.0,980.0,0.644,0.537,0.373,0.397
8247734,-424.0,8166.0,1026.0,0.645,0.537,0.372,0.397
8247750,-430.0,8090.0,1148.0,0.646,0.537,0.37,0.397
8247766,-322.0,8150.0,1110.0,0.647,0.537,0.369,0.397
8247792,-268.0,8320.0,1080.0,0.648,0.537,0.368,0.396
8247808,-362.0,7846.0,1266.0,0.648,0.537,0.367,0.396
8247824,-496.0,7900.0,1504.0,0.649,0.537,0.367,0.395
8247840,-438.0,8084.0,1474.0,0.649,0.537,0.367,0.394
8247856,-468.0,8268.0,1366.0,0.65,0.538,0.366,0.393
8247872,-260.0,8098.0,1404.0,0.651,0.538,0.366,0.391
8247898,-296.0,8204.0,1292.0,0.652,0.538,0.366,0.39
8247914,-288.0,8096.0,1396.0,0.652,0.538,0.366,0.389
8247930,-300.0,8040.0,1432.0,0.653,0.537,0.366,0.388
8247946,-432.0,8202.0,1436.0,0.653,0.537,0.367,0.387
8247962,-454.0,8144.0,1500.0,0.654,0.537,0.367,0.387
8247978,-568.0,8094.0,1490.0,0.654,0.537,0.367,0.386
8248005,-588.0,8096.0,1476.0,0.655,0.536,0.367,0.386
8248021,-636.0,8118.0,1482.0,0.655,0.536,0.368,0.386
8248037,-764.0,8150.0,1500.0,0.655,0.535,0.368,0.386
8248053,-728.0,8114.0,1494.0,0.656,0.534,0.368,0.386
8248069,-840.0,7856.0,1560.0,0.656,0.534,0.368,0.386
8248085,-834.0,7978.0,1552.0,0.656,0.534,0.369,0.387
8248111,-916.0,8052.0,1458.0,0.655,0.533,0.37,0.387
8248127,-814.0,8082.0,1448.0,0.655,0.533,0.37,0.387
8248143,-864.0,8068.0,1408.0,0.655,0.533,0.371,0.387
8248159,-940.0,7916.0,1454.0,0.654,0.533,0.371,0.388
8248175,-896.0,7992.0,1424.0,0.653,0.533,0.372,0.388
8248192,-796.0,7940.0,1422.0,0.652,0.534,0.373,0.388
8248208,-820.0,7970.0,1370.0,0.651,0.535,0.374,0.387
8248234,-826.0,7946.0,1312.0,0.65,0.536,0.375,0.387
8248250,-754.0,8012.0,1308.0,0.649,0.537,0.376,0.386
8248266,-782.0,8112.0,1240.0,0.648,0.538,0.377,0.386
8248282,-710.0,8154.0,1126.0,0.647,0.539,0.378,0.385
8248298,-748.0,8158.0,1116.0,0.645,0.54,0.38,0.385
8248314,-652.0,8110.0,1074.0,0.644,0.541,0.381,0.384
8248340,-714.0,8184.0,996.0,0.642,0.542,0.382,0.384
8248356,-770.0,8198.0,966.0,0.641,0.543,0.383,0.384
8248372,-778.0,8268.0,900.0,0.64,0.544,0.384,0.385
8248388,-752.0,8506.0,798.0,0.638,0.544,0.385,0.385
8248405,-814.0,8264.0,950.0,0.637,0.544,0.385,0.386
8248421,-800.0,8016.0,1070.0,0.636,0.544,0.386,0.387
8248438,-1020.0,8110.0,1004.0,0.636,0.545,0.386,0.388
8248465,-682.0,8302.0,986.0,0.635,0.546,0.385,0.388
8248482,-634.0,8366.0,856.0,0.634,0.546,0.385,0.389
8248499,-520.0,8194.0,798.0,0.634,0.547,0.384,0.39
8248516,-512.0,8136.0,750.0,0.633,0.547,0.384,0.39
8248532,-546.0,8236.0,692.0,0.632,0.548,0.384,0.391
8248549,-692.0,8272.0,804.0,0.631,0.548,0.385,0.391
8248565,-688.0,8238.0,822.0,0.631,0.548,0.385,0.392
8248582,-716.0,8178.0,806.0,0.63,0.548,0.385,0.392
8248599,-570.0,8066.0,816.0,0.63,0.548,0.385,0.393
8248616,-622.0,8238.0,648.0,0.63,0.548,0.385,0.393
8248642,-636.0,8258.0,756.0,0.629,0.548,0.385,0.394
8248658,-538.0,8198.0,712.0,0.629,0.548,0.385,0.394
8248674,-488.0,8314.0,628.0,0.629,0.548,0.385,0.394
8248690,-696.0,8280.0,754.0,0.629,0.548,0.385,0.394
8248706,-564.0,8140.0,838.0,0.63,0.548,0.385,0.394
8248722,-578.0,8164.0,842.0,0.63,0.547,0.385,0.394
8248748,-684.0,8342.0,764.0,0.631,0.547,0.385,0.394
8248764,-526.0,8244.0,848.0,0.631,0.547,0.384,0.394
8248780,-502.0,8218.0,754.0,0.632,0.546,0.383,0.394
8248796,-412.0,8280.0,798.0,0.633,0.545,0.383,0.394
8248812,-526.0,8188.0,890.0,0.634,0.544,0.383,0.394
8248828,-598.0,8182.0,964.0,0.634,0.543,0.383,0.395
8248854,-642.0,8198.0,1050.0,0.635,0.542,0.382,0.395
8248871,-660.0,8226.0,1080.0,0.636,0.541,0.382,0.396
8248888,-620.0,8252.0,1056.0,0.637,0.54,0.381,0.396
8248904,-632.0,8178.0,1072.0,0.638,0.539,0.381,0.396
8248920,-672.0,8126.0,1090.0,0.639,0.538,0.38,0.396
8248936,-636.0,8182.0,1064.0,0.64,0.537,0.38,0.397
8248952,-616.0,8184.0,1038.0,0.641,0.536,0.379,0.397
8248969,-752.0,8172.0,1214.0,0.643,0.535,0.378,0.397
8248995,-780.0,8098.0,1254.0,0.644,0.534,0.377,0.398
8249011,-682.0,8170.0,1268.0,0.645,0.533,0.376,0.398
8249027,-666.0,8044.0,1358.0,0.646,0.532,0.375,0.398
8249043,-708.0,7904.0,1362.0,0.647,0.531,0.375,0.398
8249059,-824.0,7956.0,1390.0,0.648,0.531,0.374,0.397
8249085,-690.0,8094.0,1370.0,0.649,0.53,0.373,0.397
8249101,-548.0,8198.0,1368.0,0.65,0.53,0.373,0.397
8249117,-502.0,8302.0,1226.0,0.651,0.529,0.372,0.397
8249133,-624.0,7878.0,1434.0,0.652,0.528,0.372,0.398
8249149,-714.0,7732.0,1504.0,0.652,0.528,0.371,0.398
8249165,-460.0,7754.0,1574.0,0.652,0.528,0.371,0.397
8249182,-418.0,7842.0,1430.0,0.652,0.528,0.372,0.397
8249208,-398.0,7970.0,1480.0,0.652,0.529,0.372,0.396
8249224,-518.0,8058.0,1584.0,0.651,0.53,0.373,0.394
8249240,-646.0,8182.0,1778.0,0.651,0.532,0.373,0.393
8249256,-666.0,8044.0,1720.0,0.65,0.534,0.373,0.392
8249272,-594.0,7944.0,1588.0,0.65,0.536,0.373,0.39
8249289,-452.0,7968.0,1378.0,0.649,0.538,0.373,0.388
8249306,-380.0,8148.0,1228.0,0.648,0.54,0.373,0.386
8249323,-418.0,8374.0,1060.0,0.648,0.542,0.374,0.384
8249349,-474.0,8366.0,1116.0,0.648,0.542,0.374,0.383
8249365,-558.0,8222.0,1198.0,0.647,0.543,0.375,0.382
8249381,-584.0,8180.0,1162.0,0.647,0.543,0.376,0.382
8249397,-622.0,8124.0,1126.0,0.647,0.542,0.377,0.382
8249413,-818.0,7944.0,1198.0,0.646,0.542,0.378,0.382
8249439,-678.0,8014.0,1062.0,0.645,0.542,0.38,0.382
8249457,-722.0,8204.0,998.0,0.644,0.542,0.382,0.382
8249473,-890.0,8164.0,970.0,0.643,0.541,0.384,0.382
8249489,-800.0,8160.0,892.0,0.642,0.541,0.386,0.383
8249505,-824.0,8214.0,832.0,0.641,0.54,0.388,0.384
8249521,-980.0,8094.0,1014.0,0.64,0.539,0.39,0.384
8249537,-1062.0,7924.0,998.0,0.638,0.539,0.393,0.385
8249553,-1026.0,8132.0,918.0,0.637,0.539,0.395,0.385
8249579,-1002.0,8090.0,942.0,0.636,0.539,0.396,0.385
8249595,-954.0,8152.0,934.0,0.635,0.539,0.398,0.385
8249611,-1070.0,8138.0,868.0,0.633,0.54,0.4,0.385
8249627,-1032.0,8068.0,854.0,0.632,0.54,0.401,0.384
8249643,-854.0,8060.0,830.0,0.631,0.542,0.402,0.383
8249669,-1116.0,8260.0,730.0,0.63,0.543,0.403,0.382
8249685,-1014.0,8128.0,778.0,0.629,0.545,0.403,0.38
8249701,-734.0,8338.0,630.0,0.628,0.547,0.404,0.379
8249717,-866.0,8500.0,466.0,0.627,0.549,0.404,0.378
8249733,-758.0,8394.0,412.0,0.626,0.55,0.404,0.376
8249749,-686.0,8324.0,388.0,0.626,0.551,0.404,0.375
8249775,-786.0,8162.0,406.0,0.626,0.552,0.404,0.374
8249791,-758.0,8346.0,342.0,0.627,0.552,0.404,0.373
8249808,-732.0,8408.0,342.0,0.627,0.553,0.403,0.372
8249825,-882.0,8366.0,384.0,0.628,0.553,0.403,0.371
8249841,-920.0,8342.0,328.0,0.629,0.552,0.403,0.371
8249857,-898.0,8268.0,366.0,0.63,0.552,0.402,0.37
8249873,-900.0,8280.0,302.0,0.631,0.551,0.402,0.37
8249899,-988.0,8246.0,408.0,0.632,0.55,0.402,0.37
8249915,-1026.0,8288.0,418.0,0.633,0.549,0.402,0.37
8249931,-1006.0,8220.0,496.0,0.634,0.548,0.402,0.37
8249947,-1076.0,8094.0,574.0,0.635,0.547,0.402,0.37
8249963,-1200.0,7990.0,660.0,0.635,0.546,0.402,0.37
8249979,-1152.0,8132.0,732.0,0.636,0.545,0.402,0.37
8250005,-1122.0,7910.0,910.0,0.637,0.544,0.402,0.37
8250021,-1124.0,7810.0,986.0,0.637,0.543,0.403,0.37
8250037,-1180.0,8118.0,798.0,0.637,0.543,0.404,0.369
8250053,-1182.0,8160.0,816.0,0.637,0.542,0.405,0.369
8250069,-1270.0,8210.0,830.0,0.638,0.542,0.405,0.368
8250085,-1180.0,8182.0,904.0,0.638,0.541,0.406,0.369
8250111,-1196.0,7964.0,968.0,0.637,0.541,0.406,0.369
8250127,-1190.0,7900.0,876.0,0.637,0.541,0.407,0.368
8250143,-1158.0,8046.0,748.0,0.637,0.541,0.408,0.368
8250159,-1206.0,8098.0,794.0,0.636,0.542,0.408,0.368
8250175,-1126.0,8142.0,860.0,0.635,0.542,0.409,0.369
8250191,-1086.0,8196.0,850.0,0.634,0.543,0.409,0.369
8250217,-1018.0,8170.0,808.0,0.633,0.543,0.409,0.369
8250233,-886.0,8408.0,618.0,0.633,0.544,0.409,0.369
8250249,-864.0,8494.0,452.0,0.632,0.545,0.409,0.37
8250265,-940.0,8066.0,634.0,0.631,0.544,0.409,0.371
8250281,-1080.0,7890.0,940.0,0.631,0.545,0.409,0.372
8250297,-1074.0,7854.0,1030.0,0.63,0.545,0.409,0.372
8250323,-824.0,8052.0,736.0,0.629,0.547,0.409,0.372
8250340,-730.0,8230.0,474.0,0.628,0.548,0.409,0.371
8250356,-714.0,8290.0,322.0,0.628,0.548,0.409,0.371
8250373,-886.0,8400.0,334.0,0.627,0.549,0.41,0.371
8250390,-936.0,8296.0,482.0,0.627,0.549,0.41,0.371
8250407,-922.0,8178.0,392.0,0.626,0.55,0.41,0.372
8250424,-884.0,8286.0,294.0,0.626,0.55,0.41,0.372
8250440,-878.0,8158.0,386.0,0.625,0.55,0.41,0.372
8250457,-1044.0,8060.0,454.0,0.625,0.549,0.411,0.373
8250483,-962.0,8428.0,220.0,0.625,0.549,0.411,0.373
8250499,-1076.0,8312.0,432.0,0.625,0.549,0.411,0.374
8250515,-1122.0,8078.0,582.0,0.625,0.548,0.411,0.374
8250531,-1018.0,8164.0,362.0,0.625,0.548,0.411,0.374
8250547,-1034.0,8182.0,396.0,0.625,0.548,0.411,0.374
8250563,-1018.0,8222.0,438.0,0.625,0.548,0.411,0.374
8250589,-1038.0,8254.0,492.0,0.626,0.548,0.411,0.374
8250606,-1002.0,8182.0,520.0,0.626,0.547,0.41,0.373
8250623,-1076.0,8202.0,412.0,0.627,0.547,0.41,0.373
8250640,-1004.0,8126.0,450.0,0.628,0.547,0.41,0.373
8250656,-996.0,8172.0,618.0,0.628,0.546,0.409,0.373
8250673,-1170.0,8120.0,668.0,0.629,0.546,0.409,0.373
8250690,-1082.0,8150.0,576.0,0.63,0.545,0.409,0.373
8250707,-924.0,8238.0,562.0,0.63,0.545,0.408,0.373
8250726,-888.0,8212.0,510.0,0.631,0.544,0.408,0.373
8250742,-1020.0,8222.0,642.0,0.631,0.544,0.408,0.373
8250758,-1118.0,8106.0,720.0,0.632,0.543,0.407,0.373
8250784,-1054.0,8168.0,772.0,0.633,0.543,0.407,0.374
8250800,-1082.0,8160.0,764.0,0.633,0.542,0.407,0.374
8250816,-1044.0,8176.0,706.0,0.633,0.542,0.406,0.374
8250832,-980.0,8236.0,616.0,0.634,0.542,0.405,0.374
8250848,-944.0,8152.0,726.0,0.634,0.541,0.405,0.375
8250864,-998.0,8142.0,784.0,0.635,0.541,0.404,0.375
8250890,-930.0,8174.0,810.0,0.635,0.541,0.403,0.376
8250906,-946.0,8070.0,742.0,0.636,0.54,0.403,0.376
8250923,-876.0,8184.0,742.0,0.636,0.54,0.402,0.377
8250940,-904.0,8142.0,806.0,0.637,0.539,0.402,0.377
8250957,-890.0,8088.0,824.0,0.637,0.539,0.401,0.378
8250973,-976.0,8012.0,964.0,0.638,0.539,0.401,0.378
8250990,-918.0,8158.0,908.0,0.638,0.538,0.4,0.378
8251007,-852.0,8174.0,800.0,0.638,0.538,0.4,0.378
8251023,-742.0,8196.0,802.0,0.639,0.538,0.4,0.378
8251040,-792.0,8070.0,822.0,0.639,0.538,0.399,0.378
8251066,-866.0,8026.0,892.0,0.639,0.537,0.399,0.378
8251082,-908.0,8174.0,974.0,0.64,0.537,0.399,0.378
8251098,-856.0,8124.0,980.0,0.64,0.537,0.399,0.378
8251114,-844.0,8060.0,936.0,0.64,0.536,0.399,0.377
8251130,-826.0,8096.0,864.0,0.641,0.536,0.4,0.377
8251156,-898.0,8156.0,936.0,0.641,0.536,0.4,0.377
8251173,-920.0,8060.0,986.0,0.641,0.536,0.4,0.377
8251189,-922.0,8096.0,986.0,0.641,0.535,0.401,0.377
8251205,-916.0,8126.0,914.0,0.641,0.535,0.401,0.376
8251221,-910.0,8176.0,906.0,0.641,0.535,0.401,0.376
8251237,-996.0,8134.0,882.0,0.641,0.535,0.402,0.376
8251253,-1020.0,8092.0,942.0,0.641,0.535,0.402,0.376
8251279,-1004.0,8136.0,892.0,0.64,0.535,0.403,0.376
8251295,-1088.0,8144.0,904.0,0.64,0.535,0.403,0.377
8251311,-1054.0,8194.0,820.0,0.64,0.535,0.403,0.377
8251327,-1136.0,8116.0,836.0,0.639,0.535,0.404,0.377
8251343,-1222.0,8106.0,896.0,0.639,0.535,0.404,0.377
8251359,-1106.0,8144.0,858.0,0.639,0.535,0.405,0.377
8251385,-1114.0,8158.0,794.0,0.639,0.535,0.405,0.377
8251401,-1078.0,8154.0,744.0,0.638,0.535,0.405,0.377
8251417,-1076.0,8102.0,752.0,0.638,0.535,0.406,0.377
8251434,-1102.0,8146.0,854.0,0.638,0.535,0.406,0.378
8251450,-1140.0,8122.0,868.0,0.638,0.535,0.406,0.378
8251466,-1026.0,8198.0,760.0,0.638,0.535,0.406,0.378
8251492,-1040.0,8204.0,770.0,0.638,0.535,0.406,0.377
8251508,-1042.0,8142.0,730.0,0.638,0.535,0.406,0.377
8251524,-1014.0,8162.0,718.0,0.638,0.535,0.406,0.377
8251540,-1046.0,8228.0,754.0,0.638,0.535,0.406,0.377
8251556,-1102.0,8176.0,804.0,0.638,0.535,0.406,0.377
8251573,-1032.0,8130.0,778.0,0.638,0.535,0.406,0.377
8251590,-1082.0,8186.0,846.0,0.638,0.534,0.406,0.377
8251616,-1088.0,8162.0,840.0,0.638,0.534,0.406,0.377
8251632,-1130.0,8190.0,856.0,0.639,0.534,0.406,0.377
8251648,-1062.0,8200.0,840.0,0.639,0.534,0.406,0.377
8251664,-946.0,8252.0,722.0,0.639,0.534,0.406,0.377
8251680,-972.0,8172.0,738.0,0.64,0.533,0.406,0.377
8251696,-886.0,8232.0,806.0,0.64,0.533,0.405,0.377
8251722,-994.0,8236.0,854.0,0.64,0.532,0.405,0.378
8251738,-1022.0,8152.0,852.0,0.641,0.531,0.405,0.378
8251755,-968.0,8202.0,866.0,0.642,0.531,0.405,0.378
8251771,-964.0,8146.0,866.0,0.642,0.53,0.404,0.379
8251788,-948.0,8112.0,878.0,0.643,0.529,0.404,0.379
8251805,-904.0,8082.0,880.0,0.643,0.528,0.404,0.38
8251822,-1070.0,8050.0,980.0,0.644,0.527,0.404,0.38
8251838,-1076.0,8020.0,1012.0,0.644,0.527,0.404,0.38
8251864,-1086.0,8074.0,1114.0,0.645,0.526,0.404,0.38
8251880,-1058.0,8044.0,1034.0,0.646,0.525,0.404,0.38
8251896,-1054.0,8040.0,956.0,0.646,0.525,0.404,0.38
8251912,-1054.0,8146.0,954.0,0.647,0.524,0.404,0.38
8251928,-1150.0,8176.0,1020.0,0.647,0.523,0.404,0.38
8251944,-1174.0,8044.0,1124.0,0.648,0.523,0.404,0.38
8251970,-1168.0,8090.0,1112.0,0.648,0.522,0.404,0.38
8251986,-1148.0,8118.0,1138.0,0.648,0.522,0.403,0.38
8252002,-1160.0,8100.0,1148.0,0.649,0.521,0.403,0.38
8252018,-1180.0,8088.0,1160.0,0.649,0.521,0.403,0.38
8252034,-1172.0,7994.0,1164.0,0.65,0.521,0.403,0.38
8252050,-1116.0,8110.0,1172.0,0.65,0.52,0.403,0.38
8252076,-1242.0,8072.0,1180.0,0.65,0.52,0.402,0.381
8252092,-1164.0,8042.0,1176.0,0.65,0.52,0.402,0.381
8252108,-1132.0,8052.0,1128.0,0.65,0.52,0.402,0.381
8252124,-1218.0,8096.0,1152.0,0.65,0.52,0.402,0.381
8252140,-1220.0,8012.0,1242.0,0.65,0.52,0.402,0.381
8252156,-1152.0,8036.0,1196.0,0.65,0.52,0.402,0.382
8252174,-1080.0,8130.0,1110.0,0.65,0.52,0.402,0.382
8252200,-1200.0,8014.0,1218.0,0.65,0.52,0.401,0.382
8252216,-1174.0,8020.0,1244.0,0.65,0.521,0.401,0.382
8252232,-1048.0,8124.0,1156.0,0.65,0.521,0.401,0.382
8252248,-1032.0,8144.0,1084.0,0.649,0.522,0.401,0.381
8252264,-1078.0,8156.0,1074.0,0.649,0.522,0.4,0.382
8252280,-1042.0,8062.0,1164.0,0.649,0.523,0.4,0.382
8252306,-1082.0,8116.0,1138.0,0.649,0.523,0.4,0.382
8252322,-1102.0,8082.0,1150.0,0.649,0.523,0.399,0.382
8252338,-998.0,8082.0,1114.0,0.648,0.524,0.399,0.382
8252354,-966.0,8162.0,1050.0,0.648,0.524,0.399,0.382
8252370,-956.0,8126.0,1108.0,0.648,0.524,0.399,0.382
8252386,-966.0,8058.0,1078.0,0.648,0.525,0.399,0.383
8252412,-1036.0,8042.0,1168.0,0.647,0.525,0.399,0.383
8252428,-1052.0,8170.0,1134.0,0.647,0.525,0.399,0.383
8252444,-1024.0,8104.0,1112.0,0.647,0.525,0.399,0.383
8252460,-1026.0,8174.0,1020.0,0.647,0.525,0.399,0.383
8252476,-1012.0,8094.0,1030.0,0.647,0.525,0.399,0.383
8252492,-1000.0,8112.0,1054.0,0.647,0.526,0.398,0.383
8252518,-976.0,8122.0,1050.0,0.646,0.526,0.398,0.383
8252534,-1036.0,8102.0,1070.0,0.646,0.526,0.398,0.383
8252550,-950.0,8122.0,1094.0,0.646,0.526,0.398,0.383
8252566,-926.0,8152.0,1042.0,0.646,0.527,0.398,0.383
8252582,-890.0,8124.0,1006.0,0.646,0.527,0.397,0.383
8252598,-900.0,8118.0,1032.0,0.646,0.527,0.397,0.383
8252624,-914.0,8076.0,1136.0,0.646,0.527,0.397,0.383
8252640,-886.0,8060.0,1082.0,0.647,0.527,0.397,0.383
8252656,-874.0,8082.0,1064.0,0.647,0.527,0.397,0.383
8252672,-938.0,8160.0,1064.0,0.647,0.526,0.397,0.383
8252688,-976.0,8142.0,1066.0,0.647,0.526,0.397,0.383
8252704,-1022.0,8112.0,1126.0,0.647,0.526,0.398,0.383
8252731,-1034.0,8132.0,1100.0,0.647,0.526,0.398,0.383
8252747,-1052.0,8186.0,1072.0,0.647,0.526,0.398,0.383
8252763,-998.0,8188.0,1112.0,0.647,0.526,0.398,0.383
8252779,-1068.0,8040.0,1130.0,0.647,0.526,0.398,0.383
8252795,-996.0,8062.0,1124.0,0.647,0.527,0.398,0.382
8252811,-974.0,8062.0,1060.0,0.646,0.527,0.398,0.382
8252837,-966.0,8084.0,1044.0,0.646,0.527,0.398,0.382
8252853,-978.0,8112.0,1066.0,0.646,0.527,0.398,0.382
8252869,-942.0,8086.0,1146.0,0.646,0.528,0.398,0.382
8252885,-994.0,8082.0,1104.0,0.646,0.528,0.398,0.382
8252902,-944.0,8094.0,1048.0,0.646,0.528,0.398,0.382
8252918,-914.0,8126.0,1084.0,0.645,0.529,0.398,0.382
8252935,-934.0,8128.0,1040.0,0.645,0.529,0.398,0.382
8252961,-988.0,8092.0,1034.0,0.645,0.529,0.398,0.381
8252977,-986.0,8104.0,1058.0,0.644,0.53,0.399,0.381
8252993,-944.0,8166.0,1058.0,0.644,0.53,0.399,0.381
8253009,-948.0,8098.0,1028.0,0.643,0.531,0.399,0.381
8253026,-904.0,8108.0,992.0,0.643,0.531,0.399,0.381
8253042,-900.0,8136.0,984.0,0.642,0.531,0.4,0.381
8253058,-926.0,8096.0,970.0,0.642,0.532,0.4,0.381
8253084,-884.0,8088.0,996.0,0.641,0.532,0.4,0.381
8253100,-970.0,8098.0,954.0,0.641,0.533,0.401,0.381
8253116,-956.0,8124.0,924.0,0.64,0.533,0.401,0.381
8253132,-928.0,8174.0,946.0,0.64,0.533,0.401,0.381
8253148,-836.0,8138.0,874.0,0.639,0.534,0.402,0.381
8253164,-918.0,8132.0,844.0,0.639,0.534,0.402,0.38
8253190,-912.0,8148.0,848.0,0.638,0.535,0.402,0.38
8253206,-904.0,8076.0,888.0,0.638,0.535,0.403,0.38
8253222,-912.0,8226.0,840.0,0.637,0.535,0.404,0.38
8253239,-890.0,8158.0,758.0,0.637,0.535,0.404,0.38
8253255,-1030.0,8118.0,808.0,0.636,0.536,0.405,0.38
8253272,-968.0,8152.0,842.0,0.636,0.536,0.405,0.38
8253289,-1030.0,8190.0,820.0,0.636,0.536,0.406,0.379
8253315,-1050.0,8030.0,900.0,0.636,0.536,0.406,0.379
8253331,-898.0,8166.0,794.0,0.635,0.537,0.406,0.379
8253347,-914.0,8200.0,670.0,0.635,0.537,0.406,0.378
8253363,-826.0,8210.0,650.0,0.635,0.537,0.407,0.378
8253379,-852.0,8182.0,608.0,0.635,0.537,0.407,0.377
8253395,-858.0,8248.0,670.0,0.635,0.537,0.408,0.377
8253421,-932.0,8186.0,700.0,0.635,0.537,0.408,0.377
8253437,-942.0,8196.0,712.0,0.635,0.536,0.409,0.377
8253454,-948.0,8150.0,704.0,0.635,0.536,0.41,0.377
8253472,-980.0,8118.0,704.0,0.635,0.535,0.41,0.377
8253489,-980.0,8112.0,714.0,0.635,0.534,0.411,0.377
8253505,-1038.0,8142.0,764.0,0.635,0.533,0.412,0.377
8253522,-1088.0,8122.0,736.0,0.636,0.532,0.413,0.377
8253538,-1098.0,8098.0,726.0,0.636,0.531,0.415,0.376
8253554,-1100.0,8166.0,732.0,0.636,0.53,0.416,0.376
8253571,-1166.0,8084.0,790.0,0.636,0.529,0.417,0.376
8253598,-1184.0,8118.0,882.0,0.636,0.528,0.419,0.376
8253614,-1222.0,8104.0,840.0,0.636,0.527,0.42,0.376
8253630,-1244.0,8060.0,838.0,0.636,0.526,0.422,0.376
8253646,-1248.0,8072.0,868.0,0.636,0.525,0.423,0.376
8253662,-1352.0,8048.0,740.0,0.635,0.524,0.424,0.376
8253678,-1342.0,8088.0,838.0,0.635,0.524,0.426,0.376
8253704,-1466.0,8046.0,932.0,0.634,0.523,0.427,0.376
8253721,-1426.0,8050.0,952.0,0.634,0.523,0.428,0.376
8253738,-1476.0,8062.0,846.0,0.633,0.523,0.429,0.376
8253755,-1420.0,8100.0,822.0,0.632,0.523,0.431,0.375
8253772,-1388.0,7956.0,834.0,0.632,0.523,0.432,0.375
8253789,-1396.0,8122.0,772.0,0.631,0.524,0.433,0.375
8253805,-1390.0,8112.0,898.0,0.63,0.524,0.434,0.375
8253822,-1720.0,8102.0,964.0,0.629,0.525,0.434,0.375
8253838,-1654.0,7692.0,770.0,0.628,0.526,0.435,0.373
8253855,-1430.0,9504.0,134.0,0.626,0.529,0.436,0.372
8253872,-1094.0,9116.0,496.0,0.624,0.532,0.435,0.371
8253898,-348.0,8484.0,1362.0,0.622,0.536,0.433,0.371
8253914,-78.0,7912.0,1526.0,0.62,0.542,0.431,0.369
8253930,320.0,8854.0,928.0,0.618,0.548,0.429,0.366
8253946,916.0,9220.0,468.0,0.617,0.552,0.428,0.363
8253962,702.0,8004.0,748.0,0.615,0.556,0.427,0.361
8253988,968.0,7610.0,700.0,0.614,0.559,0.426,0.359
8254005,994.0,6396.0,312.0,0.612,0.562,0.428,0.357
8254021,1572.0,6878.0,560.0,0.608,0.566,0.43,0.355
8254038,1064.0,7562.0,702.0,0.603,0.569,0.433,0.354
8254055,948.0,7260.0,246.0,0.598,0.572,0.436,0.355
8254072,316.0,7256.0,450.0,0.592,0.574,0.439,0.357
8254088,374.0,7018.0,456.0,0.586,0.576,0.441,0.361
8254105,430.0,6824.0,36.0,0.578,0.579,0.444,0.366
8254121,122.0,6896.0,360.0,0.569,0.581,0.448,0.372
8254147,458.0,6584.0,114.0,0.56,0.582,0.451,0.38
8254163,700.0,6462.0,2.0,0.549,0.583,0.454,0.39
8254179,798.0,6306.0,-464.0,0.538,0.583,0.457,0.402
8254195,1142.0,6528.0,-844.0,0.527,0.583,0.458,0.416
8254211,1188.0,6352.0,-1226.0,0.514,0.582,0.458,0.433
8254227,1232.0,6764.0,-1466.0,0.502,0.58,0.456,0.451
8254253,1318.0,5974.0,-1790.0,0.489,0.578,0.453,0.47
8254269,804.0,5614.0,-1684.0,0.474,0.578,0.45,0.488
8254286,1092.0,7538.0,-2006.0,0.459,0.579,0.447,0.505
8254302,1412.0,7974.0,-1946.0,0.445,0.58,0.441,0.522
8254318,1670.0,7598.0,-2116.0,0.431,0.581,0.433,0.538
8254334,1768.0,7756.0,-1710.0,0.418,0.583,0.425,0.552
8254350,2304.0,7694.0,-1896.0,0.405,0.586,0.417,0.565
8254376,3046.0,7618.0,-2208.0,0.39,0.589,0.409,0.577
8254393,3116.0,7444.0,-2064.0,0.375,0.594,0.402,0.587
8254409,3546.0,7936.0,-2122.0,0.359,0.599,0.397,0.596
8254425,3512.0,8018.0,-1918.0,0.342,0.604,0.393,0.604
8254441,3374.0,8024.0,-1684.0,0.325,0.609,0.388,0.611
8254457,3692.0,7104.0,-1562.0,0.308,0.615,0.383,0.617
8254483,4030.0,7970.0,-1636.0,0.291,0.621,0.379,0.622
8254499,4218.0,8584.0,-1610.0,0.274,0.626,0.373,0.627
8254515,4738.0,7814.0,-1666.0,0.259,0.632,0.366,0.632
8254531,5384.0,6616.0,-1808.0,0.244,0.639,0.36,0.635
8254548,5310.0,7360.0,-1610.0,0.228,0.645,0.355,0.637
8254564,5438.0,7590.0,-1710.0,0.213,0.652,0.351,0.638
8254590,5658.0,7686.0,-1618.0,0.198,0.658,0.345,0.639
8254606,5874.0,8020.0,-1552.0,0.186,0.664,0.338,0.64
8254622,6178.0,7030.0,-1928.0,0.175,0.67,0.331,0.641
8254638,6110.0,5680.0,-1584.0,0.164,0.675,0.324,0.642
8254655,6258.0,6014.0,-1562.0,0.154,0.68,0.318,0.643
8254671,6610.0,6324.0,-1680.0,0.143,0.685,0.312,0.643
8254688,6812.0,6160.0,-1652.0,0.133,0.689,0.306,0.644
8254705,7108.0,5440.0,-1842.0,0.122,0.694,0.299,0.644
8254731,7266.0,5884.0,-1788.0,0.11,0.698,0.292,0.645
8254747,7852.0,5910.0,-1486.0,0.1,0.701,0.285,0.646
8254763,7684.0,6250.0,-1180.0,0.091,0.704,0.277,0.647
8254779,7950.0,5490.0,-1238.0,0.085,0.708,0.268,0.648
8254795,7944.0,5150.0,-1566.0,0.079,0.711,0.258,0.65
8254811,7410.0,4748.0,-918.0,0.074,0.713,0.25,0.651
8254837,7162.0,4448.0,-514.0,0.071,0.716,0.241,0.651
8254853,6622.0,4194.0,-748.0,0.07,0.719,0.233,0.651
8254870,6346.0,3944.0,-618.0,0.069,0.721,0.225,0.652
8254887,6142.0,3680.0,-540.0,0.069,0.723,0.218,0.651
8254904,5968.0,3880.0,-756.0,0.069,0.725,0.211,0.652
8254921,6412.0,3890.0,-690.0,0.069,0.727,0.204,0.652
8254938,7422.0,3416.0,-906.0,0.069,0.728,0.198,0.653
8254955,8590.0,3186.0,-1290.0,0.069,0.727,0.193,0.655
8254971,9592.0,3422.0,-1120.0,0.068,0.726,0.189,0.658
8254988,9864.0,3792.0,-718.0,0.066,0.724,0.186,0.661
8255014,10164.0,4172.0,-666.0,0.065,0.721,0.184,0.665
8255030,9978.0,3920.0,-568.0,0.065,0.719,0.181,0.668
8255046,8780.0,4164.0,-156.0,0.066,0.718,0.177,0.67
8255062,7830.0,4016.0,420.0,0.068,0.719,0.171,0.671
8255078,7010.0,4154.0,150.0,0.073,0.72,0.164,0.67
8255094,6648.0,3614.0,-66.0,0.079,0.722,0.156,0.669
8255120,6224.0,2972.0,-88.0,0.085,0.725,0.147,0.667
8255137,6556.0,2770.0,-260.0,0.091,0.728,0.139,0.666
8255153,6942.0,2084.0,-674.0,0.097,0.73,0.131,0.664
8255170,7362.0,1558.0,-890.0,0.101,0.731,0.125,0.663
8255187,7762.0,1966.0,-1050.0,0.104,0.73,0.122,0.664
8255204,8156.0,2246.0,-820.0,0.106,0.729,0.12,0.666
8255221,7918.0,2550.0,-826.0,0.107,0.726,0.118,0.669
8255237,7756.0,2776.0,-692.0,0.108,0.722,0.116,0.673
8255254,8132.0,2662.0,-568.0,0.109,0.719,0.115,0.677
8255280,8198.0,2186.0,-506.0,0.11,0.715,0.113,0.681
8255296,7504.0,2814.0,-174.0,0.111,0.712,0.112,0.685
8255312,7528.0,3490.0,250.0,0.113,0.709,0.11,0.687
8255328,8164.0,2864.0,-90.0,0.116,0.707,0.107,0.689
8255344,8074.0,2340.0,-512.0,0.119,0.706,0.103,0.69
8255360,8136.0,2164.0,-304.0,0.12,0.705,0.1,0.692
8255386,7990.0,2370.0,-126.0,0.121,0.705,0.096,0.693
8255403,8336.0,2658.0,-254.0,0.121,0.705,0.092,0.693
8255420,8462.0,2792.0,-522.0,0.121,0.706,0.089,0.693
8255436,9122.0,2450.0,-522.0,0.121,0.706,0.085,0.692
8255453,9062.0,3094.0,-290.0,0.121,0.707,0.081,0.692
8255470,8636.0,3584.0,-90.0,0.121,0.708,0.076,0.692
8255487,8606.0,2878.0,-138.0,0.122,0.709,0.07,0.691
8255503,8352.0,2378.0,18.0,0.124,0.709,0.064,0.691
8255520,8120.0,2584.0,-288.0,0.126,0.71,0.058,0.69
8255537,7598.0,2412.0,240.0,0.129,0.711,0.053,0.689
8255563,7314.0,1744.0,276.0,0.133,0.712,0.048,0.688
8255579,6972.0,1740.0,104.0,0.137,0.713,0.045,0.686
8255595,6578.0,1320.0,-14.0,0.141,0.713,0.044,0.685
8255611,6272.0,1548.0,-44.0,0.144,0.713,0.044,0.684
8255627,6030.0,1734.0,-84.0,0.148,0.713,0.044,0.684
8255643,5754.0,1870.0,-138.0,0.151,0.712,0.046,0.684
8255669,5660.0,1588.0,-120.0,0.154,0.711,0.047,0.685
8255686,6074.0,1908.0,-270.0,0.156,0.709,0.049,0.686
8255703,6792.0,1776.0,-418.0,0.158,0.707,0.05,0.687
8255720,7196.0,2192.0,-468.0,0.158,0.704,0.052,0.69
8255737,7594.0,2368.0,-488.0,0.158,0.701,0.054,0.694
8255754,8078.0,2140.0,-172.0,0.157,0.697,0.056,0.697
8255771,8210.0,2178.0,70.0,0.156,0.694,0.059,0.7
8255787,8176.0,3110.0,-86.0,0.154,0.691,0.062,0.703
8255804,8082.0,3558.0,106.0,0.154,0.689,0.063,0.705
8255821,7916.0,3712.0,510.0,0.155,0.688,0.063,0.706
8255837,7958.0,2904.0,876.0,0.158,0.688,0.06,0.705
8255864,7994.0,2720.0,410.0,0.161,0.69,0.058,0.704
8255880,8720.0,2318.0,-6.0,0.164,0.692,0.056,0.701
8255896,8840.0,2298.0,-226.0,0.165,0.694,0.056,0.699
8255912,8618.0,2328.0,-18.0,0.164,0.696,0.056,0.697
8255928,8134.0,2108.0,-178.0,0.163,0.698,0.058,0.695
8255944,8082.0,2116.0,-176.0,0.161,0.701,0.06,0.693
8255970,8050.0,2460.0,-320.0,0.159,0.703,0.063,0.691
8255987,8000.0,2052.0,-462.0,0.156,0.705,0.067,0.689
8256004,7872.0,2196.0,-394.0,0.153,0.706,0.071,0.688
8256020,7856.0,2330.0,-154.0,0.15,0.707,0.076,0.687
8256037,7742.0,2644.0,-102.0,0.147,0.708,0.08,0.686
8256054,7538.0,2546.0,-70.0,0.144,0.709,0.084,0.685
8256071,7584.0,2188.0,12.0,0.141,0.71,0.088,0.685
8256088,7668.0,2566.0,-34.0,0.137,0.71,0.091,0.684
8256104,7436.0,2608.0,30.0,0.134,0.711,0.095,0.684
8256120,7600.0,2738.0,-16.0,0.131,0.712,0.097,0.683
8256147,7828.0,2586.0,-274.0,0.128,0.712,0.099,0.683
8256163,7656.0,2706.0,-184.0,0.125,0.713,0.101,0.683
8256179,7734.0,3204.0,40.0,0.123,0.713,0.102,0.682
8256195,7830.0,2860.0,-188.0,0.122,0.714,0.102,0.682
8256211,7846.0,2792.0,-136.0,0.121,0.715,0.102,0.681
8256227,8000.0,2946.0,-156.0,0.121,0.715,0.102,0.681
8256253,7958.0,3098.0,-172.0,0.122,0.716,0.1,0.68
8256269,7772.0,2526.0,-138.0,0.123,0.718,0.097,0.679
8256285,7744.0,2584.0,6.0,0.125,0.719,0.094,0.677
8256301,8004.0,2988.0,-176.0,0.127,0.721,0.091,0.676
8256317,8036.0,2462.0,-460.0,0.129,0.722,0.087,0.674
8256333,7996.0,2172.0,-536.0,0.13,0.723,0.084,0.674
8256359,8148.0,2312.0,-696.0,0.131,0.723,0.082,0.673
8256375,8030.0,2762.0,-668.0,0.131,0.724,0.081,0.673
8256391,8092.0,2626.0,-564.0,0.13,0.723,0.081,0.673
8256407,7890.0,2424.0,-624.0,0.13,0.723,0.081,0.674
8256423,7816.0,2352.0,-498.0,0.129,0.723,0.082,0.674
8256439,7720.0,2714.0,-338.0,0.127,0.722,0.083,0.675
8256465,7702.0,2608.0,-336.0,0.126,0.721,0.083,0.676
8256481,7790.0,2508.0,-438.0,0.124,0.72,0.084,0.677
8256497,7716.0,2460.0,-300.0,0.122,0.719,0.085,0.679
8256513,7870.0,2644.0,-228.0,0.12,0.718,0.086,0.68
8256529,7944.0,2712.0,-186.0,0.118,0.717,0.087,0.682
8256545,7880.0,2608.0,-258.0,0.117,0.715,0.088,0.683
8256571,7914.0,2298.0,-142.0,0.115,0.714,0.088,0.685
8256587,7910.0,2184.0,-348.0,0.113,0.713,0.09,0.686
8256604,8098.0,2228.0,-476.0,0.11,0.712,0.091,0.687
8256621,8122.0,2128.0,-352.0,0.107,0.712,0.093,0.688
8256637,8060.0,2246.0,-22.0,0.104,0.711,0.096,0.689
8256654,8170.0,1972.0,-196.0,0.101,0.71,0.098,0.69
8256671,8306.0,2112.0,-384.0,0.097,0.71,0.102,0.69
8256687,8254.0,2806.0,-510.0,0.093,0.711,0.105,0.689
8256704,8408.0,2228.0,-614.0,0.091,0.712,0.107,0.688
8256731,7860.0,2046.0,-344.0,0.088,0.713,0.11,0.687
8256747,7878.0,1950.0,-588.0,0.086,0.714,0.113,0.685
8256763,7672.0,1946.0,-774.0,0.083,0.716,0.117,0.683
8256779,7726.0,2442.0,-756.0,0.08,0.718,0.12,0.681
8256795,7388.0,2924.0,-840.0,0.078,0.719,0.121,0.679
8256821,7378.0,1904.0,-570.0,0.075,0.721,0.122,0.678
8256837,7182.0,1790.0,-402.0,0.072,0.722,0.123,0.677
8256853,7028.0,2646.0,-376.0,0.07,0.722,0.124,0.677
8256869,6644.0,3074.0,-184.0,0.068,0.721,0.125,0.678
8256885,6406.0,3308.0,-194.0,0.067,0.72,0.125,0.679
8256901,6460.0,3532.0,-56.0,0.068,0.719,0.124,0.681
8256917,6618.0,4692.0,46.0,0.069,0.717,0.122,0.683
8256943,7384.0,5262.0,-42.0,0.07,0.715,0.119,0.685
8256959,8192.0,6692.0,268.0,0.073,0.712,0.114,0.689
8256975,8552.0,6892.0,-258.0,0.075,0.709,0.107,0.693
8256991,8580.0,7428.0,736.0,0.079,0.704,0.102,0.698
8257007,8068.0,7846.0,1716.0,0.086,0.699,0.098,0.703
8257024,7140.0,9346.0,2134.0,0.096,0.696,0.094,0.706
8257050,7010.0,11676.0,2398.0,0.11,0.693,0.088,0.707
8257066,7242.0,12054.0,2208.0,0.128,0.69,0.079,0.708
8257082,8008.0,10096.0,2302.0,0.152,0.687,0.068,0.707
8257098,9514.0,10382.0,952.0,0.177,0.681,0.061,0.708
8257114,9166.0,11292.0,2842.0,0.206,0.673,0.054,0.708
8257130,9276.0,12428.0,2414.0,0.238,0.663,0.045,0.708
8257156,10616.0,12090.0,2030.0,0.274,0.65,0.035,0.708
8257172,11356.0,10534.0,2286.0,0.312,0.634,0.027,0.707
8257188,11506.0,11714.0,2900.0,0.351,0.616,0.019,0.705
8257205,12530.0,12570.0,2554.0,0.393,0.595,0.01,0.701
8257221,14426.0,10252.0,1928.0,0.436,0.571,0.001,0.696
8257237,15280.0,10946.0,1324.0,0.48,0.542,-0.006,0.69
8257263,13762.0,9270.0,3050.0,0.522,0.51,-0.013,0.684
8257279,13870.0,8806.0,2856.0,0.561,0.476,-0.018,0.677
8257296,13886.0,8226.0,2918.0,0.599,0.441,-0.022,0.668
8257312,13950.0,9996.0,2386.0,0.636,0.403,-0.026,0.658
8257328,12860.0,6518.0,3064.0,0.669,0.362,-0.03,0.648
8257344,12258.0,5908.0,2656.0,0.699,0.322,-0.032,0.638
8257360,11586.0,4142.0,2800.0,0.726,0.281,-0.032,0.626
8257386,10544.0,5062.0,2432.0,0.751,0.242,-0.029,0.614
8257403,8390.0,4318.0,3194.0,0.772,0.202,-0.026,0.603
8257420,8266.0,3926.0,2258.0,0.789,0.163,-0.024,0.592
8257437,7662.0,2610.0,1682.0,0.804,0.124,-0.023,0.581
8257454,6726.0,1444.0,2214.0,0.816,0.085,-0.021,0.571
8257470,5566.0,938.0,2078.0,0.827,0.048,-0.018,0.56
8257488,4556.0,394.0,1906.0,0.834,0.014,-0.014,0.551
8257504,3894.0,266.0,1208.0,0.841,-0.019,-0.01,0.541
8257521,2802.0,-452.0,1262.0,0.845,-0.049,-0.006,0.532
8257538,2380.0,-1246.0,868.0,0.848,-0.076,-0.003,0.524
8257554,2072.0,-2306.0,344.0,0.85,-0.1,0.001,0.517
8257580,1436.0,-1902.0,-556.0,0.851,-0.121,0.004,0.511
8257596,1132.0,-3368.0,-1026.0,0.852,-0.139,0.008,0.505
8257612,492.0,-4438.0,-726.0,0.851,-0.153,0.012,0.502
8257628,302.0,-5116.0,-552.0,0.851,-0.161,0.016,0.499
8257644,532.0,-4640.0,-1198.0,0.851,-0.164,0.021,0.498
8257660,324.0,-4242.0,-1186.0,0.852,-0.164,0.025,0.497
8257686,-36.0,-4620.0,-684.0,0.853,-0.16,0.03,0.496
8257703,-134.0,-4750.0,-346.0,0.853,-0.151,0.034,0.497
8257720,-198.0,-4336.0,-120.0,0.855,-0.138,0.039,0.499
8257737,-246.0,-3938.0,854.0,0.856,-0.12,0.044,0.501
8257754,560.0,-2246.0,832.0,0.857,-0.1,0.047,0.504
8257771,386.0,-2574.0,1778.0,0.857,-0.078,0.05,0.507
8257787,542.0,-2054.0,2624.0,0.857,-0.053,0.052,0.51
8257803,1038.0,-986.0,3076.0,0.856,-0.025,0.055,0.514
8257830,1458.0,770.0,3178.0,0.853,0.002,0.055,0.518
8257846,2122.0,-542.0,3474.0,0.85,0.029,0.056,0.523
8257862,1684.0,624.0,4690.0,0.845,0.058,0.059,0.529
8257878,2188.0,1854.0,4674.0,0.838,0.088,0.06,0.535
8257894,2754.0,1598.0,4844.0,0.83,0.118,0.061,0.542
8257910,3050.0,2522.0,4746.0,0.821,0.148,0.064,0.549
8257926,3252.0,2926.0,4948.0,0.809,0.178,0.066,0.556
8257952,3382.0,3196.0,5386.0,0.796,0.209,0.068,0.563
8257969,3574.0,5150.0,4626.0,0.781,0.241,0.07,0.571
8257986,4114.0,5702.0,4680.0,0.764,0.273,0.072,0.58
8258003,5036.0,5016.0,4336.0,0.746,0.304,0.072,0.588
8258020,5020.0,6256.0,4772.0,0.726,0.335,0.074,0.596
8258037,5410.0,6452.0,4604.0,0.704,0.365,0.076,0.604
8258053,6462.0,6688.0,3586.0,0.682,0.394,0.077,0.612
8258070,6956.0,6130.0,4158.0,0.657,0.423,0.081,0.619
8258086,6820.0,8520.0,3562.0,0.629,0.452,0.086,0.626
8258103,6572.0,9162.0,3510.0,0.602,0.48,0.089,0.633
8258130,7516.0,8874.0,3082.0,0.572,0.506,0.091,0.639
8258146,8056.0,8172.0,2402.0,0.542,0.531,0.092,0.645
8258162,8590.0,9244.0,2736.0,0.511,0.554,0.095,0.65
8258178,8914.0,10378.0,2516.0,0.48,0.575,0.096,0.655
8258194,9424.0,9042.0,1898.0,0.45,0.595,0.097,0.659
8258210,9458.0,9194.0,1578.0,0.419,0.614,0.098,0.662
8258236,9316.0,9374.0,1656.0,0.388,0.631,0.099,0.665
8258253,9214.0,8994.0,1358.0,0.359,0.646,0.099,0.666
8258270,9642.0,8526.0,688.0,0.331,0.66,0.099,0.667
8258286,9614.0,7924.0,574.0,0.304,0.672,0.099,0.668
8258303,8904.0,7796.0,530.0,0.278,0.683,0.099,0.668
8258320,8390.0,8190.0,466.0,0.253,0.692,0.1,0.669
8258337,8360.0,7804.0,388.0,0.23,0.7,0.098,0.669
8258353,8216.0,8634.0,674.0,0.208,0.707,0.096,0.669
8258370,8120.0,8754.0,464.0,0.189,0.712,0.091,0.67
8258396,7756.0,8680.0,848.0,0.172,0.716,0.085,0.671
8258412,8034.0,8516.0,474.0,0.159,0.719,0.079,0.672
8258428,8166.0,9436.0,1166.0,0.148,0.722,0.072,0.672
8258444,7762.0,10152.0,1490.0,0.14,0.723,0.066,0.673
8258460,7274.0,10566.0,1452.0,0.137,0.724,0.059,0.673
8258476,7654.0,11510.0,1368.0,0.137,0.724,0.053,0.674
8258502,7118.0,11524.0,2202.0,0.142,0.723,0.045,0.674
8258519,7356.0,10964.0,2264.0,0.152,0.722,0.039,0.674
8258536,7664.0,11728.0,2064.0,0.166,0.719,0.033,0.674
8258553,7578.0,13128.0,1952.0,0.185,0.714,0.028,0.675
8258570,7860.0,11432.0,2092.0,0.208,0.708,0.022,0.675
8258586,8986.0,11720.0,2078.0,0.235,0.699,0.019,0.675
8258604,9358.0,12276.0,2164.0,0.265,0.689,0.016,0.675
8258620,9966.0,13244.0,2478.0,0.299,0.676,0.012,0.673
8258637,11048.0,13002.0,2452.0,0.336,0.661,0.007,0.671
8258653,12102.0,12648.0,2456.0,0.378,0.642,0.002,0.667
8258679,13656.0,10968.0,2516.0,0.42,0.62,-0.002,0.662
8258695,14622.0,11426.0,1840.0,0.462,0.597,-0.002,0.656
8258711,14838.0,12504.0,2628.0,0.505,0.569,-0.001,0.649
8258727,15216.0,12870.0,2596.0,0.549,0.536,-0.001,0.641
8258743,15282.0,10606.0,2254.0,0.593,0.499,-0.001,0.632
8258759,14344.0,8764.0,2492.0,0.634,0.459,0.001,0.622
8258775,12948.0,8834.0,2776.0,0.672,0.418,0.005,0.611
8258801,12222.0,7032.0,2774.0,0.708,0.375,0.009,0.599
8258818,11536.0,6128.0,2460.0,0.739,0.332,0.015,0.586
8258835,10078.0,7122.0,2698.0,0.767,0.288,0.019,0.573
8258852,9292.0,4754.0,2524.0,0.791,0.243,0.023,0.56
8258868,7982.0,3726.0,2564.0,0.811,0.202,0.028,0.548
8258885,7344.0,5468.0,2820.0,0.828,0.158,0.029,0.537
8258902,7492.0,2028.0,2060.0,0.842,0.117,0.029,0.526
8258919,6154.0,690.0,1984.0,0.853,0.078,0.034,0.516
8258936,4644.0,1416.0,2270.0,0.861,0.043,0.041,0.505
8258952,3754.0,1564.0,1842.0,0.868,0.008,0.046,0.495
8258979,3038.0,-1326.0,1156.0,0.872,-0.025,0.051,0.486
8258995,1678.0,142.0,1398.0,0.875,-0.055,0.056,0.478
8259011,926.0,-380.0,842.0,0.876,-0.083,0.058,0.471
8259027,1560.0,-2448.0,150.0,0.876,-0.109,0.06,0.466
8259043,1992.0,-2184.0,-684.0,0.874,-0.131,0.062,0.463
8259060,2460.0,-3546.0,-1416.0,0.872,-0.151,0.066,0.46
8259076,1952.0,-3430.0,-1866.0,0.871,-0.166,0.072,0.458
8259102,774.0,-4040.0,-1840.0,0.868,-0.178,0.077,0.456
8259119,68.0,-5334.0,-2198.0,0.867,-0.184,0.083,0.456
8259137,-808.0,-5210.0,-2052.0,0.867,-0.184,0.09,0.455
8259154,-1622.0,-5108.0,-1548.0,0.867,-0.178,0.095,0.456
8259170,-1538.0,-4808.0,-1244.0,0.868,-0.166,0.1,0.457
8259187,-1554.0,-4700.0,-518.0,0.87,-0.148,0.103,0.459
8259203,-1266.0,-2764.0,-118.0,0.872,-0.125,0.106,0.462
8259221,-618.0,-1522.0,538.0,0.873,-0.1,0.107,0.465
8259238,158.0,-1142.0,1230.0,0.874,-0.072,0.106,0.468
8259255,270.0,-162.0,2122.0,0.874,-0.044,0.104,0.473
8259271,558.0,504.0,2632.0,0.872,-0.014,0.102,0.478
8259297,1286.0,80.0,3208.0,0.87,0.016,0.099,0.483
8259313,1612.0,-500.0,3750.0,0.865,0.048,0.098,0.489
8259329,1698.0,3392.0,4434.0,0.859,0.082,0.098,0.495
8259345,1966.0,3756.0,4898.0,0.852,0.113,0.094,0.503
8259361,2928.0,2984.0,5244.0,0.843,0.143,0.091,0.51
8259378,3102.0,2444.0,5454.0,0.833,0.176,0.089,0.517
8259404,3300.0,4532.0,5726.0,0.82,0.21,0.088,0.525
8259420,3840.0,5980.0,5530.0,0.806,0.244,0.086,0.533
8259436,4544.0,4650.0,5758.0,0.79,0.276,0.085,0.541
8259452,4662.0,6544.0,5464.0,0.771,0.309,0.086,0.55
8259469,4524.0,7156.0,5688.0,0.752,0.34,0.086,0.558
8259485,5234.0,7182.0,5146.0,0.732,0.37,0.086,0.566
8259511,6122.0,8240.0,4898.0,0.71,0.398,0.086,0.574
8259527,6242.0,6294.0,4424.0,0.687,0.427,0.088,0.582
8259543,6268.0,8464.0,4344.0,0.661,0.455,0.093,0.589
8259559,6306.0,10208.0,4210.0,0.636,0.481,0.096,0.596
8259575,6930.0,8636.0,3914.0,0.61,0.505,0.098,0.603
8259591,6988.0,8676.0,2932.0,0.584,0.528,0.102,0.608
8259617,7226.0,9710.0,2640.0,0.556,0.55,0.106,0.614
8259633,7202.0,9036.0,2420.0,0.528,0.57,0.109,0.62
8259649,7762.0,9054.0,2132.0,0.5,0.589,0.113,0.625
8259666,8312.0,8792.0,1440.0,0.471,0.607,0.117,0.629
8259683,8152.0,9186.0,1394.0,0.442,0.623,0.121,0.634
8259700,8224.0,8328.0,874.0,0.412,0.64,0.127,0.636
8259716,8532.0,8992.0,828.0,0.382,0.655,0.132,0.639
8259732,8480.0,9856.0,22.0,0.352,0.668,0.137,0.641
8259758,7926.0,9542.0,332.0,0.323,0.679,0.14,0.644
8259774,7934.0,8110.0,60.0,0.295,0.688,0.141,0.648
8259790,7922.0,8444.0,-170.0,0.268,0.696,0.143,0.65
8259806,7904.0,8388.0,-236.0,0.243,0.703,0.144,0.653
8259822,7594.0,8788.0,-324.0,0.219,0.709,0.146,0.654
8259838,7736.0,9350.0,-290.0,0.197,0.714,0.145,0.656
8259864,7224.0,7954.0,-296.0,0.177,0.717,0.144,0.658
8259882,7234.0,7642.0,-516.0,0.16,0.72,0.144,0.66
8259898,6570.0,8696.0,-494.0,0.145,0.722,0.143,0.661
8259914,6544.0,9156.0,-532.0,0.133,0.723,0.142,0.663
8259930,6152.0,9542.0,-90.0,0.124,0.724,0.138,0.665
8259946,6366.0,9402.0,-302.0,0.12,0.724,0.134,0.666
8259962,6452.0,9380.0,-408.0,0.119,0.723,0.129,0.668
8259979,6234.0,9428.0,-144.0,0.121,0.722,0.124,0.67
8260005,6050.0,9930.0,216.0,0.127,0.72,0.119,0.671
8260021,5750.0,10796.0,646.0,0.138,0.718,0.112,0.673
8260037,6372.0,10338.0,-130.0,0.153,0.715,0.104,0.674
8260053,6582.0,10588.0,126.0,0.172,0.711,0.095,0.675
8260069,6534.0,11180.0,846.0,0.195,0.706,0.085,0.675
8260086,7256.0,11862.0,630.0,0.222,0.7,0.074,0.675
8260112,8298.0,10814.0,338.0,0.253,0.691,0.06,0.674
8260128,8708.0,10650.0,860.0,0.286,0.681,0.049,0.673
8260144,8994.0,12772.0,1642.0,0.322,0.668,0.037,0.67
8260160,9898.0,12138.0,1684.0,0.362,0.651,0.023,0.666
8260176,10728.0,11784.0,1814.0,0.404,0.632,0.01,0.662
8260192,11372.0,11538.0,2346.0,0.445,0.609,-0.001,0.656
8260218,11784.0,11556.0,2802.0,0.488,0.584,-0.012,0.649
8260235,12220.0,10742.0,3290.0,0.53,0.554,-0.021,0.642
8260251,11934.0,10598.0,3928.0,0.57,0.522,-0.029,0.633
8260268,12850.0,9810.0,3662.0,0.61,0.487,-0.037,0.624
8260284,13030.0,8010.0,3994.0,0.647,0.45,-0.042,0.614
8260300,12006.0,7632.0,4398.0,0.68,0.412,-0.043,0.605
8260316,11222.0,7096.0,5104.0,0.711,0.374,-0.044,0.594
8260342,11736.0,7534.0,4500.0,0.739,0.335,-0.044,0.583
8260358,11340.0,7580.0,3910.0,0.765,0.294,-0.044,0.572
8260374,10580.0,4348.0,4312.0,0.787,0.253,-0.042,0.562
8260390,10146.0,3660.0,3890.0,0.806,0.214,-0.038,0.551
8260406,8706.0,4294.0,4294.0,0.823,0.175,-0.031,0.539
8260422,7668.0,4086.0,3686.0,0.838,0.136,-0.026,0.528
8260448,6818.0,3390.0,3454.0,0.85,0.099,-0.022,0.517
8260465,5712.0,1732.0,3526.0,0.86,0.061,-0.018,0.506
8260482,5264.0,1332.0,3122.0,0.868,0.025,-0.013,0.496
8260498,4304.0,1040.0,2574.0,0.874,-0.009,-0.008,0.486
8260514,3466.0,-74.0,2484.0,0.878,-0.042,-0.003,0.476
8260530,2690.0,-976.0,2094.0,0.882,-0.072,0.003,0.467
8260546,1316.0,-784.0,2038.0,0.884,-0.098,0.01,0.458
8260563,668.0,-496.0,1534.0,0.884,-0.124,0.014,0.45
8260589,362.0,-2236.0,1028.0,0.884,-0.147,0.017,0.444
8260605,340.0,-2622.0,472.0,0.883,-0.167,0.02,0.439
8260621,150.0,-2306.0,270.0,0.882,-0.184,0.023,0.434
8260637,-194.0,-3682.0,440.0,0.881,-0.198,0.026,0.429
8260653,-598.0,-3462.0,228.0,0.88,-0.208,0.029,0.425
8260669,-1064.0,-3742.0,138.0,0.88,-0.215,0.031,0.422
8260695,-1096.0,-3848.0,-88.0,0.88,-0.22,0.032,0.419
8260711,-1408.0,-4368.0,-46.0,0.881,-0.221,0.033,0.417
8260727,-1666.0,-4598.0,326.0,0.882,-0.22,0.034,0.417
8260743,-1436.0,-4522.0,332.0,0.883,-0.214,0.034,0.417
8260759,-1434.0,-4524.0,502.0,0.884,-0.206,0.035,0.418
8260775,-1580.0,-3472.0,956.0,0.886,-0.195,0.034,0.419
8260801,-1244.0,-2950.0,1522.0,0.887,-0.183,0.032,0.422
8260818,-1078.0,-3490.0,2104.0,0.888,-0.17,0.029,0.426
8260835,-374.0,-2500.0,1988.0,0.889,-0.154,0.024,0.43
8260852,308.0,-2318.0,2530.0,0.89,-0.138,0.019,0.435
8260869,106.0,-3320.0,3160.0,0.89,-0.121,0.014,0.439
8260885,204.0,-1554.0,3496.0,0.89,-0.101,0.009,0.444
8260902,696.0,-1080.0,3472.0,0.889,-0.081,0.003,0.45
8260918,1116.0,-1648.0,3816.0,0.887,-0.061,-0.004,0.457
8260935,1172.0,-678.0,4620.0,0.885,-0.041,-0.011,0.464
8260962,1322.0,404.0,5106.0,0.881,-0.019,-0.019,0.472
8260978,1942.0,276.0,5118.0,0.877,0.002,-0.029,0.48
8260995,2642.0,-978.0,5250.0,0.871,0.024,-0.039,0.489
8261011,3136.0,1134.0,5924.0,0.865,0.047,-0.049,0.497
8261027,3462.0,1458.0,5670.0,0.857,0.07,-0.061,0.506
8261043,4038.0,1288.0,6290.0,0.849,0.094,-0.074,0.515
8261059,4894.0,1712.0,6082.0,0.839,0.119,-0.087,0.523
8261085,5744.0,1296.0,5960.0,0.829,0.143,-0.1,0.531
8261102,5934.0,3230.0,6176.0,0.817,0.168,-0.112,0.54
8261119,6544.0,4260.0,6472.0,0.805,0.192,-0.125,0.548
8261135,6790.0,2762.0,6432.0,0.792,0.215,-0.14,0.555
8261152,7498.0,3262.0,5908.0,0.778,0.239,-0.154,0.561
8261168,7908.0,4348.0,5804.0,0.763,0.262,-0.168,0.566
8261185,8596.0,4026.0,6348.0,0.748,0.284,-0.183,0.571
8261201,8782.0,3998.0,5922.0,0.733,0.306,-0.197,0.575
8261228,9024.0,3520.0,5638.0,0.717,0.328,-0.211,0.578
8261244,10100.0,3898.0,5436.0,0.7,0.35,-0.222,0.582
8261260,9740.0,4780.0,5426.0,0.683,0.371,-0.234,0.585
8261276,9530.0,4260.0,5716.0,0.665,0.391,-0.245,0.587
8261292,9516.0,4196.0,5428.0,0.648,0.411,-0.257,0.588
8261308,10734.0,5330.0,4886.0,0.629,0.43,-0.268,0.589
8261324,10534.0,4582.0,4866.0,0.612,0.448,-0.281,0.588
8261351,11034.0,3778.0,4488.0,0.595,0.464,-0.292,0.587
8261368,10382.0,3968.0,4904.0,0.579,0.481,-0.304,0.585
8261385,11000.0,4368.0,4102.0,0.562,0.496,-0.315,0.582
8261402,11004.0,3820.0,4396.0,0.546,0.51,-0.325,0.579
8261418,10558.0,4624.0,4906.0,0.53,0.524,-0.337,0.576
8261435,10540.0,4012.0,4804.0,0.515,0.535,-0.349,0.571
8261452,10734.0,3094.0,4450.0,0.502,0.546,-0.362,0.565
8261469,11200.0,2946.0,4462.0,0.489,0.556,-0.372,0.56
8261485,10354.0,3638.0,5450.0,0.477,0.565,-0.382,0.554
8261505,10256.0,2864.0,5698.0,0.467,0.573,-0.392,0.548
8261521,10360.0,2064.0,5632.0,0.458,0.58,-0.399,0.543
8261537,10056.0,3250.0,6222.0,0.45,0.586,-0.405,0.538
8261563,9590.0,3390.0,6992.0,0.446,0.589,-0.411,0.534
8261579,10078.0,2572.0,6658.0,0.443,0.591,-0.415,0.531
8261595,9908.0,1386.0,7208.0,0.442,0.591,-0.416,0.531
8261611,8800.0,3442.0,7928.0,0.441,0.591,-0.416,0.532
8261627,8532.0,3986.0,8498.0,0.445,0.588,-0.416,0.533
8261643,9190.0,3040.0,8384.0,0.451,0.583,-0.417,0.533
8261669,10180.0,2630.0,7848.0,0.459,0.576,-0.415,0.534
8261685,9854.0,3404.0,8114.0,0.468,0.568,-0.412,0.538
8261702,10202.0,3826.0,8094.0,0.479,0.557,-0.408,0.541
8261718,11030.0,3376.0,8670.0,0.492,0.545,-0.403,0.546
8261735,12104.0,4996.0,8010.0,0.507,0.532,-0.397,0.55
8261751,12940.0,4062.0,7114.0,0.525,0.515,-0.389,0.555
8261768,12920.0,4306.0,7646.0,0.543,0.497,-0.379,0.561
8261785,14210.0,6296.0,7744.0,0.563,0.477,-0.368,0.566
8261812,14988.0,4084.0,6412.0,0.585,0.454,-0.355,0.57
8261828,15384.0,4106.0,6452.0,0.607,0.431,-0.338,0.576
8261844,15748.0,7242.0,6634.0,0.63,0.405,-0.32,0.58
8261860,16374.0,5372.0,5536.0,0.654,0.376,-0.301,0.583
8261876,15730.0,3588.0,5630.0,0.678,0.346,-0.28,0.585
8261892,14600.0,6240.0,5912.0,0.701,0.316,-0.257,0.585
8261918,14818.0,4244.0,5582.0,0.724,0.284,-0.235,0.583
8261934,14256.0,3846.0,4902.0,0.745,0.252,-0.212,0.58
8261950,12908.0,4390.0,4836.0,0.765,0.22,-0.187,0.576
8261967,11806.0,3978.0,4350.0,0.783,0.188,-0.164,0.57
8261984,11010.0,1618.0,3752.0,0.8,0.156,-0.14,0.563
8262000,9504.0,2128.0,3078.0,0.815,0.126,-0.114,0.554
8262017,8156.0,2586.0,3568.0,0.828,0.097,-0.089,0.545
8262034,7116.0,2558.0,2956.0,0.838,0.068,-0.069,0.537
8262051,6204.0,1604.0,2488.0,0.847,0.039,-0.049,0.528
8262077,5260.0,1348.0,1786.0,0.854,0.01,-0.031,0.519
8262093,4170.0,-1956.0,1188.0,0.86,-0.016,-0.014,0.509
8262109,2444.0,-894.0,1548.0,0.865,-0.037,0.005,0.5
8262125,1642.0,386.0,1522.0,0.869,-0.056,0.021,0.49
8262141,1388.0,16.0,628.0,0.873,-0.074,0.034,0.482
8262157,976.0,-1134.0,426.0,0.875,-0.092,0.045,0.474
8262183,522.0,-1716.0,576.0,0.876,-0.107,0.055,0.467
8262200,204.0,-1632.0,378.0,0.877,-0.119,0.065,0.46
8262217,-46.0,-1630.0,262.0,0.878,-0.131,0.072,0.454
8262234,-462.0,-2576.0,152.0,0.879,-0.14,0.078,0.449
8262251,-738.0,-2504.0,-36.0,0.88,-0.148,0.083,0.443
8262268,-1302.0,-2288.0,440.0,0.882,-0.153,0.086,0.438
8262285,-1952.0,-3528.0,502.0,0.883,-0.157,0.087,0.434
8262301,-1822.0,-3104.0,786.0,0.884,-0.158,0.086,0.431
8262318,-2202.0,-2446.0,484.0,0.886,-0.157,0.083,0.429
8262335,-1852.0,-4238.0,992.0,0.887,-0.155,0.078,0.429
8262351,-2178.0,-3310.0,1482.0,0.888,-0.149,0.071,0.429
8262368,-1552.0,-3074.0,1554.0,0.889,-0.143,0.063,0.431
8262395,-954.0,-3560.0,1984.0,0.89,-0.134,0.053,0.433
8262411,-374.0,-3044.0,1906.0,0.89,-0.124,0.042,0.436
8262427,-218.0,-2888.0,2560.0,0.891,-0.113,0.031,0.44
8262443,250.0,-2602.0,3114.0,0.89,-0.1,0.019,0.444
8262460,1024.0,-2378.0,3038.0,0.889,-0.087,0.007,0.449
8262476,1118.0,-1794.0,3562.0,0.888,-0.072,-0.005,0.454
8262492,1032.0,-1970.0,4328.0,0.886,-0.057,-0.018,0.46
8262518,1736.0,-1026.0,4090.0,0.883,-0.04,-0.032,0.467
8262534,2662.0,-218.0,4422.0,0.879,-0.024,-0.047,0.474
8262551,3018.0,-1344.0,5060.0,0.874,-0.007,-0.063,0.481
8262568,3278.0,-144.0,5444.0,0.869,0.012,-0.078,0.489
8262585,3948.0,972.0,5002.0,0.862,0.031,-0.096,0.496
8262601,5064.0,-40.0,5154.0,0.855,0.051,-0.114,0.503
8262618,5660.0,350.0,5806.0,0.847,0.072,-0.132,0.509
8262644,5850.0,2384.0,6408.0,0.838,0.095,-0.151,0.516
8262660,6036.0,1658.0,6490.0,0.828,0.116,-0.171,0.521
8262676,7002.0,380.0,5514.0,0.817,0.14,-0.191,0.526
8262692,7746.0,3124.0,6502.0,0.805,0.164,-0.21,0.53
8262708,8496.0,3682.0,7062.0,0.793,0.185,-0.232,0.533
8262724,9312.0,1370.0,5858.0,0.78,0.206,-0.252,0.534
8262750,10608.0,1114.0,5538.0,0.768,0.228,-0.269,0.535
8262767,10202.0,2188.0,6346.0,0.755,0.252,-0.282,0.536
8262784,9818.0,3582.0,6770.0,0.741,0.276,-0.294,0.537
8262801,10302.0,4306.0,6214.0,0.727,0.298,-0.306,0.537
8262818,10286.0,3174.0,6592.0,0.713,0.319,-0.319,0.537
8262835,9948.0,3344.0,6878.0,0.698,0.34,-0.331,0.537
8262851,10658.0,3060.0,6122.0,0.682,0.359,-0.344,0.536
8262868,10970.0,3412.0,5914.0,0.667,0.378,-0.355,0.534
8262884,11510.0,3284.0,5216.0,0.654,0.395,-0.366,0.531
8262901,10778.0,1870.0,6144.0,0.641,0.413,-0.374,0.529
8262918,10484.0,4614.0,6318.0,0.627,0.429,-0.382,0.526
8262944,10476.0,4348.0,5900.0,0.614,0.443,-0.392,0.522
8262960,10576.0,2222.0,5054.0,0.602,0.456,-0.401,0.518
8262976,10622.0,1198.0,5470.0,0.591,0.469,-0.408,0.514
8262992,9768.0,3206.0,5570.0,0.579,0.483,-0.414,0.511
8263008,9122.0,3786.0,6008.0,0.567,0.494,-0.42,0.508
8263024,8856.0,3084.0,6202.0,0.557,0.504,-0.427,0.503
8263050,8780.0,1832.0,6376.0,0.547,0.513,-0.435,0.499
8263067,9130.0,2532.0,6326.0,0.538,0.522,-0.44,0.495
8263084,9000.0,3620.0,7254.0,0.53,0.528,-0.446,0.492
8263101,9526.0,1546.0,6894.0,0.524,0.532,-0.451,0.488
8263118,9546.0,1120.0,7116.0,0.52,0.536,-0.453,0.487
8263134,9564.0,2170.0,7544.0,0.518,0.538,-0.452,0.487
8263151,9028.0,2368.0,8450.0,0.517,0.539,-0.451,0.489
8263167,9630.0,3418.0,8284.0,0.519,0.538,-0.448,0.491
8263184,9980.0,2428.0,8412.0,0.524,0.533,-0.445,0.493
8263201,9766.0,2374.0,8146.0,0.53,0.528,-0.439,0.497
8263218,11168.0,2892.0,9580.0,0.538,0.521,-0.432,0.502
8263244,10716.0,4656.0,9412.0,0.548,0.512,-0.424,0.508
8263260,11000.0,2466.0,8738.0,0.56,0.501,-0.416,0.513
8263276,12198.0,4714.0,8782.0,0.573,0.488,-0.405,0.519
8263293,13150.0,3812.0,8132.0,0.589,0.472,-0.394,0.524
8263310,13556.0,2700.0,8016.0,0.607,0.454,-0.38,0.531
8263326,13490.0,4152.0,8014.0,0.625,0.436,-0.362,0.537
8263352,13700.0,5058.0,8416.0,0.645,0.415,-0.343,0.543
8263369,14070.0,5064.0,7892.0,0.666,0.391,-0.324,0.546
8263385,14360.0,4298.0,6882.0,0.687,0.366,-0.304,0.55
8263401,14276.0,4524.0,7464.0,0.708,0.339,-0.282,0.552
8263418,13638.0,5838.0,7020.0,0.729,0.31,-0.26,0.552
8263435,13372.0,3626.0,6558.0,0.75,0.279,-0.238,0.55
8263452,12306.0,3726.0,6754.0,0.77,0.249,-0.214,0.547
8263468,11446.0,4856.0,5978.0,0.788,0.218,-0.191,0.543
8263484,10222.0,2946.0,6096.0,0.804,0.187,-0.169,0.539
8263511,9606.0,4494.0,5758.0,0.819,0.155,-0.148,0.531
8263527,8226.0,3804.0,5626.0,0.833,0.122,-0.13,0.523
8263543,7208.0,2362.0,5598.0,0.845,0.089,-0.113,0.516
8263559,5970.0,878.0,5062.0,0.853,0.061,-0.097,0.509
8263576,6004.0,-3142.0,2676.0,0.86,0.035,-0.078,0.502
8263592,3952.0,-580.0,4334.0,0.867,0.016,-0.057,0.495
8263608,2592.0,8308.0,4700.0,0.872,-0.005,-0.041,0.488
8263634,3334.0,3700.0,3412.0,0.874,-0.036,-0.033,0.484
8263651,4176.0,-2400.0,1756.0,0.874,-0.065,-0.026,0.481
8263668,3698.0,-2732.0,1546.0,0.874,-0.087,-0.013,0.478
8263685,2982.0,748.0,1336.0,0.874,-0.107,0.002,0.475
8263701,1668.0,1208.0,1686.0,0.872,-0.129,0.015,0.471
8263717,1204.0,280.0,1190.0,0.87,-0.152,0.025,0.469
8263734,732.0,-2458.0,328.0,0.868,-0.172,0.034,0.466
8263751,232.0,-1938.0,396.0,0.866,-0.187,0.044,0.462
8263777,-180.0,-1144.0,382.0,0.865,-0.2,0.053,0.457
8263793,-322.0,-1888.0,-104.0,0.863,-0.212,0.059,0.454
8263809,-696.0,-2112.0,-188.0,0.862,-0.22,0.064,0.451
8263825,-1174.0,-1988.0,-290.0,0.861,-0.226,0.068,0.45
8263842,-1650.0,-2862.0,-1054.0,0.86,-0.23,0.069,0.45
8263859,-1900.0,-3296.0,-1158.0,0.861,-0.23,0.069,0.449
8263875,-2128.0,-3380.0,-370.0,0.861,-0.227,0.068,0.449
8263891,-2818.0,-3444.0,562.0,0.863,-0.22,0.065,0.45
8263917,-2466.0,-3550.0,580.0,0.865,-0.21,0.06,0.453
8263934,-2178.0,-3084.0,898.0,0.867,-0.197,0.053,0.455
8263951,-1644.0,-2600.0,1176.0,0.869,-0.182,0.044,0.458
8263967,-1250.0,-2340.0,2488.0,0.871,-0.166,0.033,0.461
8263984,-710.0,-1724.0,2732.0,0.873,-0.149,0.02,0.464
8264001,368.0,-2478.0,2732.0,0.874,-0.131,0.006,0.468
8264018,902.0,-2388.0,3240.0,0.875,-0.11,-0.007,0.471
8264034,1262.0,-500.0,3530.0,0.876,-0.09,-0.02,0.474
8264051,1432.0,-268.0,4870.0,0.875,-0.071,-0.035,0.477
8264078,1396.0,-324.0,5476.0,0.874,-0.053,-0.052,0.48
8264094,2518.0,-1276.0,5206.0,0.871,-0.034,-0.07,0.485
8264110,3094.0,-1222.0,4866.0,0.868,-0.013,-0.087,0.488
8264126,3518.0,1282.0,6172.0,0.864,0.007,-0.104,0.492
8264142,3666.0,696.0,6482.0,0.859,0.026,-0.123,0.496
8264159,5028.0,-204.0,5338.0,0.853,0.045,-0.143,0.5
8264175,5636.0,-654.0,6510.0,0.847,0.065,-0.161,0.503
8264201,5456.0,20.0,6724.0,0.839,0.087,-0.177,0.506
8264217,6220.0,1958.0,6378.0,0.831,0.109,-0.194,0.51
8264234,7016.0,2240.0,6448.0,0.822,0.128,-0.211,0.513
8264250,7342.0,1074.0,7334.0,0.812,0.147,-0.229,0.516
8264266,7398.0,1154.0,6652.0,0.802,0.167,-0.246,0.519
8264283,8552.0,1962.0,6226.0,0.791,0.186,-0.262,0.521
8264300,9290.0,648.0,6224.0,0.78,0.206,-0.277,0.521
8264317,9358.0,1424.0,6598.0,0.769,0.227,-0.289,0.522
8264333,9302.0,4808.0,6318.0,0.757,0.248,-0.303,0.523
8264360,9296.0,1898.0,6664.0,0.745,0.266,-0.318,0.522
8264376,9754.0,538.0,5738.0,0.733,0.285,-0.332,0.52
8264392,9236.0,2470.0,4180.0,0.721,0.306,-0.344,0.518
8264408,10228.0,3630.0,6300.0,0.708,0.324,-0.357,0.516
8264424,10704.0,1206.0,5168.0,0.695,0.341,-0.37,0.514
8264450,10906.0,1548.0,4920.0,0.682,0.359,-0.38,0.511
8264467,10698.0,2540.0,5370.0,0.67,0.376,-0.388,0.509
8264483,11090.0,3274.0,5748.0,0.658,0.392,-0.397,0.506
8264500,10658.0,2662.0,4902.0,0.645,0.407,-0.407,0.502
8264517,10742.0,2010.0,4388.0,0.633,0.422,-0.417,0.498
8264534,11016.0,2454.0,4574.0,0.621,0.435,-0.425,0.494
8264550,10474.0,2270.0,5052.0,0.61,0.448,-0.433,0.489
8264567,9984.0,1410.0,5136.0,0.599,0.46,-0.441,0.485
8264584,10406.0,1796.0,4784.0,0.587,0.472,-0.448,0.481
8264600,10160.0,1156.0,5050.0,0.576,0.483,-0.455,0.477
8264617,10068.0,2656.0,5364.0,0.565,0.493,-0.463,0.473
8264644,9830.0,1330.0,5718.0,0.554,0.501,-0.47,0.469
8264660,9958.0,1026.0,6408.0,0.544,0.51,-0.476,0.467
8264676,10436.0,1786.0,6320.0,0.536,0.516,-0.48,0.464
8264692,9752.0,1268.0,7130.0,0.53,0.521,-0.483,0.463
8264708,8964.0,2884.0,8328.0,0.524,0.525,-0.485,0.463
8264724,9156.0,2538.0,8144.0,0.521,0.526,-0.489,0.462
8264740,10182.0,88.0,8096.0,0.52,0.525,-0.49,0.462
8264766,9898.0,1708.0,8890.0,0.519,0.525,-0.488,0.466
8264783,9306.0,4046.0,8982.0,0.522,0.521,-0.485,0.47
8264800,9704.0,1870.0,9192.0,0.527,0.515,-0.483,0.474
8264816,11090.0,3230.0,9370.0,0.534,0.507,-0.478,0.48
8264833,11676.0,2780.0,8910.0,0.544,0.497,-0.47,0.486
8264849,11240.0,3266.0,8740.0,0.556,0.484,-0.46,0.494
8264865,11688.0,3600.0,9018.0,0.571,0.47,-0.449,0.502
8264891,12934.0,2968.0,8620.0,0.587,0.454,-0.436,0.509
8264907,14292.0,5298.0,8454.0,0.605,0.436,-0.42,0.517
8264923,13894.0,4168.0,7884.0,0.624,0.415,-0.403,0.526
8264939,14502.0,3904.0,7756.0,0.644,0.392,-0.384,0.533
8264955,15464.0,4790.0,7032.0,0.666,0.367,-0.363,0.538
8264971,15450.0,4696.0,6980.0,0.689,0.34,-0.341,0.541
8264997,14710.0,4362.0,6432.0,0.712,0.312,-0.318,0.543
8265013,14360.0,3830.0,6806.0,0.733,0.284,-0.294,0.544
8265029,14230.0,4792.0,5798.0,0.753,0.255,-0.269,0.543
8265045,13390.0,3346.0,4770.0,0.773,0.225,-0.244,0.54
8265061,11912.0,2494.0,4746.0,0.792,0.196,-0.216,0.537
8265077,9798.0,3928.0,5888.0,0.808,0.168,-0.189,0.532
8265103,10132.0,4272.0,5406.0,0.823,0.139,-0.165,0.526
8265119,10136.0,830.0,2930.0,0.836,0.109,-0.142,0.519
8265135,8296.0,2662.0,3358.0,0.848,0.082,-0.116,0.511
8265151,6206.0,3226.0,4896.0,0.858,0.055,-0.095,0.502
8265167,5532.0,2912.0,4676.0,0.865,0.028,-0.078,0.494
8265183,6468.0,254.0,2332.0,0.872,-0.001,-0.063,0.486
8265210,5336.0,-108.0,2242.0,0.877,-0.027,-0.047,0.477
8265226,3254.0,382.0,3332.0,0.882,-0.052,-0.031,0.468
8265242,2576.0,1864.0,3650.0,0.884,-0.077,-0.017,0.46
8265259,3146.0,574.0,1810.0,0.885,-0.101,-0.006,0.454
8265276,3358.0,-1396.0,1126.0,0.886,-0.125,0.005,0.446
8265292,2666.0,-1712.0,1180.0,0.887,-0.147,0.018,0.438
8265309,1052.0,-780.0,2488.0,0.887,-0.166,0.032,0.43
8265325,666.0,-2892.0,614.0,0.886,-0.183,0.045,0.423
8265351,-896.0,-1934.0,-72.0,0.887,-0.198,0.058,0.414
8265368,-2934.0,-3184.0,578.0,0.886,-0.211,0.068,0.407
8265385,-3762.0,-3720.0,712.0,0.886,-0.221,0.075,0.401
8265401,-3148.0,-4774.0,-120.0,0.885,-0.226,0.079,0.399
8265418,-2716.0,-3984.0,-956.0,0.885,-0.227,0.082,0.398
8265435,-1266.0,-4546.0,-992.0,0.886,-0.225,0.085,0.397
8265452,-2098.0,-3408.0,52.0,0.887,-0.221,0.087,0.397
8265469,-1662.0,-3756.0,224.0,0.888,-0.214,0.087,0.398
8265485,-954.0,-2780.0,478.0,0.889,-0.205,0.085,0.4
8265502,-720.0,-2712.0,374.0,0.891,-0.196,0.082,0.401
8265519,-942.0,-3570.0,1384.0,0.893,-0.185,0.077,0.402
8265545,-1016.0,-3178.0,1732.0,0.896,-0.171,0.072,0.404
8265561,-952.0,-2462.0,2058.0,0.898,-0.156,0.064,0.406
8265577,-318.0,-2044.0,2048.0,0.9,-0.141,0.055,0.409
8265594,-228.0,-1796.0,3182.0,0.901,-0.126,0.044,0.412
8265611,-164.0,-1932.0,3724.0,0.902,-0.11,0.032,0.417
8265627,216.0,-1776.0,4318.0,0.901,-0.093,0.019,0.423
8265643,1152.0,-1398.0,4178.0,0.9,-0.076,0.005,0.429
8265669,2114.0,336.0,4418.0,0.898,-0.06,-0.01,0.435
8265685,2334.0,-76.0,5674.0,0.896,-0.045,-0.024,0.442
8265702,2160.0,288.0,6774.0,0.892,-0.03,-0.04,0.45
8265718,3368.0,2.0,5928.0,0.887,-0.014,-0.056,0.458
8265734,3844.0,-2114.0,6310.0,0.883,0.002,-0.071,0.464
8265750,3960.0,858.0,7152.0,0.878,0.022,-0.084,0.47
8265776,3620.0,2658.0,6794.0,0.873,0.042,-0.098,0.476
8265792,4302.0,1934.0,6866.0,0.867,0.059,-0.114,0.482
8265808,4944.0,-420.0,6472.0,0.86,0.077,-0.129,0.488
8265824,5224.0,1030.0,7262.0,0.852,0.098,-0.143,0.493
8265840,5384.0,3428.0,6742.0,0.844,0.117,-0.158,0.499
8265856,5786.0,1988.0,6658.0,0.835,0.136,-0.174,0.505
8265882,6704.0,1414.0,5964.0,0.825,0.157,-0.188,0.51
8265899,6062.0,766.0,6814.0,0.814,0.18,-0.201,0.515
8265915,6644.0,3464.0,6686.0,0.802,0.204,-0.214,0.519
8265932,7196.0,4280.0,6852.0,0.788,0.228,-0.23,0.523
8265949,7846.0,3784.0,6556.0,0.774,0.251,-0.248,0.526
8265966,8408.0,1380.0,6262.0,0.758,0.274,-0.266,0.528
8265983,9534.0,2476.0,6782.0,0.742,0.299,-0.281,0.529
8265999,10048.0,4726.0,6328.0,0.726,0.324,-0.297,0.529
8266016,11258.0,3426.0,6054.0,0.709,0.346,-0.313,0.528
8266033,10748.0,2470.0,6530.0,0.693,0.369,-0.326,0.527
8266059,11180.0,4652.0,6454.0,0.675,0.39,-0.338,0.527
8266075,11604.0,4994.0,6102.0,0.659,0.408,-0.351,0.525
8266091,11796.0,3064.0,6014.0,0.644,0.424,-0.363,0.523
8266107,11814.0,1892.0,6058.0,0.63,0.44,-0.372,0.521
8266123,11522.0,3382.0,6034.0,0.615,0.456,-0.378,0.52
8266149,10682.0,4698.0,5952.0,0.602,0.471,-0.383,0.519
8266166,9942.0,3126.0,6254.0,0.589,0.483,-0.388,0.519
8266183,8870.0,3314.0,7284.0,0.576,0.496,-0.393,0.518
8266200,9034.0,3480.0,6396.0,0.563,0.507,-0.399,0.516
8266217,8876.0,1876.0,5682.0,0.552,0.517,-0.404,0.514
8266233,8594.0,3032.0,7330.0,0.542,0.527,-0.408,0.513
8266249,8090.0,3122.0,7756.0,0.532,0.534,-0.412,0.512
8266266,8422.0,4220.0,8218.0,0.523,0.541,-0.416,0.511
8266283,8890.0,3066.0,8246.0,0.518,0.544,-0.421,0.508
8266300,8906.0,1606.0,8574.0,0.516,0.546,-0.423,0.507
8266317,8854.0,3288.0,9048.0,0.515,0.547,-0.422,0.507
8266333,9462.0,4022.0,9354.0,0.516,0.546,-0.42,0.509
8266359,9784.0,3206.0,9756.0,0.521,0.541,-0.418,0.511
8266375,9704.0,3054.0,9542.0,0.528,0.534,-0.414,0.515
8266391,9952.0,3132.0,10426.0,0.537,0.525,-0.408,0.519
8266407,10530.0,4684.0,9304.0,0.548,0.514,-0.401,0.524
8266423,10868.0,4012.0,10006.0,0.562,0.5,-0.393,0.528
8266449,10860.0,4658.0,9704.0,0.578,0.484,-0.385,0.532
8266466,12314.0,5224.0,9640.0,0.595,0.467,-0.375,0.536
8266483,13280.0,4968.0,8546.0,0.613,0.447,-0.365,0.54
8266499,13672.0,4172.0,8560.0,0.632,0.426,-0.351,0.544
8266516,13342.0,4982.0,8338.0,0.652,0.403,-0.334,0.549
8266533,13804.0,6542.0,8478.0,0.672,0.378,-0.317,0.552
8266550,14050.0,4840.0,8382.0,0.693,0.351,-0.298,0.555
8266566,14530.0,6726.0,7558.0,0.714,0.323,-0.279,0.556
8266583,14436.0,4694.0,6560.0,0.735,0.292,-0.259,0.555
8266599,13736.0,4608.0,6364.0,0.755,0.261,-0.237,0.553
8266626,12746.0,4474.0,6960.0,0.774,0.229,-0.214,0.55
8266642,11794.0,4684.0,6168.0,0.792,0.197,-0.192,0.546
8266658,11150.0,3840.0,4706.0,0.807,0.164,-0.171,0.54
8266674,10234.0,846.0,4548.0,0.822,0.132,-0.148,0.534
8266690,9394.0,3136.0,4518.0,0.835,0.103,-0.124,0.526
8266706,8082.0,3584.0,4468.0,0.846,0.072,-0.102,0.518
8266732,7396.0,2952.0,3602.0,0.855,0.043,-0.083,0.51
8266749,7086.0,758.0,1982.0,0.862,0.012,-0.066,0.502
8266766,5538.0,16.0,2032.0,0.868,-0.016,-0.046,0.495
8266782,3962.0,668.0,2508.0,0.872,-0.041,-0.026,0.487
8266799,3364.0,992.0,2160.0,0.876,-0.066,-0.009,0.479
8266816,2702.0,-52.0,1498.0,0.878,-0.089,0.007,0.471
8266833,2330.0,-532.0,472.0,0.879,-0.11,0.022,0.463
8266849,1410.0,-648.0,674.0,0.88,-0.13,0.035,0.455
8266866,180.0,-1724.0,1220.0,0.881,-0.147,0.047,0.447
8266883,-284.0,-1478.0,766.0,0.881,-0.161,0.057,0.44
8266909,-800.0,-1678.0,288.0,0.882,-0.173,0.066,0.434
8266925,-934.0,-2040.0,-440.0,0.881,-0.184,0.072,0.429
8266941,-1782.0,-3332.0,-120.0,0.881,-0.192,0.078,0.425
8266957,-2532.0,-2536.0,400.0,0.881,-0.197,0.081,0.422
8266973,-2532.0,-2616.0,310.0,0.881,-0.2,0.082,0.42
8266989,-1970.0,-3346.0,-50.0,0.881,-0.201,0.081,0.42
8267015,-1962.0,-3998.0,-240.0,0.882,-0.199,0.079,0.419
8267033,-2104.0,-3248.0,520.0,0.884,-0.194,0.076,0.419
8267049,-2428.0,-2918.0,1028.0,0.885,-0.188,0.071,0.42
8267066,-1840.0,-3194.0,1448.0,0.887,-0.179,0.063,0.422
8267082,-1098.0,-2872.0,934.0,0.888,-0.168,0.054,0.424
8267099,-614.0,-4322.0,1182.0,0.89,-0.157,0.045,0.426
8267116,-736.0,-2684.0,2228.0,0.892,-0.142,0.035,0.428
8267133,-844.0,-1396.0,2986.0,0.893,-0.127,0.024,0.431
8267150,-146.0,-2436.0,3248.0,0.893,-0.111,0.012,0.435
8267166,824.0,-2374.0,2522.0,0.893,-0.095,-0.003,0.439
8267192,1422.0,-1506.0,3590.0,0.893,-0.078,-0.016,0.443
8267208,1444.0,-446.0,4534.0,0.892,-0.061,-0.03,0.448
8267224,1806.0,-408.0,4694.0,0.889,-0.045,-0.045,0.454
8267241,2688.0,-1792.0,5120.0,0.885,-0.027,-0.061,0.46
8267257,3566.0,-388.0,5144.0,0.881,-0.007,-0.077,0.466
8267274,3928.0,-182.0,4990.0,0.876,0.012,-0.094,0.472
8267290,3794.0,926.0,5748.0,0.871,0.033,-0.111,0.478
8267316,4578.0,1536.0,6012.0,0.864,0.053,-0.13,0.484
8267332,5488.0,1240.0,5866.0,0.856,0.073,-0.151,0.489
8267348,6430.0,528.0,6278.0,0.847,0.094,-0.172,0.494
8267365,6644.0,1182.0,6226.0,0.838,0.115,-0.192,0.498
8267382,7770.0,2108.0,5748.0,0.828,0.135,-0.21,0.502
8267399,7816.0,1848.0,6082.0,0.817,0.156,-0.228,0.506
8267416,7648.0,1586.0,7160.0,0.806,0.177,-0.245,0.51
8267432,8402.0,3414.0,6996.0,0.793,0.199,-0.263,0.512
8267448,9008.0,1812.0,6686.0,0.78,0.22,-0.282,0.513
8267475,9454.0,2072.0,6066.0,0.767,0.242,-0.3,0.514
8267491,10096.0,3050.0,6320.0,0.752,0.263,-0.316,0.514
8267507,10122.0,2918.0,7126.0,0.737,0.285,-0.333,0.514
8267523,10520.0,3518.0,6626.0,0.723,0.305,-0.349,0.513
8267539,11134.0,684.0,6106.0,0.708,0.324,-0.364,0.511
8267555,11128.0,4602.0,6538.0,0.692,0.346,-0.377,0.509
8267581,10638.0,4052.0,7012.0,0.677,0.364,-0.392,0.506
8267597,10344.0,1808.0,5388.0,0.662,0.381,-0.406,0.503
8267613,12446.0,1146.0,5502.0,0.648,0.398,-0.417,0.498
8267630,11868.0,2044.0,6112.0,0.635,0.415,-0.424,0.495
8267647,10448.0,5344.0,7254.0,0.621,0.43,-0.432,0.493
8267664,10890.0,3730.0,6286.0,0.609,0.441,-0.442,0.489
8267681,11222.0,-10.0,5660.0,0.598,0.453,-0.45,0.485
8267698,10200.0,1938.0,6384.0,0.588,0.464,-0.454,0.482
8267715,8696.0,3748.0,8090.0,0.579,0.474,-0.458,0.48
8267732,9388.0,3082.0,7286.0,0.57,0.482,-0.466,0.475
8267759,10140.0,802.0,6614.0,0.562,0.49,-0.471,0.471
8267775,9406.0,1024.0,7432.0,0.556,0.497,-0.473,0.469
8267791,8654.0,2906.0,8278.0,0.552,0.502,-0.474,0.467
8267807,8782.0,3238.0,9332.0,0.548,0.506,-0.475,0.466
8267823,9424.0,1100.0,8340.0,0.548,0.507,-0.476,0.465
8267839,9116.0,1252.0,9158.0,0.549,0.507,-0.474,0.466
8267865,9080.0,5672.0,10142.0,0.552,0.505,-0.471,0.468
8267882,9636.0,1492.0,9574.0,0.558,0.499,-0.469,0.469
8267899,10018.0,-184.0,9192.0,0.565,0.493,-0.464,0.473
8267916,10292.0,3758.0,9180.0,0.574,0.486,-0.455,0.478
8267932,10170.0,4128.0,9588.0,0.585,0.475,-0.446,0.483
8267949,10574.0,2708.0,9334.0,0.598,0.462,-0.437,0.488
8267965,11122.0,2406.0,9454.0,0.611,0.448,-0.427,0.493
8267982,12388.0,3678.0,9014.0,0.625,0.433,-0.416,0.499
8267999,13496.0,4838.0,7792.0,0.641,0.415,-0.402,0.505
8268025,13844.0,3990.0,7656.0,0.659,0.394,-0.388,0.511
8268041,13254.0,3508.0,8362.0,0.676,0.372,-0.37,0.517
8268058,14552.0,3300.0,7826.0,0.693,0.351,-0.351,0.522
8268074,15090.0,4430.0,7132.0,0.712,0.328,-0.33,0.526
8268090,14498.0,5352.0,6466.0,0.731,0.302,-0.307,0.529
8268106,13426.0,3718.0,6874.0,0.75,0.274,-0.284,0.531
8268122,13572.0,3960.0,6528.0,0.769,0.247,-0.259,0.53
8268148,13036.0,2408.0,5774.0,0.786,0.218,-0.233,0.529
8268165,11488.0,3680.0,6344.0,0.803,0.19,-0.206,0.525
8268182,9672.0,5390.0,6282.0,0.82,0.158,-0.183,0.519
8268198,9852.0,2056.0,6046.0,0.835,0.122,-0.164,0.51
8268215,8824.0,-582.0,4656.0,0.849,0.088,-0.146,0.501
8268232,8504.0,2628.0,2218.0,0.86,0.058,-0.124,0.492
8268249,7114.0,952.0,1534.0,0.868,0.027,-0.102,0.484
8268266,5192.0,-390.0,2330.0,0.875,0.001,-0.077,0.478
8268282,3016.0,-110.0,2960.0,0.88,-0.022,-0.052,0.471
8268299,1984.0,-620.0,3174.0,0.884,-0.043,-0.03,0.464
8268326,2124.0,-588.0,2256.0,0.888,-0.063,-0.009,0.456
8268342,1908.0,524.0,1830.0,0.89,-0.081,0.009,0.449
8268358,1382.0,1042.0,1084.0,0.891,-0.1,0.024,0.443
8268374,338.0,-490.0,1396.0,0.891,-0.118,0.037,0.438
8268390,222.0,-2006.0,1364.0,0.89,-0.133,0.049,0.433
8268406,68.0,-2400.0,662.0,0.89,-0.147,0.059,0.428
8268423,306.0,-1794.0,216.0,0.89,-0.157,0.068,0.423
8268449,-360.0,-790.0,96.0,0.889,-0.166,0.077,0.419
8268466,-1046.0,-1340.0,-14.0,0.888,-0.175,0.084,0.416
8268483,-1640.0,-2552.0,354.0,0.888,-0.182,0.088,0.414
8268499,-1494.0,-3058.0,-142.0,0.887,-0.186,0.091,0.412
8268516,-2114.0,-2436.0,88.0,0.888,-0.187,0.09,0.411
8268533,-1772.0,-2580.0,210.0,0.888,-0.186,0.087,0.411
8268549,-1844.0,-3940.0,84.0,0.889,-0.183,0.082,0.412
8268566,-2042.0,-3038.0,1178.0,0.89,-0.177,0.075,0.413
8268582,-1710.0,-2536.0,1142.0,0.891,-0.169,0.065,0.415
8268599,-1116.0,-3980.0,1672.0,0.893,-0.158,0.054,0.418
8268625,-662.0,-2212.0,1692.0,0.894,-0.144,0.043,0.422
8268641,-132.0,-2188.0,2466.0,0.895,-0.131,0.029,0.425
8268657,1338.0,-1774.0,2672.0,0.896,-0.118,0.015,0.427
8268673,1324.0,-2438.0,3780.0,0.897,-0.105,-0.0,0.43
8268689,1690.0,-3228.0,4200.0,0.898,-0.088,-0.015,0.432
8268705,2206.0,438.0,3930.0,0.898,-0.071,-0.03,0.433
8268731,2072.0,-1580.0,4654.0,0.897,-0.057,-0.048,0.435
8268748,2138.0,-836.0,5480.0,0.896,-0.041,-0.064,0.438
8268765,2336.0,350.0,6312.0,0.892,-0.023,-0.083,0.444
8268781,3046.0,-2014.0,5230.0,0.887,-0.004,-0.102,0.45
8268798,4210.0,52.0,5664.0,0.882,0.016,-0.121,0.455
8268814,4508.0,800.0,6372.0,0.876,0.036,-0.14,0.461
8268831,4840.0,1078.0,6700.0,0.868,0.057,-0.159,0.467
8268848,5532.0,78.0,6526.0,0.86,0.078,-0.178,0.473
8268875,5882.0,808.0,6378.0,0.851,0.099,-0.197,0.478
8268891,6176.0,2236.0,6782.0,0.841,0.119,-0.215,0.482
8268907,6774.0,1876.0,6334.0,0.83,0.138,-0.234,0.488
8268923,7222.0,1426.0,7028.0,0.817,0.158,-0.251,0.495
8268939,7750.0,1332.0,6638.0,0.804,0.179,-0.267,0.5
8268955,8638.0,2038.0,6808.0,0.791,0.2,-0.284,0.504
8268971,8778.0,2028.0,6580.0,0.778,0.22,-0.299,0.507
8268997,8716.0,4430.0,6182.0,0.763,0.241,-0.315,0.511
8269014,8856.0,2494.0,6858.0,0.749,0.259,-0.331,0.512
8269031,9832.0,1522.0,6104.0,0.735,0.279,-0.347,0.512
8269047,10330.0,2540.0,6006.0,0.72,0.298,-0.36,0.512
8269064,10458.0,3952.0,5246.0,0.705,0.317,-0.373,0.513
8269081,10198.0,2726.0,5846.0,0.69,0.334,-0.386,0.513
8269098,10026.0,1968.0,5814.0,0.674,0.352,-0.398,0.513
8269115,10422.0,1930.0,5406.0,0.659,0.37,-0.409,0.512
8269131,10874.0,2774.0,4706.0,0.643,0.389,-0.418,0.511
8269148,10658.0,4602.0,5358.0,0.626,0.406,-0.429,0.509
8269175,10806.0,2398.0,4910.0,0.611,0.42,-0.439,0.507
8269191,10790.0,1382.0,5266.0,0.597,0.434,-0.448,0.505
8269207,11134.0,2612.0,5256.0,0.582,0.449,-0.456,0.502
8269223,11444.0,2032.0,4866.0,0.569,0.461,-0.463,0.499
8269239,10994.0,1252.0,5156.0,0.556,0.474,-0.469,0.497
8269255,10108.0,2272.0,5886.0,0.544,0.485,-0.473,0.495
8269281,10098.0,1978.0,5820.0,0.532,0.496,-0.477,0.493
8269298,10358.0,1568.0,5904.0,0.523,0.505,-0.48,0.491
8269315,9824.0,1638.0,6248.0,0.514,0.514,-0.481,0.49
8269331,9380.0,2650.0,6808.0,0.507,0.521,-0.482,0.489
8269348,9212.0,1948.0,7284.0,0.502,0.527,-0.482,0.488
8269365,9486.0,1432.0,7594.0,0.498,0.532,-0.481,0.488
8269381,9186.0,3696.0,8180.0,0.496,0.536,-0.478,0.488
8269398,8964.0,4196.0,8604.0,0.497,0.537,-0.476,0.488
8269415,9282.0,1426.0,7838.0,0.5,0.535,-0.474,0.489
8269431,9394.0,1312.0,8512.0,0.504,0.534,-0.467,0.492
8269449,9266.0,4352.0,8380.0,0.511,0.531,-0.459,0.496
8269475,9498.0,4118.0,9388.0,0.52,0.525,-0.451,0.5
8269492,9822.0,3428.0,8802.0,0.531,0.517,-0.442,0.505
8269508,10822.0,3622.0,8080.0,0.544,0.508,-0.432,0.509
8269524,10852.0,4882.0,8616.0,0.558,0.497,-0.42,0.514
8269540,11846.0,5224.0,8388.0,0.574,0.484,-0.409,0.519
8269556,12860.0,3076.0,7156.0,0.592,0.469,-0.395,0.524
8269582,12836.0,5176.0,8016.0,0.61,0.454,-0.378,0.528
8269598,13858.0,7650.0,7456.0,0.631,0.436,-0.361,0.531
8269615,14960.0,5212.0,6858.0,0.653,0.415,-0.345,0.532
8269631,14254.0,4258.0,6990.0,0.675,0.392,-0.326,0.533
8269648,14414.0,5112.0,6160.0,0.697,0.37,-0.304,0.533
8269665,13986.0,3500.0,6058.0,0.719,0.347,-0.28,0.533
8269681,12902.0,5838.0,5984.0,0.741,0.323,-0.255,0.53
8269698,13142.0,4686.0,5702.0,0.763,0.296,-0.231,0.526
8269715,11520.0,2440.0,5466.0,0.782,0.271,-0.205,0.522
8269742,10480.0,4330.0,5198.0,0.799,0.249,-0.178,0.517
8269758,9368.0,4748.0,6074.0,0.816,0.226,-0.152,0.51
8269774,9782.0,4220.0,4960.0,0.832,0.2,-0.13,0.5
8269790,8604.0,2578.0,4896.0,0.847,0.174,-0.11,0.49
8269806,9034.0,3800.0,3544.0,0.86,0.149,-0.09,0.48
8269822,8006.0,616.0,2710.0,0.872,0.124,-0.071,0.469
8269838,5560.0,5590.0,3572.0,0.882,0.099,-0.053,0.458
8269864,5546.0,1266.0,2790.0,0.891,0.07,-0.037,0.448
8269881,4248.0,676.0,1882.0,0.897,0.044,-0.023,0.439
8269898,3112.0,500.0,2196.0,0.902,0.018,-0.009,0.43
8269915,1564.0,814.0,2910.0,0.906,-0.006,0.002,0.423
8269931,1620.0,-420.0,2072.0,0.909,-0.03,0.01,0.416
8269948,1690.0,-2100.0,936.0,0.911,-0.052,0.017,0.41
8269965,456.0,-130.0,732.0,0.912,-0.072,0.023,0.404
8269981,-382.0,-1986.0,1568.0,0.912,-0.091,0.027,0.399
8269999,54.0,-2598.0,802.0,0.912,-0.107,0.031,0.395
8270016,-780.0,-1768.0,598.0,0.911,-0.12,0.033,0.393
8270033,-264.0,-2970.0,-286.0,0.91,-0.132,0.034,0.392
8270060,-462.0,-3460.0,-176.0,0.909,-0.141,0.036,0.391
8270076,-1822.0,-2682.0,1170.0,0.908,-0.148,0.036,0.39
8270092,-1032.0,-3672.0,868.0,0.907,-0.152,0.034,0.391
8270108,-950.0,-3950.0,672.0,0.907,-0.151,0.032,0.391
8270124,-574.0,-3012.0,490.0,0.907,-0.148,0.029,0.392
8270140,-1650.0,-2882.0,1856.0,0.908,-0.144,0.025,0.393
8270166,-776.0,-3574.0,1750.0,0.908,-0.137,0.019,0.395
8270183,-966.0,-2834.0,1924.0,0.909,-0.127,0.012,0.398
8270200,-184.0,-2594.0,2306.0,0.909,-0.115,0.006,0.4
8270217,204.0,-2428.0,2640.0,0.91,-0.103,-0.002,0.401
8270234,-716.0,-1594.0,3490.0,0.91,-0.09,-0.01,0.404
8270251,-404.0,-1684.0,3646.0,0.91,-0.075,-0.021,0.408
8270267,1154.0,-2258.0,3290.0,0.909,-0.058,-0.032,0.412
8270283,1220.0,-974.0,4212.0,0.907,-0.042,-0.043,0.416
8270300,832.0,-738.0,5088.0,0.905,-0.025,-0.056,0.42
8270317,1918.0,-322.0,4626.0,0.902,-0.007,-0.07,0.426
8270343,2910.0,-362.0,4520.0,0.898,0.011,-0.084,0.432
8270359,3182.0,-530.0,5524.0,0.893,0.029,-0.098,0.438
8270375,3890.0,1212.0,5102.0,0.888,0.047,-0.114,0.444
8270391,4008.0,-236.0,5350.0,0.881,0.065,-0.13,0.449
8270407,4334.0,1064.0,5574.0,0.875,0.084,-0.146,0.455
8270423,5106.0,1350.0,5578.0,0.867,0.104,-0.163,0.46
8270449,5476.0,1602.0,5760.0,0.858,0.123,-0.181,0.465
8270465,5832.0,1232.0,5856.0,0.848,0.143,-0.2,0.47
8270481,6778.0,2104.0,5472.0,0.837,0.163,-0.219,0.474
8270497,7192.0,2170.0,5944.0,0.825,0.182,-0.239,0.478
8270514,8244.0,2940.0,5970.0,0.813,0.201,-0.258,0.481
8270531,8712.0,1652.0,5882.0,0.8,0.219,-0.277,0.484
8270547,9294.0,3742.0,5694.0,0.787,0.239,-0.296,0.486
8270573,9650.0,2300.0,5916.0,0.774,0.257,-0.314,0.487
8270589,9810.0,3062.0,5912.0,0.76,0.275,-0.331,0.486
8270605,10000.0,3346.0,5820.0,0.747,0.293,-0.348,0.485
8270621,10650.0,2904.0,5496.0,0.733,0.311,-0.364,0.483
8270637,10216.0,3494.0,6056.0,0.719,0.328,-0.379,0.482
8270653,10282.0,3306.0,5842.0,0.706,0.344,-0.393,0.479
8270679,10734.0,2642.0,5290.0,0.692,0.36,-0.406,0.476
8270696,10424.0,2688.0,5306.0,0.679,0.376,-0.417,0.474
8270713,10156.0,2662.0,5468.0,0.666,0.392,-0.427,0.471
8270730,9844.0,3062.0,5534.0,0.653,0.406,-0.436,0.467
8270747,10512.0,3032.0,5110.0,0.64,0.421,-0.445,0.464
8270764,10694.0,2512.0,4684.0,0.628,0.434,-0.454,0.46
8270781,10630.0,2456.0,4786.0,0.616,0.447,-0.46,0.458
8270799,9732.0,3030.0,5620.0,0.604,0.459,-0.467,0.455
8270816,10154.0,1796.0,4688.0,0.592,0.47,-0.473,0.451
8270832,10650.0,2264.0,4772.0,0.581,0.482,-0.478,0.449
8270848,10076.0,2940.0,4960.0,0.571,0.491,-0.483,0.446
8270874,9552.0,2358.0,5576.0,0.562,0.5,-0.486,0.445
8270890,9472.0,1362.0,5256.0,0.553,0.508,-0.489,0.443
8270906,9146.0,2248.0,5412.0,0.544,0.516,-0.491,0.443
8270923,9264.0,2884.0,6070.0,0.537,0.524,-0.492,0.442
8270939,9334.0,2316.0,6294.0,0.531,0.529,-0.494,0.44
8270955,9796.0,3046.0,6786.0,0.527,0.533,-0.495,0.439
8270971,10408.0,2000.0,6622.0,0.524,0.536,-0.495,0.439
8270997,10282.0,2734.0,7512.0,0.524,0.538,-0.492,0.44
8271014,10048.0,2800.0,7534.0,0.527,0.538,-0.489,0.441
8271031,10258.0,2760.0,7656.0,0.531,0.536,-0.483,0.443
8271047,10038.0,3716.0,7854.0,0.537,0.533,-0.477,0.447
8271064,10562.0,2958.0,7708.0,0.545,0.528,-0.47,0.451
8271081,10420.0,2870.0,8060.0,0.556,0.521,-0.461,0.455
8271098,10390.0,4654.0,8210.0,0.567,0.512,-0.452,0.461
8271115,10838.0,3596.0,8276.0,0.579,0.502,-0.442,0.466
8271132,11982.0,5156.0,7978.0,0.593,0.49,-0.431,0.471
8271149,12714.0,4308.0,7642.0,0.609,0.475,-0.419,0.477
8271175,13148.0,3290.0,7378.0,0.626,0.459,-0.404,0.483
8271191,13382.0,5650.0,6798.0,0.645,0.442,-0.387,0.49
8271207,13348.0,4640.0,7070.0,0.664,0.423,-0.368,0.495
8271223,13480.0,7178.0,6690.0,0.684,0.402,-0.348,0.499
8271239,13998.0,4828.0,5924.0,0.705,0.378,-0.329,0.502
8271255,12876.0,4650.0,6418.0,0.725,0.355,-0.308,0.503
8271281,12112.0,5654.0,6220.0,0.745,0.331,-0.287,0.502
8271297,13108.0,4482.0,4924.0,0.764,0.307,-0.266,0.501
8271314,11390.0,5580.0,4184.0,0.783,0.28,-0.244,0.499
8271331,10122.0,3874.0,5128.0,0.801,0.253,-0.222,0.495
8271347,10376.0,4638.0,4344.0,0.817,0.227,-0.202,0.491
8271364,9636.0,3566.0,3298.0,0.832,0.2,-0.182,0.485
8271380,8402.0,3282.0,3412.0,0.846,0.173,-0.16,0.478
8271397,6890.0,1808.0,4124.0,0.858,0.149,-0.14,0.471
8271414,6104.0,3368.0,3812.0,0.868,0.126,-0.121,0.464
8271440,6100.0,1200.0,2992.0,0.877,0.104,-0.104,0.457
8271456,5666.0,2646.0,2276.0,0.886,0.082,-0.086,0.449
8271472,3928.0,1238.0,3740.0,0.892,0.06,-0.07,0.442
8271488,4238.0,-574.0,2968.0,0.898,0.041,-0.054,0.434
8271504,3094.0,870.0,2392.0,0.903,0.024,-0.038,0.427
8271520,3236.0,-452.0,1600.0,0.908,0.007,-0.022,0.418
8271546,1810.0,18.0,1782.0,0.912,-0.01,-0.007,0.41
8271563,418.0,-1332.0,2170.0,0.915,-0.024,0.006,0.403
8271580,10.0,-2310.0,1750.0,0.917,-0.036,0.018,0.397
8271597,-706.0,-1068.0,1366.0,0.919,-0.047,0.027,0.391
8271614,-944.0,-2602.0,1158.0,0.92,-0.057,0.034,0.387
8271630,-1774.0,-3138.0,1520.0,0.92,-0.065,0.038,0.384
8271647,-1374.0,-2618.0,278.0,0.92,-0.07,0.041,0.383
8271664,-898.0,-3506.0,-464.0,0.92,-0.075,0.042,0.383
8271681,-1084.0,-2394.0,-106.0,0.919,-0.08,0.043,0.385
8271698,-1558.0,-3656.0,786.0,0.917,-0.084,0.041,0.387
8271724,-906.0,-3458.0,526.0,0.916,-0.086,0.038,0.391
8271740,-622.0,-2638.0,170.0,0.914,-0.085,0.032,0.395
8271756,-388.0,-2484.0,818.0,0.913,-0.083,0.026,0.399
8271773,-576.0,-2722.0,1412.0,0.912,-0.079,0.017,0.403
8271789,-616.0,-2514.0,1628.0,0.911,-0.071,0.006,0.406
8271805,-472.0,-2786.0,1932.0,0.91,-0.061,-0.007,0.411
8271821,274.0,-1586.0,2006.0,0.908,-0.05,-0.021,0.415
8271847,656.0,-2594.0,2924.0,0.907,-0.036,-0.035,0.419
8271864,574.0,-1054.0,3554.0,0.904,-0.021,-0.05,0.424
8271880,1770.0,-946.0,3560.0,0.9,-0.005,-0.067,0.43
8271897,2696.0,-848.0,4064.0,0.896,0.013,-0.084,0.435
8271914,3732.0,86.0,4340.0,0.892,0.032,-0.1,0.441
8271930,4036.0,816.0,4836.0,0.886,0.051,-0.115,0.447
8271947,4544.0,622.0,4874.0,0.879,0.072,-0.131,0.453
8271964,5512.0,326.0,4524.0,0.871,0.093,-0.147,0.459
8271980,5440.0,906.0,5388.0,0.862,0.118,-0.163,0.466
8272007,5790.0,2310.0,5488.0,0.851,0.143,-0.179,0.473
8272023,6720.0,2948.0,5108.0,0.838,0.169,-0.196,0.48
8272039,7580.0,1506.0,5436.0,0.824,0.196,-0.212,0.487
8272055,7858.0,3516.0,5372.0,0.808,0.224,-0.228,0.494
8272072,8164.0,3746.0,5776.0,0.791,0.252,-0.244,0.501
8272088,8626.0,5284.0,6132.0,0.773,0.279,-0.26,0.507
8272104,10460.0,4206.0,5796.0,0.754,0.304,-0.275,0.513
8272130,10928.0,4900.0,5548.0,0.735,0.327,-0.289,0.518
8272147,9988.0,3442.0,6176.0,0.716,0.352,-0.3,0.523
8272163,10126.0,4302.0,6050.0,0.696,0.376,-0.31,0.527
8272180,10824.0,5374.0,5824.0,0.677,0.399,-0.32,0.53
8272197,11214.0,3692.0,5896.0,0.657,0.42,-0.328,0.533
8272213,10740.0,3814.0,5944.0,0.637,0.44,-0.334,0.537
8272230,10372.0,4736.0,5462.0,0.616,0.46,-0.34,0.542
8272247,10946.0,4476.0,5704.0,0.597,0.477,-0.344,0.545
8272263,11036.0,4178.0,5360.0,0.578,0.493,-0.349,0.549
8272290,11316.0,3696.0,5580.0,0.559,0.509,-0.351,0.553
8272306,10334.0,2712.0,5046.0,0.542,0.524,-0.351,0.555
8272322,10394.0,3482.0,5388.0,0.527,0.539,-0.348,0.557
8272338,10490.0,4108.0,4524.0,0.511,0.554,-0.344,0.56
8272354,9926.0,5332.0,4768.0,0.497,0.567,-0.339,0.563
8272371,9646.0,4722.0,4466.0,0.483,0.578,-0.335,0.566
8272387,9004.0,3336.0,4634.0,0.47,0.589,-0.329,0.569
8272413,9084.0,4032.0,4360.0,0.457,0.6,-0.322,0.572
8272430,9326.0,4410.0,4062.0,0.446,0.61,-0.313,0.575
8272447,9054.0,4188.0,3808.0,0.436,0.619,-0.304,0.578
8272464,8426.0,3708.0,3960.0,0.427,0.628,-0.293,0.581
8272480,8776.0,4948.0,3692.0,0.418,0.637,-0.281,0.584
8272497,8828.0,4870.0,3396.0,0.411,0.644,-0.269,0.587
8272514,9078.0,4510.0,3000.0,0.406,0.65,-0.255,0.589
8272530,8826.0,4718.0,2868.0,0.402,0.656,-0.24,0.592
8272546,8686.0,4146.0,2696.0,0.398,0.661,-0.223,0.596
8272573,8508.0,5942.0,2582.0,0.394,0.666,-0.204,0.599
