timeMs,ax,ay,az,q0,q1,q2,q3
7902829,-1026.0,8245.0,-309.0,0.621,0.66,0.325,0.269
7902845,-952.0,8123.0,-407.0,0.622,0.66,0.325,0.269
7902861,-870.0,8083.0,-467.0,0.622,0.66,0.325,0.269
7902879,-938.0,8039.0,-407.0,0.622,0.66,0.325,0.269
7902895,-1022.0,8109.0,-263.0,0.622,0.659,0.325,0.269
7902912,-1122.0,8087.0,-283.0,0.622,0.659,0.325,0.269
7902938,-1098.0,8157.0,-280.0,0.623,0.659,0.326,0.269
7902954,-978.0,8126.0,-383.0,0.623,0.658,0.326,0.269
7902970,-825.0,8199.0,-515.0,0.622,0.658,0.327,0.269
7902986,-1009.0,8219.0,-383.0,0.622,0.658,0.327,0.27
7903002,-1048.0,8077.0,-371.0,0.622,0.658,0.328,0.27
7903018,-1082.0,8172.0,-256.0,0.622,0.657,0.328,0.27
7903044,-1021.0,8059.0,-356.0,0.622,0.657,0.329,0.27
7903060,-958.0,8069.0,-472.0,0.622,0.657,0.33,0.27
7903076,-993.0,8044.0,-479.0,0.622,0.657,0.33,0.27
7903092,-985.0,8189.0,-449.0,0.622,0.656,0.331,0.27
7903108,-1084.0,8230.0,-342.0,0.622,0.656,0.332,0.27
7903124,-1116.0,8124.0,-318.0,0.622,0.656,0.332,0.27
7903140,-1222.0,8202.0,-302.0,0.622,0.655,0.333,0.27
7903166,-1084.0,8214.0,-302.0,0.622,0.655,0.333,0.27
7903182,-1102.0,8104.0,-432.0,0.622,0.655,0.333,0.27
7903198,-960.0,8252.0,-478.0,0.623,0.654,0.334,0.27
7903214,-1030.0,8010.0,-388.0,0.623,0.654,0.334,0.27
7903230,-1022.0,8130.0,-496.0,0.623,0.653,0.335,0.27
7903246,-1178.0,8312.0,-406.0,0.624,0.652,0.335,0.27
7903272,-1194.0,8168.0,-266.0,0.624,0.652,0.336,0.27
7903288,-1246.0,8078.0,-266.0,0.625,0.651,0.336,0.27
7903304,-1044.0,8060.0,-438.0,0.625,0.651,0.336,0.27
7903320,-1100.0,8030.0,-494.0,0.625,0.65,0.337,0.27
7903336,-1172.0,8040.0,-418.0,0.625,0.65,0.337,0.27
7903362,-1184.0,8264.0,-352.0,0.625,0.65,0.337,0.27
7903378,-1346.0,8332.0,-274.0,0.625,0.65,0.337,0.27
7903394,-1404.0,8310.0,-224.0,0.625,0.65,0.337,0.27
7903410,-1246.0,8150.0,-274.0,0.626,0.65,0.336,0.27
7903426,-1280.0,8010.0,-350.0,0.626,0.65,0.335,0.27
7903442,-1284.0,7942.0,-336.0,0.627,0.65,0.334,0.269
7903468,-1314.0,7956.0,-178.0,0.627,0.651,0.333,0.269
7903484,-1338.0,8204.0,-232.0,0.627,0.651,0.333,0.268
7903500,-1124.0,8244.0,-266.0,0.627,0.652,0.331,0.268
7903516,-1032.0,8170.0,-290.0,0.628,0.652,0.33,0.268
7903532,-958.0,8058.0,-406.0,0.628,0.652,0.329,0.268
7903549,-950.0,7986.0,-276.0,0.627,0.653,0.329,0.268
7903565,-1000.0,8170.0,-210.0,0.626,0.654,0.328,0.269
7903592,-948.0,8434.0,-204.0,0.626,0.655,0.327,0.269
7903609,-770.0,8390.0,-124.0,0.625,0.655,0.327,0.27
7903625,-892.0,8862.0,-110.0,0.625,0.655,0.326,0.272
7903641,-1314.0,8628.0,-152.0,0.627,0.653,0.326,0.273
7903657,-936.0,7968.0,-88.0,0.629,0.65,0.326,0.275
7903673,-204.0,7164.0,-252.0,0.629,0.649,0.326,0.276
7903690,-216.0,8104.0,-476.0,0.629,0.649,0.326,0.277
7903716,-224.0,8478.0,-476.0,0.629,0.648,0.326,0.279
7903732,-520.0,8182.0,-160.0,0.629,0.647,0.326,0.28
7903748,-932.0,8144.0,74.0,0.629,0.647,0.327,0.281
7903764,-842.0,8272.0,36.0,0.629,0.646,0.327,0.282
7903780,-906.0,8426.0,-42.0,0.629,0.646,0.327,0.283
7903796,-908.0,8214.0,-162.0,0.63,0.645,0.326,0.284
7903822,-856.0,8240.0,-118.0,0.63,0.645,0.326,0.285
7903839,-890.0,8242.0,-368.0,0.63,0.645,0.325,0.285
7903855,-820.0,8316.0,-368.0,0.63,0.645,0.324,0.286
7903871,-870.0,8372.0,-196.0,0.63,0.645,0.323,0.287
7903887,-736.0,8802.0,-312.0,0.631,0.645,0.321,0.288
7903903,-806.0,8644.0,-476.0,0.632,0.644,0.319,0.29
7903919,-784.0,8606.0,-276.0,0.634,0.643,0.316,0.291
7903945,-1134.0,8376.0,-110.0,0.636,0.642,0.312,0.293
7903961,-668.0,8076.0,-248.0,0.639,0.641,0.308,0.295
7903978,-694.0,7372.0,-452.0,0.641,0.64,0.305,0.295
7903998,-832.0,7520.0,-38.0,0.641,0.641,0.302,0.294
7904014,-662.0,7812.0,258.0,0.642,0.642,0.299,0.293
7904030,-498.0,8574.0,398.0,0.643,0.643,0.297,0.291
7904046,-124.0,8244.0,262.0,0.645,0.643,0.294,0.289
7904062,-250.0,7704.0,260.0,0.647,0.643,0.293,0.287
7904078,-292.0,7938.0,324.0,0.649,0.642,0.293,0.285
7904104,-268.0,7926.0,216.0,0.649,0.642,0.294,0.284
7904120,-226.0,8588.0,106.0,0.65,0.641,0.295,0.283
7904136,-294.0,8374.0,380.0,0.65,0.64,0.296,0.282
7904152,-416.0,8308.0,452.0,0.65,0.639,0.297,0.283
7904168,-662.0,8438.0,580.0,0.65,0.638,0.299,0.283
7904184,-870.0,8304.0,616.0,0.65,0.637,0.3,0.284
7904204,-1068.0,8064.0,682.0,0.651,0.636,0.301,0.285
7904220,-1128.0,8054.0,746.0,0.65,0.636,0.302,0.286
7904246,-974.0,8276.0,594.0,0.65,0.636,0.302,0.286
7904262,-818.0,8282.0,524.0,0.65,0.636,0.301,0.286
7904278,-804.0,8308.0,374.0,0.65,0.636,0.301,0.286
7904294,-708.0,8162.0,464.0,0.651,0.636,0.299,0.287
7904310,-736.0,8190.0,442.0,0.651,0.637,0.298,0.286
7904326,-632.0,8126.0,412.0,0.651,0.638,0.297,0.286
7904352,-330.0,8154.0,248.0,0.651,0.639,0.295,0.286
7904369,-212.0,8070.0,200.0,0.651,0.639,0.294,0.285
7904385,-292.0,8124.0,176.0,0.651,0.64,0.293,0.285
7904401,-276.0,8178.0,210.0,0.65,0.641,0.293,0.285
7904418,-420.0,8090.0,424.0,0.65,0.641,0.292,0.284
7904434,-332.0,8206.0,388.0,0.65,0.642,0.292,0.283
7904450,-368.0,8230.0,310.0,0.65,0.642,0.292,0.283
7904476,-346.0,8158.0,352.0,0.649,0.643,0.293,0.282
7904492,-434.0,8176.0,280.0,0.649,0.643,0.293,0.282
7904508,-400.0,8216.0,238.0,0.649,0.643,0.294,0.281
7904524,-424.0,8296.0,232.0,0.649,0.643,0.295,0.281
7904541,-400.0,8306.0,236.0,0.648,0.643,0.296,0.281
7904557,-682.0,8190.0,308.0,0.648,0.642,0.297,0.281
7904583,-518.0,8156.0,248.0,0.647,0.643,0.298,0.281
7904599,-590.0,8206.0,240.0,0.647,0.643,0.299,0.281
7904615,-702.0,8310.0,258.0,0.646,0.643,0.3,0.281
7904631,-606.0,8066.0,194.0,0.646,0.643,0.301,0.281
7904647,-646.0,8230.0,242.0,0.645,0.643,0.302,0.281
7904663,-724.0,8152.0,218.0,0.645,0.643,0.303,0.281
7904689,-710.0,8162.0,166.0,0.645,0.643,0.304,0.281
7904705,-714.0,8230.0,118.0,0.644,0.643,0.304,0.281
7904721,-772.0,8340.0,84.0,0.644,0.643,0.305,0.281
7904737,-672.0,8342.0,42.0,0.644,0.643,0.305,0.281
7904753,-552.0,8268.0,-36.0,0.644,0.643,0.306,0.281
7904769,-756.0,8214.0,116.0,0.644,0.642,0.306,0.281
7904795,-740.0,8224.0,94.0,0.643,0.642,0.307,0.282
7904811,-580.0,8102.0,28.0,0.643,0.642,0.307,0.282
7904828,-722.0,8062.0,34.0,0.643,0.642,0.308,0.282
7904844,-576.0,8224.0,28.0,0.643,0.642,0.308,0.282
7904860,-594.0,8236.0,24.0,0.643,0.642,0.309,0.282
7904876,-640.0,8234.0,24.0,0.643,0.642,0.31,0.282
7904892,-890.0,8228.0,120.0,0.643,0.641,0.31,0.281
7904919,-696.0,8142.0,162.0,0.643,0.641,0.311,0.281
7904935,-710.0,8162.0,76.0,0.643,0.641,0.311,0.281
7904951,-676.0,8208.0,44.0,0.643,0.641,0.312,0.28
7904967,-606.0,8212.0,32.0,0.643,0.641,0.313,0.28
7904984,-672.0,8210.0,42.0,0.643,0.641,0.313,0.28
7905001,-780.0,8208.0,174.0,0.642,0.641,0.314,0.279
7905018,-770.0,8228.0,150.0,0.642,0.641,0.314,0.279
7905034,-616.0,8158.0,42.0,0.642,0.641,0.315,0.279
7905060,-654.0,8118.0,-2.0,0.642,0.64,0.316,0.279
7905077,-742.0,8190.0,104.0,0.642,0.64,0.317,0.279
7905093,-720.0,8186.0,60.0,0.642,0.639,0.318,0.279
7905109,-676.0,8182.0,58.0,0.642,0.639,0.319,0.279
7905126,-734.0,8200.0,128.0,0.642,0.639,0.32,0.279
7905142,-672.0,8254.0,90.0,0.642,0.639,0.321,0.279
7905158,-784.0,8178.0,56.0,0.641,0.638,0.322,0.279
7905184,-748.0,8128.0,64.0,0.641,0.638,0.323,0.28
7905200,-666.0,8192.0,-46.0,0.641,0.637,0.324,0.28
7905216,-790.0,8194.0,64.0,0.64,0.637,0.325,0.281
7905232,-920.0,8088.0,134.0,0.64,0.636,0.327,0.281
7905248,-946.0,8082.0,108.0,0.639,0.636,0.328,0.281
7905264,-942.0,8132.0,66.0,0.638,0.636,0.329,0.282
7905290,-964.0,8138.0,-6.0,0.637,0.637,0.33,0.282
7905306,-874.0,8178.0,-86.0,0.636,0.637,0.332,0.282
7905322,-948.0,8218.0,-122.0,0.636,0.637,0.333,0.282
7905339,-904.0,8130.0,-160.0,0.635,0.637,0.334,0.283
7905355,-998.0,8156.0,-56.0,0.634,0.637,0.334,0.283
7905372,-990.0,8168.0,-104.0,0.633,0.638,0.335,0.283
7905388,-860.0,8184.0,-148.0,0.633,0.638,0.336,0.283
7905415,-1112.0,8158.0,-86.0,0.632,0.638,0.336,0.283
7905432,-896.0,8134.0,-136.0,0.631,0.639,0.337,0.283
7905449,-808.0,8190.0,-298.0,0.63,0.639,0.337,0.283
7905465,-852.0,8266.0,-294.0,0.63,0.64,0.337,0.284
7905482,-818.0,8182.0,-272.0,0.629,0.64,0.338,0.284
7905498,-776.0,8204.0,-302.0,0.628,0.64,0.338,0.284
7905514,-808.0,8236.0,-270.0,0.628,0.64,0.339,0.285
7905530,-758.0,8232.0,-342.0,0.627,0.641,0.339,0.285
7905556,-880.0,8106.0,-196.0,0.627,0.641,0.34,0.285
7905572,-796.0,8130.0,-226.0,0.626,0.641,0.34,0.285
7905588,-730.0,8184.0,-300.0,0.626,0.641,0.341,0.286
7905604,-692.0,8228.0,-376.0,0.626,0.641,0.341,0.286
7905620,-662.0,8176.0,-406.0,0.625,0.64,0.342,0.286
7905636,-772.0,8204.0,-344.0,0.625,0.64,0.344,0.287
7905662,-742.0,8186.0,-322.0,0.624,0.64,0.345,0.287
7905678,-724.0,8190.0,-306.0,0.624,0.639,0.346,0.288
7905694,-808.0,8170.0,-310.0,0.623,0.639,0.347,0.288
7905710,-846.0,8234.0,-288.0,0.622,0.638,0.349,0.289
7905726,-912.0,8138.0,-292.0,0.622,0.638,0.35,0.29
7905742,-900.0,8166.0,-338.0,0.621,0.637,0.351,0.291
7905768,-878.0,8158.0,-352.0,0.621,0.637,0.352,0.291
7905785,-874.0,8200.0,-332.0,0.62,0.637,0.353,0.292
7905801,-842.0,8190.0,-384.0,0.62,0.636,0.354,0.293
7905817,-776.0,8190.0,-414.0,0.619,0.636,0.355,0.294
7905833,-838.0,8254.0,-378.0,0.618,0.636,0.356,0.295
7905850,-812.0,8302.0,-366.0,0.618,0.635,0.357,0.296
7905866,-838.0,8292.0,-428.0,0.617,0.635,0.358,0.297
7905893,-758.0,8290.0,-402.0,0.617,0.634,0.359,0.298
7905910,-886.0,8208.0,-438.0,0.616,0.633,0.36,0.299
7905927,-844.0,8154.0,-472.0,0.616,0.632,0.361,0.301
7905943,-808.0,8150.0,-368.0,0.616,0.631,0.362,0.302
7905959,-824.0,8144.0,-380.0,0.616,0.63,0.363,0.303
7905975,-864.0,8230.0,-382.0,0.616,0.629,0.364,0.304
7905991,-940.0,8136.0,-366.0,0.616,0.628,0.365,0.305
7906008,-934.0,8212.0,-348.0,0.616,0.627,0.366,0.305
7906025,-884.0,8140.0,-408.0,0.616,0.627,0.366,0.305
7906051,-860.0,8118.0,-386.0,0.617,0.626,0.367,0.306
7906068,-928.0,8172.0,-314.0,0.617,0.625,0.368,0.306
7906084,-970.0,8192.0,-332.0,0.617,0.625,0.368,0.306
7906101,-1044.0,8168.0,-270.0,0.618,0.624,0.368,0.306
7906117,-984.0,8150.0,-236.0,0.618,0.623,0.369,0.306
7906133,-1052.0,8190.0,-242.0,0.619,0.623,0.369,0.305
7906149,-1028.0,8114.0,-190.0,0.62,0.622,0.368,0.305
7906175,-1016.0,8110.0,-202.0,0.62,0.622,0.368,0.305
7906192,-1144.0,8280.0,-284.0,0.62,0.622,0.368,0.305
7906211,-1048.0,8166.0,-194.0,0.621,0.621,0.368,0.305
7906227,-948.0,8088.0,-222.0,0.621,0.621,0.368,0.305
7906243,-1054.0,8212.0,-298.0,0.622,0.621,0.368,0.304
7906260,-1142.0,8268.0,-186.0,0.622,0.621,0.368,0.304
7906276,-924.0,8062.0,-158.0,0.623,0.62,0.367,0.305
7906292,-882.0,8160.0,-194.0,0.623,0.62,0.367,0.305
7906318,-926.0,8118.0,-218.0,0.624,0.62,0.366,0.305
7906334,-1084.0,8184.0,-170.0,0.624,0.619,0.366,0.305
7906350,-982.0,8126.0,-104.0,0.624,0.619,0.366,0.305
7906367,-1074.0,8080.0,-64.0,0.625,0.619,0.365,0.305
7906383,-996.0,8156.0,-124.0,0.625,0.619,0.365,0.305
7906400,-986.0,8274.0,-180.0,0.626,0.619,0.364,0.305
7906416,-910.0,8082.0,-150.0,0.627,0.618,0.363,0.305
7906433,-640.0,8218.0,-296.0,0.627,0.618,0.363,0.305
7906459,-1018.0,8110.0,-124.0,0.628,0.617,0.363,0.305
7906475,-856.0,8110.0,-72.0,0.629,0.617,0.362,0.305
7906491,-814.0,7766.0,56.0,0.629,0.617,0.362,0.305
7906507,-848.0,8286.0,-66.0,0.629,0.617,0.362,0.304
7906523,-778.0,8334.0,-34.0,0.63,0.617,0.362,0.304
7906539,-718.0,8152.0,-22.0,0.63,0.616,0.362,0.303
7906565,-842.0,8206.0,34.0,0.63,0.616,0.362,0.303
7906581,-804.0,8136.0,-20.0,0.631,0.616,0.362,0.302
7906598,-868.0,8188.0,-26.0,0.631,0.616,0.362,0.302
7906614,-878.0,8176.0,36.0,0.631,0.616,0.363,0.302
7906631,-1012.0,8202.0,64.0,0.631,0.616,0.363,0.302
7906647,-986.0,8156.0,14.0,0.631,0.615,0.363,0.302
7906663,-960.0,8174.0,22.0,0.632,0.615,0.363,0.302
7906689,-1118.0,8142.0,16.0,0.632,0.615,0.363,0.302
7906705,-948.0,8120.0,-14.0,0.632,0.615,0.364,0.302
7906721,-1060.0,8160.0,32.0,0.632,0.614,0.364,0.302
7906737,-1028.0,8052.0,16.0,0.632,0.614,0.364,0.302
7906753,-1078.0,8132.0,8.0,0.632,0.614,0.365,0.302
7906769,-1020.0,8104.0,-46.0,0.631,0.614,0.365,0.302
7906786,-1004.0,8098.0,-82.0,0.631,0.614,0.366,0.302
7906813,-1076.0,8100.0,-50.0,0.631,0.614,0.366,0.302
7906829,-1042.0,8076.0,-70.0,0.63,0.614,0.367,0.302
7906845,-1074.0,8132.0,-64.0,0.63,0.614,0.367,0.302
7906861,-1118.0,8094.0,-30.0,0.629,0.614,0.368,0.302
7906877,-1076.0,8176.0,-92.0,0.629,0.614,0.369,0.302
7906893,-1002.0,8190.0,-130.0,0.628,0.614,0.369,0.302
7906919,-1012.0,8190.0,-100.0,0.628,0.614,0.37,0.302
7906935,-1090.0,8170.0,-96.0,0.627,0.615,0.37,0.302
7906951,-1006.0,8142.0,-160.0,0.627,0.615,0.371,0.302
7906967,-1034.0,8260.0,-124.0,0.627,0.615,0.371,0.302
7906983,-1040.0,8160.0,-98.0,0.626,0.615,0.372,0.302
7906999,-980.0,8198.0,-192.0,0.626,0.616,0.372,0.302
7907026,-1010.0,8200.0,-244.0,0.625,0.616,0.372,0.302
7907042,-984.0,8128.0,-222.0,0.625,0.616,0.372,0.302
7907059,-1026.0,8178.0,-232.0,0.625,0.616,0.373,0.302
7907075,-994.0,8218.0,-218.0,0.624,0.616,0.373,0.302
7907092,-990.0,8148.0,-248.0,0.624,0.617,0.373,0.302
7907108,-994.0,8198.0,-260.0,0.624,0.617,0.373,0.303
7907125,-1060.0,8190.0,-194.0,0.623,0.617,0.373,0.303
7907142,-1002.0,8084.0,-252.0,0.623,0.617,0.373,0.303
7907159,-942.0,8146.0,-328.0,0.623,0.617,0.373,0.303
7907185,-976.0,8210.0,-292.0,0.623,0.617,0.374,0.303
7907201,-992.0,8146.0,-232.0,0.623,0.617,0.374,0.303
7907217,-990.0,8188.0,-210.0,0.623,0.617,0.374,0.303
7907234,-966.0,8164.0,-240.0,0.622,0.617,0.374,0.303
7907250,-1002.0,8246.0,-240.0,0.622,0.617,0.374,0.303
7907267,-936.0,8170.0,-236.0,0.622,0.617,0.374,0.303
7907284,-1022.0,8154.0,-236.0,0.622,0.618,0.374,0.303
7907300,-1000.0,8150.0,-228.0,0.622,0.618,0.374,0.303
7907317,-936.0,8198.0,-254.0,0.622,0.618,0.374,0.303
7907344,-980.0,8142.0,-260.0,0.622,0.618,0.374,0.303
7907361,-976.0,8118.0,-276.0,0.622,0.618,0.374,0.303
7907378,-932.0,8178.0,-308.0,0.622,0.618,0.374,0.303
7907395,-996.0,8210.0,-216.0,0.622,0.618,0.374,0.303
7907411,-952.0,8206.0,-264.0,0.622,0.618,0.373,0.303
7907427,-972.0,8124.0,-268.0,0.622,0.618,0.373,0.303
7907444,-1024.0,8160.0,-268.0,0.622,0.618,0.373,0.303
7907461,-988.0,8148.0,-216.0,0.622,0.618,0.373,0.303
7907477,-894.0,8176.0,-256.0,0.622,0.618,0.373,0.303
7907503,-1004.0,8164.0,-254.0,0.622,0.618,0.373,0.303
7907519,-1020.0,8180.0,-202.0,0.622,0.618,0.373,0.303
7907535,-982.0,8168.0,-190.0,0.622,0.618,0.373,0.303
7907551,-912.0,8158.0,-252.0,0.622,0.618,0.373,0.303
7907567,-942.0,8154.0,-228.0,0.622,0.618,0.373,0.303
7907583,-932.0,8126.0,-224.0,0.623,0.617,0.373,0.303
7907609,-904.0,8168.0,-246.0,0.623,0.617,0.373,0.303
7907625,-860.0,8172.0,-200.0,0.623,0.617,0.373,0.303
7907641,-906.0,8164.0,-196.0,0.622,0.617,0.373,0.303
7907657,-914.0,8174.0,-272.0,0.622,0.617,0.374,0.303
7907673,-944.0,8096.0,-214.0,0.622,0.617,0.374,0.303
7907689,-934.0,8142.0,-192.0,0.622,0.617,0.374,0.304
7907715,-920.0,8168.0,-256.0,0.622,0.617,0.374,0.304
7907731,-902.0,8150.0,-280.0,0.622,0.617,0.375,0.304
7907747,-980.0,8234.0,-286.0,0.622,0.617,0.375,0.304
7907763,-960.0,8212.0,-212.0,0.621,0.617,0.376,0.304
7907780,-998.0,8132.0,-168.0,0.621,0.617,0.376,0.304
7907797,-894.0,8106.0,-230.0,0.621,0.617,0.376,0.304
7907813,-882.0,8166.0,-294.0,0.621,0.617,0.377,0.304
7907840,-820.0,8192.0,-288.0,0.62,0.617,0.377,0.304
7907856,-970.0,8102.0,-284.0,0.62,0.617,0.378,0.304
7907872,-982.0,8142.0,-214.0,0.62,0.617,0.379,0.304
7907888,-1038.0,8058.0,-232.0,0.619,0.617,0.379,0.304
7907904,-934.0,8204.0,-318.0,0.619,0.617,0.38,0.304
7907921,-940.0,8154.0,-318.0,0.618,0.617,0.381,0.304
7907937,-964.0,8080.0,-330.0,0.618,0.616,0.382,0.304
7907964,-1076.0,8204.0,-296.0,0.618,0.616,0.382,0.304
7907980,-968.0,8180.0,-302.0,0.617,0.616,0.383,0.304
7907997,-1016.0,8220.0,-382.0,0.617,0.616,0.384,0.304
7908014,-1000.0,8212.0,-402.0,0.616,0.616,0.385,0.304
7908030,-1016.0,8174.0,-372.0,0.616,0.616,0.385,0.304
7908047,-1060.0,8132.0,-318.0,0.616,0.616,0.386,0.305
7908064,-1042.0,8126.0,-346.0,0.615,0.616,0.387,0.305
7908081,-1052.0,8124.0,-348.0,0.615,0.616,0.387,0.305
7908098,-976.0,8178.0,-432.0,0.614,0.616,0.388,0.305
7908115,-1018.0,8188.0,-402.0,0.614,0.616,0.388,0.305
7908132,-980.0,8156.0,-434.0,0.613,0.616,0.389,0.305
7908158,-1052.0,8152.0,-438.0,0.613,0.616,0.389,0.305
7908175,-1034.0,8082.0,-430.0,0.613,0.616,0.39,0.305
7908191,-1026.0,8116.0,-452.0,0.612,0.617,0.39,0.305
7908208,-1004.0,8192.0,-410.0,0.612,0.617,0.391,0.305
7908225,-1040.0,8200.0,-514.0,0.611,0.617,0.391,0.305
7908242,-988.0,8270.0,-558.0,0.611,0.617,0.392,0.305
7908259,-1020.0,8394.0,-632.0,0.611,0.616,0.392,0.305
7908276,-1118.0,8182.0,-534.0,0.611,0.616,0.392,0.306
7908293,-1088.0,8004.0,-456.0,0.611,0.615,0.393,0.307
7908309,-1040.0,8090.0,-502.0,0.611,0.615,0.393,0.307
7908326,-1132.0,8106.0,-488.0,0.611,0.615,0.393,0.308
7908352,-1132.0,8134.0,-486.0,0.61,0.614,0.394,0.308
7908369,-1044.0,8156.0,-494.0,0.61,0.614,0.394,0.308
7908386,-1018.0,8174.0,-590.0,0.61,0.614,0.394,0.308
7908402,-1010.0,8216.0,-594.0,0.61,0.614,0.395,0.309
7908418,-1042.0,8168.0,-494.0,0.61,0.614,0.395,0.309
7908434,-1018.0,8198.0,-522.0,0.609,0.614,0.395,0.31
7908450,-1040.0,8180.0,-498.0,0.609,0.614,0.395,0.31
7908476,-1020.0,8198.0,-496.0,0.61,0.614,0.395,0.31
7908492,-1088.0,8122.0,-466.0,0.61,0.614,0.394,0.31
7908508,-948.0,8098.0,-486.0,0.61,0.614,0.394,0.31
7908524,-974.0,8132.0,-486.0,0.61,0.614,0.394,0.31
7908540,-970.0,8170.0,-530.0,0.61,0.614,0.394,0.31
7908556,-994.0,8194.0,-544.0,0.61,0.613,0.394,0.31
7908583,-1010.0,8120.0,-496.0,0.61,0.613,0.394,0.31
7908599,-1004.0,8150.0,-468.0,0.61,0.613,0.394,0.31
7908615,-982.0,8206.0,-478.0,0.611,0.613,0.394,0.31
7908631,-990.0,8116.0,-482.0,0.611,0.612,0.394,0.31
7908647,-1018.0,8120.0,-494.0,0.611,0.612,0.394,0.31
7908663,-978.0,8150.0,-394.0,0.611,0.612,0.394,0.31
7908689,-1006.0,8156.0,-368.0,0.612,0.612,0.394,0.31
7908705,-1046.0,8184.0,-402.0,0.612,0.611,0.394,0.31
7908721,-1028.0,8244.0,-406.0,0.612,0.611,0.394,0.31
7908737,-1056.0,8100.0,-340.0,0.613,0.611,0.394,0.311
7908753,-956.0,8202.0,-346.0,0.613,0.611,0.394,0.311
7908769,-982.0,8164.0,-346.0,0.613,0.61,0.393,0.311
7908795,-1002.0,8118.0,-346.0,0.614,0.61,0.393,0.311
7908811,-996.0,8142.0,-408.0,0.614,0.61,0.393,0.311
7908827,-974.0,8180.0,-356.0,0.614,0.61,0.392,0.311
7908843,-950.0,8136.0,-342.0,0.614,0.61,0.392,0.311
7908859,-1024.0,8138.0,-330.0,0.615,0.609,0.392,0.312
7908875,-952.0,8134.0,-304.0,0.615,0.609,0.392,0.312
7908901,-1006.0,8114.0,-256.0,0.615,0.609,0.392,0.312
7908917,-994.0,8120.0,-278.0,0.615,0.609,0.392,0.312
7908933,-954.0,8180.0,-328.0,0.615,0.608,0.392,0.312
7908949,-832.0,8314.0,-348.0,0.616,0.608,0.392,0.312
7908965,-942.0,8064.0,-348.0,0.616,0.607,0.393,0.312
7908981,-934.0,8102.0,-304.0,0.616,0.607,0.393,0.312
7909007,-972.0,8020.0,-224.0,0.616,0.606,0.394,0.312
7909023,-920.0,8172.0,-280.0,0.617,0.606,0.394,0.312
7909039,-814.0,8370.0,-400.0,0.617,0.605,0.395,0.312
7909055,-924.0,8152.0,-316.0,0.618,0.604,0.396,0.312
7909072,-948.0,8048.0,-226.0,0.618,0.603,0.397,0.312
7909088,-988.0,8028.0,-88.0,0.618,0.602,0.397,0.312
7909114,-974.0,8062.0,-46.0,0.618,0.602,0.398,0.311
7909130,-952.0,8178.0,-216.0,0.618,0.602,0.399,0.311
7909146,-1010.0,8144.0,-336.0,0.618,0.601,0.401,0.31
7909162,-1032.0,8088.0,-268.0,0.617,0.601,0.402,0.31
7909178,-1142.0,7988.0,-218.0,0.617,0.601,0.403,0.309
7909194,-1172.0,8050.0,-234.0,0.616,0.601,0.404,0.309
7909220,-1226.0,8124.0,-328.0,0.615,0.601,0.406,0.309
7909236,-1296.0,8094.0,-270.0,0.614,0.602,0.407,0.308
7909252,-1374.0,8160.0,-408.0,0.613,0.602,0.408,0.308
7909268,-1458.0,8208.0,-372.0,0.612,0.603,0.409,0.307
7909284,-1614.0,8158.0,-190.0,0.611,0.604,0.41,0.307
7909300,-1374.0,8056.0,-364.0,0.609,0.606,0.41,0.306
7909326,-1230.0,8176.0,-606.0,0.608,0.608,0.41,0.305
7909342,-1218.0,8260.0,-704.0,0.607,0.609,0.41,0.304
7909358,-1256.0,8250.0,-814.0,0.606,0.61,0.41,0.304
7909374,-1140.0,7984.0,-844.0,0.605,0.612,0.41,0.303
7909390,-1166.0,8120.0,-820.0,0.605,0.612,0.41,0.302
7909406,-1310.0,8078.0,-748.0,0.604,0.613,0.41,0.302
7909432,-1286.0,8060.0,-764.0,0.604,0.613,0.41,0.302
7909448,-1310.0,8092.0,-912.0,0.604,0.614,0.41,0.301
7909464,-1340.0,8216.0,-872.0,0.603,0.614,0.411,0.301
7909480,-1346.0,8112.0,-932.0,0.603,0.614,0.411,0.302
7909496,-1398.0,8194.0,-884.0,0.602,0.614,0.412,0.302
7909512,-1396.0,8164.0,-854.0,0.602,0.613,0.412,0.303
7909538,-1464.0,8094.0,-842.0,0.602,0.613,0.413,0.303
7909554,-1436.0,7954.0,-832.0,0.601,0.613,0.413,0.304
7909570,-1348.0,7998.0,-900.0,0.601,0.613,0.413,0.304
7909586,-1352.0,8062.0,-814.0,0.601,0.613,0.414,0.305
7909602,-1392.0,8104.0,-738.0,0.6,0.612,0.414,0.305
7909618,-1322.0,8022.0,-702.0,0.6,0.612,0.414,0.305
7909644,-1194.0,8056.0,-746.0,0.6,0.613,0.414,0.305
7909660,-1190.0,8120.0,-734.0,0.6,0.613,0.414,0.305
7909676,-1126.0,8182.0,-724.0,0.6,0.613,0.413,0.305
7909692,-1142.0,8132.0,-704.0,0.6,0.613,0.413,0.305
7909708,-1068.0,8172.0,-616.0,0.601,0.613,0.412,0.305
7909734,-1042.0,8234.0,-586.0,0.601,0.613,0.411,0.306
7909750,-1104.0,8338.0,-544.0,0.602,0.613,0.41,0.306
7909767,-1072.0,8278.0,-612.0,0.603,0.613,0.408,0.306
7909783,-1070.0,8252.0,-608.0,0.604,0.613,0.406,0.307
7909800,-1082.0,8204.0,-544.0,0.605,0.612,0.404,0.308
7909816,-1062.0,8186.0,-542.0,0.607,0.612,0.402,0.309
7909832,-938.0,8198.0,-590.0,0.608,0.612,0.4,0.31
7909858,-974.0,7992.0,-526.0,0.61,0.611,0.398,0.311
7909874,-1026.0,8238.0,-520.0,0.611,0.61,0.396,0.312
7909890,-952.0,8128.0,-496.0,0.613,0.609,0.394,0.313
7909906,-914.0,8098.0,-438.0,0.615,0.609,0.392,0.314
7909922,-1006.0,7996.0,-396.0,0.616,0.608,0.39,0.315
7909938,-892.0,8058.0,-402.0,0.617,0.608,0.388,0.315
7909964,-916.0,8200.0,-382.0,0.618,0.608,0.386,0.316
7909980,-874.0,8128.0,-304.0,0.619,0.608,0.385,0.316
7909996,-900.0,8146.0,-240.0,0.619,0.608,0.383,0.316
7910012,-862.0,8136.0,-176.0,0.62,0.608,0.381,0.317
7910028,-848.0,8190.0,-216.0,0.621,0.608,0.38,0.317
7910044,-832.0,8234.0,-174.0,0.622,0.608,0.378,0.317
7910070,-856.0,8186.0,-178.0,0.622,0.608,0.377,0.317
7910086,-850.0,8222.0,-104.0,0.623,0.608,0.376,0.318
7910102,-798.0,8204.0,-48.0,0.624,0.608,0.374,0.318
7910118,-828.0,8216.0,-42.0,0.625,0.608,0.372,0.319
7910134,-798.0,8272.0,-18.0,0.626,0.608,0.37,0.319
7910150,-692.0,8214.0,-64.0,0.627,0.607,0.369,0.32
7910176,-718.0,8218.0,-46.0,0.628,0.607,0.367,0.32
7910192,-766.0,8068.0,10.0,0.63,0.606,0.365,0.321
7910208,-656.0,8106.0,70.0,0.631,0.606,0.363,0.322
7910229,-614.0,8122.0,76.0,0.632,0.605,0.361,0.322
7910245,-670.0,7798.0,242.0,0.633,0.605,0.36,0.321
7910261,-526.0,8276.0,126.0,0.634,0.606,0.358,0.321
7910277,-374.0,8506.0,80.0,0.635,0.606,0.357,0.321
7910293,-406.0,8350.0,134.0,0.636,0.605,0.355,0.32
7910309,-416.0,8228.0,248.0,0.637,0.605,0.354,0.32
7910335,-372.0,8192.0,250.0,0.638,0.605,0.353,0.32
7910351,-376.0,8206.0,238.0,0.639,0.605,0.351,0.32
7910367,-372.0,8302.0,262.0,0.64,0.604,0.35,0.32
7910383,-476.0,8230.0,344.0,0.641,0.604,0.35,0.32
7910399,-454.0,8304.0,314.0,0.642,0.603,0.349,0.32
7910425,-528.0,8202.0,338.0,0.643,0.602,0.348,0.32
7910441,-586.0,8218.0,440.0,0.644,0.602,0.347,0.32
7910457,-586.0,8162.0,420.0,0.645,0.601,0.346,0.32
7910473,-596.0,8162.0,458.0,0.646,0.6,0.346,0.32
7910489,-632.0,8134.0,444.0,0.647,0.6,0.345,0.32
7910505,-566.0,8240.0,442.0,0.648,0.599,0.344,0.32
7910521,-636.0,8152.0,432.0,0.649,0.598,0.343,0.32
7910547,-594.0,8174.0,484.0,0.65,0.598,0.342,0.32
7910563,-608.0,8122.0,510.0,0.651,0.597,0.342,0.32
7910579,-608.0,8122.0,532.0,0.652,0.597,0.341,0.32
7910595,-684.0,8192.0,522.0,0.652,0.597,0.341,0.32
7910611,-742.0,8212.0,488.0,0.653,0.596,0.34,0.32
7910627,-722.0,8184.0,444.0,0.653,0.596,0.34,0.32
7910654,-754.0,8176.0,542.0,0.654,0.595,0.339,0.321
7910670,-796.0,8204.0,624.0,0.655,0.595,0.339,0.321
7910686,-690.0,8182.0,598.0,0.655,0.594,0.338,0.321
7910702,-730.0,8076.0,606.0,0.656,0.594,0.337,0.321
7910718,-678.0,8084.0,706.0,0.657,0.593,0.336,0.321
7910734,-602.0,8120.0,754.0,0.658,0.593,0.335,0.321
7910760,-522.0,8148.0,756.0,0.659,0.593,0.334,0.321
7910776,-388.0,8130.0,624.0,0.659,0.593,0.333,0.32
7910792,-226.0,8472.0,526.0,0.66,0.593,0.332,0.321
7910808,-360.0,8508.0,574.0,0.66,0.593,0.332,0.322
7910824,-472.0,8050.0,770.0,0.66,0.592,0.331,0.322
7910840,-626.0,7840.0,894.0,0.661,0.591,0.331,0.323
7910866,-646.0,7874.0,880.0,0.661,0.591,0.33,0.323
7910882,-666.0,8032.0,904.0,0.661,0.591,0.33,0.323
7910898,-618.0,8252.0,820.0,0.661,0.591,0.33,0.323
7910914,-616.0,8270.0,746.0,0.662,0.591,0.329,0.322
7910930,-644.0,8212.0,760.0,0.662,0.591,0.329,0.322
7910946,-562.0,8124.0,812.0,0.663,0.591,0.328,0.322
7910972,-564.0,8080.0,878.0,0.663,0.591,0.328,0.321
7910988,-538.0,7978.0,862.0,0.663,0.592,0.327,0.321
7911004,-446.0,8254.0,808.0,0.663,0.592,0.326,0.32
7911020,-384.0,8236.0,716.0,0.663,0.593,0.326,0.32
7911036,-420.0,8170.0,780.0,0.664,0.593,0.326,0.319
7911052,-424.0,8162.0,762.0,0.664,0.593,0.325,0.319
7911078,-322.0,8152.0,756.0,0.664,0.594,0.325,0.318
7911094,-298.0,8044.0,776.0,0.664,0.594,0.325,0.318
7911110,-416.0,8176.0,764.0,0.663,0.594,0.326,0.317
7911126,-340.0,8166.0,734.0,0.663,0.595,0.326,0.317
7911142,-396.0,8232.0,730.0,0.663,0.595,0.327,0.316
7911158,-404.0,8272.0,670.0,0.662,0.595,0.328,0.316
7911184,-548.0,8186.0,694.0,0.662,0.595,0.329,0.315
7911200,-526.0,8150.0,690.0,0.662,0.595,0.33,0.315
7911216,-608.0,8168.0,734.0,0.661,0.595,0.331,0.315
7911232,-668.0,8224.0,656.0,0.661,0.595,0.332,0.314
7911248,-590.0,8200.0,630.0,0.661,0.595,0.333,0.314
7911274,-800.0,8236.0,636.0,0.66,0.595,0.334,0.314
7911290,-620.0,8238.0,568.0,0.66,0.595,0.335,0.314
7911306,-790.0,8224.0,656.0,0.66,0.595,0.336,0.313
7911322,-846.0,8174.0,618.0,0.659,0.595,0.337,0.313
7911338,-682.0,8198.0,544.0,0.659,0.595,0.337,0.313
7911354,-736.0,8328.0,480.0,0.659,0.595,0.338,0.313
7911380,-764.0,8102.0,536.0,0.658,0.595,0.339,0.313
7911396,-754.0,8204.0,544.0,0.658,0.595,0.34,0.313
7911412,-744.0,8138.0,574.0,0.658,0.595,0.34,0.313
7911428,-800.0,8154.0,502.0,0.658,0.595,0.341,0.313
7911444,-796.0,8144.0,532.0,0.657,0.595,0.341,0.312
7911460,-826.0,8222.0,494.0,0.657,0.595,0.342,0.312
7911486,-836.0,8256.0,478.0,0.657,0.595,0.342,0.312
7911502,-832.0,8178.0,484.0,0.657,0.595,0.343,0.312
7911518,-740.0,8270.0,450.0,0.657,0.595,0.343,0.312
7911534,-762.0,8250.0,414.0,0.657,0.594,0.343,0.312
7911550,-714.0,8176.0,504.0,0.657,0.594,0.343,0.312
7911566,-860.0,8236.0,584.0,0.657,0.594,0.343,0.312
7911592,-774.0,8220.0,514.0,0.657,0.594,0.343,0.312
7911608,-746.0,8232.0,516.0,0.658,0.594,0.343,0.312
7911624,-734.0,8158.0,542.0,0.658,0.593,0.343,0.312
7911641,-730.0,8164.0,496.0,0.658,0.593,0.343,0.312
7911657,-752.0,8146.0,496.0,0.659,0.593,0.342,0.312
7911673,-662.0,8104.0,560.0,0.659,0.593,0.342,0.312
7911690,-696.0,8138.0,486.0,0.659,0.593,0.342,0.312
7911716,-704.0,8216.0,546.0,0.659,0.593,0.342,0.311
7911732,-714.0,8194.0,552.0,0.66,0.593,0.342,0.311
7911748,-772.0,8082.0,592.0,0.66,0.592,0.342,0.311
7911764,-702.0,8146.0,522.0,0.66,0.592,0.342,0.311
7911780,-704.0,8168.0,580.0,0.66,0.592,0.343,0.31
7911796,-698.0,8194.0,626.0,0.661,0.591,0.343,0.31
7911822,-664.0,8190.0,620.0,0.661,0.591,0.343,0.31
7911838,-774.0,8132.0,628.0,0.661,0.591,0.344,0.31
7911854,-742.0,8134.0,610.0,0.661,0.59,0.344,0.31
7911870,-760.0,8130.0,620.0,0.662,0.59,0.344,0.309
7911886,-806.0,8140.0,632.0,0.662,0.59,0.345,0.309
7911902,-760.0,8080.0,646.0,0.662,0.589,0.346,0.309
7911928,-790.0,8150.0,634.0,0.662,0.589,0.346,0.308
7911944,-790.0,8138.0,602.0,0.662,0.589,0.347,0.308
7911960,-864.0,8098.0,562.0,0.662,0.589,0.348,0.308
7911976,-792.0,8070.0,596.0,0.661,0.589,0.349,0.307
7911993,-836.0,8134.0,598.0,0.661,0.589,0.35,0.307
7912009,-818.0,8184.0,666.0,0.661,0.589,0.351,0.307
7912035,-792.0,8180.0,512.0,0.66,0.588,0.352,0.306
7912051,-934.0,8068.0,562.0,0.66,0.588,0.353,0.306
7912067,-886.0,8144.0,618.0,0.66,0.588,0.354,0.306
7912083,-978.0,8094.0,564.0,0.659,0.588,0.356,0.306
7912099,-974.0,8104.0,644.0,0.658,0.588,0.357,0.305
7912115,-1022.0,8156.0,498.0,0.658,0.588,0.358,0.305
7912141,-1046.0,8160.0,480.0,0.657,0.589,0.36,0.305
7912157,-1070.0,8154.0,504.0,0.656,0.589,0.361,0.304
7912174,-1126.0,8060.0,492.0,0.655,0.59,0.362,0.304
7912190,-1190.0,7992.0,610.0,0.654,0.59,0.363,0.304
7912206,-1304.0,7734.0,656.0,0.653,0.591,0.364,0.305
7912223,-1148.0,7972.0,598.0,0.651,0.592,0.364,0.305
7912239,-1216.0,8350.0,410.0,0.65,0.593,0.365,0.305
7912265,-1034.0,8338.0,398.0,0.649,0.593,0.366,0.305
7912281,-1026.0,8014.0,320.0,0.648,0.594,0.367,0.305
7912297,-932.0,7980.0,356.0,0.646,0.595,0.368,0.305
7912313,-868.0,8104.0,194.0,0.644,0.596,0.369,0.306
7912329,-836.0,7992.0,166.0,0.642,0.597,0.371,0.306
7912345,-850.0,8118.0,150.0,0.639,0.599,0.374,0.306
7912371,-942.0,8160.0,126.0,0.636,0.6,0.376,0.307
7912387,-950.0,8170.0,48.0,0.633,0.601,0.379,0.307
7912403,-976.0,8104.0,-14.0,0.631,0.602,0.381,0.307
7912419,-948.0,8056.0,-54.0,0.628,0.604,0.384,0.307
7912435,-898.0,8230.0,-208.0,0.625,0.605,0.386,0.307
7912452,-846.0,8186.0,-346.0,0.622,0.606,0.389,0.307
7912469,-910.0,8180.0,-430.0,0.619,0.608,0.391,0.308
7912486,-934.0,8198.0,-376.0,0.616,0.608,0.394,0.308
7912513,-974.0,8112.0,-382.0,0.614,0.609,0.396,0.308
7912530,-954.0,8322.0,-528.0,0.611,0.61,0.398,0.308
7912547,-914.0,8418.0,-670.0,0.61,0.611,0.4,0.309
7912563,-910.0,8062.0,-528.0,0.608,0.611,0.402,0.31
7912580,-908.0,7952.0,-598.0,0.605,0.611,0.405,0.31
7912597,-948.0,8216.0,-726.0,0.603,0.612,0.407,0.311
7912613,-950.0,8210.0,-672.0,0.6,0.613,0.409,0.312
7912630,-876.0,8366.0,-890.0,0.598,0.613,0.411,0.312
7912647,-984.0,8552.0,-962.0,0.596,0.613,0.413,0.313
7912664,-1030.0,8258.0,-768.0,0.594,0.614,0.414,0.315
7912681,-988.0,7926.0,-664.0,0.592,0.614,0.415,0.316
7912707,-994.0,7946.0,-748.0,0.59,0.615,0.417,0.317
7912724,-892.0,8018.0,-926.0,0.588,0.616,0.418,0.317
7912741,-868.0,8074.0,-1070.0,0.586,0.616,0.42,0.318
7912758,-742.0,8206.0,-1186.0,0.584,0.617,0.421,0.318
7912775,-780.0,8314.0,-1208.0,0.583,0.617,0.422,0.318
7912791,-942.0,8216.0,-1096.0,0.581,0.617,0.423,0.319
7912808,-796.0,8176.0,-1122.0,0.58,0.617,0.425,0.319
7912824,-796.0,7974.0,-1240.0,0.579,0.618,0.426,0.32
7912841,-782.0,8382.0,-1346.0,0.578,0.617,0.427,0.32
7912858,-954.0,8164.0,-1180.0,0.577,0.617,0.428,0.321
7912875,-948.0,8020.0,-1000.0,0.577,0.617,0.429,0.321
7912902,-1032.0,8038.0,-1014.0,0.576,0.616,0.43,0.321
7912919,-956.0,8106.0,-1114.0,0.576,0.616,0.431,0.321
7912936,-824.0,8180.0,-1228.0,0.575,0.616,0.432,0.321
7912953,-940.0,8284.0,-1246.0,0.575,0.616,0.433,0.32
7912970,-926.0,8088.0,-1114.0,0.575,0.615,0.433,0.321
7912987,-942.0,8020.0,-1106.0,0.575,0.615,0.434,0.321
7913003,-904.0,8016.0,-1114.0,0.575,0.615,0.435,0.321
7913019,-1032.0,8026.0,-1092.0,0.575,0.614,0.436,0.32
7913036,-948.0,8210.0,-1190.0,0.574,0.614,0.436,0.32
7913053,-1078.0,8244.0,-1168.0,0.574,0.614,0.437,0.321
7913070,-968.0,8024.0,-1052.0,0.574,0.613,0.437,0.321
7913096,-1020.0,8004.0,-1058.0,0.574,0.613,0.438,0.321
7913112,-1118.0,8026.0,-1032.0,0.574,0.612,0.438,0.321
7913128,-1042.0,8128.0,-1088.0,0.574,0.612,0.439,0.321
7913144,-1118.0,8310.0,-1102.0,0.575,0.612,0.439,0.321
7913160,-1104.0,8128.0,-1172.0,0.575,0.611,0.439,0.321
7913176,-1054.0,8044.0,-1150.0,0.575,0.611,0.439,0.322
7913202,-1116.0,7896.0,-1084.0,0.575,0.61,0.439,0.322
7913218,-1012.0,8002.0,-1036.0,0.575,0.61,0.439,0.322
7913234,-1086.0,7952.0,-1082.0,0.575,0.61,0.439,0.322
7913250,-1096.0,8116.0,-1102.0,0.575,0.61,0.439,0.322
7913266,-1012.0,8102.0,-1074.0,0.575,0.61,0.439,0.322
7913282,-1062.0,8156.0,-1094.0,0.575,0.61,0.439,0.323
7913308,-1132.0,8102.0,-984.0,0.576,0.609,0.439,0.323
7913324,-1050.0,8016.0,-1128.0,0.576,0.609,0.439,0.323
7913340,-942.0,7884.0,-1058.0,0.576,0.609,0.439,0.323
7913356,-1104.0,8054.0,-1010.0,0.576,0.609,0.44,0.323
7913372,-1092.0,8160.0,-1014.0,0.576,0.609,0.44,0.323
7913398,-936.0,8050.0,-1080.0,0.576,0.608,0.439,0.324
7913414,-984.0,8060.0,-1074.0,0.576,0.608,0.44,0.324
7913430,-1002.0,8140.0,-1024.0,0.576,0.608,0.44,0.324
7913446,-1006.0,8084.0,-968.0,0.576,0.608,0.44,0.324
7913462,-1000.0,8184.0,-1018.0,0.576,0.608,0.44,0.325
7913478,-966.0,8128.0,-964.0,0.576,0.608,0.44,0.325
7913504,-912.0,8114.0,-990.0,0.576,0.608,0.44,0.325
7913520,-906.0,8080.0,-1048.0,0.576,0.607,0.439,0.325
7913536,-998.0,8102.0,-970.0,0.577,0.607,0.439,0.325
7913552,-914.0,8096.0,-1036.0,0.577,0.607,0.439,0.325
7913568,-966.0,8078.0,-954.0,0.577,0.607,0.439,0.326
7913594,-908.0,8096.0,-1038.0,0.577,0.606,0.44,0.326
7913610,-936.0,8066.0,-964.0,0.577,0.606,0.44,0.326
7913626,-894.0,8092.0,-948.0,0.577,0.606,0.44,0.327
7913642,-944.0,8090.0,-950.0,0.577,0.605,0.44,0.327
7913658,-952.0,8082.0,-994.0,0.577,0.605,0.44,0.327
7913674,-994.0,8108.0,-980.0,0.577,0.605,0.441,0.327
7913690,-948.0,8128.0,-998.0,0.577,0.604,0.441,0.327
7913716,-1022.0,8076.0,-940.0,0.577,0.604,0.441,0.327
7913732,-940.0,8204.0,-1052.0,0.578,0.604,0.441,0.327
7913748,-1016.0,8022.0,-968.0,0.578,0.603,0.442,0.328
7913764,-964.0,8040.0,-922.0,0.578,0.603,0.442,0.328
7913780,-974.0,8080.0,-942.0,0.578,0.602,0.442,0.328
7913796,-1004.0,8034.0,-910.0,0.578,0.602,0.442,0.328
7913813,-980.0,8046.0,-966.0,0.579,0.601,0.443,0.328
7913840,-1028.0,8110.0,-908.0,0.579,0.601,0.443,0.328
7913856,-1012.0,8188.0,-988.0,0.579,0.6,0.444,0.328
7913872,-1034.0,8188.0,-976.0,0.579,0.6,0.444,0.329
7913888,-1080.0,8004.0,-856.0,0.579,0.599,0.445,0.329
7913904,-1086.0,8006.0,-852.0,0.579,0.599,0.445,0.329
7913920,-1124.0,8062.0,-894.0,0.579,0.598,0.445,0.329
7913946,-1080.0,8076.0,-872.0,0.579,0.598,0.446,0.329
7913962,-1180.0,8108.0,-902.0,0.579,0.598,0.446,0.329
7913978,-1068.0,8174.0,-970.0,0.579,0.598,0.446,0.328
7913994,-1110.0,8170.0,-876.0,0.579,0.598,0.446,0.328
7914010,-1052.0,8120.0,-884.0,0.58,0.598,0.446,0.328
7914026,-1092.0,8094.0,-882.0,0.58,0.598,0.446,0.328
7914053,-1096.0,8080.0,-908.0,0.58,0.598,0.446,0.328
7914069,-1098.0,8118.0,-896.0,0.58,0.598,0.446,0.328
7914086,-1108.0,8160.0,-1000.0,0.58,0.598,0.446,0.327
7914102,-1116.0,8114.0,-972.0,0.58,0.598,0.446,0.328
7914118,-1104.0,8076.0,-1032.0,0.58,0.598,0.446,0.328
7914134,-1096.0,8174.0,-962.0,0.58,0.597,0.446,0.328
7914150,-1154.0,8132.0,-978.0,0.58,0.597,0.446,0.328
7914176,-1196.0,8252.0,-1010.0,0.58,0.597,0.446,0.329
7914192,-1122.0,8214.0,-924.0,0.58,0.596,0.446,0.33
7914208,-1156.0,8092.0,-910.0,0.581,0.596,0.445,0.331
7914224,-1150.0,8100.0,-942.0,0.581,0.596,0.445,0.331
7914240,-1038.0,8110.0,-926.0,0.581,0.595,0.445,0.332
7914256,-1000.0,8242.0,-966.0,0.581,0.595,0.444,0.333
7914282,-1044.0,8210.0,-830.0,0.581,0.594,0.444,0.335
7914298,-968.0,8122.0,-812.0,0.582,0.594,0.443,0.336
7914314,-848.0,8074.0,-860.0,0.582,0.593,0.443,0.337
7914330,-890.0,8094.0,-886.0,0.583,0.592,0.442,0.338
7914347,-970.0,8158.0,-686.0,0.583,0.591,0.442,0.339
7914364,-1064.0,8202.0,-640.0,0.584,0.59,0.442,0.34
7914390,-954.0,8236.0,-620.0,0.585,0.589,0.441,0.341
7914406,-928.0,8228.0,-606.0,0.586,0.588,0.44,0.342
7914422,-804.0,8108.0,-728.0,0.587,0.587,0.44,0.343
7914438,-818.0,8132.0,-734.0,0.587,0.586,0.44,0.345
7914454,-874.0,8080.0,-580.0,0.588,0.585,0.439,0.346
7914470,-890.0,8110.0,-506.0,0.588,0.584,0.439,0.346
7914486,-880.0,8188.0,-424.0,0.589,0.584,0.438,0.347
7914512,-858.0,7972.0,-410.0,0.59,0.583,0.438,0.348
7914528,-846.0,8142.0,-624.0,0.59,0.582,0.438,0.348
7914545,-840.0,8166.0,-504.0,0.59,0.582,0.438,0.349
7914561,-914.0,8176.0,-484.0,0.591,0.581,0.438,0.349
7914577,-980.0,8170.0,-394.0,0.591,0.58,0.438,0.35
7914594,-984.0,8182.0,-396.0,0.592,0.58,0.438,0.35
7914611,-1038.0,8162.0,-338.0,0.592,0.579,0.438,0.35
7914637,-1022.0,8166.0,-344.0,0.593,0.578,0.437,0.35
7914653,-1172.0,8140.0,-316.0,0.593,0.578,0.437,0.35
7914669,-1098.0,8082.0,-362.0,0.594,0.578,0.437,0.35
7914685,-1102.0,8068.0,-358.0,0.595,0.578,0.437,0.349
7914701,-1038.0,8108.0,-330.0,0.595,0.578,0.436,0.349
7914717,-1042.0,8106.0,-380.0,0.596,0.577,0.436,0.348
7914743,-1084.0,8086.0,-342.0,0.596,0.577,0.436,0.348
7914760,-1136.0,8054.0,-346.0,0.596,0.577,0.436,0.348
7914777,-1046.0,8136.0,-288.0,0.596,0.577,0.436,0.348
7914793,-1024.0,8082.0,-376.0,0.597,0.577,0.436,0.348
7914809,-1040.0,8084.0,-414.0,0.597,0.577,0.436,0.348
7914825,-1018.0,8072.0,-348.0,0.596,0.577,0.437,0.348
7914841,-1042.0,8014.0,-272.0,0.596,0.577,0.437,0.348
7914867,-1078.0,8276.0,-352.0,0.596,0.577,0.437,0.348
7914883,-1112.0,8338.0,-328.0,0.596,0.576,0.438,0.348
7914899,-1024.0,8120.0,-264.0,0.596,0.576,0.438,0.348
7914915,-1030.0,8114.0,-288.0,0.596,0.576,0.438,0.348
7914931,-982.0,8164.0,-396.0,0.595,0.577,0.438,0.348
7914947,-1006.0,8108.0,-402.0,0.595,0.577,0.438,0.348
7914964,-962.0,8170.0,-438.0,0.595,0.577,0.438,0.348
7914991,-1010.0,8132.0,-398.0,0.595,0.577,0.438,0.348
7915007,-1024.0,8128.0,-362.0,0.594,0.577,0.438,0.349
7915023,-1008.0,8128.0,-426.0,0.594,0.577,0.438,0.349
7915039,-1004.0,8178.0,-440.0,0.594,0.578,0.438,0.348
7915055,-998.0,8150.0,-426.0,0.594,0.578,0.438,0.348
7915071,-972.0,8146.0,-398.0,0.594,0.578,0.438,0.348
7915097,-988.0,8202.0,-498.0,0.593,0.578,0.438,0.348
7915113,-970.0,8138.0,-430.0,0.593,0.579,0.438,0.348
7915129,-966.0,8244.0,-488.0,0.593,0.579,0.438,0.349
7915145,-994.0,8146.0,-438.0,0.593,0.579,0.438,0.349
7915161,-956.0,8076.0,-482.0,0.593,0.579,0.438,0.349
7915177,-956.0,8188.0,-454.0,0.592,0.579,0.438,0.349
7915203,-964.0,8216.0,-478.0,0.592,0.579,0.438,0.349
7915219,-960.0,8136.0,-482.0,0.592,0.579,0.439,0.35
7915235,-1046.0,8162.0,-500.0,0.592,0.579,0.439,0.35
7915251,-934.0,8208.0,-460.0,0.592,0.579,0.439,0.35
7915267,-982.0,8100.0,-434.0,0.591,0.579,0.439,0.35
7915283,-970.0,8156.0,-454.0,0.591,0.579,0.439,0.35
7915309,-918.0,8156.0,-466.0,0.591,0.579,0.439,0.35
7915325,-982.0,8184.0,-508.0,0.591,0.579,0.439,0.35
7915341,-962.0,8146.0,-458.0,0.591,0.579,0.44,0.35
7915357,-1028.0,8188.0,-464.0,0.591,0.579,0.44,0.35
7915374,-1050.0,8142.0,-502.0,0.591,0.578,0.44,0.35
7915390,-1056.0,8162.0,-484.0,0.591,0.578,0.44,0.35
7915416,-1092.0,8154.0,-446.0,0.591,0.578,0.44,0.35
7915432,-1042.0,8122.0,-470.0,0.591,0.579,0.44,0.35
7915448,-998.0,8140.0,-494.0,0.591,0.579,0.44,0.35
7915464,-972.0,8120.0,-480.0,0.591,0.579,0.44,0.35
7915480,-986.0,8082.0,-464.0,0.591,0.579,0.439,0.351
7915496,-1010.0,8188.0,-424.0,0.591,0.578,0.439,0.351
7915522,-954.0,8180.0,-474.0,0.591,0.578,0.439,0.351
7915538,-964.0,8190.0,-436.0,0.591,0.578,0.439,0.351
7915554,-952.0,8118.0,-426.0,0.591,0.578,0.439,0.352
7915570,-934.0,8086.0,-442.0,0.591,0.578,0.439,0.352
7915586,-904.0,8092.0,-466.0,0.591,0.578,0.439,0.352
7915602,-864.0,8080.0,-422.0,0.591,0.578,0.439,0.352
7915628,-910.0,8106.0,-488.0,0.591,0.578,0.439,0.352
7915644,-914.0,8210.0,-432.0,0.591,0.578,0.439,0.352
7915661,-912.0,8124.0,-416.0,0.591,0.578,0.439,0.352
7915677,-926.0,8110.0,-432.0,0.591,0.577,0.44,0.352
7915693,-862.0,8072.0,-428.0,0.591,0.577,0.44,0.352
7915710,-914.0,8160.0,-400.0,0.591,0.577,0.441,0.352
7915726,-932.0,8190.0,-440.0,0.591,0.577,0.441,0.351
7915743,-1016.0,8174.0,-378.0,0.591,0.577,0.442,0.351
7915770,-1032.0,8176.0,-356.0,0.591,0.576,0.442,0.351
7915786,-922.0,8124.0,-444.0,0.591,0.576,0.442,0.35
7915802,-1022.0,8116.0,-416.0,0.591,0.576,0.443,0.35
7915818,-990.0,8138.0,-420.0,0.591,0.576,0.443,0.349
7915834,-1020.0,8168.0,-528.0,0.591,0.576,0.444,0.349
7915850,-1010.0,8148.0,-468.0,0.591,0.576,0.444,0.349
7915876,-1136.0,8084.0,-424.0,0.591,0.576,0.444,0.348
7915892,-1066.0,8120.0,-462.0,0.591,0.576,0.445,0.347
7915909,-1046.0,8236.0,-518.0,0.591,0.577,0.445,0.347
7915926,-1040.0,8052.0,-528.0,0.591,0.577,0.446,0.346
7915943,-1112.0,8150.0,-590.0,0.591,0.577,0.446,0.346
7915960,-1116.0,8192.0,-572.0,0.591,0.577,0.446,0.345
7915977,-1106.0,8164.0,-590.0,0.591,0.577,0.447,0.344
7915993,-1072.0,8176.0,-622.0,0.591,0.577,0.447,0.344
7916010,-1090.0,8074.0,-582.0,0.591,0.577,0.448,0.344
7916027,-1132.0,8098.0,-576.0,0.591,0.577,0.448,0.343
7916053,-1078.0,8190.0,-522.0,0.591,0.576,0.449,0.343
7916069,-1084.0,8166.0,-632.0,0.591,0.576,0.449,0.342
7916085,-1072.0,8150.0,-686.0,0.591,0.576,0.45,0.342
7916102,-1202.0,8100.0,-622.0,0.59,0.576,0.45,0.342
7916118,-1242.0,8056.0,-574.0,0.59,0.575,0.451,0.342
7916135,-1250.0,8124.0,-584.0,0.59,0.575,0.452,0.342
7916151,-1276.0,8096.0,-644.0,0.591,0.575,0.452,0.341
7916177,-1288.0,8060.0,-618.0,0.591,0.574,0.453,0.341
7916194,-1312.0,8136.0,-590.0,0.591,0.574,0.453,0.341
7916211,-1370.0,8084.0,-600.0,0.591,0.574,0.453,0.341
7916230,-1388.0,8080.0,-614.0,0.591,0.573,0.454,0.341
7916246,-1342.0,8124.0,-592.0,0.591,0.573,0.454,0.341
7916263,-1376.0,8090.0,-604.0,0.591,0.573,0.454,0.341
7916280,-1436.0,8106.0,-548.0,0.591,0.573,0.454,0.341
7916297,-1456.0,8100.0,-528.0,0.591,0.573,0.454,0.341
7916313,-1392.0,8096.0,-546.0,0.591,0.573,0.454,0.342
7916329,-1398.0,8170.0,-504.0,0.591,0.573,0.453,0.342
7916345,-1256.0,8166.0,-534.0,0.591,0.573,0.453,0.342
7916371,-1214.0,8176.0,-582.0,0.591,0.573,0.452,0.342
7916387,-1186.0,8138.0,-522.0,0.591,0.573,0.452,0.343
7916403,-1152.0,8100.0,-570.0,0.591,0.573,0.451,0.344
7916419,-1272.0,8164.0,-494.0,0.591,0.574,0.45,0.344
7916435,-1076.0,8246.0,-502.0,0.591,0.574,0.449,0.345
7916451,-1106.0,8176.0,-476.0,0.592,0.574,0.448,0.346
7916477,-1012.0,8184.0,-514.0,0.592,0.574,0.447,0.347
7916494,-996.0,8062.0,-468.0,0.592,0.574,0.446,0.347
7916511,-1040.0,8054.0,-514.0,0.592,0.575,0.445,0.348
7916528,-978.0,8104.0,-502.0,0.593,0.575,0.444,0.348
7916544,-1000.0,8016.0,-470.0,0.593,0.575,0.443,0.348
7916560,-910.0,8066.0,-492.0,0.593,0.576,0.442,0.348
7916577,-940.0,8100.0,-514.0,0.593,0.576,0.442,0.348
7916594,-918.0,8280.0,-532.0,0.593,0.576,0.442,0.348
7916611,-948.0,8132.0,-476.0,0.593,0.575,0.442,0.348
7916637,-924.0,8064.0,-460.0,0.593,0.575,0.442,0.349
7916653,-924.0,8196.0,-496.0,0.593,0.575,0.442,0.349
7916669,-964.0,8160.0,-466.0,0.593,0.574,0.443,0.349
7916685,-1002.0,8192.0,-372.0,0.593,0.574,0.443,0.35
7916701,-1054.0,8190.0,-350.0,0.593,0.573,0.444,0.35
7916718,-1030.0,8098.0,-396.0,0.593,0.572,0.444,0.351
7916734,-1028.0,8148.0,-358.0,0.593,0.572,0.445,0.351
7916760,-1144.0,8108.0,-256.0,0.593,0.571,0.445,0.352
7916777,-1156.0,8168.0,-306.0,0.594,0.571,0.445,0.352
7916794,-1160.0,8184.0,-320.0,0.594,0.57,0.445,0.352
7916811,-1134.0,8150.0,-354.0,0.594,0.57,0.445,0.352
7916827,-1160.0,8156.0,-356.0,0.594,0.57,0.445,0.352
7916844,-1164.0,8134.0,-318.0,0.595,0.57,0.444,0.353
7916860,-1150.0,8090.0,-330.0,0.595,0.57,0.444,0.353
7916877,-1058.0,8102.0,-364.0,0.595,0.57,0.443,0.353
7916894,-1062.0,8092.0,-362.0,0.595,0.57,0.443,0.353
7916911,-1054.0,8086.0,-376.0,0.595,0.57,0.443,0.353
7916937,-1112.0,8154.0,-344.0,0.595,0.57,0.443,0.353
7916953,-1064.0,8150.0,-318.0,0.595,0.57,0.443,0.353
7916969,-1036.0,8156.0,-324.0,0.595,0.57,0.443,0.353
7916985,-1012.0,8164.0,-380.0,0.595,0.57,0.443,0.353
7917002,-1040.0,8102.0,-370.0,0.595,0.57,0.443,0.354
7917018,-1044.0,8100.0,-290.0,0.595,0.57,0.443,0.354
7917035,-1056.0,8162.0,-278.0,0.595,0.57,0.443,0.354
7917061,-1030.0,8204.0,-308.0,0.595,0.57,0.443,0.354
7917077,-1058.0,8154.0,-348.0,0.595,0.57,0.443,0.354
7917094,-966.0,8150.0,-314.0,0.595,0.57,0.443,0.354
7917110,-974.0,8134.0,-318.0,0.595,0.57,0.444,0.353
7917127,-1016.0,8146.0,-364.0,0.595,0.57,0.444,0.353
7917143,-1028.0,8152.0,-384.0,0.595,0.57,0.444,0.353
7917160,-1024.0,8172.0,-406.0,0.595,0.57,0.444,0.353
7917177,-994.0,8184.0,-344.0,0.595,0.57,0.444,0.353
7917203,-1026.0,8084.0,-362.0,0.594,0.57,0.445,0.353
7917220,-1042.0,8176.0,-390.0,0.594,0.57,0.445,0.352
7917236,-982.0,8106.0,-350.0,0.594,0.57,0.445,0.352
7917253,-996.0,8172.0,-388.0,0.594,0.569,0.446,0.352
7917269,-1106.0,8172.0,-364.0,0.594,0.569,0.446,0.352
7917285,-1128.0,8204.0,-388.0,0.594,0.569,0.447,0.352
7917302,-1092.0,8218.0,-374.0,0.594,0.569,0.447,0.352
7917319,-1082.0,8032.0,-304.0,0.593,0.569,0.448,0.352
7917345,-1080.0,8152.0,-402.0,0.593,0.569,0.448,0.352
7917361,-1128.0,8138.0,-402.0,0.593,0.569,0.449,0.352
7917377,-1096.0,8142.0,-454.0,0.593,0.569,0.449,0.351
7917394,-1120.0,8108.0,-364.0,0.593,0.569,0.449,0.351
7917411,-1128.0,8166.0,-398.0,0.593,0.569,0.45,0.351
7917427,-1132.0,8098.0,-392.0,0.592,0.569,0.45,0.351
7917443,-1104.0,8110.0,-406.0,0.592,0.569,0.45,0.351
7917460,-1118.0,8126.0,-468.0,0.592,0.569,0.451,0.35
7917477,-1124.0,8122.0,-468.0,0.592,0.569,0.451,0.35
7917504,-1188.0,8124.0,-470.0,0.591,0.569,0.452,0.35
7917520,-1100.0,8098.0,-498.0,0.591,0.569,0.452,0.35
7917536,-1188.0,8142.0,-452.0,0.591,0.569,0.453,0.35
7917552,-1184.0,8088.0,-506.0,0.591,0.569,0.453,0.35
7917569,-1208.0,8128.0,-552.0,0.59,0.569,0.454,0.35
7917585,-1120.0,8132.0,-570.0,0.59,0.569,0.454,0.35
7917601,-1214.0,8112.0,-458.0,0.589,0.569,0.455,0.35
7917627,-1174.0,8144.0,-526.0,0.589,0.569,0.455,0.35
7917643,-1204.0,8258.0,-522.0,0.589,0.569,0.455,0.35
7917660,-1174.0,8176.0,-548.0,0.589,0.569,0.455,0.35
7917677,-1144.0,8094.0,-534.0,0.588,0.569,0.456,0.35
7917693,-1190.0,8156.0,-538.0,0.588,0.569,0.456,0.35
7917709,-1106.0,8116.0,-602.0,0.588,0.569,0.456,0.35
7917726,-1178.0,8166.0,-572.0,0.588,0.57,0.456,0.35
7917743,-1128.0,8214.0,-632.0,0.587,0.57,0.456,0.35
7917770,-1172.0,8158.0,-560.0,0.587,0.57,0.456,0.351
7917786,-1232.0,8180.0,-576.0,0.587,0.57,0.456,0.351
7917802,-1214.0,8304.0,-568.0,0.586,0.571,0.455,0.351
7917818,-1186.0,8214.0,-532.0,0.586,0.571,0.454,0.352
7917835,-1176.0,8144.0,-548.0,0.586,0.571,0.454,0.352
7917851,-1178.0,8104.0,-542.0,0.586,0.572,0.453,0.353
7917867,-1164.0,8070.0,-492.0,0.586,0.573,0.452,0.353
7917893,-1096.0,8060.0,-482.0,0.586,0.573,0.451,0.353
7917910,-1068.0,8100.0,-548.0,0.586,0.574,0.449,0.354
7917926,-1006.0,8180.0,-576.0,0.587,0.574,0.449,0.354
7917943,-992.0,8132.0,-594.0,0.587,0.574,0.448,0.354
7917960,-940.0,8050.0,-526.0,0.587,0.574,0.447,0.354
7917977,-976.0,8084.0,-554.0,0.587,0.574,0.447,0.355
7917993,-900.0,8154.0,-550.0,0.587,0.574,0.446,0.355
7918010,-884.0,8086.0,-606.0,0.587,0.574,0.446,0.356
7918026,-906.0,8182.0,-538.0,0.587,0.574,0.446,0.356
7918052,-992.0,8186.0,-510.0,0.587,0.573,0.447,0.357
7918068,-966.0,8050.0,-442.0,0.587,0.573,0.447,0.357
7918084,-976.0,8120.0,-410.0,0.587,0.572,0.447,0.358
7918100,-976.0,8158.0,-380.0,0.588,0.572,0.447,0.358
7918116,-1014.0,8184.0,-352.0,0.588,0.572,0.446,0.358
7918132,-962.0,8164.0,-438.0,0.588,0.572,0.446,0.358
7918158,-956.0,8188.0,-372.0,0.589,0.572,0.446,0.358
7918175,-872.0,8188.0,-366.0,0.589,0.572,0.445,0.358
7918193,-908.0,8180.0,-404.0,0.589,0.572,0.445,0.358
7918210,-968.0,8236.0,-428.0,0.59,0.571,0.444,0.358
7918228,-940.0,8154.0,-308.0,0.59,0.571,0.444,0.358
7918244,-1040.0,8114.0,-300.0,0.59,0.571,0.444,0.358
7918260,-958.0,8152.0,-308.0,0.591,0.571,0.443,0.358
7918277,-892.0,8200.0,-378.0,0.591,0.571,0.443,0.358
7918294,-926.0,8168.0,-370.0,0.591,0.571,0.443,0.358
7918310,-906.0,8070.0,-364.0,0.591,0.571,0.443,0.358
7918327,-950.0,8014.0,-308.0,0.591,0.571,0.443,0.358
7918354,-980.0,8048.0,-368.0,0.591,0.571,0.443,0.358
7918370,-948.0,8138.0,-290.0,0.591,0.571,0.444,0.358
7918386,-960.0,8180.0,-262.0,0.591,0.571,0.444,0.358
7918402,-936.0,8144.0,-302.0,0.59,0.571,0.444,0.358
7918418,-934.0,8134.0,-370.0,0.59,0.571,0.445,0.358
7918434,-910.0,8102.0,-366.0,0.59,0.57,0.445,0.358
7918460,-922.0,8160.0,-338.0,0.589,0.57,0.446,0.358
7918476,-986.0,8168.0,-376.0,0.589,0.57,0.447,0.358
7918493,-984.0,8164.0,-344.0,0.589,0.57,0.447,0.358
7918510,-954.0,8138.0,-346.0,0.588,0.57,0.448,0.358
7918526,-978.0,8124.0,-398.0,0.588,0.57,0.449,0.357
7918543,-964.0,8234.0,-444.0,0.587,0.57,0.449,0.357
7918560,-994.0,8184.0,-456.0,0.587,0.57,0.45,0.357
7918576,-1076.0,8072.0,-410.0,0.587,0.57,0.451,0.357
7918593,-994.0,8176.0,-446.0,0.586,0.57,0.452,0.357
7918619,-1002.0,8192.0,-532.0,0.586,0.57,0.452,0.357
7918635,-984.0,8134.0,-534.0,0.585,0.571,0.453,0.357
7918652,-1044.0,8194.0,-470.0,0.585,0.571,0.454,0.356
7918669,-1072.0,8108.0,-490.0,0.584,0.571,0.454,0.356
7918685,-1092.0,8116.0,-550.0,0.583,0.571,0.455,0.356
7918701,-1056.0,8180.0,-618.0,0.583,0.571,0.456,0.356
7918717,-1030.0,8186.0,-628.0,0.583,0.571,0.456,0.355
7918743,-1030.0,8104.0,-642.0,0.582,0.571,0.457,0.355
7918760,-1120.0,8120.0,-594.0,0.581,0.571,0.458,0.355
7918776,-1080.0,8108.0,-666.0,0.581,0.572,0.458,0.355
7918793,-1112.0,8176.0,-602.0,0.58,0.572,0.459,0.355
7918809,-1118.0,8230.0,-636.0,0.58,0.572,0.459,0.354
7918826,-1106.0,8230.0,-712.0,0.579,0.572,0.46,0.354
7918843,-1106.0,8154.0,-698.0,0.579,0.572,0.46,0.354
7918859,-1060.0,8086.0,-640.0,0.579,0.572,0.461,0.354
7918876,-1096.0,8160.0,-704.0,0.578,0.572,0.461,0.354
7918893,-1066.0,8130.0,-730.0,0.578,0.572,0.462,0.354
7918920,-1108.0,8084.0,-686.0,0.578,0.572,0.462,0.355
7918936,-1128.0,8128.0,-710.0,0.577,0.572,0.463,0.355
7918952,-1136.0,8150.0,-716.0,0.577,0.572,0.463,0.355
7918968,-1114.0,8186.0,-760.0,0.577,0.571,0.463,0.355
7918984,-1102.0,8154.0,-730.0,0.577,0.571,0.464,0.355
7919000,-1094.0,8188.0,-786.0,0.577,0.571,0.464,0.355
7919026,-1136.0,8130.0,-696.0,0.576,0.571,0.464,0.355
7919043,-1154.0,8100.0,-726.0,0.576,0.571,0.465,0.355
7919059,-1190.0,8172.0,-736.0,0.576,0.57,0.465,0.356
7919076,-1104.0,8134.0,-730.0,0.576,0.57,0.465,0.356
7919093,-1240.0,8096.0,-676.0,0.577,0.57,0.465,0.356
7919110,-1390.0,8116.0,-570.0,0.577,0.57,0.464,0.356
7919126,-1604.0,8446.0,-470.0,0.577,0.571,0.463,0.356
7919143,-1234.0,8526.0,-542.0,0.578,0.571,0.462,0.356
7919159,-1002.0,8124.0,-726.0,0.578,0.571,0.461,0.357
7919186,-1006.0,7956.0,-648.0,0.579,0.571,0.459,0.357
7919202,-1142.0,8096.0,-700.0,0.58,0.572,0.458,0.357
7919219,-976.0,7934.0,-806.0,0.58,0.573,0.457,0.357
7919235,-778.0,7808.0,-840.0,0.581,0.573,0.456,0.356
7919251,-686.0,8082.0,-908.0,0.581,0.573,0.455,0.356
7919267,-882.0,8222.0,-804.0,0.581,0.573,0.455,0.356
7919283,-1158.0,8168.0,-620.0,0.582,0.573,0.454,0.356
7919309,-1022.0,8190.0,-478.0,0.583,0.573,0.454,0.356
7919326,-1166.0,8148.0,-398.0,0.583,0.573,0.453,0.356
7919343,-1146.0,8224.0,-320.0,0.584,0.572,0.453,0.356
7919360,-1226.0,8236.0,-166.0,0.585,0.572,0.451,0.356
7919377,-1078.0,8148.0,-154.0,0.586,0.572,0.45,0.356
7919394,-1304.0,8724.0,152.0,0.587,0.571,0.449,0.356
7919411,-948.0,8772.0,64.0,0.588,0.571,0.448,0.356
7919429,-988.0,9774.0,-34.0,0.59,0.57,0.448,0.356
7919446,-820.0,10214.0,-262.0,0.593,0.566,0.447,0.359
7919462,-830.0,7960.0,340.0,0.596,0.561,0.445,0.363
7919478,-106.0,6324.0,268.0,0.597,0.557,0.446,0.366
7919504,290.0,7222.0,208.0,0.596,0.555,0.449,0.367
7919520,-310.0,8138.0,12.0,0.594,0.554,0.453,0.368
7919536,-244.0,7708.0,-358.0,0.59,0.553,0.458,0.369
7919552,-480.0,7304.0,-396.0,0.586,0.553,0.463,0.369
7919568,-432.0,7264.0,-282.0,0.582,0.554,0.468,0.368
7919584,-798.0,7414.0,162.0,0.577,0.556,0.473,0.367
7919610,-218.0,7762.0,-230.0,0.572,0.559,0.477,0.365
7919626,170.0,7814.0,-554.0,0.566,0.561,0.482,0.363
7919642,-52.0,7778.0,-522.0,0.56,0.563,0.488,0.362
7919659,-586.0,8194.0,-336.0,0.553,0.565,0.494,0.361
7919676,-604.0,8252.0,-392.0,0.547,0.567,0.499,0.361
7919692,-392.0,8022.0,-880.0,0.54,0.568,0.504,0.362
7919718,-346.0,7632.0,-918.0,0.533,0.57,0.509,0.362
7919734,-442.0,7976.0,-886.0,0.526,0.572,0.515,0.363
7919750,-748.0,8202.0,-896.0,0.519,0.573,0.52,0.364
7919766,-154.0,7362.0,-1244.0,0.512,0.574,0.525,0.366
7919782,-436.0,7560.0,-1252.0,0.504,0.575,0.53,0.368
7919798,-558.0,8052.0,-1338.0,0.496,0.575,0.535,0.37
7919814,-646.0,7826.0,-1318.0,0.488,0.576,0.539,0.374
7919840,-398.0,7702.0,-1658.0,0.48,0.577,0.542,0.378
7919856,-316.0,7610.0,-1800.0,0.471,0.578,0.545,0.383
7919872,-290.0,7662.0,-1844.0,0.463,0.579,0.548,0.388
7919888,-310.0,7890.0,-1860.0,0.454,0.58,0.55,0.393
7919904,448.0,7298.0,-2174.0,0.446,0.581,0.551,0.4
7919920,738.0,7222.0,-2264.0,0.436,0.582,0.553,0.406
7919946,532.0,7376.0,-2002.0,0.427,0.582,0.555,0.414
7919962,764.0,7800.0,-2184.0,0.417,0.582,0.555,0.423
7919978,1170.0,7476.0,-2484.0,0.408,0.581,0.554,0.434
7919994,1106.0,6914.0,-2398.0,0.4,0.58,0.552,0.446
7920010,1430.0,6808.0,-2296.0,0.391,0.578,0.549,0.46
7920026,1370.0,7216.0,-2434.0,0.383,0.576,0.544,0.474
7920052,1648.0,7564.0,-2554.0,0.377,0.573,0.536,0.492
7920068,1964.0,6692.0,-2922.0,0.371,0.57,0.527,0.51
7920084,2228.0,5942.0,-2838.0,0.365,0.566,0.517,0.528
7920100,2086.0,6146.0,-2536.0,0.359,0.563,0.507,0.545
7920116,1756.0,7284.0,-2150.0,0.353,0.561,0.496,0.561
7920142,1888.0,7708.0,-2370.0,0.349,0.56,0.482,0.576
7920159,2086.0,6708.0,-2482.0,0.344,0.56,0.467,0.592
7920175,2546.0,6288.0,-1960.0,0.339,0.56,0.453,0.606
7920192,2648.0,6486.0,-1280.0,0.333,0.562,0.439,0.617
7920208,2738.0,7472.0,-1272.0,0.328,0.566,0.424,0.626
7920224,3222.0,7632.0,-1300.0,0.322,0.57,0.409,0.636
7920240,3528.0,6822.0,-1068.0,0.315,0.575,0.393,0.644
7920257,3780.0,6560.0,-782.0,0.307,0.581,0.38,0.651
7920274,4190.0,7726.0,-684.0,0.3,0.586,0.367,0.657
7920301,4032.0,7372.0,-280.0,0.292,0.592,0.354,0.662
7920317,4630.0,7180.0,-286.0,0.285,0.599,0.34,0.667
7920333,5114.0,6782.0,-446.0,0.277,0.605,0.328,0.67
7920349,5192.0,6778.0,-72.0,0.27,0.612,0.317,0.673
7920365,5200.0,6894.0,64.0,0.262,0.618,0.307,0.674
7920381,5818.0,7022.0,-88.0,0.254,0.625,0.297,0.675
7920398,5706.0,6530.0,86.0,0.247,0.632,0.288,0.676
7920424,5912.0,6126.0,-64.0,0.239,0.638,0.279,0.676
7920440,6144.0,6194.0,92.0,0.232,0.645,0.271,0.676
7920456,6596.0,6584.0,-228.0,0.225,0.651,0.263,0.676
7920472,6400.0,5824.0,-64.0,0.218,0.656,0.256,0.676
7920488,6484.0,5452.0,96.0,0.211,0.661,0.249,0.676
7920505,6812.0,6014.0,28.0,0.204,0.666,0.243,0.675
7920531,6912.0,5844.0,26.0,0.198,0.671,0.236,0.674
7920547,7780.0,6206.0,-522.0,0.192,0.676,0.229,0.673
7920563,8142.0,6040.0,-520.0,0.186,0.681,0.222,0.673
7920579,8332.0,5590.0,4.0,0.181,0.685,0.214,0.673
7920595,8540.0,4874.0,-120.0,0.176,0.689,0.207,0.672
7920612,9112.0,5162.0,-618.0,0.171,0.694,0.2,0.67
7920628,8580.0,5754.0,-384.0,0.166,0.698,0.194,0.669
7920654,7932.0,4762.0,-112.0,0.162,0.702,0.187,0.668
7920670,7432.0,4918.0,26.0,0.159,0.706,0.181,0.666
7920686,7244.0,4534.0,70.0,0.158,0.711,0.174,0.662
7920702,7224.0,3710.0,-228.0,0.158,0.716,0.168,0.659
7920718,7072.0,3676.0,-416.0,0.158,0.721,0.164,0.654
7920734,6742.0,4218.0,-280.0,0.158,0.726,0.159,0.65
7920760,6646.0,3710.0,-262.0,0.158,0.73,0.155,0.646
7920776,6936.0,4058.0,-394.0,0.159,0.734,0.151,0.643
7920792,7464.0,4940.0,-802.0,0.16,0.738,0.146,0.64
7920809,8296.0,4486.0,-906.0,0.16,0.741,0.14,0.637
7920825,8384.0,4154.0,-810.0,0.161,0.743,0.133,0.635
7920842,8634.0,4344.0,-412.0,0.162,0.746,0.128,0.633
7920858,8978.0,4000.0,-488.0,0.165,0.749,0.122,0.63
7920885,9114.0,3948.0,-820.0,0.168,0.751,0.117,0.627
7920901,8970.0,4084.0,-866.0,0.171,0.754,0.114,0.624
7920917,8020.0,4402.0,-416.0,0.175,0.756,0.11,0.621
7920933,7638.0,3552.0,-456.0,0.179,0.759,0.106,0.617
7920949,6928.0,3246.0,-556.0,0.184,0.76,0.103,0.615
7920965,6368.0,3036.0,-618.0,0.189,0.76,0.102,0.613
7920991,5856.0,2676.0,-530.0,0.192,0.76,0.102,0.613
7921008,5584.0,2726.0,-448.0,0.193,0.758,0.104,0.614
7921025,5326.0,2208.0,-496.0,0.195,0.756,0.105,0.616
7921041,5616.0,1792.0,-788.0,0.194,0.752,0.108,0.621
7921057,5916.0,2858.0,-942.0,0.191,0.747,0.112,0.626
7921073,6092.0,3298.0,-1120.0,0.187,0.742,0.116,0.633
7921090,6476.0,3952.0,-1118.0,0.184,0.736,0.119,0.641
7921107,6850.0,3574.0,-642.0,0.181,0.729,0.122,0.649
7921124,8060.0,3476.0,-1042.0,0.179,0.723,0.125,0.656
7921151,8442.0,4486.0,-1236.0,0.178,0.717,0.128,0.662
7921167,8272.0,3906.0,-932.0,0.178,0.712,0.13,0.667
7921183,8414.0,3068.0,-780.0,0.176,0.708,0.134,0.671
7921199,8318.0,4100.0,-866.0,0.173,0.706,0.138,0.673
7921215,7976.0,3758.0,-800.0,0.172,0.705,0.142,0.674
7921231,7540.0,3838.0,-666.0,0.17,0.704,0.147,0.673
7921257,7206.0,4004.0,-612.0,0.168,0.705,0.151,0.672
7921274,7370.0,3484.0,-742.0,0.166,0.706,0.154,0.671
7921291,7390.0,3094.0,-884.0,0.164,0.707,0.158,0.669
7921308,7112.0,3092.0,-898.0,0.161,0.709,0.162,0.668
7921324,6902.0,3626.0,-668.0,0.158,0.71,0.166,0.666
7921340,6914.0,3790.0,-874.0,0.155,0.71,0.169,0.665
7921356,7060.0,3784.0,-884.0,0.152,0.71,0.172,0.665
7921372,7154.0,3376.0,-816.0,0.15,0.71,0.174,0.666
7921398,7216.0,3350.0,-782.0,0.147,0.709,0.177,0.667
7921414,7112.0,3576.0,-620.0,0.145,0.708,0.179,0.668
7921430,7306.0,3638.0,-632.0,0.143,0.707,0.181,0.669
7921446,7050.0,4222.0,-388.0,0.141,0.705,0.182,0.67
7921462,7562.0,3782.0,-642.0,0.14,0.704,0.182,0.672
7921478,7626.0,3288.0,-648.0,0.139,0.703,0.183,0.674
7921504,7414.0,3432.0,-344.0,0.137,0.701,0.184,0.675
7921521,7304.0,4114.0,-332.0,0.136,0.7,0.185,0.676
7921537,7208.0,4158.0,-330.0,0.136,0.7,0.184,0.677
7921553,7176.0,3552.0,-312.0,0.136,0.699,0.183,0.678
7921569,7328.0,3646.0,-336.0,0.136,0.699,0.183,0.678
7921585,7298.0,4170.0,-334.0,0.136,0.7,0.181,0.678
7921611,7366.0,3960.0,-330.0,0.136,0.7,0.179,0.678
7921627,7246.0,3548.0,-162.0,0.138,0.7,0.177,0.678
7921643,7578.0,3582.0,-306.0,0.138,0.701,0.175,0.678
7921659,7624.0,3798.0,-390.0,0.139,0.701,0.173,0.678
7921676,7520.0,3310.0,-270.0,0.14,0.701,0.171,0.678
7921692,7474.0,3340.0,-248.0,0.141,0.7,0.17,0.679
7921708,7412.0,3992.0,-188.0,0.142,0.7,0.169,0.679
7921725,7312.0,3908.0,-176.0,0.143,0.7,0.167,0.68
7921752,7440.0,3386.0,-182.0,0.145,0.699,0.165,0.68
7921768,7304.0,3652.0,-188.0,0.146,0.699,0.163,0.681
7921784,7500.0,3864.0,-180.0,0.147,0.699,0.162,0.681
7921800,7386.0,3902.0,-148.0,0.148,0.699,0.159,0.682
7921816,7410.0,3490.0,-82.0,0.149,0.699,0.156,0.682
7921832,7302.0,3422.0,-42.0,0.149,0.699,0.154,0.682
7921858,7376.0,3676.0,58.0,0.15,0.699,0.152,0.682
7921875,7654.0,3906.0,-136.0,0.151,0.699,0.15,0.682
7921891,7648.0,3596.0,-140.0,0.152,0.699,0.147,0.683
7921908,7626.0,3240.0,-62.0,0.152,0.699,0.146,0.683
7921925,7534.0,3420.0,68.0,0.152,0.699,0.145,0.683
7921941,7450.0,3534.0,-22.0,0.152,0.699,0.144,0.684
7921958,7472.0,3500.0,-132.0,0.152,0.699,0.144,0.684
7921975,7304.0,3622.0,-30.0,0.152,0.699,0.144,0.684
7921992,7336.0,3614.0,-84.0,0.152,0.699,0.144,0.683
7922018,7320.0,3644.0,-8.0,0.152,0.7,0.144,0.683
7922034,7370.0,3418.0,44.0,0.152,0.7,0.144,0.683
7922050,7702.0,3598.0,-170.0,0.152,0.7,0.144,0.682
7922067,7816.0,3558.0,-202.0,0.152,0.701,0.143,0.682
7922083,7862.0,3618.0,-158.0,0.151,0.701,0.143,0.682
7922099,7838.0,3334.0,-150.0,0.15,0.701,0.143,0.682
7922115,7738.0,3502.0,-152.0,0.15,0.701,0.144,0.682
7922141,7630.0,3614.0,-126.0,0.149,0.701,0.144,0.683
7922158,7602.0,3508.0,-110.0,0.149,0.701,0.144,0.683
7922175,7604.0,3560.0,-216.0,0.148,0.701,0.144,0.682
7922191,7584.0,3434.0,-150.0,0.148,0.701,0.145,0.682
7922208,7486.0,3420.0,-128.0,0.148,0.701,0.145,0.682
7922225,7458.0,3506.0,-144.0,0.147,0.701,0.145,0.682
7922241,7562.0,3454.0,-244.0,0.147,0.701,0.145,0.682
7922258,7566.0,3464.0,-196.0,0.147,0.701,0.145,0.682
7922275,7490.0,3214.0,-214.0,0.147,0.701,0.145,0.683
7922301,7404.0,3232.0,-152.0,0.147,0.701,0.145,0.683
7922317,7540.0,3428.0,-188.0,0.147,0.701,0.145,0.683
7922333,7476.0,3390.0,-212.0,0.147,0.701,0.145,0.683
7922349,7560.0,3270.0,-220.0,0.147,0.701,0.144,0.683
7922365,7496.0,3088.0,-106.0,0.147,0.7,0.143,0.684
7922381,7468.0,3072.0,-166.0,0.147,0.7,0.143,0.684
7922407,7442.0,3336.0,-112.0,0.147,0.7,0.142,0.684
7922423,7302.0,3202.0,-118.0,0.147,0.7,0.141,0.684
7922439,7312.0,3026.0,-110.0,0.147,0.7,0.14,0.685
7922455,7326.0,3050.0,-138.0,0.147,0.7,0.139,0.685
7922471,7238.0,3076.0,-104.0,0.147,0.7,0.137,0.685
7922487,7432.0,3244.0,-120.0,0.147,0.7,0.136,0.685
7922513,7492.0,3348.0,-158.0,0.147,0.7,0.134,0.686
7922529,7612.0,2996.0,-250.0,0.146,0.7,0.133,0.686
7922545,7598.0,3034.0,-176.0,0.146,0.7,0.131,0.686
7922561,7536.0,3220.0,0.0,0.145,0.7,0.129,0.687
7922577,7606.0,3326.0,-146.0,0.144,0.7,0.128,0.687
7922593,7738.0,3024.0,-168.0,0.144,0.7,0.126,0.688
7922619,7774.0,3122.0,-102.0,0.143,0.7,0.125,0.688
7922635,7716.0,3076.0,-78.0,0.142,0.701,0.124,0.688
7922651,7752.0,3140.0,-46.0,0.141,0.701,0.123,0.689
7922668,7722.0,3180.0,-146.0,0.14,0.701,0.122,0.689
7922684,7716.0,3050.0,-134.0,0.139,0.701,0.121,0.689
7922700,7622.0,3022.0,-106.0,0.138,0.702,0.12,0.688
7922726,7714.0,3078.0,-74.0,0.138,0.702,0.12,0.688
7922742,7644.0,3108.0,-178.0,0.137,0.702,0.12,0.688
7922759,7658.0,3056.0,-157.0,0.136,0.703,0.119,0.688
7922775,7693.0,3058.0,-41.0,0.136,0.703,0.119,0.688
7922791,7567.0,3111.0,-80.0,0.135,0.703,0.118,0.688
7922808,7710.0,3003.0,-196.0,0.135,0.704,0.118,0.687
7922824,7668.0,2995.0,-195.0,0.134,0.704,0.118,0.687
7922851,7707.0,3115.0,-101.0,0.134,0.704,0.118,0.687
7922867,7672.0,3007.0,-117.0,0.134,0.704,0.118,0.687
7922883,7548.0,2981.0,-136.0,0.134,0.704,0.118,0.687
7922899,7622.0,3143.0,-126.0,0.134,0.704,0.118,0.687
7922916,7618.0,3127.0,-194.0,0.134,0.704,0.117,0.687
7922932,7652.0,3071.0,-162.0,0.134,0.705,0.117,0.687
7922948,7612.0,3057.0,-132.0,0.134,0.705,0.117,0.687
7922974,7604.0,2977.0,-136.0,0.135,0.705,0.117,0.687
7922991,7632.0,3067.0,-150.0,0.135,0.705,0.117,0.687
7923008,7630.0,3037.0,-170.0,0.136,0.705,0.116,0.687
7923024,7570.0,2999.0,-114.0,0.136,0.705,0.116,0.687
7923041,7630.0,3063.0,-162.0,0.137,0.705,0.116,0.687
7923058,7664.0,2943.0,-160.0,0.138,0.705,0.115,0.687
7923074,7634.0,2867.0,-120.0,0.139,0.704,0.115,0.687
7923091,7552.0,2917.0,-16.0,0.139,0.704,0.114,0.687
7923107,7588.0,3037.0,-48.0,0.141,0.704,0.113,0.687
7923124,7602.0,2923.0,-98.0,0.142,0.704,0.112,0.686
7923151,7786.0,2709.0,-86.0,0.143,0.704,0.111,0.687
7923167,7718.0,2775.0,-62.0,0.143,0.704,0.111,0.687
7923183,7600.0,2935.0,-26.0,0.143,0.704,0.11,0.687
7923200,7632.0,2805.0,6.0,0.144,0.704,0.109,0.687
7923216,7658.0,2839.0,-22.0,0.144,0.704,0.108,0.687
7923232,7668.0,2867.0,-78.0,0.145,0.704,0.107,0.687
7923248,7768.0,2659.0,40.0,0.145,0.703,0.106,0.688
7923274,7640.0,2675.0,170.0,0.145,0.703,0.105,0.689
7923290,7792.0,2567.0,78.0,0.146,0.702,0.104,0.689
7923307,7864.0,2741.0,114.0,0.146,0.701,0.103,0.69
7923324,7606.0,2765.0,252.0,0.146,0.7,0.102,0.692
7923341,7482.0,2849.0,586.0,0.146,0.698,0.101,0.694
7923358,7282.0,3411.0,542.0,0.146,0.697,0.1,0.695
7923374,7218.0,3573.0,626.0,0.147,0.696,0.097,0.696
7923391,7382.0,3569.0,742.0,0.148,0.695,0.094,0.697
7923407,7716.0,4961.0,776.0,0.149,0.695,0.089,0.698
7923434,7678.0,5351.0,1284.0,0.15,0.694,0.082,0.7
7923450,8130.0,4591.0,1412.0,0.152,0.692,0.075,0.701
7923466,8382.0,4871.0,1364.0,0.154,0.691,0.069,0.703
7923482,8280.0,6123.0,1970.0,0.157,0.688,0.065,0.706
7923498,8146.0,6845.0,2204.0,0.161,0.685,0.06,0.708
7923514,7560.0,8201.0,2584.0,0.166,0.681,0.056,0.711
7923540,7544.0,8219.0,2972.0,0.175,0.677,0.049,0.713
7923557,7798.0,7737.0,2864.0,0.187,0.673,0.042,0.714
7923574,9594.0,6993.0,4610.0,0.201,0.668,0.037,0.716
7923590,8890.0,8451.0,2758.0,0.218,0.66,0.032,0.718
7923607,8596.0,8513.0,3348.0,0.238,0.65,0.027,0.721
7923624,8824.0,8969.0,3630.0,0.26,0.638,0.023,0.724
7923640,9302.0,10229.0,3434.0,0.285,0.625,0.018,0.727
7923657,9876.0,7773.0,3490.0,0.311,0.609,0.012,0.729
7923674,10768.0,8297.0,3512.0,0.339,0.593,0.01,0.731
7923690,11006.0,9685.0,3924.0,0.368,0.574,0.008,0.731
7923717,12010.0,9449.0,3586.0,0.399,0.553,0.006,0.731
7923733,12438.0,9021.0,3844.0,0.43,0.53,0.005,0.731
7923749,12772.0,8617.0,3610.0,0.463,0.505,0.005,0.728
7923765,12094.0,8443.0,4472.0,0.495,0.479,0.008,0.725
7923781,11952.0,8519.0,4474.0,0.528,0.452,0.011,0.719
7923807,11812.0,8207.0,4254.0,0.561,0.423,0.014,0.711
7923824,10804.0,8245.0,4868.0,0.593,0.393,0.017,0.703
7923840,10408.0,6667.0,4146.0,0.623,0.361,0.02,0.694
7923857,9354.0,5585.0,4572.0,0.651,0.329,0.025,0.684
7923874,8846.0,5753.0,4542.0,0.677,0.297,0.029,0.673
7923890,8018.0,5875.0,4592.0,0.7,0.265,0.033,0.662
7923906,7714.0,4513.0,4342.0,0.722,0.232,0.037,0.651
7923923,6898.0,3423.0,4376.0,0.741,0.202,0.04,0.639
7923940,6210.0,4437.0,4022.0,0.758,0.172,0.043,0.627
7923956,5434.0,3351.0,4044.0,0.773,0.142,0.044,0.616
7923983,4998.0,2447.0,3982.0,0.787,0.111,0.046,0.605
7923999,4780.0,1901.0,3174.0,0.799,0.081,0.047,0.594
7924015,4298.0,529.0,2910.0,0.809,0.052,0.049,0.584
7924031,3210.0,329.0,2722.0,0.818,0.025,0.053,0.573
7924047,2842.0,1233.0,2530.0,0.825,-0.001,0.055,0.562
7924063,2064.0,-341.0,2148.0,0.831,-0.027,0.057,0.552
7924089,1430.0,-1463.0,1854.0,0.836,-0.052,0.058,0.543
7924106,532.0,-2069.0,1992.0,0.84,-0.072,0.06,0.534
7924123,256.0,-2253.0,1264.0,0.844,-0.091,0.061,0.525
7924140,-326.0,-1309.0,1056.0,0.847,-0.108,0.06,0.518
7924157,-736.0,-2655.0,864.0,0.848,-0.124,0.058,0.512
7924174,-494.0,-4615.0,674.0,0.849,-0.137,0.055,0.507
7924190,-556.0,-4795.0,316.0,0.85,-0.145,0.052,0.504
7924207,-368.0,-4301.0,80.0,0.85,-0.151,0.049,0.502
7924224,-228.0,-4721.0,482.0,0.851,-0.153,0.046,0.501
7924241,144.0,-4761.0,126.0,0.85,-0.152,0.044,0.502
7924261,80.0,-4605.0,550.0,0.85,-0.147,0.043,0.503
7924277,88.0,-4375.0,854.0,0.85,-0.139,0.041,0.506
7924293,52.0,-4025.0,1132.0,0.85,-0.128,0.04,0.51
7924310,78.0,-3705.0,1576.0,0.849,-0.113,0.039,0.515
7924336,318.0,-3049.0,2158.0,0.848,-0.095,0.037,0.52
7924352,722.0,-2347.0,2764.0,0.846,-0.074,0.034,0.527
7924369,1318.0,-1469.0,3174.0,0.844,-0.052,0.031,0.533
7924386,2012.0,-1123.0,3388.0,0.84,-0.029,0.029,0.54
7924402,2198.0,-1129.0,4082.0,0.836,-0.003,0.027,0.548
7924418,2508.0,629.0,4710.0,0.831,0.024,0.026,0.555
7924434,2890.0,1253.0,5104.0,0.825,0.05,0.025,0.563
7924460,3236.0,2025.0,5676.0,0.817,0.078,0.023,0.571
7924476,3874.0,1417.0,5870.0,0.808,0.105,0.022,0.579
7924492,4386.0,2217.0,6016.0,0.798,0.134,0.021,0.587
7924508,4180.0,3839.0,6134.0,0.787,0.164,0.022,0.595
7924524,4674.0,4351.0,5852.0,0.774,0.193,0.021,0.602
7924540,5268.0,3977.0,6338.0,0.761,0.221,0.023,0.61
7924567,4908.0,5673.0,6206.0,0.746,0.249,0.025,0.617
7924583,5336.0,6223.0,5988.0,0.73,0.276,0.026,0.624
7924599,5576.0,5057.0,6214.0,0.715,0.302,0.027,0.63
7924615,6550.0,5657.0,5490.0,0.698,0.328,0.03,0.636
7924631,6342.0,7095.0,5142.0,0.68,0.353,0.034,0.642
7924647,6312.0,5585.0,5380.0,0.66,0.378,0.039,0.648
7924673,5602.0,7367.0,5146.0,0.64,0.403,0.044,0.652
7924690,6444.0,8089.0,4468.0,0.62,0.427,0.047,0.657
7924707,6720.0,7873.0,4710.0,0.599,0.448,0.05,0.662
7924723,7080.0,6903.0,4028.0,0.577,0.469,0.053,0.666
7924740,6698.0,7179.0,4050.0,0.555,0.489,0.058,0.67
7924757,6992.0,8111.0,3706.0,0.532,0.509,0.063,0.674
7924773,6820.0,9309.0,3632.0,0.508,0.528,0.066,0.677
7924790,7114.0,8045.0,3446.0,0.485,0.546,0.067,0.68
7924806,7304.0,8467.0,3236.0,0.46,0.564,0.069,0.682
7924823,7726.0,9403.0,3230.0,0.436,0.58,0.069,0.684
7924850,7498.0,8363.0,3094.0,0.413,0.596,0.068,0.686
7924866,8040.0,8259.0,2784.0,0.391,0.61,0.068,0.686
7924882,8162.0,8189.0,2452.0,0.369,0.624,0.068,0.686
7924898,8102.0,8863.0,2388.0,0.347,0.636,0.068,0.686
7924914,7402.0,8833.0,2674.0,0.326,0.647,0.067,0.686
7924930,7486.0,8087.0,2520.0,0.307,0.657,0.065,0.686
7924956,7578.0,8935.0,2492.0,0.289,0.665,0.063,0.686
7924972,7304.0,8649.0,2640.0,0.273,0.673,0.06,0.685
7924988,7064.0,9911.0,2854.0,0.259,0.679,0.056,0.684
7925004,6954.0,9505.0,2992.0,0.25,0.684,0.05,0.684
7925021,7068.0,8329.0,2818.0,0.244,0.687,0.043,0.683
7925037,7508.0,10051.0,2960.0,0.24,0.689,0.037,0.683
7925053,6910.0,9359.0,3376.0,0.238,0.69,0.029,0.683
7925079,6978.0,9007.0,3784.0,0.24,0.689,0.021,0.684
7925095,7070.0,9645.0,3820.0,0.244,0.688,0.014,0.684
7925111,7358.0,9637.0,3934.0,0.252,0.685,0.007,0.684
7925127,7346.0,10269.0,4488.0,0.263,0.68,-0.0,0.684
7925143,7506.0,10537.0,4746.0,0.277,0.674,-0.008,0.684
7925159,8414.0,9611.0,4426.0,0.295,0.667,-0.016,0.684
7925185,9084.0,10729.0,4558.0,0.316,0.657,-0.023,0.684
7925201,9648.0,11035.0,4952.0,0.34,0.644,-0.029,0.684
7925217,10404.0,10579.0,4790.0,0.367,0.629,-0.036,0.684
7925233,10988.0,9251.0,4748.0,0.395,0.612,-0.041,0.684
7925249,11694.0,9201.0,4950.0,0.424,0.593,-0.041,0.683
7925275,12032.0,10739.0,5056.0,0.454,0.573,-0.04,0.681
7925291,12106.0,11127.0,4954.0,0.487,0.548,-0.039,0.679
7925308,12812.0,10591.0,4792.0,0.521,0.521,-0.039,0.676
7925324,13296.0,6643.0,4680.0,0.554,0.491,-0.036,0.672
7925340,12710.0,8117.0,4900.0,0.585,0.462,-0.028,0.666
7925357,12108.0,8961.0,5112.0,0.615,0.43,-0.02,0.66
7925373,11488.0,9863.0,5294.0,0.645,0.398,-0.011,0.653
7925390,11726.0,9871.0,5286.0,0.674,0.362,-0.006,0.644
7925416,11754.0,7231.0,4988.0,0.701,0.325,-0.001,0.634
7925432,10722.0,6705.0,4916.0,0.727,0.29,0.006,0.623
7925448,10450.0,7227.0,4800.0,0.751,0.254,0.013,0.609
7925464,10052.0,5379.0,3684.0,0.775,0.215,0.02,0.594
7925480,8726.0,5559.0,3622.0,0.795,0.176,0.028,0.579
7925506,6210.0,3395.0,3228.0,0.813,0.138,0.035,0.565
7925523,4988.0,1991.0,3012.0,0.827,0.101,0.044,0.551
7925540,4164.0,1857.0,2210.0,0.839,0.064,0.052,0.537
7925556,2968.0,1111.0,2098.0,0.849,0.028,0.059,0.524
7925573,1648.0,887.0,2108.0,0.856,-0.006,0.065,0.512
7925590,1532.0,-1261.0,1856.0,0.862,-0.038,0.069,0.501
7925606,852.0,-679.0,1528.0,0.866,-0.065,0.073,0.491
7925623,914.0,367.0,834.0,0.868,-0.091,0.075,0.482
7925640,670.0,-1673.0,526.0,0.869,-0.116,0.076,0.475
7925656,208.0,-2135.0,576.0,0.869,-0.137,0.077,0.468
7925673,-104.0,-2295.0,142.0,0.869,-0.156,0.078,0.463
7925700,72.0,-2233.0,-400.0,0.868,-0.173,0.076,0.459
7925716,-126.0,-3501.0,-300.0,0.867,-0.187,0.073,0.456
7925732,-112.0,-4793.0,-474.0,0.865,-0.198,0.071,0.455
7925748,-104.0,-3305.0,-798.0,0.864,-0.206,0.068,0.454
7925764,-152.0,-3819.0,-726.0,0.862,-0.213,0.064,0.455
7925780,-132.0,-5043.0,-730.0,0.861,-0.216,0.061,0.457
7925806,-332.0,-5405.0,-436.0,0.86,-0.215,0.058,0.459
7925823,-552.0,-4855.0,-262.0,0.86,-0.21,0.055,0.462
7925840,-824.0,-4855.0,54.0,0.86,-0.202,0.053,0.466
7925856,-474.0,-4177.0,798.0,0.861,-0.189,0.049,0.469
7925873,-342.0,-4199.0,1288.0,0.862,-0.173,0.045,0.474
7925890,-136.0,-2897.0,1510.0,0.864,-0.154,0.04,0.478
7925907,468.0,-1885.0,1916.0,0.864,-0.133,0.034,0.484
7925924,780.0,-2849.0,2578.0,0.864,-0.111,0.027,0.49
7925940,1156.0,-1749.0,3080.0,0.863,-0.085,0.021,0.497
7925957,2080.0,-549.0,3470.0,0.861,-0.059,0.015,0.504
7925983,2730.0,-359.0,3672.0,0.858,-0.032,0.009,0.512
7925999,3040.0,-957.0,4510.0,0.854,-0.003,0.005,0.52
7926015,3918.0,645.0,4908.0,0.85,0.029,0.002,0.527
7926031,4334.0,2891.0,5482.0,0.843,0.063,-0.0,0.533
7926047,4296.0,3905.0,6504.0,0.836,0.096,-0.005,0.54
7926063,5088.0,2861.0,5852.0,0.828,0.129,-0.01,0.545
7926089,6294.0,2797.0,5614.0,0.819,0.163,-0.012,0.55
7926106,5868.0,4917.0,5990.0,0.808,0.197,-0.011,0.555
7926123,5128.0,7583.0,6852.0,0.796,0.229,-0.012,0.56
7926140,5272.0,5327.0,6112.0,0.783,0.258,-0.015,0.566
7926156,6464.0,5109.0,5610.0,0.769,0.288,-0.016,0.57
7926173,6056.0,5841.0,5802.0,0.753,0.318,-0.015,0.576
7926189,6370.0,7293.0,6128.0,0.736,0.348,-0.013,0.581
7926206,6620.0,7013.0,6008.0,0.717,0.376,-0.012,0.586
7926224,6838.0,6781.0,6058.0,0.698,0.403,-0.01,0.591
7926240,7344.0,7003.0,5074.0,0.677,0.429,-0.006,0.598
7926266,6774.0,6943.0,5086.0,0.654,0.455,-0.001,0.604
7926282,7420.0,8535.0,4596.0,0.629,0.48,0.003,0.612
7926298,7204.0,8347.0,4382.0,0.603,0.503,0.006,0.619
7926314,8134.0,7353.0,3616.0,0.576,0.525,0.009,0.626
7926330,8604.0,8275.0,3330.0,0.548,0.547,0.014,0.633
7926346,7988.0,8825.0,3872.0,0.518,0.568,0.019,0.639
7926372,7754.0,9577.0,3532.0,0.489,0.588,0.021,0.644
7926389,8366.0,8485.0,2816.0,0.46,0.606,0.022,0.648
7926406,8810.0,7125.0,2558.0,0.43,0.624,0.025,0.652
7926423,8246.0,8599.0,2604.0,0.399,0.64,0.029,0.656
7926439,7854.0,11177.0,2644.0,0.369,0.654,0.031,0.659
7926456,7960.0,9101.0,2552.0,0.342,0.666,0.029,0.662
7926472,7924.0,7057.0,2260.0,0.316,0.678,0.029,0.663
7926489,8106.0,10417.0,2298.0,0.291,0.688,0.032,0.664
7926506,7538.0,13529.0,2740.0,0.269,0.696,0.029,0.665
7926523,8386.0,10617.0,2334.0,0.252,0.701,0.023,0.666
7926549,7820.0,8935.0,3016.0,0.239,0.705,0.021,0.668
7926565,7796.0,12139.0,3274.0,0.228,0.706,0.02,0.67
7926581,7176.0,12147.0,3530.0,0.224,0.705,0.017,0.673
7926597,7148.0,11669.0,3976.0,0.223,0.702,0.015,0.676
7926613,7070.0,11409.0,3944.0,0.228,0.698,0.013,0.679
7926629,7272.0,11705.0,3910.0,0.238,0.693,0.01,0.681
7926655,8104.0,11385.0,3746.0,0.251,0.685,0.006,0.683
7926672,8760.0,10735.0,3568.0,0.269,0.676,0.004,0.686
7926689,8936.0,11115.0,3970.0,0.29,0.665,0.004,0.689
7926706,9906.0,12839.0,3882.0,0.315,0.651,0.002,0.69
7926722,9830.0,11481.0,3752.0,0.345,0.635,-0.002,0.691
7926739,10850.0,8801.0,3822.0,0.375,0.618,-0.002,0.691
7926756,11490.0,10337.0,3760.0,0.405,0.6,0.002,0.69
7926773,11536.0,11157.0,4018.0,0.437,0.58,0.009,0.687
7926789,11530.0,12929.0,4314.0,0.47,0.558,0.014,0.684
7926806,11750.0,12207.0,4036.0,0.506,0.531,0.016,0.68
7926832,12444.0,8753.0,3416.0,0.541,0.502,0.019,0.674
7926848,11894.0,7505.0,3760.0,0.575,0.473,0.027,0.667
7926864,10946.0,10903.0,4172.0,0.608,0.442,0.036,0.658
7926880,9968.0,8797.0,4436.0,0.641,0.409,0.043,0.648
7926896,9518.0,8305.0,3634.0,0.671,0.375,0.05,0.638
7926912,8176.0,6475.0,3554.0,0.7,0.339,0.056,0.626
7926938,6392.0,5433.0,4376.0,0.726,0.306,0.063,0.613
7926955,5430.0,6429.0,4252.0,0.748,0.274,0.067,0.6
7926972,4856.0,6607.0,3864.0,0.768,0.242,0.068,0.589
7926989,5248.0,3249.0,3276.0,0.785,0.21,0.067,0.579
7927005,4696.0,901.0,3552.0,0.8,0.182,0.07,0.568
7927022,3764.0,4219.0,4442.0,0.812,0.157,0.072,0.557
7927039,4218.0,5785.0,3156.0,0.822,0.13,0.071,0.549
7927055,4458.0,765.0,2240.0,0.831,0.099,0.068,0.543
7927071,3842.0,417.0,2990.0,0.839,0.07,0.068,0.536
7927098,2848.0,2019.0,3140.0,0.844,0.043,0.068,0.53
7927114,3190.0,175.0,2448.0,0.849,0.016,0.067,0.524
7927130,3292.0,-685.0,1628.0,0.852,-0.01,0.067,0.519
7927146,2144.0,-1109.0,2154.0,0.855,-0.033,0.068,0.512
7927162,1372.0,-679.0,1880.0,0.858,-0.054,0.07,0.507
7927178,734.0,-1733.0,1662.0,0.859,-0.074,0.071,0.501
7927204,200.0,-1627.0,1392.0,0.861,-0.092,0.071,0.496
7927221,-288.0,-1791.0,1038.0,0.861,-0.108,0.069,0.492
7927238,-472.0,-4435.0,890.0,0.862,-0.121,0.068,0.488
7927255,-906.0,-3905.0,978.0,0.862,-0.129,0.067,0.485
7927272,-788.0,-4249.0,514.0,0.863,-0.134,0.065,0.483
7927289,-794.0,-4883.0,612.0,0.864,-0.135,0.064,0.481
7927306,-1086.0,-4287.0,750.0,0.865,-0.132,0.063,0.48
7927322,-860.0,-4391.0,972.0,0.866,-0.125,0.063,0.48
7927339,-602.0,-4165.0,910.0,0.867,-0.116,0.062,0.481
7927356,-552.0,-3599.0,1340.0,0.868,-0.103,0.062,0.483
7927372,-458.0,-3585.0,1684.0,0.868,-0.088,0.061,0.485
7927399,-110.0,-2581.0,2232.0,0.868,-0.07,0.06,0.488
7927415,204.0,-1763.0,2732.0,0.867,-0.05,0.057,0.492
7927431,516.0,-1921.0,2622.0,0.865,-0.03,0.054,0.498
7927447,832.0,-1179.0,3530.0,0.863,-0.006,0.051,0.503
7927463,1478.0,-207.0,3868.0,0.859,0.018,0.046,0.51
7927479,2080.0,-83.0,3934.0,0.854,0.043,0.042,0.516
7927505,3014.0,-755.0,3968.0,0.848,0.071,0.038,0.523
7927522,3474.0,257.0,4632.0,0.841,0.101,0.037,0.529
7927539,3052.0,3487.0,4984.0,0.833,0.131,0.035,0.537
7927555,3784.0,3177.0,5254.0,0.823,0.16,0.031,0.545
7927572,4848.0,2523.0,4914.0,0.811,0.19,0.028,0.552
7927589,5686.0,2821.0,5218.0,0.798,0.222,0.025,0.56
7927605,5682.0,4757.0,5244.0,0.782,0.254,0.025,0.568
7927622,6202.0,5769.0,4966.0,0.766,0.284,0.024,0.576
7927639,7216.0,5267.0,4476.0,0.749,0.313,0.024,0.583
7927655,7020.0,6013.0,5042.0,0.731,0.341,0.025,0.591
7927682,7152.0,6517.0,4970.0,0.711,0.368,0.027,0.598
7927698,7466.0,9879.0,4340.0,0.691,0.393,0.029,0.605
7927714,8244.0,8001.0,3956.0,0.672,0.414,0.029,0.614
7927730,8496.0,4661.0,3990.0,0.651,0.436,0.035,0.62
7927746,6912.0,8665.0,4486.0,0.628,0.46,0.043,0.626
7927762,6886.0,9319.0,4066.0,0.605,0.482,0.047,0.632
7927788,7162.0,8683.0,3436.0,0.581,0.503,0.05,0.638
7927804,7180.0,8855.0,4148.0,0.557,0.523,0.052,0.643
7927820,7946.0,7895.0,3546.0,0.532,0.543,0.053,0.648
7927836,8392.0,9489.0,3080.0,0.506,0.562,0.054,0.652
7927852,7866.0,9257.0,3318.0,0.481,0.579,0.053,0.656
7927868,8548.0,7843.0,2526.0,0.457,0.594,0.053,0.66
7927894,8692.0,8129.0,2162.0,0.432,0.609,0.054,0.663
7927910,8934.0,8801.0,2034.0,0.407,0.623,0.056,0.666
7927926,8366.0,9359.0,2512.0,0.382,0.635,0.056,0.669
7927942,8162.0,8599.0,2258.0,0.359,0.646,0.054,0.672
7927958,7802.0,7927.0,1864.0,0.337,0.656,0.052,0.673
7927984,8204.0,7457.0,1772.0,0.316,0.665,0.052,0.674
7928000,7848.0,10589.0,2112.0,0.295,0.673,0.051,0.676
7928016,7242.0,9425.0,2374.0,0.277,0.679,0.046,0.678
7928032,7430.0,7663.0,2234.0,0.262,0.685,0.043,0.678
7928048,7594.0,9787.0,2184.0,0.248,0.69,0.04,0.679
7928064,7674.0,10405.0,2338.0,0.237,0.693,0.037,0.68
7928080,7240.0,10433.0,3256.0,0.23,0.694,0.032,0.681
7928106,7172.0,10397.0,2902.0,0.227,0.695,0.028,0.682
7928122,7140.0,9889.0,2914.0,0.228,0.695,0.023,0.682
7928138,6708.0,10793.0,2990.0,0.23,0.694,0.019,0.682
7928155,5990.0,10615.0,3598.0,0.236,0.691,0.014,0.683
7928172,6202.0,10247.0,3656.0,0.247,0.688,0.008,0.682
7928188,6758.0,10655.0,3478.0,0.26,0.684,0.002,0.682
7928205,7504.0,11125.0,4074.0,0.277,0.677,-0.005,0.682
7928222,7044.0,9055.0,3910.0,0.297,0.669,-0.011,0.681
7928248,7392.0,10441.0,4088.0,0.318,0.66,-0.015,0.681
7928264,8252.0,12119.0,3976.0,0.341,0.648,-0.022,0.68
7928280,8462.0,9243.0,3938.0,0.368,0.635,-0.029,0.679
7928296,9174.0,8279.0,4150.0,0.393,0.621,-0.032,0.677
7928312,9580.0,11425.0,4216.0,0.419,0.607,-0.032,0.675
7928338,10616.0,10941.0,3858.0,0.446,0.59,-0.034,0.672
7928355,11050.0,11039.0,3868.0,0.475,0.57,-0.034,0.67
7928372,10900.0,9661.0,3930.0,0.505,0.547,-0.034,0.666
7928388,11424.0,8389.0,4070.0,0.535,0.525,-0.03,0.661
7928404,11670.0,10953.0,3872.0,0.564,0.501,-0.025,0.656
7928421,12058.0,9451.0,3718.0,0.594,0.475,-0.019,0.649
7928438,11308.0,10405.0,3902.0,0.623,0.446,-0.014,0.642
7928455,11392.0,7101.0,3862.0,0.653,0.415,-0.008,0.634
7928472,10620.0,6533.0,4120.0,0.68,0.386,0.001,0.623
7928488,10030.0,9183.0,3898.0,0.707,0.356,0.01,0.611
7928515,9344.0,6939.0,3612.0,0.732,0.325,0.018,0.599
7928531,8716.0,5973.0,3670.0,0.756,0.292,0.026,0.586
7928547,7674.0,5475.0,3612.0,0.777,0.26,0.034,0.572
7928563,6698.0,4105.0,3570.0,0.796,0.229,0.04,0.559
7928579,6222.0,4033.0,3506.0,0.812,0.2,0.047,0.546
7928595,6146.0,3791.0,2846.0,0.827,0.17,0.052,0.533
7928621,5778.0,2861.0,2794.0,0.841,0.138,0.057,0.52
7928638,4490.0,2319.0,2858.0,0.853,0.107,0.063,0.507
7928655,3854.0,965.0,2550.0,0.863,0.077,0.069,0.495
7928671,3060.0,1759.0,2522.0,0.871,0.049,0.074,0.483
7928688,2826.0,299.0,1690.0,0.878,0.02,0.077,0.471
7928705,1786.0,-1567.0,1788.0,0.884,-0.006,0.081,0.46
7928721,848.0,-821.0,2094.0,0.889,-0.029,0.084,0.45
7928738,598.0,-1225.0,1442.0,0.893,-0.051,0.085,0.44
7928755,546.0,-2185.0,724.0,0.896,-0.07,0.086,0.431
7928772,-654.0,-1783.0,1384.0,0.898,-0.088,0.086,0.422
7928789,-1274.0,-3015.0,1594.0,0.9,-0.103,0.084,0.415
7928815,-1316.0,-3439.0,1416.0,0.902,-0.114,0.08,0.41
7928831,-1070.0,-4059.0,798.0,0.903,-0.123,0.074,0.405
7928848,-784.0,-4111.0,814.0,0.904,-0.13,0.069,0.402
7928864,-1136.0,-4643.0,1376.0,0.904,-0.134,0.063,0.4
7928880,-990.0,-4833.0,1686.0,0.905,-0.134,0.057,0.401
7928896,-506.0,-4327.0,1274.0,0.905,-0.13,0.051,0.402
7928912,-272.0,-4377.0,1732.0,0.905,-0.124,0.046,0.405
7928938,-64.0,-4303.0,2184.0,0.904,-0.115,0.04,0.409
7928955,2.0,-3801.0,2418.0,0.904,-0.103,0.035,0.414
7928971,356.0,-4083.0,2918.0,0.903,-0.089,0.03,0.42
7928988,672.0,-4057.0,3130.0,0.901,-0.071,0.025,0.427
7929004,620.0,-2961.0,3536.0,0.899,-0.051,0.02,0.434
7929021,960.0,-2757.0,4032.0,0.896,-0.028,0.016,0.443
7929038,1786.0,-2399.0,4028.0,0.892,-0.003,0.011,0.452
7929055,1918.0,-1345.0,4758.0,0.887,0.025,0.007,0.461
7929072,2854.0,257.0,4286.0,0.881,0.053,0.002,0.471
7929098,3648.0,1235.0,4476.0,0.873,0.082,-0.003,0.481
7929114,4336.0,739.0,4828.0,0.864,0.11,-0.008,0.492
7929130,4614.0,983.0,5204.0,0.853,0.14,-0.011,0.502
7929146,5084.0,2813.0,5072.0,0.842,0.17,-0.014,0.512
7929162,5388.0,3325.0,5152.0,0.828,0.2,-0.017,0.523
7929178,5870.0,2929.0,5532.0,0.814,0.23,-0.019,0.534
7929204,6392.0,3623.0,5168.0,0.797,0.261,-0.02,0.544
7929221,6702.0,4299.0,5164.0,0.78,0.291,-0.019,0.554
7929238,6504.0,6607.0,5212.0,0.76,0.32,-0.017,0.565
7929255,7036.0,6943.0,4954.0,0.74,0.347,-0.017,0.576
7929271,7764.0,5157.0,4798.0,0.719,0.373,-0.016,0.586
7929288,7740.0,5841.0,4592.0,0.697,0.399,-0.012,0.596
7929304,7714.0,7215.0,4432.0,0.673,0.424,-0.008,0.606
7929321,7778.0,7253.0,4086.0,0.648,0.449,-0.004,0.615
7929338,7830.0,8319.0,4024.0,0.623,0.471,-0.0,0.624
7929354,7968.0,7197.0,3690.0,0.599,0.492,0.003,0.632
7929381,8294.0,7181.0,3254.0,0.574,0.511,0.007,0.64
7929397,8040.0,8397.0,3390.0,0.548,0.531,0.011,0.647
7929413,8360.0,9359.0,2792.0,0.522,0.548,0.013,0.653
7929429,8102.0,7257.0,2696.0,0.498,0.563,0.013,0.66
7929445,8768.0,6533.0,2200.0,0.474,0.577,0.015,0.665
7929461,8856.0,8751.0,1642.0,0.449,0.59,0.018,0.671
7929487,8214.0,9363.0,2140.0,0.424,0.601,0.018,0.677
7929504,8190.0,7069.0,2078.0,0.401,0.611,0.016,0.682
7929521,8466.0,6987.0,1848.0,0.379,0.621,0.014,0.686
7929538,8754.0,7071.0,1154.0,0.357,0.631,0.013,0.689
7929554,8634.0,8433.0,1342.0,0.335,0.639,0.011,0.692
7929571,8260.0,7663.0,1584.0,0.314,0.647,0.006,0.695
7929588,7778.0,7369.0,1768.0,0.293,0.654,0.001,0.697
7929605,7726.0,7615.0,1672.0,0.274,0.661,-0.004,0.699
7929621,8342.0,9069.0,1658.0,0.256,0.667,-0.009,0.699
7929638,7806.0,9673.0,2022.0,0.24,0.672,-0.016,0.7
7929664,7700.0,8155.0,2456.0,0.226,0.677,-0.023,0.7
7929680,7860.0,9037.0,2270.0,0.215,0.68,-0.028,0.7
7929696,7332.0,10843.0,2964.0,0.206,0.683,-0.031,0.7
7929712,6566.0,12335.0,3422.0,0.203,0.684,-0.035,0.7
7929728,6536.0,10089.0,3826.0,0.203,0.685,-0.041,0.699
7929744,6902.0,9747.0,3824.0,0.206,0.686,-0.042,0.697
7929770,7542.0,11867.0,3052.0,0.213,0.685,-0.042,0.695
7929787,6950.0,11735.0,3764.0,0.224,0.682,-0.042,0.695
7929804,6678.0,11257.0,3892.0,0.239,0.678,-0.042,0.694
7929821,7852.0,10441.0,3402.0,0.257,0.673,-0.043,0.692
7929838,8418.0,11039.0,3256.0,0.279,0.667,-0.041,0.69
7929854,8934.0,11733.0,3220.0,0.304,0.659,-0.04,0.687
7929870,9138.0,11633.0,3104.0,0.332,0.648,-0.04,0.684
7929887,9870.0,8103.0,3146.0,0.361,0.635,-0.04,0.682
7929904,10388.0,10005.0,3456.0,0.389,0.623,-0.035,0.678
7929930,10894.0,12255.0,3528.0,0.42,0.608,-0.031,0.672
7929946,11670.0,11527.0,3200.0,0.454,0.591,-0.029,0.666
7929962,12478.0,11329.0,3252.0,0.489,0.571,-0.026,0.659
7929978,13258.0,9181.0,2798.0,0.524,0.55,-0.022,0.65
7929994,12658.0,9565.0,3154.0,0.558,0.527,-0.015,0.64
7930010,12278.0,11597.0,3368.0,0.592,0.503,-0.008,0.629
7930036,12896.0,9627.0,2800.0,0.626,0.476,-0.002,0.617
7930053,12186.0,9417.0,3016.0,0.661,0.446,0.003,0.604
7930070,11504.0,8335.0,2696.0,0.694,0.414,0.009,0.59
7930087,10368.0,7297.0,3260.0,0.724,0.381,0.014,0.575
7930104,9772.0,5617.0,3050.0,0.753,0.347,0.019,0.559
7930121,9040.0,5609.0,2866.0,0.78,0.312,0.025,0.543
7930138,8382.0,6055.0,2202.0,0.804,0.275,0.03,0.527
7930154,7446.0,4171.0,2386.0,0.823,0.24,0.033,0.513
7930171,6498.0,2751.0,2300.0,0.84,0.205,0.036,0.5
7930187,5924.0,2149.0,2198.0,0.856,0.171,0.041,0.487
7930204,5758.0,2385.0,1620.0,0.869,0.137,0.046,0.473
7930232,4248.0,1195.0,1696.0,0.881,0.104,0.051,0.46
7930248,3146.0,647.0,1666.0,0.889,0.074,0.056,0.448
7930264,2628.0,-7.0,1470.0,0.896,0.045,0.061,0.437
7930280,2498.0,-1103.0,702.0,0.902,0.019,0.065,0.427
7930296,1514.0,-1165.0,672.0,0.906,-0.005,0.068,0.417
7930312,738.0,-3319.0,838.0,0.909,-0.026,0.071,0.41
7930328,498.0,-1785.0,-64.0,0.912,-0.042,0.072,0.403
7930354,366.0,-3695.0,-428.0,0.913,-0.058,0.072,0.398
7930370,206.0,-5513.0,58.0,0.914,-0.069,0.071,0.393
7930387,46.0,-4819.0,-154.0,0.915,-0.075,0.069,0.39
7930404,178.0,-5779.0,256.0,0.916,-0.076,0.067,0.388
7930421,434.0,-4991.0,126.0,0.917,-0.072,0.064,0.387
7930438,784.0,-5089.0,520.0,0.918,-0.065,0.061,0.387
7930454,780.0,-4021.0,896.0,0.918,-0.054,0.058,0.388
7930471,838.0,-3905.0,1590.0,0.918,-0.04,0.055,0.391
7930488,984.0,-3361.0,1858.0,0.917,-0.024,0.051,0.396
7930514,1318.0,-3585.0,2250.0,0.915,-0.004,0.046,0.401
7930530,1394.0,-1179.0,2884.0,0.912,0.017,0.042,0.407
7930546,1536.0,-1127.0,3700.0,0.908,0.039,0.035,0.415
7930563,1826.0,-1569.0,4234.0,0.902,0.063,0.029,0.425
7930579,2382.0,237.0,4660.0,0.895,0.09,0.022,0.436
7930596,3108.0,609.0,4954.0,0.887,0.115,0.015,0.447
7930612,3842.0,475.0,5420.0,0.877,0.143,0.008,0.46
7930638,4162.0,1423.0,6100.0,0.864,0.172,0.002,0.473
7930654,4490.0,1727.0,6248.0,0.85,0.203,-0.003,0.486
7930671,5190.0,3117.0,6504.0,0.834,0.236,-0.008,0.499
7930687,7144.0,4357.0,4864.0,0.817,0.267,-0.011,0.512
7930704,7900.0,4115.0,5456.0,0.798,0.295,-0.011,0.525
7930720,6608.0,5407.0,5792.0,0.778,0.324,-0.008,0.539
7930737,6290.0,6797.0,5632.0,0.756,0.351,-0.005,0.553
7930754,6728.0,6335.0,4376.0,0.733,0.376,-0.003,0.566
7930771,7314.0,5551.0,4152.0,0.709,0.401,0.003,0.58
7930797,7154.0,7293.0,4364.0,0.685,0.425,0.009,0.592
7930813,6508.0,7801.0,4254.0,0.658,0.449,0.014,0.604
7930829,7354.0,9315.0,2910.0,0.632,0.47,0.019,0.615
7930845,7882.0,6469.0,2620.0,0.606,0.49,0.023,0.627
7930861,8138.0,6709.0,2230.0,0.578,0.509,0.03,0.637
7930877,7234.0,8915.0,2280.0,0.549,0.528,0.038,0.647
7930903,7350.0,8857.0,1844.0,0.521,0.545,0.044,0.656
7930920,7678.0,7413.0,1290.0,0.494,0.559,0.049,0.664
7930937,8046.0,7605.0,894.0,0.465,0.573,0.056,0.672
7930954,7532.0,9473.0,986.0,0.437,0.586,0.063,0.68
7930970,6910.0,8671.0,1608.0,0.409,0.597,0.066,0.687
7930987,7566.0,7353.0,806.0,0.382,0.609,0.069,0.692
7931004,8098.0,7623.0,534.0,0.356,0.62,0.073,0.696
7931020,8204.0,8777.0,592.0,0.33,0.63,0.076,0.699
7931037,7898.0,7887.0,354.0,0.305,0.638,0.078,0.702
7931054,8496.0,7155.0,352.0,0.281,0.647,0.079,0.704
7931080,8560.0,8113.0,-154.0,0.258,0.655,0.081,0.706
7931096,8286.0,7627.0,-22.0,0.237,0.661,0.081,0.707
7931112,7952.0,7155.0,288.0,0.216,0.668,0.081,0.708
7931128,7972.0,8031.0,346.0,0.197,0.673,0.081,0.708
7931144,7856.0,10767.0,624.0,0.179,0.679,0.077,0.708
7931160,7474.0,8439.0,330.0,0.165,0.683,0.069,0.708
7931186,7794.0,7831.0,982.0,0.152,0.687,0.064,0.708
7931203,7346.0,9977.0,1148.0,0.142,0.69,0.06,0.707
7931220,7288.0,9909.0,1220.0,0.135,0.693,0.055,0.706
7931237,7272.0,10261.0,1432.0,0.133,0.696,0.05,0.704
7931253,6850.0,10963.0,1308.0,0.134,0.697,0.045,0.703
7931270,6578.0,9819.0,1706.0,0.138,0.698,0.041,0.701
7931287,6770.0,11285.0,1962.0,0.145,0.699,0.037,0.7
7931303,6840.0,10905.0,1714.0,0.158,0.697,0.032,0.698
7931319,7026.0,10305.0,2294.0,0.174,0.695,0.029,0.697
7931346,7586.0,10495.0,1972.0,0.193,0.692,0.026,0.695
7931362,7438.0,11645.0,2098.0,0.216,0.687,0.023,0.694
7931378,8162.0,11685.0,1918.0,0.242,0.68,0.018,0.692
7931394,9014.0,10099.0,2010.0,0.272,0.671,0.013,0.69
7931410,9342.0,9847.0,2440.0,0.304,0.66,0.009,0.687
7931426,9604.0,8547.0,2514.0,0.336,0.648,0.009,0.683
7931452,10146.0,11807.0,2280.0,0.367,0.636,0.01,0.679
7931469,10200.0,10619.0,2518.0,0.401,0.62,0.01,0.674
7931486,10442.0,11849.0,2778.0,0.437,0.602,0.009,0.668
7931503,11064.0,10797.0,2838.0,0.474,0.581,0.007,0.661
7931520,10788.0,8887.0,2756.0,0.51,0.559,0.006,0.654
7931537,10692.0,10637.0,2720.0,0.546,0.534,0.005,0.645
7931553,10596.0,9089.0,3088.0,0.58,0.509,0.006,0.636
7931570,10544.0,9927.0,3110.0,0.614,0.481,0.007,0.626
7931587,10182.0,9419.0,3492.0,0.646,0.45,0.007,0.616
7931603,10242.0,7561.0,3180.0,0.678,0.417,0.006,0.606
7931620,9592.0,6937.0,3450.0,0.707,0.384,0.007,0.594
7931647,8916.0,6279.0,3706.0,0.733,0.351,0.008,0.583
7931663,8728.0,6359.0,3346.0,0.757,0.318,0.01,0.57
7931679,7966.0,4711.0,3512.0,0.78,0.284,0.013,0.558
7931695,7324.0,5013.0,3460.0,0.8,0.25,0.016,0.545
7931711,6244.0,5009.0,3772.0,0.818,0.217,0.017,0.533
7931727,6332.0,3863.0,3140.0,0.833,0.184,0.016,0.521
7931753,6240.0,1623.0,2640.0,0.847,0.15,0.018,0.51
7931770,5200.0,1973.0,2878.0,0.859,0.119,0.022,0.498
7931787,4344.0,2005.0,2902.0,0.869,0.089,0.026,0.487
7931803,3402.0,855.0,3042.0,0.877,0.06,0.029,0.476
7931820,3200.0,567.0,2572.0,0.883,0.033,0.033,0.466
7931837,2502.0,671.0,2150.0,0.889,0.009,0.037,0.456
7931853,1930.0,-1569.0,2194.0,0.894,-0.014,0.04,0.447
7931870,886.0,-709.0,2512.0,0.898,-0.034,0.044,0.437
7931887,682.0,-1541.0,1920.0,0.901,-0.052,0.046,0.429
7931903,568.0,-2619.0,1660.0,0.903,-0.066,0.049,0.422
7931929,158.0,-2651.0,1328.0,0.905,-0.077,0.052,0.415
7931945,-292.0,-2779.0,1276.0,0.907,-0.086,0.054,0.409
7931962,-542.0,-3599.0,1268.0,0.908,-0.092,0.056,0.404
7931978,-952.0,-4695.0,1232.0,0.91,-0.094,0.057,0.401
7931994,-1238.0,-4719.0,1374.0,0.911,-0.091,0.057,0.398
7932010,-806.0,-4305.0,1296.0,0.912,-0.084,0.056,0.397
7932036,-572.0,-4263.0,1644.0,0.913,-0.075,0.055,0.398
7932053,-88.0,-3605.0,1668.0,0.913,-0.062,0.054,0.399
7932070,-202.0,-3303.0,2412.0,0.913,-0.048,0.051,0.402
7932087,92.0,-3753.0,2782.0,0.912,-0.03,0.048,0.406
7932103,820.0,-3509.0,2808.0,0.911,-0.01,0.046,0.411
7932120,1414.0,-2603.0,3134.0,0.908,0.014,0.044,0.416
7932137,1728.0,-1411.0,3486.0,0.905,0.04,0.043,0.422
7932153,2214.0,-821.0,4046.0,0.9,0.068,0.041,0.428
7932170,2930.0,-439.0,4048.0,0.894,0.096,0.04,0.435
7932186,2916.0,601.0,4212.0,0.887,0.126,0.04,0.442
7932213,2734.0,243.0,4364.0,0.879,0.155,0.039,0.45
7932229,2584.0,2065.0,4748.0,0.868,0.186,0.039,0.459
7932245,3502.0,3049.0,4800.0,0.855,0.217,0.039,0.469
7932261,4290.0,4021.0,4676.0,0.841,0.248,0.037,0.479
7932277,4866.0,4153.0,5114.0,0.826,0.278,0.034,0.49
7932296,5080.0,4673.0,5106.0,0.809,0.308,0.032,0.5
7932312,6070.0,5189.0,4490.0,0.79,0.337,0.032,0.511
7932328,6218.0,6597.0,4852.0,0.77,0.364,0.032,0.522
7932354,5730.0,7281.0,5074.0,0.749,0.39,0.032,0.534
7932370,6368.0,6889.0,4660.0,0.728,0.414,0.031,0.545
7932387,7022.0,6539.0,3798.0,0.705,0.438,0.032,0.557
7932403,7212.0,8813.0,3966.0,0.681,0.461,0.035,0.569
7932420,6952.0,8693.0,4370.0,0.656,0.481,0.037,0.58
7932436,7082.0,8937.0,3970.0,0.632,0.5,0.038,0.592
7932453,7666.0,6897.0,3326.0,0.607,0.516,0.039,0.602
7932470,6816.0,9293.0,3180.0,0.582,0.532,0.041,0.613
7932496,7290.0,9063.0,3154.0,0.557,0.547,0.042,0.624
7932512,7288.0,8567.0,3426.0,0.533,0.56,0.041,0.633
7932528,7878.0,8445.0,2684.0,0.509,0.572,0.04,0.642
7932544,8014.0,8299.0,2366.0,0.485,0.582,0.04,0.651
7932560,7654.0,8563.0,1988.0,0.462,0.591,0.039,0.66
7932586,7546.0,8479.0,2500.0,0.44,0.6,0.037,0.667
7932603,7634.0,7811.0,2026.0,0.418,0.608,0.035,0.674
7932620,8088.0,8435.0,2034.0,0.398,0.616,0.031,0.679
7932637,8170.0,7843.0,1620.0,0.379,0.623,0.027,0.684
7932653,7976.0,7031.0,1354.0,0.359,0.63,0.024,0.688
7932670,7526.0,7467.0,1442.0,0.34,0.636,0.022,0.692
7932686,7212.0,7319.0,1734.0,0.323,0.641,0.019,0.696
7932703,7428.0,7681.0,1246.0,0.306,0.647,0.016,0.698
7932720,7704.0,6493.0,1100.0,0.29,0.652,0.012,0.7
7932736,7396.0,6369.0,1070.0,0.274,0.657,0.009,0.702
7932753,7150.0,6895.0,1196.0,0.259,0.661,0.005,0.705
7932770,7278.0,6657.0,1494.0,0.245,0.664,0.001,0.706
7932797,7172.0,6931.0,1144.0,0.231,0.667,-0.004,0.708
7932813,7682.0,6747.0,1080.0,0.219,0.67,-0.01,0.709
7932829,7672.0,6643.0,1608.0,0.208,0.672,-0.015,0.71
7932845,7354.0,7937.0,2012.0,0.199,0.675,-0.019,0.71
7932861,7446.0,8509.0,1914.0,0.193,0.678,-0.024,0.709
7932877,7754.0,7641.0,1606.0,0.19,0.68,-0.028,0.708
7932903,7896.0,10075.0,1746.0,0.188,0.681,-0.031,0.707
7932919,7206.0,8743.0,2730.0,0.191,0.681,-0.034,0.706
7932935,7088.0,9765.0,2820.0,0.196,0.682,-0.034,0.704
7932951,7528.0,10981.0,2502.0,0.206,0.681,-0.034,0.702
7932967,7430.0,10511.0,2958.0,0.219,0.679,-0.034,0.7
7932983,7706.0,10469.0,2904.0,0.236,0.677,-0.032,0.697
7933009,7744.0,10961.0,3228.0,0.257,0.673,-0.03,0.693
7933025,8454.0,11451.0,2948.0,0.281,0.668,-0.029,0.689
7933041,9296.0,10443.0,2702.0,0.309,0.661,-0.026,0.684
7933057,9088.0,10509.0,3122.0,0.339,0.651,-0.022,0.679
7933073,9142.0,10999.0,3198.0,0.37,0.64,-0.019,0.673
7933089,9534.0,10197.0,3100.0,0.402,0.626,-0.016,0.668
7933115,9882.0,10121.0,3168.0,0.435,0.611,-0.011,0.661
7933131,9820.0,10575.0,3276.0,0.468,0.594,-0.008,0.654
7933148,10312.0,10247.0,3172.0,0.501,0.576,-0.004,0.646
7933164,10776.0,9967.0,2826.0,0.535,0.555,0.001,0.637
7933181,10418.0,9539.0,3202.0,0.567,0.534,0.006,0.627
7933197,9444.0,11089.0,3382.0,0.6,0.51,0.011,0.617
7933213,10006.0,9439.0,3204.0,0.631,0.484,0.013,0.606
7933240,10248.0,7839.0,3300.0,0.661,0.458,0.017,0.595
7933256,9420.0,8961.0,3908.0,0.689,0.431,0.021,0.583
7933272,8912.0,9731.0,4070.0,0.716,0.402,0.023,0.571
7933288,9000.0,6121.0,3512.0,0.742,0.371,0.025,0.558
7933304,8418.0,5857.0,3632.0,0.766,0.34,0.029,0.546
7933320,7538.0,6085.0,4070.0,0.787,0.308,0.033,0.533
7933346,7142.0,6077.0,4256.0,0.807,0.276,0.037,0.52
7933362,7632.0,4983.0,3570.0,0.826,0.241,0.039,0.508
7933378,7108.0,1755.0,3548.0,0.842,0.208,0.042,0.496
7933394,5844.0,3449.0,3916.0,0.856,0.179,0.049,0.483
7933410,4902.0,3859.0,3748.0,0.868,0.147,0.055,0.471
7933426,4134.0,1459.0,3608.0,0.878,0.116,0.06,0.46
7933452,3984.0,1755.0,2752.0,0.887,0.087,0.065,0.448
7933469,3030.0,1129.0,2642.0,0.895,0.057,0.07,0.438
7933486,2178.0,-497.0,2446.0,0.9,0.029,0.075,0.428
7933503,1118.0,-1565.0,2598.0,0.905,0.006,0.08,0.419
7933519,914.0,61.0,1750.0,0.908,-0.015,0.085,0.41
7933536,876.0,-1725.0,1278.0,0.911,-0.037,0.087,0.402
7933553,274.0,-2839.0,1384.0,0.912,-0.054,0.09,0.396
7933570,-866.0,-2633.0,1550.0,0.914,-0.068,0.092,0.39
7933587,-964.0,-3667.0,1144.0,0.915,-0.078,0.092,0.386
7933604,-1174.0,-3171.0,768.0,0.915,-0.085,0.092,0.383
7933620,-1380.0,-3771.0,958.0,0.916,-0.089,0.09,0.38
7933646,-1400.0,-4037.0,1142.0,0.917,-0.09,0.087,0.379
7933662,-1220.0,-3683.0,1410.0,0.917,-0.087,0.084,0.379
7933678,-872.0,-3197.0,1436.0,0.917,-0.082,0.08,0.381
7933694,-276.0,-3765.0,1614.0,0.917,-0.075,0.076,0.383
7933710,-686.0,-2987.0,2400.0,0.917,-0.065,0.073,0.387
7933726,-640.0,-3291.0,2960.0,0.916,-0.053,0.068,0.391
7933752,-144.0,-2431.0,2724.0,0.915,-0.038,0.063,0.397
7933769,544.0,-2301.0,2776.0,0.913,-0.022,0.058,0.403
7933786,-162.0,-2479.0,4140.0,0.911,-0.004,0.053,0.409
7933803,300.0,-1631.0,4340.0,0.908,0.017,0.048,0.417
7933819,914.0,-1161.0,4336.0,0.904,0.04,0.042,0.424
7933836,1676.0,-439.0,4476.0,0.899,0.064,0.035,0.432
7933852,2022.0,425.0,4942.0,0.893,0.087,0.029,0.441
7933869,2114.0,755.0,5596.0,0.885,0.112,0.024,0.451
7933886,2470.0,1687.0,5668.0,0.876,0.138,0.017,0.461
7933912,3860.0,1763.0,5016.0,0.866,0.163,0.011,0.472
7933928,4542.0,1709.0,4788.0,0.855,0.189,0.007,0.483
7933944,4038.0,1649.0,5452.0,0.842,0.216,0.006,0.494
7933960,3902.0,4759.0,6006.0,0.828,0.246,0.003,0.504
7933976,4712.0,5465.0,5232.0,0.813,0.273,-0.002,0.514
7933992,5468.0,4305.0,4748.0,0.797,0.298,-0.009,0.525
7934018,5852.0,4485.0,4802.0,0.78,0.323,-0.014,0.536
7934035,6008.0,4995.0,4826.0,0.761,0.347,-0.018,0.548
7934052,6504.0,5949.0,4842.0,0.74,0.371,-0.022,0.56
7934068,7292.0,5995.0,4224.0,0.719,0.394,-0.025,0.572
7934085,7660.0,5699.0,4286.0,0.696,0.418,-0.027,0.583
7934101,7916.0,7295.0,4326.0,0.674,0.441,-0.029,0.593
7934117,7748.0,7655.0,4134.0,0.65,0.462,-0.032,0.602
7934133,8054.0,8105.0,3240.0,0.627,0.482,-0.034,0.611
7934159,8346.0,8177.0,3650.0,0.602,0.501,-0.037,0.62
7934175,8402.0,7581.0,3556.0,0.578,0.519,-0.039,0.628
7934191,8736.0,7659.0,3630.0,0.554,0.536,-0.041,0.635
7934207,8706.0,7903.0,3222.0,0.53,0.553,-0.042,0.641
7934223,8648.0,8619.0,3096.0,0.508,0.568,-0.043,0.647
7934249,8486.0,7465.0,2786.0,0.486,0.581,-0.044,0.652
7934265,9008.0,7497.0,2500.0,0.464,0.593,-0.044,0.657
7934281,8742.0,8389.0,2876.0,0.442,0.604,-0.044,0.661
7934297,8568.0,8621.0,2870.0,0.422,0.614,-0.046,0.665
7934313,8366.0,7531.0,2656.0,0.403,0.623,-0.049,0.668
7934329,8464.0,6357.0,2294.0,0.385,0.631,-0.051,0.671
7934355,8564.0,6213.0,1910.0,0.368,0.639,-0.051,0.673
7934371,7960.0,7479.0,2056.0,0.352,0.646,-0.05,0.675
7934387,7786.0,6591.0,2186.0,0.337,0.652,-0.05,0.677
7934403,7586.0,5831.0,1902.0,0.323,0.658,-0.05,0.679
7934419,7698.0,6469.0,1574.0,0.309,0.663,-0.05,0.68
7934436,7446.0,6417.0,1512.0,0.296,0.668,-0.051,0.681
7934452,7318.0,5745.0,1534.0,0.283,0.672,-0.053,0.683
7934479,7286.0,5693.0,1496.0,0.271,0.675,-0.055,0.684
7934495,7590.0,5665.0,1294.0,0.26,0.678,-0.057,0.685
7934511,7620.0,5905.0,1486.0,0.25,0.681,-0.06,0.686
7934527,7612.0,5717.0,1248.0,0.24,0.683,-0.063,0.686
7934543,7652.0,4795.0,1330.0,0.232,0.686,-0.066,0.687
7934559,7870.0,5571.0,1528.0,0.224,0.688,-0.067,0.687
7934585,8098.0,6027.0,1606.0,0.218,0.689,-0.069,0.687
7934602,8080.0,6205.0,2052.0,0.214,0.691,-0.071,0.687
7934619,8338.0,7167.0,1996.0,0.21,0.693,-0.073,0.686
7934636,8358.0,6735.0,2306.0,0.208,0.694,-0.075,0.685
7934652,8130.0,6951.0,2568.0,0.21,0.694,-0.075,0.684
7934669,7830.0,7855.0,3052.0,0.212,0.695,-0.074,0.683
7934686,7484.0,8653.0,3516.0,0.218,0.695,-0.074,0.682
7934702,7366.0,8735.0,3464.0,0.226,0.694,-0.073,0.68
7934719,7502.0,8703.0,3500.0,0.237,0.691,-0.072,0.679
7934735,7412.0,8879.0,3332.0,0.25,0.687,-0.071,0.678
7934762,7126.0,9189.0,3380.0,0.265,0.682,-0.068,0.678
7934778,7274.0,10781.0,4282.0,0.282,0.676,-0.066,0.677
7934794,7810.0,10031.0,3810.0,0.304,0.669,-0.065,0.675
7934810,9456.0,10557.0,3234.0,0.328,0.66,-0.064,0.673
7934826,9838.0,11309.0,3218.0,0.353,0.65,-0.061,0.67
7934842,10606.0,10627.0,3456.0,0.381,0.636,-0.059,0.668
7934868,10766.0,10909.0,3946.0,0.412,0.621,-0.055,0.664
7934885,12280.0,11837.0,3566.0,0.444,0.604,-0.052,0.66
7934902,12680.0,11413.0,3290.0,0.478,0.584,-0.048,0.654
7934919,12946.0,11449.0,3586.0,0.514,0.561,-0.043,0.648
7934935,13254.0,9079.0,3302.0,0.55,0.536,-0.038,0.64
7934952,13400.0,10697.0,3480.0,0.586,0.509,-0.03,0.631
7934968,12114.0,11313.0,3846.0,0.622,0.478,-0.024,0.62
7934985,11888.0,8191.0,3586.0,0.657,0.445,-0.019,0.609
7935002,11502.0,7429.0,3646.0,0.69,0.411,-0.012,0.596
7935029,10244.0,7777.0,3994.0,0.72,0.378,-0.004,0.582
7935045,9734.0,7101.0,3736.0,0.748,0.342,0.002,0.568
7935061,9030.0,5447.0,3462.0,0.774,0.306,0.007,0.554
7935077,8468.0,2935.0,2870.0,0.797,0.272,0.015,0.54
7935093,6982.0,3503.0,3414.0,0.816,0.24,0.024,0.526
7935109,6082.0,4017.0,3254.0,0.832,0.209,0.033,0.513
7935135,4760.0,1917.0,3324.0,0.845,0.178,0.04,0.502
7935152,3836.0,4195.0,2730.0,0.858,0.148,0.046,0.491
7935169,3528.0,3865.0,2204.0,0.867,0.116,0.048,0.482
7935185,3484.0,1375.0,2532.0,0.875,0.084,0.047,0.475
7935202,3672.0,-187.0,2274.0,0.881,0.056,0.048,0.468
7935219,3078.0,-647.0,2524.0,0.885,0.03,0.051,0.462
7935235,2238.0,-485.0,2536.0,0.889,0.008,0.055,0.455
7935252,2102.0,691.0,2008.0,0.891,-0.013,0.059,0.45
7935268,1382.0,-1243.0,2012.0,0.893,-0.035,0.063,0.444
7935285,740.0,-1577.0,2154.0,0.895,-0.053,0.067,0.438
7935302,132.0,-947.0,1994.0,0.896,-0.07,0.071,0.433
7935319,-156.0,-1509.0,1554.0,0.896,-0.086,0.074,0.429
7935346,-632.0,-2539.0,1214.0,0.896,-0.099,0.076,0.426
7935362,-1120.0,-3029.0,1158.0,0.896,-0.11,0.077,0.424
7935378,-1414.0,-3115.0,1070.0,0.895,-0.118,0.076,0.423
7935394,-1402.0,-3437.0,956.0,0.895,-0.124,0.074,0.423
7935410,-1416.0,-4251.0,666.0,0.894,-0.126,0.072,0.423
7935426,-1222.0,-4011.0,458.0,0.894,-0.124,0.068,0.424
7935452,-1644.0,-4297.0,1026.0,0.895,-0.12,0.064,0.425
7935468,-1778.0,-4077.0,1430.0,0.895,-0.112,0.059,0.427
7935485,-1250.0,-3539.0,1644.0,0.896,-0.1,0.053,0.43
7935501,-642.0,-2771.0,1940.0,0.895,-0.087,0.045,0.434
7935517,-218.0,-2709.0,2074.0,0.895,-0.071,0.038,0.439
7935534,386.0,-2787.0,2604.0,0.894,-0.053,0.031,0.443
7935551,552.0,-1833.0,3046.0,0.893,-0.033,0.025,0.449
7935568,628.0,-1267.0,3714.0,0.89,-0.012,0.019,0.455
7935585,1342.0,-63.0,3694.0,0.887,0.011,0.012,0.462
7935612,1962.0,-1317.0,3918.0,0.882,0.036,0.005,0.469
7935628,2074.0,-837.0,4384.0,0.877,0.064,0.001,0.477
7935644,2362.0,1789.0,4646.0,0.87,0.094,-0.004,0.484
7935660,3626.0,1453.0,4780.0,0.862,0.125,-0.009,0.491
7935676,3860.0,1719.0,4640.0,0.852,0.157,-0.013,0.499
7935692,4272.0,3021.0,4594.0,0.839,0.191,-0.016,0.509
7935718,4280.0,4027.0,4590.0,0.825,0.225,-0.02,0.518
7935735,4594.0,4609.0,5286.0,0.809,0.259,-0.025,0.528
7935752,5592.0,5677.0,4854.0,0.791,0.291,-0.03,0.537
7935768,6652.0,4325.0,4452.0,0.772,0.322,-0.035,0.547
7935785,7034.0,4465.0,4400.0,0.75,0.355,-0.036,0.556
7935802,7700.0,5821.0,4170.0,0.727,0.388,-0.036,0.565
7935818,8426.0,7855.0,3898.0,0.702,0.42,-0.033,0.574
7935835,9118.0,8643.0,4076.0,0.677,0.449,-0.03,0.582
7935852,8782.0,7231.0,4044.0,0.651,0.477,-0.027,0.59
7935868,9372.0,8373.0,4610.0,0.624,0.503,-0.022,0.598
7935895,8674.0,9357.0,3484.0,0.596,0.528,-0.017,0.604
7935911,9188.0,8041.0,2850.0,0.569,0.55,-0.012,0.611
7935927,8626.0,8599.0,2678.0,0.541,0.57,-0.007,0.618
7935943,8192.0,10133.0,3168.0,0.513,0.588,-0.003,0.625
7935959,8062.0,8839.0,2924.0,0.487,0.604,-0.001,0.631
7935975,8494.0,8541.0,2594.0,0.461,0.618,0.001,0.637
7936001,8758.0,9069.0,2200.0,0.436,0.632,0.003,0.641
7936018,8428.0,8807.0,2024.0,0.412,0.643,0.005,0.646
7936035,8550.0,8029.0,2076.0,0.389,0.653,0.007,0.65
7936052,8738.0,8305.0,1894.0,0.367,0.662,0.01,0.654
7936068,8160.0,9069.0,1836.0,0.346,0.67,0.011,0.657
7936084,7910.0,7573.0,1796.0,0.327,0.676,0.011,0.66
7936101,7620.0,7003.0,1616.0,0.309,0.682,0.01,0.663
7936118,7568.0,7271.0,1266.0,0.292,0.687,0.01,0.665
7936135,7624.0,7099.0,1246.0,0.277,0.691,0.009,0.667
7936151,7648.0,7261.0,1320.0,0.263,0.695,0.007,0.669
7936177,7818.0,6797.0,976.0,0.25,0.697,0.002,0.672
7936193,7724.0,5493.0,1078.0,0.239,0.699,-0.001,0.673
7936209,7694.0,5781.0,908.0,0.229,0.701,-0.004,0.675
7936225,7338.0,5905.0,948.0,0.219,0.702,-0.006,0.677
7936241,7260.0,5535.0,888.0,0.211,0.703,-0.009,0.679
7936257,7212.0,5133.0,894.0,0.204,0.703,-0.011,0.682
7936283,7524.0,5969.0,826.0,0.198,0.702,-0.014,0.684
7936300,8140.0,6377.0,654.0,0.192,0.701,-0.019,0.686
7936317,7796.0,6007.0,912.0,0.188,0.7,-0.024,0.689
7936334,7842.0,6133.0,1360.0,0.185,0.698,-0.029,0.691
7936351,7944.0,6559.0,1376.0,0.183,0.697,-0.034,0.692
7936368,8446.0,7791.0,1546.0,0.183,0.696,-0.038,0.693
7936385,8134.0,8341.0,1824.0,0.186,0.695,-0.044,0.693
7936402,7860.0,5941.0,1900.0,0.19,0.693,-0.049,0.693
7936418,7612.0,8753.0,2244.0,0.195,0.692,-0.051,0.693
7936435,7552.0,10649.0,2470.0,0.204,0.691,-0.055,0.692
7936461,7372.0,8769.0,2584.0,0.216,0.688,-0.06,0.69
7936477,7772.0,9757.0,2608.0,0.231,0.685,-0.064,0.687
7936493,8242.0,9625.0,2938.0,0.249,0.681,-0.067,0.685
7936509,8682.0,9891.0,2846.0,0.27,0.676,-0.07,0.682
7936525,8538.0,10085.0,3350.0,0.294,0.668,-0.072,0.68
7936551,8986.0,9057.0,3526.0,0.319,0.659,-0.072,0.678
7936568,9366.0,9619.0,3696.0,0.346,0.647,-0.071,0.675
7936585,9880.0,9745.0,3484.0,0.374,0.635,-0.07,0.673
7936601,10778.0,10045.0,3368.0,0.405,0.619,-0.067,0.669
7936618,11284.0,9287.0,3264.0,0.437,0.602,-0.065,0.665
7936634,11768.0,8889.0,3318.0,0.469,0.583,-0.059,0.661
7936651,12120.0,10343.0,2842.0,0.501,0.563,-0.052,0.655
7936668,11974.0,10787.0,3360.0,0.535,0.54,-0.045,0.648
7936684,12702.0,9387.0,3320.0,0.57,0.515,-0.039,0.639
7936701,12768.0,9217.0,2796.0,0.604,0.489,-0.032,0.629
7936718,12586.0,7115.0,2848.0,0.636,0.46,-0.023,0.619
7936745,10786.0,8635.0,3578.0,0.666,0.432,-0.011,0.608
7936761,10202.0,9773.0,3886.0,0.697,0.401,-0.002,0.595
7936778,9362.0,8767.0,4168.0,0.726,0.366,0.003,0.581
7936794,8810.0,6139.0,3714.0,0.755,0.331,0.006,0.566
7936810,8396.0,5201.0,3284.0,0.781,0.297,0.01,0.549
7936826,7772.0,5281.0,3352.0,0.805,0.262,0.013,0.533
7936842,6730.0,4665.0,3180.0,0.825,0.227,0.016,0.517
7936868,5580.0,3709.0,3690.0,0.842,0.193,0.019,0.504
7936884,4540.0,2661.0,3600.0,0.857,0.158,0.021,0.49
7936901,4094.0,1673.0,3196.0,0.87,0.123,0.023,0.478
7936918,3754.0,1673.0,2846.0,0.88,0.089,0.025,0.465
7936934,2346.0,-565.0,3330.0,0.889,0.058,0.028,0.454
7936951,2036.0,583.0,2842.0,0.895,0.029,0.032,0.443
7936968,1290.0,741.0,2364.0,0.9,-0.0,0.034,0.434
7936985,1202.0,19.0,1620.0,0.904,-0.03,0.035,0.425
7937001,330.0,-2173.0,1842.0,0.906,-0.058,0.036,0.418
7937027,-412.0,-3221.0,1466.0,0.907,-0.081,0.037,0.411
7937043,-258.0,-1141.0,800.0,0.907,-0.101,0.037,0.407
7937059,-142.0,-2597.0,228.0,0.906,-0.12,0.036,0.405
7937075,-40.0,-4289.0,216.0,0.904,-0.134,0.035,0.404
7937091,-248.0,-4145.0,104.0,0.903,-0.144,0.035,0.403
7937107,-140.0,-3449.0,-214.0,0.902,-0.151,0.036,0.403
7937133,-92.0,-3355.0,-298.0,0.901,-0.154,0.036,0.404
7937150,-314.0,-3303.0,106.0,0.9,-0.155,0.035,0.407
7937167,-224.0,-3963.0,182.0,0.899,-0.153,0.035,0.41
7937184,-156.0,-3879.0,296.0,0.898,-0.147,0.034,0.413
7937201,-646.0,-2907.0,800.0,0.898,-0.137,0.031,0.416
7937218,-334.0,-3039.0,1100.0,0.898,-0.125,0.027,0.42
7937235,-324.0,-3339.0,1524.0,0.899,-0.109,0.023,0.424
7937251,-92.0,-2615.0,2100.0,0.899,-0.09,0.017,0.429
7937268,186.0,-2271.0,2520.0,0.898,-0.068,0.01,0.434
7937294,792.0,-1373.0,2894.0,0.897,-0.044,0.003,0.439
7937310,1554.0,-1179.0,2922.0,0.895,-0.019,-0.005,0.445
7937326,2046.0,-95.0,3440.0,0.893,0.005,-0.013,0.45
7937342,1798.0,-111.0,4662.0,0.889,0.03,-0.022,0.457
7937358,2584.0,189.0,5182.0,0.884,0.057,-0.031,0.463
7937374,3556.0,399.0,4628.0,0.878,0.084,-0.04,0.47
7937391,3820.0,2083.0,4988.0,0.87,0.111,-0.05,0.478
7937417,4484.0,2629.0,5484.0,0.861,0.138,-0.06,0.485
7937434,5004.0,1395.0,6100.0,0.851,0.164,-0.07,0.494
7937451,5914.0,2839.0,5588.0,0.839,0.193,-0.08,0.503
7937467,5430.0,3121.0,5574.0,0.825,0.222,-0.089,0.512
7937484,6370.0,3537.0,5638.0,0.81,0.249,-0.098,0.521
7937500,6462.0,4637.0,6092.0,0.794,0.276,-0.107,0.531
7937517,7492.0,4759.0,5680.0,0.776,0.302,-0.117,0.541
7937534,8300.0,3561.0,5526.0,0.758,0.328,-0.124,0.55
7937551,7836.0,4393.0,5254.0,0.738,0.354,-0.13,0.559
7937568,8390.0,5893.0,5234.0,0.717,0.381,-0.133,0.569
7937594,9232.0,6701.0,4662.0,0.694,0.405,-0.136,0.579
7937610,9318.0,4649.0,5366.0,0.67,0.429,-0.138,0.589
7937626,8510.0,6739.0,5206.0,0.644,0.455,-0.138,0.599
7937642,9082.0,7773.0,4782.0,0.62,0.477,-0.139,0.608
7937658,9844.0,5771.0,4018.0,0.596,0.497,-0.139,0.615
7937684,9904.0,6873.0,4110.0,0.57,0.517,-0.136,0.624
7937701,9136.0,7271.0,4326.0,0.544,0.536,-0.132,0.632
7937717,8994.0,7851.0,4364.0,0.519,0.553,-0.129,0.639
7937734,9526.0,7151.0,3594.0,0.495,0.568,-0.127,0.645
7937751,9534.0,7085.0,3178.0,0.472,0.582,-0.122,0.651
7937768,8776.0,7285.0,3262.0,0.447,0.594,-0.117,0.658
7937784,8024.0,7583.0,3556.0,0.425,0.606,-0.112,0.663
7937801,8350.0,6709.0,3344.0,0.403,0.617,-0.107,0.667
7937817,8872.0,7709.0,2734.0,0.383,0.628,-0.103,0.669
7937834,8886.0,6711.0,2268.0,0.364,0.637,-0.099,0.672
7937851,8892.0,5859.0,2012.0,0.345,0.645,-0.095,0.675
7937877,8312.0,6417.0,2164.0,0.327,0.652,-0.089,0.679
7937893,7694.0,6243.0,2240.0,0.309,0.657,-0.084,0.682
7937909,8016.0,5969.0,2052.0,0.293,0.663,-0.078,0.684
7937925,7770.0,6321.0,1948.0,0.278,0.667,-0.074,0.687
7937941,7652.0,5509.0,2008.0,0.264,0.671,-0.071,0.689
7937967,7600.0,5593.0,1846.0,0.25,0.674,-0.068,0.692
7937984,7526.0,5381.0,1766.0,0.237,0.677,-0.065,0.694
7938000,7604.0,5113.0,1490.0,0.225,0.678,-0.063,0.697
7938016,7288.0,5363.0,1800.0,0.213,0.679,-0.061,0.7
7938032,7408.0,5275.0,1824.0,0.202,0.681,-0.059,0.702
7938048,7788.0,6265.0,1754.0,0.192,0.682,-0.058,0.704
7938064,8046.0,6553.0,1806.0,0.184,0.683,-0.058,0.705
7938090,8260.0,5589.0,1816.0,0.177,0.683,-0.058,0.706
7938106,7984.0,7207.0,1980.0,0.171,0.684,-0.058,0.707
7938122,7856.0,7451.0,2222.0,0.168,0.685,-0.058,0.707
7938138,8592.0,8101.0,1998.0,0.168,0.685,-0.058,0.707
7938154,8488.0,8163.0,2068.0,0.171,0.685,-0.057,0.706
7938170,7984.0,8055.0,2194.0,0.175,0.684,-0.056,0.706
7938196,7504.0,9307.0,2978.0,0.182,0.683,-0.054,0.705
7938212,7658.0,9227.0,2958.0,0.194,0.681,-0.053,0.704
7938228,8622.0,8833.0,2522.0,0.21,0.679,-0.051,0.702
7938244,8464.0,9257.0,2656.0,0.227,0.675,-0.048,0.7
7938260,8228.0,9587.0,3186.0,0.246,0.67,-0.046,0.699
7938276,9152.0,10381.0,2958.0,0.268,0.664,-0.045,0.697
7938302,10454.0,9947.0,2320.0,0.293,0.655,-0.044,0.695
7938318,10538.0,10293.0,2504.0,0.321,0.643,-0.044,0.694
7938334,10898.0,10339.0,2682.0,0.352,0.63,-0.045,0.691
7938351,11858.0,10809.0,2340.0,0.385,0.614,-0.045,0.687
7938367,12522.0,10057.0,1944.0,0.421,0.596,-0.047,0.682
7938384,12096.0,9977.0,2310.0,0.457,0.577,-0.046,0.675
7938400,12850.0,12033.0,2070.0,0.495,0.556,-0.049,0.666
7938427,13628.0,8651.0,1466.0,0.534,0.53,-0.053,0.657
7938443,13424.0,8041.0,1524.0,0.573,0.502,-0.053,0.646
7938459,12578.0,7817.0,2368.0,0.61,0.472,-0.051,0.635
7938475,12746.0,6519.0,1882.0,0.645,0.441,-0.047,0.622
7938491,10906.0,5511.0,3294.0,0.676,0.412,-0.041,0.609
7938507,10596.0,8027.0,2746.0,0.707,0.38,-0.035,0.596
7938533,10106.0,5937.0,2686.0,0.736,0.346,-0.031,0.581
7938550,9684.0,2845.0,3116.0,0.762,0.314,-0.026,0.565
7938567,8360.0,2541.0,3314.0,0.785,0.283,-0.018,0.55
7938584,7278.0,3091.0,3306.0,0.804,0.256,-0.009,0.536
7938600,5886.0,3955.0,3044.0,0.821,0.228,-0.001,0.523
7938617,5412.0,2191.0,3642.0,0.837,0.198,0.006,0.51
7938634,4200.0,573.0,3786.0,0.85,0.171,0.014,0.498
7938650,3348.0,187.0,3600.0,0.86,0.147,0.022,0.487
7938667,2814.0,1557.0,2992.0,0.869,0.124,0.029,0.478
7938683,2376.0,531.0,2954.0,0.877,0.099,0.035,0.469
7938700,2030.0,-913.0,3050.0,0.883,0.076,0.04,0.461
7938727,1424.0,-689.0,2722.0,0.888,0.055,0.046,0.455
7938743,1038.0,-963.0,2700.0,0.892,0.036,0.052,0.448
7938760,522.0,-1007.0,2304.0,0.895,0.017,0.057,0.443
7938776,-42.0,-1441.0,2294.0,0.897,-0.002,0.06,0.438
7938792,-424.0,-3301.0,2076.0,0.898,-0.018,0.063,0.435
7938808,-792.0,-857.0,1390.0,0.899,-0.031,0.066,0.432
7938824,-1064.0,-2297.0,1358.0,0.899,-0.045,0.066,0.431
7938850,-660.0,-3005.0,974.0,0.898,-0.057,0.065,0.431
7938867,-1124.0,-3435.0,1304.0,0.898,-0.066,0.065,0.431
7938884,-1104.0,-2997.0,690.0,0.897,-0.071,0.063,0.432
7938900,-1162.0,-3035.0,570.0,0.896,-0.074,0.06,0.433
7938917,-1470.0,-3437.0,912.0,0.895,-0.075,0.057,0.435
7938934,-1510.0,-2873.0,1084.0,0.894,-0.072,0.052,0.438
7938951,-1496.0,-3195.0,1608.0,0.893,-0.066,0.046,0.442
7938967,-1158.0,-2841.0,1738.0,0.892,-0.056,0.038,0.447
7938984,-544.0,-2559.0,2088.0,0.89,-0.044,0.029,0.452
7939001,-4.0,-1715.0,2228.0,0.888,-0.03,0.02,0.458
7939028,610.0,-2001.0,2730.0,0.886,-0.015,0.01,0.464
7939044,1070.0,-1595.0,3270.0,0.882,0.004,0.0,0.47
7939060,1520.0,-583.0,3382.0,0.879,0.023,-0.009,0.477
7939076,2090.0,-277.0,3568.0,0.874,0.044,-0.017,0.484
7939092,2418.0,-147.0,4192.0,0.868,0.067,-0.025,0.491
7939108,2116.0,559.0,5130.0,0.861,0.091,-0.033,0.499
7939134,3258.0,1733.0,4672.0,0.853,0.117,-0.042,0.507
7939150,4516.0,2359.0,4412.0,0.844,0.141,-0.051,0.515
7939167,4676.0,1789.0,5020.0,0.834,0.165,-0.059,0.523
7939183,4952.0,1659.0,4984.0,0.822,0.192,-0.064,0.532
7939201,5246.0,3437.0,5256.0,0.809,0.221,-0.069,0.541
7939217,6262.0,2685.0,4444.0,0.794,0.25,-0.073,0.549
7939234,6732.0,4867.0,4462.0,0.778,0.279,-0.074,0.558
7939250,6136.0,5013.0,4808.0,0.76,0.306,-0.076,0.568
7939267,6402.0,4103.0,4774.0,0.739,0.336,-0.078,0.578
7939293,7224.0,5151.0,4918.0,0.716,0.366,-0.079,0.588
7939309,8596.0,5111.0,4470.0,0.692,0.397,-0.08,0.597
7939325,9284.0,7631.0,4250.0,0.667,0.426,-0.081,0.606
7939341,8872.0,7497.0,4746.0,0.641,0.452,-0.083,0.615
7939357,10848.0,4065.0,5220.0,0.613,0.479,-0.083,0.622
7939383,10726.0,5819.0,3854.0,0.582,0.507,-0.079,0.63
7939400,10682.0,8897.0,3854.0,0.551,0.533,-0.076,0.638
7939417,10678.0,7829.0,3744.0,0.52,0.556,-0.073,0.644
7939433,10722.0,7607.0,3614.0,0.489,0.577,-0.07,0.651
7939450,11028.0,8753.0,2958.0,0.456,0.596,-0.065,0.657
7939467,10360.0,9179.0,3020.0,0.425,0.613,-0.063,0.663
7939483,10652.0,8351.0,2946.0,0.394,0.629,-0.062,0.668
7939500,10374.0,8875.0,2960.0,0.366,0.642,-0.062,0.671
7939517,10138.0,6977.0,2134.0,0.339,0.654,-0.061,0.674
7939534,10318.0,7391.0,1720.0,0.312,0.664,-0.057,0.677
7939551,10066.0,8661.0,1472.0,0.287,0.672,-0.053,0.68
7939567,8734.0,8561.0,2030.0,0.265,0.678,-0.051,0.683
7939594,8500.0,7069.0,1836.0,0.245,0.684,-0.049,0.686
7939610,7994.0,7155.0,1774.0,0.226,0.688,-0.046,0.688
7939626,7994.0,6701.0,1552.0,0.21,0.692,-0.044,0.689
7939642,7842.0,6659.0,1152.0,0.196,0.695,-0.041,0.69
7939658,8130.0,6713.0,1074.0,0.184,0.697,-0.039,0.692
7939674,8000.0,6009.0,1206.0,0.173,0.699,-0.036,0.693
7939700,7814.0,6071.0,1062.0,0.163,0.699,-0.033,0.695
7939716,7632.0,5965.0,1556.0,0.155,0.7,-0.03,0.697
7939732,7484.0,5747.0,950.0,0.149,0.699,-0.027,0.698
