timeMs,ax,ay,az,q0,q1,q2,q3
4280193,2937.0,7665.0,-137.0,0.696,0.691,-0.176,0.084
4280209,2887.0,7727.0,-131.0,0.696,0.691,-0.176,0.084
4280225,2985.0,7665.0,-139.0,0.696,0.691,-0.176,0.084
4280241,2965.0,7639.0,-141.0,0.696,0.691,-0.176,0.084
4280267,2969.0,7633.0,-149.0,0.696,0.691,-0.176,0.084
4280284,2987.0,7737.0,-181.0,0.696,0.691,-0.176,0.084
4280300,3077.0,7763.0,-159.0,0.696,0.691,-0.176,0.085
4280317,3151.0,7879.0,-175.0,0.696,0.691,-0.176,0.085
4280334,3163.0,7935.0,-101.0,0.696,0.691,-0.176,0.085
4280351,3433.0,8043.0,41.0,0.695,0.691,-0.176,0.086
4280368,3311.0,8181.0,11.0,0.695,0.691,-0.176,0.087
4280384,3713.0,8335.0,115.0,0.696,0.691,-0.176,0.088
4280400,3511.0,8055.0,399.0,0.696,0.69,-0.175,0.089
4280426,5283.0,10011.0,849.0,0.698,0.69,-0.172,0.09
4280442,5651.0,11497.0,2387.0,0.706,0.681,-0.167,0.094
4280458,3801.0,9257.0,2739.0,0.719,0.669,-0.161,0.099
4280474,3669.0,7303.0,1811.0,0.734,0.653,-0.156,0.103
4280491,3911.0,5429.0,2067.0,0.746,0.64,-0.152,0.109
4280507,4507.0,6737.0,2757.0,0.755,0.628,-0.147,0.114
4280523,5461.0,7573.0,3777.0,0.764,0.618,-0.14,0.121
4280549,5731.0,8619.0,4963.0,0.776,0.604,-0.13,0.13
4280565,5003.0,6515.0,4581.0,0.789,0.586,-0.12,0.141
4280582,4201.0,5107.0,4143.0,0.799,0.571,-0.11,0.152
4280598,4463.0,5137.0,4263.0,0.807,0.558,-0.101,0.164
4280615,4521.0,4707.0,4171.0,0.812,0.549,-0.092,0.176
4280631,4817.0,4851.0,3909.0,0.813,0.544,-0.082,0.188
4280647,4931.0,5295.0,3791.0,0.812,0.544,-0.071,0.201
4280674,5023.0,5813.0,3657.0,0.809,0.545,-0.06,0.214
4280690,5141.0,5995.0,3421.0,0.804,0.547,-0.047,0.228
4280706,5047.0,5883.0,3025.0,0.799,0.549,-0.033,0.244
4280722,4845.0,5855.0,2701.0,0.792,0.552,-0.018,0.26
4280739,4605.0,5747.0,2431.0,0.785,0.554,-0.003,0.277
4280755,4467.0,5565.0,2285.0,0.777,0.557,0.012,0.294
4280781,4569.0,5579.0,2113.0,0.767,0.56,0.027,0.312
4280797,4517.0,5371.0,1865.0,0.756,0.564,0.043,0.329
4280813,4591.0,5589.0,1707.0,0.744,0.569,0.059,0.347
4280830,4529.0,5779.0,1603.0,0.729,0.574,0.075,0.365
4280846,4453.0,6019.0,1573.0,0.714,0.579,0.092,0.382
4280863,4515.0,6111.0,1229.0,0.698,0.584,0.109,0.4
4280880,4443.0,6271.0,1137.0,0.681,0.588,0.127,0.416
4280896,4701.0,6269.0,1067.0,0.664,0.593,0.145,0.433
4280912,4953.0,6079.0,743.0,0.645,0.596,0.163,0.449
4280938,4929.0,6141.0,449.0,0.626,0.6,0.182,0.464
4280954,4405.0,6287.0,-213.0,0.606,0.602,0.202,0.479
4280971,4039.0,6053.0,-519.0,0.586,0.604,0.223,0.493
4280987,3983.0,6789.0,-765.0,0.565,0.605,0.242,0.507
4281004,3977.0,7141.0,-1063.0,0.544,0.605,0.259,0.521
4281021,4005.0,7197.0,-1215.0,0.524,0.603,0.275,0.535
4281037,4023.0,7207.0,-1433.0,0.504,0.599,0.29,0.551
4281063,3869.0,7197.0,-1699.0,0.484,0.595,0.303,0.566
4281080,3757.0,7045.0,-2171.0,0.464,0.59,0.317,0.58
4281097,3645.0,6949.0,-2551.0,0.443,0.586,0.331,0.592
4281114,3459.0,7305.0,-2545.0,0.423,0.583,0.344,0.602
4281131,3343.0,7703.0,-2381.0,0.403,0.579,0.356,0.612
4281148,3175.0,7469.0,-2067.0,0.385,0.576,0.365,0.622
4281165,3215.0,7005.0,-1983.0,0.367,0.572,0.372,0.632
4281181,3393.0,6491.0,-1919.0,0.349,0.568,0.378,0.642
4281198,3667.0,6251.0,-1727.0,0.33,0.566,0.383,0.651
4281214,3987.0,6565.0,-1641.0,0.31,0.564,0.388,0.659
4281231,4415.0,7067.0,-1625.0,0.291,0.562,0.393,0.667
4281257,4813.0,7211.0,-1625.0,0.272,0.56,0.397,0.675
4281273,4993.0,7015.0,-1565.0,0.253,0.558,0.399,0.683
4281289,5063.0,6501.0,-1429.0,0.236,0.555,0.399,0.691
4281305,5309.0,6177.0,-1413.0,0.218,0.553,0.399,0.699
4281322,5567.0,6047.0,-1443.0,0.2,0.55,0.398,0.706
4281338,5639.0,5903.0,-1271.0,0.183,0.548,0.397,0.713
4281355,5909.0,6115.0,-1245.0,0.166,0.547,0.395,0.719
4281382,5949.0,6319.0,-1183.0,0.15,0.546,0.393,0.725
4281398,5987.0,6169.0,-1161.0,0.136,0.545,0.39,0.73
4281414,6023.0,6259.0,-1133.0,0.123,0.545,0.386,0.734
4281430,5881.0,6241.0,-837.0,0.111,0.545,0.382,0.738
4281446,5627.0,5963.0,-607.0,0.101,0.545,0.378,0.741
4281462,5535.0,5093.0,-69.0,0.092,0.546,0.374,0.744
4281479,6307.0,5609.0,451.0,0.083,0.548,0.369,0.746
4281505,6699.0,5335.0,795.0,0.075,0.549,0.362,0.749
4281521,6987.0,4499.0,843.0,0.067,0.551,0.354,0.753
4281537,7053.0,4163.0,849.0,0.057,0.552,0.348,0.756
4281553,6955.0,4375.0,793.0,0.047,0.553,0.343,0.758
4281569,7087.0,4633.0,759.0,0.035,0.554,0.34,0.759
4281586,7155.0,5617.0,661.0,0.025,0.556,0.337,0.759
4281612,7041.0,6101.0,697.0,0.016,0.557,0.333,0.76
4281629,6953.0,5847.0,699.0,0.009,0.558,0.328,0.762
4281645,6913.0,5137.0,645.0,0.003,0.559,0.324,0.763
4281661,7067.0,5211.0,665.0,0.003,-0.561,-0.321,-0.763
4281678,7145.0,5751.0,701.0,0.008,-0.562,-0.319,-0.763
4281695,7051.0,5993.0,835.0,0.011,-0.564,-0.317,-0.762
4281711,7115.0,5599.0,1047.0,0.013,-0.566,-0.315,-0.762
4281727,7349.0,5129.0,1241.0,0.015,-0.567,-0.313,-0.762
4281753,7445.0,5013.0,1391.0,0.016,-0.569,-0.312,-0.761
4281770,7383.0,5131.0,1467.0,0.019,-0.569,-0.313,-0.76
4281787,7423.0,5105.0,1407.0,0.02,-0.57,-0.313,-0.76
4281803,7263.0,4987.0,1239.0,0.022,-0.569,-0.314,-0.759
4281819,7271.0,4759.0,1087.0,0.023,-0.569,-0.315,-0.759
4281836,7193.0,4581.0,857.0,0.023,-0.568,-0.316,-0.759
4281853,7151.0,4187.0,599.0,0.022,-0.568,-0.317,-0.759
4281870,7141.0,3881.0,467.0,0.022,-0.568,-0.318,-0.759
4281887,7187.0,3871.0,363.0,0.021,-0.568,-0.319,-0.759
4281904,7037.0,3841.0,403.0,0.022,-0.567,-0.32,-0.758
4281921,7119.0,3769.0,565.0,0.022,-0.568,-0.321,-0.758
4281947,7235.0,3783.0,553.0,0.021,-0.568,-0.321,-0.757
4281963,7305.0,3777.0,623.0,0.021,-0.569,-0.321,-0.757
4281979,7117.0,3661.0,791.0,0.02,-0.57,-0.32,-0.757
4281996,7077.0,3547.0,865.0,0.019,-0.57,-0.32,-0.756
4282012,7069.0,3209.0,863.0,0.017,-0.571,-0.318,-0.756
4282028,7231.0,3015.0,1193.0,0.015,-0.573,-0.315,-0.757
4282045,7255.0,2893.0,1339.0,0.015,-0.574,-0.313,-0.757
4282072,7287.0,2793.0,1307.0,0.016,-0.575,-0.31,-0.757
4282089,7213.0,2885.0,1491.0,0.017,-0.576,-0.309,-0.757
4282106,7389.0,3371.0,1657.0,0.019,-0.577,-0.308,-0.756
4282123,7403.0,3525.0,1769.0,0.02,-0.578,-0.306,-0.756
4282140,7455.0,3431.0,1835.0,0.022,-0.579,-0.304,-0.757
4282157,7423.0,3275.0,1755.0,0.024,-0.579,-0.301,-0.757
4282174,7467.0,3517.0,1661.0,0.027,-0.58,-0.299,-0.757
4282191,7337.0,4007.0,1343.0,0.029,-0.58,-0.298,-0.758
4282207,7285.0,4027.0,1179.0,0.031,-0.58,-0.297,-0.758
4282224,7445.0,4147.0,1301.0,0.032,-0.581,-0.295,-0.758
4282240,7521.0,3889.0,1245.0,0.032,-0.581,-0.292,-0.759
4282257,7489.0,3483.0,1435.0,0.032,-0.582,-0.289,-0.759
4282284,7371.0,3359.0,1385.0,0.032,-0.583,-0.287,-0.76
4282301,7395.0,3711.0,1335.0,0.032,-0.583,-0.285,-0.76
4282318,7479.0,3785.0,1279.0,0.032,-0.583,-0.283,-0.76
4282335,7521.0,4443.0,1065.0,0.031,-0.583,-0.281,-0.761
4282352,7653.0,5149.0,641.0,0.028,-0.583,-0.275,-0.764
4282368,7701.0,5831.0,161.0,0.021,-0.583,-0.264,-0.768
4282384,7583.0,6381.0,-379.0,0.009,-0.583,-0.248,-0.774
4282400,7459.0,6029.0,-701.0,0.009,0.582,0.224,0.782
4282426,7475.0,5699.0,-1369.0,0.033,0.581,0.193,0.79
4282443,7453.0,6259.0,-1879.0,0.063,0.578,0.155,0.799
4282460,7541.0,6633.0,-3069.0,0.099,0.574,0.108,0.806
4282477,7687.0,6483.0,-3895.0,0.143,0.566,0.052,0.81
4282494,8105.0,4955.0,-4649.0,0.193,0.555,-0.009,0.809
4282511,8561.0,3703.0,-5171.0,0.247,0.542,-0.07,0.801
4282527,9319.0,1785.0,-4783.0,0.302,0.526,-0.128,0.785
4282544,10007.0,-315.0,-3885.0,0.355,0.511,-0.178,0.762
4282561,10317.0,-1947.0,-2155.0,0.403,0.499,-0.219,0.735
4282577,10367.0,-2637.0,-363.0,0.446,0.491,-0.251,0.705
4282594,10429.0,-2795.0,817.0,0.481,0.488,-0.275,0.675
4282611,10289.0,-1617.0,1989.0,0.509,0.487,-0.292,0.647
4282638,10265.0,-353.0,2891.0,0.532,0.488,-0.305,0.621
4282655,9917.0,183.0,3373.0,0.555,0.486,-0.317,0.597
4282671,9899.0,843.0,3375.0,0.577,0.48,-0.327,0.574
4282687,9203.0,-257.0,3491.0,0.601,0.47,-0.337,0.551
4282703,8705.0,-1597.0,3509.0,0.624,0.458,-0.345,0.53
4282720,8361.0,-2131.0,3291.0,0.645,0.445,-0.351,0.513
4282737,7777.0,-2491.0,3669.0,0.662,0.432,-0.355,0.499
4282753,7347.0,-3213.0,3955.0,0.676,0.423,-0.357,0.487
4282780,7373.0,-3515.0,3869.0,0.686,0.419,-0.356,0.477
4282797,7359.0,-2455.0,3917.0,0.691,0.418,-0.353,0.472
4282814,8027.0,-945.0,3583.0,0.695,0.42,-0.349,0.468
4282831,8453.0,1183.0,3591.0,0.699,0.42,-0.345,0.465
4282847,8473.0,2067.0,3727.0,0.704,0.416,-0.344,0.461
4282863,8825.0,1961.0,3739.0,0.711,0.411,-0.343,0.457
4282880,8861.0,1399.0,3983.0,0.717,0.404,-0.343,0.452
4282897,8815.0,903.0,4391.0,0.723,0.4,-0.342,0.448
4282914,8747.0,1157.0,4833.0,0.728,0.398,-0.339,0.444
4282931,8599.0,1301.0,5559.0,0.732,0.398,-0.334,0.441
4282948,8621.0,1607.0,6015.0,0.735,0.401,-0.327,0.438
4282974,8349.0,1539.0,5759.0,0.737,0.406,-0.318,0.436
4282991,8177.0,1811.0,5427.0,0.739,0.411,-0.306,0.437
4283007,8369.0,2091.0,4803.0,0.74,0.418,-0.29,0.44
4283023,8429.0,4887.0,5027.0,0.741,0.423,-0.272,0.446
4283039,8261.0,5549.0,5359.0,0.745,0.421,-0.254,0.45
4283055,7635.0,5741.0,5217.0,0.753,0.413,-0.238,0.454
4283072,7521.0,4653.0,5165.0,0.762,0.4,-0.222,0.458
4283089,6849.0,4647.0,4689.0,0.773,0.384,-0.207,0.46
4283115,5911.0,2871.0,4831.0,0.784,0.367,-0.191,0.463
4283132,5589.0,2637.0,5065.0,0.792,0.353,-0.174,0.466
4283149,4667.0,3261.0,5231.0,0.799,0.346,-0.155,0.467
4283166,4373.0,3475.0,5359.0,0.805,0.342,-0.136,0.465
4283183,4563.0,4469.0,5395.0,0.811,0.34,-0.117,0.461
4283199,4387.0,5075.0,5491.0,0.818,0.339,-0.099,0.455
4283216,4463.0,5215.0,5631.0,0.825,0.335,-0.083,0.448
4283233,4147.0,4907.0,5905.0,0.833,0.328,-0.068,0.441
4283250,4113.0,4751.0,6133.0,0.841,0.319,-0.054,0.434
4283267,3797.0,4093.0,6033.0,0.848,0.309,-0.041,0.428
4283284,3453.0,3359.0,5999.0,0.856,0.298,-0.026,0.422
4283310,2847.0,2795.0,6237.0,0.863,0.288,-0.01,0.415
4283326,2867.0,2855.0,6041.0,0.869,0.281,0.007,0.408
4283342,2721.0,3809.0,6251.0,0.874,0.274,0.025,0.401
4283358,2519.0,4515.0,6617.0,0.878,0.268,0.041,0.394
4283374,2803.0,4961.0,6853.0,0.883,0.261,0.057,0.386
4283390,2755.0,4707.0,6643.0,0.887,0.253,0.072,0.378
4283416,2331.0,3835.0,6301.0,0.892,0.245,0.088,0.37
4283433,1649.0,3117.0,6327.0,0.896,0.238,0.107,0.36
4283449,1125.0,3279.0,6689.0,0.899,0.236,0.125,0.348
4283466,1077.0,3939.0,6757.0,0.901,0.237,0.144,0.334
4283483,889.0,4065.0,6431.0,0.902,0.243,0.163,0.318
4283500,195.0,3259.0,5629.0,0.902,0.252,0.184,0.299
4283517,-647.0,2511.0,4267.0,0.901,0.263,0.208,0.276
4283534,-1691.0,2361.0,3325.0,0.9,0.272,0.232,0.249
4283550,-3141.0,977.0,2265.0,0.899,0.277,0.256,0.223
4283576,-4619.0,-499.0,2711.0,0.898,0.278,0.275,0.2
4283593,-5295.0,-1749.0,3081.0,0.898,0.278,0.288,0.183
4283610,-5191.0,-1471.0,3245.0,0.897,0.28,0.293,0.175
4283626,-4137.0,157.0,2959.0,0.897,0.28,0.292,0.178
4283647,-3683.0,665.0,3085.0,0.897,0.278,0.287,0.189
4283664,-3543.0,1467.0,3683.0,0.896,0.277,0.28,0.203
4283681,-3283.0,2797.0,4317.0,0.895,0.277,0.273,0.22
4283697,-3183.0,4249.0,4861.0,0.892,0.28,0.263,0.237
4283713,-3017.0,4653.0,5023.0,0.889,0.283,0.254,0.254
4283730,-2943.0,4243.0,4991.0,0.886,0.286,0.245,0.269
4283747,-2943.0,3301.0,4825.0,0.884,0.289,0.238,0.28
4283763,-2497.0,4209.0,5193.0,0.881,0.293,0.232,0.29
4283780,-2463.0,4127.0,5207.0,0.877,0.297,0.226,0.301
4283797,-2381.0,4207.0,5129.0,0.874,0.3,0.219,0.314
4283823,-2671.0,3591.0,5133.0,0.87,0.302,0.212,0.327
4283839,-2041.0,3747.0,5075.0,0.866,0.304,0.202,0.342
4283855,-2103.0,3415.0,5467.0,0.862,0.306,0.191,0.357
4283871,-1111.0,3457.0,5519.0,0.857,0.309,0.178,0.372
4283887,-1407.0,1813.0,5243.0,0.851,0.315,0.165,0.386
4283903,-1333.0,387.0,4619.0,0.844,0.326,0.154,0.398
4283930,-815.0,1177.0,4769.0,0.834,0.342,0.144,0.409
4283947,717.0,3215.0,5309.0,0.821,0.362,0.135,0.42
4283964,2951.0,7565.0,5093.0,0.806,0.383,0.124,0.433
4283980,3955.0,8463.0,4599.0,0.793,0.396,0.111,0.45
4283997,2911.0,5929.0,4007.0,0.781,0.403,0.097,0.466
4284013,2155.0,3151.0,3537.0,0.77,0.409,0.086,0.482
4284029,2143.0,1019.0,3753.0,0.755,0.422,0.077,0.496
4284046,3835.0,2359.0,3935.0,0.733,0.448,0.072,0.508
4284072,5099.0,4439.0,3363.0,0.704,0.481,0.069,0.518
4284088,5833.0,6231.0,2455.0,0.674,0.515,0.066,0.526
4284105,6057.0,6619.0,1725.0,0.645,0.545,0.065,0.532
4284121,6485.0,5511.0,1517.0,0.615,0.571,0.065,0.539
4284137,7265.0,5345.0,1337.0,0.585,0.595,0.066,0.547
4284154,8249.0,5995.0,1267.0,0.553,0.616,0.066,0.557
4284171,9283.0,7227.0,1315.0,0.522,0.632,0.065,0.569
4284197,9851.0,7911.0,1243.0,0.494,0.641,0.058,0.584
4284213,10235.0,7353.0,805.0,0.469,0.644,0.048,0.602
4284229,10275.0,6407.0,287.0,0.447,0.642,0.033,0.621
4284246,9949.0,5599.0,179.0,0.427,0.638,0.017,0.64
4284262,9727.0,5253.0,247.0,0.406,0.634,-0.001,0.658
4284279,9433.0,4877.0,-107.0,0.387,0.631,-0.019,0.672
4284295,9095.0,4905.0,399.0,0.37,0.629,-0.037,0.683
4284311,9293.0,5743.0,1097.0,0.355,0.628,-0.056,0.69
4284337,9523.0,6375.0,949.0,0.345,0.626,-0.076,0.695
4284353,9449.0,5387.0,281.0,0.34,0.623,-0.096,0.698
4284370,9343.0,5359.0,519.0,0.338,0.619,-0.113,0.7
4284386,9125.0,4829.0,911.0,0.341,0.615,-0.128,0.7
4284402,9301.0,4411.0,1259.0,0.348,0.612,-0.141,0.696
4284419,9391.0,3631.0,1693.0,0.358,0.609,-0.153,0.691
4284435,9477.0,3287.0,2143.0,0.371,0.607,-0.164,0.683
4284452,9589.0,3195.0,2619.0,0.385,0.606,-0.173,0.675
4284479,9735.0,2777.0,2915.0,0.4,0.605,-0.18,0.665
4284496,9895.0,2099.0,3203.0,0.414,0.605,-0.183,0.655
4284513,10299.0,2215.0,3501.0,0.428,0.606,-0.181,0.646
4284530,10497.0,2271.0,3517.0,0.44,0.608,-0.177,0.637
4284547,9931.0,2251.0,3361.0,0.453,0.61,-0.169,0.628
4284564,9479.0,2463.0,3129.0,0.464,0.611,-0.16,0.621
4284580,9305.0,3131.0,2957.0,0.475,0.612,-0.151,0.614
4284596,9011.0,3583.0,3569.0,0.486,0.611,-0.145,0.607
4284612,8933.0,3491.0,3897.0,0.497,0.611,-0.14,0.6
4284638,8801.0,3163.0,3893.0,0.505,0.611,-0.135,0.594
4284654,8635.0,3103.0,3719.0,0.51,0.613,-0.127,0.589
4284670,8665.0,4245.0,3777.0,0.514,0.617,-0.116,0.585
4284686,8733.0,5707.0,3567.0,0.517,0.621,-0.103,0.58
4284703,8045.0,6763.0,3013.0,0.522,0.623,-0.089,0.576
4284720,8283.0,7465.0,2837.0,0.531,0.622,-0.076,0.57
4284736,7863.0,7347.0,2547.0,0.543,0.617,-0.064,0.565
4284762,7133.0,6735.0,2459.0,0.558,0.61,-0.054,0.56
4284778,6935.0,6125.0,2505.0,0.575,0.6,-0.045,0.555
4284794,6205.0,5375.0,2599.0,0.591,0.589,-0.038,0.55
4284810,5579.0,4647.0,2927.0,0.606,0.579,-0.03,0.545
4284826,5491.0,4591.0,2885.0,0.618,0.571,-0.022,0.54
4284842,5443.0,5019.0,2775.0,0.629,0.563,-0.013,0.535
4284868,5325.0,5475.0,2967.0,0.64,0.556,-0.003,0.531
4284884,5577.0,5737.0,3101.0,0.649,0.549,0.006,0.527
4284900,5139.0,5705.0,3051.0,0.659,0.541,0.015,0.522
4284916,5021.0,5537.0,3031.0,0.668,0.534,0.025,0.518
4284932,5051.0,5649.0,3147.0,0.677,0.526,0.035,0.514
4284948,5253.0,6145.0,3297.0,0.686,0.518,0.046,0.51
4284975,5089.0,5939.0,3381.0,0.694,0.509,0.056,0.506
4284991,5775.0,6095.0,3501.0,0.702,0.501,0.067,0.501
4285007,6195.0,6057.0,3683.0,0.71,0.493,0.078,0.497
4285023,5607.0,4785.0,3957.0,0.716,0.486,0.09,0.492
4285039,4719.0,3587.0,4795.0,0.718,0.487,0.106,0.485
4285055,3947.0,2875.0,4405.0,0.714,0.5,0.127,0.474
4285081,2105.0,2639.0,2685.0,0.702,0.522,0.155,0.458
4285097,-245.0,4407.0,841.0,0.687,0.551,0.189,0.435
4285113,-1273.0,6353.0,-77.0,0.672,0.577,0.224,0.407
4285129,-1683.0,8513.0,-437.0,0.66,0.596,0.256,0.379
4285145,-1549.0,9807.0,-203.0,0.657,0.601,0.281,0.359
4285161,-1577.0,8705.0,221.0,0.662,0.592,0.298,0.35
4285187,-2869.0,4917.0,-87.0,0.673,0.573,0.308,0.352
4285203,-3805.0,2057.0,-457.0,0.684,0.553,0.313,0.359
4285220,-4191.0,1211.0,-401.0,0.691,0.538,0.314,0.367
4285236,-4263.0,1465.0,39.0,0.694,0.529,0.313,0.374
4285253,-4349.0,2117.0,665.0,0.695,0.526,0.311,0.379
4285270,-4389.0,3237.0,1125.0,0.694,0.527,0.308,0.381
4285286,-4005.0,4919.0,1429.0,0.693,0.531,0.304,0.382
4285303,-3115.0,6689.0,1493.0,0.692,0.533,0.299,0.384
4285329,-2841.0,6933.0,1995.0,0.694,0.531,0.291,0.39
4285345,-1937.0,7351.0,2187.0,0.698,0.524,0.281,0.399
4285361,-1767.0,6055.0,2591.0,0.701,0.515,0.269,0.412
4285378,-2019.0,3825.0,2801.0,0.703,0.508,0.257,0.426
4285394,-2373.0,2233.0,2889.0,0.701,0.505,0.246,0.439
4285410,-2399.0,1147.0,2521.0,0.695,0.509,0.239,0.448
4285427,103.0,5291.0,1447.0,0.683,0.521,0.235,0.456
4285443,1285.0,8499.0,1209.0,0.669,0.532,0.23,0.465
4285469,1765.0,9859.0,809.0,0.657,0.541,0.222,0.476
4285486,1923.0,9135.0,753.0,0.649,0.545,0.209,0.487
4285502,1455.0,6561.0,1011.0,0.644,0.548,0.195,0.497
4285519,1971.0,4853.0,1371.0,0.637,0.554,0.181,0.504
4285536,3421.0,4629.0,1435.0,0.626,0.565,0.167,0.51
4285552,4037.0,4959.0,1545.0,0.612,0.579,0.155,0.515
4285568,4939.0,5479.0,1623.0,0.596,0.594,0.143,0.521
4285585,5757.0,6023.0,1615.0,0.581,0.606,0.13,0.528
4285611,6225.0,6125.0,1875.0,0.566,0.615,0.115,0.537
4285627,6901.0,5941.0,2087.0,0.553,0.619,0.097,0.549
4285645,8047.0,5551.0,2109.0,0.541,0.619,0.076,0.564
4285662,9173.0,5271.0,1977.0,0.53,0.616,0.052,0.581
4285678,9835.0,5087.0,1735.0,0.52,0.608,0.025,0.599
4285694,10177.0,4389.0,1617.0,0.511,0.598,-0.004,0.618
4285710,10641.0,3377.0,1639.0,0.502,0.586,-0.033,0.635
4285736,10817.0,2231.0,1349.0,0.49,0.577,-0.061,0.65
4285752,11139.0,1235.0,1069.0,0.476,0.571,-0.084,0.663
4285768,11109.0,1669.0,1281.0,0.459,0.571,-0.102,0.673
4285785,10883.0,2299.0,1531.0,0.442,0.574,-0.115,0.68
4285802,10221.0,3281.0,1701.0,0.425,0.58,-0.125,0.684
4285818,9295.0,3999.0,1765.0,0.411,0.587,-0.134,0.685
4285834,8873.0,4545.0,2333.0,0.401,0.593,-0.141,0.684
4285851,8905.0,4529.0,3137.0,0.396,0.599,-0.148,0.68
4285868,9167.0,4375.0,3637.0,0.395,0.603,-0.155,0.675
4285894,9335.0,3865.0,3895.0,0.397,0.606,-0.16,0.67
4285911,9627.0,3959.0,4161.0,0.401,0.609,-0.163,0.665
4285928,10123.0,4325.0,4355.0,0.405,0.612,-0.162,0.66
4285945,10711.0,4351.0,4345.0,0.412,0.614,-0.158,0.654
4285962,11049.0,3753.0,4433.0,0.421,0.617,-0.149,0.648
4285979,10991.0,3629.0,4567.0,0.429,0.621,-0.135,0.641
4285995,11029.0,3803.0,4447.0,0.437,0.626,-0.117,0.635
4286012,10995.0,4423.0,3993.0,0.444,0.632,-0.096,0.629
4286029,10669.0,5385.0,3777.0,0.45,0.636,-0.075,0.622
4286046,10267.0,6279.0,3213.0,0.457,0.64,-0.054,0.615
4286073,9411.0,6653.0,2933.0,0.466,0.642,-0.034,0.608
4286089,8819.0,6839.0,2551.0,0.477,0.641,-0.018,0.601
4286105,7797.0,6535.0,2225.0,0.49,0.639,-0.003,0.593
4286121,7233.0,6319.0,2233.0,0.504,0.636,0.01,0.585
4286137,6647.0,6087.0,2229.0,0.518,0.631,0.021,0.577
4286154,6423.0,5649.0,2319.0,0.532,0.627,0.032,0.569
4286171,5701.0,5497.0,2163.0,0.544,0.623,0.044,0.561
4286197,5187.0,5637.0,2033.0,0.555,0.619,0.057,0.553
4286213,4827.0,5605.0,1753.0,0.565,0.614,0.07,0.546
4286230,4265.0,5003.0,1647.0,0.574,0.611,0.083,0.539
4286246,4151.0,5429.0,1401.0,0.581,0.608,0.096,0.533
4286262,4573.0,6137.0,1051.0,0.588,0.604,0.108,0.526
4286278,5029.0,5989.0,627.0,0.596,0.599,0.118,0.521
4286294,4989.0,5827.0,517.0,0.604,0.594,0.126,0.517
4286320,4617.0,5181.0,671.0,0.611,0.587,0.132,0.514
4286336,4369.0,4967.0,751.0,0.618,0.582,0.138,0.51
4286352,4403.0,5183.0,863.0,0.624,0.578,0.144,0.506
4286368,4277.0,5359.0,751.0,0.628,0.575,0.15,0.502
4286384,2969.0,5271.0,951.0,0.631,0.574,0.157,0.498
4286400,1885.0,5287.0,957.0,0.634,0.573,0.164,0.493
4286426,1261.0,5535.0,1279.0,0.636,0.573,0.171,0.488
4286442,91.0,5785.0,1447.0,0.636,0.575,0.179,0.482
4286458,-889.0,5487.0,1477.0,0.637,0.576,0.187,0.478
4286475,-1899.0,5381.0,1733.0,0.637,0.577,0.195,0.473
4286491,-2627.0,5063.0,2019.0,0.637,0.577,0.202,0.469
4286508,-3053.0,5239.0,2135.0,0.637,0.578,0.208,0.466
4286524,-2705.0,5377.0,2151.0,0.636,0.578,0.213,0.464
4286550,-2177.0,5585.0,2039.0,0.635,0.578,0.216,0.465
4286566,-1635.0,5955.0,1951.0,0.635,0.576,0.217,0.467
4286582,-957.0,7035.0,1773.0,0.634,0.573,0.216,0.472
4286598,-961.0,7597.0,1795.0,0.634,0.569,0.212,0.478
4286614,-1347.0,7021.0,2029.0,0.636,0.565,0.206,0.484
4286630,-1591.0,5559.0,2269.0,0.638,0.562,0.198,0.489
4286656,-1125.0,4565.0,2471.0,0.638,0.562,0.191,0.491
4286672,419.0,6183.0,2189.0,0.634,0.566,0.185,0.493
4286688,1373.0,8031.0,1807.0,0.629,0.57,0.18,0.497
4286704,1219.0,7969.0,1649.0,0.626,0.572,0.174,0.501
4286720,875.0,6741.0,1499.0,0.623,0.573,0.167,0.506
4286736,609.0,5145.0,1669.0,0.621,0.574,0.159,0.51
4286762,987.0,4341.0,1851.0,0.617,0.576,0.151,0.514
4286778,2053.0,4777.0,1869.0,0.61,0.582,0.142,0.52
4286794,3263.0,5821.0,1609.0,0.599,0.59,0.131,0.526
4286810,4339.0,6467.0,1413.0,0.587,0.598,0.119,0.532
4286826,4693.0,6345.0,1505.0,0.576,0.606,0.106,0.538
4286852,5405.0,6047.0,1767.0,0.564,0.614,0.093,0.544
4286868,6177.0,6037.0,2005.0,0.552,0.621,0.08,0.551
4286884,7253.0,5973.0,2023.0,0.541,0.625,0.067,0.558
4286900,8065.0,6015.0,1913.0,0.53,0.627,0.053,0.568
4286916,8519.0,6031.0,1913.0,0.52,0.626,0.038,0.58
4286932,8679.0,5907.0,2009.0,0.512,0.622,0.021,0.593
4286948,8767.0,5413.0,1779.0,0.505,0.614,0.002,0.606
4286974,8643.0,4921.0,1683.0,0.5,0.604,-0.018,0.62
4286990,8711.0,4357.0,2173.0,0.496,0.592,-0.039,0.634
4287006,8417.0,3545.0,2675.0,0.491,0.582,-0.06,0.645
4287022,8317.0,951.0,2167.0,0.485,0.573,-0.078,0.656
4287038,7629.0,-2623.0,805.0,0.473,0.568,-0.089,0.667
4287054,7061.0,-3395.0,929.0,0.453,0.572,-0.089,0.678
4287080,8515.0,-859.0,591.0,0.424,0.585,-0.08,0.687
4287096,10057.0,1931.0,-21.0,0.39,0.599,-0.068,0.696
4287112,11563.0,5573.0,-671.0,0.357,0.613,-0.059,0.703
4287128,10647.0,6943.0,-275.0,0.33,0.622,-0.054,0.708
4287144,9719.0,7045.0,307.0,0.311,0.629,-0.053,0.71
4287160,8667.0,6163.0,1003.0,0.301,0.636,-0.055,0.709
4287186,8601.0,5801.0,1951.0,0.297,0.642,-0.057,0.705
4287202,8853.0,5137.0,2733.0,0.298,0.647,-0.06,0.699
4287218,9315.0,4445.0,3121.0,0.302,0.651,-0.062,0.694
4287234,9747.0,5237.0,3375.0,0.307,0.654,-0.062,0.688
4287250,9955.0,5693.0,3055.0,0.313,0.657,-0.058,0.684
4287266,10041.0,5487.0,2847.0,0.322,0.659,-0.049,0.678
4287292,10599.0,5377.0,2349.0,0.333,0.66,-0.036,0.672
4287308,11375.0,5975.0,1313.0,0.346,0.661,-0.019,0.665
4287324,11279.0,6431.0,255.0,0.361,0.661,-0.001,0.658
4287340,10111.0,7125.0,1391.0,0.38,0.659,0.014,0.648
4287356,9859.0,6507.0,1939.0,0.404,0.657,0.023,0.636
4287382,9465.0,5111.0,1811.0,0.43,0.653,0.028,0.623
4287398,9037.0,4593.0,1923.0,0.454,0.648,0.031,0.611
4287414,8445.0,4823.0,2447.0,0.477,0.642,0.033,0.6
4287430,7627.0,4953.0,2719.0,0.497,0.634,0.034,0.592
4287446,7143.0,5301.0,2667.0,0.517,0.624,0.035,0.584
4287462,6253.0,6999.0,1993.0,0.539,0.611,0.034,0.579
4287488,6545.0,5453.0,2361.0,0.561,0.592,0.028,0.579
4287504,5451.0,4723.0,2487.0,0.582,0.57,0.021,0.579
4287520,3795.0,4189.0,2335.0,0.605,0.547,0.017,0.579
4287536,4195.0,3715.0,2645.0,0.624,0.53,0.014,0.574
4287552,4339.0,4137.0,3035.0,0.64,0.518,0.014,0.567
4287568,4495.0,4683.0,2843.0,0.653,0.51,0.016,0.559
4287594,4075.0,5043.0,2499.0,0.665,0.504,0.019,0.551
4287610,3599.0,5441.0,2799.0,0.675,0.5,0.022,0.542
4287626,3799.0,5883.0,3237.0,0.685,0.496,0.025,0.533
4287642,4113.0,6209.0,3517.0,0.693,0.495,0.027,0.523
4287658,4433.0,6371.0,3511.0,0.701,0.494,0.029,0.514
4287674,4007.0,6311.0,3375.0,0.708,0.494,0.031,0.504
4287700,3863.0,6223.0,3625.0,0.716,0.493,0.034,0.493
4287716,3761.0,6089.0,3997.0,0.724,0.492,0.037,0.483
4287732,3515.0,5879.0,4211.0,0.731,0.492,0.042,0.471
4287748,3305.0,5773.0,4223.0,0.737,0.493,0.049,0.461
4287764,2641.0,5969.0,4043.0,0.742,0.495,0.057,0.449
4287780,2253.0,6807.0,4227.0,0.747,0.496,0.066,0.437
4287806,1769.0,6605.0,4465.0,0.753,0.496,0.075,0.426
4287822,1127.0,6747.0,4429.0,0.76,0.494,0.084,0.414
4287838,341.0,6487.0,4637.0,0.767,0.49,0.093,0.404
4287854,-171.0,6055.0,4639.0,0.775,0.484,0.101,0.394
4287870,-965.0,5437.0,4447.0,0.782,0.477,0.11,0.385
4287886,-1011.0,6595.0,4261.0,0.789,0.47,0.119,0.376
4287912,-1283.0,7087.0,4243.0,0.796,0.462,0.127,0.368
4287928,-1641.0,7327.0,4167.0,0.804,0.453,0.135,0.361
4287944,-1811.0,6485.0,3917.0,0.812,0.444,0.143,0.352
4287960,-2033.0,6051.0,3865.0,0.819,0.436,0.152,0.341
4287976,-2053.0,6989.0,4065.0,0.826,0.43,0.16,0.328
4288002,-1807.0,8141.0,4175.0,0.833,0.426,0.166,0.313
4288018,-1703.0,8371.0,4103.0,0.841,0.42,0.17,0.296
4288034,-1479.0,8031.0,4101.0,0.851,0.412,0.172,0.278
4288050,-1459.0,7741.0,4215.0,0.861,0.403,0.174,0.258
4288066,-1875.0,7167.0,4385.0,0.871,0.393,0.175,0.238
4288082,-2123.0,6755.0,4555.0,0.881,0.384,0.175,0.216
4288098,-2073.0,6627.0,4389.0,0.89,0.376,0.173,0.192
4288124,-2037.0,6477.0,4073.0,0.899,0.367,0.171,0.168
4288140,-2223.0,5867.0,4495.0,0.908,0.357,0.168,0.142
4288156,-2501.0,5267.0,5517.0,0.918,0.344,0.162,0.117
4288172,-2101.0,5347.0,6467.0,0.927,0.329,0.153,0.092
4288188,-973.0,6443.0,6751.0,0.937,0.312,0.142,0.07
4288204,341.0,7223.0,6629.0,0.946,0.293,0.131,0.052
4288231,1271.0,6745.0,6439.0,0.954,0.269,0.126,0.037
4288247,1237.0,5143.0,6625.0,0.962,0.243,0.125,0.023
4288263,1029.0,3483.0,6895.0,0.967,0.219,0.13,0.009
4288279,491.0,2781.0,6319.0,0.97,0.2,0.138,-0.006
4288295,91.0,2699.0,6645.0,0.971,0.185,0.148,-0.022
4288321,-373.0,2387.0,6407.0,0.971,0.175,0.158,-0.038
4288337,-523.0,1303.0,5611.0,0.97,0.169,0.167,-0.053
4288354,-479.0,195.0,4865.0,0.967,0.17,0.176,-0.067
4288370,-949.0,3453.0,5937.0,0.964,0.17,0.185,-0.083
4288386,-1985.0,4191.0,6989.0,0.963,0.162,0.193,-0.098
4288402,-2093.0,2305.0,5717.0,0.963,0.15,0.198,-0.109
4288419,-2517.0,-575.0,4233.0,0.963,0.14,0.198,-0.119
4288436,-3033.0,49.0,4853.0,0.963,0.135,0.194,-0.13
4288452,-2717.0,441.0,5741.0,0.964,0.13,0.186,-0.14
4288479,-2179.0,477.0,6837.0,0.966,0.123,0.175,-0.148
4288495,-1627.0,-2803.0,8843.0,0.967,0.115,0.165,-0.154
4288511,-1537.0,-2973.0,9277.0,0.968,0.117,0.153,-0.16
4288527,-1895.0,-4661.0,7943.0,0.968,0.126,0.143,-0.164
4288543,-1741.0,-2037.0,7963.0,0.966,0.145,0.135,-0.168
4288559,-2539.0,2399.0,7655.0,0.963,0.162,0.131,-0.168
4288585,-3755.0,2099.0,7523.0,0.962,0.175,0.128,-0.165
4288601,-4253.0,167.0,6435.0,0.961,0.19,0.122,-0.161
4288618,-4699.0,347.0,5481.0,0.957,0.215,0.112,-0.159
4288635,-4479.0,3147.0,4911.0,0.952,0.244,0.099,-0.158
4288652,-3645.0,6989.0,5135.0,0.947,0.268,0.084,-0.158
4288669,-2651.0,6541.0,6587.0,0.943,0.283,0.069,-0.158
4288686,-2425.0,5019.0,7783.0,0.941,0.294,0.054,-0.158
4288702,-1773.0,4727.0,7773.0,0.94,0.301,0.04,-0.158
4288718,-1435.0,3649.0,7175.0,0.939,0.305,0.028,-0.158
4288744,-1201.0,3377.0,7015.0,0.938,0.31,0.017,-0.156
4288760,-1305.0,4057.0,7443.0,0.936,0.316,0.007,-0.153
4288776,-1045.0,5317.0,7677.0,0.936,0.318,-0.002,-0.149
4288792,-361.0,6163.0,7625.0,0.94,0.311,-0.01,-0.143
4288808,-559.0,4347.0,6995.0,0.945,0.298,-0.017,-0.134
4288824,-1097.0,2825.0,6723.0,0.951,0.284,-0.025,-0.122
4288850,-1291.0,3191.0,6635.0,0.955,0.273,-0.034,-0.11
4288867,-205.0,4745.0,6275.0,0.96,0.259,-0.043,-0.097
4288883,203.0,4073.0,5815.0,0.966,0.238,-0.051,-0.085
4288899,-605.0,1947.0,5511.0,0.971,0.218,-0.06,-0.073
4288915,-205.0,1427.0,5337.0,0.974,0.205,-0.071,-0.062
4288931,793.0,3737.0,5315.0,0.975,0.196,-0.084,-0.053
4288957,1891.0,5423.0,6031.0,0.976,0.186,-0.099,-0.047
4288973,3505.0,4913.0,7823.0,0.978,0.172,-0.113,-0.042
4288989,4881.0,3797.0,8825.0,0.98,0.153,-0.125,-0.036
4289005,4411.0,2361.0,8017.0,0.982,0.132,-0.133,-0.027
4289021,4847.0,2471.0,7737.0,0.984,0.113,-0.136,-0.019
4289037,5077.0,2797.0,6949.0,0.986,0.094,-0.135,-0.01
4289063,3805.0,1529.0,5871.0,0.988,0.078,-0.131,-0.003
4289079,3545.0,1307.0,5567.0,0.99,0.062,-0.127,0.003
4289095,4419.0,737.0,6721.0,0.992,0.043,-0.12,0.009
4289111,3023.0,-1847.0,6921.0,0.993,0.023,-0.111,0.015
4289127,1867.0,-5343.0,7437.0,0.994,0.018,-0.104,0.023
4289143,2933.0,-2777.0,6877.0,0.994,0.022,-0.1,0.03
4289169,3229.0,-1355.0,6803.0,0.994,0.029,-0.096,0.036
4289185,2787.0,295.0,7307.0,0.994,0.039,-0.093,0.04
4289201,2527.0,1215.0,7601.0,0.994,0.048,-0.091,0.046
4289218,2291.0,1081.0,7619.0,0.993,0.056,-0.09,0.051
4289234,2033.0,-71.0,8041.0,0.992,0.063,-0.09,0.058
4289251,1993.0,1089.0,8279.0,0.991,0.072,-0.09,0.066
4289277,2153.0,2707.0,8393.0,0.99,0.08,-0.091,0.074
4289293,2439.0,3001.0,8205.0,0.989,0.086,-0.092,0.083
4289309,2417.0,2171.0,8189.0,0.987,0.092,-0.094,0.091
4289325,2193.0,2411.0,8387.0,0.986,0.098,-0.095,0.1
4289341,2345.0,1951.0,8417.0,0.984,0.101,-0.097,0.109
4289357,2389.0,1571.0,8319.0,0.983,0.104,-0.1,0.117
4289373,2497.0,1849.0,7939.0,0.981,0.106,-0.103,0.125
4289399,2505.0,1905.0,7727.0,0.98,0.107,-0.107,0.131
4289415,2697.0,1077.0,7753.0,0.978,0.108,-0.111,0.137
4289431,2751.0,1075.0,7919.0,0.977,0.109,-0.115,0.141
4289447,2745.0,1247.0,8015.0,0.976,0.111,-0.119,0.145
4289463,2485.0,1341.0,8345.0,0.975,0.114,-0.121,0.148
4289479,2731.0,2821.0,8611.0,0.974,0.117,-0.123,0.151
4289505,2553.0,4397.0,8539.0,0.973,0.12,-0.124,0.152
4289521,2805.0,3249.0,8985.0,0.973,0.121,-0.125,0.151
4289537,2945.0,1729.0,8925.0,0.973,0.122,-0.125,0.149
4289554,2371.0,-1183.0,8713.0,0.973,0.124,-0.123,0.148
4289570,1545.0,-15.0,8657.0,0.973,0.131,-0.122,0.148
4289586,1073.0,1659.0,8725.0,0.97,0.145,-0.12,0.151
4289612,1047.0,3301.0,8875.0,0.967,0.162,-0.121,0.157
4289628,1965.0,6483.0,9089.0,0.963,0.177,-0.124,0.162
4289644,2679.0,7559.0,8775.0,0.96,0.184,-0.13,0.165
4289660,3171.0,6607.0,8693.0,0.96,0.182,-0.137,0.165
4289676,2817.0,4385.0,8379.0,0.96,0.174,-0.145,0.163
4289693,2531.0,3523.0,8465.0,0.961,0.165,-0.152,0.162
4289709,2581.0,3929.0,8219.0,0.961,0.156,-0.159,0.162
4289735,2639.0,3461.0,8001.0,0.962,0.147,-0.164,0.161
4289751,2417.0,2919.0,7441.0,0.963,0.142,-0.168,0.158
4289768,3083.0,3473.0,7039.0,0.963,0.141,-0.17,0.155
4289784,4051.0,4911.0,6879.0,0.964,0.139,-0.172,0.15
4289801,4769.0,4809.0,7331.0,0.966,0.136,-0.169,0.142
4289818,3725.0,3383.0,6757.0,0.969,0.134,-0.163,0.128
4289834,3299.0,2945.0,6597.0,0.972,0.137,-0.156,0.113
4289851,2977.0,3119.0,6707.0,0.974,0.14,-0.149,0.097
4289868,2893.0,2575.0,6435.0,0.976,0.141,-0.142,0.081
4289894,2415.0,1967.0,6343.0,0.979,0.14,-0.135,0.065
4289910,2265.0,1505.0,6445.0,0.98,0.138,-0.131,0.05
4289926,2307.0,569.0,6641.0,0.982,0.135,-0.127,0.035
4289942,2319.0,-1187.0,7005.0,0.983,0.129,-0.126,0.02
4289958,1897.0,-2831.0,9897.0,0.984,0.124,-0.128,0.006
4289974,2095.0,-3525.0,12211.0,0.983,0.121,-0.136,-0.003
4290001,3217.0,-4239.0,9743.0,0.982,0.122,-0.147,-0.007
4290018,3077.0,-4215.0,8173.0,0.98,0.126,-0.153,-0.005
4290034,3593.0,-4685.0,8277.0,0.979,0.135,-0.155,0.001
4290050,2839.0,-3821.0,8921.0,0.977,0.15,-0.152,0.009
4290067,789.0,3839.0,9367.0,0.973,0.171,-0.151,0.023
4290083,5241.0,20329.0,3441.0,0.969,0.193,-0.15,0.041
4290100,4705.0,10535.0,2489.0,0.973,0.178,-0.135,0.052
4290117,151.0,5293.0,2785.0,0.979,0.152,-0.122,0.052
4290134,777.0,1421.0,4975.0,0.983,0.134,-0.115,0.049
4290161,-85.0,451.0,6447.0,0.984,0.126,-0.114,0.047
4290177,-271.0,737.0,6819.0,0.984,0.125,-0.12,0.046
4290193,1643.0,2805.0,6613.0,0.982,0.129,-0.13,0.043
4290209,3329.0,4425.0,6695.0,0.981,0.129,-0.139,0.04
4290225,3899.0,3339.0,7065.0,0.981,0.122,-0.145,0.035
4290241,3385.0,1521.0,7731.0,0.982,0.113,-0.147,0.029
4290267,3105.0,825.0,8101.0,0.983,0.105,-0.147,0.024
4290284,2599.0,855.0,7571.0,0.984,0.101,-0.145,0.02
4290301,2653.0,1559.0,7301.0,0.985,0.099,-0.142,0.016
4290317,2047.0,1549.0,7065.0,0.985,0.098,-0.14,0.01
4290334,1637.0,1201.0,6811.0,0.986,0.098,-0.138,0.004
4290350,1793.0,1461.0,6729.0,0.986,0.098,-0.138,-0.001
4290367,2375.0,2011.0,6769.0,0.986,0.097,-0.138,-0.007
4290383,2643.0,2367.0,6859.0,0.986,0.094,-0.139,-0.012
4290400,2531.0,1741.0,6919.0,0.986,0.089,-0.139,-0.018
4290417,2427.0,953.0,7035.0,0.986,0.085,-0.14,-0.025
4290444,2773.0,1131.0,7341.0,0.986,0.083,-0.142,-0.032
4290460,3045.0,1487.0,7519.0,0.986,0.081,-0.143,-0.04
4290476,2731.0,859.0,7415.0,0.985,0.079,-0.144,-0.048
4290492,2229.0,-27.0,7421.0,0.985,0.078,-0.145,-0.057
4290508,1961.0,-191.0,7655.0,0.984,0.077,-0.146,-0.064
4290524,2209.0,443.0,7789.0,0.984,0.075,-0.148,-0.07
4290550,2549.0,647.0,7545.0,0.983,0.073,-0.149,-0.075
4290566,2527.0,-69.0,7505.0,0.983,0.07,-0.15,-0.079
4290583,2077.0,-647.0,7857.0,0.983,0.067,-0.151,-0.084
4290599,2305.0,-235.0,7909.0,0.982,0.066,-0.154,-0.088
4290616,2745.0,603.0,7869.0,0.981,0.065,-0.156,-0.091
4290632,3021.0,617.0,7845.0,0.981,0.063,-0.158,-0.094
4290648,2749.0,-343.0,8035.0,0.98,0.06,-0.16,-0.098
4290665,2547.0,-1263.0,8085.0,0.98,0.058,-0.162,-0.101
4290691,2715.0,-1163.0,8209.0,0.979,0.058,-0.164,-0.103
4290707,3247.0,-203.0,8151.0,0.979,0.059,-0.167,-0.103
4290723,3461.0,509.0,8031.0,0.979,0.059,-0.169,-0.103
4290739,3177.0,259.0,7973.0,0.979,0.058,-0.169,-0.102
4290755,2963.0,201.0,8033.0,0.979,0.057,-0.17,-0.101
4290771,2735.0,267.0,7941.0,0.979,0.057,-0.171,-0.1
4290797,2675.0,741.0,7961.0,0.979,0.057,-0.172,-0.098
4290814,2813.0,1289.0,7991.0,0.979,0.056,-0.173,-0.096
4290830,2835.0,1959.0,8097.0,0.979,0.056,-0.174,-0.095
4290846,2743.0,2017.0,8067.0,0.979,0.054,-0.174,-0.093
4290862,2441.0,1691.0,7929.0,0.979,0.052,-0.175,-0.092
4290878,2601.0,2233.0,7989.0,0.979,0.051,-0.175,-0.091
4290904,2695.0,2811.0,7961.0,0.979,0.05,-0.175,-0.091
4290920,2437.0,2685.0,7823.0,0.979,0.048,-0.175,-0.091
4290936,2231.0,2423.0,7805.0,0.979,0.047,-0.175,-0.093
4290953,2289.0,2531.0,7755.0,0.979,0.046,-0.175,-0.095
4290969,2293.0,2643.0,7609.0,0.979,0.045,-0.175,-0.098
4290985,2521.0,2625.0,7623.0,0.979,0.044,-0.174,-0.101
4291001,2591.0,2511.0,7529.0,0.978,0.042,-0.174,-0.105
4291028,2643.0,2229.0,7545.0,0.978,0.04,-0.174,-0.109
4291044,2529.0,1843.0,7501.0,0.977,0.039,-0.173,-0.114
4291060,2749.0,1845.0,7511.0,0.977,0.038,-0.173,-0.12
4291076,2939.0,1879.0,7437.0,0.976,0.037,-0.173,-0.126
4291092,3091.0,1607.0,7357.0,0.976,0.035,-0.172,-0.132
4291108,2781.0,1051.0,7297.0,0.975,0.033,-0.171,-0.139
4291134,2699.0,851.0,7335.0,0.974,0.032,-0.171,-0.146
4291150,2901.0,901.0,7341.0,0.973,0.032,-0.171,-0.152
4291166,3099.0,627.0,7311.0,0.972,0.03,-0.17,-0.159
4291182,2885.0,-111.0,7307.0,0.971,0.029,-0.17,-0.166
4291198,2845.0,-377.0,7441.0,0.97,0.028,-0.17,-0.172
4291214,2899.0,-461.0,7537.0,0.969,0.028,-0.17,-0.177
4291240,3085.0,-385.0,7555.0,0.968,0.027,-0.171,-0.182
4291257,3133.0,-553.0,7687.0,0.967,0.026,-0.171,-0.187
4291274,3087.0,-927.0,7791.0,0.966,0.025,-0.172,-0.191
4291291,3051.0,-1397.0,7789.0,0.966,0.024,-0.172,-0.194
4291307,3099.0,-1937.0,7757.0,0.965,0.024,-0.173,-0.196
4291324,3249.0,-2123.0,7781.0,0.965,0.024,-0.174,-0.197
4291340,3239.0,-2493.0,7933.0,0.964,0.025,-0.175,-0.197
4291356,3283.0,-2649.0,8215.0,0.964,0.026,-0.176,-0.197
4291382,3393.0,-2799.0,8215.0,0.964,0.029,-0.177,-0.195
4291399,3649.0,-2979.0,8155.0,0.965,0.034,-0.178,-0.191
4291416,3309.0,-3053.0,7827.0,0.965,0.041,-0.179,-0.186
4291432,3693.0,-1495.0,7323.0,0.966,0.049,-0.179,-0.179
4291449,3727.0,-543.0,7079.0,0.967,0.056,-0.18,-0.17
4291465,3809.0,-1177.0,7101.0,0.968,0.06,-0.18,-0.162
4291481,3913.0,-2625.0,7105.0,0.969,0.066,-0.18,-0.152
4291497,4309.0,-3389.0,7487.0,0.97,0.077,-0.181,-0.142
4291514,4669.0,-3861.0,7465.0,0.97,0.093,-0.183,-0.131
4291540,5115.0,-3575.0,7087.0,0.969,0.117,-0.184,-0.118
4291556,5595.0,-2539.0,6153.0,0.966,0.148,-0.184,-0.104
4291572,5647.0,-1341.0,5857.0,0.962,0.185,-0.182,-0.09
4291589,6107.0,-175.0,5535.0,0.955,0.226,-0.179,-0.077
4291605,6591.0,1387.0,5343.0,0.945,0.268,-0.176,-0.063
4291621,7105.0,2883.0,5043.0,0.935,0.308,-0.17,-0.051
4291647,8051.0,3901.0,4511.0,0.925,0.342,-0.162,-0.039
4291664,8267.0,3933.0,3869.0,0.917,0.368,-0.149,-0.03
4291680,7611.0,3091.0,3449.0,0.912,0.388,-0.133,-0.019
4291696,6153.0,1869.0,3483.0,0.908,0.404,-0.113,-0.005
4291712,5461.0,897.0,3195.0,0.902,0.421,-0.094,0.014
4291728,4901.0,2239.0,2511.0,0.893,0.442,-0.079,0.039
4291744,5521.0,4349.0,1513.0,0.88,0.465,-0.066,0.067
4291770,6029.0,5615.0,639.0,0.865,0.49,-0.056,0.097
4291786,6333.0,6581.0,-649.0,0.848,0.513,-0.044,0.127
4291803,6089.0,7539.0,-1721.0,0.83,0.534,-0.03,0.155
4291819,5745.0,8801.0,-2407.0,0.814,0.551,-0.016,0.183
4291836,5845.0,9703.0,-2593.0,0.8,0.563,-0.004,0.21
4291853,5695.0,9281.0,-2835.0,0.788,0.568,0.007,0.238
4291869,5333.0,8639.0,-2547.0,0.778,0.568,0.015,0.266
4291895,5315.0,7807.0,-2579.0,0.769,0.568,0.022,0.294
4291911,5831.0,7531.0,-2429.0,0.757,0.569,0.026,0.321
4291927,6209.0,7577.0,-2545.0,0.743,0.572,0.031,0.346
4291943,6151.0,7511.0,-2821.0,0.729,0.575,0.037,0.369
4291959,6401.0,7861.0,-3185.0,0.714,0.58,0.044,0.39
4291975,6567.0,9027.0,-3501.0,0.698,0.585,0.051,0.409
4292001,6487.0,9749.0,-3795.0,0.683,0.589,0.058,0.427
4292017,6045.0,9841.0,-3935.0,0.67,0.592,0.063,0.443
4292033,6337.0,10289.0,-4145.0,0.659,0.593,0.067,0.458
4292049,6879.0,11111.0,-4159.0,0.649,0.593,0.07,0.471
4292066,5795.0,10199.0,-3777.0,0.641,0.593,0.072,0.482
4292083,4725.0,9123.0,-3581.0,0.633,0.594,0.074,0.49
4292099,5207.0,10145.0,-3677.0,0.623,0.599,0.078,0.497
4292126,4779.0,11987.0,-3517.0,0.613,0.606,0.084,0.5
4292142,3767.0,13193.0,-3211.0,0.604,0.613,0.089,0.502
4292158,2421.0,13439.0,-2563.0,0.597,0.619,0.093,0.502
4292174,1097.0,13425.0,-2117.0,0.59,0.626,0.097,0.5
4292190,91.0,13971.0,-1761.0,0.586,0.632,0.1,0.498
4292206,-853.0,14427.0,-1393.0,0.585,0.634,0.102,0.495
4292222,-1693.0,15087.0,-793.0,0.588,0.635,0.103,0.491
4292248,-2243.0,14763.0,251.0,0.595,0.633,0.101,0.485
4292264,-2057.0,14545.0,1193.0,0.608,0.628,0.098,0.476
4292280,-1993.0,13231.0,1997.0,0.625,0.621,0.094,0.464
4292296,-1245.0,12763.0,2569.0,0.645,0.612,0.089,0.45
4292312,-197.0,12125.0,3031.0,0.668,0.598,0.083,0.435
4292338,473.0,10541.0,3673.0,0.694,0.578,0.079,0.421
4292354,-47.0,7851.0,3529.0,0.721,0.556,0.075,0.407
4292370,-165.0,6585.0,3561.0,0.745,0.536,0.071,0.391
4292386,205.0,5725.0,3119.0,0.767,0.519,0.065,0.373
4292402,153.0,3887.0,2499.0,0.784,0.508,0.059,0.352
4292418,755.0,2461.0,2153.0,0.797,0.503,0.052,0.33
4292444,869.0,1901.0,1817.0,0.805,0.504,0.044,0.308
4292460,989.0,2199.0,1815.0,0.809,0.511,0.035,0.289
4292476,1757.0,4107.0,1815.0,0.809,0.521,0.023,0.272
4292492,2729.0,5727.0,1733.0,0.81,0.527,0.006,0.256
4292508,3467.0,6609.0,1997.0,0.814,0.529,-0.014,0.241
4292524,4235.0,5605.0,2095.0,0.819,0.526,-0.033,0.226
4292550,4347.0,3491.0,2429.0,0.822,0.527,-0.051,0.211
4292567,3893.0,1259.0,2485.0,0.818,0.537,-0.065,0.196
4292583,3737.0,1677.0,2021.0,0.804,0.561,-0.077,0.182
4292599,4415.0,4967.0,763.0,0.782,0.594,-0.088,0.17
4292615,5499.0,9181.0,-95.0,0.757,0.625,-0.099,0.162
4292631,5431.0,13757.0,-657.0,0.738,0.647,-0.11,0.154
4292647,4725.0,12311.0,-307.0,0.728,0.659,-0.122,0.144
4292673,4379.0,6177.0,1533.0,0.718,0.67,-0.131,0.136
4292689,3865.0,4207.0,2765.0,0.699,0.69,-0.135,0.13
4292705,3859.0,8871.0,2821.0,0.675,0.714,-0.137,0.126
4292721,2201.0,9945.0,1363.0,0.656,0.731,-0.136,0.124
4292737,1761.0,9403.0,287.0,0.644,0.743,-0.138,0.123
4292753,1253.0,8033.0,-1593.0,0.633,0.752,-0.14,0.122
4292779,1441.0,9433.0,-3203.0,0.623,0.76,-0.143,0.12
4292795,2961.0,11445.0,-3805.0,0.618,0.763,-0.146,0.117
4292811,2675.0,9573.0,-3227.0,0.617,0.765,-0.149,0.113
4292827,5469.0,7759.0,541.0,0.615,0.767,-0.148,0.108
4292843,4129.0,6741.0,2509.0,0.611,0.77,-0.146,0.108
4292859,2755.0,7687.0,195.0,0.608,0.773,-0.146,0.108
4292885,3857.0,5963.0,-3061.0,0.608,0.773,-0.148,0.109
4292901,5073.0,4461.0,-3401.0,0.608,0.772,-0.15,0.11
4292918,5721.0,5817.0,-1941.0,0.608,0.771,-0.151,0.113
4292934,5915.0,7821.0,-1777.0,0.61,0.77,-0.15,0.114
4292950,6581.0,11191.0,-1889.0,0.611,0.769,-0.149,0.114
4292967,5385.0,8507.0,-2417.0,0.618,0.764,-0.146,0.115
4292983,5083.0,6411.0,-1893.0,0.624,0.76,-0.144,0.116
4293009,5107.0,6941.0,-1695.0,0.627,0.757,-0.141,0.116
4293025,5927.0,7991.0,-2431.0,0.629,0.757,-0.137,0.115
4293041,6257.0,8659.0,-2507.0,0.631,0.756,-0.132,0.113
4293057,5083.0,9405.0,-2049.0,0.632,0.757,-0.125,0.112
4293073,4779.0,8637.0,-841.0,0.632,0.758,-0.117,0.112
4293099,3359.0,9849.0,-845.0,0.631,0.761,-0.106,0.11
4293116,3161.0,11385.0,-655.0,0.631,0.762,-0.094,0.109
4293132,2997.0,9379.0,-241.0,0.632,0.763,-0.082,0.108
4293148,2929.0,10543.0,-219.0,0.632,0.764,-0.067,0.105
4293165,2663.0,10475.0,-373.0,0.634,0.765,-0.053,0.102
4293182,2457.0,9605.0,-241.0,0.636,0.764,-0.038,0.098
4293198,2659.0,9555.0,-655.0,0.638,0.764,-0.022,0.095
4293214,2811.0,9399.0,-967.0,0.64,0.763,-0.007,0.092
4293240,2351.0,8631.0,-645.0,0.643,0.76,0.008,0.09
4293256,1827.0,7805.0,-269.0,0.647,0.757,0.023,0.088
4293272,2169.0,7665.0,-497.0,0.65,0.754,0.037,0.087
4293288,2029.0,7447.0,-519.0,0.655,0.749,0.051,0.087
4293304,1749.0,6699.0,-555.0,0.659,0.744,0.065,0.088
4293320,1637.0,6185.0,-483.0,0.664,0.739,0.077,0.09
4293346,1225.0,6265.0,-479.0,0.667,0.733,0.089,0.094
4293362,1103.0,5833.0,-525.0,0.671,0.728,0.1,0.099
4293378,909.0,5951.0,-945.0,0.675,0.722,0.109,0.106
4293394,1301.0,5333.0,-1069.0,0.678,0.716,0.118,0.115
4293410,757.0,5709.0,-1301.0,0.681,0.711,0.126,0.125
4293426,-61.0,5275.0,-1395.0,0.682,0.706,0.134,0.137
4293452,247.0,5737.0,-1951.0,0.683,0.701,0.141,0.151
4293468,-203.0,5635.0,-2377.0,0.683,0.695,0.149,0.167
4293484,-139.0,6575.0,-2967.0,0.682,0.69,0.158,0.185
4293501,481.0,8241.0,-3263.0,0.68,0.684,0.167,0.204
4293518,-935.0,6177.0,-1707.0,0.68,0.676,0.174,0.226
4293534,-581.0,7703.0,-1507.0,0.68,0.668,0.179,0.245
4293550,189.0,7943.0,-1527.0,0.68,0.659,0.181,0.264
4293576,205.0,7515.0,-1107.0,0.68,0.652,0.181,0.282
4293592,389.0,7949.0,-435.0,0.68,0.645,0.18,0.299
4293608,387.0,7783.0,63.0,0.68,0.639,0.177,0.315
4293624,1163.0,7279.0,-251.0,0.68,0.633,0.171,0.329
4293640,1449.0,6569.0,5.0,0.68,0.628,0.165,0.341
4293656,1855.0,6887.0,-31.0,0.679,0.625,0.157,0.353
4293682,2215.0,6731.0,205.0,0.677,0.621,0.149,0.364
4293699,2501.0,6511.0,511.0,0.675,0.618,0.14,0.377
4293715,2795.0,6007.0,653.0,0.672,0.616,0.133,0.389
4293731,3321.0,6875.0,515.0,0.668,0.614,0.125,0.402
4293748,3235.0,6703.0,645.0,0.663,0.612,0.119,0.415
4293764,3685.0,6889.0,527.0,0.657,0.61,0.114,0.429
4293780,3351.0,6307.0,559.0,0.651,0.606,0.109,0.444
4293806,3221.0,7165.0,933.0,0.645,0.602,0.105,0.458
4293822,3647.0,6045.0,1357.0,0.638,0.6,0.101,0.472
4293838,3901.0,6331.0,1085.0,0.629,0.598,0.098,0.487
4293854,3975.0,6939.0,1617.0,0.619,0.598,0.094,0.5
4293870,3947.0,7855.0,1887.0,0.61,0.597,0.089,0.513
4293886,3993.0,6625.0,1655.0,0.601,0.597,0.083,0.525
4293912,4629.0,4845.0,1563.0,0.591,0.598,0.078,0.537
4293928,5169.0,5633.0,1237.0,0.578,0.601,0.074,0.547
4293944,5483.0,6491.0,1341.0,0.564,0.604,0.071,0.558
4293961,5221.0,6695.0,1747.0,0.551,0.607,0.067,0.568
4293977,5343.0,6479.0,1639.0,0.539,0.609,0.062,0.578
4293993,5759.0,4451.0,1011.0,0.525,0.613,0.058,0.588
4294019,6115.0,4959.0,563.0,0.51,0.617,0.056,0.596
4294035,5811.0,6275.0,1121.0,0.496,0.622,0.054,0.604
4294051,6237.0,6871.0,1327.0,0.481,0.626,0.052,0.611
4294067,6087.0,6393.0,1179.0,0.467,0.63,0.049,0.618
4294083,6283.0,6187.0,1005.0,0.453,0.635,0.045,0.624
4294099,6459.0,6217.0,921.0,0.44,0.639,0.041,0.63
4294125,6075.0,6369.0,1283.0,0.427,0.643,0.036,0.634
4294141,6835.0,6313.0,939.0,0.415,0.647,0.03,0.639
4294157,6755.0,5811.0,897.0,0.403,0.651,0.025,0.642
4294173,6765.0,6521.0,1361.0,0.393,0.654,0.019,0.646
4294189,6159.0,5669.0,1415.0,0.384,0.656,0.013,0.65
4294205,6523.0,5669.0,1281.0,0.376,0.657,0.007,0.653
4294231,6689.0,5491.0,1479.0,0.37,0.658,0.001,0.656
4294248,6191.0,5527.0,911.0,0.364,0.658,-0.005,0.659
4294265,7071.0,5931.0,1241.0,0.359,0.658,-0.011,0.662
4294281,6693.0,4333.0,1029.0,0.355,0.657,-0.016,0.664
4294297,6671.0,4123.0,1059.0,0.351,0.658,-0.021,0.666
4294313,7737.0,4921.0,981.0,0.347,0.658,-0.025,0.668
4294329,7555.0,4407.0,947.0,0.342,0.66,-0.028,0.669
4294355,7317.0,4633.0,1173.0,0.337,0.661,-0.031,0.669
4294371,7299.0,4635.0,1075.0,0.332,0.664,-0.035,0.669
4294387,7677.0,4633.0,927.0,0.327,0.667,-0.039,0.668
4294403,7555.0,4703.0,663.0,0.322,0.67,-0.045,0.667
4294419,7881.0,4231.0,281.0,0.318,0.673,-0.052,0.665
4294435,7877.0,3923.0,283.0,0.315,0.676,-0.06,0.664
4294461,7661.0,3221.0,205.0,0.312,0.678,-0.069,0.662
4294477,7429.0,2705.0,155.0,0.309,0.68,-0.079,0.66
4294493,7069.0,2705.0,143.0,0.307,0.681,-0.088,0.659
4294509,7155.0,2425.0,97.0,0.304,0.682,-0.099,0.658
4294525,7861.0,2527.0,-465.0,0.301,0.682,-0.11,0.658
4294541,8047.0,1485.0,-743.0,0.3,0.68,-0.121,0.658
4294567,8453.0,1519.0,-425.0,0.3,0.676,-0.13,0.661
4294583,8945.0,2611.0,-67.0,0.301,0.67,-0.14,0.664
4294600,8989.0,2411.0,341.0,0.302,0.662,-0.15,0.669
4294616,8833.0,739.0,425.0,0.302,0.654,-0.16,0.674
4294633,9687.0,385.0,691.0,0.303,0.647,-0.168,0.68
4294649,9799.0,763.0,1013.0,0.303,0.64,-0.174,0.684
4294665,9351.0,1139.0,1257.0,0.306,0.634,-0.18,0.687
4294682,8389.0,1641.0,1739.0,0.31,0.628,-0.187,0.689
4294708,8193.0,1379.0,1609.0,0.315,0.624,-0.193,0.688
4294724,8211.0,-679.0,1903.0,0.32,0.622,-0.199,0.686
4294740,8617.0,-477.0,1407.0,0.321,0.623,-0.202,0.685
4294756,8337.0,-199.0,1303.0,0.318,0.626,-0.202,0.683
4294772,8033.0,895.0,1287.0,0.313,0.631,-0.2,0.681
4294798,8103.0,805.0,943.0,0.308,0.637,-0.2,0.677
4294814,8077.0,673.0,859.0,0.302,0.644,-0.199,0.674
4294830,8063.0,1431.0,129.0,0.295,0.651,-0.2,0.671
4294846,8325.0,1167.0,-215.0,0.287,0.657,-0.201,0.668
4294862,8463.0,329.0,-403.0,0.279,0.662,-0.202,0.666
4294878,8737.0,611.0,-703.0,0.27,0.666,-0.202,0.665
4294904,8723.0,1075.0,-613.0,0.262,0.668,-0.203,0.666
4294920,8571.0,1357.0,-455.0,0.256,0.668,-0.203,0.668
4294936,8533.0,2163.0,-477.0,0.254,0.667,-0.204,0.67
4294952,8245.0,1747.0,-507.0,0.255,0.663,-0.207,0.673
4294968,7527.0,-431.0,-79.0,0.256,0.659,-0.21,0.675
4294984,8291.0,-767.0,-281.0,0.256,0.656,-0.209,0.678
4295010,8193.0,-785.0,-193.0,0.255,0.654,-0.207,0.681
4295026,7809.0,-365.0,745.0,0.254,0.654,-0.201,0.684
4295042,7765.0,1337.0,849.0,0.253,0.654,-0.195,0.685
4295058,8209.0,1631.0,715.0,0.253,0.656,-0.19,0.685
4295074,8009.0,1679.0,685.0,0.252,0.658,-0.187,0.685
4295090,8193.0,1661.0,955.0,0.252,0.66,-0.186,0.683
4295116,8645.0,1295.0,643.0,0.251,0.663,-0.187,0.68
4295132,8763.0,857.0,223.0,0.25,0.666,-0.188,0.678
4295148,9055.0,1369.0,55.0,0.25,0.668,-0.189,0.675
4295164,8923.0,1125.0,39.0,0.25,0.669,-0.192,0.673
4295180,9007.0,975.0,-147.0,0.251,0.669,-0.194,0.672
4295196,8855.0,447.0,77.0,0.252,0.669,-0.197,0.671
4295222,8771.0,929.0,211.0,0.253,0.669,-0.2,0.67
4295238,9187.0,991.0,123.0,0.255,0.668,-0.204,0.669
4295254,9353.0,605.0,165.0,0.257,0.667,-0.208,0.668
4295270,9671.0,27.0,-69.0,0.26,0.666,-0.212,0.667
4295286,9277.0,243.0,131.0,0.262,0.665,-0.216,0.666
4295302,8973.0,655.0,593.0,0.265,0.663,-0.22,0.664
4295328,8691.0,527.0,493.0,0.268,0.662,-0.226,0.662
4295344,8443.0,439.0,475.0,0.271,0.661,-0.231,0.66
4295360,7801.0,887.0,629.0,0.275,0.66,-0.237,0.657
4295376,7133.0,1075.0,745.0,0.278,0.66,-0.244,0.654
4295392,6797.0,997.0,695.0,0.282,0.659,-0.251,0.65
4295408,7035.0,629.0,499.0,0.286,0.658,-0.259,0.647
4295434,7053.0,83.0,169.0,0.29,0.657,-0.266,0.644
4295450,7153.0,85.0,-11.0,0.293,0.655,-0.271,0.642
4295466,7269.0,201.0,109.0,0.297,0.652,-0.275,0.641
4295483,7379.0,-123.0,55.0,0.3,0.65,-0.278,0.641
4295499,7545.0,-91.0,87.0,0.303,0.647,-0.279,0.642
4295515,7541.0,195.0,-81.0,0.305,0.644,-0.279,0.644
4295532,7617.0,143.0,-179.0,0.308,0.64,-0.279,0.646
4295558,7423.0,425.0,-185.0,0.31,0.636,-0.279,0.649
4295574,7259.0,303.0,127.0,0.313,0.632,-0.279,0.652
4295590,6983.0,313.0,323.0,0.316,0.628,-0.279,0.654
4295606,7139.0,509.0,309.0,0.318,0.625,-0.28,0.655
4295622,7031.0,989.0,53.0,0.321,0.622,-0.283,0.656
4295638,7237.0,-201.0,-49.0,0.325,0.618,-0.286,0.656
4295664,7275.0,-459.0,-229.0,0.327,0.616,-0.288,0.657
4295684,7903.0,15.0,-269.0,0.33,0.613,-0.29,0.656
4295700,8073.0,9.0,-53.0,0.333,0.611,-0.293,0.656
4295716,8597.0,-223.0,181.0,0.336,0.61,-0.295,0.655
4295732,8791.0,-265.0,257.0,0.338,0.609,-0.296,0.653
4295748,8841.0,21.0,387.0,0.34,0.609,-0.298,0.652
4295764,8629.0,583.0,535.0,0.341,0.61,-0.3,0.65
4295780,8745.0,355.0,249.0,0.342,0.611,-0.302,0.647
4295806,8647.0,171.0,143.0,0.343,0.612,-0.306,0.643
4295822,8557.0,-9.0,23.0,0.344,0.614,-0.309,0.64
4295838,8853.0,-279.0,-73.0,0.344,0.615,-0.312,0.637
4295854,8635.0,-205.0,-87.0,0.344,0.615,-0.314,0.636
4295870,8395.0,-99.0,87.0,0.344,0.616,-0.316,0.634
4295886,8409.0,125.0,157.0,0.343,0.616,-0.318,0.634
4295912,8389.0,287.0,315.0,0.341,0.616,-0.32,0.633
4295928,8519.0,367.0,495.0,0.34,0.616,-0.323,0.633
4295944,8395.0,97.0,521.0,0.338,0.615,-0.326,0.633
4295960,8557.0,-161.0,431.0,0.335,0.615,-0.329,0.633
4295976,8687.0,-349.0,337.0,0.333,0.615,-0.333,0.632
4295992,8787.0,-385.0,275.0,0.331,0.615,-0.335,0.632
4296018,8705.0,21.0,189.0,0.33,0.616,-0.338,0.631
4296034,8795.0,127.0,165.0,0.33,0.616,-0.34,0.63
4296050,8641.0,103.0,115.0,0.33,0.615,-0.343,0.629
4296066,8305.0,43.0,273.0,0.33,0.615,-0.345,0.627
4296083,8097.0,-669.0,301.0,0.33,0.615,-0.348,0.626
4296099,8129.0,-697.0,585.0,0.33,0.616,-0.351,0.624
4296125,8517.0,101.0,275.0,0.328,0.618,-0.352,0.622
4296141,8593.0,493.0,-91.0,0.327,0.619,-0.354,0.62
4296157,8595.0,519.0,-347.0,0.327,0.621,-0.356,0.618
4296173,8505.0,197.0,-441.0,0.326,0.621,-0.358,0.616
4296189,8289.0,-387.0,-343.0,0.327,0.621,-0.36,0.615
4296205,8089.0,-309.0,-351.0,0.327,0.622,-0.361,0.614
4296231,8131.0,-93.0,-377.0,0.328,0.622,-0.361,0.613
4296248,8067.0,135.0,-585.0,0.329,0.621,-0.362,0.612
4296264,7881.0,-27.0,-393.0,0.33,0.62,-0.363,0.612
4296281,7719.0,-53.0,-281.0,0.332,0.618,-0.363,0.613
4296298,7691.0,-13.0,-141.0,0.333,0.617,-0.364,0.613
4296315,7743.0,5.0,-177.0,0.334,0.615,-0.366,0.613
4296331,7963.0,-121.0,-161.0,0.335,0.613,-0.367,0.614
4296347,7951.0,-5.0,-151.0,0.336,0.612,-0.369,0.614
4296373,7965.0,-77.0,-87.0,0.337,0.61,-0.371,0.614
4296389,8133.0,-263.0,-131.0,0.337,0.608,-0.373,0.614
4296405,8297.0,-323.0,-159.0,0.338,0.607,-0.375,0.614
4296421,8351.0,-255.0,-207.0,0.339,0.606,-0.377,0.613
4296437,8417.0,-313.0,-219.0,0.339,0.605,-0.378,0.613
4296453,8403.0,-333.0,-317.0,0.34,0.604,-0.38,0.613
4296479,8453.0,-249.0,-205.0,0.341,0.603,-0.38,0.613
4296495,8335.0,-217.0,-195.0,0.341,0.602,-0.381,0.613
4296511,8301.0,-169.0,-167.0,0.342,0.601,-0.383,0.613
4296527,8355.0,-293.0,-285.0,0.344,0.6,-0.384,0.612
4296543,8253.0,-363.0,-97.0,0.345,0.599,-0.384,0.612
4296559,8199.0,111.0,-25.0,0.346,0.599,-0.385,0.611
4296585,8269.0,-103.0,-31.0,0.347,0.598,-0.385,0.611
4296601,8225.0,-69.0,-73.0,0.349,0.597,-0.385,0.611
4296618,8307.0,-15.0,11.0,0.35,0.596,-0.386,0.611
4296634,8225.0,5.0,99.0,0.351,0.595,-0.386,0.611
4296651,8273.0,-59.0,129.0,0.353,0.594,-0.387,0.611
4296667,8305.0,-123.0,-33.0,0.354,0.594,-0.387,0.61
4296683,8419.0,-215.0,39.0,0.355,0.593,-0.387,0.61
4296709,8401.0,-211.0,57.0,0.356,0.593,-0.387,0.61
4296725,8333.0,31.0,89.0,0.358,0.593,-0.387,0.609
4296741,8453.0,39.0,-17.0,0.359,0.592,-0.387,0.609
4296757,8329.0,-323.0,-33.0,0.361,0.592,-0.386,0.608
4296773,8469.0,793.0,75.0,0.363,0.592,-0.385,0.608
4296789,8443.0,441.0,541.0,0.365,0.592,-0.384,0.608
4296815,8785.0,965.0,437.0,0.369,0.592,-0.382,0.607
4296831,8705.0,1905.0,903.0,0.375,0.591,-0.38,0.605
4296847,8975.0,2373.0,1543.0,0.38,0.59,-0.378,0.603
4296863,9527.0,3905.0,1513.0,0.387,0.588,-0.376,0.602
4296879,9363.0,3541.0,2339.0,0.395,0.586,-0.374,0.601
4296905,9311.0,4813.0,3169.0,0.404,0.583,-0.371,0.6
4296921,9163.0,4201.0,3847.0,0.415,0.58,-0.367,0.597
4296937,9571.0,4105.0,4305.0,0.427,0.578,-0.362,0.593
4296953,10317.0,5657.0,3675.0,0.441,0.576,-0.354,0.59
4296969,10285.0,5873.0,3859.0,0.456,0.573,-0.346,0.587
4296985,9999.0,6043.0,5171.0,0.472,0.568,-0.336,0.584
4297001,10099.0,6389.0,5143.0,0.49,0.563,-0.325,0.581
4297027,10591.0,6857.0,4975.0,0.509,0.557,-0.314,0.577
4297043,11777.0,6881.0,4599.0,0.53,0.549,-0.302,0.572
4297060,12469.0,6757.0,4337.0,0.552,0.539,-0.288,0.567
4297076,12593.0,7809.0,4937.0,0.575,0.527,-0.274,0.562
4297092,13369.0,6931.0,5101.0,0.599,0.514,-0.259,0.556
4297108,14367.0,6921.0,4575.0,0.624,0.5,-0.242,0.549
4297134,14203.0,7131.0,4601.0,0.649,0.485,-0.225,0.542
4297150,14303.0,6303.0,4167.0,0.674,0.467,-0.208,0.533
4297166,13999.0,5111.0,3907.0,0.699,0.449,-0.189,0.524
4297182,13493.0,5393.0,3795.0,0.724,0.43,-0.168,0.513
4297198,12429.0,5125.0,3549.0,0.747,0.41,-0.148,0.502
4297214,11647.0,4259.0,3243.0,0.77,0.389,-0.128,0.49
4297240,10351.0,3411.0,3287.0,0.79,0.368,-0.108,0.478
4297256,9711.0,3465.0,2709.0,0.809,0.347,-0.089,0.465
4297272,8447.0,3301.0,3051.0,0.827,0.325,-0.072,0.453
4297288,7545.0,2007.0,2803.0,0.842,0.304,-0.057,0.441
4297304,6955.0,2175.0,2751.0,0.856,0.285,-0.043,0.43
4297320,5909.0,1627.0,2995.0,0.868,0.265,-0.03,0.418
4297346,5807.0,1227.0,2339.0,0.879,0.247,-0.017,0.408
4297362,4543.0,1313.0,2407.0,0.888,0.23,-0.003,0.398
4297379,3995.0,1611.0,2879.0,0.896,0.213,0.008,0.39
4297395,3351.0,1165.0,3113.0,0.903,0.197,0.018,0.382
4297411,2847.0,739.0,3305.0,0.909,0.182,0.027,0.375
4297427,2653.0,1571.0,3185.0,0.914,0.167,0.034,0.369
4297453,1913.0,669.0,3175.0,0.918,0.153,0.04,0.364
4297469,1827.0,581.0,3523.0,0.922,0.138,0.045,0.359
4297485,1599.0,639.0,3309.0,0.925,0.124,0.049,0.355
4297501,1693.0,867.0,2881.0,0.928,0.109,0.053,0.352
4297517,2023.0,-889.0,2233.0,0.93,0.095,0.059,0.35
4297533,2443.0,-369.0,1513.0,0.931,0.081,0.068,0.348
4297559,1729.0,-671.0,1603.0,0.932,0.068,0.08,0.347
4297575,85.0,-1385.0,1951.0,0.932,0.055,0.093,0.346
4297591,-961.0,-879.0,2281.0,0.932,0.046,0.103,0.344
4297607,-1837.0,-795.0,2297.0,0.932,0.038,0.108,0.343
4297623,-1767.0,-1345.0,1825.0,0.933,0.031,0.11,0.342
4297639,-1697.0,-1341.0,1707.0,0.933,0.027,0.108,0.342
4297665,-1811.0,-1511.0,1573.0,0.934,0.025,0.105,0.342
4297681,-1485.0,-1145.0,1841.0,0.934,0.024,0.099,0.342
4297702,-1225.0,-1585.0,2287.0,0.935,0.025,0.09,0.343
4297718,-775.0,-1587.0,2131.0,0.935,0.029,0.08,0.344
4297734,253.0,-717.0,2147.0,0.936,0.033,0.069,0.344
4297750,365.0,-1419.0,2693.0,0.936,0.038,0.058,0.346
4297766,731.0,-1257.0,2921.0,0.935,0.046,0.046,0.347
4297782,1203.0,499.0,3019.0,0.935,0.055,0.034,0.349
4297798,1791.0,347.0,3399.0,0.934,0.062,0.021,0.352
4297824,1671.0,-1203.0,4003.0,0.932,0.072,0.007,0.354
4297840,1953.0,241.0,4907.0,0.93,0.083,-0.009,0.357
4297856,2297.0,1415.0,4915.0,0.927,0.096,-0.028,0.36
4297872,2701.0,639.0,5805.0,0.924,0.109,-0.048,0.364
4297888,3805.0,31.0,5759.0,0.919,0.124,-0.069,0.368
4297904,4969.0,1405.0,5579.0,0.913,0.142,-0.089,0.373
4297930,5429.0,2801.0,6135.0,0.905,0.159,-0.108,0.379
4297947,5609.0,2309.0,6731.0,0.897,0.176,-0.128,0.386
4297963,6403.0,2607.0,6667.0,0.887,0.192,-0.146,0.393
4297980,7199.0,2237.0,6925.0,0.877,0.208,-0.164,0.4
4297997,7339.0,2775.0,6539.0,0.866,0.226,-0.181,0.407
4298014,8361.0,3551.0,6093.0,0.854,0.243,-0.197,0.415
4298030,8549.0,3169.0,6217.0,0.842,0.258,-0.211,0.424
4298046,7871.0,2167.0,6413.0,0.829,0.275,-0.225,0.432
4298072,8755.0,3681.0,6049.0,0.815,0.293,-0.238,0.44
4298088,8857.0,3949.0,5599.0,0.8,0.31,-0.25,0.448
4298104,8835.0,3057.0,6019.0,0.785,0.326,-0.263,0.456
4298120,9307.0,2695.0,5129.0,0.769,0.342,-0.274,0.464
4298136,9235.0,3023.0,4351.0,0.753,0.359,-0.284,0.474
4298152,9313.0,3211.0,4951.0,0.736,0.374,-0.293,0.483
4298178,9033.0,2731.0,4977.0,0.718,0.389,-0.302,0.492
4298194,9509.0,3449.0,4431.0,0.698,0.405,-0.311,0.502
4298210,9811.0,3939.0,4111.0,0.679,0.418,-0.321,0.511
4298226,9757.0,2567.0,3955.0,0.66,0.43,-0.331,0.52
4298242,10397.0,2547.0,3833.0,0.64,0.442,-0.34,0.528
4298258,10429.0,2439.0,4175.0,0.62,0.454,-0.349,0.537
4298284,10833.0,3543.0,3351.0,0.599,0.465,-0.357,0.545
4298300,10675.0,4155.0,2979.0,0.58,0.473,-0.366,0.553
4298316,10573.0,2629.0,3941.0,0.561,0.48,-0.376,0.56
4298332,10125.0,2379.0,3211.0,0.542,0.487,-0.385,0.567
4298348,11055.0,3141.0,2789.0,0.524,0.493,-0.393,0.572
4298374,11213.0,3497.0,2531.0,0.506,0.498,-0.401,0.578
4298390,10661.0,3959.0,3641.0,0.492,0.501,-0.41,0.582
4298406,9811.0,1567.0,4027.0,0.477,0.504,-0.419,0.586
4298422,10131.0,3655.0,2939.0,0.463,0.507,-0.426,0.589
4298438,9887.0,3797.0,3097.0,0.452,0.508,-0.434,0.591
4298454,10061.0,2799.0,3815.0,0.443,0.508,-0.44,0.593
4298470,9859.0,2623.0,4269.0,0.436,0.508,-0.446,0.594
4298496,9603.0,3543.0,4497.0,0.431,0.509,-0.449,0.595
4298512,9261.0,3849.0,5059.0,0.428,0.509,-0.453,0.594
4298528,9179.0,3823.0,5179.0,0.427,0.508,-0.457,0.593
4298544,9069.0,3905.0,4995.0,0.427,0.508,-0.46,0.59
4298560,9365.0,4009.0,4929.0,0.432,0.506,-0.462,0.587
4298576,9325.0,3115.0,4951.0,0.439,0.503,-0.463,0.584
4298602,9271.0,3407.0,4857.0,0.447,0.499,-0.462,0.581
4298618,9231.0,4067.0,5461.0,0.458,0.495,-0.459,0.578
4298634,9371.0,3297.0,5363.0,0.471,0.49,-0.455,0.575
4298650,10007.0,3601.0,5103.0,0.485,0.485,-0.45,0.572
4298666,10773.0,4789.0,4939.0,0.501,0.478,-0.443,0.569
4298692,11015.0,3193.0,5405.0,0.519,0.47,-0.435,0.566
4298708,11315.0,3315.0,5381.0,0.539,0.463,-0.424,0.562
4298724,11809.0,4775.0,5123.0,0.56,0.454,-0.412,0.557
4298740,12651.0,4547.0,4783.0,0.582,0.443,-0.401,0.551
4298756,13119.0,5125.0,4737.0,0.608,0.43,-0.388,0.543
4298772,13137.0,2695.0,4861.0,0.634,0.415,-0.376,0.534
4298798,13239.0,2133.0,4791.0,0.659,0.4,-0.36,0.525
4298814,12801.0,3589.0,4869.0,0.684,0.386,-0.343,0.515
4298830,12425.0,3543.0,4761.0,0.709,0.37,-0.326,0.504
4298846,12057.0,3059.0,4985.0,0.733,0.354,-0.309,0.492
4298862,11667.0,2049.0,4861.0,0.755,0.337,-0.292,0.481
4298878,11467.0,2521.0,4485.0,0.775,0.321,-0.274,0.47
4298904,11131.0,3863.0,4023.0,0.795,0.303,-0.255,0.459
4298920,9679.0,2135.0,5159.0,0.814,0.283,-0.237,0.448
4298936,9175.0,1175.0,5567.0,0.83,0.266,-0.219,0.438
4298952,8997.0,2091.0,5407.0,0.845,0.25,-0.202,0.428
4298968,9019.0,3067.0,3829.0,0.858,0.234,-0.184,0.419
4298984,8061.0,1989.0,4731.0,0.871,0.215,-0.167,0.41
4299010,7077.0,1157.0,5003.0,0.881,0.197,-0.149,0.403
4299026,6201.0,89.0,5407.0,0.891,0.181,-0.131,0.396
4299042,5365.0,1111.0,5115.0,0.898,0.167,-0.113,0.39
4299058,5253.0,1357.0,4991.0,0.905,0.153,-0.095,0.385
4299074,4753.0,1281.0,4889.0,0.911,0.139,-0.077,0.381
4299100,4255.0,973.0,4253.0,0.915,0.126,-0.059,0.378
4299116,3713.0,1011.0,4725.0,0.92,0.112,-0.041,0.374
4299132,3825.0,349.0,4317.0,0.924,0.098,-0.025,0.37
4299148,3149.0,-273.0,4363.0,0.927,0.087,-0.009,0.365
4299164,2901.0,313.0,3597.0,0.929,0.077,0.006,0.361
4299180,2425.0,603.0,3493.0,0.931,0.067,0.022,0.357
4299196,1965.0,205.0,3255.0,0.933,0.058,0.038,0.353
4299222,1359.0,-915.0,3165.0,0.935,0.049,0.053,0.348
4299238,805.0,133.0,2633.0,0.936,0.042,0.068,0.343
4299254,-95.0,-747.0,2833.0,0.937,0.036,0.081,0.339
4299270,-415.0,-837.0,2273.0,0.937,0.032,0.093,0.334
4299286,-1041.0,-123.0,2111.0,0.938,0.028,0.102,0.33
4299302,-1269.0,-609.0,1637.0,0.938,0.025,0.109,0.327
4299328,-1481.0,-957.0,1629.0,0.939,0.023,0.115,0.325
4299344,-1981.0,-1467.0,1557.0,0.939,0.023,0.118,0.322
4299360,-1923.0,-619.0,1611.0,0.94,0.024,0.119,0.32
4299376,-1941.0,-1353.0,1649.0,0.94,0.027,0.118,0.318
4299392,-1815.0,-755.0,1661.0,0.941,0.03,0.114,0.317
4299408,-1569.0,-485.0,2021.0,0.942,0.034,0.108,0.316
4299434,-1381.0,-1299.0,2409.0,0.943,0.039,0.1,0.317
4299450,-755.0,-419.0,2623.0,0.943,0.046,0.09,0.317
4299466,-531.0,-219.0,2953.0,0.943,0.052,0.08,0.318
4299482,-79.0,-7.0,3559.0,0.943,0.06,0.067,0.32
4299498,515.0,-533.0,3695.0,0.943,0.068,0.054,0.323
4299515,829.0,299.0,3997.0,0.942,0.078,0.041,0.325
4299541,1363.0,669.0,4261.0,0.94,0.087,0.026,0.328
4299557,1849.0,651.0,4547.0,0.938,0.098,0.011,0.332
4299573,2051.0,571.0,5137.0,0.936,0.109,-0.005,0.336
4299589,2597.0,1137.0,5251.0,0.932,0.121,-0.021,0.34
4299605,3149.0,1503.0,5469.0,0.928,0.134,-0.038,0.345
4299631,3713.0,889.0,5739.0,0.924,0.147,-0.055,0.35
4299647,4129.0,1033.0,5777.0,0.918,0.161,-0.072,0.356
4299663,4417.0,2179.0,5495.0,0.911,0.177,-0.09,0.362
4299679,5053.0,2737.0,6247.0,0.903,0.192,-0.108,0.369
4299696,5485.0,1331.0,6333.0,0.894,0.207,-0.127,0.376
4299712,6563.0,1461.0,5811.0,0.885,0.224,-0.145,0.383
4299728,7165.0,2871.0,5253.0,0.874,0.241,-0.161,0.39
4299745,7169.0,2911.0,6085.0,0.863,0.257,-0.177,0.399
4299772,7167.0,2013.0,6131.0,0.85,0.273,-0.193,0.407
4299788,7933.0,2907.0,5963.0,0.836,0.29,-0.209,0.416
4299804,8559.0,3463.0,5331.0,0.822,0.308,-0.224,0.425
4299820,8975.0,3427.0,5403.0,0.806,0.324,-0.238,0.434
4299836,8945.0,2921.0,5913.0,0.79,0.34,-0.253,0.443
4299852,9567.0,3435.0,5389.0,0.773,0.356,-0.267,0.453
4299868,9931.0,3617.0,4839.0,0.754,0.372,-0.28,0.463
4299895,10347.0,3623.0,4933.0,0.736,0.387,-0.293,0.473
4299912,10345.0,3375.0,4865.0,0.717,0.4,-0.305,0.483
4299929,10427.0,3747.0,5029.0,0.697,0.413,-0.317,0.493
4299945,11015.0,2997.0,3837.0,0.677,0.426,-0.328,0.503
4299961,10869.0,3031.0,3391.0,0.656,0.438,-0.337,0.514
4299977,11039.0,4185.0,3763.0,0.635,0.448,-0.346,0.526
4299993,10677.0,3769.0,3899.0,0.615,0.457,-0.355,0.536
4300019,10385.0,2855.0,4051.0,0.594,0.466,-0.365,0.545
4300035,10763.0,3343.0,3325.0,0.574,0.474,-0.374,0.553
4300051,11025.0,3377.0,2805.0,0.554,0.481,-0.384,0.56
4300067,10621.0,2797.0,2673.0,0.536,0.486,-0.394,0.567
4300083,10133.0,2599.0,3245.0,0.518,0.491,-0.403,0.573
4300100,10325.0,2365.0,2947.0,0.5,0.496,-0.411,0.578
4300116,10473.0,3133.0,2621.0,0.482,0.501,-0.419,0.583
4300143,10389.0,2807.0,2549.0,0.466,0.505,-0.426,0.588
4300159,10343.0,3449.0,3225.0,0.451,0.509,-0.433,0.592
4300175,9909.0,3111.0,3133.0,0.437,0.511,-0.44,0.595
4300191,9875.0,3087.0,2625.0,0.425,0.513,-0.447,0.597
4300207,9401.0,1957.0,2865.0,0.416,0.514,-0.452,0.598
4300233,9489.0,3127.0,2839.0,0.409,0.515,-0.456,0.6
4300249,8771.0,2337.0,3409.0,0.403,0.516,-0.459,0.6
4300266,8799.0,3211.0,3313.0,0.4,0.517,-0.461,0.6
4300282,8749.0,3739.0,3445.0,0.398,0.517,-0.463,0.6
4300298,8743.0,3099.0,3461.0,0.399,0.517,-0.464,0.599
4300315,8961.0,2955.0,2937.0,0.402,0.516,-0.464,0.598
4300331,9077.0,2811.0,3325.0,0.405,0.515,-0.463,0.597
4300347,8971.0,3447.0,3569.0,0.411,0.513,-0.46,0.596
4300373,8885.0,3261.0,3939.0,0.418,0.512,-0.457,0.595
4300389,9107.0,3747.0,3871.0,0.427,0.511,-0.452,0.593
4300405,9555.0,4027.0,3821.0,0.437,0.51,-0.447,0.591
4300421,9473.0,3269.0,3993.0,0.449,0.509,-0.44,0.588
4300437,9881.0,4139.0,4307.0,0.461,0.509,-0.432,0.585
4300453,10717.0,4653.0,4027.0,0.475,0.508,-0.424,0.581
4300479,11199.0,4061.0,3589.0,0.49,0.507,-0.413,0.576
4300496,11671.0,4327.0,3809.0,0.508,0.505,-0.401,0.571
4300513,11989.0,4169.0,3753.0,0.527,0.502,-0.387,0.566
4300529,12735.0,4589.0,3001.0,0.547,0.499,-0.372,0.56
4300546,12663.0,4823.0,4033.0,0.569,0.493,-0.355,0.554
4300562,12413.0,4155.0,4725.0,0.591,0.488,-0.338,0.546
4300579,12953.0,4395.0,3997.0,0.613,0.482,-0.32,0.537
4300596,13005.0,5449.0,3935.0,0.636,0.476,-0.301,0.528
4300613,11857.0,5283.0,4721.0,0.659,0.468,-0.282,0.517
4300639,11627.0,5091.0,4425.0,0.682,0.458,-0.265,0.505
4300655,12351.0,4955.0,3159.0,0.704,0.448,-0.248,0.492
4300671,13047.0,5063.0,3045.0,0.727,0.434,-0.229,0.48
4300687,12439.0,4149.0,2937.0,0.749,0.418,-0.21,0.468
4300703,12051.0,3747.0,2933.0,0.771,0.401,-0.189,0.456
4300719,10747.0,3881.0,3491.0,0.792,0.384,-0.167,0.444
4300745,9835.0,4059.0,4093.0,0.812,0.365,-0.147,0.431
4300761,9327.0,3659.0,3745.0,0.83,0.347,-0.128,0.417
4300777,8419.0,3303.0,3829.0,0.847,0.327,-0.11,0.404
4300793,7101.0,2239.0,3809.0,0.862,0.309,-0.093,0.391
4300809,6369.0,4155.0,4153.0,0.876,0.291,-0.077,0.377
4300825,5569.0,2715.0,4733.0,0.888,0.271,-0.064,0.365
4300851,5053.0,1105.0,4347.0,0.9,0.252,-0.052,0.352
4300867,4545.0,2275.0,3571.0,0.909,0.234,-0.039,0.342
4300883,4267.0,3939.0,3805.0,0.918,0.214,-0.026,0.333
4300899,2809.0,3537.0,4839.0,0.926,0.191,-0.016,0.325
4300915,2399.0,175.0,3879.0,0.933,0.169,-0.007,0.318
4300932,3857.0,1361.0,2889.0,0.939,0.148,0.003,0.312
4300948,3123.0,991.0,3701.0,0.944,0.128,0.016,0.305
4300974,1457.0,-191.0,4105.0,0.948,0.11,0.029,0.298
4300990,1717.0,967.0,4175.0,0.951,0.094,0.042,0.292
4301006,1091.0,463.0,3523.0,0.954,0.079,0.055,0.285
4301022,707.0,-475.0,3437.0,0.956,0.065,0.068,0.279
4301038,959.0,561.0,2833.0,0.957,0.052,0.08,0.272
4301064,379.0,-809.0,2249.0,0.959,0.039,0.093,0.266
4301080,-975.0,-785.0,2791.0,0.959,0.028,0.105,0.26
4301096,-1743.0,-871.0,2661.0,0.96,0.018,0.114,0.256
4301113,-1633.0,-1965.0,1593.0,0.96,0.01,0.121,0.252
4301129,-1871.0,-1237.0,1487.0,0.96,0.003,0.126,0.248
4301146,-2255.0,-1141.0,1611.0,0.96,-0.003,0.129,0.247
4301162,-2141.0,-1985.0,1673.0,0.961,-0.006,0.128,0.247
4301179,-1983.0,-2159.0,1895.0,0.961,-0.007,0.125,0.248
4301205,-1185.0,-1839.0,1513.0,0.961,-0.005,0.12,0.249
4301221,-739.0,-1751.0,1697.0,0.961,-0.0,0.113,0.251
4301237,-615.0,-1719.0,1927.0,0.962,0.006,0.106,0.253
4301253,-331.0,-1205.0,2255.0,0.962,0.014,0.098,0.255
4301269,-515.0,-1339.0,2805.0,0.962,0.024,0.089,0.258
4301285,97.0,-927.0,2821.0,0.961,0.035,0.077,0.262
4301311,555.0,-1181.0,3211.0,0.961,0.049,0.065,0.265
4301327,789.0,-127.0,3647.0,0.96,0.063,0.053,0.269
4301343,1107.0,349.0,4065.0,0.958,0.079,0.039,0.273
4301359,1761.0,641.0,4807.0,0.956,0.095,0.024,0.278
4301375,2443.0,391.0,4887.0,0.952,0.111,0.008,0.283
4301401,3165.0,1407.0,4935.0,0.949,0.129,-0.008,0.289
4301417,3721.0,1681.0,5425.0,0.944,0.146,-0.024,0.295
4301433,4061.0,2109.0,5917.0,0.938,0.164,-0.04,0.301
4301449,4233.0,2387.0,6285.0,0.932,0.183,-0.057,0.309
4301465,5041.0,2973.0,5799.0,0.924,0.201,-0.074,0.317
4301481,5271.0,2721.0,6329.0,0.915,0.219,-0.091,0.326
4301497,5657.0,3501.0,6557.0,0.906,0.236,-0.107,0.334
4301523,6191.0,3201.0,6667.0,0.896,0.253,-0.123,0.343
4301539,6839.0,2899.0,5993.0,0.884,0.271,-0.138,0.353
4301555,7035.0,4259.0,6203.0,0.872,0.289,-0.152,0.365
4301571,7267.0,4551.0,6597.0,0.858,0.306,-0.165,0.377
4301587,7797.0,3445.0,6275.0,0.844,0.323,-0.178,0.389
4301603,8021.0,4147.0,6447.0,0.829,0.34,-0.19,0.401
4301629,8755.0,5561.0,5821.0,0.813,0.356,-0.203,0.414
4301646,8633.0,4907.0,5971.0,0.796,0.371,-0.215,0.427
4301663,9073.0,4547.0,6057.0,0.778,0.386,-0.228,0.44
4301679,10057.0,4767.0,4811.0,0.759,0.4,-0.239,0.454
4301695,10239.0,4677.0,4063.0,0.74,0.413,-0.248,0.469
4301714,9053.0,4753.0,5111.0,0.722,0.425,-0.256,0.483
4301731,8837.0,5075.0,5435.0,0.703,0.437,-0.265,0.495
4301747,9691.0,5007.0,4457.0,0.683,0.447,-0.276,0.506
4301763,9749.0,3725.0,4027.0,0.664,0.458,-0.287,0.517
4301789,10761.0,3215.0,3641.0,0.644,0.468,-0.296,0.528
4301805,10169.0,5287.0,3383.0,0.623,0.478,-0.304,0.54
4301821,9559.0,5001.0,3759.0,0.602,0.486,-0.312,0.551
4301837,9085.0,4563.0,4073.0,0.582,0.494,-0.323,0.56
4301853,9651.0,4483.0,4063.0,0.563,0.501,-0.335,0.566
4301879,10325.0,4513.0,2979.0,0.545,0.507,-0.347,0.571
4301896,10657.0,3315.0,3003.0,0.528,0.512,-0.357,0.576
4301912,10889.0,3979.0,2531.0,0.511,0.518,-0.364,0.581
4301928,9939.0,4837.0,3047.0,0.496,0.521,-0.371,0.587
4301944,9597.0,4571.0,3233.0,0.483,0.524,-0.377,0.591
4301960,9401.0,4991.0,3391.0,0.471,0.526,-0.384,0.595
4301977,8943.0,4973.0,3707.0,0.46,0.527,-0.392,0.597
4301993,8591.0,4849.0,3639.0,0.452,0.528,-0.4,0.598
4302019,8741.0,4145.0,3377.0,0.445,0.529,-0.407,0.598
4302035,8841.0,4645.0,3635.0,0.439,0.528,-0.412,0.598
4302051,8617.0,4377.0,3861.0,0.435,0.528,-0.417,0.598
4302067,8337.0,4569.0,4235.0,0.433,0.527,-0.42,0.598
4302083,8429.0,5361.0,4349.0,0.433,0.526,-0.422,0.598
4302099,8303.0,5041.0,4725.0,0.436,0.524,-0.424,0.596
4302125,8735.0,5365.0,4613.0,0.441,0.522,-0.425,0.594
4302141,8867.0,5051.0,4501.0,0.448,0.519,-0.424,0.591
4302157,9217.0,4965.0,4363.0,0.458,0.515,-0.423,0.588
4302173,9535.0,5037.0,4295.0,0.47,0.511,-0.419,0.586
4302189,9989.0,5651.0,4565.0,0.483,0.505,-0.414,0.583
4302205,10297.0,4707.0,3913.0,0.498,0.499,-0.408,0.58
4302231,10633.0,4229.0,4133.0,0.516,0.492,-0.4,0.576
4302247,11013.0,5113.0,4647.0,0.536,0.485,-0.39,0.571
4302264,11249.0,5537.0,5003.0,0.557,0.478,-0.379,0.564
4302281,11539.0,5285.0,4995.0,0.579,0.469,-0.368,0.556
4302297,12407.0,4965.0,5017.0,0.602,0.46,-0.356,0.546
4302313,12983.0,5117.0,4461.0,0.626,0.451,-0.343,0.536
4302339,12961.0,4781.0,4617.0,0.65,0.44,-0.327,0.526
4302355,12911.0,4825.0,4933.0,0.675,0.429,-0.31,0.515
4302371,13039.0,4869.0,5095.0,0.7,0.416,-0.292,0.502
4302387,13159.0,4067.0,4661.0,0.724,0.403,-0.273,0.489
4302403,12837.0,4091.0,3953.0,0.748,0.389,-0.252,0.476
4302419,12039.0,3519.0,4315.0,0.771,0.375,-0.229,0.461
4302435,11303.0,4085.0,4319.0,0.792,0.361,-0.205,0.447
4302461,9867.0,3297.0,5387.0,0.812,0.348,-0.183,0.431
4302477,9407.0,3845.0,4959.0,0.83,0.335,-0.163,0.415
4302493,8885.0,3011.0,3605.0,0.846,0.323,-0.143,0.399
4302509,7533.0,2761.0,4325.0,0.861,0.31,-0.122,0.384
4302526,6345.0,2517.0,4867.0,0.874,0.298,-0.104,0.37
4302542,5373.0,3197.0,4727.0,0.884,0.289,-0.087,0.357
4302568,5457.0,2523.0,3981.0,0.893,0.278,-0.071,0.346
4302584,5149.0,3001.0,4251.0,0.901,0.268,-0.056,0.335
4302600,4659.0,2315.0,4441.0,0.909,0.256,-0.042,0.327
4302616,4221.0,1569.0,3737.0,0.915,0.246,-0.028,0.32
4302632,4325.0,2673.0,4081.0,0.92,0.236,-0.014,0.314
4302648,3169.0,2119.0,4299.0,0.924,0.226,-0.003,0.308
4302674,3579.0,1823.0,4087.0,0.928,0.215,0.008,0.303
4302690,3983.0,1443.0,3247.0,0.932,0.205,0.02,0.299
4302706,3305.0,675.0,2873.0,0.935,0.195,0.034,0.295
4302722,2195.0,791.0,3279.0,0.937,0.186,0.049,0.292
4302738,2195.0,1003.0,2839.0,0.939,0.177,0.063,0.289
4302764,1057.0,-1205.0,2199.0,0.94,0.168,0.076,0.286
4302780,-153.0,-389.0,2465.0,0.941,0.162,0.089,0.282
4302796,-225.0,1431.0,2409.0,0.943,0.156,0.099,0.278
4302812,-663.0,-197.0,1891.0,0.944,0.149,0.105,0.276
4302828,-859.0,-1043.0,1629.0,0.944,0.144,0.109,0.275
4302844,-829.0,-407.0,1289.0,0.945,0.14,0.112,0.275
4302860,-753.0,-1051.0,1491.0,0.945,0.137,0.113,0.276
4302886,-889.0,-1567.0,1479.0,0.945,0.135,0.112,0.276
4302902,-1307.0,-959.0,1899.0,0.945,0.135,0.109,0.276
4302918,-999.0,-1023.0,2103.0,0.946,0.136,0.104,0.276
4302934,-865.0,-485.0,2159.0,0.946,0.139,0.096,0.276
4302950,-739.0,-307.0,2545.0,0.946,0.143,0.086,0.277
4302966,-311.0,-61.0,2703.0,0.946,0.146,0.075,0.278
4302992,505.0,-67.0,2765.0,0.946,0.15,0.063,0.28
4303008,887.0,327.0,3207.0,0.945,0.155,0.051,0.282
4303024,1145.0,445.0,3771.0,0.944,0.161,0.039,0.285
4303040,1507.0,227.0,3851.0,0.942,0.169,0.026,0.288
4303056,1955.0,2049.0,4251.0,0.94,0.178,0.012,0.291
4303072,2177.0,2013.0,4747.0,0.937,0.186,-0.003,0.296
4303098,2543.0,1507.0,4933.0,0.933,0.195,-0.019,0.301
4303114,2849.0,1797.0,5097.0,0.928,0.206,-0.036,0.307
4303130,3773.0,2091.0,5137.0,0.922,0.219,-0.053,0.314
4303146,4475.0,3323.0,4659.0,0.915,0.234,-0.07,0.322
4303162,4061.0,4015.0,5793.0,0.906,0.249,-0.087,0.331
4303178,4447.0,2009.0,6445.0,0.896,0.263,-0.108,0.34
4303204,5989.0,2953.0,6049.0,0.885,0.281,-0.129,0.347
4303220,6895.0,2605.0,4875.0,0.873,0.301,-0.148,0.356
4303236,7389.0,5557.0,5069.0,0.858,0.322,-0.163,0.365
4303252,7741.0,5439.0,5707.0,0.843,0.341,-0.179,0.375
4303268,8245.0,3557.0,5635.0,0.828,0.36,-0.194,0.384
4303284,8891.0,4199.0,5335.0,0.812,0.38,-0.207,0.393
4303310,8967.0,5443.0,4871.0,0.794,0.4,-0.217,0.403
4303326,9345.0,5785.0,4703.0,0.775,0.419,-0.227,0.415
4303342,9421.0,4757.0,4841.0,0.756,0.437,-0.235,0.427
4303358,9359.0,4165.0,4967.0,0.737,0.454,-0.242,0.439
4303374,9831.0,5241.0,3837.0,0.716,0.472,-0.247,0.451
4303400,10027.0,5211.0,3165.0,0.695,0.488,-0.251,0.464
4303416,9773.0,5075.0,3287.0,0.674,0.503,-0.254,0.478
4303432,9177.0,5597.0,3929.0,0.652,0.517,-0.256,0.492
4303448,9421.0,5203.0,2913.0,0.631,0.529,-0.26,0.504
4303464,10095.0,5359.0,2553.0,0.61,0.54,-0.264,0.517
4303480,9879.0,5393.0,2701.0,0.588,0.549,-0.269,0.53
4303506,10113.0,5537.0,2149.0,0.567,0.556,-0.275,0.542
4303522,9647.0,4805.0,2541.0,0.546,0.561,-0.283,0.554
4303538,9755.0,4703.0,1965.0,0.527,0.567,-0.29,0.563
4303554,10005.0,4931.0,1757.0,0.508,0.571,-0.299,0.572
4303570,10125.0,4725.0,1779.0,0.491,0.574,-0.307,0.579
4303586,9757.0,5121.0,2095.0,0.475,0.576,-0.316,0.585
4303612,9723.0,4439.0,1587.0,0.46,0.577,-0.326,0.591
4303628,9531.0,4567.0,1425.0,0.446,0.577,-0.335,0.596
4303644,9449.0,4339.0,1443.0,0.433,0.577,-0.344,0.601
4303660,9441.0,4533.0,1641.0,0.421,0.575,-0.353,0.606
4303677,8933.0,4275.0,1945.0,0.412,0.573,-0.363,0.609
4303693,8747.0,4159.0,2061.0,0.403,0.571,-0.372,0.611
4303709,8799.0,4517.0,1725.0,0.395,0.568,-0.383,0.612
4303735,8807.0,4613.0,1573.0,0.389,0.563,-0.394,0.614
4303751,8701.0,4135.0,1457.0,0.384,0.557,-0.404,0.615
4303767,8041.0,3437.0,2371.0,0.38,0.551,-0.414,0.617
4303783,8003.0,4775.0,2983.0,0.379,0.546,-0.423,0.617
4303799,8155.0,4715.0,3311.0,0.379,0.54,-0.433,0.614
4303815,8715.0,4195.0,3049.0,0.382,0.535,-0.443,0.609
4303841,9093.0,3293.0,2879.0,0.387,0.531,-0.451,0.604
4303857,9475.0,3885.0,2637.0,0.393,0.526,-0.457,0.6
4303873,9613.0,3735.0,2843.0,0.402,0.521,-0.461,0.595
4303889,9679.0,3479.0,3251.0,0.412,0.517,-0.463,0.591
4303905,9681.0,3849.0,3643.0,0.425,0.513,-0.461,0.587
4303931,9781.0,4033.0,3915.0,0.438,0.509,-0.458,0.582
4303947,10403.0,5347.0,3879.0,0.454,0.504,-0.454,0.577
4303963,10661.0,4213.0,4213.0,0.472,0.499,-0.449,0.571
4303979,11301.0,4339.0,3705.0,0.491,0.495,-0.442,0.564
4303995,12067.0,4571.0,4019.0,0.513,0.489,-0.433,0.557
4304011,12725.0,3179.0,3863.0,0.536,0.484,-0.422,0.549
4304037,13797.0,4155.0,3503.0,0.559,0.478,-0.407,0.541
4304053,14503.0,5143.0,3669.0,0.584,0.471,-0.391,0.532
4304069,13861.0,4395.0,4047.0,0.611,0.463,-0.375,0.522
4304085,13387.0,3337.0,4413.0,0.638,0.453,-0.357,0.511
4304101,13851.0,4103.0,4571.0,0.665,0.444,-0.338,0.497
4304117,13393.0,4861.0,3859.0,0.691,0.434,-0.319,0.483
4304134,12965.0,2779.0,3797.0,0.715,0.422,-0.299,0.47
4304160,12119.0,3283.0,4017.0,0.739,0.411,-0.277,0.456
4304177,11627.0,4129.0,4199.0,0.761,0.4,-0.256,0.443
4304193,11299.0,4155.0,3929.0,0.781,0.387,-0.234,0.43
4304210,10109.0,2925.0,4547.0,0.8,0.374,-0.214,0.417
4304227,9833.0,3473.0,4319.0,0.818,0.362,-0.193,0.404
4304244,9971.0,4139.0,3727.0,0.834,0.349,-0.172,0.391
4304260,9033.0,3063.0,3923.0,0.85,0.334,-0.152,0.378
4304276,7929.0,2943.0,4333.0,0.864,0.32,-0.131,0.366
4304302,7217.0,3689.0,4411.0,0.876,0.306,-0.112,0.354
4304318,6747.0,2847.0,4043.0,0.888,0.292,-0.095,0.343
4304334,5947.0,1953.0,4213.0,0.898,0.279,-0.079,0.332
4304350,5627.0,2229.0,3455.0,0.907,0.265,-0.062,0.322
4304366,5081.0,1965.0,3055.0,0.914,0.252,-0.046,0.313
4304392,3921.0,1523.0,3363.0,0.921,0.24,-0.029,0.305
4304408,3895.0,2359.0,3185.0,0.927,0.229,-0.014,0.298
4304424,3473.0,2693.0,3513.0,0.932,0.216,-0.001,0.291
4304440,3067.0,1347.0,3521.0,0.936,0.203,0.008,0.286
4304456,1817.0,727.0,3935.0,0.94,0.192,0.015,0.281
4304472,2435.0,205.0,2273.0,0.944,0.181,0.021,0.275
4304488,2747.0,-739.0,1289.0,0.947,0.171,0.028,0.27
4304514,1727.0,-537.0,1295.0,0.95,0.163,0.039,0.265
4304530,623.0,-663.0,1675.0,0.951,0.157,0.051,0.261
4304546,149.0,-199.0,1891.0,0.952,0.151,0.064,0.257
4304563,-451.0,95.0,2027.0,0.953,0.146,0.075,0.254
4304580,-1365.0,-179.0,1991.0,0.954,0.142,0.084,0.251
4304596,-1547.0,-735.0,1651.0,0.954,0.138,0.09,0.249
4304612,-1319.0,-689.0,1325.0,0.955,0.135,0.095,0.248
4304638,-1471.0,-41.0,1301.0,0.955,0.133,0.098,0.247
4304654,-2239.0,-1087.0,1609.0,0.955,0.131,0.098,0.248
4304670,-2517.0,-1273.0,1999.0,0.955,0.132,0.095,0.249
4304686,-1853.0,-247.0,1843.0,0.955,0.134,0.089,0.25
4304702,-1057.0,155.0,2017.0,0.954,0.137,0.081,0.253
4304718,-707.0,-345.0,2289.0,0.954,0.14,0.071,0.257
4304744,163.0,67.0,2419.0,0.953,0.144,0.059,0.261
4304760,411.0,391.0,2741.0,0.951,0.149,0.047,0.266
4304776,1071.0,77.0,3213.0,0.949,0.155,0.033,0.271
4304792,1701.0,993.0,3407.0,0.947,0.163,0.019,0.276
4304808,2069.0,1329.0,3655.0,0.944,0.171,0.004,0.281
4304824,2113.0,823.0,4083.0,0.941,0.181,-0.012,0.287
4304851,2949.0,1877.0,4289.0,0.936,0.193,-0.029,0.293
4304867,3163.0,1911.0,4747.0,0.931,0.204,-0.047,0.299
4304883,3925.0,1479.0,4535.0,0.924,0.218,-0.067,0.306
4304899,4343.0,2675.0,4645.0,0.916,0.233,-0.086,0.313
4304915,4853.0,3227.0,5173.0,0.907,0.249,-0.107,0.321
4304941,5163.0,2321.0,5061.0,0.897,0.265,-0.129,0.329
4304957,6031.0,3525.0,5279.0,0.885,0.283,-0.151,0.338
4304974,7071.0,3681.0,4795.0,0.871,0.301,-0.173,0.348
4304990,7933.0,2725.0,4877.0,0.856,0.319,-0.194,0.358
4305006,8597.0,3433.0,4989.0,0.839,0.339,-0.214,0.369
4305022,9279.0,4957.0,4069.0,0.821,0.357,-0.234,0.379
4305038,9647.0,4083.0,3827.0,0.803,0.373,-0.254,0.39
4305064,10221.0,4037.0,4257.0,0.784,0.389,-0.273,0.4
4305080,10469.0,3043.0,4137.0,0.764,0.404,-0.291,0.41
4305096,11111.0,2263.0,3005.0,0.743,0.42,-0.306,0.422
4305112,11589.0,3921.0,2597.0,0.721,0.437,-0.318,0.434
4305128,11553.0,4445.0,3083.0,0.698,0.451,-0.328,0.448
4305144,11553.0,3573.0,3011.0,0.677,0.465,-0.338,0.461
4305170,12225.0,3551.0,2571.0,0.654,0.477,-0.346,0.474
4305186,11427.0,3975.0,3105.0,0.632,0.49,-0.354,0.486
4305202,12099.0,4173.0,2511.0,0.608,0.501,-0.362,0.499
4305218,12003.0,4223.0,2505.0,0.585,0.51,-0.37,0.51
4305234,11889.0,4385.0,2243.0,0.563,0.518,-0.38,0.52
4305250,11441.0,4045.0,2563.0,0.541,0.525,-0.39,0.529
4305276,11295.0,4185.0,2459.0,0.519,0.531,-0.4,0.537
4305293,11369.0,3725.0,1971.0,0.499,0.535,-0.411,0.544
4305309,11449.0,3559.0,1605.0,0.48,0.538,-0.422,0.549
4305325,11269.0,2995.0,1765.0,0.462,0.541,-0.432,0.555
4305341,11071.0,3145.0,1667.0,0.445,0.542,-0.44,0.56
4305357,10921.0,3407.0,1501.0,0.429,0.544,-0.448,0.566
4305383,10331.0,3715.0,1963.0,0.415,0.544,-0.455,0.571
4305399,9917.0,4635.0,2437.0,0.402,0.543,-0.463,0.574
4305415,9641.0,3921.0,2577.0,0.39,0.541,-0.472,0.576
4305431,9791.0,3801.0,2015.0,0.381,0.54,-0.481,0.577
4305447,9875.0,4187.0,1851.0,0.373,0.538,-0.489,0.576
4305463,9309.0,3905.0,2413.0,0.368,0.536,-0.497,0.575
4305489,8849.0,3915.0,2645.0,0.364,0.533,-0.505,0.573
4305505,8935.0,3835.0,2363.0,0.362,0.531,-0.512,0.569
4305521,9129.0,3757.0,2295.0,0.363,0.529,-0.518,0.566
4305537,9041.0,3673.0,2551.0,0.367,0.526,-0.523,0.562
4305553,9235.0,3547.0,2755.0,0.372,0.523,-0.527,0.557
4305569,9527.0,3535.0,2261.0,0.379,0.52,-0.528,0.554
4305585,9953.0,3433.0,2087.0,0.388,0.517,-0.527,0.551
4305611,10017.0,3351.0,2901.0,0.4,0.513,-0.524,0.549
4305627,10101.0,3021.0,3179.0,0.414,0.509,-0.52,0.547
4305644,10243.0,4191.0,3317.0,0.429,0.505,-0.514,0.545
4305660,10807.0,3837.0,3319.0,0.446,0.5,-0.508,0.541
4305676,11185.0,2683.0,3305.0,0.464,0.495,-0.501,0.537
4305693,11597.0,3153.0,3389.0,0.483,0.49,-0.492,0.533
4305709,12147.0,4147.0,3435.0,0.504,0.485,-0.482,0.528
4305735,12091.0,3081.0,3455.0,0.525,0.478,-0.471,0.523
4305751,12649.0,2979.0,3541.0,0.548,0.472,-0.458,0.517
4305767,13063.0,3801.0,3345.0,0.57,0.466,-0.444,0.511
4305783,13337.0,3633.0,3271.0,0.594,0.458,-0.429,0.503
4305799,13161.0,2387.0,3039.0,0.618,0.449,-0.413,0.496
4305815,13859.0,3371.0,2863.0,0.641,0.441,-0.394,0.489
4305841,13567.0,3705.0,3263.0,0.665,0.432,-0.373,0.481
4305858,12825.0,3193.0,3577.0,0.689,0.421,-0.352,0.473
4305875,12713.0,3557.0,3793.0,0.712,0.411,-0.332,0.463
4305891,12553.0,3619.0,3051.0,0.734,0.401,-0.311,0.453
4305907,12365.0,3875.0,2703.0,0.755,0.388,-0.289,0.442
4305923,11527.0,2449.0,2969.0,0.775,0.376,-0.268,0.432
4305939,10339.0,3651.0,3839.0,0.794,0.364,-0.246,0.421
4305965,10019.0,3405.0,3799.0,0.811,0.352,-0.226,0.409
4305981,9867.0,2745.0,3281.0,0.828,0.339,-0.206,0.396
4305997,9093.0,3097.0,3537.0,0.843,0.328,-0.186,0.384
4306013,8479.0,2983.0,3145.0,0.856,0.316,-0.167,0.373
4306029,7263.0,1743.0,4059.0,0.869,0.304,-0.148,0.362
4306055,6787.0,2395.0,3533.0,0.88,0.294,-0.129,0.351
4306071,5707.0,2859.0,3677.0,0.89,0.283,-0.111,0.341
4306087,5391.0,3111.0,3815.0,0.899,0.272,-0.093,0.332
4306103,4689.0,3243.0,4465.0,0.906,0.26,-0.078,0.323
4306119,3853.0,1639.0,4675.0,0.914,0.249,-0.066,0.314
4306135,4075.0,2063.0,4447.0,0.92,0.239,-0.055,0.305
4306161,4027.0,2111.0,3845.0,0.926,0.229,-0.045,0.297
4306177,3597.0,1365.0,3543.0,0.931,0.219,-0.035,0.289
4306193,3075.0,911.0,2367.0,0.936,0.21,-0.023,0.282
4306209,2497.0,1967.0,2711.0,0.94,0.201,-0.009,0.277
4306225,1477.0,1383.0,3225.0,0.943,0.191,0.004,0.272
4306241,863.0,1113.0,3029.0,0.946,0.182,0.015,0.268
4306267,697.0,1159.0,2499.0,0.949,0.172,0.024,0.264
4306283,429.0,93.0,2043.0,0.951,0.162,0.033,0.26
4306299,-233.0,-1005.0,2257.0,0.953,0.154,0.041,0.257
4306315,-903.0,-249.0,2155.0,0.955,0.148,0.047,0.254
4306331,-381.0,1469.0,1717.0,0.956,0.142,0.052,0.253
4306347,-693.0,-169.0,1547.0,0.956,0.134,0.056,0.253
4306373,-1855.0,-2001.0,1763.0,0.957,0.128,0.058,0.254
4306389,-1281.0,7.0,1183.0,0.957,0.125,0.06,0.254
4306405,-1023.0,-411.0,1619.0,0.958,0.12,0.059,0.255
4306421,-1397.0,-2045.0,1559.0,0.957,0.118,0.057,0.257
4306437,-1053.0,149.0,1813.0,0.957,0.118,0.052,0.259
4306453,-537.0,-431.0,2003.0,0.957,0.117,0.044,0.262
4306479,-455.0,-2783.0,2963.0,0.957,0.119,0.034,0.264
4306495,305.0,-875.0,2547.0,0.956,0.122,0.021,0.266
4306511,1199.0,213.0,2433.0,0.955,0.127,0.008,0.269
4306527,1323.0,-705.0,2933.0,0.953,0.132,-0.006,0.272
4306543,1905.0,-749.0,3077.0,0.951,0.14,-0.02,0.275
4306559,2409.0,137.0,3165.0,0.948,0.149,-0.035,0.278
4306585,2313.0,643.0,3855.0,0.945,0.159,-0.05,0.282
4306601,2759.0,99.0,4223.0,0.94,0.17,-0.068,0.287
4306617,3767.0,479.0,4091.0,0.935,0.183,-0.087,0.292
4306633,4647.0,1271.0,3957.0,0.928,0.197,-0.106,0.299
4306649,4759.0,1645.0,4353.0,0.92,0.21,-0.126,0.305
4306675,5807.0,1343.0,4483.0,0.911,0.224,-0.147,0.313
4306692,6823.0,1815.0,4301.0,0.901,0.239,-0.168,0.321
4306708,6979.0,1679.0,4969.0,0.89,0.254,-0.189,0.33
4306724,7649.0,2417.0,4823.0,0.877,0.27,-0.209,0.339
4306740,8681.0,3333.0,4581.0,0.863,0.285,-0.228,0.35
4306757,8935.0,2963.0,5431.0,0.849,0.298,-0.248,0.36
4306773,9239.0,2989.0,5457.0,0.833,0.313,-0.267,0.369
4306799,9425.0,2877.0,5695.0,0.816,0.328,-0.287,0.379
4306815,10019.0,4459.0,4773.0,0.799,0.341,-0.308,0.389
4306831,10595.0,3901.0,5601.0,0.781,0.353,-0.328,0.399
4306847,10749.0,2891.0,5447.0,0.761,0.365,-0.347,0.408
4306863,11273.0,3523.0,4393.0,0.741,0.377,-0.365,0.419
4306879,11667.0,4573.0,4765.0,0.72,0.388,-0.381,0.43
4306895,11751.0,3703.0,5009.0,0.699,0.398,-0.396,0.442
4306921,12353.0,3795.0,4205.0,0.678,0.408,-0.41,0.453
4306937,12637.0,4515.0,3747.0,0.658,0.416,-0.421,0.465
4306953,12221.0,3471.0,4149.0,0.64,0.423,-0.43,0.476
4306969,12079.0,3249.0,3607.0,0.622,0.43,-0.437,0.486
4306985,12173.0,3657.0,3195.0,0.605,0.437,-0.443,0.497
4307011,11743.0,4345.0,3129.0,0.589,0.443,-0.448,0.506
4307028,10843.0,3589.0,3211.0,0.574,0.447,-0.453,0.515
4307044,10251.0,3079.0,3119.0,0.56,0.452,-0.458,0.521
4307061,9959.0,2713.0,2987.0,0.547,0.458,-0.464,0.526
4307077,9803.0,2773.0,2663.0,0.533,0.463,-0.469,0.53
4307094,9533.0,2811.0,2105.0,0.521,0.468,-0.474,0.533
4307110,9611.0,3111.0,2105.0,0.509,0.473,-0.479,0.537
4307126,8845.0,2529.0,2623.0,0.498,0.477,-0.484,0.539
4307143,8451.0,2661.0,2479.0,0.487,0.48,-0.489,0.541
4307169,8971.0,3089.0,2391.0,0.477,0.484,-0.495,0.542
4307185,8845.0,2749.0,2305.0,0.467,0.487,-0.501,0.542
4307201,8685.0,2681.0,2579.0,0.459,0.49,-0.506,0.541
4307217,8699.0,2949.0,2809.0,0.452,0.492,-0.511,0.541
4307233,8753.0,2559.0,2785.0,0.445,0.494,-0.515,0.54
4307249,8763.0,2909.0,2781.0,0.44,0.496,-0.518,0.54
4307275,8655.0,4359.0,3157.0,0.437,0.498,-0.52,0.539
4307292,9037.0,3663.0,3249.0,0.435,0.499,-0.522,0.538
4307308,8593.0,3443.0,3807.0,0.435,0.5,-0.523,0.536
4307324,8383.0,3369.0,4203.0,0.438,0.501,-0.524,0.532
4307340,8935.0,3847.0,4391.0,0.442,0.501,-0.525,0.527
4307356,9635.0,4331.0,3521.0,0.448,0.501,-0.526,0.522
4307382,10685.0,3505.0,4037.0,0.457,0.499,-0.526,0.515
4307398,10965.0,3003.0,3449.0,0.468,0.496,-0.523,0.511
4307414,11501.0,4339.0,3209.0,0.481,0.493,-0.519,0.506
4307430,11687.0,4119.0,3775.0,0.496,0.489,-0.512,0.502
4307446,11985.0,3407.0,4397.0,0.514,0.484,-0.505,0.497
4307462,12991.0,4001.0,3769.0,0.532,0.479,-0.496,0.491
4307488,13269.0,4711.0,3507.0,0.553,0.471,-0.486,0.485
4307504,12735.0,3577.0,4359.0,0.576,0.462,-0.475,0.478
4307520,12655.0,3375.0,4215.0,0.598,0.454,-0.463,0.471
4307536,13235.0,4067.0,3615.0,0.621,0.444,-0.45,0.463
4307552,13867.0,4771.0,3541.0,0.645,0.432,-0.436,0.455
4307578,13737.0,2901.0,3343.0,0.67,0.417,-0.421,0.447
4307595,13339.0,2573.0,3267.0,0.694,0.403,-0.402,0.44
4307612,13165.0,3335.0,3379.0,0.718,0.389,-0.382,0.433
4307628,12537.0,3161.0,3721.0,0.741,0.374,-0.361,0.425
4307644,12427.0,3559.0,3745.0,0.763,0.358,-0.34,0.417
4307660,11591.0,2911.0,3923.0,0.784,0.343,-0.319,0.408
4307676,11205.0,3563.0,3807.0,0.803,0.328,-0.298,0.399
4307702,10577.0,3309.0,4001.0,0.821,0.313,-0.278,0.389
4307718,9921.0,2589.0,3641.0,0.838,0.298,-0.258,0.379
4307734,9281.0,3629.0,3835.0,0.852,0.283,-0.239,0.369
4307750,8729.0,3395.0,3963.0,0.866,0.268,-0.222,0.359
4307766,8299.0,1751.0,3837.0,0.879,0.252,-0.205,0.35
4307782,7795.0,1643.0,3081.0,0.889,0.239,-0.188,0.341
4307798,6681.0,2359.0,3539.0,0.899,0.225,-0.171,0.333
4307824,5447.0,1689.0,4059.0,0.909,0.212,-0.154,0.326
4307840,5335.0,1669.0,3807.0,0.916,0.199,-0.138,0.318
4307856,4791.0,911.0,3589.0,0.923,0.187,-0.123,0.311
4307872,4447.0,1371.0,3649.0,0.929,0.177,-0.109,0.305
4307889,3823.0,1057.0,3763.0,0.935,0.167,-0.095,0.299
4307905,3351.0,591.0,3457.0,0.939,0.159,-0.082,0.294
4307931,3141.0,443.0,3505.0,0.942,0.151,-0.07,0.29
4307947,2431.0,1019.0,3807.0,0.945,0.145,-0.058,0.285
4307963,1561.0,2051.0,3997.0,0.948,0.14,-0.048,0.281
4307979,775.0,1383.0,4193.0,0.951,0.133,-0.042,0.277
4307995,613.0,401.0,4043.0,0.953,0.126,-0.039,0.273
4308011,1095.0,-813.0,2911.0,0.955,0.121,-0.036,0.27
4308037,1231.0,-181.0,1849.0,0.956,0.117,-0.032,0.266
4308053,1859.0,-495.0,1147.0,0.958,0.114,-0.024,0.263
4308069,283.0,-833.0,1873.0,0.959,0.11,-0.014,0.26
4308085,-295.0,-533.0,2055.0,0.961,0.107,-0.005,0.256
4308101,-905.0,-999.0,2127.0,0.962,0.105,0.003,0.253
4308117,-1037.0,-575.0,2065.0,0.963,0.104,0.008,0.249
4308143,-1559.0,-719.0,1737.0,0.963,0.104,0.011,0.247
4308160,-1729.0,255.0,1771.0,0.964,0.104,0.012,0.246
4308176,-2229.0,-397.0,2167.0,0.964,0.103,0.008,0.245
4308193,-2235.0,-75.0,2405.0,0.964,0.104,0.001,0.246
4308210,-1739.0,-743.0,2455.0,0.963,0.105,-0.01,0.247
4308227,-847.0,-1427.0,2453.0,0.963,0.108,-0.024,0.248
4308243,-781.0,-659.0,3061.0,0.961,0.114,-0.038,0.249
4308259,551.0,1003.0,3393.0,0.959,0.121,-0.055,0.25
4308276,1629.0,1193.0,2941.0,0.957,0.125,-0.072,0.253
4308302,2815.0,-493.0,3409.0,0.954,0.128,-0.089,0.256
4308318,2287.0,-767.0,3995.0,0.951,0.135,-0.104,0.259
4308334,3735.0,1029.0,4091.0,0.947,0.143,-0.119,0.262
4308350,4289.0,1271.0,4011.0,0.943,0.151,-0.134,0.266
4308366,4899.0,475.0,4045.0,0.938,0.158,-0.147,0.27
4308382,4685.0,99.0,4461.0,0.933,0.167,-0.16,0.274
4308408,3965.0,781.0,4705.0,0.927,0.18,-0.173,0.278
4308425,5309.0,1865.0,4133.0,0.921,0.192,-0.188,0.284
4308441,5871.0,2583.0,3883.0,0.913,0.204,-0.203,0.289
4308457,6249.0,1805.0,4545.0,0.905,0.215,-0.219,0.295
4308474,6221.0,877.0,4567.0,0.896,0.227,-0.235,0.302
4308491,6885.0,1771.0,4107.0,0.885,0.241,-0.251,0.308
4308507,7495.0,2927.0,4463.0,0.874,0.255,-0.267,0.315
4308523,8127.0,1801.0,4597.0,0.862,0.269,-0.284,0.322
4308549,8797.0,2543.0,4267.0,0.849,0.284,-0.299,0.33
4308565,9201.0,2959.0,4535.0,0.835,0.3,-0.314,0.338
4308581,9953.0,2913.0,4245.0,0.821,0.314,-0.329,0.346
4308597,10393.0,2743.0,4553.0,0.805,0.329,-0.342,0.355
4308613,10263.0,3219.0,4985.0,0.789,0.344,-0.356,0.365
4308639,9955.0,3431.0,5469.0,0.771,0.358,-0.37,0.374
4308655,10433.0,3689.0,4711.0,0.753,0.373,-0.384,0.383
4308671,11625.0,3753.0,4099.0,0.734,0.386,-0.398,0.392
4308687,12019.0,2393.0,4437.0,0.716,0.397,-0.411,0.402
4308703,11687.0,3147.0,3783.0,0.696,0.41,-0.419,0.414
4308719,11597.0,3419.0,3361.0,0.678,0.422,-0.425,0.427
4308745,11279.0,4067.0,4157.0,0.66,0.431,-0.429,0.441
4308761,10973.0,2509.0,4363.0,0.641,0.441,-0.432,0.455
4308777,10173.0,3507.0,3657.0,0.622,0.451,-0.436,0.468
4308793,10547.0,4195.0,2853.0,0.603,0.461,-0.44,0.481
4308809,10059.0,3189.0,2745.0,0.584,0.468,-0.445,0.492
4308825,10021.0,2519.0,2217.0,0.565,0.476,-0.449,0.503
4308851,10135.0,3573.0,1997.0,0.547,0.484,-0.451,0.513
4308867,10541.0,4457.0,1797.0,0.53,0.489,-0.455,0.523
4308883,9849.0,3525.0,2491.0,0.514,0.493,-0.459,0.532
4308899,9779.0,4073.0,2473.0,0.497,0.496,-0.464,0.539
4308915,9943.0,4403.0,2183.0,0.482,0.499,-0.471,0.545
4308931,10137.0,3425.0,2277.0,0.468,0.501,-0.478,0.549
4308957,10375.0,4041.0,2183.0,0.455,0.503,-0.485,0.552
4308974,10081.0,3989.0,2363.0,0.443,0.504,-0.492,0.554
4308990,9753.0,3667.0,2315.0,0.434,0.505,-0.498,0.556
4309006,9107.0,3925.0,3017.0,0.427,0.505,-0.504,0.556
4309022,8993.0,3709.0,3217.0,0.421,0.505,-0.511,0.554
4309039,9161.0,3621.0,2971.0,0.418,0.505,-0.517,0.551
4309055,9209.0,3349.0,3213.0,0.417,0.504,-0.522,0.548
4309081,9009.0,3449.0,3469.0,0.418,0.503,-0.526,0.544
4309097,9277.0,4231.0,3847.0,0.42,0.502,-0.529,0.54
4309113,9773.0,5281.0,4083.0,0.427,0.499,-0.533,0.534
4309129,9911.0,3101.0,3609.0,0.437,0.494,-0.536,0.527
4309145,10319.0,2865.0,3603.0,0.449,0.489,-0.535,0.523
4309161,9797.0,3241.0,4193.0,0.463,0.482,-0.532,0.52
4309187,10161.0,3543.0,4045.0,0.478,0.474,-0.528,0.517
4309203,10319.0,3585.0,4131.0,0.495,0.466,-0.523,0.514
4309219,10269.0,3309.0,4591.0,0.513,0.457,-0.516,0.512
4309235,10879.0,3817.0,4351.0,0.532,0.448,-0.507,0.508
4309251,11517.0,3689.0,4161.0,0.552,0.439,-0.498,0.504
4309277,12139.0,4049.0,3929.0,0.574,0.429,-0.487,0.5
4309293,12333.0,3487.0,4441.0,0.596,0.419,-0.475,0.494
4309309,13115.0,3479.0,3971.0,0.62,0.408,-0.461,0.487
4309325,13581.0,3129.0,3941.0,0.643,0.398,-0.445,0.48
4309342,13207.0,3157.0,4173.0,0.667,0.387,-0.427,0.472
4309358,13441.0,3783.0,4469.0,0.69,0.377,-0.407,0.464
4309375,13451.0,4141.0,4361.0,0.713,0.366,-0.387,0.455
4309392,13059.0,3441.0,4599.0,0.736,0.355,-0.367,0.445
4309419,12687.0,3179.0,4339.0,0.757,0.344,-0.345,0.435
4309435,12875.0,3615.0,4247.0,0.777,0.334,-0.323,0.425
4309451,12661.0,3003.0,3623.0,0.796,0.323,-0.299,0.414
4309467,11589.0,3093.0,3987.0,0.815,0.313,-0.274,0.404
4309483,10583.0,3359.0,4119.0,0.832,0.302,-0.249,0.393
4309499,9403.0,2535.0,4543.0,0.848,0.29,-0.226,0.381
4309515,8765.0,2703.0,4281.0,0.863,0.278,-0.204,0.37
4309541,8127.0,2847.0,4627.0,0.875,0.267,-0.184,0.359
4309557,7207.0,2361.0,4411.0,0.886,0.256,-0.167,0.349
4309573,6625.0,2171.0,5147.0,0.895,0.245,-0.152,0.339
4309589,6549.0,1271.0,4461.0,0.903,0.235,-0.139,0.331
4309605,5821.0,959.0,4695.0,0.91,0.226,-0.126,0.323
4309621,5701.0,1589.0,4093.0,0.916,0.219,-0.113,0.316
4309647,5553.0,2925.0,3727.0,0.922,0.209,-0.099,0.309
4309663,4977.0,1309.0,3663.0,0.928,0.197,-0.086,0.304
4309679,4273.0,113.0,3485.0,0.934,0.185,-0.072,0.298
4309695,3757.0,1263.0,3297.0,0.939,0.174,-0.057,0.292
4309711,3235.0,1031.0,2961.0,0.943,0.162,-0.042,0.288
4309727,3191.0,-139.0,2481.0,0.947,0.15,-0.027,0.284
4309753,2291.0,121.0,1979.0,0.95,0.139,-0.01,0.28
4309769,1261.0,-165.0,2021.0,0.952,0.129,0.006,0.277
4309785,-117.0,-577.0,2227.0,0.954,0.12,0.02,0.274
4309801,-51.0,-545.0,1931.0,0.955,0.113,0.032,0.271
4309817,-391.0,-1341.0,1805.0,0.956,0.107,0.042,0.269
4309843,-855.0,-1109.0,1687.0,0.957,0.105,0.05,0.266
4309860,-929.0,-433.0,1283.0,0.958,0.103,0.057,0.263
4309876,-1375.0,-903.0,1279.0,0.958,0.102,0.062,0.261
4309892,-1967.0,-1183.0,1431.0,0.958,0.102,0.066,0.26
4309909,-2685.0,-345.0,1669.0,0.958,0.104,0.067,0.259
4309926,-2089.0,-797.0,1451.0,0.958,0.107,0.066,0.258
4309942,-1747.0,-813.0,1511.0,0.958,0.11,0.062,0.258
4309958,-1659.0,-551.0,1733.0,0.958,0.114,0.058,0.258
4309984,-1699.0,-631.0,2139.0,0.957,0.119,0.053,0.259
4310000,-1429.0,-151.0,2453.0,0.957,0.124,0.045,0.26
4310016,-627.0,-315.0,2643.0,0.956,0.131,0.035,0.262
4310032,83.0,193.0,2553.0,0.954,0.138,0.025,0.264
4310048,949.0,671.0,2775.0,0.953,0.145,0.013,0.266
4310064,1423.0,1093.0,3197.0,0.952,0.151,0.001,0.268
4310090,831.0,35.0,4233.0,0.949,0.159,-0.014,0.271
4310106,1727.0,1643.0,4247.0,0.946,0.17,-0.032,0.274
4310122,1917.0,1237.0,4409.0,0.942,0.18,-0.052,0.277
4310138,2801.0,1419.0,4435.0,0.937,0.192,-0.073,0.281
4310154,3695.0,1719.0,4107.0,0.931,0.205,-0.094,0.286
4310170,4455.0,2621.0,4179.0,0.924,0.217,-0.114,0.293
4310196,4391.0,2997.0,5049.0,0.916,0.229,-0.134,0.3
4310212,5063.0,2391.0,5561.0,0.907,0.241,-0.155,0.307
4310228,6421.0,2089.0,4605.0,0.897,0.255,-0.177,0.315
4310244,6879.0,3369.0,5141.0,0.886,0.269,-0.195,0.323
4310260,7185.0,4025.0,5323.0,0.874,0.282,-0.214,0.332
4310286,7541.0,3351.0,5367.0,0.861,0.296,-0.233,0.342
4310302,8949.0,4063.0,4759.0,0.847,0.31,-0.251,0.352
4310319,9097.0,3737.0,5447.0,0.832,0.323,-0.268,0.362
4310335,9219.0,3749.0,5181.0,0.816,0.336,-0.285,0.373
4310351,9455.0,3303.0,5037.0,0.799,0.35,-0.301,0.385
4310367,10337.0,3943.0,4719.0,0.781,0.364,-0.317,0.397
4310383,10481.0,3091.0,4371.0,0.761,0.378,-0.332,0.411
4310409,10985.0,4315.0,3585.0,0.74,0.391,-0.345,0.425
4310425,10595.0,4307.0,4211.0,0.719,0.402,-0.358,0.44
4310441,10781.0,4917.0,4361.0,0.697,0.41,-0.374,0.454
4310457,10709.0,2453.0,4501.0,0.675,0.417,-0.391,0.466
4310474,11727.0,1515.0,3531.0,0.652,0.426,-0.406,0.478
4310490,11975.0,1543.0,2945.0,0.628,0.436,-0.419,0.49
4310506,12695.0,2471.0,2345.0,0.606,0.445,-0.428,0.502
4310532,11961.0,2837.0,2501.0,0.584,0.453,-0.437,0.513
4310548,11699.0,3407.0,3579.0,0.563,0.459,-0.445,0.523
4310564,11417.0,2773.0,3409.0,0.542,0.465,-0.455,0.532
4310580,11767.0,2509.0,2585.0,0.521,0.47,-0.465,0.54
4310596,11615.0,1807.0,2491.0,0.502,0.473,-0.474,0.547
4310622,11737.0,2071.0,2247.0,0.483,0.476,-0.483,0.555
4310638,11255.0,2543.0,2499.0,0.465,0.477,-0.49,0.562
4310654,10633.0,1873.0,2777.0,0.449,0.478,-0.498,0.567
4310670,10279.0,1595.0,2843.0,0.434,0.48,-0.505,0.572
4310686,10341.0,2153.0,2711.0,0.419,0.481,-0.512,0.575
4310702,10161.0,2135.0,2645.0,0.406,0.482,-0.518,0.577
4310718,9937.0,2225.0,2751.0,0.395,0.483,-0.525,0.579
4310744,9749.0,2207.0,2721.0,0.384,0.483,-0.53,0.581
4310760,9583.0,2257.0,2843.0,0.376,0.483,-0.535,0.582
4310777,9467.0,2301.0,2819.0,0.369,0.483,-0.54,0.582
4310793,9445.0,2009.0,3003.0,0.365,0.482,-0.543,0.582
4310809,9189.0,2663.0,3013.0,0.363,0.482,-0.546,0.582
4310825,9129.0,2977.0,3079.0,0.363,0.481,-0.548,0.58
4310851,8833.0,2729.0,3337.0,0.366,0.479,-0.549,0.579
4310867,8749.0,2575.0,3467.0,0.37,0.478,-0.55,0.576
4310883,9137.0,3177.0,3297.0,0.377,0.477,-0.549,0.574
4310899,9503.0,3185.0,3487.0,0.387,0.475,-0.547,0.57
4310915,9391.0,3137.0,3711.0,0.399,0.473,-0.545,0.566
4310931,9449.0,2955.0,3447.0,0.413,0.47,-0.54,0.563
4310957,9939.0,3623.0,3553.0,0.428,0.467,-0.534,0.559
4310973,10391.0,3263.0,3525.0,0.445,0.463,-0.528,0.555
4310989,10851.0,3181.0,4557.0,0.463,0.46,-0.52,0.551
4311005,11367.0,3507.0,4045.0,0.482,0.456,-0.51,0.547
4311021,11841.0,4307.0,4359.0,0.504,0.45,-0.5,0.542
4311037,12347.0,2845.0,4641.0,0.527,0.444,-0.489,0.535
4311063,13447.0,3217.0,3559.0,0.551,0.438,-0.475,0.528
4311079,13745.0,3445.0,3315.0,0.576,0.43,-0.46,0.522
4311095,14031.0,2921.0,3927.0,0.603,0.42,-0.442,0.515
4311111,13923.0,2503.0,3907.0,0.629,0.41,-0.423,0.507
4311127,14153.0,3029.0,3781.0,0.655,0.4,-0.402,0.498
4311143,14075.0,2765.0,4009.0,0.682,0.39,-0.38,0.488
4311169,13499.0,2079.0,4151.0,0.707,0.381,-0.357,0.478
4311185,13247.0,3525.0,3647.0,0.731,0.371,-0.332,0.466
4311201,12659.0,3613.0,4221.0,0.754,0.36,-0.308,0.454
4311217,11711.0,2925.0,4661.0,0.775,0.35,-0.285,0.442
4311233,11599.0,3065.0,4371.0,0.795,0.339,-0.262,0.429
4311259,11261.0,2913.0,3833.0,0.813,0.329,-0.239,0.416
4311275,9947.0,3235.0,4037.0,0.831,0.318,-0.216,0.403
4311292,8669.0,2931.0,4875.0,0.846,0.306,-0.194,0.391
4311308,8405.0,2647.0,4269.0,0.86,0.295,-0.174,0.378
4311324,7653.0,2163.0,4101.0,0.872,0.285,-0.156,0.367
4311340,7121.0,3157.0,3809.0,0.883,0.275,-0.137,0.356
4311357,5579.0,2713.0,4295.0,0.893,0.263,-0.12,0.345
4311374,4899.0,1705.0,4581.0,0.902,0.252,-0.105,0.335
4311400,4573.0,1835.0,4387.0,0.909,0.242,-0.092,0.325
4311416,4801.0,2421.0,3567.0,0.916,0.233,-0.08,0.317
4311432,4271.0,1487.0,3395.0,0.922,0.223,-0.068,0.309
4311448,3155.0,857.0,3691.0,0.927,0.215,-0.056,0.302
4311464,2423.0,525.0,3663.0,0.931,0.209,-0.046,0.296
4311480,1829.0,1519.0,3971.0,0.934,0.206,-0.038,0.29
4311506,1933.0,1829.0,3395.0,0.936,0.203,-0.033,0.285
4311522,1165.0,1363.0,2669.0,0.938,0.2,-0.031,0.281
4311538,899.0,1241.0,2149.0,0.941,0.196,-0.03,0.276
4311554,1625.0,-421.0,1141.0,0.943,0.192,-0.03,0.271
4311570,1679.0,-193.0,-185.0,0.945,0.186,-0.027,0.266
4311586,1681.0,149.0,411.0,0.948,0.179,-0.021,0.262
4311612,507.0,-281.0,993.0,0.951,0.171,-0.013,0.259
4311628,-647.0,-1665.0,1437.0,0.953,0.164,-0.005,0.256
4311644,-1331.0,-1403.0,1441.0,0.954,0.161,0.002,0.253
4311660,-1281.0,23.0,1265.0,0.955,0.159,0.006,0.251
4311676,-1897.0,-645.0,1113.0,0.956,0.157,0.008,0.25
4311692,-1841.0,-987.0,1227.0,0.956,0.155,0.008,0.249
4311718,-2071.0,-1137.0,1535.0,0.956,0.156,0.004,0.249
4311734,-1737.0,-991.0,1967.0,0.955,0.158,-0.003,0.25
4311751,-1057.0,-327.0,1941.0,0.954,0.163,-0.012,0.251
4311767,-261.0,-401.0,1909.0,0.952,0.168,-0.024,0.254
4311783,841.0,-165.0,2015.0,0.95,0.174,-0.037,0.256
4311799,1587.0,41.0,2011.0,0.947,0.181,-0.051,0.26
4311825,2241.0,1107.0,2023.0,0.944,0.187,-0.066,0.263
4311841,2755.0,65.0,2643.0,0.94,0.194,-0.08,0.268
4311858,2663.0,513.0,2987.0,0.936,0.202,-0.096,0.272
4311874,3351.0,1959.0,3281.0,0.93,0.212,-0.114,0.278
4311891,4171.0,2189.0,3189.0,0.923,0.223,-0.133,0.284
4311908,4713.0,1275.0,3211.0,0.915,0.234,-0.154,0.291
4311924,5637.0,2551.0,3085.0,0.906,0.245,-0.175,0.299
4311941,6613.0,2841.0,3109.0,0.895,0.257,-0.196,0.306
4311967,7003.0,1349.0,3921.0,0.884,0.269,-0.219,0.314
4311983,7441.0,961.0,4277.0,0.87,0.284,-0.24,0.323
4311999,8845.0,4491.0,3505.0,0.855,0.3,-0.261,0.331
4312015,9749.0,4791.0,3517.0,0.84,0.313,-0.282,0.341
4312031,10163.0,1943.0,4155.0,0.825,0.325,-0.303,0.35
4312047,10063.0,737.0,4833.0,0.807,0.341,-0.322,0.36
4312063,10431.0,1757.0,3771.0,0.786,0.361,-0.339,0.37
4312089,10611.0,4625.0,2385.0,0.764,0.382,-0.353,0.383
4312105,12043.0,4481.0,2807.0,0.742,0.398,-0.367,0.395
4312121,11787.0,2831.0,3445.0,0.72,0.415,-0.378,0.408
4312137,10947.0,3301.0,3701.0,0.696,0.433,-0.389,0.421
4312153,12221.0,5437.0,3259.0,0.669,0.453,-0.4,0.433
4312179,14637.0,8475.0,2291.0,0.645,0.467,-0.411,0.444
4312195,13967.0,4501.0,2633.0,0.623,0.476,-0.424,0.454
4312211,13183.0,2019.0,2585.0,0.6,0.486,-0.433,0.465
4312228,13069.0,3209.0,2119.0,0.576,0.498,-0.439,0.478
4312244,13515.0,5737.0,2425.0,0.551,0.508,-0.445,0.49
4312260,13033.0,4377.0,2105.0,0.53,0.515,-0.451,0.501
4312277,12625.0,3843.0,2111.0,0.509,0.522,-0.455,0.511
4312303,12049.0,4099.0,2003.0,0.488,0.528,-0.46,0.522
4312319,11767.0,4043.0,1953.0,0.468,0.533,-0.464,0.531
4312335,11523.0,4393.0,1939.0,0.448,0.536,-0.469,0.54
4312351,10855.0,3523.0,1829.0,0.431,0.538,-0.474,0.548
4312367,10269.0,3083.0,1781.0,0.415,0.539,-0.479,0.555
4312383,10015.0,2853.0,1735.0,0.4,0.541,-0.483,0.56
4312409,10191.0,3191.0,1555.0,0.386,0.541,-0.488,0.566
4312425,9661.0,3285.0,1947.0,0.374,0.541,-0.492,0.57
4312441,9125.0,3405.0,2247.0,0.362,0.541,-0.496,0.574
4312457,8861.0,3971.0,2023.0,0.353,0.54,-0.502,0.576
4312474,8769.0,3395.0,2265.0,0.345,0.539,-0.508,0.576
4312490,8627.0,2591.0,2335.0,0.34,0.537,-0.514,0.576
4312506,8627.0,3149.0,2103.0,0.336,0.536,-0.519,0.575
4312533,8675.0,3459.0,2101.0,0.334,0.535,-0.523,0.573
4312549,8655.0,3495.0,2079.0,0.334,0.533,-0.527,0.571
4312565,8621.0,3125.0,2373.0,0.337,0.531,-0.53,0.569
4312581,8659.0,3223.0,2389.0,0.342,0.528,-0.532,0.567
4312597,8899.0,3737.0,2365.0,0.348,0.525,-0.534,0.564
4312613,9375.0,3213.0,2071.0,0.358,0.52,-0.535,0.562
4312639,9689.0,2563.0,2181.0,0.369,0.516,-0.534,0.559
4312655,9715.0,3077.0,2487.0,0.383,0.511,-0.531,0.557
4312671,10097.0,4199.0,1735.0,0.397,0.506,-0.528,0.555
4312687,10267.0,2561.0,2817.0,0.415,0.499,-0.525,0.551
4312703,10565.0,2445.0,2671.0,0.434,0.493,-0.519,0.547
4312719,11363.0,3343.0,2201.0,0.453,0.488,-0.512,0.542
4312745,11667.0,3625.0,2523.0,0.475,0.48,-0.505,0.537
4312761,11695.0,2293.0,2919.0,0.497,0.473,-0.497,0.531
4312777,11707.0,2743.0,3381.0,0.519,0.467,-0.487,0.525
4312793,12239.0,3847.0,3369.0,0.541,0.46,-0.478,0.516
4312809,12793.0,2595.0,2981.0,0.564,0.454,-0.469,0.507
4312835,13691.0,3463.0,2377.0,0.587,0.446,-0.457,0.497
4312851,13719.0,3477.0,2533.0,0.612,0.437,-0.444,0.488
4312867,13225.0,2931.0,2753.0,0.637,0.425,-0.43,0.478
4312883,13335.0,2435.0,3119.0,0.66,0.415,-0.415,0.469
4312899,14005.0,3481.0,2717.0,0.684,0.404,-0.398,0.459
4312915,14141.0,4829.0,2067.0,0.708,0.391,-0.38,0.449
4312941,13479.0,2893.0,2213.0,0.733,0.374,-0.361,0.439
4312957,11887.0,2423.0,2933.0,0.758,0.358,-0.34,0.427
4312974,10275.0,1851.0,3673.0,0.781,0.342,-0.32,0.414
4312990,9529.0,2047.0,4161.0,0.802,0.326,-0.3,0.401
4313006,8563.0,1589.0,4201.0,0.82,0.313,-0.281,0.389
4313022,8045.0,2349.0,4289.0,0.836,0.301,-0.263,0.377
4313038,7707.0,2417.0,4005.0,0.85,0.288,-0.247,0.366
4313064,7727.0,1899.0,3785.0,0.862,0.275,-0.232,0.356
4313080,7167.0,1945.0,4025.0,0.874,0.263,-0.216,0.347
4313096,6683.0,1609.0,3789.0,0.884,0.252,-0.2,0.34
4313112,6229.0,2129.0,3741.0,0.892,0.242,-0.184,0.334
4313128,5943.0,3793.0,4097.0,0.901,0.23,-0.169,0.328
4313144,5189.0,697.0,4353.0,0.908,0.217,-0.156,0.322
4313170,5323.0,893.0,3797.0,0.915,0.207,-0.143,0.315
4313186,6203.0,2611.0,2603.0,0.921,0.198,-0.128,0.31
4313202,4983.0,2615.0,2951.0,0.927,0.187,-0.112,0.306
4313218,3913.0,1135.0,3939.0,0.932,0.176,-0.097,0.301
4313234,3209.0,-291.0,3869.0,0.937,0.168,-0.083,0.296
4313250,3719.0,1053.0,2835.0,0.94,0.163,-0.069,0.292
4313276,3163.0,2353.0,2575.0,0.943,0.156,-0.055,0.288
4313292,1973.0,1249.0,2227.0,0.946,0.147,-0.042,0.284
4313308,745.0,521.0,1785.0,0.949,0.137,-0.029,0.281
4313325,473.0,-1571.0,1851.0,0.952,0.125,-0.016,0.278
4313342,-973.0,-2825.0,2153.0,0.954,0.118,-0.003,0.275
4313359,-1181.0,-1423.0,1845.0,0.956,0.115,0.01,0.271
4313375,-1567.0,903.0,1213.0,0.957,0.112,0.021,0.268
4313391,-2231.0,169.0,1491.0,0.958,0.107,0.029,0.266
4313417,-3245.0,-1973.0,2059.0,0.958,0.104,0.034,0.266
4313433,-3269.0,-1047.0,1855.0,0.958,0.103,0.035,0.266
4313449,-2895.0,-881.0,1417.0,0.957,0.104,0.033,0.268
4313465,-2051.0,-999.0,1113.0,0.957,0.106,0.027,0.27
4313481,-1775.0,-1329.0,1623.0,0.955,0.109,0.019,0.274
4313497,-955.0,-827.0,2197.0,0.954,0.115,0.008,0.277
4313523,-131.0,-569.0,2411.0,0.952,0.123,-0.005,0.281
4313540,1069.0,689.0,1867.0,0.949,0.132,-0.021,0.286
4313557,1667.0,1081.0,2091.0,0.945,0.14,-0.036,0.293
4313573,3243.0,929.0,2779.0,0.941,0.148,-0.052,0.3
4313590,3463.0,-93.0,3057.0,0.937,0.157,-0.067,0.306
4313607,3683.0,817.0,3625.0,0.931,0.169,-0.082,0.313
4313623,4081.0,1191.0,3471.0,0.925,0.184,-0.098,0.319
4313639,4805.0,2489.0,3385.0,0.917,0.199,-0.114,0.326
4313665,4621.0,2765.0,4003.0,0.909,0.214,-0.132,0.334
4313681,5319.0,2397.0,4351.0,0.899,0.23,-0.152,0.341
4313697,5961.0,1365.0,4073.0,0.887,0.247,-0.173,0.349
4313713,7451.0,1629.0,3725.0,0.874,0.267,-0.194,0.357
4313729,8345.0,3263.0,3613.0,0.859,0.288,-0.213,0.365
4313745,9217.0,4681.0,3821.0,0.843,0.306,-0.232,0.375
4313763,9427.0,2493.0,4803.0,0.826,0.325,-0.251,0.386
4313789,10351.0,1951.0,4549.0,0.807,0.345,-0.268,0.397
4313805,11199.0,2639.0,3713.0,0.785,0.368,-0.283,0.409
4313821,11547.0,3501.0,3353.0,0.763,0.391,-0.296,0.422
4313838,11159.0,5571.0,4073.0,0.738,0.412,-0.308,0.436
4313855,11061.0,4709.0,4253.0,0.713,0.432,-0.322,0.45
4313872,11631.0,4043.0,3731.0,0.686,0.45,-0.335,0.463
4313888,12461.0,3703.0,3005.0,0.658,0.469,-0.347,0.477
4313904,12401.0,4191.0,3027.0,0.628,0.487,-0.355,0.492
4313930,12453.0,4791.0,3099.0,0.598,0.504,-0.362,0.507
4313946,12421.0,4995.0,2759.0,0.568,0.519,-0.368,0.522
4313962,12577.0,5015.0,2199.0,0.539,0.532,-0.373,0.536
4313978,12259.0,4861.0,1981.0,0.51,0.543,-0.377,0.551
4313994,11641.0,4487.0,2259.0,0.481,0.552,-0.38,0.565
4314020,11111.0,4137.0,2117.0,0.452,0.56,-0.383,0.579
4314036,10981.0,3891.0,1789.0,0.423,0.567,-0.385,0.592
4314052,11041.0,3569.0,1375.0,0.395,0.574,-0.387,0.604
4314068,11093.0,3219.0,1161.0,0.369,0.579,-0.388,0.615
4314084,11197.0,4639.0,861.0,0.343,0.584,-0.388,0.625
4314100,11043.0,3909.0,1063.0,0.318,0.586,-0.389,0.636
4314116,11361.0,3219.0,715.0,0.294,0.587,-0.389,0.646
4314142,10941.0,3333.0,937.0,0.272,0.588,-0.389,0.655
4314159,10463.0,3457.0,1011.0,0.252,0.587,-0.39,0.663
4314176,10131.0,3335.0,969.0,0.235,0.586,-0.39,0.67
4314192,9877.0,3475.0,909.0,0.219,0.585,-0.391,0.676
