timeMs,ax,ay,az,q0,q1,q2,q3
7972285,-1771.0,7929.0,178.0,0.649,0.662,0.301,0.223
7972301,-1799.0,8107.0,180.0,0.65,0.661,0.301,0.224
7972317,-1619.0,8251.0,48.0,0.651,0.66,0.3,0.224
7972333,-1565.0,8153.0,96.0,0.652,0.659,0.3,0.225
7972349,-1589.0,7951.0,122.0,0.652,0.659,0.299,0.226
7972375,-1659.0,7967.0,80.0,0.653,0.659,0.297,0.227
7972391,-1511.0,8017.0,102.0,0.653,0.659,0.296,0.228
7972407,-1339.0,8079.0,56.0,0.654,0.658,0.294,0.228
7972423,-1433.0,7975.0,232.0,0.655,0.658,0.293,0.229
7972440,-1551.0,8165.0,394.0,0.655,0.658,0.291,0.23
7972456,-1347.0,8209.0,248.0,0.656,0.658,0.289,0.23
7972472,-1153.0,7947.0,214.0,0.656,0.659,0.287,0.231
7972498,-907.0,7737.0,174.0,0.656,0.659,0.286,0.231
7972514,-1059.0,8315.0,142.0,0.656,0.659,0.285,0.232
7972530,-1069.0,8355.0,228.0,0.657,0.659,0.283,0.233
7972547,-957.0,7831.0,434.0,0.657,0.659,0.282,0.233
7972563,-943.0,8145.0,400.0,0.657,0.66,0.28,0.234
7972579,-813.0,8227.0,148.0,0.657,0.66,0.28,0.234
7972605,-713.0,8031.0,94.0,0.657,0.66,0.28,0.234
7972622,-757.0,8363.0,256.0,0.657,0.66,0.28,0.235
7972638,-919.0,8133.0,318.0,0.656,0.659,0.281,0.235
7972654,-923.0,7745.0,434.0,0.656,0.659,0.282,0.236
7972670,-937.0,7857.0,266.0,0.655,0.659,0.283,0.236
7972686,-955.0,8109.0,86.0,0.654,0.66,0.286,0.236
7972702,-1025.0,8103.0,122.0,0.653,0.66,0.288,0.236
7972728,-1221.0,8015.0,178.0,0.651,0.66,0.291,0.236
7972744,-1311.0,8031.0,144.0,0.649,0.661,0.295,0.236
7972760,-1437.0,8013.0,202.0,0.647,0.661,0.298,0.235
7972776,-1445.0,8163.0,-2.0,0.645,0.662,0.301,0.235
7972793,-1223.0,8839.0,-506.0,0.643,0.663,0.303,0.235
7972810,-1399.0,8841.0,-382.0,0.643,0.662,0.306,0.236
7972826,-1705.0,7825.0,12.0,0.643,0.661,0.307,0.237
7972852,-1869.0,7613.0,62.0,0.642,0.661,0.308,0.237
7972868,-1537.0,8019.0,-286.0,0.641,0.661,0.309,0.237
7972884,-1503.0,8283.0,-370.0,0.64,0.662,0.309,0.238
7972900,-1295.0,8211.0,-418.0,0.639,0.663,0.309,0.238
7972916,-1269.0,8609.0,-570.0,0.639,0.663,0.308,0.238
7972942,-1175.0,8167.0,-432.0,0.639,0.664,0.307,0.239
7972958,-1351.0,7999.0,-308.0,0.639,0.664,0.306,0.24
7972975,-1215.0,8231.0,-394.0,0.639,0.664,0.305,0.24
7972992,-1057.0,8063.0,-378.0,0.64,0.664,0.303,0.24
7973009,-1197.0,7999.0,-382.0,0.641,0.664,0.302,0.239
7973026,-1135.0,7949.0,-474.0,0.641,0.665,0.301,0.238
7973042,-1247.0,8077.0,-346.0,0.641,0.666,0.3,0.237
7973059,-1319.0,8327.0,-268.0,0.641,0.667,0.299,0.235
7973075,-1025.0,7985.0,-282.0,0.641,0.668,0.298,0.233
7973101,-1063.0,8051.0,-384.0,0.641,0.669,0.297,0.231
7973118,-1019.0,8251.0,-446.0,0.64,0.67,0.297,0.229
7973134,-903.0,8251.0,-496.0,0.64,0.671,0.297,0.228
7973151,-959.0,8073.0,-394.0,0.64,0.672,0.297,0.227
7973167,-987.0,8173.0,-240.0,0.639,0.672,0.298,0.226
7973184,-1005.0,8189.0,-250.0,0.639,0.672,0.299,0.225
7973200,-1169.0,8243.0,-252.0,0.639,0.672,0.3,0.225
7973216,-1167.0,8321.0,-298.0,0.638,0.671,0.302,0.226
7973242,-1167.0,8275.0,-322.0,0.638,0.67,0.303,0.226
7973259,-1233.0,8129.0,-274.0,0.638,0.669,0.305,0.227
7973275,-1287.0,7929.0,-206.0,0.638,0.668,0.306,0.229
7973291,-1387.0,8119.0,-264.0,0.638,0.668,0.308,0.23
7973307,-1463.0,8335.0,-242.0,0.638,0.667,0.309,0.231
7973323,-1431.0,8253.0,-162.0,0.637,0.666,0.309,0.233
7973349,-1315.0,8275.0,-234.0,0.637,0.665,0.31,0.234
7973365,-1219.0,8215.0,-396.0,0.638,0.665,0.31,0.235
7973382,-1365.0,8069.0,-312.0,0.638,0.664,0.31,0.237
7973398,-1243.0,7941.0,-226.0,0.638,0.663,0.31,0.238
7973414,-1049.0,8101.0,-340.0,0.639,0.663,0.309,0.238
7973431,-943.0,8083.0,-368.0,0.639,0.663,0.309,0.238
7973448,-901.0,8113.0,-348.0,0.639,0.662,0.309,0.238
7973465,-927.0,8077.0,-360.0,0.64,0.662,0.31,0.238
7973481,-1115.0,7967.0,-226.0,0.64,0.661,0.311,0.238
7973508,-1065.0,8191.0,-306.0,0.64,0.661,0.312,0.238
7973525,-1109.0,8251.0,-392.0,0.64,0.66,0.313,0.238
7973542,-1081.0,8179.0,-332.0,0.64,0.659,0.315,0.238
7973559,-1197.0,8075.0,-286.0,0.641,0.658,0.317,0.239
7973575,-1349.0,8095.0,-128.0,0.641,0.656,0.319,0.239
7973592,-1537.0,8121.0,-114.0,0.641,0.655,0.32,0.239
7973608,-1563.0,8131.0,-76.0,0.641,0.654,0.322,0.239
7973624,-1507.0,8241.0,-190.0,0.642,0.653,0.323,0.239
7973641,-1483.0,8073.0,-200.0,0.642,0.652,0.324,0.239
7973667,-1493.0,8047.0,-194.0,0.643,0.651,0.325,0.239
7973684,-1495.0,8157.0,-180.0,0.643,0.651,0.325,0.239
7973701,-1529.0,8109.0,-156.0,0.644,0.65,0.325,0.239
7973717,-1487.0,8095.0,-106.0,0.645,0.65,0.325,0.239
7973733,-1499.0,8101.0,-210.0,0.645,0.649,0.325,0.238
7973749,-1413.0,8125.0,-270.0,0.646,0.649,0.324,0.238
7973765,-1461.0,8143.0,-334.0,0.647,0.648,0.324,0.238
7973782,-1493.0,8225.0,-284.0,0.648,0.647,0.324,0.238
7973809,-1467.0,8101.0,-252.0,0.649,0.647,0.324,0.238
7973825,-1455.0,8181.0,-222.0,0.649,0.646,0.323,0.238
7973841,-1465.0,8181.0,-236.0,0.651,0.645,0.323,0.238
7973857,-1495.0,8155.0,-210.0,0.652,0.644,0.322,0.238
7973873,-1483.0,8075.0,-82.0,0.653,0.643,0.322,0.238
7973890,-1511.0,8115.0,-98.0,0.654,0.642,0.321,0.238
7973906,-1461.0,8053.0,-6.0,0.656,0.641,0.321,0.238
7973932,-1405.0,8001.0,68.0,0.657,0.64,0.32,0.238
7973949,-1373.0,8165.0,66.0,0.658,0.639,0.319,0.238
7973965,-1227.0,8009.0,96.0,0.659,0.638,0.319,0.237
7973981,-1329.0,8139.0,124.0,0.66,0.638,0.318,0.237
7973997,-1295.0,8163.0,126.0,0.662,0.637,0.318,0.236
7974013,-1243.0,8067.0,246.0,0.663,0.636,0.317,0.236
7974039,-1357.0,8179.0,320.0,0.664,0.635,0.317,0.235
7974055,-1255.0,8017.0,278.0,0.665,0.634,0.316,0.234
7974071,-1251.0,8007.0,230.0,0.666,0.634,0.316,0.233
7974087,-1355.0,8177.0,314.0,0.667,0.633,0.317,0.233
7974103,-1341.0,8079.0,340.0,0.668,0.632,0.317,0.232
7974119,-1383.0,7887.0,376.0,0.669,0.631,0.317,0.232
7974145,-1441.0,8005.0,432.0,0.67,0.63,0.318,0.231
7974161,-1581.0,8005.0,440.0,0.67,0.629,0.319,0.231
7974177,-1645.0,7971.0,466.0,0.671,0.629,0.319,0.23
7974193,-1735.0,7949.0,486.0,0.671,0.628,0.32,0.229
7974209,-1797.0,7977.0,428.0,0.671,0.628,0.321,0.229
7974225,-1711.0,8153.0,388.0,0.671,0.628,0.321,0.228
7974251,-1797.0,8075.0,332.0,0.671,0.628,0.322,0.228
7974267,-1785.0,8083.0,430.0,0.671,0.627,0.322,0.228
7974283,-1939.0,7953.0,498.0,0.671,0.627,0.323,0.228
7974299,-1855.0,7971.0,468.0,0.671,0.627,0.323,0.229
7974315,-1845.0,8031.0,384.0,0.671,0.627,0.323,0.229
7974332,-1731.0,8097.0,250.0,0.67,0.627,0.323,0.229
7974358,-1723.0,8047.0,278.0,0.67,0.627,0.323,0.23
7974374,-1709.0,7999.0,302.0,0.67,0.627,0.323,0.231
7974390,-1743.0,8041.0,320.0,0.67,0.627,0.323,0.231
7974406,-1665.0,8147.0,276.0,0.67,0.627,0.322,0.232
7974422,-1627.0,8141.0,188.0,0.67,0.627,0.322,0.233
7974438,-1773.0,8061.0,214.0,0.67,0.627,0.322,0.234
7974464,-1655.0,7901.0,226.0,0.67,0.627,0.321,0.235
7974481,-1645.0,7999.0,202.0,0.67,0.627,0.321,0.235
7974497,-1555.0,7977.0,278.0,0.67,0.627,0.32,0.236
7974513,-1595.0,8093.0,190.0,0.67,0.628,0.32,0.235
7974529,-1503.0,7987.0,310.0,0.669,0.628,0.319,0.235
7974545,-1439.0,8129.0,218.0,0.669,0.629,0.319,0.235
7974561,-1185.0,8107.0,238.0,0.669,0.63,0.318,0.234
7974587,-1285.0,8107.0,234.0,0.669,0.631,0.317,0.234
7974603,-1263.0,8117.0,316.0,0.668,0.631,0.317,0.233
7974619,-1199.0,8147.0,306.0,0.668,0.632,0.317,0.233
7974635,-1219.0,7991.0,412.0,0.667,0.633,0.317,0.232
7974651,-1125.0,8087.0,316.0,0.667,0.634,0.317,0.231
7974668,-1069.0,8099.0,280.0,0.666,0.635,0.317,0.23
7974694,-1097.0,8123.0,266.0,0.665,0.636,0.317,0.229
7974710,-1075.0,8093.0,330.0,0.665,0.636,0.318,0.228
7974726,-1149.0,8161.0,246.0,0.664,0.637,0.319,0.228
7974742,-1267.0,8111.0,296.0,0.663,0.637,0.321,0.227
7974758,-1305.0,8093.0,308.0,0.663,0.637,0.322,0.227
7974774,-1361.0,7993.0,304.0,0.662,0.637,0.324,0.226
7974800,-1429.0,8019.0,198.0,0.661,0.637,0.326,0.226
7974816,-1467.0,7943.0,142.0,0.66,0.637,0.328,0.225
7974832,-1531.0,7915.0,136.0,0.658,0.638,0.331,0.225
7974849,-1695.0,7969.0,46.0,0.657,0.638,0.334,0.225
7974865,-1723.0,7945.0,100.0,0.655,0.638,0.336,0.225
7974881,-1813.0,8069.0,16.0,0.653,0.639,0.339,0.225
7974907,-1767.0,8127.0,-146.0,0.651,0.639,0.342,0.225
7974924,-1795.0,8145.0,-198.0,0.649,0.64,0.345,0.226
7974940,-1823.0,7881.0,-80.0,0.647,0.64,0.348,0.226
7974956,-1851.0,7905.0,-168.0,0.645,0.64,0.35,0.227
7974972,-1727.0,8315.0,-370.0,0.643,0.641,0.353,0.227
7974988,-1733.0,8255.0,-368.0,0.641,0.641,0.356,0.229
7975004,-1809.0,8425.0,-468.0,0.64,0.64,0.358,0.23
7975030,-1743.0,8497.0,-426.0,0.638,0.64,0.359,0.232
7975046,-1595.0,8535.0,-370.0,0.638,0.639,0.36,0.234
7975062,-1781.0,7723.0,-292.0,0.638,0.638,0.361,0.236
7975079,-1783.0,7013.0,-350.0,0.637,0.638,0.362,0.238
7975095,-1591.0,7577.0,-510.0,0.635,0.639,0.363,0.238
7975111,-1621.0,8063.0,-662.0,0.633,0.639,0.365,0.239
7975137,-1615.0,8243.0,-632.0,0.632,0.64,0.366,0.24
7975153,-1647.0,8189.0,-632.0,0.63,0.64,0.367,0.241
7975169,-1741.0,8059.0,-586.0,0.629,0.641,0.368,0.242
7975185,-1713.0,8075.0,-620.0,0.628,0.641,0.368,0.243
7975201,-1759.0,8117.0,-634.0,0.626,0.642,0.369,0.245
7975217,-1795.0,8009.0,-660.0,0.625,0.642,0.37,0.246
7975243,-1719.0,7975.0,-714.0,0.624,0.642,0.37,0.247
7975259,-1789.0,7817.0,-738.0,0.623,0.642,0.371,0.248
7975276,-1819.0,7803.0,-804.0,0.622,0.643,0.371,0.25
7975292,-1823.0,7767.0,-990.0,0.62,0.644,0.372,0.251
7975309,-1903.0,8043.0,-1048.0,0.618,0.646,0.372,0.252
7975325,-1883.0,8411.0,-1242.0,0.615,0.648,0.372,0.253
7975341,-1831.0,8273.0,-1036.0,0.613,0.65,0.371,0.254
7975357,-1881.0,7723.0,-732.0,0.61,0.653,0.369,0.255
7975384,-1655.0,7795.0,-856.0,0.607,0.657,0.367,0.254
7975401,-1333.0,8645.0,-1154.0,0.605,0.661,0.364,0.254
7975417,-1021.0,8829.0,-1256.0,0.602,0.665,0.36,0.254
7975434,-1005.0,8377.0,-1068.0,0.601,0.669,0.356,0.255
7975451,-617.0,8457.0,-1078.0,0.599,0.673,0.352,0.256
7975467,-233.0,8617.0,-1290.0,0.597,0.676,0.347,0.256
7975483,-243.0,9033.0,-1310.0,0.596,0.678,0.343,0.257
7975499,-237.0,8569.0,-1150.0,0.597,0.679,0.339,0.259
7975525,-109.0,7925.0,-946.0,0.599,0.679,0.336,0.26
7975541,-113.0,7491.0,-856.0,0.6,0.679,0.333,0.261
7975557,-37.0,7479.0,-1004.0,0.602,0.678,0.332,0.261
7975573,-101.0,7671.0,-1164.0,0.603,0.676,0.333,0.262
7975590,-133.0,7607.0,-1296.0,0.604,0.674,0.335,0.262
7975606,-43.0,7689.0,-1240.0,0.604,0.672,0.338,0.263
7975632,-185.0,8297.0,-1380.0,0.605,0.669,0.343,0.264
7975648,-339.0,7987.0,-1100.0,0.605,0.665,0.348,0.266
7975664,-827.0,7621.0,-904.0,0.605,0.661,0.354,0.268
7975680,-977.0,7845.0,-814.0,0.604,0.657,0.36,0.27
7975696,-1197.0,7851.0,-738.0,0.603,0.654,0.367,0.272
7975712,-1243.0,7745.0,-854.0,0.602,0.651,0.374,0.273
7975738,-1345.0,7673.0,-898.0,0.6,0.648,0.381,0.274
7975754,-1565.0,7717.0,-968.0,0.597,0.646,0.388,0.275
7975770,-1651.0,8087.0,-1048.0,0.594,0.644,0.395,0.275
7975786,-1921.0,8355.0,-1118.0,0.592,0.643,0.401,0.275
7975802,-2157.0,8479.0,-868.0,0.589,0.642,0.406,0.275
7975818,-2097.0,9035.0,-1170.0,0.588,0.642,0.409,0.276
7975844,-2225.0,8915.0,-914.0,0.587,0.641,0.409,0.276
7975860,-2047.0,8059.0,-1058.0,0.588,0.642,0.408,0.277
7975876,-2123.0,7157.0,-1506.0,0.587,0.644,0.406,0.276
7975892,-2089.0,7727.0,-1060.0,0.585,0.648,0.403,0.274
7975908,-2069.0,9367.0,-854.0,0.585,0.653,0.397,0.272
7975924,-1845.0,9733.0,-1028.0,0.587,0.657,0.389,0.27
7975950,-1493.0,8971.0,-1174.0,0.591,0.66,0.379,0.268
7975966,-1281.0,8083.0,-1304.0,0.597,0.662,0.368,0.266
7975982,-1177.0,7391.0,-1188.0,0.602,0.663,0.358,0.264
7975999,-1083.0,7431.0,-1028.0,0.606,0.665,0.349,0.262
7976015,-961.0,7249.0,-1074.0,0.609,0.667,0.341,0.26
7976031,-569.0,7821.0,-1056.0,0.612,0.668,0.335,0.258
7976057,-605.0,7301.0,-602.0,0.615,0.668,0.331,0.256
7976073,-595.0,7441.0,-910.0,0.617,0.667,0.33,0.255
7976089,-353.0,7079.0,-998.0,0.618,0.666,0.33,0.255
7976105,-287.0,6985.0,-1218.0,0.617,0.665,0.334,0.255
7976121,-507.0,7151.0,-1108.0,0.614,0.665,0.34,0.256
7976137,-649.0,7671.0,-956.0,0.61,0.664,0.347,0.257
7976163,-1069.0,8051.0,-934.0,0.606,0.663,0.356,0.258
7976179,-1213.0,8239.0,-1142.0,0.601,0.661,0.365,0.259
7976195,-1425.0,8855.0,-1244.0,0.597,0.659,0.375,0.261
7976211,-1633.0,8705.0,-986.0,0.594,0.656,0.384,0.263
7976227,-1605.0,8563.0,-950.0,0.591,0.654,0.391,0.266
7976243,-1551.0,9141.0,-1300.0,0.589,0.65,0.398,0.268
7976269,-1597.0,9053.0,-1270.0,0.588,0.647,0.403,0.271
7976285,-1701.0,8393.0,-992.0,0.588,0.644,0.406,0.274
7976301,-1669.0,7955.0,-906.0,0.589,0.64,0.408,0.277
7976317,-1585.0,7531.0,-1044.0,0.589,0.638,0.41,0.279
7976333,-1375.0,7199.0,-1176.0,0.59,0.636,0.411,0.28
7976349,-1283.0,7659.0,-1038.0,0.59,0.635,0.412,0.281
7976375,-1411.0,8617.0,-1000.0,0.589,0.635,0.413,0.281
7976391,-1393.0,9231.0,-1066.0,0.59,0.634,0.412,0.282
7976407,-1187.0,9051.0,-1024.0,0.592,0.633,0.411,0.284
7976423,-1143.0,8483.0,-1298.0,0.594,0.631,0.409,0.286
7976441,-1123.0,7439.0,-1192.0,0.596,0.629,0.407,0.288
7976457,-1159.0,7421.0,-1052.0,0.597,0.628,0.406,0.29
7976473,-1065.0,7731.0,-858.0,0.598,0.627,0.405,0.292
7976499,-1125.0,8247.0,-864.0,0.599,0.627,0.404,0.293
7976515,-1037.0,8559.0,-682.0,0.599,0.626,0.402,0.295
7976531,-1085.0,8719.0,-490.0,0.601,0.625,0.4,0.297
7976547,-1061.0,8307.0,-630.0,0.604,0.623,0.398,0.299
7976563,-979.0,8043.0,-594.0,0.607,0.62,0.395,0.301
7976579,-861.0,7709.0,-702.0,0.61,0.618,0.393,0.303
7976605,-387.0,7293.0,-376.0,0.612,0.617,0.392,0.303
7976621,-485.0,9487.0,100.0,0.617,0.613,0.389,0.304
7976637,-1419.0,7011.0,-196.0,0.621,0.61,0.387,0.305
7976653,-1313.0,7955.0,-836.0,0.623,0.609,0.385,0.304
7976669,-1193.0,8695.0,-556.0,0.626,0.607,0.384,0.305
7976685,-563.0,7851.0,-518.0,0.628,0.605,0.383,0.305
7976711,-1555.0,7757.0,-118.0,0.631,0.603,0.381,0.305
7976727,-1649.0,7713.0,-48.0,0.633,0.602,0.379,0.305
7976743,-1431.0,7863.0,174.0,0.635,0.601,0.378,0.305
7976759,-1315.0,8053.0,100.0,0.636,0.601,0.376,0.305
7976775,-1489.0,8199.0,414.0,0.638,0.601,0.374,0.305
7976791,-1867.0,7801.0,374.0,0.639,0.6,0.373,0.305
7976817,-2087.0,7935.0,182.0,0.64,0.601,0.371,0.304
7976833,-1939.0,8281.0,80.0,0.64,0.601,0.371,0.302
7976849,-1805.0,8033.0,92.0,0.641,0.601,0.37,0.301
7976865,-1409.0,7719.0,236.0,0.642,0.602,0.368,0.299
7976881,-1503.0,8413.0,476.0,0.642,0.603,0.367,0.298
7976897,-1411.0,8315.0,798.0,0.644,0.603,0.367,0.296
7976923,-1307.0,8181.0,494.0,0.645,0.603,0.366,0.294
7976939,-2613.0,6213.0,-684.0,0.645,0.605,0.365,0.291
7976955,-1729.0,8795.0,-702.0,0.644,0.608,0.364,0.287
7976971,-1449.0,8807.0,-576.0,0.645,0.609,0.363,0.285
7976987,-745.0,7563.0,-60.0,0.646,0.61,0.361,0.283
7977013,-579.0,7757.0,68.0,0.646,0.612,0.361,0.281
7977029,-619.0,8625.0,-152.0,0.645,0.614,0.36,0.278
7977045,-753.0,8633.0,178.0,0.646,0.615,0.359,0.277
7977061,-843.0,8149.0,400.0,0.646,0.615,0.358,0.276
7977077,-1109.0,8349.0,454.0,0.647,0.616,0.356,0.275
7977093,-1129.0,7971.0,216.0,0.647,0.617,0.355,0.274
7977119,-1083.0,7945.0,290.0,0.647,0.617,0.354,0.273
7977135,-1197.0,8103.0,320.0,0.647,0.618,0.354,0.272
7977151,-1255.0,8025.0,432.0,0.647,0.618,0.353,0.272
7977167,-1159.0,7995.0,310.0,0.647,0.619,0.354,0.272
7977183,-1101.0,7973.0,4.0,0.646,0.62,0.354,0.271
7977199,-1337.0,8387.0,-128.0,0.645,0.62,0.355,0.271
7977225,-1343.0,8553.0,26.0,0.645,0.62,0.355,0.271
7977241,-1423.0,7961.0,260.0,0.645,0.619,0.356,0.272
7977257,-1429.0,7963.0,332.0,0.644,0.619,0.356,0.273
7977273,-1593.0,8181.0,176.0,0.644,0.619,0.357,0.273
7977289,-1385.0,8197.0,48.0,0.644,0.619,0.357,0.274
7977305,-1449.0,8231.0,-136.0,0.644,0.618,0.358,0.275
7977331,-1359.0,8115.0,-118.0,0.644,0.617,0.359,0.276
7977347,-1131.0,8081.0,-100.0,0.643,0.617,0.359,0.278
7977363,-1065.0,8039.0,-20.0,0.642,0.616,0.36,0.279
7977379,-1069.0,8043.0,-126.0,0.642,0.616,0.361,0.28
7977395,-861.0,8113.0,20.0,0.641,0.616,0.362,0.281
7977411,-917.0,8127.0,-60.0,0.64,0.616,0.363,0.282
7977437,-1061.0,8065.0,2.0,0.639,0.616,0.364,0.282
7977453,-1023.0,8045.0,-42.0,0.639,0.616,0.365,0.282
7977469,-1111.0,8025.0,-174.0,0.638,0.616,0.365,0.282
7977485,-1017.0,8055.0,-174.0,0.637,0.617,0.366,0.282
7977501,-1053.0,8091.0,-172.0,0.637,0.617,0.367,0.281
7977517,-981.0,8135.0,-218.0,0.636,0.618,0.367,0.281
7977544,-1091.0,8139.0,-212.0,0.635,0.619,0.368,0.28
7977560,-1461.0,8171.0,-40.0,0.635,0.619,0.369,0.279
7977576,-1331.0,8253.0,-198.0,0.634,0.62,0.37,0.278
7977592,-1387.0,8285.0,-230.0,0.633,0.62,0.37,0.278
7977608,-1335.0,8129.0,-180.0,0.633,0.621,0.371,0.278
7977624,-1331.0,8177.0,-228.0,0.632,0.621,0.371,0.277
7977650,-1337.0,8239.0,-312.0,0.632,0.621,0.372,0.277
7977666,-1335.0,8291.0,-308.0,0.631,0.622,0.372,0.277
7977682,-1399.0,8323.0,-380.0,0.631,0.622,0.372,0.278
7977698,-1381.0,8203.0,-290.0,0.63,0.622,0.372,0.278
7977714,-1381.0,8099.0,-262.0,0.63,0.622,0.372,0.279
7977730,-1361.0,8051.0,-298.0,0.629,0.623,0.372,0.279
7977756,-1173.0,8159.0,-414.0,0.629,0.623,0.372,0.279
7977772,-1151.0,8255.0,-424.0,0.628,0.623,0.372,0.28
7977788,-1167.0,8275.0,-372.0,0.628,0.624,0.372,0.28
7977804,-1111.0,8263.0,-320.0,0.628,0.624,0.372,0.281
7977820,-1169.0,8235.0,-242.0,0.627,0.624,0.371,0.281
7977836,-1059.0,7859.0,-112.0,0.627,0.625,0.37,0.281
7977862,-1093.0,7857.0,-196.0,0.627,0.625,0.37,0.281
7977878,-1053.0,7953.0,-258.0,0.627,0.626,0.369,0.281
7977894,-1071.0,8053.0,-388.0,0.626,0.627,0.369,0.281
7977910,-1093.0,8085.0,-334.0,0.626,0.627,0.369,0.281
7977926,-1097.0,8187.0,-434.0,0.625,0.628,0.369,0.28
7977942,-1141.0,8229.0,-508.0,0.624,0.629,0.37,0.28
7977968,-1167.0,8123.0,-566.0,0.623,0.63,0.37,0.28
7977984,-1217.0,7885.0,-604.0,0.622,0.63,0.371,0.279
7978000,-1285.0,7933.0,-554.0,0.621,0.631,0.371,0.279
7978016,-1509.0,7799.0,-486.0,0.62,0.632,0.372,0.279
7978032,-1543.0,7977.0,-510.0,0.618,0.633,0.374,0.279
7978049,-1435.0,8211.0,-672.0,0.617,0.634,0.375,0.278
7978075,-1261.0,8379.0,-786.0,0.615,0.635,0.376,0.278
7978091,-975.0,8293.0,-816.0,0.614,0.635,0.377,0.278
7978107,-1005.0,8161.0,-758.0,0.613,0.636,0.377,0.278
7978123,-881.0,8159.0,-714.0,0.612,0.636,0.378,0.278
7978139,-1027.0,8179.0,-702.0,0.611,0.637,0.379,0.278
7978155,-835.0,8375.0,-714.0,0.61,0.637,0.38,0.278
7978181,-885.0,8127.0,-742.0,0.61,0.637,0.381,0.278
7978198,-931.0,8115.0,-572.0,0.609,0.637,0.382,0.278
7978214,-1051.0,8035.0,-502.0,0.609,0.637,0.383,0.279
7978230,-979.0,8329.0,-650.0,0.608,0.637,0.383,0.279
7978246,-1017.0,8383.0,-792.0,0.608,0.637,0.384,0.279
7978262,-1031.0,8387.0,-742.0,0.608,0.636,0.384,0.28
7978278,-977.0,8457.0,-682.0,0.609,0.636,0.383,0.281
7978304,-1113.0,8295.0,-726.0,0.609,0.635,0.383,0.281
7978320,-1311.0,8413.0,-766.0,0.611,0.634,0.382,0.282
7978336,-1309.0,8129.0,-696.0,0.612,0.632,0.381,0.283
7978352,-1323.0,7945.0,-710.0,0.614,0.631,0.38,0.284
7978368,-1449.0,7909.0,-642.0,0.615,0.63,0.379,0.285
7978384,-1357.0,8145.0,-672.0,0.616,0.629,0.379,0.286
7978410,-1195.0,8337.0,-642.0,0.617,0.627,0.378,0.287
7978426,-1005.0,8163.0,-720.0,0.619,0.626,0.377,0.287
7978442,-865.0,7869.0,-680.0,0.62,0.625,0.377,0.288
7978458,-805.0,7455.0,-628.0,0.621,0.624,0.376,0.289
7978474,-1001.0,7379.0,-522.0,0.621,0.624,0.376,0.29
7978490,-1105.0,7905.0,-462.0,0.62,0.624,0.377,0.29
7978516,-1113.0,8483.0,-458.0,0.619,0.624,0.378,0.29
7978533,-1111.0,8555.0,-416.0,0.619,0.624,0.378,0.291
7978549,-1179.0,8383.0,-276.0,0.619,0.624,0.378,0.291
7978565,-1157.0,8335.0,-258.0,0.619,0.624,0.378,0.292
7978581,-1227.0,8123.0,-98.0,0.619,0.623,0.377,0.293
7978598,-1297.0,8117.0,-232.0,0.62,0.623,0.377,0.293
7978615,-1189.0,7931.0,-382.0,0.62,0.623,0.376,0.294
7978632,-1299.0,8333.0,-592.0,0.62,0.623,0.375,0.294
7978659,-1393.0,8215.0,-586.0,0.621,0.622,0.375,0.295
7978675,-1277.0,8081.0,-472.0,0.621,0.622,0.374,0.296
7978692,-1083.0,8117.0,-442.0,0.622,0.621,0.374,0.297
7978709,-915.0,8143.0,-442.0,0.622,0.62,0.374,0.298
7978725,-1021.0,8007.0,-480.0,0.623,0.62,0.373,0.299
7978742,-1057.0,8145.0,-466.0,0.623,0.619,0.372,0.299
7978759,-1247.0,8193.0,-288.0,0.624,0.619,0.372,0.3
7978776,-1275.0,8171.0,-134.0,0.625,0.618,0.371,0.3
7978793,-1263.0,8009.0,-212.0,0.626,0.617,0.37,0.301
7978809,-1081.0,8155.0,-392.0,0.627,0.616,0.369,0.301
7978835,-569.0,7931.0,-462.0,0.628,0.616,0.369,0.3
7978852,-875.0,7353.0,-150.0,0.629,0.616,0.369,0.299
7978869,-971.0,8291.0,-148.0,0.629,0.617,0.369,0.297
7978886,-921.0,8657.0,-200.0,0.629,0.617,0.368,0.296
7978902,-947.0,8337.0,-174.0,0.63,0.617,0.368,0.295
7978918,-809.0,8001.0,-52.0,0.63,0.618,0.367,0.294
7978934,-897.0,8263.0,-144.0,0.631,0.618,0.366,0.293
7978960,-867.0,8503.0,-462.0,0.631,0.619,0.366,0.292
7978976,-861.0,8507.0,-292.0,0.632,0.619,0.365,0.291
7978992,-823.0,8481.0,-150.0,0.633,0.618,0.364,0.291
7979008,-591.0,8283.0,-24.0,0.634,0.618,0.362,0.291
7979024,-569.0,8127.0,46.0,0.635,0.618,0.361,0.291
7979040,-683.0,8119.0,86.0,0.637,0.617,0.36,0.29
7979066,-763.0,8143.0,74.0,0.638,0.616,0.359,0.29
7979082,-823.0,8125.0,48.0,0.64,0.615,0.358,0.29
7979098,-753.0,8189.0,8.0,0.641,0.614,0.357,0.29
7979114,-729.0,8137.0,-58.0,0.642,0.613,0.356,0.29
7979130,-809.0,8143.0,12.0,0.644,0.612,0.356,0.29
7979146,-863.0,8197.0,-18.0,0.645,0.611,0.356,0.29
7979163,-931.0,8081.0,12.0,0.646,0.61,0.356,0.29
7979189,-1157.0,8083.0,34.0,0.647,0.609,0.356,0.29
7979205,-1275.0,8041.0,62.0,0.648,0.608,0.356,0.29
7979221,-1277.0,7947.0,194.0,0.648,0.608,0.357,0.289
7979237,-1325.0,7893.0,200.0,0.649,0.608,0.357,0.287
7979253,-1359.0,7929.0,234.0,0.649,0.608,0.357,0.286
7979269,-1199.0,7943.0,228.0,0.648,0.609,0.358,0.284
7979295,-1239.0,8025.0,204.0,0.648,0.61,0.358,0.283
7979311,-1197.0,8181.0,100.0,0.648,0.61,0.359,0.281
7979327,-1125.0,8455.0,34.0,0.647,0.611,0.359,0.28
7979343,-1133.0,8511.0,90.0,0.647,0.612,0.359,0.279
7979359,-1157.0,8583.0,96.0,0.647,0.611,0.359,0.279
7979375,-1113.0,8173.0,154.0,0.648,0.611,0.359,0.279
7979401,-979.0,8227.0,152.0,0.648,0.611,0.359,0.279
7979417,-997.0,8161.0,180.0,0.649,0.61,0.359,0.28
7979433,-957.0,8117.0,176.0,0.65,0.609,0.359,0.281
7979449,-979.0,8251.0,100.0,0.651,0.607,0.359,0.282
7979465,-1191.0,8143.0,152.0,0.652,0.605,0.359,0.283
7979482,-1189.0,8165.0,220.0,0.653,0.603,0.359,0.284
7979508,-1143.0,8031.0,246.0,0.654,0.602,0.359,0.285
7979524,-1203.0,7991.0,210.0,0.655,0.6,0.359,0.286
7979540,-1287.0,7965.0,268.0,0.656,0.599,0.359,0.287
7979556,-1253.0,8155.0,320.0,0.656,0.598,0.36,0.288
7979572,-1379.0,8103.0,312.0,0.657,0.597,0.36,0.288
7979588,-1335.0,8005.0,290.0,0.658,0.596,0.36,0.288
7979614,-1329.0,8075.0,266.0,0.658,0.595,0.36,0.288
7979630,-1469.0,7997.0,348.0,0.659,0.595,0.36,0.288
7979646,-1371.0,8049.0,362.0,0.659,0.594,0.36,0.288
7979662,-1359.0,8121.0,344.0,0.659,0.594,0.36,0.287
7979678,-1317.0,8055.0,372.0,0.66,0.594,0.36,0.286
7979694,-1283.0,8051.0,398.0,0.66,0.594,0.36,0.285
7979720,-1403.0,8121.0,414.0,0.661,0.594,0.36,0.285
7979736,-1479.0,7997.0,398.0,0.661,0.594,0.36,0.284
7979752,-1485.0,8075.0,498.0,0.661,0.594,0.36,0.283
7979768,-1447.0,8431.0,406.0,0.661,0.595,0.359,0.283
7979784,-1291.0,8471.0,352.0,0.661,0.595,0.359,0.283
7979800,-1109.0,8491.0,320.0,0.661,0.596,0.358,0.284
7979826,-1157.0,8265.0,424.0,0.661,0.596,0.356,0.284
7979842,-1239.0,8021.0,544.0,0.662,0.596,0.355,0.284
7979858,-1305.0,7861.0,654.0,0.662,0.596,0.354,0.284
7979874,-1239.0,7915.0,638.0,0.663,0.597,0.352,0.284
7979890,-1151.0,8087.0,548.0,0.663,0.597,0.351,0.284
7979906,-1063.0,8127.0,432.0,0.664,0.597,0.35,0.283
7979933,-987.0,8089.0,406.0,0.665,0.597,0.349,0.282
7979949,-1023.0,8251.0,416.0,0.666,0.597,0.348,0.282
7979965,-943.0,8069.0,460.0,0.666,0.597,0.347,0.282
7979981,-969.0,8059.0,332.0,0.666,0.598,0.347,0.281
7979997,-819.0,8259.0,166.0,0.665,0.598,0.347,0.281
7980013,-751.0,8013.0,104.0,0.665,0.599,0.348,0.281
7980039,-955.0,8295.0,384.0,0.663,0.599,0.348,0.281
7980055,-1265.0,8563.0,608.0,0.662,0.6,0.349,0.281
7980071,-1269.0,8599.0,822.0,0.661,0.602,0.349,0.282
7980087,-1085.0,8391.0,864.0,0.66,0.603,0.349,0.282
7980103,-1061.0,10013.0,674.0,0.66,0.602,0.35,0.282
7980119,-365.0,6939.0,426.0,0.662,0.6,0.35,0.282
7980145,-725.0,6801.0,164.0,0.662,0.599,0.351,0.282
7980161,-879.0,7159.0,264.0,0.66,0.6,0.354,0.281
7980177,-1167.0,7429.0,340.0,0.658,0.601,0.357,0.281
7980193,-1257.0,8021.0,346.0,0.654,0.603,0.361,0.28
7980209,-1575.0,9053.0,166.0,0.651,0.603,0.364,0.281
7980225,-1547.0,9137.0,382.0,0.649,0.603,0.368,0.282
7980251,-1549.0,8313.0,412.0,0.648,0.602,0.371,0.284
7980267,-1397.0,8329.0,328.0,0.646,0.601,0.373,0.286
7980283,-1327.0,8211.0,48.0,0.645,0.6,0.376,0.288
7980300,-1001.0,8505.0,12.0,0.642,0.6,0.378,0.29
7980316,-761.0,8839.0,60.0,0.64,0.6,0.38,0.292
7980332,-629.0,8941.0,224.0,0.638,0.601,0.38,0.295
7980358,-453.0,8817.0,442.0,0.636,0.602,0.38,0.298
7980374,-569.0,8379.0,590.0,0.635,0.603,0.378,0.301
7980390,-717.0,7803.0,642.0,0.634,0.604,0.377,0.303
7980406,-961.0,7493.0,160.0,0.632,0.605,0.376,0.305
7980422,-843.0,7049.0,14.0,0.63,0.607,0.376,0.306
7980438,-1179.0,7647.0,-536.0,0.628,0.608,0.376,0.307
7980464,-1139.0,7403.0,-438.0,0.627,0.608,0.377,0.308
7980480,-969.0,6607.0,-436.0,0.626,0.609,0.379,0.308
7980496,-1327.0,7227.0,-1190.0,0.623,0.61,0.382,0.307
7980512,-1835.0,7571.0,-1282.0,0.62,0.611,0.386,0.306
7980529,-2323.0,8635.0,-1062.0,0.616,0.612,0.391,0.305
7980545,-2573.0,9037.0,-850.0,0.613,0.612,0.395,0.306
7980571,-2691.0,8675.0,-1134.0,0.61,0.612,0.399,0.307
7980587,-2711.0,8337.0,-1200.0,0.608,0.611,0.402,0.308
7980603,-2577.0,8415.0,-1000.0,0.607,0.609,0.406,0.31
7980619,-2313.0,8695.0,-984.0,0.607,0.606,0.408,0.312
7980635,-1787.0,8793.0,-980.0,0.607,0.604,0.41,0.314
7980651,-1585.0,8125.0,-802.0,0.609,0.6,0.412,0.316
7980677,-1305.0,7787.0,-804.0,0.61,0.597,0.413,0.318
7980693,-831.0,7675.0,-690.0,0.61,0.595,0.415,0.318
7980709,-719.0,7585.0,-540.0,0.61,0.594,0.416,0.319
7980725,-647.0,7913.0,-458.0,0.609,0.594,0.417,0.318
7980741,-577.0,7461.0,-390.0,0.608,0.595,0.419,0.318
7980757,-679.0,8173.0,-388.0,0.607,0.596,0.42,0.316
7980783,-521.0,9045.0,-212.0,0.606,0.597,0.42,0.316
7980799,-909.0,8723.0,86.0,0.607,0.597,0.42,0.316
7980815,-1253.0,9111.0,328.0,0.608,0.596,0.419,0.316
7980831,-1357.0,9165.0,366.0,0.611,0.594,0.416,0.316
7980848,-997.0,9711.0,-56.0,0.617,0.59,0.413,0.317
7980865,-311.0,9007.0,-348.0,0.623,0.585,0.41,0.318
7980881,-221.0,7237.0,-584.0,0.629,0.58,0.406,0.32
7980898,-333.0,5871.0,-430.0,0.633,0.577,0.405,0.321
7980925,-563.0,6733.0,-386.0,0.633,0.577,0.405,0.32
7980941,-951.0,8029.0,74.0,0.632,0.578,0.405,0.319
7980957,-1301.0,8895.0,378.0,0.632,0.579,0.405,0.318
7980973,-1323.0,8569.0,220.0,0.632,0.579,0.404,0.318
7980989,-1329.0,8039.0,146.0,0.632,0.58,0.403,0.318
7981005,-1463.0,8197.0,168.0,0.632,0.581,0.402,0.318
7981031,-1473.0,8179.0,288.0,0.632,0.582,0.401,0.318
7981048,-1483.0,8107.0,108.0,0.632,0.583,0.4,0.318
7981064,-1431.0,7847.0,112.0,0.633,0.584,0.398,0.317
7981081,-1319.0,7907.0,164.0,0.633,0.584,0.397,0.317
7981097,-1383.0,7789.0,148.0,0.633,0.585,0.396,0.316
7981114,-1431.0,7807.0,268.0,0.632,0.586,0.396,0.316
7981130,-1271.0,8035.0,118.0,0.632,0.587,0.396,0.315
7981147,-1103.0,8009.0,-40.0,0.631,0.588,0.396,0.314
7981164,-1087.0,7833.0,-232.0,0.63,0.589,0.397,0.314
7981181,-1189.0,7537.0,-214.0,0.628,0.59,0.398,0.314
7981208,-1165.0,7639.0,-50.0,0.626,0.591,0.401,0.314
7981224,-1211.0,8063.0,-44.0,0.623,0.593,0.403,0.314
7981240,-949.0,9047.0,-206.0,0.619,0.594,0.406,0.314
7981256,-1127.0,9359.0,-180.0,0.617,0.596,0.407,0.315
7981272,-1181.0,9383.0,-54.0,0.615,0.596,0.408,0.317
7981288,-1251.0,8721.0,-26.0,0.614,0.595,0.408,0.319
7981314,-1019.0,8121.0,-48.0,0.614,0.595,0.408,0.321
7981331,-991.0,7527.0,-84.0,0.614,0.594,0.408,0.323
7981347,-841.0,7321.0,-314.0,0.614,0.593,0.408,0.323
7981364,-835.0,7529.0,-288.0,0.613,0.594,0.409,0.323
7981381,-937.0,8011.0,-292.0,0.613,0.594,0.41,0.322
7981397,-1163.0,8101.0,-160.0,0.613,0.594,0.41,0.321
7981414,-1237.0,8025.0,-170.0,0.613,0.594,0.411,0.319
7981430,-1471.0,7907.0,-386.0,0.613,0.594,0.411,0.318
7981447,-1403.0,8229.0,-526.0,0.613,0.594,0.413,0.317
7981464,-1533.0,8125.0,-364.0,0.613,0.594,0.414,0.317
7981491,-1405.0,8587.0,-416.0,0.611,0.595,0.415,0.317
7981507,-757.0,9887.0,-878.0,0.61,0.595,0.415,0.319
7981523,-811.0,9773.0,-940.0,0.608,0.596,0.414,0.322
7981539,-939.0,8951.0,-556.0,0.607,0.595,0.412,0.327
7981555,-1039.0,8191.0,-262.0,0.607,0.594,0.41,0.332
7981571,-1221.0,7527.0,-118.0,0.608,0.594,0.407,0.337
7981597,-987.0,7463.0,-256.0,0.609,0.593,0.404,0.34
7981614,-615.0,8135.0,-356.0,0.61,0.592,0.401,0.342
7981631,-463.0,8405.0,-346.0,0.612,0.591,0.398,0.344
7981647,-485.0,8043.0,-300.0,0.614,0.589,0.395,0.346
7981664,-395.0,7617.0,-250.0,0.617,0.588,0.392,0.347
7981681,-491.0,7295.0,-224.0,0.619,0.586,0.391,0.347
7981698,-757.0,7455.0,-116.0,0.62,0.585,0.391,0.347
7981714,-897.0,7585.0,20.0,0.622,0.584,0.391,0.346
7981731,-1045.0,8013.0,178.0,0.623,0.582,0.392,0.345
7981748,-1007.0,8315.0,70.0,0.625,0.581,0.393,0.343
7981774,-871.0,8331.0,50.0,0.626,0.579,0.394,0.342
7981790,-975.0,8341.0,80.0,0.627,0.578,0.395,0.341
7981806,-1123.0,8301.0,296.0,0.628,0.577,0.396,0.341
7981822,-1251.0,8427.0,454.0,0.63,0.575,0.396,0.34
7981838,-1277.0,8567.0,444.0,0.631,0.574,0.396,0.34
7981854,-1221.0,8407.0,410.0,0.633,0.572,0.396,0.34
7981880,-1141.0,8209.0,530.0,0.635,0.571,0.395,0.34
7981897,-1171.0,8063.0,512.0,0.637,0.57,0.394,0.34
7981914,-1181.0,7951.0,612.0,0.638,0.568,0.393,0.34
7981930,-1133.0,7837.0,534.0,0.64,0.567,0.391,0.34
7981947,-1191.0,7933.0,536.0,0.641,0.566,0.391,0.34
7981964,-1179.0,8029.0,464.0,0.643,0.565,0.39,0.339
7981981,-1113.0,8049.0,536.0,0.644,0.565,0.389,0.339
7981997,-1089.0,8131.0,542.0,0.645,0.564,0.389,0.339
7982013,-1077.0,8135.0,602.0,0.646,0.563,0.388,0.34
7982039,-1169.0,8101.0,674.0,0.647,0.562,0.387,0.34
7982055,-1375.0,7995.0,836.0,0.648,0.561,0.387,0.34
7982071,-1399.0,7997.0,716.0,0.649,0.56,0.386,0.34
7982087,-1235.0,7967.0,644.0,0.65,0.56,0.386,0.34
7982103,-1239.0,7843.0,772.0,0.651,0.559,0.385,0.34
7982119,-1277.0,8403.0,730.0,0.651,0.559,0.385,0.34
7982145,-1085.0,8281.0,720.0,0.652,0.559,0.384,0.34
7982162,-1171.0,8011.0,844.0,0.652,0.559,0.384,0.34
7982179,-1379.0,8025.0,978.0,0.652,0.559,0.383,0.34
7982196,-1969.0,8273.0,840.0,0.652,0.559,0.383,0.34
7982213,-2469.0,8871.0,1252.0,0.652,0.56,0.382,0.34
7982230,-1429.0,8413.0,1486.0,0.654,0.56,0.379,0.339
7982247,-515.0,7289.0,1188.0,0.657,0.56,0.375,0.338
7982264,-293.0,7345.0,410.0,0.659,0.561,0.373,0.335
7982280,-361.0,8207.0,296.0,0.661,0.561,0.371,0.332
7982297,-361.0,8423.0,442.0,0.662,0.562,0.37,0.331
7982314,-493.0,8083.0,640.0,0.663,0.562,0.368,0.33
7982340,-579.0,8061.0,928.0,0.663,0.563,0.367,0.33
7982356,-923.0,8267.0,978.0,0.663,0.563,0.367,0.329
7982372,-937.0,8015.0,1050.0,0.663,0.564,0.367,0.329
7982388,-901.0,7847.0,1054.0,0.663,0.564,0.367,0.329
7982404,-921.0,7921.0,924.0,0.662,0.565,0.367,0.329
7982420,-923.0,8009.0,902.0,0.661,0.565,0.368,0.329
7982446,-1057.0,8247.0,888.0,0.661,0.565,0.369,0.329
7982463,-909.0,8223.0,918.0,0.66,0.566,0.369,0.329
7982480,-917.0,8223.0,802.0,0.659,0.566,0.37,0.33
7982497,-1149.0,8293.0,800.0,0.658,0.565,0.371,0.331
7982513,-1061.0,8211.0,824.0,0.657,0.565,0.372,0.332
7982530,-1003.0,8189.0,640.0,0.657,0.565,0.373,0.333
7982547,-1073.0,8389.0,550.0,0.656,0.565,0.373,0.334
7982563,-1189.0,8221.0,728.0,0.655,0.565,0.374,0.335
7982580,-1093.0,7999.0,798.0,0.655,0.565,0.374,0.336
7982597,-983.0,8375.0,546.0,0.654,0.564,0.374,0.336
7982623,-937.0,8871.0,318.0,0.655,0.564,0.374,0.338
7982639,-955.0,8805.0,308.0,0.655,0.562,0.373,0.339
7982656,-997.0,8177.0,692.0,0.656,0.56,0.372,0.341
7982672,-1087.0,7663.0,866.0,0.657,0.559,0.371,0.343
7982688,-1063.0,7747.0,764.0,0.658,0.558,0.371,0.343
7982704,-883.0,7805.0,662.0,0.659,0.558,0.37,0.343
7982730,-997.0,8049.0,678.0,0.659,0.557,0.37,0.343
7982747,-985.0,8061.0,730.0,0.66,0.557,0.369,0.343
7982764,-1057.0,8057.0,862.0,0.661,0.557,0.368,0.342
7982780,-1049.0,7893.0,1016.0,0.662,0.557,0.368,0.341
7982797,-961.0,7783.0,1086.0,0.663,0.558,0.368,0.339
7982813,-1047.0,7897.0,986.0,0.663,0.558,0.368,0.336
7982830,-843.0,8667.0,758.0,0.664,0.559,0.368,0.334
7982847,-1007.0,7907.0,1068.0,0.665,0.558,0.367,0.333
7982863,-1043.0,8311.0,1176.0,0.666,0.558,0.367,0.331
7982880,-587.0,8137.0,1282.0,0.667,0.558,0.366,0.33
7982906,-657.0,7753.0,1248.0,0.668,0.558,0.366,0.329
7982922,-813.0,7917.0,1194.0,0.668,0.558,0.367,0.328
7982938,-849.0,7921.0,1192.0,0.668,0.559,0.368,0.326
7982954,-881.0,7947.0,1278.0,0.667,0.56,0.368,0.325
7982970,-1007.0,7951.0,1272.0,0.666,0.562,0.369,0.324
7982986,-1179.0,7971.0,1182.0,0.665,0.563,0.37,0.323
7983012,-1123.0,8055.0,992.0,0.663,0.565,0.372,0.322
7983028,-1091.0,8163.0,794.0,0.661,0.566,0.373,0.321
7983045,-1075.0,8189.0,682.0,0.659,0.567,0.375,0.321
7983062,-863.0,8669.0,252.0,0.657,0.568,0.377,0.321
7983079,-919.0,9271.0,220.0,0.656,0.568,0.379,0.322
7983096,-997.0,9313.0,212.0,0.655,0.566,0.379,0.325
7983113,-1003.0,9343.0,284.0,0.656,0.564,0.379,0.329
7983130,-1007.0,9845.0,578.0,0.658,0.559,0.378,0.333
7983147,-1307.0,7263.0,1020.0,0.662,0.553,0.376,0.338
7983163,-1239.0,5941.0,926.0,0.664,0.549,0.375,0.341
7983190,-1391.0,5899.0,886.0,0.664,0.548,0.376,0.342
7983206,-1387.0,7095.0,890.0,0.664,0.548,0.378,0.341
7983222,-1395.0,8023.0,848.0,0.663,0.549,0.38,0.34
7983238,-1323.0,8077.0,840.0,0.662,0.55,0.381,0.338
7983254,-1291.0,8273.0,692.0,0.661,0.55,0.383,0.336
7983270,-1261.0,8531.0,542.0,0.661,0.551,0.385,0.335
7983296,-1303.0,8205.0,656.0,0.66,0.552,0.386,0.333
7983313,-1469.0,8051.0,760.0,0.659,0.552,0.387,0.332
7983330,-1661.0,8057.0,830.0,0.659,0.553,0.388,0.331
7983346,-1567.0,8181.0,808.0,0.658,0.554,0.389,0.33
7983363,-1617.0,8411.0,710.0,0.658,0.554,0.39,0.329
7983380,-1481.0,8299.0,616.0,0.657,0.555,0.39,0.329
7983396,-1423.0,8427.0,658.0,0.657,0.555,0.389,0.329
7983413,-1439.0,8115.0,732.0,0.657,0.556,0.389,0.329
7983430,-1293.0,8037.0,646.0,0.657,0.556,0.389,0.329
7983456,-1191.0,8539.0,450.0,0.656,0.557,0.388,0.329
7983472,-1187.0,9245.0,414.0,0.656,0.557,0.387,0.33
7983488,-1069.0,9427.0,404.0,0.657,0.556,0.385,0.333
7983504,-1023.0,8413.0,630.0,0.658,0.555,0.383,0.335
7983520,-1113.0,7117.0,690.0,0.659,0.553,0.381,0.338
7983536,-1121.0,6307.0,852.0,0.66,0.552,0.38,0.339
7983562,-1283.0,6807.0,834.0,0.66,0.553,0.38,0.339
7983579,-1241.0,8327.0,618.0,0.66,0.553,0.38,0.338
7983596,-1229.0,9273.0,640.0,0.66,0.553,0.379,0.339
7983613,-1157.0,8711.0,848.0,0.661,0.553,0.377,0.339
7983630,-1209.0,8091.0,896.0,0.662,0.552,0.376,0.34
7983646,-1127.0,7985.0,802.0,0.663,0.552,0.375,0.34
7983663,-1105.0,7631.0,770.0,0.664,0.551,0.374,0.34
7983680,-1107.0,7623.0,806.0,0.665,0.55,0.373,0.34
7983696,-1091.0,8119.0,838.0,0.666,0.55,0.372,0.34
7983713,-1193.0,8287.0,1014.0,0.667,0.549,0.371,0.34
7983730,-1107.0,8227.0,1152.0,0.668,0.549,0.371,0.339
7983756,-979.0,8147.0,1118.0,0.668,0.55,0.37,0.339
7983772,-803.0,8451.0,854.0,0.669,0.549,0.369,0.339
7983788,-855.0,8361.0,850.0,0.67,0.549,0.368,0.338
7983804,-1183.0,8611.0,868.0,0.671,0.548,0.367,0.339
7983820,-1263.0,8447.0,1076.0,0.672,0.547,0.366,0.34
7983836,-955.0,7879.0,1532.0,0.672,0.547,0.365,0.341
7983862,-561.0,7861.0,1296.0,0.673,0.546,0.363,0.341
7983879,-515.0,7897.0,1068.0,0.674,0.546,0.363,0.34
7983896,-701.0,8049.0,1286.0,0.675,0.546,0.362,0.34
7983913,-721.0,7863.0,1342.0,0.677,0.545,0.361,0.339
7983930,-813.0,7919.0,1518.0,0.677,0.545,0.36,0.338
7983946,-831.0,8075.0,1432.0,0.678,0.546,0.359,0.337
7983963,-897.0,8087.0,1354.0,0.679,0.546,0.358,0.336
7983979,-851.0,7885.0,1330.0,0.679,0.546,0.358,0.335
7983996,-1017.0,7667.0,1532.0,0.68,0.547,0.358,0.333
7984013,-969.0,8017.0,1420.0,0.68,0.547,0.358,0.332
7984039,-945.0,8019.0,1352.0,0.68,0.548,0.358,0.331
7984055,-893.0,7883.0,1366.0,0.68,0.549,0.358,0.33
7984071,-973.0,8003.0,1298.0,0.679,0.55,0.359,0.329
7984088,-1053.0,8129.0,1262.0,0.678,0.551,0.36,0.328
7984104,-1133.0,7953.0,1322.0,0.677,0.551,0.36,0.327
7984120,-1129.0,7965.0,1252.0,0.676,0.552,0.361,0.327
7984146,-1169.0,8099.0,1176.0,0.675,0.553,0.363,0.327
7984162,-1153.0,8039.0,1216.0,0.674,0.554,0.364,0.327
7984179,-1233.0,8045.0,1114.0,0.672,0.555,0.365,0.327
7984196,-1207.0,8167.0,962.0,0.671,0.555,0.366,0.327
7984213,-1227.0,8055.0,976.0,0.67,0.556,0.368,0.327
7984229,-1287.0,7959.0,932.0,0.668,0.557,0.369,0.328
7984245,-1223.0,7967.0,898.0,0.667,0.557,0.371,0.328
7984262,-1221.0,8119.0,800.0,0.665,0.558,0.372,0.329
7984278,-1241.0,8245.0,776.0,0.663,0.559,0.374,0.329
7984305,-1155.0,8667.0,640.0,0.662,0.559,0.375,0.33
7984321,-833.0,8221.0,650.0,0.66,0.559,0.376,0.332
7984337,-1049.0,8825.0,536.0,0.658,0.559,0.377,0.334
7984353,-1137.0,8161.0,768.0,0.657,0.559,0.377,0.337
7984369,-1131.0,7421.0,842.0,0.656,0.559,0.378,0.338
7984385,-1355.0,7637.0,770.0,0.655,0.559,0.379,0.34
7984411,-1389.0,7629.0,686.0,0.654,0.559,0.381,0.34
7984428,-1185.0,7913.0,710.0,0.652,0.559,0.382,0.34
7984445,-1357.0,8243.0,814.0,0.651,0.559,0.384,0.34
7984462,-1289.0,8219.0,744.0,0.651,0.56,0.385,0.34
7984483,-1135.0,8257.0,562.0,0.65,0.56,0.386,0.339
7984499,-1011.0,8093.0,498.0,0.649,0.561,0.387,0.339
7984515,-1037.0,8163.0,440.0,0.648,0.562,0.388,0.338
7984531,-1211.0,8181.0,136.0,0.647,0.562,0.389,0.338
7984547,-1011.0,8255.0,482.0,0.646,0.563,0.389,0.337
7984563,-999.0,8277.0,520.0,0.645,0.564,0.39,0.337
7984579,-1123.0,8229.0,542.0,0.645,0.564,0.391,0.336
7984606,-1023.0,8207.0,472.0,0.644,0.565,0.392,0.336
7984622,-967.0,8171.0,438.0,0.643,0.565,0.392,0.336
7984638,-1099.0,8195.0,434.0,0.643,0.566,0.393,0.335
7984654,-931.0,8173.0,426.0,0.642,0.566,0.394,0.335
7984670,-921.0,8315.0,294.0,0.641,0.566,0.395,0.335
7984686,-1005.0,8211.0,320.0,0.641,0.566,0.396,0.336
7984712,-1033.0,8277.0,314.0,0.64,0.566,0.397,0.336
7984729,-1053.0,8187.0,354.0,0.639,0.566,0.398,0.336
7984746,-963.0,8275.0,230.0,0.638,0.566,0.399,0.337
7984762,-1015.0,9087.0,-110.0,0.637,0.566,0.4,0.338
7984779,-961.0,8889.0,22.0,0.636,0.565,0.401,0.34
7984795,-733.0,7811.0,460.0,0.636,0.563,0.401,0.343
7984811,-1137.0,7663.0,546.0,0.635,0.563,0.402,0.344
7984828,-1223.0,7673.0,436.0,0.634,0.562,0.403,0.345
7984854,-1151.0,7733.0,446.0,0.634,0.562,0.404,0.345
7984870,-1209.0,7989.0,414.0,0.634,0.562,0.405,0.345
7984886,-1151.0,8237.0,308.0,0.633,0.561,0.406,0.345
7984902,-1201.0,8665.0,216.0,0.633,0.561,0.406,0.345
7984918,-1179.0,8145.0,388.0,0.634,0.561,0.407,0.344
7984934,-1147.0,7899.0,426.0,0.634,0.561,0.407,0.344
7984960,-1157.0,7937.0,316.0,0.634,0.561,0.408,0.343
7984977,-1179.0,8007.0,334.0,0.633,0.561,0.409,0.342
7984994,-1235.0,7921.0,344.0,0.633,0.561,0.41,0.342
7985011,-1227.0,8111.0,338.0,0.633,0.561,0.41,0.341
7985028,-1217.0,8303.0,234.0,0.633,0.561,0.411,0.34
7985045,-1323.0,8483.0,188.0,0.632,0.562,0.412,0.339
7985062,-1369.0,8303.0,280.0,0.632,0.561,0.412,0.339
7985079,-1161.0,8081.0,318.0,0.632,0.561,0.412,0.339
7985096,-1305.0,8073.0,258.0,0.632,0.561,0.413,0.339
7985113,-1315.0,8131.0,232.0,0.632,0.561,0.413,0.339
7985129,-1229.0,8009.0,258.0,0.631,0.562,0.413,0.339
7985146,-1259.0,8167.0,238.0,0.631,0.562,0.414,0.339
7985172,-1483.0,8359.0,284.0,0.631,0.562,0.414,0.339
7985188,-1503.0,8277.0,262.0,0.631,0.562,0.414,0.339
7985204,-1251.0,7907.0,200.0,0.631,0.562,0.414,0.34
7985220,-1241.0,7935.0,176.0,0.63,0.562,0.414,0.339
7985236,-1205.0,8111.0,160.0,0.63,0.562,0.414,0.339
7985252,-1267.0,8093.0,180.0,0.63,0.562,0.414,0.339
7985278,-1191.0,8181.0,182.0,0.63,0.563,0.415,0.34
7985295,-1211.0,8053.0,230.0,0.629,0.563,0.415,0.34
7985311,-1213.0,8045.0,150.0,0.629,0.563,0.415,0.34
7985328,-1191.0,8201.0,160.0,0.629,0.563,0.416,0.34
7985345,-1145.0,8123.0,128.0,0.628,0.563,0.416,0.34
7985362,-1143.0,8133.0,164.0,0.628,0.563,0.416,0.34
7985378,-1177.0,8127.0,158.0,0.628,0.563,0.417,0.34
7985395,-1195.0,8115.0,170.0,0.627,0.563,0.417,0.34
7985412,-1253.0,8149.0,148.0,0.627,0.563,0.418,0.34
7985429,-1267.0,8143.0,198.0,0.627,0.563,0.418,0.34
7985456,-1233.0,8215.0,160.0,0.627,0.562,0.418,0.34
7985472,-1259.0,8167.0,202.0,0.627,0.562,0.418,0.341
7985488,-1253.0,8127.0,186.0,0.627,0.562,0.418,0.341
7985504,-1209.0,8149.0,148.0,0.627,0.562,0.418,0.341
7985520,-1167.0,8195.0,70.0,0.627,0.562,0.418,0.341
7985536,-1229.0,8101.0,142.0,0.627,0.562,0.418,0.341
7985562,-1251.0,8133.0,196.0,0.627,0.562,0.418,0.341
7985579,-1189.0,8129.0,164.0,0.627,0.562,0.418,0.341
7985595,-1261.0,8173.0,138.0,0.627,0.562,0.418,0.341
7985612,-1247.0,8157.0,196.0,0.627,0.562,0.418,0.341
7985628,-1235.0,8157.0,156.0,0.627,0.562,0.418,0.341
7985645,-1235.0,8097.0,170.0,0.627,0.562,0.418,0.342
7985662,-1217.0,8101.0,122.0,0.627,0.562,0.418,0.342
7985679,-1307.0,8231.0,156.0,0.627,0.562,0.418,0.342
7985695,-1217.0,8229.0,190.0,0.627,0.562,0.418,0.342
7985712,-1225.0,8089.0,240.0,0.627,0.562,0.418,0.343
7985739,-1273.0,8135.0,182.0,0.627,0.562,0.417,0.343
7985755,-1257.0,8103.0,156.0,0.627,0.562,0.417,0.343
7985771,-1249.0,8135.0,178.0,0.627,0.562,0.417,0.343
7985787,-1191.0,8101.0,148.0,0.627,0.562,0.417,0.343
7985803,-1203.0,8087.0,136.0,0.627,0.562,0.416,0.343
7985819,-1207.0,8079.0,148.0,0.627,0.563,0.416,0.343
7985845,-1259.0,8181.0,190.0,0.627,0.563,0.416,0.343
7985862,-1199.0,8125.0,204.0,0.626,0.563,0.415,0.343
7985879,-1147.0,8059.0,194.0,0.626,0.564,0.415,0.343
7985896,-1093.0,8049.0,102.0,0.626,0.565,0.414,0.343
7985912,-981.0,8221.0,76.0,0.625,0.565,0.414,0.344
7985929,-1005.0,8273.0,120.0,0.625,0.566,0.413,0.344
7985945,-1117.0,8359.0,116.0,0.624,0.567,0.413,0.345
7985962,-1019.0,8377.0,148.0,0.623,0.567,0.412,0.346
7985979,-971.0,8113.0,204.0,0.623,0.568,0.412,0.346
7985995,-1111.0,8193.0,208.0,0.623,0.569,0.411,0.347
7986022,-925.0,8129.0,138.0,0.623,0.569,0.41,0.347
7986038,-999.0,8013.0,148.0,0.623,0.569,0.41,0.347
7986054,-947.0,8013.0,164.0,0.623,0.569,0.409,0.347
7986071,-883.0,8149.0,54.0,0.623,0.569,0.409,0.347
7986087,-803.0,8181.0,6.0,0.623,0.569,0.41,0.347
7986103,-893.0,8139.0,-24.0,0.623,0.568,0.41,0.347
7986119,-895.0,8199.0,34.0,0.623,0.568,0.411,0.347
7986145,-909.0,8257.0,80.0,0.623,0.567,0.412,0.348
7986161,-975.0,8263.0,66.0,0.623,0.567,0.413,0.348
7986178,-993.0,8225.0,138.0,0.622,0.566,0.413,0.349
7986195,-1031.0,8127.0,158.0,0.622,0.565,0.414,0.349
7986212,-1047.0,7949.0,170.0,0.622,0.564,0.415,0.35
7986228,-1181.0,8173.0,232.0,0.622,0.564,0.415,0.35
7986244,-1195.0,8145.0,292.0,0.622,0.564,0.416,0.35
7986261,-1179.0,8113.0,312.0,0.622,0.563,0.416,0.35
7986288,-1211.0,8127.0,280.0,0.622,0.563,0.416,0.35
7986304,-1149.0,8111.0,246.0,0.623,0.563,0.416,0.349
7986320,-1133.0,8271.0,168.0,0.623,0.563,0.416,0.349
7986336,-1121.0,8137.0,180.0,0.623,0.564,0.416,0.348
7986352,-1089.0,8083.0,196.0,0.623,0.564,0.415,0.348
7986368,-1101.0,8207.0,120.0,0.623,0.564,0.415,0.348
7986394,-1101.0,8091.0,118.0,0.623,0.564,0.415,0.348
7986411,-1075.0,8075.0,156.0,0.623,0.565,0.415,0.348
7986428,-1101.0,8145.0,204.0,0.623,0.565,0.415,0.348
7986445,-1215.0,8139.0,224.0,0.623,0.565,0.415,0.348
7986462,-1099.0,8209.0,110.0,0.622,0.565,0.415,0.348
7986480,-1089.0,8155.0,124.0,0.622,0.565,0.415,0.348
7986496,-1045.0,8167.0,142.0,0.622,0.565,0.416,0.348
7986512,-1107.0,8155.0,140.0,0.621,0.566,0.416,0.348
7986528,-1141.0,8165.0,148.0,0.621,0.566,0.416,0.348
7986545,-1195.0,8175.0,144.0,0.621,0.566,0.416,0.348
7986571,-1037.0,8229.0,148.0,0.621,0.566,0.416,0.348
7986587,-1017.0,8133.0,60.0,0.62,0.566,0.416,0.348
7986603,-991.0,8131.0,38.0,0.62,0.566,0.417,0.348
7986619,-1021.0,8179.0,44.0,0.619,0.567,0.417,0.348
7986635,-1043.0,8245.0,72.0,0.619,0.567,0.417,0.348
7986651,-1007.0,8157.0,64.0,0.619,0.567,0.418,0.349
7986677,-1017.0,8143.0,32.0,0.618,0.567,0.418,0.349
7986694,-975.0,8163.0,16.0,0.618,0.567,0.418,0.349
7986711,-1047.0,8207.0,30.0,0.617,0.567,0.419,0.349
7986728,-951.0,8149.0,26.0,0.617,0.567,0.419,0.349
7986744,-905.0,8191.0,-8.0,0.616,0.567,0.42,0.349
7986761,-939.0,8209.0,24.0,0.616,0.567,0.421,0.349
7986778,-1037.0,8211.0,30.0,0.615,0.567,0.421,0.349
7986795,-987.0,8127.0,76.0,0.615,0.567,0.422,0.349
7986811,-1035.0,8215.0,32.0,0.615,0.567,0.422,0.349
7986828,-1067.0,8183.0,74.0,0.614,0.567,0.423,0.35
7986855,-1011.0,8183.0,94.0,0.614,0.567,0.423,0.35
7986871,-1121.0,8329.0,244.0,0.614,0.567,0.424,0.35
7986887,-1179.0,9051.0,192.0,0.614,0.566,0.424,0.35
7986903,-1449.0,8611.0,224.0,0.616,0.564,0.423,0.351
7986919,-1597.0,8921.0,40.0,0.617,0.563,0.424,0.351
7986935,-1677.0,10275.0,-872.0,0.617,0.562,0.425,0.352
7986951,-1091.0,8645.0,382.0,0.616,0.56,0.427,0.353
7986977,121.0,7925.0,1866.0,0.616,0.559,0.428,0.353
7986994,-225.0,8569.0,1498.0,0.617,0.559,0.428,0.352
7987011,-253.0,9531.0,542.0,0.617,0.559,0.427,0.352
7987028,381.0,7845.0,66.0,0.618,0.558,0.427,0.352
7987045,261.0,6231.0,458.0,0.616,0.559,0.429,0.351
7987061,461.0,7221.0,536.0,0.613,0.561,0.434,0.35
7987078,373.0,8663.0,750.0,0.609,0.562,0.438,0.349
7987095,691.0,8501.0,476.0,0.605,0.562,0.441,0.35
7987111,1031.0,7357.0,428.0,0.601,0.563,0.445,0.352
7987128,653.0,7681.0,544.0,0.597,0.563,0.448,0.355
7987155,479.0,7217.0,780.0,0.592,0.563,0.45,0.36
7987171,461.0,7441.0,628.0,0.588,0.562,0.451,0.367
7987187,437.0,7101.0,530.0,0.585,0.56,0.451,0.375
7987203,443.0,6749.0,354.0,0.581,0.558,0.449,0.386
7987219,659.0,6355.0,242.0,0.577,0.556,0.447,0.398
7987235,471.0,6013.0,44.0,0.572,0.553,0.445,0.411
7987261,585.0,6101.0,-162.0,0.567,0.55,0.441,0.426
7987278,333.0,6135.0,-164.0,0.561,0.547,0.436,0.443
7987295,647.0,5141.0,-330.0,0.554,0.545,0.43,0.46
7987312,173.0,5879.0,-134.0,0.546,0.543,0.423,0.477
7987328,69.0,6395.0,-94.0,0.538,0.542,0.415,0.494
7987345,671.0,7103.0,-436.0,0.53,0.542,0.405,0.511
7987361,821.0,5937.0,-400.0,0.52,0.543,0.394,0.528
7987378,1081.0,6221.0,-130.0,0.509,0.545,0.384,0.544
7987394,1181.0,7409.0,-54.0,0.498,0.548,0.373,0.559
7987411,2341.0,7851.0,-478.0,0.486,0.551,0.361,0.574
7987438,1879.0,7511.0,238.0,0.474,0.555,0.348,0.589
7987454,2687.0,6591.0,140.0,0.46,0.56,0.335,0.602
7987470,3205.0,7883.0,18.0,0.447,0.565,0.323,0.614
7987486,3435.0,8637.0,12.0,0.433,0.57,0.31,0.626
7987502,3615.0,6969.0,514.0,0.42,0.575,0.297,0.637
7987528,4005.0,7359.0,358.0,0.406,0.581,0.285,0.645
7987544,4421.0,8563.0,312.0,0.392,0.587,0.273,0.654
7987560,4607.0,7981.0,632.0,0.378,0.593,0.261,0.661
7987576,4821.0,7181.0,774.0,0.366,0.599,0.249,0.667
7987592,4837.0,7163.0,750.0,0.353,0.606,0.239,0.671
7987608,5383.0,7995.0,604.0,0.341,0.613,0.229,0.675
7987634,5595.0,7519.0,588.0,0.329,0.618,0.218,0.68
7987650,6393.0,7937.0,368.0,0.318,0.623,0.207,0.684
7987666,6491.0,6951.0,444.0,0.307,0.627,0.197,0.688
7987682,6327.0,5649.0,666.0,0.297,0.632,0.189,0.691
7987698,6653.0,6053.0,598.0,0.287,0.636,0.182,0.693
7987714,6561.0,6607.0,868.0,0.277,0.64,0.176,0.695
7987730,6767.0,6257.0,538.0,0.268,0.644,0.17,0.696
7987756,7009.0,5699.0,414.0,0.259,0.648,0.164,0.698
7987772,6959.0,5389.0,572.0,0.25,0.651,0.159,0.699
7987788,7369.0,5045.0,368.0,0.242,0.654,0.154,0.7
7987804,7457.0,5479.0,324.0,0.233,0.656,0.15,0.702
7987820,7409.0,5233.0,638.0,0.225,0.659,0.146,0.703
7987836,7493.0,5197.0,578.0,0.219,0.662,0.142,0.703
7987862,7865.0,5065.0,630.0,0.213,0.664,0.138,0.703
7987879,8219.0,4947.0,362.0,0.208,0.667,0.133,0.703
7987895,8107.0,4275.0,478.0,0.202,0.669,0.129,0.703
7987911,8223.0,4745.0,822.0,0.197,0.671,0.127,0.703
7987928,8229.0,4585.0,708.0,0.194,0.673,0.125,0.703
7987944,8277.0,4539.0,720.0,0.191,0.675,0.124,0.701
7987961,8057.0,4507.0,638.0,0.189,0.678,0.124,0.7
7987978,7745.0,4893.0,820.0,0.188,0.68,0.124,0.698
7988004,7643.0,4649.0,772.0,0.187,0.682,0.124,0.696
7988020,7553.0,4449.0,736.0,0.187,0.684,0.124,0.694
7988036,7809.0,4377.0,612.0,0.188,0.686,0.124,0.692
7988052,7591.0,3861.0,662.0,0.188,0.687,0.124,0.69
7988068,7517.0,4009.0,784.0,0.189,0.689,0.125,0.689
7988084,7501.0,4237.0,662.0,0.19,0.69,0.126,0.687
7988110,7593.0,4219.0,530.0,0.19,0.691,0.127,0.686
7988127,7371.0,3793.0,584.0,0.191,0.692,0.129,0.685
7988144,7281.0,4059.0,670.0,0.191,0.692,0.131,0.684
7988161,7339.0,4155.0,500.0,0.191,0.692,0.132,0.683
7988177,7233.0,4003.0,424.0,0.192,0.692,0.134,0.683
7988194,7217.0,4013.0,572.0,0.193,0.692,0.136,0.682
7988211,7207.0,4095.0,396.0,0.194,0.692,0.137,0.682
7988227,7051.0,3945.0,412.0,0.194,0.692,0.138,0.682
7988244,7191.0,3979.0,336.0,0.195,0.692,0.138,0.682
7988261,7141.0,3725.0,294.0,0.196,0.691,0.138,0.682
7988287,7255.0,3663.0,250.0,0.197,0.691,0.138,0.682
7988303,7209.0,3689.0,172.0,0.198,0.691,0.137,0.682
7988319,7249.0,3641.0,234.0,0.198,0.69,0.136,0.683
7988335,7171.0,3563.0,248.0,0.198,0.69,0.135,0.683
7988351,7281.0,3491.0,184.0,0.199,0.69,0.134,0.683
7988367,7317.0,3599.0,138.0,0.199,0.689,0.133,0.684
7988393,7281.0,3693.0,140.0,0.2,0.689,0.131,0.684
7988410,7333.0,3577.0,170.0,0.2,0.689,0.13,0.684
7988427,7277.0,3199.0,94.0,0.201,0.689,0.128,0.685
7988444,7445.0,3503.0,36.0,0.201,0.689,0.127,0.685
7988461,7427.0,3645.0,16.0,0.201,0.689,0.126,0.685
7988478,7397.0,3505.0,80.0,0.202,0.688,0.124,0.686
7988495,7429.0,3447.0,70.0,0.202,0.688,0.122,0.686
7988511,7397.0,3653.0,-22.0,0.203,0.688,0.12,0.686
7988527,7287.0,3523.0,70.0,0.203,0.688,0.119,0.686
7988544,7331.0,3529.0,152.0,0.204,0.688,0.117,0.686
7988570,7431.0,3581.0,-40.0,0.205,0.688,0.115,0.686
7988586,7413.0,3291.0,62.0,0.205,0.688,0.113,0.687
7988602,7363.0,3529.0,48.0,0.205,0.688,0.111,0.687
7988618,7263.0,3475.0,64.0,0.206,0.688,0.11,0.687
7988634,7345.0,3373.0,84.0,0.206,0.688,0.108,0.687
7988650,7249.0,3439.0,44.0,0.207,0.689,0.107,0.687
7988676,7367.0,3529.0,66.0,0.207,0.689,0.105,0.687
7988693,7275.0,3435.0,148.0,0.208,0.689,0.103,0.687
7988709,7403.0,3455.0,124.0,0.208,0.689,0.101,0.687
7988725,7317.0,3366.0,107.0,0.209,0.689,0.1,0.687
7988741,7330.0,3454.0,69.0,0.209,0.69,0.098,0.686
7988758,7366.0,3285.0,208.0,0.209,0.69,0.096,0.686
7988775,7316.0,3093.0,154.0,0.21,0.69,0.095,0.686
7988792,7480.0,3343.0,130.0,0.211,0.69,0.094,0.686
7988819,7320.0,3583.0,218.0,0.211,0.691,0.094,0.685
7988835,7476.0,3693.0,270.0,0.211,0.691,0.093,0.685
7988851,7566.0,3277.0,220.0,0.212,0.691,0.092,0.685
7988867,7682.0,3291.0,130.0,0.212,0.692,0.091,0.684
7988883,7726.0,3775.0,86.0,0.212,0.692,0.091,0.684
7988899,7564.0,3513.0,24.0,0.212,0.692,0.091,0.684
7988925,7684.0,3575.0,222.0,0.211,0.692,0.09,0.684
7988942,7640.0,3865.0,192.0,0.211,0.693,0.09,0.684
7988959,7506.0,3675.0,168.0,0.21,0.693,0.089,0.683
7988976,7490.0,3653.0,340.0,0.21,0.694,0.089,0.683
7988993,7528.0,3489.0,198.0,0.21,0.695,0.088,0.682
7989009,7534.0,3495.0,112.0,0.209,0.695,0.088,0.682
7989026,7450.0,3575.0,168.0,0.209,0.696,0.087,0.682
7989043,7330.0,3403.0,308.0,0.208,0.696,0.087,0.681
7989060,7236.0,3439.0,186.0,0.207,0.697,0.087,0.681
7989077,7100.0,3375.0,196.0,0.206,0.697,0.087,0.681
7989094,7010.0,3495.0,166.0,0.206,0.697,0.086,0.681
7989111,6966.0,3035.0,106.0,0.206,0.697,0.085,0.681
7989137,6908.0,2987.0,74.0,0.205,0.697,0.085,0.682
7989153,6716.0,3015.0,22.0,0.205,0.697,0.084,0.682
7989169,6818.0,3141.0,266.0,0.204,0.697,0.083,0.682
7989185,7020.0,3197.0,266.0,0.203,0.697,0.083,0.683
7989201,7318.0,3721.0,416.0,0.203,0.697,0.082,0.683
7989217,7436.0,4311.0,864.0,0.202,0.696,0.081,0.684
7989243,7752.0,6097.0,1390.0,0.202,0.696,0.078,0.684
7989260,8216.0,6097.0,1322.0,0.203,0.696,0.074,0.685
7989277,8904.0,6619.0,1620.0,0.205,0.695,0.07,0.686
7989294,9072.0,7809.0,2028.0,0.207,0.693,0.065,0.687
7989311,8178.0,9353.0,3284.0,0.212,0.691,0.061,0.688
7989327,8288.0,9981.0,2854.0,0.222,0.689,0.055,0.688
7989343,7982.0,10429.0,3756.0,0.234,0.686,0.049,0.687
7989360,8126.0,11807.0,3460.0,0.25,0.682,0.042,0.686
7989377,8532.0,10467.0,3340.0,0.271,0.675,0.035,0.685
7989404,9318.0,10011.0,3388.0,0.294,0.667,0.03,0.684
7989420,9764.0,11707.0,3332.0,0.32,0.655,0.026,0.684
7989437,10106.0,9937.0,3500.0,0.348,0.64,0.022,0.685
7989453,10308.0,11669.0,3324.0,0.379,0.622,0.021,0.685
7989469,10296.0,12063.0,4202.0,0.412,0.601,0.017,0.685
7989485,11276.0,9527.0,3608.0,0.446,0.577,0.013,0.684
7989501,12006.0,8431.0,3428.0,0.479,0.552,0.014,0.682
7989527,11798.0,10309.0,3948.0,0.512,0.526,0.016,0.679
7989543,11622.0,9791.0,3492.0,0.545,0.496,0.019,0.676
7989560,11778.0,9093.0,4486.0,0.577,0.465,0.021,0.671
7989577,11902.0,9703.0,3132.0,0.607,0.433,0.025,0.665
7989593,11060.0,8059.0,3600.0,0.637,0.399,0.027,0.659
7989610,10374.0,7599.0,3688.0,0.664,0.364,0.03,0.653
7989627,10252.0,6113.0,3036.0,0.688,0.33,0.034,0.646
7989643,9594.0,6071.0,2826.0,0.71,0.296,0.039,0.638
7989660,8428.0,5475.0,3064.0,0.731,0.261,0.044,0.629
7989677,7204.0,4081.0,3166.0,0.751,0.226,0.048,0.618
7989703,5786.0,3489.0,3328.0,0.768,0.193,0.05,0.608
7989719,5406.0,3265.0,2154.0,0.784,0.16,0.053,0.598
7989735,4232.0,1747.0,2378.0,0.797,0.126,0.055,0.588
7989751,3120.0,1147.0,2430.0,0.809,0.093,0.056,0.577
7989767,2330.0,95.0,2710.0,0.819,0.062,0.056,0.567
7989783,2020.0,51.0,1972.0,0.827,0.034,0.056,0.558
7989809,2080.0,-211.0,1520.0,0.834,0.007,0.055,0.549
7989826,1654.0,-1151.0,1358.0,0.839,-0.018,0.054,0.542
7989843,1294.0,-1955.0,1356.0,0.843,-0.041,0.053,0.534
7989860,692.0,-1931.0,1262.0,0.845,-0.06,0.053,0.528
7989877,510.0,-2341.0,598.0,0.847,-0.077,0.054,0.523
7989893,364.0,-2393.0,20.0,0.848,-0.091,0.053,0.519
7989910,158.0,-3301.0,-134.0,0.848,-0.103,0.053,0.517
7989927,-254.0,-4319.0,42.0,0.848,-0.111,0.053,0.515
7989944,-472.0,-4183.0,-270.0,0.848,-0.114,0.053,0.515
7989961,-372.0,-4111.0,-412.0,0.848,-0.113,0.053,0.515
7989987,-526.0,-4777.0,-42.0,0.848,-0.109,0.053,0.516
7990003,-858.0,-4069.0,80.0,0.847,-0.1,0.054,0.519
7990020,-620.0,-3815.0,446.0,0.847,-0.088,0.054,0.522
7990036,-166.0,-3235.0,1086.0,0.846,-0.072,0.055,0.526
7990052,562.0,-2235.0,1366.0,0.845,-0.052,0.055,0.53
7990068,718.0,-1577.0,2052.0,0.843,-0.029,0.055,0.534
7990084,1178.0,-313.0,2398.0,0.841,-0.005,0.055,0.539
7990110,1760.0,-563.0,3030.0,0.837,0.021,0.054,0.544
7990126,2410.0,475.0,3228.0,0.833,0.048,0.054,0.549
7990143,2726.0,1333.0,4012.0,0.828,0.076,0.054,0.553
7990160,2758.0,2041.0,4514.0,0.821,0.105,0.054,0.558
7990176,3498.0,3497.0,4550.0,0.814,0.133,0.054,0.563
7990192,3538.0,3253.0,5170.0,0.805,0.161,0.054,0.568
7990208,3780.0,2847.0,5432.0,0.795,0.19,0.055,0.574
7990234,4162.0,5475.0,5434.0,0.784,0.219,0.055,0.578
7990250,3900.0,5207.0,5808.0,0.772,0.246,0.053,0.584
7990266,4682.0,5631.0,5852.0,0.758,0.273,0.052,0.59
7990282,5696.0,5463.0,5430.0,0.743,0.298,0.05,0.597
7990298,5572.0,5645.0,6156.0,0.728,0.324,0.049,0.603
7990314,5626.0,6971.0,5838.0,0.711,0.349,0.048,0.608
7990340,6092.0,6985.0,5636.0,0.693,0.374,0.047,0.614
7990356,6384.0,6563.0,5742.0,0.675,0.399,0.047,0.62
7990372,6608.0,8075.0,5502.0,0.655,0.422,0.046,0.625
7990388,6738.0,7283.0,6690.0,0.635,0.446,0.045,0.629
7990404,6632.0,8027.0,5402.0,0.613,0.469,0.044,0.635
7990420,7378.0,8225.0,4624.0,0.59,0.491,0.043,0.639
7990447,7928.0,9517.0,4770.0,0.568,0.511,0.042,0.644
7990463,7784.0,8633.0,5504.0,0.546,0.529,0.041,0.648
7990479,7412.0,9677.0,5324.0,0.524,0.548,0.039,0.651
7990495,7990.0,8921.0,4302.0,0.504,0.564,0.037,0.653
7990511,8174.0,7169.0,3886.0,0.484,0.58,0.036,0.654
7990527,8790.0,7703.0,3114.0,0.465,0.596,0.038,0.654
7990553,8044.0,7897.0,2940.0,0.445,0.61,0.041,0.655
7990569,7310.0,9381.0,3028.0,0.425,0.622,0.044,0.656
7990585,6646.0,8743.0,2716.0,0.406,0.633,0.044,0.657
7990601,6526.0,6603.0,2536.0,0.389,0.643,0.045,0.658
7990617,6510.0,7033.0,2164.0,0.371,0.653,0.047,0.658
7990633,6668.0,9219.0,2398.0,0.354,0.662,0.049,0.659
7990659,6344.0,9515.0,2702.0,0.339,0.669,0.048,0.66
7990676,6374.0,7525.0,2524.0,0.325,0.675,0.046,0.66
7990693,6678.0,9143.0,2702.0,0.311,0.681,0.045,0.661
7990710,6676.0,10805.0,3172.0,0.3,0.686,0.044,0.661
7990726,6862.0,10595.0,3218.0,0.294,0.69,0.041,0.66
7990743,7324.0,10425.0,2940.0,0.29,0.692,0.039,0.66
7990759,7424.0,10469.0,3018.0,0.289,0.693,0.038,0.66
7990776,6768.0,11611.0,3532.0,0.29,0.692,0.038,0.66
7990793,6468.0,12599.0,4016.0,0.297,0.689,0.034,0.66
7990810,7264.0,10941.0,3698.0,0.31,0.684,0.03,0.66
7990836,7988.0,11435.0,3240.0,0.324,0.678,0.027,0.659
7990852,7142.0,12033.0,4412.0,0.342,0.67,0.024,0.659
7990868,7594.0,12109.0,3926.0,0.363,0.66,0.02,0.658
7990884,7956.0,12861.0,4400.0,0.388,0.647,0.015,0.656
7990900,9146.0,13359.0,3964.0,0.416,0.631,0.009,0.655
7990926,9878.0,12269.0,3806.0,0.445,0.612,0.003,0.653
7990943,11136.0,11831.0,3762.0,0.477,0.59,-0.001,0.652
7990960,12272.0,11123.0,3428.0,0.508,0.565,-0.003,0.65
7990976,12516.0,11925.0,3766.0,0.541,0.537,-0.002,0.647
7990993,12706.0,10021.0,4008.0,0.574,0.506,-0.0,0.644
7991010,12188.0,8291.0,4492.0,0.606,0.475,0.005,0.638
7991026,12450.0,10255.0,3998.0,0.636,0.443,0.011,0.632
7991043,11756.0,8529.0,3940.0,0.665,0.409,0.017,0.624
7991059,11478.0,8221.0,3600.0,0.693,0.374,0.022,0.616
7991076,10554.0,5757.0,3962.0,0.719,0.338,0.028,0.607
7991103,9928.0,4717.0,3464.0,0.742,0.305,0.037,0.596
7991119,8644.0,4743.0,3444.0,0.763,0.273,0.047,0.585
7991135,7602.0,4347.0,3104.0,0.782,0.242,0.059,0.572
7991151,7192.0,5437.0,2770.0,0.798,0.209,0.067,0.561
7991167,6004.0,2701.0,2922.0,0.813,0.175,0.076,0.55
7991183,5006.0,2027.0,2774.0,0.826,0.144,0.084,0.538
7991209,3970.0,2081.0,2376.0,0.837,0.114,0.092,0.527
7991226,3260.0,1625.0,2230.0,0.846,0.085,0.098,0.517
7991243,2626.0,-263.0,1642.0,0.854,0.058,0.104,0.507
7991259,1794.0,-559.0,1594.0,0.86,0.034,0.112,0.498
7991276,498.0,-85.0,1620.0,0.864,0.012,0.117,0.489
7991293,-116.0,-475.0,1220.0,0.868,-0.009,0.122,0.482
7991310,-278.0,-1207.0,1042.0,0.87,-0.027,0.124,0.477
7991326,-656.0,-1239.0,784.0,0.871,-0.044,0.126,0.474
7991343,-914.0,-2325.0,738.0,0.871,-0.058,0.127,0.471
7991360,-970.0,-2623.0,582.0,0.871,-0.07,0.127,0.47
7991377,-1348.0,-3087.0,786.0,0.87,-0.079,0.126,0.469
7991403,-1268.0,-2915.0,732.0,0.87,-0.085,0.124,0.469
7991419,-1478.0,-2473.0,932.0,0.87,-0.089,0.121,0.47
7991436,-1332.0,-3333.0,1132.0,0.869,-0.091,0.116,0.472
7991452,-984.0,-3097.0,1062.0,0.869,-0.09,0.11,0.474
7991469,-928.0,-3687.0,1456.0,0.869,-0.087,0.104,0.476
7991486,-1178.0,-3053.0,1878.0,0.868,-0.081,0.097,0.479
7991502,-976.0,-3191.0,2146.0,0.868,-0.072,0.09,0.483
7991518,-562.0,-2789.0,2442.0,0.867,-0.061,0.083,0.487
7991544,-120.0,-1697.0,3062.0,0.866,-0.049,0.075,0.491
7991560,276.0,-2369.0,3136.0,0.865,-0.035,0.067,0.496
7991576,638.0,-1869.0,3746.0,0.864,-0.019,0.059,0.5
7991593,840.0,-473.0,4398.0,0.862,-0.002,0.052,0.505
7991609,1392.0,-269.0,4422.0,0.859,0.016,0.044,0.51
7991626,1956.0,-239.0,4822.0,0.855,0.035,0.038,0.516
7991643,2206.0,29.0,5256.0,0.851,0.056,0.031,0.522
7991659,2894.0,785.0,5474.0,0.845,0.078,0.026,0.528
7991686,3244.0,1523.0,5660.0,0.839,0.101,0.021,0.534
7991702,3606.0,1165.0,5660.0,0.832,0.126,0.018,0.54
7991718,3850.0,2883.0,5950.0,0.823,0.152,0.015,0.547
7991734,4136.0,3093.0,6104.0,0.813,0.179,0.011,0.554
7991750,4804.0,3423.0,5930.0,0.802,0.206,0.008,0.561
7991776,5626.0,3877.0,5454.0,0.789,0.234,0.007,0.568
7991792,5446.0,3655.0,6052.0,0.776,0.262,0.007,0.574
7991809,5848.0,4895.0,5676.0,0.761,0.292,0.009,0.58
7991826,5942.0,6439.0,5774.0,0.745,0.32,0.011,0.586
7991843,6330.0,5989.0,5144.0,0.727,0.348,0.012,0.591
7991859,6444.0,6799.0,5514.0,0.709,0.375,0.015,0.597
7991875,6510.0,7931.0,5352.0,0.689,0.401,0.017,0.603
7991892,5914.0,5661.0,3842.0,0.67,0.426,0.02,0.608
7991909,7600.0,7489.0,4674.0,0.648,0.451,0.024,0.614
7991935,7190.0,7705.0,4698.0,0.625,0.475,0.03,0.618
7991951,7284.0,8181.0,4560.0,0.602,0.499,0.035,0.623
7991968,7662.0,8741.0,3818.0,0.578,0.52,0.04,0.627
7991984,7350.0,8557.0,4106.0,0.553,0.54,0.045,0.632
7992000,7182.0,8813.0,4412.0,0.528,0.56,0.048,0.636
7992016,7104.0,10915.0,4466.0,0.504,0.577,0.049,0.641
7992032,7184.0,9423.0,5062.0,0.482,0.592,0.047,0.644
7992058,8076.0,10235.0,4140.0,0.462,0.606,0.043,0.647
7992075,8520.0,9777.0,3272.0,0.444,0.616,0.036,0.65
7992092,8366.0,6619.0,2906.0,0.426,0.624,0.03,0.654
7992109,8428.0,6145.0,2776.0,0.408,0.633,0.03,0.658
7992126,7844.0,8581.0,2700.0,0.389,0.641,0.031,0.661
7992142,7156.0,9535.0,2822.0,0.372,0.647,0.03,0.665
7992159,6404.0,7671.0,2794.0,0.358,0.651,0.027,0.668
7992175,6258.0,8495.0,2654.0,0.345,0.656,0.023,0.671
7992192,6448.0,8455.0,2476.0,0.334,0.66,0.017,0.673
7992208,6208.0,9021.0,2522.0,0.325,0.662,0.01,0.675
7992235,6194.0,8865.0,3212.0,0.318,0.664,0.002,0.677
7992251,6180.0,7093.0,3386.0,0.311,0.666,-0.005,0.678
7992267,6142.0,9627.0,3784.0,0.305,0.668,-0.008,0.678
7992283,4954.0,11199.0,4870.0,0.301,0.671,-0.013,0.678
7992299,5958.0,11877.0,4916.0,0.301,0.674,-0.02,0.675
7992315,7892.0,11817.0,4236.0,0.306,0.676,-0.028,0.67
7992341,8022.0,13019.0,4442.0,0.314,0.676,-0.037,0.666
7992358,8818.0,12839.0,3820.0,0.327,0.672,-0.047,0.663
7992374,10066.0,9897.0,4166.0,0.342,0.664,-0.055,0.662
7992391,10206.0,9669.0,4818.0,0.359,0.655,-0.058,0.663
7992408,10170.0,12345.0,4616.0,0.38,0.643,-0.057,0.663
7992424,10886.0,12955.0,4070.0,0.406,0.626,-0.058,0.664
7992441,11588.0,10261.0,4080.0,0.434,0.605,-0.059,0.664
7992458,12206.0,10227.0,4238.0,0.465,0.583,-0.059,0.664
7992475,13590.0,9311.0,3894.0,0.496,0.558,-0.057,0.663
7992492,13688.0,7839.0,3792.0,0.528,0.531,-0.051,0.661
7992519,13362.0,10579.0,4242.0,0.56,0.503,-0.043,0.656
7992535,14002.0,9339.0,3756.0,0.594,0.471,-0.036,0.651
7992551,13654.0,6547.0,3422.0,0.627,0.438,-0.028,0.644
7992567,12902.0,5469.0,3634.0,0.658,0.406,-0.015,0.634
7992583,12066.0,7441.0,3390.0,0.687,0.373,-0.0,0.623
7992599,10704.0,6795.0,3284.0,0.716,0.338,0.013,0.611
7992625,9460.0,5539.0,3014.0,0.742,0.3,0.024,0.599
7992642,8046.0,3431.0,2948.0,0.765,0.264,0.035,0.586
7992659,7134.0,4551.0,2966.0,0.785,0.231,0.044,0.574
7992675,6538.0,3857.0,2574.0,0.803,0.196,0.05,0.561
7992692,5366.0,1953.0,3086.0,0.818,0.161,0.056,0.549
7992708,3744.0,3223.0,3416.0,0.831,0.128,0.062,0.538
7992725,4890.0,2723.0,1968.0,0.842,0.094,0.065,0.527
7992741,4080.0,-553.0,2076.0,0.852,0.061,0.07,0.516
7992758,2378.0,245.0,2702.0,0.86,0.032,0.077,0.504
7992775,1452.0,1739.0,2760.0,0.866,0.004,0.081,0.494
7992802,1418.0,1.0,1838.0,0.87,-0.024,0.084,0.485
7992818,722.0,-2359.0,1228.0,0.874,-0.05,0.086,0.476
7992834,-624.0,-2905.0,1128.0,0.876,-0.073,0.089,0.468
7992850,-2332.0,-2173.0,1496.0,0.878,-0.091,0.092,0.461
7992866,-2758.0,-1389.0,756.0,0.879,-0.107,0.091,0.456
7992882,-2528.0,-4567.0,482.0,0.879,-0.123,0.087,0.453
7992899,-2390.0,-4993.0,604.0,0.878,-0.133,0.083,0.452
7992925,-1916.0,-3751.0,534.0,0.877,-0.139,0.079,0.453
7992942,-854.0,-4711.0,248.0,0.876,-0.142,0.077,0.455
7992959,-570.0,-3475.0,520.0,0.875,-0.141,0.075,0.457
7992975,-246.0,-2609.0,1048.0,0.873,-0.138,0.074,0.461
7992992,242.0,-2569.0,1140.0,0.872,-0.132,0.073,0.466
7993008,208.0,-4307.0,1654.0,0.871,-0.124,0.072,0.47
7993025,32.0,-2353.0,1850.0,0.872,-0.111,0.073,0.472
7993042,-692.0,-967.0,2070.0,0.872,-0.097,0.071,0.475
7993058,-336.0,-2373.0,2658.0,0.872,-0.081,0.068,0.478
7993075,-72.0,-2115.0,3078.0,0.873,-0.062,0.064,0.48
7993102,476.0,-1801.0,3410.0,0.873,-0.041,0.061,0.482
7993118,862.0,251.0,3802.0,0.873,-0.019,0.056,0.483
7993134,1060.0,653.0,4422.0,0.873,0.001,0.051,0.485
7993150,1504.0,971.0,4662.0,0.871,0.021,0.046,0.488
7993167,1376.0,655.0,5568.0,0.869,0.043,0.041,0.492
7993183,1942.0,503.0,5030.0,0.866,0.066,0.037,0.495
7993199,2376.0,1061.0,5846.0,0.862,0.092,0.034,0.498
7993225,2006.0,4465.0,6364.0,0.856,0.119,0.031,0.501
7993241,2344.0,3499.0,6378.0,0.849,0.144,0.025,0.507
7993257,3874.0,1527.0,5572.0,0.841,0.17,0.021,0.513
7993273,3546.0,3685.0,5996.0,0.831,0.199,0.02,0.519
7993290,3772.0,4777.0,5894.0,0.82,0.226,0.018,0.525
7993316,4452.0,4087.0,6156.0,0.807,0.253,0.017,0.533
7993332,4904.0,4357.0,5608.0,0.793,0.281,0.017,0.541
7993348,4836.0,4295.0,5446.0,0.776,0.311,0.019,0.548
7993364,5132.0,6415.0,5336.0,0.759,0.34,0.022,0.554
7993380,5316.0,6345.0,5430.0,0.741,0.37,0.024,0.561
7993396,5986.0,7063.0,5150.0,0.721,0.399,0.026,0.567
7993422,6628.0,7875.0,4532.0,0.699,0.427,0.028,0.573
7993438,6940.0,7733.0,4372.0,0.678,0.452,0.03,0.578
7993454,7130.0,7709.0,4226.0,0.656,0.477,0.033,0.584
7993470,7568.0,8341.0,4086.0,0.633,0.501,0.038,0.589
7993486,7548.0,9585.0,3486.0,0.609,0.523,0.043,0.595
7993503,7524.0,8505.0,3360.0,0.586,0.542,0.048,0.601
7993519,7304.0,8815.0,3082.0,0.561,0.561,0.054,0.606
7993545,7082.0,10339.0,2894.0,0.537,0.578,0.058,0.611
7993561,7292.0,9587.0,3118.0,0.513,0.595,0.06,0.616
7993577,8060.0,9335.0,2386.0,0.491,0.61,0.062,0.619
7993593,8682.0,8755.0,1954.0,0.469,0.625,0.064,0.621
7993609,8114.0,9393.0,2610.0,0.447,0.638,0.065,0.624
7993625,7606.0,9005.0,2014.0,0.426,0.65,0.067,0.626
7993651,7090.0,8531.0,1904.0,0.406,0.66,0.068,0.629
7993667,6766.0,8633.0,1754.0,0.387,0.669,0.068,0.631
7993683,6120.0,9277.0,2088.0,0.369,0.677,0.067,0.633
7993699,6034.0,8149.0,1962.0,0.353,0.684,0.064,0.635
7993715,6182.0,8719.0,1898.0,0.339,0.691,0.06,0.636
7993731,6290.0,8661.0,2090.0,0.326,0.696,0.056,0.638
7993757,5736.0,8677.0,2436.0,0.315,0.699,0.05,0.64
7993773,5926.0,9453.0,2460.0,0.305,0.702,0.044,0.641
7993789,6854.0,8811.0,2058.0,0.299,0.704,0.037,0.643
7993805,6432.0,9715.0,2496.0,0.294,0.705,0.032,0.645
7993821,6344.0,10519.0,2934.0,0.292,0.705,0.026,0.646
7993847,5820.0,10691.0,3172.0,0.293,0.704,0.019,0.647
7993863,6840.0,9637.0,3102.0,0.298,0.701,0.013,0.647
7993879,6904.0,10905.0,3404.0,0.306,0.698,0.008,0.648
7993895,6900.0,12057.0,3588.0,0.317,0.693,0.004,0.648
7993911,7680.0,11273.0,3526.0,0.333,0.686,-0.002,0.647
7993927,8070.0,12929.0,3522.0,0.353,0.677,-0.006,0.645
7993943,8386.0,11657.0,3982.0,0.377,0.666,-0.011,0.643
7993969,8292.0,11717.0,4010.0,0.404,0.653,-0.015,0.64
7993985,9416.0,11453.0,3894.0,0.434,0.638,-0.017,0.636
7994001,9294.0,12181.0,4340.0,0.465,0.62,-0.018,0.632
7994017,9634.0,12547.0,4356.0,0.499,0.598,-0.02,0.627
7994033,10210.0,12055.0,4556.0,0.534,0.573,-0.022,0.621
7994059,11432.0,10417.0,4322.0,0.569,0.545,-0.021,0.615
7994075,10696.0,10639.0,5126.0,0.603,0.516,-0.017,0.608
7994091,10184.0,11693.0,5172.0,0.636,0.484,-0.014,0.6
7994108,10450.0,9993.0,4832.0,0.669,0.45,-0.011,0.591
7994125,9808.0,9001.0,5144.0,0.699,0.415,-0.006,0.582
7994141,8966.0,7761.0,5278.0,0.726,0.38,-0.0,0.573
7994158,8678.0,8195.0,5148.0,0.751,0.345,0.006,0.564
7994175,8346.0,7995.0,4804.0,0.773,0.308,0.01,0.554
7994191,8024.0,6205.0,4328.0,0.794,0.27,0.014,0.544
7994209,7046.0,4591.0,4036.0,0.812,0.232,0.018,0.535
7994235,6918.0,5171.0,3790.0,0.827,0.196,0.023,0.527
7994251,5842.0,4219.0,4178.0,0.839,0.161,0.026,0.519
7994267,6120.0,3467.0,3138.0,0.85,0.127,0.028,0.511
7994283,5460.0,3151.0,2764.0,0.858,0.092,0.031,0.504
7994299,4642.0,1431.0,2552.0,0.865,0.058,0.034,0.497
7994315,3646.0,1157.0,2512.0,0.871,0.026,0.038,0.489
7994341,2882.0,1895.0,2162.0,0.875,-0.006,0.041,0.482
7994358,2762.0,1095.0,1368.0,0.878,-0.038,0.042,0.476
7994375,3228.0,-1493.0,710.0,0.879,-0.069,0.044,0.47
7994391,3166.0,-2209.0,68.0,0.879,-0.095,0.049,0.464
7994408,1870.0,-539.0,-190.0,0.879,-0.118,0.055,0.459
7994425,598.0,-2077.0,-550.0,0.878,-0.14,0.06,0.454
7994441,-420.0,-3265.0,-744.0,0.877,-0.159,0.066,0.45
7994458,-1714.0,-3723.0,-544.0,0.875,-0.173,0.069,0.446
7994475,-1670.0,-4815.0,-864.0,0.875,-0.181,0.071,0.444
7994491,-1852.0,-4395.0,-782.0,0.875,-0.185,0.072,0.442
7994511,-2146.0,-4871.0,-402.0,0.876,-0.183,0.073,0.441
7994527,-1962.0,-4661.0,-114.0,0.877,-0.177,0.073,0.441
7994553,-1516.0,-4091.0,82.0,0.878,-0.166,0.072,0.443
7994569,-1180.0,-3395.0,534.0,0.88,-0.152,0.071,0.445
7994585,-918.0,-2809.0,1394.0,0.881,-0.135,0.07,0.448
7994601,-462.0,-2401.0,1922.0,0.882,-0.115,0.069,0.452
7994617,48.0,-2013.0,2060.0,0.883,-0.093,0.067,0.456
7994633,192.0,-1899.0,3162.0,0.883,-0.068,0.066,0.46
7994659,244.0,-77.0,3506.0,0.882,-0.042,0.064,0.464
7994675,394.0,-863.0,4398.0,0.88,-0.016,0.061,0.47
7994691,832.0,341.0,4716.0,0.877,0.011,0.059,0.476
7994708,1154.0,795.0,5084.0,0.873,0.039,0.056,0.483
7994724,1680.0,1873.0,5496.0,0.868,0.068,0.053,0.489
7994741,2494.0,4071.0,5778.0,0.861,0.096,0.05,0.497
7994758,2702.0,4125.0,6684.0,0.854,0.122,0.046,0.504
7994784,3988.0,2855.0,6998.0,0.846,0.15,0.042,0.511
7994800,5026.0,4211.0,5844.0,0.837,0.18,0.042,0.516
7994816,4270.0,4721.0,6406.0,0.827,0.208,0.045,0.52
7994832,2564.0,6615.0,7004.0,0.816,0.235,0.047,0.526
7994848,2418.0,6035.0,6370.0,0.804,0.261,0.046,0.533
7994864,3308.0,3429.0,6764.0,0.79,0.288,0.046,0.539
7994890,3824.0,5267.0,5890.0,0.775,0.315,0.047,0.545
7994907,3458.0,7819.0,6270.0,0.76,0.341,0.048,0.552
7994924,4052.0,7125.0,5924.0,0.743,0.364,0.047,0.56
7994941,4870.0,4565.0,5776.0,0.726,0.387,0.047,0.567
7994957,5014.0,5761.0,5826.0,0.707,0.412,0.05,0.573
7994974,4594.0,9329.0,5830.0,0.687,0.436,0.052,0.578
7994991,5294.0,8211.0,5508.0,0.668,0.458,0.05,0.585
7995008,6146.0,6539.0,4862.0,0.647,0.48,0.05,0.591
7995024,6730.0,7341.0,4684.0,0.625,0.501,0.051,0.596
7995041,6542.0,9353.0,4878.0,0.603,0.521,0.051,0.602
7995068,7014.0,7669.0,4598.0,0.581,0.539,0.049,0.608
7995084,7200.0,7713.0,4076.0,0.558,0.557,0.048,0.613
7995100,7716.0,8415.0,3812.0,0.536,0.574,0.045,0.618
7995116,7484.0,9007.0,4404.0,0.513,0.589,0.042,0.622
7995132,7340.0,8479.0,4244.0,0.492,0.604,0.038,0.627
7995148,8046.0,7793.0,3750.0,0.471,0.617,0.034,0.63
7995174,7828.0,8319.0,3438.0,0.45,0.629,0.031,0.633
7995191,7374.0,9777.0,3666.0,0.43,0.639,0.028,0.637
7995208,7022.0,9235.0,3356.0,0.413,0.647,0.023,0.641
7995224,7448.0,8195.0,2960.0,0.396,0.652,0.019,0.646
7995241,6718.0,10275.0,4050.0,0.381,0.656,0.015,0.651
7995257,6136.0,10829.0,4588.0,0.369,0.659,0.01,0.656
7995273,6384.0,10385.0,4228.0,0.36,0.661,0.003,0.659
7995289,6794.0,10871.0,3940.0,0.355,0.661,-0.003,0.661
7995315,6342.0,11255.0,4418.0,0.353,0.66,-0.008,0.663
7995331,5436.0,11789.0,5138.0,0.354,0.658,-0.013,0.664
7995347,5250.0,14255.0,5508.0,0.361,0.655,-0.02,0.663
7995363,6846.0,12485.0,4370.0,0.374,0.649,-0.028,0.662
7995379,7062.0,11787.0,4874.0,0.391,0.64,-0.033,0.661
7995395,6154.0,13065.0,6028.0,0.411,0.629,-0.037,0.659
7995421,6276.0,13191.0,6092.0,0.436,0.615,-0.044,0.656
7995438,7830.0,12403.0,5302.0,0.464,0.598,-0.049,0.652
7995455,7792.0,11617.0,5714.0,0.494,0.578,-0.052,0.648
7995472,7648.0,11975.0,6834.0,0.525,0.556,-0.054,0.642
7995488,8440.0,12145.0,6732.0,0.558,0.532,-0.057,0.634
7995505,10462.0,11851.0,5978.0,0.591,0.506,-0.059,0.625
7995522,11120.0,9597.0,6222.0,0.624,0.476,-0.059,0.617
7995539,9850.0,9363.0,6826.0,0.654,0.446,-0.056,0.608
7995556,10302.0,10113.0,6468.0,0.684,0.414,-0.054,0.599
7995573,10746.0,8369.0,6146.0,0.711,0.38,-0.05,0.589
7995590,10202.0,8311.0,5888.0,0.738,0.345,-0.046,0.578
7995617,9100.0,7441.0,6364.0,0.761,0.309,-0.042,0.568
7995633,9838.0,6189.0,5246.0,0.783,0.273,-0.038,0.557
7995649,9496.0,5563.0,4666.0,0.803,0.237,-0.032,0.546
7995665,8136.0,4917.0,4882.0,0.82,0.2,-0.025,0.535
7995681,6966.0,5305.0,4490.0,0.835,0.163,-0.02,0.525
7995697,6902.0,2693.0,3868.0,0.848,0.127,-0.016,0.515
7995713,7164.0,1473.0,2566.0,0.859,0.093,-0.011,0.504
7995739,5102.0,2291.0,2912.0,0.868,0.059,-0.003,0.493
7995756,3906.0,1883.0,2718.0,0.875,0.026,0.003,0.484
7995773,3666.0,-679.0,1872.0,0.88,-0.005,0.008,0.475
7995790,2790.0,433.0,960.0,0.884,-0.034,0.014,0.466
7995807,1946.0,-213.0,1018.0,0.887,-0.061,0.019,0.458
7995824,1730.0,-1343.0,622.0,0.888,-0.085,0.023,0.451
7995841,1228.0,-1159.0,440.0,0.889,-0.106,0.027,0.444
7995857,1596.0,-2213.0,-678.0,0.889,-0.124,0.03,0.44
7995874,1382.0,-2465.0,-1266.0,0.889,-0.14,0.033,0.434
7995891,646.0,-4307.0,-928.0,0.889,-0.153,0.035,0.43
7995917,216.0,-3873.0,-1164.0,0.889,-0.162,0.038,0.426
7995933,-924.0,-6171.0,-1170.0,0.889,-0.166,0.038,0.425
7995949,-1208.0,-4723.0,-1418.0,0.89,-0.165,0.038,0.424
7995965,142.0,-4603.0,-1340.0,0.89,-0.16,0.036,0.426
7995981,976.0,-4395.0,-1000.0,0.89,-0.152,0.035,0.429
7995997,564.0,-4189.0,-54.0,0.89,-0.14,0.035,0.433
7996023,680.0,-3367.0,296.0,0.89,-0.124,0.035,0.438
7996040,796.0,-3063.0,814.0,0.89,-0.105,0.035,0.443
7996057,52.0,-2503.0,1824.0,0.889,-0.083,0.034,0.449
7996073,-68.0,-2635.0,2818.0,0.887,-0.058,0.032,0.457
7996090,994.0,-1407.0,3024.0,0.885,-0.029,0.029,0.464
7996107,1922.0,831.0,3464.0,0.881,0.001,0.025,0.472
7996124,2572.0,103.0,4266.0,0.877,0.03,0.021,0.48
7996140,2952.0,1441.0,5000.0,0.871,0.061,0.017,0.488
7996156,3366.0,1539.0,5414.0,0.863,0.093,0.014,0.496
7996173,3602.0,3889.0,5786.0,0.855,0.126,0.011,0.504
7996200,3598.0,3539.0,6758.0,0.844,0.158,0.008,0.513
7996216,3814.0,4659.0,6770.0,0.832,0.189,0.005,0.522
7996232,4612.0,5365.0,6608.0,0.818,0.22,0.002,0.531
7996248,4694.0,5879.0,6636.0,0.803,0.25,-0.001,0.541
7996264,4876.0,5695.0,6906.0,0.787,0.28,-0.003,0.55
7996280,5998.0,5787.0,6534.0,0.769,0.31,-0.002,0.559
7996306,5662.0,7163.0,6958.0,0.751,0.339,0.0,0.567
7996323,6174.0,6407.0,7104.0,0.731,0.368,0.003,0.574
7996339,5732.0,7281.0,5774.0,0.71,0.396,0.007,0.581
7996355,5672.0,8691.0,6186.0,0.689,0.423,0.012,0.589
7996372,5274.0,8309.0,6058.0,0.667,0.447,0.014,0.596
7996389,6572.0,6449.0,5034.0,0.645,0.47,0.016,0.602
7996405,7044.0,8609.0,4528.0,0.623,0.492,0.021,0.608
7996421,6780.0,9311.0,4412.0,0.601,0.512,0.025,0.613
7996448,6784.0,6485.0,4362.0,0.579,0.531,0.028,0.618
7996464,6890.0,9757.0,3398.0,0.557,0.55,0.032,0.621
7996480,7196.0,8019.0,3270.0,0.536,0.566,0.034,0.625
7996496,7082.0,7575.0,3140.0,0.515,0.582,0.037,0.628
7996512,6710.0,8647.0,3154.0,0.494,0.596,0.04,0.632
7996528,6846.0,7735.0,2510.0,0.474,0.609,0.042,0.634
7996554,7018.0,7987.0,2392.0,0.454,0.621,0.044,0.637
7996571,6614.0,8715.0,2562.0,0.434,0.632,0.045,0.64
7996587,6330.0,8547.0,2800.0,0.415,0.642,0.044,0.643
7996603,6574.0,8301.0,2712.0,0.398,0.65,0.041,0.646
7996619,7126.0,8805.0,2526.0,0.381,0.658,0.038,0.648
7996635,6680.0,10617.0,3148.0,0.366,0.664,0.033,0.651
7996651,6200.0,10115.0,3412.0,0.353,0.67,0.026,0.653
7996677,6530.0,10669.0,3262.0,0.342,0.674,0.018,0.654
7996693,6456.0,11571.0,3676.0,0.334,0.678,0.01,0.655
7996709,6166.0,12979.0,4454.0,0.33,0.68,0.001,0.655
7996725,5698.0,12215.0,4594.0,0.332,0.68,-0.009,0.654
7996741,6114.0,13575.0,4510.0,0.337,0.68,-0.017,0.652
7996757,6896.0,12533.0,4756.0,0.346,0.676,-0.025,0.65
7996783,5788.0,14361.0,5694.0,0.361,0.671,-0.031,0.647
7996799,5346.0,14611.0,6014.0,0.381,0.662,-0.042,0.644
7996815,7866.0,12275.0,4728.0,0.405,0.651,-0.051,0.64
7996831,7912.0,12733.0,5674.0,0.432,0.636,-0.056,0.637
7996847,8088.0,14481.0,6212.0,0.462,0.619,-0.06,0.632
7996863,8576.0,14255.0,6798.0,0.496,0.597,-0.065,0.627
7996889,9944.0,11563.0,5864.0,0.532,0.573,-0.071,0.62
7996906,11376.0,11693.0,5864.0,0.567,0.547,-0.07,0.612
7996923,11100.0,14545.0,6430.0,0.602,0.518,-0.068,0.603
7996940,11926.0,12343.0,6082.0,0.639,0.484,-0.067,0.594
7996957,11908.0,10517.0,6248.0,0.674,0.448,-0.064,0.584
7996974,11720.0,9097.0,5124.0,0.708,0.409,-0.059,0.573
7996990,10912.0,8527.0,5188.0,0.738,0.371,-0.051,0.562
7997007,8612.0,9267.0,5860.0,0.765,0.332,-0.043,0.55
7997024,8286.0,8207.0,5502.0,0.789,0.292,-0.039,0.539
7997040,9340.0,6995.0,3708.0,0.81,0.252,-0.037,0.528
7997067,8888.0,3529.0,3544.0,0.829,0.212,-0.031,0.517
7997083,7374.0,3789.0,3988.0,0.845,0.175,-0.023,0.505
7997099,6192.0,4807.0,3908.0,0.858,0.141,-0.018,0.494
7997115,6032.0,4061.0,2736.0,0.867,0.104,-0.018,0.486
7997131,6416.0,863.0,1398.0,0.875,0.069,-0.015,0.479
7997157,4780.0,1263.0,1794.0,0.881,0.035,-0.01,0.471
7997174,3062.0,1969.0,2030.0,0.886,0.003,-0.005,0.464
7997190,3034.0,977.0,1146.0,0.888,-0.029,-0.003,0.459
7997207,2960.0,-1139.0,664.0,0.889,-0.058,-0.001,0.454
7997223,3124.0,-1599.0,-172.0,0.889,-0.083,0.002,0.45
7997240,3602.0,-469.0,-972.0,0.889,-0.106,0.007,0.446
7997257,3800.0,-2263.0,-1544.0,0.888,-0.127,0.011,0.443
7997274,4272.0,-3403.0,-2022.0,0.887,-0.143,0.018,0.438
7997290,3088.0,-4041.0,-2774.0,0.887,-0.154,0.026,0.434
7997307,994.0,-4683.0,-3032.0,0.888,-0.161,0.034,0.429
7997333,-464.0,-6125.0,-3128.0,0.889,-0.163,0.042,0.426
7997349,-1950.0,-6997.0,-2832.0,0.89,-0.16,0.048,0.423
7997365,-2978.0,-6515.0,-1980.0,0.892,-0.148,0.054,0.423
7997381,-1922.0,-3875.0,-1286.0,0.894,-0.127,0.057,0.425
7997397,-1108.0,-2255.0,-580.0,0.895,-0.106,0.056,0.429
7997413,-104.0,-1661.0,800.0,0.896,-0.084,0.054,0.434
7997439,798.0,-1643.0,1512.0,0.895,-0.058,0.05,0.439
7997456,1656.0,-3527.0,2118.0,0.894,-0.028,0.048,0.444
7997473,1830.0,1829.0,2966.0,0.893,0.004,0.047,0.447
7997490,2344.0,3761.0,3784.0,0.89,0.03,0.042,0.453
7997506,2492.0,-1379.0,4290.0,0.885,0.056,0.037,0.46
7997522,2260.0,165.0,4722.0,0.88,0.088,0.036,0.466
7997539,2258.0,3273.0,5480.0,0.873,0.121,0.035,0.472
7997556,2464.0,5553.0,6218.0,0.864,0.153,0.03,0.478
7997573,2948.0,3627.0,6180.0,0.855,0.181,0.023,0.485
7997590,4064.0,2935.0,6042.0,0.845,0.21,0.017,0.492
7997607,4476.0,4883.0,6572.0,0.833,0.24,0.013,0.499
7997633,5166.0,5191.0,6868.0,0.82,0.27,0.011,0.505
7997649,5224.0,7167.0,6538.0,0.806,0.299,0.01,0.511
7997665,6546.0,7871.0,5402.0,0.791,0.325,0.01,0.519
7997681,5364.0,4285.0,6290.0,0.774,0.352,0.013,0.526
7997697,4628.0,8971.0,6252.0,0.755,0.381,0.019,0.533
7997723,4412.0,8501.0,5666.0,0.736,0.408,0.022,0.54
7997739,5618.0,8105.0,5280.0,0.716,0.433,0.024,0.547
7997755,5706.0,7665.0,5174.0,0.695,0.458,0.027,0.554
7997771,5724.0,8631.0,5182.0,0.673,0.482,0.03,0.56
7997787,5452.0,9589.0,5010.0,0.649,0.506,0.033,0.566
7997803,6946.0,10151.0,3606.0,0.627,0.527,0.035,0.573
7997829,6480.0,9275.0,4184.0,0.604,0.544,0.037,0.581
7997845,6430.0,8417.0,3800.0,0.581,0.561,0.041,0.589
7997861,6614.0,9091.0,3778.0,0.557,0.577,0.046,0.595
7997877,6270.0,10513.0,3746.0,0.534,0.593,0.05,0.601
7997893,6406.0,10543.0,3358.0,0.512,0.607,0.051,0.606
7997909,6242.0,8699.0,2894.0,0.492,0.618,0.05,0.611
7997925,6236.0,8605.0,2782.0,0.472,0.629,0.05,0.616
7997951,6438.0,9085.0,2790.0,0.452,0.639,0.049,0.62
7997967,6162.0,8481.0,3022.0,0.434,0.649,0.046,0.624
7997983,6516.0,8309.0,2770.0,0.417,0.657,0.043,0.626
7997999,6296.0,8569.0,2714.0,0.402,0.664,0.04,0.629
7998015,6374.0,8527.0,2886.0,0.387,0.67,0.036,0.632
7998041,5808.0,9173.0,3230.0,0.374,0.675,0.031,0.635
7998057,5868.0,9605.0,2902.0,0.363,0.679,0.025,0.638
7998073,6070.0,10437.0,3070.0,0.354,0.681,0.019,0.641
7998089,6476.0,10433.0,3240.0,0.347,0.682,0.011,0.643
7998106,6050.0,10523.0,3814.0,0.345,0.682,0.005,0.645
7998122,5364.0,12157.0,4218.0,0.345,0.682,-0.003,0.645
7998139,6414.0,11303.0,3694.0,0.349,0.679,-0.01,0.645
7998156,6294.0,12279.0,3948.0,0.357,0.675,-0.017,0.645
7998173,5584.0,13805.0,4384.0,0.37,0.668,-0.026,0.645
7998199,5906.0,10015.0,5110.0,0.387,0.659,-0.035,0.644
7998215,7390.0,11829.0,4374.0,0.407,0.649,-0.041,0.641
7998231,6900.0,11669.0,4816.0,0.429,0.637,-0.046,0.639
7998247,6624.0,12765.0,5526.0,0.454,0.622,-0.05,0.636
7998263,7212.0,12495.0,5600.0,0.481,0.606,-0.055,0.631
7998279,9362.0,11795.0,4790.0,0.511,0.587,-0.06,0.625
7998305,9026.0,10435.0,5868.0,0.541,0.567,-0.062,0.618
7998322,9822.0,11167.0,5918.0,0.57,0.546,-0.061,0.611
7998339,9780.0,12633.0,5598.0,0.601,0.523,-0.061,0.601
7998356,10946.0,12415.0,4842.0,0.632,0.496,-0.061,0.591
7998373,10348.0,10369.0,5430.0,0.663,0.467,-0.063,0.582
7998389,11038.0,8301.0,5594.0,0.691,0.438,-0.061,0.571
7998406,11544.0,11051.0,4866.0,0.718,0.408,-0.058,0.56
7998423,11296.0,8023.0,4232.0,0.744,0.374,-0.054,0.551
7998449,10314.0,7837.0,5018.0,0.768,0.341,-0.048,0.54
7998465,10066.0,6543.0,4548.0,0.79,0.305,-0.042,0.531
7998481,8724.0,5661.0,4578.0,0.809,0.269,-0.036,0.521
7998497,8930.0,4561.0,3878.0,0.827,0.234,-0.029,0.511
7998513,7318.0,3377.0,3678.0,0.842,0.2,-0.021,0.501
7998530,5062.0,5385.0,4186.0,0.854,0.166,-0.015,0.492
7998546,5632.0,1773.0,3240.0,0.864,0.13,-0.011,0.486
7998572,5380.0,753.0,2238.0,0.873,0.096,-0.005,0.478
7998589,4098.0,1899.0,2748.0,0.88,0.063,0.001,0.471
7998606,3226.0,-683.0,2264.0,0.885,0.031,0.008,0.465
7998622,3006.0,615.0,766.0,0.888,0.002,0.015,0.46
7998639,2732.0,-181.0,210.0,0.889,-0.027,0.021,0.456
7998656,4160.0,-2865.0,-1666.0,0.89,-0.054,0.029,0.453
7998673,2708.0,-3429.0,-1530.0,0.889,-0.076,0.041,0.449
7998689,726.0,-2517.0,-2190.0,0.889,-0.094,0.051,0.446
7998706,-260.0,-3361.0,-3460.0,0.888,-0.108,0.058,0.444
7998723,-1328.0,-5451.0,-3248.0,0.886,-0.117,0.063,0.444
7998749,-898.0,-4755.0,-3272.0,0.886,-0.118,0.066,0.444
7998765,-942.0,-4873.0,-2970.0,0.886,-0.114,0.068,0.445
7998781,-1042.0,-3239.0,-2248.0,0.886,-0.106,0.068,0.446
7998797,-1098.0,-3129.0,-656.0,0.887,-0.095,0.067,0.448
7998813,-804.0,-3709.0,-72.0,0.887,-0.08,0.064,0.449
7998829,-820.0,-1323.0,1028.0,0.888,-0.062,0.061,0.452
7998855,-120.0,-1883.0,1846.0,0.887,-0.043,0.057,0.456
7998872,386.0,-1267.0,2368.0,0.886,-0.022,0.052,0.46
7998889,424.0,-1385.0,3044.0,0.885,0.001,0.047,0.463
7998906,502.0,505.0,3550.0,0.883,0.027,0.043,0.467
7998922,410.0,1977.0,4890.0,0.879,0.051,0.035,0.473
7998939,1512.0,573.0,5230.0,0.874,0.075,0.026,0.48
7998956,1986.0,1935.0,5138.0,0.867,0.101,0.018,0.487
7998972,3226.0,1571.0,5098.0,0.86,0.125,0.009,0.494
7998989,3008.0,1997.0,6192.0,0.852,0.152,0.003,0.502
7999006,3734.0,3673.0,5932.0,0.842,0.179,-0.005,0.509
7999032,4042.0,3765.0,5912.0,0.831,0.206,-0.012,0.516
7999048,4178.0,4629.0,6456.0,0.819,0.233,-0.02,0.523
7999064,5172.0,3617.0,6200.0,0.807,0.26,-0.027,0.53
7999080,4946.0,5397.0,6156.0,0.793,0.287,-0.033,0.537
7999096,5606.0,6701.0,6142.0,0.778,0.313,-0.04,0.543
7999112,6442.0,4879.0,6162.0,0.763,0.337,-0.047,0.549
7999138,7164.0,6945.0,6060.0,0.747,0.361,-0.051,0.555
7999155,6574.0,6495.0,6568.0,0.731,0.385,-0.055,0.561
7999172,7072.0,6181.0,6232.0,0.714,0.408,-0.059,0.566
7999189,7196.0,6559.0,5776.0,0.696,0.432,-0.06,0.571
7999206,7272.0,8143.0,5696.0,0.678,0.454,-0.062,0.575
7999222,6912.0,8391.0,5632.0,0.659,0.475,-0.064,0.58
7999239,7494.0,7519.0,5552.0,0.64,0.494,-0.066,0.585
7999256,7978.0,6503.0,4968.0,0.619,0.514,-0.067,0.589
7999272,8154.0,7817.0,4790.0,0.599,0.534,-0.065,0.593
7999289,8142.0,8075.0,4294.0,0.579,0.552,-0.063,0.597
7999315,8174.0,7605.0,3868.0,0.559,0.568,-0.061,0.601
7999331,8460.0,6907.0,3914.0,0.538,0.584,-0.057,0.605
7999347,7858.0,6327.0,4010.0,0.516,0.599,-0.051,0.61
7999363,7526.0,7295.0,3610.0,0.492,0.615,-0.044,0.615
7999379,7398.0,6715.0,2950.0,0.468,0.63,-0.037,0.619
7999395,8016.0,6395.0,2184.0,0.443,0.644,-0.03,0.622
7999421,7700.0,6491.0,1738.0,0.419,0.658,-0.022,0.625
7999438,7416.0,6371.0,1912.0,0.395,0.67,-0.014,0.628
7999454,6536.0,7285.0,1830.0,0.371,0.681,-0.006,0.631
7999471,7306.0,6857.0,1114.0,0.348,0.69,0.0,0.634
7999488,7010.0,6833.0,1324.0,0.325,0.698,0.006,0.638
7999505,6986.0,7561.0,1362.0,0.303,0.703,0.01,0.643
7999522,7070.0,9019.0,1520.0,0.283,0.708,0.011,0.647
7999539,7582.0,8269.0,1360.0,0.266,0.71,0.009,0.652
7999556,7992.0,7885.0,1300.0,0.251,0.712,0.008,0.656
7999572,7756.0,8169.0,1292.0,0.237,0.713,0.007,0.66
7999589,7538.0,10751.0,1918.0,0.226,0.714,0.006,0.663
7999615,7632.0,10869.0,1810.0,0.221,0.714,0.003,0.665
7999631,7462.0,11113.0,2028.0,0.22,0.713,-0.0,0.665
7999647,7456.0,10495.0,1750.0,0.224,0.712,-0.005,0.666
7999663,6988.0,11533.0,2288.0,0.232,0.71,-0.01,0.665
7999679,6544.0,11895.0,2562.0,0.244,0.706,-0.015,0.664
7999695,7404.0,11071.0,1894.0,0.263,0.701,-0.022,0.663
7999721,7352.0,10911.0,2162.0,0.285,0.694,-0.027,0.661
7999738,7070.0,11031.0,2396.0,0.31,0.684,-0.032,0.66
7999755,7386.0,10937.0,2936.0,0.337,0.672,-0.039,0.658
7999772,8498.0,11505.0,3032.0,0.367,0.66,-0.045,0.654
7999789,10782.0,10919.0,3140.0,0.4,0.645,-0.051,0.649
7999805,10468.0,9101.0,2940.0,0.432,0.629,-0.054,0.644
7999822,10460.0,11245.0,3284.0,0.464,0.611,-0.055,0.639
7999839,10830.0,11589.0,3574.0,0.497,0.591,-0.056,0.633
7999865,12204.0,11193.0,2840.0,0.532,0.568,-0.057,0.625
7999881,12882.0,10169.0,2528.0,0.567,0.541,-0.057,0.618
7999897,12492.0,9933.0,3236.0,0.6,0.513,-0.053,0.611
7999913,13564.0,10429.0,3636.0,0.633,0.484,-0.047,0.603
7999929,13700.0,8635.0,3564.0,0.665,0.452,-0.039,0.593
7999945,12362.0,9113.0,3598.0,0.697,0.419,-0.029,0.581
7999971,10512.0,8283.0,4188.0,0.728,0.384,-0.019,0.568
7999988,9390.0,5739.0,4500.0,0.756,0.35,-0.009,0.553
8000005,8334.0,6793.0,4102.0,0.781,0.319,0.001,0.538
8000022,8368.0,5329.0,3170.0,0.803,0.286,0.01,0.522
8000038,7136.0,3759.0,3448.0,0.824,0.254,0.018,0.506
8000054,5624.0,4713.0,3412.0,0.841,0.221,0.025,0.493
8000070,4996.0,917.0,3350.0,0.856,0.188,0.032,0.48
8000086,4592.0,1507.0,2506.0,0.868,0.159,0.041,0.469
8000112,3652.0,1861.0,2106.0,0.878,0.129,0.05,0.458
8000128,1846.0,317.0,3074.0,0.887,0.1,0.058,0.448
8000144,2018.0,777.0,2648.0,0.893,0.073,0.063,0.44
8000160,2248.0,973.0,1808.0,0.898,0.047,0.068,0.433
8000176,2028.0,-413.0,1294.0,0.901,0.022,0.071,0.427
8000192,1544.0,23.0,1196.0,0.903,-0.003,0.075,0.423
8000218,1044.0,-1331.0,1304.0,0.904,-0.027,0.077,0.419
8000234,852.0,-2415.0,1050.0,0.905,-0.048,0.079,0.416
8000250,288.0,-2727.0,602.0,0.905,-0.067,0.082,0.413
8000266,-288.0,-1447.0,-126.0,0.904,-0.083,0.084,0.411
8000282,-1074.0,-2739.0,104.0,0.903,-0.098,0.084,0.41
8000298,-1150.0,-4239.0,-148.0,0.902,-0.11,0.083,0.41
8000324,-1338.0,-4073.0,-110.0,0.901,-0.117,0.081,0.41
8000340,-2086.0,-3793.0,404.0,0.9,-0.12,0.078,0.412
8000356,-1520.0,-3825.0,334.0,0.899,-0.12,0.073,0.414
8000373,-1240.0,-3697.0,646.0,0.899,-0.116,0.067,0.418
8000389,-1170.0,-3875.0,1182.0,0.898,-0.109,0.061,0.421
8000405,-1100.0,-2697.0,1532.0,0.898,-0.097,0.055,0.425
8000422,-168.0,-2885.0,1716.0,0.898,-0.083,0.048,0.43
8000439,-54.0,-2489.0,2326.0,0.897,-0.067,0.042,0.434
8000465,46.0,-1777.0,2872.0,0.897,-0.047,0.037,0.439
8000481,648.0,-1391.0,3284.0,0.895,-0.025,0.031,0.444
8000497,908.0,-789.0,3752.0,0.893,-0.002,0.026,0.45
8000513,852.0,-153.0,4294.0,0.889,0.023,0.021,0.456
8000529,2006.0,823.0,4166.0,0.885,0.05,0.016,0.463
8000549,2054.0,905.0,5032.0,0.88,0.077,0.011,0.469
8000565,2410.0,2291.0,5324.0,0.873,0.106,0.005,0.476
8000591,3196.0,945.0,4950.0,0.865,0.136,-0.0,0.483
8000607,3940.0,4735.0,4462.0,0.855,0.167,-0.005,0.49
8000623,3810.0,4335.0,5840.0,0.845,0.195,-0.011,0.498
8000639,2948.0,1563.0,6770.0,0.832,0.223,-0.019,0.507
8000655,4266.0,3893.0,5210.0,0.818,0.256,-0.027,0.515
8000672,5884.0,4679.0,4492.0,0.801,0.288,-0.034,0.523
8000688,5804.0,5223.0,5420.0,0.784,0.316,-0.041,0.533
8000705,5398.0,5185.0,5994.0,0.765,0.343,-0.048,0.542
8000732,6790.0,5829.0,5080.0,0.745,0.37,-0.056,0.552
8000748,7908.0,4839.0,5192.0,0.724,0.397,-0.064,0.561
8000764,8232.0,7079.0,5402.0,0.701,0.424,-0.069,0.569
8000780,8242.0,8785.0,5450.0,0.677,0.448,-0.077,0.579
8000796,8510.0,5181.0,5930.0,0.653,0.47,-0.085,0.587
8000812,9548.0,7037.0,4828.0,0.628,0.493,-0.09,0.595
8000828,9744.0,7925.0,5138.0,0.604,0.514,-0.095,0.602
8000854,9954.0,8417.0,4852.0,0.579,0.532,-0.1,0.61
8000871,9854.0,8113.0,5010.0,0.555,0.548,-0.105,0.617
8000887,9882.0,6659.0,4838.0,0.532,0.563,-0.109,0.623
8000903,9824.0,6739.0,3982.0,0.509,0.577,-0.11,0.629
8000920,9354.0,7557.0,3896.0,0.488,0.589,-0.11,0.635
8000936,8822.0,7033.0,3244.0,0.467,0.6,-0.11,0.64
8000953,8644.0,6091.0,3248.0,0.447,0.611,-0.109,0.644
8000979,8658.0,6799.0,2612.0,0.428,0.62,-0.107,0.649
8000995,8320.0,6815.0,2554.0,0.409,0.628,-0.106,0.654
8001011,8212.0,5989.0,2630.0,0.392,0.635,-0.104,0.658
8001027,8150.0,5601.0,2436.0,0.374,0.642,-0.102,0.661
8001043,7730.0,5311.0,2332.0,0.358,0.65,-0.099,0.664
8001059,8068.0,5899.0,1886.0,0.342,0.657,-0.095,0.666
8001085,7708.0,6735.0,1974.0,0.327,0.663,-0.092,0.667
8001101,7690.0,6873.0,2478.0,0.312,0.668,-0.091,0.669
8001117,7792.0,6433.0,2128.0,0.299,0.673,-0.092,0.67
8001133,7886.0,6515.0,2272.0,0.287,0.678,-0.091,0.67
8001149,7798.0,7089.0,2418.0,0.276,0.682,-0.091,0.671
8001165,7870.0,7723.0,2646.0,0.268,0.685,-0.092,0.671
8001191,8034.0,7477.0,3112.0,0.261,0.688,-0.091,0.671
8001207,8242.0,8743.0,3548.0,0.257,0.691,-0.091,0.67
8001223,8090.0,9519.0,3352.0,0.257,0.692,-0.091,0.669
8001239,7482.0,9123.0,4038.0,0.26,0.691,-0.092,0.668
8001255,7344.0,10103.0,4272.0,0.266,0.691,-0.094,0.666
8001271,7800.0,10295.0,4342.0,0.277,0.689,-0.096,0.663
8001288,8676.0,10171.0,3824.0,0.293,0.685,-0.099,0.66
8001315,8052.0,9979.0,4468.0,0.312,0.678,-0.102,0.657
8001331,7758.0,10469.0,5050.0,0.334,0.67,-0.106,0.654
8001347,9112.0,10569.0,4582.0,0.36,0.661,-0.11,0.65
8001363,9964.0,10857.0,4110.0,0.388,0.648,-0.114,0.645
8001379,10258.0,10677.0,4518.0,0.419,0.632,-0.118,0.641
8001405,9948.0,9829.0,5286.0,0.453,0.613,-0.121,0.636
8001421,11252.0,10287.0,5156.0,0.486,0.594,-0.122,0.63
8001438,13122.0,10011.0,4532.0,0.521,0.572,-0.122,0.622
8001455,12250.0,10779.0,4746.0,0.557,0.545,-0.12,0.615
8001472,12144.0,9049.0,4720.0,0.593,0.516,-0.118,0.607
8001488,12458.0,9969.0,4828.0,0.627,0.486,-0.115,0.598
8001505,12396.0,8307.0,4508.0,0.66,0.454,-0.111,0.589
8001521,12238.0,8291.0,3860.0,0.691,0.419,-0.104,0.58
8001538,10754.0,8269.0,4428.0,0.721,0.383,-0.097,0.57
8001555,9818.0,6777.0,4800.0,0.747,0.346,-0.09,0.56
8001581,9614.0,5015.0,4148.0,0.771,0.312,-0.082,0.549
8001597,9604.0,5525.0,3386.0,0.792,0.277,-0.072,0.539
8001613,8402.0,4791.0,3618.0,0.811,0.242,-0.061,0.528
8001629,7016.0,4765.0,3888.0,0.828,0.209,-0.05,0.518
8001645,7060.0,3871.0,3440.0,0.841,0.177,-0.041,0.509
8001661,6888.0,2157.0,2826.0,0.853,0.147,-0.032,0.5
8001687,6038.0,2563.0,2326.0,0.863,0.117,-0.02,0.49
8001704,4426.0,1955.0,2494.0,0.872,0.087,-0.009,0.482
8001721,3530.0,-51.0,2708.0,0.878,0.059,0.001,0.474
8001738,3194.0,-225.0,2228.0,0.883,0.035,0.011,0.467
8001754,2404.0,749.0,1594.0,0.887,0.012,0.02,0.46
8001771,2522.0,-645.0,1330.0,0.89,-0.011,0.028,0.455
8001788,1752.0,-2349.0,1556.0,0.892,-0.032,0.035,0.449
8001805,1270.0,-2287.0,960.0,0.893,-0.049,0.044,0.445
8001822,328.0,-1701.0,-128.0,0.894,-0.064,0.051,0.441
8001839,-832.0,-3905.0,120.0,0.893,-0.078,0.058,0.439
8001858,-1834.0,-4085.0,152.0,0.892,-0.088,0.063,0.439
8001874,-1400.0,-4499.0,-490.0,0.89,-0.093,0.066,0.44
8001890,-1142.0,-4353.0,-872.0,0.889,-0.095,0.069,0.444
8001917,-722.0,-3665.0,-714.0,0.887,-0.093,0.07,0.447
8001933,-16.0,-3283.0,-350.0,0.885,-0.088,0.07,0.452
8001949,18.0,-3807.0,410.0,0.884,-0.079,0.069,0.456
8001965,-28.0,-2847.0,78.0,0.883,-0.067,0.067,0.46
8001981,-156.0,-2621.0,544.0,0.881,-0.053,0.064,0.465
8001997,-116.0,-2439.0,1086.0,0.88,-0.037,0.061,0.47
8002023,-22.0,-1923.0,1732.0,0.878,-0.017,0.057,0.475
8002039,818.0,-589.0,2292.0,0.875,0.004,0.052,0.481
8002055,730.0,709.0,2956.0,0.872,0.026,0.046,0.487
8002071,1316.0,721.0,3568.0,0.868,0.047,0.038,0.493
8002088,1866.0,-21.0,4566.0,0.863,0.07,0.029,0.5
8002104,2712.0,2113.0,4004.0,0.857,0.096,0.022,0.506
8002121,3498.0,2629.0,4000.0,0.85,0.121,0.015,0.513
8002147,3482.0,2625.0,5120.0,0.842,0.146,0.008,0.519
8002163,3566.0,3823.0,5110.0,0.832,0.172,0.002,0.527
8002179,3416.0,3165.0,5670.0,0.821,0.2,-0.004,0.536
8002195,4476.0,4281.0,5342.0,0.807,0.23,-0.011,0.544
8002211,5334.0,4473.0,5302.0,0.792,0.26,-0.017,0.552
8002227,5236.0,5733.0,5596.0,0.777,0.289,-0.022,0.559
8002253,5364.0,5967.0,5728.0,0.76,0.319,-0.028,0.566
8002270,5928.0,5175.0,6046.0,0.741,0.35,-0.034,0.572
8002287,6810.0,6351.0,5740.0,0.722,0.382,-0.038,0.576
8002304,7506.0,7875.0,6002.0,0.701,0.412,-0.043,0.58
8002320,7338.0,7303.0,5874.0,0.679,0.441,-0.048,0.585
8002337,7714.0,6743.0,5746.0,0.656,0.469,-0.053,0.588
8002354,8964.0,7423.0,5566.0,0.632,0.497,-0.056,0.592
8002371,9178.0,9297.0,5556.0,0.608,0.521,-0.057,0.597
8002388,9208.0,7559.0,5504.0,0.584,0.541,-0.06,0.602
8002414,8784.0,6075.0,5008.0,0.559,0.559,-0.06,0.609
8002430,8824.0,6687.0,3898.0,0.534,0.577,-0.058,0.615
8002446,8574.0,6703.0,3776.0,0.507,0.594,-0.056,0.622
8002462,8286.0,8249.0,4176.0,0.481,0.608,-0.054,0.629
8002478,8162.0,7199.0,3536.0,0.454,0.621,-0.054,0.636
8002494,9392.0,6187.0,3344.0,0.428,0.634,-0.056,0.642
8002510,9896.0,6031.0,2952.0,0.401,0.647,-0.056,0.647
8002536,10458.0,7237.0,2130.0,0.374,0.658,-0.056,0.651
8002553,9552.0,6867.0,2188.0,0.349,0.667,-0.056,0.656
8002570,8826.0,6135.0,2156.0,0.324,0.675,-0.055,0.66
8002587,9300.0,7789.0,1704.0,0.299,0.683,-0.054,0.664
8002604,9356.0,8083.0,1618.0,0.277,0.689,-0.055,0.668
8002621,9128.0,6999.0,1826.0,0.257,0.692,-0.057,0.672
8002637,8974.0,7443.0,1496.0,0.239,0.695,-0.059,0.675
8002654,8218.0,8273.0,1874.0,0.222,0.697,-0.062,0.679
8002671,8072.0,7897.0,1942.0,0.208,0.698,-0.065,0.682
8002687,7840.0,8717.0,2218.0,0.198,0.699,-0.069,0.684
8002714,8014.0,9189.0,2132.0,0.192,0.699,-0.074,0.684
8002730,7812.0,8993.0,2116.0,0.189,0.699,-0.079,0.685
8002747,7150.0,9791.0,2720.0,0.189,0.699,-0.084,0.685
8002763,7492.0,9531.0,2724.0,0.194,0.698,-0.09,0.683
8002779,7646.0,10017.0,2486.0,0.204,0.696,-0.096,0.682
8002795,7074.0,9913.0,2794.0,0.218,0.692,-0.103,0.68
8002811,7176.0,10243.0,2856.0,0.237,0.687,-0.111,0.678
8002837,7212.0,10251.0,3090.0,0.259,0.68,-0.12,0.675
8002853,8264.0,9811.0,2612.0,0.284,0.671,-0.13,0.673
8002870,7946.0,10597.0,3052.0,0.311,0.66,-0.141,0.669
8002887,9250.0,10747.0,2758.0,0.34,0.649,-0.152,0.664
8002903,9816.0,8391.0,2804.0,0.371,0.635,-0.162,0.658
8002920,10184.0,8581.0,3396.0,0.401,0.62,-0.17,0.652
8002937,12208.0,10279.0,2900.0,0.433,0.604,-0.176,0.646
8002954,12906.0,9107.0,3014.0,0.467,0.584,-0.181,0.639
8002971,13312.0,8625.0,3472.0,0.501,0.561,-0.184,0.633
8002997,13192.0,7349.0,3786.0,0.536,0.535,-0.185,0.626
8003013,13606.0,7747.0,4266.0,0.57,0.509,-0.183,0.619
8003029,15134.0,8251.0,3616.0,0.604,0.48,-0.18,0.61
8003045,15886.0,7643.0,3364.0,0.638,0.448,-0.175,0.602
8003061,14856.0,4739.0,4160.0,0.67,0.414,-0.167,0.593
8003077,13526.0,3083.0,4338.0,0.7,0.381,-0.156,0.584
8003103,11994.0,5849.0,4878.0,0.727,0.35,-0.142,0.573
8003120,11842.0,4509.0,4322.0,0.753,0.317,-0.13,0.562
8003137,10926.0,3647.0,4168.0,0.776,0.285,-0.117,0.55
8003154,9094.0,2193.0,4350.0,0.797,0.254,-0.104,0.538
8003171,9378.0,1797.0,4974.0,0.814,0.225,-0.091,0.528
8003187,6640.0,2963.0,3746.0,0.828,0.195,-0.081,0.52
8003204,6118.0,2035.0,3982.0,0.84,0.167,-0.073,0.512
8003220,5206.0,-171.0,3730.0,0.85,0.14,-0.063,0.505
8003237,4564.0,-295.0,3102.0,0.859,0.114,-0.053,0.496
8003254,4784.0,1443.0,2390.0,0.867,0.09,-0.041,0.489
8003281,3856.0,-1121.0,2242.0,0.874,0.065,-0.028,0.481
8003297,2054.0,-765.0,2842.0,0.879,0.043,-0.015,0.474
8003313,1814.0,1479.0,2548.0,0.884,0.02,-0.003,0.466
8003329,1364.0,-1397.0,2224.0,0.888,-0.005,0.006,0.46
8003345,1212.0,-3781.0,1734.0,0.891,-0.025,0.016,0.453
8003361,542.0,-521.0,1416.0,0.894,-0.042,0.026,0.446
8003377,112.0,-989.0,792.0,0.896,-0.06,0.034,0.439
8003403,-424.0,-2569.0,836.0,0.897,-0.076,0.042,0.434
8003420,-844.0,-2185.0,984.0,0.897,-0.09,0.049,0.43
8003437,-824.0,-2105.0,258.0,0.897,-0.101,0.054,0.426
8003454,-1070.0,-4133.0,30.0,0.898,-0.109,0.059,0.423
8003471,-1616.0,-2505.0,232.0,0.898,-0.113,0.062,0.42
8003487,-1750.0,-2183.0,38.0,0.899,-0.115,0.063,0.418
8003504,-1806.0,-3957.0,80.0,0.899,-0.115,0.061,0.417
8003521,-1946.0,-3215.0,354.0,0.9,-0.111,0.059,0.417
8003537,-2218.0,-2833.0,1114.0,0.901,-0.104,0.054,0.418
8003554,-1398.0,-3295.0,1142.0,0.901,-0.094,0.047,0.421
8003580,-436.0,-3375.0,1222.0,0.901,-0.081,0.04,0.424
8003596,-496.0,-2191.0,1988.0,0.901,-0.065,0.031,0.428
8003612,294.0,-1521.0,2386.0,0.9,-0.048,0.022,0.432
8003628,1224.0,-1429.0,2520.0,0.899,-0.029,0.013,0.437
8003644,1422.0,235.0,3248.0,0.896,-0.008,0.004,0.443
8003670,2014.0,243.0,4078.0,0.893,0.013,-0.006,0.449
8003687,2112.0,-155.0,4686.0,0.889,0.035,-0.016,0.456
8003704,2850.0,849.0,5058.0,0.885,0.059,-0.027,0.462
8003720,3570.0,147.0,4586.0,0.879,0.083,-0.038,0.468
8003737,3338.0,2295.0,5356.0,0.873,0.108,-0.048,0.474
8003753,3568.0,2159.0,5650.0,0.864,0.133,-0.06,0.481
8003770,5142.0,1359.0,5134.0,0.855,0.158,-0.071,0.489
8003786,5482.0,1023.0,6242.0,0.844,0.186,-0.081,0.496
8003812,5116.0,1817.0,6660.0,0.832,0.215,-0.09,0.503
8003828,4984.0,4983.0,6842.0,0.819,0.244,-0.099,0.51
8003844,6526.0,2975.0,6218.0,0.804,0.271,-0.11,0.517
8003860,7132.0,2793.0,6514.0,0.788,0.3,-0.119,0.525
8003876,7380.0,3119.0,6492.0,0.769,0.329,-0.127,0.533
8003892,7920.0,3731.0,6428.0,0.749,0.358,-0.132,0.541
8003908,8430.0,5903.0,6330.0,0.728,0.387,-0.137,0.549
8003934,9116.0,5317.0,6064.0,0.706,0.413,-0.141,0.558
8003950,8790.0,5027.0,5850.0,0.684,0.437,-0.146,0.566
8003966,8948.0,5881.0,5604.0,0.661,0.46,-0.148,0.574
8003982,8702.0,6249.0,6176.0,0.637,0.481,-0.15,0.583
8003999,8246.0,5909.0,6242.0,0.613,0.501,-0.153,0.591
8004016,9002.0,5051.0,5478.0,0.588,0.522,-0.155,0.598
8004032,10284.0,7725.0,4166.0,0.562,0.54,-0.156,0.606
8004058,10502.0,6621.0,4234.0,0.537,0.556,-0.156,0.615
8004075,10008.0,6157.0,4592.0,0.513,0.57,-0.154,0.623
8004091,9108.0,7217.0,4636.0,0.49,0.584,-0.151,0.63
8004107,9520.0,6523.0,3694.0,0.468,0.597,-0.147,0.635
8004124,10172.0,7453.0,2540.0,0.447,0.608,-0.143,0.64
8004140,9204.0,6277.0,2984.0,0.426,0.618,-0.138,0.646
8004157,8276.0,7251.0,3344.0,0.406,0.627,-0.132,0.652
8004183,7910.0,5683.0,3114.0,0.387,0.635,-0.126,0.657
8004199,7988.0,5563.0,2590.0,0.368,0.643,-0.119,0.661
8004215,8218.0,7283.0,2056.0,0.351,0.651,-0.111,0.664
8004231,7928.0,5827.0,2354.0,0.335,0.657,-0.104,0.668
8004247,7796.0,5891.0,2134.0,0.319,0.662,-0.096,0.671
8004263,7702.0,5189.0,2010.0,0.305,0.667,-0.088,0.674
8004289,8162.0,5521.0,1676.0,0.292,0.672,-0.077,0.676
