timeMs,ax,ay,az,q0,q1,q2,q3
5268741,3930.0,5367.0,4606.0,0.889,0.385,-0.222,0.111
5268758,4034.0,5449.0,4750.0,0.888,0.385,-0.225,0.111
5268774,3958.0,5573.0,4708.0,0.888,0.384,-0.227,0.111
5268790,4010.0,5563.0,4716.0,0.887,0.384,-0.229,0.111
5268806,4114.0,5573.0,4730.0,0.887,0.384,-0.231,0.111
5268823,4108.0,5569.0,4622.0,0.887,0.384,-0.233,0.11
5268839,4054.0,5575.0,4496.0,0.886,0.384,-0.234,0.11
5268856,3946.0,5535.0,4574.0,0.886,0.384,-0.235,0.11
5268873,3908.0,5501.0,4572.0,0.886,0.383,-0.236,0.109
5268899,4020.0,5477.0,4640.0,0.886,0.382,-0.237,0.109
5268915,4116.0,5481.0,4606.0,0.887,0.382,-0.237,0.108
5268931,4262.0,5383.0,4672.0,0.887,0.381,-0.238,0.108
5268947,4314.0,5311.0,4622.0,0.887,0.38,-0.238,0.108
5268963,4202.0,5341.0,4626.0,0.888,0.379,-0.237,0.108
5268980,4096.0,5373.0,4626.0,0.888,0.379,-0.236,0.108
5269006,3958.0,5399.0,4626.0,0.889,0.379,-0.235,0.107
5269022,3962.0,5309.0,4484.0,0.889,0.378,-0.233,0.107
5269039,4048.0,5151.0,4512.0,0.89,0.378,-0.232,0.107
5269056,4120.0,5119.0,4566.0,0.891,0.377,-0.23,0.108
5269072,4102.0,5435.0,4694.0,0.891,0.377,-0.228,0.108
5269089,4056.0,5541.0,4948.0,0.892,0.376,-0.227,0.109
5269105,4050.0,5353.0,5032.0,0.893,0.375,-0.225,0.109
5269121,3876.0,5297.0,5102.0,0.894,0.373,-0.224,0.109
5269147,3870.0,5115.0,5208.0,0.894,0.372,-0.222,0.109
5269163,3994.0,5505.0,5178.0,0.895,0.372,-0.221,0.109
5269180,3852.0,5101.0,5104.0,0.896,0.371,-0.22,0.109
5269196,3650.0,4951.0,5096.0,0.896,0.37,-0.219,0.109
5269213,3574.0,5021.0,5084.0,0.897,0.37,-0.218,0.108
5269229,3552.0,5167.0,5080.0,0.897,0.37,-0.217,0.108
5269246,3502.0,5207.0,4998.0,0.897,0.371,-0.216,0.107
5269272,3596.0,5119.0,4990.0,0.897,0.371,-0.216,0.107
5269289,3690.0,5201.0,5058.0,0.897,0.372,-0.215,0.106
5269305,3690.0,5335.0,4958.0,0.896,0.374,-0.214,0.106
5269322,3658.0,5447.0,5002.0,0.896,0.375,-0.213,0.105
5269338,3710.0,5327.0,5082.0,0.896,0.376,-0.213,0.104
5269354,3728.0,5439.0,5034.0,0.896,0.377,-0.212,0.104
5269370,3778.0,5569.0,4938.0,0.896,0.378,-0.211,0.103
5269386,3808.0,5517.0,4882.0,0.896,0.378,-0.21,0.103
5269413,3786.0,5387.0,4964.0,0.896,0.378,-0.21,0.102
5269429,3746.0,5499.0,4966.0,0.896,0.379,-0.209,0.101
5269445,3708.0,5689.0,4890.0,0.896,0.379,-0.208,0.101
5269461,3690.0,5421.0,4864.0,0.897,0.378,-0.207,0.1
5269477,3702.0,5463.0,4948.0,0.897,0.378,-0.205,0.099
5269503,3556.0,5535.0,5002.0,0.898,0.378,-0.204,0.098
5269521,3418.0,5503.0,4900.0,0.898,0.378,-0.202,0.097
5269537,3406.0,5417.0,4986.0,0.899,0.378,-0.201,0.096
5269553,3488.0,5393.0,5044.0,0.899,0.378,-0.199,0.096
5269569,3506.0,5349.0,5082.0,0.899,0.378,-0.198,0.095
5269585,3444.0,5415.0,5036.0,0.9,0.378,-0.196,0.094
5269601,3482.0,5399.0,4988.0,0.9,0.379,-0.195,0.093
5269617,3312.0,5445.0,5088.0,0.9,0.379,-0.193,0.092
5269643,3326.0,5353.0,4998.0,0.9,0.38,-0.192,0.092
5269659,3296.0,5455.0,5020.0,0.9,0.381,-0.19,0.091
5269675,3324.0,5483.0,5128.0,0.9,0.381,-0.189,0.091
5269691,3386.0,5521.0,5228.0,0.9,0.382,-0.188,0.09
5269708,3322.0,5507.0,5162.0,0.9,0.383,-0.187,0.09
5269725,3208.0,5527.0,5116.0,0.9,0.383,-0.185,0.089
5269741,3146.0,5499.0,5134.0,0.9,0.384,-0.184,0.089
5269758,3028.0,5473.0,5044.0,0.9,0.385,-0.183,0.089
5269784,3046.0,5625.0,5046.0,0.9,0.386,-0.182,0.089
5269800,3072.0,5399.0,5132.0,0.9,0.386,-0.181,0.089
5269816,3096.0,5615.0,5190.0,0.9,0.387,-0.18,0.089
5269832,3088.0,5773.0,5318.0,0.9,0.388,-0.179,0.09
5269848,3110.0,5803.0,5270.0,0.899,0.389,-0.179,0.09
5269865,3132.0,5767.0,5130.0,0.899,0.389,-0.178,0.091
5269891,3134.0,5761.0,5016.0,0.899,0.39,-0.177,0.091
5269908,2990.0,5843.0,4800.0,0.898,0.391,-0.177,0.092
5269924,3022.0,5877.0,4794.0,0.898,0.392,-0.176,0.092
5269941,2968.0,5845.0,4834.0,0.898,0.393,-0.176,0.093
5269957,3028.0,5857.0,4996.0,0.898,0.393,-0.175,0.093
5269973,3002.0,5961.0,4896.0,0.897,0.394,-0.175,0.094
5269989,3010.0,5935.0,4894.0,0.897,0.394,-0.175,0.094
5270015,2978.0,5933.0,4832.0,0.897,0.394,-0.176,0.095
5270032,2948.0,5763.0,4892.0,0.897,0.394,-0.176,0.096
5270048,2986.0,5803.0,4858.0,0.897,0.393,-0.177,0.096
5270064,3078.0,5765.0,4980.0,0.897,0.393,-0.178,0.097
5270080,3158.0,5941.0,5072.0,0.897,0.391,-0.179,0.098
5270096,3206.0,5765.0,5146.0,0.898,0.39,-0.181,0.098
5270112,3174.0,5733.0,5054.0,0.898,0.389,-0.182,0.099
5270138,3134.0,5993.0,5028.0,0.898,0.387,-0.183,0.1
5270154,3130.0,5529.0,5048.0,0.899,0.385,-0.185,0.1
5270170,3178.0,5463.0,5020.0,0.899,0.384,-0.187,0.101
5270186,3126.0,5529.0,4898.0,0.899,0.383,-0.189,0.101
5270202,3260.0,5487.0,4904.0,0.898,0.382,-0.191,0.101
5270218,3434.0,5425.0,4924.0,0.898,0.381,-0.193,0.102
5270244,3570.0,5401.0,4966.0,0.898,0.38,-0.195,0.102
5270261,3628.0,5335.0,5134.0,0.898,0.379,-0.198,0.103
5270277,3598.0,5371.0,5204.0,0.898,0.377,-0.2,0.103
5270293,3676.0,5469.0,5074.0,0.898,0.376,-0.202,0.103
5270310,3718.0,5297.0,4940.0,0.898,0.375,-0.205,0.104
5270327,3650.0,5113.0,4914.0,0.898,0.374,-0.207,0.104
5270344,3602.0,5385.0,4918.0,0.898,0.374,-0.21,0.104
5270361,3698.0,5443.0,5030.0,0.897,0.373,-0.212,0.104
5270378,3660.0,5277.0,5128.0,0.897,0.372,-0.215,0.104
5270395,3682.0,5201.0,5110.0,0.897,0.37,-0.218,0.104
5270421,3780.0,5223.0,5070.0,0.897,0.369,-0.221,0.104
5270438,3840.0,5237.0,5022.0,0.896,0.368,-0.225,0.104
5270454,3912.0,5137.0,4962.0,0.896,0.366,-0.228,0.104
5270471,3838.0,5299.0,5066.0,0.896,0.365,-0.232,0.103
5270487,3790.0,5177.0,5058.0,0.896,0.363,-0.235,0.103
5270503,3922.0,5291.0,5052.0,0.895,0.362,-0.239,0.103
5270519,3906.0,5201.0,5012.0,0.895,0.36,-0.242,0.102
5270546,3936.0,5245.0,4862.0,0.895,0.359,-0.246,0.102
5270562,4008.0,5301.0,4890.0,0.894,0.357,-0.25,0.101
5270578,4034.0,5063.0,4928.0,0.894,0.355,-0.254,0.1
5270595,4020.0,5119.0,4970.0,0.894,0.353,-0.258,0.1
5270612,4236.0,5183.0,5056.0,0.894,0.351,-0.262,0.099
5270628,4294.0,4921.0,5058.0,0.893,0.348,-0.267,0.098
5270645,4314.0,4905.0,5102.0,0.893,0.346,-0.272,0.098
5270661,4668.0,4787.0,5202.0,0.892,0.344,-0.277,0.097
5270687,4836.0,4707.0,5196.0,0.891,0.342,-0.281,0.096
5270703,4934.0,4575.0,4982.0,0.891,0.341,-0.286,0.095
5270720,5030.0,4551.0,4992.0,0.89,0.339,-0.29,0.095
5270736,4832.0,4821.0,4924.0,0.889,0.338,-0.294,0.094
5270753,4668.0,4559.0,4874.0,0.888,0.337,-0.298,0.093
5270770,4682.0,4387.0,4700.0,0.888,0.336,-0.301,0.092
5270786,4996.0,4001.0,4468.0,0.887,0.335,-0.305,0.091
5270802,5328.0,4011.0,4260.0,0.886,0.335,-0.308,0.091
5270829,5592.0,4251.0,4266.0,0.885,0.335,-0.309,0.091
5270846,5310.0,4671.0,4552.0,0.885,0.335,-0.31,0.091
5270862,4806.0,5071.0,4460.0,0.885,0.335,-0.311,0.091
5270879,4944.0,4561.0,4238.0,0.884,0.335,-0.313,0.091
5270897,5228.0,4381.0,3956.0,0.884,0.334,-0.314,0.092
5270913,5490.0,4471.0,3910.0,0.884,0.333,-0.315,0.092
5270930,5698.0,4461.0,3766.0,0.885,0.332,-0.314,0.092
5270946,5778.0,4579.0,4400.0,0.886,0.331,-0.312,0.093
5270962,4860.0,5343.0,4872.0,0.887,0.33,-0.31,0.093
5270988,4776.0,5353.0,4892.0,0.888,0.328,-0.309,0.092
5271004,4888.0,4947.0,4766.0,0.889,0.326,-0.307,0.092
5271020,5084.0,4455.0,4574.0,0.891,0.323,-0.306,0.092
5271037,5204.0,4305.0,4436.0,0.892,0.321,-0.304,0.091
5271054,5070.0,4405.0,5118.0,0.894,0.319,-0.301,0.09
5271071,4366.0,4635.0,5232.0,0.896,0.316,-0.298,0.09
5271087,4374.0,4513.0,5262.0,0.898,0.313,-0.296,0.089
5271103,4456.0,4303.0,5182.0,0.899,0.31,-0.294,0.089
5271130,4628.0,3859.0,5144.0,0.901,0.307,-0.293,0.089
5271146,4740.0,3975.0,5340.0,0.903,0.304,-0.292,0.089
5271163,4700.0,4157.0,5230.0,0.904,0.301,-0.29,0.089
5271180,4662.0,3999.0,5354.0,0.906,0.298,-0.288,0.089
5271197,4600.0,3749.0,5350.0,0.907,0.295,-0.286,0.089
5271214,4528.0,3697.0,5478.0,0.909,0.291,-0.284,0.089
5271230,4480.0,3927.0,5646.0,0.91,0.289,-0.283,0.089
5271247,4404.0,3775.0,5674.0,0.912,0.286,-0.281,0.089
5271264,4454.0,3585.0,5718.0,0.913,0.283,-0.28,0.089
5271281,4440.0,3397.0,5740.0,0.914,0.281,-0.279,0.089
5271307,4542.0,3439.0,5698.0,0.915,0.279,-0.279,0.09
5271323,4440.0,3667.0,5724.0,0.915,0.278,-0.278,0.09
5271340,4436.0,3641.0,5768.0,0.915,0.278,-0.278,0.09
5271356,4428.0,3787.0,5704.0,0.915,0.278,-0.277,0.091
5271372,4540.0,3817.0,5658.0,0.915,0.278,-0.277,0.091
5271388,4552.0,3997.0,5654.0,0.915,0.278,-0.276,0.091
5271405,4506.0,3985.0,5606.0,0.915,0.279,-0.276,0.092
5271431,4374.0,4121.0,5564.0,0.915,0.279,-0.275,0.092
5271447,4384.0,4091.0,5588.0,0.916,0.28,-0.274,0.092
5271464,4428.0,4029.0,5548.0,0.916,0.28,-0.273,0.092
5271480,4354.0,4055.0,5602.0,0.916,0.281,-0.272,0.092
5271496,4362.0,4101.0,5578.0,0.916,0.281,-0.271,0.092
5271512,4366.0,4173.0,5498.0,0.916,0.282,-0.27,0.092
5271528,4382.0,4101.0,5566.0,0.916,0.282,-0.269,0.091
5271554,4448.0,4039.0,5608.0,0.917,0.282,-0.268,0.091
5271571,4428.0,4073.0,5600.0,0.917,0.282,-0.267,0.091
5271588,4426.0,3989.0,5596.0,0.918,0.282,-0.265,0.09
5271604,4428.0,3989.0,5600.0,0.918,0.282,-0.264,0.09
5271621,4326.0,3929.0,5696.0,0.919,0.281,-0.262,0.09
5271638,4352.0,3941.0,5802.0,0.92,0.281,-0.26,0.089
5271654,4358.0,3941.0,5844.0,0.92,0.281,-0.258,0.089
5271671,4404.0,3995.0,5768.0,0.921,0.281,-0.256,0.089
5271688,4386.0,4247.0,5858.0,0.921,0.281,-0.253,0.088
5271705,4436.0,4171.0,5616.0,0.922,0.281,-0.251,0.088
5271732,4280.0,3995.0,5634.0,0.923,0.282,-0.248,0.088
5271749,4240.0,4097.0,5746.0,0.923,0.282,-0.246,0.087
5271766,4138.0,4177.0,5816.0,0.924,0.282,-0.243,0.087
5271782,4116.0,3991.0,5802.0,0.925,0.283,-0.24,0.087
5271798,4090.0,3845.0,5874.0,0.925,0.283,-0.238,0.087
5271814,3992.0,3783.0,5700.0,0.925,0.284,-0.235,0.087
5271830,3882.0,4003.0,5752.0,0.926,0.285,-0.232,0.087
5271847,3856.0,3977.0,5868.0,0.926,0.286,-0.229,0.088
5271873,3798.0,4057.0,5902.0,0.927,0.287,-0.226,0.088
5271889,3644.0,4201.0,5998.0,0.927,0.288,-0.222,0.088
5271905,3630.0,4093.0,6062.0,0.928,0.289,-0.219,0.088
5271921,3624.0,4093.0,6022.0,0.928,0.291,-0.216,0.088
5271937,3616.0,4071.0,5992.0,0.928,0.292,-0.213,0.089
5271953,3588.0,4213.0,5974.0,0.928,0.294,-0.21,0.089
5271979,3420.0,4317.0,6084.0,0.928,0.295,-0.208,0.089
5271995,3322.0,4181.0,6128.0,0.928,0.297,-0.205,0.089
5272011,3318.0,4159.0,6118.0,0.928,0.299,-0.203,0.089
5272027,3284.0,4267.0,6076.0,0.928,0.301,-0.201,0.089
5272043,3234.0,4237.0,6118.0,0.927,0.303,-0.199,0.09
5272059,3274.0,4331.0,6006.0,0.927,0.306,-0.198,0.09
5272085,3164.0,4535.0,6020.0,0.926,0.308,-0.197,0.09
5272101,3156.0,4515.0,6034.0,0.926,0.311,-0.195,0.09
5272118,3238.0,4587.0,5950.0,0.925,0.314,-0.194,0.09
5272134,3242.0,4703.0,5906.0,0.924,0.317,-0.193,0.091
5272151,3120.0,4781.0,5900.0,0.923,0.32,-0.192,0.091
5272167,3164.0,4873.0,5784.0,0.922,0.323,-0.191,0.091
5272184,3266.0,4899.0,5616.0,0.921,0.327,-0.191,0.091
5272210,3338.0,4887.0,5580.0,0.92,0.33,-0.19,0.092
5272227,3238.0,5271.0,5652.0,0.919,0.333,-0.189,0.092
5272243,3198.0,5191.0,5684.0,0.919,0.335,-0.188,0.092
5272259,3332.0,5081.0,5584.0,0.918,0.337,-0.188,0.093
5272276,3414.0,5117.0,5486.0,0.917,0.339,-0.188,0.093
5272292,3404.0,5097.0,5454.0,0.917,0.34,-0.188,0.093
5272308,3354.0,5059.0,5488.0,0.916,0.341,-0.187,0.093
5272334,3328.0,5051.0,5522.0,0.916,0.342,-0.187,0.093
5272350,3350.0,5111.0,5484.0,0.916,0.343,-0.188,0.093
5272367,3264.0,5121.0,5414.0,0.916,0.343,-0.188,0.093
5272383,3226.0,5009.0,5402.0,0.916,0.343,-0.188,0.093
5272400,3312.0,4935.0,5554.0,0.916,0.342,-0.188,0.093
5272416,3306.0,4855.0,5678.0,0.916,0.342,-0.189,0.093
5272433,3298.0,4909.0,5730.0,0.916,0.341,-0.189,0.093
5272449,3234.0,5025.0,5810.0,0.916,0.341,-0.19,0.093
5272475,3230.0,5231.0,5720.0,0.916,0.341,-0.19,0.093
5272492,3184.0,5227.0,5672.0,0.916,0.341,-0.191,0.093
5272509,3202.0,5275.0,5610.0,0.915,0.342,-0.192,0.093
5272526,3336.0,5201.0,5648.0,0.915,0.342,-0.193,0.092
5272542,3450.0,5083.0,5566.0,0.915,0.341,-0.194,0.092
5272558,3382.0,4829.0,5446.0,0.915,0.34,-0.195,0.091
5272574,3334.0,4651.0,5258.0,0.916,0.339,-0.196,0.091
5272590,3288.0,4311.0,5162.0,0.916,0.338,-0.197,0.091
5272616,3254.0,4479.0,5062.0,0.916,0.337,-0.199,0.092
5272632,3276.0,4497.0,5092.0,0.915,0.336,-0.202,0.092
5272650,3582.0,4693.0,5434.0,0.915,0.335,-0.205,0.093
5272666,4160.0,5201.0,6094.0,0.915,0.333,-0.207,0.094
5272682,4296.0,5777.0,6588.0,0.915,0.332,-0.21,0.095
5272699,4026.0,5935.0,6470.0,0.915,0.332,-0.211,0.095
5272716,3394.0,5681.0,5930.0,0.915,0.331,-0.213,0.095
5272732,2992.0,5193.0,5546.0,0.914,0.33,-0.214,0.094
5272758,2864.0,4693.0,5274.0,0.914,0.33,-0.215,0.093
5272774,2998.0,4459.0,5242.0,0.914,0.33,-0.217,0.093
5272790,3182.0,4493.0,5410.0,0.914,0.33,-0.218,0.092
5272806,3364.0,4361.0,5656.0,0.914,0.329,-0.218,0.091
5272822,3570.0,4245.0,5820.0,0.914,0.329,-0.218,0.09
5272838,3754.0,4179.0,5710.0,0.914,0.329,-0.218,0.09
5272864,3658.0,4389.0,5630.0,0.915,0.329,-0.218,0.09
5272880,3644.0,4519.0,5690.0,0.915,0.329,-0.217,0.089
5272897,3702.0,4613.0,5714.0,0.915,0.329,-0.217,0.09
5272914,3886.0,4831.0,5516.0,0.914,0.329,-0.217,0.09
5272930,3994.0,5241.0,5548.0,0.914,0.33,-0.218,0.09
5272946,3924.0,5491.0,5392.0,0.914,0.33,-0.218,0.09
5272962,3984.0,5323.0,5332.0,0.914,0.329,-0.219,0.09
5272988,4110.0,5061.0,5168.0,0.914,0.328,-0.22,0.09
5273004,4256.0,4915.0,5156.0,0.914,0.327,-0.22,0.09
5273020,4282.0,4863.0,5336.0,0.915,0.326,-0.22,0.09
5273036,4290.0,4731.0,5370.0,0.915,0.325,-0.22,0.09
5273052,4176.0,4631.0,5482.0,0.916,0.324,-0.219,0.09
5273068,4092.0,4435.0,5450.0,0.916,0.323,-0.218,0.09
5273094,4090.0,4357.0,5600.0,0.917,0.322,-0.217,0.09
5273110,3992.0,4427.0,5684.0,0.918,0.321,-0.215,0.089
5273126,3868.0,4299.0,5746.0,0.918,0.321,-0.214,0.089
5273142,3808.0,4373.0,5766.0,0.919,0.32,-0.213,0.088
5273158,3676.0,4447.0,5716.0,0.92,0.32,-0.211,0.087
5273174,3538.0,4381.0,5708.0,0.92,0.319,-0.209,0.086
5273200,3344.0,4521.0,5674.0,0.921,0.319,-0.208,0.084
5273216,3280.0,4577.0,5768.0,0.921,0.319,-0.206,0.083
5273232,3202.0,4567.0,5880.0,0.922,0.319,-0.204,0.082
5273248,3266.0,4565.0,6046.0,0.922,0.32,-0.202,0.08
5273264,3200.0,4587.0,6016.0,0.922,0.321,-0.2,0.079
5273290,3164.0,4601.0,5852.0,0.922,0.322,-0.198,0.077
5273306,3132.0,4699.0,5792.0,0.922,0.324,-0.196,0.076
5273322,3150.0,4691.0,5844.0,0.922,0.326,-0.194,0.075
5273338,3074.0,4791.0,5846.0,0.922,0.328,-0.191,0.074
5273354,3120.0,4913.0,5792.0,0.922,0.33,-0.189,0.073
5273370,3126.0,5001.0,5758.0,0.922,0.332,-0.186,0.072
5273396,3156.0,5011.0,5662.0,0.922,0.334,-0.184,0.072
5273413,3012.0,4913.0,5596.0,0.921,0.336,-0.181,0.072
5273430,3062.0,4911.0,5584.0,0.921,0.338,-0.179,0.073
5273447,3150.0,4873.0,5622.0,0.921,0.34,-0.176,0.073
5273463,3114.0,4899.0,5730.0,0.921,0.342,-0.174,0.075
5273480,3046.0,4897.0,5880.0,0.92,0.344,-0.172,0.076
5273496,3048.0,4997.0,5818.0,0.919,0.346,-0.17,0.078
5273513,3074.0,5451.0,5618.0,0.919,0.349,-0.168,0.08
5273530,3090.0,5307.0,5604.0,0.918,0.351,-0.166,0.081
5273546,2992.0,5323.0,5544.0,0.918,0.352,-0.165,0.082
5273572,2920.0,5329.0,5562.0,0.917,0.354,-0.163,0.083
5273588,2880.0,5457.0,5572.0,0.917,0.356,-0.162,0.084
5273604,2854.0,5447.0,5566.0,0.916,0.357,-0.16,0.085
5273620,2816.0,5361.0,5552.0,0.916,0.359,-0.159,0.085
5273636,2840.0,5307.0,5552.0,0.915,0.361,-0.158,0.086
5273652,2790.0,5315.0,5556.0,0.915,0.362,-0.156,0.086
5273678,2708.0,5243.0,5610.0,0.914,0.364,-0.155,0.086
5273694,2688.0,5325.0,5622.0,0.914,0.366,-0.154,0.086
5273710,2732.0,5391.0,5666.0,0.913,0.367,-0.153,0.086
5273726,2658.0,5317.0,5632.0,0.913,0.369,-0.152,0.086
5273742,2680.0,5355.0,5602.0,0.912,0.371,-0.151,0.086
5273758,2670.0,5285.0,5436.0,0.912,0.373,-0.15,0.086
5273784,2610.0,5655.0,5420.0,0.911,0.375,-0.149,0.086
5273801,2568.0,5701.0,5414.0,0.91,0.377,-0.149,0.086
5273817,2604.0,5625.0,5420.0,0.909,0.379,-0.148,0.086
5273833,2640.0,5695.0,5356.0,0.909,0.381,-0.148,0.086
5273849,2728.0,5693.0,5270.0,0.908,0.383,-0.148,0.086
5273865,2746.0,5655.0,5300.0,0.907,0.385,-0.147,0.086
5273891,2746.0,5729.0,5146.0,0.906,0.387,-0.147,0.085
5273907,2544.0,5871.0,5152.0,0.906,0.388,-0.146,0.085
5273923,2418.0,5641.0,5182.0,0.905,0.39,-0.146,0.085
5273939,2490.0,5711.0,5114.0,0.905,0.391,-0.146,0.085
5273955,2514.0,5651.0,5140.0,0.904,0.392,-0.146,0.086
5273971,2630.0,5659.0,5194.0,0.904,0.393,-0.147,0.086
5273998,2688.0,5823.0,5226.0,0.903,0.394,-0.147,0.086
5274014,2676.0,5875.0,5248.0,0.903,0.395,-0.148,0.087
5274030,2608.0,5887.0,5248.0,0.902,0.395,-0.15,0.087
5274046,2632.0,5833.0,5240.0,0.902,0.395,-0.151,0.087
5274062,2718.0,5747.0,5146.0,0.902,0.395,-0.153,0.087
5274078,2732.0,5705.0,5130.0,0.901,0.395,-0.155,0.088
5274104,2694.0,5725.0,5184.0,0.901,0.395,-0.157,0.088
5274120,2688.0,5713.0,5242.0,0.9,0.395,-0.16,0.088
5274136,2822.0,5599.0,5214.0,0.9,0.395,-0.162,0.088
5274152,2892.0,5643.0,5108.0,0.899,0.395,-0.165,0.088
5274168,3046.0,5719.0,5114.0,0.898,0.396,-0.168,0.089
5274184,3074.0,5731.0,4912.0,0.897,0.397,-0.171,0.089
5274210,3192.0,5819.0,4882.0,0.896,0.398,-0.174,0.089
5274226,3084.0,5975.0,4784.0,0.895,0.399,-0.177,0.089
5274242,3108.0,6113.0,4834.0,0.894,0.4,-0.179,0.09
5274258,3158.0,6497.0,4716.0,0.893,0.401,-0.183,0.09
5274274,3352.0,6035.0,4826.0,0.892,0.401,-0.185,0.09
5274290,3340.0,6143.0,4802.0,0.892,0.401,-0.188,0.091
5274316,3310.0,5987.0,5006.0,0.892,0.4,-0.191,0.091
5274334,3204.0,5649.0,4962.0,0.892,0.399,-0.193,0.091
5274350,3266.0,5573.0,4966.0,0.892,0.397,-0.196,0.091
5274366,3308.0,5537.0,4954.0,0.892,0.396,-0.199,0.091
5274382,3408.0,5313.0,5040.0,0.892,0.394,-0.202,0.091
5274398,3384.0,5329.0,4996.0,0.892,0.393,-0.205,0.09
5274414,3528.0,5349.0,4932.0,0.892,0.391,-0.208,0.09
5274440,3624.0,5295.0,4838.0,0.892,0.39,-0.212,0.09
5274456,3832.0,5243.0,4876.0,0.891,0.389,-0.215,0.09
5274472,3936.0,5341.0,4840.0,0.89,0.389,-0.219,0.091
5274488,3906.0,5405.0,4798.0,0.89,0.389,-0.222,0.091
5274504,3886.0,5455.0,4796.0,0.889,0.389,-0.225,0.091
5274520,3940.0,5501.0,4782.0,0.888,0.389,-0.228,0.091
5274537,3850.0,5567.0,4732.0,0.887,0.389,-0.231,0.091
5274563,3918.0,5661.0,4680.0,0.886,0.389,-0.234,0.091
5274580,3920.0,5429.0,4718.0,0.886,0.388,-0.238,0.092
5274597,3938.0,5391.0,4668.0,0.885,0.388,-0.241,0.092
5274614,3960.0,5437.0,4674.0,0.884,0.388,-0.244,0.092
5274630,4038.0,5525.0,4562.0,0.883,0.388,-0.246,0.092
5274647,4056.0,5571.0,4564.0,0.883,0.387,-0.249,0.092
5274664,4084.0,5389.0,4522.0,0.882,0.387,-0.252,0.093
5274681,4374.0,5273.0,4388.0,0.882,0.386,-0.254,0.093
5274698,4446.0,5353.0,4510.0,0.882,0.384,-0.256,0.094
5274714,4442.0,5165.0,4542.0,0.882,0.383,-0.257,0.095
5274740,4334.0,5285.0,4678.0,0.882,0.382,-0.257,0.095
5274756,4258.0,5361.0,4686.0,0.883,0.381,-0.258,0.096
5274772,4404.0,5261.0,4570.0,0.883,0.38,-0.259,0.097
5274788,4462.0,5027.0,4646.0,0.883,0.379,-0.259,0.098
5274805,4392.0,5185.0,4722.0,0.883,0.378,-0.259,0.099
5274822,4280.0,5255.0,4788.0,0.883,0.377,-0.26,0.1
5274839,4318.0,5125.0,4806.0,0.884,0.376,-0.26,0.101
5274865,4354.0,5031.0,4700.0,0.884,0.375,-0.261,0.102
5274881,4366.0,5065.0,4618.0,0.883,0.375,-0.262,0.103
5274898,4356.0,4925.0,4618.0,0.883,0.374,-0.262,0.103
5274916,4420.0,4869.0,4646.0,0.883,0.374,-0.263,0.104
5274932,4564.0,4983.0,4596.0,0.883,0.373,-0.264,0.105
5274948,4584.0,4921.0,4634.0,0.883,0.372,-0.265,0.106
5274964,4658.0,4883.0,4686.0,0.883,0.372,-0.265,0.107
5274980,4550.0,4997.0,4684.0,0.883,0.371,-0.265,0.108
5275006,4504.0,4965.0,4692.0,0.883,0.371,-0.266,0.108
5275022,4498.0,4959.0,4708.0,0.884,0.37,-0.266,0.109
5275039,4402.0,4925.0,4722.0,0.884,0.369,-0.266,0.109
5275055,4414.0,4975.0,4708.0,0.884,0.369,-0.265,0.109
5275071,4354.0,4989.0,4740.0,0.884,0.368,-0.265,0.11
5275087,4324.0,4941.0,4728.0,0.884,0.368,-0.265,0.11
5275113,4336.0,4955.0,4778.0,0.885,0.368,-0.265,0.11
5275129,4372.0,4929.0,4834.0,0.885,0.367,-0.265,0.111
5275145,4474.0,4915.0,4862.0,0.885,0.367,-0.265,0.111
5275161,4420.0,4945.0,4946.0,0.885,0.367,-0.265,0.111
5275178,4492.0,4935.0,4862.0,0.885,0.367,-0.265,0.112
5275194,4428.0,4887.0,4838.0,0.885,0.367,-0.265,0.112
5275210,4410.0,4923.0,4772.0,0.885,0.367,-0.265,0.111
5275237,4340.0,4999.0,4822.0,0.885,0.367,-0.265,0.111
5275253,4382.0,4963.0,4834.0,0.885,0.366,-0.265,0.111
5275269,4412.0,4923.0,4788.0,0.885,0.366,-0.265,0.111
5275285,4498.0,4839.0,4728.0,0.885,0.366,-0.266,0.11
5275301,4508.0,4885.0,4746.0,0.885,0.366,-0.266,0.11
5275317,4576.0,4949.0,4660.0,0.885,0.367,-0.266,0.11
5275343,4586.0,4885.0,4698.0,0.885,0.367,-0.265,0.109
5275360,4668.0,4839.0,4740.0,0.885,0.367,-0.265,0.109
5275376,4546.0,5109.0,4686.0,0.885,0.368,-0.264,0.109
5275393,4552.0,5105.0,4690.0,0.885,0.368,-0.263,0.109
5275410,4556.0,5021.0,4746.0,0.886,0.367,-0.262,0.108
5275426,4472.0,4985.0,4710.0,0.886,0.367,-0.26,0.108
5275443,4394.0,5041.0,4774.0,0.887,0.367,-0.259,0.107
5275459,4300.0,4911.0,4856.0,0.887,0.367,-0.258,0.107
5275475,4248.0,4859.0,4880.0,0.888,0.366,-0.257,0.106
5275502,4220.0,4843.0,4868.0,0.888,0.366,-0.256,0.106
5275518,4254.0,4843.0,4948.0,0.889,0.366,-0.255,0.105
5275534,4282.0,4829.0,4914.0,0.889,0.366,-0.254,0.105
5275550,4280.0,4857.0,4906.0,0.889,0.366,-0.253,0.104
5275567,4228.0,4955.0,4890.0,0.89,0.367,-0.251,0.104
5275584,4260.0,4987.0,4872.0,0.89,0.367,-0.25,0.103
5275601,4244.0,5025.0,4892.0,0.89,0.368,-0.249,0.102
5275618,4244.0,5119.0,4836.0,0.89,0.368,-0.248,0.102
5275635,4220.0,5049.0,4920.0,0.891,0.369,-0.246,0.101
5275652,4160.0,5173.0,4932.0,0.891,0.37,-0.244,0.1
5275678,4172.0,5251.0,4980.0,0.891,0.37,-0.243,0.1
5275695,4120.0,5207.0,4914.0,0.891,0.371,-0.241,0.099
5275712,4094.0,5265.0,4932.0,0.892,0.371,-0.239,0.098
5275729,4094.0,5237.0,4950.0,0.892,0.372,-0.237,0.098
5275746,4030.0,5207.0,5020.0,0.893,0.372,-0.236,0.097
5275763,4032.0,5215.0,5022.0,0.893,0.373,-0.234,0.096
5275780,3966.0,5133.0,5034.0,0.893,0.373,-0.232,0.096
5275797,4024.0,5037.0,4940.0,0.894,0.373,-0.23,0.095
5275814,4060.0,4925.0,4924.0,0.894,0.374,-0.228,0.094
5275831,3928.0,4951.0,4986.0,0.894,0.374,-0.226,0.094
5275848,3874.0,4961.0,5042.0,0.895,0.375,-0.224,0.093
5275865,3874.0,5113.0,5194.0,0.895,0.376,-0.222,0.093
5275891,3858.0,5075.0,5068.0,0.895,0.377,-0.22,0.092
5275907,3770.0,5069.0,5074.0,0.895,0.379,-0.218,0.092
5275923,3610.0,5113.0,5070.0,0.895,0.38,-0.215,0.091
5275940,3492.0,5179.0,4996.0,0.894,0.383,-0.213,0.091
5275956,3424.0,5539.0,4900.0,0.894,0.385,-0.211,0.091
5275973,3338.0,5617.0,4910.0,0.894,0.387,-0.209,0.09
5275989,3318.0,5487.0,4956.0,0.893,0.389,-0.207,0.09
5276015,3478.0,5615.0,4956.0,0.893,0.391,-0.205,0.09
5276031,3476.0,5601.0,4924.0,0.892,0.394,-0.203,0.09
5276047,3464.0,5641.0,4876.0,0.891,0.396,-0.202,0.09
5276064,3422.0,5801.0,4866.0,0.891,0.398,-0.2,0.09
5276081,3456.0,5773.0,4812.0,0.89,0.399,-0.199,0.09
5276098,3498.0,5619.0,4844.0,0.89,0.4,-0.198,0.09
5276115,3482.0,5783.0,4854.0,0.89,0.402,-0.197,0.09
5276132,3396.0,5827.0,4878.0,0.89,0.402,-0.196,0.09
5276148,3356.0,5719.0,4924.0,0.89,0.403,-0.195,0.09
5276174,3386.0,5681.0,4846.0,0.89,0.403,-0.194,0.09
5276190,3360.0,5717.0,4778.0,0.89,0.404,-0.193,0.09
5276207,3260.0,5767.0,4740.0,0.89,0.405,-0.191,0.089
5276224,3264.0,5895.0,4864.0,0.89,0.405,-0.19,0.089
5276241,3174.0,6035.0,4870.0,0.89,0.406,-0.19,0.089
5276257,3282.0,5781.0,4844.0,0.889,0.407,-0.189,0.089
5276274,3344.0,5773.0,4832.0,0.889,0.407,-0.189,0.089
5276290,3446.0,5739.0,4752.0,0.889,0.408,-0.188,0.089
5276316,3446.0,5703.0,4734.0,0.889,0.409,-0.187,0.089
5276332,3348.0,5689.0,4756.0,0.889,0.41,-0.186,0.089
5276349,3340.0,5759.0,4766.0,0.888,0.41,-0.185,0.089
5276365,3242.0,5885.0,4772.0,0.888,0.411,-0.184,0.088
5276382,3222.0,5811.0,4828.0,0.888,0.412,-0.183,0.088
5276398,3218.0,5763.0,4788.0,0.888,0.412,-0.182,0.088
5276415,3166.0,5761.0,4750.0,0.888,0.413,-0.181,0.088
5276432,3218.0,5835.0,4800.0,0.888,0.413,-0.18,0.088
5276449,3074.0,5885.0,4846.0,0.888,0.414,-0.178,0.087
5276475,3012.0,5907.0,4836.0,0.888,0.415,-0.177,0.087
5276491,3078.0,6023.0,4750.0,0.888,0.416,-0.176,0.086
5276507,3052.0,6083.0,4688.0,0.888,0.417,-0.175,0.086
5276524,3128.0,6119.0,4676.0,0.888,0.417,-0.175,0.086
5276540,3064.0,6069.0,4744.0,0.887,0.418,-0.174,0.086
5276556,3034.0,6007.0,4802.0,0.887,0.419,-0.173,0.086
5276582,2978.0,6009.0,4706.0,0.887,0.419,-0.172,0.086
5276598,2960.0,6055.0,4740.0,0.887,0.419,-0.172,0.086
5276614,3066.0,5823.0,4762.0,0.887,0.419,-0.171,0.087
5276630,3100.0,5845.0,4888.0,0.887,0.419,-0.171,0.087
5276646,3026.0,6085.0,4834.0,0.887,0.419,-0.171,0.088
5276662,2978.0,5973.0,4812.0,0.888,0.418,-0.171,0.088
5276688,2906.0,5759.0,4718.0,0.888,0.418,-0.172,0.089
5276704,2762.0,5727.0,4684.0,0.888,0.417,-0.172,0.09
5276721,2832.0,5803.0,4886.0,0.888,0.416,-0.174,0.091
5276738,3016.0,5891.0,5054.0,0.888,0.415,-0.175,0.092
5276754,2982.0,5913.0,5056.0,0.888,0.414,-0.178,0.093
5276771,3086.0,5947.0,4940.0,0.887,0.414,-0.18,0.095
5276787,3084.0,6019.0,4782.0,0.887,0.414,-0.183,0.096
5276803,3222.0,5827.0,4642.0,0.886,0.414,-0.186,0.097
5276829,3354.0,5933.0,4470.0,0.885,0.414,-0.188,0.097
5276845,3496.0,5847.0,4560.0,0.885,0.414,-0.191,0.098
5276861,3504.0,5981.0,4586.0,0.884,0.414,-0.193,0.099
5276877,3558.0,5965.0,4562.0,0.884,0.414,-0.195,0.099
5276894,3654.0,5977.0,4566.0,0.883,0.414,-0.197,0.1
5276911,3704.0,5979.0,4512.0,0.883,0.413,-0.199,0.1
5276928,3670.0,5851.0,4570.0,0.883,0.412,-0.2,0.1
5276944,3714.0,5655.0,4590.0,0.884,0.41,-0.202,0.1
5276971,3750.0,5771.0,4542.0,0.884,0.409,-0.204,0.101
5276987,3728.0,5725.0,4636.0,0.884,0.407,-0.205,0.101
5277004,3712.0,5707.0,4740.0,0.885,0.405,-0.207,0.101
5277021,3664.0,5637.0,4726.0,0.885,0.404,-0.209,0.101
5277037,3652.0,5811.0,4752.0,0.885,0.402,-0.212,0.102
5277053,3680.0,5767.0,4712.0,0.885,0.4,-0.214,0.102
5277069,3724.0,5815.0,4838.0,0.885,0.397,-0.218,0.103
5277086,3696.0,5647.0,4904.0,0.886,0.395,-0.221,0.103
5277113,3716.0,5407.0,4808.0,0.886,0.392,-0.225,0.104
5277130,3898.0,5103.0,4868.0,0.886,0.39,-0.229,0.104
5277146,3908.0,5199.0,4842.0,0.886,0.387,-0.232,0.104
5277163,3954.0,5101.0,4918.0,0.887,0.385,-0.235,0.104
5277179,4014.0,5031.0,4892.0,0.887,0.382,-0.238,0.104
5277196,3948.0,4919.0,4894.0,0.887,0.38,-0.24,0.104
5277213,3990.0,4837.0,4888.0,0.888,0.378,-0.242,0.105
5277229,4012.0,4815.0,4914.0,0.888,0.376,-0.244,0.105
5277246,3994.0,4943.0,4886.0,0.888,0.374,-0.246,0.105
5277263,3978.0,4983.0,4880.0,0.888,0.373,-0.248,0.105
5277289,4130.0,5031.0,4988.0,0.888,0.371,-0.25,0.105
5277306,4242.0,4941.0,4838.0,0.888,0.37,-0.252,0.106
5277322,4360.0,4869.0,4896.0,0.888,0.369,-0.254,0.106
5277338,4422.0,4887.0,4898.0,0.888,0.368,-0.255,0.106
5277354,4450.0,4949.0,4856.0,0.888,0.367,-0.256,0.107
5277370,4498.0,4861.0,4750.0,0.888,0.366,-0.256,0.107
5277396,4386.0,4827.0,4750.0,0.889,0.366,-0.255,0.106
5277413,4332.0,4795.0,4838.0,0.889,0.365,-0.255,0.106
5277429,4324.0,4905.0,4978.0,0.89,0.365,-0.254,0.106
5277445,4286.0,4843.0,4858.0,0.89,0.365,-0.252,0.106
5277461,4270.0,4513.0,4596.0,0.89,0.365,-0.251,0.106
5277477,4254.0,4599.0,4710.0,0.891,0.366,-0.249,0.106
5277494,4278.0,5071.0,4866.0,0.891,0.367,-0.247,0.106
5277511,4224.0,5459.0,4854.0,0.89,0.369,-0.245,0.106
5277538,4182.0,5891.0,4746.0,0.89,0.371,-0.243,0.107
5277554,4320.0,5729.0,5006.0,0.89,0.371,-0.241,0.108
5277570,4380.0,5539.0,4968.0,0.89,0.372,-0.24,0.108
5277586,4432.0,5411.0,4882.0,0.89,0.372,-0.239,0.109
5277602,4348.0,5291.0,4904.0,0.891,0.372,-0.238,0.109
5277618,4340.0,5229.0,4940.0,0.891,0.372,-0.237,0.108
5277644,4292.0,5151.0,4962.0,0.892,0.371,-0.235,0.108
5277661,4100.0,4945.0,4994.0,0.893,0.37,-0.234,0.108
5277677,4116.0,4915.0,5006.0,0.893,0.369,-0.233,0.107
5277693,4064.0,4875.0,5016.0,0.894,0.368,-0.232,0.106
5277709,4052.0,4921.0,5038.0,0.895,0.368,-0.231,0.106
5277725,3984.0,5013.0,5056.0,0.895,0.368,-0.23,0.105
5277751,3918.0,5081.0,5120.0,0.895,0.368,-0.229,0.104
5277768,3826.0,5095.0,5166.0,0.896,0.368,-0.228,0.103
5277784,3822.0,5041.0,5116.0,0.896,0.368,-0.227,0.102
5277800,3788.0,5077.0,5098.0,0.896,0.368,-0.226,0.101
5277817,3664.0,5001.0,5136.0,0.896,0.368,-0.225,0.101
5277833,3724.0,5149.0,5214.0,0.897,0.369,-0.224,0.1
5277849,3898.0,5197.0,5204.0,0.897,0.369,-0.222,0.1
5277865,3872.0,5179.0,5124.0,0.897,0.37,-0.221,0.099
5277891,3844.0,5211.0,5076.0,0.897,0.371,-0.219,0.099
5277907,3724.0,5331.0,5040.0,0.897,0.371,-0.218,0.098
5277923,3706.0,5171.0,5024.0,0.898,0.372,-0.216,0.097
5277939,3842.0,5109.0,5066.0,0.898,0.372,-0.215,0.097
5277955,3894.0,5157.0,5240.0,0.898,0.372,-0.213,0.096
5277971,3870.0,5163.0,5250.0,0.899,0.372,-0.211,0.095
5277998,3576.0,5099.0,5156.0,0.899,0.373,-0.209,0.094
5278014,3488.0,5187.0,4936.0,0.899,0.373,-0.207,0.093
5278030,3582.0,5129.0,5028.0,0.9,0.374,-0.205,0.093
5278047,3606.0,5191.0,5184.0,0.9,0.374,-0.203,0.092
5278064,3586.0,5231.0,5286.0,0.9,0.375,-0.201,0.091
5278080,3532.0,5383.0,5344.0,0.901,0.376,-0.199,0.091
5278097,3470.0,5385.0,5318.0,0.901,0.377,-0.196,0.091
5278114,3420.0,5341.0,5206.0,0.901,0.378,-0.194,0.09
5278130,3334.0,5355.0,5154.0,0.901,0.379,-0.192,0.09
5278157,3270.0,5479.0,5160.0,0.9,0.381,-0.191,0.09
5278173,3262.0,5533.0,5088.0,0.9,0.382,-0.189,0.09
5278189,3272.0,5499.0,5086.0,0.9,0.383,-0.187,0.09
5278205,3242.0,5467.0,5170.0,0.9,0.385,-0.185,0.091
5278221,3262.0,5477.0,5202.0,0.9,0.386,-0.183,0.091
5278237,3302.0,5509.0,5134.0,0.899,0.387,-0.182,0.091
5278263,3218.0,5307.0,5134.0,0.899,0.388,-0.18,0.092
5278279,3136.0,5535.0,5156.0,0.899,0.389,-0.179,0.092
5278295,3156.0,5599.0,5092.0,0.899,0.39,-0.178,0.093
5278311,3140.0,5559.0,5078.0,0.898,0.391,-0.177,0.093
5278327,3098.0,5525.0,5104.0,0.898,0.392,-0.176,0.094
5278343,3086.0,5549.0,5132.0,0.898,0.392,-0.175,0.094
5278370,2992.0,5569.0,5122.0,0.898,0.393,-0.175,0.095
5278386,2976.0,5623.0,5088.0,0.897,0.394,-0.174,0.096
5278402,2938.0,5709.0,5116.0,0.897,0.394,-0.174,0.096
5278418,3016.0,5673.0,5094.0,0.897,0.395,-0.174,0.097
5278434,3032.0,5733.0,5058.0,0.896,0.396,-0.174,0.097
5278450,3028.0,5759.0,5042.0,0.896,0.396,-0.174,0.097
5278476,3014.0,5799.0,4994.0,0.896,0.397,-0.175,0.097
5278493,3016.0,5755.0,5080.0,0.896,0.397,-0.175,0.097
5278510,3104.0,5769.0,5022.0,0.895,0.398,-0.175,0.097
5278526,3144.0,5799.0,5026.0,0.895,0.398,-0.176,0.097
5278543,3246.0,5765.0,4984.0,0.895,0.398,-0.177,0.097
5278559,3278.0,5849.0,4904.0,0.895,0.398,-0.177,0.096
5278576,3302.0,5719.0,4944.0,0.895,0.398,-0.177,0.096
5278593,3162.0,5713.0,4958.0,0.895,0.397,-0.178,0.095
5278610,3148.0,5907.0,5020.0,0.895,0.397,-0.178,0.095
5278626,3090.0,5759.0,5038.0,0.896,0.396,-0.178,0.095
5278653,3214.0,5615.0,4992.0,0.896,0.396,-0.178,0.094
5278669,3286.0,5555.0,4980.0,0.896,0.395,-0.178,0.094
5278685,3196.0,5475.0,5066.0,0.897,0.394,-0.178,0.094
5278701,3170.0,5497.0,5176.0,0.897,0.393,-0.179,0.094
5278717,3154.0,5359.0,5178.0,0.897,0.393,-0.179,0.093
5278733,3226.0,5463.0,5150.0,0.897,0.393,-0.179,0.094
5278759,3160.0,5295.0,5190.0,0.897,0.392,-0.179,0.094
5278776,3198.0,5293.0,5202.0,0.897,0.392,-0.18,0.094
5278793,3192.0,5549.0,5082.0,0.897,0.393,-0.18,0.095
5278810,3014.0,5599.0,5264.0,0.897,0.393,-0.18,0.095
5278826,3018.0,5347.0,5224.0,0.896,0.393,-0.181,0.095
5278843,3146.0,5499.0,5200.0,0.896,0.394,-0.182,0.096
5278860,3256.0,5449.0,5090.0,0.895,0.395,-0.183,0.097
5278877,3334.0,5407.0,4962.0,0.894,0.396,-0.184,0.097
5278894,3380.0,5593.0,4996.0,0.893,0.397,-0.185,0.098
5278911,3406.0,5603.0,5096.0,0.893,0.398,-0.186,0.098
5278928,3366.0,5737.0,5026.0,0.892,0.399,-0.187,0.099
5278945,3372.0,5805.0,4848.0,0.891,0.401,-0.188,0.099
5278962,3470.0,5749.0,4742.0,0.891,0.402,-0.188,0.1
5278989,3556.0,5757.0,4762.0,0.89,0.402,-0.189,0.1
5279005,3520.0,5713.0,4738.0,0.89,0.403,-0.189,0.101
5279021,3518.0,5765.0,4726.0,0.889,0.404,-0.189,0.101
5279037,3532.0,5855.0,4750.0,0.889,0.404,-0.189,0.101
5279053,3470.0,5615.0,4766.0,0.889,0.405,-0.189,0.102
5279069,3568.0,5689.0,4786.0,0.889,0.405,-0.189,0.102
5279095,3528.0,5693.0,4806.0,0.889,0.405,-0.189,0.102
5279112,3544.0,5661.0,4764.0,0.889,0.405,-0.188,0.102
5279129,3486.0,5607.0,4794.0,0.889,0.405,-0.188,0.103
5279146,3488.0,5695.0,4816.0,0.889,0.405,-0.187,0.103
5279162,3380.0,5653.0,4932.0,0.889,0.405,-0.187,0.103
5279179,3340.0,5669.0,4978.0,0.889,0.405,-0.186,0.104
5279196,3280.0,5591.0,4908.0,0.889,0.405,-0.186,0.104
5279212,3354.0,5567.0,4844.0,0.889,0.406,-0.186,0.105
5279228,3350.0,5609.0,4876.0,0.889,0.406,-0.185,0.106
5279255,3290.0,5579.0,4936.0,0.889,0.406,-0.185,0.106
5279272,3170.0,5699.0,4942.0,0.888,0.407,-0.185,0.107
5279289,3336.0,5777.0,4822.0,0.888,0.407,-0.185,0.107
5279306,3348.0,5643.0,4910.0,0.888,0.407,-0.185,0.108
5279322,3376.0,5755.0,4914.0,0.888,0.408,-0.185,0.108
5279338,3380.0,5789.0,4834.0,0.888,0.408,-0.185,0.108
5279355,3386.0,5729.0,4906.0,0.888,0.408,-0.185,0.108
5279371,3458.0,5783.0,4826.0,0.888,0.408,-0.185,0.108
5279387,3464.0,5691.0,4798.0,0.888,0.408,-0.185,0.108
5279413,3448.0,5757.0,4830.0,0.888,0.407,-0.185,0.108
5279429,3410.0,5585.0,4758.0,0.888,0.407,-0.185,0.107
5279445,3478.0,5597.0,4770.0,0.888,0.407,-0.185,0.107
5279461,3420.0,5673.0,4780.0,0.888,0.407,-0.185,0.107
5279477,3376.0,5635.0,4910.0,0.888,0.407,-0.185,0.107
5279493,3292.0,5809.0,4910.0,0.888,0.407,-0.184,0.106
5279519,3346.0,5673.0,4880.0,0.888,0.407,-0.184,0.106
5279535,3312.0,5513.0,4852.0,0.888,0.407,-0.184,0.106
5279551,3342.0,5595.0,4868.0,0.888,0.407,-0.183,0.106
5279567,3322.0,5727.0,4860.0,0.888,0.408,-0.183,0.106
5279583,3280.0,5623.0,4896.0,0.888,0.408,-0.182,0.106
5279609,3312.0,5557.0,4950.0,0.888,0.408,-0.181,0.106
5279625,3366.0,5555.0,4976.0,0.888,0.408,-0.181,0.106
5279642,3350.0,5571.0,4880.0,0.888,0.409,-0.18,0.106
5279659,3386.0,5483.0,4918.0,0.888,0.41,-0.18,0.107
5279676,3450.0,5445.0,4908.0,0.888,0.411,-0.179,0.107
5279693,3442.0,5453.0,4906.0,0.887,0.412,-0.178,0.108
5279709,3492.0,5369.0,4866.0,0.886,0.414,-0.176,0.109
5279726,3608.0,5153.0,4956.0,0.885,0.417,-0.174,0.11
5279742,3540.0,5409.0,4624.0,0.884,0.421,-0.171,0.111
5279759,3696.0,6061.0,4546.0,0.883,0.424,-0.168,0.113
5279776,3434.0,6221.0,4340.0,0.882,0.428,-0.165,0.114
5279803,3500.0,6177.0,4516.0,0.881,0.43,-0.161,0.116
5279819,3324.0,6219.0,4294.0,0.879,0.433,-0.158,0.118
5279835,3398.0,5883.0,4660.0,0.878,0.435,-0.156,0.12
5279851,3304.0,5933.0,4592.0,0.877,0.438,-0.153,0.123
5279868,3412.0,5681.0,4752.0,0.876,0.441,-0.151,0.125
5279884,3430.0,5671.0,4766.0,0.874,0.444,-0.15,0.127
5279900,3580.0,5439.0,4710.0,0.872,0.447,-0.148,0.13
5279926,3398.0,5725.0,4680.0,0.87,0.452,-0.146,0.132
5279942,3354.0,5575.0,4906.0,0.868,0.456,-0.144,0.135
5279959,3316.0,5605.0,4802.0,0.865,0.462,-0.143,0.137
5279976,3546.0,5699.0,4336.0,0.861,0.468,-0.142,0.14
5279993,4064.0,5181.0,4180.0,0.857,0.476,-0.14,0.142
5280009,4216.0,5615.0,3708.0,0.852,0.484,-0.138,0.146
5280026,4936.0,5535.0,2852.0,0.847,0.492,-0.135,0.151
5280043,4608.0,5201.0,2736.0,0.842,0.499,-0.132,0.158
5280069,4538.0,5739.0,2726.0,0.838,0.504,-0.128,0.166
5280085,4200.0,5025.0,2930.0,0.833,0.509,-0.126,0.176
5280101,3912.0,3169.0,3450.0,0.827,0.516,-0.124,0.186
5280117,4268.0,3933.0,3400.0,0.818,0.526,-0.123,0.197
5280133,4114.0,4281.0,3266.0,0.807,0.54,-0.122,0.209
5280149,4216.0,5507.0,2948.0,0.792,0.556,-0.121,0.22
5280175,4816.0,5963.0,1750.0,0.776,0.574,-0.12,0.232
5280191,5598.0,5543.0,1034.0,0.759,0.592,-0.119,0.244
5280208,5542.0,5799.0,390.0,0.741,0.609,-0.115,0.257
5280225,5896.0,6167.0,44.0,0.723,0.625,-0.111,0.271
5280242,5450.0,5563.0,-28.0,0.706,0.639,-0.105,0.287
5280259,5256.0,5217.0,-22.0,0.688,0.651,-0.1,0.305
5280276,5024.0,6277.0,-482.0,0.67,0.661,-0.095,0.324
5280293,5510.0,4171.0,320.0,0.655,0.666,-0.092,0.344
5280309,5536.0,5265.0,-358.0,0.639,0.672,-0.089,0.365
5280325,5792.0,6453.0,-596.0,0.623,0.675,-0.087,0.385
5280351,5550.0,5891.0,-442.0,0.609,0.675,-0.087,0.406
5280367,5566.0,5465.0,-434.0,0.596,0.674,-0.089,0.426
5280383,5650.0,4847.0,-412.0,0.582,0.673,-0.093,0.446
5280399,5892.0,5785.0,-652.0,0.569,0.671,-0.097,0.465
5280415,5930.0,5967.0,-612.0,0.556,0.668,-0.104,0.483
5280441,5992.0,5355.0,-640.0,0.544,0.664,-0.114,0.499
5280457,6398.0,5377.0,-600.0,0.532,0.661,-0.126,0.514
5280473,6402.0,5543.0,-618.0,0.52,0.656,-0.139,0.528
5280489,6918.0,5497.0,-610.0,0.509,0.652,-0.155,0.541
5280505,7274.0,4735.0,-606.0,0.497,0.647,-0.172,0.552
5280521,7614.0,4457.0,-776.0,0.487,0.642,-0.189,0.562
5280547,7848.0,4065.0,-560.0,0.476,0.636,-0.206,0.571
5280563,8128.0,4027.0,-560.0,0.466,0.63,-0.224,0.58
5280579,8428.0,4255.0,-644.0,0.457,0.622,-0.242,0.588
5280595,8294.0,3287.0,-342.0,0.448,0.615,-0.26,0.595
5280611,8500.0,3261.0,-162.0,0.439,0.607,-0.278,0.601
5280627,8154.0,2825.0,-74.0,0.431,0.599,-0.295,0.606
5280653,8378.0,1781.0,884.0,0.423,0.593,-0.312,0.61
5280669,7938.0,1605.0,464.0,0.415,0.588,-0.329,0.612
5280685,8022.0,1789.0,582.0,0.406,0.584,-0.345,0.613
5280701,8530.0,2803.0,562.0,0.397,0.581,-0.36,0.613
5280717,8678.0,1657.0,372.0,0.388,0.578,-0.376,0.611
5280733,9118.0,1321.0,188.0,0.379,0.576,-0.391,0.609
5280759,9102.0,1407.0,-88.0,0.372,0.574,-0.405,0.606
5280776,9648.0,-135.0,56.0,0.366,0.572,-0.418,0.603
5280792,9372.0,931.0,-176.0,0.361,0.57,-0.429,0.6
5280809,9300.0,797.0,-238.0,0.358,0.568,-0.44,0.597
5280826,9596.0,1291.0,-184.0,0.356,0.565,-0.449,0.593
5280843,9052.0,1477.0,184.0,0.357,0.562,-0.459,0.588
5280859,9510.0,1143.0,466.0,0.359,0.56,-0.468,0.582
5280875,9004.0,503.0,336.0,0.362,0.557,-0.476,0.576
5280892,9122.0,-291.0,442.0,0.365,0.556,-0.483,0.569
5280909,8920.0,-347.0,280.0,0.367,0.557,-0.487,0.564
5280936,9178.0,-681.0,94.0,0.368,0.559,-0.49,0.559
5280952,8918.0,-527.0,-92.0,0.369,0.561,-0.49,0.556
5280968,8758.0,-123.0,-278.0,0.369,0.564,-0.488,0.554
5280984,8644.0,11.0,-142.0,0.37,0.567,-0.486,0.553
5281000,8270.0,69.0,-202.0,0.372,0.569,-0.483,0.552
5281016,8434.0,-159.0,258.0,0.374,0.571,-0.479,0.552
5281042,8300.0,-277.0,122.0,0.376,0.574,-0.474,0.553
5281058,8674.0,-233.0,692.0,0.378,0.576,-0.468,0.553
5281074,8078.0,293.0,232.0,0.379,0.581,-0.46,0.555
5281090,8414.0,455.0,276.0,0.379,0.585,-0.452,0.557
5281106,8312.0,1023.0,-86.0,0.379,0.59,-0.444,0.558
5281123,8684.0,513.0,-6.0,0.38,0.594,-0.436,0.56
5281140,8326.0,713.0,-28.0,0.38,0.598,-0.427,0.562
5281166,8374.0,689.0,94.0,0.38,0.601,-0.419,0.565
5281182,8388.0,935.0,78.0,0.38,0.604,-0.41,0.568
5281199,8434.0,877.0,208.0,0.381,0.607,-0.401,0.57
5281215,8214.0,997.0,-62.0,0.382,0.61,-0.393,0.572
5281231,8350.0,647.0,526.0,0.384,0.612,-0.385,0.574
5281247,8284.0,839.0,354.0,0.386,0.614,-0.378,0.575
5281263,8196.0,797.0,274.0,0.388,0.617,-0.371,0.576
5281289,8324.0,339.0,236.0,0.39,0.619,-0.364,0.577
5281305,8426.0,357.0,186.0,0.392,0.622,-0.356,0.577
5281321,8376.0,585.0,-84.0,0.394,0.625,-0.347,0.577
5281338,8332.0,661.0,-18.0,0.396,0.628,-0.339,0.577
5281354,8408.0,961.0,-66.0,0.399,0.631,-0.331,0.577
5281371,8602.0,1027.0,-126.0,0.402,0.633,-0.324,0.577
5281387,8698.0,863.0,-200.0,0.406,0.634,-0.317,0.577
5281414,8690.0,803.0,-180.0,0.41,0.635,-0.309,0.577
5281430,8522.0,1387.0,-312.0,0.414,0.636,-0.302,0.577
5281446,8592.0,977.0,-66.0,0.419,0.636,-0.295,0.577
5281462,8232.0,667.0,104.0,0.423,0.637,-0.287,0.577
5281478,8368.0,381.0,350.0,0.426,0.638,-0.279,0.577
5281494,7872.0,1055.0,-134.0,0.429,0.64,-0.271,0.577
5281520,7876.0,985.0,-114.0,0.431,0.641,-0.264,0.577
5281536,8054.0,769.0,66.0,0.434,0.642,-0.257,0.577
5281552,7890.0,547.0,160.0,0.435,0.644,-0.25,0.578
5281568,7756.0,1165.0,-236.0,0.434,0.646,-0.243,0.579
5281584,7664.0,1239.0,-316.0,0.434,0.648,-0.236,0.58
5281600,7664.0,1287.0,-308.0,0.433,0.649,-0.23,0.581
5281626,7328.0,1649.0,-540.0,0.432,0.65,-0.225,0.583
5281642,7510.0,1761.0,-332.0,0.432,0.65,-0.221,0.584
5281658,7308.0,1761.0,-364.0,0.432,0.65,-0.22,0.585
5281674,7588.0,761.0,-56.0,0.433,0.649,-0.219,0.586
5281690,7532.0,1073.0,128.0,0.433,0.648,-0.218,0.588
5281706,7376.0,1451.0,222.0,0.432,0.647,-0.217,0.589
5281732,7674.0,1429.0,238.0,0.43,0.647,-0.217,0.591
5281748,7774.0,1405.0,-138.0,0.428,0.648,-0.217,0.592
5281764,7650.0,1763.0,-302.0,0.425,0.648,-0.219,0.593
5281780,7754.0,1783.0,-198.0,0.423,0.648,-0.222,0.593
5281797,7766.0,1651.0,-256.0,0.422,0.648,-0.225,0.593
5281814,7720.0,1701.0,-222.0,0.42,0.647,-0.23,0.594
5281830,7774.0,1739.0,-358.0,0.419,0.645,-0.236,0.594
5281856,7986.0,1089.0,-294.0,0.418,0.643,-0.243,0.594
5281872,8110.0,-1999.0,1480.0,0.416,0.64,-0.249,0.596
5281888,8664.0,2859.0,124.0,0.412,0.641,-0.251,0.597
5281904,8120.0,-1155.0,-338.0,0.407,0.641,-0.254,0.6
5281921,8016.0,1193.0,-232.0,0.402,0.641,-0.256,0.602
5281938,7648.0,1381.0,-78.0,0.397,0.642,-0.258,0.603
5281954,8176.0,897.0,336.0,0.392,0.643,-0.261,0.604
5281980,8216.0,969.0,-138.0,0.387,0.645,-0.264,0.604
5281996,8442.0,1655.0,-330.0,0.382,0.647,-0.267,0.604
5282013,8404.0,2267.0,-488.0,0.378,0.648,-0.27,0.604
5282029,8398.0,2467.0,-422.0,0.376,0.648,-0.275,0.603
5282045,8766.0,1319.0,-136.0,0.375,0.647,-0.28,0.601
5282062,8068.0,357.0,166.0,0.373,0.647,-0.284,0.601
5282079,8208.0,1185.0,292.0,0.371,0.647,-0.286,0.601
5282095,8506.0,1569.0,54.0,0.368,0.648,-0.289,0.601
5282121,8370.0,1271.0,-140.0,0.365,0.648,-0.292,0.601
5282137,8382.0,1527.0,-126.0,0.363,0.649,-0.294,0.601
5282153,8234.0,1775.0,-118.0,0.361,0.649,-0.297,0.6
5282169,8052.0,1789.0,370.0,0.36,0.649,-0.301,0.599
5282185,7868.0,1271.0,380.0,0.359,0.649,-0.305,0.598
5282201,8208.0,1093.0,198.0,0.358,0.649,-0.309,0.597
5282219,8468.0,1149.0,26.0,0.356,0.649,-0.313,0.596
5282245,8604.0,979.0,72.0,0.355,0.648,-0.316,0.595
5282261,8352.0,951.0,-62.0,0.354,0.648,-0.319,0.594
5282277,8778.0,1807.0,-120.0,0.353,0.647,-0.322,0.594
5282293,8222.0,1399.0,130.0,0.354,0.646,-0.325,0.593
5282309,8568.0,1167.0,32.0,0.355,0.646,-0.328,0.591
5282326,8812.0,1399.0,-246.0,0.357,0.645,-0.331,0.589
5282352,8614.0,1507.0,-206.0,0.359,0.645,-0.334,0.587
5282368,8724.0,1645.0,-294.0,0.362,0.644,-0.336,0.585
5282384,8690.0,1141.0,-192.0,0.365,0.642,-0.34,0.582
5282400,8502.0,845.0,-128.0,0.368,0.641,-0.343,0.58
5282416,8016.0,355.0,-190.0,0.37,0.64,-0.346,0.578
5282432,7884.0,685.0,-190.0,0.371,0.639,-0.349,0.576
5282449,7872.0,1633.0,-222.0,0.373,0.638,-0.352,0.575
5282475,7664.0,909.0,-172.0,0.374,0.636,-0.357,0.573
5282491,7652.0,411.0,-330.0,0.375,0.634,-0.362,0.571
5282507,7512.0,165.0,-302.0,0.375,0.632,-0.367,0.57
5282523,7776.0,569.0,-474.0,0.375,0.631,-0.372,0.568
5282539,7788.0,497.0,-438.0,0.375,0.629,-0.376,0.567
5282555,7930.0,741.0,-522.0,0.375,0.628,-0.381,0.566
5282582,7962.0,747.0,-576.0,0.376,0.625,-0.386,0.564
5282598,8004.0,391.0,-496.0,0.376,0.623,-0.392,0.563
5282614,8240.0,259.0,-542.0,0.377,0.621,-0.397,0.561
5282630,8220.0,571.0,-552.0,0.377,0.619,-0.402,0.56
5282646,8264.0,609.0,-566.0,0.377,0.616,-0.407,0.559
5282672,8092.0,653.0,-500.0,0.378,0.614,-0.412,0.557
5282688,8000.0,295.0,-522.0,0.379,0.612,-0.417,0.556
5282704,7954.0,359.0,-580.0,0.379,0.61,-0.421,0.554
5282720,7764.0,495.0,-622.0,0.381,0.608,-0.425,0.552
5282736,8086.0,609.0,-532.0,0.382,0.605,-0.429,0.551
5282753,8070.0,499.0,-550.0,0.384,0.603,-0.433,0.549
5282770,8182.0,765.0,-602.0,0.387,0.601,-0.435,0.548
5282787,8048.0,1089.0,-554.0,0.39,0.598,-0.438,0.546
5282803,8140.0,1099.0,-112.0,0.393,0.595,-0.441,0.545
5282829,8148.0,1487.0,-80.0,0.396,0.592,-0.444,0.543
5282845,8762.0,2241.0,-218.0,0.399,0.588,-0.449,0.542
5282862,8988.0,3629.0,622.0,0.403,0.582,-0.455,0.539
5282878,8546.0,2811.0,1568.0,0.408,0.576,-0.465,0.535
5282894,9266.0,837.0,1446.0,0.412,0.57,-0.475,0.529
5282910,10290.0,637.0,1166.0,0.416,0.565,-0.481,0.525
5282936,11092.0,2265.0,888.0,0.421,0.56,-0.486,0.523
5282952,10602.0,1753.0,1758.0,0.428,0.555,-0.489,0.52
5282968,10252.0,1351.0,2498.0,0.437,0.55,-0.489,0.516
5282984,9964.0,1929.0,3254.0,0.447,0.546,-0.489,0.512
5283000,10648.0,2285.0,4496.0,0.46,0.542,-0.488,0.507
5283016,10788.0,3131.0,4230.0,0.473,0.538,-0.485,0.502
5283042,10938.0,4681.0,3842.0,0.489,0.532,-0.482,0.496
5283058,11490.0,4163.0,4064.0,0.507,0.523,-0.479,0.49
5283074,12078.0,3129.0,3706.0,0.527,0.512,-0.476,0.484
5283090,12508.0,2575.0,3632.0,0.547,0.501,-0.47,0.479
5283106,13258.0,3297.0,3048.0,0.57,0.488,-0.461,0.474
5283122,13508.0,3277.0,3226.0,0.594,0.472,-0.449,0.471
5283148,13486.0,3789.0,4274.0,0.619,0.455,-0.436,0.469
5283164,13844.0,3565.0,4456.0,0.644,0.436,-0.422,0.466
5283180,14238.0,3079.0,3966.0,0.667,0.419,-0.407,0.463
5283196,14634.0,3347.0,3000.0,0.689,0.401,-0.391,0.459
5283212,14674.0,3871.0,3250.0,0.711,0.383,-0.374,0.455
5283228,14164.0,3037.0,3256.0,0.734,0.364,-0.355,0.451
5283254,13680.0,2927.0,3702.0,0.754,0.346,-0.335,0.447
5283270,12892.0,3101.0,3332.0,0.773,0.328,-0.314,0.442
5283286,12158.0,4035.0,3164.0,0.791,0.311,-0.292,0.438
5283302,11454.0,3557.0,3418.0,0.808,0.292,-0.272,0.432
5283318,10634.0,2033.0,2824.0,0.824,0.273,-0.253,0.427
5283344,10054.0,2467.0,3002.0,0.838,0.256,-0.232,0.422
5283360,9738.0,3693.0,3256.0,0.851,0.24,-0.212,0.417
5283376,8586.0,2829.0,2654.0,0.862,0.221,-0.193,0.412
5283392,7824.0,1125.0,2410.0,0.873,0.202,-0.176,0.408
5283408,6880.0,1081.0,2266.0,0.882,0.186,-0.156,0.403
5283424,6246.0,1091.0,2186.0,0.891,0.17,-0.137,0.398
5283440,4882.0,69.0,2656.0,0.898,0.156,-0.118,0.394
5283466,4606.0,-303.0,2706.0,0.904,0.145,-0.099,0.39
5283482,3886.0,989.0,1720.0,0.908,0.137,-0.079,0.387
5283498,3146.0,3581.0,1670.0,0.912,0.127,-0.063,0.385
5283514,2700.0,2109.0,2526.0,0.916,0.111,-0.05,0.383
5283530,2164.0,-1439.0,2618.0,0.918,0.096,-0.039,0.382
5283556,1448.0,-2453.0,2062.0,0.92,0.087,-0.027,0.38
5283572,1010.0,1329.0,1176.0,0.922,0.08,-0.015,0.379
5283588,1226.0,2211.0,1162.0,0.923,0.07,-0.007,0.378
5283604,782.0,-1453.0,1148.0,0.925,0.057,0.0,0.376
5283620,164.0,-2969.0,438.0,0.926,0.05,0.009,0.374
5283636,588.0,-2421.0,134.0,0.927,0.044,0.018,0.371
5283663,-644.0,-1921.0,-390.0,0.929,0.04,0.029,0.367
5283679,-1276.0,-1165.0,670.0,0.931,0.037,0.038,0.362
5283695,-1480.0,-1301.0,1930.0,0.932,0.035,0.045,0.357
5283711,-1988.0,-1577.0,1820.0,0.934,0.036,0.049,0.352
5283727,-2396.0,-1029.0,682.0,0.935,0.04,0.051,0.348
5283743,-1948.0,-435.0,664.0,0.936,0.045,0.048,0.346
5283759,-1330.0,-1773.0,1438.0,0.937,0.05,0.042,0.344
5283785,-1022.0,-2881.0,1532.0,0.937,0.058,0.034,0.342
5283801,-450.0,-1347.0,1378.0,0.938,0.07,0.024,0.34
5283817,-24.0,-1197.0,1352.0,0.938,0.084,0.013,0.337
5283833,980.0,-277.0,1840.0,0.937,0.098,0.0,0.335
5283849,1258.0,-963.0,2336.0,0.936,0.113,-0.014,0.334
5283865,2040.0,429.0,2418.0,0.933,0.13,-0.028,0.333
5283891,2752.0,1251.0,2380.0,0.93,0.146,-0.044,0.333
5283907,3388.0,-107.0,3566.0,0.927,0.162,-0.06,0.334
5283927,3710.0,61.0,3780.0,0.922,0.181,-0.076,0.335
5283944,4590.0,1885.0,2918.0,0.915,0.201,-0.092,0.337
5283962,5546.0,3059.0,3526.0,0.908,0.22,-0.109,0.341
5283978,5812.0,3089.0,3754.0,0.899,0.238,-0.127,0.345
5283994,6630.0,2907.0,3816.0,0.889,0.255,-0.146,0.35
5284011,7608.0,2957.0,4208.0,0.879,0.273,-0.165,0.355
5284028,8274.0,2669.0,4110.0,0.867,0.291,-0.183,0.361
5284044,8392.0,3131.0,3864.0,0.854,0.31,-0.2,0.367
5284061,9086.0,5247.0,3884.0,0.839,0.328,-0.218,0.374
5284078,9944.0,5349.0,4018.0,0.825,0.344,-0.238,0.381
5284104,10680.0,3575.0,4046.0,0.809,0.359,-0.257,0.388
5284120,10874.0,3433.0,3334.0,0.793,0.375,-0.274,0.395
5284136,11284.0,4273.0,3598.0,0.776,0.391,-0.29,0.402
5284152,11838.0,4703.0,3664.0,0.758,0.406,-0.306,0.409
5284168,11976.0,3717.0,3524.0,0.74,0.421,-0.32,0.416
5284194,12318.0,4239.0,2584.0,0.72,0.437,-0.333,0.424
5284210,13732.0,6333.0,4654.0,0.701,0.451,-0.344,0.432
5284226,11756.0,3975.0,3080.0,0.681,0.465,-0.357,0.439
5284242,11850.0,3173.0,3010.0,0.66,0.479,-0.369,0.446
5284258,12332.0,4119.0,1880.0,0.638,0.494,-0.38,0.452
5284274,12294.0,4581.0,1102.0,0.617,0.507,-0.39,0.458
5284290,12356.0,3813.0,2098.0,0.596,0.519,-0.401,0.464
5284316,11570.0,3221.0,1266.0,0.574,0.531,-0.41,0.469
5284332,11452.0,3825.0,690.0,0.552,0.542,-0.419,0.475
5284348,12306.0,3661.0,1590.0,0.532,0.551,-0.427,0.481
5284364,11384.0,3477.0,360.0,0.512,0.56,-0.434,0.486
5284380,10868.0,3419.0,786.0,0.492,0.568,-0.441,0.49
5284396,10816.0,3425.0,1320.0,0.472,0.576,-0.449,0.494
5284422,10722.0,3343.0,1086.0,0.451,0.583,-0.457,0.498
5284438,11050.0,2431.0,424.0,0.431,0.59,-0.464,0.501
5284454,10948.0,2241.0,-38.0,0.412,0.595,-0.471,0.505
5284471,11068.0,3015.0,-64.0,0.394,0.599,-0.476,0.509
5284490,10450.0,3019.0,56.0,0.377,0.602,-0.481,0.514
5284507,9980.0,2869.0,582.0,0.361,0.604,-0.486,0.519
5284523,9916.0,3073.0,826.0,0.346,0.606,-0.491,0.522
5284539,9784.0,2627.0,848.0,0.333,0.607,-0.497,0.523
5284556,9802.0,2331.0,1054.0,0.32,0.608,-0.503,0.524
5284573,9320.0,2699.0,684.0,0.31,0.61,-0.507,0.524
5284599,9168.0,2939.0,638.0,0.3,0.611,-0.512,0.524
5284616,8906.0,2771.0,598.0,0.293,0.611,-0.517,0.523
5284632,8668.0,2533.0,960.0,0.288,0.611,-0.522,0.521
5284649,8610.0,2223.0,976.0,0.285,0.611,-0.525,0.519
5284665,8538.0,2271.0,1188.0,0.284,0.611,-0.528,0.517
5284681,8080.0,2437.0,1406.0,0.286,0.611,-0.53,0.514
5284707,8004.0,1973.0,1164.0,0.289,0.611,-0.533,0.51
5284723,8416.0,1999.0,772.0,0.294,0.611,-0.535,0.505
5284739,8542.0,2541.0,660.0,0.301,0.609,-0.536,0.501
5284755,8662.0,2823.0,756.0,0.309,0.607,-0.539,0.496
5284771,8936.0,2761.0,854.0,0.318,0.604,-0.541,0.492
5284787,9458.0,3149.0,544.0,0.329,0.6,-0.541,0.489
5284803,9662.0,3329.0,432.0,0.342,0.594,-0.543,0.486
5284829,10160.0,1903.0,412.0,0.357,0.587,-0.543,0.483
5284845,10714.0,1615.0,132.0,0.374,0.58,-0.542,0.48
5284862,11172.0,2167.0,24.0,0.393,0.572,-0.538,0.479
5284879,11686.0,3083.0,-304.0,0.414,0.563,-0.532,0.477
5284895,11760.0,2645.0,32.0,0.436,0.554,-0.526,0.476
5284911,12622.0,3643.0,454.0,0.459,0.545,-0.517,0.474
5284927,12518.0,2305.0,278.0,0.484,0.534,-0.508,0.472
5284953,13244.0,3055.0,1058.0,0.509,0.523,-0.497,0.469
5284969,13230.0,2915.0,1720.0,0.535,0.512,-0.485,0.465
5284985,13124.0,2639.0,2708.0,0.559,0.502,-0.474,0.459
5285001,13344.0,2333.0,3598.0,0.583,0.493,-0.462,0.451
5285017,14860.0,2371.0,2446.0,0.605,0.486,-0.449,0.443
5285033,14980.0,3373.0,378.0,0.627,0.479,-0.432,0.437
5285059,14498.0,4759.0,-262.0,0.649,0.469,-0.414,0.432
5285076,14366.0,3271.0,-214.0,0.674,0.455,-0.396,0.427
5285093,14020.0,2125.0,-50.0,0.698,0.438,-0.375,0.424
5285110,13182.0,1105.0,540.0,0.722,0.422,-0.351,0.422
5285126,12152.0,729.0,1742.0,0.744,0.407,-0.324,0.42
5285143,11074.0,1551.0,2094.0,0.763,0.393,-0.297,0.419
5285159,11222.0,3959.0,2920.0,0.78,0.38,-0.271,0.417
5285176,11280.0,5085.0,2708.0,0.795,0.367,-0.246,0.415
5285203,10520.0,3893.0,2440.0,0.81,0.353,-0.224,0.412
5285219,9954.0,2915.0,2364.0,0.823,0.338,-0.204,0.408
5285235,8824.0,1363.0,2466.0,0.835,0.326,-0.186,0.403
5285251,8744.0,3103.0,3054.0,0.845,0.314,-0.168,0.398
5285268,8164.0,3551.0,2804.0,0.855,0.303,-0.152,0.392
5285284,6834.0,3129.0,2916.0,0.865,0.29,-0.139,0.385
5285301,5948.0,2323.0,3462.0,0.874,0.277,-0.127,0.377
5285327,5826.0,1305.0,4302.0,0.882,0.266,-0.118,0.37
5285343,5588.0,361.0,3174.0,0.889,0.258,-0.107,0.362
5285360,4642.0,1205.0,2170.0,0.895,0.252,-0.096,0.355
5285376,3976.0,2595.0,2268.0,0.901,0.245,-0.085,0.349
5285393,3760.0,2045.0,2410.0,0.906,0.237,-0.076,0.343
5285409,2924.0,-3.0,2626.0,0.91,0.228,-0.068,0.338
5285425,2404.0,877.0,2394.0,0.914,0.223,-0.058,0.335
5285442,2026.0,1403.0,2594.0,0.917,0.217,-0.049,0.332
5285458,1250.0,523.0,1888.0,0.919,0.211,-0.042,0.33
5285484,1406.0,511.0,2074.0,0.921,0.206,-0.033,0.329
5285500,908.0,-365.0,1710.0,0.923,0.202,-0.024,0.328
5285516,356.0,-1053.0,1242.0,0.924,0.198,-0.015,0.326
5285533,104.0,-1627.0,1290.0,0.925,0.196,-0.005,0.325
5285549,-928.0,-1665.0,804.0,0.926,0.196,0.004,0.323
5285565,-1882.0,-1377.0,980.0,0.925,0.199,0.012,0.322
5285591,-1516.0,869.0,2086.0,0.925,0.205,0.017,0.32
5285607,-1136.0,3005.0,1982.0,0.924,0.21,0.018,0.318
5285623,-1790.0,1257.0,916.0,0.924,0.212,0.014,0.317
5285639,-1634.0,375.0,606.0,0.924,0.215,0.005,0.317
5285655,-598.0,-481.0,934.0,0.923,0.219,-0.006,0.317
5285671,4.0,-17.0,1178.0,0.922,0.224,-0.02,0.317
5285697,700.0,357.0,1430.0,0.919,0.231,-0.036,0.316
5285713,1204.0,373.0,1368.0,0.917,0.239,-0.053,0.317
5285729,1952.0,471.0,874.0,0.913,0.247,-0.071,0.317
5285745,1856.0,785.0,586.0,0.909,0.254,-0.088,0.318
5285761,2780.0,873.0,1996.0,0.905,0.26,-0.106,0.319
5285777,3570.0,-213.0,2594.0,0.9,0.267,-0.123,0.321
5285803,4092.0,-275.0,2790.0,0.894,0.278,-0.137,0.323
5285819,4386.0,1533.0,2638.0,0.887,0.29,-0.151,0.326
5285836,5148.0,2621.0,1756.0,0.879,0.303,-0.165,0.33
5285852,6028.0,3261.0,1602.0,0.871,0.312,-0.178,0.335
5285868,5796.0,2485.0,1906.0,0.863,0.319,-0.191,0.341
5285884,6606.0,971.0,2704.0,0.855,0.326,-0.204,0.349
5285910,7200.0,1763.0,2572.0,0.844,0.336,-0.217,0.358
5285926,8296.0,2633.0,1968.0,0.832,0.346,-0.229,0.369
5285942,8796.0,5523.0,1500.0,0.819,0.354,-0.24,0.382
5285958,8684.0,5065.0,1214.0,0.807,0.358,-0.253,0.395
5285974,9460.0,4759.0,1760.0,0.794,0.361,-0.269,0.408
5285990,10300.0,2907.0,2968.0,0.78,0.364,-0.288,0.42
5286016,11666.0,701.0,3300.0,0.764,0.37,-0.307,0.431
5286032,12506.0,1147.0,2738.0,0.744,0.382,-0.325,0.441
5286048,12596.0,4531.0,1610.0,0.723,0.397,-0.343,0.45
5286064,13234.0,3831.0,2266.0,0.7,0.412,-0.366,0.455
5286080,14458.0,1693.0,1142.0,0.675,0.428,-0.39,0.457
5286106,15388.0,-731.0,-26.0,0.648,0.448,-0.411,0.458
5286123,15406.0,2303.0,-954.0,0.62,0.47,-0.427,0.461
5286139,15584.0,4801.0,-704.0,0.592,0.49,-0.441,0.464
5286155,14618.0,2959.0,-1296.0,0.568,0.505,-0.456,0.464
5286171,14820.0,1715.0,-478.0,0.544,0.519,-0.467,0.465
5286187,14248.0,2209.0,-1102.0,0.521,0.532,-0.477,0.467
5286203,13710.0,2379.0,-214.0,0.499,0.544,-0.484,0.469
5286219,13462.0,2401.0,228.0,0.478,0.555,-0.491,0.47
5286245,13164.0,1997.0,192.0,0.458,0.566,-0.497,0.472
5286261,12940.0,1831.0,-308.0,0.438,0.576,-0.502,0.473
5286277,12594.0,1553.0,-322.0,0.42,0.585,-0.505,0.476
5286293,12010.0,1537.0,-174.0,0.402,0.593,-0.507,0.48
5286309,10644.0,2083.0,-342.0,0.385,0.6,-0.507,0.484
5286335,11168.0,2857.0,220.0,0.368,0.606,-0.508,0.489
5286351,10424.0,2205.0,-128.0,0.353,0.61,-0.509,0.493
5286368,9942.0,2053.0,336.0,0.338,0.614,-0.511,0.497
5286384,9676.0,2265.0,250.0,0.324,0.618,-0.512,0.501
5286400,9462.0,2241.0,386.0,0.309,0.621,-0.515,0.504
5286417,9364.0,2521.0,278.0,0.295,0.623,-0.518,0.506
5286434,9198.0,2603.0,32.0,0.282,0.624,-0.522,0.509
5286450,8784.0,2243.0,0.0,0.27,0.625,-0.525,0.511
5286476,8470.0,1751.0,92.0,0.26,0.625,-0.528,0.513
5286492,8272.0,1519.0,144.0,0.251,0.624,-0.53,0.516
5286509,8166.0,2189.0,36.0,0.244,0.624,-0.531,0.519
5286526,7832.0,2417.0,172.0,0.238,0.624,-0.532,0.521
5286542,7872.0,2745.0,330.0,0.235,0.623,-0.533,0.522
5286558,8648.0,12007.0,46.0,0.234,0.627,-0.523,0.528
5286574,6916.0,11287.0,-730.0,0.24,0.623,-0.528,0.525
5286591,7610.0,-1203.0,844.0,0.252,0.618,-0.535,0.518
5286618,7476.0,-2279.0,1026.0,0.259,0.615,-0.538,0.515
5286634,8432.0,2853.0,818.0,0.267,0.614,-0.537,0.514
5286650,8666.0,3693.0,232.0,0.275,0.612,-0.537,0.511
5286666,9484.0,2411.0,478.0,0.287,0.609,-0.538,0.507
5286682,9628.0,547.0,614.0,0.301,0.606,-0.536,0.504
5286698,10094.0,2345.0,700.0,0.315,0.604,-0.532,0.503
5286724,10740.0,3149.0,398.0,0.331,0.601,-0.526,0.502
5286741,11366.0,2397.0,224.0,0.351,0.596,-0.519,0.501
5286757,11746.0,1791.0,658.0,0.373,0.591,-0.51,0.5
5286773,12070.0,2647.0,974.0,0.396,0.586,-0.499,0.5
5286789,12634.0,3707.0,938.0,0.42,0.58,-0.487,0.5
5286805,13284.0,3387.0,628.0,0.446,0.573,-0.475,0.498
5286822,13558.0,2667.0,616.0,0.473,0.564,-0.461,0.496
5286848,13512.0,3763.0,742.0,0.5,0.555,-0.445,0.493
5286864,13932.0,3867.0,1254.0,0.528,0.544,-0.431,0.49
5286880,14110.0,2627.0,1078.0,0.554,0.533,-0.415,0.486
5286896,14672.0,4545.0,674.0,0.581,0.522,-0.398,0.482
5286912,14790.0,4011.0,812.0,0.608,0.507,-0.382,0.476
5286928,14404.0,2727.0,1180.0,0.634,0.493,-0.365,0.471
5286954,14428.0,3909.0,838.0,0.66,0.478,-0.346,0.465
5286971,14426.0,4461.0,666.0,0.685,0.461,-0.328,0.459
5286987,13698.0,3869.0,1092.0,0.709,0.443,-0.31,0.452
5287004,13258.0,3697.0,1290.0,0.733,0.425,-0.291,0.445
5287020,12398.0,3983.0,1658.0,0.755,0.407,-0.273,0.436
5287036,11402.0,3395.0,2292.0,0.775,0.389,-0.256,0.426
5287052,11070.0,3695.0,2302.0,0.794,0.372,-0.241,0.417
5287069,10270.0,3451.0,2314.0,0.81,0.354,-0.225,0.409
5287095,9338.0,2517.0,2664.0,0.825,0.338,-0.211,0.401
5287111,8638.0,3079.0,2914.0,0.838,0.323,-0.197,0.393
5287128,7930.0,2315.0,3670.0,0.85,0.309,-0.184,0.386
5287145,7170.0,247.0,4438.0,0.859,0.298,-0.172,0.38
5287162,7064.0,399.0,4000.0,0.865,0.29,-0.16,0.377
5287178,7356.0,1619.0,4410.0,0.869,0.287,-0.147,0.376
5287194,6252.0,4067.0,2788.0,0.872,0.285,-0.134,0.375
5287220,6864.0,3983.0,2936.0,0.876,0.278,-0.123,0.375
5287237,5864.0,1313.0,2792.0,0.88,0.268,-0.111,0.376
5287254,5034.0,879.0,3126.0,0.884,0.258,-0.099,0.377
5287270,4748.0,1375.0,2884.0,0.887,0.251,-0.086,0.378
5287286,4166.0,3231.0,2060.0,0.89,0.243,-0.072,0.378
5287302,3962.0,3269.0,2124.0,0.894,0.231,-0.061,0.379
5287318,3674.0,-343.0,1912.0,0.898,0.217,-0.05,0.378
5287344,2364.0,-1081.0,1670.0,0.902,0.208,-0.036,0.377
5287360,1932.0,-91.0,846.0,0.904,0.201,-0.021,0.375
5287376,1366.0,2251.0,376.0,0.907,0.193,-0.006,0.374
5287392,208.0,-105.0,884.0,0.91,0.182,0.007,0.373
5287408,-1122.0,753.0,798.0,0.911,0.173,0.018,0.373
5287424,-738.0,1791.0,-36.0,0.913,0.164,0.026,0.373
5287450,-260.0,313.0,-88.0,0.914,0.152,0.031,0.375
5287466,-1120.0,-1643.0,-304.0,0.915,0.142,0.034,0.376
5287482,-1532.0,-3111.0,470.0,0.915,0.137,0.036,0.377
5287498,-1566.0,-643.0,150.0,0.915,0.137,0.036,0.377
5287514,-1196.0,737.0,-34.0,0.915,0.138,0.032,0.378
5287530,-962.0,-81.0,98.0,0.914,0.139,0.025,0.379
5287556,-826.0,-739.0,578.0,0.913,0.143,0.014,0.381
5287572,-324.0,-477.0,702.0,0.912,0.149,-0.0,0.383
5287589,858.0,515.0,1288.0,0.909,0.158,-0.016,0.385
5287606,1638.0,179.0,1020.0,0.906,0.168,-0.034,0.387
5287623,2350.0,-117.0,1678.0,0.902,0.179,-0.052,0.389
5287639,3034.0,943.0,1918.0,0.897,0.193,-0.072,0.39
5287655,3948.0,413.0,1934.0,0.892,0.207,-0.091,0.391
5287672,4448.0,1033.0,2398.0,0.885,0.223,-0.11,0.392
5287689,5008.0,2393.0,2492.0,0.878,0.24,-0.13,0.393
5287716,5272.0,2873.0,2614.0,0.87,0.255,-0.151,0.394
5287732,6176.0,1693.0,3254.0,0.861,0.271,-0.173,0.395
5287748,7232.0,1583.0,2984.0,0.85,0.289,-0.195,0.396
5287764,8416.0,3065.0,3366.0,0.839,0.306,-0.215,0.396
5287780,8436.0,2885.0,3252.0,0.826,0.323,-0.234,0.397
5287796,9328.0,4213.0,3474.0,0.813,0.34,-0.253,0.398
5287812,9938.0,3907.0,3344.0,0.8,0.355,-0.272,0.4
5287838,9936.0,4107.0,3278.0,0.786,0.369,-0.291,0.402
5287854,11294.0,4491.0,2716.0,0.772,0.381,-0.31,0.404
5287870,12100.0,3075.0,3892.0,0.758,0.392,-0.328,0.405
5287886,11344.0,2703.0,3668.0,0.744,0.404,-0.343,0.407
5287902,11486.0,5517.0,3124.0,0.728,0.416,-0.36,0.41
5287928,12070.0,4647.0,3358.0,0.712,0.426,-0.378,0.411
5287944,12876.0,1651.0,3536.0,0.695,0.436,-0.395,0.414
5287960,13042.0,3461.0,2382.0,0.678,0.447,-0.408,0.417
5287976,12910.0,4635.0,2470.0,0.662,0.457,-0.421,0.419
5287992,11902.0,3269.0,2414.0,0.646,0.466,-0.433,0.421
5288008,12462.0,2055.0,2872.0,0.63,0.475,-0.444,0.424
5288034,12398.0,3699.0,2536.0,0.614,0.485,-0.453,0.428
5288050,11846.0,4639.0,1952.0,0.599,0.493,-0.461,0.43
5288066,11248.0,2203.0,2808.0,0.586,0.5,-0.47,0.431
5288082,11170.0,1921.0,2584.0,0.571,0.508,-0.478,0.433
5288098,11130.0,2537.0,2406.0,0.557,0.516,-0.484,0.436
5288114,10626.0,3749.0,1380.0,0.543,0.524,-0.488,0.439
5288131,9942.0,4485.0,1796.0,0.53,0.529,-0.494,0.441
5288157,9710.0,1957.0,2724.0,0.519,0.533,-0.501,0.442
5288174,9812.0,1985.0,2780.0,0.507,0.539,-0.506,0.443
5288190,10034.0,3723.0,1904.0,0.495,0.545,-0.51,0.444
5288206,9894.0,3863.0,1902.0,0.484,0.549,-0.515,0.446
5288222,9556.0,4061.0,2040.0,0.476,0.553,-0.519,0.447
5288238,9762.0,4151.0,2524.0,0.469,0.555,-0.523,0.447
5288264,9974.0,3479.0,2370.0,0.463,0.556,-0.527,0.446
5288281,10170.0,3267.0,2604.0,0.459,0.558,-0.529,0.445
5288297,10558.0,4687.0,2670.0,0.458,0.559,-0.53,0.445
5288313,10768.0,4263.0,2952.0,0.459,0.558,-0.53,0.444
5288330,10530.0,3673.0,2934.0,0.462,0.558,-0.528,0.444
5288347,10286.0,3573.0,3100.0,0.467,0.558,-0.524,0.443
5288364,10800.0,4721.0,3338.0,0.474,0.557,-0.518,0.443
5288383,10892.0,4507.0,3440.0,0.483,0.556,-0.511,0.443
5288401,10568.0,4547.0,3630.0,0.495,0.553,-0.502,0.444
5288417,10870.0,4849.0,3518.0,0.508,0.55,-0.493,0.444
5288433,11382.0,5725.0,3026.0,0.523,0.545,-0.483,0.443
5288450,11684.0,4755.0,3270.0,0.541,0.537,-0.473,0.443
5288467,11566.0,3395.0,3640.0,0.56,0.528,-0.46,0.442
5288493,12036.0,4215.0,3130.0,0.579,0.52,-0.446,0.443
5288510,13272.0,4303.0,3046.0,0.599,0.51,-0.43,0.443
5288526,13210.0,4593.0,2990.0,0.622,0.497,-0.413,0.442
5288543,13126.0,3753.0,2400.0,0.645,0.483,-0.394,0.442
5288559,13906.0,4607.0,2364.0,0.668,0.469,-0.373,0.441
5288575,12762.0,4827.0,2284.0,0.691,0.453,-0.351,0.44
5288591,12272.0,4659.0,3508.0,0.713,0.438,-0.328,0.438
5288617,11858.0,4219.0,3436.0,0.734,0.422,-0.307,0.434
5288633,11896.0,4307.0,3174.0,0.753,0.407,-0.288,0.429
5288650,11140.0,3387.0,2818.0,0.772,0.391,-0.268,0.425
5288667,10482.0,2939.0,3486.0,0.788,0.375,-0.248,0.42
5288683,10156.0,3495.0,2414.0,0.803,0.36,-0.228,0.416
5288700,9464.0,4183.0,2646.0,0.818,0.344,-0.208,0.412
5288716,9164.0,3131.0,2960.0,0.831,0.327,-0.19,0.408
5288733,8536.0,2899.0,3254.0,0.844,0.31,-0.171,0.403
5288750,7638.0,2671.0,3370.0,0.854,0.296,-0.154,0.398
5288777,7174.0,3041.0,2938.0,0.864,0.284,-0.138,0.393
5288794,6472.0,3817.0,2900.0,0.872,0.272,-0.124,0.388
5288811,5564.0,3049.0,3626.0,0.88,0.258,-0.11,0.382
5288827,5412.0,1645.0,3632.0,0.888,0.247,-0.098,0.377
5288843,4988.0,1803.0,3052.0,0.894,0.238,-0.086,0.371
5288859,4582.0,1555.0,2112.0,0.9,0.23,-0.075,0.364
5288875,3826.0,2541.0,2596.0,0.906,0.221,-0.065,0.356
5288901,3070.0,209.0,3180.0,0.911,0.212,-0.057,0.349
5288917,1818.0,483.0,3630.0,0.916,0.206,-0.048,0.342
5288933,1942.0,789.0,3260.0,0.92,0.202,-0.042,0.334
5288949,2104.0,1363.0,1792.0,0.923,0.198,-0.036,0.327
5288965,1800.0,2993.0,922.0,0.927,0.192,-0.03,0.321
5288982,1960.0,1049.0,1384.0,0.931,0.182,-0.025,0.316
5288999,1296.0,-2823.0,1966.0,0.934,0.174,-0.018,0.312
5289025,316.0,-3901.0,2208.0,0.936,0.171,-0.009,0.308
5289041,-424.0,-1183.0,1188.0,0.937,0.173,0.003,0.304
5289058,-1298.0,2241.0,-76.0,0.938,0.175,0.013,0.301
5289074,-768.0,1801.0,212.0,0.939,0.171,0.02,0.299
5289090,-566.0,-2121.0,342.0,0.94,0.165,0.026,0.297
5289107,-1372.0,-2963.0,-206.0,0.941,0.163,0.032,0.295
5289123,-1326.0,-757.0,1366.0,0.941,0.166,0.036,0.292
5289149,-1814.0,-331.0,1018.0,0.942,0.17,0.034,0.289
5289165,-1198.0,-413.0,588.0,0.941,0.176,0.027,0.288
5289181,-10.0,415.0,1318.0,0.939,0.184,0.015,0.29
5289197,478.0,-83.0,878.0,0.937,0.194,0.001,0.292
5289213,1414.0,-987.0,944.0,0.934,0.204,-0.015,0.294
5289230,2410.0,-143.0,1688.0,0.93,0.217,-0.032,0.296
5289247,2840.0,415.0,1714.0,0.925,0.232,-0.048,0.297
5289264,3798.0,1963.0,1822.0,0.919,0.248,-0.065,0.3
5289281,4590.0,3361.0,2416.0,0.912,0.264,-0.082,0.303
5289308,4588.0,3479.0,3154.0,0.905,0.278,-0.101,0.306
5289324,5516.0,2907.0,2640.0,0.896,0.293,-0.122,0.31
5289340,6670.0,3123.0,2846.0,0.886,0.308,-0.143,0.316
5289356,7424.0,3513.0,3240.0,0.875,0.322,-0.162,0.322
5289372,7980.0,2969.0,3808.0,0.863,0.338,-0.18,0.329
5289398,8728.0,3957.0,3070.0,0.85,0.355,-0.195,0.336
5289414,9574.0,6059.0,3430.0,0.836,0.372,-0.21,0.344
5289430,9610.0,4119.0,3538.0,0.822,0.387,-0.224,0.352
5289446,10298.0,3977.0,3854.0,0.807,0.405,-0.237,0.359
5289462,10688.0,5095.0,3486.0,0.79,0.425,-0.248,0.366
5289478,10946.0,5305.0,2772.0,0.772,0.444,-0.258,0.374
5289494,10642.0,5709.0,2708.0,0.754,0.462,-0.267,0.383
5289520,10822.0,5857.0,2492.0,0.736,0.478,-0.277,0.392
5289536,11370.0,4271.0,3102.0,0.717,0.493,-0.287,0.4
5289552,11250.0,4211.0,2308.0,0.697,0.509,-0.294,0.41
5289568,11514.0,6399.0,1294.0,0.677,0.524,-0.3,0.42
5289584,11340.0,6605.0,1396.0,0.658,0.535,-0.309,0.43
5289610,10928.0,4823.0,2010.0,0.64,0.544,-0.318,0.439
5289626,10922.0,4219.0,1188.0,0.621,0.552,-0.328,0.449
5289642,10956.0,4805.0,1254.0,0.602,0.559,-0.336,0.46
5289658,10954.0,3985.0,970.0,0.583,0.565,-0.344,0.472
5289674,10494.0,3899.0,1242.0,0.563,0.571,-0.351,0.483
5289690,10870.0,3811.0,1182.0,0.543,0.576,-0.359,0.494
5289707,11000.0,4293.0,1288.0,0.523,0.581,-0.367,0.504
5289734,11042.0,4775.0,980.0,0.503,0.585,-0.376,0.514
5289751,10978.0,4671.0,874.0,0.482,0.588,-0.386,0.522
5289768,10856.0,4521.0,932.0,0.463,0.59,-0.398,0.529
5289784,10876.0,3367.0,1274.0,0.443,0.591,-0.411,0.534
5289801,11134.0,3199.0,718.0,0.424,0.592,-0.423,0.539
5289817,10992.0,2843.0,768.0,0.406,0.592,-0.435,0.544
5289834,10760.0,3123.0,528.0,0.389,0.592,-0.445,0.548
5289850,10452.0,3073.0,858.0,0.373,0.591,-0.454,0.552
5289866,10282.0,2679.0,880.0,0.36,0.59,-0.463,0.555
5289892,10114.0,2815.0,950.0,0.348,0.589,-0.47,0.558
5289908,9860.0,2939.0,1038.0,0.337,0.587,-0.477,0.56
5289925,9362.0,3041.0,1064.0,0.328,0.586,-0.483,0.562
5289941,9096.0,2865.0,984.0,0.32,0.585,-0.489,0.562
5289958,9042.0,2783.0,1010.0,0.314,0.585,-0.494,0.562
5289974,8962.0,3093.0,936.0,0.309,0.584,-0.498,0.561
5289990,8582.0,3517.0,898.0,0.306,0.583,-0.503,0.56
5290016,8354.0,2175.0,1382.0,0.306,0.582,-0.506,0.558
5290032,8602.0,2629.0,950.0,0.305,0.582,-0.509,0.556
5290048,8622.0,4601.0,1286.0,0.306,0.581,-0.512,0.554
5290064,8820.0,4057.0,1452.0,0.31,0.58,-0.516,0.549
5290080,9030.0,2709.0,1240.0,0.315,0.578,-0.519,0.545
5290096,9708.0,3459.0,1228.0,0.321,0.577,-0.521,0.541
5290122,10356.0,4213.0,536.0,0.33,0.576,-0.522,0.536
5290138,10920.0,2783.0,1724.0,0.341,0.573,-0.523,0.531
5290154,10908.0,2931.0,2198.0,0.354,0.572,-0.521,0.526
5290170,10934.0,4129.0,2484.0,0.369,0.571,-0.516,0.521
5290186,11822.0,2979.0,1860.0,0.387,0.57,-0.511,0.514
5290202,12788.0,2791.0,1720.0,0.407,0.568,-0.503,0.508
5290228,12170.0,3655.0,1036.0,0.429,0.566,-0.493,0.503
5290244,12932.0,3357.0,1552.0,0.454,0.561,-0.48,0.499
5290260,13244.0,2677.0,1308.0,0.481,0.554,-0.463,0.496
5290276,13624.0,4099.0,858.0,0.51,0.545,-0.445,0.495
5290292,13242.0,3173.0,1714.0,0.539,0.535,-0.424,0.493
5290308,13224.0,3231.0,2266.0,0.568,0.524,-0.402,0.491
5290334,13692.0,4491.0,1940.0,0.596,0.513,-0.379,0.488
5290350,13826.0,4569.0,1948.0,0.624,0.5,-0.357,0.483
5290366,13946.0,3119.0,1810.0,0.651,0.487,-0.334,0.477
5290383,13800.0,3485.0,2014.0,0.677,0.475,-0.31,0.47
5290399,13330.0,4349.0,1994.0,0.701,0.462,-0.285,0.462
5290415,13088.0,4685.0,1984.0,0.724,0.449,-0.261,0.454
5290441,12472.0,3507.0,2176.0,0.746,0.435,-0.238,0.445
5290457,11872.0,4123.0,2118.0,0.766,0.421,-0.214,0.436
5290473,11048.0,4419.0,2218.0,0.784,0.407,-0.192,0.426
5290489,10292.0,4289.0,2144.0,0.801,0.393,-0.171,0.417
5290505,9294.0,3441.0,2584.0,0.817,0.379,-0.152,0.407
5290531,8606.0,2983.0,2736.0,0.831,0.367,-0.133,0.396
5290547,7792.0,3405.0,3548.0,0.844,0.355,-0.116,0.385
5290563,7166.0,3369.0,2618.0,0.854,0.345,-0.101,0.375
5290579,6670.0,2977.0,2838.0,0.864,0.335,-0.088,0.366
5290595,6096.0,2815.0,3044.0,0.872,0.326,-0.075,0.357
5290611,5532.0,2539.0,2836.0,0.88,0.317,-0.063,0.348
5290637,4950.0,2557.0,3174.0,0.887,0.309,-0.051,0.339
5290653,4390.0,1913.0,2836.0,0.893,0.302,-0.04,0.332
5290669,4146.0,2641.0,1924.0,0.898,0.296,-0.029,0.326
5290685,3758.0,2843.0,2052.0,0.902,0.288,-0.02,0.32
5290701,3604.0,1823.0,2028.0,0.907,0.278,-0.01,0.315
5290717,3292.0,-5.0,2254.0,0.912,0.269,-0.0,0.311
5290743,2168.0,173.0,1642.0,0.915,0.261,0.012,0.307
5290759,1320.0,2193.0,444.0,0.918,0.253,0.024,0.305
5290775,728.0,1693.0,680.0,0.921,0.241,0.033,0.303
5290791,-38.0,-1997.0,716.0,0.925,0.228,0.042,0.302
5290807,-638.0,-2609.0,638.0,0.927,0.22,0.051,0.3
5290823,-544.0,1801.0,1266.0,0.928,0.216,0.059,0.299
5290839,-1142.0,2603.0,1408.0,0.929,0.208,0.064,0.299
5290865,-1902.0,-661.0,1142.0,0.931,0.2,0.063,0.299
5290881,-1392.0,-2409.0,912.0,0.932,0.196,0.06,0.299
5290897,-1000.0,-1291.0,896.0,0.932,0.196,0.054,0.299
5290913,-852.0,227.0,610.0,0.932,0.198,0.047,0.301
5290929,-326.0,729.0,580.0,0.931,0.2,0.036,0.303
5290945,260.0,-775.0,1242.0,0.93,0.201,0.023,0.306
5290971,410.0,-1283.0,1454.0,0.929,0.206,0.009,0.309
5290987,1012.0,-897.0,2028.0,0.926,0.213,-0.006,0.312
5291003,1738.0,1023.0,1918.0,0.922,0.223,-0.022,0.315
5291020,2686.0,1385.0,1722.0,0.918,0.232,-0.038,0.32
5291036,2768.0,2399.0,1706.0,0.913,0.241,-0.056,0.326
5291053,3402.0,1819.0,2828.0,0.907,0.248,-0.076,0.331
5291069,4188.0,449.0,3398.0,0.901,0.257,-0.097,0.336
5291095,4918.0,1069.0,2770.0,0.893,0.27,-0.118,0.341
5291111,6320.0,2961.0,2832.0,0.883,0.283,-0.14,0.347
5291127,6828.0,2321.0,3476.0,0.873,0.296,-0.162,0.352
5291143,7232.0,2339.0,3398.0,0.862,0.31,-0.183,0.357
5291159,8004.0,3189.0,3124.0,0.85,0.325,-0.202,0.362
5291185,8642.0,3127.0,3392.0,0.837,0.34,-0.221,0.368
5291201,9200.0,2473.0,3312.0,0.823,0.356,-0.239,0.373
5291217,9930.0,3607.0,3448.0,0.808,0.372,-0.256,0.379
5291233,9956.0,3669.0,2654.0,0.792,0.389,-0.271,0.385
5291249,10718.0,4929.0,2044.0,0.775,0.404,-0.286,0.392
5291265,11120.0,4405.0,2762.0,0.759,0.417,-0.301,0.399
5291291,11102.0,2815.0,2002.0,0.743,0.43,-0.314,0.407
5291307,11494.0,4769.0,1056.0,0.725,0.442,-0.326,0.415
5291323,11356.0,6409.0,922.0,0.709,0.451,-0.339,0.423
5291339,10422.0,3991.0,2518.0,0.692,0.457,-0.355,0.431
5291355,10732.0,1167.0,2302.0,0.672,0.468,-0.371,0.437
5291371,10124.0,5181.0,152.0,0.65,0.481,-0.386,0.444
5291397,10992.0,5055.0,1372.0,0.628,0.491,-0.404,0.449
5291413,11744.0,3299.0,1854.0,0.606,0.5,-0.422,0.452
5291429,12362.0,2151.0,600.0,0.583,0.51,-0.439,0.456
5291445,13316.0,1829.0,-126.0,0.56,0.519,-0.452,0.461
5291461,13582.0,3329.0,202.0,0.539,0.526,-0.462,0.468
5291477,12894.0,3551.0,1100.0,0.52,0.531,-0.471,0.475
5291503,12738.0,3549.0,1162.0,0.502,0.535,-0.48,0.481
5291519,12798.0,3069.0,770.0,0.484,0.539,-0.489,0.486
5291535,12792.0,2517.0,642.0,0.467,0.543,-0.497,0.49
5291551,12326.0,3033.0,916.0,0.451,0.546,-0.505,0.494
5291567,11678.0,2825.0,1462.0,0.435,0.549,-0.513,0.496
5291593,11290.0,2083.0,1338.0,0.419,0.553,-0.522,0.497
5291609,11212.0,1731.0,738.0,0.402,0.557,-0.529,0.499
5291625,10876.0,1767.0,564.0,0.386,0.56,-0.534,0.501
5291641,10792.0,2615.0,184.0,0.372,0.563,-0.54,0.504
5291657,9962.0,2877.0,866.0,0.359,0.565,-0.545,0.505
5291673,9446.0,2005.0,1300.0,0.348,0.566,-0.55,0.506
5291689,9370.0,1753.0,1386.0,0.337,0.569,-0.555,0.505
5291715,9276.0,2299.0,1040.0,0.327,0.571,-0.558,0.505
5291731,8810.0,2983.0,1148.0,0.318,0.572,-0.562,0.505
5291747,8308.0,2245.0,1302.0,0.311,0.573,-0.566,0.504
5291764,7796.0,1571.0,1466.0,0.304,0.573,-0.57,0.505
5291780,8264.0,2101.0,952.0,0.298,0.573,-0.573,0.505
5291796,8418.0,3359.0,1094.0,0.292,0.571,-0.576,0.507
5291813,8310.0,4047.0,1290.0,0.287,0.568,-0.58,0.508
5291830,8588.0,3727.0,1546.0,0.286,0.563,-0.585,0.508
5291856,9014.0,2399.0,1060.0,0.288,0.56,-0.588,0.508
5291872,10294.0,-895.0,1140.0,0.295,0.554,-0.592,0.506
5291888,9348.0,-1113.0,1276.0,0.303,0.553,-0.588,0.506
5291904,10220.0,2733.0,1380.0,0.314,0.553,-0.582,0.506
5291920,10926.0,931.0,1742.0,0.329,0.554,-0.574,0.505
5291936,11560.0,-603.0,1588.0,0.345,0.556,-0.563,0.505
5291963,11702.0,939.0,1028.0,0.362,0.558,-0.548,0.507
5291979,12034.0,2597.0,1226.0,0.382,0.559,-0.533,0.508
5291995,13210.0,2693.0,2040.0,0.404,0.557,-0.516,0.51
5292011,13292.0,3299.0,1678.0,0.428,0.553,-0.5,0.511
5292027,13144.0,2697.0,1492.0,0.453,0.547,-0.483,0.512
5292053,13724.0,1037.0,2260.0,0.48,0.539,-0.465,0.512
5292069,14166.0,363.0,2210.0,0.505,0.533,-0.445,0.512
5292086,14658.0,2779.0,1896.0,0.53,0.528,-0.422,0.512
5292102,14366.0,2373.0,1802.0,0.555,0.521,-0.399,0.511
5292118,14544.0,2827.0,1292.0,0.579,0.515,-0.375,0.51
5292134,14524.0,4179.0,1070.0,0.603,0.507,-0.35,0.507
5292150,14030.0,4619.0,1392.0,0.626,0.498,-0.326,0.504
5292176,13658.0,3767.0,1114.0,0.649,0.487,-0.302,0.5
5292192,13106.0,4207.0,1384.0,0.672,0.475,-0.28,0.495
5292208,12600.0,4207.0,2038.0,0.693,0.462,-0.258,0.489
5292224,12934.0,4405.0,1678.0,0.714,0.449,-0.237,0.483
5292240,12302.0,4203.0,1408.0,0.733,0.435,-0.216,0.476
5292256,11418.0,4705.0,2314.0,0.752,0.42,-0.196,0.469
5292282,10616.0,4195.0,3050.0,0.769,0.407,-0.177,0.459
5292298,10426.0,5477.0,2542.0,0.787,0.393,-0.16,0.448
5292314,10194.0,7033.0,1650.0,0.805,0.375,-0.145,0.436
5292330,9584.0,4161.0,914.0,0.824,0.352,-0.133,0.423
5292346,8576.0,2173.0,2428.0,0.842,0.329,-0.12,0.411
5292362,7478.0,1701.0,2048.0,0.858,0.306,-0.107,0.399
5292388,6930.0,1751.0,2500.0,0.871,0.286,-0.094,0.388
5292404,5106.0,433.0,2464.0,0.883,0.268,-0.077,0.378
5292420,3652.0,1195.0,2700.0,0.893,0.254,-0.06,0.368
5292436,3194.0,1693.0,2044.0,0.9,0.244,-0.044,0.359
5292452,3172.0,1843.0,2722.0,0.907,0.232,-0.03,0.351
5292468,2276.0,-931.0,2382.0,0.913,0.221,-0.015,0.344
5292494,1620.0,283.0,1764.0,0.917,0.214,-0.001,0.338
5292510,1302.0,2317.0,724.0,0.92,0.208,0.012,0.333
5292526,1414.0,2717.0,492.0,0.923,0.198,0.023,0.329
5292542,1146.0,1265.0,102.0,0.926,0.186,0.033,0.326
5292558,-8.0,-3391.0,342.0,0.929,0.172,0.043,0.324
5292574,-816.0,-4385.0,66.0,0.931,0.166,0.055,0.321
5292600,-566.0,-1497.0,-226.0,0.932,0.163,0.068,0.318
5292617,-822.0,1249.0,-866.0,0.933,0.158,0.079,0.314
5292633,-1492.0,2541.0,560.0,0.935,0.151,0.087,0.31
5292649,-1482.0,109.0,830.0,0.937,0.142,0.089,0.307
5292665,-1106.0,-1951.0,534.0,0.938,0.137,0.086,0.305
5292681,-708.0,-1131.0,404.0,0.939,0.138,0.081,0.306
5292707,-890.0,-1549.0,298.0,0.939,0.141,0.072,0.306
5292723,-254.0,-1113.0,508.0,0.938,0.148,0.059,0.307
5292739,-14.0,23.0,550.0,0.937,0.158,0.045,0.309
5292755,108.0,227.0,702.0,0.935,0.169,0.027,0.311
5292771,1320.0,357.0,1016.0,0.932,0.182,0.006,0.314
5292787,1872.0,549.0,1378.0,0.928,0.195,-0.016,0.317
5292813,2872.0,1349.0,2248.0,0.923,0.21,-0.039,0.321
5292829,3618.0,971.0,2358.0,0.917,0.225,-0.064,0.324
5292846,4854.0,345.0,2876.0,0.909,0.242,-0.088,0.327
5292862,5070.0,509.0,2998.0,0.9,0.262,-0.112,0.331
5292878,5560.0,2449.0,3668.0,0.889,0.282,-0.135,0.333
5292894,5684.0,3729.0,4488.0,0.878,0.301,-0.16,0.335
5292910,6056.0,2983.0,2186.0,0.867,0.318,-0.185,0.336
5292936,8974.0,2867.0,2374.0,0.854,0.334,-0.21,0.338
5292952,9954.0,3085.0,3588.0,0.841,0.349,-0.231,0.342
5292968,9034.0,2449.0,2652.0,0.827,0.364,-0.248,0.348
5292984,10920.0,2401.0,2656.0,0.813,0.38,-0.263,0.355
5293000,11400.0,2345.0,2798.0,0.798,0.396,-0.274,0.363
5293016,10952.0,5091.0,2470.0,0.782,0.412,-0.283,0.373
5293042,10744.0,6551.0,2344.0,0.767,0.425,-0.293,0.382
5293058,11510.0,4493.0,3434.0,0.752,0.435,-0.304,0.391
5293074,11550.0,3495.0,2872.0,0.734,0.449,-0.314,0.4
5293090,12272.0,6181.0,2278.0,0.715,0.463,-0.325,0.41
5293106,11980.0,6637.0,1828.0,0.697,0.474,-0.338,0.419
5293122,11436.0,5429.0,1684.0,0.678,0.484,-0.353,0.427
5293148,11330.0,3995.0,978.0,0.658,0.493,-0.369,0.433
5293164,12140.0,4245.0,1846.0,0.638,0.502,-0.385,0.439
5293180,12764.0,3195.0,2110.0,0.616,0.512,-0.401,0.445
5293196,12920.0,2693.0,900.0,0.593,0.522,-0.415,0.451
5293212,13652.0,4327.0,240.0,0.572,0.531,-0.425,0.458
5293238,13402.0,4043.0,518.0,0.552,0.539,-0.435,0.464
5293254,12726.0,2827.0,812.0,0.534,0.546,-0.442,0.471
5293270,12324.0,1887.0,1348.0,0.516,0.554,-0.446,0.478
5293286,12136.0,3093.0,888.0,0.496,0.562,-0.449,0.487
5293302,12048.0,4167.0,306.0,0.478,0.569,-0.45,0.495
5293318,11524.0,3345.0,460.0,0.462,0.574,-0.451,0.504
5293344,10898.0,2503.0,82.0,0.447,0.579,-0.451,0.511
5293360,10530.0,2461.0,426.0,0.432,0.584,-0.45,0.519
5293376,10180.0,3167.0,740.0,0.418,0.589,-0.448,0.527
5293392,9510.0,4093.0,1184.0,0.404,0.593,-0.446,0.535
5293408,8826.0,3751.0,1514.0,0.391,0.597,-0.446,0.54
5293424,8794.0,3667.0,1572.0,0.379,0.6,-0.447,0.544
5293450,8610.0,3495.0,1094.0,0.367,0.604,-0.45,0.546
5293466,8350.0,3337.0,946.0,0.356,0.607,-0.453,0.547
5293482,8302.0,3501.0,866.0,0.346,0.61,-0.456,0.548
5293498,8196.0,3805.0,1076.0,0.337,0.612,-0.459,0.548
5293514,8226.0,4259.0,896.0,0.329,0.614,-0.463,0.548
5293530,8102.0,3931.0,500.0,0.323,0.615,-0.466,0.548
5293556,8002.0,3569.0,548.0,0.319,0.616,-0.469,0.548
5293572,7854.0,4107.0,438.0,0.316,0.615,-0.471,0.547
5293588,7796.0,4347.0,788.0,0.316,0.614,-0.474,0.546
5293604,7722.0,3779.0,1168.0,0.318,0.613,-0.477,0.544
5293620,7814.0,3691.0,1154.0,0.321,0.611,-0.48,0.541
5293636,8260.0,3697.0,1030.0,0.325,0.609,-0.483,0.538
5293662,8558.0,4063.0,1200.0,0.33,0.607,-0.486,0.535
5293678,8732.0,3467.0,940.0,0.338,0.604,-0.489,0.531
5293694,9436.0,3341.0,1420.0,0.347,0.601,-0.49,0.528
5293710,10384.0,3481.0,918.0,0.357,0.598,-0.49,0.525
5293726,11322.0,3947.0,848.0,0.37,0.594,-0.488,0.522
5293742,12062.0,3485.0,1766.0,0.387,0.589,-0.485,0.518
5293768,12820.0,3211.0,1904.0,0.407,0.585,-0.48,0.512
5293784,13946.0,3399.0,1856.0,0.43,0.58,-0.473,0.504
5293800,14664.0,3249.0,2254.0,0.456,0.574,-0.464,0.497
5293816,14460.0,4193.0,2298.0,0.483,0.567,-0.453,0.49
5293832,13910.0,5017.0,2170.0,0.511,0.558,-0.441,0.483
5293858,13906.0,3929.0,2292.0,0.541,0.546,-0.428,0.475
5293874,13692.0,2825.0,2640.0,0.57,0.534,-0.414,0.467
5293890,13714.0,3019.0,1970.0,0.598,0.523,-0.397,0.46
5293906,13620.0,3747.0,2046.0,0.625,0.51,-0.379,0.454
5293922,13602.0,4261.0,1540.0,0.651,0.497,-0.358,0.448
5293938,13678.0,5289.0,1560.0,0.678,0.481,-0.336,0.443
5293964,13304.0,4477.0,1712.0,0.704,0.464,-0.313,0.438
5293980,12492.0,4183.0,1998.0,0.728,0.447,-0.289,0.432
5293996,12246.0,5663.0,2412.0,0.751,0.429,-0.264,0.426
5294012,11610.0,5885.0,2160.0,0.773,0.41,-0.24,0.42
5294028,11128.0,5217.0,1678.0,0.794,0.389,-0.217,0.413
5294044,10108.0,4819.0,1708.0,0.814,0.368,-0.195,0.405
5294070,9588.0,4635.0,2654.0,0.832,0.347,-0.174,0.397
5294086,8776.0,4115.0,3078.0,0.848,0.326,-0.153,0.389
5294102,8422.0,4983.0,2098.0,0.863,0.305,-0.132,0.38
5294118,7424.0,4583.0,2266.0,0.877,0.282,-0.114,0.371
5294134,6502.0,3135.0,3102.0,0.89,0.259,-0.098,0.363
5294150,5778.0,3107.0,3964.0,0.9,0.238,-0.083,0.355
5294176,5134.0,3033.0,3978.0,0.91,0.217,-0.068,0.347
5294192,4588.0,3503.0,4058.0,0.918,0.198,-0.054,0.339
5294208,4068.0,2645.0,3982.0,0.926,0.177,-0.043,0.332
5294224,3910.0,845.0,3992.0,0.932,0.157,-0.033,0.326
5294240,3462.0,-963.0,4082.0,0.936,0.142,-0.021,0.321
5294257,3586.0,403.0,2986.0,0.939,0.132,-0.007,0.317
5294273,3422.0,1071.0,2674.0,0.942,0.122,0.008,0.313
5294300,2422.0,1015.0,2026.0,0.944,0.111,0.024,0.31
5294316,1948.0,-929.0,2552.0,0.946,0.101,0.04,0.306
5294333,2004.0,-1881.0,1764.0,0.947,0.095,0.058,0.302
5294349,1558.0,-2831.0,918.0,0.947,0.093,0.08,0.297
5294365,-90.0,-4285.0,532.0,0.947,0.096,0.104,0.289
5294381,-1626.0,2443.0,1010.0,0.947,0.104,0.128,0.277
5294397,-1104.0,8943.0,2624.0,0.948,0.103,0.143,0.263
5294423,-1506.0,-551.0,464.0,0.951,0.095,0.15,0.255
5294439,-2274.0,1171.0,-308.0,0.952,0.092,0.154,0.248
5294455,-1488.0,-461.0,466.0,0.954,0.087,0.153,0.244
5294472,-1276.0,-2947.0,704.0,0.955,0.086,0.151,0.24
5294488,-1466.0,-1367.0,300.0,0.957,0.091,0.147,0.235
5294504,-1008.0,-165.0,-52.0,0.958,0.097,0.143,0.23
5294530,-1438.0,-1281.0,1390.0,0.959,0.104,0.136,0.228
5294546,-1994.0,-1481.0,1378.0,0.959,0.113,0.127,0.227
5294562,-768.0,591.0,1384.0,0.959,0.123,0.115,0.227
5294578,12.0,215.0,1322.0,0.959,0.133,0.101,0.229
5294594,1140.0,567.0,1558.0,0.958,0.142,0.086,0.232
5294610,1254.0,125.0,2332.0,0.957,0.152,0.07,0.236
5294636,1790.0,1195.0,3102.0,0.955,0.164,0.053,0.24
5294652,1588.0,143.0,3754.0,0.953,0.176,0.035,0.245
5294668,2550.0,1493.0,4046.0,0.949,0.192,0.016,0.252
5294684,2980.0,2243.0,4004.0,0.943,0.208,-0.004,0.259
5294700,3478.0,3699.0,4034.0,0.937,0.224,-0.024,0.267
5294716,4476.0,3369.0,5194.0,0.93,0.24,-0.047,0.275
5294742,4948.0,2799.0,5366.0,0.921,0.257,-0.07,0.283
5294758,5634.0,3191.0,5580.0,0.911,0.275,-0.092,0.292
5294774,7270.0,5541.0,5878.0,0.9,0.294,-0.113,0.301
5294790,8618.0,5069.0,5272.0,0.888,0.312,-0.131,0.312
5294806,9788.0,5067.0,4272.0,0.875,0.33,-0.145,0.324
5294822,9928.0,5051.0,5402.0,0.861,0.349,-0.154,0.337
5294848,9184.0,4327.0,5592.0,0.847,0.368,-0.161,0.348
5294864,8902.0,5725.0,4926.0,0.831,0.39,-0.167,0.361
5294880,9178.0,8497.0,4808.0,0.813,0.411,-0.173,0.374
5294896,8580.0,6887.0,5162.0,0.796,0.428,-0.182,0.387
5294912,9440.0,6237.0,4390.0,0.778,0.446,-0.192,0.398
5294929,9690.0,6411.0,4028.0,0.759,0.463,-0.202,0.41
5294955,8434.0,5661.0,984.0,0.74,0.48,-0.21,0.422
5294972,9944.0,5577.0,3252.0,0.719,0.496,-0.218,0.435
5294988,9758.0,6075.0,3178.0,0.698,0.512,-0.225,0.447
5295004,9610.0,6151.0,3288.0,0.676,0.527,-0.233,0.459
5295020,9452.0,6803.0,3088.0,0.654,0.541,-0.241,0.471
5295036,9726.0,5861.0,3178.0,0.631,0.554,-0.251,0.482
5295052,9872.0,6441.0,2428.0,0.607,0.566,-0.262,0.492
5295078,10022.0,5945.0,2226.0,0.584,0.577,-0.274,0.501
5295094,10204.0,4807.0,2188.0,0.562,0.586,-0.286,0.509
5295110,10666.0,5585.0,1682.0,0.539,0.596,-0.296,0.517
5295126,10708.0,5967.0,1048.0,0.518,0.603,-0.304,0.525
5295143,10516.0,5155.0,1270.0,0.498,0.61,-0.312,0.532
5295160,10080.0,5415.0,1440.0,0.478,0.616,-0.318,0.539
5295176,9854.0,6157.0,1494.0,0.461,0.621,-0.325,0.544
5295193,9504.0,4929.0,1482.0,0.445,0.625,-0.332,0.549
5295219,9442.0,4835.0,1126.0,0.429,0.629,-0.338,0.554
5295235,9508.0,5885.0,844.0,0.414,0.632,-0.343,0.558
5295251,9236.0,5395.0,1082.0,0.4,0.634,-0.35,0.561
5295267,9158.0,4803.0,1236.0,0.388,0.636,-0.355,0.565
5295284,8978.0,5365.0,1070.0,0.376,0.637,-0.361,0.568
5295300,8844.0,5293.0,918.0,0.366,0.638,-0.365,0.57
5295326,8592.0,5171.0,982.0,0.358,0.638,-0.37,0.572
5295342,8260.0,4813.0,966.0,0.351,0.639,-0.375,0.573
5295358,8268.0,5031.0,936.0,0.346,0.638,-0.379,0.574
5295374,8010.0,4875.0,938.0,0.343,0.638,-0.383,0.573
5295390,7660.0,4607.0,1230.0,0.342,0.637,-0.387,0.572
5295406,7452.0,4641.0,1294.0,0.343,0.636,-0.39,0.571
5295432,7510.0,4525.0,1398.0,0.345,0.635,-0.393,0.568
5295448,7830.0,4755.0,1692.0,0.347,0.634,-0.396,0.566
5295464,8060.0,4055.0,2132.0,0.35,0.633,-0.398,0.564
5295480,8522.0,3535.0,1504.0,0.352,0.632,-0.399,0.564
5295496,8862.0,5183.0,1924.0,0.356,0.63,-0.396,0.565
5295512,8342.0,5695.0,1938.0,0.363,0.628,-0.394,0.565
5295538,8322.0,5967.0,2460.0,0.373,0.625,-0.392,0.563
5295554,8812.0,6171.0,2668.0,0.384,0.622,-0.391,0.559
5295570,9810.0,5969.0,2338.0,0.397,0.619,-0.39,0.555
5295586,10460.0,5837.0,2184.0,0.413,0.614,-0.387,0.55
5295602,11320.0,5375.0,1730.0,0.431,0.609,-0.383,0.545
5295618,11648.0,5053.0,1694.0,0.451,0.603,-0.377,0.54
5295644,13204.0,5135.0,1624.0,0.472,0.596,-0.367,0.536
5295660,13372.0,5987.0,1512.0,0.495,0.589,-0.354,0.532
5295676,13984.0,6355.0,1618.0,0.519,0.58,-0.339,0.528
5295692,14266.0,5265.0,2364.0,0.545,0.572,-0.323,0.521
5295709,14486.0,6487.0,2474.0,0.571,0.564,-0.305,0.512
5295725,14576.0,5785.0,1748.0,0.597,0.556,-0.287,0.502
5295751,14788.0,6059.0,1508.0,0.623,0.547,-0.267,0.492
5295767,14422.0,5687.0,1424.0,0.65,0.536,-0.246,0.48
5295783,13948.0,5179.0,1606.0,0.675,0.524,-0.225,0.468
5295800,12974.0,4841.0,1548.0,0.7,0.512,-0.202,0.455
5295817,12212.0,5549.0,2290.0,0.722,0.5,-0.181,0.443
5295833,11484.0,4781.0,2222.0,0.742,0.488,-0.16,0.43
5295849,11382.0,5003.0,2202.0,0.76,0.477,-0.14,0.419
5295875,10740.0,6479.0,1914.0,0.777,0.465,-0.121,0.407
5295891,9550.0,4651.0,1470.0,0.792,0.452,-0.103,0.397
5295907,8420.0,5315.0,1218.0,0.807,0.439,-0.086,0.387
5295923,8162.0,4685.0,1826.0,0.82,0.424,-0.071,0.378
5295939,7018.0,3757.0,1714.0,0.832,0.41,-0.058,0.37
5295955,6252.0,3841.0,2206.0,0.843,0.395,-0.047,0.362
5295981,5502.0,3445.0,2424.0,0.853,0.38,-0.037,0.356
5295997,5286.0,2699.0,2516.0,0.861,0.367,-0.028,0.351
5296013,4696.0,3183.0,2456.0,0.869,0.354,-0.02,0.345
5296029,4702.0,3729.0,1780.0,0.877,0.339,-0.015,0.34
5296045,4452.0,3071.0,2024.0,0.886,0.321,-0.011,0.335
5296061,4300.0,1527.0,2244.0,0.894,0.303,-0.008,0.329
5296087,4336.0,2183.0,2608.0,0.901,0.287,-0.003,0.325
5296103,3672.0,1305.0,1818.0,0.907,0.273,0.004,0.322
5296120,2790.0,2189.0,2056.0,0.911,0.259,0.012,0.32
5296136,2174.0,1171.0,2416.0,0.916,0.245,0.019,0.317
5296152,1772.0,387.0,1548.0,0.92,0.233,0.026,0.314
5296168,1746.0,929.0,-44.0,0.925,0.219,0.034,0.31
5296194,1164.0,-829.0,698.0,0.929,0.205,0.044,0.306
5296210,-1150.0,-3631.0,1586.0,0.932,0.194,0.055,0.301
5296226,-2084.0,-1613.0,798.0,0.934,0.189,0.065,0.295
5296242,-1298.0,1275.0,124.0,0.936,0.185,0.072,0.291
5296258,-1972.0,453.0,-278.0,0.938,0.178,0.076,0.288
5296274,-2086.0,-2323.0,44.0,0.939,0.171,0.078,0.287
5296300,-1996.0,-2405.0,170.0,0.94,0.169,0.077,0.286
5296316,-1612.0,-1301.0,-328.0,0.94,0.171,0.073,0.286
5296332,-1196.0,-569.0,-340.0,0.94,0.173,0.068,0.287
5296348,-238.0,-857.0,64.0,0.939,0.177,0.06,0.288
5296364,-242.0,-2103.0,862.0,0.938,0.183,0.051,0.289
5296380,168.0,-997.0,926.0,0.936,0.195,0.04,0.29
5296397,334.0,407.0,1264.0,0.933,0.209,0.029,0.293
5296423,1122.0,873.0,1214.0,0.928,0.224,0.015,0.297
5296439,2220.0,509.0,1840.0,0.922,0.24,-0.001,0.303
5296455,2968.0,1107.0,1492.0,0.915,0.259,-0.016,0.309
5296471,3884.0,3107.0,1300.0,0.906,0.279,-0.033,0.317
5296487,4336.0,3789.0,1458.0,0.896,0.298,-0.05,0.326
5296513,5498.0,4479.0,2054.0,0.884,0.317,-0.071,0.336
5296529,6752.0,3727.0,2882.0,0.871,0.336,-0.092,0.346
5296545,7148.0,4073.0,2838.0,0.856,0.356,-0.113,0.356
5296561,8358.0,5619.0,2582.0,0.839,0.379,-0.134,0.367
5296577,8514.0,7033.0,3114.0,0.82,0.402,-0.154,0.377
5296593,9072.0,6211.0,2932.0,0.8,0.426,-0.177,0.385
5296609,10338.0,5937.0,1924.0,0.776,0.451,-0.2,0.392
5296635,11144.0,5919.0,1830.0,0.753,0.474,-0.223,0.399
5296651,12280.0,5065.0,1962.0,0.728,0.498,-0.243,0.404
5296667,13608.0,4773.0,1538.0,0.702,0.521,-0.258,0.41
5296683,13628.0,5875.0,510.0,0.676,0.543,-0.268,0.419
5296699,13532.0,5747.0,748.0,0.651,0.562,-0.276,0.429
5296725,13854.0,5961.0,2370.0,0.627,0.579,-0.28,0.44
5296741,12762.0,5751.0,322.0,0.602,0.595,-0.284,0.451
5296757,13150.0,6413.0,420.0,0.578,0.608,-0.288,0.462
5296773,12630.0,6921.0,916.0,0.554,0.62,-0.293,0.472
5296789,11846.0,5877.0,908.0,0.531,0.629,-0.3,0.482
5296805,12306.0,4493.0,122.0,0.508,0.638,-0.308,0.489
5296831,12460.0,4703.0,-148.0,0.484,0.647,-0.315,0.498
5296847,12316.0,5265.0,-660.0,0.461,0.654,-0.321,0.507
5296863,12226.0,4729.0,-700.0,0.439,0.659,-0.327,0.516
5296879,12018.0,4893.0,-388.0,0.419,0.662,-0.333,0.525
5296895,11506.0,4617.0,-174.0,0.399,0.664,-0.339,0.534
5296911,11354.0,4327.0,-326.0,0.379,0.665,-0.345,0.543
5296937,10992.0,4323.0,-476.0,0.36,0.666,-0.35,0.552
5296953,10634.0,4485.0,-416.0,0.342,0.665,-0.357,0.559
5296969,10152.0,4003.0,54.0,0.326,0.665,-0.363,0.565
5296985,9982.0,3777.0,34.0,0.311,0.665,-0.37,0.569
5297001,9798.0,5101.0,266.0,0.295,0.665,-0.376,0.573
5297017,9392.0,5213.0,362.0,0.283,0.665,-0.384,0.574
5297043,9428.0,4013.0,-42.0,0.272,0.665,-0.391,0.575
5297059,9098.0,4923.0,62.0,0.263,0.665,-0.397,0.576
5297075,8534.0,4755.0,-148.0,0.256,0.664,-0.402,0.576
5297091,8408.0,4393.0,164.0,0.251,0.664,-0.406,0.576
5297107,8188.0,4993.0,378.0,0.248,0.663,-0.408,0.577
5297123,7898.0,4811.0,382.0,0.247,0.663,-0.41,0.576
5297149,8080.0,4905.0,260.0,0.249,0.662,-0.41,0.576
5297165,7874.0,4911.0,166.0,0.253,0.66,-0.411,0.576
5297181,7928.0,5029.0,354.0,0.259,0.658,-0.411,0.575
5297198,7820.0,5141.0,1012.0,0.268,0.655,-0.411,0.574
5297214,8030.0,5071.0,1336.0,0.279,0.653,-0.411,0.572
5297230,8494.0,4947.0,668.0,0.292,0.65,-0.41,0.57
5297256,8926.0,5399.0,660.0,0.306,0.646,-0.41,0.567
5297272,8960.0,6093.0,2184.0,0.322,0.642,-0.41,0.562
5297288,9844.0,5323.0,2770.0,0.338,0.639,-0.41,0.556
5297304,11142.0,6953.0,1604.0,0.355,0.635,-0.41,0.55
5297320,13852.0,6535.0,1376.0,0.375,0.629,-0.412,0.542
5297336,14620.0,6031.0,956.0,0.398,0.621,-0.411,0.536
5297362,14750.0,3675.0,554.0,0.423,0.612,-0.406,0.531
5297378,15074.0,4407.0,614.0,0.451,0.602,-0.397,0.526
5297394,15402.0,4507.0,1022.0,0.481,0.591,-0.384,0.522
5297410,14832.0,5341.0,1838.0,0.512,0.578,-0.368,0.517
5297426,14746.0,5433.0,1518.0,0.544,0.565,-0.352,0.512
5297442,15148.0,5587.0,796.0,0.576,0.549,-0.334,0.505
5297468,15522.0,5127.0,388.0,0.609,0.532,-0.316,0.497
5297484,14728.0,4083.0,896.0,0.641,0.513,-0.296,0.488
5297500,13900.0,3771.0,1348.0,0.671,0.495,-0.275,0.479
5297516,13662.0,4061.0,962.0,0.698,0.478,-0.253,0.469
5297532,13316.0,5631.0,274.0,0.724,0.46,-0.23,0.46
5297548,12634.0,5283.0,1658.0,0.749,0.439,-0.208,0.45
5297575,10758.0,3981.0,1520.0,0.772,0.419,-0.187,0.439
5297592,9108.0,4349.0,2390.0,0.793,0.399,-0.168,0.429
5297608,7890.0,3953.0,2038.0,0.811,0.38,-0.151,0.418
5297624,7334.0,4811.0,2246.0,0.827,0.361,-0.137,0.409
5297640,6728.0,5451.0,1966.0,0.84,0.342,-0.127,0.401
5297656,6814.0,4401.0,2834.0,0.853,0.32,-0.121,0.395
5297672,6620.0,2261.0,2646.0,0.863,0.3,-0.116,0.389
5297698,7092.0,809.0,2570.0,0.872,0.282,-0.108,0.384
5297714,6796.0,-315.0,2942.0,0.88,0.269,-0.097,0.379
5297730,6046.0,1141.0,1948.0,0.887,0.26,-0.081,0.372
5297747,5706.0,3151.0,1858.0,0.895,0.249,-0.065,0.365
5297763,4644.0,2051.0,2312.0,0.902,0.236,-0.049,0.358
5297779,3360.0,649.0,2418.0,0.908,0.223,-0.034,0.352
5297795,3090.0,211.0,2342.0,0.913,0.214,-0.018,0.346
5297822,2686.0,1409.0,1468.0,0.918,0.205,-0.003,0.34
5297838,2088.0,1685.0,1140.0,0.922,0.195,0.012,0.333
5297854,1510.0,677.0,1060.0,0.927,0.183,0.024,0.328
5297870,1358.0,1369.0,988.0,0.93,0.171,0.036,0.323
5297886,320.0,463.0,790.0,0.934,0.159,0.046,0.317
5297912,-864.0,-625.0,1040.0,0.936,0.148,0.054,0.314
5297928,-1282.0,-239.0,1724.0,0.938,0.137,0.058,0.312
5297944,-788.0,-1289.0,1710.0,0.94,0.13,0.059,0.31
5297960,-1258.0,-1935.0,894.0,0.941,0.126,0.059,0.308
5297977,-1170.0,-833.0,458.0,0.942,0.126,0.057,0.307
5297994,-488.0,-313.0,356.0,0.942,0.126,0.053,0.306
5298011,-820.0,-721.0,278.0,0.942,0.127,0.046,0.306
5298028,-486.0,-549.0,872.0,0.943,0.128,0.037,0.305
5298045,-188.0,-1487.0,1288.0,0.943,0.132,0.026,0.305
5298062,368.0,-1695.0,1846.0,0.942,0.139,0.014,0.304
5298079,480.0,-1543.0,1682.0,0.941,0.149,0.001,0.304
5298096,512.0,-625.0,1430.0,0.939,0.162,-0.014,0.304
5298122,1520.0,1355.0,1982.0,0.935,0.176,-0.03,0.306
5298138,2262.0,969.0,2518.0,0.931,0.19,-0.048,0.308
5298154,2742.0,-405.0,2582.0,0.926,0.205,-0.067,0.311
5298170,3566.0,619.0,2862.0,0.919,0.223,-0.086,0.314
5298186,4754.0,1527.0,2810.0,0.91,0.243,-0.106,0.318
5298212,5574.0,2069.0,2426.0,0.9,0.264,-0.125,0.323
5298229,6452.0,3425.0,2342.0,0.889,0.284,-0.144,0.328
5298245,7194.0,3415.0,2582.0,0.878,0.3,-0.165,0.334
5298261,8316.0,2465.0,4020.0,0.866,0.317,-0.183,0.342
5298277,9334.0,4837.0,3084.0,0.852,0.335,-0.199,0.35
5298294,8236.0,5265.0,1968.0,0.838,0.349,-0.215,0.36
5298311,8672.0,4069.0,3204.0,0.824,0.36,-0.232,0.371
5298327,9316.0,1663.0,4612.0,0.809,0.372,-0.25,0.381
5298353,10224.0,3185.0,3862.0,0.79,0.388,-0.266,0.392
5298369,10898.0,4871.0,2662.0,0.771,0.405,-0.281,0.403
5298385,11802.0,4745.0,2476.0,0.752,0.42,-0.299,0.412
5298401,12810.0,3059.0,3516.0,0.732,0.434,-0.315,0.421
5298418,12964.0,3225.0,3198.0,0.71,0.451,-0.328,0.43
5298434,12578.0,4383.0,1936.0,0.687,0.468,-0.341,0.44
5298450,12576.0,4701.0,1630.0,0.664,0.483,-0.353,0.449
5298476,11602.0,2563.0,914.0,0.64,0.498,-0.364,0.458
5298492,12924.0,1941.0,1884.0,0.614,0.514,-0.372,0.47
5298508,12178.0,2597.0,1620.0,0.586,0.53,-0.378,0.482
5298524,12194.0,2553.0,788.0,0.557,0.546,-0.383,0.496
5298540,12916.0,3151.0,38.0,0.527,0.561,-0.386,0.509
5298556,11946.0,6019.0,-758.0,0.499,0.572,-0.391,0.521
5298582,11644.0,5529.0,786.0,0.474,0.578,-0.401,0.529
5298598,13234.0,3969.0,1368.0,0.449,0.583,-0.413,0.537
5298614,13000.0,2297.0,1032.0,0.424,0.588,-0.423,0.544
5298630,13096.0,3303.0,96.0,0.398,0.593,-0.43,0.552
5298646,12432.0,4265.0,352.0,0.375,0.597,-0.438,0.558
5298663,12368.0,2753.0,114.0,0.354,0.599,-0.444,0.564
5298689,11778.0,2875.0,-150.0,0.334,0.602,-0.448,0.571
5298705,11362.0,2547.0,-522.0,0.317,0.603,-0.45,0.577
5298721,10500.0,2555.0,8.0,0.301,0.604,-0.451,0.584
5298737,10050.0,2779.0,-32.0,0.286,0.605,-0.451,0.591
5298753,9602.0,2529.0,92.0,0.273,0.605,-0.45,0.597
5298769,9194.0,2625.0,-62.0,0.261,0.605,-0.449,0.603
5298795,8764.0,2375.0,-46.0,0.25,0.605,-0.448,0.609
5298811,8546.0,2287.0,226.0,0.24,0.605,-0.446,0.615
5298827,8268.0,2745.0,298.0,0.231,0.605,-0.444,0.62
5298843,8124.0,2837.0,406.0,0.223,0.605,-0.442,0.624
5298859,8012.0,2563.0,186.0,0.217,0.604,-0.442,0.627
5298875,8048.0,2537.0,254.0,0.211,0.604,-0.441,0.629
5298901,7934.0,2903.0,146.0,0.206,0.604,-0.441,0.631
5298917,7960.0,3313.0,166.0,0.204,0.603,-0.441,0.632
5298933,8180.0,2829.0,172.0,0.204,0.603,-0.443,0.632
5298949,8422.0,2645.0,88.0,0.206,0.602,-0.444,0.631
5298966,8472.0,3291.0,-74.0,0.209,0.601,-0.446,0.63
5298982,8540.0,2339.0,276.0,0.216,0.6,-0.447,0.627
5299008,8846.0,2631.0,274.0,0.223,0.6,-0.447,0.625
5299024,9318.0,3693.0,496.0,0.234,0.6,-0.448,0.621
5299040,9778.0,2389.0,500.0,0.247,0.599,-0.448,0.616
5299056,9982.0,1383.0,590.0,0.261,0.6,-0.445,0.611
5299072,10098.0,2885.0,456.0,0.277,0.6,-0.441,0.607
5299088,10876.0,3613.0,780.0,0.296,0.6,-0.437,0.602
5299114,10970.0,2477.0,864.0,0.317,0.599,-0.431,0.595
5299130,11340.0,2477.0,1052.0,0.34,0.598,-0.424,0.59
5299146,11614.0,3493.0,1272.0,0.364,0.596,-0.416,0.583
5299162,12376.0,3035.0,1296.0,0.389,0.593,-0.406,0.576
5299178,12568.0,2947.0,1206.0,0.416,0.59,-0.395,0.569
5299194,12568.0,3257.0,1454.0,0.443,0.585,-0.383,0.561
5299220,13124.0,4077.0,1614.0,0.47,0.579,-0.37,0.554
5299236,13366.0,3377.0,1556.0,0.498,0.572,-0.356,0.545
5299252,13190.0,4109.0,1472.0,0.525,0.565,-0.341,0.537
5299268,13724.0,5425.0,1202.0,0.553,0.555,-0.327,0.528
5299284,13902.0,4895.0,1236.0,0.581,0.543,-0.314,0.518
5299300,13196.0,3727.0,1680.0,0.608,0.531,-0.301,0.508
5299326,13290.0,4415.0,1846.0,0.635,0.518,-0.287,0.497
5299342,13094.0,4747.0,1834.0,0.66,0.504,-0.274,0.485
5299358,12802.0,4617.0,1858.0,0.685,0.489,-0.26,0.473
5299374,12336.0,4175.0,1650.0,0.709,0.472,-0.246,0.462
5299390,11500.0,3293.0,2248.0,0.731,0.456,-0.232,0.451
5299406,11322.0,3323.0,2502.0,0.752,0.44,-0.217,0.44
5299432,10692.0,3851.0,2248.0,0.771,0.425,-0.202,0.429
5299448,9752.0,3523.0,2364.0,0.789,0.409,-0.187,0.419
5299464,9186.0,2921.0,2894.0,0.806,0.393,-0.172,0.408
5299480,8412.0,2103.0,3184.0,0.821,0.379,-0.157,0.397
5299496,8078.0,3349.0,2584.0,0.834,0.366,-0.141,0.387
5299513,7478.0,5035.0,2146.0,0.847,0.351,-0.127,0.378
5299539,7142.0,2825.0,2912.0,0.859,0.334,-0.116,0.37
5299555,6208.0,659.0,3486.0,0.87,0.319,-0.103,0.362
5299571,5378.0,899.0,3396.0,0.878,0.306,-0.088,0.356
5299587,4738.0,3239.0,2222.0,0.885,0.296,-0.073,0.351
5299603,4326.0,6225.0,1008.0,0.892,0.283,-0.061,0.347
5299619,3758.0,4533.0,290.0,0.9,0.263,-0.053,0.344
5299636,4374.0,-179.0,1966.0,0.908,0.24,-0.047,0.341
5299662,3576.0,-1799.0,1754.0,0.914,0.221,-0.037,0.339
5299678,2874.0,-909.0,1700.0,0.918,0.206,-0.026,0.337
5299694,1844.0,1489.0,1494.0,0.922,0.193,-0.014,0.335
5299710,2118.0,2437.0,1640.0,0.925,0.18,-0.005,0.333
5299726,1458.0,1563.0,1478.0,0.929,0.167,0.003,0.332
5299752,100.0,-425.0,1208.0,0.932,0.153,0.009,0.33
5299768,-316.0,-1717.0,1122.0,0.934,0.142,0.013,0.328
5299784,-366.0,-2677.0,1314.0,0.936,0.135,0.017,0.326
5299800,-438.0,-1265.0,1590.0,0.936,0.132,0.021,0.325
5299816,-910.0,-553.0,1132.0,0.937,0.131,0.023,0.324
5299832,-1336.0,-365.0,764.0,0.937,0.131,0.023,0.323
5299859,-1056.0,549.0,1280.0,0.937,0.132,0.021,0.324
5299875,-1238.0,-97.0,1618.0,0.937,0.132,0.015,0.324
5299891,-1056.0,-1373.0,1836.0,0.936,0.134,0.007,0.325
5299907,-562.0,-2215.0,2118.0,0.935,0.14,-0.003,0.327
5299923,-264.0,-197.0,1346.0,0.932,0.149,-0.014,0.329
5299939,354.0,197.0,1582.0,0.929,0.158,-0.026,0.333
5299965,994.0,531.0,1694.0,0.925,0.167,-0.041,0.338
5299981,1436.0,-81.0,2032.0,0.921,0.177,-0.056,0.343
5299997,2416.0,703.0,2542.0,0.915,0.188,-0.072,0.349
5300013,3300.0,1861.0,2666.0,0.909,0.201,-0.089,0.355
5300029,4018.0,2241.0,2702.0,0.902,0.214,-0.108,0.36
5300045,4494.0,1025.0,2742.0,0.894,0.226,-0.127,0.366
5300061,5032.0,1109.0,3038.0,0.885,0.242,-0.146,0.371
5300087,5832.0,2653.0,2570.0,0.874,0.259,-0.165,0.377
5300103,6574.0,3173.0,2496.0,0.862,0.277,-0.186,0.382
5300119,6324.0,4195.0,3548.0,0.848,0.296,-0.209,0.386
5300135,7996.0,2347.0,3526.0,0.833,0.313,-0.235,0.39
5300151,9476.0,1099.0,2836.0,0.815,0.335,-0.261,0.394
5300167,10804.0,2889.0,2162.0,0.795,0.358,-0.283,0.399
5300193,11970.0,2873.0,1466.0,0.774,0.38,-0.304,0.404
5300209,12076.0,2509.0,1004.0,0.753,0.401,-0.321,0.41
5300225,12100.0,2557.0,852.0,0.732,0.422,-0.336,0.415
5300242,12410.0,3765.0,720.0,0.711,0.442,-0.349,0.421
5300258,12464.0,4681.0,1626.0,0.69,0.461,-0.36,0.427
5300274,12658.0,3145.0,1206.0,0.669,0.477,-0.372,0.432
5300300,13406.0,3127.0,508.0,0.647,0.493,-0.381,0.439
5300316,13962.0,2471.0,796.0,0.627,0.507,-0.388,0.446
5300332,13044.0,4015.0,-86.0,0.606,0.52,-0.392,0.456
5300348,12112.0,4459.0,1652.0,0.586,0.531,-0.398,0.465
5300364,12164.0,3377.0,1890.0,0.564,0.541,-0.407,0.473
5300380,12782.0,3697.0,1322.0,0.539,0.552,-0.415,0.483
5300406,13138.0,4065.0,442.0,0.514,0.561,-0.425,0.491
5300422,13130.0,3663.0,456.0,0.49,0.568,-0.434,0.499
5300438,13080.0,2387.0,518.0,0.468,0.574,-0.442,0.506
5300454,13002.0,2529.0,480.0,0.445,0.581,-0.446,0.515
5300470,12512.0,3603.0,360.0,0.423,0.587,-0.448,0.525
5300486,12218.0,3103.0,252.0,0.402,0.593,-0.449,0.534
5300512,11854.0,2889.0,150.0,0.383,0.598,-0.449,0.542
5300528,11226.0,2667.0,374.0,0.365,0.603,-0.446,0.551
5300544,10868.0,2717.0,434.0,0.347,0.608,-0.443,0.56
5300560,10096.0,2991.0,296.0,0.33,0.613,-0.438,0.569
5300576,9694.0,3245.0,154.0,0.314,0.617,-0.433,0.577
5300592,8978.0,3229.0,114.0,0.3,0.62,-0.429,0.585
5300618,8866.0,2653.0,292.0,0.287,0.623,-0.424,0.592
