timeMs,ax,ay,az,gx,gy,gz,q0,q1,q2,q3
63495,7468.0,1100.0,3306.0,-547.0,149.0,-104.0,0.116,-0.509,-0.215,-0.825
63508,7166.0,626.0,3328.0,18.0,204.0,-329.0,0.115,-0.507,-0.216,-0.827
63531,7022.0,1212.0,3378.0,118.0,246.0,-245.0,0.114,-0.504,-0.218,-0.828
63544,7120.0,1642.0,3632.0,43.0,266.0,-108.0,0.114,-0.502,-0.219,-0.829
63567,6842.0,1036.0,3310.0,123.0,297.0,-188.0,0.114,-0.499,-0.22,-0.831
63580,6954.0,1440.0,3592.0,175.0,287.0,-101.0,0.114,-0.496,-0.221,-0.832
63603,7008.0,1616.0,4122.0,284.0,317.0,-78.0,0.116,-0.493,-0.223,-0.833
63616,6704.0,1710.0,4010.0,458.0,328.0,-60.0,0.118,-0.49,-0.227,-0.833
63639,7474.0,1518.0,2834.0,235.0,247.0,-139.0,0.119,-0.488,-0.229,-0.834
63652,8014.0,120.0,2404.0,305.0,254.0,137.0,0.122,-0.486,-0.23,-0.834
63665,8156.0,2772.0,2466.0,508.0,206.0,181.0,0.126,-0.484,-0.233,-0.834
63688,8164.0,2760.0,3258.0,207.0,225.0,-74.0,0.126,-0.483,-0.234,-0.834
63701,8276.0,1098.0,4224.0,123.0,230.0,-141.0,0.125,-0.481,-0.235,-0.835
63724,8364.0,758.0,4044.0,501.0,378.0,-65.0,0.127,-0.477,-0.239,-0.836
63737,8248.0,1700.0,3824.0,704.0,523.0,-58.0,0.13,-0.472,-0.243,-0.837
63760,8666.0,1878.0,3280.0,736.0,634.0,-210.0,0.133,-0.466,-0.249,-0.839
63773,8818.0,2574.0,3814.0,776.0,730.0,-220.0,0.135,-0.459,-0.254,-0.84
63796,8770.0,1764.0,4322.0,513.0,862.0,-287.0,0.136,-0.451,-0.258,-0.843
63809,8586.0,970.0,4670.0,682.0,963.0,-37.0,0.14,-0.443,-0.262,-0.846
63822,8440.0,2458.0,4180.0,1035.0,1148.0,-256.0,0.145,-0.432,-0.269,-0.848
63845,8440.0,3368.0,4420.0,932.0,1241.0,-412.0,0.148,-0.42,-0.276,-0.852
158171,-5.0,-41.0,129.0,-109.0,10219.0,28647.0,0.043,0.625,-0.08,0.775
158176,-5.0,-41.0,129.0,-109.0,10219.0,28647.0,1.0,-0.005,-0.003,-0.007
158186,28158.0,300.0,8208.0,-15360.0,7870.0,-614.0,0.777,0.011,0.008,0.629
158196,8390.0,-218.0,1680.0,166.0,-74.0,11.0,0.033,0.634,-0.078,0.768
158200,8212.0,-108.0,1610.0,24.0,-151.0,-80.0,0.033,0.636,-0.077,0.767
158203,8628.0,-402.0,1804.0,-212.0,-43.0,41.0,0.035,0.636,-0.079,0.767
158206,7994.0,-762.0,2030.0,-80.0,9.0,9.0,0.036,0.636,-0.081,0.767
158209,7872.0,-730.0,2010.0,30.0,-108.0,-107.0,0.037,0.636,-0.08,0.766
158213,7878.0,-704.0,2038.0,110.0,-163.0,-134.0,0.037,0.637,-0.079,0.766
158216,8220.0,-638.0,2012.0,58.0,-153.0,-20.0,0.037,0.638,-0.079,0.765
158219,7892.0,-1350.0,1128.0,62.0,-11.0,111.0,0.036,0.638,-0.079,0.765
158223,7488.0,-1708.0,728.0,104.0,-140.0,145.0,0.035,0.639,-0.08,0.764
158226,7852.0,-1086.0,1428.0,117.0,-195.0,84.0,0.034,0.641,-0.081,0.763
158229,7970.0,-574.0,1296.0,177.0,-327.0,-86.0,0.034,0.643,-0.079,0.761
158232,8180.0,-1030.0,1444.0,81.0,-439.0,-80.0,0.033,0.646,-0.078,0.758
158236,8386.0,-1200.0,840.0,-19.0,-278.0,61.0,0.033,0.648,-0.08,0.756
158239,8232.0,-820.0,1054.0,-52.0,-187.0,176.0,0.032,0.65,-0.081,0.755
158242,8346.0,-870.0,590.0,-23.0,-289.0,78.0,0.031,0.652,-0.082,0.753
158246,8144.0,-822.0,394.0,-6.0,-266.0,-73.0,0.032,0.654,-0.082,0.752
158249,8272.0,-1068.0,228.0,-35.0,-229.0,-43.0,0.032,0.655,-0.082,0.75
158252,8104.0,-1188.0,520.0,-65.0,-345.0,-21.0,0.032,0.658,-0.083,0.748
158256,8152.0,-766.0,692.0,-156.0,-250.0,50.0,0.033,0.66,-0.085,0.746
158259,7846.0,-1016.0,880.0,-136.0,-186.0,7.0,0.034,0.661,-0.086,0.745
158272,7798.0,-72.0,1812.0,-144.0,94.0,24.0,0.035,0.66,-0.087,0.745
158285,7382.0,-1280.0,1076.0,-172.0,-219.0,-51.0,0.036,0.661,-0.088,0.744
158308,8254.0,-994.0,704.0,-137.0,-281.0,-48.0,0.037,0.663,-0.089,0.742
158321,7844.0,-456.0,984.0,-204.0,-50.0,51.0,0.038,0.664,-0.091,0.742
158344,7826.0,-810.0,732.0,-224.0,-266.0,14.0,0.04,0.665,-0.093,0.74
158357,8110.0,-850.0,720.0,-251.0,-221.0,16.0,0.041,0.667,-0.096,0.738
158370,7930.0,-1184.0,724.0,-209.0,-200.0,68.0,0.042,0.668,-0.098,0.737
158393,8010.0,-1042.0,710.0,-202.0,-209.0,105.0,0.043,0.669,-0.1,0.735
158406,8140.0,-1102.0,666.0,-212.0,-164.0,149.0,0.043,0.67,-0.103,0.734
158429,8206.0,-1214.0,496.0,-212.0,-99.0,193.0,0.043,0.67,-0.106,0.733
158442,8230.0,-1196.0,460.0,-205.0,-79.0,226.0,0.043,0.671,-0.109,0.732
158465,8420.0,-1242.0,488.0,-207.0,-36.0,227.0,0.043,0.671,-0.112,0.732
158478,8256.0,-1238.0,532.0,-164.0,29.0,228.0,0.043,0.67,-0.115,0.732
158501,8066.0,-1286.0,546.0,-97.0,36.0,187.0,0.042,0.67,-0.118,0.732
158514,8074.0,-1272.0,510.0,-48.0,15.0,97.0,0.042,0.669,-0.119,0.732
158537,8016.0,-1144.0,518.0,26.0,-55.0,62.0,0.042,0.67,-0.12,0.732
158550,8192.0,-814.0,584.0,-17.0,-66.0,29.0,0.042,0.67,-0.12,0.731
158563,8140.0,-1014.0,612.0,-51.0,-17.0,52.0,0.043,0.67,-0.121,0.731
158586,8088.0,-998.0,708.0,-87.0,-45.0,72.0,0.043,0.67,-0.123,0.731
158599,7914.0,-1116.0,548.0,-67.0,-38.0,49.0,0.043,0.67,-0.124,0.73
158622,8202.0,-1132.0,372.0,-97.0,-120.0,8.0,0.044,0.671,-0.125,0.73
158635,8248.0,-1130.0,732.0,-166.0,10.0,36.0,0.045,0.671,-0.126,0.729
158658,8134.0,-1268.0,780.0,-140.0,-65.0,-22.0,0.046,0.671,-0.128,0.729
158671,8208.0,-1118.0,486.0,-135.0,-46.0,-25.0,0.047,0.671,-0.129,0.728
158694,8268.0,-1214.0,326.0,-129.0,-14.0,-19.0,0.048,0.671,-0.13,0.728
158707,8336.0,-1310.0,448.0,-95.0,43.0,-40.0,0.049,0.671,-0.131,0.728
158720,8114.0,-1522.0,328.0,-17.0,24.0,-151.0,0.051,0.671,-0.13,0.728
158743,8278.0,-1280.0,516.0,33.0,-7.0,-146.0,0.052,0.671,-0.129,0.728
158756,8286.0,-1032.0,648.0,-11.0,50.0,-92.0,0.053,0.671,-0.129,0.728
158779,8112.0,-1086.0,648.0,-43.0,64.0,-84.0,0.054,0.671,-0.129,0.728
158792,8128.0,-1220.0,522.0,-13.0,27.0,-101.0,0.055,0.671,-0.129,0.728
158815,8120.0,-1320.0,568.0,24.0,45.0,-101.0,0.056,0.67,-0.128,0.729
158828,8108.0,-1138.0,694.0,76.0,-5.0,-108.0,0.056,0.671,-0.127,0.729
158851,8086.0,-1220.0,776.0,93.0,-9.0,-133.0,0.057,0.671,-0.126,0.729
158864,8176.0,-1084.0,608.0,117.0,-13.0,-146.0,0.057,0.671,-0.125,0.729
158887,8304.0,-1284.0,758.0,166.0,22.0,-72.0,0.057,0.671,-0.124,0.729
158900,8146.0,-1552.0,608.0,317.0,196.0,24.0,0.055,0.67,-0.122,0.73
158913,7996.0,-1366.0,700.0,484.0,93.0,-40.0,0.053,0.669,-0.119,0.732
158936,8236.0,-804.0,636.0,404.0,70.0,-125.0,0.051,0.669,-0.116,0.732
158949,8014.0,-536.0,558.0,324.0,43.0,-91.0,0.051,0.669,-0.113,0.733
158972,8166.0,-688.0,582.0,178.0,0.0,-93.0,0.05,0.669,-0.112,0.733
158985,8362.0,-680.0,576.0,99.0,31.0,-61.0,0.051,0.669,-0.111,0.733
159008,8100.0,-964.0,488.0,70.0,56.0,-22.0,0.051,0.669,-0.111,0.733
159021,8150.0,-810.0,468.0,74.0,58.0,13.0,0.05,0.668,-0.111,0.734
159044,8130.0,-888.0,584.0,74.0,73.0,20.0,0.05,0.668,-0.111,0.734
159057,7974.0,-728.0,544.0,97.0,90.0,41.0,0.05,0.667,-0.11,0.735
159080,7976.0,-730.0,702.0,62.0,62.0,62.0,0.049,0.667,-0.111,0.735
159093,8058.0,-894.0,754.0,23.0,37.0,52.0,0.049,0.666,-0.111,0.736
159106,8020.0,-914.0,584.0,5.0,31.0,56.0,0.049,0.666,-0.112,0.736
159129,8024.0,-914.0,570.0,-29.0,33.0,56.0,0.049,0.666,-0.113,0.736
159142,8026.0,-968.0,732.0,-33.0,30.0,59.0,0.049,0.666,-0.114,0.736
159165,8120.0,-982.0,668.0,-21.0,5.0,48.0,0.049,0.665,-0.114,0.736
159178,8178.0,-1110.0,506.0,-25.0,44.0,10.0,0.05,0.665,-0.115,0.736
159201,8138.0,-1258.0,534.0,3.0,-19.0,-8.0,0.05,0.665,-0.115,0.736
159214,8236.0,-1032.0,750.0,-8.0,33.0,22.0,0.05,0.665,-0.116,0.736
159237,8002.0,-1084.0,840.0,-47.0,-9.0,-17.0,0.051,0.665,-0.116,0.736
159250,8284.0,-1220.0,622.0,-75.0,-41.0,-46.0,0.052,0.665,-0.117,0.736
159273,8210.0,-1246.0,582.0,-78.0,-26.0,-67.0,0.053,0.665,-0.118,0.735
159286,7944.0,-1186.0,634.0,-81.0,-36.0,-77.0,0.054,0.666,-0.118,0.735
159299,8176.0,-1122.0,652.0,-94.0,-70.0,-90.0,0.055,0.666,-0.118,0.734
159322,8132.0,-1198.0,440.0,-81.0,-38.0,-96.0,0.057,0.667,-0.119,0.734
159335,7996.0,-1014.0,506.0,-61.0,-44.0,-94.0,0.058,0.667,-0.119,0.733
159358,8014.0,-958.0,568.0,-75.0,-52.0,-61.0,0.059,0.667,-0.119,0.733
159371,8036.0,-1032.0,632.0,-91.0,-52.0,-61.0,0.06,0.668,-0.12,0.732
159394,7956.0,-970.0,766.0,-90.0,-83.0,-56.0,0.061,0.668,-0.121,0.732
159407,8166.0,-1064.0,696.0,-100.0,-102.0,-28.0,0.062,0.669,-0.122,0.731
159430,8282.0,-916.0,556.0,-97.0,-80.0,-9.0,0.063,0.669,-0.123,0.73
159443,8204.0,-924.0,536.0,-102.0,-79.0,-2.0,0.064,0.67,-0.124,0.729
159456,8264.0,-1080.0,618.0,-90.0,-77.0,-2.0,0.065,0.67,-0.125,0.729
159479,8360.0,-988.0,426.0,-81.0,-58.0,0.0,0.065,0.67,-0.126,0.728
159492,8376.0,-1038.0,254.0,-88.0,-32.0,16.0,0.066,0.671,-0.127,0.728
159515,8280.0,-1010.0,554.0,-96.0,11.0,16.0,0.067,0.67,-0.128,0.728
159528,8082.0,-854.0,774.0,-111.0,6.0,1.0,0.068,0.67,-0.129,0.728
159551,8266.0,-788.0,586.0,-135.0,-67.0,-40.0,0.069,0.671,-0.13,0.727
159564,8040.0,-924.0,582.0,-148.0,-46.0,-48.0,0.07,0.671,-0.131,0.727
159587,7956.0,-840.0,616.0,-165.0,-66.0,-49.0,0.072,0.671,-0.132,0.726
159600,7894.0,-920.0,538.0,-177.0,-68.0,-33.0,0.073,0.672,-0.133,0.725
159623,8098.0,-968.0,368.0,-180.0,-104.0,-9.0,0.075,0.672,-0.135,0.724
159636,8450.0,-1046.0,36.0,-145.0,-106.0,17.0,0.075,0.673,-0.136,0.723
159649,8398.0,-638.0,368.0,-102.0,-85.0,24.0,0.076,0.673,-0.137,0.723
159672,8118.0,-892.0,1176.0,-101.0,-133.0,-74.0,0.077,0.674,-0.138,0.722
159685,8160.0,-1582.0,1190.0,-78.0,-72.0,-30.0,0.078,0.674,-0.139,0.721
159708,8388.0,-1200.0,334.0,-99.0,169.0,244.0,0.077,0.673,-0.141,0.722
159721,7562.0,-1186.0,190.0,-13.0,174.0,124.0,0.077,0.671,-0.142,0.723
159744,8020.0,-728.0,670.0,-44.0,37.0,50.0,0.077,0.671,-0.143,0.723
159757,7930.0,-1214.0,462.0,-52.0,151.0,44.0,0.077,0.67,-0.144,0.724
159780,7968.0,-1176.0,272.0,0.0,151.0,107.0,0.077,0.669,-0.145,0.725
159793,8178.0,-940.0,438.0,31.0,140.0,76.0,0.077,0.668,-0.145,0.726
159816,8154.0,-990.0,562.0,25.0,103.0,7.0,0.077,0.667,-0.145,0.727
159829,8098.0,-1052.0,616.0,27.0,44.0,-24.0,0.077,0.667,-0.145,0.727
159842,8008.0,-1090.0,690.0,41.0,-52.0,-65.0,0.077,0.667,-0.145,0.727
159865,8070.0,-1080.0,636.0,45.0,-64.0,-62.0,0.078,0.668,-0.144,0.726
159878,7980.0,-1004.0,558.0,33.0,-59.0,-56.0,0.078,0.668,-0.144,0.726
159901,7824.0,-932.0,318.0,41.0,-38.0,-35.0,0.078,0.668,-0.144,0.726
159914,7886.0,-868.0,348.0,43.0,-27.0,10.0,0.078,0.669,-0.144,0.725
159937,7980.0,-736.0,404.0,79.0,-31.0,35.0,0.077,0.669,-0.144,0.725
159950,8162.0,-438.0,528.0,87.0,-102.0,20.0,0.077,0.67,-0.143,0.725
159973,8328.0,-316.0,540.0,10.0,-210.0,-40.0,0.077,0.671,-0.143,0.723
159986,8486.0,-210.0,678.0,-109.0,-332.0,-103.0,0.078,0.673,-0.144,0.721
159999,9212.0,-252.0,1024.0,-403.0,-106.0,225.0,0.079,0.673,-0.148,0.72
160022,8596.0,-676.0,438.0,-500.0,197.0,414.0,0.08,0.671,-0.154,0.721
160035,8200.0,-866.0,174.0,-442.0,198.0,272.0,0.081,0.669,-0.159,0.721
160058,7794.0,-1044.0,-224.0,-327.0,110.0,-130.0,0.085,0.668,-0.161,0.721
160071,7948.0,-1342.0,282.0,-165.0,-98.0,-168.0,0.087,0.669,-0.161,0.72
160094,8178.0,-708.0,184.0,-164.0,75.0,-118.0,0.089,0.669,-0.161,0.72
160107,7852.0,-884.0,120.0,-133.0,129.0,-170.0,0.091,0.668,-0.161,0.721
160130,8280.0,-588.0,530.0,-38.0,124.0,-189.0,0.093,0.667,-0.16,0.721
160143,8258.0,-724.0,374.0,61.0,122.0,-315.0,0.095,0.667,-0.158,0.722
160171,7884.0,-922.0,462.0,65.0,85.0,-299.0,0.097,0.667,-0.156,0.722
160184,7892.0,-970.0,488.0,54.0,139.0,-310.0,0.099,0.667,-0.154,0.723
160197,8074.0,-962.0,606.0,90.0,112.0,-289.0,0.101,0.666,-0.152,0.723
160210,8148.0,-1080.0,378.0,116.0,84.0,-280.0,0.102,0.666,-0.149,0.724
160233,7878.0,-1308.0,154.0,100.0,120.0,-339.0,0.104,0.666,-0.147,0.724
160246,8046.0,-1212.0,264.0,112.0,106.0,-289.0,0.106,0.666,-0.144,0.724
160269,8158.0,-1164.0,256.0,130.0,106.0,-313.0,0.107,0.666,-0.142,0.725
160282,8184.0,-1292.0,502.0,124.0,75.0,-278.0,0.109,0.665,-0.14,0.725
160305,7890.0,-1186.0,322.0,145.0,39.0,-335.0,0.11,0.666,-0.137,0.725
160318,8078.0,-1036.0,578.0,129.0,-42.0,-330.0,0.112,0.667,-0.134,0.725
160341,8326.0,-790.0,662.0,49.0,3.0,-94.0,0.112,0.667,-0.134,0.725
160354,8050.0,-1170.0,618.0,-30.0,50.0,82.0,0.112,0.666,-0.135,0.725
160367,8116.0,-1042.0,644.0,5.0,-12.0,156.0,0.111,0.666,-0.136,0.725
160390,8104.0,-824.0,348.0,131.0,-65.0,81.0,0.109,0.667,-0.136,0.725
160403,8150.0,-730.0,484.0,200.0,-148.0,94.0,0.107,0.668,-0.136,0.724
160426,8410.0,-914.0,452.0,196.0,-125.0,167.0,0.105,0.668,-0.136,0.724
160439,8384.0,-742.0,214.0,253.0,-74.0,211.0,0.102,0.669,-0.136,0.724
160462,8184.0,-220.0,240.0,273.0,-104.0,201.0,0.099,0.67,-0.136,0.723
160475,8224.0,-570.0,344.0,232.0,-134.0,144.0,0.097,0.671,-0.135,0.723
160498,8492.0,-732.0,284.0,200.0,-110.0,194.0,0.094,0.671,-0.136,0.723
160511,8414.0,-546.0,488.0,162.0,-38.0,283.0,0.092,0.671,-0.137,0.723
160534,8136.0,-564.0,290.0,185.0,-93.0,196.0,0.089,0.672,-0.137,0.722
160547,7486.0,834.0,1598.0,184.0,151.0,134.0,0.088,0.671,-0.136,0.724
160560,8430.0,-658.0,1142.0,-46.0,-133.0,-33.0,0.088,0.671,-0.137,0.723
160583,8344.0,-602.0,382.0,-103.0,67.0,180.0,0.088,0.671,-0.139,0.723
160596,8202.0,-760.0,2.0,-175.0,33.0,82.0,0.089,0.67,-0.141,0.723
160619,8140.0,-668.0,410.0,-227.0,9.0,76.0,0.09,0.67,-0.143,0.723
160632,8428.0,-896.0,310.0,-203.0,121.0,45.0,0.091,0.669,-0.145,0.723
160655,7638.0,-838.0,254.0,-140.0,80.0,-142.0,0.093,0.668,-0.145,0.724
160668,8142.0,-842.0,558.0,-79.0,10.0,-85.0,0.094,0.668,-0.145,0.723
160691,7860.0,-1034.0,568.0,-59.0,47.0,-95.0,0.096,0.668,-0.145,0.723
160704,8084.0,-396.0,906.0,-91.0,-46.0,-36.0,0.097,0.668,-0.146,0.723
160727,8060.0,-944.0,708.0,-145.0,-29.0,-31.0,0.098,0.668,-0.147,0.723
160740,8136.0,-960.0,558.0,-105.0,-33.0,102.0,0.098,0.668,-0.148,0.722
160753,8064.0,-1122.0,394.0,-90.0,-71.0,33.0,0.098,0.669,-0.149,0.722
160776,8166.0,-1092.0,282.0,-37.0,-62.0,39.0,0.098,0.669,-0.15,0.721
160789,8064.0,-746.0,290.0,-40.0,8.0,4.0,0.099,0.669,-0.151,0.721
160812,8214.0,-986.0,432.0,-25.0,-28.0,-2.0,0.099,0.669,-0.151,0.721
160825,8282.0,-882.0,436.0,-9.0,-1.0,-3.0,0.099,0.669,-0.152,0.721
160848,8180.0,-816.0,478.0,-8.0,2.0,-3.0,0.099,0.669,-0.152,0.721
160861,8138.0,-786.0,508.0,-20.0,-18.0,-18.0,0.1,0.669,-0.152,0.721
160884,8056.0,-812.0,522.0,-33.0,-26.0,-12.0,0.1,0.669,-0.152,0.72
160897,8156.0,-798.0,408.0,-47.0,-52.0,-13.0,0.1,0.67,-0.153,0.72
160910,8060.0,-782.0,444.0,-63.0,-43.0,-13.0,0.101,0.67,-0.153,0.719
160933,8086.0,-822.0,448.0,-50.0,-57.0,11.0,0.101,0.67,-0.154,0.719
160946,8214.0,-846.0,342.0,-44.0,-37.0,18.0,0.101,0.67,-0.155,0.719
160969,8158.0,-756.0,380.0,-50.0,-30.0,28.0,0.102,0.67,-0.156,0.718
160982,8064.0,-750.0,488.0,-42.0,-26.0,36.0,0.102,0.67,-0.156,0.718
161005,8230.0,-854.0,490.0,-51.0,-54.0,30.0,0.102,0.671,-0.157,0.718
161018,8184.0,-898.0,308.0,-58.0,-31.0,30.0,0.102,0.671,-0.158,0.717
161041,8258.0,-894.0,152.0,-51.0,6.0,57.0,0.102,0.671,-0.159,0.717
161054,8202.0,-860.0,324.0,-48.0,33.0,77.0,0.102,0.67,-0.16,0.718
161077,8250.0,-842.0,362.0,-54.0,41.0,73.0,0.102,0.67,-0.161,0.718
161090,8242.0,-934.0,286.0,-44.0,42.0,50.0,0.102,0.669,-0.162,0.718
161113,8236.0,-996.0,352.0,-44.0,38.0,44.0,0.103,0.669,-0.162,0.718
161126,8186.0,-956.0,336.0,-49.0,26.0,29.0,0.103,0.669,-0.163,0.718
161139,8166.0,-882.0,382.0,-39.0,48.0,13.0,0.103,0.668,-0.163,0.718
161162,8150.0,-858.0,334.0,-35.0,30.0,4.0,0.103,0.668,-0.164,0.718
161175,8182.0,-872.0,386.0,-30.0,23.0,-4.0,0.104,0.668,-0.164,0.718
161198,8264.0,-902.0,380.0,-27.0,-8.0,-26.0,0.104,0.668,-0.164,0.718
161211,8170.0,-900.0,442.0,-32.0,-21.0,-59.0,0.105,0.668,-0.164,0.718
161234,8228.0,-844.0,482.0,-30.0,-51.0,-64.0,0.105,0.669,-0.164,0.718
161247,8136.0,-812.0,364.0,-36.0,-54.0,-74.0,0.106,0.669,-0.164,0.717
161270,8202.0,-812.0,296.0,-69.0,-58.0,-73.0,0.107,0.669,-0.164,0.716
161283,8190.0,-664.0,500.0,-106.0,-48.0,-35.0,0.108,0.67,-0.165,0.716
161296,8088.0,-518.0,584.0,-197.0,-59.0,-40.0,0.11,0.67,-0.166,0.715
161319,8144.0,-674.0,492.0,-405.0,2.0,57.0,0.112,0.669,-0.17,0.715
161332,8366.0,-998.0,-214.0,-586.0,222.0,198.0,0.115,0.667,-0.175,0.715
161355,7844.0,-1180.0,-524.0,-512.0,275.0,152.0,0.117,0.665,-0.179,0.716
161368,8042.0,-1036.0,76.0,-296.0,111.0,9.0,0.119,0.664,-0.181,0.716
161391,8316.0,-716.0,494.0,-233.0,182.0,21.0,0.121,0.662,-0.182,0.717
161404,8246.0,-1080.0,636.0,-148.0,154.0,-2.0,0.122,0.661,-0.183,0.718
161427,8204.0,-1100.0,480.0,-21.0,158.0,53.0,0.122,0.66,-0.184,0.719
161440,8024.0,-956.0,428.0,8.0,155.0,90.0,0.121,0.658,-0.184,0.72
161453,8208.0,-1008.0,440.0,26.0,162.0,104.0,0.121,0.657,-0.184,0.721
161476,8066.0,-1022.0,268.0,19.0,191.0,80.0,0.12,0.656,-0.185,0.722
161489,7906.0,-1110.0,62.0,50.0,201.0,49.0,0.12,0.655,-0.184,0.723
161512,8160.0,-1272.0,168.0,129.0,173.0,-12.0,0.12,0.654,-0.183,0.724
161525,8294.0,-1284.0,-144.0,248.0,341.0,30.0,0.118,0.652,-0.182,0.727
161548,8120.0,-1604.0,-878.0,514.0,539.0,111.0,0.115,0.649,-0.178,0.731
161561,7554.0,-1392.0,-760.0,952.0,375.0,17.0,0.11,0.647,-0.172,0.734
161584,7844.0,-922.0,534.0,1061.0,186.0,-239.0,0.105,0.648,-0.163,0.737
161597,8434.0,-406.0,1454.0,899.0,322.0,-241.0,0.102,0.647,-0.155,0.74
161620,8334.0,-288.0,2122.0,647.0,427.0,-22.0,0.099,0.644,-0.15,0.744
161633,8222.0,-236.0,2684.0,398.0,481.0,35.0,0.097,0.641,-0.147,0.747
161646,7890.0,-564.0,2862.0,254.0,404.0,4.0,0.096,0.638,-0.144,0.75
161669,8224.0,-852.0,2506.0,72.0,306.0,119.0,0.095,0.636,-0.144,0.752
161682,8118.0,-726.0,1908.0,-40.0,337.0,189.0,0.094,0.633,-0.145,0.755
161705,7892.0,-918.0,2010.0,-161.0,172.0,113.0,0.095,0.631,-0.147,0.756
161718,8066.0,-1132.0,2168.0,-223.0,96.0,117.0,0.095,0.63,-0.149,0.756
161741,8164.0,-1038.0,1424.0,-234.0,122.0,156.0,0.096,0.629,-0.152,0.757
161754,8058.0,-1100.0,1076.0,-243.0,142.0,138.0,0.096,0.628,-0.154,0.757
161777,7994.0,-1244.0,1244.0,-203.0,161.0,146.0,0.097,0.626,-0.156,0.758
161790,7864.0,-1320.0,1466.0,-159.0,52.0,-8.0,0.098,0.626,-0.158,0.758
161813,8206.0,-1340.0,1710.0,-131.0,-50.0,28.0,0.098,0.626,-0.159,0.757
161826,7918.0,-1034.0,1868.0,-158.0,-98.0,68.0,0.098,0.626,-0.16,0.757
161839,7866.0,-1064.0,1096.0,-128.0,-162.0,17.0,0.099,0.627,-0.162,0.756
161862,7906.0,-638.0,682.0,-146.0,-191.0,-23.0,0.099,0.628,-0.163,0.754
161875,8098.0,-1096.0,660.0,-127.0,-155.0,-43.0,0.1,0.63,-0.163,0.753
161898,7884.0,-1050.0,748.0,-78.0,-165.0,-49.0,0.101,0.631,-0.164,0.752
161911,7864.0,-1114.0,1026.0,-48.0,-199.0,-60.0,0.101,0.632,-0.164,0.75
161934,8002.0,-970.0,966.0,-22.0,-194.0,-60.0,0.101,0.634,-0.164,0.749
161947,8186.0,-944.0,550.0,-75.0,-98.0,31.0,0.101,0.635,-0.165,0.748
161970,8290.0,-980.0,642.0,-97.0,-7.0,130.0,0.101,0.634,-0.166,0.748
161983,7898.0,-1030.0,748.0,21.0,-36.0,3.0,0.101,0.635,-0.166,0.748
161996,8388.0,-968.0,744.0,74.0,-112.0,-65.0,0.1,0.636,-0.166,0.747
162019,8258.0,-642.0,578.0,83.0,-60.0,-39.0,0.1,0.637,-0.165,0.747
162032,8304.0,-814.0,318.0,-2.0,6.0,-3.0,0.1,0.637,-0.165,0.747
162055,8380.0,-1134.0,542.0,-22.0,77.0,84.0,0.1,0.636,-0.165,0.747
162068,8350.0,-1392.0,908.0,-11.0,159.0,184.0,0.099,0.635,-0.167,0.748
162091,7976.0,-1304.0,1292.0,-41.0,119.0,207.0,0.097,0.634,-0.168,0.749
162104,8000.0,-1526.0,1774.0,-40.0,11.0,174.0,0.096,0.633,-0.169,0.749
162127,7908.0,-1332.0,1496.0,-20.0,-29.0,90.0,0.096,0.633,-0.17,0.749
162140,7934.0,-1362.0,1340.0,-20.0,-79.0,103.0,0.095,0.633,-0.171,0.749
162163,7694.0,-1162.0,1280.0,22.0,-122.0,22.0,0.094,0.634,-0.171,0.748
162181,8050.0,-1072.0,1402.0,-18.0,-69.0,13.0,0.094,0.635,-0.171,0.748
162194,7132.0,-1270.0,1490.0,-96.0,-20.0,-61.0,0.095,0.635,-0.172,0.747
162207,8444.0,-1444.0,1116.0,-46.0,-130.0,-18.0,0.095,0.636,-0.172,0.746
162230,8026.0,-1566.0,934.0,-4.0,-65.0,-85.0,0.096,0.636,-0.172,0.746
162243,8158.0,-1214.0,928.0,78.0,-92.0,-91.0,0.096,0.637,-0.171,0.745
162266,8080.0,-1136.0,718.0,129.0,-35.0,-80.0,0.095,0.638,-0.17,0.745
162279,8032.0,-1056.0,716.0,169.0,-29.0,-70.0,0.095,0.638,-0.168,0.745
162302,7888.0,-998.0,1128.0,141.0,-92.0,-147.0,0.095,0.639,-0.166,0.745
162315,8134.0,-972.0,1358.0,100.0,-130.0,-117.0,0.095,0.64,-0.165,0.744
162338,8402.0,-918.0,1384.0,-14.0,-36.0,74.0,0.094,0.641,-0.165,0.744
162351,7728.0,-1414.0,1140.0,-15.0,-21.0,63.0,0.094,0.641,-0.166,0.744
162364,7986.0,-1152.0,1182.0,-5.0,-124.0,-37.0,0.094,0.641,-0.166,0.743
162387,8008.0,-1180.0,1098.0,-2.0,-136.0,-85.0,0.094,0.642,-0.166,0.742
162400,8062.0,-1254.0,1114.0,-24.0,-104.0,-95.0,0.095,0.643,-0.165,0.741
162423,8222.0,-1076.0,864.0,1.0,-98.0,-59.0,0.095,0.644,-0.165,0.741
162436,8248.0,-1080.0,620.0,-3.0,-65.0,-88.0,0.095,0.645,-0.165,0.74
162459,8078.0,-1030.0,692.0,9.0,-57.0,-98.0,0.096,0.645,-0.164,0.74
162472,8094.0,-1262.0,746.0,4.0,-20.0,-106.0,0.096,0.646,-0.164,0.74
162495,8320.0,-1058.0,792.0,8.0,46.0,-7.0,0.097,0.646,-0.164,0.74
162508,7954.0,-1026.0,876.0,-14.0,66.0,-40.0,0.097,0.645,-0.163,0.74
162531,7810.0,-1160.0,964.0,42.0,-56.0,-131.0,0.097,0.646,-0.162,0.74
162544,8014.0,-988.0,892.0,42.0,-58.0,-141.0,0.098,0.646,-0.161,0.739
162557,7990.0,-1020.0,852.0,5.0,-78.0,-126.0,0.099,0.647,-0.161,0.739
162580,8224.0,-964.0,804.0,-26.0,-12.0,-29.0,0.099,0.647,-0.161,0.738
162593,7934.0,-1030.0,732.0,-83.0,99.0,70.0,0.099,0.647,-0.162,0.739
162616,7790.0,-1096.0,808.0,-53.0,43.0,21.0,0.099,0.646,-0.162,0.739
162629,7986.0,-1032.0,694.0,-9.0,-34.0,-25.0,0.099,0.647,-0.162,0.739
162652,8124.0,-1116.0,656.0,-58.0,28.0,31.0,0.099,0.646,-0.162,0.739
162665,8102.0,-970.0,660.0,-47.0,40.0,82.0,0.098,0.646,-0.163,0.739
162688,8000.0,-834.0,916.0,-38.0,-19.0,-24.0,0.098,0.646,-0.163,0.739
162701,8410.0,-920.0,1166.0,-79.0,-103.0,29.0,0.098,0.647,-0.163,0.738
162724,8112.0,-916.0,1106.0,-130.0,-27.0,68.0,0.098,0.647,-0.164,0.738
162737,8088.0,-1210.0,934.0,-156.0,-109.0,41.0,0.099,0.647,-0.166,0.737
162750,8196.0,-1172.0,816.0,-181.0,-95.0,24.0,0.099,0.648,-0.167,0.736
162773,7948.0,-1214.0,718.0,-174.0,-127.0,-19.0,0.1,0.649,-0.168,0.735
162786,8122.0,-1240.0,838.0,-169.0,-175.0,-91.0,0.101,0.65,-0.169,0.734
162809,8098.0,-1100.0,814.0,-154.0,-123.0,-58.0,0.102,0.651,-0.17,0.733
162822,8074.0,-1224.0,550.0,-170.0,-107.0,19.0,0.102,0.652,-0.171,0.732
162845,8042.0,-1100.0,524.0,-150.0,-14.0,95.0,0.102,0.652,-0.172,0.732
162858,8104.0,-1240.0,486.0,-101.0,6.0,78.0,0.101,0.651,-0.173,0.732
162881,8212.0,-1222.0,526.0,-30.0,-32.0,-4.0,0.101,0.652,-0.173,0.732
162894,8362.0,-1198.0,460.0,32.0,49.0,36.0,0.1,0.652,-0.172,0.732
162907,8218.0,-1072.0,450.0,123.0,173.0,78.0,0.099,0.651,-0.171,0.733
162930,7974.0,-758.0,590.0,171.0,85.0,22.0,0.097,0.65,-0.17,0.734
162943,8240.0,-720.0,884.0,-28.0,13.0,58.0,0.096,0.65,-0.17,0.734
162966,8104.0,-1208.0,872.0,-112.0,-14.0,55.0,0.096,0.65,-0.171,0.734
162979,8270.0,-1262.0,1008.0,-135.0,11.0,97.0,0.096,0.65,-0.172,0.734
163002,8226.0,-1164.0,946.0,-126.0,32.0,139.0,0.095,0.65,-0.173,0.734
163015,8294.0,-1194.0,800.0,-141.0,83.0,169.0,0.094,0.649,-0.174,0.735
163038,8064.0,-1128.0,910.0,-176.0,29.0,188.0,0.093,0.648,-0.176,0.735
163051,8060.0,-1354.0,970.0,-193.0,5.0,207.0,0.093,0.648,-0.178,0.735
163074,7990.0,-1306.0,982.0,-184.0,-34.0,173.0,0.092,0.648,-0.18,0.735
163087,8082.0,-1502.0,750.0,-128.0,-51.0,132.0,0.091,0.648,-0.182,0.734
163100,8124.0,-1264.0,664.0,-91.0,4.0,156.0,0.09,0.648,-0.183,0.734
163123,7792.0,-1500.0,576.0,-88.0,-54.0,-24.0,0.09,0.648,-0.183,0.734
163136,8232.0,-1058.0,776.0,-68.0,-2.0,129.0,0.089,0.648,-0.184,0.734
163159,7910.0,-1634.0,734.0,-52.0,-103.0,129.0,0.088,0.649,-0.185,0.733
163172,7964.0,-1042.0,668.0,-88.0,-14.0,52.0,0.087,0.649,-0.185,0.733
163195,7974.0,-1292.0,624.0,-70.0,-158.0,-30.0,0.087,0.65,-0.185,0.732
163208,8192.0,-1100.0,540.0,-51.0,-48.0,12.0,0.087,0.65,-0.185,0.732
163231,7924.0,-1212.0,602.0,-51.0,-93.0,-21.0,0.087,0.651,-0.185,0.731
163244,8346.0,-1270.0,592.0,-50.0,-85.0,-41.0,0.087,0.652,-0.185,0.73
163267,8192.0,-1470.0,504.0,-25.0,-44.0,-74.0,0.087,0.653,-0.184,0.73
163280,8160.0,-1456.0,602.0,17.0,-45.0,-75.0,0.086,0.653,-0.183,0.73
163293,8126.0,-1356.0,652.0,26.0,-31.0,-93.0,0.086,0.654,-0.182,0.73
163316,8064.0,-1250.0,642.0,46.0,-51.0,-126.0,0.086,0.654,-0.18,0.729
163329,8126.0,-1178.0,514.0,42.0,-38.0,-141.0,0.086,0.655,-0.179,0.729
163352,8018.0,-1244.0,468.0,36.0,-32.0,-130.0,0.086,0.656,-0.177,0.729
163365,8034.0,-1322.0,588.0,38.0,-48.0,-105.0,0.086,0.656,-0.176,0.728
163388,7982.0,-1368.0,550.0,49.0,-16.0,-67.0,0.086,0.657,-0.175,0.728
163401,7998.0,-1250.0,686.0,45.0,-30.0,-37.0,0.085,0.657,-0.174,0.728
163424,8006.0,-1296.0,608.0,47.0,-33.0,-21.0,0.084,0.658,-0.173,0.728
163437,8118.0,-1334.0,576.0,47.0,-63.0,-17.0,0.084,0.658,-0.173,0.728
163450,8146.0,-1312.0,468.0,49.0,-27.0,-1.0,0.083,0.659,-0.172,0.728
163473,8036.0,-1154.0,372.0,46.0,-22.0,12.0,0.082,0.659,-0.171,0.728
163486,8098.0,-1244.0,340.0,26.0,22.0,42.0,0.081,0.659,-0.171,0.728
163509,8130.0,-1308.0,344.0,24.0,50.0,68.0,0.08,0.659,-0.171,0.728
163522,8152.0,-1334.0,508.0,29.0,80.0,83.0,0.079,0.658,-0.171,0.729
163545,8116.0,-1304.0,712.0,1.0,57.0,74.0,0.078,0.658,-0.171,0.729
163558,8124.0,-1390.0,726.0,15.0,41.0,60.0,0.077,0.658,-0.17,0.73
163581,8136.0,-1354.0,634.0,9.0,33.0,36.0,0.076,0.657,-0.17,0.73
163594,8182.0,-1386.0,588.0,13.0,47.0,17.0,0.075,0.657,-0.17,0.73
163617,8144.0,-1310.0,552.0,13.0,60.0,15.0,0.075,0.657,-0.169,0.731
163630,8212.0,-1348.0,544.0,6.0,49.0,-10.0,0.074,0.657,-0.169,0.731
163643,8128.0,-1380.0,572.0,8.0,60.0,-13.0,0.074,0.657,-0.168,0.732
163666,8086.0,-1348.0,600.0,1.0,45.0,-29.0,0.074,0.656,-0.168,0.732
163679,8094.0,-1352.0,660.0,2.0,27.0,-41.0,0.073,0.656,-0.167,0.732
163702,8142.0,-1304.0,748.0,-11.0,7.0,-81.0,0.073,0.657,-0.166,0.732
163715,8166.0,-1254.0,720.0,3.0,1.0,-93.0,0.074,0.657,-0.165,0.732
163738,8182.0,-1354.0,500.0,19.0,50.0,-95.0,0.074,0.657,-0.164,0.732
163751,8094.0,-1372.0,434.0,27.0,88.0,-66.0,0.073,0.657,-0.163,0.733
163774,8060.0,-1360.0,532.0,35.0,148.0,-27.0,0.073,0.656,-0.162,0.734
163787,7928.0,-1304.0,570.0,37.0,165.0,-1.0,0.073,0.655,-0.161,0.735
163810,7820.0,-1202.0,688.0,46.0,144.0,-1.0,0.072,0.654,-0.161,0.736
163823,7928.0,-1188.0,834.0,50.0,104.0,-11.0,0.071,0.653,-0.16,0.736
163836,7906.0,-1146.0,788.0,45.0,68.0,-12.0,0.071,0.653,-0.159,0.737
163859,8022.0,-1206.0,830.0,55.0,53.0,1.0,0.07,0.653,-0.158,0.737
163872,8050.0,-1308.0,742.0,55.0,76.0,4.0,0.069,0.653,-0.157,0.738
163895,8020.0,-1242.0,730.0,51.0,38.0,9.0,0.068,0.652,-0.157,0.738
163908,7868.0,-1368.0,778.0,60.0,-22.0,-57.0,0.068,0.653,-0.155,0.738
163931,8306.0,-1262.0,860.0,42.0,-61.0,-48.0,0.067,0.653,-0.154,0.738
163944,8150.0,-1192.0,860.0,-29.0,22.0,5.0,0.067,0.653,-0.154,0.738
163967,7980.0,-1172.0,898.0,-9.0,-14.0,11.0,0.066,0.654,-0.154,0.738
163980,8050.0,-1190.0,706.0,-22.0,-27.0,-15.0,0.066,0.654,-0.154,0.738
164003,8040.0,-1240.0,660.0,-27.0,-42.0,-20.0,0.066,0.654,-0.153,0.738
164016,7942.0,-1202.0,692.0,-16.0,-56.0,-47.0,0.066,0.655,-0.153,0.737
164029,7974.0,-1302.0,662.0,-15.0,-83.0,-70.0,0.066,0.656,-0.152,0.737
164052,8124.0,-1252.0,678.0,-3.0,-89.0,-83.0,0.065,0.657,-0.151,0.736
164065,8020.0,-1128.0,672.0,1.0,-92.0,-107.0,0.065,0.658,-0.15,0.735
164088,8140.0,-1154.0,688.0,9.0,-104.0,-120.0,0.065,0.659,-0.149,0.735
164101,8212.0,-1218.0,566.0,5.0,-82.0,-99.0,0.065,0.659,-0.148,0.734
164124,8080.0,-1154.0,614.0,-6.0,-48.0,-63.0,0.065,0.66,-0.147,0.734
164137,8250.0,-1106.0,638.0,2.0,-39.0,-46.0,0.065,0.66,-0.147,0.734
164160,8134.0,-1060.0,798.0,-40.0,-14.0,23.0,0.065,0.661,-0.147,0.733
164173,8032.0,-1070.0,752.0,-51.0,42.0,98.0,0.064,0.66,-0.147,0.734
164191,7854.0,-1222.0,574.0,-1.0,-24.0,-42.0,0.063,0.661,-0.147,0.734
164204,8240.0,-1062.0,558.0,44.0,-132.0,-128.0,0.063,0.662,-0.145,0.733
164227,8236.0,-1046.0,540.0,35.0,-54.0,-98.0,0.063,0.662,-0.144,0.732
164240,8308.0,-1042.0,546.0,29.0,-27.0,-64.0,0.063,0.663,-0.143,0.732
164263,8244.0,-1022.0,562.0,28.0,14.0,-40.0,0.063,0.663,-0.142,0.732
164276,8228.0,-1068.0,628.0,2.0,14.0,-26.0,0.062,0.663,-0.141,0.732
164299,8212.0,-1076.0,696.0,-13.0,30.0,-8.0,0.062,0.663,-0.141,0.733
164312,8132.0,-1092.0,688.0,-22.0,6.0,-34.0,0.062,0.663,-0.141,0.733
164335,8066.0,-1016.0,584.0,-53.0,-84.0,-61.0,0.062,0.664,-0.14,0.732
164348,8124.0,-1052.0,618.0,-104.0,-128.0,-74.0,0.062,0.665,-0.14,0.731
164361,8196.0,-1188.0,458.0,-95.0,-89.0,-41.0,0.063,0.666,-0.14,0.73
164384,8408.0,-972.0,584.0,-126.0,81.0,169.0,0.062,0.665,-0.142,0.731
164397,7982.0,-1066.0,580.0,-125.0,112.0,151.0,0.061,0.664,-0.143,0.731
164420,7834.0,-1126.0,494.0,-53.0,-11.0,-6.0,0.061,0.664,-0.143,0.731
164433,8184.0,-1172.0,458.0,-32.0,-55.0,-54.0,0.061,0.665,-0.142,0.731
164456,7966.0,-1048.0,472.0,-10.0,4.0,-36.0,0.061,0.665,-0.142,0.731
164469,8052.0,-1088.0,558.0,-39.0,-34.0,-26.0,0.061,0.665,-0.142,0.731
164492,8052.0,-1150.0,572.0,-41.0,-19.0,-19.0,0.061,0.665,-0.142,0.73
164505,8024.0,-1128.0,502.0,-24.0,-3.0,-7.0,0.06,0.666,-0.141,0.73
164528,8094.0,-1106.0,522.0,-31.0,0.0,-5.0,0.06,0.666,-0.141,0.73
164541,8100.0,-1044.0,600.0,-8.0,-13.0,-17.0,0.06,0.666,-0.141,0.73
164554,8102.0,-1078.0,658.0,-3.0,-22.0,-17.0,0.059,0.666,-0.14,0.73
164577,8182.0,-1184.0,546.0,-8.0,-18.0,-3.0,0.059,0.666,-0.14,0.73
164590,8132.0,-1080.0,534.0,-25.0,7.0,33.0,0.058,0.666,-0.14,0.73
164613,8134.0,-1274.0,546.0,-18.0,-16.0,-5.0,0.058,0.667,-0.139,0.73
164626,8242.0,-1266.0,574.0,-14.0,1.0,14.0,0.057,0.667,-0.139,0.73
164649,8150.0,-1194.0,530.0,-7.0,-8.0,-5.0,0.057,0.667,-0.139,0.73
164662,8186.0,-1238.0,392.0,-20.0,-34.0,-17.0,0.057,0.667,-0.139,0.73
164685,8178.0,-1088.0,592.0,-11.0,-49.0,-34.0,0.056,0.668,-0.138,0.729
164698,8136.0,-1020.0,674.0,-30.0,-100.0,-58.0,0.056,0.669,-0.138,0.729
164721,8200.0,-624.0,692.0,-124.0,-174.0,-43.0,0.057,0.67,-0.138,0.727
164734,8304.0,-764.0,614.0,-222.0,-162.0,55.0,0.057,0.671,-0.14,0.726
164747,8160.0,-656.0,592.0,-393.0,-94.0,158.0,0.058,0.671,-0.143,0.725
164770,8144.0,-998.0,650.0,-471.0,-131.0,166.0,0.059,0.672,-0.147,0.724
164783,7666.0,-1650.0,350.0,-277.0,-318.0,-61.0,0.06,0.674,-0.148,0.721
164806,8506.0,-1648.0,344.0,-186.0,-290.0,-22.0,0.061,0.676,-0.149,0.719
164819,8350.0,-1564.0,278.0,-140.0,-148.0,79.0,0.06,0.677,-0.15,0.718
164842,8228.0,-1328.0,278.0,-110.0,-27.0,172.0,0.059,0.677,-0.152,0.718
164855,8108.0,-1376.0,144.0,-80.0,60.0,243.0,0.058,0.676,-0.153,0.718
164878,7986.0,-1394.0,44.0,-19.0,134.0,271.0,0.056,0.675,-0.155,0.719
164891,7792.0,-1308.0,108.0,1.0,94.0,145.0,0.055,0.674,-0.155,0.72
164914,8038.0,-1346.0,292.0,29.0,48.0,234.0,0.052,0.674,-0.156,0.72
164927,7878.0,-1528.0,222.0,39.0,75.0,189.0,0.05,0.673,-0.157,0.721
164940,7860.0,-1320.0,208.0,110.0,14.0,103.0,0.049,0.673,-0.156,0.721
164963,7924.0,-1402.0,232.0,122.0,-73.0,3.0,0.047,0.674,-0.155,0.721
164976,8312.0,-1374.0,250.0,101.0,-34.0,14.0,0.046,0.674,-0.154,0.721
164999,8276.0,-1330.0,144.0,98.0,39.0,35.0,0.045,0.674,-0.153,0.721
165012,8262.0,-1340.0,32.0,95.0,36.0,7.0,0.044,0.674,-0.152,0.722
165035,8160.0,-1298.0,166.0,113.0,40.0,-32.0,0.043,0.674,-0.151,0.722
165048,8182.0,-1442.0,224.0,135.0,40.0,-65.0,0.042,0.674,-0.149,0.722
165071,8134.0,-1370.0,252.0,131.0,21.0,-90.0,0.041,0.674,-0.148,0.723
165084,8122.0,-1208.0,400.0,128.0,-36.0,-148.0,0.041,0.675,-0.145,0.723
165097,7986.0,-1150.0,470.0,85.0,-85.0,-232.0,0.041,0.676,-0.143,0.722
165120,7924.0,-1200.0,318.0,54.0,-114.0,-269.0,0.042,0.677,-0.141,0.721
165133,7910.0,-1114.0,140.0,5.0,-118.0,-263.0,0.043,0.678,-0.139,0.72
165156,8036.0,-932.0,32.0,-36.0,-52.0,-133.0,0.044,0.679,-0.138,0.72
165169,7930.0,-996.0,-6.0,-42.0,-64.0,-119.0,0.045,0.68,-0.137,0.719
165192,7962.0,-1112.0,168.0,-19.0,-27.0,-95.0,0.045,0.68,-0.136,0.719
165205,7736.0,-1144.0,116.0,27.0,-122.0,-162.0,0.045,0.681,-0.134,0.718
165228,7976.0,-1178.0,262.0,34.0,-188.0,-249.0,0.046,0.683,-0.132,0.717
165241,8224.0,-1024.0,484.0,-10.0,-167.0,-191.0,0.047,0.684,-0.131,0.716
165264,8140.0,-968.0,478.0,-68.0,-177.0,-157.0,0.048,0.686,-0.13,0.715
165277,8380.0,-1120.0,428.0,-109.0,-197.0,-136.0,0.049,0.687,-0.13,0.713
165290,8418.0,-1090.0,144.0,-155.0,-213.0,-123.0,0.05,0.689,-0.13,0.712
165313,8634.0,-1150.0,-86.0,-189.0,-182.0,-37.0,0.05,0.69,-0.13,0.71
165326,8504.0,-1268.0,-224.0,-278.0,-9.0,124.0,0.051,0.69,-0.133,0.71
165349,8368.0,-1214.0,-80.0,-260.0,-30.0,142.0,0.051,0.69,-0.135,0.709
165362,8188.0,-1144.0,94.0,-193.0,-112.0,-42.0,0.052,0.691,-0.136,0.708
165385,8422.0,-1164.0,120.0,-114.0,-203.0,-116.0,0.053,0.692,-0.136,0.707
165398,8170.0,-1246.0,84.0,-89.0,-114.0,-74.0,0.053,0.693,-0.135,0.706
165421,8364.0,-982.0,130.0,-119.0,13.0,101.0,0.053,0.693,-0.137,0.706
165434,8070.0,-1048.0,-24.0,-136.0,114.0,168.0,0.052,0.692,-0.138,0.707
165457,7958.0,-1238.0,-316.0,-75.0,95.0,147.0,0.052,0.691,-0.139,0.707
165470,7826.0,-1284.0,-216.0,36.0,36.0,66.0,0.051,0.691,-0.139,0.708
165483,8152.0,-1138.0,-16.0,55.0,66.0,83.0,0.049,0.691,-0.139,0.708
165506,8070.0,-1080.0,38.0,86.0,79.0,83.0,0.048,0.69,-0.138,0.709
165519,8044.0,-1046.0,-132.0,95.0,73.0,65.0,0.047,0.69,-0.138,0.709
165542,8174.0,-1126.0,-40.0,95.0,82.0,68.0,0.045,0.689,-0.137,0.71
165555,8146.0,-984.0,102.0,99.0,84.0,73.0,0.044,0.689,-0.137,0.711
165578,8150.0,-1188.0,206.0,73.0,68.0,40.0,0.043,0.688,-0.136,0.711
165591,8388.0,-1962.0,86.0,158.0,179.0,67.0,0.041,0.687,-0.135,0.713
165614,8020.0,-1806.0,-572.0,220.0,380.0,178.0,0.038,0.685,-0.134,0.715
165627,7868.0,-1272.0,-274.0,187.0,311.0,220.0,0.035,0.683,-0.134,0.717
165640,7928.0,-794.0,438.0,256.0,100.0,-63.0,0.034,0.682,-0.131,0.718
165663,8462.0,-608.0,832.0,176.0,44.0,-127.0,0.033,0.682,-0.129,0.719
165676,8146.0,-612.0,742.0,-16.0,164.0,-1.0,0.033,0.681,-0.129,0.72
165699,7858.0,-1184.0,398.0,61.0,78.0,-30.0,0.033,0.681,-0.128,0.721
165712,7964.0,-1028.0,-16.0,48.0,63.0,-48.0,0.033,0.681,-0.127,0.721
165735,7934.0,-1150.0,-70.0,122.0,132.0,-12.0,0.032,0.68,-0.125,0.722
165748,8000.0,-864.0,34.0,179.0,145.0,-30.0,0.031,0.679,-0.124,0.723
165771,7858.0,-984.0,142.0,183.0,120.0,-89.0,0.03,0.679,-0.122,0.724
165784,7976.0,-1124.0,276.0,154.0,38.0,-116.0,0.029,0.679,-0.119,0.724
165807,7924.0,-760.0,438.0,18.0,-166.0,-147.0,0.029,0.68,-0.118,0.723
165820,8196.0,-1278.0,280.0,-87.0,-159.0,-104.0,0.03,0.681,-0.118,0.722
165833,8352.0,-1136.0,188.0,-172.0,-108.0,67.0,0.03,0.682,-0.119,0.721
165856,8272.0,-942.0,182.0,-308.0,13.0,183.0,0.031,0.682,-0.122,0.721
165869,7924.0,-1112.0,342.0,-276.0,-33.0,113.0,0.031,0.682,-0.124,0.72
165892,8074.0,-1276.0,314.0,-267.0,-72.0,12.0,0.032,0.682,-0.126,0.719
165905,8110.0,-1300.0,240.0,-247.0,-31.0,68.0,0.033,0.682,-0.128,0.719
165928,8272.0,-1590.0,244.0,-202.0,4.0,21.0,0.034,0.682,-0.129,0.719
165941,8168.0,-1480.0,118.0,-123.0,-10.0,-37.0,0.034,0.683,-0.129,0.719
165964,8060.0,-1378.0,312.0,-127.0,-1.0,-41.0,0.035,0.683,-0.129,0.718
165977,8114.0,-1488.0,406.0,-128.0,-37.0,-71.0,0.036,0.683,-0.129,0.718
166000,8226.0,-1574.0,86.0,-128.0,-24.0,-68.0,0.036,0.683,-0.13,0.718
166013,8250.0,-1538.0,-162.0,-117.0,48.0,-29.0,0.037,0.683,-0.13,0.718
166026,8206.0,-1398.0,50.0,-33.0,49.0,-52.0,0.037,0.683,-0.13,0.718
166049,8224.0,-1314.0,212.0,10.0,44.0,-64.0,0.037,0.683,-0.129,0.718
166062,8182.0,-1302.0,364.0,80.0,-15.0,-72.0,0.037,0.683,-0.127,0.718
166085,8254.0,-964.0,178.0,13.0,-115.0,-142.0,0.037,0.684,-0.126,0.717
166098,8208.0,-1258.0,254.0,-45.0,-56.0,78.0,0.036,0.685,-0.127,0.717
166121,8072.0,-1282.0,192.0,-41.0,18.0,169.0,0.035,0.684,-0.128,0.717
166134,7884.0,-1014.0,90.0,-19.0,66.0,32.0,0.035,0.684,-0.128,0.717
166157,8104.0,-1176.0,98.0,28.0,-38.0,-9.0,0.034,0.684,-0.127,0.717
166170,8088.0,-1238.0,80.0,21.0,41.0,36.0,0.033,0.684,-0.127,0.717
166183,8136.0,-948.0,188.0,50.0,66.0,93.0,0.032,0.684,-0.127,0.718
166201,7976.0,-686.0,470.0,42.0,75.0,126.0,0.031,0.683,-0.127,0.719
166224,8120.0,-1074.0,280.0,21.0,81.0,138.0,0.029,0.683,-0.127,0.719
166237,8104.0,-1070.0,76.0,17.0,95.0,145.0,0.028,0.682,-0.128,0.72
166260,8142.0,-1012.0,-12.0,-17.0,153.0,143.0,0.027,0.681,-0.128,0.721
166273,7990.0,-1610.0,96.0,29.0,234.0,66.0,0.026,0.679,-0.128,0.722
166296,7798.0,-1448.0,290.0,223.0,70.0,-33.0,0.024,0.679,-0.126,0.723
166309,8104.0,-1180.0,740.0,339.0,-7.0,-71.0,0.022,0.679,-0.123,0.723
166332,8458.0,-918.0,850.0,192.0,26.0,-33.0,0.021,0.679,-0.121,0.724
166345,8096.0,-982.0,580.0,106.0,146.0,52.0,0.02,0.678,-0.12,0.725
166368,7970.0,-648.0,526.0,108.0,27.0,-29.0,0.019,0.678,-0.119,0.725
166381,8188.0,-1000.0,326.0,28.0,-63.0,-149.0,0.019,0.679,-0.118,0.725
166394,8260.0,-1108.0,176.0,65.0,-83.0,-160.0,0.02,0.68,-0.116,0.724
166417,8310.0,-1310.0,292.0,77.0,7.0,-133.0,0.02,0.68,-0.114,0.724
166430,8246.0,-1198.0,346.0,35.0,46.0,-74.0,0.02,0.68,-0.113,0.724
166453,8166.0,-1306.0,540.0,12.0,60.0,-56.0,0.019,0.679,-0.112,0.725
166466,8050.0,-1256.0,354.0,22.0,-72.0,-219.0,0.02,0.68,-0.11,0.724
166489,8232.0,-1346.0,278.0,0.0,16.0,-195.0,0.021,0.68,-0.109,0.724
166502,8168.0,-1126.0,14.0,6.0,90.0,-102.0,0.021,0.68,-0.108,0.725
166525,7806.0,-1562.0,56.0,92.0,98.0,-123.0,0.021,0.68,-0.106,0.725
166538,8042.0,-1058.0,262.0,198.0,39.0,-133.0,0.021,0.68,-0.104,0.726
166551,7844.0,-1056.0,348.0,254.0,-4.0,-177.0,0.02,0.68,-0.101,0.726
166574,8182.0,-1134.0,388.0,253.0,-39.0,-184.0,0.019,0.681,-0.097,0.726
166587,8182.0,-882.0,326.0,232.0,161.0,15.0,0.017,0.68,-0.096,0.727
166610,8052.0,-1050.0,470.0,281.0,92.0,-10.0,0.015,0.679,-0.093,0.728
166623,7872.0,-988.0,536.0,378.0,-7.0,-106.0,0.013,0.679,-0.09,0.728
166646,8220.0,-1338.0,258.0,381.0,93.0,-109.0,0.011,0.679,-0.086,0.729
166659,8042.0,-862.0,480.0,350.0,16.0,-37.0,0.008,0.679,-0.083,0.729
166682,8116.0,-1166.0,518.0,246.0,-66.0,-178.0,0.008,0.68,-0.08,0.729
166695,8050.0,-656.0,466.0,257.0,-92.0,-140.0,0.006,0.681,-0.077,0.729
166718,8312.0,-612.0,434.0,153.0,-60.0,-24.0,0.005,0.681,-0.075,0.728
166731,8238.0,-864.0,378.0,60.0,32.0,100.0,0.004,0.681,-0.075,0.729
166744,8112.0,-996.0,266.0,79.0,7.0,81.0,0.002,0.681,-0.075,0.729
166767,8052.0,-1008.0,244.0,129.0,-56.0,-10.0,0.001,0.681,-0.074,0.728
166780,8222.0,-678.0,696.0,72.0,85.0,-8.0,0.0,0.681,-0.073,0.729
166803,8140.0,-1078.0,640.0,68.0,-38.0,-18.0,0.0,-0.681,0.072,-0.729
166816,8384.0,-1010.0,390.0,42.0,15.0,-3.0,0.001,-0.681,0.071,-0.729
166839,8072.0,-874.0,222.0,16.0,19.0,-6.0,0.002,-0.681,0.071,-0.729
166852,8106.0,-1012.0,222.0,42.0,-10.0,-55.0,0.002,-0.681,0.07,-0.729
166875,8212.0,-890.0,274.0,15.0,-3.0,-55.0,0.002,-0.681,0.069,-0.729
166888,8112.0,-958.0,328.0,23.0,27.0,-17.0,0.003,-0.681,0.068,-0.729
166911,8022.0,-1014.0,400.0,16.0,36.0,17.0,0.003,-0.681,0.068,-0.729
166924,8192.0,-990.0,516.0,36.0,1.0,7.0,0.004,-0.681,0.068,-0.729
166937,8238.0,-1058.0,500.0,6.0,-33.0,-5.0,0.004,-0.682,0.067,-0.729
166960,8172.0,-988.0,496.0,22.0,-17.0,10.0,0.005,-0.682,0.067,-0.729
166973,8332.0,-1152.0,494.0,-4.0,-38.0,28.0,0.006,-0.682,0.067,-0.728
166996,8364.0,-748.0,416.0,-103.0,-78.0,-8.0,0.006,-0.683,0.067,-0.728
167009,8544.0,-908.0,328.0,-177.0,-100.0,9.0,0.005,-0.683,0.068,-0.727
167032,8300.0,-318.0,460.0,-224.0,-88.0,-111.0,0.003,-0.684,0.068,-0.726
167045,8710.0,-368.0,1086.0,-339.0,-350.0,-275.0,0.0,0.687,-0.068,0.724
167068,9208.0,-652.0,1848.0,-555.0,-256.0,-231.0,0.005,0.689,-0.07,0.722
167081,8162.0,-1240.0,1652.0,-718.0,82.0,-24.0,0.009,0.688,-0.075,0.722
167094,8372.0,-1206.0,940.0,-813.0,198.0,45.0,0.014,0.686,-0.08,0.723
167117,8084.0,-1250.0,-380.0,-735.0,283.0,-198.0,0.019,0.685,-0.083,0.724
167130,7842.0,-1296.0,-680.0,-548.0,251.0,-279.0,0.024,0.683,-0.085,0.725
167153,8072.0,-620.0,-90.0,-414.0,278.0,-203.0,0.028,0.682,-0.086,0.726
167166,8046.0,-870.0,180.0,-355.0,291.0,-232.0,0.032,0.68,-0.087,0.727
167189,8148.0,-784.0,674.0,-326.0,308.0,-176.0,0.035,0.678,-0.087,0.729
167202,8200.0,-806.0,702.0,-339.0,270.0,-51.0,0.037,0.676,-0.089,0.731
167225,8262.0,-650.0,776.0,-347.0,269.0,-10.0,0.039,0.674,-0.091,0.732
167238,8320.0,-672.0,696.0,-380.0,240.0,47.0,0.041,0.672,-0.093,0.733
167261,8174.0,-874.0,484.0,-352.0,230.0,106.0,0.043,0.671,-0.096,0.734
167274,7978.0,-936.0,318.0,-347.0,226.0,129.0,0.044,0.669,-0.099,0.735
167287,7962.0,-946.0,406.0,-357.0,220.0,184.0,0.044,0.667,-0.102,0.736
167310,7956.0,-1210.0,508.0,-358.0,280.0,233.0,0.045,0.665,-0.106,0.738
167323,7630.0,-1166.0,454.0,-277.0,150.0,181.0,0.045,0.664,-0.109,0.739
167346,7954.0,-1272.0,338.0,-214.0,121.0,100.0,0.045,0.663,-0.11,0.739
167359,7880.0,-1170.0,780.0,-185.0,126.0,119.0,0.045,0.662,-0.112,0.74
167382,7784.0,-1458.0,910.0,-88.0,74.0,141.0,0.045,0.661,-0.113,0.74
167395,7714.0,-1784.0,884.0,-19.0,42.0,128.0,0.043,0.661,-0.114,0.741
167418,7742.0,-1408.0,890.0,99.0,-62.0,88.0,0.042,0.661,-0.114,0.74
167431,8248.0,-1218.0,798.0,151.0,-94.0,-9.0,0.04,0.662,-0.113,0.74
167454,8444.0,-1096.0,414.0,210.0,-9.0,1.0,0.039,0.662,-0.111,0.74
167467,8420.0,-512.0,454.0,144.0,19.0,116.0,0.037,0.662,-0.11,0.74
167480,8278.0,-692.0,640.0,5.0,76.0,100.0,0.036,0.662,-0.11,0.741
167503,8338.0,-1090.0,678.0,2.0,104.0,271.0,0.033,0.661,-0.112,0.741
167516,7986.0,-1348.0,612.0,88.0,93.0,240.0,0.031,0.66,-0.112,0.742
167539,8210.0,-1332.0,594.0,167.0,54.0,232.0,0.028,0.66,-0.113,0.743
167552,8100.0,-1236.0,484.0,275.0,17.0,126.0,0.025,0.66,-0.111,0.743
167575,7976.0,-1144.0,336.0,309.0,-18.0,31.0,0.023,0.66,-0.109,0.743
167588,7754.0,-1116.0,462.0,357.0,-53.0,-11.0,0.02,0.66,-0.106,0.743
167611,7946.0,-976.0,574.0,428.0,-70.0,-46.0,0.018,0.661,-0.103,0.743
167624,7948.0,-808.0,456.0,415.0,-45.0,10.0,0.015,0.662,-0.1,0.743
167637,7984.0,-818.0,528.0,421.0,-81.0,69.0,0.011,0.662,-0.097,0.743
167660,7912.0,-1006.0,660.0,404.0,-30.0,111.0,0.008,0.663,-0.095,0.743
167673,7964.0,-954.0,566.0,427.0,-83.0,92.0,0.004,0.663,-0.092,0.743
167696,8062.0,-824.0,740.0,415.0,-29.0,216.0,0.0,-0.663,0.09,-0.743
167709,7902.0,-840.0,590.0,441.0,-47.0,177.0,0.005,-0.664,0.088,-0.743
167732,7866.0,-942.0,442.0,465.0,-100.0,99.0,0.008,-0.664,0.085,-0.743
167745,7868.0,-1022.0,412.0,495.0,-92.0,100.0,0.012,-0.665,0.082,-0.742
167768,8126.0,-826.0,616.0,558.0,-123.0,111.0,0.017,-0.666,0.079,-0.742
167781,8068.0,-812.0,606.0,542.0,-98.0,84.0,0.021,-0.666,0.076,-0.742
167804,8134.0,-1062.0,466.0,558.0,-66.0,66.0,0.025,-0.667,0.072,-0.741
167817,8004.0,-898.0,680.0,593.0,-35.0,48.0,0.03,-0.667,0.068,-0.742
167830,8114.0,-660.0,738.0,487.0,3.0,-114.0,0.032,-0.667,0.063,-0.742
167853,8244.0,-598.0,732.0,434.0,144.0,-221.0,0.033,-0.666,0.059,-0.743
167866,8086.0,-522.0,892.0,422.0,-15.0,-181.0,0.035,-0.666,0.055,-0.743
167889,8456.0,-430.0,842.0,337.0,-68.0,-66.0,0.037,-0.666,0.051,-0.743
167902,7654.0,2406.0,3008.0,-15.0,330.0,-172.0,0.035,-0.664,0.05,-0.745
167925,7772.0,-1512.0,1014.0,-294.0,13.0,-151.0,0.033,-0.664,0.051,-0.745
167938,8454.0,-1156.0,668.0,-137.0,-134.0,-208.0,0.031,-0.665,0.05,-0.744
167961,8012.0,-950.0,180.0,-128.0,-86.0,-182.0,0.029,-0.666,0.05,-0.744
167974,8042.0,-252.0,-28.0,-173.0,-133.0,-199.0,0.027,-0.667,0.049,-0.743
167997,8168.0,-450.0,464.0,-179.0,-176.0,-229.0,0.024,-0.669,0.049,-0.741
168010,7876.0,-690.0,618.0,-223.0,-62.0,-139.0,0.022,-0.669,0.049,-0.741
168023,7570.0,-818.0,538.0,-180.0,-94.0,-104.0,0.021,-0.67,0.049,-0.74
168046,8206.0,-582.0,770.0,-191.0,-97.0,-73.0,0.019,-0.671,0.05,-0.739
168059,7840.0,-640.0,506.0,-157.0,-121.0,-233.0,0.017,-0.672,0.049,-0.739
168082,8362.0,-698.0,816.0,-194.0,-83.0,-98.0,0.016,-0.673,0.05,-0.738
168095,8332.0,-766.0,878.0,-219.0,-42.0,-68.0,0.014,-0.673,0.051,-0.738
168118,8256.0,-1060.0,676.0,-178.0,20.0,1.0,0.013,-0.673,0.052,-0.738
168131,8332.0,-810.0,656.0,-140.0,-16.0,-31.0,0.013,-0.673,0.052,-0.737
168154,8204.0,-892.0,516.0,-106.0,-98.0,-160.0,0.011,-0.674,0.052,-0.737
168167,8254.0,-1006.0,498.0,-64.0,-108.0,-168.0,0.01,-0.675,0.051,-0.736
168190,8190.0,-682.0,700.0,-144.0,-73.0,-158.0,0.008,-0.676,0.051,-0.735
168208,8168.0,-1000.0,708.0,-138.0,-94.0,-108.0,0.007,-0.676,0.051,-0.735
168221,8470.0,-1086.0,744.0,-98.0,-60.0,-66.0,0.007,-0.677,0.051,-0.734
168234,7992.0,-1090.0,1190.0,-17.0,-103.0,-94.0,0.006,-0.678,0.05,-0.734
168257,8170.0,-1080.0,1744.0,2.0,-218.0,-174.0,0.006,-0.679,0.049,-0.732
168270,8012.0,-1288.0,1384.0,-27.0,-243.0,-206.0,0.005,-0.681,0.047,-0.731
168293,8132.0,-890.0,1000.0,16.0,-234.0,-172.0,0.004,-0.682,0.046,-0.73
168306,8508.0,-648.0,1318.0,-126.0,-231.0,-153.0,0.003,-0.684,0.046,-0.728
168329,8810.0,-1388.0,764.0,-68.0,40.0,27.0,0.003,-0.684,0.046,-0.728
168342,8512.0,-1722.0,1082.0,-41.0,93.0,80.0,0.004,-0.683,0.047,-0.729
168365,8912.0,-1122.0,1672.0,63.0,77.0,42.0,0.005,-0.682,0.046,-0.73
168378,8904.0,-692.0,2470.0,-51.0,36.0,-56.0,0.004,-0.682,0.046,-0.73
168391,9308.0,-1118.0,2418.0,-121.0,170.0,-14.0,0.004,-0.681,0.046,-0.731
168414,9292.0,-1412.0,1982.0,-121.0,375.0,41.0,0.003,-0.679,0.047,-0.733
168427,9000.0,-1178.0,1716.0,-92.0,521.0,55.0,0.003,-0.675,0.048,-0.736
168450,9244.0,-1004.0,2282.0,-68.0,521.0,-85.0,0.002,-0.671,0.048,-0.739
168463,8632.0,-348.0,3000.0,-178.0,533.0,-83.0,0.001,-0.668,0.048,-0.743
168486,9324.0,-792.0,3814.0,-428.0,668.0,43.0,0.002,0.663,-0.051,0.747
168499,8718.0,-1162.0,4212.0,-457.0,697.0,84.0,0.004,0.658,-0.055,0.751
168522,8850.0,-1520.0,4112.0,-364.0,642.0,126.0,0.005,0.654,-0.058,0.754
168535,9050.0,-926.0,3816.0,-292.0,749.0,286.0,0.005,0.648,-0.061,0.759
168548,8816.0,-2424.0,3364.0,-271.0,888.0,417.0,0.004,0.642,-0.065,0.764
168571,9270.0,-1612.0,4050.0,-150.0,897.0,539.0,0.001,0.635,-0.069,0.769
168584,10172.0,-1308.0,4102.0,-156.0,1039.0,442.0,0.001,-0.628,0.073,-0.775
168607,9654.0,-2524.0,3768.0,-129.0,1278.0,556.0,0.003,-0.618,0.077,-0.782
168620,10420.0,-1120.0,4734.0,-24.0,1283.0,574.0,0.007,-0.608,0.08,-0.79
168643,10852.0,-1458.0,4380.0,-68.0,1442.0,459.0,0.009,-0.597,0.083,-0.798
168656,10228.0,-1906.0,4214.0,-198.0,1770.0,549.0,0.011,-0.584,0.088,-0.807
168679,10734.0,-1764.0,4274.0,96.0,1640.0,136.0,0.012,-0.571,0.088,-0.816
168692,11480.0,-700.0,4474.0,165.0,1786.0,-39.0,0.011,-0.557,0.086,-0.826
168715,11170.0,-1486.0,4694.0,-50.0,2141.0,-49.0,0.009,-0.541,0.086,-0.837
168728,11128.0,-1210.0,5258.0,-76.0,2246.0,-121.0,0.006,-0.523,0.086,-0.848
168741,11010.0,-264.0,4818.0,-131.0,2535.0,-108.0,0.003,-0.503,0.087,-0.86
168764,10568.0,-472.0,5240.0,-147.0,2797.0,-142.0,0.001,0.481,-0.087,0.872
168777,10638.0,-134.0,6378.0,-311.0,2740.0,-274.0,0.006,0.459,-0.088,0.884
168800,10264.0,-224.0,6184.0,-602.0,2901.0,-330.0,0.014,0.435,-0.091,0.896
168813,9820.0,-308.0,5982.0,-743.0,3017.0,-312.0,0.021,0.41,-0.096,0.907
168836,9406.0,-264.0,6290.0,-754.0,3020.0,-290.0,0.029,0.384,-0.1,0.917
168849,9132.0,122.0,5662.0,-812.0,3009.0,-353.0,0.037,0.359,-0.105,0.927
168872,8534.0,-330.0,6136.0,-939.0,3162.0,-250.0,0.045,0.331,-0.111,0.936
168885,8478.0,-1088.0,6846.0,-852.0,3203.0,-266.0,0.053,0.303,-0.116,0.944
168908,7528.0,-322.0,6868.0,-703.0,3129.0,-296.0,0.06,0.275,-0.119,0.952
168921,6818.0,-242.0,7520.0,-605.0,2996.0,-300.0,0.068,0.249,-0.122,0.958
168934,6342.0,-56.0,5232.0,-871.0,2985.0,-226.0,0.075,0.223,-0.127,0.964
168957,5628.0,-754.0,4722.0,-1225.0,3312.0,150.0,0.079,0.193,-0.136,0.969
168970,4812.0,-1752.0,5490.0,-1073.0,3384.0,356.0,0.082,0.161,-0.144,0.973
168993,4072.0,-976.0,6346.0,-755.0,3055.0,307.0,0.084,0.133,-0.148,0.976
169006,3940.0,-954.0,5536.0,-615.0,2794.0,322.0,0.085,0.107,-0.152,0.979
169029,3388.0,-1330.0,4528.0,-803.0,2866.0,432.0,0.085,0.079,-0.158,0.981
169042,3080.0,-1940.0,4372.0,-815.0,2894.0,532.0,0.085,0.052,-0.163,0.982
169065,2350.0,-1536.0,4728.0,-607.0,2729.0,485.0,0.084,0.026,-0.167,0.982
169078,2098.0,-1406.0,4292.0,-451.0,2474.0,444.0,0.083,0.002,-0.169,0.982
169091,1226.0,-1454.0,3310.0,-491.0,2253.0,397.0,0.083,-0.02,-0.172,0.982
169114,1294.0,-1628.0,3830.0,-576.0,2027.0,348.0,0.082,-0.039,-0.175,0.98
169137,1030.0,-1658.0,4010.0,-456.0,1889.0,360.0,0.081,-0.057,-0.178,0.979
169150,762.0,-1666.0,3592.0,-423.0,1717.0,280.0,0.081,-0.073,-0.18,0.978
169163,244.0,-1330.0,2980.0,-562.0,1551.0,231.0,0.081,-0.088,-0.184,0.976
169186,-358.0,-2348.0,3050.0,-730.0,1503.0,204.0,0.08,-0.103,-0.189,0.973
169199,-544.0,-2076.0,3114.0,-582.0,1203.0,107.0,0.081,-0.114,-0.194,0.971
169222,-480.0,-2060.0,3220.0,-446.0,962.0,63.0,0.081,-0.123,-0.197,0.969
169235,-796.0,-2186.0,2594.0,-426.0,822.0,73.0,0.081,-0.131,-0.2,0.968
169258,-1140.0,-2420.0,2280.0,-417.0,636.0,-2.0,0.081,-0.137,-0.203,0.966
169271,-1430.0,-2582.0,2502.0,-509.0,496.0,-58.0,0.082,-0.142,-0.208,0.964
169284,-1482.0,-2924.0,2570.0,-276.0,226.0,-144.0,0.083,-0.144,-0.21,0.964
169307,-1120.0,-2790.0,2362.0,-92.0,36.0,-163.0,0.084,-0.144,-0.211,0.963
169320,-1410.0,-2662.0,2196.0,-18.0,-95.0,-138.0,0.085,-0.142,-0.212,0.963
169343,-1350.0,-2846.0,2172.0,-4.0,-242.0,-132.0,0.085,-0.14,-0.212,0.963
169356,-1270.0,-3146.0,2490.0,114.0,-392.0,-146.0,0.086,-0.136,-0.212,0.964
169379,-1346.0,-2860.0,2762.0,209.0,-577.0,-190.0,0.086,-0.13,-0.21,0.965
169392,-1170.0,-3160.0,2816.0,218.0,-771.0,-196.0,0.087,-0.122,-0.209,0.966
169415,-728.0,-2876.0,2910.0,272.0,-1029.0,-201.0,0.086,-0.112,-0.208,0.968
169428,-512.0,-2802.0,2974.0,288.0,-1159.0,-175.0,0.086,-0.101,-0.206,0.969
169451,98.0,-2532.0,2644.0,343.0,-1336.0,-158.0,0.085,-0.089,-0.205,0.971
169464,618.0,-3064.0,3554.0,365.0,-1384.0,-100.0,0.083,-0.076,-0.202,0.973
169477,812.0,-2918.0,3454.0,464.0,-1505.0,-137.0,0.081,-0.061,-0.199,0.975
169500,472.0,-3212.0,3280.0,692.0,-1588.0,-148.0,0.08,-0.046,-0.194,0.977
169513,972.0,-2502.0,4336.0,877.0,-1889.0,-185.0,0.078,-0.028,-0.188,0.979
169536,1446.0,-2166.0,4984.0,861.0,-2094.0,-198.0,0.076,-0.007,-0.182,0.98
169549,1730.0,-2330.0,4548.0,759.0,-2218.0,-157.0,0.074,0.014,-0.176,0.982
169572,2010.0,-2226.0,5124.0,864.0,-2487.0,-157.0,0.071,0.037,-0.17,0.982
169585,3160.0,-1342.0,5770.0,793.0,-2723.0,-183.0,0.068,0.063,-0.164,0.982
169608,3698.0,-1630.0,5922.0,627.0,-2734.0,-205.0,0.065,0.089,-0.16,0.981
169621,3968.0,-2634.0,5768.0,665.0,-2802.0,-206.0,0.062,0.116,-0.156,0.979
169644,5484.0,-1832.0,5984.0,955.0,-3039.0,-221.0,0.059,0.145,-0.148,0.976
169657,5886.0,-1116.0,7184.0,1074.0,-2833.0,-221.0,0.055,0.172,-0.14,0.974
169670,6504.0,-574.0,7934.0,997.0,-2954.0,-360.0,0.053,0.2,-0.132,0.97
169693,7464.0,-1730.0,7704.0,949.0,-2797.0,-332.0,0.051,0.226,-0.124,0.965
169706,7306.0,-776.0,6710.0,1176.0,-2504.0,-167.0,0.047,0.249,-0.114,0.961
169729,7624.0,-350.0,7404.0,1157.0,-2599.0,-180.0,0.043,0.273,-0.104,0.955
169742,8068.0,-994.0,8444.0,1126.0,-2463.0,-282.0,0.04,0.296,-0.094,0.95
169765,8266.0,-50.0,8498.0,1209.0,-2403.0,-268.0,0.037,0.317,-0.084,0.944
169778,8262.0,-70.0,8884.0,940.0,-2293.0,-338.0,0.036,0.338,-0.075,0.937
169801,7842.0,-1632.0,8088.0,670.0,-1896.0,-196.0,0.034,0.355,-0.07,0.932
169814,8514.0,510.0,7830.0,1096.0,-2459.0,440.0,0.025,0.376,-0.062,0.924
169827,8438.0,122.0,8250.0,749.0,-1978.0,168.0,0.02,0.394,-0.057,0.917
169850,7654.0,-544.0,7338.0,822.0,-2301.0,-528.0,0.02,0.414,-0.048,0.909
169863,8712.0,-890.0,7922.0,866.0,-2137.0,-11.0,0.015,0.432,-0.041,0.901
169886,7980.0,344.0,7270.0,793.0,-1850.0,-84.0,0.012,0.447,-0.035,0.894
169899,8786.0,354.0,6594.0,540.0,-1844.0,-75.0,0.01,0.463,-0.03,0.886
169922,8444.0,-420.0,6874.0,474.0,-1555.0,72.0,0.007,0.476,-0.026,0.879
169935,8244.0,62.0,7448.0,467.0,-1630.0,-58.0,0.005,0.489,-0.023,0.872
169958,8286.0,-86.0,7078.0,362.0,-1686.0,-171.0,0.004,0.503,-0.019,0.864
169971,8210.0,256.0,6562.0,259.0,-1774.0,-189.0,0.004,0.517,-0.016,0.856
169994,8320.0,6.0,5616.0,95.0,-1634.0,-168.0,0.005,0.53,-0.015,0.848
170007,8722.0,-332.0,5482.0,43.0,-1343.0,140.0,0.004,0.541,-0.015,0.841
170020,8812.0,-164.0,6060.0,-119.0,-1035.0,228.0,0.002,0.549,-0.017,0.836
170043,8356.0,84.0,6230.0,-158.0,-1090.0,157.0,0.002,0.557,-0.019,0.83
170056,8452.0,-6.0,5308.0,-303.0,-1030.0,169.0,0.002,0.565,-0.022,0.825
170079,8316.0,-504.0,4860.0,-347.0,-916.0,217.0,0.001,0.572,-0.026,0.82
170092,8498.0,-462.0,5000.0,-358.0,-860.0,274.0,0.001,0.579,-0.03,0.815
170115,8220.0,-910.0,5408.0,-434.0,-751.0,194.0,0.002,0.584,-0.035,0.811
170128,8556.0,-158.0,4982.0,-460.0,-745.0,161.0,0.003,0.59,-0.039,0.806
170151,8504.0,-894.0,4692.0,-462.0,-504.0,209.0,0.003,0.594,-0.044,0.803
170164,7842.0,-1130.0,5152.0,-407.0,-482.0,240.0,0.003,0.597,-0.048,0.801
170187,8300.0,-942.0,5258.0,-509.0,-525.0,71.0,0.005,0.601,-0.052,0.797
170200,8556.0,-926.0,5150.0,-503.0,-454.0,117.0,0.007,0.605,-0.056,0.795
170218,8816.0,-970.0,5592.0,-517.0,-333.0,82.0,0.009,0.607,-0.061,0.792
170231,8594.0,-1374.0,4856.0,-577.0,-136.0,62.0,0.011,0.608,-0.065,0.791
170254,8900.0,-1450.0,5262.0,-579.0,60.0,165.0,0.013,0.607,-0.07,0.791
170267,9286.0,-1142.0,5852.0,-533.0,144.0,116.0,0.015,0.606,-0.075,0.792
170290,9412.0,-1894.0,6068.0,-489.0,360.0,32.0,0.018,0.603,-0.078,0.793
170303,9212.0,-1414.0,6188.0,-448.0,441.0,17.0,0.02,0.6,-0.082,0.795
170326,10010.0,-1294.0,6258.0,-458.0,569.0,-32.0,0.024,0.596,-0.085,0.798
170339,10602.0,-1856.0,5776.0,-520.0,991.0,176.0,0.026,0.588,-0.089,0.803
170362,9902.0,-1972.0,5966.0,-452.0,1371.0,319.0,0.027,0.578,-0.094,0.81
170375,10064.0,-1432.0,6872.0,-323.0,1295.0,127.0,0.029,0.568,-0.097,0.817
170388,10446.0,-1516.0,6906.0,-354.0,1463.0,35.0,0.031,0.556,-0.099,0.824
170411,10504.0,-1210.0,6906.0,-476.0,1524.0,84.0,0.034,0.544,-0.103,0.832
170424,11190.0,-2296.0,7078.0,-580.0,1954.0,343.0,0.036,0.529,-0.108,0.841
170447,10586.0,-1006.0,6880.0,-395.0,1996.0,256.0,0.038,0.513,-0.112,0.851
170460,10598.0,-456.0,7218.0,-509.0,1863.0,42.0,0.041,0.498,-0.115,0.859
170483,11258.0,-826.0,6916.0,-760.0,1982.0,106.0,0.046,0.481,-0.121,0.867
170496,11814.0,-1170.0,6134.0,-815.0,2460.0,413.0,0.049,0.46,-0.128,0.877
170519,10710.0,-2594.0,6832.0,-676.0,2945.0,486.0,0.051,0.435,-0.134,0.889
170532,10306.0,-1622.0,6158.0,-305.0,2957.0,234.0,0.053,0.41,-0.136,0.9
170555,9866.0,-1072.0,6730.0,-330.0,3090.0,62.0,0.057,0.384,-0.137,0.911
170568,9656.0,-70.0,7974.0,-480.0,2845.0,-116.0,0.063,0.36,-0.139,0.92
170581,9802.0,-1094.0,8142.0,-764.0,3059.0,62.0,0.069,0.333,-0.144,0.929
170604,9016.0,-1116.0,6608.0,-969.0,3287.0,460.0,0.072,0.303,-0.151,0.938
170617,8188.0,-1570.0,5500.0,-1128.0,3660.0,739.0,0.073,0.269,-0.16,0.947
170640,7152.0,-1968.0,5432.0,-957.0,3651.0,726.0,0.074,0.235,-0.168,0.954
170653,6728.0,-1684.0,5628.0,-788.0,3383.0,530.0,0.076,0.204,-0.174,0.96
170676,5958.0,-1720.0,5716.0,-641.0,3380.0,557.0,0.077,0.174,-0.178,0.966
170689,5570.0,-1178.0,4958.0,-680.0,3268.0,636.0,0.078,0.144,-0.182,0.97
170712,5268.0,-1230.0,4092.0,-812.0,3237.0,754.0,0.077,0.112,-0.188,0.973
170725,4438.0,-2002.0,4140.0,-832.0,3213.0,767.0,0.076,0.081,-0.194,0.975
170748,3506.0,-2152.0,4528.0,-678.0,2923.0,601.0,0.075,0.053,-0.198,0.976
170761,3124.0,-1568.0,4048.0,-630.0,2577.0,352.0,0.077,0.029,-0.203,0.976
170774,3030.0,-1872.0,3642.0,-635.0,2388.0,250.0,0.079,0.006,-0.207,0.975
170797,2154.0,-950.0,3594.0,-694.0,2265.0,321.0,0.08,-0.015,-0.211,0.974
170810,1912.0,-1640.0,3612.0,-778.0,2158.0,390.0,0.08,-0.036,-0.217,0.972
170833,1294.0,-2292.0,3158.0,-654.0,2093.0,445.0,0.079,-0.056,-0.221,0.97
170846,600.0,-2364.0,2682.0,-466.0,1940.0,396.0,0.079,-0.075,-0.223,0.969
170869,148.0,-2100.0,2538.0,-349.0,1726.0,305.0,0.079,-0.091,-0.225,0.967
170882,-36.0,-2006.0,2620.0,-411.0,1538.0,237.0,0.08,-0.106,-0.227,0.965
170905,-96.0,-2486.0,2124.0,-371.0,1476.0,228.0,0.08,-0.12,-0.229,0.963
170918,-612.0,-2524.0,1978.0,-170.0,1359.0,164.0,0.081,-0.132,-0.23,0.961
170941,-1008.0,-2356.0,2112.0,-23.0,1135.0,111.0,0.082,-0.143,-0.229,0.959
170954,-1442.0,-2642.0,2066.0,-35.0,986.0,101.0,0.083,-0.151,-0.228,0.958
170967,-1628.0,-2456.0,1882.0,48.0,707.0,68.0,0.083,-0.158,-0.227,0.957
170990,-1814.0,-2512.0,1768.0,92.0,491.0,85.0,0.084,-0.162,-0.226,0.957
171003,-1994.0,-2516.0,1764.0,85.0,214.0,71.0,0.083,-0.164,-0.225,0.957
171026,-1958.0,-3004.0,990.0,164.0,-41.0,42.0,0.083,-0.164,-0.224,0.957
171039,-1720.0,-1990.0,1274.0,247.0,-323.0,-4.0,0.082,-0.161,-0.222,0.958
171062,-1656.0,-2228.0,1968.0,108.0,-494.0,-18.0,0.081,-0.156,-0.221,0.959
171075,-1954.0,-2780.0,2290.0,93.0,-759.0,-124.0,0.081,-0.149,-0.221,0.96
171098,-1398.0,-2310.0,2262.0,85.0,-1119.0,-216.0,0.08,-0.138,-0.221,0.962
171111,-770.0,-2598.0,2046.0,-18.0,-1326.0,-260.0,0.08,-0.126,-0.223,0.963
171124,-964.0,-3860.0,1426.0,94.0,-1426.0,-355.0,0.08,-0.112,-0.223,0.965
171147,-270.0,-2540.0,2446.0,466.0,-1826.0,-479.0,0.081,-0.094,-0.221,0.967
171160,772.0,-1340.0,3496.0,373.0,-1914.0,-390.0,0.081,-0.076,-0.219,0.969
171183,646.0,-2580.0,3742.0,184.0,-1849.0,-296.0,0.08,-0.058,-0.219,0.971
171196,584.0,-2658.0,3734.0,289.0,-2046.0,-358.0,0.079,-0.039,-0.218,0.972
171219,1306.0,-3046.0,3884.0,460.0,-2215.0,-338.0,0.077,-0.017,-0.216,0.973
171232,2046.0,-2694.0,4138.0,575.0,-2347.0,-382.0,0.076,0.005,-0.212,0.974
171255,2588.0,-2384.0,5328.0,673.0,-2348.0,-371.0,0.075,0.028,-0.208,0.975
171268,2990.0,-3030.0,4914.0,836.0,-2323.0,-357.0,0.073,0.05,-0.202,0.975
171281,3416.0,-2098.0,6084.0,962.0,-2428.0,-365.0,0.071,0.074,-0.194,0.976
171304,3658.0,-2498.0,6436.0,820.0,-2517.0,-420.0,0.07,0.098,-0.188,0.975
171317,4236.0,-2514.0,6544.0,881.0,-2617.0,-451.0,0.068,0.124,-0.181,0.973
171340,4770.0,-2176.0,7204.0,924.0,-2631.0,-390.0,0.066,0.15,-0.174,0.971
171353,5076.0,-1880.0,7396.0,976.0,-2851.0,-411.0,0.064,0.177,-0.166,0.968
171376,6128.0,-2756.0,7824.0,930.0,-2892.0,-519.0,0.063,0.204,-0.159,0.964
171389,6738.0,-1606.0,7580.0,1117.0,-2912.0,-509.0,0.061,0.232,-0.15,0.959
171412,7710.0,-1298.0,7102.0,1126.0,-2760.0,-398.0,0.058,0.257,-0.14,0.954
171425,7968.0,-2078.0,7626.0,1129.0,-2540.0,-322.0,0.055,0.281,-0.131,0.949
171448,8308.0,-638.0,7740.0,1219.0,-2580.0,-347.0,0.052,0.305,-0.12,0.943
171461,8250.0,-986.0,8716.0,1283.0,-2479.0,-403.0,0.049,0.328,-0.109,0.937
171484,7856.0,-1336.0,8528.0,1340.0,-2444.0,-390.0,0.046,0.35,-0.097,0.931
171497,9210.0,450.0,7850.0,1082.0,-2559.0,170.0,0.039,0.372,-0.089,0.923
171510,8584.0,-82.0,6780.0,709.0,-1838.0,395.0,0.031,0.388,-0.085,0.917
171533,8476.0,-262.0,6764.0,950.0,-1859.0,44.0,0.026,0.404,-0.078,0.911
171546,8446.0,274.0,7560.0,1449.0,-2556.0,-533.0,0.023,0.426,-0.064,0.902
171569,9298.0,376.0,7948.0,1064.0,-2245.0,-135.0,0.019,0.445,-0.055,0.893
171582,8038.0,-656.0,7094.0,872.0,-2329.0,-413.0,0.018,0.465,-0.047,0.884
171605,9124.0,142.0,6798.0,890.0,-2408.0,-304.0,0.015,0.485,-0.039,0.873
171618,10578.0,-58.0,6790.0,428.0,-1541.0,314.0,0.01,0.498,-0.037,0.867
171641,8948.0,128.0,6162.0,400.0,-1304.0,428.0,0.004,0.508,-0.036,0.861
171654,9102.0,124.0,6182.0,420.0,-1596.0,-24.0,0.002,0.521,-0.032,0.853
171667,8700.0,-522.0,6134.0,224.0,-1202.0,85.0,0.0,-0.53,0.031,-0.847
171690,8652.0,-420.0,6820.0,259.0,-1226.0,-58.0,0.001,-0.54,0.029,-0.841
171703,8094.0,-510.0,5768.0,267.0,-1120.0,-149.0,0.002,-0.549,0.026,-0.835
171726,8664.0,-240.0,5664.0,150.0,-975.0,-53.0,0.002,-0.557,0.024,-0.83
171739,7800.0,-372.0,6276.0,88.0,-684.0,83.0,0.004,-0.562,0.024,-0.827
171762,7702.0,-174.0,6826.0,-47.0,-824.0,-11.0,0.003,-0.568,0.024,-0.822
171775,7662.0,-640.0,6490.0,-157.0,-810.0,-44.0,0.002,-0.574,0.025,-0.818
171798,8552.0,-936.0,5974.0,-374.0,-437.0,366.0,0.003,-0.578,0.03,-0.816
171811,7564.0,-400.0,5046.0,-362.0,-258.0,350.0,0.004,-0.58,0.035,-0.814
171824,8658.0,-1822.0,6284.0,-402.0,-32.0,302.0,0.004,-0.58,0.04,-0.814
171847,9194.0,-784.0,7292.0,-95.0,-102.0,22.0,0.004,-0.581,0.04,-0.813
171860,9022.0,350.0,8424.0,-94.0,-128.0,-241.0,0.002,-0.582,0.04,-0.812
171883,9064.0,140.0,8504.0,-512.0,261.0,-165.0,0.002,0.58,-0.043,0.814
171896,9192.0,-1386.0,7612.0,-695.0,736.0,279.0,0.004,0.574,-0.049,0.817
171919,8922.0,-1524.0,8096.0,-500.0,589.0,-132.0,0.008,0.57,-0.052,0.82
171932,10008.0,-1110.0,7926.0,-382.0,959.0,68.0,0.009,0.562,-0.056,0.825
171955,9342.0,-1198.0,7906.0,-433.0,1266.0,55.0,0.012,0.553,-0.059,0.831
171968,9778.0,-1378.0,8724.0,-558.0,1351.0,-48.0,0.016,0.542,-0.063,0.838
171991,9968.0,-1098.0,8076.0,-651.0,1465.0,-29.0,0.02,0.53,-0.067,0.845
172004,10738.0,-1746.0,8176.0,-705.0,1961.0,259.0,0.022,0.515,-0.074,0.854
172027,10022.0,-1466.0,8828.0,-519.0,1968.0,95.0,0.025,0.499,-0.078,0.863
172040,10248.0,-1460.0,8262.0,-648.0,2130.0,129.0,0.028,0.481,-0.083,0.872
172053,10836.0,-1226.0,8654.0,-691.0,2196.0,189.0,0.031,0.463,-0.089,0.881
172076,11542.0,-1666.0,8272.0,-726.0,2517.0,313.0,0.034,0.442,-0.095,0.891
172089,10980.0,-1732.0,8314.0,-610.0,2808.0,481.0,0.034,0.418,-0.101,0.902
172112,10088.0,-1280.0,7652.0,-482.0,2848.0,585.0,0.034,0.393,-0.106,0.913
172125,9738.0,-1414.0,6838.0,-500.0,3001.0,640.0,0.033,0.367,-0.112,0.923
172148,9540.0,-1406.0,6882.0,-617.0,2955.0,623.0,0.032,0.34,-0.118,0.932
172161,9526.0,-1390.0,7744.0,-586.0,2911.0,654.0,0.031,0.314,-0.125,0.941
172184,9312.0,-542.0,7944.0,-436.0,2925.0,771.0,0.029,0.287,-0.13,0.949
172197,8452.0,-1364.0,4892.0,-609.0,3315.0,1003.0,0.025,0.256,-0.137,0.957
172225,7000.0,-2012.0,4306.0,-674.0,3546.0,1240.0,0.02,0.224,-0.145,0.964
172238,6318.0,-1308.0,5640.0,-468.0,3146.0,909.0,0.016,0.195,-0.15,0.969
172251,6690.0,-1816.0,7434.0,-342.0,2730.0,550.0,0.016,0.17,-0.153,0.973
172264,5058.0,-1124.0,6298.0,-10.0,2044.0,99.0,0.017,0.152,-0.153,0.976
172287,5974.0,-1254.0,4058.0,-588.0,2704.0,466.0,0.017,0.126,-0.159,0.979
172300,3864.0,-2042.0,4044.0,-499.0,2484.0,785.0,0.014,0.102,-0.164,0.981
172323,5578.0,-742.0,5724.0,-924.0,2902.0,1229.0,0.008,0.075,-0.172,0.982
172336,3216.0,-1008.0,5466.0,-987.0,3365.0,1418.0,0.001,0.042,-0.182,0.982
172359,1710.0,-1570.0,3824.0,-856.0,2817.0,1014.0,0.004,-0.015,0.19,-0.982
172372,1606.0,-2440.0,2492.0,-556.0,2302.0,778.0,0.007,0.008,0.195,-0.981
172395,1344.0,-1778.0,3328.0,-438.0,2149.0,418.0,0.008,0.028,0.199,-0.979
172408,1846.0,-580.0,4780.0,-355.0,1849.0,376.0,0.008,0.046,0.203,-0.978
172421,1318.0,-1636.0,3392.0,-685.0,1937.0,402.0,0.009,0.064,0.209,-0.976
172444,-336.0,-2854.0,1584.0,-565.0,1823.0,348.0,0.009,0.081,0.214,-0.973
172457,-330.0,-1922.0,2726.0,-220.0,1383.0,130.0,0.008,0.094,0.216,-0.972
172480,-270.0,-1102.0,3554.0,-215.0,1158.0,-10.0,0.006,0.104,0.218,-0.97
172493,-866.0,-1732.0,3288.0,-435.0,1081.0,43.0,0.005,0.114,0.222,-0.968
172516,-1476.0,-2070.0,2618.0,-472.0,893.0,78.0,0.004,0.122,0.226,-0.966
172529,-1700.0,-1870.0,1724.0,-505.0,603.0,-37.0,0.003,0.127,0.231,-0.965
172552,-1950.0,-1978.0,1452.0,-499.0,393.0,0.0,0.003,0.131,0.235,-0.963
172565,-1948.0,-2264.0,1526.0,-396.0,246.0,6.0,0.004,0.133,0.239,-0.962
172578,-2144.0,-2716.0,1738.0,-281.0,86.0,-23.0,0.004,0.133,0.241,-0.961
172601,-2174.0,-2492.0,1286.0,-113.0,-49.0,-26.0,0.004,0.133,0.242,-0.961
172614,-2342.0,-2498.0,1652.0,-19.0,-270.0,23.0,0.005,0.13,0.243,-0.961
172637,-2438.0,-2512.0,1832.0,42.0,-465.0,20.0,0.006,0.126,0.242,-0.962
172650,-2428.0,-2624.0,2224.0,40.0,-713.0,7.0,0.008,0.12,0.242,-0.963
172673,-1954.0,-2692.0,2238.0,149.0,-936.0,-30.0,0.01,0.111,0.24,-0.964
172686,-1904.0,-2280.0,2444.0,170.0,-1168.0,-43.0,0.012,0.101,0.239,-0.966
172709,-1458.0,-2596.0,2492.0,23.0,-1380.0,-93.0,0.014,0.088,0.238,-0.967
172722,-970.0,-2446.0,2816.0,-38.0,-1590.0,-242.0,0.016,0.073,0.239,-0.968
172745,-170.0,-2608.0,2650.0,-77.0,-1577.0,-428.0,0.016,0.058,0.239,-0.969
172758,-130.0,-2616.0,3154.0,21.0,-1663.0,-471.0,0.015,0.042,0.239,-0.97
172771,14.0,-3098.0,3366.0,-2.0,-1796.0,-452.0,0.015,0.024,0.239,-0.971
172794,736.0,-2740.0,3910.0,153.0,-2073.0,-504.0,0.015,0.004,0.238,-0.971
172807,1578.0,-2686.0,3990.0,253.0,-2113.0,-514.0,0.016,-0.016,0.235,-0.972
172830,1600.0,-2958.0,4556.0,404.0,-2200.0,-517.0,0.016,-0.037,0.231,-0.972
172843,1860.0,-2658.0,4586.0,398.0,-2344.0,-551.0,0.016,-0.059,0.227,-0.972
172866,2866.0,-2294.0,5134.0,258.0,-2612.0,-614.0,0.016,-0.084,0.223,-0.971
172879,3882.0,-3280.0,5756.0,242.0,-2589.0,-655.0,0.016,-0.11,0.22,-0.969
172902,4396.0,-3262.0,5722.0,453.0,-2589.0,-701.0,0.015,-0.135,0.215,-0.967
172915,4968.0,-2902.0,5416.0,685.0,-2549.0,-703.0,0.014,-0.16,0.208,-0.965
172938,5010.0,-2634.0,6758.0,736.0,-2638.0,-681.0,0.014,-0.185,0.199,-0.962
172951,6080.0,-2758.0,7676.0,637.0,-2682.0,-794.0,0.013,-0.211,0.192,-0.958
172964,6604.0,-2622.0,7204.0,645.0,-2657.0,-776.0,0.012,-0.236,0.184,-0.954
172987,7168.0,-2514.0,6024.0,726.0,-2383.0,-728.0,0.011,-0.258,0.176,-0.95
173000,7178.0,-2958.0,6554.0,840.0,-2345.0,-669.0,0.011,-0.28,0.167,-0.945
173023,7700.0,-2780.0,7178.0,839.0,-2281.0,-688.0,0.011,-0.301,0.157,-0.941
173036,8830.0,-1226.0,8138.0,788.0,-2388.0,-673.0,0.011,-0.323,0.148,-0.935
173059,8068.0,-1986.0,7408.0,783.0,-2319.0,-871.0,0.009,-0.344,0.138,-0.929
173072,9176.0,-3084.0,7612.0,642.0,-1861.0,-452.0,0.009,-0.36,0.131,-0.923
173095,8064.0,-1952.0,8342.0,1052.0,-2895.0,-87.0,0.015,-0.385,0.122,-0.915
173108,7904.0,-348.0,6294.0,739.0,-2469.0,-1129.0,0.011,-0.407,0.111,-0.906
173121,9652.0,-1938.0,5864.0,679.0,-2191.0,-468.0,0.012,-0.426,0.103,-0.899
173144,8888.0,-3242.0,6656.0,725.0,-1766.0,-473.0,0.012,-0.441,0.095,-0.892
173157,8542.0,-712.0,7540.0,896.0,-2085.0,-532.0,0.013,-0.459,0.085,-0.884
173180,8780.0,-1422.0,7312.0,631.0,-1983.0,-712.0,0.012,-0.476,0.077,-0.876
173193,8982.0,-1080.0,5834.0,691.0,-1968.0,-447.0,0.012,-0.492,0.069,-0.868
173216,9752.0,-1526.0,5658.0,549.0,-1546.0,-282.0,0.013,-0.505,0.063,-0.861
173229,8706.0,-576.0,6670.0,551.0,-1568.0,-245.0,0.015,-0.517,0.058,-0.854
173252,8946.0,-1362.0,6550.0,427.0,-1641.0,-361.0,0.015,-0.53,0.052,-0.846
173265,8798.0,-1748.0,5476.0,461.0,-1538.0,-295.0,0.015,-0.543,0.047,-0.839
173288,8818.0,-974.0,4968.0,485.0,-1365.0,-183.0,0.017,-0.553,0.042,-0.832
173301,9106.0,-712.0,4782.0,320.0,-1195.0,-51.0,0.019,-0.562,0.039,-0.826
173314,8680.0,-582.0,6098.0,237.0,-1144.0,-25.0,0.02,-0.571,0.037,-0.82
173337,8200.0,-878.0,5880.0,248.0,-1178.0,-167.0,0.021,-0.58,0.034,-0.814
173350,8590.0,-718.0,4946.0,264.0,-1161.0,-100.0,0.022,-0.589,0.032,-0.807
173373,8496.0,-978.0,4286.0,169.0,-996.0,37.0,0.023,-0.596,0.03,-0.802
173386,8412.0,-840.0,5250.0,67.0,-926.0,-13.0,0.024,-0.603,0.03,-0.797
173409,8276.0,-578.0,5782.0,31.0,-1004.0,-130.0,0.023,-0.611,0.028,-0.791
173422,8808.0,-532.0,5470.0,1.0,-995.0,-191.0,0.022,-0.618,0.027,-0.785
173445,9012.0,-1056.0,5106.0,-10.0,-952.0,-85.0,0.021,-0.625,0.027,-0.78
173458,9190.0,-1226.0,5186.0,-255.0,-525.0,-162.0,0.019,-0.629,0.027,-0.777
173471,9406.0,-1148.0,5312.0,-311.0,-258.0,94.0,0.018,-0.631,0.03,-0.775
173494,10334.0,-856.0,6242.0,-623.0,135.0,419.0,0.017,-0.63,0.037,-0.775
173507,8732.0,-1126.0,5596.0,-807.0,586.0,701.0,0.017,-0.626,0.047,-0.778
173530,8352.0,-1616.0,6186.0,-544.0,308.0,58.0,0.015,-0.624,0.052,-0.78
173543,9776.0,-2282.0,6184.0,-399.0,505.0,-111.0,0.011,-0.62,0.054,-0.783
173566,10266.0,-1898.0,6642.0,-386.0,876.0,142.0,0.01,-0.614,0.058,-0.787
173579,10070.0,-1460.0,6756.0,-390.0,1145.0,206.0,0.009,-0.605,0.062,-0.794
173602,10598.0,-1430.0,7490.0,-518.0,1268.0,178.0,0.006,-0.596,0.067,-0.8
173615,10850.0,-2682.0,7006.0,-587.0,1586.0,105.0,0.003,-0.584,0.071,-0.809
173638,11124.0,-1674.0,7514.0,-447.0,1635.0,223.0,0.001,-0.571,0.076,-0.817
173651,11316.0,-1426.0,7516.0,-517.0,1888.0,123.0,0.002,0.557,-0.081,0.827
173674,11452.0,-2428.0,7310.0,-620.0,2050.0,227.0,0.005,0.541,-0.086,0.837
173687,11830.0,-1206.0,6746.0,-688.0,2480.0,584.0,0.005,0.521,-0.094,0.848
173700,11686.0,-1448.0,6460.0,-764.0,2665.0,499.0,0.007,0.499,-0.103,0.86
173723,11908.0,-2892.0,6604.0,-770.0,2937.0,530.0,0.009,0.475,-0.111,0.873
173736,11116.0,-1718.0,7374.0,-479.0,2903.0,460.0,0.01,0.45,-0.117,0.885
173759,11102.0,-1608.0,7010.0,-458.0,3010.0,392.0,0.012,0.425,-0.122,0.897
173772,10944.0,-1530.0,6804.0,-539.0,3075.0,497.0,0.013,0.399,-0.128,0.908
173795,10758.0,-1602.0,6444.0,-708.0,3138.0,563.0,0.015,0.371,-0.135,0.919
173808,10192.0,-2392.0,6980.0,-741.0,3337.0,708.0,0.015,0.341,-0.143,0.929
173821,9386.0,-1342.0,7364.0,-590.0,3293.0,705.0,0.015,0.312,-0.15,0.938
173844,9002.0,-1530.0,6832.0,-715.0,3336.0,672.0,0.015,0.281,-0.158,0.946
173857,8238.0,-1460.0,5694.0,-939.0,3404.0,800.0,0.015,0.25,-0.167,0.954
173880,7216.0,-3178.0,5238.0,-1125.0,3612.0,974.0,0.015,0.216,-0.179,0.96
173893,4990.0,-3568.0,5662.0,-831.0,3324.0,947.0,0.013,0.185,-0.188,0.964
173916,5168.0,-1398.0,6446.0,-549.0,2754.0,882.0,0.01,0.159,-0.194,0.968
173929,5056.0,-566.0,6480.0,-872.0,2767.0,791.0,0.01,0.134,-0.202,0.97
173952,4522.0,-1858.0,4710.0,-879.0,2603.0,985.0,0.006,0.108,-0.211,0.972
173965,4306.0,-1798.0,4252.0,-938.0,2636.0,1221.0,0.001,0.082,-0.22,0.972
173988,3632.0,-3438.0,4148.0,-870.0,2767.0,1206.0,0.004,-0.055,0.229,-0.972
174001,2624.0,-2352.0,4100.0,-528.0,2549.0,1168.0,0.009,-0.029,0.234,-0.972
174014,2172.0,-1862.0,4630.0,-407.0,2279.0,1001.0,0.013,-0.006,0.238,-0.971
174037,2424.0,-1672.0,3218.0,-457.0,2214.0,894.0,0.017,0.016,0.243,-0.97
174050,1726.0,-2628.0,2464.0,-427.0,2436.0,998.0,0.021,0.04,0.247,-0.968
174073,1070.0,-2430.0,2240.0,-202.0,2414.0,958.0,0.024,0.064,0.248,-0.966
174086,242.0,-1934.0,2628.0,-1.0,2289.0,833.0,0.027,0.086,0.248,-0.964
174109,16.0,-1940.0,3008.0,-27.0,2060.0,704.0,0.029,0.106,0.249,-0.962
174122,-538.0,-2130.0,2230.0,-64.0,2033.0,644.0,0.03,0.126,0.249,-0.96
174145,-1148.0,-2340.0,2762.0,-45.0,1877.0,557.0,0.031,0.144,0.249,-0.957
174158,-1382.0,-1996.0,2830.0,8.0,1531.0,377.0,0.031,0.158,0.249,-0.955
174181,-1476.0,-2362.0,1978.0,-34.0,1450.0,289.0,0.031,0.172,0.249,-0.953
174194,-2320.0,-2374.0,2094.0,65.0,1220.0,244.0,0.03,0.183,0.249,-0.951
174207,-2032.0,-1850.0,1624.0,8.0,922.0,157.0,0.029,0.191,0.249,-0.949
174235,-2554.0,-2370.0,1984.0,-136.0,893.0,163.0,0.029,0.2,0.25,-0.947
174248,-2732.0,-2816.0,2022.0,-12.0,589.0,153.0,0.029,0.205,0.25,-0.946
174261,-2622.0,-1796.0,1742.0,90.0,337.0,113.0,0.029,0.208,0.249,-0.945
174284,-2804.0,-2490.0,1572.0,124.0,208.0,110.0,0.03,0.21,0.248,-0.945
174297,-3104.0,-2388.0,1506.0,158.0,32.0,62.0,0.03,0.211,0.246,-0.946
174320,-3370.0,-2286.0,1544.0,81.0,-180.0,-31.0,0.03,0.209,0.245,-0.946
174333,-2624.0,-2382.0,1914.0,45.0,-464.0,-101.0,0.03,0.205,0.245,-0.947
174356,-2860.0,-2780.0,1862.0,117.0,-551.0,-180.0,0.03,0.199,0.244,-0.949
174369,-3048.0,-2734.0,1602.0,283.0,-812.0,-273.0,0.029,0.192,0.242,-0.951
174382,-2648.0,-2308.0,1910.0,331.0,-1093.0,-345.0,0.028,0.181,0.239,-0.953
174405,-1764.0,-2204.0,2466.0,399.0,-1341.0,-339.0,0.027,0.169,0.236,-0.957
174418,-2110.0,-2468.0,2712.0,359.0,-1351.0,-325.0,0.026,0.156,0.233,-0.96
174441,-2198.0,-2228.0,2638.0,425.0,-1684.0,-371.0,0.026,0.14,0.229,-0.963
174454,-1410.0,-1868.0,2746.0,320.0,-1971.0,-392.0,0.026,0.122,0.226,-0.966
174477,-1060.0,-1806.0,3566.0,106.0,-2127.0,-427.0,0.027,0.102,0.225,-0.969
174490,-912.0,-2614.0,4740.0,52.0,-2291.0,-409.0,0.028,0.08,0.224,-0.971
174513,-330.0,-3088.0,4460.0,151.0,-2613.0,-503.0,0.028,0.055,0.223,-0.973
174526,146.0,-3108.0,3156.0,313.0,-2864.0,-630.0,0.028,0.028,0.219,-0.975
174549,1004.0,-1890.0,3316.0,246.0,-2827.0,-735.0,0.027,0.001,0.216,-0.976
174562,1936.0,-2304.0,5278.0,167.0,-2948.0,-612.0,0.027,-0.027,0.214,-0.976
174575,3002.0,-2530.0,6442.0,192.0,-2933.0,-572.0,0.028,-0.055,0.211,-0.975
174598,3040.0,-2894.0,5538.0,220.0,-2983.0,-567.0,0.029,-0.084,0.208,-0.974
174611,3646.0,-4150.0,5056.0,261.0,-3010.0,-625.0,0.029,-0.113,0.205,-0.972
174634,4770.0,-2842.0,5838.0,539.0,-3166.0,-626.0,0.029,-0.143,0.198,-0.969
174647,5762.0,-1910.0,8078.0,435.0,-3185.0,-581.0,0.03,-0.172,0.193,-0.966
174670,6650.0,-2040.0,7780.0,213.0,-3108.0,-643.0,0.03,-0.201,0.189,-0.961
174683,7776.0,-3768.0,6504.0,64.0,-2832.0,-629.0,0.03,-0.228,0.186,-0.955
174706,6956.0,-4960.0,6498.0,434.0,-2340.0,-582.0,0.029,-0.25,0.18,-0.951
174719,7624.0,-1850.0,6758.0,770.0,-2577.0,-681.0,0.029,-0.273,0.171,-0.946
174732,8770.0,-1642.0,7202.0,580.0,-2472.0,-804.0,0.028,-0.296,0.163,-0.941
174755,8570.0,-4642.0,9512.0,600.0,-1924.0,-656.0,0.026,-0.314,0.156,-0.936
174768,8436.0,-360.0,7482.0,754.0,-2319.0,-736.0,0.025,-0.335,0.146,-0.93
174791,9512.0,-1414.0,6650.0,259.0,-1636.0,-431.0,0.024,-0.35,0.143,-0.926
174804,7712.0,-3754.0,6706.0,416.0,-1663.0,-692.0,0.022,-0.365,0.136,-0.921
174827,9210.0,-2806.0,7104.0,933.0,-2403.0,-287.0,0.026,-0.385,0.127,-0.914
174840,9154.0,-938.0,8360.0,744.0,-1734.0,-415.0,0.027,-0.4,0.119,-0.908
174863,7610.0,-1412.0,8398.0,556.0,-1867.0,-835.0,0.024,-0.417,0.11,-0.902
174876,8364.0,-1514.0,6590.0,425.0,-1970.0,-687.0,0.021,-0.434,0.104,-0.895
174899,8110.0,-2548.0,5906.0,253.0,-1586.0,-365.0,0.021,-0.448,0.1,-0.888
174912,7888.0,-2268.0,6490.0,473.0,-1842.0,-494.0,0.02,-0.463,0.094,-0.881
174925,8654.0,-624.0,7436.0,401.0,-1960.0,-593.0,0.019,-0.48,0.088,-0.873
174948,8100.0,-664.0,6902.0,153.0,-1849.0,-561.0,0.016,-0.495,0.084,-0.865
174961,8296.0,-2250.0,5268.0,109.0,-1624.0,-353.0,0.015,-0.508,0.081,-0.857
174984,8504.0,-1626.0,5022.0,111.0,-1493.0,-101.0,0.016,-0.52,0.079,-0.85
174997,8074.0,-1908.0,6102.0,112.0,-1480.0,-413.0,0.014,-0.532,0.076,-0.843
175020,8744.0,-2480.0,6884.0,80.0,-1728.0,-700.0,0.01,-0.546,0.072,-0.834
175033,8128.0,-560.0,6310.0,208.0,-1828.0,-536.0,0.008,-0.561,0.068,-0.825
175056,9044.0,-1072.0,5484.0,8.0,-1654.0,-518.0,0.005,-0.574,0.065,-0.816
175069,9406.0,-1942.0,4870.0,-133.0,-1309.0,-214.0,0.004,-0.584,0.065,-0.809
175092,8746.0,-2134.0,5498.0,-207.0,-952.0,5.0,0.003,-0.591,0.066,-0.804
175105,8516.0,-800.0,6184.0,-41.0,-885.0,-89.0,0.003,-0.598,0.066,-0.799
175118,9734.0,-1028.0,6574.0,-63.0,-884.0,-165.0,0.002,-0.605,0.066,-0.794
175141,8988.0,-1394.0,5800.0,-194.0,-791.0,-263.0,0.001,0.611,-0.066,0.789
175154,8956.0,-2118.0,5156.0,-291.0,-482.0,-102.0,0.003,0.614,-0.067,0.786
175177,8988.0,-2212.0,5562.0,-231.0,-239.0,31.0,0.004,0.616,-0.069,0.785
175190,9236.0,-992.0,6096.0,-221.0,-98.0,-68.0,0.006,0.617,-0.07,0.784
175213,8978.0,-1580.0,6458.0,-298.0,72.0,-22.0,0.008,0.616,-0.072,0.784
175226,8994.0,-1508.0,5596.0,-364.0,182.0,-49.0,0.01,0.615,-0.075,0.785
175249,9316.0,-2308.0,5468.0,-462.0,759.0,557.0,0.009,0.609,-0.081,0.789
175262,8456.0,-1402.0,6126.0,-378.0,582.0,93.0,0.011,0.605,-0.085,0.792
175275,9520.0,-2532.0,6306.0,-461.0,791.0,42.0,0.014,0.599,-0.088,0.796
175298,9100.0,-2338.0,6704.0,-269.0,799.0,5.0,0.016,0.593,-0.09,0.8
175311,9676.0,-1558.0,6892.0,-280.0,1015.0,151.0,0.017,0.585,-0.093,0.806
175334,10030.0,-2682.0,6906.0,-479.0,1247.0,167.0,0.019,0.575,-0.097,0.812
175347,10288.0,-2330.0,7198.0,-387.0,1382.0,206.0,0.021,0.565,-0.101,0.819
175370,10822.0,-1416.0,7622.0,-348.0,1531.0,159.0,0.023,0.553,-0.104,0.827
175383,10850.0,-2482.0,7206.0,-430.0,1720.0,132.0,0.026,0.539,-0.107,0.835
175406,11444.0,-2366.0,6212.0,-539.0,2366.0,653.0,0.026,0.52,-0.114,0.846
175419,11182.0,-2038.0,7432.0,-415.0,2407.0,538.0,0.026,0.5,-0.119,0.857
175442,11608.0,-2006.0,7710.0,-403.0,2467.0,241.0,0.028,0.48,-0.123,0.868
175455,11250.0,-2490.0,7734.0,-363.0,2757.0,388.0,0.03,0.457,-0.127,0.88
175468,11424.0,-1740.0,7848.0,-282.0,2721.0,345.0,0.031,0.434,-0.13,0.891
175491,11326.0,-1944.0,6648.0,-445.0,3078.0,513.0,0.032,0.408,-0.135,0.903
175504,10466.0,-2222.0,6904.0,-399.0,3305.0,700.0,0.031,0.379,-0.139,0.914
175527,10450.0,-1364.0,7878.0,-301.0,3157.0,502.0,0.032,0.351,-0.143,0.925
175540,9768.0,-1800.0,7546.0,-473.0,3273.0,460.0,0.034,0.322,-0.147,0.935
175563,9190.0,-1938.0,6854.0,-586.0,3462.0,644.0,0.034,0.29,-0.153,0.944
175576,9062.0,-1168.0,6524.0,-566.0,3445.0,680.0,0.034,0.259,-0.158,0.952
175599,8210.0,-2004.0,6776.0,-543.0,3541.0,656.0,0.035,0.226,-0.164,0.96
175612,7158.0,-1726.0,6486.0,-528.0,3542.0,697.0,0.035,0.193,-0.169,0.966
175635,6674.0,-1378.0,6110.0,-600.0,3476.0,713.0,0.034,0.161,-0.174,0.971
175648,5882.0,-1842.0,5664.0,-703.0,3479.0,714.0,0.034,0.129,-0.18,0.975
175661,5646.0,-2024.0,5438.0,-646.0,3417.0,703.0,0.034,0.097,-0.185,0.977
175684,4362.0,-1678.0,5396.0,-523.0,3384.0,753.0,0.034,0.065,-0.19,0.979
175697,3540.0,-1442.0,4992.0,-409.0,3194.0,730.0,0.033,0.034,-0.193,0.98
175720,3014.0,-1556.0,4256.0,-512.0,3053.0,670.0,0.032,0.005,-0.197,0.98
175733,2562.0,-2430.0,3686.0,-497.0,3039.0,672.0,0.031,-0.024,-0.2,0.979
175756,2220.0,-1792.0,3334.0,-316.0,2852.0,585.0,0.031,-0.051,-0.202,0.978
175769,1772.0,-1468.0,3954.0,-237.0,2729.0,492.0,0.031,-0.077,-0.203,0.976
175792,1258.0,-1556.0,3210.0,-254.0,2665.0,442.0,0.031,-0.102,-0.204,0.973
175805,240.0,-1196.0,2330.0,-357.0,2556.0,432.0,0.032,-0.126,-0.206,0.97
175828,112.0,-1732.0,1594.0,-371.0,2415.0,257.0,0.034,-0.148,-0.209,0.966
175841,-624.0,-1918.0,1390.0,-247.0,2275.0,150.0,0.036,-0.169,-0.21,0.962
175864,-1172.0,-1256.0,1592.0,-168.0,1948.0,41.0,0.039,-0.187,-0.211,0.959
175877,-1206.0,-1034.0,2026.0,-298.0,1738.0,-45.0,0.042,-0.202,-0.213,0.955
175890,-1976.0,-1818.0,1588.0,-392.0,1584.0,-94.0,0.046,-0.216,-0.216,0.951
175913,-2880.0,-2928.0,1276.0,-214.0,1288.0,-176.0,0.049,-0.227,-0.217,0.948
175926,-2740.0,-1484.0,1370.0,-55.0,904.0,-249.0,0.053,-0.235,-0.218,0.946
175949,-2922.0,-1596.0,1288.0,-152.0,696.0,-246.0,0.056,-0.24,-0.22,0.944
175962,-3478.0,-2052.0,824.0,-239.0,492.0,-222.0,0.059,-0.244,-0.222,0.942
175985,-3872.0,-2656.0,1074.0,-243.0,164.0,-248.0,0.061,-0.245,-0.224,0.941
175998,-3968.0,-2918.0,1530.0,-106.0,-126.0,-289.0,0.063,-0.244,-0.226,0.941
176011,-3712.0,-2410.0,1180.0,-118.0,-360.0,-320.0,0.065,-0.24,-0.228,0.941
176034,-3912.0,-3036.0,1166.0,-169.0,-622.0,-335.0,0.066,-0.234,-0.231,0.942
176047,-3942.0,-2992.0,1474.0,-114.0,-808.0,-377.0,0.067,-0.226,-0.233,0.943
176070,-3756.0,-3284.0,2052.0,13.0,-959.0,-315.0,0.068,-0.217,-0.234,0.945
176083,-3046.0,-2254.0,2292.0,49.0,-1228.0,-199.0,0.067,-0.206,-0.235,0.948
176106,-3816.0,-3450.0,2198.0,-111.0,-1292.0,-160.0,0.065,-0.194,-0.237,0.95
176119,-3114.0,-3600.0,2520.0,27.0,-1534.0,-301.0,0.065,-0.179,-0.238,0.952
176142,-2806.0,-3052.0,3478.0,160.0,-1787.0,-236.0,0.063,-0.163,-0.238,0.955
176155,-2518.0,-3540.0,3124.0,101.0,-1732.0,-193.0,0.061,-0.147,-0.238,0.958
176178,-2224.0,-2838.0,3620.0,235.0,-2098.0,-397.0,0.06,-0.127,-0.238,0.961
176191,-1006.0,-2858.0,4902.0,139.0,-2156.0,-324.0,0.059,-0.107,-0.238,0.964
176204,-1030.0,-3086.0,5198.0,89.0,-2188.0,-293.0,0.056,-0.087,-0.239,0.966
176227,-226.0,-2664.0,5330.0,50.0,-2322.0,-375.0,0.055,-0.065,-0.24,0.967
176245,638.0,-3136.0,4682.0,-113.0,-2314.0,-387.0,0.053,-0.043,-0.242,0.968
176258,1172.0,-3096.0,4802.0,-110.0,-2412.0,-558.0,0.053,-0.02,-0.244,0.968
176281,2788.0,-3364.0,6462.0,13.0,-2318.0,-446.0,0.052,0.002,-0.246,0.968
176294,2898.0,-3238.0,6676.0,133.0,-2201.0,-412.0,0.051,0.024,-0.245,0.968
176317,3060.0,-3860.0,6000.0,117.0,-2290.0,-526.0,0.05,0.046,-0.245,0.967
176330,3676.0,-3668.0,6724.0,339.0,-2417.0,-611.0,0.05,0.07,-0.243,0.966
176353,4626.0,-2724.0,7732.0,418.0,-2404.0,-620.0,0.05,0.093,-0.24,0.965
176366,4712.0,-2252.0,7932.0,327.0,-2283.0,-561.0,0.05,0.115,-0.237,0.963
176379,5060.0,-2486.0,8584.0,198.0,-2367.0,-520.0,0.049,0.138,-0.236,0.961
176402,5494.0,-4424.0,7498.0,-30.0,-2216.0,-565.0,0.049,0.159,-0.237,0.957
176415,6306.0,-4240.0,5938.0,270.0,-2075.0,-628.0,0.05,0.179,-0.234,0.954
176438,6716.0,-2760.0,7040.0,595.0,-2027.0,-451.0,0.048,0.198,-0.229,0.952
176451,6556.0,-2012.0,8128.0,479.0,-2032.0,-450.0,0.047,0.217,-0.225,0.949
176474,6684.0,-4744.0,7828.0,284.0,-1673.0,-466.0,0.047,0.233,-0.222,0.946
176487,6278.0,-2996.0,6638.0,487.0,-1932.0,-476.0,0.046,0.252,-0.218,0.942
176510,7316.0,-2606.0,6414.0,434.0,-1769.0,-369.0,0.045,0.268,-0.214,0.938
176523,7548.0,-2610.0,7346.0,352.0,-1764.0,-329.0,0.043,0.284,-0.21,0.934
176546,6468.0,-5506.0,6916.0,373.0,-1427.0,-533.0,0.044,0.298,-0.206,0.931
176559,6982.0,-2562.0,6522.0,736.0,-1850.0,-572.0,0.044,0.315,-0.199,0.927
176572,7622.0,-1494.0,6106.0,643.0,-1713.0,-502.0,0.043,0.331,-0.193,0.923
176595,7014.0,-3160.0,6072.0,457.0,-1513.0,-441.0,0.043,0.345,-0.188,0.918
176608,6868.0,-3102.0,5550.0,587.0,-1667.0,-484.0,0.042,0.361,-0.182,0.914
176631,6238.0,-366.0,5610.0,663.0,-1668.0,-716.0,0.043,0.376,-0.174,0.909
176644,8200.0,-1758.0,6558.0,727.0,-2025.0,-263.0,0.04,0.394,-0.168,0.903
176667,6966.0,-1814.0,5518.0,548.0,-1814.0,-496.0,0.039,0.41,-0.162,0.896
176680,7548.0,-2072.0,4554.0,347.0,-2084.0,-363.0,0.038,0.428,-0.159,0.889
176703,7504.0,-2928.0,4250.0,287.0,-1772.0,-256.0,0.036,0.444,-0.156,0.882
176716,7434.0,-2322.0,4134.0,419.0,-1816.0,-282.0,0.034,0.459,-0.152,0.875
176739,8336.0,-1784.0,4866.0,477.0,-2060.0,-466.0,0.033,0.477,-0.147,0.866
176752,8358.0,-1802.0,4730.0,517.0,-2066.0,-574.0,0.033,0.494,-0.141,0.857
176765,8278.0,-2008.0,4566.0,555.0,-2075.0,-467.0,0.031,0.511,-0.135,0.848
176788,8394.0,-1174.0,3542.0,598.0,-2197.0,-387.0,0.029,0.529,-0.129,0.838
176801,8904.0,-778.0,3576.0,426.0,-2304.0,-352.0,0.026,0.548,-0.125,0.827
176824,8852.0,-1862.0,4114.0,240.0,-2242.0,-389.0,0.026,0.565,-0.122,0.815
176837,8590.0,-2778.0,3912.0,273.0,-2150.0,-413.0,0.025,0.582,-0.118,0.804
176860,8726.0,-706.0,2900.0,411.0,-2262.0,-297.0,0.023,0.6,-0.114,0.792
176873,9864.0,-180.0,2738.0,282.0,-2366.0,-465.0,0.022,0.617,-0.11,0.779
176896,9804.0,-1394.0,2492.0,61.0,-1885.0,-385.0,0.022,0.631,-0.107,0.768
176909,9312.0,-2538.0,2740.0,170.0,-1663.0,-242.0,0.022,0.644,-0.105,0.758
176932,9944.0,-882.0,3022.0,279.0,-1661.0,-220.0,0.02,0.655,-0.102,0.748
176945,10180.0,-40.0,3880.0,196.0,-1738.0,-494.0,0.02,0.668,-0.098,0.737
176958,9942.0,-1780.0,3532.0,12.0,-1346.0,-608.0,0.023,0.678,-0.095,0.729
176981,9612.0,-2892.0,2444.0,138.0,-1014.0,-380.0,0.024,0.685,-0.092,0.722
176994,9974.0,-2506.0,2818.0,428.0,-873.0,-288.0,0.023,0.691,-0.087,0.717
177017,9570.0,-996.0,3596.0,349.0,-514.0,-253.0,0.022,0.695,-0.083,0.714
177030,9762.0,-1326.0,4158.0,303.0,-295.0,-101.0,0.02,0.697,-0.081,0.712
177053,9394.0,-952.0,4770.0,274.0,-319.0,-312.0,0.02,0.7,-0.077,0.71
177066,9198.0,-2484.0,4902.0,201.0,26.0,-267.0,0.02,0.7,-0.074,0.71
177089,9364.0,-3016.0,4516.0,380.0,135.0,-186.0,0.019,0.699,-0.07,0.711
177102,9522.0,-1882.0,4762.0,436.0,492.0,65.0,0.016,0.696,-0.067,0.715
177115,11410.0,-692.0,5944.0,-222.0,1402.0,1191.0,0.01,0.686,-0.076,0.724
177138,9824.0,-1946.0,5852.0,-168.0,1659.0,1074.0,0.005,0.673,-0.084,0.734
177151,9326.0,-3044.0,6466.0,156.0,1467.0,427.0,0.002,0.663,-0.085,0.744
177174,9870.0,-1908.0,6496.0,621.0,1379.0,-53.0,0.0,-0.654,0.081,-0.753
177187,11176.0,-1448.0,6624.0,438.0,1615.0,19.0,0.002,-0.642,0.077,-0.763
177210,11072.0,-2058.0,6018.0,290.0,1965.0,94.0,0.003,-0.628,0.076,-0.774
177223,12116.0,-1526.0,6392.0,259.0,2231.0,254.0,0.005,-0.612,0.075,-0.788
177246,12210.0,-1996.0,5942.0,238.0,2747.0,388.0,0.008,-0.591,0.076,-0.803
177259,12076.0,-1498.0,6186.0,274.0,3049.0,354.0,0.01,-0.568,0.076,-0.82
177282,11886.0,-834.0,5910.0,319.0,3155.0,108.0,0.011,-0.543,0.074,-0.836
177295,12264.0,-728.0,6006.0,275.0,3304.0,28.0,0.01,-0.517,0.072,-0.853
177308,11840.0,-1016.0,6662.0,187.0,3533.0,96.0,0.01,-0.489,0.071,-0.869
177331,11494.0,-218.0,6794.0,137.0,3520.0,43.0,0.009,-0.46,0.071,-0.885
177344,12022.0,44.0,6726.0,14.0,3584.0,-113.0,0.006,-0.43,0.07,-0.9
177367,11858.0,114.0,6498.0,-228.0,3802.0,-170.0,0.002,-0.398,0.071,-0.914
177380,11144.0,-74.0,6786.0,-380.0,3979.0,-146.0,0.004,0.364,-0.074,0.928
177403,10636.0,-392.0,6484.0,-529.0,4062.0,-220.0,0.01,0.329,-0.077,0.941
177416,9454.0,-612.0,6438.0,-590.0,4184.0,-251.0,0.016,0.292,-0.081,0.953
177439,8444.0,-108.0,6412.0,-566.0,4145.0,-284.0,0.023,0.256,-0.085,0.963
177452,7348.0,-994.0,6864.0,-719.0,4130.0,-292.0,0.03,0.218,-0.089,0.971
177475,6418.0,-870.0,6326.0,-887.0,4232.0,-186.0,0.037,0.18,-0.096,0.978
177488,5238.0,-1198.0,6582.0,-956.0,4251.0,-11.0,0.042,0.141,-0.103,0.984
177501,4208.0,-902.0,7408.0,-865.0,3915.0,-11.0,0.047,0.106,-0.109,0.987
177524,3304.0,-512.0,6970.0,-919.0,3533.0,-30.0,0.051,0.073,-0.116,0.989
177537,2760.0,-1072.0,5414.0,-1260.0,3314.0,57.0,0.055,0.042,-0.126,0.99
177560,2212.0,-2922.0,4886.0,-1366.0,3375.0,241.0,0.057,0.01,-0.136,0.989
177573,882.0,-2216.0,5202.0,-888.0,2771.0,236.0,0.058,-0.016,-0.143,0.988
177596,1332.0,-1512.0,4938.0,-608.0,2213.0,113.0,0.059,-0.037,-0.147,0.987
177609,1380.0,-1000.0,4280.0,-745.0,2051.0,204.0,0.06,-0.056,-0.153,0.985
177632,994.0,-1688.0,3516.0,-959.0,1984.0,387.0,0.058,-0.076,-0.161,0.982
177645,534.0,-1762.0,3450.0,-945.0,1799.0,568.0,0.055,-0.094,-0.168,0.98
177658,908.0,-2128.0,3270.0,-827.0,1616.0,432.0,0.053,-0.109,-0.174,0.977
177681,906.0,-1622.0,2780.0,-697.0,1476.0,499.0,0.05,-0.124,-0.179,0.975
177694,938.0,-1700.0,1802.0,-691.0,1366.0,545.0,0.046,-0.137,-0.184,0.972
177717,434.0,-2602.0,1218.0,-639.0,1454.0,563.0,0.043,-0.152,-0.189,0.969
177730,-86.0,-2566.0,1494.0,-343.0,1338.0,419.0,0.041,-0.165,-0.191,0.967
177753,-758.0,-1400.0,2202.0,-267.0,1083.0,328.0,0.039,-0.175,-0.192,0.965
177766,-580.0,-1900.0,1932.0,-451.0,952.0,192.0,0.039,-0.184,-0.195,0.962
177789,-1232.0,-2304.0,1424.0,-339.0,758.0,206.0,0.038,-0.191,-0.198,0.961
177802,-1448.0,-1900.0,1276.0,-166.0,435.0,124.0,0.037,-0.196,-0.199,0.96
177825,-1510.0,-2044.0,1260.0,-155.0,238.0,78.0,0.036,-0.198,-0.2,0.959
177838,-1830.0,-2210.0,1378.0,-95.0,38.0,32.0,0.036,-0.198,-0.201,0.959
177851,-1958.0,-2236.0,1714.0,-19.0,-245.0,-43.0,0.036,-0.196,-0.201,0.959
177874,-1576.0,-1558.0,1714.0,-23.0,-482.0,-84.0,0.036,-0.192,-0.201,0.96
177887,-2356.0,-2848.0,824.0,-151.0,-581.0,-145.0,0.036,-0.186,-0.203,0.961
177910,-1916.0,-2062.0,2154.0,52.0,-1068.0,-285.0,0.037,-0.176,-0.204,0.962
177923,-1486.0,-2162.0,2664.0,116.0,-1164.0,-204.0,0.036,-0.165,-0.203,0.964
177946,-2222.0,-2628.0,2956.0,137.0,-1336.0,-225.0,0.036,-0.153,-0.203,0.967
177959,-1812.0,-2246.0,2410.0,206.0,-1642.0,-342.0,0.037,-0.137,-0.202,0.969
177982,-1090.0,-2102.0,2800.0,263.0,-1949.0,-368.0,0.037,-0.119,-0.201,0.972
177995,-718.0,-2174.0,3224.0,242.0,-1965.0,-276.0,0.036,-0.1,-0.199,0.974
178008,-322.0,-1656.0,3436.0,166.0,-2274.0,-245.0,0.034,-0.079,-0.199,0.976
178031,934.0,-2014.0,4108.0,177.0,-2419.0,-240.0,0.032,-0.056,-0.198,0.978
178054,1534.0,-2178.0,5052.0,248.0,-2460.0,-125.0,0.029,-0.034,-0.196,0.98
178067,1514.0,-2592.0,4696.0,372.0,-2455.0,-69.0,0.025,-0.011,-0.194,0.981
178080,1960.0,-2738.0,5276.0,645.0,-2565.0,-133.0,0.022,0.013,-0.188,0.982
178103,2644.0,-1872.0,4714.0,966.0,-2637.0,-191.0,0.019,0.037,-0.18,0.983
178116,4112.0,-1908.0,6260.0,903.0,-2819.0,-230.0,0.016,0.065,-0.172,0.983
178139,4152.0,-2014.0,7740.0,892.0,-2478.0,-227.0,0.014,0.088,-0.164,0.982
178152,3664.0,-912.0,8074.0,810.0,-2656.0,-270.0,0.012,0.113,-0.156,0.981
178175,4428.0,-1192.0,8500.0,389.0,-2791.0,-293.0,0.01,0.139,-0.153,0.978
178188,4894.0,-1746.0,7740.0,132.0,-2878.0,-358.0,0.01,0.166,-0.151,0.974
178201,5634.0,-2538.0,6928.0,64.0,-2821.0,-421.0,0.009,0.192,-0.15,0.97
178224,6426.0,-2082.0,7706.0,414.0,-2956.0,-428.0,0.009,0.219,-0.146,0.965
178237,7248.0,-1560.0,8470.0,529.0,-2981.0,-604.0,0.009,0.247,-0.14,0.959
178255,7400.0,-2428.0,7646.0,405.0,-2792.0,-551.0,0.01,0.272,-0.136,0.953
178278,7958.0,-1644.0,6878.0,416.0,-2691.0,-301.0,0.008,0.297,-0.131,0.946
178291,8782.0,-1968.0,7438.0,305.0,-2429.0,-95.0,0.005,0.318,-0.129,0.939
178314,7284.0,-1572.0,7850.0,508.0,-2650.0,-421.0,0.004,0.342,-0.123,0.932
178327,7668.0,-3912.0,7368.0,574.0,-3154.0,-716.0,0.005,0.37,-0.116,0.922
178350,9054.0,-1266.0,7074.0,496.0,-2811.0,-313.0,0.003,0.394,-0.111,0.912
178363,8760.0,-1040.0,5482.0,406.0,-2449.0,-225.0,0.001,0.415,-0.107,0.903
178376,8970.0,-1774.0,5298.0,393.0,-2607.0,-205.0,0.001,-0.437,0.103,-0.893
178399,9034.0,-2684.0,5642.0,357.0,-2410.0,-62.0,0.004,-0.457,0.099,-0.884
178412,9236.0,-1196.0,7028.0,426.0,-2652.0,-83.0,0.007,-0.479,0.096,-0.872
178435,9850.0,-1272.0,6924.0,131.0,-2395.0,-62.0,0.009,-0.499,0.094,-0.862
178448,9202.0,-1850.0,5300.0,198.0,-2534.0,-130.0,0.011,-0.519,0.092,-0.85
178471,9500.0,-960.0,5272.0,-3.0,-2313.0,23.0,0.013,-0.537,0.092,-0.838
178484,9680.0,-2900.0,5742.0,-34.0,-2085.0,-220.0,0.013,-0.554,0.091,-0.828
178507,10284.0,-2534.0,5262.0,203.0,-2252.0,-458.0,0.012,-0.571,0.087,-0.816
178520,10720.0,-1876.0,4196.0,350.0,-1809.0,-155.0,0.014,-0.585,0.083,-0.807
178543,10622.0,-814.0,3942.0,347.0,-1566.0,46.0,0.018,-0.597,0.081,-0.798
178556,9400.0,-1212.0,5160.0,2.0,-1359.0,38.0,0.019,-0.607,0.081,-0.791
178569,9324.0,-3286.0,4838.0,-150.0,-1278.0,-280.0,0.017,-0.616,0.08,-0.783
178592,9384.0,-1924.0,4408.0,69.0,-1505.0,-384.0,0.016,-0.628,0.077,-0.775
178605,9914.0,-1598.0,3968.0,70.0,-1118.0,-329.0,0.014,-0.636,0.075,-0.768
178628,9084.0,-1420.0,3794.0,65.0,-932.0,-85.0,0.015,-0.643,0.074,-0.763
178641,9268.0,-1234.0,4306.0,-83.0,-771.0,73.0,0.015,-0.648,0.075,-0.758
178664,8350.0,-2344.0,4488.0,-106.0,-721.0,-323.0,0.013,-0.653,0.073,-0.753
178677,7902.0,-1960.0,4146.0,15.0,-645.0,-145.0,0.012,-0.658,0.072,-0.749
178700,8438.0,-1130.0,4068.0,-12.0,-636.0,-122.0,0.012,-0.662,0.072,-0.746
178713,7978.0,-1488.0,4206.0,-152.0,-455.0,-73.0,0.011,-0.666,0.072,-0.743
178736,7798.0,-1752.0,4508.0,-110.0,-401.0,-30.0,0.01,-0.669,0.073,-0.74
178749,8146.0,-1336.0,4448.0,-162.0,-342.0,-42.0,0.009,-0.671,0.074,-0.738
178762,8318.0,-1496.0,4906.0,-228.0,-301.0,-85.0,0.007,-0.673,0.075,-0.736
178785,8372.0,-1106.0,4694.0,-233.0,-229.0,-91.0,0.006,-0.675,0.076,-0.734
178798,9812.0,-1720.0,4674.0,-576.0,412.0,778.0,0.007,-0.671,0.085,-0.736
178821,8414.0,-2122.0,3798.0,-679.0,477.0,350.0,0.005,-0.668,0.091,-0.739
178834,9336.0,-1894.0,4976.0,-449.0,490.0,359.0,0.004,-0.664,0.097,-0.741
178857,9328.0,-2218.0,5656.0,-328.0,483.0,-146.0,0.001,-0.661,0.098,-0.744
178870,9474.0,-1530.0,5490.0,-353.0,688.0,-82.0,0.002,0.657,-0.1,0.748
178893,9938.0,-2156.0,5284.0,-407.0,891.0,-85.0,0.006,0.65,-0.102,0.753
178906,9908.0,-1888.0,5238.0,-380.0,1065.0,56.0,0.009,0.643,-0.105,0.759
178919,11054.0,-1724.0,5466.0,-531.0,1213.0,97.0,0.013,0.634,-0.109,0.765
178942,11570.0,-2122.0,5180.0,-570.0,1690.0,226.0,0.016,0.622,-0.114,0.775
178965,11896.0,-2554.0,5580.0,-682.0,2292.0,804.0,0.016,0.604,-0.123,0.787
178978,11062.0,-2844.0,5566.0,-445.0,2350.0,523.0,0.018,0.586,-0.129,0.8
178991,10860.0,-2248.0,6232.0,-354.0,2309.0,256.0,0.02,0.568,-0.133,0.812
179014,11826.0,-2562.0,6136.0,-461.0,2351.0,154.0,0.024,0.55,-0.136,0.823
179027,11416.0,-2662.0,5330.0,-375.0,2607.0,361.0,0.026,0.529,-0.14,0.836
179050,12846.0,-1570.0,6446.0,-290.0,2572.0,208.0,0.029,0.509,-0.143,0.848
179063,12780.0,-1786.0,6226.0,-374.0,3113.0,305.0,0.032,0.484,-0.146,0.862
179086,11442.0,-1848.0,5916.0,-400.0,3286.0,432.0,0.035,0.456,-0.15,0.876
179099,11634.0,-2382.0,6634.0,-371.0,3370.0,440.0,0.037,0.428,-0.154,0.89
179112,11142.0,-1742.0,7446.0,-270.0,3356.0,410.0,0.04,0.399,-0.156,0.903
179135,11286.0,-838.0,7634.0,-316.0,3281.0,303.0,0.043,0.371,-0.159,0.914
179148,11044.0,-1066.0,6236.0,-634.0,3407.0,410.0,0.046,0.341,-0.164,0.924
179171,9844.0,-1938.0,5480.0,-788.0,3902.0,709.0,0.048,0.306,-0.171,0.935
179184,9128.0,-1982.0,5802.0,-582.0,3843.0,678.0,0.049,0.271,-0.176,0.945
179207,8118.0,-2208.0,6120.0,-380.0,3801.0,544.0,0.051,0.236,-0.179,0.954
179220,7254.0,-2370.0,5828.0,-282.0,3740.0,524.0,0.053,0.202,-0.181,0.961
179243,6108.0,-2440.0,5382.0,-223.0,3641.0,599.0,0.054,0.169,-0.182,0.967
179256,5366.0,-1724.0,5036.0,-176.0,3629.0,634.0,0.055,0.136,-0.182,0.972
179279,4102.0,-1522.0,5518.0,-227.0,3191.0,494.0,0.055,0.106,-0.183,0.976
179292,4336.0,-1508.0,5394.0,-209.0,2842.0,482.0,0.056,0.079,-0.184,0.978
179315,3488.0,-1476.0,3600.0,-353.0,2899.0,646.0,0.055,0.052,-0.186,0.98
179328,3004.0,-2396.0,2814.0,-427.0,2946.0,751.0,0.053,0.023,-0.189,0.98
179341,1806.0,-2610.0,2926.0,-163.0,2660.0,733.0,0.051,-0.002,-0.189,0.981
179364,1918.0,-2098.0,3816.0,113.0,2302.0,500.0,0.05,-0.024,-0.187,0.981
179377,2100.0,-1454.0,3588.0,206.0,2143.0,415.0,0.05,-0.044,-0.184,0.981
179400,1488.0,-1946.0,3302.0,118.0,2203.0,476.0,0.049,-0.065,-0.182,0.98
179413,486.0,-1420.0,3520.0,45.0,2049.0,514.0,0.048,-0.085,-0.18,0.979
179436,150.0,-1866.0,2962.0,-70.0,1912.0,454.0,0.047,-0.103,-0.179,0.977
179449,-158.0,-2062.0,2004.0,-16.0,1758.0,383.0,0.046,-0.12,-0.178,0.976
179462,-508.0,-1700.0,1662.0,59.0,1427.0,250.0,0.046,-0.133,-0.177,0.974
179485,-482.0,-1376.0,1804.0,9.0,1236.0,170.0,0.047,-0.144,-0.176,0.973
179498,-1056.0,-1806.0,2390.0,-45.0,1188.0,123.0,0.047,-0.155,-0.176,0.971
179521,-1720.0,-2730.0,2010.0,100.0,1027.0,19.0,0.049,-0.165,-0.174,0.97
179534,-1824.0,-1660.0,1802.0,222.0,577.0,-48.0,0.051,-0.17,-0.172,0.969
179557,-1238.0,-1382.0,1552.0,23.0,394.0,-95.0,0.052,-0.173,-0.172,0.968
179570,-1510.0,-1688.0,848.0,-65.0,314.0,-75.0,0.053,-0.176,-0.172,0.968
179593,-2012.0,-2416.0,1206.0,93.0,107.0,-117.0,0.055,-0.176,-0.172,0.968
179606,-2010.0,-2206.0,1644.0,196.0,-138.0,-163.0,0.056,-0.175,-0.17,0.968
179629,-1914.0,-1692.0,2192.0,234.0,-438.0,-180.0,0.058,-0.17,-0.169,0.969
179642,-1668.0,-1420.0,2196.0,49.0,-611.0,-170.0,0.059,-0.165,-0.169,0.97
179655,-2030.0,-2606.0,1574.0,-59.0,-739.0,-141.0,0.059,-0.158,-0.17,0.971
179678,-1644.0,-1952.0,1802.0,37.0,-1147.0,-180.0,0.059,-0.147,-0.17,0.973
179691,-1222.0,-1924.0,2864.0,-79.0,-1390.0,-180.0,0.058,-0.134,-0.172,0.974
179714,-814.0,-2040.0,2444.0,-180.0,-1574.0,-172.0,0.057,-0.12,-0.175,0.976
179727,-974.0,-2830.0,2142.0,-85.0,-1739.0,-176.0,0.056,-0.104,-0.177,0.977
179750,-202.0,-2388.0,1958.0,105.0,-2100.0,-165.0,0.054,-0.084,-0.177,0.979
179763,184.0,-2458.0,2258.0,75.0,-2261.0,-192.0,0.052,-0.063,-0.177,0.981
179786,762.0,-1670.0,3038.0,34.0,-2469.0,-285.0,0.051,-0.04,-0.178,0.982
179799,1784.0,-1616.0,4224.0,8.0,-2687.0,-266.0,0.049,-0.015,-0.18,0.982
179822,2420.0,-1604.0,4786.0,29.0,-2807.0,-203.0,0.046,0.011,-0.18,0.982
179835,2512.0,-2682.0,4644.0,32.0,-2816.0,-223.0,0.044,0.037,-0.181,0.982
179858,2536.0,-3242.0,4644.0,300.0,-3028.0,-384.0,0.042,0.066,-0.18,0.981
179871,3994.0,-1680.0,5460.0,466.0,-3437.0,-476.0,0.041,0.098,-0.176,0.979
179884,5366.0,-706.0,6696.0,238.0,-3591.0,-548.0,0.04,0.133,-0.175,0.975
179907,5908.0,-1974.0,7714.0,47.0,-3389.0,-534.0,0.039,0.164,-0.175,0.97
179920,6316.0,-2720.0,6930.0,125.0,-3315.0,-502.0,0.039,0.195,-0.174,0.964
179943,7098.0,-1702.0,6020.0,127.0,-3391.0,-429.0,0.037,0.226,-0.173,0.958
179956,8744.0,-2078.0,6690.0,176.0,-3368.0,-404.0,0.035,0.257,-0.172,0.95
179979,9388.0,-2840.0,7076.0,259.0,-3051.0,-530.0,0.034,0.285,-0.169,0.943
179992,8640.0,-3490.0,8148.0,575.0,-2809.0,-574.0,0.033,0.31,-0.164,0.936
180015,9594.0,-912.0,7638.0,652.0,-3056.0,-747.0,0.033,0.338,-0.157,0.927
180028,9882.0,-2544.0,6714.0,393.0,-2315.0,-450.0,0.033,0.359,-0.153,0.92
180051,10434.0,-1956.0,7218.0,931.0,-3079.0,-203.0,0.027,0.386,-0.145,0.911
180064,10776.0,-506.0,8632.0,586.0,-2439.0,-720.0,0.028,0.408,-0.138,0.902
180077,9408.0,-2062.0,7818.0,602.0,-2178.0,-488.0,0.027,0.427,-0.132,0.894
180100,9238.0,-1270.0,6826.0,622.0,-2191.0,-346.0,0.025,0.445,-0.126,0.886
180113,9672.0,-1944.0,6014.0,550.0,-2239.0,-482.0,0.024,0.464,-0.12,0.877
180136,9836.0,-1292.0,6510.0,518.0,-2164.0,-372.0,0.023,0.483,-0.115,0.868
180149,9988.0,-1612.0,7178.0,459.0,-1968.0,-446.0,0.022,0.499,-0.109,0.859
180172,9128.0,-944.0,6422.0,526.0,-1993.0,-402.0,0.021,0.515,-0.104,0.85
180185,9718.0,-1350.0,5956.0,377.0,-1964.0,-459.0,0.021,0.531,-0.099,0.841
180198,9724.0,-1784.0,5482.0,263.0,-1686.0,-300.0,0.021,0.545,-0.096,0.833
180221,9306.0,-2162.0,5592.0,420.0,-1581.0,-217.0,0.019,0.557,-0.092,0.825
180234,9722.0,-728.0,5988.0,466.0,-1522.0,-118.0,0.016,0.569,-0.088,0.817
180262,8774.0,-2360.0,6056.0,435.0,-1217.0,27.0,0.013,0.579,-0.085,0.811
180275,7872.0,-2444.0,6254.0,581.0,-1490.0,-87.0,0.009,0.59,-0.08,0.803
180288,8068.0,-2386.0,6664.0,567.0,-1661.0,-189.0,0.006,0.603,-0.075,0.795
180311,9174.0,-554.0,5908.0,514.0,-1750.0,-246.0,0.004,0.616,-0.07,0.785
180324,9754.0,-146.0,4758.0,355.0,-1331.0,-73.0,0.002,0.625,-0.067,0.777
180347,9518.0,-1726.0,5262.0,130.0,-827.0,261.0,0.002,-0.631,0.068,-0.773
180360,8024.0,-3036.0,4498.0,319.0,-635.0,150.0,0.005,-0.636,0.067,-0.769
180383,9242.0,-1368.0,5468.0,325.0,-673.0,122.0,0.008,-0.64,0.065,-0.765
180396,9590.0,-36.0,6390.0,191.0,-596.0,-146.0,0.009,-0.645,0.063,-0.762
180409,9378.0,-1444.0,6290.0,-33.0,-244.0,-141.0,0.008,-0.647,0.062,-0.76
180432,9540.0,-1584.0,6016.0,-34.0,212.0,524.0,0.011,-0.645,0.065,-0.761
180445,8510.0,-730.0,4712.0,-168.0,218.0,183.0,0.012,-0.643,0.068,-0.763
180468,9094.0,-1448.0,5992.0,-198.0,411.0,240.0,0.012,-0.64,0.07,-0.765
180481,9498.0,-1496.0,6398.0,-223.0,512.0,12.0,0.011,-0.637,0.072,-0.768
180504,8914.0,-1126.0,6926.0,-117.0,543.0,-106.0,0.009,-0.633,0.072,-0.771
180517,9746.0,-964.0,6510.0,-349.0,804.0,-107.0,0.006,-0.627,0.074,-0.775
180540,10012.0,-1370.0,6440.0,-474.0,989.0,7.0,0.002,-0.62,0.078,-0.781
180553,10710.0,-1028.0,6738.0,-524.0,1288.0,97.0,0.001,0.611,-0.082,0.788
180566,11752.0,-1434.0,6782.0,-538.0,1639.0,120.0,0.004,0.598,-0.086,0.796
180589,11272.0,-1782.0,7410.0,-402.0,1908.0,214.0,0.006,0.584,-0.09,0.807
180602,12226.0,-834.0,7664.0,-498.0,1937.0,-67.0,0.011,0.569,-0.094,0.817
180625,12280.0,-1586.0,7448.0,-765.0,2236.0,20.0,0.016,0.552,-0.099,0.828
180638,12872.0,-1632.0,7186.0,-683.0,2368.0,100.0,0.021,0.534,-0.104,0.839
180661,13358.0,-2548.0,5952.0,-553.0,2840.0,64.0,0.026,0.511,-0.108,0.852
180674,12816.0,-1770.0,6088.0,-291.0,3069.0,181.0,0.029,0.486,-0.111,0.866
180697,12754.0,-1264.0,7436.0,-179.0,2997.0,24.0,0.032,0.462,-0.111,0.879
180710,12916.0,-400.0,8210.0,-405.0,3122.0,0.0,0.037,0.436,-0.114,0.892
180733,12552.0,-990.0,7938.0,-721.0,3325.0,245.0,0.041,0.408,-0.119,0.904
180746,12068.0,-1302.0,6460.0,-1109.0,3721.0,498.0,0.045,0.375,-0.129,0.917
180769,10984.0,-744.0,6118.0,-1259.0,3878.0,747.0,0.047,0.34,-0.14,0.929
180782,10082.0,-686.0,6684.0,-1258.0,3851.0,701.0,0.05,0.305,-0.152,0.939
180795,9118.0,-666.0,5048.0,-1248.0,3880.0,773.0,0.052,0.27,-0.163,0.948
180818,8180.0,-2246.0,4036.0,-1429.0,4141.0,1025.0,0.052,0.231,-0.176,0.956
180831,6780.0,-3044.0,5114.0,-1091.0,4076.0,1180.0,0.05,0.192,-0.186,0.962
180854,5448.0,-1180.0,5782.0,-693.0,3601.0,998.0,0.048,0.158,-0.192,0.967
180867,5194.0,-410.0,5714.0,-734.0,3134.0,784.0,0.048,0.129,-0.198,0.971
180890,5046.0,-1738.0,4312.0,-1118.0,3280.0,921.0,0.046,0.097,-0.207,0.972
180903,3816.0,-2136.0,3526.0,-1047.0,3339.0,1159.0,0.043,0.064,-0.216,0.973
180926,3186.0,-1484.0,3340.0,-752.0,2962.0,1112.0,0.039,0.035,-0.222,0.974
180939,2488.0,-1150.0,3144.0,-573.0,2725.0,1008.0,0.035,0.008,-0.227,0.973
180952,2568.0,-1270.0,3204.0,-612.0,2485.0,894.0,0.032,-0.017,-0.231,0.972
180975,2086.0,-1812.0,2382.0,-628.0,2511.0,986.0,0.028,-0.042,-0.236,0.97
180988,1132.0,-1636.0,2028.0,-604.0,2384.0,1003.0,0.024,-0.066,-0.241,0.968
181011,784.0,-1838.0,1678.0,-464.0,2296.0,831.0,0.021,-0.088,-0.244,0.966
181024,-88.0,-2090.0,1964.0,-304.0,2145.0,706.0,0.019,-0.109,-0.245,0.963
181047,-410.0,-1726.0,2176.0,-236.0,1841.0,506.0,0.018,-0.127,-0.247,0.961
181060,-576.0,-1376.0,1626.0,-218.0,1590.0,382.0,0.018,-0.142,-0.248,0.958
181083,-1162.0,-1910.0,1644.0,-209.0,1431.0,276.0,0.019,-0.155,-0.249,0.956
181096,-1708.0,-2434.0,660.0,-232.0,1214.0,86.0,0.02,-0.166,-0.251,0.953
181109,-2214.0,-2642.0,376.0,-66.0,970.0,24.0,0.022,-0.175,-0.251,0.952
181132,-1856.0,-1940.0,1278.0,135.0,621.0,-107.0,0.025,-0.18,-0.25,0.951
181145,-1794.0,-2068.0,1618.0,150.0,473.0,-97.0,0.027,-0.184,-0.249,0.951
181168,-2492.0,-2052.0,1626.0,134.0,308.0,0.0,0.028,-0.187,-0.247,0.95
181181,-2508.0,-2608.0,784.0,75.0,74.0,-34.0,0.028,-0.187,-0.247,0.95
181204,-2800.0,-2822.0,1080.0,123.0,-221.0,-108.0,0.029,-0.185,-0.246,0.951
181217,-2370.0,-2742.0,1132.0,256.0,-489.0,-184.0,0.03,-0.18,-0.244,0.952
181240,-2228.0,-2574.0,1470.0,298.0,-647.0,-176.0,0.03,-0.174,-0.242,0.954
181253,-2002.0,-2914.0,1262.0,347.0,-862.0,-139.0,0.03,-0.166,-0.239,0.956
181276,-1792.0,-2684.0,1058.0,332.0,-1104.0,-160.0,0.03,-0.155,-0.237,0.959
181289,-1178.0,-2896.0,1502.0,367.0,-1266.0,-211.0,0.029,-0.143,-0.234,0.961
181302,-1096.0,-2770.0,2262.0,439.0,-1472.0,-225.0,0.029,-0.13,-0.231,0.964
181325,-372.0,-2602.0,2180.0,420.0,-1627.0,-312.0,0.029,-0.114,-0.228,0.967
181338,240.0,-2196.0,2344.0,387.0,-1824.0,-358.0,0.029,-0.097,-0.225,0.969
181361,418.0,-2628.0,2656.0,401.0,-1858.0,-364.0,0.028,-0.079,-0.222,0.971
181374,176.0,-2710.0,3224.0,440.0,-2110.0,-377.0,0.028,-0.059,-0.219,0.974
181397,404.0,-2648.0,3842.0,423.0,-2380.0,-472.0,0.027,-0.036,-0.216,0.975
181410,788.0,-2780.0,4554.0,463.0,-2796.0,-585.0,0.027,-0.01,-0.213,0.977
181433,2716.0,-2152.0,4648.0,575.0,-3110.0,-585.0,0.027,0.02,-0.208,0.978
181446,2892.0,-1502.0,3776.0,491.0,-2965.0,-418.0,0.025,0.048,-0.204,0.977
181469,3110.0,-1926.0,3786.0,341.0,-2992.0,-392.0,0.023,0.076,-0.201,0.976
181482,4370.0,-2482.0,5436.0,446.0,-3309.0,-407.0,0.02,0.108,-0.198,0.974
181495,5642.0,-3158.0,6058.0,444.0,-3258.0,-581.0,0.02,0.139,-0.194,0.971
181518,6476.0,-1886.0,6744.0,677.0,-3276.0,-642.0,0.019,0.17,-0.187,0.967
181531,7166.0,-1432.0,7500.0,487.0,-3153.0,-661.0,0.019,0.2,-0.182,0.963
181554,7198.0,-2548.0,7686.0,318.0,-2976.0,-596.0,0.018,0.227,-0.179,0.957
181567,7894.0,-2296.0,7100.0,380.0,-2982.0,-649.0,0.019,0.255,-0.175,0.951
181590,9108.0,-2472.0,7478.0,489.0,-2959.0,-680.0,0.019,0.282,-0.169,0.944
181603,10130.0,-1368.0,6258.0,435.0,-2674.0,-626.0,0.019,0.307,-0.164,0.937
181626,7676.0,-222.0,5724.0,511.0,-2318.0,-690.0,0.02,0.328,-0.158,0.931
181639,8458.0,-1388.0,8800.0,987.0,-3043.0,-101.0,0.014,0.355,-0.15,0.923
181652,9538.0,-560.0,9198.0,734.0,-3317.0,-1162.0,0.017,0.385,-0.14,0.912
181675,10352.0,-2850.0,6196.0,480.0,-2848.0,-798.0,0.019,0.41,-0.134,0.902
181688,10376.0,-2418.0,5532.0,760.0,-2734.0,-787.0,0.019,0.434,-0.125,0.892
181711,11086.0,-386.0,7218.0,415.0,-2217.0,-188.0,0.017,0.452,-0.121,0.883
181724,9474.0,-2150.0,6928.0,248.0,-1896.0,-234.0,0.015,0.468,-0.119,0.875
181747,9674.0,-2530.0,6400.0,626.0,-2316.0,-388.0,0.013,0.488,-0.112,0.866
181760,10224.0,66.0,7454.0,499.0,-2337.0,-462.0,0.013,0.507,-0.106,0.855
181783,10018.0,-1744.0,7330.0,232.0,-2238.0,-719.0,0.015,0.525,-0.101,0.845
181796,10144.0,-1686.0,5670.0,241.0,-2042.0,-744.0,0.018,0.542,-0.096,0.835
181819,10096.0,-1830.0,5294.0,294.0,-1764.0,-297.0,0.017,0.556,-0.093,0.826
181832,9434.0,-782.0,6344.0,275.0,-1662.0,-281.0,0.017,0.569,-0.09,0.817
181845,9674.0,-150.0,6852.0,13.0,-1859.0,-416.0,0.018,0.584,-0.088,0.807
181868,10398.0,-288.0,8120.0,-332.0,-1812.0,-417.0,0.022,0.598,-0.088,0.797
181881,11338.0,-964.0,7636.0,-870.0,-1092.0,41.0,0.025,0.605,-0.095,0.79
181904,10210.0,-3446.0,5232.0,-937.0,-69.0,754.0,0.025,0.605,-0.106,0.789
181917,7966.0,-3400.0,4668.0,-218.0,-140.0,768.0,0.02,0.605,-0.112,0.788
181940,8214.0,-2774.0,5936.0,-7.0,-335.0,174.0,0.019,0.608,-0.113,0.786
181953,7668.0,-2046.0,6928.0,113.0,-389.0,-280.0,0.02,0.611,-0.111,0.784
181976,8724.0,-2386.0,7978.0,18.0,-160.0,-57.0,0.02,0.612,-0.111,0.783
181989,7710.0,-2228.0,7640.0,-53.0,-57.0,1.0,0.02,0.612,-0.111,0.782
182012,7232.0,-2104.0,6998.0,-211.0,121.0,109.0,0.02,0.611,-0.113,0.783
182025,7982.0,-3222.0,7150.0,-218.0,272.0,216.0,0.02,0.609,-0.116,0.784
182038,8242.0,-2412.0,6806.0,-83.0,368.0,85.0,0.02,0.606,-0.117,0.786
182061,8192.0,-2150.0,7638.0,-300.0,500.0,62.0,0.022,0.603,-0.119,0.789
182074,8350.0,-3144.0,8812.0,-428.0,545.0,162.0,0.024,0.598,-0.123,0.791
182097,9158.0,-2898.0,7926.0,-455.0,680.0,99.0,0.026,0.593,-0.127,0.795
182110,11012.0,-1906.0,7282.0,-411.0,965.0,304.0,0.028,0.586,-0.132,0.799
182133,10840.0,-3148.0,6992.0,-594.0,1454.0,352.0,0.03,0.574,-0.137,0.807
182146,11060.0,-2918.0,7764.0,-422.0,1615.0,436.0,0.031,0.561,-0.142,0.815
182169,12138.0,-290.0,8582.0,-382.0,1466.0,268.0,0.032,0.55,-0.146,0.822
182182,14394.0,-2226.0,9080.0,-880.0,1751.0,328.0,0.037,0.535,-0.154,0.83
182195,13264.0,-3420.0,7046.0,-965.0,2593.0,743.0,0.039,0.514,-0.164,0.841
182218,12802.0,-2992.0,6892.0,-656.0,2527.0,513.0,0.042,0.493,-0.171,0.852
182241,13630.0,-1780.0,7716.0,-602.0,2464.0,362.0,0.045,0.472,-0.176,0.862
182254,13768.0,-1830.0,7650.0,-650.0,2693.0,434.0,0.049,0.45,-0.182,0.873
182272,13390.0,-2130.0,6844.0,-857.0,3235.0,617.0,0.053,0.422,-0.19,0.885
182285,12758.0,-1634.0,6488.0,-810.0,3412.0,715.0,0.056,0.392,-0.197,0.897
182308,12358.0,-2144.0,6200.0,-858.0,3644.0,665.0,0.06,0.36,-0.205,0.908
182321,11190.0,-1948.0,6794.0,-711.0,3750.0,714.0,0.063,0.326,-0.211,0.919
182344,10462.0,-1228.0,6472.0,-720.0,3801.0,567.0,0.067,0.292,-0.216,0.929
182357,9204.0,-2042.0,5030.0,-1041.0,4201.0,941.0,0.07,0.253,-0.225,0.938
182380,7802.0,-2744.0,4814.0,-1064.0,4289.0,1003.0,0.072,0.212,-0.234,0.946
182393,6682.0,-2212.0,4724.0,-823.0,3969.0,1001.0,0.073,0.175,-0.24,0.952
182406,5670.0,-2370.0,4224.0,-611.0,3809.0,1084.0,0.073,0.139,-0.244,0.957
182429,4722.0,-1942.0,4164.0,-510.0,3546.0,1151.0,0.071,0.105,-0.248,0.961
182442,4076.0,-1816.0,3782.0,-488.0,3352.0,1169.0,0.069,0.072,-0.251,0.963
182465,3522.0,-2030.0,3988.0,-362.0,3165.0,1144.0,0.066,0.041,-0.253,0.964
182478,2976.0,-1794.0,2810.0,-143.0,3004.0,1065.0,0.063,0.011,-0.252,0.965
182501,2806.0,-1262.0,2042.0,-203.0,2804.0,1021.0,0.06,-0.017,-0.253,0.966
182514,2482.0,-1828.0,2352.0,-284.0,2753.0,1045.0,0.057,-0.044,-0.253,0.965
182537,1790.0,-1740.0,2312.0,-225.0,2600.0,983.0,0.054,-0.07,-0.253,0.963
182550,1304.0,-1276.0,2046.0,-216.0,2463.0,817.0,0.052,-0.094,-0.254,0.961
182563,922.0,-1504.0,1266.0,-311.0,2234.0,629.0,0.051,-0.115,-0.255,0.959
182586,284.0,-1826.0,1052.0,-349.0,2062.0,541.0,0.051,-0.135,-0.256,0.956
182599,-274.0,-1906.0,1276.0,-217.0,1762.0,352.0,0.052,-0.152,-0.257,0.953
182622,-506.0,-1644.0,1522.0,-194.0,1442.0,144.0,0.054,-0.165,-0.258,0.951
182635,-634.0,-1876.0,812.0,-190.0,1311.0,9.0,0.056,-0.177,-0.259,0.948
182658,-1430.0,-1698.0,902.0,-194.0,969.0,-24.0,0.059,-0.185,-0.26,0.946
182671,-1404.0,-2232.0,1234.0,-247.0,751.0,-129.0,0.061,-0.192,-0.262,0.944
182694,-1960.0,-2662.0,1018.0,-187.0,557.0,-137.0,0.063,-0.196,-0.263,0.942
182707,-2128.0,-2262.0,566.0,-153.0,305.0,-192.0,0.066,-0.199,-0.265,0.941
182730,-2056.0,-2450.0,258.0,-158.0,111.0,-255.0,0.068,-0.199,-0.266,0.941
182743,-2484.0,-2874.0,222.0,-126.0,-90.0,-322.0,0.07,-0.198,-0.268,0.94
182756,-2510.0,-3406.0,610.0,53.0,-300.0,-402.0,0.073,-0.194,-0.269,0.941
182779,-2228.0,-3054.0,1570.0,278.0,-642.0,-437.0,0.076,-0.187,-0.267,0.942
182792,-2038.0,-2708.0,1034.0,324.0,-863.0,-414.0,0.078,-0.178,-0.266,0.944
182815,-1998.0,-3246.0,902.0,334.0,-1065.0,-357.0,0.079,-0.168,-0.264,0.946
182828,-1662.0,-3386.0,996.0,387.0,-1312.0,-379.0,0.08,-0.155,-0.262,0.949
182851,-1372.0,-3594.0,1520.0,513.0,-1588.0,-417.0,0.081,-0.139,-0.259,0.952
182864,-1074.0,-3412.0,2136.0,713.0,-1890.0,-424.0,0.081,-0.121,-0.255,0.956
182887,-524.0,-3264.0,2186.0,734.0,-2039.0,-412.0,0.08,-0.101,-0.25,0.959
182900,-658.0,-3288.0,2210.0,638.0,-2322.0,-422.0,0.079,-0.079,-0.247,0.963
182923,466.0,-3016.0,3294.0,741.0,-2683.0,-393.0,0.078,-0.053,-0.242,0.966
182936,860.0,-2840.0,2976.0,664.0,-2766.0,-373.0,0.075,-0.027,-0.238,0.968
182959,1360.0,-2764.0,3550.0,548.0,-2936.0,-380.0,0.072,0.001,-0.235,0.969
182972,2322.0,-2340.0,4668.0,679.0,-3312.0,-324.0,0.068,0.032,-0.231,0.97
182985,3188.0,-1926.0,5402.0,455.0,-3481.0,-247.0,0.063,0.064,-0.229,0.969
183008,4312.0,-1860.0,4880.0,231.0,-3397.0,-238.0,0.058,0.095,-0.229,0.967
183021,4812.0,-3490.0,4322.0,300.0,-3200.0,-176.0,0.052,0.125,-0.228,0.964
183044,5976.0,-3980.0,5194.0,823.0,-3394.0,-317.0,0.047,0.157,-0.222,0.961
183057,7312.0,-2380.0,6274.0,1164.0,-3446.0,-516.0,0.043,0.189,-0.212,0.958
183080,8046.0,-1430.0,7128.0,1092.0,-3410.0,-706.0,0.041,0.221,-0.202,0.953
183093,9264.0,-1694.0,6812.0,841.0,-3099.0,-790.0,0.041,0.251,-0.194,0.948
183116,9186.0,-3768.0,5440.0,764.0,-2432.0,-610.0,0.04,0.273,-0.187,0.943
183129,8308.0,-2840.0,6434.0,1233.0,-2502.0,-484.0,0.037,0.297,-0.176,0.938
183142,9102.0,32.0,9034.0,1294.0,-2920.0,-796.0,0.036,0.324,-0.164,0.931
183165,9658.0,-2154.0,8580.0,789.0,-2670.0,-730.0,0.036,0.348,-0.155,0.924
183178,10194.0,-1202.0,6910.0,958.0,-3035.0,-247.0,0.03,0.375,-0.147,0.915
183201,9302.0,-3264.0,5744.0,801.0,-2049.0,-184.0,0.026,0.393,-0.14,0.909
183214,9472.0,-914.0,6714.0,1137.0,-2466.0,-188.0,0.021,0.414,-0.131,0.901
183237,9816.0,-1412.0,7456.0,974.0,-2190.0,-383.0,0.018,0.433,-0.122,0.893
183250,9640.0,-1638.0,6218.0,975.0,-2039.0,-195.0,0.013,0.45,-0.113,0.886
183273,10180.0,-1484.0,6382.0,890.0,-1872.0,-117.0,0.008,0.466,-0.105,0.879
183286,9144.0,-994.0,6894.0,822.0,-1799.0,-375.0,0.006,0.481,-0.097,0.871
183299,9320.0,-612.0,7682.0,1007.0,-2147.0,-481.0,0.004,0.499,-0.087,0.862
183322,10134.0,-578.0,6446.0,584.0,-1739.0,-122.0,0.001,0.513,-0.082,0.855
183335,9204.0,-990.0,5120.0,516.0,-1761.0,-258.0,0.001,-0.527,0.077,-0.846
183358,9666.0,-1392.0,4522.0,397.0,-1244.0,39.0,0.004,-0.537,0.074,-0.84
183371,9328.0,-626.0,5998.0,653.0,-1465.0,-149.0,0.008,-0.548,0.068,-0.833
183394,9298.0,-440.0,8104.0,634.0,-1695.0,-596.0,0.007,-0.562,0.06,-0.825
183407,8824.0,232.0,7958.0,227.0,-1556.0,-56.0,0.009,-0.574,0.058,-0.817
183430,7954.0,-1470.0,5570.0,-59.0,-1551.0,-174.0,0.008,-0.586,0.057,-0.809
183443,9178.0,-1378.0,5096.0,31.0,-1733.0,-143.0,0.008,-0.599,0.056,-0.799
183466,9478.0,-332.0,6526.0,39.0,-1576.0,85.0,0.01,-0.61,0.056,-0.79
183479,9030.0,-300.0,5952.0,25.0,-1254.0,223.0,0.012,-0.62,0.057,-0.783
183492,8690.0,-1206.0,5742.0,-99.0,-1273.0,254.0,0.014,-0.629,0.059,-0.775
183515,8754.0,-1378.0,5438.0,-191.0,-1033.0,211.0,0.015,-0.636,0.062,-0.769
183528,8838.0,-1458.0,5850.0,-211.0,-869.0,180.0,0.015,-0.642,0.064,-0.764
183551,8738.0,-858.0,5472.0,-187.0,-645.0,232.0,0.016,-0.647,0.067,-0.76
183564,9462.0,-696.0,5804.0,-255.0,-486.0,102.0,0.016,-0.65,0.069,-0.757
183587,9170.0,-1352.0,5830.0,-323.0,-146.0,200.0,0.016,-0.651,0.073,-0.755
183600,9126.0,-1294.0,6474.0,-316.0,66.0,136.0,0.015,-0.651,0.076,-0.755
183623,10102.0,-1214.0,7154.0,-446.0,191.0,87.0,0.013,-0.649,0.079,-0.756
183636,9284.0,-1054.0,6142.0,-665.0,493.0,-163.0,0.007,-0.646,0.083,-0.759
183649,9948.0,-2150.0,5918.0,-752.0,837.0,-32.0,0.002,-0.64,0.088,-0.763
183672,10756.0,-2104.0,6464.0,-497.0,1134.0,108.0,0.001,0.632,-0.092,0.769
183685,11326.0,-652.0,6834.0,-527.0,1673.0,358.0,0.003,0.62,-0.098,0.779
183708,11588.0,-2608.0,7218.0,-358.0,1806.0,-7.0,0.007,0.606,-0.1,0.789
183721,12782.0,-2086.0,8104.0,-210.0,2045.0,69.0,0.009,0.591,-0.102,0.8
183744,12864.0,-1650.0,7262.0,-422.0,2527.0,0.0,0.014,0.572,-0.105,0.813
183757,12754.0,-1954.0,7216.0,-680.0,2937.0,182.0,0.019,0.55,-0.111,0.828
183780,12544.0,-2366.0,7472.0,-692.0,3097.0,128.0,0.024,0.525,-0.116,0.843
183793,12612.0,-2462.0,7616.0,-566.0,3265.0,221.0,0.028,0.499,-0.12,0.858
183816,12132.0,-618.0,7058.0,-470.0,3216.0,151.0,0.033,0.473,-0.124,0.872
183829,12098.0,-1864.0,7132.0,-893.0,3352.0,333.0,0.038,0.445,-0.131,0.885
183852,11150.0,-2586.0,6266.0,-858.0,3603.0,642.0,0.04,0.414,-0.14,0.899
183865,10704.0,-1468.0,6056.0,-762.0,3565.0,734.0,0.041,0.382,-0.147,0.911
183878,10100.0,-1702.0,5942.0,-716.0,3590.0,754.0,0.042,0.35,-0.155,0.923
183901,9848.0,-1860.0,6486.0,-586.0,3459.0,770.0,0.041,0.319,-0.161,0.933
183914,10116.0,-1356.0,6902.0,-613.0,3302.0,680.0,0.042,0.289,-0.167,0.942
183937,8940.0,-1650.0,6646.0,-725.0,3459.0,952.0,0.041,0.257,-0.174,0.95
183950,9004.0,-1796.0,4484.0,-885.0,3614.0,1118.0,0.038,0.223,-0.183,0.957
183973,7646.0,-2372.0,4376.0,-873.0,3755.0,1282.0,0.035,0.187,-0.192,0.963
183986,6470.0,-1996.0,5710.0,-656.0,3457.0,1120.0,0.032,0.154,-0.198,0.967
184009,6002.0,-1778.0,6086.0,-495.0,3198.0,890.0,0.03,0.125,-0.203,0.971
184022,5810.0,-1654.0,5086.0,-620.0,2962.0,914.0,0.028,0.097,-0.208,0.973
184035,5148.0,-2720.0,3022.0,-1006.0,3167.0,1026.0,0.026,0.066,-0.217,0.974
184058,4308.0,-1882.0,2638.0,-1073.0,3282.0,1163.0,0.022,0.034,-0.227,0.973
184071,3562.0,-1018.0,2490.0,-669.0,3003.0,1007.0,0.019,0.004,-0.233,0.972
184094,3078.0,-2226.0,3246.0,-472.0,2876.0,839.0,0.017,-0.024,-0.236,0.971
184107,1926.0,-2252.0,3132.0,-285.0,2703.0,701.0,0.017,-0.05,-0.238,0.97
184130,1276.0,-2124.0,2880.0,-269.0,2294.0,499.0,0.017,-0.071,-0.24,0.968
184143,1144.0,-2194.0,2448.0,-430.0,2214.0,547.0,0.016,-0.093,-0.243,0.965
184166,-18.0,-2154.0,2460.0,-347.0,2143.0,555.0,0.016,-0.113,-0.245,0.963
184179,-634.0,-1430.0,1898.0,-269.0,1785.0,340.0,0.016,-0.13,-0.247,0.96
184192,-810.0,-2482.0,1306.0,-287.0,1651.0,258.0,0.018,-0.145,-0.249,0.957
184215,-1962.0,-2610.0,818.0,-83.0,1543.0,230.0,0.019,-0.16,-0.249,0.955
184228,-2228.0,-1448.0,1752.0,17.0,1099.0,156.0,0.02,-0.17,-0.249,0.953
184251,-2238.0,-1598.0,1266.0,-162.0,842.0,112.0,0.021,-0.177,-0.25,0.952
184264,-2436.0,-2428.0,16.0,-247.0,687.0,80.0,0.021,-0.184,-0.252,0.95
184282,-2748.0,-2198.0,516.0,-149.0,438.0,58.0,0.021,-0.188,-0.253,0.949
184305,-2530.0,-2232.0,744.0,-124.0,179.0,22.0,0.021,-0.189,-0.254,0.948
184318,-2648.0,-2308.0,974.0,6.0,-85.0,38.0,0.021,-0.189,-0.254,0.949
184341,-2576.0,-2250.0,1074.0,46.0,-321.0,23.0,0.02,-0.186,-0.253,0.949
184354,-2410.0,-2340.0,492.0,117.0,-509.0,-21.0,0.019,-0.181,-0.252,0.95
184377,-2474.0,-2350.0,610.0,144.0,-744.0,-103.0,0.018,-0.174,-0.251,0.952
184390,-1920.0,-2128.0,1148.0,157.0,-961.0,-182.0,0.018,-0.165,-0.25,0.954
184403,-1822.0,-2530.0,1556.0,175.0,-1164.0,-244.0,0.018,-0.154,-0.249,0.956
184426,-1422.0,-2582.0,1170.0,260.0,-1401.0,-335.0,0.018,-0.141,-0.248,0.958
184439,-1792.0,-3100.0,1390.0,460.0,-1615.0,-371.0,0.019,-0.126,-0.244,0.961
184462,-1224.0,-2142.0,2640.0,569.0,-2013.0,-457.0,0.019,-0.106,-0.24,0.965
184475,-468.0,-2304.0,3600.0,562.0,-2305.0,-439.0,0.018,-0.085,-0.236,0.968
184498,-208.0,-2388.0,2990.0,506.0,-2502.0,-442.0,0.017,-0.061,-0.232,0.971
184511,10.0,-2702.0,3020.0,491.0,-2745.0,-429.0,0.016,-0.035,-0.228,0.973
184534,800.0,-2062.0,2830.0,383.0,-2975.0,-464.0,0.014,-0.007,-0.225,0.974
184547,2074.0,-1780.0,4410.0,321.0,-3313.0,-454.0,0.011,0.024,-0.222,0.975
184560,2742.0,-2436.0,5156.0,336.0,-3492.0,-489.0,0.008,0.057,-0.219,0.974
184583,3366.0,-2688.0,5636.0,345.0,-3670.0,-476.0,0.005,0.091,-0.216,0.972
184596,3696.0,-2568.0,4704.0,330.0,-3736.0,-488.0,0.002,0.126,-0.213,0.969
184619,5014.0,-2298.0,4536.0,337.0,-4046.0,-468.0,0.002,-0.163,0.209,-0.964
184632,7516.0,-2186.0,4808.0,480.0,-3829.0,-551.0,0.005,-0.199,0.204,-0.959
184655,8478.0,-2246.0,5200.0,637.0,-3464.0,-550.0,0.008,-0.23,0.197,-0.953
184668,8386.0,-2702.0,5966.0,809.0,-3218.0,-618.0,0.01,-0.26,0.188,-0.947
184691,8036.0,-3410.0,6524.0,919.0,-3088.0,-879.0,0.009,-0.289,0.177,-0.941
184704,8290.0,-2194.0,7094.0,1032.0,-3188.0,-953.0,0.009,-0.318,0.166,-0.934
184727,6054.0,-5462.0,6260.0,1300.0,-4631.0,-1366.0,0.008,-0.36,0.15,-0.921
184740,10860.0,-2052.0,7138.0,657.0,-3040.0,-443.0,0.01,-0.386,0.142,-0.911
184753,9678.0,-2902.0,6808.0,922.0,-3132.0,-553.0,0.013,-0.413,0.132,-0.901
184776,10586.0,-1506.0,7642.0,901.0,-2981.0,-537.0,0.015,-0.439,0.122,-0.89
184789,10782.0,-1162.0,7300.0,640.0,-2696.0,-303.0,0.018,-0.461,0.115,-0.88
184812,11118.0,-3122.0,5984.0,272.0,-1823.0,67.0,0.022,-0.476,0.113,-0.872
184825,10020.0,-4064.0,4866.0,814.0,-1921.0,-228.0,0.026,-0.492,0.105,-0.864
184848,11606.0,-908.0,7312.0,872.0,-1860.0,-165.0,0.03,-0.507,0.097,-0.856
184861,10602.0,-984.0,7448.0,575.0,-1697.0,-293.0,0.032,-0.52,0.091,-0.849
184884,10298.0,-2320.0,6182.0,562.0,-1511.0,-213.0,0.034,-0.532,0.085,-0.842
184897,10202.0,-1742.0,5252.0,596.0,-1326.0,-53.0,0.037,-0.542,0.08,-0.836
184920,9940.0,-1302.0,5066.0,701.0,-1381.0,-265.0,0.04,-0.553,0.073,-0.829
184933,9432.0,-832.0,5926.0,569.0,-1147.0,-198.0,0.042,-0.562,0.067,-0.824
184946,9276.0,-976.0,5732.0,395.0,-1271.0,-354.0,0.042,-0.572,0.061,-0.817
184969,9202.0,-1104.0,4630.0,299.0,-1211.0,-326.0,0.042,-0.581,0.057,-0.811
184982,8992.0,-932.0,4052.0,393.0,-1219.0,-378.0,0.042,-0.59,0.052,-0.805
185005,8928.0,-1022.0,4528.0,317.0,-1138.0,-305.0,0.042,-0.599,0.047,-0.799
185018,8200.0,-1262.0,4242.0,325.0,-1095.0,-321.0,0.042,-0.607,0.043,-0.793
185041,8726.0,-664.0,4096.0,368.0,-1219.0,-296.0,0.042,-0.616,0.038,-0.786
185054,8746.0,-208.0,3462.0,290.0,-1129.0,-282.0,0.042,-0.624,0.034,-0.78
185077,8922.0,-144.0,3086.0,153.0,-940.0,-37.0,0.043,-0.631,0.032,-0.774
185090,8508.0,-422.0,2736.0,46.0,-453.0,164.0,0.044,-0.634,0.032,-0.772
185113,9016.0,-1278.0,3012.0,113.0,-681.0,-157.0,0.044,-0.639,0.03,-0.768
185126,8730.0,-1940.0,2780.0,214.0,-472.0,-181.0,0.044,-0.642,0.027,-0.765
185139,8300.0,-1420.0,3034.0,490.0,-332.0,25.0,0.048,-0.644,0.024,-0.763
185162,8370.0,520.0,2918.0,521.0,-521.0,-24.0,0.051,-0.647,0.02,-0.76
185175,8500.0,-416.0,3012.0,237.0,-502.0,-35.0,0.052,-0.651,0.018,-0.757
185198,8604.0,-1398.0,2814.0,90.0,-476.0,-32.0,0.052,-0.654,0.016,-0.754
185211,8616.0,-1668.0,2740.0,135.0,-399.0,53.0,0.054,-0.657,0.016,-0.752
