timeMs,ax,ay,az,gx,gy,gz,q0,q1,q2,q3
536886,6190.0,2284.0,4392.0,158.0,210.0,63.0,0.061,0.386,0.139,0.91
536898,6092.0,2542.0,4436.0,155.0,175.0,96.0,0.06,0.385,0.14,0.91
536920,5902.0,2636.0,4412.0,104.0,133.0,115.0,0.058,0.385,0.141,0.91
536932,5978.0,2380.0,4678.0,98.0,102.0,105.0,0.056,0.384,0.141,0.911
536954,6094.0,2036.0,4872.0,204.0,125.0,74.0,0.054,0.383,0.143,0.911
536966,6286.0,2122.0,5330.0,364.0,172.0,36.0,0.052,0.382,0.146,0.911
536988,6526.0,2286.0,5672.0,510.0,300.0,28.0,0.049,0.38,0.151,0.911
537000,6694.0,2508.0,6086.0,591.0,440.0,32.0,0.046,0.376,0.156,0.912
537022,7098.0,2208.0,6340.0,673.0,611.0,-8.0,0.042,0.371,0.162,0.913
537044,7330.0,2188.0,6446.0,839.0,866.0,-67.0,0.039,0.364,0.17,0.915
537056,7694.0,2166.0,6696.0,1040.0,1161.0,-150.0,0.034,0.354,0.18,0.917
537078,7838.0,2406.0,6232.0,1220.0,1470.0,-221.0,0.029,0.342,0.191,0.92
537090,7054.0,2676.0,5538.0,1330.0,1687.0,-217.0,0.023,0.327,0.204,0.922
537112,6452.0,2988.0,5746.0,1371.0,1744.0,-253.0,0.018,0.312,0.217,0.925
537124,6062.0,2984.0,5558.0,1298.0,1745.0,-294.0,0.013,0.297,0.229,0.927
537146,5094.0,3098.0,4974.0,1170.0,1728.0,-208.0,0.007,0.281,0.24,0.929
537158,4052.0,3598.0,4716.0,1082.0,1579.0,-111.0,0.001,0.267,0.25,0.931
537180,3274.0,3388.0,4702.0,965.0,1385.0,-82.0,0.004,-0.255,-0.259,-0.932
537202,2696.0,3680.0,4656.0,934.0,1213.0,-63.0,0.009,-0.244,-0.267,-0.932
537214,1804.0,4684.0,4644.0,827.0,965.0,-44.0,0.013,-0.236,-0.274,-0.932
537236,1414.0,5496.0,4828.0,577.0,658.0,-33.0,0.015,-0.229,-0.28,-0.932
537248,1158.0,5578.0,4914.0,275.0,391.0,-25.0,0.017,-0.225,-0.282,-0.932
537270,1328.0,5828.0,5354.0,105.0,157.0,-85.0,0.017,-0.223,-0.284,-0.932
537282,1780.0,6238.0,5560.0,-26.0,-34.0,-220.0,0.014,-0.223,-0.285,-0.932
537304,2156.0,6354.0,5736.0,-195.0,-145.0,-286.0,0.011,-0.223,-0.284,-0.932
537316,2500.0,6120.0,5884.0,-320.0,-217.0,-365.0,0.007,-0.224,-0.283,-0.933
537338,3034.0,5990.0,6018.0,-387.0,-258.0,-527.0,0.001,-0.224,-0.28,-0.933
537350,3604.0,5586.0,6128.0,-462.0,-250.0,-662.0,0.006,0.225,0.278,0.934
537372,4118.0,5126.0,6206.0,-482.0,-203.0,-710.0,0.014,0.225,0.275,0.935
537394,4488.0,4592.0,6204.0,-445.0,-131.0,-744.0,0.021,0.224,0.273,0.935
537406,4742.0,3972.0,6100.0,-414.0,-38.0,-750.0,0.028,0.222,0.271,0.936
537428,4832.0,3412.0,6092.0,-425.0,50.0,-715.0,0.035,0.22,0.268,0.937
537440,4762.0,2622.0,5884.0,-468.0,125.0,-643.0,0.041,0.218,0.265,0.938
537462,4618.0,1748.0,5652.0,-475.0,183.0,-528.0,0.045,0.215,0.262,0.94
537474,4530.0,1066.0,5470.0,-389.0,224.0,-372.0,0.049,0.212,0.259,0.941
537496,4392.0,874.0,5264.0,-155.0,234.0,-227.0,0.05,0.209,0.259,0.942
537508,4076.0,1646.0,4892.0,119.0,195.0,-160.0,0.051,0.207,0.26,0.942
537530,3938.0,2672.0,4878.0,388.0,156.0,-150.0,0.051,0.205,0.264,0.941
537552,3858.0,3656.0,5296.0,526.0,82.0,-144.0,0.051,0.205,0.269,0.94
537564,3914.0,4474.0,5698.0,456.0,29.0,-95.0,0.05,0.205,0.273,0.939
537586,3880.0,4880.0,6036.0,280.0,8.0,1.0,0.049,0.205,0.276,0.938
537598,3780.0,4800.0,6096.0,166.0,35.0,93.0,0.048,0.205,0.277,0.937
537620,3476.0,4772.0,6010.0,197.0,82.0,118.0,0.046,0.205,0.279,0.937
537632,3162.0,4934.0,5962.0,262.0,98.0,79.0,0.045,0.204,0.281,0.937
537654,2976.0,5114.0,5970.0,273.0,83.0,45.0,0.043,0.204,0.284,0.936
537666,2750.0,5246.0,6050.0,230.0,60.0,58.0,0.042,0.204,0.286,0.936
537688,2632.0,5286.0,6128.0,154.0,29.0,60.0,0.041,0.203,0.287,0.935
537700,2610.0,5278.0,6238.0,57.0,-5.0,35.0,0.041,0.203,0.288,0.935
537722,2702.0,5010.0,6386.0,-17.0,-28.0,28.0,0.041,0.204,0.288,0.935
537744,2818.0,4696.0,6496.0,-17.0,-19.0,22.0,0.04,0.204,0.287,0.935
537756,2980.0,4586.0,6604.0,-29.0,-14.0,-13.0,0.04,0.204,0.287,0.935
537778,3122.0,4482.0,6722.0,-69.0,10.0,-26.0,0.041,0.204,0.287,0.935
537790,3226.0,4296.0,6790.0,-88.0,54.0,-22.0,0.041,0.203,0.286,0.936
537812,3384.0,4166.0,6790.0,-75.0,101.0,-56.0,0.041,0.202,0.285,0.936
537824,3436.0,4280.0,6640.0,-74.0,130.0,-85.0,0.041,0.201,0.285,0.937
537846,3370.0,4312.0,6442.0,-107.0,154.0,-87.0,0.042,0.199,0.284,0.937
537858,3324.0,4268.0,6220.0,-131.0,164.0,-92.0,0.042,0.197,0.283,0.938
537880,3390.0,4178.0,6106.0,-141.0,146.0,-108.0,0.043,0.196,0.282,0.938
537902,3422.0,4162.0,6000.0,-146.0,128.0,-91.0,0.043,0.194,0.281,0.939
537914,3348.0,4116.0,5942.0,-125.0,109.0,-52.0,0.043,0.193,0.28,0.939
537936,3480.0,4090.0,5932.0,-65.0,102.0,-28.0,0.043,0.193,0.279,0.94
537948,3354.0,4156.0,5946.0,9.0,117.0,-10.0,0.043,0.192,0.28,0.94
537970,3324.0,4532.0,5902.0,54.0,123.0,2.0,0.042,0.191,0.28,0.94
537982,3110.0,4632.0,5892.0,33.0,118.0,47.0,0.041,0.19,0.28,0.94
538004,3008.0,4602.0,5942.0,10.0,108.0,76.0,0.04,0.189,0.281,0.94
538016,2892.0,4548.0,5858.0,35.0,89.0,81.0,0.039,0.189,0.281,0.94
538038,2886.0,4694.0,5828.0,39.0,69.0,63.0,0.038,0.188,0.281,0.94
538060,2962.0,4646.0,5770.0,15.0,52.0,54.0,0.037,0.188,0.281,0.94
538072,2856.0,4688.0,5730.0,-24.0,44.0,63.0,0.037,0.188,0.281,0.94
538094,2842.0,4602.0,5868.0,-42.0,10.0,42.0,0.036,0.188,0.281,0.94
538106,2932.0,4464.0,5828.0,-48.0,-11.0,12.0,0.036,0.188,0.28,0.941
538128,3012.0,4312.0,5934.0,-31.0,-25.0,-6.0,0.036,0.188,0.28,0.941
538140,3082.0,4208.0,5986.0,-7.0,-30.0,-34.0,0.037,0.189,0.28,0.941
538162,3178.0,4210.0,6096.0,-13.0,-32.0,-56.0,0.037,0.189,0.28,0.94
538174,3152.0,4214.0,6192.0,-30.0,-30.0,-59.0,0.038,0.189,0.28,0.94
538196,3264.0,4166.0,6292.0,-39.0,-21.0,-80.0,0.038,0.189,0.28,0.941
538208,3296.0,4134.0,6356.0,-13.0,-15.0,-114.0,0.039,0.189,0.28,0.94
538230,3380.0,4174.0,6406.0,3.0,0.0,-122.0,0.04,0.189,0.28,0.94
538252,3462.0,4298.0,6468.0,-4.0,12.0,-118.0,0.041,0.188,0.28,0.94
538264,3430.0,4314.0,6414.0,-47.0,25.0,-113.0,0.042,0.188,0.28,0.941
538286,3370.0,4388.0,6338.0,-86.0,24.0,-93.0,0.043,0.188,0.279,0.941
538298,3252.0,4322.0,6262.0,-102.0,24.0,-87.0,0.043,0.187,0.279,0.941
538320,3026.0,4256.0,6308.0,-95.0,0.0,-69.0,0.044,0.187,0.278,0.941
538337,2972.0,4284.0,6296.0,-95.0,-16.0,-67.0,0.045,0.187,0.277,0.941
538349,2964.0,4286.0,6416.0,-86.0,-11.0,-46.0,0.045,0.187,0.276,0.942
538371,3056.0,4398.0,6428.0,-82.0,-4.0,-50.0,0.046,0.187,0.276,0.942
538383,3078.0,4384.0,6380.0,-93.0,20.0,-40.0,0.046,0.187,0.275,0.942
538406,3178.0,4388.0,6448.0,-93.0,48.0,-39.0,0.046,0.186,0.274,0.942
538418,3242.0,4380.0,6486.0,-74.0,89.0,-50.0,0.047,0.185,0.274,0.943
538441,3226.0,4442.0,6532.0,-26.0,144.0,-36.0,0.046,0.184,0.274,0.943
538453,3346.0,4240.0,6808.0,60.0,210.0,-26.0,0.046,0.182,0.274,0.943
538476,3312.0,4332.0,6910.0,174.0,291.0,-43.0,0.045,0.18,0.276,0.943
538488,3304.0,4588.0,7052.0,217.0,386.0,-32.0,0.044,0.176,0.278,0.943
538511,3208.0,4438.0,7078.0,241.0,491.0,5.0,0.042,0.172,0.28,0.943
538533,3066.0,4362.0,7076.0,331.0,594.0,-2.0,0.04,0.167,0.283,0.944
538545,2754.0,4586.0,7098.0,406.0,671.0,-14.0,0.037,0.161,0.287,0.944
538567,2734.0,4644.0,7236.0,426.0,741.0,14.0,0.035,0.155,0.291,0.943
538579,2600.0,4880.0,7344.0,474.0,812.0,4.0,0.031,0.148,0.295,0.943
538601,2478.0,5052.0,7304.0,517.0,876.0,-23.0,0.029,0.14,0.3,0.943
538613,2344.0,5372.0,7200.0,572.0,935.0,-75.0,0.026,0.132,0.306,0.943
538635,2162.0,5848.0,7186.0,505.0,955.0,-131.0,0.023,0.123,0.31,0.942
538647,2282.0,6000.0,7424.0,378.0,961.0,-197.0,0.022,0.114,0.314,0.942
538669,2454.0,5698.0,7862.0,300.0,1044.0,-281.0,0.021,0.104,0.317,0.942
538691,2740.0,6238.0,8402.0,284.0,1165.0,-418.0,0.021,0.093,0.32,0.942
538703,2556.0,6178.0,8306.0,239.0,1344.0,-453.0,0.02,0.08,0.323,0.943
538725,2072.0,5738.0,8886.0,165.0,1492.0,-460.0,0.02,0.065,0.325,0.943
538737,1976.0,5474.0,9602.0,90.0,1726.0,-531.0,0.019,0.048,0.327,0.944
538759,1960.0,5132.0,10272.0,-81.0,1989.0,-493.0,0.017,0.029,0.326,0.945
538771,1756.0,4958.0,10618.0,-392.0,2265.0,-415.0,0.014,0.008,0.323,0.946
538793,1488.0,4704.0,10076.0,-643.0,2525.0,-306.0,0.009,-0.015,0.318,0.948
538805,818.0,4008.0,8898.0,-789.0,2782.0,-152.0,0.002,-0.04,0.311,0.95
538827,424.0,4218.0,8748.0,-848.0,2979.0,-75.0,0.006,0.067,-0.304,-0.95
538839,560.0,3680.0,8870.0,-968.0,3114.0,45.0,0.016,0.094,-0.295,-0.951
538861,274.0,3296.0,8434.0,-1009.0,3176.0,250.0,0.028,0.122,-0.285,-0.95
538883,-372.0,3032.0,7184.0,-1059.0,3209.0,362.0,0.041,0.148,-0.275,-0.949
538895,-1140.0,2924.0,5946.0,-1093.0,3136.0,419.0,0.054,0.174,-0.265,-0.947
538917,-1332.0,3126.0,5320.0,-1079.0,3030.0,440.0,0.066,0.199,-0.254,-0.944
538929,-1704.0,3780.0,4784.0,-1107.0,2858.0,537.0,0.08,0.222,-0.244,-0.941
538951,-1684.0,3378.0,5110.0,-1197.0,2662.0,706.0,0.094,0.243,-0.233,-0.937
538963,-2086.0,3012.0,4728.0,-1257.0,2355.0,831.0,0.109,0.261,-0.222,-0.933
538985,-2428.0,3096.0,3366.0,-1206.0,2047.0,956.0,0.124,0.275,-0.211,-0.93
538997,-3676.0,2768.0,2398.0,-1112.0,1691.0,1061.0,0.139,0.286,-0.203,-0.926
539019,-2774.0,2478.0,2496.0,-1031.0,1158.0,948.0,0.152,0.293,-0.195,-0.924
539031,-2818.0,2572.0,3104.0,-928.0,922.0,977.0,0.164,0.298,-0.188,-0.921
539054,-2462.0,3286.0,4164.0,-816.0,672.0,1076.0,0.176,0.3,-0.183,-0.919
539076,-2232.0,3696.0,4440.0,-730.0,465.0,1200.0,0.189,0.301,-0.18,-0.917
539088,-2306.0,3554.0,4302.0,-523.0,310.0,1252.0,0.201,0.3,-0.178,-0.915
539110,-2088.0,3542.0,3500.0,-481.0,196.0,1172.0,0.213,0.299,-0.177,-0.913
539122,-2236.0,3390.0,3128.0,-530.0,-25.0,1045.0,0.223,0.296,-0.176,-0.912
539144,-1988.0,4066.0,4642.0,-578.0,-193.0,811.0,0.231,0.292,-0.174,-0.912
539156,-1302.0,4506.0,6142.0,-526.0,-276.0,667.0,0.238,0.287,-0.172,-0.912
539178,-752.0,4134.0,6868.0,-223.0,-229.0,681.0,0.244,0.283,-0.172,-0.911
539190,-992.0,4338.0,6486.0,-106.0,-144.0,583.0,0.249,0.28,-0.174,-0.911
539212,-1764.0,4272.0,6148.0,-117.0,-63.0,545.0,0.255,0.278,-0.174,-0.91
539224,-2224.0,5376.0,6692.0,-184.0,-30.0,491.0,0.26,0.277,-0.174,-0.909
539246,-2654.0,5592.0,7722.0,-296.0,28.0,419.0,0.264,0.275,-0.173,-0.908
539268,-3060.0,4936.0,7878.0,-310.0,121.0,319.0,0.268,0.275,-0.171,-0.907
539280,-3258.0,4294.0,7586.0,-111.0,186.0,130.0,0.27,0.276,-0.169,-0.906
539302,-3204.0,4226.0,6796.0,79.0,237.0,6.0,0.271,0.279,-0.17,-0.906
539314,-3520.0,3832.0,6290.0,101.0,208.0,-59.0,0.271,0.281,-0.17,-0.905
539336,-3610.0,3358.0,6120.0,29.0,137.0,-29.0,0.271,0.282,-0.169,-0.905
539348,-3566.0,3088.0,5976.0,-25.0,79.0,84.0,0.272,0.283,-0.169,-0.904
539370,-3498.0,3254.0,6200.0,-50.0,45.0,188.0,0.275,0.283,-0.169,-0.903
539382,-3156.0,3508.0,6532.0,-132.0,16.0,241.0,0.277,0.282,-0.168,-0.903
539404,-3048.0,3796.0,6720.0,-107.0,9.0,235.0,0.28,0.282,-0.167,-0.902
539426,-2696.0,4180.0,6906.0,-85.0,5.0,172.0,0.282,0.281,-0.167,-0.902
539438,-2636.0,4094.0,6948.0,-41.0,6.0,136.0,0.284,0.281,-0.167,-0.901
539460,-2760.0,3624.0,6878.0,30.0,22.0,99.0,0.285,0.281,-0.167,-0.901
539472,-2884.0,4298.0,6712.0,46.0,73.0,39.0,0.286,0.282,-0.168,-0.9
539494,-2818.0,4238.0,6508.0,115.0,34.0,254.0,0.289,0.282,-0.169,-0.899
539506,-2588.0,3546.0,6206.0,10.0,-37.0,85.0,0.29,0.281,-0.169,-0.899
539528,-2562.0,4462.0,6548.0,-77.0,-44.0,76.0,0.291,0.281,-0.169,-0.899
539540,-2740.0,3812.0,6878.0,-56.0,-50.0,82.0,0.293,0.28,-0.169,-0.899
539562,-2782.0,3818.0,7028.0,-98.0,-83.0,76.0,0.294,0.279,-0.168,-0.899
539574,-2962.0,3444.0,7122.0,-9.0,-82.0,43.0,0.295,0.278,-0.168,-0.899
539597,-2736.0,3494.0,6968.0,25.0,-67.0,90.0,0.296,0.277,-0.168,-0.898
539619,-2712.0,3556.0,6838.0,39.0,-41.0,136.0,0.298,0.277,-0.169,-0.898
539631,-2842.0,3836.0,6718.0,13.0,-37.0,88.0,0.299,0.276,-0.169,-0.897
539653,-2838.0,3818.0,6604.0,-41.0,-49.0,66.0,0.301,0.276,-0.169,-0.897
539665,-2978.0,3648.0,6700.0,-66.0,-58.0,84.0,0.302,0.275,-0.169,-0.897
539687,-2878.0,3500.0,7132.0,-35.0,-40.0,129.0,0.304,0.274,-0.169,-0.897
539699,-2936.0,3352.0,7610.0,108.0,27.0,183.0,0.306,0.275,-0.169,-0.896
539721,-2750.0,3624.0,7246.0,232.0,47.0,167.0,0.308,0.275,-0.171,-0.895
539733,-2562.0,3786.0,6626.0,222.0,49.0,199.0,0.309,0.276,-0.173,-0.893
539755,-2438.0,3844.0,6480.0,198.0,21.0,128.0,0.311,0.277,-0.175,-0.892
539767,-2136.0,3740.0,6582.0,223.0,-26.0,49.0,0.311,0.277,-0.177,-0.892
539789,-1856.0,3504.0,6380.0,312.0,-68.0,-34.0,0.311,0.277,-0.18,-0.891
539811,-1966.0,3862.0,5856.0,318.0,-180.0,-156.0,0.309,0.277,-0.182,-0.892
539823,-1908.0,3642.0,5790.0,263.0,-254.0,-275.0,0.306,0.276,-0.184,-0.892
539845,-1802.0,3742.0,6026.0,128.0,-304.0,-341.0,0.303,0.275,-0.185,-0.894
539857,-2030.0,3298.0,6898.0,-105.0,-273.0,-456.0,0.299,0.273,-0.184,-0.896
539879,-1958.0,3846.0,7004.0,-123.0,-227.0,-502.0,0.296,0.271,-0.182,-0.898
539891,-1778.0,4000.0,7108.0,-30.0,-195.0,-644.0,0.291,0.27,-0.18,-0.9
539913,-1764.0,4706.0,6736.0,341.0,-73.0,-779.0,0.284,0.272,-0.182,-0.902
539925,-1466.0,6354.0,6002.0,579.0,-68.0,-883.0,0.275,0.274,-0.185,-0.903
539947,-1288.0,7190.0,5370.0,776.0,-13.0,-901.0,0.266,0.277,-0.189,-0.904
539969,-1568.0,7860.0,4042.0,885.0,-96.0,-1202.0,0.253,0.281,-0.195,-0.905
539981,-1604.0,7982.0,2912.0,921.0,-242.0,-1420.0,0.239,0.284,-0.2,-0.907
540003,-2078.0,8092.0,2482.0,738.0,-480.0,-1578.0,0.223,0.285,-0.205,-0.91
540015,-2372.0,8338.0,2354.0,526.0,-751.0,-1662.0,0.206,0.283,-0.208,-0.914
540037,-2878.0,7752.0,2328.0,474.0,-1041.0,-1794.0,0.187,0.278,-0.21,-0.918
540049,-3230.0,7010.0,2726.0,649.0,-1297.0,-1997.0,0.166,0.273,-0.214,-0.923
540071,-3172.0,5912.0,3200.0,876.0,-1548.0,-2142.0,0.141,0.265,-0.219,-0.928
540083,-3294.0,4758.0,3788.0,1095.0,-1755.0,-2189.0,0.116,0.255,-0.225,-0.933
540105,-3472.0,3840.0,4132.0,1266.0,-1971.0,-2119.0,0.09,0.244,-0.233,-0.937
540117,-3270.0,3018.0,4910.0,1381.0,-2166.0,-1977.0,0.064,0.23,-0.243,-0.94
540139,-3064.0,2270.0,5560.0,1365.0,-2327.0,-1753.0,0.04,0.214,-0.252,-0.943
540161,-2990.0,1540.0,6342.0,1266.0,-2432.0,-1515.0,0.018,0.197,-0.261,-0.945
540173,-2534.0,1704.0,7516.0,1134.0,-2483.0,-1305.0,0.002,-0.178,0.269,0.947
540195,-1716.0,3392.0,8380.0,845.0,-2559.0,-1053.0,0.02,-0.158,0.274,0.948
540207,-1398.0,3330.0,8742.0,614.0,-2554.0,-828.0,0.035,-0.137,0.278,0.95
540229,-1242.0,2540.0,8986.0,606.0,-2499.0,-712.0,0.049,-0.116,0.282,0.951
540241,-796.0,1568.0,8562.0,766.0,-2362.0,-631.0,0.062,-0.096,0.286,0.951
540263,-92.0,1484.0,7942.0,837.0,-2134.0,-548.0,0.073,-0.078,0.291,0.951
540275,202.0,3018.0,7742.0,700.0,-1927.0,-333.0,0.082,-0.061,0.295,0.95
540297,900.0,4478.0,8750.0,493.0,-1803.0,-191.0,0.089,-0.045,0.298,0.949
540319,1050.0,4812.0,9692.0,294.0,-1638.0,-48.0,0.095,-0.03,0.299,0.949
540331,1184.0,4830.0,10136.0,160.0,-1428.0,12.0,0.099,-0.017,0.299,0.949
540348,1014.0,5004.0,9752.0,24.0,-1255.0,-27.0,0.103,-0.006,0.298,0.949
540370,614.0,5000.0,8852.0,-107.0,-1140.0,-122.0,0.107,0.003,0.296,0.949
540382,410.0,4950.0,8046.0,-215.0,-1106.0,-270.0,0.113,0.012,0.293,0.949
540404,328.0,4570.0,7410.0,-298.0,-1107.0,-405.0,0.12,0.021,0.289,0.949
540416,364.0,4128.0,6808.0,-394.0,-1129.0,-485.0,0.127,0.029,0.284,0.95
540438,272.0,3810.0,6274.0,-530.0,-1168.0,-486.0,0.135,0.038,0.279,0.95
540450,376.0,3692.0,5938.0,-685.0,-1241.0,-488.0,0.143,0.047,0.271,0.951
540472,872.0,3908.0,5976.0,-1001.0,-1335.0,-457.0,0.151,0.056,0.261,0.952
540494,2478.0,3616.0,7614.0,-1410.0,-1289.0,420.0,0.151,0.067,0.246,0.955
540506,2846.0,4588.0,13000.0,-1375.0,-897.0,592.0,0.149,0.074,0.232,0.958
540528,3052.0,5124.0,13786.0,-1285.0,-689.0,133.0,0.15,0.079,0.219,0.961
540540,2150.0,2124.0,10870.0,-769.0,-380.0,165.0,0.15,0.082,0.212,0.962
540562,1120.0,2858.0,8182.0,-357.0,-209.0,221.0,0.149,0.084,0.208,0.963
540574,726.0,3050.0,6562.0,-409.0,-259.0,49.0,0.15,0.086,0.204,0.964
540596,1282.0,2892.0,5664.0,-606.0,-379.0,32.0,0.151,0.088,0.198,0.965
540608,1308.0,2950.0,5584.0,-875.0,-492.0,-70.0,0.153,0.091,0.189,0.966
540630,1928.0,2280.0,6510.0,-1076.0,-597.0,-119.0,0.156,0.095,0.179,0.967
540652,2288.0,2716.0,7564.0,-1058.0,-533.0,-97.0,0.159,0.098,0.168,0.968
540664,2580.0,3048.0,8456.0,-976.0,-434.0,-93.0,0.162,0.101,0.159,0.969
540686,2710.0,2728.0,8678.0,-733.0,-283.0,9.0,0.163,0.102,0.152,0.97
540698,2666.0,2650.0,8092.0,-427.0,-127.0,130.0,0.162,0.103,0.148,0.97
540720,2358.0,2742.0,7416.0,-241.0,-67.0,46.0,0.162,0.104,0.145,0.97
540732,2460.0,2972.0,7060.0,-103.0,-37.0,36.0,0.162,0.104,0.144,0.971
540754,2418.0,3344.0,6816.0,-120.0,-36.0,66.0,0.162,0.105,0.143,0.971
540766,2476.0,3338.0,7086.0,-161.0,-24.0,71.0,0.162,0.105,0.142,0.971
540788,2306.0,2766.0,7466.0,-131.0,0.0,40.0,0.161,0.105,0.141,0.971
540810,2164.0,2606.0,7482.0,-21.0,72.0,-28.0,0.162,0.105,0.14,0.971
540822,1890.0,2540.0,7368.0,52.0,135.0,-85.0,0.162,0.104,0.141,0.971
540844,1570.0,2640.0,7346.0,84.0,182.0,-129.0,0.163,0.102,0.142,0.971
540856,1354.0,3006.0,7508.0,62.0,184.0,-89.0,0.164,0.101,0.143,0.971
540878,1354.0,2976.0,7846.0,6.0,166.0,-63.0,0.164,0.099,0.144,0.971
540890,1494.0,2748.0,8008.0,-35.0,163.0,-48.0,0.165,0.098,0.144,0.971
540912,1572.0,2326.0,7930.0,-67.0,174.0,14.0,0.165,0.096,0.143,0.971
540924,1498.0,2086.0,7912.0,-67.0,195.0,44.0,0.164,0.094,0.143,0.971
540946,1364.0,2028.0,7808.0,-37.0,204.0,71.0,0.164,0.093,0.143,0.972
540958,1320.0,1862.0,7950.0,-35.0,179.0,116.0,0.162,0.091,0.142,0.972
540980,1494.0,1800.0,8112.0,-19.0,173.0,173.0,0.161,0.09,0.142,0.973
541002,1570.0,1660.0,8078.0,28.0,170.0,211.0,0.159,0.089,0.142,0.973
541014,1626.0,1600.0,7910.0,92.0,172.0,242.0,0.156,0.088,0.143,0.973
541036,1592.0,1646.0,7780.0,131.0,151.0,244.0,0.154,0.087,0.144,0.974
541048,1592.0,1850.0,7680.0,88.0,111.0,204.0,0.152,0.086,0.144,0.974
541070,1702.0,2034.0,7828.0,2.0,65.0,206.0,0.15,0.086,0.144,0.974
541082,1878.0,2102.0,8016.0,-63.0,42.0,230.0,0.148,0.086,0.143,0.975
541104,1912.0,2044.0,7884.0,-48.0,50.0,247.0,0.146,0.086,0.143,0.975
541116,1902.0,2040.0,7882.0,-11.0,82.0,253.0,0.144,0.086,0.142,0.976
541138,1908.0,2292.0,7908.0,50.0,99.0,268.0,0.141,0.086,0.143,0.976
541160,1752.0,2464.0,7800.0,127.0,128.0,304.0,0.139,0.085,0.144,0.976
541172,1758.0,2820.0,7760.0,182.0,124.0,326.0,0.135,0.085,0.145,0.976
541194,1654.0,2952.0,7598.0,187.0,111.0,349.0,0.132,0.085,0.147,0.977
541206,1654.0,3138.0,7474.0,197.0,106.0,330.0,0.129,0.085,0.149,0.977
541228,1504.0,3256.0,7330.0,206.0,94.0,292.0,0.126,0.085,0.15,0.977
541240,1324.0,3346.0,7222.0,175.0,61.0,236.0,0.124,0.085,0.152,0.977
541262,1172.0,3420.0,7242.0,123.0,34.0,187.0,0.122,0.085,0.153,0.977
541274,978.0,3462.0,7290.0,35.0,7.0,155.0,0.121,0.085,0.154,0.977
541296,742.0,3320.0,7528.0,-96.0,-43.0,119.0,0.12,0.086,0.153,0.977
541308,732.0,2918.0,7568.0,-195.0,-85.0,78.0,0.12,0.087,0.151,0.977
541331,814.0,2610.0,7662.0,-212.0,-102.0,47.0,0.12,0.087,0.149,0.978
541343,1020.0,2362.0,7792.0,-158.0,-90.0,52.0,0.12,0.088,0.147,0.978
541366,1248.0,2332.0,7840.0,-97.0,-60.0,90.0,0.12,0.089,0.146,0.978
541388,1444.0,2342.0,7816.0,-53.0,-35.0,104.0,0.119,0.089,0.145,0.978
541400,1514.0,2302.0,7752.0,-11.0,-23.0,94.0,0.118,0.09,0.145,0.978
541422,1676.0,2374.0,7758.0,18.0,6.0,96.0,0.118,0.09,0.145,0.978
541434,1826.0,2404.0,7768.0,50.0,28.0,100.0,0.117,0.09,0.146,0.978
541456,1922.0,2458.0,7778.0,88.0,59.0,88.0,0.116,0.09,0.146,0.978
541468,1890.0,2570.0,7752.0,118.0,73.0,67.0,0.115,0.089,0.147,0.978
541490,1892.0,2738.0,7654.0,113.0,88.0,35.0,0.115,0.089,0.148,0.978
541502,1882.0,2744.0,7558.0,96.0,90.0,4.0,0.115,0.089,0.149,0.978
541524,1760.0,2802.0,7580.0,71.0,83.0,-22.0,0.115,0.088,0.15,0.978
541536,1722.0,2736.0,7584.0,53.0,76.0,-27.0,0.115,0.088,0.151,0.978
541558,1668.0,2728.0,7612.0,49.0,67.0,-16.0,0.116,0.087,0.151,0.978
541580,1580.0,2674.0,7624.0,44.0,62.0,9.0,0.116,0.087,0.152,0.978
541592,1472.0,2674.0,7608.0,52.0,45.0,31.0,0.115,0.087,0.152,0.978
541614,1420.0,2762.0,7608.0,37.0,30.0,43.0,0.115,0.086,0.153,0.978
541626,1290.0,2746.0,7636.0,16.0,7.0,46.0,0.115,0.087,0.153,0.978
541648,1306.0,2716.0,7638.0,-1.0,-2.0,34.0,0.114,0.087,0.153,0.978
541660,1350.0,2642.0,7706.0,-7.0,-13.0,24.0,0.114,0.087,0.153,0.978
541682,1304.0,2716.0,7666.0,-6.0,-15.0,5.0,0.115,0.087,0.153,0.978
541694,1320.0,2662.0,7644.0,-8.0,-14.0,9.0,0.115,0.087,0.152,0.978
541716,1308.0,2722.0,7734.0,9.0,-10.0,2.0,0.115,0.088,0.152,0.978
541738,1316.0,2748.0,7716.0,8.0,-7.0,-4.0,0.115,0.088,0.153,0.978
541750,1382.0,2726.0,7692.0,9.0,1.0,-6.0,0.115,0.088,0.153,0.978
541772,1448.0,2676.0,7676.0,23.0,10.0,-3.0,0.115,0.088,0.153,0.978
541784,1460.0,2720.0,7602.0,40.0,23.0,-8.0,0.116,0.088,0.153,0.977
541806,1618.0,2712.0,7650.0,45.0,39.0,-12.0,0.116,0.087,0.154,0.977
541818,1660.0,2700.0,7622.0,46.0,55.0,-16.0,0.116,0.087,0.154,0.977
541840,1700.0,2686.0,7598.0,52.0,65.0,-12.0,0.116,0.087,0.155,0.977
541852,1654.0,2656.0,7634.0,60.0,73.0,-18.0,0.116,0.086,0.155,0.977
541874,1610.0,2622.0,7652.0,72.0,77.0,-25.0,0.116,0.086,0.156,0.977
541886,1556.0,2642.0,7644.0,69.0,78.0,-32.0,0.117,0.085,0.157,0.977
541909,1492.0,2720.0,7634.0,60.0,68.0,-26.0,0.117,0.085,0.157,0.977
541921,1360.0,2794.0,7630.0,49.0,49.0,-24.0,0.117,0.084,0.158,0.977
541944,1232.0,2764.0,7726.0,23.0,30.0,-23.0,0.118,0.084,0.158,0.977
541966,1194.0,2748.0,7754.0,2.0,11.0,-26.0,0.118,0.084,0.158,0.977
541978,1136.0,2708.0,7692.0,-6.0,-13.0,-24.0,0.118,0.084,0.158,0.977
542000,1260.0,2714.0,7694.0,-7.0,-18.0,-15.0,0.119,0.085,0.158,0.977
542012,1352.0,2770.0,7674.0,0.0,-21.0,-10.0,0.119,0.085,0.158,0.977
542034,1368.0,2766.0,7660.0,4.0,-16.0,-1.0,0.119,0.085,0.158,0.977
542046,1500.0,2792.0,7654.0,4.0,-2.0,2.0,0.119,0.085,0.158,0.976
542068,1526.0,2852.0,7594.0,17.0,15.0,3.0,0.12,0.085,0.158,0.976
542080,1616.0,2860.0,7582.0,30.0,31.0,3.0,0.12,0.085,0.158,0.976
542102,1582.0,2830.0,7604.0,36.0,52.0,3.0,0.12,0.085,0.159,0.976
542114,1590.0,2864.0,7568.0,39.0,71.0,-12.0,0.12,0.084,0.159,0.976
542136,1540.0,2756.0,7570.0,48.0,87.0,-10.0,0.12,0.084,0.16,0.976
542158,1544.0,2794.0,7658.0,60.0,100.0,-17.0,0.12,0.083,0.16,0.976
542170,1448.0,2764.0,7622.0,70.0,101.0,-18.0,0.12,0.082,0.161,0.976
542192,1352.0,2804.0,7616.0,74.0,100.0,-13.0,0.12,0.082,0.162,0.976
542204,1300.0,2814.0,7654.0,67.0,84.0,-20.0,0.12,0.081,0.163,0.976
542226,1226.0,2790.0,7648.0,61.0,76.0,-21.0,0.12,0.08,0.163,0.976
542238,1166.0,2776.0,7706.0,46.0,61.0,-20.0,0.121,0.08,0.164,0.976
542260,1154.0,2776.0,7732.0,33.0,44.0,-18.0,0.121,0.08,0.164,0.976
542272,1130.0,2840.0,7654.0,19.0,20.0,-9.0,0.121,0.08,0.164,0.976
542294,1158.0,2838.0,7676.0,9.0,0.0,-9.0,0.121,0.08,0.164,0.976
542316,1268.0,2782.0,7690.0,4.0,-4.0,-2.0,0.121,0.08,0.164,0.976
542328,1354.0,2912.0,7652.0,0.0,-7.0,3.0,0.122,0.08,0.164,0.976
542355,1364.0,2868.0,7598.0,0.0,-15.0,2.0,0.122,0.08,0.164,0.976
542367,1438.0,2834.0,7592.0,0.0,-4.0,-1.0,0.122,0.08,0.164,0.976
542379,1484.0,2926.0,7594.0,-4.0,5.0,4.0,0.122,0.08,0.164,0.976
542401,1464.0,2910.0,7584.0,3.0,16.0,6.0,0.122,0.08,0.164,0.976
542413,1370.0,2890.0,7642.0,5.0,24.0,10.0,0.122,0.08,0.164,0.976
542435,1370.0,2800.0,7632.0,12.0,35.0,3.0,0.122,0.08,0.165,0.976
542447,1306.0,2880.0,7620.0,27.0,43.0,12.0,0.122,0.08,0.165,0.976
542469,1316.0,2880.0,7606.0,32.0,51.0,16.0,0.122,0.08,0.165,0.975
542491,1272.0,2908.0,7614.0,46.0,53.0,14.0,0.122,0.079,0.166,0.975
542503,1194.0,2908.0,7660.0,39.0,50.0,17.0,0.121,0.079,0.166,0.975
542525,1276.0,2952.0,7594.0,36.0,50.0,8.0,0.121,0.079,0.166,0.975
542537,1248.0,2886.0,7604.0,36.0,45.0,9.0,0.121,0.078,0.167,0.975
542559,1282.0,2936.0,7596.0,23.0,37.0,2.0,0.121,0.078,0.167,0.975
542571,1242.0,2914.0,7600.0,9.0,29.0,2.0,0.121,0.078,0.167,0.975
542593,1270.0,2872.0,7574.0,-5.0,18.0,-5.0,0.121,0.078,0.167,0.975
542605,1240.0,2850.0,7642.0,-4.0,11.0,-5.0,0.122,0.078,0.167,0.975
542627,1302.0,2874.0,7684.0,-17.0,2.0,-3.0,0.122,0.078,0.167,0.975
542649,1286.0,2850.0,7680.0,-12.0,-6.0,-7.0,0.122,0.078,0.167,0.975
542661,1254.0,2820.0,7676.0,-19.0,-7.0,-3.0,0.122,0.078,0.167,0.975
542683,1292.0,2800.0,7652.0,-18.0,-18.0,-5.0,0.122,0.079,0.166,0.975
542695,1348.0,2794.0,7702.0,-18.0,-19.0,-6.0,0.123,0.079,0.166,0.975
542717,1404.0,2826.0,7686.0,-21.0,-14.0,-9.0,0.123,0.079,0.166,0.975
542729,1366.0,2840.0,7628.0,-16.0,-14.0,-8.0,0.123,0.079,0.166,0.975
542751,1362.0,2928.0,7592.0,-21.0,-7.0,-4.0,0.123,0.079,0.166,0.975
542763,1310.0,2888.0,7606.0,-23.0,-6.0,4.0,0.124,0.08,0.165,0.975
542785,1320.0,2826.0,7592.0,-18.0,5.0,-4.0,0.124,0.08,0.165,0.975
542797,1310.0,2858.0,7586.0,-1.0,17.0,-4.0,0.124,0.08,0.165,0.975
542819,1252.0,2894.0,7602.0,8.0,15.0,4.0,0.124,0.08,0.165,0.975
542841,1240.0,2938.0,7598.0,14.0,21.0,-3.0,0.124,0.079,0.165,0.975
542853,1252.0,2954.0,7586.0,9.0,18.0,2.0,0.124,0.079,0.166,0.975
542875,1306.0,2886.0,7598.0,6.0,18.0,-4.0,0.124,0.079,0.166,0.975
542887,1268.0,2940.0,7592.0,3.0,22.0,-1.0,0.124,0.079,0.166,0.975
542909,1270.0,2864.0,7620.0,12.0,24.0,-5.0,0.124,0.079,0.166,0.975
542921,1318.0,2870.0,7570.0,10.0,21.0,-12.0,0.125,0.079,0.166,0.975
542943,1266.0,2902.0,7622.0,23.0,26.0,-4.0,0.125,0.079,0.166,0.975
542955,1292.0,2882.0,7616.0,16.0,24.0,0.0,0.125,0.079,0.166,0.975
542977,1240.0,2866.0,7620.0,14.0,23.0,-1.0,0.125,0.079,0.167,0.975
542999,1318.0,2822.0,7622.0,22.0,25.0,-8.0,0.125,0.079,0.167,0.975
543011,1336.0,2826.0,7656.0,30.0,26.0,-7.0,0.125,0.079,0.167,0.975
543033,1338.0,2922.0,7646.0,39.0,28.0,-10.0,0.125,0.079,0.167,0.975
543045,1352.0,2816.0,7572.0,34.0,34.0,-12.0,0.126,0.078,0.168,0.975
543067,1290.0,2878.0,7628.0,29.0,26.0,-11.0,0.126,0.078,0.168,0.975
543079,1254.0,2822.0,7608.0,32.0,29.0,-14.0,0.126,0.078,0.168,0.975
543101,1232.0,2892.0,7644.0,33.0,30.0,-10.0,0.126,0.078,0.169,0.974
543113,1252.0,2944.0,7680.0,28.0,28.0,-11.0,0.126,0.078,0.169,0.974
543135,1230.0,2950.0,7618.0,27.0,22.0,-5.0,0.127,0.078,0.169,0.974
543157,1222.0,2920.0,7624.0,12.0,12.0,-7.0,0.127,0.078,0.169,0.974
543169,1244.0,2960.0,7630.0,15.0,9.0,-2.0,0.127,0.078,0.169,0.974
543191,1268.0,2914.0,7624.0,6.0,9.0,-5.0,0.127,0.078,0.17,0.974
543203,1216.0,2964.0,7606.0,9.0,11.0,-8.0,0.127,0.078,0.17,0.974
543225,1248.0,2932.0,7538.0,12.0,8.0,-7.0,0.127,0.078,0.17,0.974
543237,1292.0,2930.0,7632.0,13.0,12.0,-9.0,0.127,0.078,0.17,0.974
543259,1270.0,2920.0,7624.0,18.0,13.0,-11.0,0.128,0.078,0.17,0.974
543271,1206.0,2908.0,7582.0,22.0,15.0,-16.0,0.128,0.078,0.17,0.974
543293,1246.0,2986.0,7602.0,21.0,19.0,-18.0,0.128,0.078,0.17,0.974
543305,1220.0,2936.0,7618.0,23.0,18.0,-13.0,0.128,0.078,0.171,0.974
543327,1216.0,2946.0,7568.0,25.0,22.0,-20.0,0.129,0.078,0.171,0.974
543349,1254.0,2898.0,7556.0,22.0,19.0,-20.0,0.129,0.078,0.171,0.974
543361,1226.0,2966.0,7578.0,19.0,18.0,-14.0,0.129,0.077,0.171,0.974
543383,1250.0,2976.0,7612.0,18.0,16.0,-18.0,0.129,0.077,0.172,0.974
543395,1228.0,2946.0,7584.0,16.0,18.0,-19.0,0.129,0.077,0.172,0.974
543417,1252.0,2972.0,7602.0,11.0,15.0,-15.0,0.13,0.077,0.172,0.973
543429,1204.0,2934.0,7638.0,18.0,10.0,-12.0,0.13,0.077,0.172,0.973
543451,1238.0,2958.0,7596.0,11.0,3.0,-13.0,0.13,0.077,0.172,0.973
543463,1192.0,2972.0,7580.0,12.0,3.0,-15.0,0.13,0.077,0.172,0.973
543485,1224.0,2998.0,7628.0,13.0,1.0,-13.0,0.131,0.078,0.172,0.973
543507,1246.0,2916.0,7612.0,15.0,-1.0,-18.0,0.131,0.078,0.172,0.973
543519,1230.0,2916.0,7646.0,20.0,-7.0,-17.0,0.131,0.078,0.173,0.973
543541,1234.0,2954.0,7552.0,17.0,3.0,-15.0,0.131,0.078,0.173,0.973
543553,1240.0,2964.0,7604.0,10.0,8.0,-17.0,0.132,0.078,0.173,0.973
543575,1226.0,3032.0,7618.0,9.0,6.0,-16.0,0.132,0.078,0.173,0.973
543587,1238.0,3020.0,7552.0,10.0,8.0,-14.0,0.132,0.078,0.173,0.973
543609,1178.0,3018.0,7500.0,8.0,12.0,-8.0,0.132,0.078,0.173,0.973
543621,1140.0,2996.0,7576.0,14.0,12.0,-16.0,0.132,0.078,0.173,0.973
543643,1210.0,3032.0,7548.0,18.0,8.0,-14.0,0.133,0.078,0.174,0.973
543655,1234.0,3040.0,7552.0,10.0,7.0,-11.0,0.133,0.078,0.174,0.973
543678,1218.0,3036.0,7632.0,11.0,4.0,-4.0,0.133,0.078,0.174,0.973
543700,1214.0,3028.0,7576.0,12.0,2.0,-8.0,0.133,0.078,0.174,0.973
543712,1240.0,3018.0,7592.0,8.0,5.0,-5.0,0.133,0.078,0.174,0.973
543734,1264.0,3024.0,7610.0,9.0,6.0,-3.0,0.134,0.078,0.174,0.972
543746,1260.0,2982.0,7564.0,9.0,7.0,-6.0,0.134,0.078,0.174,0.972
543768,1282.0,2994.0,7576.0,13.0,16.0,-11.0,0.134,0.078,0.174,0.972
543780,1266.0,2972.0,7594.0,27.0,22.0,-9.0,0.134,0.078,0.174,0.972
543802,1226.0,3046.0,7550.0,25.0,26.0,-14.0,0.134,0.078,0.175,0.972
543814,1274.0,3000.0,7586.0,24.0,22.0,-1.0,0.134,0.078,0.175,0.972
543836,1248.0,3042.0,7678.0,20.0,23.0,-7.0,0.134,0.078,0.175,0.972
543848,1202.0,3078.0,7594.0,20.0,14.0,-10.0,0.135,0.078,0.175,0.972
543870,1188.0,3018.0,7608.0,9.0,14.0,-6.0,0.135,0.078,0.175,0.972
543892,1188.0,3040.0,7602.0,17.0,12.0,-3.0,0.135,0.078,0.176,0.972
543904,1190.0,3026.0,7598.0,18.0,3.0,-6.0,0.135,0.078,0.176,0.972
543926,1174.0,3084.0,7550.0,15.0,0.0,-9.0,0.135,0.078,0.176,0.972
543938,1168.0,3066.0,7520.0,16.0,5.0,-2.0,0.135,0.078,0.176,0.972
543960,1254.0,3076.0,7552.0,9.0,0.0,-8.0,0.135,0.078,0.176,0.972
543972,1180.0,3048.0,7524.0,10.0,4.0,-14.0,0.136,0.078,0.176,0.972
543994,1242.0,3094.0,7514.0,7.0,10.0,-11.0,0.136,0.078,0.176,0.972
544006,1216.0,3090.0,7504.0,3.0,10.0,-16.0,0.136,0.078,0.176,0.972
544028,1230.0,3078.0,7564.0,4.0,7.0,-12.0,0.136,0.078,0.176,0.972
544050,1172.0,3036.0,7616.0,-1.0,7.0,-9.0,0.137,0.078,0.176,0.972
544062,1168.0,3048.0,7570.0,9.0,19.0,-14.0,0.137,0.078,0.177,0.972
544084,1186.0,3050.0,7546.0,5.0,18.0,-8.0,0.137,0.078,0.177,0.972
544096,1212.0,3066.0,7520.0,9.0,14.0,-10.0,0.137,0.078,0.177,0.972
544118,1186.0,3022.0,7532.0,11.0,15.0,-4.0,0.137,0.078,0.177,0.972
544130,1178.0,3090.0,7596.0,9.0,16.0,-7.0,0.137,0.078,0.177,0.971
544152,1164.0,3056.0,7544.0,10.0,14.0,-6.0,0.137,0.078,0.177,0.971
544164,1148.0,3060.0,7544.0,8.0,13.0,-11.0,0.137,0.078,0.177,0.971
544186,1200.0,3096.0,7598.0,8.0,14.0,-10.0,0.138,0.078,0.177,0.971
544198,1154.0,3034.0,7576.0,4.0,16.0,-6.0,0.138,0.078,0.177,0.971
544221,1134.0,3072.0,7588.0,3.0,14.0,-5.0,0.138,0.078,0.177,0.971
544233,1194.0,3010.0,7558.0,6.0,17.0,-5.0,0.138,0.078,0.177,0.971
544256,1234.0,3064.0,7566.0,7.0,14.0,-5.0,0.138,0.078,0.177,0.971
544278,1200.0,3080.0,7516.0,10.0,18.0,-6.0,0.139,0.078,0.178,0.971
544290,1208.0,3064.0,7560.0,14.0,17.0,-6.0,0.139,0.078,0.178,0.971
544312,1146.0,3034.0,7538.0,17.0,19.0,-5.0,0.139,0.078,0.178,0.971
544324,1162.0,3042.0,7592.0,10.0,13.0,-5.0,0.139,0.078,0.178,0.971
544346,1148.0,3038.0,7646.0,5.0,13.0,-7.0,0.139,0.078,0.178,0.971
544363,1196.0,3058.0,7594.0,7.0,9.0,-9.0,0.139,0.078,0.178,0.971
544375,1178.0,3054.0,7592.0,7.0,13.0,-4.0,0.14,0.078,0.178,0.971
544397,1214.0,3078.0,7534.0,5.0,16.0,-7.0,0.14,0.078,0.178,0.971
544409,1190.0,3052.0,7540.0,2.0,12.0,-10.0,0.14,0.078,0.178,0.971
544431,1228.0,3088.0,7550.0,0.0,14.0,-14.0,0.14,0.078,0.178,0.971
544453,1174.0,3048.0,7536.0,-3.0,14.0,-17.0,0.14,0.078,0.178,0.971
544465,1168.0,3068.0,7542.0,1.0,8.0,-5.0,0.14,0.078,0.178,0.971
544487,1110.0,3058.0,7592.0,3.0,7.0,-5.0,0.141,0.078,0.178,0.971
544499,1134.0,3038.0,7612.0,7.0,11.0,4.0,0.141,0.078,0.178,0.971
544521,1196.0,2990.0,7508.0,28.0,21.0,5.0,0.141,0.078,0.179,0.971
544533,1190.0,2978.0,7526.0,46.0,37.0,0.0,0.14,0.077,0.179,0.971
544555,1260.0,3050.0,7526.0,65.0,54.0,-4.0,0.141,0.077,0.18,0.971
544567,1252.0,3048.0,7516.0,79.0,74.0,-5.0,0.141,0.077,0.181,0.97
544589,1166.0,3102.0,7506.0,81.0,82.0,-8.0,0.14,0.076,0.181,0.97
544601,1136.0,3158.0,7602.0,74.0,90.0,-18.0,0.14,0.076,0.182,0.97
544623,1094.0,3178.0,7576.0,74.0,91.0,-18.0,0.14,0.075,0.183,0.97
544645,1058.0,3202.0,7562.0,66.0,82.0,-23.0,0.141,0.074,0.184,0.97
544657,980.0,3306.0,7578.0,46.0,59.0,-19.0,0.141,0.074,0.184,0.97
544679,1018.0,3242.0,7574.0,21.0,37.0,-17.0,0.141,0.074,0.184,0.97
544691,1030.0,3174.0,7552.0,-2.0,12.0,-12.0,0.141,0.074,0.184,0.97
544713,1084.0,3148.0,7542.0,-10.0,-4.0,-9.0,0.141,0.074,0.184,0.97
544725,1122.0,3102.0,7586.0,-1.0,-5.0,-9.0,0.141,0.074,0.184,0.97
544747,1076.0,3086.0,7602.0,12.0,2.0,-7.0,0.142,0.074,0.184,0.97
544759,1112.0,3122.0,7530.0,29.0,9.0,-11.0,0.142,0.074,0.185,0.97
544781,1182.0,3170.0,7552.0,26.0,13.0,-11.0,0.142,0.074,0.185,0.97
544803,1158.0,3120.0,7424.0,24.0,25.0,-8.0,0.142,0.074,0.185,0.97
544815,1112.0,3208.0,7482.0,26.0,37.0,-18.0,0.142,0.074,0.185,0.97
544837,1076.0,3134.0,7510.0,26.0,45.0,-20.0,0.142,0.073,0.186,0.969
544849,990.0,3164.0,7494.0,33.0,51.0,-12.0,0.142,0.073,0.186,0.969
544871,956.0,3218.0,7528.0,42.0,41.0,-10.0,0.143,0.073,0.187,0.969
544883,974.0,3238.0,7506.0,43.0,46.0,-6.0,0.143,0.072,0.187,0.969
544905,910.0,3244.0,7548.0,35.0,33.0,-5.0,0.143,0.072,0.187,0.969
544917,938.0,3286.0,7538.0,28.0,29.0,-3.0,0.143,0.072,0.188,0.969
544939,1000.0,3210.0,7568.0,20.0,8.0,-3.0,0.143,0.072,0.188,0.969
544961,1048.0,3224.0,7540.0,20.0,19.0,-6.0,0.143,0.072,0.188,0.969
544973,1110.0,3144.0,7476.0,35.0,23.0,-7.0,0.143,0.072,0.188,0.969
544995,1120.0,3204.0,7472.0,52.0,34.0,-12.0,0.143,0.072,0.189,0.969
545007,1158.0,3260.0,7446.0,47.0,41.0,-9.0,0.143,0.072,0.189,0.969
545029,1140.0,3286.0,7484.0,39.0,49.0,-11.0,0.143,0.071,0.19,0.969
545041,1134.0,3252.0,7486.0,40.0,55.0,-10.0,0.144,0.071,0.19,0.969
545063,1076.0,3248.0,7560.0,42.0,55.0,-10.0,0.144,0.071,0.191,0.969
545075,1000.0,3198.0,7510.0,46.0,54.0,-11.0,0.144,0.07,0.191,0.968
545097,1040.0,3208.0,7548.0,42.0,54.0,-5.0,0.144,0.07,0.192,0.968
545109,958.0,3224.0,7512.0,35.0,52.0,-1.0,0.144,0.07,0.192,0.968
545131,936.0,3184.0,7526.0,30.0,41.0,4.0,0.144,0.069,0.192,0.968
545153,940.0,3252.0,7516.0,34.0,41.0,0.0,0.144,0.069,0.193,0.968
545165,870.0,3228.0,7484.0,32.0,39.0,2.0,0.144,0.069,0.193,0.968
545187,922.0,3230.0,7424.0,29.0,35.0,-2.0,0.144,0.069,0.193,0.968
545199,938.0,3346.0,7438.0,23.0,30.0,4.0,0.144,0.069,0.194,0.968
545221,948.0,3362.0,7458.0,15.0,23.0,-3.0,0.144,0.069,0.194,0.968
545233,958.0,3386.0,7456.0,11.0,17.0,-7.0,0.144,0.069,0.194,0.968
545255,936.0,3360.0,7518.0,-2.0,10.0,-7.0,0.144,0.069,0.194,0.968
545267,948.0,3294.0,7444.0,-3.0,0.0,-5.0,0.144,0.069,0.194,0.968
545289,972.0,3312.0,7506.0,-5.0,-3.0,-6.0,0.144,0.069,0.194,0.968
545311,984.0,3296.0,7490.0,-14.0,-11.0,-4.0,0.144,0.069,0.194,0.968
545323,958.0,3338.0,7494.0,-12.0,-7.0,-5.0,0.144,0.069,0.194,0.968
545345,936.0,3284.0,7500.0,-11.0,-5.0,-5.0,0.145,0.069,0.193,0.968
545357,964.0,3224.0,7536.0,-2.0,-2.0,-6.0,0.145,0.069,0.193,0.968
545379,1008.0,3308.0,7452.0,0.0,6.0,-6.0,0.145,0.069,0.193,0.968
545391,1010.0,3344.0,7486.0,3.0,6.0,-3.0,0.145,0.069,0.193,0.968
545413,946.0,3342.0,7460.0,-4.0,14.0,3.0,0.145,0.069,0.193,0.968
545425,964.0,3284.0,7526.0,-5.0,10.0,-3.0,0.145,0.069,0.193,0.968
545447,952.0,3320.0,7472.0,-5.0,9.0,-5.0,0.145,0.069,0.193,0.968
545469,962.0,3288.0,7506.0,-1.0,7.0,-8.0,0.146,0.069,0.193,0.968
545481,918.0,3258.0,7474.0,4.0,3.0,-8.0,0.146,0.069,0.193,0.968
545503,898.0,3254.0,7548.0,2.0,5.0,-11.0,0.146,0.069,0.193,0.968
545515,944.0,3252.0,7488.0,15.0,3.0,-9.0,0.146,0.069,0.193,0.968
545537,1010.0,3226.0,7472.0,12.0,6.0,-11.0,0.146,0.069,0.194,0.968
545549,1014.0,3292.0,7464.0,14.0,6.0,-9.0,0.146,0.07,0.194,0.968
545571,960.0,3272.0,7460.0,18.0,13.0,-2.0,0.147,0.07,0.194,0.968
545583,956.0,3290.0,7484.0,19.0,17.0,-6.0,0.147,0.07,0.194,0.967
545605,960.0,3332.0,7526.0,24.0,19.0,-2.0,0.147,0.069,0.194,0.967
545617,914.0,3300.0,7474.0,24.0,17.0,-6.0,0.147,0.069,0.195,0.967
545639,964.0,3352.0,7484.0,18.0,12.0,-9.0,0.147,0.069,0.195,0.967
545661,1026.0,3356.0,7460.0,8.0,9.0,-8.0,0.147,0.069,0.195,0.967
545673,1012.0,3340.0,7466.0,-7.0,-1.0,-14.0,0.147,0.07,0.195,0.967
545695,1050.0,3340.0,7478.0,-10.0,-4.0,-10.0,0.147,0.07,0.195,0.967
545707,990.0,3320.0,7512.0,-10.0,-5.0,0.0,0.148,0.07,0.195,0.967
545729,928.0,3344.0,7498.0,-13.0,-7.0,-6.0,0.148,0.07,0.194,0.967
545741,944.0,3310.0,7488.0,-6.0,-8.0,-12.0,0.148,0.07,0.194,0.967
545763,942.0,3344.0,7438.0,-13.0,-14.0,-12.0,0.148,0.07,0.194,0.967
545775,902.0,3338.0,7494.0,-21.0,-24.0,-3.0,0.148,0.07,0.194,0.967
545797,924.0,3310.0,7464.0,-29.0,-23.0,-3.0,0.149,0.071,0.194,0.967
545819,904.0,3322.0,7480.0,-26.0,-21.0,-11.0,0.149,0.071,0.193,0.967
545831,902.0,3326.0,7510.0,-22.0,-26.0,-4.0,0.149,0.071,0.193,0.967
545853,984.0,3320.0,7492.0,-20.0,-31.0,3.0,0.149,0.072,0.193,0.967
545865,960.0,3322.0,7512.0,-21.0,-34.0,2.0,0.149,0.072,0.193,0.967
545887,1038.0,3278.0,7474.0,-25.0,-28.0,0.0,0.149,0.072,0.193,0.967
545899,982.0,3306.0,7518.0,-24.0,-24.0,3.0,0.15,0.073,0.192,0.967
545921,1008.0,3248.0,7506.0,-17.0,-19.0,0.0,0.15,0.073,0.192,0.967
545933,1032.0,3236.0,7474.0,-18.0,-14.0,-9.0,0.15,0.073,0.192,0.967
545955,1012.0,3280.0,7448.0,-9.0,-5.0,-8.0,0.15,0.073,0.192,0.967
545967,1040.0,3298.0,7466.0,-8.0,-3.0,-9.0,0.15,0.073,0.192,0.967
545990,1006.0,3290.0,7458.0,-13.0,-5.0,-8.0,0.151,0.073,0.192,0.967
546012,1076.0,3266.0,7496.0,-10.0,-6.0,-4.0,0.151,0.073,0.191,0.967
546024,1046.0,3294.0,7446.0,-15.0,-8.0,-1.0,0.151,0.074,0.191,0.967
546046,1046.0,3248.0,7464.0,-22.0,-17.0,2.0,0.151,0.074,0.191,0.967
546058,1034.0,3212.0,7516.0,-16.0,-16.0,5.0,0.151,0.074,0.191,0.967
546080,966.0,3248.0,7538.0,-11.0,-20.0,5.0,0.151,0.074,0.191,0.967
546092,1006.0,3226.0,7488.0,-14.0,-19.0,4.0,0.151,0.075,0.191,0.967
546114,1016.0,3226.0,7498.0,-19.0,-22.0,0.0,0.151,0.075,0.19,0.967
546126,1084.0,3254.0,7468.0,-21.0,-17.0,2.0,0.151,0.075,0.19,0.967
546148,1112.0,3266.0,7524.0,-14.0,-10.0,-5.0,0.152,0.075,0.19,0.967
546160,1172.0,3272.0,7500.0,-14.0,-9.0,-7.0,0.152,0.075,0.19,0.967
546182,1148.0,3262.0,7498.0,-6.0,0.0,-8.0,0.152,0.075,0.19,0.967
546204,1094.0,3230.0,7434.0,-6.0,5.0,-18.0,0.152,0.075,0.19,0.967
546216,1098.0,3242.0,7504.0,1.0,10.0,-17.0,0.152,0.075,0.19,0.967
546238,1036.0,3272.0,7480.0,9.0,15.0,-11.0,0.152,0.075,0.19,0.967
546250,1018.0,3220.0,7452.0,2.0,10.0,-15.0,0.153,0.075,0.19,0.967
546272,994.0,3292.0,7534.0,-2.0,-1.0,-16.0,0.153,0.075,0.19,0.967
546284,876.0,3262.0,7516.0,-18.0,-8.0,-11.0,0.153,0.076,0.19,0.967
546306,910.0,3256.0,7522.0,-30.0,-16.0,-7.0,0.153,0.076,0.189,0.967
546318,906.0,3268.0,7514.0,-35.0,-29.0,-9.0,0.154,0.076,0.189,0.967
546340,950.0,3180.0,7518.0,-41.0,-36.0,-5.0,0.154,0.076,0.189,0.967
546367,1092.0,3160.0,7444.0,-36.0,-26.0,-7.0,0.154,0.077,0.188,0.967
546379,1134.0,3194.0,7400.0,-23.0,-20.0,-10.0,0.154,0.077,0.188,0.967
546391,1218.0,3270.0,7382.0,-17.0,-7.0,3.0,0.154,0.077,0.188,0.967
546413,1220.0,3248.0,7444.0,-7.0,9.0,8.0,0.154,0.077,0.188,0.967
546425,1156.0,3256.0,7532.0,4.0,22.0,15.0,0.154,0.077,0.188,0.967
546447,1070.0,3272.0,7528.0,16.0,33.0,19.0,0.154,0.077,0.188,0.967
546459,1018.0,3284.0,7494.0,27.0,48.0,28.0,0.154,0.077,0.188,0.967
546481,1028.0,3316.0,7538.0,27.0,60.0,18.0,0.153,0.076,0.189,0.967
546493,1038.0,3278.0,7496.0,24.0,54.0,9.0,0.153,0.076,0.189,0.967
546515,1110.0,3340.0,7472.0,6.0,47.0,3.0,0.153,0.075,0.189,0.967
546537,1038.0,3332.0,7532.0,-6.0,38.0,-7.0,0.153,0.075,0.189,0.967
546549,1064.0,3304.0,7530.0,-21.0,26.0,-9.0,0.154,0.075,0.189,0.967
546571,1050.0,3204.0,7520.0,-13.0,18.0,-16.0,0.154,0.075,0.189,0.967
546583,1016.0,3142.0,7510.0,-3.0,7.0,-15.0,0.154,0.075,0.189,0.967
546605,1092.0,3168.0,7516.0,-3.0,-6.0,-17.0,0.154,0.075,0.189,0.967
546617,1030.0,3156.0,7516.0,-3.0,-18.0,-16.0,0.154,0.075,0.189,0.967
546639,990.0,3180.0,7572.0,-7.0,-19.0,-18.0,0.155,0.075,0.189,0.967
546651,1008.0,3176.0,7600.0,-11.0,-20.0,-12.0,0.155,0.076,0.189,0.967
546673,964.0,3202.0,7532.0,-17.0,-16.0,-5.0,0.155,0.076,0.188,0.967
546695,1018.0,3172.0,7518.0,-9.0,-7.0,-6.0,0.155,0.076,0.188,0.967
546707,962.0,3202.0,7454.0,0.0,-1.0,2.0,0.155,0.076,0.188,0.967
546729,1056.0,3306.0,7436.0,2.0,-3.0,-2.0,0.155,0.076,0.188,0.967
546741,1072.0,3290.0,7458.0,5.0,-2.0,-3.0,0.155,0.076,0.188,0.967
546763,1126.0,3392.0,7466.0,0.0,6.0,-4.0,0.155,0.076,0.188,0.967
546775,1096.0,3344.0,7518.0,-4.0,10.0,2.0,0.156,0.076,0.188,0.967
546797,1108.0,3366.0,7516.0,-12.0,7.0,-2.0,0.156,0.076,0.188,0.967
546809,1110.0,3348.0,7506.0,-9.0,14.0,-4.0,0.156,0.076,0.188,0.967
546831,1032.0,3274.0,7500.0,5.0,20.0,-2.0,0.156,0.076,0.188,0.967
546843,1000.0,3242.0,7500.0,12.0,21.0,1.0,0.156,0.076,0.188,0.967
546865,1074.0,3244.0,7488.0,8.0,21.0,-7.0,0.156,0.076,0.189,0.967
546887,1030.0,3212.0,7458.0,9.0,24.0,-13.0,0.156,0.076,0.189,0.967
546899,1034.0,3210.0,7510.0,7.0,29.0,-7.0,0.156,0.076,0.189,0.967
546921,1028.0,3208.0,7546.0,15.0,28.0,-11.0,0.156,0.076,0.189,0.967
546933,986.0,3222.0,7552.0,0.0,25.0,0.0,0.156,0.075,0.189,0.967
546955,1028.0,3208.0,7506.0,6.0,18.0,-3.0,0.156,0.075,0.189,0.967
546967,988.0,3168.0,7542.0,-1.0,11.0,2.0,0.156,0.075,0.189,0.967
546989,1096.0,3162.0,7524.0,0.0,2.0,0.0,0.156,0.075,0.189,0.967
547001,1092.0,3184.0,7486.0,0.0,4.0,-1.0,0.156,0.076,0.189,0.967
547023,1124.0,3198.0,7502.0,9.0,5.0,-5.0,0.156,0.076,0.189,0.966
547045,1056.0,3152.0,7518.0,9.0,9.0,-5.0,0.157,0.076,0.189,0.966
547057,1122.0,3218.0,7500.0,14.0,10.0,-5.0,0.157,0.076,0.189,0.966
547079,1024.0,3226.0,7498.0,21.0,15.0,-2.0,0.157,0.076,0.189,0.966
547091,1126.0,3190.0,7412.0,24.0,23.0,-4.0,0.157,0.076,0.19,0.966
547113,1036.0,3294.0,7490.0,35.0,33.0,-6.0,0.157,0.075,0.19,0.966
547125,1040.0,3298.0,7484.0,39.0,38.0,-3.0,0.157,0.075,0.19,0.966
547147,934.0,3328.0,7446.0,35.0,41.0,6.0,0.157,0.075,0.191,0.966
547159,822.0,3388.0,7512.0,30.0,40.0,6.0,0.157,0.075,0.191,0.966
547181,874.0,3424.0,7462.0,26.0,30.0,-3.0,0.157,0.075,0.191,0.966
547203,850.0,3402.0,7508.0,10.0,19.0,-7.0,0.157,0.074,0.192,0.966
547215,936.0,3382.0,7450.0,-6.0,10.0,-10.0,0.157,0.074,0.192,0.966
547237,992.0,3394.0,7490.0,-21.0,-1.0,-13.0,0.157,0.074,0.191,0.966
547249,1076.0,3396.0,7470.0,-30.0,-10.0,-12.0,0.157,0.075,0.191,0.966
547271,1062.0,3300.0,7572.0,-44.0,-21.0,-12.0,0.158,0.075,0.191,0.966
547283,1026.0,3280.0,7494.0,-56.0,-27.0,-12.0,0.158,0.075,0.19,0.966
547305,1056.0,3236.0,7516.0,-55.0,-26.0,-4.0,0.158,0.075,0.19,0.966
547317,1006.0,3238.0,7532.0,-42.0,-27.0,2.0,0.158,0.076,0.189,0.966
547339,1030.0,3200.0,7512.0,-35.0,-16.0,3.0,0.159,0.076,0.189,0.966
547351,968.0,3222.0,7476.0,-21.0,-2.0,6.0,0.159,0.076,0.189,0.966
547373,1118.0,3190.0,7484.0,1.0,4.0,3.0,0.159,0.076,0.189,0.966
547395,1078.0,3264.0,7468.0,3.0,22.0,3.0,0.159,0.076,0.189,0.966
547407,1032.0,3270.0,7522.0,1.0,26.0,-3.0,0.159,0.076,0.189,0.966
547429,986.0,3220.0,7526.0,3.0,23.0,3.0,0.159,0.076,0.189,0.966
547441,948.0,3268.0,7476.0,2.0,16.0,10.0,0.159,0.076,0.189,0.966
547463,884.0,3228.0,7598.0,-14.0,0.0,7.0,0.159,0.076,0.189,0.966
547475,856.0,3228.0,7550.0,-25.0,-16.0,4.0,0.159,0.076,0.188,0.966
547497,974.0,3174.0,7526.0,-22.0,-19.0,0.0,0.159,0.076,0.188,0.966
547509,1060.0,3214.0,7484.0,-15.0,-15.0,5.0,0.159,0.076,0.188,0.966
547531,1124.0,3192.0,7474.0,-6.0,-7.0,6.0,0.159,0.076,0.188,0.966
547553,1130.0,3230.0,7470.0,4.0,10.0,-3.0,0.159,0.076,0.188,0.966
547565,1142.0,3164.0,7456.0,18.0,29.0,-8.0,0.159,0.076,0.188,0.966
547587,1154.0,3240.0,7472.0,34.0,40.0,-1.0,0.159,0.076,0.189,0.966
547599,1098.0,3230.0,7476.0,38.0,51.0,-1.0,0.159,0.076,0.189,0.966
547621,1032.0,3242.0,7522.0,48.0,62.0,-9.0,0.159,0.075,0.189,0.966
547633,1016.0,3238.0,7520.0,56.0,68.0,-13.0,0.159,0.075,0.19,0.966
547655,946.0,3180.0,7544.0,64.0,62.0,-17.0,0.159,0.074,0.191,0.966
547667,926.0,3256.0,7590.0,77.0,61.0,-8.0,0.159,0.074,0.191,0.966
547689,886.0,3172.0,7548.0,87.0,59.0,-10.0,0.159,0.074,0.192,0.966
547701,952.0,3238.0,7538.0,97.0,52.0,-13.0,0.159,0.073,0.193,0.965
547724,1080.0,3210.0,7528.0,110.0,58.0,-11.0,0.159,0.073,0.194,0.965
547736,1144.0,3198.0,7480.0,134.0,68.0,-20.0,0.159,0.073,0.196,0.965
547759,1140.0,3174.0,7504.0,144.0,86.0,-25.0,0.159,0.072,0.197,0.965
547781,1168.0,3182.0,7496.0,152.0,94.0,-32.0,0.159,0.072,0.198,0.964
547793,1110.0,3216.0,7512.0,168.0,115.0,-28.0,0.159,0.071,0.2,0.964
547815,1172.0,3174.0,7506.0,194.0,124.0,-30.0,0.159,0.07,0.202,0.964
547827,1136.0,3230.0,7516.0,229.0,142.0,-18.0,0.159,0.069,0.204,0.964
547849,1146.0,3268.0,7528.0,257.0,153.0,-10.0,0.158,0.069,0.207,0.963
547861,1174.0,3206.0,7498.0,259.0,161.0,7.0,0.158,0.068,0.209,0.963
547883,1234.0,3212.0,7448.0,282.0,176.0,27.0,0.157,0.067,0.212,0.962
547895,1056.0,3372.0,7334.0,300.0,169.0,45.0,0.156,0.066,0.215,0.962
547917,964.0,3580.0,7368.0,279.0,161.0,74.0,0.155,0.065,0.217,0.962
547939,904.0,3584.0,7460.0,245.0,142.0,99.0,0.154,0.064,0.22,0.961
547951,944.0,3392.0,7536.0,216.0,130.0,131.0,0.152,0.064,0.222,0.961
547973,842.0,3390.0,7492.0,198.0,100.0,147.0,0.151,0.064,0.223,0.961
547985,840.0,3338.0,7334.0,206.0,101.0,158.0,0.149,0.064,0.225,0.961
548007,1012.0,3314.0,7392.0,201.0,95.0,162.0,0.147,0.064,0.227,0.961
548019,1036.0,3208.0,7474.0,208.0,81.0,155.0,0.146,0.064,0.229,0.96
548041,1028.0,3428.0,7402.0,159.0,53.0,169.0,0.144,0.064,0.23,0.96
548053,1060.0,3224.0,7388.0,155.0,76.0,183.0,0.142,0.064,0.231,0.96
548075,1112.0,3154.0,7254.0,208.0,101.0,202.0,0.14,0.064,0.233,0.96
548087,1092.0,3270.0,7234.0,320.0,141.0,211.0,0.138,0.063,0.236,0.96
548109,1126.0,3244.0,7122.0,444.0,166.0,263.0,0.135,0.063,0.239,0.959
548131,1128.0,3544.0,7046.0,512.0,185.0,276.0,0.131,0.063,0.244,0.959
548143,1092.0,3720.0,6938.0,551.0,190.0,317.0,0.128,0.063,0.249,0.958
548165,1034.0,3790.0,6802.0,570.0,204.0,367.0,0.124,0.063,0.254,0.957
548177,1010.0,3734.0,6656.0,604.0,211.0,401.0,0.12,0.063,0.259,0.956
548199,1030.0,3856.0,6550.0,676.0,240.0,438.0,0.115,0.063,0.265,0.955
548211,988.0,4134.0,6528.0,734.0,239.0,468.0,0.11,0.062,0.272,0.954
548233,1014.0,4354.0,6364.0,775.0,236.0,493.0,0.104,0.063,0.279,0.953
548245,1064.0,4420.0,6158.0,779.0,230.0,527.0,0.098,0.063,0.285,0.951
548267,998.0,4192.0,6058.0,839.0,218.0,572.0,0.092,0.063,0.293,0.95
548279,1022.0,4004.0,6044.0,946.0,204.0,604.0,0.086,0.064,0.301,0.948
548301,1118.0,4164.0,6044.0,1037.0,199.0,628.0,0.079,0.065,0.31,0.945
548323,1134.0,4574.0,6028.0,1122.0,193.0,630.0,0.073,0.066,0.319,0.943
548335,1164.0,4680.0,5902.0,1196.0,193.0,659.0,0.066,0.067,0.33,0.939
548357,1220.0,5372.0,6038.0,1152.0,214.0,687.0,0.058,0.068,0.339,0.936
548374,1294.0,5330.0,5824.0,1001.0,159.0,771.0,0.05,0.07,0.348,0.934
548386,1410.0,5346.0,5476.0,941.0,113.0,771.0,0.043,0.072,0.355,0.931
548408,1504.0,5238.0,5220.0,1004.0,54.0,751.0,0.035,0.075,0.364,0.928
548420,1652.0,5418.0,5042.0,1039.0,18.0,735.0,0.028,0.078,0.372,0.924
548442,1900.0,5550.0,4982.0,918.0,-71.0,726.0,0.021,0.081,0.38,0.921
548464,2220.0,5858.0,4952.0,658.0,-134.0,714.0,0.015,0.085,0.385,0.919
548476,2254.0,6040.0,4772.0,377.0,-229.0,703.0,0.01,0.09,0.388,0.917
548498,2326.0,5760.0,4620.0,164.0,-338.0,680.0,0.005,0.096,0.388,0.916
548510,2416.0,5352.0,4582.0,68.0,-411.0,643.0,0.001,0.102,0.388,0.916
548532,2488.0,5614.0,4604.0,61.0,-466.0,600.0,0.003,-0.108,-0.388,-0.915
548544,2570.0,5438.0,4474.0,98.0,-505.0,631.0,0.006,-0.115,-0.389,-0.914
548566,2662.0,5664.0,4442.0,110.0,-541.0,641.0,0.01,-0.122,-0.389,-0.913
548578,2716.0,5816.0,4312.0,47.0,-616.0,642.0,0.013,-0.13,-0.389,-0.912
548600,2768.0,5570.0,4268.0,4.0,-640.0,691.0,0.017,-0.138,-0.388,-0.911
548612,2764.0,5318.0,4314.0,6.0,-664.0,719.0,0.02,-0.147,-0.388,-0.91
548634,2918.0,5186.0,4546.0,28.0,-705.0,732.0,0.024,-0.155,-0.387,-0.909
548656,2890.0,5356.0,4460.0,-65.0,-745.0,769.0,0.028,-0.165,-0.386,-0.907
548668,3012.0,5408.0,4364.0,-258.0,-789.0,846.0,0.032,-0.175,-0.382,-0.907
548690,2968.0,5264.0,4338.0,-434.0,-804.0,947.0,0.036,-0.185,-0.378,-0.907
548702,3152.0,5024.0,4522.0,-473.0,-815.0,1021.0,0.041,-0.196,-0.372,-0.906
548724,3476.0,4790.0,5006.0,-218.0,-797.0,1053.0,0.047,-0.206,-0.369,-0.905
548736,3720.0,4764.0,5296.0,105.0,-768.0,1104.0,0.054,-0.216,-0.368,-0.903
548758,3882.0,5306.0,5210.0,103.0,-767.0,1153.0,0.061,-0.227,-0.366,-0.9
548770,3846.0,5176.0,4866.0,-89.0,-824.0,1269.0,0.069,-0.238,-0.363,-0.898
548792,3876.0,5218.0,4584.0,-419.0,-1048.0,1322.0,0.076,-0.251,-0.358,-0.896
548814,4322.0,4820.0,4268.0,-826.0,-1229.0,1319.0,0.081,-0.267,-0.349,-0.895
548826,4932.0,4306.0,4392.0,-934.0,-1328.0,1319.0,0.085,-0.283,-0.339,-0.893
548848,5548.0,3418.0,4852.0,-502.0,-1320.0,1360.0,0.091,-0.299,-0.332,-0.89
548860,5964.0,3530.0,5130.0,106.0,-1236.0,1352.0,0.099,-0.313,-0.33,-0.885
548882,6282.0,3798.0,5012.0,444.0,-1169.0,1378.0,0.108,-0.327,-0.33,-0.879
548894,6570.0,4140.0,4998.0,541.0,-1096.0,1424.0,0.118,-0.339,-0.332,-0.872
548916,6850.0,4480.0,5002.0,441.0,-1038.0,1449.0,0.129,-0.352,-0.332,-0.866
548928,7058.0,4496.0,4964.0,268.0,-980.0,1469.0,0.138,-0.364,-0.33,-0.86
548950,7150.0,4446.0,4774.0,156.0,-912.0,1473.0,0.148,-0.375,-0.328,-0.854
548972,7204.0,4344.0,4494.0,44.0,-871.0,1447.0,0.157,-0.386,-0.324,-0.849
548984,7368.0,4160.0,4362.0,-6.0,-837.0,1399.0,0.166,-0.397,-0.321,-0.844
549006,7576.0,4004.0,4410.0,-35.0,-787.0,1318.0,0.175,-0.407,-0.317,-0.839
549018,7644.0,3920.0,4324.0,-65.0,-730.0,1211.0,0.182,-0.416,-0.313,-0.834
549040,7566.0,3822.0,4302.0,-94.0,-665.0,1092.0,0.188,-0.425,-0.309,-0.83
549052,7412.0,3896.0,4200.0,-130.0,-598.0,954.0,0.194,-0.432,-0.306,-0.826
549074,7378.0,3838.0,4084.0,-173.0,-536.0,819.0,0.198,-0.439,-0.302,-0.823
549086,7272.0,3740.0,3962.0,-211.0,-467.0,692.0,0.201,-0.445,-0.299,-0.82
549108,7312.0,3650.0,3892.0,-244.0,-407.0,583.0,0.204,-0.45,-0.295,-0.818
549130,7336.0,3420.0,3930.0,-219.0,-326.0,478.0,0.206,-0.454,-0.293,-0.816
549142,7364.0,3290.0,3840.0,-134.0,-219.0,373.0,0.208,-0.456,-0.291,-0.815
549164,7230.0,3254.0,3696.0,-45.0,-133.0,289.0,0.21,-0.458,-0.29,-0.814
549176,7078.0,3184.0,3684.0,40.0,-62.0,192.0,0.212,-0.459,-0.29,-0.813
549198,7022.0,3170.0,3694.0,109.0,-9.0,118.0,0.213,-0.459,-0.29,-0.812
549210,6938.0,3294.0,3810.0,117.0,13.0,46.0,0.214,-0.458,-0.291,-0.812
549232,6946.0,3324.0,3790.0,90.0,24.0,-4.0,0.215,-0.458,-0.292,-0.812
549244,6912.0,3296.0,3798.0,25.0,26.0,-47.0,0.215,-0.457,-0.293,-0.812
549266,6908.0,3258.0,3756.0,-110.0,4.0,-79.0,0.214,-0.457,-0.292,-0.813
549278,6894.0,3006.0,3708.0,-180.0,7.0,-123.0,0.212,-0.456,-0.292,-0.813
549300,6982.0,2916.0,3622.0,-201.0,24.0,-172.0,0.21,-0.456,-0.291,-0.814
549322,7044.0,2782.0,3598.0,-190.0,52.0,-221.0,0.209,-0.455,-0.291,-0.815
549334,7166.0,2674.0,3572.0,-133.0,88.0,-262.0,0.206,-0.454,-0.291,-0.817
549356,7174.0,2680.0,3498.0,-99.0,124.0,-305.0,0.204,-0.452,-0.292,-0.818
549368,7192.0,2642.0,3406.0,-79.0,154.0,-340.0,0.202,-0.45,-0.292,-0.819
549390,7168.0,2608.0,3326.0,-64.0,159.0,-377.0,0.2,-0.448,-0.293,-0.821
549402,7270.0,2564.0,3290.0,-48.0,170.0,-417.0,0.197,-0.445,-0.295,-0.822
549424,7230.0,2560.0,3280.0,-51.0,174.0,-449.0,0.194,-0.443,-0.296,-0.824
549436,7216.0,2416.0,3186.0,-40.0,190.0,-478.0,0.191,-0.44,-0.298,-0.825
549458,7180.0,2496.0,3178.0,-41.0,176.0,-518.0,0.188,-0.437,-0.299,-0.827
549470,7138.0,2436.0,3112.0,-65.0,161.0,-530.0,0.185,-0.435,-0.301,-0.828
549493,7168.0,2350.0,3130.0,-66.0,151.0,-554.0,0.181,-0.432,-0.302,-0.83
549505,7126.0,2338.0,3074.0,-94.0,128.0,-556.0,0.177,-0.43,-0.304,-0.832
549528,7030.0,2292.0,3072.0,-86.0,120.0,-537.0,0.174,-0.427,-0.305,-0.833
549540,7020.0,2260.0,2980.0,-87.0,100.0,-515.0,0.17,-0.425,-0.307,-0.834
549563,7016.0,2140.0,2964.0,-78.0,88.0,-493.0,0.167,-0.423,-0.308,-0.835
549585,6988.0,2136.0,2966.0,-87.0,68.0,-441.0,0.164,-0.422,-0.309,-0.836
549597,6892.0,2026.0,2962.0,-87.0,35.0,-396.0,0.161,-0.421,-0.31,-0.837
549619,6924.0,2114.0,2958.0,-81.0,15.0,-326.0,0.159,-0.42,-0.311,-0.838
549631,6846.0,2090.0,2982.0,-97.0,-17.0,-258.0,0.157,-0.419,-0.311,-0.838
549653,6890.0,2072.0,3022.0,-104.0,-44.0,-187.0,0.155,-0.419,-0.311,-0.839
549665,6928.0,2062.0,3116.0,-61.0,-52.0,-108.0,0.155,-0.42,-0.311,-0.839
549687,6974.0,2112.0,3148.0,33.0,-48.0,-57.0,0.155,-0.42,-0.312,-0.838
549699,6966.0,2292.0,3228.0,94.0,-47.0,-10.0,0.155,-0.42,-0.313,-0.838
549721,6952.0,2362.0,3222.0,146.0,-48.0,40.0,0.156,-0.42,-0.314,-0.837
549733,6932.0,2600.0,3268.0,160.0,-56.0,94.0,0.158,-0.421,-0.315,-0.836
549755,6932.0,2756.0,3292.0,144.0,-59.0,126.0,0.16,-0.421,-0.316,-0.835
549777,6932.0,2820.0,3360.0,122.0,-72.0,155.0,0.162,-0.422,-0.317,-0.834
549789,6954.0,2904.0,3398.0,98.0,-68.0,176.0,0.164,-0.423,-0.317,-0.833
549811,6926.0,2934.0,3304.0,78.0,-61.0,194.0,0.166,-0.424,-0.317,-0.832
549823,6906.0,2922.0,3310.0,67.0,-67.0,199.0,0.168,-0.425,-0.317,-0.831
549845,6840.0,2924.0,3358.0,65.0,-61.0,212.0,0.17,-0.426,-0.317,-0.83
549857,6838.0,2952.0,3296.0,61.0,-47.0,217.0,0.172,-0.427,-0.317,-0.829
549879,6812.0,3020.0,3290.0,55.0,-42.0,228.0,0.174,-0.427,-0.317,-0.829
549891,6774.0,2986.0,3272.0,49.0,-41.0,229.0,0.177,-0.428,-0.316,-0.828
549913,6822.0,3030.0,3290.0,46.0,-39.0,231.0,0.179,-0.429,-0.316,-0.827
549935,6912.0,3032.0,3282.0,35.0,-37.0,233.0,0.181,-0.43,-0.316,-0.826
549947,6932.0,3020.0,3312.0,22.0,-34.0,232.0,0.183,-0.431,-0.315,-0.826
549969,6912.0,3018.0,3316.0,15.0,-31.0,226.0,0.185,-0.432,-0.315,-0.825
549981,6834.0,3002.0,3310.0,15.0,-30.0,208.0,0.187,-0.432,-0.314,-0.824
550003,6926.0,2958.0,3292.0,23.0,-27.0,186.0,0.189,-0.433,-0.314,-0.824
550015,6942.0,2934.0,3306.0,18.0,-29.0,168.0,0.19,-0.434,-0.314,-0.823
550037,6978.0,2934.0,3366.0,10.0,-19.0,150.0,0.192,-0.434,-0.313,-0.823
550049,6964.0,2926.0,3356.0,1.0,-24.0,125.0,0.193,-0.434,-0.313,-0.822
550071,7006.0,2862.0,3408.0,-11.0,-28.0,104.0,0.194,-0.435,-0.313,-0.822
550083,7038.0,2830.0,3430.0,-25.0,-28.0,90.0,0.195,-0.435,-0.312,-0.822
550106,7078.0,2728.0,3376.0,-18.0,-27.0,73.0,0.196,-0.436,-0.312,-0.821
550128,7036.0,2744.0,3362.0,-37.0,-34.0,52.0,0.196,-0.436,-0.312,-0.821
550140,6960.0,2670.0,3340.0,-51.0,-42.0,37.0,0.197,-0.436,-0.312,-0.821
550162,6884.0,2722.0,3264.0,-83.0,-71.0,21.0,0.197,-0.437,-0.311,-0.821
550174,6964.0,2672.0,3352.0,-152.0,-108.0,-3.0,0.196,-0.438,-0.311,-0.821
550196,7044.0,2626.0,3236.0,-214.0,-138.0,3.0,0.195,-0.44,-0.309,-0.82
550208,6912.0,2756.0,3310.0,-318.0,-187.0,-4.0,0.193,-0.441,-0.307,-0.821
550230,6726.0,2680.0,3298.0,-392.0,-263.0,-1.0,0.191,-0.444,-0.305,-0.82
550242,6458.0,2874.0,3280.0,-442.0,-343.0,-26.0,0.189,-0.447,-0.303,-0.82
550264,6576.0,3664.0,4110.0,-655.0,-455.0,-81.0,0.184,-0.451,-0.299,-0.82
550276,6778.0,4266.0,5466.0,-1065.0,-554.0,-83.0,0.178,-0.457,-0.292,-0.821
550298,7106.0,4254.0,6370.0,-1458.0,-566.0,-101.0,0.17,-0.463,-0.283,-0.823
550320,7280.0,3996.0,6946.0,-1507.0,-482.0,-175.0,0.161,-0.469,-0.273,-0.825
550332,7530.0,3984.0,8138.0,-1351.0,-276.0,-292.0,0.153,-0.472,-0.265,-0.827
550354,7710.0,3774.0,8580.0,-1031.0,26.0,-384.0,0.146,-0.472,-0.258,-0.83
550366,7584.0,4494.0,8224.0,-641.0,378.0,-478.0,0.14,-0.469,-0.255,-0.834
550383,7694.0,6208.0,8494.0,-673.0,598.0,-630.0,0.134,-0.463,-0.252,-0.839
550405,8008.0,6608.0,9548.0,-1019.0,875.0,-685.0,0.127,-0.456,-0.246,-0.846
550417,8212.0,5466.0,9716.0,-1213.0,1164.0,-700.0,0.12,-0.446,-0.239,-0.854
550439,7978.0,5280.0,9114.0,-1078.0,1466.0,-825.0,0.112,-0.434,-0.232,-0.863
550451,8334.0,5636.0,8884.0,-1049.0,1659.0,-988.0,0.104,-0.419,-0.226,-0.873
550473,8558.0,5798.0,9076.0,-1170.0,1860.0,-1069.0,0.095,-0.403,-0.219,-0.884
550495,8634.0,5650.0,8660.0,-1336.0,2011.0,-1077.0,0.085,-0.385,-0.21,-0.895
550507,8710.0,5376.0,8006.0,-1431.0,2137.0,-1115.0,0.075,-0.366,-0.201,-0.906
550529,8754.0,5274.0,7542.0,-1428.0,2273.0,-1109.0,0.066,-0.345,-0.191,-0.917
550541,8784.0,4870.0,7424.0,-1347.0,2405.0,-1118.0,0.056,-0.324,-0.181,-0.927
550563,8644.0,4568.0,7158.0,-1235.0,2533.0,-1124.0,0.048,-0.3,-0.173,-0.937
550575,8428.0,4736.0,6590.0,-1174.0,2636.0,-1076.0,0.039,-0.276,-0.164,-0.946
550597,8114.0,3908.0,6330.0,-996.0,2632.0,-1310.0,0.029,-0.251,-0.158,-0.955
550619,8520.0,4798.0,6446.0,-1077.0,2689.0,-1003.0,0.022,-0.226,-0.15,-0.962
550631,7634.0,4404.0,6100.0,-1293.0,2677.0,-790.0,0.016,-0.201,-0.14,-0.97
550653,7298.0,3552.0,5708.0,-1148.0,2449.0,-1247.0,0.006,-0.177,-0.131,-0.975
550665,7068.0,3358.0,6106.0,-1050.0,2382.0,-1200.0,0.004,0.154,0.123,0.98
550687,6808.0,2990.0,6212.0,-1018.0,2346.0,-912.0,0.011,0.131,0.115,0.985
550699,6220.0,2980.0,5654.0,-1087.0,2357.0,-708.0,0.016,0.11,0.107,0.988
550721,5414.0,2612.0,5748.0,-1121.0,2293.0,-762.0,0.022,0.089,0.098,0.991
550733,5120.0,2188.0,5672.0,-1123.0,2206.0,-822.0,0.028,0.068,0.089,0.993
550755,4770.0,1668.0,5570.0,-1060.0,2156.0,-785.0,0.034,0.048,0.08,0.995
550767,4102.0,1750.0,5334.0,-1038.0,2074.0,-745.0,0.04,0.028,0.071,0.996
550789,3402.0,1514.0,5282.0,-1140.0,1927.0,-677.0,0.045,0.009,0.062,0.997
550811,2886.0,892.0,4608.0,-1284.0,1787.0,-575.0,0.05,-0.008,0.051,0.997
550823,2326.0,278.0,4282.0,-1248.0,1692.0,-457.0,0.054,-0.025,0.04,0.997
550845,1822.0,-456.0,4594.0,-1049.0,1587.0,-385.0,0.057,-0.04,0.031,0.997
550857,1670.0,-158.0,4506.0,-765.0,1487.0,-336.0,0.059,-0.054,0.024,0.996
550879,1314.0,-166.0,3822.0,-691.0,1397.0,-273.0,0.061,-0.068,0.018,0.996
550891,678.0,150.0,3506.0,-644.0,1275.0,-330.0,0.064,-0.08,0.013,0.995
550913,384.0,176.0,3178.0,-777.0,1085.0,-523.0,0.069,-0.091,0.006,0.993
550925,96.0,-1246.0,2738.0,-967.0,957.0,-599.0,0.074,-0.1,-0.003,0.992
550947,-326.0,-2698.0,1884.0,-829.0,904.0,-535.0,0.078,-0.109,-0.01,0.991
550959,-722.0,-3408.0,1106.0,-400.0,829.0,-446.0,0.082,-0.117,-0.014,0.99
550981,-1226.0,-2924.0,468.0,-80.0,618.0,-359.0,0.086,-0.123,-0.014,0.989
551003,-1276.0,-2062.0,352.0,-214.0,275.0,-294.0,0.089,-0.125,-0.016,0.988
551015,-982.0,-2780.0,14.0,-530.0,-52.0,-222.0,0.091,-0.125,-0.022,0.988
551037,-946.0,-4110.0,-28.0,-469.0,-298.0,-101.0,0.092,-0.123,-0.026,0.988
551049,-744.0,-3880.0,140.0,-22.0,-518.0,34.0,0.092,-0.118,-0.027,0.988
551071,-430.0,-2760.0,942.0,260.0,-771.0,155.0,0.091,-0.111,-0.025,0.989
551083,28.0,-2134.0,1896.0,264.0,-1006.0,229.0,0.089,-0.102,-0.023,0.991
551105,666.0,-1708.0,2754.0,265.0,-1230.0,229.0,0.088,-0.09,-0.021,0.992
551117,1120.0,-2026.0,3564.0,458.0,-1350.0,236.0,0.086,-0.077,-0.018,0.993
551139,1340.0,-1770.0,4024.0,762.0,-1446.0,209.0,0.085,-0.063,-0.012,0.994
551161,1592.0,-1048.0,4586.0,857.0,-1584.0,272.0,0.083,-0.048,-0.005,0.995
551173,1870.0,-306.0,5532.0,782.0,-1766.0,406.0,0.08,-0.031,0.001,0.996
551195,2372.0,-662.0,6496.0,748.0,-1929.0,537.0,0.076,-0.012,0.007,0.997
551207,2994.0,236.0,6306.0,933.0,-1976.0,646.0,0.071,0.007,0.014,0.997
551229,3540.0,1256.0,6930.0,1081.0,-2065.0,708.0,0.065,0.027,0.023,0.997
551241,3860.0,2102.0,7236.0,905.0,-2161.0,718.0,0.059,0.049,0.03,0.997
551263,3970.0,1916.0,7812.0,567.0,-2249.0,595.0,0.054,0.071,0.034,0.995
551275,4464.0,1846.0,8092.0,385.0,-2143.0,662.0,0.049,0.091,0.036,0.994
551297,4666.0,-20.0,8172.0,777.0,-2189.0,368.0,0.046,0.112,0.042,0.992
551319,5056.0,1514.0,8100.0,1233.0,-2097.0,481.0,0.041,0.132,0.052,0.989
551331,5352.0,2640.0,7818.0,1268.0,-2024.0,661.0,0.035,0.152,0.062,0.986
551353,5388.0,2876.0,8476.0,1060.0,-2033.0,706.0,0.029,0.171,0.07,0.982
551365,5468.0,2812.0,7956.0,849.0,-2108.0,688.0,0.023,0.191,0.076,0.978
551387,6066.0,3194.0,7042.0,574.0,-2171.0,793.0,0.016,0.212,0.079,0.974
551399,7368.0,1740.0,7508.0,536.0,-2243.0,1192.0,0.006,0.233,0.082,0.969
551421,5796.0,-2060.0,7450.0,971.0,-2782.0,-126.0,0.008,0.258,0.09,0.962
551433,7408.0,4912.0,7418.0,904.0,-1711.0,2147.0,0.012,-0.275,-0.093,-0.957
551455,5694.0,3294.0,7166.0,100.0,-2200.0,716.0,0.017,-0.295,-0.092,-0.951
551467,7842.0,1392.0,6680.0,320.0,-2371.0,-8.0,0.015,-0.316,-0.095,-0.944
551489,8088.0,1954.0,6496.0,308.0,-2234.0,742.0,0.02,-0.336,-0.096,-0.937
551511,7948.0,1800.0,6268.0,122.0,-2144.0,1225.0,0.029,-0.356,-0.094,-0.929
551523,8010.0,1924.0,6096.0,132.0,-2184.0,936.0,0.036,-0.376,-0.092,-0.921
551545,8620.0,2270.0,5798.0,49.0,-2225.0,697.0,0.04,-0.395,-0.091,-0.913
551557,8782.0,1738.0,5606.0,58.0,-2151.0,634.0,0.044,-0.414,-0.09,-0.905
551579,8814.0,1580.0,5690.0,130.0,-2051.0,621.0,0.048,-0.432,-0.089,-0.896
551591,8926.0,1538.0,5950.0,176.0,-1954.0,575.0,0.052,-0.449,-0.089,-0.888
551613,9012.0,1502.0,5914.0,254.0,-1900.0,508.0,0.055,-0.464,-0.09,-0.879
551635,9108.0,1428.0,5724.0,407.0,-1826.0,527.0,0.06,-0.48,-0.092,-0.871
551647,8972.0,1584.0,5586.0,561.0,-1732.0,531.0,0.066,-0.494,-0.095,-0.862
551669,8910.0,2110.0,5696.0,656.0,-1678.0,475.0,0.071,-0.507,-0.1,-0.853
551681,8708.0,2318.0,6086.0,613.0,-1633.0,411.0,0.076,-0.52,-0.104,-0.844
551703,8624.0,2424.0,6346.0,512.0,-1579.0,335.0,0.08,-0.532,-0.108,-0.836
551715,8580.0,2246.0,6644.0,443.0,-1479.0,278.0,0.083,-0.544,-0.111,-0.828
551737,8486.0,1922.0,6938.0,484.0,-1321.0,222.0,0.086,-0.554,-0.115,-0.82
551749,8270.0,2080.0,7386.0,472.0,-1181.0,164.0,0.089,-0.562,-0.119,-0.813
551771,7982.0,2340.0,7808.0,325.0,-1026.0,133.0,0.091,-0.57,-0.122,-0.808
551783,7778.0,2454.0,8280.0,108.0,-922.0,120.0,0.091,-0.577,-0.123,-0.802
551805,8002.0,2348.0,9428.0,-117.0,-795.0,47.0,0.091,-0.583,-0.122,-0.798
551817,8086.0,2104.0,10008.0,-291.0,-589.0,13.0,0.089,-0.588,-0.121,-0.795
551839,8000.0,1830.0,9982.0,-231.0,-244.0,-47.0,0.087,-0.589,-0.12,-0.794
551861,7864.0,1934.0,9566.0,-24.0,104.0,-108.0,0.086,-0.589,-0.12,-0.795
551873,7956.0,3038.0,9844.0,99.0,401.0,-195.0,0.086,-0.585,-0.122,-0.797
551895,7986.0,3352.0,10138.0,-36.0,695.0,-224.0,0.086,-0.58,-0.123,-0.801
551907,8124.0,3350.0,9858.0,-177.0,975.0,-347.0,0.084,-0.572,-0.123,-0.807
551929,8142.0,3562.0,9316.0,-254.0,1250.0,-494.0,0.08,-0.562,-0.123,-0.814
551941,8560.0,2868.0,9348.0,-301.0,1519.0,-659.0,0.076,-0.55,-0.123,-0.823
551963,8854.0,2888.0,9136.0,-328.0,1747.0,-742.0,0.071,-0.536,-0.123,-0.832
551975,9116.0,2734.0,8966.0,-375.0,1987.0,-790.0,0.066,-0.52,-0.123,-0.843
551997,9212.0,3248.0,8982.0,-535.0,2140.0,-815.0,0.059,-0.502,-0.122,-0.854
552019,9324.0,3204.0,8894.0,-806.0,2247.0,-822.0,0.052,-0.483,-0.118,-0.866
552031,9944.0,2728.0,8518.0,-1076.0,2347.0,-842.0,0.044,-0.464,-0.113,-0.878
552053,10116.0,2488.0,7810.0,-1117.0,2515.0,-777.0,0.036,-0.443,-0.106,-0.89
552065,10166.0,2356.0,7610.0,-1045.0,2645.0,-723.0,0.028,-0.42,-0.1,-0.902
552087,10370.0,2536.0,7310.0,-979.0,2730.0,-717.0,0.021,-0.397,-0.094,-0.913
552099,10312.0,2786.0,6974.0,-951.0,2807.0,-669.0,0.015,-0.372,-0.088,-0.924
552121,10232.0,2926.0,6834.0,-977.0,2892.0,-539.0,0.01,-0.347,-0.081,-0.934
552133,10600.0,3440.0,6956.0,-976.0,2945.0,-455.0,0.005,-0.321,-0.073,-0.944
552155,10082.0,908.0,6442.0,-485.0,2856.0,-967.0,0.003,0.295,0.072,0.953
552177,9800.0,4582.0,6216.0,-657.0,3090.0,21.0,0.002,0.267,0.066,0.961
552189,8944.0,2966.0,6660.0,-968.0,2907.0,-364.0,0.006,0.241,0.058,0.969
552211,8846.0,2828.0,6240.0,-938.0,2775.0,-868.0,0.014,0.215,0.052,0.975
552223,8510.0,2284.0,6144.0,-824.0,2756.0,-705.0,0.021,0.189,0.046,0.981
552245,7828.0,2314.0,6048.0,-759.0,2754.0,-384.0,0.024,0.164,0.041,0.985
552257,7154.0,2450.0,5770.0,-755.0,2710.0,-359.0,0.027,0.138,0.035,0.989
552279,6374.0,1888.0,5914.0,-919.0,2589.0,-452.0,0.032,0.115,0.028,0.992
552291,5898.0,1492.0,5248.0,-1016.0,2493.0,-491.0,0.037,0.093,0.02,0.995
552313,4854.0,1114.0,5052.0,-1055.0,2358.0,-487.0,0.042,0.07,0.011,0.997
552325,4176.0,1020.0,5446.0,-1005.0,2236.0,-365.0,0.046,0.049,0.003,0.998
552347,3610.0,918.0,5982.0,-1090.0,2051.0,-416.0,0.05,0.03,-0.006,0.998
552369,3276.0,250.0,5528.0,-1174.0,1918.0,-358.0,0.054,0.011,-0.016,0.998
552386,2784.0,58.0,5128.0,-1074.0,1838.0,-90.0,0.055,-0.006,-0.025,0.998
552398,2304.0,428.0,4984.0,-986.0,1777.0,100.0,0.055,-0.023,-0.033,0.998
552420,1756.0,298.0,5048.0,-992.0,1669.0,69.0,0.055,-0.04,-0.041,0.997
552432,1620.0,114.0,4824.0,-1020.0,1595.0,-209.0,0.057,-0.055,-0.05,0.996
552454,1376.0,-566.0,4192.0,-939.0,1559.0,-440.0,0.062,-0.07,-0.058,0.994
552476,868.0,-1178.0,3592.0,-708.0,1551.0,-546.0,0.068,-0.084,-0.064,0.992
552488,316.0,-1366.0,3218.0,-480.0,1467.0,-604.0,0.074,-0.098,-0.068,0.99
552510,-20.0,-1688.0,2326.0,-451.0,1305.0,-607.0,0.08,-0.11,-0.072,0.988
552522,-540.0,-2404.0,1690.0,-407.0,1181.0,-474.0,0.085,-0.12,-0.075,0.986
552544,-996.0,-2546.0,1324.0,-229.0,985.0,-336.0,0.089,-0.13,-0.077,0.985
552556,-1194.0,-2752.0,620.0,-158.0,744.0,-334.0,0.093,-0.136,-0.078,0.983
552578,-1334.0,-3182.0,-152.0,-126.0,511.0,-308.0,0.097,-0.141,-0.079,0.982
552590,-1604.0,-3874.0,-156.0,-11.0,246.0,-208.0,0.099,-0.143,-0.079,0.982
552612,-1578.0,-4092.0,-138.0,168.0,-49.0,-136.0,0.101,-0.142,-0.078,0.982
552624,-1532.0,-3592.0,98.0,325.0,-326.0,-38.0,0.102,-0.139,-0.075,0.982
552646,-1402.0,-3702.0,676.0,359.0,-611.0,-7.0,0.102,-0.133,-0.072,0.983
552658,-786.0,-3522.0,1480.0,462.0,-883.0,12.0,0.103,-0.125,-0.069,0.984
552680,-306.0,-3298.0,2234.0,666.0,-1081.0,30.0,0.103,-0.114,-0.064,0.986
552702,394.0,-2390.0,2854.0,863.0,-1248.0,123.0,0.102,-0.102,-0.057,0.988
552714,762.0,-1760.0,3686.0,941.0,-1398.0,270.0,0.101,-0.088,-0.049,0.99
552736,1114.0,-1652.0,4256.0,1035.0,-1482.0,351.0,0.098,-0.074,-0.041,0.992
552748,1490.0,-1152.0,4530.0,1212.0,-1578.0,453.0,0.095,-0.058,-0.031,0.993
552770,1754.0,-576.0,4660.0,1236.0,-1709.0,508.0,0.09,-0.041,-0.02,0.995
552782,2366.0,52.0,5058.0,1163.0,-1826.0,590.0,0.086,-0.024,-0.011,0.996
552804,2754.0,522.0,5684.0,1044.0,-1979.0,632.0,0.08,-0.004,-0.003,0.997
552816,3014.0,1408.0,6308.0,984.0,-2085.0,598.0,0.075,0.016,0.005,0.997
552838,3666.0,1618.0,7198.0,732.0,-2206.0,614.0,0.07,0.037,0.01,0.997
552860,3576.0,778.0,7384.0,622.0,-2355.0,338.0,0.067,0.06,0.015,0.996
552872,4420.0,828.0,7400.0,816.0,-2348.0,323.0,0.064,0.083,0.021,0.994
552894,5070.0,1648.0,8122.0,958.0,-2254.0,565.0,0.059,0.105,0.028,0.992
552906,5338.0,1936.0,8148.0,943.0,-2199.0,646.0,0.053,0.126,0.034,0.99
552928,5436.0,1944.0,7950.0,914.0,-2163.0,591.0,0.048,0.147,0.041,0.987
552940,5494.0,2036.0,7908.0,825.0,-2235.0,515.0,0.043,0.168,0.047,0.984
552962,5832.0,2306.0,8052.0,640.0,-2335.0,484.0,0.039,0.19,0.051,0.98
552974,6638.0,1976.0,7886.0,541.0,-2339.0,681.0,0.033,0.212,0.054,0.975
552996,6094.0,3366.0,7796.0,692.0,-2123.0,383.0,0.03,0.231,0.059,0.971
553008,9274.0,1440.0,8092.0,1066.0,-2211.0,1680.0,0.014,0.252,0.064,0.965
553031,5784.0,3458.0,6950.0,516.0,-1952.0,1130.0,0.004,0.271,0.066,0.96
553043,8130.0,-856.0,8096.0,950.0,-2083.0,135.0,0.002,0.289,0.074,0.954
553066,7654.0,1028.0,8726.0,1582.0,-1857.0,49.0,0.002,-0.306,-0.087,-0.948
553088,7364.0,5332.0,8218.0,429.0,-2225.0,755.0,0.008,-0.326,-0.089,-0.941
553100,8020.0,1664.0,6990.0,-269.0,-2224.0,1393.0,0.017,-0.347,-0.082,-0.934
553122,7920.0,1282.0,5646.0,-34.0,-2066.0,1107.0,0.025,-0.366,-0.079,-0.927
553134,8270.0,1902.0,4730.0,253.0,-2060.0,612.0,0.029,-0.384,-0.079,-0.92
553156,8696.0,1960.0,4992.0,436.0,-1932.0,604.0,0.035,-0.4,-0.081,-0.912
553168,8526.0,2282.0,5164.0,408.0,-1886.0,660.0,0.04,-0.417,-0.083,-0.904
553190,8554.0,2308.0,5386.0,224.0,-1963.0,585.0,0.044,-0.434,-0.083,-0.896
553202,8778.0,1972.0,5408.0,135.0,-2027.0,547.0,0.048,-0.451,-0.083,-0.887
553224,9094.0,1786.0,5084.0,159.0,-2030.0,443.0,0.051,-0.468,-0.083,-0.878
553236,9280.0,1464.0,5066.0,352.0,-1912.0,403.0,0.054,-0.484,-0.086,-0.869
553258,9088.0,1474.0,5322.0,614.0,-1772.0,415.0,0.059,-0.498,-0.09,-0.861
553280,8952.0,1742.0,5730.0,813.0,-1684.0,409.0,0.065,-0.511,-0.095,-0.852
553292,8894.0,2432.0,6218.0,782.0,-1676.0,362.0,0.07,-0.524,-0.101,-0.843
553314,8816.0,2116.0,6656.0,665.0,-1607.0,370.0,0.075,-0.537,-0.106,-0.834
553326,8782.0,2248.0,6968.0,545.0,-1502.0,346.0,0.08,-0.548,-0.109,-0.825
553348,8532.0,1976.0,7196.0,412.0,-1370.0,316.0,0.083,-0.559,-0.112,-0.818
553360,8314.0,1778.0,8014.0,326.0,-1246.0,275.0,0.086,-0.568,-0.114,-0.81
553382,8050.0,1952.0,8974.0,192.0,-1144.0,251.0,0.088,-0.577,-0.116,-0.804
553394,8318.0,1874.0,10340.0,-110.0,-1017.0,203.0,0.088,-0.585,-0.115,-0.798
553416,8324.0,2048.0,10946.0,-554.0,-860.0,223.0,0.086,-0.592,-0.11,-0.794
553438,8196.0,1112.0,10526.0,-651.0,-502.0,226.0,0.084,-0.596,-0.105,-0.792
553450,8024.0,1384.0,9678.0,-358.0,-119.0,117.0,0.082,-0.597,-0.102,-0.791
553472,8262.0,2082.0,9888.0,-111.0,264.0,33.0,0.083,-0.596,-0.101,-0.793
553484,8288.0,2166.0,10308.0,19.0,653.0,-29.0,0.083,-0.591,-0.101,-0.796
553506,8156.0,2902.0,9442.0,61.0,984.0,-171.0,0.084,-0.583,-0.101,-0.802
553518,8408.0,3586.0,9118.0,-50.0,1211.0,-323.0,0.082,-0.574,-0.102,-0.808
553540,8832.0,3302.0,8996.0,-229.0,1468.0,-438.0,0.08,-0.562,-0.102,-0.817
553552,8786.0,2554.0,8546.0,-302.0,1782.0,-558.0,0.076,-0.548,-0.101,-0.827
553574,8798.0,2896.0,8322.0,-316.0,1977.0,-700.0,0.071,-0.532,-0.102,-0.837
553586,9110.0,3016.0,8326.0,-525.0,2112.0,-759.0,0.065,-0.515,-0.1,-0.849
553609,9518.0,2388.0,7774.0,-743.0,2281.0,-763.0,0.058,-0.497,-0.097,-0.86
553631,9342.0,2244.0,7248.0,-704.0,2455.0,-773.0,0.052,-0.477,-0.094,-0.873
553643,9404.0,2358.0,7462.0,-702.0,2517.0,-816.0,0.045,-0.456,-0.091,-0.884
553665,9604.0,2114.0,7320.0,-811.0,2597.0,-799.0,0.037,-0.434,-0.086,-0.896
553677,9602.0,2296.0,6908.0,-908.0,2654.0,-698.0,0.03,-0.411,-0.081,-0.908
553699,9588.0,2100.0,6818.0,-886.0,2700.0,-629.0,0.024,-0.388,-0.075,-0.918
553711,9506.0,2536.0,6508.0,-841.0,2709.0,-585.0,0.018,-0.364,-0.07,-0.929
553733,9610.0,2788.0,6776.0,-959.0,2701.0,-535.0,0.012,-0.34,-0.063,-0.938
553745,9944.0,3628.0,6470.0,-1050.0,2793.0,-431.0,0.007,-0.316,-0.055,-0.947
553767,9578.0,226.0,6016.0,-667.0,2651.0,-783.0,0.001,0.292,0.051,0.955
553789,9052.0,3770.0,5846.0,-778.0,2859.0,35.0,0.001,0.266,0.044,0.963
553801,8222.0,2530.0,6138.0,-1046.0,2665.0,-320.0,0.004,0.242,0.035,0.97
553823,8200.0,1888.0,6088.0,-976.0,2481.0,-807.0,0.013,0.219,0.029,0.975
553835,7846.0,2074.0,5692.0,-927.0,2443.0,-595.0,0.019,0.197,0.022,0.98
553857,7290.0,1778.0,5510.0,-921.0,2397.0,-266.0,0.023,0.174,0.014,0.984
553869,6486.0,2014.0,5976.0,-965.0,2354.0,-210.0,0.026,0.152,0.006,0.988
553891,6014.0,1182.0,6360.0,-965.0,2203.0,-567.0,0.032,0.133,-0.001,0.991
553903,5646.0,1030.0,5530.0,-888.0,2173.0,-495.0,0.038,0.113,-0.008,0.993
553925,4802.0,1050.0,5196.0,-945.0,2093.0,-337.0,0.042,0.094,-0.016,0.995
553947,4110.0,342.0,5664.0,-991.0,1938.0,-291.0,0.046,0.075,-0.024,0.996
553959,3432.0,262.0,5662.0,-1019.0,1818.0,-236.0,0.05,0.058,-0.032,0.997
553981,3122.0,-62.0,5982.0,-1078.0,1697.0,-231.0,0.053,0.042,-0.041,0.997
553993,2586.0,-666.0,6260.0,-1041.0,1611.0,-224.0,0.056,0.026,-0.05,0.997
554015,2518.0,-966.0,6544.0,-898.0,1547.0,-45.0,0.058,0.012,-0.058,0.997
554027,2294.0,-990.0,6016.0,-799.0,1527.0,85.0,0.058,-0.003,-0.064,0.996
554049,1762.0,-712.0,5712.0,-755.0,1479.0,-17.0,0.059,-0.017,-0.07,0.996
554061,1550.0,-486.0,5978.0,-768.0,1435.0,-210.0,0.062,-0.031,-0.077,0.995
554083,1516.0,-662.0,5996.0,-851.0,1391.0,-326.0,0.066,-0.044,-0.084,0.993
554095,1264.0,-1432.0,5380.0,-876.0,1328.0,-320.0,0.07,-0.057,-0.091,0.992
554117,900.0,-2062.0,4874.0,-669.0,1341.0,-270.0,0.073,-0.069,-0.097,0.99
554129,618.0,-2432.0,4290.0,-407.0,1290.0,-183.0,0.076,-0.081,-0.1,0.989
554151,118.0,-2116.0,3400.0,-250.0,1135.0,-116.0,0.078,-0.092,-0.101,0.988
554173,-222.0,-1748.0,2638.0,-312.0,936.0,-58.0,0.08,-0.101,-0.104,0.986
554185,-536.0,-1936.0,2108.0,-380.0,757.0,-24.0,0.081,-0.108,-0.107,0.985
554207,-764.0,-2656.0,1482.0,-332.0,576.0,-16.0,0.081,-0.113,-0.109,0.984
554219,-992.0,-2996.0,592.0,-213.0,370.0,-50.0,0.082,-0.117,-0.111,0.983
554241,-1158.0,-2990.0,-192.0,-83.0,144.0,-43.0,0.083,-0.118,-0.111,0.983
554253,-1292.0,-2748.0,-348.0,10.0,-129.0,-10.0,0.083,-0.117,-0.111,0.983
554275,-1300.0,-2760.0,-6.0,101.0,-418.0,-44.0,0.084,-0.113,-0.111,0.984
554287,-1074.0,-2648.0,446.0,177.0,-708.0,-90.0,0.085,-0.107,-0.11,0.985
554309,-592.0,-2504.0,880.0,237.0,-942.0,-149.0,0.086,-0.098,-0.108,0.986
554331,-130.0,-2932.0,1062.0,440.0,-1108.0,-128.0,0.087,-0.087,-0.105,0.987
554343,162.0,-2754.0,1666.0,781.0,-1288.0,-73.0,0.087,-0.075,-0.099,0.988
554365,700.0,-1554.0,2742.0,970.0,-1483.0,-66.0,0.088,-0.06,-0.091,0.99
554377,1362.0,-1560.0,3570.0,926.0,-1637.0,-48.0,0.088,-0.044,-0.084,0.992
554394,1712.0,-1572.0,4056.0,992.0,-1791.0,3.0,0.087,-0.027,-0.077,0.993
554416,2188.0,-1162.0,4458.0,946.0,-1963.0,14.0,0.086,-0.008,-0.069,0.994
554428,3010.0,-1508.0,5668.0,848.0,-2111.0,52.0,0.085,0.012,-0.063,0.994
554450,3902.0,-1660.0,6242.0,891.0,-2180.0,164.0,0.083,0.034,-0.057,0.994
554462,4318.0,-810.0,6314.0,1052.0,-2213.0,291.0,0.079,0.056,-0.049,0.994
554484,4610.0,576.0,6846.0,1123.0,-2233.0,397.0,0.074,0.078,-0.04,0.993
554506,5172.0,876.0,7780.0,988.0,-2404.0,99.0,0.072,0.101,-0.033,0.992
554518,5994.0,-68.0,8914.0,819.0,-2408.0,177.0,0.069,0.123,-0.027,0.99
554540,6508.0,-636.0,8078.0,911.0,-2223.0,447.0,0.064,0.144,-0.021,0.987
554552,6504.0,86.0,7600.0,1271.0,-2117.0,653.0,0.056,0.165,-0.011,0.985
554574,6300.0,1580.0,7496.0,1366.0,-2148.0,680.0,0.048,0.185,-0.001,0.982
554586,6554.0,2616.0,8370.0,1088.0,-2291.0,566.0,0.041,0.206,0.007,0.978
554608,6936.0,1714.0,9256.0,733.0,-2382.0,438.0,0.036,0.228,0.012,0.973
554620,7526.0,798.0,8590.0,796.0,-2286.0,484.0,0.03,0.249,0.017,0.968
554642,7458.0,-132.0,7038.0,1218.0,-2111.0,679.0,0.022,0.269,0.026,0.963
554664,6916.0,-1550.0,6196.0,1902.0,-2215.0,-65.0,0.019,0.289,0.043,0.956
554676,8120.0,5248.0,7394.0,1763.0,-1436.0,1867.0,0.002,-0.303,-0.053,-0.952
554698,6078.0,3664.0,8552.0,577.0,-2140.0,373.0,0.006,-0.322,-0.057,-0.945
554710,7598.0,2082.0,7080.0,251.0,-2367.0,-123.0,0.004,-0.342,-0.06,-0.938
554732,8360.0,1202.0,5834.0,328.0,-2245.0,448.0,0.008,-0.362,-0.061,-0.93
554744,8336.0,1574.0,4966.0,568.0,-1904.0,1170.0,0.019,-0.379,-0.062,-0.923
554766,7926.0,1710.0,4740.0,849.0,-1963.0,677.0,0.026,-0.396,-0.067,-0.915
554788,7822.0,2636.0,5322.0,985.0,-2028.0,400.0,0.032,-0.414,-0.075,-0.907
554800,8180.0,3292.0,5810.0,579.0,-2179.0,411.0,0.036,-0.432,-0.079,-0.898
554812,8880.0,2538.0,5980.0,82.0,-2194.0,472.0,0.039,-0.451,-0.078,-0.888
554835,9162.0,1704.0,5660.0,-2.0,-2055.0,446.0,0.041,-0.468,-0.077,-0.879
554857,9172.0,1140.0,5290.0,367.0,-1879.0,289.0,0.044,-0.483,-0.08,-0.871
554869,9126.0,1182.0,5342.0,843.0,-1727.0,224.0,0.048,-0.497,-0.086,-0.862
554891,9124.0,1724.0,5758.0,1197.0,-1602.0,228.0,0.055,-0.509,-0.096,-0.853
554903,9134.0,2146.0,5996.0,1198.0,-1560.0,235.0,0.061,-0.521,-0.105,-0.845
554925,8978.0,2518.0,6266.0,1013.0,-1553.0,230.0,0.067,-0.533,-0.113,-0.836
554937,8628.0,2586.0,6994.0,773.0,-1547.0,225.0,0.071,-0.545,-0.119,-0.827
554959,8790.0,2432.0,7562.0,124.0,-1651.0,238.0,0.072,-0.558,-0.12,-0.818
554971,8770.0,1046.0,8152.0,-29.0,-1429.0,285.0,0.073,-0.569,-0.12,-0.81
554993,8412.0,834.0,8662.0,76.0,-1267.0,326.0,0.075,-0.579,-0.12,-0.803
555005,8322.0,1272.0,9238.0,180.0,-1112.0,371.0,0.078,-0.587,-0.12,-0.797
555027,8656.0,1228.0,10290.0,56.0,-944.0,428.0,0.08,-0.594,-0.119,-0.791
555049,8248.0,1848.0,10490.0,-63.0,-619.0,482.0,0.083,-0.6,-0.117,-0.787
555061,8596.0,1770.0,9712.0,-232.0,-292.0,470.0,0.085,-0.602,-0.113,-0.786
555083,8402.0,2148.0,8966.0,-35.0,126.0,339.0,0.088,-0.602,-0.111,-0.786
555095,8400.0,2842.0,8820.0,102.0,462.0,142.0,0.09,-0.598,-0.11,-0.788
555117,8450.0,3336.0,8686.0,153.0,794.0,-10.0,0.092,-0.592,-0.111,-0.793
555129,8600.0,3410.0,8414.0,108.0,1082.0,-221.0,0.092,-0.584,-0.112,-0.799
555151,8664.0,3436.0,8240.0,-6.0,1324.0,-408.0,0.091,-0.574,-0.114,-0.806
555173,8906.0,2928.0,8034.0,-41.0,1615.0,-595.0,0.088,-0.561,-0.115,-0.815
555185,9036.0,2462.0,7634.0,38.0,1863.0,-770.0,0.085,-0.546,-0.118,-0.825
555207,8988.0,3238.0,7448.0,40.0,2057.0,-848.0,0.082,-0.529,-0.122,-0.836
555219,9302.0,3530.0,7538.0,-212.0,2157.0,-959.0,0.076,-0.511,-0.123,-0.848
555241,9382.0,3192.0,7344.0,-485.0,2297.0,-987.0,0.069,-0.491,-0.123,-0.859
555253,9332.0,2894.0,7124.0,-632.0,2389.0,-1041.0,0.061,-0.471,-0.121,-0.871
555275,9424.0,2790.0,7140.0,-692.0,2457.0,-1092.0,0.052,-0.45,-0.119,-0.883
555287,9446.0,2700.0,7130.0,-715.0,2552.0,-1087.0,0.044,-0.428,-0.117,-0.895
555309,9352.0,3088.0,6998.0,-849.0,2593.0,-1032.0,0.035,-0.405,-0.113,-0.906
555321,9420.0,2858.0,7298.0,-1052.0,2586.0,-979.0,0.026,-0.383,-0.107,-0.917
555343,9432.0,2424.0,7012.0,-1132.0,2628.0,-897.0,0.017,-0.359,-0.1,-0.928
555355,9308.0,2502.0,6420.0,-1091.0,2698.0,-728.0,0.01,-0.335,-0.093,-0.937
555378,9164.0,3570.0,6630.0,-1055.0,2784.0,-655.0,0.004,-0.31,-0.085,-0.947
555400,9020.0,914.0,6614.0,-697.0,2576.0,-934.0,0.004,0.287,0.082,0.954
555412,8440.0,4138.0,6280.0,-946.0,2718.0,-166.0,0.006,0.262,0.074,0.962
555434,7990.0,2822.0,6550.0,-1298.0,2554.0,-456.0,0.011,0.239,0.064,0.969
555446,7808.0,1854.0,6458.0,-1105.0,2464.0,-807.0,0.019,0.216,0.056,0.975
555468,7632.0,2332.0,6182.0,-950.0,2470.0,-622.0,0.025,0.193,0.049,0.98
555480,7066.0,1944.0,6258.0,-945.0,2468.0,-335.0,0.029,0.17,0.041,0.984
555502,6436.0,2040.0,6122.0,-954.0,2448.0,-346.0,0.033,0.147,0.034,0.988
555514,5960.0,1432.0,5956.0,-889.0,2318.0,-570.0,0.038,0.126,0.027,0.991
555536,5560.0,1362.0,6020.0,-724.0,2265.0,-448.0,0.042,0.106,0.022,0.993
555558,4904.0,1062.0,6034.0,-569.0,2211.0,-294.0,0.045,0.086,0.018,0.995
555570,4322.0,704.0,6370.0,-428.0,2118.0,-257.0,0.048,0.067,0.015,0.997
555592,3904.0,598.0,6900.0,-432.0,2043.0,-272.0,0.05,0.048,0.013,0.997
555604,3430.0,474.0,6596.0,-477.0,1973.0,-269.0,0.053,0.03,0.009,0.998
555626,3090.0,1116.0,5526.0,-521.0,1902.0,-196.0,0.055,0.012,0.005,0.998
555638,3012.0,754.0,5360.0,-652.0,1831.0,-138.0,0.056,-0.005,0.0,0.998
555660,2522.0,-338.0,4808.0,-642.0,1840.0,-164.0,0.058,-0.022,-0.005,0.998
555672,1872.0,-1304.0,4194.0,-402.0,1822.0,-319.0,0.061,-0.04,-0.008,0.997
555694,1164.0,-2128.0,3872.0,-123.0,1776.0,-516.0,0.066,-0.056,-0.008,0.996
555716,760.0,-1916.0,3228.0,34.0,1677.0,-555.0,0.071,-0.072,-0.007,0.995
555728,448.0,-1792.0,2612.0,-3.0,1473.0,-400.0,0.076,-0.085,-0.006,0.993
555750,164.0,-1496.0,2030.0,-50.0,1271.0,-145.0,0.077,-0.097,-0.006,0.992
555762,-40.0,-1238.0,1426.0,-101.0,1010.0,60.0,0.077,-0.107,-0.006,0.991
555784,-482.0,-1570.0,588.0,-201.0,744.0,97.0,0.076,-0.114,-0.007,0.991
555796,-608.0,-1536.0,278.0,-209.0,412.0,78.0,0.075,-0.118,-0.009,0.99
555818,-700.0,-1102.0,406.0,-238.0,99.0,32.0,0.075,-0.119,-0.011,0.99
555830,-810.0,-1726.0,254.0,-311.0,-176.0,10.0,0.075,-0.117,-0.014,0.99
555852,-1092.0,-2024.0,572.0,-255.0,-444.0,-34.0,0.076,-0.113,-0.016,0.991
555864,-962.0,-2182.0,1166.0,-169.0,-680.0,-51.0,0.076,-0.107,-0.018,0.991
555886,-676.0,-2314.0,1668.0,-67.0,-870.0,-80.0,0.077,-0.099,-0.02,0.992
555898,-410.0,-2824.0,2000.0,148.0,-1006.0,-67.0,0.078,-0.09,-0.019,0.993
555920,-28.0,-2862.0,2614.0,491.0,-1165.0,1.0,0.079,-0.079,-0.015,0.994
555942,500.0,-1984.0,3238.0,847.0,-1297.0,144.0,0.078,-0.066,-0.008,0.995
555954,900.0,-770.0,3746.0,1010.0,-1488.0,278.0,0.077,-0.051,0.0,0.996
555976,1332.0,176.0,4866.0,1011.0,-1693.0,398.0,0.074,-0.035,0.009,0.997
555988,1720.0,530.0,6084.0,869.0,-1901.0,410.0,0.071,-0.017,0.016,0.997
556010,2670.0,674.0,6360.0,796.0,-1989.0,434.0,0.068,0.002,0.022,0.997
556022,2942.0,902.0,6196.0,735.0,-2001.0,458.0,0.064,0.022,0.027,0.997
556044,3442.0,1418.0,6428.0,749.0,-2090.0,388.0,0.061,0.042,0.033,0.997
556056,3982.0,2242.0,7424.0,676.0,-2110.0,465.0,0.058,0.063,0.038,0.996
556078,4108.0,1220.0,8686.0,646.0,-2287.0,75.0,0.058,0.085,0.043,0.994
556100,4810.0,1440.0,8504.0,737.0,-2261.0,157.0,0.057,0.106,0.048,0.992
556112,5136.0,1912.0,8090.0,705.0,-2219.0,439.0,0.054,0.127,0.053,0.989
556134,5452.0,2198.0,8182.0,547.0,-2203.0,631.0,0.049,0.148,0.056,0.986
556146,5592.0,1898.0,8282.0,480.0,-2187.0,637.0,0.044,0.169,0.059,0.983
556168,5528.0,2148.0,8080.0,518.0,-2218.0,636.0,0.039,0.19,0.062,0.979
556180,5496.0,2170.0,8718.0,413.0,-2204.0,742.0,0.033,0.21,0.063,0.975
556202,6820.0,2508.0,8734.0,486.0,-2171.0,939.0,0.025,0.231,0.065,0.971
556224,7344.0,-690.0,7920.0,746.0,-2536.0,409.0,0.021,0.254,0.07,0.964
556236,7028.0,4934.0,7478.0,256.0,-1585.0,2056.0,0.003,0.27,0.067,0.961
556258,5728.0,-734.0,7370.0,262.0,-2030.0,111.0,0.003,0.288,0.069,0.955
556270,7260.0,-1846.0,8250.0,1564.0,-1791.0,-317.0,0.003,0.304,0.084,0.949
556292,6798.0,4338.0,7272.0,1193.0,-1891.0,310.0,0.001,-0.321,-0.093,-0.943
556304,7308.0,3864.0,6394.0,-57.0,-1918.0,1541.0,0.013,-0.339,-0.088,-0.937
556326,6866.0,1734.0,5708.0,-365.0,-2005.0,1139.0,0.02,-0.357,-0.082,-0.93
556338,7550.0,1048.0,5954.0,26.0,-2048.0,475.0,0.023,-0.375,-0.081,-0.923
556360,8110.0,980.0,5674.0,300.0,-1941.0,395.0,0.025,-0.392,-0.082,-0.916
556372,8318.0,1148.0,5028.0,634.0,-1735.0,495.0,0.031,-0.407,-0.086,-0.909
556400,8346.0,1674.0,4816.0,822.0,-1630.0,469.0,0.036,-0.421,-0.092,-0.902
556412,8398.0,2134.0,4938.0,881.0,-1610.0,467.0,0.043,-0.435,-0.098,-0.894
556424,8322.0,2620.0,5220.0,783.0,-1679.0,465.0,0.048,-0.449,-0.103,-0.886
556446,8446.0,2910.0,5296.0,491.0,-1758.0,435.0,0.052,-0.463,-0.106,-0.878
556468,8558.0,2862.0,5124.0,155.0,-1829.0,391.0,0.054,-0.479,-0.107,-0.87
556480,8794.0,2418.0,5182.0,-26.0,-1848.0,305.0,0.055,-0.494,-0.106,-0.861
556502,8910.0,1768.0,5634.0,44.0,-1820.0,271.0,0.056,-0.509,-0.106,-0.853
556514,9166.0,1402.0,5984.0,221.0,-1727.0,256.0,0.058,-0.522,-0.108,-0.844
556536,8984.0,1442.0,6104.0,390.0,-1594.0,291.0,0.06,-0.535,-0.111,-0.835
556548,8470.0,1862.0,6546.0,614.0,-1449.0,379.0,0.065,-0.546,-0.115,-0.827
556570,8628.0,2040.0,6698.0,407.0,-1353.0,391.0,0.069,-0.557,-0.117,-0.82
556582,8344.0,1862.0,6890.0,309.0,-1239.0,419.0,0.073,-0.566,-0.118,-0.812
556604,8070.0,1948.0,7200.0,125.0,-1146.0,385.0,0.076,-0.575,-0.118,-0.806
556626,7816.0,1734.0,7430.0,-101.0,-1037.0,396.0,0.077,-0.583,-0.116,-0.8
556638,7784.0,1476.0,7970.0,-240.0,-956.0,435.0,0.079,-0.591,-0.113,-0.795
556660,8328.0,612.0,8680.0,-247.0,-753.0,377.0,0.079,-0.597,-0.11,-0.791
556672,8008.0,1156.0,8692.0,30.0,-448.0,396.0,0.082,-0.601,-0.108,-0.788
556694,7956.0,1530.0,8324.0,169.0,-190.0,330.0,0.086,-0.602,-0.108,-0.786
556706,7904.0,2322.0,8192.0,268.0,120.0,208.0,0.089,-0.601,-0.109,-0.786
556728,7958.0,3248.0,8576.0,129.0,310.0,-3.0,0.09,-0.599,-0.11,-0.788
556740,8608.0,2916.0,8914.0,-54.0,595.0,-198.0,0.09,-0.594,-0.11,-0.791
556762,8936.0,2282.0,8790.0,34.0,922.0,-376.0,0.088,-0.587,-0.112,-0.797
556774,9120.0,2792.0,8652.0,397.0,1317.0,-665.0,0.087,-0.576,-0.118,-0.804
556796,9468.0,3122.0,9156.0,416.0,1598.0,-853.0,0.085,-0.563,-0.125,-0.813
556818,9720.0,3554.0,8886.0,129.0,1834.0,-964.0,0.081,-0.548,-0.129,-0.823
556830,10144.0,3824.0,8644.0,-376.0,1984.0,-1029.0,0.074,-0.531,-0.131,-0.834
556852,10520.0,3060.0,8270.0,-774.0,2172.0,-998.0,0.066,-0.513,-0.128,-0.846
556864,10194.0,2398.0,7702.0,-899.0,2356.0,-885.0,0.058,-0.494,-0.124,-0.859
556886,10062.0,2192.0,7504.0,-895.0,2465.0,-825.0,0.051,-0.474,-0.12,-0.871
556898,9880.0,2216.0,7150.0,-857.0,2561.0,-758.0,0.044,-0.452,-0.115,-0.883
556920,9664.0,2432.0,6764.0,-830.0,2657.0,-663.0,0.038,-0.43,-0.11,-0.895
556932,9594.0,2560.0,6510.0,-815.0,2720.0,-610.0,0.033,-0.406,-0.105,-0.907
556954,9508.0,2524.0,6582.0,-786.0,2751.0,-597.0,0.028,-0.383,-0.1,-0.918
556976,9450.0,2754.0,6396.0,-777.0,2804.0,-583.0,0.023,-0.358,-0.095,-0.929
556988,9428.0,2876.0,6370.0,-798.0,2847.0,-470.0,0.019,-0.333,-0.089,-0.939
557010,9420.0,3250.0,5998.0,-839.0,2856.0,-375.0,0.016,-0.308,-0.082,-0.948
557022,8848.0,1098.0,5784.0,-633.0,2662.0,-909.0,0.009,-0.283,-0.079,-0.956
557044,8700.0,4200.0,5550.0,-787.0,2906.0,-34.0,0.008,-0.257,-0.072,-0.964
557056,8034.0,3224.0,5944.0,-1057.0,2770.0,-304.0,0.005,-0.232,-0.063,-0.971
557078,7568.0,2006.0,5896.0,-947.0,2631.0,-948.0,0.004,0.208,0.056,0.977
557090,7084.0,2576.0,5710.0,-871.0,2593.0,-960.0,0.013,0.184,0.05,0.982
557112,6560.0,2260.0,5852.0,-1127.0,2514.0,-679.0,0.02,0.16,0.041,0.986
557134,6166.0,2030.0,5718.0,-1423.0,2447.0,-603.0,0.026,0.138,0.03,0.99
557146,5460.0,680.0,5662.0,-1545.0,2324.0,-837.0,0.035,0.117,0.017,0.992
557168,5320.0,0.0,5608.0,-1379.0,2298.0,-736.0,0.043,0.096,0.006,0.994
557180,4742.0,214.0,5462.0,-1164.0,2249.0,-596.0,0.049,0.075,-0.003,0.996
557202,4352.0,-280.0,5814.0,-968.0,2190.0,-389.0,0.054,0.054,-0.011,0.997
557214,3862.0,-362.0,5884.0,-799.0,2088.0,-300.0,0.057,0.034,-0.017,0.998
557236,3140.0,-280.0,5852.0,-686.0,2018.0,-211.0,0.06,0.015,-0.023,0.998
557248,2470.0,-694.0,6326.0,-567.0,1898.0,-209.0,0.062,-0.003,-0.027,0.998
557270,1966.0,-910.0,6396.0,-344.0,1819.0,-53.0,0.064,-0.02,-0.029,0.997
557282,1676.0,-878.0,6374.0,-175.0,1774.0,160.0,0.063,-0.037,-0.029,0.997
557304,1512.0,-816.0,6222.0,-61.0,1764.0,156.0,0.062,-0.053,-0.029,0.996
557326,1026.0,-1314.0,5800.0,118.0,1784.0,82.0,0.062,-0.07,-0.027,0.995
557338,842.0,-1616.0,5566.0,518.0,1854.0,28.0,0.063,-0.087,-0.021,0.994
557360,420.0,-1502.0,5034.0,1023.0,1956.0,5.0,0.064,-0.104,-0.01,0.992
557372,-218.0,-1006.0,4008.0,1511.0,1978.0,-5.0,0.066,-0.122,0.005,0.99
557394,-1430.0,108.0,3948.0,1832.0,1722.0,-54.0,0.069,-0.136,0.023,0.988
557406,-884.0,1372.0,4310.0,1653.0,1384.0,-244.0,0.073,-0.148,0.039,0.985
557428,-1098.0,2014.0,3128.0,785.0,1193.0,-320.0,0.077,-0.159,0.047,0.983
557440,-1222.0,720.0,1548.0,-154.0,922.0,-284.0,0.079,-0.167,0.045,0.982
557462,-1558.0,-1314.0,16.0,-434.0,722.0,-146.0,0.08,-0.174,0.042,0.981
557484,-2164.0,-2000.0,-140.0,-239.0,454.0,-75.0,0.08,-0.179,0.04,0.98
557496,-1700.0,-2006.0,1402.0,67.0,77.0,-202.0,0.083,-0.179,0.04,0.979
557518,-1416.0,-1500.0,1740.0,85.0,-210.0,-252.0,0.086,-0.177,0.041,0.98
557530,-1340.0,-1840.0,1240.0,-24.0,-509.0,-191.0,0.088,-0.173,0.04,0.98
557552,-1266.0,-2520.0,1218.0,61.0,-745.0,-64.0,0.09,-0.166,0.04,0.981
557564,-1110.0,-2416.0,1278.0,221.0,-958.0,50.0,0.09,-0.157,0.041,0.983
557586,-558.0,-2374.0,1458.0,398.0,-1148.0,223.0,0.09,-0.146,0.044,0.984
557598,-326.0,-2166.0,1824.0,702.0,-1294.0,397.0,0.088,-0.133,0.05,0.986
557620,-166.0,-1386.0,2770.0,939.0,-1501.0,493.0,0.086,-0.119,0.058,0.988
557632,346.0,-570.0,3930.0,996.0,-1673.0,519.0,0.084,-0.102,0.067,0.989
557654,1044.0,186.0,4512.0,905.0,-1809.0,564.0,0.081,-0.084,0.074,0.99
557676,1848.0,82.0,4712.0,896.0,-1844.0,643.0,0.078,-0.066,0.081,0.991
557688,2328.0,518.0,4090.0,1038.0,-1867.0,812.0,0.073,-0.047,0.09,0.992
557710,2370.0,1862.0,4622.0,1085.0,-2054.0,828.0,0.068,-0.027,0.099,0.992
557722,2858.0,2988.0,6498.0,778.0,-2321.0,658.0,0.064,-0.003,0.105,0.992
557744,4024.0,2600.0,7804.0,340.0,-2420.0,672.0,0.061,0.02,0.107,0.992
557756,4840.0,1178.0,7060.0,425.0,-2408.0,569.0,0.058,0.044,0.109,0.991
557778,5390.0,1418.0,5740.0,912.0,-2268.0,937.0,0.052,0.068,0.116,0.99
557800,5106.0,3012.0,6122.0,1256.0,-2299.0,1188.0,0.043,0.092,0.126,0.987
557812,5422.0,4320.0,8894.0,1232.0,-2433.0,1068.0,0.035,0.116,0.135,0.983
557834,6240.0,4258.0,9766.0,811.0,-2467.0,882.0,0.03,0.14,0.141,0.98
557846,6740.0,3206.0,8216.0,741.0,-2273.0,1005.0,0.023,0.162,0.146,0.976
557868,6712.0,2718.0,6592.0,1233.0,-2065.0,1310.0,0.012,0.183,0.154,0.971
557880,6110.0,4424.0,6700.0,1787.0,-2036.0,1380.0,0.001,-0.204,-0.168,-0.965
557902,5928.0,4756.0,9174.0,1662.0,-2353.0,1075.0,0.009,-0.226,-0.181,-0.957
557914,6468.0,3112.0,9978.0,1354.0,-2650.0,201.0,0.009,-0.25,-0.192,-0.949
557936,8058.0,7688.0,8552.0,329.0,-1832.0,2079.0,0.025,-0.27,-0.19,-0.944
557958,7158.0,2508.0,7890.0,126.0,-1964.0,1278.0,0.032,-0.29,-0.189,-0.938
557970,7944.0,2828.0,6872.0,1040.0,-1882.0,631.0,0.037,-0.307,-0.196,-0.931
557992,7914.0,4516.0,6610.0,1159.0,-1774.0,1068.0,0.046,-0.324,-0.204,-0.923
558004,7968.0,4528.0,6500.0,855.0,-1737.0,1421.0,0.058,-0.341,-0.208,-0.915
558026,7852.0,4702.0,6102.0,493.0,-1824.0,1246.0,0.066,-0.359,-0.209,-0.907
558038,8078.0,4000.0,6056.0,217.0,-1883.0,1194.0,0.073,-0.377,-0.208,-0.9
558060,8166.0,2986.0,6140.0,141.0,-1851.0,1148.0,0.08,-0.394,-0.206,-0.892
558072,8038.0,2972.0,5758.0,231.0,-1800.0,1019.0,0.086,-0.411,-0.206,-0.884
558094,8278.0,3052.0,5626.0,248.0,-1742.0,1030.0,0.092,-0.427,-0.205,-0.876
558106,8448.0,2978.0,5678.0,275.0,-1703.0,1099.0,0.099,-0.443,-0.204,-0.867
558128,8374.0,3040.0,5748.0,378.0,-1698.0,1109.0,0.106,-0.458,-0.205,-0.859
558150,8146.0,3304.0,6054.0,447.0,-1695.0,1092.0,0.114,-0.473,-0.205,-0.849
558162,7890.0,3372.0,6694.0,323.0,-1731.0,1057.0,0.121,-0.488,-0.205,-0.84
558184,8062.0,3594.0,7314.0,94.0,-1787.0,957.0,0.125,-0.504,-0.204,-0.83
558196,8342.0,3338.0,7800.0,-125.0,-1714.0,929.0,0.129,-0.519,-0.2,-0.821
558218,8426.0,3008.0,8388.0,-168.0,-1522.0,916.0,0.133,-0.532,-0.197,-0.813
558230,8208.0,2874.0,8424.0,45.0,-1212.0,862.0,0.137,-0.543,-0.194,-0.805
558252,7990.0,3542.0,8862.0,327.0,-943.0,791.0,0.143,-0.551,-0.194,-0.799
558264,7868.0,4778.0,9698.0,317.0,-718.0,731.0,0.149,-0.557,-0.194,-0.794
558286,7914.0,5430.0,10224.0,-93.0,-499.0,659.0,0.153,-0.562,-0.191,-0.79
558298,7838.0,5272.0,9688.0,-315.0,-168.0,494.0,0.155,-0.565,-0.186,-0.789
558320,7754.0,4906.0,8956.0,-203.0,203.0,216.0,0.156,-0.564,-0.183,-0.79
558342,7928.0,5134.0,8830.0,-48.0,558.0,-31.0,0.157,-0.56,-0.182,-0.793
558354,7932.0,5396.0,9020.0,-70.0,856.0,-361.0,0.155,-0.553,-0.183,-0.798
558376,8282.0,5198.0,8994.0,-161.0,1133.0,-584.0,0.153,-0.543,-0.183,-0.805
558388,8302.0,4928.0,8488.0,-249.0,1393.0,-843.0,0.148,-0.532,-0.184,-0.813
558405,8606.0,4714.0,8338.0,-315.0,1619.0,-1070.0,0.141,-0.518,-0.185,-0.823
558427,8862.0,4680.0,8280.0,-367.0,1847.0,-1236.0,0.134,-0.502,-0.186,-0.834
558439,9008.0,4672.0,7848.0,-481.0,2001.0,-1433.0,0.124,-0.484,-0.186,-0.846
558461,9258.0,4596.0,8128.0,-704.0,2133.0,-1524.0,0.113,-0.465,-0.185,-0.858
558473,9564.0,4328.0,7630.0,-915.0,2273.0,-1583.0,0.101,-0.445,-0.183,-0.871
558495,9508.0,4220.0,7216.0,-1019.0,2397.0,-1598.0,0.088,-0.423,-0.179,-0.884
558517,9714.0,3522.0,7248.0,-1015.0,2512.0,-1606.0,0.075,-0.401,-0.175,-0.896
558529,9570.0,3450.0,7026.0,-884.0,2653.0,-1581.0,0.064,-0.376,-0.172,-0.908
558551,9312.0,3614.0,6822.0,-801.0,2732.0,-1554.0,0.052,-0.351,-0.169,-0.92
558563,9268.0,4000.0,6532.0,-785.0,2766.0,-1521.0,0.041,-0.325,-0.166,-0.93
558585,9166.0,3986.0,6216.0,-814.0,2767.0,-1467.0,0.031,-0.299,-0.162,-0.94
558597,8806.0,3674.0,6118.0,-748.0,2750.0,-1558.0,0.019,-0.272,-0.159,-0.949
558619,8162.0,3892.0,6022.0,-498.0,2698.0,-1856.0,0.006,-0.246,-0.159,-0.956
558641,9022.0,4604.0,6332.0,-162.0,2865.0,-1423.0,0.003,0.218,0.161,0.963
558653,8274.0,6602.0,6280.0,-636.0,2818.0,-1205.0,0.01,0.19,0.157,0.969
558675,7698.0,4858.0,6640.0,-1061.0,2565.0,-1851.0,0.025,0.164,0.151,0.974
558687,7068.0,3532.0,6726.0,-1075.0,2538.0,-1875.0,0.04,0.138,0.145,0.979
558709,6490.0,3354.0,6622.0,-1070.0,2559.0,-1627.0,0.052,0.112,0.138,0.983
558721,5076.0,2852.0,7034.0,-1234.0,2462.0,-1553.0,0.065,0.087,0.13,0.986
558743,5066.0,2114.0,6680.0,-1396.0,2310.0,-1564.0,0.077,0.064,0.119,0.988
558755,4424.0,1404.0,5658.0,-1361.0,2243.0,-1228.0,0.087,0.041,0.109,0.989
558777,3578.0,950.0,5232.0,-1154.0,2121.0,-855.0,0.093,0.02,0.101,0.99
558789,3050.0,622.0,5430.0,-900.0,1975.0,-619.0,0.097,0.0,0.094,0.991
558811,2318.0,762.0,5622.0,-704.0,1816.0,-516.0,0.1,-0.018,0.089,0.991
558823,1844.0,1148.0,5790.0,-692.0,1622.0,-475.0,0.103,-0.034,0.084,0.991
558846,2028.0,1088.0,5396.0,-898.0,1476.0,-381.0,0.105,-0.049,0.077,0.99
558858,2050.0,644.0,4876.0,-1044.0,1437.0,-105.0,0.105,-0.063,0.069,0.99
558881,1268.0,-34.0,5046.0,-929.0,1418.0,-41.0,0.104,-0.077,0.062,0.99
558893,846.0,-256.0,5294.0,-670.0,1407.0,-208.0,0.105,-0.091,0.057,0.989
558916,394.0,-262.0,5394.0,-422.0,1441.0,-346.0,0.107,-0.105,0.054,0.987
558938,70.0,-280.0,4824.0,-428.0,1412.0,-392.0,0.11,-0.118,0.051,0.986
558950,-174.0,-814.0,4618.0,-497.0,1334.0,-401.0,0.112,-0.131,0.047,0.984
558972,112.0,-1394.0,3918.0,-380.0,1265.0,-284.0,0.114,-0.143,0.045,0.982
558984,-42.0,-1712.0,3176.0,-110.0,1210.0,-35.0,0.114,-0.155,0.045,0.98
559006,-334.0,-1868.0,2330.0,149.0,1079.0,113.0,0.113,-0.164,0.048,0.979
559018,-822.0,-1204.0,2126.0,294.0,875.0,154.0,0.112,-0.172,0.052,0.977
559040,-1138.0,-804.0,1618.0,64.0,574.0,145.0,0.111,-0.177,0.053,0.976
559052,-1174.0,-1122.0,1374.0,-177.0,255.0,103.0,0.11,-0.179,0.052,0.976
559074,-1292.0,-1672.0,1092.0,-209.0,-10.0,177.0,0.109,-0.179,0.051,0.976
559086,-1424.0,-1626.0,928.0,-81.0,-259.0,214.0,0.107,-0.177,0.05,0.977
559108,-1414.0,-1468.0,992.0,24.0,-501.0,241.0,0.106,-0.172,0.05,0.978
559130,-1214.0,-1264.0,1244.0,86.0,-715.0,212.0,0.105,-0.165,0.051,0.979
559142,-840.0,-1642.0,1692.0,230.0,-863.0,179.0,0.104,-0.157,0.052,0.981
559164,-618.0,-1878.0,1346.0,487.0,-978.0,182.0,0.104,-0.148,0.056,0.982
559176,-792.0,-1476.0,1660.0,800.0,-1145.0,269.0,0.104,-0.136,0.063,0.983
559198,-334.0,-586.0,2786.0,933.0,-1373.0,315.0,0.103,-0.122,0.071,0.985
559210,280.0,-252.0,4084.0,867.0,-1568.0,358.0,0.102,-0.107,0.077,0.986
559232,1044.0,-140.0,4040.0,850.0,-1660.0,440.0,0.101,-0.09,0.084,0.987
559254,1422.0,-198.0,3354.0,1064.0,-1705.0,562.0,0.098,-0.073,0.093,0.988
559266,1812.0,298.0,3938.0,1489.0,-1819.0,659.0,0.095,-0.054,0.105,0.988
559288,1998.0,1536.0,6076.0,1760.0,-1953.0,592.0,0.093,-0.034,0.12,0.988
559300,2776.0,3086.0,7400.0,1545.0,-2039.0,777.0,0.089,-0.012,0.133,0.987
559322,3524.0,3372.0,6990.0,1414.0,-2153.0,648.0,0.086,0.01,0.144,0.986
559334,3942.0,3194.0,6432.0,1404.0,-2112.0,1026.0,0.08,0.033,0.156,0.984
559356,3822.0,4564.0,7994.0,1380.0,-2174.0,1363.0,0.07,0.056,0.166,0.982
559368,4182.0,4722.0,10490.0,1017.0,-2295.0,1211.0,0.063,0.08,0.173,0.98
559390,5090.0,4574.0,10394.0,687.0,-2218.0,1149.0,0.056,0.102,0.177,0.977
559412,5486.0,3900.0,8810.0,600.0,-2024.0,1277.0,0.047,0.123,0.18,0.975
559424,5608.0,4344.0,7730.0,892.0,-1836.0,1505.0,0.036,0.143,0.186,0.971
559436,5434.0,5302.0,8662.0,1032.0,-1866.0,1493.0,0.024,0.163,0.193,0.967
559459,5954.0,5428.0,9878.0,822.0,-1915.0,1370.0,0.014,0.183,0.197,0.963
559471,6206.0,4226.0,8988.0,396.0,-1938.0,1356.0,0.005,0.203,0.198,0.959
559494,6636.0,1254.0,7672.0,581.0,-1863.0,1031.0,0.001,-0.221,-0.201,-0.954
559516,6666.0,6278.0,6306.0,78.0,-1380.0,2124.0,0.018,-0.237,-0.198,-0.951
559528,5792.0,2576.0,5964.0,323.0,-1748.0,1031.0,0.024,-0.255,-0.198,-0.946
559550,6110.0,3224.0,5744.0,1042.0,-1798.0,855.0,0.031,-0.273,-0.206,-0.939
559562,6246.0,5606.0,6354.0,475.0,-1951.0,1183.0,0.038,-0.292,-0.207,-0.933
559584,6852.0,4998.0,7064.0,-530.0,-2055.0,1468.0,0.046,-0.313,-0.199,-0.928
559596,7170.0,2632.0,6420.0,-921.0,-2152.0,1218.0,0.049,-0.334,-0.189,-0.922
559618,7558.0,1920.0,5426.0,-523.0,-2034.0,1011.0,0.053,-0.353,-0.182,-0.916
559630,7766.0,2106.0,5044.0,123.0,-1877.0,914.0,0.058,-0.371,-0.181,-0.909
559652,7830.0,2586.0,5456.0,551.0,-1763.0,880.0,0.064,-0.387,-0.183,-0.901
559664,7928.0,3370.0,6016.0,572.0,-1755.0,900.0,0.071,-0.403,-0.186,-0.893
559686,8086.0,3476.0,6264.0,374.0,-1772.0,960.0,0.077,-0.419,-0.187,-0.885
559708,8100.0,3716.0,6214.0,188.0,-1752.0,974.0,0.083,-0.435,-0.186,-0.877
559720,7932.0,3770.0,6004.0,97.0,-1745.0,903.0,0.088,-0.45,-0.184,-0.869
559742,7996.0,3902.0,6214.0,68.0,-1730.0,799.0,0.092,-0.466,-0.183,-0.861
559754,7878.0,4524.0,6386.0,-107.0,-1757.0,659.0,0.094,-0.481,-0.181,-0.853
559776,7710.0,4810.0,6548.0,-536.0,-1816.0,559.0,0.093,-0.497,-0.176,-0.845
559788,7866.0,4674.0,6492.0,-1048.0,-1844.0,420.0,0.089,-0.513,-0.167,-0.837
559810,7788.0,3694.0,6528.0,-1288.0,-1813.0,309.0,0.083,-0.528,-0.158,-0.83
559822,7818.0,2844.0,7198.0,-1310.0,-1739.0,190.0,0.076,-0.543,-0.148,-0.823
559844,7948.0,2024.0,8730.0,-1315.0,-1650.0,99.0,0.068,-0.556,-0.139,-0.816
559866,7924.0,752.0,9616.0,-1176.0,-1370.0,122.0,0.061,-0.568,-0.13,-0.811
559878,7764.0,1094.0,9508.0,-810.0,-1034.0,122.0,0.057,-0.576,-0.124,-0.806
559900,7834.0,1260.0,9198.0,-393.0,-640.0,188.0,0.056,-0.581,-0.121,-0.803
559912,8084.0,1980.0,9510.0,-185.0,-325.0,182.0,0.056,-0.584,-0.119,-0.801
559934,8236.0,2058.0,9772.0,-216.0,12.0,129.0,0.056,-0.584,-0.117,-0.801
559946,8294.0,2536.0,9484.0,-141.0,389.0,95.0,0.057,-0.581,-0.116,-0.804
559968,8526.0,2912.0,9614.0,-302.0,587.0,-70.0,0.056,-0.577,-0.114,-0.807
559980,9062.0,2020.0,9964.0,-341.0,955.0,-164.0,0.054,-0.569,-0.112,-0.813
560002,8882.0,2046.0,9650.0,-226.0,1305.0,-385.0,0.052,-0.559,-0.112,-0.82
560014,9340.0,2518.0,9090.0,-187.0,1655.0,-473.0,0.05,-0.546,-0.112,-0.829
560037,9486.0,3536.0,9028.0,-150.0,1983.0,-580.0,0.047,-0.53,-0.113,-0.839
560049,9808.0,4556.0,8446.0,-457.0,2188.0,-742.0,0.042,-0.512,-0.113,-0.851
560072,10188.0,4452.0,8126.0,-753.0,2419.0,-862.0,0.035,-0.492,-0.11,-0.863
560094,10158.0,3694.0,7650.0,-882.0,2675.0,-1044.0,0.025,-0.469,-0.107,-0.876
560106,10180.0,3486.0,7268.0,-740.0,2898.0,-1231.0,0.016,-0.444,-0.106,-0.889
560128,10362.0,2780.0,7220.0,-517.0,3094.0,-1350.0,0.006,-0.417,-0.107,-0.902
560140,10068.0,2844.0,7114.0,-237.0,3264.0,-1391.0,0.003,0.388,0.111,0.915
560162,9564.0,2924.0,7100.0,-139.0,3294.0,-1406.0,0.012,0.358,0.115,0.927
560174,8984.0,3044.0,6870.0,-372.0,3261.0,-1311.0,0.02,0.328,0.117,0.937
560196,8408.0,3332.0,6862.0,-769.0,3172.0,-1118.0,0.029,0.299,0.114,0.947
560208,7824.0,2432.0,6626.0,-843.0,3027.0,-1348.0,0.039,0.27,0.111,0.956
560230,8748.0,2010.0,6452.0,-522.0,3155.0,-653.0,0.043,0.241,0.109,0.963
560252,7184.0,2698.0,6104.0,-350.0,3226.0,-226.0,0.042,0.212,0.108,0.97
560264,5970.0,3212.0,6634.0,-290.0,2917.0,-953.0,0.048,0.184,0.108,0.976
560286,6236.0,3124.0,6968.0,-439.0,2595.0,-1229.0,0.057,0.159,0.108,0.98
560298,6024.0,3630.0,6654.0,-798.0,2512.0,-662.0,0.062,0.135,0.103,0.984
560320,5610.0,2676.0,6546.0,-957.0,2414.0,-456.0,0.065,0.112,0.096,0.987
560332,4998.0,2104.0,6308.0,-741.0,2382.0,-522.0,0.068,0.09,0.091,0.989
560354,4152.0,2422.0,6254.0,-553.0,2267.0,-542.0,0.071,0.069,0.088,0.991
560366,3554.0,2382.0,7050.0,-758.0,2043.0,-622.0,0.076,0.05,0.083,0.992
560388,3460.0,2294.0,7030.0,-1023.0,1902.0,-407.0,0.079,0.032,0.075,0.994
560415,3332.0,1774.0,6692.0,-1214.0,1785.0,-178.0,0.079,0.015,0.065,0.995
560427,3308.0,1036.0,5878.0,-1133.0,1749.0,-6.0,0.079,-0.002,0.056,0.995
560439,2650.0,914.0,5472.0,-847.0,1694.0,122.0,0.077,-0.019,0.05,0.996
560461,2604.0,540.0,5766.0,-618.0,1632.0,118.0,0.075,-0.034,0.045,0.996
560473,2126.0,604.0,5600.0,-519.0,1585.0,69.0,0.074,-0.049,0.041,0.995
560495,1280.0,1066.0,5714.0,-614.0,1482.0,-12.0,0.073,-0.063,0.037,0.995
560507,1508.0,960.0,5494.0,-711.0,1388.0,-179.0,0.074,-0.077,0.031,0.994
560529,1120.0,-306.0,5300.0,-748.0,1347.0,-221.0,0.075,-0.09,0.025,0.993
560541,542.0,-520.0,4626.0,-684.0,1316.0,-198.0,0.076,-0.102,0.019,0.992
560563,152.0,-28.0,4304.0,-667.0,1210.0,-119.0,0.077,-0.114,0.014,0.99
560585,74.0,-396.0,3400.0,-665.0,1112.0,27.0,0.076,-0.125,0.008,0.989
560597,-470.0,-964.0,3108.0,-586.0,991.0,130.0,0.074,-0.134,0.004,0.988
560619,-1038.0,-264.0,2414.0,-464.0,816.0,102.0,0.073,-0.142,0.0,0.987
560631,-1120.0,586.0,2264.0,-544.0,553.0,11.0,0.073,-0.148,-0.004,0.986
560653,-1268.0,-334.0,1154.0,-800.0,308.0,-133.0,0.073,-0.151,-0.011,0.986
560665,-1714.0,-2522.0,146.0,-936.0,76.0,-220.0,0.074,-0.152,-0.02,0.985
560687,-1714.0,-2668.0,-242.0,-663.0,-178.0,-253.0,0.076,-0.151,-0.027,0.985
560699,-1572.0,-2536.0,-608.0,-488.0,-447.0,-160.0,0.077,-0.147,-0.032,0.986
560721,-1422.0,-2614.0,-578.0,-430.0,-743.0,-87.0,0.078,-0.141,-0.036,0.986
560733,-1074.0,-2482.0,-90.0,-411.0,-1024.0,-42.0,0.078,-0.132,-0.041,0.987
560755,-640.0,-3120.0,502.0,-275.0,-1251.0,-37.0,0.078,-0.12,-0.044,0.989
560777,-138.0,-2734.0,896.0,143.0,-1429.0,-43.0,0.078,-0.107,-0.044,0.99
560789,400.0,-2026.0,1648.0,510.0,-1572.0,-14.0,0.079,-0.092,-0.04,0.992
560811,890.0,-1628.0,2308.0,751.0,-1703.0,29.0,0.079,-0.076,-0.034,0.993
560823,1482.0,-886.0,2948.0,876.0,-1866.0,59.0,0.079,-0.058,-0.028,0.995
560845,2116.0,-880.0,3482.0,903.0,-1999.0,41.0,0.079,-0.039,-0.021,0.996
560857,2560.0,-154.0,3706.0,944.0,-2166.0,53.0,0.079,-0.018,-0.013,0.997
560879,3524.0,694.0,4672.0,928.0,-2379.0,52.0,0.078,0.005,-0.007,0.997
560891,4372.0,418.0,6238.0,828.0,-2490.0,93.0,0.078,0.029,-0.001,0.997
560913,4734.0,-12.0,6658.0,836.0,-2527.0,73.0,0.077,0.054,0.005,0.996
560925,4710.0,1178.0,6412.0,869.0,-2565.0,225.0,0.075,0.08,0.011,0.994
560947,5482.0,1562.0,7314.0,810.0,-2769.0,-61.0,0.076,0.106,0.017,0.991
560969,6426.0,624.0,8422.0,792.0,-2755.0,107.0,0.075,0.132,0.022,0.988
560981,6778.0,502.0,8398.0,1059.0,-2616.0,450.0,0.07,0.157,0.029,0.985
561003,7080.0,1618.0,7852.0,1253.0,-2560.0,663.0,0.064,0.181,0.038,0.981
561015,7374.0,2484.0,7534.0,1207.0,-2590.0,788.0,0.056,0.206,0.046,0.976
561037,7506.0,2338.0,8010.0,1050.0,-2713.0,798.0,0.048,0.232,0.053,0.97
561049,7648.0,2074.0,8868.0,1076.0,-2742.0,811.0,0.04,0.257,0.059,0.964
561071,8082.0,1406.0,8404.0,1201.0,-2629.0,1034.0,0.029,0.282,0.067,0.957
561093,10104.0,142.0,8728.0,2631.0,-1820.0,1589.0,0.01,0.3,0.085,0.95
561105,10124.0,1676.0,7594.0,3553.0,-1822.0,1876.0,0.015,-0.317,-0.111,-0.942
561127,6978.0,10684.0,6460.0,1674.0,-1853.0,2080.0,0.036,-0.335,-0.12,-0.934
561139,7684.0,4338.0,7030.0,110.0,-2800.0,565.0,0.038,-0.36,-0.12,-0.924
561161,9306.0,2602.0,7132.0,237.0,-2629.0,538.0,0.04,-0.383,-0.121,-0.915
561173,9156.0,3998.0,6356.0,-408.0,-2542.0,986.0,0.045,-0.406,-0.115,-0.905
561195,9370.0,2612.0,5580.0,-865.0,-2477.0,890.0,0.046,-0.428,-0.105,-0.896
561207,9490.0,1716.0,4766.0,-628.0,-2309.0,376.0,0.044,-0.448,-0.099,-0.887
561229,10056.0,1320.0,5008.0,-152.0,-2159.0,138.0,0.043,-0.466,-0.098,-0.878
561241,10226.0,1038.0,5374.0,322.0,-1919.0,170.0,0.044,-0.482,-0.101,-0.869
561263,10112.0,1320.0,5604.0,683.0,-1731.0,144.0,0.047,-0.495,-0.107,-0.861
561285,9898.0,1538.0,5556.0,939.0,-1534.0,139.0,0.051,-0.507,-0.115,-0.853
561297,9564.0,2268.0,5122.0,852.0,-1551.0,168.0,0.055,-0.519,-0.122,-0.844
561319,9054.0,1806.0,5782.0,651.0,-1513.0,213.0,0.059,-0.531,-0.127,-0.836
561331,9336.0,1354.0,6648.0,572.0,-1470.0,130.0,0.061,-0.542,-0.132,-0.828
561353,8878.0,3246.0,6684.0,495.0,-1550.0,167.0,0.064,-0.554,-0.136,-0.819
561365,8934.0,1282.0,6592.0,303.0,-1422.0,185.0,0.065,-0.565,-0.138,-0.811
561387,8502.0,1278.0,6574.0,440.0,-1238.0,352.0,0.069,-0.574,-0.141,-0.804
561399,8200.0,1908.0,6740.0,126.0,-1308.0,427.0,0.072,-0.584,-0.141,-0.796
561421,8030.0,1298.0,7710.0,-33.0,-1287.0,453.0,0.074,-0.594,-0.139,-0.789
561433,7780.0,1564.0,9880.0,-155.0,-1207.0,435.0,0.075,-0.604,-0.137,-0.782
561455,8456.0,2160.0,10476.0,-633.0,-1139.0,596.0,0.075,-0.613,-0.13,-0.776
561477,8620.0,1012.0,9292.0,-876.0,-764.0,589.0,0.073,-0.62,-0.121,-0.772
561489,7948.0,1704.0,7580.0,-553.0,-303.0,578.0,0.074,-0.623,-0.114,-0.77
561511,7938.0,2526.0,6894.0,-326.0,-18.0,496.0,0.076,-0.624,-0.109,-0.77
561523,8214.0,3030.0,6918.0,-34.0,367.0,521.0,0.08,-0.622,-0.105,-0.772
561545,8104.0,3426.0,7558.0,5.0,606.0,314.0,0.083,-0.618,-0.103,-0.775
561557,8368.0,3334.0,7518.0,-68.0,821.0,89.0,0.084,-0.612,-0.102,-0.78
561579,8340.0,4314.0,7012.0,-111.0,1079.0,-97.0,0.084,-0.604,-0.101,-0.786
561591,8720.0,4764.0,8042.0,-611.0,1115.0,-446.0,0.079,-0.596,-0.098,-0.793
561613,9476.0,2736.0,7804.0,-975.0,1335.0,-608.0,0.071,-0.586,-0.094,-0.802
561635,9366.0,1990.0,6840.0,-1032.0,1627.0,-776.0,0.061,-0.574,-0.09,-0.812
561647,9622.0,1678.0,7466.0,-939.0,1930.0,-981.0,0.051,-0.559,-0.087,-0.823
561669,9758.0,2116.0,7556.0,-759.0,2240.0,-999.0,0.041,-0.541,-0.086,-0.836
561681,9932.0,2082.0,7732.0,-636.0,2467.0,-1041.0,0.033,-0.521,-0.085,-0.849
561703,9966.0,2312.0,7758.0,-745.0,2593.0,-1009.0,0.024,-0.499,-0.084,-0.862
561715,10190.0,2350.0,8080.0,-961.0,2646.0,-982.0,0.014,-0.477,-0.08,-0.875
561737,10514.0,2082.0,7882.0,-1050.0,2711.0,-882.0,0.005,-0.454,-0.076,-0.888
561749,10452.0,2198.0,7384.0,-978.0,2818.0,-740.0,0.003,0.43,0.071,0.9
561771,10896.0,2062.0,7658.0,-844.0,2889.0,-614.0,0.009,0.405,0.066,0.912
561793,10646.0,1632.0,7634.0,-611.0,2965.0,-553.0,0.014,0.38,0.064,0.923
561805,9904.0,1676.0,6940.0,-441.0,2951.0,-996.0,0.022,0.353,0.064,0.933
561827,10360.0,4516.0,6560.0,-506.0,3185.0,-144.0,0.023,0.325,0.061,0.943
561839,9714.0,3796.0,6504.0,-849.0,3110.0,-218.0,0.025,0.297,0.055,0.953
561861,9552.0,2416.0,6674.0,-863.0,2992.0,-759.0,0.033,0.27,0.05,0.961
561873,9536.0,2680.0,6282.0,-572.0,3078.0,-744.0,0.039,0.242,0.048,0.968
561895,9028.0,2904.0,6020.0,-344.0,3163.0,-584.0,0.043,0.213,0.047,0.975
561907,8524.0,2720.0,6022.0,-212.0,3213.0,-512.0,0.047,0.183,0.047,0.981
561929,7374.0,2480.0,6488.0,-179.0,3134.0,-790.0,0.053,0.154,0.048,0.985
561941,6948.0,2162.0,6830.0,-189.0,2990.0,-937.0,0.06,0.126,0.049,0.989
561963,6324.0,1910.0,7112.0,-341.0,2886.0,-803.0,0.066,0.099,0.049,0.992
561985,5602.0,1556.0,6882.0,-522.0,2793.0,-678.0,0.072,0.073,0.047,0.994
561997,5482.0,1340.0,6232.0,-602.0,2715.0,-507.0,0.076,0.049,0.043,0.995
562019,4696.0,902.0,5820.0,-749.0,2620.0,-367.0,0.078,0.025,0.038,0.996
562031,4022.0,738.0,5764.0,-866.0,2470.0,-409.0,0.081,0.001,0.032,0.996
562053,3582.0,782.0,5558.0,-984.0,2313.0,-413.0,0.084,-0.021,0.025,0.996
562065,3318.0,596.0,4978.0,-1071.0,2212.0,-286.0,0.087,-0.043,0.016,0.995
562087,2958.0,266.0,4662.0,-1074.0,2136.0,-310.0,0.089,-0.064,0.008,0.994
562099,2194.0,-320.0,4584.0,-969.0,2074.0,-419.0,0.092,-0.084,0.001,0.992
562121,1658.0,-878.0,3748.0,-782.0,2022.0,-567.0,0.097,-0.103,-0.005,0.99
562143,948.0,-936.0,3314.0,-547.0,1979.0,-554.0,0.102,-0.122,-0.009,0.987
562155,190.0,-590.0,3126.0,-528.0,1784.0,-551.0,0.106,-0.139,-0.013,0.985
562177,-386.0,-864.0,2726.0,-717.0,1556.0,-429.0,0.11,-0.154,-0.018,0.982
562189,-716.0,-1320.0,2284.0,-827.0,1356.0,-339.0,0.112,-0.167,-0.025,0.979
562211,-1140.0,-2408.0,1492.0,-756.0,1154.0,-256.0,0.114,-0.178,-0.031,0.977
562223,-1474.0,-3176.0,908.0,-451.0,963.0,-158.0,0.115,-0.187,-0.034,0.975
562245,-1988.0,-3240.0,336.0,-145.0,745.0,-84.0,0.116,-0.194,-0.035,0.973
562257,-2234.0,-2788.0,-164.0,-81.0,449.0,-3.0,0.117,-0.198,-0.035,0.973
562279,-2294.0,-2868.0,-544.0,-161.0,156.0,119.0,0.116,-0.2,-0.036,0.972
562291,-2186.0,-3104.0,-826.0,-129.0,-164.0,184.0,0.115,-0.199,-0.037,0.973
562313,-2170.0,-3042.0,-1000.0,22.0,-429.0,277.0,0.112,-0.195,-0.037,0.974
562335,-2096.0,-2906.0,-734.0,239.0,-731.0,348.0,0.11,-0.188,-0.035,0.975
562347,-1700.0,-2148.0,-30.0,439.0,-1011.0,393.0,0.107,-0.179,-0.031,0.978
562369,-1066.0,-1648.0,742.0,513.0,-1273.0,355.0,0.105,-0.167,-0.027,0.98
562381,-94.0,-1548.0,1498.0,652.0,-1487.0,338.0,0.103,-0.152,-0.022,0.983
562403,332.0,-1606.0,2102.0,890.0,-1620.0,400.0,0.101,-0.137,-0.014,0.985
562420,792.0,-556.0,3078.0,1134.0,-1793.0,459.0,0.098,-0.119,-0.005,0.988
562442,1396.0,358.0,3908.0,1133.0,-1954.0,467.0,0.096,-0.1,0.004,0.99
562454,1860.0,208.0,5194.0,1116.0,-2094.0,456.0,0.093,-0.08,0.013,0.992
562476,2294.0,414.0,6112.0,1170.0,-2189.0,474.0,0.09,-0.059,0.022,0.994
562488,2818.0,642.0,7030.0,1183.0,-2240.0,485.0,0.087,-0.036,0.032,0.995
562510,3560.0,322.0,7858.0,1314.0,-2203.0,565.0,0.083,-0.013,0.042,0.996
562522,4198.0,-428.0,9138.0,1665.0,-2072.0,851.0,0.077,0.008,0.056,0.995
562544,4054.0,632.0,9722.0,2199.0,-1895.0,843.0,0.07,0.027,0.075,0.994
562556,4450.0,1868.0,9562.0,2634.0,-1780.0,949.0,0.063,0.046,0.098,0.992
562578,4526.0,4220.0,9142.0,2576.0,-1673.0,1339.0,0.051,0.064,0.12,0.989
562590,4136.0,5378.0,9504.0,2102.0,-1710.0,1529.0,0.038,0.083,0.138,0.986
562612,4430.0,5900.0,9626.0,1574.0,-1770.0,1456.0,0.026,0.102,0.15,0.983
562624,4664.0,4700.0,9732.0,1245.0,-1739.0,1329.0,0.015,0.12,0.16,0.98
562646,4512.0,4700.0,8546.0,1217.0,-1641.0,1246.0,0.005,0.137,0.17,0.976
562668,4880.0,4834.0,7636.0,1142.0,-1541.0,1230.0,0.005,-0.153,-0.178,-0.972
562680,4042.0,4946.0,6564.0,1336.0,-1495.0,648.0,0.01,-0.168,-0.189,-0.967
562702,7328.0,6558.0,6298.0,954.0,-1408.0,2148.0,0.028,-0.184,-0.195,-0.963
562714,4674.0,5420.0,5938.0,66.0,-1490.0,1975.0,0.043,-0.201,-0.192,-0.96
562736,5080.0,2360.0,6324.0,415.0,-2045.0,384.0,0.043,-0.22,-0.196,-0.955
562748,5788.0,2888.0,6286.0,961.0,-2055.0,497.0,0.046,-0.239,-0.204,-0.948
562770,6300.0,4758.0,5882.0,324.0,-1960.0,1400.0,0.055,-0.259,-0.205,-0.942
562782,6348.0,3774.0,5492.0,-245.0,-1965.0,1457.0,0.063,-0.279,-0.2,-0.937
562804,6820.0,2162.0,5380.0,8.0,-2072.0,995.0,0.068,-0.299,-0.198,-0.931
562826,6910.0,3288.0,5660.0,267.0,-2091.0,959.0,0.073,-0.319,-0.199,-0.924
562838,7336.0,3688.0,6206.0,108.0,-2149.0,968.0,0.078,-0.339,-0.199,-0.916
562860,7970.0,3562.0,6370.0,-201.0,-2132.0,920.0,0.081,-0.359,-0.195,-0.909
562872,8194.0,3062.0,6098.0,-360.0,-2067.0,855.0,0.083,-0.378,-0.191,-0.902
562894,8462.0,2364.0,5948.0,-222.0,-2013.0,755.0,0.085,-0.397,-0.188,-0.894
562906,8618.0,2846.0,5654.0,-12.0,-1959.0,726.0,0.087,-0.414,-0.187,-0.886
562928,8790.0,3188.0,5610.0,34.0,-1919.0,740.0,0.09,-0.431,-0.186,-0.878
562940,8600.0,3100.0,5856.0,23.0,-1920.0,739.0,0.093,-0.448,-0.185,-0.87
562962,8582.0,3298.0,6176.0,-90.0,-1963.0,685.0,0.095,-0.465,-0.183,-0.861
562974,8794.0,3362.0,6294.0,-258.0,-1966.0,667.0,0.096,-0.482,-0.18,-0.852
562997,8748.0,3050.0,6154.0,-387.0,-1902.0,701.0,0.097,-0.499,-0.175,-0.843
563019,8662.0,2792.0,6042.0,-363.0,-1806.0,656.0,0.098,-0.514,-0.171,-0.835
563031,8638.0,2448.0,6218.0,-249.0,-1676.0,592.0,0.099,-0.528,-0.168,-0.826
563053,8446.0,2466.0,6556.0,-137.0,-1532.0,558.0,0.101,-0.541,-0.166,-0.818
563065,8192.0,3094.0,6612.0,-311.0,-1445.0,492.0,0.101,-0.553,-0.163,-0.811
563087,8146.0,1938.0,6838.0,-333.0,-1266.0,479.0,0.101,-0.564,-0.159,-0.804
563099,7512.0,1928.0,6944.0,-219.0,-1103.0,387.0,0.102,-0.572,-0.157,-0.798
563121,7418.0,2320.0,8072.0,-428.0,-1091.0,321.0,0.101,-0.581,-0.153,-0.793
563133,8086.0,2168.0,9346.0,-897.0,-1033.0,306.0,0.097,-0.59,-0.146,-0.788
563155,7882.0,1754.0,9212.0,-1404.0,-901.0,338.0,0.091,-0.598,-0.135,-0.785
563167,8070.0,1216.0,7816.0,-1559.0,-707.0,295.0,0.084,-0.605,-0.123,-0.782
563189,7756.0,1226.0,6846.0,-1427.0,-467.0,296.0,0.078,-0.61,-0.111,-0.781
563211,8112.0,1738.0,7688.0,-1555.0,-302.0,312.0,0.071,-0.613,-0.099,-0.78
563223,8862.0,578.0,8166.0,-1502.0,6.0,279.0,0.065,-0.615,-0.086,-0.781
563245,8964.0,320.0,7686.0,-1095.0,389.0,134.0,0.06,-0.612,-0.078,-0.784
563257,9078.0,836.0,7472.0,-496.0,763.0,54.0,0.059,-0.607,-0.074,-0.789
563279,9274.0,2172.0,7852.0,-392.0,993.0,-21.0,0.058,-0.6,-0.071,-0.795
563291,9638.0,2364.0,7664.0,-488.0,1250.0,-113.0,0.055,-0.591,-0.067,-0.802
563313,9734.0,2518.0,7568.0,-628.0,1525.0,-177.0,0.052,-0.579,-0.063,-0.811
563325,10110.0,1902.0,7750.0,-627.0,1796.0,-317.0,0.048,-0.566,-0.06,-0.821
563347,10146.0,1460.0,7560.0,-404.0,2120.0,-453.0,0.044,-0.549,-0.058,-0.832
563369,10164.0,2054.0,7234.0,-283.0,2345.0,-562.0,0.04,-0.531,-0.058,-0.845
563381,10286.0,2478.0,7318.0,-434.0,2465.0,-588.0,0.035,-0.511,-0.057,-0.857
563403,10008.0,2982.0,7042.0,-824.0,2529.0,-561.0,0.029,-0.491,-0.053,-0.869
563415,10214.0,2284.0,6940.0,-1274.0,2544.0,-523.0,0.02,-0.47,-0.044,-0.881
563437,10302.0,1604.0,6770.0,-1439.0,2587.0,-404.0,0.012,-0.448,-0.034,-0.893
563449,10502.0,1192.0,6980.0,-1512.0,2627.0,-230.0,0.005,-0.426,-0.022,-0.904
563471,10540.0,-1556.0,6808.0,-957.0,2657.0,-704.0,0.004,0.404,0.017,0.915
563483,10484.0,1104.0,6808.0,-776.0,3011.0,355.0,0.003,0.378,0.009,0.926
563505,9462.0,-92.0,7318.0,-627.0,2963.0,184.0,0.003,0.352,0.004,0.936
563527,9680.0,940.0,7614.0,-530.0,2801.0,-155.0,0.005,0.328,-0.0,0.945
563539,10238.0,822.0,8012.0,-633.0,2753.0,-99.0,0.008,0.303,-0.005,0.953
563561,10676.0,882.0,7744.0,-796.0,2849.0,309.0,0.007,0.278,-0.013,0.961
563573,10528.0,796.0,6748.0,-834.0,3019.0,540.0,0.005,0.25,-0.022,0.968
563595,10256.0,-96.0,6230.0,-446.0,3170.0,417.0,0.003,0.222,-0.026,0.975
563607,9692.0,-364.0,5620.0,170.0,3318.0,193.0,0.001,0.191,-0.025,0.981
563629,8800.0,-434.0,5466.0,810.0,3390.0,79.0,0.001,-0.16,0.018,-0.987
563641,7892.0,612.0,5056.0,1284.0,3376.0,20.0,0.002,-0.129,0.006,-0.992
563663,6984.0,1248.0,4560.0,1401.0,3266.0,-23.0,0.003,-0.1,-0.007,-0.995
563685,5566.0,1674.0,4586.0,1216.0,3134.0,-19.0,0.005,-0.072,-0.019,-0.997
563697,4462.0,2108.0,4730.0,835.0,2776.0,-193.0,0.004,-0.046,-0.026,-0.999
563719,3828.0,2134.0,5056.0,199.0,2523.0,-234.0,0.002,-0.023,-0.028,-0.999
563731,3370.0,1724.0,4794.0,-378.0,2303.0,-206.0,0.001,-0.001,-0.025,-1.0
563753,2774.0,452.0,4152.0,-598.0,2169.0,-144.0,0.0,0.019,-0.019,-1.0
563765,1508.0,-786.0,4494.0,-508.0,2002.0,-78.0,0.001,-0.038,0.014,0.999
563787,858.0,2.0,4942.0,-464.0,1785.0,-157.0,0.002,-0.055,0.01,0.998
563799,166.0,-8.0,5862.0,-912.0,1547.0,-198.0,0.003,-0.069,0.002,0.998
563821,340.0,-1090.0,5768.0,-1405.0,1410.0,-197.0,0.004,-0.082,-0.012,0.997
563833,72.0,-2586.0,5408.0,-1458.0,1371.0,-17.0,0.004,-0.095,-0.025,0.995
563855,276.0,-2912.0,4828.0,-988.0,1378.0,183.0,0.002,-0.108,-0.034,0.994
563877,318.0,-2860.0,4360.0,-285.0,1483.0,337.0,0.001,0.122,0.036,-0.992
563889,10.0,-3126.0,4216.0,457.0,1498.0,334.0,0.003,0.136,0.032,-0.99
563911,-372.0,-2158.0,3464.0,1063.0,1529.0,248.0,0.003,0.15,0.021,-0.988
563923,-902.0,-490.0,1982.0,1268.0,1481.0,152.0,0.002,0.164,0.01,-0.986
563945,-1386.0,-62.0,648.0,1228.0,1313.0,91.0,0.001,0.176,-0.002,-0.984
563957,-2052.0,10.0,168.0,1032.0,983.0,-102.0,0.002,-0.185,0.011,0.983
563979,-2498.0,974.0,766.0,427.0,625.0,-217.0,0.005,-0.19,0.015,0.982
563991,-2506.0,506.0,1138.0,-251.0,210.0,-321.0,0.008,-0.192,0.012,0.981
564013,-2524.0,-850.0,778.0,-629.0,-124.0,-330.0,0.01,-0.191,0.006,0.981
564025,-2720.0,-1678.0,568.0,-606.0,-374.0,-286.0,0.012,-0.188,-0.0,0.982
564047,-2902.0,-2336.0,482.0,-380.0,-563.0,-253.0,0.014,-0.183,-0.004,0.983
564069,-2662.0,-2580.0,536.0,-58.0,-766.0,-237.0,0.017,-0.176,-0.005,0.984
564081,-2412.0,-2304.0,602.0,229.0,-931.0,-106.0,0.019,-0.167,-0.003,0.986
564103,-1824.0,-2218.0,858.0,553.0,-1122.0,17.0,0.02,-0.157,0.002,0.987
564115,-1346.0,-1198.0,1438.0,868.0,-1302.0,164.0,0.02,-0.145,0.01,0.989
564137,-514.0,-174.0,2002.0,974.0,-1524.0,170.0,0.02,-0.13,0.019,0.991
564149,188.0,784.0,3020.0,954.0,-1754.0,151.0,0.021,-0.114,0.028,0.993
564171,1278.0,1518.0,3478.0,792.0,-1920.0,91.0,0.022,-0.096,0.035,0.995
564193,2212.0,914.0,3914.0,813.0,-1987.0,40.0,0.023,-0.077,0.042,0.996
564205,2786.0,588.0,4188.0,1178.0,-2000.0,43.0,0.025,-0.058,0.052,0.997
564227,2870.0,1554.0,4536.0,1607.0,-2079.0,17.0,0.027,-0.039,0.067,0.997
564239,3276.0,2814.0,5586.0,1514.0,-2305.0,-12.0,0.03,-0.017,0.08,0.996
564261,3972.0,3166.0,7642.0,1294.0,-2409.0,-219.0,0.034,0.006,0.092,0.995
564273,4832.0,2248.0,7574.0,1226.0,-2417.0,-282.0,0.039,0.029,0.102,0.994
564295,4956.0,1722.0,6284.0,1352.0,-2322.0,314.0,0.038,0.052,0.114,0.991
564307,4514.0,2846.0,5930.0,1362.0,-2450.0,779.0,0.033,0.077,0.125,0.989
564329,5002.0,4410.0,8644.0,1155.0,-2676.0,716.0,0.029,0.103,0.134,0.985
564341,6264.0,4344.0,10870.0,700.0,-2716.0,517.0,0.028,0.128,0.14,0.981
564363,7252.0,2716.0,9784.0,496.0,-2490.0,590.0,0.025,0.152,0.143,0.978
564385,7370.0,2304.0,6952.0,960.0,-2237.0,1023.0,0.018,0.174,0.149,0.973
564397,6928.0,3498.0,6284.0,1465.0,-2224.0,1304.0,0.007,0.196,0.16,0.967
564424,6400.0,4206.0,9520.0,1636.0,-2620.0,1092.0,0.002,-0.222,-0.172,-0.96
564436,6766.0,2396.0,12586.0,1247.0,-3142.0,82.0,0.001,0.25,0.183,0.951
564448,8470.0,6652.0,10942.0,232.0,-2184.0,1818.0,0.012,-0.272,-0.181,-0.945
564470,7584.0,3168.0,7954.0,-704.0,-2152.0,1384.0,0.019,-0.294,-0.171,-0.94
564482,7930.0,762.0,6118.0,-162.0,-2116.0,964.0,0.023,-0.314,-0.168,-0.934
564504,7968.0,1742.0,6976.0,644.0,-2043.0,1114.0,0.031,-0.333,-0.17,-0.927
564516,8220.0,3452.0,8312.0,712.0,-2060.0,1156.0,0.04,-0.352,-0.173,-0.919
564538,8756.0,4116.0,8288.0,106.0,-2105.0,1116.0,0.047,-0.372,-0.171,-0.911
564560,9084.0,3170.0,7442.0,-471.0,-2001.0,1249.0,0.053,-0.391,-0.164,-0.904
564572,8966.0,2016.0,6398.0,-539.0,-1900.0,1122.0,0.057,-0.409,-0.156,-0.897
564594,8946.0,1512.0,5946.0,-136.0,-1774.0,918.0,0.062,-0.425,-0.152,-0.89
564606,9134.0,1940.0,5932.0,227.0,-1624.0,818.0,0.067,-0.44,-0.152,-0.883
564628,9084.0,2334.0,5806.0,419.0,-1492.0,856.0,0.074,-0.453,-0.153,-0.875
564640,8896.0,2216.0,5612.0,611.0,-1369.0,822.0,0.081,-0.465,-0.155,-0.868
564662,8708.0,2394.0,5358.0,800.0,-1283.0,700.0,0.089,-0.475,-0.16,-0.86
564674,8520.0,2632.0,5016.0,890.0,-1209.0,617.0,0.096,-0.485,-0.166,-0.853
564696,8336.0,2862.0,5064.0,857.0,-1166.0,541.0,0.103,-0.495,-0.171,-0.846
564718,8382.0,2882.0,5126.0,722.0,-1108.0,482.0,0.109,-0.503,-0.176,-0.839
564730,8110.0,2598.0,5090.0,676.0,-1035.0,492.0,0.114,-0.511,-0.18,-0.833
564752,8030.0,2468.0,5240.0,700.0,-999.0,455.0,0.12,-0.519,-0.185,-0.826
564764,7878.0,2476.0,5168.0,672.0,-951.0,423.0,0.125,-0.526,-0.189,-0.82
564786,7308.0,2486.0,5598.0,591.0,-964.0,467.0,0.13,-0.534,-0.192,-0.813
564798,7214.0,3046.0,6252.0,268.0,-1034.0,475.0,0.133,-0.542,-0.193,-0.807
564820,7702.0,3374.0,6966.0,-319.0,-1167.0,450.0,0.133,-0.552,-0.19,-0.801
564832,8006.0,2954.0,7748.0,-940.0,-1179.0,472.0,0.13,-0.563,-0.182,-0.796
564854,8344.0,1802.0,8066.0,-1221.0,-1088.0,489.0,0.125,-0.573,-0.172,-0.792
564866,8964.0,-144.0,8164.0,-927.0,-788.0,473.0,0.123,-0.58,-0.164,-0.788
564888,9010.0,-3166.0,5816.0,-74.0,-268.0,628.0,0.127,-0.583,-0.16,-0.786
564910,8568.0,-3222.0,2826.0,1163.0,275.0,851.0,0.14,-0.581,-0.164,-0.785
564922,7944.0,948.0,1870.0,1767.0,496.0,874.0,0.156,-0.577,-0.172,-0.783
564944,7436.0,3940.0,3160.0,1398.0,496.0,935.0,0.171,-0.572,-0.177,-0.783
564956,6802.0,5058.0,3750.0,517.0,365.0,980.0,0.182,-0.57,-0.175,-0.782
564978,6818.0,4040.0,2720.0,-371.0,109.0,704.0,0.185,-0.571,-0.169,-0.782
564990,7428.0,2246.0,1590.0,-885.0,-68.0,239.0,0.181,-0.573,-0.162,-0.783
565012,7832.0,666.0,1020.0,-850.0,-43.0,-16.0,0.177,-0.575,-0.156,-0.784
565024,7552.0,1020.0,606.0,-384.0,129.0,-83.0,0.174,-0.575,-0.154,-0.785
565046,7100.0,1508.0,380.0,-61.0,173.0,-56.0,0.174,-0.573,-0.153,-0.786
565068,6794.0,1792.0,440.0,32.0,114.0,-39.0,0.174,-0.572,-0.154,-0.786
565080,6776.0,1964.0,1078.0,-223.0,-98.0,-46.0,0.173,-0.573,-0.152,-0.786
565102,7102.0,1842.0,1856.0,-505.0,-264.0,-48.0,0.169,-0.576,-0.15,-0.785
565114,7276.0,1624.0,1936.0,-670.0,-385.0,73.0,0.166,-0.58,-0.146,-0.784
565136,7496.0,1000.0,2010.0,-704.0,-435.0,164.0,0.163,-0.584,-0.141,-0.782
565148,7752.0,1174.0,2234.0,-697.0,-463.0,164.0,0.159,-0.589,-0.136,-0.781
565170,7946.0,1128.0,2664.0,-697.0,-442.0,124.0,0.156,-0.593,-0.131,-0.779
565182,7854.0,472.0,2720.0,-683.0,-406.0,83.0,0.152,-0.597,-0.126,-0.777
565204,8018.0,558.0,2976.0,-631.0,-358.0,-43.0,0.148,-0.6,-0.122,-0.776
565216,8460.0,538.0,3344.0,-661.0,-306.0,-113.0,0.144,-0.603,-0.119,-0.775
565238,8348.0,192.0,3886.0,-680.0,-196.0,-106.0,0.139,-0.605,-0.115,-0.775
565260,8188.0,36.0,4308.0,-752.0,-123.0,-144.0,0.134,-0.607,-0.11,-0.775
565272,8238.0,-282.0,5200.0,-864.0,-32.0,-197.0,0.128,-0.608,-0.106,-0.776
565294,8752.0,-2536.0,5876.0,-659.0,171.0,-230.0,0.122,-0.607,-0.102,-0.778
565306,8272.0,-2918.0,4990.0,36.0,570.0,-193.0,0.122,-0.603,-0.103,-0.782
565328,7908.0,-640.0,5278.0,339.0,725.0,-145.0,0.124,-0.597,-0.105,-0.785
565340,8936.0,1026.0,6306.0,44.0,752.0,-110.0,0.124,-0.591,-0.106,-0.79
565362,9280.0,342.0,6408.0,-271.0,927.0,6.0,0.124,-0.585,-0.103,-0.795
565374,9386.0,136.0,5736.0,-397.0,1028.0,36.0,0.123,-0.578,-0.099,-0.801
565396,9056.0,1240.0,5608.0,-571.0,1039.0,-65.0,0.121,-0.571,-0.094,-0.807
565418,9494.0,2010.0,6180.0,-1010.0,976.0,-75.0,0.116,-0.564,-0.086,-0.813
565430,9418.0,958.0,5802.0,-1232.0,1126.0,-2.0,0.111,-0.557,-0.075,-0.82
565452,9322.0,-296.0,5232.0,-1041.0,1347.0,-58.0,0.107,-0.547,-0.067,-0.827
565464,9260.0,-840.0,4980.0,-552.0,1574.0,-198.0,0.104,-0.536,-0.062,-0.836
565486,9188.0,102.0,4388.0,-290.0,1742.0,-245.0,0.102,-0.522,-0.06,-0.845
565498,9176.0,1068.0,4602.0,-448.0,1798.0,-228.0,0.099,-0.508,-0.056,-0.854
565520,9162.0,590.0,4966.0,-623.0,1878.0,-195.0,0.096,-0.494,-0.05,-0.863
565532,9062.0,390.0,5232.0,-572.0,1985.0,-179.0,0.093,-0.478,-0.045,-0.872
565554,8774.0,234.0,5290.0,-411.0,2073.0,-206.0,0.091,-0.461,-0.041,-0.882
565576,8646.0,624.0,5360.0,-375.0,2091.0,-206.0,0.089,-0.444,-0.037,-0.891
565588,8106.0,148.0,5130.0,-249.0,2126.0,-417.0,0.086,-0.426,-0.035,-0.9
565610,8490.0,1336.0,5514.0,-319.0,2128.0,-376.0,0.082,-0.409,-0.032,-0.908
565622,8310.0,938.0,5510.0,-725.0,1983.0,1.0,0.08,-0.392,-0.025,-0.916
565644,7882.0,-72.0,5294.0,-804.0,1910.0,-118.0,0.077,-0.376,-0.017,-0.923
565656,7646.0,-740.0,5372.0,-621.0,1879.0,-127.0,0.074,-0.361,-0.011,-0.93
565678,7514.0,-748.0,5174.0,-460.0,1872.0,-79.0,0.073,-0.345,-0.006,-0.936
565690,7654.0,48.0,5280.0,-436.0,1866.0,100.0,0.072,-0.329,-0.001,-0.942
565712,7526.0,482.0,5494.0,-508.0,1815.0,155.0,0.072,-0.313,0.005,-0.947
565734,7270.0,668.0,5264.0,-578.0,1767.0,177.0,0.072,-0.298,0.012,-0.952
565746,6832.0,-224.0,5708.0,-516.0,1733.0,152.0,0.072,-0.284,0.018,-0.956
565768,6864.0,-818.0,6000.0,-274.0,1723.0,120.0,0.072,-0.269,0.022,-0.96
565780,6522.0,-292.0,5586.0,-56.0,1784.0,80.0,0.073,-0.253,0.023,-0.964
565802,6148.0,106.0,6104.0,-35.0,1756.0,52.0,0.073,-0.238,0.025,-0.968
565814,5598.0,-76.0,6366.0,-121.0,1720.0,29.0,0.072,-0.223,0.027,-0.972
565836,5288.0,290.0,6458.0,-188.0,1707.0,-48.0,0.071,-0.208,0.029,-0.975
565848,4884.0,30.0,6866.0,-346.0,1661.0,-142.0,0.069,-0.194,0.033,-0.978
565870,4646.0,160.0,7320.0,-372.0,1679.0,-235.0,0.065,-0.179,0.037,-0.981
565882,4468.0,36.0,7384.0,-507.0,1675.0,-323.0,0.061,-0.165,0.042,-0.984
565904,4258.0,-1014.0,7264.0,-649.0,1618.0,-366.0,0.056,-0.151,0.048,-0.986
565926,3936.0,-1990.0,7404.0,-547.0,1619.0,-368.0,0.051,-0.137,0.054,-0.988
565938,4116.0,-1486.0,8050.0,-275.0,1665.0,-338.0,0.047,-0.122,0.056,-0.99
565960,4158.0,-1052.0,7556.0,-116.0,1720.0,-251.0,0.044,-0.106,0.058,-0.992
565972,3794.0,-1130.0,7082.0,34.0,1735.0,-162.0,0.041,-0.091,0.058,-0.993
565994,3222.0,-908.0,7042.0,120.0,1730.0,-195.0,0.038,-0.076,0.058,-0.995
566006,2874.0,-1242.0,7196.0,139.0,1704.0,-217.0,0.035,-0.06,0.057,-0.996
566028,2572.0,-1258.0,7312.0,198.0,1685.0,-193.0,0.033,-0.045,0.056,-0.997
566040,2224.0,-1794.0,7092.0,334.0,1686.0,-193.0,0.03,-0.03,0.053,-0.998
566062,1772.0,-942.0,6660.0,436.0,1676.0,-111.0,0.028,-0.014,0.049,-0.998
566084,1548.0,-402.0,7160.0,274.0,1553.0,-162.0,0.026,0.0,0.047,-0.999
566096,1404.0,-680.0,7904.0,66.0,1425.0,-175.0,0.023,0.013,0.047,-0.999
566118,1156.0,-1398.0,7752.0,-15.0,1361.0,-94.0,0.022,0.025,0.048,-0.998
566130,848.0,-2088.0,7660.0,122.0,1378.0,-18.0,0.021,0.038,0.047,-0.998
566152,616.0,-2036.0,6896.0,286.0,1422.0,8.0,0.02,0.051,0.045,-0.997
