timeMs,ax,ay,az,gx,gy,gz,q0,q1,q2,q3
1052113,6686.0,4573.0,1771.0,19.0,135.0,-23.0,0.072,-0.447,-0.373,-0.81
1052135,6754.0,4407.0,1655.0,52.0,96.0,-33.0,0.073,-0.446,-0.374,-0.81
1052147,6932.0,4209.0,1597.0,158.0,100.0,-73.0,0.073,-0.445,-0.376,-0.81
1052169,6992.0,4053.0,1727.0,370.0,175.0,-96.0,0.075,-0.443,-0.379,-0.809
1052181,7398.0,3019.0,1819.0,892.0,371.0,-132.0,0.08,-0.44,-0.386,-0.807
1052203,7410.0,3307.0,1885.0,1788.0,820.0,-216.0,0.089,-0.431,-0.4,-0.804
1052225,6148.0,6751.0,1029.0,2104.0,1080.0,-186.0,0.1,-0.421,-0.415,-0.8
1052237,5758.0,8347.0,1271.0,1363.0,772.0,-12.0,0.109,-0.414,-0.425,-0.798
1052259,6518.0,5101.0,1777.0,784.0,518.0,-36.0,0.114,-0.409,-0.431,-0.797
1052271,6612.0,4257.0,2367.0,860.0,568.0,-278.0,0.118,-0.403,-0.438,-0.795
1052293,6150.0,5495.0,2335.0,910.0,608.0,-364.0,0.121,-0.395,-0.445,-0.794
1052305,5696.0,7173.0,1983.0,670.0,473.0,-356.0,0.123,-0.39,-0.451,-0.793
1052327,5772.0,6665.0,2077.0,419.0,239.0,-364.0,0.123,-0.386,-0.455,-0.793
1052339,5950.0,6255.0,2237.0,365.0,321.0,-461.0,0.123,-0.381,-0.46,-0.793
1052361,6044.0,6177.0,1979.0,443.0,431.0,-551.0,0.122,-0.375,-0.465,-0.793
1052383,5982.0,6331.0,2087.0,409.0,450.0,-533.0,0.122,-0.368,-0.469,-0.793
1052395,6008.0,6179.0,2377.0,401.0,486.0,-560.0,0.122,-0.362,-0.474,-0.794
1052417,5798.0,6437.0,2471.0,392.0,539.0,-673.0,0.121,-0.354,-0.479,-0.794
1052429,5588.0,6851.0,2479.0,359.0,578.0,-784.0,0.119,-0.346,-0.483,-0.795
1052451,5324.0,7579.0,2329.0,217.0,556.0,-902.0,0.116,-0.337,-0.487,-0.797
1052463,5374.0,6411.0,2665.0,106.0,538.0,-933.0,0.112,-0.329,-0.491,-0.799
1052485,5210.0,6799.0,2789.0,57.0,527.0,-1054.0,0.107,-0.32,-0.494,-0.802
1052497,5126.0,6487.0,2831.0,92.0,563.0,-1099.0,0.102,-0.31,-0.497,-0.804
1052519,4724.0,7607.0,2545.0,112.0,597.0,-1163.0,0.096,-0.3,-0.501,-0.806
1052541,4598.0,7701.0,2433.0,1.0,534.0,-1168.0,0.091,-0.29,-0.504,-0.808
1052553,4448.0,7529.0,2551.0,-25.0,496.0,-1190.0,0.084,-0.281,-0.507,-0.811
1052575,4442.0,7409.0,2795.0,-73.0,432.0,-1224.0,0.077,-0.272,-0.509,-0.813
1052587,4306.0,7381.0,2881.0,-176.0,375.0,-1257.0,0.069,-0.263,-0.511,-0.816
1052609,3998.0,7607.0,2947.0,-232.0,316.0,-1265.0,0.061,-0.254,-0.512,-0.818
1052621,3746.0,8101.0,2707.0,-340.0,208.0,-1330.0,0.051,-0.246,-0.512,-0.821
1052643,3644.0,8057.0,2569.0,-394.0,135.0,-1368.0,0.041,-0.239,-0.513,-0.824
1052655,3318.0,8299.0,2551.0,-458.0,46.0,-1402.0,0.03,-0.232,-0.512,-0.826
1052677,3100.0,8229.0,2887.0,-599.0,-67.0,-1419.0,0.017,-0.226,-0.511,-0.829
1052689,3290.0,8405.0,3099.0,-780.0,-214.0,-1479.0,0.004,-0.22,-0.508,-0.833
1052711,3212.0,7457.0,3031.0,-790.0,-234.0,-1466.0,0.01,0.215,0.505,0.836
1052733,2902.0,8063.0,2383.0,-833.0,-260.0,-1533.0,0.024,0.21,0.502,0.839
1052745,2826.0,8933.0,1945.0,-986.0,-345.0,-1546.0,0.04,0.205,0.497,0.842
1052767,2784.0,8837.0,2117.0,-1095.0,-414.0,-1492.0,0.055,0.2,0.491,0.846
1052779,2780.0,8247.0,2925.0,-1124.0,-477.0,-1503.0,0.071,0.197,0.485,0.849
1052801,2662.0,8805.0,3039.0,-1176.0,-471.0,-1598.0,0.087,0.192,0.478,0.853
1052813,2666.0,9241.0,2241.0,-1436.0,-571.0,-1564.0,0.105,0.189,0.469,0.856
1052830,2554.0,7351.0,2101.0,-1512.0,-591.0,-1470.0,0.122,0.186,0.459,0.86
1052852,2488.0,7235.0,2825.0,-1223.0,-493.0,-1653.0,0.139,0.181,0.452,0.862
1052864,1942.0,8163.0,2445.0,-1040.0,-475.0,-1714.0,0.156,0.177,0.446,0.863
1052887,1764.0,8099.0,2947.0,-896.0,-451.0,-1676.0,0.173,0.172,0.441,0.864
1052899,1896.0,7105.0,3731.0,-1135.0,-514.0,-1720.0,0.191,0.168,0.434,0.864
1052922,1636.0,6609.0,3251.0,-1197.0,-478.0,-1656.0,0.207,0.163,0.426,0.865
1052944,1578.0,7033.0,2349.0,-1205.0,-528.0,-1701.0,0.225,0.159,0.418,0.866
1052956,1852.0,5593.0,1497.0,-1213.0,-662.0,-1738.0,0.243,0.155,0.41,0.865
1052978,1360.0,5467.0,1641.0,-781.0,-490.0,-1708.0,0.26,0.15,0.405,0.864
1052990,1030.0,6461.0,2255.0,-683.0,-564.0,-1710.0,0.276,0.147,0.4,0.861
1053012,1140.0,5605.0,3079.0,-759.0,-634.0,-1502.0,0.292,0.144,0.395,0.859
1053024,746.0,5183.0,3355.0,-786.0,-737.0,-1422.0,0.307,0.143,0.388,0.857
1053046,480.0,5019.0,4905.0,-522.0,-633.0,-1425.0,0.322,0.142,0.384,0.854
1053058,1336.0,5365.0,4451.0,-454.0,-731.0,-1392.0,0.336,0.141,0.38,0.85
1053080,1440.0,3803.0,3883.0,-493.0,-630.0,-1192.0,0.348,0.141,0.375,0.847
1053092,962.0,3501.0,2335.0,-641.0,-577.0,-1130.0,0.36,0.139,0.37,0.845
1053114,1116.0,2951.0,2803.0,-555.0,-802.0,-670.0,0.369,0.141,0.364,0.843
1053136,3320.0,1977.0,3675.0,79.0,-780.0,294.0,0.37,0.149,0.361,0.843
1053148,-2226.0,12969.0,4137.0,-1132.0,-33.0,-343.0,0.374,0.144,0.352,0.845
1053170,1504.0,1599.0,3841.0,-601.0,-1021.0,-614.0,0.384,0.148,0.345,0.844
1053182,1076.0,3037.0,4747.0,-306.0,-1127.0,-657.0,0.393,0.154,0.339,0.841
1053204,2032.0,3757.0,5013.0,6.0,-1324.0,-425.0,0.401,0.164,0.335,0.837
1053216,1968.0,5025.0,5047.0,262.0,-1276.0,-146.0,0.406,0.175,0.332,0.833
1053238,178.0,3829.0,4745.0,179.0,-1195.0,1078.0,0.401,0.188,0.327,0.835
1053250,1778.0,4391.0,5589.0,-200.0,-1309.0,-23.0,0.406,0.198,0.321,0.833
1053272,3048.0,5037.0,6441.0,-241.0,-1329.0,-195.0,0.412,0.207,0.314,0.83
1053294,3386.0,5159.0,7597.0,-215.0,-1190.0,-54.0,0.416,0.215,0.307,0.828
1053306,3330.0,4889.0,7039.0,-183.0,-1081.0,-132.0,0.421,0.223,0.302,0.826
1053328,3182.0,5299.0,6817.0,-325.0,-990.0,-75.0,0.425,0.229,0.296,0.824
1053340,4074.0,5759.0,8445.0,-427.0,-860.0,-211.0,0.43,0.234,0.289,0.823
1053362,4184.0,5381.0,9319.0,-582.0,-631.0,-271.0,0.435,0.235,0.283,0.822
1053374,4048.0,4925.0,9747.0,-510.0,-284.0,-138.0,0.439,0.235,0.278,0.822
1053396,3866.0,5531.0,9547.0,-440.0,-53.0,-146.0,0.441,0.234,0.275,0.822
1053408,3528.0,5493.0,8803.0,-556.0,197.0,-86.0,0.442,0.23,0.271,0.823
1053430,2520.0,4843.0,7393.0,-655.0,313.0,-136.0,0.444,0.225,0.268,0.825
1053452,2400.0,4689.0,6191.0,-509.0,325.0,-154.0,0.446,0.22,0.265,0.826
1053464,2190.0,5297.0,5377.0,-403.0,319.0,-165.0,0.447,0.216,0.264,0.827
1053486,2484.0,5815.0,5383.0,-416.0,269.0,-121.0,0.449,0.212,0.262,0.828
1053498,2494.0,5763.0,5633.0,-405.0,344.0,-49.0,0.449,0.208,0.26,0.829
1053520,2660.0,6163.0,6771.0,-364.0,503.0,-38.0,0.449,0.203,0.259,0.831
1053532,3006.0,5369.0,7639.0,-475.0,734.0,184.0,0.447,0.196,0.258,0.834
1053554,2224.0,4097.0,7945.0,-376.0,940.0,448.0,0.442,0.188,0.258,0.838
1053566,2062.0,3775.0,7825.0,-152.0,1039.0,424.0,0.437,0.181,0.26,0.842
1053588,2368.0,3875.0,7933.0,-127.0,1109.0,373.0,0.432,0.173,0.263,0.845
1053600,2952.0,5453.0,8243.0,-168.0,1328.0,329.0,0.426,0.162,0.266,0.849
1053622,2446.0,5033.0,8273.0,-409.0,1422.0,456.0,0.42,0.151,0.268,0.854
1053644,2520.0,4463.0,8787.0,-337.0,1601.0,503.0,0.413,0.138,0.271,0.859
1053656,2474.0,4769.0,8549.0,-323.0,1852.0,488.0,0.405,0.123,0.274,0.863
1053678,2072.0,4849.0,8223.0,-505.0,2082.0,716.0,0.395,0.107,0.277,0.87
1053690,1130.0,5329.0,7757.0,-862.0,2161.0,968.0,0.382,0.089,0.277,0.877
1053712,1250.0,5513.0,7039.0,-1383.0,2257.0,1484.0,0.366,0.069,0.272,0.887
1053724,594.0,5413.0,6891.0,-2065.0,2344.0,1967.0,0.345,0.048,0.262,0.9
1053746,70.0,4197.0,6433.0,-2605.0,2218.0,2330.0,0.321,0.028,0.246,0.914
1053758,-268.0,2477.0,6091.0,-2674.0,2079.0,2572.0,0.295,0.008,0.229,0.928
1053780,-434.0,1763.0,5475.0,-2404.0,1987.0,2694.0,0.268,-0.01,0.213,0.94
1053802,-624.0,2293.0,5783.0,-2086.0,1965.0,2732.0,0.24,-0.027,0.2,0.95
1053814,-872.0,2479.0,5905.0,-2005.0,1889.0,2842.0,0.211,-0.043,0.187,0.958
1053836,-1052.0,2449.0,6221.0,-2077.0,1700.0,3013.0,0.181,-0.056,0.173,0.967
1053848,-1006.0,2341.0,6851.0,-1963.0,1611.0,3108.0,0.15,-0.069,0.159,0.973
1053870,-1396.0,2727.0,7189.0,-1869.0,1495.0,3113.0,0.118,-0.08,0.147,0.979
1053882,-1500.0,3317.0,7187.0,-1703.0,1309.0,3101.0,0.087,-0.09,0.135,0.983
1053904,-1588.0,3169.0,6053.0,-1488.0,1200.0,3095.0,0.057,-0.098,0.125,0.986
1053916,-1780.0,2955.0,5187.0,-1308.0,1007.0,2995.0,0.027,-0.104,0.116,0.987
1053938,-1494.0,3233.0,4943.0,-1151.0,765.0,2766.0,0.001,-0.108,0.109,0.988
1053950,-1546.0,3455.0,5395.0,-1022.0,514.0,2463.0,0.024,0.11,-0.102,-0.988
1053972,-1738.0,3677.0,5953.0,-853.0,278.0,2176.0,0.044,0.11,-0.096,-0.988
1053994,-1900.0,3985.0,5865.0,-676.0,98.0,1902.0,0.062,0.109,-0.092,-0.988
1054006,-2032.0,2895.0,5515.0,-573.0,-121.0,1704.0,0.078,0.106,-0.088,-0.987
1054028,-1656.0,2653.0,6795.0,-433.0,-228.0,1522.0,0.092,0.103,-0.086,-0.987
1054040,-874.0,3497.0,7635.0,-309.0,-277.0,1382.0,0.104,0.098,-0.086,-0.986
1054062,-748.0,4219.0,7541.0,-238.0,-323.0,1159.0,0.114,0.094,-0.085,-0.985
1054074,-1224.0,4701.0,7211.0,-157.0,-186.0,1182.0,0.125,0.091,-0.086,-0.984
1054096,118.0,1805.0,6963.0,-306.0,-399.0,1074.0,0.134,0.086,-0.085,-0.984
1054108,-556.0,3499.0,8439.0,-110.0,-211.0,1212.0,0.145,0.083,-0.085,-0.982
1054130,454.0,4333.0,8605.0,-218.0,-148.0,1085.0,0.155,0.081,-0.084,-0.981
1054152,152.0,3609.0,8569.0,-343.0,-98.0,607.0,0.16,0.079,-0.082,-0.981
1054164,260.0,2959.0,7965.0,-309.0,-41.0,352.0,0.163,0.077,-0.079,-0.98
1054186,-214.0,2343.0,7717.0,-357.0,-26.0,91.0,0.164,0.076,-0.077,-0.98
1054198,-136.0,2101.0,7937.0,-274.0,32.0,88.0,0.165,0.076,-0.074,-0.98
1054220,-40.0,2167.0,7725.0,-134.0,77.0,111.0,0.167,0.076,-0.073,-0.98
1054232,-166.0,1687.0,7467.0,-6.0,49.0,115.0,0.168,0.076,-0.073,-0.98
1054254,-358.0,1331.0,7485.0,107.0,34.0,95.0,0.169,0.076,-0.075,-0.98
1054266,-186.0,1987.0,7561.0,173.0,22.0,89.0,0.169,0.076,-0.076,-0.98
1054288,-56.0,1695.0,7507.0,159.0,-22.0,112.0,0.17,0.076,-0.078,-0.979
1054310,224.0,1437.0,7421.0,229.0,-5.0,22.0,0.17,0.076,-0.08,-0.979
1054322,-18.0,1189.0,7611.0,295.0,61.0,-85.0,0.169,0.077,-0.083,-0.979
1054344,-122.0,1341.0,7905.0,354.0,110.0,-79.0,0.168,0.078,-0.086,-0.979
1054356,-322.0,1681.0,7709.0,385.0,138.0,-18.0,0.168,0.08,-0.089,-0.979
1054378,-336.0,1625.0,7735.0,375.0,135.0,-9.0,0.168,0.081,-0.092,-0.978
1054390,-562.0,1355.0,8027.0,351.0,148.0,-41.0,0.167,0.083,-0.095,-0.978
1054412,-746.0,1777.0,7931.0,285.0,135.0,-120.0,0.166,0.085,-0.098,-0.978
1054424,-452.0,2811.0,8391.0,156.0,153.0,-155.0,0.164,0.086,-0.099,-0.978
1054446,-1272.0,2515.0,8765.0,59.0,48.0,-192.0,0.162,0.087,-0.099,-0.978
1054458,-1408.0,2585.0,8151.0,347.0,296.0,-276.0,0.16,0.09,-0.102,-0.978
1054480,-1692.0,1925.0,7493.0,187.0,147.0,-311.0,0.157,0.092,-0.103,-0.978
1054502,-1902.0,1995.0,6875.0,48.0,76.0,18.0,0.157,0.093,-0.104,-0.978
1054514,-1968.0,1763.0,7119.0,-24.0,-66.0,-145.0,0.155,0.093,-0.104,-0.978
1054536,-1030.0,2211.0,7785.0,140.0,-67.0,109.0,0.156,0.092,-0.105,-0.978
1054548,-1256.0,2327.0,8897.0,253.0,-6.0,151.0,0.157,0.092,-0.108,-0.977
1054570,-1294.0,2739.0,9159.0,317.0,72.0,-35.0,0.156,0.093,-0.11,-0.977
1054582,-1628.0,2647.0,8513.0,249.0,87.0,-150.0,0.154,0.094,-0.113,-0.977
1054604,-1706.0,2261.0,8025.0,165.0,123.0,-206.0,0.152,0.096,-0.114,-0.977
1054616,-1842.0,1963.0,7945.0,109.0,138.0,-234.0,0.149,0.098,-0.114,-0.977
1054638,-1758.0,2033.0,7925.0,48.0,104.0,-345.0,0.146,0.099,-0.114,-0.978
1054660,-1694.0,2363.0,7679.0,29.0,82.0,-331.0,0.143,0.1,-0.114,-0.978
1054672,-1670.0,2177.0,7433.0,23.0,49.0,-239.0,0.14,0.101,-0.114,-0.978
1054694,-1588.0,2357.0,7479.0,82.0,34.0,-222.0,0.138,0.102,-0.115,-0.979
1054706,-1522.0,2297.0,7569.0,70.0,7.0,-253.0,0.135,0.102,-0.116,-0.979
1054728,-1228.0,2215.0,8079.0,104.0,10.0,-298.0,0.132,0.102,-0.116,-0.979
1054740,-962.0,2455.0,8311.0,173.0,68.0,-331.0,0.128,0.103,-0.118,-0.979
1054762,-1006.0,2455.0,8313.0,202.0,135.0,-314.0,0.125,0.105,-0.119,-0.979
1054774,-1030.0,2333.0,8151.0,215.0,168.0,-297.0,0.122,0.107,-0.121,-0.979
1054796,-890.0,2207.0,8201.0,233.0,226.0,-255.0,0.119,0.109,-0.122,-0.979
1054818,-1052.0,2407.0,8013.0,186.0,192.0,-186.0,0.117,0.111,-0.124,-0.979
1054835,-954.0,2327.0,7911.0,101.0,185.0,-107.0,0.115,0.113,-0.125,-0.979
1054847,-1148.0,2327.0,7825.0,60.0,143.0,-73.0,0.114,0.114,-0.125,-0.979
1054869,-830.0,2277.0,7729.0,22.0,222.0,-94.0,0.113,0.116,-0.125,-0.979
1054881,-1148.0,2413.0,7991.0,8.0,110.0,-141.0,0.112,0.117,-0.125,-0.979
1054903,-1572.0,2249.0,7663.0,14.0,149.0,-176.0,0.109,0.118,-0.125,-0.979
1054915,-144.0,1623.0,8255.0,165.0,243.0,176.0,0.111,0.12,-0.126,-0.979
1054937,-2374.0,3127.0,8117.0,-170.0,-3.0,-783.0,0.103,0.12,-0.124,-0.98
1054949,-324.0,1959.0,7885.0,106.0,190.0,190.0,0.104,0.121,-0.125,-0.979
1054971,-1696.0,2097.0,7945.0,275.0,135.0,154.0,0.105,0.122,-0.128,-0.979
1054993,-1678.0,2915.0,7977.0,283.0,159.0,-80.0,0.104,0.124,-0.13,-0.978
1055005,-1406.0,2515.0,7901.0,177.0,125.0,-179.0,0.102,0.125,-0.132,-0.978
1055027,-1574.0,2405.0,7757.0,128.0,132.0,-136.0,0.1,0.127,-0.133,-0.978
1055039,-1584.0,2311.0,7661.0,113.0,181.0,-10.0,0.099,0.128,-0.134,-0.978
1055061,-1762.0,2537.0,7663.0,122.0,189.0,-86.0,0.098,0.13,-0.135,-0.977
1055073,-1812.0,2635.0,7487.0,154.0,224.0,-112.0,0.097,0.132,-0.136,-0.977
1055095,-1744.0,2219.0,7591.0,177.0,182.0,-95.0,0.095,0.134,-0.137,-0.977
1055107,-1902.0,2105.0,7335.0,216.0,196.0,-32.0,0.095,0.136,-0.139,-0.976
1055129,-1882.0,2607.0,7653.0,230.0,252.0,2.0,0.094,0.138,-0.141,-0.976
1055141,-1880.0,2775.0,7539.0,213.0,245.0,7.0,0.094,0.14,-0.143,-0.975
1055164,-1880.0,2717.0,7525.0,208.0,242.0,-13.0,0.093,0.143,-0.145,-0.975
1055176,-1968.0,2497.0,7513.0,241.0,251.0,-40.0,0.092,0.145,-0.147,-0.974
1055199,-1852.0,2613.0,7401.0,289.0,280.0,-77.0,0.091,0.148,-0.149,-0.973
1055221,-1954.0,2583.0,7275.0,330.0,298.0,-122.0,0.089,0.151,-0.152,-0.973
1055233,-2022.0,2593.0,7149.0,370.0,305.0,-127.0,0.088,0.154,-0.155,-0.972
1055255,-2098.0,2723.0,7277.0,420.0,293.0,-157.0,0.085,0.157,-0.158,-0.971
1055267,-2066.0,2891.0,7365.0,464.0,282.0,-192.0,0.083,0.16,-0.162,-0.97
1055289,-2150.0,2789.0,7491.0,491.0,266.0,-212.0,0.08,0.163,-0.166,-0.969
1055301,-2164.0,2797.0,7459.0,530.0,258.0,-257.0,0.077,0.165,-0.17,-0.968
1055323,-2184.0,2901.0,7393.0,484.0,240.0,-252.0,0.074,0.168,-0.174,-0.967
1055335,-2224.0,2707.0,7427.0,390.0,210.0,-260.0,0.07,0.17,-0.177,-0.967
1055357,-2272.0,2981.0,7233.0,301.0,195.0,-252.0,0.067,0.173,-0.18,-0.966
1055369,-2380.0,2861.0,7135.0,210.0,185.0,-252.0,0.065,0.175,-0.181,-0.966
1055391,-2468.0,3095.0,7111.0,136.0,162.0,-262.0,0.062,0.176,-0.182,-0.965
1055413,-2476.0,3049.0,7133.0,145.0,177.0,-278.0,0.059,0.178,-0.183,-0.965
1055425,-2524.0,3117.0,7087.0,135.0,171.0,-284.0,0.056,0.18,-0.184,-0.965
1055447,-2504.0,3077.0,6963.0,115.0,183.0,-294.0,0.053,0.182,-0.184,-0.964
1055459,-2714.0,3049.0,6953.0,84.0,179.0,-292.0,0.05,0.184,-0.185,-0.964
1055481,-2592.0,3175.0,7239.0,96.0,199.0,-253.0,0.047,0.186,-0.185,-0.964
1055493,-2654.0,3257.0,7007.0,64.0,167.0,-231.0,0.045,0.188,-0.185,-0.963
1055515,-2852.0,3657.0,6951.0,56.0,194.0,-266.0,0.042,0.19,-0.186,-0.963
1055527,-2654.0,3225.0,6809.0,33.0,168.0,-237.0,0.04,0.192,-0.186,-0.963
1055549,-2846.0,3121.0,6961.0,95.0,188.0,-165.0,0.038,0.193,-0.186,-0.963
1055571,-2538.0,3133.0,7411.0,113.0,217.0,-121.0,0.036,0.195,-0.187,-0.962
1055583,-2896.0,3101.0,6875.0,130.0,230.0,-156.0,0.035,0.198,-0.188,-0.961
1055605,-3068.0,3501.0,6763.0,78.0,199.0,-178.0,0.033,0.199,-0.189,-0.961
1055617,-2980.0,3189.0,6977.0,87.0,172.0,-122.0,0.031,0.201,-0.189,-0.961
1055639,-3066.0,3299.0,7001.0,50.0,125.0,-134.0,0.029,0.202,-0.19,-0.96
1055651,-3042.0,3305.0,7111.0,83.0,138.0,-61.0,0.028,0.203,-0.19,-0.96
1055673,-2932.0,3117.0,7081.0,100.0,127.0,3.0,0.028,0.204,-0.191,-0.96
1055685,-2972.0,3345.0,7079.0,149.0,142.0,43.0,0.028,0.205,-0.193,-0.959
1055707,-2924.0,3465.0,7189.0,154.0,147.0,-2.0,0.027,0.206,-0.195,-0.959
1055719,-2904.0,3487.0,7153.0,171.0,145.0,-30.0,0.026,0.207,-0.196,-0.958
1055741,-2802.0,3275.0,7159.0,191.0,140.0,-72.0,0.025,0.209,-0.198,-0.957
1055763,-2812.0,3335.0,7015.0,213.0,136.0,-90.0,0.023,0.21,-0.2,-0.957
1055775,-2774.0,3151.0,7049.0,238.0,131.0,-59.0,0.022,0.211,-0.202,-0.956
1055797,-2940.0,3269.0,6857.0,240.0,116.0,-50.0,0.021,0.212,-0.204,-0.956
1055809,-2986.0,3179.0,6731.0,191.0,95.0,2.0,0.02,0.212,-0.206,-0.955
1055831,-3064.0,3385.0,6715.0,148.0,61.0,24.0,0.019,0.212,-0.207,-0.955
1055843,-3146.0,3401.0,6633.0,67.0,27.0,45.0,0.019,0.212,-0.208,-0.955
1055865,-3156.0,3355.0,6595.0,45.0,-2.0,35.0,0.019,0.212,-0.209,-0.954
1055877,-3198.0,3347.0,6631.0,11.0,-16.0,40.0,0.018,0.212,-0.209,-0.954
1055899,-3290.0,3335.0,6581.0,-42.0,-39.0,38.0,0.018,0.211,-0.209,-0.955
1055921,-3278.0,3447.0,6745.0,-75.0,-51.0,58.0,0.018,0.21,-0.209,-0.955
1055933,-3288.0,3317.0,6713.0,-79.0,-48.0,75.0,0.018,0.21,-0.208,-0.955
1055955,-3272.0,3501.0,6795.0,-50.0,-37.0,95.0,0.019,0.209,-0.208,-0.955
1055967,-3280.0,3623.0,6755.0,-28.0,-31.0,82.0,0.019,0.208,-0.208,-0.955
1055989,-3174.0,3641.0,6737.0,-6.0,-21.0,56.0,0.019,0.208,-0.209,-0.955
1056001,-3010.0,3657.0,6703.0,-2.0,-31.0,38.0,0.018,0.207,-0.209,-0.956
1056023,-2984.0,3439.0,6773.0,16.0,-12.0,53.0,0.018,0.207,-0.209,-0.956
1056035,-2958.0,3425.0,6811.0,50.0,-11.0,63.0,0.018,0.206,-0.21,-0.955
1056057,-2910.0,3433.0,6887.0,65.0,-1.0,72.0,0.018,0.206,-0.211,-0.955
1056079,-2920.0,3365.0,6851.0,68.0,5.0,83.0,0.018,0.205,-0.212,-0.955
1056091,-2898.0,3445.0,6829.0,69.0,22.0,75.0,0.018,0.205,-0.213,-0.955
1056113,-2878.0,3411.0,6915.0,67.0,35.0,91.0,0.019,0.205,-0.214,-0.955
1056125,-2852.0,3541.0,6941.0,65.0,38.0,111.0,0.019,0.205,-0.215,-0.955
1056147,-2794.0,3659.0,6965.0,79.0,44.0,95.0,0.019,0.205,-0.216,-0.955
1056159,-2838.0,3625.0,6935.0,117.0,54.0,57.0,0.019,0.205,-0.217,-0.954
1056181,-2858.0,3553.0,7019.0,164.0,74.0,29.0,0.019,0.205,-0.219,-0.954
1056193,-2792.0,3577.0,7257.0,251.0,99.0,6.0,0.018,0.206,-0.221,-0.953
1056215,-2670.0,3649.0,7401.0,414.0,167.0,-23.0,0.017,0.207,-0.225,-0.952
1056227,-2666.0,4009.0,7613.0,620.0,268.0,-38.0,0.015,0.209,-0.23,-0.95
1056249,-2826.0,4385.0,7423.0,762.0,359.0,-114.0,0.013,0.213,-0.237,-0.948
1056271,-3054.0,4393.0,7227.0,840.0,427.0,-138.0,0.01,0.216,-0.244,-0.945
1056283,-3118.0,4565.0,7201.0,919.0,490.0,-207.0,0.007,0.221,-0.252,-0.942
1056305,-3278.0,4249.0,6973.0,970.0,482.0,-247.0,0.004,0.226,-0.26,-0.939
1056317,-3522.0,4083.0,6639.0,977.0,425.0,-243.0,0.0,0.23,-0.268,-0.936
1056339,-3470.0,3991.0,6109.0,960.0,338.0,-248.0,0.003,-0.233,0.276,0.932
1056351,-3526.0,3895.0,5593.0,833.0,344.0,-208.0,0.007,-0.236,0.283,0.93
1056373,-3696.0,3997.0,5333.0,597.0,375.0,-94.0,0.008,-0.24,0.288,0.927
1056385,-3994.0,4317.0,5237.0,277.0,325.0,-11.0,0.009,-0.242,0.291,0.926
1056407,-4034.0,4135.0,5297.0,-114.0,277.0,95.0,0.007,-0.244,0.29,0.925
1056429,-4334.0,4279.0,5167.0,-396.0,261.0,213.0,0.004,-0.246,0.287,0.926
1056441,-4542.0,4127.0,5895.0,-509.0,239.0,244.0,0.001,-0.248,0.284,0.926
1056463,-4416.0,4063.0,5941.0,-463.0,241.0,190.0,0.002,0.249,-0.28,-0.927
1056475,-4388.0,3743.0,6175.0,-349.0,278.0,171.0,0.005,0.251,-0.277,-0.927
1056497,-4284.0,3819.0,6105.0,-252.0,334.0,156.0,0.007,0.253,-0.276,-0.927
1056509,-4362.0,3857.0,5929.0,-274.0,357.0,197.0,0.01,0.256,-0.274,-0.927
1056531,-4366.0,4235.0,5935.0,-374.0,366.0,237.0,0.013,0.258,-0.271,-0.927
1056543,-4334.0,4263.0,6331.0,-510.0,381.0,276.0,0.018,0.261,-0.267,-0.928
1056565,-4148.0,4625.0,6195.0,-521.0,406.0,267.0,0.022,0.263,-0.264,-0.928
1056587,-4268.0,3655.0,6119.0,-621.0,394.0,252.0,0.026,0.266,-0.259,-0.928
1056599,-4432.0,3735.0,5859.0,-535.0,440.0,190.0,0.03,0.269,-0.255,-0.928
1056621,-4126.0,3913.0,5883.0,-491.0,427.0,150.0,0.033,0.272,-0.251,-0.928
1056633,-4162.0,3659.0,5477.0,-477.0,377.0,185.0,0.037,0.275,-0.247,-0.929
1056655,-4144.0,3519.0,5203.0,-444.0,321.0,173.0,0.04,0.277,-0.244,-0.929
1056667,-3930.0,3431.0,5425.0,-448.0,267.0,197.0,0.043,0.278,-0.24,-0.929
1056689,-3954.0,4935.0,5133.0,-357.0,223.0,214.0,0.047,0.28,-0.238,-0.929
1056701,-3790.0,3359.0,5473.0,-370.0,132.0,390.0,0.051,0.28,-0.236,-0.929
1056723,-3646.0,3043.0,5417.0,-286.0,74.0,316.0,0.055,0.279,-0.234,-0.93
1056745,-3548.0,3451.0,5613.0,-234.0,84.0,376.0,0.059,0.279,-0.233,-0.93
1056757,-3454.0,4115.0,5977.0,-223.0,77.0,416.0,0.063,0.279,-0.232,-0.93
1056779,-3442.0,4207.0,5905.0,-255.0,82.0,446.0,0.068,0.278,-0.231,-0.93
1056791,-3430.0,4115.0,6195.0,-282.0,84.0,364.0,0.073,0.278,-0.23,-0.93
1056813,-2420.0,3017.0,6613.0,-140.0,74.0,447.0,0.078,0.277,-0.229,-0.93
1056825,-3258.0,4067.0,6401.0,-173.0,90.0,-14.0,0.078,0.278,-0.228,-0.93
1056842,-2454.0,4461.0,5103.0,-170.0,261.0,896.0,0.088,0.278,-0.228,-0.929
1056864,-3332.0,2655.0,5181.0,35.0,18.0,617.0,0.093,0.277,-0.23,-0.928
1056876,-3308.0,4375.0,5235.0,-5.0,-51.0,368.0,0.097,0.276,-0.231,-0.928
1056898,-2898.0,5497.0,6545.0,-94.0,-23.0,433.0,0.101,0.274,-0.231,-0.928
1056910,-2722.0,5313.0,7175.0,-327.0,-18.0,348.0,0.106,0.273,-0.229,-0.928
1056932,-2668.0,4051.0,6571.0,-61.0,29.0,146.0,0.108,0.273,-0.229,-0.928
1056954,-2970.0,4127.0,6159.0,40.0,17.0,-10.0,0.109,0.273,-0.229,-0.928
1056966,-3380.0,3621.0,6193.0,-37.0,-27.0,-155.0,0.108,0.273,-0.228,-0.928
1056988,-3760.0,3839.0,6161.0,-98.0,-6.0,-97.0,0.108,0.273,-0.227,-0.929
1057000,-3864.0,3857.0,6087.0,-151.0,-5.0,-24.0,0.109,0.273,-0.225,-0.929
1057022,-3904.0,4007.0,6241.0,-150.0,-20.0,14.0,0.11,0.273,-0.224,-0.929
1057034,-3848.0,3963.0,6417.0,-74.0,-34.0,26.0,0.111,0.273,-0.223,-0.929
1057056,-3746.0,3919.0,6401.0,24.0,-23.0,35.0,0.112,0.272,-0.223,-0.929
1057068,-3568.0,4079.0,6283.0,68.0,4.0,93.0,0.113,0.272,-0.224,-0.929
1057090,-3708.0,3907.0,6193.0,107.0,0.0,61.0,0.114,0.272,-0.225,-0.929
1057112,-3548.0,4007.0,6009.0,113.0,3.0,65.0,0.115,0.273,-0.226,-0.928
1057124,-3596.0,4327.0,5885.0,31.0,-31.0,88.0,0.117,0.272,-0.226,-0.928
1057146,-3528.0,4159.0,5975.0,-48.0,-66.0,14.0,0.117,0.272,-0.226,-0.928
1057158,-3484.0,3987.0,6079.0,-54.0,-81.0,-67.0,0.117,0.271,-0.225,-0.928
1057180,-3516.0,3855.0,6309.0,-14.0,-85.0,-124.0,0.117,0.271,-0.225,-0.929
1057192,-3532.0,3711.0,6605.0,56.0,-74.0,-85.0,0.117,0.27,-0.225,-0.929
1057214,-3580.0,3893.0,6471.0,103.0,-98.0,-23.0,0.117,0.27,-0.226,-0.929
1057226,-3682.0,4003.0,6231.0,68.0,-86.0,11.0,0.117,0.269,-0.226,-0.929
1057248,-3684.0,4043.0,6227.0,-7.0,-72.0,46.0,0.118,0.268,-0.226,-0.929
1057270,-3506.0,3715.0,6187.0,81.0,23.0,70.0,0.119,0.269,-0.227,-0.929
1057282,-3646.0,4267.0,5933.0,50.0,-72.0,62.0,0.12,0.268,-0.227,-0.928
1057304,-3536.0,4109.0,5863.0,-48.0,-87.0,58.0,0.121,0.267,-0.227,-0.929
1057316,-3502.0,4033.0,6121.0,-48.0,-40.0,85.0,0.123,0.267,-0.227,-0.929
1057338,-3536.0,3991.0,6105.0,-66.0,-46.0,62.0,0.124,0.266,-0.226,-0.929
1057350,-3348.0,4005.0,6145.0,-46.0,-39.0,57.0,0.125,0.266,-0.226,-0.929
1057372,-3418.0,4139.0,6197.0,-62.0,-41.0,38.0,0.127,0.265,-0.225,-0.929
1057384,-3430.0,4057.0,6241.0,-44.0,-27.0,42.0,0.128,0.265,-0.225,-0.929
1057406,-3406.0,4031.0,6201.0,-56.0,-15.0,23.0,0.129,0.265,-0.224,-0.929
1057418,-3396.0,3985.0,6165.0,-68.0,-20.0,-7.0,0.13,0.265,-0.224,-0.929
1057440,-3384.0,3989.0,6221.0,-76.0,4.0,-18.0,0.13,0.265,-0.223,-0.929
1057462,-3390.0,3937.0,6295.0,-81.0,11.0,-16.0,0.131,0.265,-0.222,-0.929
1057474,-3456.0,4133.0,6275.0,-90.0,13.0,-17.0,0.132,0.265,-0.221,-0.929
1057496,-3492.0,3965.0,6271.0,-100.0,20.0,-8.0,0.133,0.265,-0.22,-0.929
1057508,-3439.0,3912.0,6359.0,-82.0,27.0,0.0,0.134,0.265,-0.219,-0.929
1057530,-3473.0,3906.0,6357.0,-65.0,28.0,13.0,0.135,0.266,-0.218,-0.929
1057542,-3571.0,3996.0,6339.0,-42.0,29.0,10.0,0.136,0.266,-0.218,-0.929
1057564,-3534.0,4032.0,6286.0,-43.0,9.0,18.0,0.137,0.266,-0.217,-0.929
1057586,-3532.0,4080.0,6280.0,-51.0,11.0,19.0,0.138,0.266,-0.217,-0.929
1057598,-3497.0,3812.0,6515.0,-70.0,15.0,37.0,0.14,0.266,-0.216,-0.929
1057620,-3477.0,3832.0,6597.0,4.0,48.0,65.0,0.141,0.266,-0.216,-0.929
1057632,-3383.0,3954.0,6293.0,-7.0,-5.0,71.0,0.142,0.266,-0.216,-0.929
1057654,-3378.0,4015.0,6080.0,-15.0,-40.0,54.0,0.143,0.266,-0.216,-0.929
1057666,-3358.0,4105.0,5898.0,-50.0,-110.0,42.0,0.144,0.265,-0.215,-0.929
1057688,-3250.0,4109.0,5798.0,-113.0,-162.0,2.0,0.145,0.263,-0.215,-0.929
1057700,-3218.0,4381.0,6064.0,-202.0,-223.0,-36.0,0.146,0.261,-0.213,-0.93
1057722,-3024.0,3763.0,6374.0,-310.0,-279.0,-89.0,0.146,0.259,-0.21,-0.931
1057734,-3048.0,3821.0,6556.0,-233.0,-272.0,-110.0,0.146,0.256,-0.208,-0.933
1057756,-3074.0,4111.0,6474.0,-211.0,-254.0,-158.0,0.145,0.254,-0.206,-0.934
1057778,-3088.0,3653.0,6250.0,-278.0,-259.0,-161.0,0.145,0.252,-0.204,-0.935
1057790,-3184.0,3531.0,6504.0,-157.0,-202.0,-117.0,0.144,0.25,-0.202,-0.936
1057812,-3488.0,3583.0,6488.0,-132.0,-196.0,-49.0,0.145,0.248,-0.201,-0.936
1057824,-3482.0,3537.0,6524.0,-119.0,-223.0,55.0,0.146,0.246,-0.2,-0.937
1057846,-3494.0,3749.0,6602.0,-75.0,-222.0,59.0,0.146,0.244,-0.2,-0.938
1057858,-3508.0,3651.0,6608.0,-64.0,-238.0,76.0,0.147,0.242,-0.2,-0.938
1057880,-3224.0,3431.0,6662.0,-5.0,-234.0,75.0,0.148,0.24,-0.2,-0.938
1057892,-3226.0,3673.0,6800.0,12.0,-225.0,57.0,0.149,0.238,-0.2,-0.939
1057914,-3056.0,3821.0,6936.0,-3.0,-225.0,109.0,0.15,0.236,-0.201,-0.939
1057926,-3012.0,3803.0,6606.0,4.0,-266.0,144.0,0.151,0.233,-0.201,-0.939
1057948,-2978.0,3585.0,6458.0,-29.0,-289.0,60.0,0.152,0.231,-0.201,-0.94
1057970,-2778.0,3489.0,6374.0,-62.0,-292.0,-30.0,0.152,0.228,-0.201,-0.94
1057982,-2588.0,3557.0,6230.0,-70.0,-309.0,-70.0,0.152,0.225,-0.201,-0.941
1058004,-2440.0,3739.0,6796.0,-56.0,-252.0,-68.0,0.152,0.223,-0.2,-0.942
1058016,-2492.0,4055.0,7088.0,-135.0,-221.0,38.0,0.153,0.221,-0.2,-0.942
1058038,-2674.0,3557.0,6880.0,-106.0,-204.0,-11.0,0.153,0.219,-0.199,-0.943
1058050,-2618.0,3707.0,6690.0,-9.0,-157.0,-139.0,0.152,0.218,-0.198,-0.943
1058072,-2714.0,3641.0,6278.0,13.0,-159.0,-193.0,0.151,0.217,-0.198,-0.944
1058084,-2630.0,3363.0,6062.0,9.0,-154.0,-219.0,0.15,0.216,-0.198,-0.944
1058106,-2548.0,3521.0,6166.0,-70.0,-170.0,-210.0,0.148,0.215,-0.197,-0.945
1058128,-2424.0,3479.0,6578.0,-214.0,-175.0,-141.0,0.148,0.213,-0.195,-0.946
1058140,-2360.0,3799.0,6978.0,-316.0,-166.0,-122.0,0.147,0.212,-0.192,-0.947
1058162,-2498.0,3493.0,6980.0,-325.0,-167.0,-191.0,0.147,0.21,-0.189,-0.948
1058174,-2288.0,2323.0,6540.0,-56.0,-212.0,-317.0,0.144,0.209,-0.188,-0.949
1058196,-1258.0,2221.0,7098.0,461.0,-17.0,-537.0,0.139,0.21,-0.191,-0.949
1058208,-530.0,3969.0,8084.0,811.0,217.0,-614.0,0.133,0.214,-0.197,-0.948
1058230,-1216.0,5701.0,7864.0,988.0,277.0,-490.0,0.127,0.218,-0.204,-0.946
1058252,-1744.0,6927.0,5962.0,777.0,300.0,-341.0,0.123,0.223,-0.21,-0.944
1058264,-2874.0,7027.0,3492.0,806.0,74.0,-681.0,0.116,0.226,-0.217,-0.943
1058286,-2852.0,7951.0,3222.0,907.0,-241.0,-1163.0,0.103,0.227,-0.222,-0.943
1058298,-2832.0,8157.0,3772.0,686.0,-431.0,-1174.0,0.091,0.226,-0.226,-0.943
1058320,-3612.0,7491.0,4152.0,487.0,-625.0,-996.0,0.079,0.223,-0.229,-0.944
1058332,-4382.0,6447.0,3470.0,561.0,-880.0,-958.0,0.068,0.218,-0.234,-0.945
1058354,-4566.0,5511.0,3124.0,894.0,-1047.0,-1215.0,0.053,0.212,-0.24,-0.946
1058366,-4584.0,5835.0,2920.0,1221.0,-1236.0,-1468.0,0.034,0.206,-0.25,-0.946
1058388,-4688.0,5179.0,2896.0,1471.0,-1554.0,-1690.0,0.012,0.197,-0.26,-0.945
1058400,-4576.0,4203.0,2486.0,1711.0,-1984.0,-1838.0,0.012,-0.184,0.272,0.944
1058422,-4242.0,3325.0,2262.0,1805.0,-2402.0,-1897.0,0.039,-0.167,0.285,0.943
1058434,-3664.0,2651.0,2890.0,1699.0,-2798.0,-1796.0,0.065,-0.146,0.296,0.942
1058456,-2852.0,2969.0,3930.0,1580.0,-3079.0,-1589.0,0.09,-0.122,0.305,0.94
1058478,-2184.0,3605.0,4792.0,1445.0,-3287.0,-1371.0,0.114,-0.096,0.314,0.938
1058490,-1562.0,3665.0,5524.0,1328.0,-3413.0,-1225.0,0.136,-0.068,0.32,0.935
1058512,-1336.0,3085.0,5688.0,1264.0,-3515.0,-1150.0,0.158,-0.038,0.326,0.931
1058524,-1018.0,4129.0,5768.0,1360.0,-3590.0,-1130.0,0.179,-0.008,0.332,0.926
1058546,136.0,5763.0,6614.0,1103.0,-3360.0,-980.0,0.198,0.02,0.336,0.921
1058558,370.0,6213.0,7986.0,557.0,-3160.0,-621.0,0.214,0.046,0.334,0.917
1058580,1000.0,6227.0,9076.0,171.0,-2932.0,-444.0,0.227,0.07,0.33,0.914
1058602,1206.0,6543.0,8574.0,-50.0,-2696.0,-391.0,0.239,0.092,0.324,0.911
1058614,1322.0,4971.0,7780.0,-281.0,-2466.0,-400.0,0.25,0.112,0.316,0.908
1058636,1654.0,5921.0,8160.0,-604.0,-2005.0,-437.0,0.261,0.126,0.307,0.907
1058648,1208.0,6263.0,9200.0,-972.0,-1843.0,-331.0,0.27,0.138,0.295,0.906
1058670,960.0,6011.0,9116.0,-871.0,-1723.0,-307.0,0.278,0.15,0.283,0.905
1058682,854.0,5435.0,7982.0,-529.0,-1648.0,-354.0,0.287,0.162,0.275,0.903
1058704,1006.0,4163.0,6782.0,-46.0,-1623.0,-345.0,0.294,0.174,0.27,0.9
1058716,1582.0,4439.0,5988.0,63.0,-1417.0,-297.0,0.3,0.186,0.267,0.897
1058738,2080.0,5025.0,5220.0,-505.0,-1498.0,-163.0,0.306,0.197,0.259,0.895
1058750,1510.0,2867.0,5254.0,-1070.0,-1707.0,-46.0,0.313,0.208,0.246,0.894
1058772,3646.0,3069.0,4652.0,-1450.0,-1818.0,514.0,0.315,0.22,0.227,0.895
1058794,5192.0,4721.0,10614.0,-2126.0,-1220.0,762.0,0.316,0.226,0.204,0.899
1058806,5540.0,8055.0,12802.0,-2139.0,-1501.0,680.0,0.318,0.233,0.18,0.901
1058828,4590.0,3199.0,8872.0,-1377.0,-1199.0,559.0,0.318,0.24,0.164,0.902
1058845,3460.0,385.0,5594.0,-512.0,-1048.0,557.0,0.316,0.249,0.155,0.902
1058857,3582.0,-503.0,4678.0,27.0,-973.0,421.0,0.314,0.258,0.151,0.901
1058879,4914.0,2767.0,5902.0,256.0,-851.0,265.0,0.312,0.266,0.15,0.899
1058891,5834.0,4305.0,7386.0,-321.0,-1072.0,365.0,0.312,0.275,0.143,0.898
1058913,6184.0,2223.0,7226.0,-828.0,-1346.0,646.0,0.31,0.285,0.131,0.897
1058925,6316.0,1877.0,6246.0,-828.0,-1245.0,644.0,0.309,0.294,0.118,0.897
1058947,6428.0,1507.0,6382.0,-664.0,-1062.0,589.0,0.307,0.301,0.108,0.896
1058969,6580.0,723.0,6342.0,-333.0,-864.0,664.0,0.303,0.308,0.101,0.896
1058981,6440.0,1895.0,6652.0,-2.0,-603.0,658.0,0.299,0.314,0.097,0.896
1059003,6458.0,1971.0,7178.0,196.0,-408.0,638.0,0.293,0.319,0.096,0.896
1059015,6294.0,2645.0,6864.0,188.0,-296.0,683.0,0.287,0.322,0.094,0.897
1059037,5570.0,3061.0,5476.0,42.0,-420.0,751.0,0.281,0.327,0.091,0.898
1059049,5620.0,2543.0,5542.0,-154.0,-412.0,724.0,0.276,0.331,0.086,0.898
1059071,5740.0,2459.0,5728.0,-161.0,-381.0,671.0,0.272,0.335,0.082,0.899
1059083,5616.0,3357.0,5284.0,2.0,-305.0,613.0,0.267,0.338,0.079,0.899
1059106,5540.0,2679.0,5330.0,-24.0,-327.0,610.0,0.262,0.342,0.076,0.899
1059118,5676.0,2739.0,5586.0,21.0,-233.0,624.0,0.257,0.344,0.073,0.9
1059140,5274.0,3137.0,5138.0,191.0,-200.0,630.0,0.251,0.347,0.073,0.901
1059152,4942.0,2863.0,4994.0,411.0,-155.0,655.0,0.245,0.35,0.074,0.901
1059174,4964.0,3453.0,4904.0,592.0,-84.0,589.0,0.238,0.353,0.077,0.901
1059196,4892.0,4581.0,4826.0,577.0,-54.0,509.0,0.233,0.355,0.08,0.902
1059208,4856.0,4019.0,4808.0,481.0,-54.0,501.0,0.227,0.358,0.082,0.902
1059230,4760.0,3695.0,4982.0,400.0,-57.0,449.0,0.222,0.359,0.084,0.902
1059242,4706.0,3745.0,5672.0,301.0,-43.0,338.0,0.219,0.361,0.086,0.903
1059264,4722.0,3659.0,6070.0,240.0,-47.0,213.0,0.216,0.362,0.087,0.903
1059276,4814.0,3537.0,6156.0,189.0,-34.0,102.0,0.215,0.363,0.088,0.902
1059298,4974.0,2589.0,5840.0,81.0,-48.0,-22.0,0.215,0.363,0.089,0.902
1059310,5210.0,1587.0,5978.0,73.0,19.0,-73.0,0.216,0.363,0.09,0.902
1059332,5338.0,1623.0,6420.0,204.0,109.0,-86.0,0.216,0.363,0.091,0.902
1059354,5352.0,2055.0,6498.0,411.0,171.0,-110.0,0.215,0.362,0.095,0.902
1059366,5100.0,2065.0,6322.0,518.0,173.0,-98.0,0.214,0.362,0.1,0.902
1059388,4962.0,2167.0,5930.0,557.0,174.0,-62.0,0.213,0.361,0.105,0.902
1059400,4680.0,2777.0,5930.0,489.0,102.0,-21.0,0.211,0.361,0.11,0.901
1059422,4894.0,3469.0,6080.0,269.0,12.0,-5.0,0.211,0.362,0.112,0.901
1059434,4700.0,3789.0,5992.0,-8.0,-59.0,29.0,0.211,0.362,0.112,0.901
1059456,4804.0,3711.0,5876.0,-255.0,-96.0,26.0,0.212,0.363,0.109,0.901
1059468,4806.0,3469.0,5702.0,-295.0,-86.0,-20.0,0.213,0.363,0.107,0.901
1059490,4784.0,3253.0,5616.0,-318.0,-67.0,-84.0,0.215,0.363,0.104,0.901
1059512,4914.0,3155.0,5536.0,-293.0,-39.0,-145.0,0.217,0.363,0.102,0.9
1059524,5008.0,2377.0,5624.0,-228.0,-13.0,-197.0,0.22,0.362,0.101,0.9
1059546,5052.0,2191.0,5758.0,-80.0,50.0,-206.0,0.222,0.362,0.101,0.9
1059558,5084.0,2675.0,5794.0,27.0,79.0,-270.0,0.224,0.361,0.102,0.9
1059580,5146.0,2937.0,5872.0,10.0,47.0,-261.0,0.226,0.36,0.103,0.899
1059592,5302.0,2907.0,6010.0,8.0,32.0,-207.0,0.228,0.36,0.104,0.899
1059614,5114.0,2873.0,5908.0,65.0,35.0,-185.0,0.23,0.36,0.105,0.898
1059626,5128.0,2757.0,6018.0,140.0,55.0,-180.0,0.231,0.36,0.107,0.898
1059648,4984.0,2927.0,6206.0,185.0,46.0,-181.0,0.232,0.36,0.109,0.897
1059660,4998.0,3063.0,6132.0,199.0,34.0,-201.0,0.233,0.36,0.111,0.897
1059682,4932.0,3253.0,5870.0,149.0,21.0,-222.0,0.234,0.36,0.113,0.896
1059704,4958.0,3339.0,5746.0,15.0,-4.0,-211.0,0.236,0.36,0.114,0.896
1059716,5042.0,3241.0,5800.0,-67.0,-25.0,-195.0,0.238,0.359,0.114,0.895
1059738,5074.0,3181.0,5644.0,-96.0,-27.0,-184.0,0.24,0.359,0.114,0.895
1059750,5092.0,3261.0,5636.0,-73.0,7.0,-200.0,0.242,0.359,0.114,0.894
1059772,5076.0,3197.0,5718.0,-45.0,29.0,-238.0,0.244,0.359,0.114,0.894
1059784,5196.0,3235.0,5744.0,-27.0,61.0,-294.0,0.247,0.358,0.115,0.893
1059806,5162.0,3019.0,5512.0,-22.0,70.0,-350.0,0.25,0.357,0.116,0.892
1059818,5068.0,2753.0,5632.0,-29.0,105.0,-361.0,0.253,0.356,0.117,0.892
1059840,4930.0,2655.0,5808.0,-14.0,119.0,-367.0,0.256,0.355,0.118,0.891
1059862,4794.0,2909.0,6072.0,60.0,138.0,-336.0,0.258,0.353,0.12,0.891
1059874,4718.0,3033.0,6032.0,122.0,131.0,-290.0,0.26,0.352,0.122,0.891
1059896,4404.0,3177.0,5968.0,142.0,110.0,-234.0,0.262,0.352,0.124,0.89
1059908,4338.0,3559.0,6062.0,158.0,85.0,-185.0,0.263,0.351,0.126,0.89
1059930,4290.0,3717.0,5990.0,129.0,56.0,-136.0,0.264,0.351,0.128,0.889
1059942,4292.0,3745.0,5862.0,105.0,27.0,-94.0,0.264,0.351,0.129,0.889
1059964,4238.0,3853.0,5840.0,59.0,-5.0,-86.0,0.265,0.351,0.13,0.889
1059976,4272.0,3827.0,5938.0,8.0,-38.0,-82.0,0.266,0.351,0.13,0.888
1059998,4348.0,3701.0,5970.0,-17.0,-44.0,-55.0,0.267,0.352,0.13,0.888
1060020,4410.0,3637.0,5974.0,-11.0,-48.0,-49.0,0.267,0.352,0.13,0.888
1060032,4374.0,3667.0,5862.0,-14.0,-48.0,-29.0,0.268,0.352,0.13,0.887
1060054,4480.0,3633.0,5944.0,-16.0,-51.0,-19.0,0.268,0.353,0.13,0.887
1060066,4548.0,3599.0,5890.0,-5.0,-49.0,-12.0,0.268,0.353,0.13,0.887
1060088,4726.0,3619.0,5770.0,2.0,-48.0,-16.0,0.268,0.354,0.13,0.887
1060100,4796.0,3455.0,5724.0,5.0,-40.0,-1.0,0.269,0.354,0.129,0.886
1060122,4784.0,3543.0,5746.0,0.0,-41.0,11.0,0.269,0.355,0.129,0.886
1060134,4856.0,3559.0,5778.0,-54.0,-57.0,22.0,0.269,0.355,0.128,0.886
1060156,4814.0,3329.0,5832.0,-75.0,-48.0,38.0,0.269,0.356,0.127,0.886
1060168,4784.0,3277.0,5848.0,-82.0,-45.0,51.0,0.269,0.356,0.126,0.886
1060190,4776.0,3263.0,5796.0,-41.0,-16.0,66.0,0.269,0.356,0.126,0.886
1060212,4750.0,3273.0,5726.0,-5.0,-12.0,62.0,0.268,0.357,0.125,0.886
1060224,4702.0,3145.0,5668.0,4.0,-7.0,57.0,0.268,0.357,0.125,0.886
1060246,4722.0,3295.0,5736.0,18.0,-11.0,44.0,0.268,0.357,0.125,0.886
1060258,4684.0,3281.0,5858.0,8.0,-28.0,43.0,0.267,0.357,0.125,0.886
1060280,4630.0,3275.0,5940.0,-2.0,-35.0,47.0,0.267,0.358,0.124,0.886
1060292,4670.0,3271.0,5934.0,-17.0,-55.0,45.0,0.267,0.358,0.124,0.886
1060314,4718.0,3221.0,5900.0,-4.0,-55.0,52.0,0.267,0.359,0.123,0.886
1060326,4698.0,3333.0,5896.0,10.0,-62.0,64.0,0.266,0.36,0.123,0.886
1060348,4750.0,3565.0,5854.0,-13.0,-85.0,68.0,0.266,0.361,0.122,0.886
1060370,4726.0,3485.0,5898.0,-53.0,-107.0,83.0,0.266,0.361,0.121,0.885
1060382,4636.0,3401.0,5814.0,-74.0,-113.0,83.0,0.266,0.362,0.12,0.885
1060404,4692.0,3285.0,5786.0,-93.0,-109.0,81.0,0.266,0.363,0.119,0.885
1060416,4662.0,3151.0,5678.0,-85.0,-101.0,81.0,0.265,0.364,0.117,0.885
1060438,4822.0,3243.0,5662.0,-40.0,-75.0,86.0,0.265,0.365,0.117,0.885
1060450,4852.0,3349.0,5660.0,-7.0,-53.0,73.0,0.264,0.365,0.116,0.885
1060472,4824.0,3539.0,5726.0,8.0,-46.0,45.0,0.264,0.366,0.116,0.885
1060484,4790.0,3449.0,5756.0,-23.0,-35.0,26.0,0.264,0.366,0.115,0.885
1060506,4840.0,3429.0,5728.0,-25.0,-24.0,-11.0,0.265,0.367,0.115,0.885
1060528,4868.0,3499.0,5766.0,-11.0,-7.0,-24.0,0.265,0.367,0.115,0.884
1060540,4874.0,3293.0,5788.0,-18.0,-4.0,-32.0,0.265,0.367,0.115,0.884
1060562,4784.0,3339.0,5716.0,-7.0,3.0,-41.0,0.266,0.367,0.115,0.884
1060574,4856.0,3351.0,5750.0,-20.0,7.0,-33.0,0.266,0.367,0.115,0.884
1060596,4832.0,3334.0,5723.0,-12.0,20.0,-11.0,0.266,0.367,0.115,0.884
1060608,4836.0,3357.0,5691.0,-20.0,17.0,-6.0,0.267,0.366,0.115,0.884
1060630,4927.0,3222.0,5678.0,-6.0,25.0,-17.0,0.267,0.366,0.115,0.884
1060642,4948.0,3311.0,5652.0,2.0,15.0,-14.0,0.267,0.366,0.115,0.884
1060664,4921.0,3297.0,5721.0,3.0,7.0,-3.0,0.267,0.366,0.115,0.884
1060686,4868.0,3226.0,5770.0,-11.0,-8.0,11.0,0.267,0.367,0.114,0.884
1060698,4921.0,3213.0,5789.0,-28.0,-15.0,12.0,0.268,0.367,0.114,0.884
1060720,4972.0,3164.0,5752.0,-8.0,-15.0,20.0,0.268,0.367,0.114,0.884
1060732,4944.0,3164.0,5720.0,33.0,-4.0,27.0,0.267,0.367,0.114,0.884
1060754,4865.0,3157.0,5745.0,50.0,-4.0,44.0,0.267,0.367,0.114,0.884
1060766,4875.0,3151.0,5725.0,73.0,-1.0,59.0,0.266,0.368,0.114,0.884
1060788,4869.0,3099.0,5773.0,85.0,-12.0,70.0,0.266,0.368,0.114,0.884
1060800,4875.0,3163.0,5663.0,81.0,-19.0,77.0,0.265,0.369,0.115,0.884
1060822,4947.0,3205.0,5687.0,59.0,-34.0,89.0,0.264,0.369,0.115,0.883
1060834,4939.0,3125.0,5667.0,73.0,-31.0,108.0,0.263,0.37,0.115,0.884
1060851,4935.0,3079.0,5705.0,110.0,-28.0,110.0,0.262,0.371,0.115,0.884
1060873,4847.0,3149.0,5767.0,137.0,-32.0,118.0,0.261,0.372,0.116,0.884
1060895,4869.0,3339.0,5771.0,84.0,-65.0,133.0,0.259,0.373,0.116,0.883
1060907,4817.0,3441.0,5683.0,19.0,-96.0,152.0,0.258,0.374,0.115,0.883
1060929,4701.0,3175.0,5733.0,-22.0,-117.0,195.0,0.257,0.375,0.114,0.883
1060941,4651.0,3243.0,5949.0,-52.0,-124.0,216.0,0.256,0.376,0.112,0.884
1060963,4799.0,3407.0,5795.0,-43.0,-131.0,222.0,0.254,0.377,0.111,0.884
1060975,4763.0,3503.0,5749.0,-72.0,-143.0,245.0,0.253,0.379,0.109,0.884
1060997,4803.0,3721.0,5559.0,-145.0,-180.0,241.0,0.252,0.38,0.107,0.884
1061009,4883.0,3555.0,5547.0,-263.0,-213.0,225.0,0.251,0.381,0.103,0.884
1061031,5031.0,3603.0,5417.0,-322.0,-236.0,209.0,0.251,0.383,0.099,0.883
1061053,5149.0,3317.0,5527.0,-382.0,-250.0,197.0,0.251,0.384,0.095,0.883
1061065,5259.0,3141.0,5497.0,-405.0,-255.0,164.0,0.252,0.386,0.09,0.883
1061087,5361.0,2761.0,5589.0,-420.0,-238.0,145.0,0.252,0.387,0.086,0.883
1061099,5447.0,2561.0,5425.0,-389.0,-205.0,143.0,0.253,0.388,0.081,0.883
1061121,5485.0,2705.0,5431.0,-318.0,-168.0,138.0,0.253,0.389,0.078,0.883
1061133,5575.0,2503.0,5419.0,-283.0,-139.0,151.0,0.253,0.39,0.074,0.882
1061155,5575.0,2681.0,5375.0,-249.0,-113.0,153.0,0.253,0.39,0.071,0.883
1061167,5541.0,2691.0,5387.0,-253.0,-99.0,141.0,0.252,0.391,0.069,0.883
1061189,5577.0,2571.0,5381.0,-260.0,-87.0,99.0,0.253,0.391,0.066,0.883
1061211,5551.0,2373.0,5395.0,-249.0,-61.0,74.0,0.253,0.391,0.063,0.883
1061223,5583.0,2185.0,5439.0,-197.0,-19.0,43.0,0.253,0.391,0.061,0.883
1061245,6023.0,2163.0,5053.0,-102.0,29.0,-39.0,0.254,0.391,0.06,0.883
1061257,5345.0,2251.0,5517.0,73.0,157.0,2.0,0.254,0.39,0.061,0.883
1061279,5467.0,2867.0,5849.0,-74.0,11.0,-68.0,0.255,0.389,0.061,0.883
1061291,5347.0,2101.0,6117.0,-177.0,-33.0,-8.0,0.256,0.389,0.059,0.883
1061313,5547.0,1891.0,5827.0,-55.0,11.0,6.0,0.256,0.389,0.059,0.883
1061325,5299.0,2719.0,5613.0,-10.0,7.0,30.0,0.256,0.389,0.058,0.883
1061347,5269.0,2867.0,5539.0,-34.0,-25.0,28.0,0.256,0.389,0.058,0.883
1061359,5289.0,2789.0,5583.0,-113.0,-72.0,23.0,0.256,0.39,0.057,0.883
1061381,5067.0,2659.0,5669.0,-198.0,-94.0,-35.0,0.257,0.39,0.055,0.882
1061403,5133.0,2635.0,5775.0,-274.0,-60.0,-22.0,0.259,0.39,0.053,0.882
1061415,5311.0,2469.0,5749.0,-292.0,-51.0,-34.0,0.26,0.39,0.05,0.882
1061437,5309.0,2403.0,5635.0,-214.0,-32.0,-99.0,0.262,0.389,0.049,0.882
1061449,5439.0,2531.0,5749.0,-173.0,1.0,-171.0,0.264,0.389,0.048,0.881
1061471,5635.0,1807.0,5543.0,-191.0,33.0,-183.0,0.266,0.388,0.047,0.881
1061483,5811.0,2177.0,5513.0,-76.0,104.0,-175.0,0.268,0.387,0.047,0.881
1061505,5809.0,2085.0,5681.0,2.0,125.0,-140.0,0.269,0.386,0.048,0.881
1061517,5611.0,2371.0,5787.0,57.0,124.0,-111.0,0.27,0.385,0.049,0.881
1061539,5581.0,2581.0,5605.0,19.0,67.0,-134.0,0.271,0.385,0.049,0.881
1061561,5561.0,2097.0,5577.0,-32.0,83.0,-84.0,0.272,0.384,0.049,0.881
1061573,5423.0,2529.0,5725.0,7.0,88.0,-17.0,0.272,0.384,0.05,0.881
1061595,5199.0,2405.0,5709.0,29.0,78.0,27.0,0.272,0.383,0.05,0.881
1061607,4957.0,2807.0,5763.0,-9.0,38.0,7.0,0.272,0.383,0.05,0.881
1061629,4967.0,2793.0,5773.0,-122.0,-20.0,5.0,0.272,0.383,0.049,0.881
1061641,5015.0,2297.0,5823.0,-161.0,-23.0,33.0,0.273,0.383,0.047,0.881
1061663,5125.0,2323.0,5853.0,-145.0,-16.0,71.0,0.273,0.382,0.046,0.882
1061675,5313.0,2071.0,5785.0,-71.0,-17.0,75.0,0.273,0.382,0.045,0.882
1061697,5343.0,2307.0,5799.0,18.0,-12.0,60.0,0.272,0.383,0.045,0.882
1061719,5345.0,2523.0,5845.0,43.0,-26.0,52.0,0.272,0.383,0.045,0.882
1061731,5383.0,2725.0,5787.0,-7.0,-50.0,80.0,0.271,0.384,0.044,0.882
1061753,5263.0,2681.0,5701.0,-107.0,-65.0,128.0,0.271,0.384,0.043,0.882
1061765,5419.0,2547.0,5509.0,-131.0,-62.0,125.0,0.27,0.384,0.041,0.882
1061787,5455.0,2303.0,5667.0,-116.0,-63.0,100.0,0.27,0.385,0.039,0.882
1061799,5321.0,2303.0,5737.0,-131.0,-72.0,84.0,0.27,0.385,0.038,0.882
1061821,5389.0,2269.0,5739.0,-161.0,-75.0,76.0,0.27,0.385,0.036,0.882
1061833,5455.0,2017.0,5677.0,-171.0,-65.0,79.0,0.27,0.386,0.034,0.882
1061855,5447.0,2039.0,5605.0,-112.0,-29.0,84.0,0.27,0.386,0.033,0.882
1061867,5473.0,2165.0,5647.0,-58.0,-8.0,70.0,0.27,0.386,0.032,0.882
1061889,5373.0,2191.0,5617.0,-22.0,-7.0,60.0,0.269,0.386,0.031,0.882
1061911,5387.0,2187.0,5699.0,-38.0,-2.0,45.0,0.269,0.386,0.031,0.882
1061923,5389.0,2183.0,5769.0,-66.0,0.0,28.0,0.269,0.386,0.03,0.882
1061945,5361.0,2219.0,5673.0,-71.0,13.0,21.0,0.269,0.386,0.029,0.882
1061957,5381.0,2257.0,5741.0,-75.0,21.0,0.0,0.27,0.385,0.029,0.882
1061979,5441.0,2203.0,5799.0,-87.0,2.0,-19.0,0.27,0.385,0.028,0.882
1061991,5551.0,2069.0,5861.0,-97.0,-20.0,-24.0,0.271,0.385,0.027,0.882
1062013,5449.0,2139.0,5895.0,-77.0,-30.0,-17.0,0.272,0.385,0.026,0.882
1062025,5465.0,1945.0,5955.0,-73.0,-40.0,-24.0,0.272,0.385,0.026,0.881
1062047,7917.0,1401.0,6567.0,-50.0,163.0,-159.0,0.274,0.384,0.026,0.882
1062069,6843.0,-923.0,3763.0,304.0,574.0,19.0,0.272,0.38,0.029,0.883
1062081,5789.0,3781.0,2439.0,968.0,940.0,216.0,0.267,0.375,0.039,0.887
1062103,5221.0,3183.0,3585.0,1023.0,898.0,160.0,0.261,0.37,0.049,0.89
1062115,3863.0,4311.0,6797.0,741.0,551.0,-32.0,0.259,0.367,0.057,0.891
1062137,4093.0,2741.0,8161.0,-211.0,69.0,-147.0,0.261,0.366,0.056,0.891
1062149,4659.0,1743.0,7853.0,-544.0,-119.0,-117.0,0.264,0.366,0.051,0.891
1062171,5401.0,969.0,7203.0,-181.0,54.0,72.0,0.264,0.365,0.05,0.891
1062183,5607.0,759.0,6859.0,196.0,193.0,72.0,0.263,0.364,0.051,0.892
1062205,5605.0,1405.0,6565.0,612.0,237.0,-71.0,0.261,0.364,0.057,0.892
1062227,5179.0,2943.0,5697.0,739.0,187.0,-162.0,0.26,0.364,0.064,0.892
1062239,4635.0,3715.0,5155.0,466.0,89.0,-93.0,0.26,0.364,0.068,0.892
1062261,4133.0,3773.0,5115.0,56.0,33.0,15.0,0.259,0.364,0.069,0.892
1062273,4149.0,3369.0,5381.0,-242.0,-4.0,72.0,0.26,0.364,0.067,0.892
1062295,4155.0,2853.0,5917.0,-226.0,-28.0,12.0,0.261,0.364,0.065,0.892
1062307,4327.0,2709.0,6299.0,-145.0,-84.0,-116.0,0.262,0.364,0.064,0.891
1062329,4601.0,2429.0,6497.0,-84.0,-119.0,-204.0,0.264,0.364,0.064,0.891
1062341,4911.0,2373.0,6503.0,-100.0,-136.0,-134.0,0.266,0.365,0.063,0.89
1062363,5119.0,2395.0,6297.0,-170.0,-133.0,-75.0,0.268,0.366,0.061,0.889
1062375,5373.0,2435.0,6077.0,-214.0,-147.0,-44.0,0.269,0.367,0.059,0.889
1062397,5429.0,2515.0,5907.0,-176.0,-159.0,-57.0,0.27,0.368,0.057,0.888
1062419,5367.0,2549.0,5685.0,-159.0,-160.0,-106.0,0.272,0.369,0.056,0.887
1062431,5257.0,2391.0,5477.0,-177.0,-129.0,-125.0,0.274,0.369,0.055,0.886
1062453,5211.0,2707.0,5345.0,-191.0,-85.0,-101.0,0.275,0.37,0.053,0.886
1062465,4995.0,2663.0,5455.0,-266.0,-84.0,-76.0,0.277,0.37,0.051,0.885
1062487,4867.0,2979.0,5793.0,-356.0,-125.0,-57.0,0.279,0.37,0.048,0.885
1062499,4945.0,2779.0,5971.0,-509.0,-183.0,-32.0,0.281,0.37,0.043,0.884
1062521,5093.0,2331.0,6017.0,-606.0,-192.0,0.0,0.283,0.37,0.038,0.884
1062543,5097.0,1989.0,6077.0,-570.0,-149.0,24.0,0.285,0.37,0.033,0.884
1062555,4999.0,1939.0,6151.0,-486.0,-121.0,34.0,0.287,0.37,0.028,0.883
1062577,4971.0,2027.0,6167.0,-415.0,-119.0,34.0,0.288,0.37,0.024,0.883
1062589,4879.0,2151.0,6103.0,-368.0,-142.0,32.0,0.289,0.37,0.021,0.883
1062611,4937.0,2291.0,6027.0,-355.0,-174.0,45.0,0.29,0.37,0.017,0.882
1062623,4981.0,2331.0,6073.0,-360.0,-192.0,58.0,0.291,0.371,0.013,0.882
1062645,4949.0,2081.0,6145.0,-347.0,-197.0,27.0,0.292,0.371,0.01,0.881
1062657,5285.0,1493.0,6381.0,-328.0,-186.0,-73.0,0.294,0.372,0.007,0.88
1062679,6763.0,1641.0,7589.0,-161.0,-49.0,-271.0,0.297,0.372,0.006,0.879
1062691,7651.0,-3743.0,5187.0,115.0,642.0,-117.0,0.298,0.367,0.009,0.881
1062713,5581.0,4233.0,817.0,1098.0,981.0,172.0,0.293,0.362,0.02,0.885
1062725,6637.0,4749.0,2451.0,1384.0,993.0,309.0,0.285,0.359,0.034,0.888
1062748,3567.0,5259.0,7389.0,1015.0,550.0,172.0,0.281,0.357,0.043,0.89
1062760,4203.0,2721.0,8607.0,-543.0,-211.0,-195.0,0.284,0.357,0.038,0.889
1062783,5367.0,1193.0,7637.0,-1225.0,-473.0,-260.0,0.291,0.358,0.028,0.887
1062795,5977.0,-505.0,6839.0,-612.0,-76.0,-60.0,0.293,0.357,0.023,0.887
1062818,5923.0,-1315.0,6899.0,151.0,283.0,-1.0,0.293,0.355,0.025,0.887
1062840,5765.0,53.0,6515.0,933.0,436.0,-158.0,0.291,0.354,0.033,0.888
1062857,5015.0,2317.0,5869.0,1100.0,357.0,-305.0,0.29,0.354,0.044,0.888
1062869,4449.0,3347.0,5335.0,799.0,203.0,-242.0,0.289,0.355,0.052,0.888
1062891,3997.0,3403.0,5409.0,416.0,166.0,-106.0,0.289,0.354,0.057,0.887
1062903,3793.0,3959.0,5727.0,48.0,150.0,72.0,0.288,0.353,0.058,0.888
1062925,3781.0,3581.0,6143.0,-52.0,112.0,172.0,0.287,0.352,0.057,0.889
1062937,3907.0,3269.0,6567.0,-28.0,46.0,59.0,0.287,0.352,0.057,0.889
1062959,4297.0,2475.0,6657.0,-27.0,-76.0,-193.0,0.289,0.352,0.057,0.888
1062971,4615.0,2351.0,6579.0,51.0,-66.0,-155.0,0.29,0.353,0.058,0.888
1062993,4735.0,2355.0,6465.0,22.0,-27.0,-68.0,0.291,0.353,0.058,0.887
1063015,4837.0,2711.0,6289.0,-68.0,11.0,-8.0,0.291,0.353,0.058,0.887
1063027,4837.0,2635.0,5993.0,-55.0,34.0,28.0,0.291,0.352,0.057,0.888
1063049,4877.0,2855.0,5797.0,-9.0,16.0,-40.0,0.292,0.352,0.057,0.887
1063061,4875.0,3047.0,5787.0,-18.0,-36.0,-92.0,0.293,0.353,0.057,0.887
1063083,5075.0,2819.0,5757.0,-77.0,-68.0,-76.0,0.294,0.353,0.057,0.886
1063095,4929.0,2675.0,5925.0,-142.0,-75.0,-59.0,0.295,0.354,0.055,0.886
1063117,4919.0,2215.0,6143.0,-151.0,-73.0,-92.0,0.296,0.354,0.054,0.886
1063129,4983.0,1943.0,6289.0,-79.0,-54.0,-107.0,0.298,0.354,0.054,0.885
1063151,5023.0,2097.0,6387.0,-5.0,-41.0,-108.0,0.299,0.354,0.054,0.885
1063163,5213.0,2245.0,6203.0,24.0,-32.0,-109.0,0.299,0.355,0.054,0.884
1063185,5455.0,2381.0,6093.0,-9.0,-28.0,-97.0,0.3,0.355,0.054,0.884
1063207,5635.0,2353.0,5913.0,-54.0,-30.0,-105.0,0.302,0.355,0.054,0.883
1063219,5515.0,2227.0,5839.0,-43.0,-6.0,-133.0,0.303,0.355,0.053,0.883
1063241,5475.0,2089.0,5669.0,-10.0,25.0,-141.0,0.304,0.355,0.054,0.882
1063253,5233.0,2149.0,5599.0,55.0,74.0,-133.0,0.305,0.355,0.055,0.882
1063275,5015.0,2067.0,5645.0,106.0,136.0,-90.0,0.305,0.354,0.056,0.882
1063287,4581.0,2189.0,5697.0,167.0,189.0,-30.0,0.305,0.353,0.058,0.883
1063309,4283.0,2585.0,5903.0,207.0,208.0,-6.0,0.304,0.352,0.06,0.883
1063321,4083.0,2721.0,6159.0,187.0,194.0,-2.0,0.304,0.351,0.062,0.884
1063343,3975.0,2803.0,6325.0,152.0,153.0,-6.0,0.304,0.35,0.064,0.884
1063365,3871.0,2705.0,6491.0,101.0,100.0,-5.0,0.303,0.349,0.065,0.884
1063377,4045.0,2835.0,6783.0,83.0,50.0,-11.0,0.303,0.349,0.066,0.884
1063399,4439.0,2657.0,6851.0,52.0,-10.0,-3.0,0.303,0.349,0.066,0.884
1063411,4773.0,2749.0,6651.0,53.0,-30.0,26.0,0.303,0.35,0.066,0.884
1063433,4997.0,2961.0,6113.0,88.0,-9.0,58.0,0.302,0.35,0.067,0.884
1063445,5177.0,3153.0,5615.0,137.0,44.0,101.0,0.301,0.35,0.068,0.884
1063467,5191.0,3267.0,5463.0,161.0,73.0,80.0,0.3,0.351,0.069,0.885
1063489,5091.0,3363.0,5571.0,90.0,58.0,29.0,0.299,0.351,0.07,0.885
1063501,5003.0,3047.0,5787.0,-41.0,19.0,-18.0,0.3,0.35,0.07,0.885
1063523,4779.0,2439.0,5911.0,-124.0,26.0,-34.0,0.3,0.35,0.069,0.885
1063535,4649.0,2121.0,6179.0,-76.0,71.0,-63.0,0.301,0.349,0.068,0.885
1063557,4713.0,1835.0,6267.0,40.0,115.0,-131.0,0.302,0.348,0.069,0.885
1063569,4853.0,1739.0,6407.0,179.0,153.0,-198.0,0.303,0.347,0.071,0.885
1063591,4801.0,2149.0,6481.0,239.0,137.0,-206.0,0.304,0.347,0.074,0.884
1063603,4859.0,2621.0,6547.0,189.0,88.0,-169.0,0.305,0.347,0.077,0.884
1063625,4953.0,2913.0,6455.0,90.0,46.0,-81.0,0.305,0.346,0.078,0.884
1063637,5039.0,3217.0,6221.0,66.0,32.0,-9.0,0.305,0.347,0.078,0.884
1063659,5097.0,3275.0,5863.0,108.0,73.0,17.0,0.305,0.346,0.079,0.884
1063671,4981.0,3569.0,5389.0,129.0,102.0,6.0,0.304,0.346,0.081,0.884
1063693,4581.0,3475.0,5399.0,99.0,96.0,-11.0,0.304,0.346,0.082,0.884
1063715,4197.0,3771.0,5829.0,99.0,66.0,-81.0,0.305,0.346,0.083,0.884
1063727,4171.0,3431.0,6323.0,10.0,8.0,-193.0,0.306,0.346,0.084,0.883
1063749,4329.0,3453.0,6425.0,-77.0,-23.0,-302.0,0.309,0.345,0.084,0.882
1063761,4505.0,3401.0,6121.0,-174.0,-70.0,-363.0,0.313,0.345,0.084,0.881
1063783,4927.0,2379.0,5727.0,-227.0,-65.0,-399.0,0.317,0.345,0.083,0.88
1063795,4845.0,2357.0,5731.0,-116.0,-7.0,-377.0,0.32,0.344,0.083,0.879
1063817,4913.0,2441.0,6351.0,71.0,64.0,-375.0,0.323,0.344,0.085,0.878
1063829,4769.0,2623.0,6421.0,278.0,104.0,-337.0,0.325,0.344,0.088,0.877
1063851,4999.0,2677.0,6617.0,378.0,162.0,-300.0,0.326,0.343,0.092,0.876
1063873,5611.0,2815.0,6441.0,490.0,242.0,-285.0,0.327,0.343,0.098,0.875
1063885,6023.0,3385.0,6053.0,704.0,339.0,-286.0,0.327,0.342,0.105,0.875
1063907,6333.0,4051.0,6139.0,932.0,345.0,-328.0,0.326,0.342,0.115,0.874
1063919,6613.0,4531.0,5655.0,1156.0,202.0,-485.0,0.326,0.343,0.127,0.872
1063941,6799.0,6599.0,4869.0,1662.0,226.0,-737.0,0.327,0.346,0.143,0.868
1063953,6693.0,7869.0,4891.0,1761.0,255.0,-957.0,0.329,0.348,0.161,0.863
1063975,6501.0,7289.0,5431.0,1775.0,246.0,-1333.0,0.333,0.349,0.18,0.857
1063987,6123.0,7699.0,5819.0,1666.0,-56.0,-1594.0,0.341,0.352,0.198,0.849
1064009,6237.0,10013.0,4385.0,1231.0,122.0,-1912.0,0.352,0.352,0.215,0.841
1064031,5309.0,10761.0,3087.0,453.0,-101.0,-2080.0,0.366,0.35,0.225,0.832
1064043,4781.0,9831.0,4383.0,-291.0,-338.0,-2259.0,0.386,0.347,0.229,0.824
1064065,4507.0,8057.0,5829.0,-747.0,-513.0,-2343.0,0.407,0.343,0.228,0.815
1064077,3717.0,5771.0,6691.0,-883.0,-442.0,-2410.0,0.429,0.338,0.228,0.806
1064099,3225.0,5519.0,6999.0,-1033.0,-183.0,-2472.0,0.451,0.33,0.227,0.798
1064111,2491.0,2979.0,6883.0,-1195.0,-40.0,-2695.0,0.474,0.319,0.226,0.789
1064133,2487.0,5733.0,6455.0,-1765.0,-58.0,-962.0,0.487,0.309,0.215,0.788
1064145,1663.0,1787.0,6103.0,-1651.0,121.0,-1876.0,0.505,0.297,0.209,0.783
1064167,2023.0,1159.0,4979.0,-1165.0,240.0,-1664.0,0.519,0.287,0.206,0.778
1064189,935.0,865.0,4627.0,-684.0,221.0,-1536.0,0.532,0.279,0.206,0.772
1064201,697.0,751.0,4385.0,-225.0,283.0,-1177.0,0.541,0.274,0.209,0.768
1064223,199.0,935.0,4457.0,-170.0,245.0,-1001.0,0.548,0.269,0.212,0.763
1064235,275.0,873.0,4589.0,38.0,223.0,-681.0,0.552,0.266,0.215,0.76
1064257,-541.0,1261.0,4387.0,44.0,81.0,-574.0,0.556,0.265,0.217,0.757
1064269,-1025.0,2189.0,4487.0,140.0,8.0,-419.0,0.559,0.265,0.219,0.755
1064291,-557.0,3939.0,4839.0,373.0,145.0,-318.0,0.56,0.265,0.223,0.753
1064303,-1623.0,3933.0,5351.0,-109.0,8.0,-81.0,0.561,0.265,0.222,0.752
1064325,-1243.0,3349.0,5783.0,-121.0,116.0,145.0,0.56,0.264,0.221,0.753
1064337,-1181.0,4061.0,6163.0,-207.0,74.0,160.0,0.56,0.262,0.22,0.755
1064359,-473.0,4503.0,6811.0,-297.0,121.0,112.0,0.56,0.26,0.218,0.756
1064381,-47.0,3973.0,7091.0,-225.0,154.0,213.0,0.559,0.257,0.217,0.758
1064393,619.0,3989.0,7135.0,-16.0,315.0,280.0,0.556,0.256,0.217,0.76
1064415,623.0,3997.0,7073.0,127.0,202.0,331.0,0.554,0.255,0.218,0.762
1064427,1411.0,3959.0,7057.0,577.0,206.0,310.0,0.55,0.257,0.222,0.763
1064449,1599.0,4203.0,6405.0,956.0,236.0,205.0,0.546,0.261,0.23,0.762
1064461,1281.0,4307.0,5645.0,1060.0,149.0,243.0,0.541,0.266,0.237,0.762
1064483,893.0,3613.0,5077.0,1007.0,2.0,365.0,0.536,0.272,0.243,0.761
1064495,779.0,4057.0,4999.0,925.0,-259.0,368.0,0.532,0.28,0.248,0.76
1064517,1331.0,3863.0,5507.0,888.0,-484.0,454.0,0.528,0.289,0.25,0.759
1064539,2419.0,5363.0,6665.0,548.0,-623.0,537.0,0.524,0.297,0.249,0.758
1064551,5933.0,9057.0,9543.0,-2052.0,-844.0,1681.0,0.52,0.297,0.226,0.768
1064573,2433.0,7539.0,9435.0,-879.0,-18.0,1197.0,0.514,0.295,0.216,0.776
1064585,1833.0,5645.0,6753.0,-128.0,-307.0,95.0,0.514,0.297,0.213,0.776
1064607,5185.0,3549.0,7039.0,10.0,-600.0,168.0,0.515,0.302,0.21,0.775
1064619,2863.0,5667.0,7409.0,-32.0,-392.0,447.0,0.512,0.306,0.206,0.776
1064641,3175.0,4321.0,6783.0,29.0,-581.0,150.0,0.512,0.311,0.203,0.775
1064653,2925.0,4389.0,6535.0,295.0,-755.0,14.0,0.513,0.317,0.201,0.772
1064675,3179.0,4657.0,6659.0,492.0,-711.0,-68.0,0.513,0.325,0.201,0.768
1064687,3183.0,4179.0,6321.0,607.0,-663.0,-56.0,0.513,0.332,0.202,0.765
1064709,3637.0,5611.0,6091.0,583.0,-572.0,-60.0,0.513,0.339,0.203,0.762
1064731,3819.0,5533.0,5873.0,449.0,-415.0,-88.0,0.513,0.344,0.205,0.759
1064743,4195.0,5761.0,6255.0,307.0,-254.0,-91.0,0.513,0.348,0.206,0.757
1064765,4097.0,5685.0,6117.0,247.0,-99.0,-124.0,0.514,0.349,0.207,0.756
1064777,4133.0,5449.0,6273.0,170.0,79.0,-149.0,0.514,0.35,0.209,0.755
1064799,3931.0,5023.0,6109.0,33.0,276.0,-184.0,0.515,0.348,0.211,0.755
1064811,3735.0,6625.0,5711.0,-217.0,324.0,-524.0,0.519,0.343,0.213,0.754
1064833,4309.0,4295.0,5989.0,-299.0,386.0,-581.0,0.523,0.338,0.214,0.753
1064845,4081.0,4857.0,5671.0,-311.0,388.0,-551.0,0.527,0.333,0.215,0.752
1064862,4145.0,4915.0,5671.0,-383.0,393.0,-520.0,0.531,0.328,0.215,0.751
1064884,3967.0,5291.0,5441.0,-475.0,459.0,-450.0,0.534,0.322,0.215,0.752
1064906,4049.0,4557.0,5831.0,-482.0,540.0,-401.0,0.537,0.315,0.215,0.752
1064918,3875.0,4701.0,5563.0,-416.0,642.0,-302.0,0.539,0.308,0.216,0.753
1064940,3257.0,4721.0,5149.0,-437.0,660.0,-207.0,0.541,0.301,0.216,0.755
1064952,3035.0,3543.0,5725.0,-294.0,802.0,-32.0,0.54,0.294,0.218,0.758
1064974,3277.0,4309.0,5835.0,-223.0,1045.0,34.0,0.538,0.286,0.221,0.761
1064986,1773.0,4161.0,5823.0,-70.0,1011.0,283.0,0.534,0.279,0.225,0.766
1065008,2731.0,3603.0,5601.0,173.0,1122.0,395.0,0.529,0.273,0.231,0.77
1065020,1887.0,4659.0,4613.0,303.0,1177.0,470.0,0.522,0.267,0.237,0.774
1065042,1365.0,5333.0,4043.0,172.0,1052.0,655.0,0.515,0.262,0.242,0.78
1065064,455.0,4123.0,4141.0,32.0,963.0,1050.0,0.505,0.258,0.244,0.787
1065076,1049.0,5113.0,4889.0,41.0,886.0,1421.0,0.492,0.255,0.245,0.795
1065098,1307.0,4883.0,4895.0,128.0,857.0,1556.0,0.479,0.252,0.246,0.804
1065110,995.0,4971.0,4865.0,237.0,813.0,1621.0,0.464,0.251,0.248,0.813
1065132,1445.0,5269.0,5183.0,318.0,711.0,1628.0,0.449,0.251,0.249,0.82
1065144,1315.0,5571.0,5089.0,429.0,680.0,1576.0,0.435,0.252,0.252,0.827
1065166,909.0,5869.0,3857.0,428.0,534.0,1643.0,0.42,0.253,0.253,0.834
1065178,251.0,5271.0,4519.0,237.0,379.0,1797.0,0.404,0.255,0.252,0.841
1065200,755.0,3397.0,5739.0,349.0,318.0,1471.0,0.391,0.258,0.253,0.847
1065222,1025.0,5233.0,6811.0,981.0,473.0,818.0,0.382,0.259,0.26,0.848
1065234,1613.0,10311.0,6361.0,1454.0,538.0,435.0,0.373,0.261,0.272,0.847
1065256,1801.0,5917.0,6163.0,1972.0,1016.0,518.0,0.362,0.262,0.29,0.846
1065268,2379.0,8317.0,5115.0,2056.0,1176.0,815.0,0.347,0.261,0.308,0.846
1065290,1819.0,6507.0,4045.0,1639.0,1097.0,1947.0,0.325,0.264,0.32,0.85
1065302,-1607.0,4993.0,4737.0,1155.0,969.0,2072.0,0.303,0.266,0.327,0.855
1065324,-25.0,5989.0,4241.0,1190.0,465.0,910.0,0.291,0.268,0.335,0.855
1065336,2311.0,6671.0,3313.0,1388.0,489.0,479.0,0.282,0.27,0.347,0.853
1065358,1597.0,7997.0,3157.0,998.0,399.0,526.0,0.274,0.271,0.355,0.852
1065370,1663.0,7563.0,3949.0,350.0,220.0,595.0,0.268,0.273,0.357,0.852
1065392,1833.0,6325.0,5381.0,-78.0,225.0,766.0,0.261,0.273,0.355,0.855
1065414,2229.0,4635.0,5873.0,14.0,318.0,706.0,0.254,0.273,0.354,0.858
1065426,2367.0,5037.0,4551.0,543.0,546.0,679.0,0.246,0.272,0.358,0.859
1065448,1915.0,6545.0,4391.0,596.0,498.0,675.0,0.237,0.272,0.362,0.86
1065460,2355.0,5347.0,4743.0,550.0,404.0,651.0,0.229,0.272,0.366,0.86
1065482,1935.0,5607.0,4631.0,630.0,416.0,639.0,0.221,0.272,0.37,0.861
1065494,1599.0,6483.0,4115.0,546.0,421.0,767.0,0.212,0.272,0.373,0.861
1065516,2163.0,5033.0,4117.0,503.0,368.0,774.0,0.203,0.273,0.376,0.862
1065538,2251.0,7099.0,4819.0,383.0,307.0,651.0,0.195,0.273,0.378,0.862
1065550,2023.0,6359.0,5155.0,172.0,208.0,815.0,0.187,0.275,0.378,0.864
1065572,2385.0,4207.0,5177.0,267.0,239.0,760.0,0.18,0.276,0.379,0.865
1065584,2641.0,5259.0,4355.0,505.0,243.0,577.0,0.173,0.277,0.382,0.865
1065606,2201.0,7255.0,3741.0,204.0,87.0,642.0,0.167,0.279,0.382,0.865
1065618,2205.0,6503.0,4073.0,-183.0,-193.0,842.0,0.161,0.283,0.379,0.866
1065640,2929.0,4813.0,4579.0,-12.0,-185.0,783.0,0.155,0.287,0.376,0.867
1065652,3077.0,5401.0,3635.0,223.0,-164.0,655.0,0.15,0.291,0.376,0.867
1065674,3107.0,5519.0,3131.0,309.0,-207.0,764.0,0.143,0.296,0.376,0.866
1065696,2737.0,6861.0,3117.0,-44.0,-429.0,747.0,0.139,0.302,0.373,0.866
1065708,3535.0,7621.0,4447.0,-306.0,-509.0,796.0,0.135,0.308,0.368,0.867
1065730,3455.0,6591.0,4279.0,-618.0,-660.0,921.0,0.131,0.316,0.36,0.868
1065742,3737.0,5379.0,3751.0,-355.0,-544.0,909.0,0.127,0.323,0.354,0.869
1065764,3869.0,4659.0,3083.0,-236.0,-710.0,836.0,0.123,0.331,0.348,0.868
1065776,4003.0,4771.0,2709.0,-173.0,-796.0,715.0,0.12,0.34,0.344,0.867
1065798,3935.0,6671.0,4887.0,275.0,-734.0,862.0,0.114,0.349,0.343,0.865
1065810,4215.0,6757.0,5121.0,258.0,-822.0,745.0,0.11,0.358,0.341,0.862
1065832,4321.0,5357.0,4203.0,224.0,-890.0,870.0,0.105,0.368,0.339,0.859
1065844,4845.0,4763.0,3379.0,162.0,-1001.0,738.0,0.101,0.379,0.337,0.856
1065866,5399.0,5885.0,3057.0,-148.0,-1180.0,557.0,0.101,0.39,0.333,0.852
1065878,5833.0,5519.0,3537.0,-255.0,-1194.0,602.0,0.101,0.401,0.328,0.849
1065900,5199.0,4655.0,2771.0,-143.0,-1106.0,747.0,0.098,0.412,0.323,0.846
1065922,5671.0,6153.0,4013.0,-427.0,-1282.0,412.0,0.1,0.423,0.317,0.843
1065934,5967.0,5451.0,4077.0,-434.0,-1115.0,466.0,0.101,0.433,0.311,0.84
1065956,6421.0,6171.0,3347.0,-431.0,-1100.0,631.0,0.101,0.443,0.304,0.837
1065968,6229.0,4407.0,3007.0,-351.0,-996.0,899.0,0.098,0.453,0.297,0.835
1065990,6327.0,4755.0,2871.0,-305.0,-1041.0,622.0,0.097,0.463,0.291,0.832
1066002,6063.0,4247.0,2911.0,-279.0,-1040.0,585.0,0.096,0.472,0.285,0.829
1066024,6153.0,5645.0,3181.0,-272.0,-1091.0,576.0,0.096,0.482,0.28,0.825
1066036,6361.0,5323.0,3257.0,-333.0,-1117.0,790.0,0.094,0.492,0.273,0.821
1066058,6459.0,5159.0,3523.0,-254.0,-1036.0,912.0,0.09,0.502,0.266,0.818
1066080,6859.0,4167.0,2981.0,-252.0,-993.0,842.0,0.087,0.511,0.26,0.815
1066092,6891.0,4137.0,2201.0,-85.0,-875.0,708.0,0.084,0.52,0.255,0.811
1066114,7027.0,4151.0,2159.0,-55.0,-899.0,704.0,0.081,0.528,0.251,0.807
1066126,7071.0,4555.0,2791.0,-58.0,-890.0,682.0,0.078,0.536,0.246,0.804
1066148,6925.0,5139.0,3211.0,-150.0,-927.0,565.0,0.076,0.544,0.242,0.8
1066160,7415.0,4015.0,2917.0,-59.0,-819.0,665.0,0.073,0.552,0.238,0.796
1066182,7411.0,4109.0,2765.0,12.0,-755.0,554.0,0.07,0.559,0.235,0.793
1066194,7533.0,4627.0,3017.0,55.0,-684.0,509.0,0.067,0.565,0.232,0.789
1066216,7633.0,4353.0,2929.0,87.0,-627.0,546.0,0.064,0.57,0.23,0.786
1066228,7773.0,4215.0,2815.0,161.0,-547.0,491.0,0.06,0.576,0.228,0.783
1066251,7597.0,4225.0,2621.0,191.0,-508.0,415.0,0.057,0.58,0.227,0.78
1066263,7473.0,4289.0,2745.0,194.0,-489.0,356.0,0.054,0.585,0.227,0.777
1066286,7265.0,4279.0,2945.0,202.0,-456.0,338.0,0.051,0.589,0.226,0.774
1066308,7315.0,4547.0,2645.0,189.0,-443.0,264.0,0.049,0.592,0.226,0.772
1066320,7327.0,4045.0,2393.0,149.0,-448.0,251.0,0.047,0.596,0.226,0.769
1066342,7257.0,4021.0,2287.0,119.0,-447.0,230.0,0.046,0.599,0.226,0.767
1066354,7297.0,3979.0,2603.0,91.0,-477.0,191.0,0.044,0.603,0.225,0.764
1066376,7397.0,3785.0,2503.0,63.0,-505.0,211.0,0.043,0.607,0.225,0.761
1066388,7519.0,3705.0,2033.0,66.0,-540.0,219.0,0.042,0.611,0.224,0.758
1066410,7975.0,4013.0,1627.0,15.0,-670.0,234.0,0.042,0.616,0.223,0.754
1066422,8891.0,3671.0,1469.0,-14.0,-811.0,265.0,0.041,0.622,0.221,0.75
1066444,9697.0,3691.0,1583.0,64.0,-849.0,318.0,0.04,0.629,0.219,0.745
1066456,10015.0,4305.0,1799.0,97.0,-874.0,397.0,0.038,0.636,0.218,0.74
1066478,10185.0,4559.0,1785.0,47.0,-922.0,482.0,0.036,0.643,0.215,0.734
1066500,10397.0,3917.0,1381.0,7.0,-938.0,482.0,0.035,0.65,0.212,0.729
1066512,10427.0,3519.0,405.0,11.0,-871.0,324.0,0.034,0.657,0.21,0.723
1066534,10171.0,3203.0,-101.0,33.0,-693.0,128.0,0.034,0.662,0.21,0.719
1066546,9103.0,2951.0,-283.0,-10.0,-462.0,-31.0,0.034,0.665,0.21,0.716
1066568,8345.0,2343.0,-1343.0,-83.0,-297.0,-210.0,0.036,0.666,0.211,0.714
1066580,7309.0,1337.0,-1907.0,-68.0,-69.0,-293.0,0.038,0.667,0.212,0.713
1066602,6787.0,1717.0,-1257.0,88.0,131.0,-290.0,0.039,0.665,0.215,0.714
1066614,5919.0,2429.0,-319.0,284.0,340.0,-202.0,0.037,0.663,0.219,0.715
1066636,4841.0,3247.0,69.0,320.0,471.0,78.0,0.034,0.66,0.221,0.718
1066658,4423.0,3089.0,285.0,107.0,388.0,272.0,0.03,0.658,0.221,0.72
1066670,4975.0,2201.0,179.0,-39.0,325.0,297.0,0.027,0.656,0.219,0.722
1066692,4939.0,2095.0,-321.0,-192.0,198.0,286.0,0.025,0.655,0.216,0.724
1066704,4995.0,1323.0,-271.0,-376.0,105.0,331.0,0.025,0.655,0.212,0.725
1066726,4927.0,883.0,247.0,-443.0,43.0,356.0,0.025,0.655,0.207,0.726
1066738,5351.0,731.0,469.0,-430.0,18.0,238.0,0.025,0.655,0.203,0.727
1066760,5371.0,1341.0,361.0,-284.0,89.0,197.0,0.025,0.655,0.2,0.728
1066772,5779.0,1317.0,359.0,-289.0,40.0,197.0,0.025,0.655,0.198,0.729
1066794,6243.0,957.0,129.0,-190.0,59.0,156.0,0.025,0.655,0.196,0.73
1066806,6329.0,1825.0,77.0,-81.0,36.0,109.0,0.024,0.655,0.195,0.73
1066828,6669.0,2785.0,11.0,-246.0,-103.0,119.0,0.024,0.655,0.193,0.73
1066850,7511.0,2563.0,-113.0,-403.0,-196.0,193.0,0.025,0.657,0.189,0.729
1066867,8197.0,3003.0,-481.0,-363.0,-220.0,193.0,0.026,0.659,0.186,0.728
1066879,9079.0,3249.0,-357.0,-316.0,-218.0,204.0,0.027,0.661,0.183,0.728
1066901,9453.0,3197.0,547.0,-217.0,-166.0,286.0,0.026,0.662,0.18,0.727
1066913,9531.0,3435.0,1003.0,-175.0,-145.0,350.0,0.025,0.664,0.177,0.727
1066935,9611.0,2779.0,297.0,-220.0,-129.0,328.0,0.024,0.665,0.173,0.726
1066947,9211.0,2393.0,-205.0,-247.0,-115.0,270.0,0.023,0.666,0.17,0.726
1066969,8951.0,2429.0,93.0,-237.0,-100.0,191.0,0.023,0.667,0.168,0.726
1066991,8545.0,2413.0,281.0,-254.0,-82.0,118.0,0.024,0.668,0.166,0.725
1067003,8647.0,2163.0,297.0,-185.0,-20.0,65.0,0.024,0.668,0.164,0.726
1067025,8231.0,2449.0,-233.0,-96.0,60.0,-11.0,0.024,0.668,0.164,0.726
1067037,8047.0,2573.0,-391.0,-141.0,15.0,-27.0,0.025,0.667,0.164,0.726
1067059,8357.0,2059.0,-205.0,-171.0,-32.0,-39.0,0.026,0.668,0.163,0.726
1067071,8161.0,2207.0,-41.0,-165.0,-72.0,-73.0,0.027,0.668,0.163,0.726
1067093,8227.0,2229.0,137.0,-221.0,-149.0,-105.0,0.029,0.669,0.162,0.725
1067105,8213.0,1831.0,413.0,-281.0,-242.0,-124.0,0.032,0.67,0.161,0.724
1067127,8141.0,1811.0,389.0,-268.0,-274.0,-180.0,0.035,0.672,0.16,0.722
1067139,7805.0,2139.0,135.0,-267.0,-307.0,-207.0,0.038,0.673,0.16,0.721
1067161,7779.0,1945.0,211.0,-267.0,-336.0,-200.0,0.041,0.675,0.16,0.719
1067183,7547.0,2043.0,109.0,-286.0,-361.0,-209.0,0.044,0.677,0.159,0.717
1067195,7365.0,2057.0,59.0,-316.0,-396.0,-185.0,0.048,0.68,0.158,0.715
1067217,7303.0,1949.0,151.0,-296.0,-418.0,-152.0,0.051,0.682,0.157,0.712
1067229,7437.0,2123.0,63.0,-230.0,-427.0,-133.0,0.054,0.685,0.157,0.71
1067251,7695.0,2139.0,-23.0,-152.0,-412.0,-103.0,0.055,0.687,0.156,0.707
1067263,7833.0,2279.0,-265.0,-74.0,-397.0,-57.0,0.057,0.69,0.156,0.705
1067285,7941.0,2613.0,-663.0,-33.0,-396.0,-25.0,0.057,0.692,0.156,0.702
1067297,8039.0,2775.0,-867.0,-51.0,-414.0,32.0,0.058,0.695,0.156,0.699
1067319,8237.0,2317.0,-589.0,-24.0,-428.0,67.0,0.058,0.698,0.155,0.697
1067341,8189.0,2557.0,-161.0,35.0,-431.0,62.0,0.058,0.701,0.155,0.694
1067353,8175.0,2601.0,-113.0,47.0,-442.0,65.0,0.057,0.704,0.155,0.691
1067375,7901.0,2679.0,-241.0,63.0,-450.0,88.0,0.057,0.707,0.155,0.688
1067387,7967.0,2571.0,-189.0,33.0,-491.0,70.0,0.057,0.71,0.154,0.685
1067409,7941.0,2381.0,-435.0,70.0,-480.0,63.0,0.056,0.713,0.154,0.681
1067421,7747.0,2471.0,-357.0,124.0,-475.0,84.0,0.055,0.716,0.154,0.678
1067443,7699.0,2609.0,-239.0,92.0,-511.0,99.0,0.055,0.72,0.154,0.675
1067455,7707.0,2305.0,-417.0,65.0,-531.0,99.0,0.054,0.723,0.154,0.671
1067477,7881.0,2301.0,-591.0,138.0,-520.0,56.0,0.053,0.727,0.154,0.667
1067499,8033.0,2527.0,-645.0,218.0,-501.0,54.0,0.052,0.73,0.155,0.664
1067511,8123.0,2469.0,-711.0,204.0,-509.0,79.0,0.051,0.733,0.156,0.66
1067533,8473.0,2315.0,-599.0,234.0,-498.0,53.0,0.05,0.736,0.157,0.656
1067545,8383.0,2861.0,-709.0,215.0,-484.0,45.0,0.048,0.739,0.157,0.653
1067567,8517.0,2555.0,-601.0,158.0,-476.0,60.0,0.048,0.742,0.158,0.649
1067579,8589.0,2393.0,-719.0,158.0,-428.0,8.0,0.047,0.745,0.159,0.646
1067601,8719.0,2347.0,-711.0,192.0,-374.0,-33.0,0.046,0.747,0.16,0.643
1067613,8447.0,2429.0,-779.0,197.0,-325.0,-32.0,0.045,0.749,0.161,0.641
1067635,8285.0,2427.0,-339.0,133.0,-323.0,-5.0,0.045,0.751,0.162,0.638
1067647,8067.0,2317.0,-543.0,106.0,-272.0,-15.0,0.045,0.753,0.163,0.637
1067669,8145.0,2411.0,-817.0,142.0,-187.0,-48.0,0.044,0.754,0.164,0.635
1067691,7931.0,2045.0,-1241.0,190.0,-109.0,-43.0,0.043,0.754,0.165,0.634
1067703,7967.0,2273.0,-1275.0,196.0,-63.0,-33.0,0.042,0.755,0.167,0.633
1067725,7691.0,2555.0,-1177.0,116.0,-62.0,-8.0,0.041,0.755,0.167,0.633
1067737,7811.0,2223.0,-911.0,19.0,-62.0,-32.0,0.041,0.755,0.168,0.632
1067759,7817.0,1931.0,-1177.0,82.0,4.0,-84.0,0.041,0.755,0.169,0.632
1067771,7571.0,2249.0,-1139.0,164.0,37.0,-104.0,0.04,0.755,0.171,0.632
1067793,7417.0,2575.0,-971.0,104.0,8.0,-64.0,0.04,0.755,0.172,0.632
1067805,7377.0,2487.0,-897.0,29.0,-19.0,-56.0,0.04,0.754,0.173,0.632
1067827,7437.0,2641.0,-851.0,5.0,-22.0,-53.0,0.04,0.754,0.174,0.632
1067849,7347.0,2475.0,-1355.0,3.0,3.0,-30.0,0.04,0.754,0.174,0.632
1067861,7289.0,2407.0,-1501.0,10.0,9.0,-30.0,0.04,0.754,0.174,0.632
1067883,7753.0,1973.0,-1275.0,35.0,17.0,-67.0,0.04,0.754,0.175,0.632
1067895,7915.0,2185.0,-733.0,237.0,81.0,-105.0,0.038,0.753,0.177,0.632
1067917,7827.0,3619.0,-997.0,63.0,-32.0,-40.0,0.038,0.753,0.178,0.632
1067929,8257.0,2451.0,-1249.0,-149.0,-104.0,27.0,0.039,0.754,0.177,0.631
1067951,7913.0,2133.0,-1457.0,-33.0,-91.0,-35.0,0.039,0.754,0.178,0.631
1067963,7791.0,1959.0,-1633.0,111.0,-91.0,-82.0,0.039,0.755,0.179,0.63
1067985,7763.0,1917.0,-1401.0,260.0,-54.0,-84.0,0.038,0.755,0.181,0.629
1067997,7299.0,2833.0,25.0,177.0,-63.0,8.0,0.036,0.755,0.182,0.629
1068020,7051.0,2743.0,645.0,26.0,-122.0,41.0,0.036,0.756,0.182,0.628
1068042,7275.0,2919.0,671.0,28.0,-96.0,63.0,0.036,0.756,0.182,0.628
1068054,7619.0,4039.0,561.0,-111.0,-81.0,133.0,0.036,0.756,0.181,0.628
1068076,8325.0,2977.0,859.0,-266.0,-67.0,169.0,0.037,0.756,0.178,0.628
1068088,8833.0,2089.0,143.0,-202.0,95.0,91.0,0.037,0.756,0.177,0.629
1068110,9247.0,3239.0,319.0,-95.0,273.0,50.0,0.037,0.754,0.176,0.631
1068122,9753.0,3415.0,1117.0,-61.0,494.0,46.0,0.036,0.752,0.176,0.635
1068144,9825.0,3421.0,1525.0,-50.0,726.0,-4.0,0.035,0.747,0.176,0.64
1068156,9849.0,2971.0,1223.0,-130.0,929.0,-138.0,0.035,0.741,0.177,0.647
1068178,9655.0,3695.0,1705.0,-207.0,1117.0,-222.0,0.036,0.734,0.178,0.654
1068190,9557.0,3795.0,1823.0,-362.0,1252.0,-260.0,0.037,0.726,0.178,0.663
1068212,9687.0,3857.0,1743.0,-453.0,1414.0,-311.0,0.04,0.716,0.178,0.674
1068234,9593.0,4247.0,2187.0,-531.0,1581.0,-313.0,0.042,0.706,0.177,0.685
1068246,9773.0,4285.0,2759.0,-702.0,1663.0,-300.0,0.046,0.694,0.176,0.697
1068268,10389.0,3927.0,3627.0,-731.0,1786.0,-367.0,0.05,0.681,0.175,0.709
1068280,10715.0,4125.0,4101.0,-604.0,2031.0,-419.0,0.053,0.667,0.174,0.723
1068302,10715.0,4251.0,3043.0,-553.0,2236.0,-440.0,0.055,0.651,0.175,0.737
1068314,10773.0,4185.0,2041.0,-528.0,2355.0,-490.0,0.057,0.633,0.176,0.752
1068336,10251.0,5481.0,2283.0,-619.0,2482.0,-549.0,0.06,0.614,0.176,0.767
1068348,10829.0,4461.0,3271.0,-563.0,2748.0,-731.0,0.064,0.593,0.178,0.783
1068370,11383.0,4659.0,3589.0,-502.0,2823.0,-801.0,0.067,0.57,0.181,0.799
1068392,10241.0,6351.0,3857.0,-721.0,2899.0,-984.0,0.073,0.546,0.183,0.814
1068404,10921.0,5821.0,4329.0,-958.0,2863.0,-958.0,0.08,0.522,0.182,0.829
1068426,10819.0,5083.0,4049.0,-880.0,3001.0,-973.0,0.086,0.496,0.182,0.844
1068438,10733.0,6523.0,3637.0,-885.0,3160.0,-861.0,0.091,0.469,0.182,0.859
1068460,10625.0,5805.0,4255.0,-1010.0,3203.0,-867.0,0.097,0.441,0.181,0.874
1068472,9749.0,5297.0,4557.0,-944.0,3234.0,-1182.0,0.105,0.411,0.181,0.887
1068494,9597.0,5413.0,3847.0,-861.0,3100.0,-1434.0,0.114,0.382,0.182,0.899
1068506,8949.0,6493.0,4871.0,-1061.0,3098.0,-1338.0,0.124,0.353,0.181,0.91
1068528,8705.0,5077.0,5267.0,-1197.0,3046.0,-1272.0,0.133,0.323,0.179,0.92
1068540,7775.0,5765.0,5333.0,-1183.0,3039.0,-1280.0,0.142,0.293,0.176,0.929
1068563,7515.0,5247.0,5909.0,-1351.0,2928.0,-1318.0,0.152,0.264,0.172,0.937
1068575,7189.0,3895.0,5837.0,-1314.0,2993.0,-1151.0,0.161,0.234,0.167,0.944
1068598,6179.0,4525.0,5083.0,-1076.0,3061.0,-1138.0,0.168,0.204,0.165,0.95
1068620,5631.0,5541.0,4805.0,-1127.0,2840.0,-1220.0,0.177,0.175,0.162,0.955
1068632,4805.0,4035.0,5313.0,-1439.0,2562.0,-1544.0,0.189,0.148,0.156,0.958
1068654,5181.0,2587.0,5233.0,-1291.0,2667.0,-1193.0,0.197,0.121,0.15,0.961
1068666,3699.0,3099.0,5011.0,-1233.0,2582.0,-1117.0,0.205,0.094,0.145,0.963
1068688,3145.0,2709.0,4759.0,-1163.0,2397.0,-1162.0,0.213,0.069,0.14,0.964
1068700,2925.0,2213.0,4691.0,-1001.0,2276.0,-1089.0,0.221,0.045,0.136,0.965
1068722,2305.0,1953.0,4493.0,-872.0,2161.0,-1016.0,0.228,0.023,0.133,0.964
1068734,1937.0,1623.0,4085.0,-785.0,2049.0,-951.0,0.234,0.002,0.131,0.963
1068756,1241.0,623.0,3649.0,-701.0,1857.0,-1015.0,0.241,-0.018,0.129,0.962
1068768,1009.0,1467.0,3933.0,-651.0,1736.0,-887.0,0.248,-0.036,0.127,0.96
1068790,381.0,1659.0,3161.0,-564.0,1560.0,-906.0,0.254,-0.052,0.125,0.958
1068812,557.0,937.0,3117.0,-534.0,1378.0,-903.0,0.261,-0.066,0.123,0.955
1068824,1023.0,211.0,2563.0,-538.0,1281.0,-856.0,0.267,-0.08,0.121,0.953
1068846,895.0,3.0,2239.0,-554.0,1238.0,-665.0,0.272,-0.093,0.118,0.951
1068858,459.0,-301.0,2119.0,-528.0,1192.0,-532.0,0.275,-0.105,0.116,0.949
1068875,-191.0,-321.0,1497.0,-532.0,1181.0,-149.0,0.275,-0.117,0.115,0.947
1068897,-919.0,-13.0,1819.0,-379.0,982.0,-38.0,0.274,-0.127,0.114,0.946
1068909,-1035.0,-115.0,1629.0,-420.0,730.0,-26.0,0.274,-0.134,0.112,0.946
1068931,-1107.0,-955.0,1805.0,-415.0,518.0,395.0,0.27,-0.139,0.11,0.946
1068943,-1089.0,-1061.0,1833.0,-252.0,234.0,550.0,0.265,-0.141,0.109,0.948
1068965,-1313.0,-1905.0,1867.0,-78.0,-64.0,542.0,0.261,-0.14,0.109,0.949
1068987,-1297.0,-1125.0,2057.0,118.0,-296.0,496.0,0.258,-0.136,0.11,0.95
1068999,-1137.0,-1245.0,2237.0,244.0,-592.0,420.0,0.256,-0.13,0.112,0.951
1069021,-1155.0,-755.0,2515.0,400.0,-734.0,408.0,0.254,-0.122,0.114,0.953
1069033,-859.0,-999.0,2769.0,520.0,-915.0,322.0,0.254,-0.112,0.117,0.954
1069055,-605.0,-795.0,2933.0,772.0,-1076.0,317.0,0.253,-0.1,0.122,0.954
1069067,-107.0,-289.0,3277.0,946.0,-1266.0,324.0,0.254,-0.086,0.128,0.955
1069089,263.0,761.0,3319.0,1023.0,-1420.0,364.0,0.254,-0.07,0.134,0.955
1069111,829.0,343.0,4039.0,987.0,-1573.0,467.0,0.253,-0.053,0.139,0.956
1069123,1081.0,787.0,4643.0,1205.0,-1677.0,553.0,0.251,-0.034,0.146,0.956
1069145,1033.0,1619.0,5033.0,1375.0,-1800.0,628.0,0.249,-0.014,0.154,0.956
1069157,1791.0,2657.0,5361.0,1327.0,-1975.0,677.0,0.247,0.008,0.162,0.955
1069179,2835.0,2631.0,5389.0,1211.0,-2037.0,728.0,0.244,0.03,0.168,0.955
1069191,3473.0,2039.0,5933.0,1363.0,-1990.0,884.0,0.239,0.052,0.175,0.954
1069213,3705.0,3031.0,5961.0,1576.0,-1933.0,1000.0,0.233,0.076,0.184,0.952
1069225,4149.0,4315.0,6031.0,1354.0,-2025.0,1027.0,0.227,0.099,0.191,0.95
1069247,4661.0,3043.0,6711.0,1322.0,-2042.0,1287.0,0.218,0.123,0.197,0.948
1069269,4303.0,5063.0,6975.0,1622.0,-2116.0,1124.0,0.211,0.148,0.205,0.944
1069281,4477.0,7385.0,7277.0,1715.0,-2227.0,1119.0,0.203,0.173,0.214,0.94
1069303,5669.0,6023.0,7821.0,1536.0,-2220.0,1502.0,0.193,0.198,0.221,0.935
1069315,5561.0,5799.0,7245.0,1366.0,-2142.0,1757.0,0.18,0.223,0.225,0.931
1069337,4255.0,3549.0,6561.0,1703.0,-2419.0,-27.0,0.182,0.247,0.236,0.922
1069349,8647.0,9897.0,6431.0,1922.0,-1762.0,2614.0,0.159,0.272,0.243,0.918
1069371,5349.0,7401.0,6687.0,975.0,-1807.0,2523.0,0.139,0.294,0.242,0.914
1069383,5637.0,5687.0,7441.0,1209.0,-2065.0,1067.0,0.132,0.316,0.247,0.907
1069405,6345.0,5289.0,6531.0,1573.0,-2149.0,563.0,0.127,0.337,0.255,0.897
1069417,7737.0,8585.0,5875.0,1591.0,-1772.0,1226.0,0.117,0.357,0.263,0.889
1069439,8295.0,7693.0,6155.0,1365.0,-1688.0,1720.0,0.102,0.377,0.266,0.881
1069451,7561.0,6615.0,6031.0,1164.0,-1847.0,1534.0,0.09,0.397,0.268,0.873
1069473,8073.0,6555.0,5827.0,1342.0,-1644.0,1820.0,0.074,0.416,0.271,0.865
1069495,7607.0,7549.0,5963.0,1421.0,-1433.0,2326.0,0.054,0.434,0.272,0.857
1069507,7623.0,6373.0,5673.0,1341.0,-1572.0,2269.0,0.034,0.453,0.273,0.848
1069529,7635.0,6515.0,5105.0,1167.0,-1544.0,1878.0,0.018,0.47,0.274,0.839
1069541,7845.0,6191.0,4775.0,1114.0,-1602.0,1331.0,0.007,0.487,0.276,0.829
1069563,7985.0,6875.0,4891.0,1060.0,-1510.0,1254.0,0.004,-0.501,-0.278,-0.819
1069575,7717.0,6267.0,4569.0,700.0,-1588.0,1188.0,0.012,-0.517,-0.278,-0.81
1069597,7945.0,5275.0,4463.0,660.0,-1598.0,1243.0,0.02,-0.532,-0.278,-0.8
1069609,7829.0,5247.0,4467.0,783.0,-1594.0,1204.0,0.029,-0.546,-0.278,-0.79
1069631,7759.0,5219.0,4391.0,833.0,-1580.0,1103.0,0.038,-0.561,-0.279,-0.779
1069653,7815.0,4467.0,4097.0,914.0,-1487.0,1042.0,0.046,-0.574,-0.28,-0.768
1069665,7619.0,5917.0,3477.0,1009.0,-1340.0,866.0,0.055,-0.585,-0.284,-0.758
1069687,7845.0,5397.0,3499.0,718.0,-1294.0,942.0,0.062,-0.596,-0.285,-0.748
1069699,7907.0,4683.0,3595.0,581.0,-1176.0,831.0,0.068,-0.606,-0.285,-0.739
1069721,7537.0,4823.0,4115.0,595.0,-1049.0,708.0,0.074,-0.615,-0.286,-0.731
1069733,7273.0,5165.0,4439.0,477.0,-930.0,672.0,0.079,-0.623,-0.286,-0.724
1069755,7193.0,5303.0,4027.0,281.0,-837.0,571.0,0.083,-0.629,-0.286,-0.718
1069767,7501.0,4787.0,3945.0,118.0,-717.0,433.0,0.085,-0.635,-0.285,-0.713
1069789,7305.0,4333.0,3885.0,69.0,-545.0,277.0,0.086,-0.639,-0.284,-0.709
1069801,6993.0,4571.0,4071.0,48.0,-407.0,69.0,0.086,-0.642,-0.285,-0.707
1069824,7021.0,4677.0,4453.0,15.0,-290.0,-85.0,0.085,-0.644,-0.286,-0.705
1069846,6963.0,4903.0,4339.0,-106.0,-172.0,-242.0,0.083,-0.644,-0.287,-0.704
1069858,7065.0,5767.0,4347.0,-306.0,-58.0,-389.0,0.079,-0.644,-0.288,-0.705
1069880,7541.0,5211.0,4333.0,-565.0,72.0,-473.0,0.073,-0.642,-0.287,-0.707
1069892,7761.0,5371.0,4331.0,-592.0,291.0,-675.0,0.066,-0.639,-0.287,-0.711
1069914,8017.0,5373.0,4513.0,-732.0,482.0,-775.0,0.058,-0.634,-0.287,-0.716
1069926,8259.0,5547.0,4485.0,-806.0,689.0,-937.0,0.049,-0.627,-0.287,-0.722
1069948,8621.0,6039.0,4479.0,-960.0,843.0,-1118.0,0.039,-0.619,-0.287,-0.73
1069960,9085.0,5989.0,4885.0,-1060.0,1082.0,-1220.0,0.027,-0.608,-0.287,-0.74
1069982,9167.0,6801.0,5153.0,-1089.0,1311.0,-1371.0,0.016,-0.596,-0.287,-0.75
1069994,9457.0,6875.0,5289.0,-1336.0,1449.0,-1449.0,0.003,-0.582,-0.286,-0.762
1070016,9919.0,6551.0,5295.0,-1398.0,1613.0,-1542.0,0.011,0.566,0.284,0.774
1070038,10009.0,7677.0,5529.0,-1363.0,1767.0,-1725.0,0.026,0.548,0.284,0.786
1070050,10369.0,8061.0,5721.0,-1805.0,1913.0,-1523.0,0.041,0.529,0.279,0.8
1070072,10895.0,8431.0,6119.0,-1853.0,2056.0,-1665.0,0.056,0.509,0.274,0.814
1070084,11739.0,8375.0,5623.0,-1826.0,2266.0,-1762.0,0.072,0.486,0.27,0.828
1070106,11445.0,10039.0,6015.0,-1774.0,2569.0,-1809.0,0.087,0.46,0.266,0.843
1070118,10919.0,9863.0,6277.0,-1908.0,2774.0,-1751.0,0.102,0.432,0.261,0.857
1070140,11503.0,7655.0,5901.0,-2190.0,2783.0,-1704.0,0.117,0.403,0.253,0.872
1070162,11347.0,5373.0,5595.0,-2003.0,2913.0,-2547.0,0.138,0.371,0.249,0.884
1070174,10701.0,9335.0,4765.0,-1945.0,3241.0,-2292.0,0.156,0.336,0.245,0.896
1070196,9121.0,8079.0,5387.0,-2405.0,3221.0,-2058.0,0.173,0.3,0.236,0.908
1070208,7969.0,5875.0,5631.0,-2521.0,3271.0,-2026.0,0.189,0.264,0.226,0.918
1070230,7095.0,5825.0,5867.0,-2239.0,3264.0,-2093.0,0.206,0.227,0.217,0.927
1070242,6151.0,5259.0,5557.0,-2117.0,3053.0,-2162.0,0.222,0.193,0.209,0.933
1070264,6203.0,3671.0,5663.0,-1875.0,2900.0,-2085.0,0.238,0.159,0.203,0.936
1070276,4803.0,4309.0,4657.0,-1762.0,2817.0,-1918.0,0.252,0.128,0.196,0.939
1070298,4219.0,4095.0,4305.0,-1681.0,2596.0,-1857.0,0.265,0.098,0.19,0.94
1070310,4121.0,4503.0,4181.0,-1598.0,2422.0,-1552.0,0.276,0.071,0.183,0.941
1070332,3725.0,3917.0,3757.0,-1553.0,2287.0,-1238.0,0.284,0.045,0.176,0.941
1070344,3011.0,2251.0,4139.0,-1490.0,2173.0,-1001.0,0.29,0.021,0.169,0.942
1070367,2253.0,1985.0,4693.0,-1310.0,1990.0,-859.0,0.295,-0.002,0.163,0.941
1070389,1785.0,1113.0,4109.0,-1028.0,1865.0,-833.0,0.3,-0.022,0.159,0.94
1070401,1517.0,1953.0,3805.0,-716.0,1783.0,-865.0,0.305,-0.041,0.158,0.938
1070423,1259.0,1967.0,3563.0,-636.0,1658.0,-854.0,0.31,-0.058,0.157,0.936
1070435,1035.0,2727.0,3665.0,-633.0,1519.0,-773.0,0.315,-0.074,0.155,0.933
1070457,1115.0,1865.0,3331.0,-865.0,1459.0,-322.0,0.316,-0.09,0.152,0.932
1070469,1369.0,1209.0,3043.0,-1003.0,1461.0,94.0,0.312,-0.105,0.147,0.933
1070491,1093.0,295.0,2227.0,-873.0,1479.0,325.0,0.307,-0.12,0.145,0.933
1070503,1167.0,797.0,1257.0,-663.0,1357.0,179.0,0.304,-0.133,0.143,0.933
1070525,743.0,599.0,837.0,-855.0,1232.0,-48.0,0.302,-0.146,0.139,0.932
1070537,547.0,-1003.0,943.0,-964.0,1149.0,11.0,0.3,-0.159,0.134,0.931
1070559,-689.0,-457.0,1733.0,-822.0,1174.0,318.0,0.295,-0.171,0.131,0.931
1070581,-1383.0,-1727.0,1915.0,-751.0,946.0,50.0,0.293,-0.181,0.127,0.93
1070593,-1389.0,-2365.0,1337.0,-347.0,862.0,326.0,0.289,-0.188,0.127,0.93
1070615,-2231.0,-375.0,1237.0,-149.0,580.0,-16.0,0.289,-0.194,0.127,0.929
1070627,-1859.0,33.0,1553.0,72.0,263.0,9.0,0.29,-0.196,0.129,0.928
1070649,-2105.0,-529.0,1575.0,34.0,-107.0,-35.0,0.291,-0.194,0.129,0.928
1070661,-2219.0,-1001.0,2073.0,169.0,-401.0,4.0,0.292,-0.19,0.13,0.928
1070683,-2397.0,-1639.0,2463.0,349.0,-725.0,49.0,0.294,-0.183,0.131,0.929
1070695,-2251.0,-1529.0,2767.0,646.0,-963.0,192.0,0.296,-0.172,0.134,0.93
1070717,-2029.0,-979.0,3207.0,989.0,-1181.0,266.0,0.298,-0.159,0.14,0.931
1070739,-1873.0,-133.0,3217.0,1228.0,-1411.0,330.0,0.299,-0.142,0.148,0.932
1070751,-1567.0,269.0,2759.0,1224.0,-1680.0,458.0,0.3,-0.123,0.154,0.933
1070773,-705.0,95.0,3315.0,1185.0,-1829.0,818.0,0.298,-0.103,0.161,0.935
1070785,-433.0,1589.0,4369.0,1260.0,-2000.0,895.0,0.295,-0.08,0.167,0.937
1070807,1089.0,1405.0,4793.0,1422.0,-2058.0,889.0,0.292,-0.057,0.174,0.939
1070819,1127.0,2251.0,4659.0,1633.0,-2035.0,948.0,0.289,-0.033,0.183,0.939
1070841,2107.0,2185.0,5303.0,1544.0,-2091.0,1162.0,0.283,-0.008,0.192,0.94
1070863,2609.0,1271.0,4987.0,1609.0,-2186.0,1269.0,0.277,0.018,0.2,0.94
1070880,3123.0,3911.0,4933.0,1687.0,-2202.0,1371.0,0.269,0.044,0.209,0.939
1070892,3069.0,5309.0,5703.0,1594.0,-2202.0,1457.0,0.261,0.072,0.217,0.938
1070914,3721.0,6919.0,6581.0,1342.0,-2321.0,1377.0,0.253,0.098,0.222,0.937
1070926,4327.0,4467.0,7177.0,1251.0,-2383.0,1392.0,0.245,0.125,0.226,0.935
1070948,4641.0,5171.0,7029.0,1471.0,-2275.0,1688.0,0.234,0.152,0.231,0.932
1070960,4671.0,6793.0,6993.0,1469.0,-2269.0,1830.0,0.221,0.179,0.236,0.929
1070982,5951.0,7109.0,7525.0,1231.0,-2327.0,1988.0,0.208,0.206,0.238,0.926
1070994,6979.0,5977.0,7489.0,1476.0,-2306.0,1762.0,0.195,0.233,0.243,0.921
1071016,7069.0,4807.0,7077.0,1330.0,-2262.0,2157.0,0.179,0.26,0.245,0.917
1071028,6269.0,8349.0,6089.0,1516.0,-2075.0,2138.0,0.162,0.285,0.249,0.911
1071050,6267.0,8529.0,5885.0,1119.0,-2364.0,1489.0,0.153,0.31,0.251,0.904
1071072,7431.0,5219.0,6091.0,995.0,-2719.0,570.0,0.151,0.336,0.254,0.894
1071084,8221.0,4027.0,6817.0,1024.0,-2484.0,1686.0,0.14,0.362,0.253,0.886
1071106,6905.0,7513.0,6163.0,1242.0,-2176.0,1534.0,0.129,0.385,0.255,0.877
1071118,7893.0,6371.0,5205.0,1271.0,-2118.0,1779.0,0.115,0.408,0.257,0.868
1071140,8401.0,6595.0,4227.0,1225.0,-2096.0,1920.0,0.1,0.431,0.257,0.859
1071152,9413.0,5955.0,4285.0,1010.0,-1971.0,3022.0,0.076,0.455,0.251,0.851
1071174,7957.0,7315.0,4991.0,1114.0,-1920.0,2429.0,0.057,0.477,0.248,0.842
1071186,8759.0,6197.0,5541.0,969.0,-2115.0,1565.0,0.045,0.497,0.247,0.83
1071208,9465.0,5657.0,5453.0,1044.0,-1966.0,1574.0,0.032,0.517,0.247,0.819
1071220,9351.0,5741.0,4983.0,1110.0,-1851.0,1481.0,0.02,0.534,0.248,0.808
1071242,8891.0,6971.0,4505.0,1178.0,-1790.0,1339.0,0.008,0.551,0.249,0.796
1071264,9023.0,6429.0,4201.0,1100.0,-1768.0,1368.0,0.004,-0.567,-0.25,-0.784
1071276,9119.0,5523.0,3881.0,1031.0,-1776.0,1300.0,0.015,-0.583,-0.251,-0.772
1071298,8923.0,5305.0,4235.0,985.0,-1757.0,1119.0,0.024,-0.598,-0.252,-0.76
1071310,8573.0,5337.0,4411.0,941.0,-1636.0,1058.0,0.033,-0.612,-0.254,-0.748
1071332,8243.0,6137.0,4103.0,911.0,-1501.0,994.0,0.042,-0.624,-0.255,-0.737
1071344,7977.0,5099.0,3909.0,675.0,-1441.0,1028.0,0.05,-0.636,-0.254,-0.727
1071366,7753.0,5077.0,3417.0,547.0,-1395.0,964.0,0.057,-0.648,-0.253,-0.716
1071388,7763.0,4245.0,3601.0,451.0,-1313.0,943.0,0.063,-0.658,-0.251,-0.707
1071400,7731.0,4151.0,3687.0,425.0,-1181.0,868.0,0.069,-0.668,-0.25,-0.698
1071422,7451.0,5013.0,3595.0,428.0,-1045.0,768.0,0.074,-0.676,-0.249,-0.69
1071434,7793.0,4593.0,3295.0,320.0,-943.0,680.0,0.079,-0.683,-0.247,-0.682
1071456,7373.0,2771.0,2591.0,231.0,-780.0,403.0,0.081,-0.689,-0.247,-0.677
1071468,7199.0,5083.0,3589.0,81.0,-584.0,-71.0,0.08,-0.692,-0.249,-0.673
1071490,8737.0,4197.0,3863.0,-77.0,-530.0,111.0,0.079,-0.696,-0.248,-0.67
1071502,7785.0,4317.0,4217.0,-133.0,-300.0,-51.0,0.078,-0.697,-0.248,-0.668
1071524,8171.0,4351.0,4281.0,-157.0,-124.0,-267.0,0.075,-0.698,-0.249,-0.668
1071536,7799.0,4607.0,4077.0,-315.0,149.0,-384.0,0.071,-0.696,-0.25,-0.669
1071558,7783.0,4609.0,3809.0,-433.0,329.0,-497.0,0.067,-0.693,-0.251,-0.673
1071580,7913.0,5045.0,3863.0,-638.0,494.0,-616.0,0.06,-0.689,-0.251,-0.678
1071592,8285.0,4341.0,3975.0,-784.0,730.0,-712.0,0.053,-0.683,-0.25,-0.685
1071614,7957.0,4707.0,4141.0,-770.0,1001.0,-887.0,0.045,-0.674,-0.251,-0.693
1071626,8009.0,5557.0,4355.0,-986.0,1124.0,-1018.0,0.035,-0.665,-0.251,-0.703
1071648,8837.0,5995.0,3709.0,-1301.0,1243.0,-1142.0,0.023,-0.654,-0.249,-0.714
1071660,9465.0,6049.0,3083.0,-1466.0,1439.0,-1181.0,0.01,-0.642,-0.247,-0.726
1071682,9899.0,5311.0,3451.0,-1564.0,1669.0,-1245.0,0.004,0.628,0.244,0.739
1071694,10351.0,5331.0,3979.0,-1453.0,1933.0,-1368.0,0.017,0.611,0.242,0.754
1071716,10387.0,6561.0,4847.0,-1438.0,2104.0,-1525.0,0.031,0.592,0.241,0.768
1071728,10905.0,7979.0,4843.0,-1987.0,2283.0,-1401.0,0.046,0.572,0.235,0.784
1071750,11619.0,7341.0,4489.0,-2008.0,2428.0,-1382.0,0.061,0.55,0.229,0.801
1071772,11217.0,7199.0,4697.0,-2108.0,2488.0,-1368.0,0.076,0.527,0.222,0.817
1071784,11311.0,6657.0,5253.0,-2069.0,2584.0,-1537.0,0.092,0.502,0.216,0.832
1071806,11499.0,6323.0,5499.0,-1950.0,2675.0,-1600.0,0.108,0.476,0.21,0.847
1071818,10695.0,5461.0,4997.0,-1670.0,2800.0,-1840.0,0.124,0.449,0.208,0.86
1071840,9557.0,7551.0,5191.0,-1816.0,2571.0,-2282.0,0.145,0.421,0.206,0.871
1071852,11309.0,6311.0,5437.0,-1782.0,2720.0,-1620.0,0.159,0.393,0.202,0.883
1071874,9575.0,6023.0,5603.0,-1786.0,2845.0,-1272.0,0.171,0.365,0.196,0.894
1071886,9031.0,6365.0,5163.0,-1665.0,2835.0,-1414.0,0.183,0.336,0.191,0.904
1071908,8737.0,6611.0,5419.0,-1741.0,2700.0,-1554.0,0.196,0.307,0.186,0.913
1071930,8729.0,4349.0,5739.0,-1732.0,2662.0,-1644.0,0.21,0.278,0.181,0.92
1071942,8069.0,5173.0,5311.0,-1437.0,2849.0,-1409.0,0.221,0.248,0.178,0.926
1071964,7033.0,5627.0,5391.0,-1423.0,2807.0,-1463.0,0.232,0.219,0.174,0.932
1071976,6937.0,4303.0,6097.0,-1399.0,2770.0,-1516.0,0.244,0.189,0.171,0.936
1071998,6155.0,3443.0,5877.0,-1119.0,2897.0,-1408.0,0.253,0.159,0.17,0.939
1072010,4835.0,4611.0,4983.0,-946.0,2899.0,-1360.0,0.262,0.13,0.171,0.941
1072032,4037.0,4371.0,5037.0,-984.0,2694.0,-1457.0,0.271,0.103,0.171,0.942
1072054,3659.0,3161.0,6177.0,-933.0,2517.0,-1573.0,0.282,0.077,0.17,0.941
1072066,2733.0,2469.0,5599.0,-762.0,2482.0,-1510.0,0.292,0.051,0.171,0.94
1072078,1487.0,2735.0,5389.0,-679.0,2382.0,-1329.0,0.3,0.026,0.172,0.938
1072101,1033.0,2139.0,5301.0,-655.0,2242.0,-1210.0,0.307,0.003,0.173,0.936
1072113,1195.0,1973.0,4051.0,-497.0,2097.0,-967.0,0.313,-0.018,0.175,0.933
1072136,1351.0,2459.0,2451.0,-354.0,1993.0,-741.0,0.316,-0.038,0.177,0.931
1072158,1661.0,2453.0,2335.0,-323.0,1843.0,-797.0,0.32,-0.056,0.18,0.928
1072170,373.0,3985.0,1023.0,-792.0,1642.0,-1380.0,0.33,-0.075,0.177,0.924
1072192,2645.0,2115.0,1281.0,-1151.0,1633.0,-889.0,0.334,-0.094,0.171,0.922
1072204,1363.0,-711.0,1543.0,-1415.0,1635.0,-855.0,0.338,-0.113,0.164,0.92
1072226,709.0,-2769.0,1895.0,-1081.0,1678.0,-826.0,0.342,-0.132,0.159,0.917
1072238,-445.0,-1725.0,1405.0,-770.0,1595.0,-956.0,0.347,-0.149,0.156,0.913
1072260,-1233.0,369.0,1145.0,-612.0,1440.0,-874.0,0.352,-0.165,0.155,0.908
1072272,-1991.0,1455.0,1291.0,-814.0,1082.0,-818.0,0.357,-0.178,0.15,0.905
1072294,-1761.0,803.0,1353.0,-771.0,831.0,-706.0,0.361,-0.188,0.145,0.902
1072316,-1527.0,-1349.0,1375.0,-611.0,576.0,-623.0,0.365,-0.196,0.141,0.899
1072328,-1673.0,-2395.0,1785.0,-345.0,396.0,-364.0,0.368,-0.2,0.139,0.897
1072350,-1909.0,-1703.0,2121.0,73.0,193.0,-62.0,0.369,-0.202,0.14,0.896
1072362,-2271.0,-2503.0,1781.0,405.0,-164.0,13.0,0.371,-0.199,0.143,0.896
1072384,-2347.0,-895.0,1487.0,655.0,-501.0,138.0,0.373,-0.192,0.148,0.896
1072396,-1721.0,-1431.0,2017.0,761.0,-920.0,217.0,0.374,-0.181,0.151,0.897
1072418,-1415.0,-2205.0,2741.0,1062.0,-1171.0,282.0,0.376,-0.167,0.157,0.898
1072430,-1141.0,-1183.0,2601.0,1442.0,-1316.0,406.0,0.378,-0.15,0.165,0.899
1072452,-1047.0,-679.0,2467.0,1678.0,-1496.0,395.0,0.38,-0.13,0.174,0.899
1072464,-615.0,1221.0,2725.0,1728.0,-1637.0,624.0,0.381,-0.109,0.184,0.9
1072486,197.0,1131.0,3519.0,1506.0,-1825.0,901.0,0.378,-0.087,0.191,0.902
1072508,513.0,465.0,3641.0,1581.0,-1884.0,1088.0,0.375,-0.063,0.199,0.903
1072520,1095.0,1629.0,4151.0,1749.0,-1938.0,1107.0,0.371,-0.038,0.207,0.904
1072542,1589.0,2863.0,4947.0,1841.0,-2024.0,1225.0,0.366,-0.012,0.216,0.905
1072554,2323.0,2945.0,4787.0,1770.0,-2164.0,1432.0,0.359,0.015,0.224,0.906
1072576,2781.0,3295.0,4747.0,1857.0,-2204.0,1626.0,0.35,0.044,0.232,0.907
1072588,2265.0,3447.0,5693.0,1852.0,-2259.0,1850.0,0.339,0.073,0.239,0.907
1072610,2955.0,5427.0,5567.0,1843.0,-2354.0,2017.0,0.326,0.104,0.246,0.907
1072632,3799.0,5669.0,5447.0,1582.0,-2505.0,2273.0,0.311,0.137,0.249,0.907
1072644,4889.0,6419.0,5957.0,1329.0,-2665.0,2167.0,0.298,0.168,0.25,0.906
1072666,6021.0,6375.0,5507.0,1265.0,-2726.0,1976.0,0.286,0.2,0.249,0.903
1072678,6991.0,7765.0,6327.0,1243.0,-2564.0,2317.0,0.271,0.23,0.248,0.901
1072700,6727.0,7183.0,6643.0,897.0,-2481.0,2783.0,0.252,0.26,0.243,0.9
1072712,7545.0,6481.0,8043.0,720.0,-2507.0,2887.0,0.232,0.289,0.236,0.898
1072734,6459.0,5873.0,6521.0,1335.0,-2440.0,1820.0,0.218,0.316,0.237,0.892
1072746,10035.0,11589.0,6211.0,1421.0,-2138.0,3433.0,0.191,0.344,0.234,0.889
1072768,8799.0,7053.0,6003.0,466.0,-2279.0,3219.0,0.167,0.371,0.223,0.886
1072780,8241.0,5305.0,5701.0,647.0,-2558.0,1280.0,0.16,0.396,0.22,0.877
1072802,9993.0,6111.0,6129.0,954.0,-2389.0,2207.0,0.144,0.421,0.215,0.869
1072824,8715.0,6321.0,5909.0,1106.0,-2369.0,2263.0,0.126,0.446,0.212,0.86
1072836,9189.0,4591.0,6283.0,1485.0,-2407.0,2054.0,0.108,0.471,0.212,0.849
1072858,10303.0,6329.0,5307.0,1809.0,-2132.0,2597.0,0.084,0.495,0.213,0.838
1072870,9553.0,6685.0,4851.0,1438.0,-2079.0,3207.0,0.056,0.519,0.208,0.828
1072887,9895.0,6047.0,3793.0,946.0,-2119.0,2902.0,0.034,0.541,0.199,0.816
1072909,10395.0,5621.0,3483.0,776.0,-2070.0,2393.0,0.015,0.561,0.193,0.805
1072921,10445.0,5493.0,3837.0,675.0,-1980.0,1887.0,0.001,0.579,0.187,0.793
1072943,10437.0,4787.0,4313.0,768.0,-1886.0,1655.0,0.012,-0.596,-0.184,-0.781
1072955,10095.0,4585.0,3613.0,872.0,-1776.0,1579.0,0.026,-0.611,-0.182,-0.77
1072977,9915.0,4329.0,3967.0,906.0,-1709.0,1534.0,0.039,-0.626,-0.18,-0.758
1072989,9857.0,4227.0,3491.0,931.0,-1611.0,1378.0,0.052,-0.639,-0.179,-0.746
1073011,9559.0,4225.0,3583.0,961.0,-1499.0,1264.0,0.064,-0.651,-0.179,-0.735
1073033,8955.0,4025.0,3251.0,934.0,-1363.0,1114.0,0.075,-0.662,-0.18,-0.724
1073045,8749.0,4563.0,3489.0,838.0,-1269.0,986.0,0.085,-0.671,-0.18,-0.714
1073067,9983.0,2485.0,3541.0,1002.0,-875.0,1066.0,0.097,-0.678,-0.181,-0.706
1073079,7027.0,3541.0,3591.0,75.0,-1236.0,167.0,0.096,-0.686,-0.182,-0.698
1073101,9293.0,2651.0,3167.0,255.0,-1038.0,442.0,0.099,-0.693,-0.182,-0.691
1073113,7949.0,3105.0,3399.0,290.0,-875.0,569.0,0.104,-0.699,-0.181,-0.684
1073135,7697.0,3261.0,2839.0,236.0,-711.0,260.0,0.105,-0.703,-0.182,-0.679
1073147,7813.0,3377.0,2535.0,190.0,-559.0,195.0,0.107,-0.706,-0.183,-0.675
1073169,7471.0,2955.0,2483.0,73.0,-489.0,146.0,0.107,-0.709,-0.184,-0.672
1073191,7415.0,2917.0,2483.0,86.0,-361.0,80.0,0.108,-0.711,-0.185,-0.67
1073203,7265.0,2673.0,3225.0,94.0,-220.0,-11.0,0.108,-0.711,-0.186,-0.669
1073225,6839.0,2585.0,3057.0,123.0,-66.0,-186.0,0.108,-0.711,-0.188,-0.669
1073237,6933.0,3401.0,3029.0,6.0,7.0,-379.0,0.105,-0.709,-0.191,-0.67
1073259,7159.0,3135.0,3137.0,-140.0,89.0,-511.0,0.101,-0.707,-0.194,-0.672
1073271,7349.0,3333.0,3111.0,-267.0,174.0,-699.0,0.096,-0.705,-0.198,-0.675
1073293,7679.0,3503.0,3271.0,-321.0,317.0,-769.0,0.089,-0.701,-0.201,-0.678
1073305,7975.0,3279.0,3089.0,-406.0,455.0,-782.0,0.083,-0.697,-0.203,-0.682
1073327,8465.0,3323.0,3397.0,-380.0,659.0,-826.0,0.077,-0.692,-0.206,-0.688
1073349,8569.0,3693.0,3465.0,-396.0,846.0,-929.0,0.07,-0.685,-0.209,-0.695
1073361,8721.0,4367.0,3321.0,-497.0,980.0,-996.0,0.063,-0.677,-0.212,-0.702
1073383,9211.0,3909.0,3291.0,-619.0,1120.0,-1017.0,0.055,-0.667,-0.214,-0.711
1073395,9565.0,4045.0,3487.0,-658.0,1284.0,-1083.0,0.047,-0.657,-0.216,-0.721
1073417,9693.0,4797.0,3937.0,-723.0,1430.0,-1177.0,0.038,-0.645,-0.218,-0.731
1073429,9743.0,5655.0,4157.0,-1018.0,1439.0,-1242.0,0.027,-0.633,-0.219,-0.742
1073451,10755.0,5347.0,4807.0,-1275.0,1491.0,-1376.0,0.013,-0.62,-0.218,-0.754
1073463,11483.0,5069.0,4343.0,-1421.0,1587.0,-1515.0,0.002,0.606,0.217,0.766
1073485,12143.0,4209.0,4657.0,-1391.0,1728.0,-1623.0,0.017,0.59,0.216,0.778
1073507,11393.0,5495.0,5415.0,-1315.0,1913.0,-1716.0,0.033,0.572,0.217,0.791
1073519,11135.0,6039.0,5267.0,-1521.0,1981.0,-1702.0,0.049,0.553,0.215,0.803
1073541,11607.0,5623.0,5203.0,-1719.0,2064.0,-1646.0,0.066,0.533,0.212,0.816
1073553,11507.0,5151.0,4357.0,-1660.0,2317.0,-1592.0,0.081,0.511,0.209,0.83
1073575,10493.0,6193.0,4057.0,-1814.0,2477.0,-1428.0,0.095,0.487,0.203,0.844
1073587,10485.0,4735.0,4765.0,-1730.0,2560.0,-1529.0,0.11,0.463,0.199,0.857
1073609,10443.0,4943.0,5547.0,-1526.0,2709.0,-1563.0,0.124,0.436,0.197,0.869
1073621,9839.0,4813.0,5579.0,-1266.0,2757.0,-2128.0,0.14,0.408,0.198,0.88
1073643,10683.0,6277.0,4917.0,-1282.0,2960.0,-1637.0,0.153,0.379,0.198,0.891
1073665,9497.0,6035.0,4529.0,-1357.0,3060.0,-1566.0,0.165,0.349,0.196,0.902
1073677,8689.0,6331.0,4953.0,-1488.0,2981.0,-1671.0,0.178,0.318,0.194,0.911
1073699,8267.0,5181.0,6437.0,-1285.0,2912.0,-1818.0,0.191,0.288,0.193,0.918
1073711,7333.0,5939.0,7047.0,-1182.0,2847.0,-1928.0,0.206,0.258,0.193,0.924
1073733,7033.0,5695.0,6291.0,-1283.0,2762.0,-1902.0,0.22,0.228,0.192,0.929
1073745,6945.0,5265.0,5233.0,-1269.0,2793.0,-1797.0,0.233,0.198,0.19,0.933
1073767,6145.0,5345.0,4987.0,-1224.0,2748.0,-1823.0,0.246,0.168,0.189,0.936
1073779,4983.0,4509.0,4889.0,-1258.0,2714.0,-1777.0,0.258,0.139,0.187,0.938
1073801,4251.0,3917.0,5341.0,-1163.0,2665.0,-1622.0,0.269,0.111,0.185,0.939
1073813,3897.0,3279.0,5063.0,-935.0,2616.0,-1557.0,0.279,0.083,0.185,0.939
1073835,3227.0,3697.0,4591.0,-886.0,2520.0,-1454.0,0.288,0.056,0.185,0.938
1073847,2755.0,2891.0,3815.0,-756.0,2392.0,-1384.0,0.297,0.031,0.185,0.936
1073870,2461.0,3139.0,4341.0,-710.0,2303.0,-1304.0,0.304,0.007,0.186,0.934
1073892,1695.0,2697.0,4277.0,-823.0,2086.0,-1419.0,0.313,-0.016,0.185,0.931
1073904,1979.0,2097.0,3843.0,-842.0,2015.0,-1266.0,0.321,-0.038,0.183,0.928
1073926,1919.0,1391.0,3071.0,-939.0,1947.0,-1173.0,0.328,-0.059,0.18,0.925
1073938,841.0,1465.0,2669.0,-1008.0,1933.0,-1028.0,0.333,-0.081,0.177,0.923
1073960,673.0,1803.0,2673.0,-961.0,1826.0,-994.0,0.338,-0.101,0.174,0.919
1073972,443.0,1139.0,1535.0,-1055.0,1559.0,-874.0,0.343,-0.119,0.169,0.917
1073994,793.0,3909.0,763.0,-1539.0,1166.0,-1012.0,0.348,-0.135,0.158,0.914
1074006,2029.0,2537.0,491.0,-2364.0,857.0,-586.0,0.349,-0.151,0.14,0.914
1074028,1991.0,-3641.0,827.0,-2966.0,959.0,75.0,0.344,-0.168,0.118,0.916
1074050,-623.0,-6945.0,-65.0,-2394.0,961.0,168.0,0.338,-0.184,0.101,0.918
1074062,-2673.0,-1929.0,1477.0,-1411.0,995.0,-316.0,0.338,-0.197,0.092,0.916
1074084,-2201.0,629.0,3431.0,-1087.0,597.0,-978.0,0.344,-0.206,0.083,0.912
1074096,-2317.0,-3043.0,2613.0,-666.0,291.0,-678.0,0.349,-0.211,0.077,0.91
1074118,-2821.0,-3353.0,2491.0,-531.0,112.0,141.0,0.348,-0.214,0.073,0.91
1074130,-2321.0,-3659.0,1977.0,29.0,-167.0,170.0,0.347,-0.212,0.073,0.911
1074152,-1347.0,-1931.0,1919.0,517.0,-504.0,63.0,0.349,-0.206,0.076,0.911
1074164,-783.0,-1411.0,2053.0,679.0,-766.0,368.0,0.349,-0.196,0.081,0.913
1074186,-791.0,149.0,2147.0,672.0,-1119.0,529.0,0.347,-0.184,0.084,0.916
1074198,-321.0,341.0,2945.0,529.0,-1456.0,720.0,0.344,-0.169,0.085,0.92
1074220,521.0,-507.0,3155.0,627.0,-1662.0,781.0,0.34,-0.152,0.086,0.924
1074242,1317.0,667.0,2777.0,764.0,-1741.0,912.0,0.336,-0.134,0.089,0.928
1074254,1013.0,1669.0,3491.0,863.0,-1857.0,911.0,0.331,-0.114,0.092,0.932
1074276,873.0,1719.0,4731.0,938.0,-2039.0,901.0,0.327,-0.093,0.095,0.936
1074288,1387.0,1017.0,4859.0,1086.0,-2156.0,1024.0,0.322,-0.069,0.099,0.939
1074310,1787.0,1539.0,4719.0,1508.0,-2292.0,796.0,0.319,-0.044,0.105,0.941
1074322,1495.0,3867.0,5007.0,1398.0,-2511.0,1016.0,0.313,-0.016,0.111,0.943
1074344,2177.0,2103.0,6139.0,1365.0,-2726.0,1177.0,0.307,0.013,0.115,0.945
1074366,2733.0,1471.0,6269.0,1710.0,-2752.0,1097.0,0.3,0.043,0.122,0.945
1074378,2499.0,3469.0,6123.0,2061.0,-2753.0,1095.0,0.293,0.075,0.132,0.944
1074390,3085.0,4737.0,6851.0,1889.0,-2973.0,1082.0,0.286,0.109,0.14,0.942
1074413,4385.0,4391.0,7669.0,1653.0,-2955.0,1283.0,0.278,0.141,0.145,0.939
1074435,4401.0,3623.0,6515.0,1668.0,-2962.0,757.0,0.273,0.173,0.151,0.934
1074447,5613.0,5035.0,6437.0,2051.0,-2867.0,780.0,0.267,0.204,0.16,0.928
1074469,6313.0,7257.0,7037.0,1789.0,-2857.0,1184.0,0.258,0.235,0.165,0.922
1074481,6659.0,4845.0,9105.0,1424.0,-2846.0,1627.0,0.246,0.266,0.167,0.917
1074503,7013.0,4207.0,7983.0,1946.0,-2560.0,1801.0,0.23,0.295,0.173,0.911
1074515,5981.0,4863.0,7003.0,1791.0,-2915.0,764.0,0.223,0.325,0.18,0.901
1074537,9055.0,7717.0,6817.0,2085.0,-2470.0,1955.0,0.205,0.353,0.186,0.894
1074549,7047.0,6741.0,4319.0,1207.0,-2635.0,1386.0,0.194,0.38,0.186,0.885
1074571,8179.0,6807.0,6631.0,1497.0,-2541.0,1292.0,0.183,0.405,0.189,0.875
1074583,8141.0,6955.0,6603.0,1255.0,-2639.0,1188.0,0.173,0.431,0.19,0.865
1074605,8737.0,6669.0,6247.0,1236.0,-2588.0,1238.0,0.163,0.456,0.191,0.854
1074627,9299.0,6093.0,5941.0,1142.0,-2519.0,1486.0,0.15,0.48,0.19,0.843
1074639,9531.0,6005.0,5639.0,1302.0,-2224.0,2244.0,0.131,0.504,0.187,0.833
1074661,9269.0,5163.0,5133.0,1329.0,-2172.0,2370.0,0.11,0.526,0.183,0.823
1074673,9477.0,5505.0,4399.0,1316.0,-2201.0,2543.0,0.087,0.548,0.179,0.812
1074695,9255.0,5005.0,4339.0,1137.0,-2265.0,2358.0,0.067,0.57,0.173,0.8
1074707,8795.0,5487.0,4395.0,886.0,-2255.0,1769.0,0.053,0.59,0.169,0.788
1074729,9421.0,4399.0,4343.0,707.0,-2317.0,1445.0,0.042,0.61,0.165,0.774
1074751,9339.0,4829.0,4529.0,467.0,-2383.0,1219.0,0.034,0.629,0.161,0.76
1074763,10065.0,3773.0,3501.0,357.0,-2311.0,1126.0,0.027,0.647,0.156,0.746
1074785,10381.0,2233.0,3003.0,609.0,-2046.0,1018.0,0.019,0.662,0.154,0.733
1074797,9843.0,3661.0,2821.0,918.0,-1810.0,727.0,0.011,0.676,0.155,0.72
1074819,10165.0,4007.0,4929.0,1129.0,-1601.0,1013.0,0.001,-0.688,-0.156,-0.709
1074831,8139.0,2021.0,3159.0,216.0,-1672.0,-86.0,0.0,0.698,0.158,0.698
1074853,10575.0,3135.0,3345.0,714.0,-1310.0,493.0,0.006,-0.708,-0.16,-0.688
1074865,8503.0,3111.0,3117.0,546.0,-1205.0,505.0,0.011,-0.716,-0.16,-0.679
1074892,8873.0,3111.0,2899.0,498.0,-1031.0,246.0,0.015,-0.723,-0.162,-0.672
1074904,8903.0,2845.0,2965.0,429.0,-844.0,193.0,0.018,-0.728,-0.164,-0.665
1074916,8185.0,3247.0,2933.0,239.0,-682.0,180.0,0.02,-0.733,-0.165,-0.66
1074938,7963.0,2933.0,3235.0,70.0,-586.0,13.0,0.02,-0.736,-0.165,-0.656
1074960,7749.0,3291.0,3289.0,-60.0,-427.0,-32.0,0.019,-0.739,-0.165,-0.653
1074972,7873.0,2515.0,3319.0,-154.0,-285.0,-117.0,0.016,-0.74,-0.166,-0.652
1074994,7537.0,3133.0,3421.0,-228.0,-88.0,-234.0,0.013,-0.739,-0.166,-0.652
1075006,7617.0,3193.0,3473.0,-427.0,39.0,-345.0,0.008,-0.738,-0.166,-0.654
1075028,7569.0,3011.0,3219.0,-566.0,206.0,-444.0,0.002,-0.735,-0.166,-0.657
1075040,7719.0,3633.0,3237.0,-702.0,327.0,-581.0,0.005,0.732,0.166,0.66
1075062,8143.0,3093.0,3439.0,-791.0,503.0,-567.0,0.013,0.728,0.166,0.665
1075074,8271.0,3459.0,3427.0,-814.0,691.0,-606.0,0.021,0.723,0.165,0.671
1075096,8511.0,3711.0,3413.0,-950.0,816.0,-637.0,0.03,0.716,0.164,0.678
1075118,8677.0,3889.0,3373.0,-1044.0,967.0,-607.0,0.039,0.709,0.162,0.685
1075130,8805.0,4543.0,3481.0,-1198.0,1053.0,-606.0,0.048,0.701,0.159,0.694
1075152,9259.0,3839.0,3501.0,-1315.0,1211.0,-553.0,0.058,0.691,0.155,0.703
1075164,10033.0,3883.0,3491.0,-1271.0,1403.0,-628.0,0.068,0.68,0.152,0.714
1075186,10177.0,4263.0,3123.0,-1190.0,1638.0,-717.0,0.078,0.668,0.15,0.725
1075198,12025.0,4201.0,6579.0,-1316.0,2104.0,-454.0,0.086,0.651,0.146,0.74
1075220,10903.0,4139.0,3087.0,-1578.0,2064.0,-367.0,0.094,0.635,0.139,0.754
1075232,10815.0,4335.0,3691.0,-1527.0,2287.0,-421.0,0.103,0.617,0.133,0.769
1075254,11113.0,4631.0,3945.0,-1498.0,2410.0,-699.0,0.113,0.597,0.129,0.784
1075266,11095.0,5119.0,4219.0,-1577.0,2455.0,-657.0,0.123,0.577,0.124,0.798
1075288,11703.0,3931.0,4745.0,-1563.0,2561.0,-623.0,0.133,0.555,0.119,0.813
1075310,11005.0,4857.0,5097.0,-1541.0,2651.0,-824.0,0.144,0.532,0.115,0.827
1075322,11169.0,5013.0,5073.0,-1664.0,2660.0,-845.0,0.155,0.508,0.11,0.84
1075344,11229.0,3987.0,4831.0,-1652.0,2774.0,-784.0,0.166,0.483,0.105,0.854
1075356,10921.0,3741.0,5669.0,-1516.0,2822.0,-836.0,0.176,0.457,0.101,0.866
1075378,10225.0,3763.0,7659.0,-1364.0,2849.0,-986.0,0.187,0.43,0.099,0.878
1075390,10267.0,3923.0,7133.0,-1052.0,2997.0,-921.0,0.195,0.403,0.099,0.889
1075412,8885.0,5207.0,5911.0,-1301.0,2867.0,-1181.0,0.207,0.376,0.098,0.898
1075424,9603.0,4241.0,5407.0,-1226.0,2951.0,-1045.0,0.217,0.348,0.097,0.907
1075446,9325.0,4363.0,4769.0,-1127.0,3066.0,-1026.0,0.226,0.318,0.097,0.915
1075468,8901.0,4375.0,5265.0,-1174.0,3050.0,-1126.0,0.236,0.289,0.097,0.923
1075480,8273.0,3875.0,5889.0,-1027.0,3186.0,-1080.0,0.245,0.258,0.098,0.929
1075502,6919.0,4905.0,5647.0,-1067.0,3177.0,-1143.0,0.255,0.227,0.099,0.935
1075514,6051.0,3777.0,5781.0,-1297.0,3033.0,-1221.0,0.265,0.196,0.097,0.939
1075536,5901.0,3761.0,5759.0,-1219.0,3055.0,-1040.0,0.273,0.165,0.096,0.943
1075548,4547.0,4243.0,5345.0,-1128.0,2988.0,-958.0,0.281,0.136,0.095,0.945
1075570,3831.0,4967.0,5189.0,-1307.0,2699.0,-963.0,0.288,0.109,0.093,0.947
1075592,3715.0,2471.0,5763.0,-1540.0,2409.0,-1055.0,0.297,0.083,0.087,0.947
1075604,3173.0,1535.0,4199.0,-1355.0,2386.0,-681.0,0.302,0.057,0.082,0.948
1075626,1873.0,981.0,5097.0,-936.0,2277.0,-585.0,0.306,0.034,0.08,0.948
1075638,1811.0,967.0,6047.0,-734.0,2076.0,-510.0,0.31,0.014,0.08,0.947
1075660,1423.0,-393.0,5083.0,-156.0,2070.0,-552.0,0.313,-0.005,0.084,0.946
1075672,309.0,1315.0,2631.0,193.0,2065.0,-574.0,0.317,-0.023,0.092,0.944
1075694,-179.0,2015.0,2163.0,173.0,1756.0,-534.0,0.321,-0.039,0.099,0.941
1075706,-85.0,4511.0,2353.0,-300.0,1390.0,-535.0,0.325,-0.052,0.1,0.939
1075728,355.0,1231.0,2531.0,-760.0,1071.0,-467.0,0.328,-0.064,0.096,0.938
1075740,875.0,-647.0,2827.0,-555.0,1098.0,-418.0,0.33,-0.076,0.095,0.936
1075762,1039.0,-615.0,1773.0,-201.0,1186.0,-180.0,0.331,-0.087,0.096,0.935
1075774,601.0,-597.0,743.0,48.0,1133.0,-138.0,0.332,-0.096,0.1,0.933
1075796,379.0,307.0,725.0,75.0,919.0,-295.0,0.334,-0.104,0.104,0.931
1075818,-601.0,3557.0,1859.0,-613.0,783.0,-967.0,0.342,-0.114,0.1,0.928
1075830,1075.0,-1919.0,2231.0,-518.0,464.0,-819.0,0.348,-0.12,0.096,0.925
1075852,-1267.0,-1193.0,2405.0,-309.0,438.0,-736.0,0.354,-0.125,0.094,0.922
1075864,-1185.0,-1573.0,2191.0,-159.0,288.0,-471.0,0.359,-0.129,0.093,0.92
1075886,-1003.0,-1067.0,2601.0,264.0,192.0,-275.0,0.362,-0.13,0.096,0.918
1075898,-1259.0,-1187.0,2887.0,505.0,49.0,-163.0,0.364,-0.128,0.1,0.917
1075920,-1273.0,-1005.0,3021.0,700.0,-115.0,18.0,0.366,-0.125,0.106,0.916
1075932,-1157.0,-1573.0,2937.0,1047.0,-337.0,139.0,0.367,-0.118,0.114,0.916
1075954,-1329.0,-507.0,2959.0,1135.0,-626.0,292.0,0.367,-0.108,0.122,0.916
1075976,-577.0,-769.0,3219.0,1394.0,-939.0,366.0,0.367,-0.095,0.131,0.916
1075988,-445.0,-647.0,3493.0,1648.0,-1191.0,438.0,0.366,-0.078,0.141,0.916
1076010,-269.0,-109.0,3225.0,1895.0,-1454.0,451.0,0.366,-0.059,0.153,0.916
1076022,403.0,2053.0,3333.0,1942.0,-1719.0,601.0,0.365,-0.036,0.164,0.916
1076044,257.0,1411.0,3637.0,1629.0,-1912.0,904.0,0.362,-0.013,0.172,0.916
1076056,1059.0,2099.0,3801.0,1741.0,-2016.0,1012.0,0.357,0.012,0.18,0.917
1076078,2025.0,3385.0,4381.0,1609.0,-2134.0,1035.0,0.352,0.038,0.186,0.917
1076090,2903.0,2365.0,4519.0,1456.0,-2154.0,1190.0,0.346,0.063,0.191,0.917
1076112,3287.0,2795.0,4819.0,1612.0,-2052.0,1203.0,0.338,0.088,0.197,0.916
1076134,4105.0,4595.0,5183.0,1604.0,-2052.0,1205.0,0.331,0.114,0.203,0.914
1076146,4811.0,4113.0,5781.0,1450.0,-2098.0,1280.0,0.323,0.14,0.208,0.913
1076168,5019.0,3891.0,5701.0,1604.0,-2041.0,1293.0,0.314,0.166,0.213,0.91
1076180,4891.0,6105.0,5611.0,1720.0,-1955.0,1487.0,0.302,0.19,0.22,0.908
1076202,4877.0,6971.0,5645.0,1539.0,-2113.0,1529.0,0.291,0.216,0.224,0.905
1076214,5665.0,7089.0,5869.0,1438.0,-2201.0,1779.0,0.278,0.242,0.226,0.902
1076236,6393.0,7071.0,6181.0,1289.0,-2344.0,2030.0,0.264,0.269,0.226,0.898
1076248,7165.0,6287.0,5825.0,1230.0,-2377.0,2203.0,0.247,0.297,0.225,0.895
1076270,7087.0,6253.0,5711.0,1180.0,-2362.0,2058.0,0.232,0.324,0.223,0.89
1076292,7783.0,6725.0,5715.0,1321.0,-2430.0,1940.0,0.217,0.351,0.223,0.883
1076304,7943.0,6683.0,6121.0,1286.0,-2579.0,1855.0,0.203,0.378,0.222,0.875
1076326,8779.0,7037.0,5381.0,1294.0,-2545.0,2062.0,0.187,0.406,0.22,0.867
1076338,9457.0,5387.0,4743.0,1618.0,-2707.0,2295.0,0.168,0.435,0.219,0.857
1076360,9979.0,7527.0,4567.0,1694.0,-2274.0,3096.0,0.141,0.462,0.217,0.848
1076372,9019.0,6511.0,4003.0,1165.0,-2507.0,2580.0,0.121,0.488,0.211,0.838
1076394,10065.0,5089.0,4325.0,1099.0,-2609.0,2386.0,0.102,0.515,0.206,0.826
1076406,10627.0,6443.0,3889.0,1252.0,-2526.0,2339.0,0.083,0.539,0.202,0.813
1076428,10931.0,5831.0,4035.0,1143.0,-2465.0,2447.0,0.063,0.563,0.196,0.8
1076450,10965.0,5311.0,2945.0,1110.0,-2431.0,2241.0,0.045,0.586,0.191,0.786
1076462,10617.0,5387.0,3255.0,1123.0,-2366.0,1977.0,0.028,0.607,0.187,0.772
1076484,11111.0,4597.0,2947.0,1250.0,-2235.0,1879.0,0.011,0.627,0.185,0.757
1076496,11183.0,5203.0,2735.0,1305.0,-2111.0,1735.0,0.005,-0.644,-0.184,-0.742
1076518,10861.0,4793.0,2637.0,1083.0,-2109.0,1590.0,0.019,-0.661,-0.182,-0.727
1076530,10529.0,3581.0,2815.0,1028.0,-2001.0,1441.0,0.032,-0.677,-0.181,-0.713
1076552,10553.0,3763.0,2541.0,1129.0,-1895.0,1175.0,0.044,-0.691,-0.182,-0.698
1076564,10383.0,3977.0,2385.0,1108.0,-1752.0,1053.0,0.055,-0.704,-0.183,-0.684
1076586,10107.0,3367.0,2313.0,1081.0,-1612.0,906.0,0.066,-0.715,-0.185,-0.671
1076598,11779.0,2299.0,2975.0,1585.0,-1245.0,1194.0,0.082,-0.723,-0.188,-0.659
1076621,6799.0,1881.0,2211.0,315.0,-1332.0,397.0,0.084,-0.731,-0.189,-0.65
1076633,10115.0,1917.0,1755.0,850.0,-1178.0,319.0,0.09,-0.738,-0.193,-0.64
1076655,8501.0,3297.0,1665.0,870.0,-903.0,639.0,0.099,-0.744,-0.195,-0.631
1076677,8113.0,3363.0,1795.0,797.0,-815.0,455.0,0.105,-0.748,-0.197,-0.624
1076689,7935.0,2821.0,1777.0,607.0,-748.0,277.0,0.11,-0.752,-0.2,-0.618
1076711,7687.0,2651.0,1613.0,568.0,-589.0,82.0,0.113,-0.754,-0.204,-0.614
1076723,7553.0,2609.0,1591.0,458.0,-503.0,-69.0,0.115,-0.756,-0.208,-0.61
1076745,7423.0,3039.0,1463.0,333.0,-382.0,-65.0,0.117,-0.757,-0.212,-0.607
1076757,7573.0,2711.0,1413.0,302.0,-268.0,-137.0,0.117,-0.757,-0.215,-0.605
1076779,7425.0,2509.0,1293.0,291.0,-59.0,-286.0,0.118,-0.756,-0.219,-0.605
1076791,7173.0,3427.0,1317.0,122.0,56.0,-455.0,0.116,-0.754,-0.224,-0.606
1076813,7181.0,3135.0,1585.0,-129.0,131.0,-577.0,0.112,-0.752,-0.227,-0.609
1076825,7583.0,3285.0,1723.0,-246.0,220.0,-762.0,0.107,-0.749,-0.232,-0.612
1076847,7821.0,3095.0,1717.0,-336.0,342.0,-822.0,0.1,-0.745,-0.236,-0.616
1076869,7881.0,3469.0,1497.0,-525.0,450.0,-799.0,0.093,-0.74,-0.238,-0.622
1076881,7921.0,3397.0,1419.0,-733.0,556.0,-769.0,0.085,-0.735,-0.239,-0.629
1076898,8345.0,4769.0,1785.0,-899.0,663.0,-906.0,0.076,-0.73,-0.24,-0.636
1076920,8975.0,5085.0,1939.0,-1229.0,784.0,-949.0,0.064,-0.724,-0.239,-0.644
1076932,9549.0,4995.0,1039.0,-1546.0,953.0,-1089.0,0.049,-0.716,-0.237,-0.655
1076954,9801.0,4089.0,731.0,-1644.0,1236.0,-1182.0,0.034,-0.706,-0.235,-0.667
1076966,10353.0,4393.0,2127.0,-1547.0,1564.0,-1324.0,0.02,-0.694,-0.234,-0.681
1076988,10509.0,4851.0,3717.0,-1501.0,1824.0,-1344.0,0.006,-0.679,-0.233,-0.696
1077010,10883.0,4139.0,3427.0,-1166.0,2204.0,-1481.0,0.005,0.661,0.236,0.712
1077022,10237.0,5479.0,2275.0,-881.0,2428.0,-1619.0,0.016,0.641,0.24,0.728
1077044,10077.0,5903.0,1617.0,-936.0,2436.0,-1657.0,0.026,0.621,0.244,0.745
1077056,10493.0,5849.0,2243.0,-962.0,2492.0,-1665.0,0.037,0.599,0.248,0.76
1077078,10547.0,6695.0,2325.0,-1121.0,2527.0,-1705.0,0.049,0.576,0.251,0.776
1077090,10711.0,5679.0,2735.0,-1285.0,2584.0,-1593.0,0.061,0.553,0.252,0.792
1077112,10721.0,6645.0,3815.0,-1258.0,2613.0,-1681.0,0.073,0.529,0.253,0.807
1077124,10719.0,6381.0,4041.0,-1485.0,2579.0,-1640.0,0.086,0.504,0.252,0.822
1077146,10551.0,6781.0,5025.0,-1347.0,2872.0,-2222.0,0.102,0.475,0.254,0.836
1077168,12613.0,6415.0,4413.0,-1367.0,2808.0,-1552.0,0.113,0.448,0.253,0.85
1077180,10517.0,8559.0,1711.0,-1512.0,3507.0,-1723.0,0.124,0.414,0.252,0.866
1077202,11075.0,7105.0,4519.0,-1650.0,2903.0,-1834.0,0.138,0.384,0.249,0.878
1077214,11013.0,6087.0,5441.0,-1417.0,3139.0,-1756.0,0.15,0.352,0.248,0.89
1077236,9281.0,6711.0,6379.0,-1177.0,3181.0,-1868.0,0.161,0.32,0.249,0.9
1077248,8129.0,7599.0,6715.0,-1246.0,2914.0,-2215.0,0.176,0.288,0.249,0.908
1077270,7895.0,7399.0,7505.0,-1576.0,2674.0,-2094.0,0.192,0.258,0.246,0.915
1077282,7199.0,6107.0,7553.0,-1851.0,2514.0,-2030.0,0.207,0.228,0.239,0.921
1077304,6397.0,5415.0,6611.0,-1668.0,2665.0,-1914.0,0.221,0.198,0.234,0.926
1077316,4857.0,5777.0,5897.0,-1494.0,2600.0,-1864.0,0.234,0.168,0.23,0.93
1077338,4099.0,5195.0,6319.0,-1308.0,2355.0,-1877.0,0.247,0.141,0.227,0.932
1077350,4689.0,4137.0,6505.0,-970.0,2151.0,-1669.0,0.258,0.116,0.225,0.932
1077373,4225.0,3279.0,5241.0,-785.0,2169.0,-1120.0,0.264,0.094,0.225,0.933
1077395,2949.0,4209.0,4937.0,-539.0,2054.0,-996.0,0.268,0.073,0.226,0.934
1077407,3079.0,4611.0,4571.0,-553.0,1840.0,-1318.0,0.276,0.053,0.226,0.933
1077429,3287.0,4703.0,5009.0,-713.0,1692.0,-1364.0,0.285,0.034,0.225,0.931
1077441,3099.0,3395.0,4173.0,-830.0,1733.0,-1343.0,0.293,0.014,0.223,0.93
1077463,1947.0,2455.0,4149.0,-929.0,1781.0,-1243.0,0.301,-0.006,0.22,0.928
1077475,1989.0,2057.0,4209.0,-971.0,1735.0,-1348.0,0.309,-0.026,0.216,0.926
1077497,245.0,1183.0,3719.0,-1121.0,1647.0,-1673.0,0.32,-0.047,0.211,0.923
1077509,331.0,2553.0,3173.0,-988.0,1908.0,-1504.0,0.329,-0.069,0.207,0.919
1077531,325.0,2711.0,2607.0,-1106.0,1685.0,-1608.0,0.339,-0.09,0.202,0.915
1077553,605.0,2355.0,1447.0,-1090.0,1609.0,-1672.0,0.349,-0.11,0.196,0.91
1077565,385.0,1351.0,897.0,-1110.0,1443.0,-1837.0,0.361,-0.129,0.19,0.904
1077587,-209.0,1407.0,1669.0,-1031.0,1258.0,-1881.0,0.374,-0.147,0.183,0.897
1077599,-423.0,1499.0,1513.0,-1489.0,1172.0,-1198.0,0.38,-0.163,0.173,0.894
1077621,-267.0,-549.0,1517.0,-1609.0,1053.0,-784.0,0.383,-0.179,0.162,0.892
1077633,-239.0,-1049.0,1377.0,-1254.0,934.0,-840.0,0.386,-0.192,0.154,0.889
1077655,-379.0,-847.0,885.0,-1052.0,880.0,-700.0,0.389,-0.204,0.147,0.886
1077667,-1511.0,-635.0,143.0,-970.0,635.0,-599.0,0.392,-0.214,0.14,0.884
1077689,-1763.0,-407.0,877.0,-919.0,343.0,-384.0,0.393,-0.22,0.133,0.883
1077701,-2087.0,-743.0,1485.0,-783.0,118.0,-242.0,0.394,-0.224,0.127,0.882
1077723,-1903.0,-1513.0,2039.0,-595.0,-47.0,263.0,0.391,-0.226,0.122,0.884
1077745,-2507.0,-971.0,2049.0,-259.0,-243.0,439.0,0.388,-0.224,0.121,0.886
1077757,-1817.0,-1549.0,2405.0,167.0,-527.0,675.0,0.384,-0.218,0.122,0.889
1077779,-1793.0,-1049.0,2971.0,555.0,-750.0,717.0,0.381,-0.209,0.125,0.892
1077791,-2397.0,-1197.0,2883.0,719.0,-872.0,751.0,0.378,-0.198,0.13,0.895
1077813,-2619.0,-1711.0,2363.0,772.0,-1195.0,480.0,0.377,-0.184,0.133,0.898
1077825,-2543.0,-873.0,1833.0,1235.0,-1362.0,448.0,0.378,-0.168,0.139,0.9
1077847,-2499.0,1615.0,2723.0,1201.0,-1935.0,505.0,0.379,-0.147,0.143,0.903
1077869,-705.0,1319.0,3259.0,858.0,-2375.0,348.0,0.381,-0.123,0.143,0.905
1077881,331.0,237.0,3525.0,966.0,-2479.0,331.0,0.383,-0.098,0.143,0.908
1077893,511.0,133.0,3351.0,1322.0,-2510.0,552.0,0.383,-0.071,0.145,0.909
1077916,1299.0,2741.0,3555.0,1687.0,-2556.0,675.0,0.382,-0.042,0.151,0.911
1077928,2331.0,3861.0,4223.0,1519.0,-2691.0,667.0,0.381,-0.013,0.154,0.911
1077951,3471.0,3207.0,5023.0,1317.0,-2679.0,744.0,0.379,0.016,0.156,0.912
1077973,3783.0,2675.0,5443.0,1374.0,-2620.0,971.0,0.375,0.045,0.158,0.912
1077985,4089.0,3065.0,5945.0,1593.0,-2578.0,1147.0,0.369,0.075,0.162,0.912
1078007,2973.0,4891.0,6395.0,1726.0,-2604.0,1283.0,0.361,0.106,0.167,0.911
1078019,3737.0,7241.0,6699.0,1567.0,-2672.0,1708.0,0.349,0.137,0.169,0.911
1078041,3691.0,6073.0,8055.0,965.0,-2892.0,1469.0,0.34,0.167,0.166,0.91
1078053,5387.0,3869.0,7757.0,884.0,-2888.0,1393.0,0.332,0.196,0.162,0.908
1078075,6343.0,5387.0,7107.0,1059.0,-2677.0,1895.0,0.318,0.225,0.159,0.907
1078087,6221.0,6775.0,6999.0,921.0,-2720.0,2243.0,0.301,0.254,0.154,0.906
1078109,5729.0,8529.0,6559.0,758.0,-2974.0,1285.0,0.293,0.283,0.149,0.901
1078121,10999.0,5011.0,7091.0,1352.0,-2995.0,3195.0,0.267,0.316,0.143,0.899
1078143,8779.0,7005.0,6697.0,648.0,-2995.0,2851.0,0.245,0.347,0.132,0.896
1078165,8705.0,5539.0,6151.0,318.0,-3224.0,1130.0,0.239,0.376,0.124,0.887
1078177,9261.0,3943.0,6895.0,803.0,-3206.0,267.0,0.238,0.404,0.122,0.875
1078199,8409.0,2533.0,6469.0,1870.0,-2948.0,346.0,0.231,0.433,0.129,0.862
1078211,10603.0,7371.0,5809.0,1794.0,-2428.0,2079.0,0.21,0.459,0.13,0.854
1078233,9801.0,4503.0,4823.0,1663.0,-2737.0,1456.0,0.195,0.485,0.131,0.842
1078245,10339.0,5029.0,4035.0,1561.0,-2928.0,1725.0,0.178,0.513,0.13,0.83
1078267,10355.0,4625.0,4485.0,1435.0,-2850.0,2079.0,0.158,0.54,0.127,0.817
1078289,10341.0,3517.0,4851.0,1547.0,-2813.0,2657.0,0.134,0.566,0.121,0.804
1078301,9999.0,4279.0,4963.0,1575.0,-2785.0,1615.0,0.116,0.591,0.12,0.789
1078323,10871.0,4369.0,3617.0,1537.0,-2672.0,1099.0,0.103,0.613,0.123,0.774
1078335,10943.0,4231.0,2897.0,1487.0,-2537.0,1233.0,0.088,0.634,0.124,0.758
1078357,10689.0,4823.0,2609.0,1353.0,-2468.0,1201.0,0.074,0.654,0.124,0.743
1078369,10727.0,4557.0,2837.0,1182.0,-2425.0,1225.0,0.061,0.672,0.123,0.727
1078391,10699.0,3711.0,3155.0,1117.0,-2312.0,1181.0,0.049,0.69,0.122,0.712
1078403,10501.0,3379.0,3109.0,1191.0,-2135.0,1083.0,0.036,0.706,0.122,0.697
1078425,10151.0,3995.0,2315.0,1074.0,-2015.0,963.0,0.025,0.72,0.123,0.683
1078437,9939.0,3433.0,2365.0,884.0,-1867.0,945.0,0.015,0.733,0.122,0.669
1078459,9719.0,2957.0,2593.0,813.0,-1659.0,841.0,0.005,0.744,0.121,0.657
1078471,9417.0,2969.0,2579.0,801.0,-1427.0,763.0,0.003,-0.754,-0.121,-0.646
1078494,8931.0,3101.0,2049.0,713.0,-1245.0,792.0,0.012,-0.762,-0.12,-0.636
1078506,8595.0,2817.0,1803.0,557.0,-1113.0,803.0,0.02,-0.77,-0.118,-0.627
1078529,9803.0,3065.0,1237.0,860.0,-522.0,967.0,0.031,-0.773,-0.116,-0.622
1078551,7971.0,2127.0,1293.0,61.0,-965.0,112.0,0.031,-0.779,-0.116,-0.616
1078563,8573.0,1811.0,931.0,308.0,-570.0,612.0,0.037,-0.782,-0.114,-0.612
1078585,7979.0,1699.0,1257.0,243.0,-462.0,317.0,0.04,-0.784,-0.114,-0.608
1078597,8177.0,1757.0,1407.0,206.0,-280.0,77.0,0.042,-0.785,-0.115,-0.607
1078619,7913.0,2097.0,1473.0,185.0,-24.0,-99.0,0.043,-0.785,-0.117,-0.607
1078631,8147.0,1293.0,1489.0,194.0,151.0,-333.0,0.043,-0.783,-0.121,-0.609
1078653,8259.0,2291.0,1685.0,161.0,356.0,-434.0,0.042,-0.78,-0.126,-0.612
1078665,8163.0,2349.0,1761.0,-97.0,449.0,-491.0,0.039,-0.776,-0.129,-0.616
1078687,8379.0,1393.0,1707.0,-69.0,683.0,-629.0,0.036,-0.771,-0.134,-0.622
1078699,8281.0,1719.0,1815.0,116.0,962.0,-821.0,0.034,-0.764,-0.14,-0.629
1078721,8725.0,2579.0,2621.0,173.0,1163.0,-928.0,0.032,-0.755,-0.148,-0.637
1078743,8709.0,2767.0,3231.0,149.0,1351.0,-880.0,0.03,-0.746,-0.155,-0.647
1078755,9159.0,2145.0,3105.0,441.0,1700.0,-902.0,0.03,-0.734,-0.164,-0.658
1078777,8631.0,4503.0,2105.0,492.0,1924.0,-950.0,0.031,-0.72,-0.174,-0.671
1078789,9757.0,5231.0,2983.0,-51.0,1854.0,-969.0,0.028,-0.707,-0.18,-0.683
1078811,11503.0,2275.0,2777.0,-430.0,2008.0,-1003.0,0.023,-0.692,-0.184,-0.697
1078823,12469.0,2077.0,2409.0,95.0,2558.0,-1272.0,0.021,-0.673,-0.192,-0.714
1078845,11351.0,5045.0,2387.0,384.0,2821.0,-1545.0,0.018,-0.651,-0.205,-0.731
1078857,10767.0,8183.0,2819.0,-410.0,2581.0,-1785.0,0.009,-0.63,-0.213,-0.747
1078879,13059.0,4753.0,2377.0,-1360.0,2486.0,-1882.0,0.006,0.609,0.214,0.764
1078906,13535.0,4235.0,3007.0,-1071.0,3002.0,-1912.0,0.019,0.583,0.218,0.783
1078918,12763.0,7049.0,4801.0,-1001.0,3254.0,-2047.0,0.033,0.554,0.223,0.801
1078930,12899.0,5883.0,4813.0,-1401.0,3363.0,-2000.0,0.047,0.524,0.224,0.82
1078952,12857.0,4099.0,4027.0,-1509.0,3623.0,-1929.0,0.061,0.491,0.223,0.84
1078964,12489.0,3309.0,3497.0,-1281.0,3712.0,-2675.0,0.079,0.455,0.228,0.857
1078986,11507.0,8705.0,3833.0,-1104.0,3640.0,-2215.0,0.093,0.42,0.231,0.873
1078998,11363.0,6593.0,5403.0,-1341.0,3503.0,-1879.0,0.106,0.386,0.231,0.887
1079020,8925.0,6787.0,4701.0,-1063.0,3427.0,-2343.0,0.121,0.351,0.234,0.899
1079042,7811.0,9041.0,5455.0,-1306.0,3197.0,-2681.0,0.14,0.317,0.235,0.908
1079054,8315.0,7503.0,5881.0,-1487.0,3072.0,-2294.0,0.157,0.284,0.233,0.917
1079076,7689.0,5863.0,6327.0,-1532.0,2971.0,-2213.0,0.173,0.251,0.23,0.924
1079088,7105.0,5801.0,6697.0,-1411.0,3001.0,-2014.0,0.187,0.218,0.228,0.93
1079110,5999.0,7057.0,6853.0,-1427.0,2962.0,-1974.0,0.2,0.186,0.224,0.935
1079122,5443.0,5165.0,6677.0,-1447.0,2824.0,-1972.0,0.214,0.154,0.22,0.939
1079144,5249.0,5207.0,6473.0,-1421.0,2839.0,-1769.0,0.225,0.123,0.216,0.942
1079156,4813.0,5085.0,6101.0,-1411.0,2855.0,-1579.0,0.235,0.092,0.211,0.944
1079178,3835.0,5251.0,5877.0,-1284.0,2774.0,-1486.0,0.243,0.063,0.207,0.946
1079200,3421.0,4531.0,5663.0,-1273.0,2565.0,-1602.0,0.253,0.035,0.203,0.945
1079212,3419.0,3541.0,5665.0,-1225.0,2442.0,-1470.0,0.261,0.009,0.198,0.945
1079234,2051.0,3605.0,5641.0,-1208.0,2344.0,-1296.0,0.268,-0.017,0.193,0.944
1079246,1943.0,2871.0,5919.0,-1357.0,2122.0,-1224.0,0.275,-0.041,0.187,0.942
1079268,1803.0,2169.0,5197.0,-1292.0,2033.0,-1077.0,0.281,-0.064,0.18,0.941
1079280,2017.0,3635.0,4265.0,-1119.0,2015.0,-1074.0,0.286,-0.086,0.175,0.938
1079302,-67.0,3791.0,4145.0,-2119.0,1513.0,-1943.0,0.299,-0.108,0.159,0.935
1079314,1625.0,2083.0,4209.0,-2007.0,1768.0,-1709.0,0.31,-0.132,0.144,0.931
1079336,559.0,775.0,4985.0,-1980.0,1742.0,-1421.0,0.317,-0.154,0.13,0.927
1079348,-415.0,-1377.0,3145.0,-1570.0,1626.0,-1312.0,0.325,-0.174,0.12,0.922
1079370,47.0,773.0,3457.0,-1348.0,1515.0,-1253.0,0.332,-0.193,0.111,0.917
1079392,241.0,691.0,2623.0,-1269.0,1525.0,-1284.0,0.339,-0.211,0.102,0.911
1079404,121.0,1399.0,1551.0,-1280.0,1468.0,-1439.0,0.348,-0.229,0.093,0.904
1079426,-223.0,263.0,747.0,-959.0,1304.0,-1772.0,0.36,-0.244,0.086,0.896
1079438,-389.0,-277.0,1055.0,-732.0,924.0,-2037.0,0.375,-0.256,0.078,0.888
1079460,871.0,3151.0,915.0,-1108.0,804.0,-1536.0,0.385,-0.267,0.068,0.881
1079472,251.0,-2707.0,559.0,-1537.0,892.0,-924.0,0.388,-0.281,0.057,0.876
1079494,-747.0,-1793.0,587.0,-1023.0,766.0,-1063.0,0.394,-0.291,0.049,0.87
1079506,-1317.0,-2259.0,1115.0,-952.0,640.0,-468.0,0.396,-0.3,0.042,0.867
1079528,-2355.0,-2971.0,807.0,-673.0,463.0,-163.0,0.395,-0.306,0.038,0.865
1079540,-1779.0,-2355.0,1057.0,-301.0,213.0,51.0,0.395,-0.309,0.037,0.865
1079562,-1819.0,-3461.0,879.0,57.0,-14.0,186.0,0.394,-0.308,0.038,0.865
1079584,-1691.0,-2751.0,1013.0,426.0,-297.0,334.0,0.393,-0.304,0.042,0.867
1079596,-1763.0,-4595.0,1047.0,712.0,-579.0,592.0,0.391,-0.296,0.047,0.87
1079618,-1161.0,-2589.0,927.0,1168.0,-778.0,643.0,0.39,-0.285,0.056,0.874
1079630,-1009.0,-1891.0,1417.0,1545.0,-990.0,728.0,0.389,-0.271,0.067,0.878
1079652,-1703.0,-1883.0,1411.0,1879.0,-1186.0,876.0,0.388,-0.254,0.08,0.882
1079664,-1925.0,-733.0,1363.0,2087.0,-1479.0,1017.0,0.386,-0.233,0.095,0.887
1079686,-1285.0,-491.0,1883.0,2151.0,-1900.0,1253.0,0.383,-0.208,0.108,0.893
1079698,175.0,431.0,2985.0,2289.0,-2286.0,1218.0,0.38,-0.18,0.122,0.899
1079720,273.0,1263.0,2981.0,2155.0,-2401.0,1318.0,0.376,-0.15,0.134,0.905
1079742,391.0,2323.0,3057.0,2120.0,-2579.0,1376.0,0.371,-0.119,0.144,0.91
1079754,1305.0,3299.0,4761.0,1950.0,-2790.0,1296.0,0.366,-0.087,0.153,0.914
1079776,2221.0,3493.0,4979.0,1736.0,-2903.0,1273.0,0.361,-0.054,0.159,0.917
1079788,2761.0,1589.0,6105.0,1616.0,-2897.0,1460.0,0.354,-0.021,0.163,0.921
1079810,2905.0,3463.0,6325.0,2054.0,-2766.0,1660.0,0.345,0.013,0.172,0.923
1079822,3227.0,6553.0,6419.0,2079.0,-2850.0,1711.0,0.334,0.047,0.18,0.924
1079844,4371.0,5983.0,6833.0,1613.0,-3029.0,1744.0,0.324,0.081,0.184,0.924
1079856,5345.0,4787.0,7117.0,1503.0,-3045.0,1884.0,0.312,0.115,0.186,0.925
1079878,6045.0,5601.0,7587.0,1473.0,-3080.0,2036.0,0.299,0.15,0.187,0.924
1079900,6729.0,4439.0,7551.0,1936.0,-3069.0,1609.0,0.288,0.184,0.193,0.92
1079912,7487.0,6507.0,6195.0,2185.0,-2868.0,1886.0,0.273,0.218,0.201,0.915
1079934,8911.0,7803.0,5679.0,2125.0,-2757.0,2625.0,0.252,0.252,0.206,0.911
1079946,7331.0,7299.0,4877.0,1565.0,-3084.0,1316.0,0.243,0.285,0.209,0.904
1079968,11963.0,7373.0,8315.0,2397.0,-2442.0,3400.0,0.213,0.317,0.214,0.899
1079980,7891.0,7343.0,7541.0,1901.0,-2534.0,3050.0,0.187,0.348,0.216,0.893
1080002,8521.0,8803.0,5437.0,2335.0,-2963.0,927.0,0.177,0.378,0.227,0.88
1080014,12007.0,9303.0,4703.0,1560.0,-3351.0,1756.0,0.164,0.412,0.227,0.867
1080036,11679.0,8757.0,4727.0,2086.0,-2048.0,1976.0,0.145,0.436,0.233,0.857
1080048,9217.0,7129.0,5833.0,1691.0,-2552.0,2010.0,0.127,0.463,0.235,0.845
1080070,10285.0,6605.0,5623.0,1804.0,-2149.0,2570.0,0.104,0.487,0.236,0.834
1080092,10221.0,7777.0,4841.0,2002.0,-1898.0,3142.0,0.074,0.511,0.235,0.824
1080104,9925.0,7663.0,4217.0,1382.0,-1929.0,3588.0,0.044,0.534,0.227,0.813
1080126,8793.0,5517.0,4325.0,903.0,-2155.0,2277.0,0.027,0.555,0.221,0.801
1080138,10101.0,4893.0,4009.0,994.0,-2057.0,1702.0,0.013,0.574,0.22,0.789
1080160,10307.0,4759.0,3269.0,1190.0,-1811.0,1846.0,0.003,-0.591,-0.218,-0.776
1080172,9019.0,4237.0,2821.0,1281.0,-1736.0,1498.0,0.018,-0.607,-0.22,-0.764
1080194,9857.0,4309.0,3065.0,1422.0,-1690.0,1448.0,0.033,-0.621,-0.222,-0.751
1080206,9415.0,5889.0,2899.0,1333.0,-1602.0,1534.0,0.049,-0.635,-0.223,-0.738
1080228,9119.0,4543.0,3299.0,1068.0,-1705.0,1492.0,0.062,-0.649,-0.222,-0.725
1080250,9403.0,4899.0,3069.0,1072.0,-1600.0,1213.0,0.074,-0.662,-0.224,-0.712
1080262,9091.0,4895.0,2817.0,868.0,-1525.0,1082.0,0.083,-0.673,-0.224,-0.7
1080284,10975.0,4053.0,2811.0,842.0,-1145.0,1313.0,0.095,-0.683,-0.222,-0.69
1080296,8593.0,3919.0,2501.0,321.0,-1312.0,798.0,0.1,-0.692,-0.221,-0.68
1080318,9153.0,4701.0,1839.0,308.0,-1190.0,709.0,0.104,-0.701,-0.22,-0.671
1080330,8423.0,3843.0,1543.0,87.0,-1074.0,1098.0,0.11,-0.71,-0.214,-0.662
1080352,8247.0,2471.0,1903.0,29.0,-1026.0,716.0,0.113,-0.717,-0.211,-0.655
1080364,8491.0,2985.0,1949.0,100.0,-773.0,571.0,0.116,-0.722,-0.209,-0.649
1080386,8387.0,3191.0,2117.0,37.0,-649.0,497.0,0.118,-0.727,-0.207,-0.644
1080398,8169.0,2921.0,1783.0,148.0,-460.0,446.0,0.121,-0.73,-0.206,-0.64
1080420,7757.0,3333.0,1955.0,94.0,-307.0,273.0,0.122,-0.732,-0.206,-0.638
1080442,7713.0,2765.0,2073.0,-45.0,-180.0,-9.0,0.122,-0.732,-0.206,-0.638
1080454,7705.0,2787.0,2161.0,-96.0,-43.0,-202.0,0.12,-0.732,-0.208,-0.638
1080476,7607.0,3167.0,1965.0,-124.0,136.0,-249.0,0.118,-0.73,-0.209,-0.64
1080488,7485.0,3381.0,2033.0,-186.0,224.0,-370.0,0.115,-0.727,-0.211,-0.643
1080510,7811.0,3453.0,2727.0,-236.0,329.0,-567.0,0.111,-0.724,-0.214,-0.647
1080522,7995.0,3119.0,2369.0,-357.0,452.0,-776.0,0.105,-0.719,-0.217,-0.652
1080544,8039.0,3669.0,1481.0,-742.0,460.0,-964.0,0.095,-0.714,-0.219,-0.658
1080556,8407.0,3433.0,2239.0,-871.0,592.0,-1071.0,0.084,-0.709,-0.221,-0.664
1080578,8401.0,3983.0,2707.0,-896.0,848.0,-1166.0,0.073,-0.702,-0.223,-0.672
1080600,9267.0,4205.0,3777.0,-879.0,1114.0,-1276.0,0.062,-0.693,-0.225,-0.682
1080612,9597.0,4573.0,2673.0,-802.0,1464.0,-1416.0,0.052,-0.681,-0.229,-0.694
1080634,9353.0,6089.0,2199.0,-1001.0,1541.0,-1548.0,0.039,-0.668,-0.232,-0.706
1080646,10023.0,5337.0,2013.0,-1467.0,1539.0,-1635.0,0.023,-0.654,-0.232,-0.719
1080668,10979.0,3761.0,2671.0,-1410.0,1777.0,-1697.0,0.008,-0.638,-0.233,-0.733
1080680,12801.0,5713.0,3573.0,-1119.0,2315.0,-1595.0,0.004,0.619,0.235,0.749
1080702,10937.0,5913.0,4073.0,-1782.0,2200.0,-1483.0,0.019,0.6,0.232,0.766
1080714,11493.0,6201.0,3841.0,-1887.0,2279.0,-1807.0,0.037,0.579,0.229,0.782
1080736,12605.0,6159.0,3749.0,-1943.0,2460.0,-1831.0,0.055,0.556,0.226,0.798
