timeMs,ax,ay,az,gx,gy,gz,q0,q1,q2,q3
802769,5994.0,4422.0,3660.0,-88.0,209.0,-131.0,0.027,0.424,0.273,0.863
802791,5732.0,4496.0,3826.0,-161.0,139.0,-110.0,0.028,0.423,0.272,0.864
802803,5822.0,4166.0,4354.0,-151.0,115.0,-67.0,0.028,0.421,0.272,0.865
802825,5876.0,3774.0,4164.0,-90.0,141.0,-28.0,0.028,0.42,0.271,0.866
802837,5876.0,3926.0,3890.0,-15.0,178.0,-34.0,0.027,0.419,0.272,0.866
802859,6074.0,4258.0,3428.0,-102.0,131.0,-82.0,0.028,0.417,0.271,0.867
802871,6178.0,3620.0,3666.0,-99.0,135.0,-91.0,0.028,0.416,0.271,0.868
802893,6166.0,3292.0,4058.0,151.0,260.0,-99.0,0.027,0.414,0.273,0.868
802905,5876.0,4840.0,4206.0,322.0,361.0,-137.0,0.025,0.411,0.276,0.869
802927,5740.0,4420.0,4104.0,157.0,334.0,-125.0,0.025,0.408,0.278,0.869
802949,5596.0,3904.0,4388.0,226.0,360.0,-138.0,0.024,0.404,0.281,0.87
802961,5594.0,3710.0,4716.0,357.0,407.0,-218.0,0.022,0.4,0.285,0.871
802983,5338.0,4042.0,4908.0,428.0,477.0,-231.0,0.021,0.396,0.289,0.871
802995,5004.0,4578.0,4764.0,491.0,517.0,-250.0,0.02,0.391,0.294,0.872
803017,4866.0,5382.0,4834.0,418.0,474.0,-307.0,0.019,0.386,0.299,0.872
803029,4726.0,5102.0,5256.0,461.0,493.0,-309.0,0.018,0.381,0.305,0.873
803051,4746.0,5740.0,5428.0,440.0,475.0,-388.0,0.018,0.376,0.31,0.873
803063,5000.0,4816.0,5258.0,339.0,535.0,-395.0,0.018,0.37,0.314,0.874
803085,4888.0,5378.0,4984.0,485.0,608.0,-477.0,0.018,0.364,0.32,0.875
803107,4720.0,6938.0,5356.0,366.0,548.0,-565.0,0.019,0.357,0.325,0.875
803119,4794.0,6052.0,5478.0,196.0,558.0,-542.0,0.021,0.351,0.329,0.876
803141,4470.0,5304.0,5476.0,395.0,709.0,-569.0,0.022,0.343,0.334,0.877
803153,4126.0,7398.0,5138.0,439.0,752.0,-705.0,0.023,0.335,0.34,0.878
803175,3676.0,7830.0,5506.0,267.0,741.0,-706.0,0.025,0.327,0.345,0.88
803187,3868.0,6702.0,5636.0,105.0,703.0,-776.0,0.029,0.318,0.349,0.881
803209,3644.0,6774.0,5192.0,133.0,779.0,-876.0,0.033,0.309,0.353,0.883
803221,3712.0,7328.0,5210.0,-10.0,705.0,-986.0,0.038,0.3,0.356,0.884
803243,4054.0,6362.0,4868.0,-39.0,780.0,-1052.0,0.044,0.29,0.359,0.886
803265,3224.0,7198.0,4562.0,284.0,926.0,-1131.0,0.049,0.278,0.365,0.887
803277,2774.0,8384.0,4930.0,386.0,886.0,-1269.0,0.055,0.267,0.372,0.888
803299,2878.0,8472.0,4890.0,-28.0,776.0,-1364.0,0.063,0.255,0.375,0.889
803311,3182.0,7350.0,5274.0,-424.0,702.0,-1319.0,0.073,0.245,0.375,0.891
803333,3092.0,6756.0,5100.0,-732.0,621.0,-1462.0,0.084,0.234,0.373,0.894
803345,2942.0,4810.0,5124.0,-901.0,543.0,-1495.0,0.096,0.223,0.369,0.897
803367,2036.0,4960.0,5816.0,-746.0,533.0,-1528.0,0.108,0.213,0.366,0.899
803379,2306.0,6264.0,5992.0,-728.0,383.0,-1683.0,0.122,0.203,0.364,0.901
803401,1846.0,7510.0,5354.0,-971.0,319.0,-1618.0,0.136,0.193,0.359,0.903
803413,1848.0,6632.0,4946.0,-1086.0,92.0,-1648.0,0.151,0.186,0.353,0.904
803435,2046.0,4778.0,4766.0,-991.0,-62.0,-1815.0,0.168,0.179,0.348,0.905
803457,1932.0,5818.0,4094.0,-408.0,42.0,-1842.0,0.184,0.172,0.348,0.903
803469,1004.0,8204.0,5048.0,-396.0,64.0,-1948.0,0.2,0.164,0.348,0.901
803491,1104.0,8168.0,2834.0,-661.0,-155.0,-1902.0,0.218,0.158,0.346,0.899
803503,706.0,6044.0,3632.0,-602.0,-183.0,-1937.0,0.235,0.152,0.343,0.897
803525,472.0,5960.0,3276.0,-370.0,-128.0,-1999.0,0.252,0.146,0.342,0.893
803537,48.0,6570.0,3506.0,-388.0,-213.0,-2013.0,0.27,0.141,0.342,0.889
803559,82.0,6420.0,3732.0,-267.0,-274.0,-1965.0,0.287,0.136,0.342,0.884
803571,8.0,6856.0,3714.0,-277.0,-353.0,-1862.0,0.304,0.133,0.342,0.879
803593,382.0,3816.0,3832.0,-145.0,-340.0,-1479.0,0.317,0.13,0.341,0.875
803615,132.0,4934.0,3026.0,90.0,-371.0,-1445.0,0.33,0.129,0.343,0.87
803627,830.0,4440.0,2350.0,148.0,-505.0,-1451.0,0.343,0.129,0.344,0.864
803649,628.0,4934.0,3252.0,246.0,-588.0,-1496.0,0.357,0.13,0.346,0.858
803661,658.0,4928.0,4272.0,419.0,-580.0,-1436.0,0.37,0.131,0.349,0.851
803683,-100.0,5344.0,4714.0,630.0,-516.0,-1301.0,0.381,0.133,0.354,0.844
803695,106.0,3980.0,3598.0,581.0,-583.0,-1272.0,0.392,0.136,0.358,0.836
803717,1306.0,3076.0,3534.0,752.0,-653.0,-1279.0,0.404,0.14,0.363,0.828
803739,774.0,5404.0,4562.0,1119.0,-674.0,-1179.0,0.414,0.145,0.37,0.819
803751,-382.0,7158.0,5716.0,1004.0,-681.0,-976.0,0.422,0.151,0.376,0.811
803773,-674.0,6580.0,5816.0,560.0,-769.0,-885.0,0.431,0.156,0.379,0.804
803785,1406.0,3464.0,6062.0,464.0,-617.0,323.0,0.43,0.164,0.379,0.803
803807,-1938.0,4284.0,6614.0,183.0,-444.0,-128.0,0.433,0.167,0.379,0.801
803819,2780.0,6536.0,10542.0,715.0,-924.0,-1149.0,0.444,0.173,0.382,0.792
803841,2184.0,5796.0,10240.0,148.0,-449.0,-500.0,0.449,0.175,0.382,0.789
803853,692.0,5430.0,7542.0,-100.0,-572.0,-456.0,0.454,0.178,0.38,0.786
803875,816.0,4604.0,5360.0,-117.0,-701.0,-754.0,0.463,0.18,0.377,0.782
803887,424.0,3412.0,3440.0,132.0,-827.0,-721.0,0.471,0.184,0.375,0.777
803909,392.0,3192.0,4556.0,174.0,-1038.0,-605.0,0.479,0.19,0.373,0.772
803921,-220.0,1128.0,7518.0,20.0,-1093.0,-459.0,0.486,0.196,0.368,0.768
803943,-418.0,334.0,8296.0,599.0,-876.0,-134.0,0.489,0.204,0.368,0.764
803965,598.0,5672.0,7498.0,531.0,-467.0,-163.0,0.491,0.209,0.369,0.761
803977,1402.0,6754.0,5560.0,-152.0,-291.0,75.0,0.492,0.211,0.367,0.761
803999,-62.0,5564.0,5128.0,-233.0,36.0,291.0,0.49,0.211,0.364,0.763
804011,-340.0,4050.0,6022.0,-186.0,108.0,151.0,0.489,0.21,0.363,0.765
804033,-420.0,5006.0,6566.0,296.0,204.0,211.0,0.487,0.211,0.366,0.765
804045,-482.0,7426.0,7780.0,417.0,392.0,318.0,0.482,0.211,0.37,0.766
804067,-58.0,9692.0,7540.0,147.0,592.0,323.0,0.478,0.209,0.373,0.768
804079,-1008.0,9480.0,5816.0,-148.0,715.0,137.0,0.474,0.203,0.374,0.77
804101,-1466.0,7686.0,4552.0,-277.0,573.0,-101.0,0.474,0.198,0.375,0.772
804128,-1246.0,6506.0,4706.0,-90.0,442.0,-181.0,0.474,0.194,0.377,0.772
804140,-1106.0,5998.0,5062.0,69.0,318.0,-150.0,0.474,0.191,0.379,0.772
804152,-944.0,5850.0,5226.0,103.0,224.0,-147.0,0.474,0.19,0.381,0.771
804174,-998.0,5470.0,5180.0,105.0,150.0,-164.0,0.475,0.188,0.383,0.77
804186,-1170.0,5136.0,5092.0,182.0,98.0,-109.0,0.475,0.188,0.385,0.769
804208,-952.0,5714.0,5490.0,173.0,32.0,-58.0,0.475,0.189,0.386,0.768
804220,-640.0,6062.0,5958.0,174.0,76.0,-36.0,0.475,0.189,0.387,0.767
804242,-796.0,5918.0,5886.0,132.0,90.0,13.0,0.474,0.189,0.388,0.767
804254,-440.0,6148.0,5896.0,132.0,147.0,44.0,0.473,0.188,0.39,0.767
804276,-618.0,6058.0,5654.0,105.0,221.0,60.0,0.472,0.188,0.391,0.767
804298,-482.0,6360.0,5670.0,103.0,256.0,14.0,0.471,0.186,0.393,0.767
804310,-288.0,6346.0,5808.0,138.0,333.0,-49.0,0.47,0.185,0.395,0.767
804332,-112.0,6110.0,5964.0,186.0,368.0,-40.0,0.469,0.183,0.398,0.767
804344,218.0,5776.0,6256.0,246.0,496.0,5.0,0.467,0.181,0.401,0.767
804366,102.0,5656.0,6386.0,293.0,715.0,-46.0,0.464,0.177,0.406,0.767
804378,312.0,6380.0,6194.0,320.0,779.0,-13.0,0.46,0.173,0.412,0.767
804400,-190.0,5828.0,5856.0,231.0,954.0,38.0,0.456,0.167,0.417,0.768
804412,-544.0,5224.0,5472.0,254.0,1058.0,60.0,0.451,0.161,0.423,0.769
804434,-318.0,5274.0,5406.0,348.0,1119.0,121.0,0.446,0.155,0.429,0.77
804456,-356.0,5606.0,5314.0,330.0,1209.0,251.0,0.439,0.149,0.436,0.772
804468,-700.0,6048.0,5150.0,227.0,1260.0,330.0,0.431,0.142,0.442,0.774
804490,-1182.0,5846.0,4958.0,110.0,1285.0,371.0,0.423,0.135,0.447,0.776
804502,-1544.0,6264.0,5042.0,125.0,1305.0,435.0,0.414,0.128,0.453,0.779
804524,-1038.0,6646.0,5028.0,109.0,1304.0,442.0,0.405,0.121,0.458,0.782
804536,-390.0,6178.0,4752.0,11.0,1312.0,440.0,0.396,0.114,0.462,0.785
804558,-410.0,6608.0,4728.0,121.0,1378.0,313.0,0.388,0.106,0.468,0.787
804570,-1598.0,7436.0,4746.0,381.0,1426.0,308.0,0.379,0.098,0.475,0.788
804592,-1948.0,7676.0,4734.0,615.0,1429.0,353.0,0.37,0.091,0.484,0.788
804604,-1930.0,8492.0,4702.0,638.0,1471.0,255.0,0.361,0.084,0.494,0.787
804626,-1768.0,8932.0,4512.0,280.0,1516.0,220.0,0.352,0.075,0.501,0.787
804648,-1824.0,8490.0,4056.0,-135.0,1558.0,200.0,0.343,0.064,0.505,0.79
804660,-2252.0,7624.0,3822.0,-370.0,1550.0,116.0,0.335,0.052,0.507,0.792
804682,-2118.0,6750.0,3618.0,-480.0,1528.0,50.0,0.328,0.04,0.508,0.795
804694,-2266.0,6618.0,3520.0,-388.0,1525.0,118.0,0.32,0.028,0.51,0.798
804716,-2090.0,7540.0,3632.0,-499.0,1618.0,184.0,0.311,0.016,0.511,0.801
804728,-2668.0,7370.0,3418.0,-820.0,1651.0,358.0,0.301,0.003,0.51,0.806
804750,-2916.0,6954.0,3494.0,-1178.0,1619.0,395.0,0.29,-0.011,0.505,0.813
804772,-2628.0,6278.0,4008.0,-1254.0,1615.0,359.0,0.28,-0.024,0.5,0.819
804784,-2400.0,5844.0,4040.0,-1197.0,1652.0,346.0,0.27,-0.038,0.495,0.825
804806,-2658.0,6118.0,4000.0,-1157.0,1664.0,398.0,0.259,-0.052,0.49,0.831
804818,-2824.0,6390.0,3974.0,-1240.0,1714.0,509.0,0.246,-0.066,0.485,0.836
804840,-3342.0,6766.0,4138.0,-1452.0,1724.0,626.0,0.233,-0.08,0.478,0.843
804852,-3350.0,6594.0,4136.0,-1717.0,1738.0,651.0,0.219,-0.094,0.469,0.85
804874,-3600.0,6334.0,4354.0,-1848.0,1721.0,600.0,0.205,-0.109,0.458,0.858
804886,-3712.0,5744.0,4608.0,-1759.0,1722.0,538.0,0.192,-0.123,0.448,0.864
804908,-3880.0,5816.0,4740.0,-1585.0,1754.0,491.0,0.179,-0.138,0.439,0.87
804920,-3876.0,6444.0,4724.0,-1539.0,1779.0,527.0,0.166,-0.153,0.43,0.874
804942,-3988.0,6156.0,4868.0,-1710.0,1715.0,561.0,0.152,-0.167,0.42,0.879
804964,-3998.0,5772.0,4848.0,-1869.0,1679.0,552.0,0.138,-0.181,0.407,0.884
804976,-4108.0,5490.0,4502.0,-1878.0,1668.0,517.0,0.125,-0.195,0.395,0.889
804998,-4232.0,5158.0,4384.0,-1848.0,1622.0,483.0,0.112,-0.209,0.383,0.893
805010,-4450.0,4588.0,4158.0,-1799.0,1538.0,448.0,0.1,-0.222,0.37,0.897
805032,-4484.0,4450.0,3860.0,-1739.0,1436.0,429.0,0.088,-0.234,0.358,0.9
805044,-4482.0,4410.0,3862.0,-1717.0,1307.0,470.0,0.076,-0.245,0.346,0.903
805066,-4550.0,4680.0,3818.0,-1617.0,1149.0,543.0,0.065,-0.254,0.334,0.905
805078,-4546.0,4678.0,3960.0,-1524.0,1041.0,627.0,0.053,-0.261,0.324,0.908
805100,-4534.0,4438.0,4248.0,-1465.0,899.0,648.0,0.042,-0.268,0.314,0.91
805112,-4568.0,4888.0,4826.0,-1408.0,818.0,615.0,0.031,-0.273,0.304,0.912
805134,-4488.0,5616.0,5178.0,-1370.0,715.0,601.0,0.021,-0.278,0.294,0.914
805156,-4522.0,5310.0,5574.0,-1402.0,698.0,616.0,0.01,-0.282,0.284,0.916
805168,-4636.0,3956.0,5898.0,-1460.0,674.0,617.0,0.0,0.286,-0.274,-0.918
805190,-4688.0,3722.0,5406.0,-1351.0,710.0,594.0,0.01,0.291,-0.264,-0.92
805202,-4646.0,3688.0,5042.0,-1301.0,689.0,604.0,0.02,0.295,-0.254,-0.921
805224,-4550.0,2332.0,5212.0,-1305.0,656.0,638.0,0.031,0.299,-0.245,-0.922
805236,-4372.0,2254.0,5910.0,-1144.0,667.0,728.0,0.041,0.302,-0.237,-0.922
805258,-3720.0,3802.0,6290.0,-998.0,760.0,951.0,0.054,0.306,-0.231,-0.922
805270,-4056.0,3122.0,5058.0,-1114.0,769.0,1210.0,0.069,0.309,-0.224,-0.922
805292,-4484.0,2884.0,3754.0,-1053.0,648.0,1183.0,0.083,0.311,-0.218,-0.921
805314,-4092.0,4222.0,3588.0,-940.0,515.0,1090.0,0.096,0.313,-0.213,-0.921
805326,-4038.0,5126.0,4548.0,-942.0,342.0,1067.0,0.108,0.313,-0.208,-0.92
805348,-3828.0,5470.0,4960.0,-785.0,144.0,953.0,0.119,0.311,-0.205,-0.92
805360,-3864.0,5040.0,4482.0,-631.0,-8.0,774.0,0.128,0.309,-0.202,-0.921
805382,-3696.0,4456.0,3934.0,-544.0,-135.0,595.0,0.134,0.306,-0.199,-0.921
805394,-3596.0,4024.0,3994.0,-525.0,-225.0,462.0,0.139,0.302,-0.196,-0.922
805416,-3554.0,4454.0,5140.0,-512.0,-309.0,359.0,0.143,0.298,-0.194,-0.924
805428,-3252.0,4532.0,6100.0,-531.0,-331.0,337.0,0.147,0.294,-0.191,-0.925
805450,-3066.0,4520.0,6326.0,-530.0,-315.0,310.0,0.151,0.29,-0.188,-0.926
805472,-3432.0,3460.0,5928.0,-372.0,-333.0,225.0,0.153,0.286,-0.185,-0.928
805484,-3156.0,3932.0,5928.0,-30.0,-290.0,55.0,0.154,0.283,-0.186,-0.928
805506,-3386.0,5390.0,6990.0,-23.0,-188.0,105.0,0.155,0.281,-0.186,-0.929
805518,-3396.0,4918.0,7366.0,-287.0,-135.0,184.0,0.157,0.279,-0.184,-0.929
805540,-3996.0,4086.0,7380.0,-342.0,-55.0,124.0,0.16,0.278,-0.182,-0.93
805552,-4028.0,3818.0,7376.0,-256.0,27.0,12.0,0.161,0.278,-0.179,-0.93
805574,-4114.0,3594.0,7036.0,-95.0,65.0,-54.0,0.161,0.279,-0.178,-0.93
805586,-3984.0,3424.0,6746.0,-23.0,68.0,-49.0,0.161,0.279,-0.177,-0.93
805608,-3694.0,3592.0,6428.0,-22.0,64.0,66.0,0.163,0.28,-0.177,-0.929
805620,-3578.0,3448.0,6256.0,-23.0,116.0,233.0,0.166,0.28,-0.177,-0.929
805642,-3750.0,3714.0,6314.0,-207.0,28.0,82.0,0.168,0.28,-0.176,-0.929
805664,-3638.0,3630.0,6364.0,-178.0,33.0,174.0,0.17,0.28,-0.174,-0.929
805676,-3622.0,3550.0,6780.0,-116.0,20.0,88.0,0.172,0.28,-0.173,-0.928
805698,-3588.0,3416.0,6542.0,-60.0,25.0,144.0,0.174,0.28,-0.173,-0.928
805710,-3678.0,3520.0,6194.0,2.0,38.0,142.0,0.176,0.28,-0.173,-0.928
805732,-3372.0,3724.0,6552.0,-2.0,40.0,130.0,0.178,0.28,-0.173,-0.927
805744,-3540.0,3642.0,6558.0,-9.0,53.0,75.0,0.18,0.28,-0.173,-0.927
805766,-3788.0,3454.0,6496.0,-15.0,37.0,44.0,0.181,0.281,-0.173,-0.927
805778,-3680.0,3522.0,6526.0,17.0,35.0,46.0,0.182,0.281,-0.173,-0.926
805800,-3960.0,3356.0,6390.0,35.0,10.0,65.0,0.184,0.281,-0.173,-0.926
805822,-3738.0,3512.0,6368.0,50.0,-6.0,78.0,0.185,0.281,-0.174,-0.925
805834,-3878.0,3268.0,6342.0,49.0,-1.0,102.0,0.187,0.281,-0.174,-0.925
805856,-3818.0,3442.0,6360.0,74.0,18.0,76.0,0.188,0.281,-0.175,-0.925
805868,-3926.0,3286.0,6246.0,42.0,26.0,64.0,0.19,0.282,-0.175,-0.924
805890,-3880.0,3552.0,6038.0,35.0,24.0,54.0,0.191,0.282,-0.175,-0.924
805902,-3736.0,3650.0,5970.0,-17.0,14.0,60.0,0.192,0.282,-0.175,-0.923
805924,-3672.0,3822.0,6150.0,-83.0,-15.0,29.0,0.194,0.282,-0.174,-0.923
805936,-3478.0,4154.0,6472.0,-71.0,-39.0,14.0,0.195,0.282,-0.173,-0.923
805958,-3486.0,3838.0,6446.0,-54.0,-19.0,-22.0,0.196,0.281,-0.173,-0.923
805970,-3582.0,3376.0,6512.0,-15.0,-4.0,-41.0,0.197,0.282,-0.172,-0.923
805993,-3740.0,3488.0,6488.0,28.0,27.0,-45.0,0.197,0.282,-0.172,-0.923
806005,-3698.0,3674.0,6064.0,8.0,29.0,2.0,0.198,0.282,-0.172,-0.923
806028,-3744.0,3738.0,5972.0,-53.0,16.0,-3.0,0.199,0.283,-0.171,-0.923
806050,-3788.0,3576.0,6190.0,-122.0,-5.0,-19.0,0.201,0.283,-0.17,-0.923
806062,-3916.0,3520.0,6452.0,-101.0,-20.0,-40.0,0.201,0.282,-0.169,-0.923
806084,-3892.0,3366.0,6622.0,-64.0,-8.0,-7.0,0.202,0.282,-0.168,-0.923
806096,-3832.0,3398.0,6726.0,-10.0,19.0,17.0,0.204,0.283,-0.167,-0.922
806118,-3958.0,3510.0,6702.0,11.0,22.0,38.0,0.205,0.283,-0.167,-0.922
806135,-3888.0,3514.0,6566.0,9.0,13.0,38.0,0.206,0.283,-0.167,-0.922
806147,-3844.0,3590.0,6382.0,23.0,8.0,15.0,0.207,0.283,-0.167,-0.921
806169,-3824.0,3560.0,6220.0,-38.0,5.0,4.0,0.208,0.283,-0.167,-0.921
806181,-3812.0,3468.0,6376.0,-35.0,18.0,21.0,0.21,0.284,-0.166,-0.921
806203,-3660.0,2862.0,6466.0,35.0,40.0,49.0,0.211,0.284,-0.166,-0.921
806225,-4136.0,3070.0,6172.0,169.0,43.0,-8.0,0.211,0.285,-0.167,-0.92
806237,-4322.0,3616.0,6296.0,272.0,-105.0,95.0,0.212,0.285,-0.169,-0.919
806259,-4452.0,3710.0,5824.0,0.0,-185.0,207.0,0.215,0.283,-0.17,-0.919
806271,-4010.0,3638.0,6126.0,-161.0,-253.0,171.0,0.217,0.28,-0.17,-0.92
806293,-3388.0,4176.0,6718.0,-100.0,-197.0,124.0,0.219,0.278,-0.169,-0.92
806305,-2854.0,3782.0,6748.0,92.0,-166.0,-25.0,0.219,0.277,-0.17,-0.92
806327,-2242.0,3352.0,6614.0,280.0,-184.0,-191.0,0.218,0.276,-0.172,-0.92
806339,-1734.0,3286.0,6576.0,396.0,-172.0,-136.0,0.217,0.276,-0.175,-0.92
806361,-1306.0,3870.0,6366.0,210.0,-114.0,-14.0,0.217,0.275,-0.177,-0.92
806373,-1956.0,3806.0,5878.0,-110.0,-160.0,-559.0,0.213,0.274,-0.175,-0.921
806395,-1986.0,3490.0,6380.0,-152.0,-124.0,-651.0,0.209,0.274,-0.172,-0.923
806417,-1896.0,4388.0,7468.0,-7.0,-28.0,-445.0,0.206,0.274,-0.171,-0.924
806429,-1906.0,4596.0,7016.0,301.0,-9.0,-400.0,0.203,0.275,-0.173,-0.924
806451,-1908.0,5338.0,5828.0,710.0,-10.0,-636.0,0.196,0.277,-0.178,-0.924
806463,-1882.0,6016.0,5440.0,917.0,-16.0,-824.0,0.187,0.28,-0.184,-0.924
806485,-2342.0,6520.0,4846.0,975.0,-36.0,-964.0,0.177,0.283,-0.19,-0.923
806497,-3210.0,6260.0,4334.0,800.0,-265.0,-1108.0,0.165,0.284,-0.196,-0.924
806519,-3312.0,5736.0,4094.0,734.0,-519.0,-1318.0,0.151,0.283,-0.2,-0.926
806531,-3516.0,4954.0,3500.0,868.0,-766.0,-1460.0,0.134,0.28,-0.205,-0.928
806553,-3410.0,4452.0,3340.0,1111.0,-973.0,-1582.0,0.116,0.276,-0.211,-0.931
806575,-3538.0,4282.0,3498.0,1183.0,-1172.0,-1574.0,0.097,0.27,-0.219,-0.933
806587,-3918.0,3024.0,3090.0,1137.0,-1527.0,-1479.0,0.077,0.26,-0.226,-0.935
806609,-3730.0,2580.0,2776.0,1140.0,-1841.0,-1424.0,0.058,0.248,-0.234,-0.938
806621,-3842.0,1426.0,2296.0,1332.0,-2238.0,-1338.0,0.038,0.232,-0.244,-0.941
806643,-2922.0,1510.0,2502.0,1566.0,-2476.0,-1405.0,0.016,0.213,-0.256,-0.943
806655,-2492.0,2202.0,3188.0,1516.0,-2734.0,-1273.0,0.005,-0.192,0.267,0.944
806677,-2152.0,2160.0,4260.0,1465.0,-2918.0,-996.0,0.024,-0.169,0.278,0.945
806689,-1560.0,2426.0,4988.0,1611.0,-3104.0,-727.0,0.042,-0.143,0.29,0.945
806711,-1200.0,3634.0,5510.0,1792.0,-3133.0,-469.0,0.058,-0.115,0.304,0.944
806733,-976.0,3438.0,5328.0,1828.0,-3329.0,-212.0,0.071,-0.085,0.318,0.942
806745,-496.0,2484.0,4860.0,1921.0,-3529.0,-74.0,0.084,-0.053,0.332,0.938
806767,392.0,3382.0,5718.0,1675.0,-3517.0,-467.0,0.1,-0.022,0.344,0.933
806779,-972.0,2570.0,6366.0,1382.0,-3532.0,-354.0,0.116,0.009,0.352,0.929
806801,1106.0,3570.0,7414.0,1122.0,-3503.0,277.0,0.125,0.042,0.357,0.925
806813,1016.0,3584.0,6506.0,1144.0,-3619.0,465.0,0.133,0.077,0.362,0.919
806835,1896.0,4728.0,5920.0,1439.0,-3583.0,483.0,0.14,0.111,0.369,0.912
806847,2586.0,4692.0,6954.0,1607.0,-3437.0,649.0,0.145,0.145,0.377,0.903
806869,3500.0,6186.0,7806.0,1659.0,-3305.0,716.0,0.148,0.178,0.385,0.893
806881,3930.0,7072.0,8604.0,1322.0,-3078.0,886.0,0.15,0.208,0.39,0.884
806903,4132.0,7530.0,8904.0,974.0,-2861.0,1068.0,0.15,0.237,0.392,0.876
806925,4388.0,8196.0,8894.0,982.0,-2607.0,1131.0,0.148,0.264,0.394,0.868
806937,4722.0,7536.0,7600.0,1426.0,-2353.0,1035.0,0.145,0.289,0.399,0.858
806959,4714.0,8962.0,7006.0,1731.0,-2042.0,818.0,0.141,0.311,0.408,0.847
806971,5012.0,9934.0,6592.0,1240.0,-1984.0,675.0,0.14,0.331,0.413,0.837
806993,4798.0,10678.0,6822.0,40.0,-1907.0,759.0,0.141,0.349,0.408,0.832
807005,4820.0,10326.0,6288.0,-1050.0,-2014.0,646.0,0.147,0.365,0.395,0.83
807027,4842.0,8522.0,5036.0,-1635.0,-2034.0,496.0,0.156,0.38,0.378,0.829
807039,4916.0,7234.0,3922.0,-1684.0,-1832.0,319.0,0.166,0.393,0.361,0.829
807061,5254.0,5102.0,4848.0,-1123.0,-1506.0,286.0,0.172,0.404,0.349,0.828
807083,5892.0,3676.0,5736.0,114.0,-935.0,272.0,0.172,0.412,0.347,0.825
807095,5612.0,5552.0,5938.0,937.0,-577.0,353.0,0.168,0.419,0.352,0.82
807117,4934.0,6982.0,5552.0,643.0,-399.0,625.0,0.162,0.425,0.354,0.817
807129,4244.0,8524.0,3932.0,-130.0,-669.0,693.0,0.159,0.432,0.349,0.816
807151,4586.0,7862.0,2568.0,-556.0,-733.0,521.0,0.159,0.439,0.342,0.816
807163,4166.0,7694.0,2032.0,-740.0,-723.0,499.0,0.161,0.445,0.333,0.816
807185,3920.0,6976.0,2368.0,-678.0,-671.0,474.0,0.162,0.45,0.326,0.815
807197,3762.0,6278.0,3174.0,-296.0,-570.0,414.0,0.162,0.455,0.321,0.815
807219,4074.0,6060.0,3136.0,374.0,-609.0,218.0,0.16,0.461,0.322,0.811
807241,4546.0,7366.0,2930.0,590.0,-452.0,49.0,0.159,0.465,0.326,0.807
807253,4378.0,7212.0,4086.0,223.0,-260.0,173.0,0.157,0.468,0.327,0.806
807275,4206.0,5472.0,4806.0,-60.0,-95.0,235.0,0.156,0.469,0.325,0.806
807287,4350.0,3288.0,3204.0,-124.0,-308.0,262.0,0.155,0.472,0.323,0.806
807309,5664.0,2002.0,3068.0,709.0,33.0,239.0,0.15,0.473,0.327,0.804
807321,4852.0,5766.0,3298.0,1177.0,204.0,279.0,0.142,0.474,0.335,0.802
807343,5968.0,5356.0,2822.0,797.0,87.0,495.0,0.134,0.476,0.339,0.8
807355,5946.0,4592.0,3092.0,993.0,365.0,528.0,0.124,0.476,0.344,0.799
807377,5766.0,5764.0,2788.0,711.0,329.0,416.0,0.117,0.476,0.348,0.799
807389,5754.0,5660.0,2302.0,456.0,305.0,476.0,0.11,0.476,0.35,0.799
807411,5694.0,6016.0,1638.0,295.0,204.0,325.0,0.106,0.476,0.351,0.8
807433,5950.0,5200.0,1948.0,293.0,169.0,259.0,0.102,0.476,0.352,0.8
807445,5738.0,4894.0,2498.0,470.0,232.0,264.0,0.097,0.475,0.355,0.799
807467,5676.0,4642.0,2384.0,707.0,286.0,219.0,0.091,0.475,0.359,0.798
807479,5782.0,5366.0,2318.0,788.0,259.0,168.0,0.085,0.474,0.365,0.797
807501,6140.0,5222.0,2818.0,575.0,246.0,192.0,0.08,0.473,0.368,0.796
807513,5796.0,4984.0,2834.0,498.0,330.0,213.0,0.075,0.472,0.371,0.796
807535,5326.0,5074.0,2718.0,474.0,340.0,202.0,0.07,0.47,0.374,0.796
807547,5090.0,4702.0,2644.0,403.0,397.0,281.0,0.065,0.468,0.376,0.797
807569,4776.0,4508.0,2408.0,474.0,453.0,314.0,0.058,0.466,0.379,0.797
807591,4440.0,5030.0,1700.0,438.0,436.0,321.0,0.052,0.465,0.381,0.798
807603,4468.0,4730.0,1384.0,214.0,193.0,348.0,0.048,0.464,0.381,0.798
807625,5188.0,3998.0,1904.0,76.0,95.0,260.0,0.045,0.465,0.381,0.798
807637,6122.0,4230.0,3218.0,-117.0,-7.0,209.0,0.044,0.465,0.379,0.799
807659,7334.0,4560.0,4058.0,-346.0,-17.0,161.0,0.044,0.466,0.375,0.8
807671,7398.0,5480.0,3574.0,-320.0,118.0,128.0,0.044,0.465,0.373,0.802
807693,6838.0,5698.0,2536.0,-245.0,193.0,167.0,0.043,0.464,0.37,0.803
807705,6218.0,5592.0,2420.0,-145.0,217.0,175.0,0.041,0.463,0.369,0.805
807727,5736.0,5420.0,2544.0,-160.0,152.0,120.0,0.041,0.463,0.367,0.806
807749,5592.0,4784.0,2744.0,-169.0,119.0,92.0,0.04,0.462,0.365,0.807
807761,5558.0,4658.0,2696.0,-116.0,118.0,39.0,0.039,0.461,0.365,0.808
807783,5616.0,4810.0,2742.0,-80.0,85.0,-13.0,0.039,0.46,0.364,0.809
807795,5814.0,4860.0,2854.0,-49.0,80.0,-58.0,0.04,0.459,0.364,0.809
807817,5938.0,4790.0,2948.0,30.0,109.0,-75.0,0.04,0.458,0.365,0.81
807829,5998.0,4860.0,2866.0,121.0,162.0,-80.0,0.039,0.457,0.366,0.81
807851,5888.0,4766.0,2896.0,192.0,195.0,-77.0,0.038,0.455,0.368,0.81
807863,5776.0,4818.0,2624.0,211.0,160.0,-79.0,0.037,0.454,0.37,0.81
807885,5518.0,5220.0,2442.0,235.0,136.0,-78.0,0.036,0.452,0.372,0.81
807897,5464.0,4928.0,2486.0,294.0,66.0,-33.0,0.034,0.452,0.374,0.809
807919,5856.0,5040.0,2872.0,389.0,37.0,-68.0,0.033,0.452,0.378,0.808
807941,5738.0,5042.0,2698.0,548.0,51.0,7.0,0.03,0.451,0.382,0.806
807953,5716.0,5294.0,2698.0,535.0,-14.0,7.0,0.028,0.452,0.386,0.804
807975,5646.0,5446.0,2692.0,483.0,-51.0,26.0,0.026,0.452,0.389,0.802
807987,5598.0,5342.0,2634.0,390.0,-99.0,23.0,0.024,0.453,0.392,0.8
808009,5362.0,5732.0,2474.0,262.0,-159.0,3.0,0.023,0.454,0.394,0.799
808021,5192.0,6114.0,2354.0,77.0,-236.0,-1.0,0.024,0.456,0.395,0.797
808043,5364.0,6018.0,2440.0,-83.0,-294.0,-36.0,0.026,0.458,0.395,0.796
808055,5598.0,5758.0,2258.0,-198.0,-326.0,-134.0,0.029,0.46,0.394,0.796
808077,5988.0,5798.0,2052.0,-277.0,-326.0,-251.0,0.033,0.461,0.393,0.795
808099,5886.0,4908.0,1830.0,-276.0,-248.0,-311.0,0.037,0.462,0.392,0.795
808111,5378.0,4968.0,1524.0,-92.0,-166.0,-366.0,0.04,0.461,0.393,0.794
808138,5062.0,5470.0,1232.0,86.0,-111.0,-423.0,0.043,0.461,0.396,0.793
808150,5160.0,5460.0,1800.0,148.0,-115.0,-407.0,0.046,0.46,0.399,0.792
808162,5270.0,5402.0,2018.0,233.0,-67.0,-416.0,0.048,0.459,0.402,0.791
808184,5762.0,5734.0,1964.0,374.0,-78.0,-456.0,0.05,0.458,0.407,0.789
808196,5636.0,5564.0,2360.0,333.0,-142.0,-385.0,0.052,0.458,0.411,0.787
808218,5428.0,5986.0,2216.0,228.0,-202.0,-403.0,0.054,0.458,0.415,0.785
808230,5288.0,7134.0,2146.0,-93.0,-394.0,-400.0,0.059,0.459,0.415,0.783
808252,5282.0,5366.0,2518.0,-320.0,-474.0,-337.0,0.064,0.461,0.414,0.782
808274,4928.0,6704.0,3072.0,-344.0,-562.0,-407.0,0.071,0.463,0.413,0.781
808286,4962.0,5430.0,2228.0,-592.0,-657.0,-242.0,0.077,0.466,0.41,0.78
808308,5128.0,5590.0,2242.0,-366.0,-720.0,-255.0,0.083,0.47,0.408,0.778
808320,5180.0,4580.0,2114.0,-170.0,-813.0,-151.0,0.088,0.475,0.407,0.775
808342,5040.0,5878.0,2076.0,54.0,-876.0,-167.0,0.092,0.481,0.407,0.771
808354,5274.0,5460.0,2122.0,11.0,-994.0,-32.0,0.096,0.488,0.407,0.767
808376,5226.0,5660.0,2038.0,121.0,-1095.0,-22.0,0.1,0.495,0.407,0.761
808388,5720.0,5554.0,1758.0,83.0,-1170.0,37.0,0.103,0.504,0.406,0.756
808410,5396.0,5616.0,1464.0,208.0,-1182.0,98.0,0.106,0.513,0.406,0.749
808432,5626.0,6140.0,1456.0,145.0,-1268.0,172.0,0.109,0.522,0.405,0.743
808444,5548.0,5896.0,1582.0,73.0,-1369.0,325.0,0.111,0.533,0.402,0.736
808466,5564.0,6010.0,1348.0,-80.0,-1417.0,356.0,0.114,0.544,0.398,0.73
808478,5898.0,5514.0,1294.0,-205.0,-1422.0,394.0,0.118,0.554,0.394,0.724
808500,6002.0,6700.0,928.0,-267.0,-1443.0,434.0,0.121,0.565,0.388,0.718
808512,6636.0,5244.0,922.0,-250.0,-1342.0,567.0,0.123,0.576,0.382,0.712
808534,6404.0,6868.0,328.0,-227.0,-1252.0,560.0,0.125,0.586,0.376,0.707
808546,5972.0,4618.0,610.0,-480.0,-1148.0,813.0,0.126,0.596,0.367,0.703
808568,5800.0,4990.0,276.0,-306.0,-1148.0,599.0,0.127,0.605,0.36,0.699
808580,6162.0,4928.0,18.0,-203.0,-1128.0,595.0,0.128,0.614,0.354,0.694
808602,6458.0,4510.0,228.0,-97.0,-1066.0,512.0,0.129,0.622,0.35,0.688
808624,6494.0,5028.0,-294.0,149.0,-960.0,417.0,0.128,0.63,0.347,0.683
808636,7118.0,5656.0,50.0,25.0,-893.0,409.0,0.128,0.637,0.344,0.678
808658,6726.0,5246.0,-96.0,-112.0,-815.0,404.0,0.128,0.643,0.34,0.674
808670,6132.0,5120.0,-394.0,-195.0,-753.0,355.0,0.13,0.649,0.336,0.671
808692,5898.0,5156.0,-822.0,-110.0,-643.0,239.0,0.131,0.653,0.333,0.667
808704,5462.0,5048.0,-914.0,18.0,-455.0,78.0,0.131,0.656,0.333,0.664
808726,5432.0,6326.0,-1382.0,0.0,-396.0,-134.0,0.133,0.658,0.334,0.662
808738,5988.0,5862.0,-1836.0,-166.0,-158.0,-67.0,0.135,0.659,0.333,0.661
808760,5388.0,5328.0,-1988.0,-283.0,99.0,119.0,0.136,0.658,0.331,0.662
808782,5260.0,5478.0,-1842.0,-268.0,305.0,271.0,0.135,0.657,0.329,0.665
808794,5322.0,5466.0,-1654.0,-196.0,574.0,371.0,0.132,0.654,0.326,0.669
808816,5832.0,5188.0,-1258.0,-147.0,795.0,422.0,0.127,0.65,0.324,0.675
808828,6586.0,4458.0,-460.0,-80.0,990.0,531.0,0.121,0.646,0.322,0.682
808850,7220.0,4798.0,-288.0,33.0,1176.0,675.0,0.113,0.64,0.319,0.69
808862,7346.0,4894.0,202.0,56.0,1151.0,462.0,0.106,0.634,0.318,0.697
808884,6898.0,5424.0,150.0,98.0,1111.0,231.0,0.1,0.627,0.319,0.703
808906,6718.0,5332.0,-482.0,267.0,1147.0,136.0,0.094,0.621,0.321,0.709
808918,6804.0,5024.0,70.0,482.0,1182.0,43.0,0.087,0.613,0.325,0.714
808940,6804.0,4190.0,830.0,458.0,1181.0,-7.0,0.081,0.606,0.33,0.72
808952,6592.0,5052.0,656.0,524.0,1234.0,-16.0,0.074,0.597,0.334,0.725
808974,6994.0,4042.0,600.0,503.0,1246.0,-10.0,0.067,0.589,0.339,0.73
808986,6756.0,3876.0,1326.0,479.0,1233.0,-17.0,0.06,0.581,0.343,0.736
809008,6658.0,4454.0,1428.0,338.0,1175.0,21.0,0.054,0.573,0.346,0.741
809020,6356.0,4306.0,1426.0,393.0,1175.0,84.0,0.047,0.565,0.349,0.746
809042,6372.0,4168.0,1938.0,471.0,1091.0,38.0,0.041,0.558,0.352,0.75
809054,6384.0,4024.0,2570.0,339.0,927.0,36.0,0.036,0.551,0.355,0.754
809076,6402.0,4000.0,2714.0,90.0,728.0,-2.0,0.032,0.546,0.355,0.758
809088,6394.0,4062.0,2692.0,-65.0,579.0,9.0,0.031,0.542,0.355,0.761
809110,6448.0,4746.0,1926.0,-135.0,471.0,-48.0,0.03,0.538,0.354,0.764
809132,6306.0,4354.0,1888.0,-220.0,409.0,-1.0,0.029,0.535,0.353,0.767
809144,6292.0,4092.0,2272.0,-237.0,338.0,-34.0,0.03,0.532,0.352,0.769
809166,6202.0,4066.0,2374.0,-289.0,272.0,6.0,0.03,0.53,0.35,0.772
809178,6106.0,3984.0,2174.0,-240.0,254.0,48.0,0.03,0.529,0.348,0.774
809200,6026.0,4360.0,2138.0,-201.0,184.0,60.0,0.029,0.527,0.346,0.776
809212,6240.0,4494.0,2126.0,-251.0,63.0,146.0,0.029,0.527,0.344,0.777
809234,6536.0,4020.0,2444.0,-417.0,-54.0,257.0,0.029,0.528,0.339,0.778
809246,6544.0,3668.0,2180.0,-514.0,-120.0,237.0,0.03,0.53,0.334,0.779
809268,6194.0,5070.0,1242.0,-502.0,-142.0,207.0,0.031,0.531,0.33,0.78
809290,6252.0,5274.0,938.0,-334.0,-156.0,236.0,0.032,0.533,0.326,0.78
809302,6500.0,4278.0,1296.0,-177.0,-133.0,250.0,0.031,0.535,0.324,0.78
809324,6464.0,4468.0,1658.0,8.0,-74.0,236.0,0.029,0.536,0.323,0.78
809336,6524.0,4586.0,1676.0,23.0,-69.0,170.0,0.028,0.537,0.322,0.779
809358,6634.0,4564.0,1528.0,93.0,-68.0,71.0,0.027,0.538,0.323,0.778
809370,6696.0,4474.0,1418.0,130.0,-2.0,-2.0,0.027,0.538,0.324,0.778
809392,6336.0,4794.0,1260.0,143.0,-5.0,-66.0,0.026,0.538,0.326,0.777
809404,6648.0,4510.0,1708.0,113.0,-61.0,-107.0,0.026,0.538,0.327,0.777
809426,6656.0,4640.0,1742.0,95.0,-54.0,-151.0,0.027,0.538,0.329,0.776
809438,6894.0,4606.0,1850.0,31.0,-41.0,-127.0,0.028,0.537,0.33,0.776
809461,6582.0,4500.0,1662.0,44.0,6.0,-177.0,0.029,0.537,0.331,0.775
809483,6548.0,4444.0,1562.0,69.0,15.0,-188.0,0.029,0.536,0.332,0.775
809495,6436.0,4478.0,1610.0,78.0,26.0,-202.0,0.03,0.535,0.334,0.775
809517,6418.0,4432.0,1736.0,68.0,108.0,-247.0,0.031,0.534,0.336,0.775
809529,6348.0,4806.0,1498.0,88.0,58.0,-288.0,0.032,0.533,0.338,0.775
809551,6682.0,5036.0,1514.0,101.0,91.0,-377.0,0.034,0.531,0.341,0.775
809563,6626.0,4932.0,1568.0,124.0,131.0,-483.0,0.036,0.528,0.345,0.775
809585,6572.0,4848.0,1738.0,161.0,166.0,-582.0,0.039,0.525,0.349,0.775
809597,6854.0,4992.0,1828.0,152.0,202.0,-620.0,0.042,0.522,0.353,0.775
809619,6640.0,4852.0,1688.0,146.0,303.0,-701.0,0.045,0.517,0.358,0.776
809631,6274.0,4842.0,1734.0,178.0,344.0,-670.0,0.048,0.513,0.363,0.777
809653,5936.0,5120.0,2186.0,139.0,343.0,-611.0,0.05,0.508,0.367,0.778
809675,5872.0,5492.0,2084.0,2.0,345.0,-548.0,0.053,0.503,0.37,0.779
809687,6350.0,5204.0,1942.0,-138.0,327.0,-557.0,0.056,0.499,0.372,0.781
809709,6468.0,5074.0,1938.0,-31.0,403.0,-647.0,0.059,0.494,0.375,0.782
809721,6102.0,5446.0,1722.0,17.0,439.0,-635.0,0.062,0.488,0.378,0.784
809743,5882.0,5942.0,2094.0,-13.0,488.0,-729.0,0.065,0.482,0.382,0.786
809755,5762.0,5500.0,1984.0,-27.0,541.0,-726.0,0.069,0.476,0.385,0.788
809777,5360.0,5566.0,2168.0,74.0,590.0,-553.0,0.07,0.469,0.389,0.79
809789,5490.0,5898.0,2316.0,92.0,544.0,-511.0,0.071,0.463,0.392,0.791
809811,5656.0,5856.0,2374.0,82.0,542.0,-432.0,0.072,0.458,0.395,0.793
809833,5214.0,5868.0,2242.0,40.0,600.0,-374.0,0.072,0.452,0.397,0.795
809845,5344.0,5712.0,2636.0,-17.0,540.0,-421.0,0.073,0.446,0.399,0.797
809867,5286.0,5548.0,2582.0,16.0,519.0,-463.0,0.074,0.441,0.402,0.799
809879,5180.0,5796.0,2506.0,38.0,486.0,-512.0,0.076,0.435,0.405,0.801
809901,4898.0,5734.0,2600.0,110.0,531.0,-433.0,0.077,0.43,0.408,0.802
809913,4912.0,5788.0,2700.0,124.0,499.0,-456.0,0.078,0.424,0.411,0.803
809935,4706.0,5774.0,2878.0,136.0,510.0,-374.0,0.078,0.419,0.414,0.805
809947,4642.0,5894.0,2712.0,119.0,462.0,-372.0,0.078,0.414,0.416,0.806
809969,4520.0,5978.0,2538.0,153.0,468.0,-324.0,0.078,0.409,0.419,0.807
809981,4668.0,6298.0,2422.0,174.0,448.0,-278.0,0.078,0.405,0.422,0.807
810004,4896.0,6446.0,2532.0,194.0,414.0,-227.0,0.077,0.401,0.425,0.808
810016,5080.0,5994.0,2466.0,264.0,407.0,-154.0,0.075,0.398,0.428,0.808
810039,4802.0,5890.0,2712.0,430.0,433.0,-89.0,0.073,0.394,0.431,0.808
810061,4920.0,5906.0,1878.0,587.0,367.0,-8.0,0.069,0.392,0.436,0.807
810073,5826.0,4982.0,2634.0,1195.0,527.0,98.0,0.061,0.39,0.445,0.804
810095,5418.0,6708.0,3508.0,1657.0,714.0,269.0,0.05,0.386,0.457,0.8
810107,6064.0,6576.0,3158.0,1389.0,776.0,405.0,0.039,0.383,0.466,0.797
810129,7010.0,5764.0,3634.0,1307.0,931.0,-112.0,0.031,0.376,0.476,0.794
810146,6714.0,6880.0,4380.0,1434.0,1102.0,-605.0,0.025,0.365,0.489,0.791
810158,5632.0,9808.0,4188.0,1517.0,1257.0,-1137.0,0.023,0.351,0.505,0.788
810180,5068.0,10180.0,3234.0,1247.0,1131.0,-1112.0,0.021,0.338,0.518,0.786
810192,4560.0,9230.0,2546.0,1081.0,1131.0,-1118.0,0.021,0.324,0.529,0.784
810214,3696.0,8902.0,2864.0,821.0,1000.0,-1138.0,0.021,0.312,0.539,0.782
810236,3878.0,8000.0,2348.0,482.0,777.0,-1218.0,0.025,0.3,0.546,0.782
810248,3212.0,7204.0,2050.0,209.0,712.0,-1230.0,0.03,0.289,0.551,0.782
810270,2982.0,7584.0,1842.0,-157.0,618.0,-1222.0,0.036,0.278,0.554,0.784
810282,2618.0,6998.0,1552.0,-296.0,616.0,-1167.0,0.042,0.267,0.555,0.787
810304,2196.0,7378.0,1392.0,-152.0,609.0,-1088.0,0.047,0.257,0.557,0.789
810316,2250.0,7340.0,1248.0,109.0,586.0,-976.0,0.051,0.248,0.56,0.789
810338,2106.0,7164.0,1118.0,361.0,542.0,-950.0,0.055,0.239,0.565,0.788
810350,1506.0,7160.0,1102.0,235.0,422.0,-918.0,0.059,0.231,0.569,0.787
810372,1164.0,7624.0,1658.0,-225.0,314.0,-880.0,0.064,0.224,0.57,0.788
810384,990.0,7864.0,2190.0,-731.0,160.0,-798.0,0.071,0.218,0.566,0.792
810406,930.0,8038.0,1208.0,-936.0,1.0,-720.0,0.078,0.213,0.561,0.796
810428,1062.0,7446.0,442.0,-959.0,-96.0,-643.0,0.086,0.21,0.556,0.8
810440,898.0,6666.0,532.0,-916.0,-88.0,-524.0,0.092,0.207,0.55,0.804
810462,864.0,6042.0,816.0,-977.0,-194.0,-487.0,0.098,0.206,0.543,0.808
810474,822.0,5792.0,656.0,-1039.0,-256.0,-465.0,0.105,0.204,0.536,0.812
810496,914.0,5626.0,672.0,-1004.0,-269.0,-362.0,0.111,0.204,0.529,0.817
810508,1038.0,5718.0,1262.0,-795.0,-253.0,-289.0,0.116,0.203,0.523,0.82
810530,1190.0,5790.0,1982.0,-626.0,-290.0,-187.0,0.12,0.204,0.518,0.822
810542,1256.0,5246.0,2532.0,-628.0,-329.0,-89.0,0.124,0.206,0.513,0.824
810564,1290.0,4486.0,3140.0,-623.0,-305.0,-31.0,0.127,0.207,0.508,0.826
810586,1680.0,3802.0,3874.0,-542.0,-232.0,53.0,0.129,0.209,0.503,0.829
810598,2040.0,4372.0,5108.0,-302.0,-114.0,83.0,0.129,0.21,0.501,0.83
810620,2672.0,6508.0,5966.0,59.0,6.0,35.0,0.129,0.21,0.501,0.83
810632,2672.0,7946.0,5620.0,279.0,115.0,82.0,0.128,0.21,0.503,0.829
810654,2456.0,8012.0,4358.0,344.0,168.0,116.0,0.125,0.21,0.506,0.827
810666,2048.0,7676.0,3258.0,345.0,150.0,44.0,0.124,0.21,0.508,0.826
810688,1952.0,7580.0,2792.0,254.0,62.0,-13.0,0.123,0.21,0.51,0.825
810700,1772.0,7116.0,2932.0,142.0,-13.0,26.0,0.123,0.21,0.511,0.824
810722,1760.0,7282.0,3448.0,-30.0,-63.0,16.0,0.124,0.211,0.511,0.824
810744,1812.0,7468.0,3672.0,-221.0,-106.0,-8.0,0.125,0.212,0.509,0.825
810756,1898.0,7212.0,3652.0,-201.0,-89.0,-20.0,0.126,0.212,0.507,0.826
810778,1594.0,7440.0,3272.0,-178.0,-102.0,-15.0,0.127,0.213,0.506,0.826
810790,1536.0,7368.0,2908.0,-290.0,-148.0,19.0,0.128,0.214,0.503,0.827
810812,1342.0,7194.0,3006.0,-391.0,-139.0,87.0,0.129,0.215,0.5,0.829
810824,1306.0,7432.0,3226.0,-450.0,-137.0,94.0,0.13,0.216,0.496,0.831
810846,1412.0,7390.0,3396.0,-423.0,-127.0,87.0,0.131,0.217,0.493,0.832
810858,1224.0,7588.0,3654.0,-371.0,-134.0,46.0,0.132,0.218,0.49,0.834
810880,1582.0,8844.0,3868.0,-614.0,-86.0,-40.0,0.135,0.218,0.485,0.836
810892,1508.0,9364.0,3698.0,-1211.0,-151.0,-69.0,0.138,0.217,0.475,0.841
810914,1368.0,8656.0,3336.0,-1969.0,-221.0,-257.0,0.145,0.215,0.46,0.849
810936,1188.0,7268.0,3930.0,-2292.0,-150.0,-418.0,0.154,0.212,0.442,0.858
810948,814.0,6672.0,4626.0,-2215.0,-84.0,-553.0,0.163,0.207,0.426,0.866
810970,548.0,6580.0,5046.0,-1973.0,-30.0,-586.0,0.172,0.201,0.411,0.872
810982,590.0,5974.0,4614.0,-1721.0,15.0,-527.0,0.18,0.196,0.398,0.878
811004,330.0,5356.0,4614.0,-1344.0,49.0,-488.0,0.186,0.192,0.388,0.882
811016,114.0,5612.0,5012.0,-1026.0,77.0,-536.0,0.192,0.187,0.38,0.885
811038,766.0,4982.0,5984.0,-749.0,122.0,-507.0,0.197,0.183,0.375,0.887
811050,688.0,4896.0,5644.0,-454.0,166.0,-439.0,0.201,0.179,0.372,0.888
811072,560.0,4840.0,5232.0,-154.0,169.0,-359.0,0.204,0.177,0.372,0.888
811094,800.0,5320.0,5186.0,114.0,197.0,-331.0,0.206,0.174,0.373,0.888
811106,1272.0,4994.0,5522.0,142.0,170.0,-206.0,0.207,0.172,0.375,0.887
811128,1520.0,4370.0,5946.0,125.0,142.0,-136.0,0.208,0.171,0.376,0.887
811140,1808.0,4488.0,6136.0,121.0,158.0,-164.0,0.208,0.17,0.377,0.886
811162,1704.0,4774.0,6204.0,116.0,183.0,-110.0,0.209,0.168,0.378,0.886
811174,1502.0,5508.0,6406.0,126.0,203.0,-36.0,0.208,0.167,0.38,0.886
811196,1616.0,5726.0,6110.0,158.0,149.0,5.0,0.207,0.166,0.381,0.886
811208,1632.0,5566.0,5800.0,340.0,105.0,9.0,0.206,0.166,0.384,0.885
811230,1736.0,5554.0,5656.0,520.0,89.0,-12.0,0.205,0.166,0.388,0.883
811252,1744.0,6320.0,5370.0,549.0,37.0,-45.0,0.205,0.167,0.393,0.881
811264,1846.0,6192.0,4956.0,458.0,-20.0,-25.0,0.205,0.169,0.396,0.879
811286,1736.0,6308.0,4744.0,366.0,-63.0,-25.0,0.205,0.17,0.399,0.877
811298,1806.0,6322.0,4566.0,344.0,-83.0,-65.0,0.205,0.171,0.402,0.876
811320,1714.0,6678.0,4522.0,339.0,-100.0,-98.0,0.205,0.173,0.405,0.874
811332,1754.0,6716.0,4504.0,329.0,-103.0,-105.0,0.206,0.174,0.408,0.872
811354,1574.0,6572.0,4632.0,348.0,-65.0,-65.0,0.207,0.175,0.41,0.871
811366,1352.0,6642.0,4776.0,371.0,-12.0,-45.0,0.207,0.176,0.413,0.869
811388,1300.0,6590.0,4534.0,346.0,7.0,-20.0,0.206,0.177,0.416,0.868
811400,1420.0,6030.0,4520.0,496.0,52.0,-49.0,0.206,0.177,0.42,0.866
811422,1502.0,6274.0,4820.0,770.0,138.0,-109.0,0.205,0.178,0.427,0.863
811444,1800.0,7250.0,5162.0,790.0,205.0,-118.0,0.204,0.177,0.434,0.86
811456,2042.0,7042.0,5186.0,646.0,220.0,-35.0,0.202,0.177,0.439,0.857
811478,2216.0,6694.0,5136.0,594.0,264.0,-56.0,0.201,0.176,0.444,0.855
811490,2286.0,6300.0,5430.0,708.0,300.0,-83.0,0.199,0.175,0.45,0.853
811512,2328.0,6782.0,5748.0,780.0,349.0,-125.0,0.197,0.173,0.457,0.85
811524,2150.0,7372.0,5556.0,765.0,348.0,-118.0,0.196,0.172,0.464,0.847
811546,1916.0,7484.0,5086.0,851.0,361.0,-93.0,0.194,0.17,0.472,0.843
811558,1778.0,8696.0,4608.0,801.0,398.0,-186.0,0.192,0.168,0.479,0.84
811580,1602.0,9094.0,4144.0,547.0,414.0,-202.0,0.191,0.165,0.484,0.838
811602,1058.0,9558.0,4278.0,263.0,406.0,-301.0,0.192,0.161,0.487,0.837
811614,776.0,9228.0,4434.0,79.0,378.0,-346.0,0.193,0.157,0.489,0.836
811636,438.0,9522.0,4842.0,201.0,509.0,-440.0,0.194,0.151,0.492,0.835
811648,648.0,10994.0,5934.0,324.0,603.0,-631.0,0.196,0.144,0.497,0.833
811670,630.0,12210.0,5922.0,72.0,663.0,-810.0,0.199,0.136,0.499,0.832
811682,-148.0,10478.0,5238.0,-456.0,679.0,-891.0,0.204,0.126,0.498,0.833
811704,-1148.0,9482.0,3742.0,-941.0,612.0,-1234.0,0.212,0.114,0.493,0.836
811716,-1906.0,8062.0,2674.0,-1000.0,490.0,-1418.0,0.222,0.101,0.488,0.838
811738,-2042.0,7028.0,2426.0,-714.0,448.0,-1554.0,0.233,0.089,0.485,0.838
811750,-2020.0,5608.0,2288.0,-443.0,341.0,-1512.0,0.243,0.079,0.484,0.837
811773,-2150.0,3768.0,1874.0,-203.0,292.0,-1329.0,0.253,0.07,0.484,0.835
811795,-2482.0,2540.0,1728.0,58.0,220.0,-1249.0,0.262,0.063,0.486,0.832
811807,-2684.0,1988.0,2202.0,344.0,137.0,-1191.0,0.27,0.058,0.489,0.827
811829,-2652.0,2562.0,2940.0,624.0,71.0,-1055.0,0.278,0.054,0.495,0.822
811841,-2470.0,3768.0,3460.0,684.0,21.0,-810.0,0.284,0.052,0.5,0.816
811863,-2384.0,3960.0,3634.0,438.0,-4.0,-486.0,0.288,0.051,0.504,0.813
811875,-2524.0,3834.0,3620.0,111.0,-12.0,-205.0,0.289,0.051,0.505,0.812
811897,-2580.0,3584.0,3576.0,-90.0,-8.0,-41.0,0.29,0.051,0.504,0.812
811909,-2354.0,3998.0,3732.0,-243.0,-13.0,82.0,0.29,0.051,0.502,0.813
811931,-1658.0,5758.0,4324.0,-345.0,36.0,147.0,0.289,0.05,0.499,0.815
811943,-1432.0,6730.0,5174.0,-604.0,82.0,166.0,0.288,0.049,0.495,0.818
811965,-1236.0,7928.0,5390.0,-634.0,116.0,76.0,0.287,0.047,0.49,0.822
811987,-1488.0,8432.0,5092.0,-471.0,72.0,-73.0,0.288,0.045,0.487,0.824
811999,-1736.0,7570.0,4446.0,-187.0,12.0,-254.0,0.29,0.044,0.486,0.824
812021,-1944.0,6698.0,3572.0,217.0,-43.0,-447.0,0.294,0.043,0.487,0.821
812033,-2086.0,6406.0,3478.0,608.0,-22.0,-554.0,0.298,0.042,0.492,0.817
812055,-2412.0,6494.0,4014.0,940.0,-58.0,-530.0,0.302,0.043,0.499,0.811
812067,-2220.0,6896.0,3880.0,896.0,-121.0,-557.0,0.307,0.044,0.506,0.805
812089,-2360.0,5828.0,3990.0,566.0,-178.0,-418.0,0.311,0.045,0.51,0.801
812101,-2070.0,4404.0,4074.0,323.0,-175.0,-330.0,0.314,0.046,0.512,0.798
812123,-2176.0,3196.0,3224.0,462.0,-135.0,-229.0,0.317,0.047,0.515,0.795
812150,-2474.0,1956.0,3186.0,1293.0,-46.0,-64.0,0.317,0.052,0.524,0.789
812162,-2022.0,4040.0,2110.0,2007.0,37.0,-25.0,0.316,0.057,0.539,0.778
812174,-2398.0,8262.0,2250.0,2148.0,71.0,202.0,0.313,0.064,0.555,0.768
812196,-2478.0,10352.0,2718.0,1542.0,18.0,406.0,0.31,0.071,0.566,0.761
812208,-2898.0,10418.0,2826.0,446.0,-13.0,322.0,0.307,0.074,0.569,0.759
812230,-2878.0,9574.0,2476.0,-211.0,-80.0,65.0,0.308,0.075,0.567,0.761
812242,-2482.0,7028.0,3216.0,-63.0,25.0,-161.0,0.309,0.074,0.566,0.76
812264,-1376.0,5386.0,4088.0,827.0,217.0,-313.0,0.31,0.073,0.573,0.755
812276,-1408.0,7718.0,2410.0,1510.0,366.0,-251.0,0.309,0.074,0.585,0.746
812298,-1996.0,10278.0,2076.0,1649.0,409.0,-141.0,0.306,0.075,0.597,0.737
812320,-1042.0,9046.0,1818.0,1158.0,330.0,-180.0,0.305,0.076,0.606,0.73
812332,-878.0,6192.0,504.0,341.0,194.0,-180.0,0.305,0.075,0.609,0.728
812354,-1504.0,6478.0,-148.0,401.0,189.0,-161.0,0.305,0.074,0.613,0.725
812366,-1492.0,6506.0,2106.0,771.0,148.0,32.0,0.304,0.075,0.618,0.721
812388,-284.0,5956.0,1308.0,484.0,23.0,98.0,0.303,0.077,0.622,0.718
812400,-1084.0,6574.0,1208.0,1131.0,279.0,420.0,0.298,0.081,0.63,0.713
812422,-1978.0,7952.0,2748.0,1720.0,391.0,485.0,0.291,0.087,0.641,0.705
812444,-1714.0,10312.0,2700.0,1538.0,342.0,352.0,0.286,0.091,0.652,0.697
812456,-2698.0,9814.0,1288.0,838.0,169.0,282.0,0.282,0.094,0.658,0.692
812478,-2388.0,8042.0,372.0,525.0,43.0,226.0,0.28,0.096,0.661,0.689
812490,-2812.0,8326.0,736.0,665.0,87.0,218.0,0.278,0.099,0.665,0.686
812512,-2892.0,9096.0,742.0,539.0,-107.0,162.0,0.277,0.102,0.668,0.683
812524,-2974.0,9094.0,276.0,101.0,-204.0,122.0,0.278,0.105,0.668,0.682
812546,-3086.0,7810.0,1148.0,-39.0,-239.0,185.0,0.278,0.107,0.667,0.683
812558,-2404.0,7118.0,1732.0,-3.0,-310.0,75.0,0.28,0.11,0.666,0.683
812580,-2480.0,7498.0,1544.0,-10.0,-330.0,72.0,0.282,0.112,0.665,0.683
812592,-2520.0,8038.0,1950.0,-78.0,-418.0,83.0,0.284,0.115,0.663,0.683
812614,-2604.0,8064.0,1442.0,-285.0,-520.0,250.0,0.286,0.119,0.659,0.685
812626,-2736.0,8162.0,864.0,-244.0,-624.0,184.0,0.29,0.124,0.656,0.686
812648,-2242.0,7892.0,298.0,-155.0,-813.0,180.0,0.294,0.13,0.653,0.686
812670,-2822.0,7858.0,-576.0,-46.0,-1021.0,148.0,0.299,0.137,0.65,0.685
812682,-2462.0,6052.0,-910.0,524.0,-1186.0,143.0,0.305,0.147,0.649,0.681
812704,-1504.0,4940.0,-1354.0,1652.0,-1190.0,175.0,0.309,0.16,0.656,0.67
812716,-820.0,8706.0,3336.0,1190.0,-1005.0,190.0,0.312,0.171,0.66,0.661
812738,-1154.0,9498.0,4678.0,-119.0,-931.0,486.0,0.315,0.18,0.656,0.662
812750,-1112.0,8110.0,4204.0,-296.0,-985.0,131.0,0.32,0.186,0.651,0.663
812772,-1598.0,6106.0,1644.0,-528.0,-1185.0,114.0,0.328,0.192,0.644,0.664
812784,-1258.0,6582.0,-756.0,-211.0,-1245.0,60.0,0.335,0.2,0.639,0.663
812806,-1040.0,8218.0,14.0,-60.0,-1140.0,168.0,0.341,0.208,0.635,0.662
812828,-1434.0,9988.0,1578.0,-81.0,-1158.0,74.0,0.347,0.215,0.63,0.66
812840,-1312.0,8368.0,1496.0,-531.0,-1257.0,-97.0,0.357,0.221,0.623,0.66
812862,-414.0,6660.0,758.0,-257.0,-1007.0,-322.0,0.365,0.224,0.619,0.659
812874,-916.0,7168.0,1318.0,381.0,-964.0,-127.0,0.37,0.231,0.618,0.654
812896,-1028.0,8204.0,694.0,466.0,-1030.0,-87.0,0.376,0.238,0.617,0.649
812908,-1060.0,8528.0,1046.0,515.0,-916.0,-123.0,0.38,0.245,0.618,0.644
812930,-1458.0,8062.0,2104.0,616.0,-815.0,-101.0,0.384,0.251,0.618,0.638
812942,-1660.0,8134.0,438.0,1.0,-818.0,147.0,0.388,0.257,0.615,0.636
812964,-1272.0,7326.0,842.0,234.0,-787.0,103.0,0.391,0.263,0.613,0.634
812986,-1240.0,7988.0,1408.0,432.0,-738.0,98.0,0.394,0.269,0.613,0.63
812998,-1530.0,7674.0,1322.0,614.0,-643.0,210.0,0.395,0.276,0.614,0.626
813020,-1240.0,8050.0,1582.0,636.0,-522.0,362.0,0.394,0.284,0.614,0.622
813032,-1436.0,9008.0,1068.0,374.0,-438.0,514.0,0.393,0.29,0.614,0.621
813054,-1126.0,8060.0,516.0,169.0,-512.0,717.0,0.391,0.298,0.611,0.621
813066,-598.0,7964.0,478.0,138.0,-470.0,892.0,0.388,0.306,0.607,0.622
813088,-486.0,8896.0,482.0,79.0,-487.0,1032.0,0.384,0.315,0.603,0.624
813100,-1346.0,10816.0,226.0,-113.0,-492.0,912.0,0.382,0.323,0.598,0.626
813122,-794.0,9186.0,38.0,-472.0,-613.0,714.0,0.382,0.329,0.591,0.63
813134,-544.0,8430.0,128.0,-529.0,-667.0,709.0,0.383,0.334,0.583,0.633
813156,-572.0,8220.0,576.0,-491.0,-660.0,778.0,0.384,0.341,0.576,0.636
813178,-484.0,7534.0,1678.0,-476.0,-657.0,725.0,0.384,0.347,0.568,0.64
813190,-444.0,7464.0,1482.0,-389.0,-586.0,769.0,0.384,0.353,0.561,0.643
813212,-468.0,7792.0,1414.0,-227.0,-497.0,837.0,0.382,0.359,0.556,0.645
813224,-288.0,8430.0,1336.0,-326.0,-480.0,848.0,0.381,0.365,0.549,0.648
813246,32.0,8068.0,1430.0,-445.0,-496.0,722.0,0.38,0.37,0.542,0.652
813258,120.0,7328.0,1988.0,-274.0,-464.0,732.0,0.379,0.375,0.536,0.654
813280,-218.0,7526.0,1614.0,0.0,-466.0,780.0,0.377,0.382,0.532,0.655
813292,200.0,8648.0,1298.0,103.0,-467.0,861.0,0.374,0.389,0.528,0.656
813314,680.0,8972.0,1678.0,-217.0,-443.0,804.0,0.371,0.395,0.522,0.658
813336,728.0,8118.0,2178.0,-198.0,-430.0,971.0,0.368,0.401,0.516,0.661
813348,972.0,8492.0,2254.0,-132.0,-449.0,1026.0,0.365,0.408,0.51,0.664
813370,1762.0,8440.0,1968.0,-242.0,-402.0,1031.0,0.361,0.415,0.503,0.667
813382,1996.0,8184.0,1706.0,-276.0,-377.0,1053.0,0.357,0.421,0.496,0.67
813404,2558.0,8122.0,1368.0,-313.0,-299.0,980.0,0.353,0.426,0.489,0.674
813416,2600.0,7660.0,1170.0,-361.0,-222.0,936.0,0.35,0.431,0.482,0.678
813438,2788.0,7266.0,1616.0,-431.0,-139.0,861.0,0.346,0.434,0.475,0.682
813450,2690.0,6872.0,1926.0,-370.0,-76.0,843.0,0.343,0.437,0.469,0.686
813472,2892.0,7108.0,1988.0,-333.0,-66.0,805.0,0.339,0.44,0.463,0.69
813494,2808.0,6858.0,2140.0,-413.0,-55.0,662.0,0.337,0.442,0.458,0.694
813506,2750.0,6742.0,1894.0,-417.0,-51.0,594.0,0.335,0.444,0.452,0.698
813528,2084.0,7004.0,1734.0,-315.0,-39.0,560.0,0.332,0.445,0.448,0.7
813540,1934.0,7572.0,1814.0,-327.0,-38.0,443.0,0.331,0.446,0.444,0.703
813562,1794.0,7004.0,1894.0,-345.0,-19.0,351.0,0.331,0.447,0.44,0.705
813574,1730.0,6710.0,1686.0,-275.0,14.0,255.0,0.33,0.447,0.437,0.707
813596,1564.0,6500.0,1286.0,-135.0,17.0,167.0,0.329,0.447,0.436,0.708
813608,1960.0,6474.0,1120.0,-1.0,25.0,62.0,0.329,0.447,0.435,0.709
813630,2408.0,6640.0,1534.0,25.0,70.0,-55.0,0.329,0.447,0.436,0.709
813642,2264.0,6244.0,1088.0,140.0,89.0,-62.0,0.328,0.447,0.437,0.708
813664,3154.0,6140.0,986.0,191.0,119.0,-201.0,0.329,0.446,0.44,0.707
813686,3646.0,6484.0,666.0,358.0,205.0,-228.0,0.328,0.445,0.444,0.706
813698,4602.0,8094.0,534.0,190.0,375.0,-338.0,0.327,0.442,0.447,0.706
813720,3828.0,7070.0,1312.0,350.0,487.0,-238.0,0.325,0.439,0.452,0.705
813732,5192.0,7054.0,-3738.0,-18.0,465.0,-397.0,0.326,0.434,0.455,0.706
813754,4502.0,8190.0,4924.0,633.0,878.0,-535.0,0.323,0.428,0.464,0.705
813766,4282.0,8480.0,-502.0,-232.0,664.0,-1540.0,0.331,0.416,0.47,0.704
813788,6552.0,6646.0,1086.0,611.0,1247.0,47.0,0.323,0.41,0.478,0.706
813800,3524.0,9198.0,1442.0,651.0,1250.0,-471.0,0.318,0.402,0.488,0.707
813822,5182.0,7894.0,1676.0,383.0,1327.0,-587.0,0.314,0.391,0.496,0.708
813844,2806.0,8868.0,1570.0,433.0,1394.0,-1467.0,0.316,0.377,0.509,0.707
813856,6846.0,6534.0,2178.0,114.0,1465.0,33.0,0.308,0.367,0.514,0.712
813878,2082.0,8066.0,2414.0,251.0,1683.0,-804.0,0.304,0.353,0.523,0.714
813890,2660.0,8376.0,2336.0,5.0,1486.0,-1254.0,0.305,0.337,0.531,0.715
813912,2758.0,7212.0,2110.0,-118.0,1546.0,-1060.0,0.305,0.321,0.538,0.718
813924,2444.0,7268.0,2572.0,-225.0,1634.0,-675.0,0.302,0.307,0.542,0.722
813946,1772.0,7272.0,1874.0,-437.0,1614.0,-579.0,0.298,0.292,0.545,0.727
813968,1686.0,6834.0,2164.0,-620.0,1501.0,-648.0,0.297,0.277,0.547,0.732
813980,1348.0,6492.0,2444.0,-573.0,1471.0,-238.0,0.292,0.264,0.548,0.738
813992,836.0,6218.0,2526.0,-650.0,1368.0,-43.0,0.287,0.252,0.547,0.745
814015,910.0,5998.0,2106.0,-681.0,1305.0,13.0,0.282,0.242,0.546,0.751
814027,700.0,6262.0,2022.0,-744.0,1154.0,107.0,0.277,0.232,0.543,0.758
814050,674.0,5548.0,2350.0,-786.0,1055.0,318.0,0.271,0.224,0.54,0.765
814072,286.0,5732.0,2302.0,-675.0,988.0,445.0,0.265,0.218,0.536,0.771
814084,-830.0,6800.0,2080.0,-987.0,772.0,111.0,0.262,0.211,0.531,0.778
814106,532.0,7140.0,1974.0,-1142.0,716.0,477.0,0.257,0.205,0.523,0.786
814118,-100.0,5350.0,2280.0,-1108.0,708.0,696.0,0.251,0.201,0.516,0.794
814140,-178.0,6282.0,2446.0,-934.0,611.0,537.0,0.246,0.197,0.509,0.801
814157,-190.0,7322.0,2298.0,-976.0,546.0,604.0,0.241,0.194,0.502,0.808
814169,-240.0,6310.0,2454.0,-970.0,537.0,706.0,0.235,0.191,0.495,0.815
814191,-98.0,7356.0,2446.0,-1025.0,442.0,653.0,0.23,0.188,0.487,0.822
814203,-140.0,6800.0,3116.0,-979.0,449.0,755.0,0.224,0.186,0.479,0.828
814225,-88.0,7248.0,2960.0,-934.0,408.0,786.0,0.218,0.184,0.471,0.834
814247,-348.0,7358.0,2948.0,-931.0,357.0,777.0,0.212,0.183,0.464,0.841
814259,194.0,6688.0,3294.0,-912.0,278.0,842.0,0.206,0.183,0.456,0.846
814281,378.0,6530.0,4124.0,-794.0,303.0,1005.0,0.198,0.183,0.449,0.852
814293,-324.0,5586.0,4166.0,-719.0,283.0,902.0,0.191,0.183,0.442,0.857
814315,-94.0,6646.0,3638.0,-613.0,302.0,822.0,0.184,0.183,0.436,0.862
814327,-148.0,6342.0,3682.0,-523.0,274.0,709.0,0.178,0.183,0.431,0.865
814349,-72.0,6146.0,3614.0,-318.0,290.0,595.0,0.173,0.183,0.428,0.868
814361,34.0,6504.0,4084.0,-249.0,277.0,423.0,0.169,0.182,0.426,0.87
814383,-320.0,7206.0,3254.0,-346.0,376.0,348.0,0.166,0.179,0.423,0.872
814395,780.0,8366.0,3808.0,-215.0,339.0,768.0,0.158,0.179,0.421,0.875
814417,-318.0,5608.0,3646.0,-302.0,119.0,399.0,0.155,0.18,0.418,0.877
814439,1334.0,7542.0,4434.0,-40.0,204.0,639.0,0.149,0.181,0.417,0.878
814451,1492.0,7000.0,4896.0,290.0,329.0,718.0,0.142,0.181,0.419,0.879
814473,2364.0,8128.0,5998.0,755.0,577.0,1042.0,0.13,0.182,0.424,0.878
814485,2602.0,6486.0,5658.0,1230.0,788.0,1393.0,0.113,0.182,0.432,0.876
814507,1218.0,9430.0,4632.0,1700.0,883.0,1111.0,0.098,0.182,0.445,0.871
814519,2090.0,8572.0,4272.0,1448.0,512.0,1261.0,0.083,0.184,0.455,0.867
814541,1086.0,7362.0,4398.0,1262.0,640.0,927.0,0.071,0.184,0.464,0.864
814553,976.0,7412.0,3848.0,1300.0,464.0,422.0,0.064,0.183,0.474,0.859
814575,1392.0,8110.0,3632.0,1184.0,344.0,322.0,0.058,0.182,0.483,0.854
814597,1832.0,7620.0,3854.0,926.0,173.0,352.0,0.053,0.183,0.49,0.851
814609,1750.0,7004.0,3548.0,902.0,149.0,319.0,0.048,0.183,0.497,0.847
814631,1532.0,7172.0,3540.0,936.0,102.0,363.0,0.043,0.185,0.504,0.843
814643,1444.0,7282.0,3478.0,1004.0,64.0,380.0,0.038,0.186,0.511,0.838
814665,1628.0,7614.0,3386.0,1025.0,-10.0,354.0,0.034,0.188,0.519,0.833
814677,1770.0,6720.0,3690.0,1067.0,-68.0,465.0,0.029,0.191,0.526,0.828
814699,2022.0,7572.0,3260.0,1208.0,-84.0,461.0,0.023,0.194,0.534,0.822
814711,2122.0,8056.0,3030.0,829.0,-280.0,555.0,0.019,0.199,0.54,0.818
814733,2556.0,7122.0,3174.0,598.0,-338.0,634.0,0.015,0.205,0.543,0.814
814755,2656.0,7158.0,3022.0,574.0,-332.0,523.0,0.011,0.21,0.546,0.811
814767,2634.0,7276.0,2716.0,631.0,-288.0,526.0,0.007,0.215,0.55,0.807
814789,2890.0,7882.0,2868.0,666.0,-257.0,501.0,0.003,0.22,0.554,0.803
814801,2966.0,7278.0,3104.0,485.0,-242.0,544.0,0.0,-0.224,-0.556,-0.8
814823,4058.0,7402.0,5296.0,196.0,-96.0,654.0,0.005,-0.229,-0.556,-0.799
814835,3156.0,6842.0,2960.0,104.0,-120.0,500.0,0.009,-0.232,-0.556,-0.798
814857,3584.0,7158.0,2910.0,241.0,-43.0,389.0,0.012,-0.234,-0.557,-0.797
814869,3620.0,6830.0,2514.0,385.0,73.0,376.0,0.016,-0.236,-0.559,-0.795
814891,3650.0,7640.0,2202.0,365.0,95.0,320.0,0.02,-0.237,-0.561,-0.793
814903,3472.0,8084.0,2158.0,148.0,53.0,377.0,0.024,-0.238,-0.561,-0.792
814925,3424.0,7018.0,2150.0,84.0,60.0,303.0,0.027,-0.239,-0.561,-0.792
814947,3578.0,7438.0,2062.0,42.0,77.0,201.0,0.029,-0.24,-0.561,-0.792
814959,3472.0,7436.0,2256.0,-35.0,112.0,300.0,0.031,-0.241,-0.56,-0.792
814981,3440.0,6922.0,2046.0,-81.0,113.0,354.0,0.035,-0.242,-0.558,-0.793
814993,3282.0,7598.0,1870.0,-143.0,63.0,300.0,0.037,-0.243,-0.557,-0.794
815015,3574.0,7170.0,1852.0,-267.0,1.0,373.0,0.039,-0.245,-0.554,-0.795
815027,3822.0,6538.0,1986.0,-217.0,-6.0,411.0,0.042,-0.247,-0.552,-0.796
815049,3790.0,6886.0,2220.0,-163.0,-30.0,346.0,0.044,-0.249,-0.55,-0.796
815061,3832.0,6862.0,2150.0,-202.0,-67.0,406.0,0.046,-0.252,-0.547,-0.797
815083,3646.0,6832.0,2078.0,-266.0,-116.0,496.0,0.049,-0.255,-0.544,-0.798
815105,3772.0,6484.0,2068.0,-219.0,-122.0,531.0,0.052,-0.259,-0.541,-0.798
815117,3868.0,6926.0,2184.0,-156.0,-117.0,576.0,0.055,-0.263,-0.539,-0.798
815139,4068.0,6242.0,2134.0,-248.0,-141.0,636.0,0.058,-0.268,-0.536,-0.799
815151,4056.0,6198.0,2238.0,-355.0,-157.0,672.0,0.062,-0.272,-0.531,-0.8
815173,3916.0,6452.0,2086.0,-510.0,-208.0,726.0,0.065,-0.278,-0.526,-0.801
815185,4238.0,6396.0,2122.0,-550.0,-232.0,752.0,0.068,-0.284,-0.52,-0.803
815207,4446.0,6058.0,2154.0,-421.0,-176.0,752.0,0.072,-0.289,-0.515,-0.804
815219,4514.0,6108.0,2678.0,-331.0,-169.0,732.0,0.076,-0.294,-0.511,-0.804
815241,4466.0,5990.0,2674.0,-518.0,-287.0,729.0,0.079,-0.3,-0.505,-0.806
815263,4286.0,5536.0,2586.0,-693.0,-369.0,732.0,0.08,-0.307,-0.498,-0.807
815275,4408.0,5636.0,2736.0,-625.0,-373.0,669.0,0.082,-0.313,-0.492,-0.809
815297,4620.0,6082.0,2928.0,-668.0,-400.0,663.0,0.083,-0.319,-0.485,-0.81
815309,4818.0,5746.0,2880.0,-659.0,-372.0,676.0,0.085,-0.326,-0.478,-0.811
815331,4910.0,5634.0,2488.0,-738.0,-379.0,672.0,0.086,-0.332,-0.471,-0.813
815343,5044.0,6010.0,2268.0,-889.0,-442.0,660.0,0.086,-0.339,-0.463,-0.815
815365,5286.0,4948.0,2688.0,-993.0,-442.0,696.0,0.087,-0.347,-0.453,-0.817
815377,5138.0,5930.0,2886.0,-946.0,-440.0,670.0,0.087,-0.353,-0.444,-0.819
815399,5384.0,5154.0,2858.0,-932.0,-451.0,730.0,0.088,-0.361,-0.435,-0.82
815411,5436.0,5492.0,2918.0,-765.0,-438.0,741.0,0.089,-0.368,-0.427,-0.821
815433,5642.0,4646.0,2984.0,-854.0,-508.0,742.0,0.09,-0.375,-0.418,-0.822
815455,5404.0,5014.0,3134.0,-1042.0,-622.0,759.0,0.09,-0.384,-0.408,-0.823
815467,5772.0,4742.0,3380.0,-1122.0,-698.0,773.0,0.089,-0.393,-0.397,-0.824
815489,5984.0,4216.0,3194.0,-1055.0,-676.0,774.0,0.089,-0.402,-0.387,-0.825
815501,6256.0,4460.0,2590.0,-851.0,-609.0,737.0,0.089,-0.41,-0.378,-0.825
815523,6220.0,4408.0,2864.0,-841.0,-650.0,734.0,0.089,-0.418,-0.37,-0.825
815535,6228.0,4812.0,3306.0,-958.0,-731.0,689.0,0.089,-0.427,-0.36,-0.825
815557,6544.0,4086.0,3074.0,-1049.0,-790.0,680.0,0.087,-0.436,-0.35,-0.824
815569,6770.0,3930.0,2960.0,-847.0,-754.0,638.0,0.086,-0.445,-0.342,-0.823
815591,6864.0,3818.0,2898.0,-816.0,-777.0,576.0,0.085,-0.453,-0.334,-0.822
815613,7052.0,4034.0,3022.0,-801.0,-768.0,510.0,0.083,-0.462,-0.326,-0.821
815625,6988.0,3504.0,2740.0,-805.0,-752.0,486.0,0.081,-0.469,-0.318,-0.82
815647,6890.0,3848.0,2832.0,-776.0,-742.0,430.0,0.079,-0.477,-0.311,-0.818
815659,6924.0,3602.0,2964.0,-744.0,-721.0,416.0,0.077,-0.484,-0.304,-0.817
815681,6860.0,3260.0,3140.0,-654.0,-704.0,399.0,0.075,-0.491,-0.298,-0.815
815693,7046.0,3444.0,3008.0,-605.0,-696.0,319.0,0.073,-0.498,-0.292,-0.813
815715,6924.0,3174.0,2692.0,-567.0,-656.0,338.0,0.071,-0.504,-0.287,-0.811
815727,6974.0,3284.0,2612.0,-587.0,-679.0,294.0,0.069,-0.51,-0.282,-0.81
815749,7194.0,3070.0,2642.0,-518.0,-669.0,268.0,0.067,-0.516,-0.277,-0.808
815771,7002.0,3066.0,2290.0,-523.0,-689.0,267.0,0.064,-0.523,-0.272,-0.805
815783,7260.0,3308.0,2406.0,-457.0,-672.0,260.0,0.063,-0.529,-0.268,-0.803
815805,7228.0,3210.0,2276.0,-431.0,-657.0,240.0,0.061,-0.534,-0.264,-0.801
815817,7018.0,3058.0,2442.0,-458.0,-687.0,286.0,0.059,-0.541,-0.26,-0.798
815839,7156.0,3140.0,2642.0,-454.0,-703.0,271.0,0.057,-0.547,-0.255,-0.795
815851,7248.0,2936.0,2542.0,-451.0,-695.0,288.0,0.055,-0.553,-0.251,-0.793
815873,7550.0,2900.0,2402.0,-368.0,-647.0,312.0,0.054,-0.558,-0.247,-0.79
815885,7444.0,3194.0,2424.0,-329.0,-607.0,309.0,0.053,-0.564,-0.243,-0.788
815907,7466.0,3044.0,2352.0,-396.0,-620.0,337.0,0.052,-0.569,-0.239,-0.785
815919,7648.0,2638.0,2214.0,-369.0,-603.0,299.0,0.051,-0.574,-0.235,-0.783
815941,7468.0,3184.0,2016.0,-460.0,-621.0,274.0,0.049,-0.58,-0.231,-0.78
815963,7680.0,2784.0,2086.0,-500.0,-623.0,254.0,0.047,-0.585,-0.226,-0.778
815975,7780.0,2574.0,2000.0,-449.0,-564.0,209.0,0.045,-0.59,-0.222,-0.775
815997,7828.0,2556.0,1962.0,-413.0,-523.0,165.0,0.043,-0.594,-0.218,-0.773
816009,7704.0,2472.0,1976.0,-366.0,-449.0,150.0,0.041,-0.598,-0.215,-0.771
816031,7668.0,2256.0,1764.0,-321.0,-423.0,133.0,0.04,-0.601,-0.212,-0.77
816043,7688.0,2242.0,1366.0,-274.0,-376.0,112.0,0.038,-0.604,-0.21,-0.768
816065,7806.0,2300.0,1402.0,-258.0,-354.0,124.0,0.037,-0.607,-0.207,-0.766
816077,7848.0,2252.0,1662.0,-248.0,-339.0,140.0,0.036,-0.61,-0.205,-0.765
816099,7874.0,2288.0,1730.0,-210.0,-312.0,143.0,0.035,-0.612,-0.203,-0.763
816121,7808.0,2336.0,1580.0,-179.0,-296.0,157.0,0.035,-0.615,-0.201,-0.762
816133,7904.0,2254.0,1686.0,-219.0,-302.0,150.0,0.034,-0.617,-0.198,-0.761
816160,7972.0,2196.0,1652.0,-267.0,-333.0,139.0,0.033,-0.62,-0.196,-0.759
816172,7980.0,2270.0,1416.0,-309.0,-326.0,116.0,0.031,-0.623,-0.193,-0.758
816184,7972.0,1976.0,1664.0,-320.0,-341.0,110.0,0.03,-0.625,-0.19,-0.756
816206,7828.0,2044.0,1680.0,-277.0,-318.0,74.0,0.028,-0.628,-0.188,-0.755
816218,7824.0,2120.0,1624.0,-245.0,-308.0,49.0,0.027,-0.63,-0.186,-0.754
816240,7764.0,2132.0,1350.0,-252.0,-311.0,58.0,0.025,-0.632,-0.184,-0.752
816252,7848.0,2166.0,1382.0,-292.0,-343.0,50.0,0.023,-0.635,-0.182,-0.751
816274,7794.0,1948.0,1540.0,-293.0,-344.0,39.0,0.021,-0.637,-0.179,-0.749
816296,7674.0,1958.0,1500.0,-286.0,-352.0,16.0,0.019,-0.64,-0.177,-0.748
816308,7924.0,1974.0,1478.0,-263.0,-382.0,-39.0,0.016,-0.642,-0.176,-0.746
816330,7920.0,1948.0,986.0,-265.0,-385.0,-78.0,0.014,-0.645,-0.174,-0.744
816342,7884.0,1728.0,992.0,-164.0,-345.0,-73.0,0.012,-0.647,-0.174,-0.742
816364,8002.0,2186.0,772.0,-139.0,-343.0,-124.0,0.009,-0.65,-0.174,-0.74
816376,7898.0,1516.0,768.0,15.0,-264.0,-119.0,0.008,-0.651,-0.174,-0.738
816398,7834.0,2360.0,1590.0,178.0,-231.0,-153.0,0.008,-0.653,-0.176,-0.737
816410,7894.0,2506.0,2304.0,224.0,-226.0,-168.0,0.008,-0.654,-0.179,-0.735
816432,7694.0,2538.0,2800.0,97.0,-304.0,-126.0,0.007,-0.655,-0.18,-0.734
816454,7890.0,2020.0,3296.0,19.0,-341.0,-178.0,0.005,-0.657,-0.181,-0.732
816466,7864.0,1926.0,2804.0,123.0,-269.0,-229.0,0.004,-0.658,-0.184,-0.73
816488,7928.0,3082.0,2712.0,330.0,-118.0,-239.0,0.004,-0.658,-0.187,-0.729
816500,8068.0,4362.0,3372.0,147.0,-93.0,-191.0,0.004,-0.658,-0.189,-0.728
816522,8322.0,2562.0,4170.0,190.0,81.0,-184.0,0.004,-0.657,-0.192,-0.729
816534,8146.0,3188.0,4718.0,278.0,273.0,-263.0,0.004,-0.655,-0.195,-0.73
816556,7862.0,3594.0,4434.0,200.0,385.0,-279.0,0.004,-0.652,-0.198,-0.732
816568,8294.0,4758.0,5114.0,56.0,461.0,-355.0,0.003,-0.648,-0.201,-0.734
816590,8526.0,3740.0,5390.0,-38.0,621.0,-384.0,0.001,-0.643,-0.203,-0.738
816602,8772.0,2860.0,5166.0,163.0,907.0,-466.0,0.001,-0.636,-0.207,-0.743
816624,8410.0,4550.0,5144.0,-19.0,1071.0,-524.0,0.001,0.628,0.21,0.749
816646,8584.0,4636.0,5222.0,-367.0,1180.0,-533.0,0.004,0.619,0.211,0.757
816658,8436.0,3916.0,5396.0,-523.0,1403.0,-536.0,0.008,0.607,0.21,0.766
816680,8422.0,5098.0,5406.0,-616.0,1575.0,-580.0,0.012,0.595,0.209,0.776
816692,8802.0,5800.0,6044.0,-878.0,1672.0,-602.0,0.018,0.582,0.207,0.787
816714,9716.0,3760.0,6348.0,-960.0,1898.0,-579.0,0.023,0.566,0.203,0.799
816726,10214.0,5218.0,6004.0,-1057.0,2315.0,-311.0,0.027,0.548,0.197,0.812
816748,9828.0,4720.0,6534.0,-1225.0,2312.0,-533.0,0.032,0.529,0.192,0.826
816770,10548.0,4814.0,7230.0,-1207.0,2489.0,-539.0,0.038,0.508,0.186,0.84
816782,10680.0,5290.0,7152.0,-1121.0,2722.0,-643.0,0.043,0.485,0.181,0.854
816804,10822.0,5956.0,7030.0,-1150.0,2954.0,-688.0,0.048,0.46,0.176,0.869
816816,11074.0,4980.0,7330.0,-1283.0,2973.0,-881.0,0.056,0.434,0.171,0.883
816838,10884.0,4888.0,6786.0,-1257.0,3241.0,-1155.0,0.065,0.404,0.167,0.897
816850,11414.0,5960.0,6698.0,-1238.0,3341.0,-1075.0,0.073,0.374,0.163,0.91
816872,10730.0,5414.0,7526.0,-1176.0,3553.0,-1017.0,0.08,0.341,0.159,0.923
816884,9948.0,5596.0,6932.0,-1093.0,3555.0,-1271.0,0.089,0.307,0.156,0.934
816906,9372.0,5496.0,6946.0,-1155.0,3601.0,-1292.0,0.098,0.273,0.153,0.945
816918,8714.0,5118.0,7372.0,-1115.0,3593.0,-1297.0,0.107,0.238,0.149,0.954
816940,7452.0,4370.0,7306.0,-1053.0,3538.0,-1248.0,0.115,0.204,0.146,0.961
816962,7092.0,4524.0,6046.0,-1051.0,3379.0,-1253.0,0.124,0.171,0.143,0.967
816974,6516.0,4120.0,4972.0,-1205.0,3245.0,-1307.0,0.133,0.138,0.138,0.972
816996,5264.0,3550.0,5684.0,-1239.0,3057.0,-1430.0,0.143,0.108,0.132,0.975
817008,4594.0,2440.0,6068.0,-1090.0,2958.0,-1324.0,0.152,0.079,0.127,0.977
817030,3224.0,3352.0,6224.0,-1003.0,2782.0,-1089.0,0.16,0.052,0.123,0.978
817042,3364.0,2318.0,5514.0,-888.0,2611.0,-926.0,0.166,0.026,0.119,0.979
817064,2752.0,2340.0,4958.0,-739.0,2453.0,-939.0,0.172,0.001,0.117,0.978
817076,2424.0,2312.0,4450.0,-706.0,2252.0,-832.0,0.177,-0.021,0.114,0.977
817098,2762.0,1738.0,3942.0,-825.0,2093.0,-723.0,0.182,-0.042,0.11,0.976
817110,2154.0,1562.0,4172.0,-763.0,2006.0,-632.0,0.185,-0.062,0.106,0.975
817132,2198.0,1882.0,3528.0,-740.0,1873.0,-639.0,0.189,-0.081,0.102,0.973
817154,1662.0,1262.0,3044.0,-820.0,1794.0,-611.0,0.192,-0.099,0.097,0.971
817166,1570.0,1068.0,2578.0,-905.0,1673.0,-673.0,0.196,-0.117,0.091,0.969
817188,1642.0,648.0,2256.0,-908.0,1628.0,-798.0,0.201,-0.134,0.085,0.967
817200,1520.0,270.0,1532.0,-1019.0,1629.0,-825.0,0.206,-0.151,0.078,0.964
817222,1098.0,712.0,1174.0,-964.0,1522.0,-914.0,0.212,-0.167,0.071,0.96
817234,690.0,-414.0,1268.0,-1018.0,1418.0,-863.0,0.218,-0.182,0.064,0.957
817256,6.0,-1718.0,1484.0,-972.0,1414.0,-523.0,0.22,-0.197,0.057,0.954
817268,-1236.0,-1058.0,1116.0,-533.0,1195.0,-459.0,0.223,-0.209,0.054,0.951
817290,-1112.0,-364.0,688.0,-239.0,893.0,-479.0,0.227,-0.217,0.053,0.948
817312,-992.0,-972.0,364.0,-245.0,602.0,-141.0,0.228,-0.223,0.052,0.946
817324,-1684.0,-1648.0,228.0,-192.0,224.0,2.0,0.227,-0.225,0.051,0.946
817346,-1264.0,-2352.0,1660.0,46.0,-115.0,251.0,0.226,-0.224,0.052,0.947
817358,-1566.0,-2812.0,1662.0,357.0,-290.0,583.0,0.222,-0.22,0.055,0.948
817380,-2570.0,-964.0,1636.0,643.0,-470.0,629.0,0.219,-0.214,0.062,0.95
817392,-2124.0,-1132.0,2286.0,886.0,-972.0,353.0,0.218,-0.204,0.068,0.952
817414,-1626.0,-864.0,2674.0,1087.0,-1232.0,411.0,0.218,-0.19,0.076,0.954
817426,-1158.0,-1038.0,3284.0,1159.0,-1506.0,341.0,0.219,-0.174,0.084,0.956
817448,-622.0,-1338.0,3414.0,1362.0,-1616.0,302.0,0.22,-0.156,0.094,0.958
817460,-234.0,1186.0,3200.0,1471.0,-1766.0,245.0,0.222,-0.137,0.104,0.96
817483,-122.0,1346.0,4114.0,1391.0,-1994.0,164.0,0.225,-0.116,0.112,0.961
817505,732.0,1042.0,5520.0,1346.0,-2157.0,161.0,0.227,-0.094,0.12,0.962
817517,914.0,2276.0,6066.0,1376.0,-2177.0,184.0,0.23,-0.071,0.128,0.962
817539,798.0,2776.0,7064.0,1285.0,-2260.0,300.0,0.231,-0.047,0.135,0.962
817551,1828.0,3396.0,7694.0,1207.0,-2312.0,420.0,0.231,-0.022,0.141,0.962
817573,2420.0,2270.0,8158.0,1152.0,-2454.0,307.0,0.232,0.004,0.146,0.962
817585,3258.0,3052.0,8532.0,1254.0,-2346.0,552.0,0.231,0.028,0.152,0.961
817607,2502.0,4564.0,8606.0,1157.0,-2351.0,648.0,0.228,0.053,0.157,0.959
817619,3400.0,3826.0,9112.0,982.0,-2364.0,1005.0,0.222,0.078,0.16,0.959
817641,3948.0,4184.0,8256.0,945.0,-2297.0,1057.0,0.216,0.102,0.163,0.957
817663,3900.0,5240.0,8972.0,812.0,-2244.0,1195.0,0.208,0.126,0.165,0.956
817675,4636.0,3320.0,10474.0,902.0,-2161.0,1281.0,0.2,0.149,0.167,0.954
817697,4150.0,3204.0,9806.0,1222.0,-1849.0,1175.0,0.191,0.169,0.172,0.951
817709,4176.0,7062.0,8760.0,1098.0,-1814.0,1200.0,0.181,0.189,0.177,0.949
817731,5082.0,2556.0,9486.0,795.0,-2128.0,952.0,0.175,0.211,0.179,0.945
817743,5800.0,3804.0,10070.0,1131.0,-1584.0,1355.0,0.164,0.229,0.183,0.942
817765,5120.0,5524.0,9076.0,1111.0,-1485.0,1398.0,0.152,0.247,0.188,0.939
817777,4904.0,5504.0,8482.0,954.0,-1602.0,1196.0,0.142,0.264,0.191,0.935
817799,5318.0,4878.0,8234.0,961.0,-1574.0,1067.0,0.133,0.281,0.194,0.93
817821,5390.0,4508.0,8242.0,1053.0,-1468.0,1009.0,0.125,0.297,0.199,0.926
817833,5206.0,4874.0,7688.0,1065.0,-1423.0,949.0,0.116,0.312,0.204,0.921
817855,5362.0,5186.0,7240.0,994.0,-1439.0,897.0,0.109,0.328,0.208,0.915
817867,5990.0,5106.0,7320.0,904.0,-1298.0,1250.0,0.098,0.342,0.21,0.911
817889,5548.0,4474.0,6588.0,928.0,-1160.0,1433.0,0.085,0.356,0.213,0.906
817901,5390.0,5364.0,6782.0,951.0,-1213.0,1229.0,0.074,0.369,0.215,0.901
817923,5570.0,5046.0,7178.0,931.0,-1138.0,1352.0,0.062,0.382,0.218,0.896
817935,5516.0,4464.0,6860.0,981.0,-1129.0,1215.0,0.051,0.395,0.221,0.89
817957,5512.0,4830.0,6468.0,992.0,-1088.0,1094.0,0.041,0.406,0.224,0.885
817969,5190.0,5658.0,5926.0,803.0,-1127.0,799.0,0.033,0.418,0.227,0.879
817991,5836.0,4678.0,5840.0,728.0,-1102.0,713.0,0.027,0.429,0.23,0.873
818013,5636.0,4834.0,5782.0,799.0,-1046.0,576.0,0.022,0.439,0.234,0.867
818025,5724.0,5326.0,6386.0,750.0,-1027.0,545.0,0.016,0.448,0.238,0.862
818047,5688.0,4978.0,6660.0,607.0,-1030.0,639.0,0.011,0.458,0.24,0.856
818059,5798.0,4578.0,6252.0,585.0,-967.0,613.0,0.006,0.467,0.242,0.85
818081,5574.0,5066.0,5924.0,541.0,-913.0,563.0,0.001,0.476,0.243,0.845
818093,5582.0,4880.0,5946.0,262.0,-998.0,553.0,0.002,-0.485,-0.243,-0.84
818115,5768.0,2960.0,6508.0,23.0,-1078.0,494.0,0.004,-0.495,-0.241,-0.835
818127,5542.0,5400.0,6274.0,-26.0,-996.0,290.0,0.004,-0.503,-0.239,-0.83
818149,4838.0,6906.0,8098.0,-210.0,-898.0,478.0,0.005,-0.511,-0.235,-0.827
818166,4886.0,5090.0,7768.0,-315.0,-721.0,501.0,0.005,-0.518,-0.231,-0.824
818188,5130.0,4582.0,7528.0,-208.0,-533.0,331.0,0.006,-0.523,-0.227,-0.821
818200,5622.0,5746.0,9268.0,-216.0,-335.0,105.0,0.005,-0.526,-0.225,-0.82
818222,3328.0,6598.0,11674.0,-524.0,-373.0,-286.0,0.001,0.528,0.223,0.819
818234,5454.0,5710.0,10992.0,-487.0,149.0,-170.0,0.004,0.527,0.22,0.821
818256,5312.0,6342.0,10494.0,-592.0,366.0,-300.0,0.008,0.523,0.217,0.824
818268,6000.0,5792.0,8540.0,-753.0,614.0,-432.0,0.014,0.518,0.213,0.829
818290,6318.0,5586.0,8380.0,-912.0,816.0,-599.0,0.021,0.51,0.209,0.834
818302,7004.0,5944.0,9646.0,-940.0,1194.0,-677.0,0.028,0.499,0.205,0.841
818324,6990.0,6596.0,10038.0,-1049.0,1506.0,-534.0,0.034,0.486,0.2,0.85
818336,7606.0,6302.0,9642.0,-1266.0,1763.0,-406.0,0.04,0.471,0.193,0.86
818358,7458.0,5306.0,9148.0,-1479.0,1912.0,-562.0,0.047,0.454,0.184,0.871
818380,8502.0,6236.0,9192.0,-1483.0,2043.0,-1086.0,0.059,0.434,0.177,0.881
818392,8636.0,6078.0,9540.0,-1598.0,2263.0,-992.0,0.069,0.413,0.17,0.892
818414,8872.0,5400.0,9374.0,-1501.0,2574.0,-1070.0,0.079,0.389,0.163,0.903
818426,8690.0,6028.0,9514.0,-1494.0,2764.0,-1258.0,0.091,0.363,0.157,0.914
818448,8810.0,5072.0,9098.0,-1536.0,2831.0,-1358.0,0.103,0.335,0.151,0.924
818460,8342.0,5864.0,9174.0,-1407.0,2991.0,-1652.0,0.118,0.305,0.147,0.933
818482,8300.0,5832.0,8326.0,-1262.0,3036.0,-1981.0,0.134,0.275,0.145,0.941
818504,7620.0,4876.0,9564.0,-1213.0,3163.0,-1953.0,0.15,0.243,0.143,0.948
818516,7150.0,5516.0,9374.0,-869.0,3288.0,-1797.0,0.163,0.21,0.144,0.953
818538,8132.0,4606.0,6086.0,-990.0,3194.0,-1435.0,0.173,0.178,0.143,0.958
818550,6990.0,5520.0,6316.0,-1134.0,3157.0,-1440.0,0.183,0.146,0.14,0.962
818572,5852.0,4932.0,7850.0,-1170.0,2962.0,-1290.0,0.192,0.116,0.136,0.965
818584,5612.0,3934.0,8272.0,-1235.0,2933.0,-1089.0,0.199,0.086,0.131,0.967
818606,4724.0,3848.0,5826.0,-1349.0,2795.0,-879.0,0.205,0.058,0.125,0.969
818618,3658.0,3854.0,6726.0,-1346.0,2571.0,-1033.0,0.211,0.032,0.119,0.97
818640,3600.0,2456.0,7036.0,-1242.0,2466.0,-1086.0,0.219,0.007,0.113,0.969
818652,2638.0,2624.0,6876.0,-1171.0,2395.0,-956.0,0.225,-0.017,0.107,0.968
818674,2266.0,2138.0,6790.0,-1045.0,2328.0,-892.0,0.231,-0.04,0.103,0.967
818696,1936.0,2230.0,5734.0,-834.0,2286.0,-902.0,0.236,-0.064,0.1,0.964
818708,1256.0,1874.0,5604.0,-823.0,2109.0,-922.0,0.242,-0.085,0.096,0.962
818730,998.0,1776.0,4794.0,-894.0,1895.0,-1061.0,0.25,-0.105,0.092,0.958
818742,1342.0,1228.0,4716.0,-928.0,1654.0,-1237.0,0.259,-0.123,0.086,0.954
818764,1388.0,468.0,4094.0,-920.0,1638.0,-1297.0,0.268,-0.141,0.08,0.95
818776,94.0,750.0,3916.0,-857.0,1624.0,-1240.0,0.277,-0.158,0.075,0.945
818798,-250.0,1880.0,3084.0,-866.0,1387.0,-1149.0,0.285,-0.173,0.07,0.94
818810,1190.0,1790.0,2754.0,-1274.0,1270.0,-585.0,0.287,-0.188,0.061,0.937
818832,868.0,-1200.0,1614.0,-1379.0,1295.0,-300.0,0.287,-0.203,0.052,0.935
818854,14.0,-1904.0,1538.0,-1045.0,1280.0,-411.0,0.288,-0.217,0.045,0.932
818866,-450.0,-718.0,1350.0,-773.0,1137.0,-456.0,0.29,-0.229,0.041,0.928
818888,-370.0,-630.0,936.0,-758.0,894.0,-234.0,0.291,-0.239,0.036,0.926
818900,-502.0,-1818.0,1142.0,-766.0,713.0,133.0,0.288,-0.247,0.032,0.925
818922,-1170.0,-2464.0,1218.0,-375.0,377.0,12.0,0.287,-0.251,0.03,0.924
818934,-990.0,-2548.0,1338.0,-224.0,187.0,504.0,0.283,-0.253,0.03,0.925
818956,-1050.0,-940.0,1398.0,26.0,75.0,1068.0,0.274,-0.253,0.033,0.927
818968,-1432.0,-2598.0,1122.0,333.0,-288.0,697.0,0.27,-0.25,0.037,0.929
818990,-1346.0,-1798.0,1202.0,778.0,-465.0,542.0,0.268,-0.243,0.044,0.931
819002,-1592.0,-2178.0,1820.0,967.0,-722.0,513.0,0.266,-0.234,0.052,0.934
819024,-1478.0,-1424.0,2300.0,1219.0,-951.0,531.0,0.265,-0.223,0.061,0.936
819046,-1382.0,-976.0,2814.0,1359.0,-1156.0,573.0,0.264,-0.209,0.072,0.939
819058,-1028.0,234.0,2704.0,1433.0,-1374.0,582.0,0.263,-0.192,0.082,0.942
819080,-564.0,84.0,3542.0,1299.0,-1626.0,507.0,0.263,-0.174,0.091,0.945
819092,-326.0,-340.0,4052.0,1299.0,-1751.0,369.0,0.264,-0.155,0.098,0.947
819114,-608.0,536.0,5206.0,1419.0,-1914.0,373.0,0.265,-0.134,0.107,0.949
819126,-304.0,1978.0,5432.0,1320.0,-2182.0,234.0,0.267,-0.111,0.113,0.95
819148,1266.0,3314.0,5374.0,931.0,-2536.0,-35.0,0.272,-0.087,0.115,0.952
819170,2360.0,1492.0,6180.0,802.0,-2555.0,-74.0,0.276,-0.062,0.116,0.952
819182,1466.0,1396.0,8686.0,1262.0,-2343.0,175.0,0.278,-0.037,0.121,0.952
819204,956.0,4046.0,9064.0,787.0,-2357.0,683.0,0.275,-0.013,0.122,0.953
819216,2200.0,2708.0,8944.0,856.0,-2378.0,857.0,0.271,0.012,0.124,0.955
819238,2738.0,3482.0,8046.0,1002.0,-2263.0,915.0,0.266,0.035,0.127,0.955
819250,2366.0,3474.0,8442.0,826.0,-2402.0,809.0,0.261,0.06,0.128,0.955
819272,2924.0,3794.0,9652.0,875.0,-2460.0,833.0,0.257,0.085,0.129,0.954
819284,3316.0,3740.0,9712.0,983.0,-2366.0,1000.0,0.25,0.11,0.131,0.953
819306,3498.0,3890.0,9522.0,977.0,-2345.0,993.0,0.243,0.134,0.133,0.951
819318,5024.0,4228.0,8280.0,881.0,-2313.0,943.0,0.237,0.158,0.135,0.949
819340,3206.0,6248.0,8798.0,813.0,-2415.0,346.0,0.236,0.182,0.136,0.945
819352,6000.0,4902.0,10596.0,988.0,-2260.0,1161.0,0.227,0.205,0.137,0.942
819374,5254.0,3372.0,11224.0,1229.0,-1817.0,1486.0,0.214,0.226,0.141,0.94
819396,4904.0,3908.0,9456.0,1346.0,-1609.0,1493.0,0.201,0.245,0.147,0.937
819408,4356.0,3916.0,8680.0,1247.0,-1712.0,1085.0,0.191,0.264,0.152,0.933
819430,5566.0,1390.0,9094.0,1594.0,-1615.0,886.0,0.182,0.282,0.161,0.928
819442,5362.0,3170.0,9918.0,2024.0,-1366.0,1005.0,0.17,0.299,0.173,0.923
819464,5314.0,4688.0,8908.0,1946.0,-1267.0,1390.0,0.155,0.315,0.184,0.918
819476,5288.0,4878.0,7856.0,1790.0,-1290.0,1517.0,0.139,0.331,0.193,0.913
819498,5742.0,5026.0,7692.0,1651.0,-1332.0,1565.0,0.123,0.347,0.2,0.908
819520,5236.0,5488.0,7678.0,1547.0,-1295.0,1528.0,0.107,0.363,0.207,0.902
819532,5042.0,5530.0,7206.0,1371.0,-1324.0,1337.0,0.094,0.378,0.212,0.896
819554,5682.0,4796.0,6448.0,1317.0,-1300.0,1095.0,0.083,0.392,0.218,0.89
819566,5956.0,5450.0,6004.0,1306.0,-1078.0,1176.0,0.071,0.405,0.224,0.884
819588,5276.0,5470.0,6210.0,1280.0,-1012.0,1057.0,0.059,0.416,0.229,0.878
819600,5686.0,5016.0,6034.0,1279.0,-1060.0,945.0,0.049,0.427,0.236,0.871
819622,5884.0,5654.0,6222.0,1326.0,-1038.0,895.0,0.039,0.438,0.242,0.865
819634,5856.0,6148.0,5620.0,1135.0,-1090.0,862.0,0.029,0.45,0.247,0.858
819656,6356.0,5322.0,5680.0,1030.0,-1058.0,852.0,0.021,0.46,0.252,0.851
819668,6402.0,6646.0,5314.0,680.0,-1057.0,707.0,0.015,0.471,0.254,0.845
819690,6686.0,4998.0,5310.0,602.0,-943.0,780.0,0.008,0.48,0.255,0.839
819702,6284.0,5500.0,5246.0,629.0,-811.0,707.0,0.002,0.488,0.257,0.834
819725,6306.0,5246.0,5342.0,602.0,-749.0,724.0,0.005,-0.496,-0.258,-0.829
819737,5982.0,5512.0,5806.0,514.0,-701.0,672.0,0.011,-0.503,-0.259,-0.825
819760,5928.0,4876.0,6234.0,435.0,-668.0,592.0,0.016,-0.509,-0.26,-0.82
819782,5554.0,5256.0,5934.0,382.0,-612.0,431.0,0.02,-0.515,-0.261,-0.816
819794,5448.0,5516.0,5732.0,223.0,-633.0,312.0,0.021,-0.521,-0.261,-0.813
819816,5194.0,5676.0,6102.0,15.0,-591.0,200.0,0.022,-0.526,-0.26,-0.81
819828,5234.0,4632.0,6754.0,-111.0,-546.0,104.0,0.021,-0.53,-0.259,-0.807
819850,5244.0,5042.0,6826.0,-252.0,-509.0,-47.0,0.018,-0.534,-0.257,-0.805
819862,5592.0,5900.0,6192.0,-387.0,-319.0,-191.0,0.014,-0.536,-0.256,-0.805
819884,5510.0,6724.0,8124.0,-605.0,-203.0,-213.0,0.009,-0.537,-0.252,-0.805
819896,5494.0,6390.0,9180.0,-751.0,27.0,-357.0,0.002,-0.536,-0.248,-0.807
819918,6382.0,6016.0,9646.0,-812.0,422.0,-89.0,0.001,0.533,0.243,0.811
819930,5594.0,5642.0,8700.0,-952.0,637.0,-324.0,0.007,0.527,0.237,0.816
819952,5630.0,5956.0,7900.0,-1090.0,786.0,-588.0,0.015,0.52,0.232,0.822
819974,5694.0,6180.0,8794.0,-1187.0,1001.0,-873.0,0.025,0.51,0.227,0.829
819986,5944.0,6172.0,8964.0,-1230.0,1230.0,-1093.0,0.036,0.498,0.223,0.837
820008,6206.0,6246.0,9280.0,-1317.0,1435.0,-1170.0,0.048,0.484,0.219,0.846
820020,6874.0,6410.0,8976.0,-1416.0,1690.0,-1099.0,0.059,0.467,0.214,0.856
820042,6826.0,6858.0,9018.0,-1581.0,1812.0,-1164.0,0.072,0.449,0.207,0.866
820054,7790.0,6592.0,8994.0,-1668.0,1960.0,-1103.0,0.083,0.43,0.2,0.876
820076,8112.0,6630.0,9222.0,-1797.0,2080.0,-1043.0,0.095,0.41,0.191,0.887
820088,8880.0,6368.0,9032.0,-1859.0,2244.0,-1011.0,0.106,0.388,0.181,0.898
820110,8928.0,5630.0,7756.0,-1849.0,2445.0,-1172.0,0.118,0.363,0.173,0.908
820132,8848.0,5366.0,7604.0,-1773.0,2563.0,-1525.0,0.133,0.337,0.165,0.917
820144,8494.0,7030.0,7890.0,-1803.0,2757.0,-1558.0,0.147,0.308,0.158,0.926
820171,8436.0,4880.0,8258.0,-1627.0,2746.0,-1880.0,0.163,0.28,0.153,0.934
820183,7864.0,6188.0,8362.0,-1622.0,2887.0,-1533.0,0.176,0.25,0.148,0.941
820195,7246.0,4814.0,8418.0,-1673.0,2825.0,-1385.0,0.188,0.22,0.141,0.947
820217,7260.0,3910.0,6992.0,-1677.0,2681.0,-1214.0,0.199,0.192,0.133,0.952
820229,6020.0,3424.0,7348.0,-1408.0,2669.0,-1310.0,0.209,0.164,0.128,0.956
820251,5164.0,3374.0,7764.0,-1366.0,2570.0,-1274.0,0.219,0.137,0.123,0.958
820263,4256.0,3948.0,7232.0,-1284.0,2415.0,-1377.0,0.23,0.111,0.118,0.96
820285,3964.0,3110.0,7060.0,-1382.0,2210.0,-1526.0,0.243,0.087,0.112,0.96
820307,4140.0,2526.0,7968.0,-1331.0,2092.0,-1405.0,0.254,0.064,0.106,0.959
820319,3954.0,2932.0,7322.0,-1269.0,2055.0,-1238.0,0.264,0.043,0.1,0.958
820341,3780.0,3736.0,6600.0,-1224.0,2093.0,-986.0,0.271,0.021,0.095,0.958
820353,2928.0,3460.0,7148.0,-1310.0,2117.0,-677.0,0.275,-0.001,0.089,0.957
820375,2614.0,2160.0,7474.0,-1345.0,2008.0,-569.0,0.279,-0.022,0.082,0.957
820387,2908.0,1026.0,6578.0,-1184.0,1968.0,-551.0,0.282,-0.043,0.077,0.955
820409,1266.0,1860.0,7008.0,-1046.0,1945.0,-645.0,0.286,-0.063,0.072,0.953
820421,1344.0,1060.0,6674.0,-865.0,1887.0,-704.0,0.291,-0.083,0.069,0.951
820443,940.0,1856.0,5680.0,-711.0,1825.0,-837.0,0.297,-0.101,0.067,0.947
820465,1472.0,832.0,5306.0,-759.0,1756.0,-725.0,0.301,-0.119,0.064,0.944
820477,1058.0,388.0,5256.0,-777.0,1788.0,-604.0,0.305,-0.137,0.062,0.94
820499,856.0,878.0,3538.0,-736.0,1807.0,-596.0,0.308,-0.156,0.06,0.937
820511,58.0,680.0,3590.0,-726.0,1729.0,-657.0,0.312,-0.173,0.058,0.932
820533,394.0,388.0,3936.0,-885.0,1623.0,-255.0,0.313,-0.19,0.054,0.929
820545,-222.0,-1344.0,2686.0,-1049.0,1548.0,85.0,0.31,-0.206,0.05,0.927
820567,-1064.0,-1330.0,2556.0,-734.0,1518.0,164.0,0.306,-0.221,0.049,0.925
820579,-1842.0,-878.0,2036.0,-541.0,1286.0,-133.0,0.306,-0.234,0.047,0.922
820601,-190.0,-2250.0,1196.0,-637.0,1174.0,515.0,0.3,-0.245,0.046,0.921
820613,-1656.0,-1870.0,-146.0,-622.0,1062.0,276.0,0.296,-0.256,0.045,0.919
820635,-1500.0,-510.0,234.0,-579.0,749.0,319.0,0.293,-0.264,0.043,0.918
820657,-2248.0,-1706.0,1276.0,-710.0,449.0,617.0,0.286,-0.269,0.04,0.919
820669,-2404.0,-3668.0,1128.0,-331.0,127.0,165.0,0.284,-0.271,0.038,0.919
820691,-2444.0,-3292.0,1352.0,364.0,-69.0,-110.0,0.286,-0.269,0.041,0.919
820703,-2426.0,-2358.0,1310.0,585.0,-291.0,15.0,0.288,-0.265,0.045,0.919
820725,-2476.0,-1840.0,1216.0,649.0,-524.0,184.0,0.289,-0.259,0.05,0.92
820737,-2138.0,-1714.0,1526.0,810.0,-746.0,249.0,0.29,-0.25,0.055,0.922
820759,-1514.0,-1550.0,1766.0,1037.0,-877.0,280.0,0.291,-0.239,0.063,0.924
820771,-1276.0,-440.0,1916.0,1258.0,-992.0,215.0,0.293,-0.227,0.072,0.926
820793,-1504.0,216.0,2638.0,1274.0,-1217.0,253.0,0.295,-0.213,0.08,0.928
820815,-760.0,-366.0,3712.0,1151.0,-1501.0,345.0,0.296,-0.196,0.087,0.931
820827,-470.0,66.0,4136.0,1092.0,-1574.0,649.0,0.294,-0.179,0.093,0.934
820849,-1650.0,952.0,4818.0,1353.0,-1868.0,393.0,0.295,-0.158,0.1,0.937
820861,-532.0,2794.0,5746.0,1206.0,-2047.0,576.0,0.294,-0.136,0.106,0.94
820883,816.0,-486.0,5626.0,1204.0,-2147.0,680.0,0.292,-0.113,0.112,0.943
820895,1306.0,232.0,5906.0,1670.0,-2052.0,583.0,0.291,-0.09,0.122,0.945
820917,480.0,2284.0,6894.0,1859.0,-2006.0,681.0,0.29,-0.066,0.133,0.946
820929,-708.0,2590.0,9108.0,1995.0,-2152.0,892.0,0.286,-0.041,0.145,0.946
820951,254.0,1734.0,8598.0,2134.0,-2274.0,1084.0,0.281,-0.013,0.158,0.947
820973,1506.0,4464.0,7396.0,2415.0,-2247.0,1099.0,0.275,0.016,0.174,0.945
820985,2826.0,5598.0,7428.0,1977.0,-2347.0,1268.0,0.268,0.044,0.185,0.945
821007,3192.0,3878.0,8474.0,1839.0,-2299.0,1258.0,0.26,0.071,0.195,0.943
821019,3880.0,4890.0,7598.0,1857.0,-2093.0,1252.0,0.252,0.096,0.205,0.941
821041,3776.0,6648.0,7608.0,1853.0,-1986.0,1140.0,0.244,0.12,0.216,0.938
821053,4162.0,7492.0,9092.0,1404.0,-1936.0,1335.0,0.235,0.143,0.222,0.935
821075,3564.0,4282.0,9120.0,1361.0,-1863.0,1245.0,0.227,0.165,0.228,0.932
821087,4346.0,7128.0,8574.0,1362.0,-1852.0,1381.0,0.217,0.187,0.233,0.929
821109,4354.0,6224.0,8946.0,1171.0,-1845.0,1582.0,0.205,0.209,0.237,0.926
821131,4612.0,7058.0,8360.0,967.0,-1739.0,1862.0,0.191,0.23,0.238,0.924
821143,4476.0,7530.0,7634.0,698.0,-1803.0,1774.0,0.179,0.251,0.237,0.921
821165,4854.0,5334.0,8128.0,560.0,-1879.0,1512.0,0.169,0.271,0.235,0.918
821177,5506.0,5208.0,8380.0,858.0,-1713.0,1635.0,0.157,0.291,0.235,0.914
821199,4958.0,6318.0,7938.0,780.0,-1661.0,1724.0,0.144,0.31,0.235,0.91
821211,5152.0,5160.0,7684.0,976.0,-1716.0,1260.0,0.134,0.329,0.237,0.904
821233,6012.0,6268.0,7300.0,1024.0,-1595.0,1246.0,0.124,0.346,0.24,0.898
821245,6236.0,4844.0,7044.0,1302.0,-1507.0,1170.0,0.114,0.363,0.245,0.892
821267,5994.0,5214.0,6946.0,1461.0,-1411.0,1174.0,0.102,0.379,0.251,0.885
821289,6112.0,4130.0,7070.0,1592.0,-1355.0,1296.0,0.089,0.395,0.258,0.877
821301,5758.0,5326.0,6712.0,1863.0,-1218.0,1316.0,0.075,0.41,0.268,0.869
821323,5496.0,6794.0,6808.0,1761.0,-1212.0,1281.0,0.061,0.424,0.276,0.86
821335,5468.0,6330.0,6664.0,1228.0,-1224.0,1260.0,0.049,0.438,0.28,0.853
821357,5904.0,5714.0,5628.0,994.0,-1164.0,1175.0,0.039,0.451,0.283,0.846
821369,6270.0,6216.0,3818.0,807.0,-1219.0,1013.0,0.031,0.463,0.284,0.839
821391,6782.0,6150.0,4388.0,666.0,-1265.0,968.0,0.024,0.476,0.285,0.832
821403,7294.0,4862.0,4764.0,614.0,-1166.0,856.0,0.017,0.487,0.285,0.825
821425,6706.0,5606.0,4756.0,853.0,-937.0,850.0,0.009,0.497,0.288,0.819
821437,6226.0,6312.0,4722.0,770.0,-866.0,872.0,0.001,0.506,0.29,0.812
821459,6368.0,5776.0,5710.0,585.0,-826.0,836.0,0.006,-0.514,-0.29,-0.807
821481,6228.0,5242.0,4986.0,556.0,-687.0,682.0,0.012,-0.521,-0.291,-0.802
821493,6252.0,6352.0,4992.0,517.0,-592.0,550.0,0.017,-0.527,-0.292,-0.798
821515,5986.0,5562.0,5226.0,276.0,-577.0,558.0,0.021,-0.533,-0.292,-0.794
821527,5834.0,5066.0,4952.0,199.0,-556.0,358.0,0.023,-0.538,-0.292,-0.79
821549,5656.0,4866.0,5332.0,263.0,-430.0,331.0,0.026,-0.542,-0.292,-0.787
821561,5438.0,6240.0,5430.0,276.0,-321.0,254.0,0.028,-0.545,-0.293,-0.785
821583,5442.0,6416.0,5596.0,5.0,-265.0,216.0,0.029,-0.548,-0.292,-0.783
821595,5648.0,6590.0,4778.0,-138.0,-194.0,49.0,0.028,-0.55,-0.291,-0.783
821617,5158.0,6042.0,3858.0,-458.0,-257.0,33.0,0.025,-0.551,-0.288,-0.783
821629,5376.0,5148.0,4842.0,-606.0,-257.0,45.0,0.021,-0.552,-0.283,-0.784
821651,5670.0,5658.0,5410.0,-391.0,-50.0,-52.0,0.019,-0.553,-0.281,-0.784
821673,5758.0,6856.0,5654.0,-480.0,45.0,-86.0,0.016,-0.552,-0.278,-0.786
821685,5942.0,6530.0,6096.0,-806.0,80.0,-101.0,0.012,-0.552,-0.273,-0.788
821707,6342.0,5636.0,6418.0,-997.0,164.0,-254.0,0.005,-0.55,-0.267,-0.792
821719,6410.0,4964.0,6890.0,-826.0,413.0,-317.0,0.0,0.546,0.262,0.796
821741,6116.0,5814.0,7014.0,-666.0,629.0,-458.0,0.005,0.54,0.26,0.8
821753,6566.0,6302.0,7206.0,-722.0,808.0,-593.0,0.011,0.533,0.257,0.806
821775,6630.0,6690.0,6586.0,-914.0,962.0,-668.0,0.018,0.524,0.254,0.813
821797,6720.0,6766.0,6928.0,-1226.0,1023.0,-828.0,0.028,0.514,0.249,0.821
821809,7066.0,5186.0,7772.0,-1466.0,1197.0,-888.0,0.039,0.502,0.242,0.829
821831,7026.0,5530.0,7194.0,-1187.0,1506.0,-937.0,0.048,0.488,0.238,0.838
821843,6918.0,6306.0,6588.0,-1188.0,1641.0,-1035.0,0.058,0.472,0.234,0.848
821865,7768.0,5340.0,6538.0,-1258.0,1777.0,-1019.0,0.067,0.455,0.23,0.858
821877,7726.0,5494.0,7204.0,-1029.0,1977.0,-1077.0,0.076,0.436,0.227,0.867
821899,6228.0,9394.0,7232.0,-1581.0,2062.0,-1554.0,0.09,0.415,0.222,0.878
821911,7808.0,6172.0,7658.0,-1255.0,2289.0,-1238.0,0.1,0.392,0.219,0.888
821933,7500.0,6390.0,8130.0,-1287.0,2295.0,-1404.0,0.112,0.369,0.215,0.897
821955,7494.0,6540.0,7666.0,-1252.0,2306.0,-1414.0,0.123,0.346,0.212,0.906
821967,6904.0,4360.0,7520.0,-1056.0,2324.0,-1559.0,0.135,0.322,0.211,0.913
821979,7178.0,7456.0,8346.0,-1272.0,2329.0,-1435.0,0.146,0.297,0.207,0.92
822002,6770.0,5636.0,8444.0,-1394.0,2319.0,-1252.0,0.156,0.273,0.202,0.928
822024,6678.0,5480.0,7640.0,-1345.0,2365.0,-1282.0,0.166,0.248,0.197,0.934
822036,5982.0,2846.0,5104.0,-1012.0,2403.0,-1612.0,0.178,0.224,0.195,0.938
822058,5040.0,5718.0,8378.0,-1013.0,2438.0,-1317.0,0.187,0.198,0.193,0.943
822070,5560.0,4698.0,7952.0,-689.0,2472.0,-1288.0,0.195,0.173,0.194,0.946
822092,4582.0,5680.0,7142.0,-776.0,2477.0,-1234.0,0.202,0.147,0.193,0.949
822104,4904.0,4836.0,7110.0,-897.0,2363.0,-1351.0,0.211,0.122,0.191,0.951
822126,4452.0,4376.0,7728.0,-928.0,2301.0,-1404.0,0.22,0.098,0.189,0.952
822138,4450.0,3596.0,7256.0,-768.0,2372.0,-1443.0,0.229,0.072,0.189,0.952
822160,3278.0,4696.0,6840.0,-684.0,2444.0,-1372.0,0.237,0.048,0.189,0.952
822177,3012.0,4228.0,7074.0,-754.0,2366.0,-1330.0,0.245,0.024,0.188,0.951
822199,2906.0,3160.0,6542.0,-673.0,2325.0,-1324.0,0.253,0.0,0.187,0.949
822211,2244.0,2824.0,6532.0,-606.0,2283.0,-1248.0,0.259,-0.023,0.187,0.947
822233,1502.0,2358.0,5700.0,-486.0,2215.0,-1217.0,0.266,-0.046,0.188,0.944
822245,1266.0,2780.0,5568.0,-417.0,2114.0,-1214.0,0.273,-0.067,0.189,0.941
822267,850.0,2080.0,5028.0,-545.0,1899.0,-1187.0,0.28,-0.087,0.188,0.937
822279,-24.0,2640.0,4838.0,-600.0,1529.0,-1173.0,0.287,-0.104,0.186,0.934
822301,-148.0,2698.0,3964.0,-751.0,1099.0,-1236.0,0.295,-0.118,0.181,0.931
822313,-352.0,2412.0,3150.0,-973.0,920.0,-1468.0,0.306,-0.131,0.174,0.927
822335,-652.0,676.0,3528.0,-1159.0,929.0,-1387.0,0.315,-0.144,0.165,0.924
822357,790.0,-1482.0,5172.0,-1243.0,1275.0,-653.0,0.317,-0.16,0.157,0.922
822369,-2932.0,-166.0,4026.0,-1051.0,1593.0,-321.0,0.316,-0.177,0.152,0.92
822391,-2202.0,1576.0,2904.0,-639.0,1278.0,-371.0,0.317,-0.19,0.15,0.917
822403,-676.0,628.0,1962.0,-399.0,830.0,-845.0,0.322,-0.2,0.147,0.914
822425,1558.0,986.0,2680.0,-898.0,1017.0,-567.0,0.324,-0.212,0.142,0.911
822437,18.0,-4018.0,1190.0,-1008.0,1152.0,-620.0,0.326,-0.225,0.136,0.908
822459,-1858.0,-1824.0,1464.0,-308.0,952.0,-1056.0,0.333,-0.235,0.134,0.903
822471,-2696.0,-458.0,2626.0,-158.0,706.0,-774.0,0.339,-0.243,0.133,0.899
822493,-2660.0,-1862.0,2486.0,-383.0,588.0,111.0,0.337,-0.248,0.132,0.899
822505,-2652.0,-3306.0,1886.0,-149.0,379.0,857.0,0.329,-0.251,0.134,0.9
822527,-2868.0,-1666.0,1226.0,235.0,0.0,720.0,0.324,-0.249,0.138,0.902
822549,-2044.0,-1750.0,1582.0,436.0,-355.0,550.0,0.321,-0.244,0.142,0.904
822561,-1104.0,-1976.0,1922.0,658.0,-566.0,659.0,0.319,-0.236,0.147,0.906
822583,-1320.0,-1484.0,1838.0,923.0,-732.0,585.0,0.317,-0.226,0.154,0.908
822595,-1252.0,-432.0,1972.0,1020.0,-913.0,589.0,0.316,-0.214,0.162,0.91
822617,-996.0,528.0,2578.0,1093.0,-1124.0,570.0,0.316,-0.201,0.169,0.912
822629,-688.0,252.0,3182.0,985.0,-1396.0,634.0,0.315,-0.185,0.174,0.915
822651,-66.0,378.0,3988.0,1081.0,-1532.0,779.0,0.313,-0.167,0.181,0.917
822663,684.0,884.0,4668.0,1175.0,-1634.0,866.0,0.311,-0.148,0.187,0.92
822685,1062.0,1036.0,5304.0,1289.0,-1623.0,1078.0,0.306,-0.128,0.195,0.923
822707,224.0,1926.0,5240.0,1416.0,-1697.0,1095.0,0.302,-0.107,0.204,0.925
822719,1082.0,2648.0,5558.0,1436.0,-1853.0,1103.0,0.298,-0.085,0.212,0.927
822741,1342.0,2796.0,5796.0,1343.0,-1953.0,1287.0,0.292,-0.062,0.219,0.929
822753,1030.0,3804.0,6712.0,1316.0,-2017.0,1396.0,0.285,-0.037,0.226,0.931
822775,1006.0,3524.0,7038.0,1295.0,-2116.0,1452.0,0.278,-0.011,0.232,0.932
822787,1690.0,3324.0,6964.0,1373.0,-2191.0,1457.0,0.27,0.015,0.238,0.933
822809,2118.0,4394.0,6762.0,1449.0,-2281.0,1328.0,0.264,0.042,0.244,0.932
822821,2956.0,4550.0,7236.0,1450.0,-2336.0,1321.0,0.257,0.07,0.251,0.931
822843,2586.0,6262.0,7630.0,1458.0,-2293.0,1487.0,0.249,0.097,0.257,0.929
822865,3054.0,6512.0,7730.0,1168.0,-2329.0,1742.0,0.239,0.124,0.26,0.928
822877,4236.0,5568.0,7704.0,939.0,-2266.0,1995.0,0.226,0.15,0.26,0.927
822899,4790.0,5008.0,7890.0,942.0,-2180.0,1869.0,0.214,0.176,0.261,0.925
822911,3634.0,9552.0,7818.0,889.0,-2206.0,1394.0,0.206,0.2,0.262,0.921
822933,6022.0,6574.0,8152.0,1031.0,-2146.0,2012.0,0.193,0.226,0.263,0.918
822945,5158.0,7656.0,8490.0,623.0,-1978.0,2320.0,0.176,0.249,0.259,0.916
822967,5240.0,6282.0,8434.0,355.0,-2120.0,2191.0,0.162,0.273,0.253,0.914
822979,6456.0,6392.0,8148.0,411.0,-2149.0,2012.0,0.149,0.297,0.248,0.91
823001,6454.0,6636.0,7296.0,441.0,-2089.0,1874.0,0.137,0.32,0.244,0.905
823013,6364.0,6580.0,7690.0,434.0,-2068.0,1692.0,0.126,0.342,0.24,0.9
823035,6292.0,5784.0,7838.0,346.0,-2148.0,1550.0,0.117,0.364,0.235,0.894
823057,7132.0,4852.0,7608.0,423.0,-2004.0,1685.0,0.106,0.385,0.23,0.888
823069,6464.0,6256.0,6820.0,578.0,-1844.0,1634.0,0.095,0.404,0.227,0.881
823091,7440.0,6434.0,6692.0,388.0,-1854.0,1906.0,0.082,0.424,0.222,0.875
823103,7740.0,5810.0,6360.0,318.0,-1764.0,1686.0,0.07,0.442,0.216,0.868
823125,8246.0,5614.0,6262.0,269.0,-1601.0,2061.0,0.056,0.459,0.209,0.862
823137,7216.0,4622.0,6744.0,185.0,-1485.0,1862.0,0.043,0.474,0.201,0.856
823159,7006.0,4544.0,7124.0,213.0,-1545.0,1363.0,0.034,0.489,0.196,0.849
823171,7424.0,5942.0,6440.0,121.0,-1588.0,1256.0,0.027,0.504,0.191,0.842
823193,7342.0,4940.0,5968.0,-117.0,-1597.0,1374.0,0.019,0.519,0.183,0.835
823215,7342.0,3968.0,5614.0,-102.0,-1600.0,1174.0,0.013,0.534,0.176,0.827
823227,7510.0,2656.0,5802.0,114.0,-1513.0,1019.0,0.007,0.547,0.172,0.819
823249,7436.0,3694.0,5460.0,254.0,-1398.0,909.0,0.001,0.559,0.169,0.812
823261,7602.0,4176.0,5470.0,237.0,-1294.0,882.0,0.005,-0.57,-0.166,-0.804
823283,7790.0,3744.0,5146.0,117.0,-1169.0,788.0,0.01,-0.58,-0.163,-0.798
823295,7440.0,3524.0,4782.0,102.0,-1009.0,669.0,0.014,-0.589,-0.16,-0.792
823317,6846.0,2926.0,4866.0,54.0,-924.0,608.0,0.017,-0.596,-0.157,-0.787
823329,6814.0,3492.0,5430.0,47.0,-838.0,519.0,0.02,-0.603,-0.155,-0.782
823351,7328.0,3480.0,6392.0,-54.0,-741.0,413.0,0.022,-0.609,-0.153,-0.778
823363,8020.0,3542.0,6508.0,-35.0,-501.0,237.0,0.023,-0.613,-0.151,-0.775
823385,6916.0,2110.0,3632.0,-137.0,-401.0,161.0,0.022,-0.616,-0.149,-0.773
823407,5544.0,1768.0,2920.0,33.0,-416.0,86.0,0.023,-0.619,-0.149,-0.771
823419,6132.0,2892.0,4456.0,47.0,-478.0,-35.0,0.022,-0.622,-0.15,-0.768
823441,6852.0,4422.0,5692.0,34.0,-304.0,-51.0,0.022,-0.624,-0.151,-0.767
823453,6356.0,4550.0,4608.0,-187.0,-213.0,-96.0,0.02,-0.625,-0.15,-0.766
823475,6470.0,2492.0,4408.0,-334.0,-202.0,-180.0,0.016,-0.626,-0.149,-0.765
823487,6284.0,2280.0,4318.0,-196.0,-153.0,-376.0,0.012,-0.626,-0.15,-0.765
823509,5718.0,3806.0,3918.0,-451.0,-235.0,-415.0,0.006,-0.627,-0.15,-0.765
823521,5862.0,5080.0,4026.0,-1036.0,-352.0,-430.0,0.004,0.628,0.145,0.764
823543,7118.0,3468.0,5158.0,-1304.0,-271.0,-557.0,0.016,0.629,0.139,0.765
823565,7596.0,1750.0,5750.0,-1033.0,52.0,-660.0,0.026,0.628,0.136,0.766
823577,8260.0,3342.0,7150.0,-512.0,364.0,-805.0,0.034,0.624,0.137,0.769
823599,6248.0,3092.0,6386.0,-581.0,831.0,-638.0,0.041,0.617,0.137,0.774
823611,6916.0,3792.0,7972.0,-528.0,982.0,-646.0,0.047,0.609,0.138,0.78
823633,6088.0,5732.0,9162.0,-1084.0,963.0,-1389.0,0.062,0.599,0.138,0.786
823645,8970.0,5100.0,7824.0,-1019.0,1543.0,-873.0,0.071,0.586,0.137,0.795
823667,9088.0,3824.0,7128.0,-1189.0,1756.0,-750.0,0.081,0.571,0.134,0.806
823689,9792.0,4510.0,6570.0,-1306.0,2080.0,-361.0,0.087,0.554,0.127,0.818
823701,8378.0,3932.0,6748.0,-1254.0,2240.0,-595.0,0.095,0.535,0.123,0.83
823713,9388.0,5680.0,6724.0,-1298.0,2146.0,-1027.0,0.107,0.516,0.12,0.841
823736,9772.0,5356.0,7636.0,-1567.0,2227.0,-964.0,0.119,0.496,0.115,0.853
823758,10116.0,4034.0,7330.0,-1627.0,2355.0,-1124.0,0.132,0.474,0.11,0.864
823770,10126.0,4366.0,7620.0,-1580.0,2468.0,-1217.0,0.146,0.451,0.106,0.874
823792,9472.0,3318.0,7634.0,-1477.0,2482.0,-1775.0,0.164,0.426,0.105,0.883
823804,10278.0,6804.0,7974.0,-1565.0,2652.0,-1409.0,0.179,0.401,0.102,0.893
823826,9896.0,4106.0,8230.0,-1895.0,2798.0,-1092.0,0.192,0.373,0.095,0.903
823838,9776.0,3810.0,7936.0,-1670.0,3018.0,-1110.0,0.204,0.343,0.09,0.912
823860,8550.0,4688.0,7926.0,-1658.0,3066.0,-1275.0,0.217,0.313,0.086,0.921
823872,8302.0,2836.0,7884.0,-1537.0,2880.0,-1634.0,0.233,0.284,0.083,0.926
823894,8038.0,4128.0,9112.0,-1578.0,2956.0,-1418.0,0.247,0.254,0.08,0.932
823916,7262.0,2670.0,8408.0,-1384.0,2989.0,-1410.0,0.259,0.223,0.078,0.936
823928,7324.0,4132.0,7366.0,-1351.0,2958.0,-1379.0,0.272,0.193,0.076,0.94
823950,6706.0,4126.0,7358.0,-1425.0,2946.0,-1519.0,0.285,0.163,0.074,0.942
823962,6210.0,2284.0,8140.0,-1392.0,2951.0,-1624.0,0.299,0.132,0.072,0.942
823984,4926.0,3700.0,8364.0,-1171.0,3020.0,-1575.0,0.312,0.101,0.072,0.942
823996,5486.0,2106.0,7182.0,-1150.0,2988.0,-1592.0,0.325,0.07,0.072,0.94
824018,4072.0,3076.0,5802.0,-1185.0,3083.0,-1424.0,0.336,0.04,0.072,0.938
824030,2434.0,2610.0,5086.0,-1545.0,2841.0,-1157.0,0.344,0.009,0.068,0.936
824052,738.0,1660.0,4906.0,-1985.0,2354.0,-975.0,0.351,-0.018,0.058,0.934
824064,626.0,444.0,5078.0,-1892.0,1987.0,-857.0,0.357,-0.042,0.048,0.932
824086,-482.0,318.0,5634.0,-1699.0,1699.0,-909.0,0.364,-0.063,0.038,0.929
824108,-38.0,-40.0,6696.0,-1393.0,1527.0,-846.0,0.37,-0.081,0.031,0.925
824120,-638.0,654.0,5778.0,-1170.0,1364.0,-992.0,0.377,-0.097,0.025,0.921
824142,-582.0,-298.0,5638.0,-1047.0,1252.0,-893.0,0.384,-0.112,0.019,0.916
824154,-132.0,-408.0,4914.0,-937.0,1202.0,-861.0,0.39,-0.125,0.015,0.912
824181,284.0,-82.0,4592.0,-964.0,1187.0,-777.0,0.395,-0.139,0.01,0.908
824193,-210.0,-180.0,5466.0,-1061.0,1194.0,-414.0,0.398,-0.153,0.005,0.905
824205,-146.0,-408.0,4994.0,-996.0,1273.0,-101.0,0.397,-0.167,0.001,0.902
824227,-724.0,-900.0,3998.0,-1045.0,1221.0,28.0,0.396,-0.181,-0.003,0.9
824239,-404.0,-1058.0,3204.0,-1089.0,1119.0,-73.0,0.395,-0.195,-0.008,0.898
824261,92.0,-1250.0,2620.0,-938.0,1167.0,-44.0,0.394,-0.208,-0.012,0.895
824283,-612.0,-1226.0,2918.0,-765.0,1184.0,42.0,0.392,-0.22,-0.014,0.893
824295,-1938.0,-450.0,2406.0,-862.0,1032.0,43.0,0.391,-0.232,-0.017,0.891
824317,-1260.0,-1144.0,1238.0,-1149.0,814.0,268.0,0.386,-0.243,-0.023,0.89
824329,200.0,-2232.0,-824.0,-868.0,635.0,-82.0,0.385,-0.251,-0.028,0.887
824351,-406.0,-1068.0,-1224.0,-752.0,336.0,-281.0,0.386,-0.257,-0.033,0.885
824363,-920.0,-1868.0,312.0,-818.0,-158.0,-361.0,0.388,-0.258,-0.041,0.884
824385,-1176.0,-3082.0,2824.0,-654.0,-407.0,-80.0,0.387,-0.257,-0.048,0.884
824397,-666.0,-3194.0,3050.0,-312.0,-499.0,564.0,0.382,-0.254,-0.051,0.887
824419,-2284.0,-3040.0,2364.0,130.0,-510.0,1021.0,0.374,-0.25,-0.049,0.892
824441,-1134.0,-3116.0,2740.0,1086.0,-713.0,522.0,0.372,-0.24,-0.041,0.895
824453,-542.0,-1506.0,2852.0,1337.0,-952.0,447.0,0.372,-0.228,-0.032,0.899
824475,-222.0,-1634.0,2640.0,1651.0,-1075.0,504.0,0.371,-0.213,-0.021,0.904
824487,-466.0,-594.0,2194.0,1640.0,-1332.0,547.0,0.37,-0.196,-0.011,0.908
824509,-80.0,-378.0,3238.0,1466.0,-1699.0,598.0,0.368,-0.177,-0.003,0.913
824521,1242.0,-882.0,3474.0,1635.0,-1782.0,599.0,0.366,-0.156,0.006,0.917
824543,-104.0,1932.0,4070.0,1645.0,-2007.0,549.0,0.364,-0.133,0.014,0.922
824555,700.0,-62.0,6298.0,1489.0,-2420.0,470.0,0.363,-0.107,0.019,0.926
824577,1870.0,-848.0,6256.0,1725.0,-2367.0,572.0,0.36,-0.08,0.027,0.929
824589,1330.0,1522.0,6308.0,1908.0,-2395.0,554.0,0.358,-0.053,0.036,0.932
824611,1828.0,2026.0,6430.0,1942.0,-2525.0,414.0,0.356,-0.024,0.044,0.933
824633,3062.0,1962.0,8090.0,1982.0,-2548.0,581.0,0.353,0.005,0.053,0.934
824645,3002.0,372.0,8926.0,1965.0,-2349.0,941.0,0.346,0.033,0.063,0.936
824667,2878.0,2196.0,7732.0,2165.0,-2168.0,847.0,0.339,0.06,0.074,0.936
824679,3784.0,3108.0,6242.0,1973.0,-2239.0,723.0,0.333,0.087,0.084,0.935
824701,4488.0,3470.0,6702.0,1857.0,-2250.0,887.0,0.326,0.114,0.092,0.934
824713,3842.0,2492.0,8410.0,2056.0,-2160.0,1157.0,0.316,0.14,0.102,0.933
824735,2728.0,2376.0,9472.0,2222.0,-2256.0,1515.0,0.302,0.168,0.113,0.932
824747,3650.0,5136.0,9400.0,2139.0,-2515.0,1658.0,0.287,0.198,0.122,0.929
824769,5434.0,5336.0,8258.0,1546.0,-2936.0,1734.0,0.273,0.229,0.124,0.926
824791,4696.0,454.0,7242.0,1542.0,-3555.0,-138.0,0.275,0.264,0.128,0.916
824803,7980.0,4538.0,9206.0,2009.0,-3370.0,599.0,0.269,0.298,0.134,0.906
824825,7972.0,6326.0,8406.0,1555.0,-2652.0,1585.0,0.254,0.326,0.136,0.9
824837,6944.0,5336.0,7916.0,1233.0,-2831.0,1429.0,0.242,0.355,0.135,0.893
824859,8608.0,4460.0,8192.0,1314.0,-2977.0,924.0,0.234,0.384,0.136,0.883
824871,8888.0,6072.0,7660.0,1568.0,-2659.0,1127.0,0.222,0.41,0.139,0.873
824893,9726.0,5332.0,7382.0,1213.0,-2362.0,2301.0,0.202,0.435,0.135,0.867
824905,9014.0,4186.0,6846.0,1416.0,-2286.0,2328.0,0.18,0.459,0.133,0.86
824927,8876.0,4966.0,7640.0,1381.0,-2415.0,1751.0,0.164,0.483,0.132,0.85
824949,9738.0,5450.0,6742.0,1237.0,-2376.0,1598.0,0.148,0.505,0.131,0.84
824961,9780.0,5342.0,6880.0,1175.0,-2122.0,1768.0,0.131,0.525,0.129,0.831
824983,9714.0,4924.0,6288.0,1060.0,-2039.0,1487.0,0.117,0.544,0.127,0.821
824995,9674.0,4490.0,6334.0,954.0,-1896.0,1345.0,0.104,0.561,0.126,0.811
825017,9156.0,3682.0,6424.0,928.0,-1742.0,1335.0,0.091,0.577,0.124,0.802
825029,8658.0,3976.0,6216.0,897.0,-1728.0,1152.0,0.079,0.592,0.123,0.793
825051,9118.0,4518.0,6686.0,802.0,-1596.0,1075.0,0.068,0.605,0.122,0.784
825063,8552.0,4086.0,5728.0,650.0,-1405.0,1015.0,0.059,0.617,0.12,0.775
825085,8340.0,4282.0,4958.0,489.0,-1335.0,748.0,0.052,0.628,0.119,0.767
825097,8250.0,2900.0,4506.0,356.0,-1229.0,638.0,0.046,0.638,0.117,0.76
825119,7750.0,2714.0,4010.0,303.0,-1160.0,533.0,0.042,0.646,0.116,0.753
825141,7946.0,4180.0,4218.0,423.0,-887.0,922.0,0.033,0.654,0.113,0.747
825153,7146.0,2862.0,4062.0,330.0,-855.0,37.0,0.032,0.659,0.115,0.742
825175,8000.0,2826.0,4248.0,449.0,-793.0,207.0,0.028,0.665,0.117,0.737
825187,7240.0,2326.0,3558.0,592.0,-614.0,502.0,0.022,0.67,0.118,0.733
825209,6434.0,3026.0,3770.0,478.0,-653.0,222.0,0.018,0.674,0.12,0.729
825221,7254.0,2664.0,4248.0,502.0,-545.0,199.0,0.014,0.677,0.123,0.725
825243,6404.0,2972.0,3306.0,525.0,-424.0,207.0,0.01,0.68,0.125,0.723
825255,6324.0,3052.0,3338.0,463.0,-459.0,108.0,0.007,0.682,0.128,0.72
825277,7050.0,3278.0,4196.0,371.0,-372.0,33.0,0.005,0.684,0.13,0.717
825299,7126.0,3194.0,4382.0,359.0,-190.0,-83.0,0.003,0.685,0.134,0.716
825311,7056.0,2506.0,4288.0,340.0,-25.0,-238.0,0.003,0.684,0.138,0.716
825333,6880.0,3280.0,4100.0,284.0,157.0,-424.0,0.004,0.682,0.143,0.718
825345,7178.0,3412.0,4786.0,164.0,286.0,-566.0,0.006,0.679,0.148,0.719
825367,6994.0,3762.0,5110.0,99.0,516.0,-707.0,0.009,0.675,0.153,0.722
825379,7184.0,3154.0,5260.0,33.0,687.0,-742.0,0.012,0.669,0.158,0.726
825401,7414.0,3636.0,5552.0,-12.0,909.0,-829.0,0.016,0.661,0.164,0.732
825413,7260.0,4364.0,5812.0,-221.0,1097.0,-816.0,0.021,0.653,0.168,0.739
825435,7602.0,3560.0,6570.0,-500.0,1196.0,-832.0,0.028,0.643,0.17,0.746
825447,8062.0,3846.0,6092.0,-606.0,1331.0,-925.0,0.035,0.632,0.172,0.755
825470,8560.0,4406.0,5386.0,-683.0,1506.0,-952.0,0.043,0.619,0.174,0.765
825492,8742.0,5054.0,5428.0,-753.0,1696.0,-959.0,0.051,0.605,0.175,0.775
825504,9158.0,5046.0,6502.0,-889.0,1778.0,-1020.0,0.06,0.59,0.175,0.786
825526,10926.0,3876.0,10400.0,-867.0,2589.0,-623.0,0.065,0.569,0.174,0.801
825538,9162.0,4608.0,6514.0,-974.0,2472.0,-958.0,0.072,0.549,0.173,0.815
825560,9940.0,6978.0,6012.0,-1115.0,2437.0,-1202.0,0.083,0.527,0.173,0.828
825572,10220.0,4950.0,5954.0,-1286.0,2571.0,-1176.0,0.093,0.504,0.171,0.841
825594,10080.0,5680.0,6270.0,-1172.0,2731.0,-1277.0,0.104,0.479,0.17,0.855
825606,10386.0,5568.0,6936.0,-1005.0,2850.0,-1411.0,0.115,0.453,0.172,0.867
825628,10476.0,6368.0,7328.0,-739.0,3004.0,-1595.0,0.125,0.425,0.176,0.879
825650,10494.0,7478.0,7216.0,-819.0,3055.0,-1626.0,0.136,0.396,0.179,0.89
825662,9950.0,7274.0,7262.0,-968.0,2958.0,-1983.0,0.151,0.367,0.182,0.9
825684,10940.0,6742.0,7306.0,-1062.0,2797.0,-2344.0,0.169,0.338,0.185,0.907
825696,10608.0,6958.0,6858.0,-1209.0,3273.0,-1599.0,0.18,0.305,0.185,0.917
825718,9268.0,7684.0,6602.0,-1041.0,3349.0,-1776.0,0.192,0.272,0.187,0.924
825730,8168.0,5314.0,7210.0,-1204.0,3235.0,-2016.0,0.206,0.238,0.188,0.93
825752,6814.0,4228.0,8520.0,-1045.0,3324.0,-2020.0,0.22,0.203,0.189,0.935
825764,4646.0,5006.0,7540.0,-911.0,3295.0,-1994.0,0.233,0.169,0.192,0.938
825786,3470.0,4342.0,6520.0,-1053.0,2975.0,-1951.0,0.246,0.138,0.192,0.94
825798,3336.0,4006.0,6202.0,-957.0,2698.0,-1997.0,0.259,0.109,0.192,0.94
825820,3130.0,2540.0,6862.0,-752.0,2531.0,-2054.0,0.273,0.082,0.194,0.939
825842,2540.0,4724.0,6944.0,-445.0,2544.0,-2013.0,0.286,0.055,0.198,0.936
825854,2832.0,4244.0,6728.0,-515.0,2358.0,-2225.0,0.301,0.03,0.201,0.932
825876,2884.0,3158.0,6356.0,-637.0,2368.0,-1515.0,0.31,0.006,0.202,0.929
825888,2922.0,3384.0,5792.0,-732.0,2318.0,-1104.0,0.315,-0.018,0.202,0.927
825910,2002.0,2402.0,5148.0,-789.0,2219.0,-1283.0,0.322,-0.042,0.202,0.924
825922,1334.0,3238.0,5276.0,-606.0,2182.0,-1230.0,0.328,-0.065,0.203,0.92
825944,394.0,2746.0,5416.0,-550.0,2072.0,-1363.0,0.336,-0.087,0.203,0.916
825956,252.0,2398.0,4366.0,-567.0,1932.0,-1430.0,0.344,-0.108,0.203,0.91
825978,368.0,1440.0,4412.0,-562.0,1851.0,-1308.0,0.351,-0.127,0.203,0.905
825990,-630.0,1156.0,4436.0,-673.0,1692.0,-1270.0,0.358,-0.146,0.201,0.9
826013,-1646.0,1436.0,4254.0,-519.0,1576.0,-1001.0,0.363,-0.163,0.201,0.895
826025,-1544.0,2294.0,3148.0,-641.0,1219.0,-1070.0,0.368,-0.177,0.198,0.891
826048,350.0,1208.0,3066.0,-873.0,1068.0,-739.0,0.371,-0.19,0.193,0.888
826070,84.0,-612.0,2714.0,-948.0,1055.0,-646.0,0.373,-0.203,0.188,0.885
826082,-616.0,-284.0,2258.0,-740.0,1129.0,-478.0,0.374,-0.216,0.185,0.883
826104,-1042.0,-54.0,1986.0,-708.0,994.0,-479.0,0.376,-0.227,0.182,0.88
826116,-1764.0,784.0,1654.0,-750.0,775.0,-756.0,0.379,-0.237,0.177,0.877
826138,-878.0,418.0,1918.0,-865.0,639.0,-710.0,0.382,-0.246,0.171,0.874
826150,-230.0,-1656.0,2088.0,-1070.0,734.0,-71.0,0.38,-0.256,0.164,0.874
826172,-1464.0,-2364.0,1298.0,-746.0,816.0,-77.0,0.378,-0.265,0.161,0.872
826189,-2878.0,16.0,1446.0,-360.0,673.0,-239.0,0.378,-0.272,0.16,0.87
826211,-2540.0,-872.0,2032.0,-463.0,292.0,-275.0,0.379,-0.277,0.157,0.869
826223,-2000.0,-3028.0,1876.0,-452.0,42.0,71.0,0.378,-0.278,0.154,0.87
826245,-2854.0,-4384.0,1836.0,-37.0,-148.0,153.0,0.377,-0.277,0.153,0.87
826257,-2586.0,-1424.0,2190.0,416.0,-412.0,288.0,0.377,-0.271,0.156,0.872
826279,-2570.0,-1684.0,1572.0,499.0,-828.0,230.0,0.378,-0.262,0.158,0.874
826291,-2824.0,506.0,2444.0,515.0,-1178.0,381.0,0.378,-0.25,0.159,0.877
826313,-2224.0,-786.0,3402.0,477.0,-1532.0,420.0,0.379,-0.235,0.159,0.881
826325,-1308.0,-3078.0,3178.0,747.0,-1613.0,551.0,0.379,-0.218,0.161,0.885
826347,-1836.0,-388.0,2986.0,1075.0,-1635.0,719.0,0.378,-0.2,0.165,0.889
826359,-2240.0,1334.0,3378.0,957.0,-1889.0,966.0,0.375,-0.179,0.168,0.894
826381,-950.0,448.0,4804.0,812.0,-2126.0,1087.0,0.371,-0.157,0.17,0.899
826403,214.0,32.0,5236.0,933.0,-2086.0,1280.0,0.365,-0.134,0.172,0.905
826415,276.0,1836.0,5338.0,1044.0,-2040.0,1502.0,0.358,-0.11,0.176,0.911
826437,340.0,2902.0,5872.0,1072.0,-2159.0,1585.0,0.349,-0.085,0.179,0.916
826449,1392.0,2044.0,6876.0,1005.0,-2348.0,1651.0,0.34,-0.059,0.181,0.921
826471,2088.0,2156.0,7346.0,1055.0,-2371.0,1961.0,0.328,-0.031,0.184,0.926
826483,1696.0,2892.0,6454.0,1287.0,-2521.0,1678.0,0.319,-0.002,0.188,0.929
826505,2752.0,4600.0,7154.0,1500.0,-2628.0,1450.0,0.311,0.028,0.193,0.93
826517,2918.0,4034.0,7906.0,1391.0,-2646.0,1606.0,0.301,0.058,0.197,0.931
826539,3428.0,4626.0,7942.0,1715.0,-2494.0,1758.0,0.29,0.088,0.203,0.931
826561,3596.0,4732.0,8050.0,1805.0,-2495.0,1661.0,0.279,0.118,0.211,0.929
826573,4496.0,5750.0,7558.0,1796.0,-2431.0,1605.0,0.268,0.147,0.218,0.927
826595,5292.0,5568.0,7872.0,1657.0,-2328.0,1731.0,0.256,0.175,0.224,0.924
826607,5326.0,5752.0,7482.0,1677.0,-2172.0,1818.0,0.242,0.201,0.23,0.921
826629,4160.0,3360.0,7808.0,1976.0,-2244.0,1148.0,0.233,0.228,0.24,0.914
826641,6580.0,7026.0,8070.0,1526.0,-1889.0,2450.0,0.214,0.253,0.243,0.912
826663,5892.0,5276.0,7720.0,1525.0,-1687.0,2638.0,0.192,0.276,0.246,0.909
826675,5390.0,7448.0,7422.0,1653.0,-1772.0,2296.0,0.172,0.299,0.251,0.904
826697,5798.0,7054.0,7652.0,1497.0,-1839.0,2167.0,0.154,0.322,0.255,0.899
826719,6500.0,6346.0,7086.0,1503.0,-1798.0,2125.0,0.136,0.344,0.258,0.892
826731,7288.0,6392.0,6930.0,1528.0,-1703.0,2268.0,0.116,0.366,0.261,0.886
826753,7566.0,7292.0,7064.0,1331.0,-1587.0,2828.0,0.093,0.387,0.26,0.88
826765,7510.0,6976.0,7340.0,1021.0,-1555.0,3288.0,0.066,0.409,0.255,0.874
826787,7034.0,7196.0,6938.0,968.0,-1508.0,2826.0,0.043,0.428,0.251,0.867
826799,7006.0,6700.0,7062.0,658.0,-1643.0,2052.0,0.027,0.447,0.248,0.859
826821,8324.0,6868.0,6756.0,470.0,-1539.0,1831.0,0.014,0.463,0.243,0.852
826833,7732.0,5382.0,6382.0,433.0,-1397.0,1802.0,0.001,0.478,0.239,0.845
826855,7920.0,4990.0,5728.0,636.0,-1356.0,1644.0,0.012,-0.493,-0.236,-0.837
826867,7996.0,5426.0,5808.0,807.0,-1301.0,1547.0,0.025,-0.506,-0.236,-0.829
826889,7646.0,4876.0,6402.0,914.0,-1194.0,1561.0,0.039,-0.519,-0.236,-0.821
826911,7672.0,5544.0,5628.0,939.0,-1120.0,1396.0,0.051,-0.53,-0.237,-0.813
826923,7296.0,5230.0,5568.0,796.0,-1074.0,1334.0,0.063,-0.541,-0.237,-0.805
826945,7028.0,5324.0,5324.0,565.0,-1107.0,1140.0,0.072,-0.551,-0.236,-0.797
826957,7254.0,4992.0,5484.0,454.0,-1073.0,1076.0,0.08,-0.561,-0.234,-0.79
826979,8296.0,5156.0,4762.0,474.0,-965.0,1047.0,0.089,-0.57,-0.233,-0.783
826991,7232.0,6390.0,4770.0,404.0,-651.0,962.0,0.097,-0.576,-0.232,-0.778
827013,6932.0,3896.0,4744.0,99.0,-765.0,406.0,0.099,-0.583,-0.231,-0.773
827025,7806.0,4500.0,5066.0,176.0,-594.0,664.0,0.103,-0.588,-0.229,-0.769
827047,6564.0,4410.0,5140.0,167.0,-446.0,637.0,0.108,-0.593,-0.228,-0.765
827069,6342.0,4654.0,4924.0,78.0,-414.0,300.0,0.11,-0.596,-0.227,-0.762
827081,6584.0,4410.0,4772.0,34.0,-351.0,196.0,0.111,-0.599,-0.227,-0.76
827103,6210.0,4352.0,4836.0,40.0,-241.0,96.0,0.111,-0.6,-0.227,-0.759
827115,6174.0,4708.0,4756.0,12.0,-125.0,-94.0,0.111,-0.601,-0.228,-0.758
827137,5966.0,4466.0,5010.0,-132.0,-37.0,-266.0,0.108,-0.6,-0.229,-0.759
827149,5958.0,4496.0,5112.0,-172.0,91.0,-517.0,0.104,-0.598,-0.231,-0.76
827171,6412.0,4050.0,4790.0,-156.0,277.0,-694.0,0.098,-0.594,-0.234,-0.763
827183,6478.0,4416.0,4738.0,49.0,554.0,-847.0,0.094,-0.588,-0.238,-0.767
827205,6592.0,5360.0,4774.0,12.0,740.0,-929.0,0.089,-0.581,-0.243,-0.772
827217,7052.0,5102.0,6346.0,-37.0,982.0,-898.0,0.085,-0.572,-0.247,-0.778
827239,6716.0,4082.0,6698.0,143.0,1411.0,-819.0,0.084,-0.559,-0.252,-0.785
827261,6584.0,5988.0,5856.0,292.0,1602.0,-913.0,0.083,-0.545,-0.257,-0.794
827273,6080.0,7064.0,5116.0,-345.0,1697.0,-1048.0,0.077,-0.53,-0.259,-0.804
827295,7310.0,6486.0,5640.0,-805.0,1324.0,-1179.0,0.068,-0.518,-0.258,-0.813
827307,8232.0,4964.0,6312.0,-1087.0,1217.0,-1332.0,0.056,-0.506,-0.256,-0.822
827329,9132.0,5988.0,6320.0,-1112.0,1436.0,-1240.0,0.045,-0.493,-0.252,-0.832
827341,8668.0,5998.0,6492.0,-976.0,1558.0,-1656.0,0.032,-0.477,-0.252,-0.842
827363,10014.0,7394.0,6362.0,-879.0,1691.0,-1934.0,0.017,-0.459,-0.253,-0.851
827375,10278.0,7464.0,6638.0,-1066.0,1869.0,-1915.0,0.002,-0.44,-0.253,-0.862
827397,10216.0,6688.0,7198.0,-1170.0,1984.0,-2067.0,0.014,0.419,0.252,0.872
827419,10858.0,5604.0,8168.0,-1033.0,2194.0,-2143.0,0.03,0.395,0.252,0.883
827431,9688.0,6942.0,8428.0,-897.0,2316.0,-2244.0,0.046,0.371,0.254,0.892
827453,9378.0,5698.0,7102.0,-488.0,2378.0,-2853.0,0.066,0.344,0.26,0.9
827465,10040.0,9460.0,7508.0,-802.0,2464.0,-2461.0,0.083,0.316,0.263,0.908
827487,8986.0,4972.0,7848.0,-1035.0,2491.0,-2427.0,0.1,0.288,0.263,0.915
827499,8228.0,6846.0,7154.0,-886.0,2695.0,-2417.0,0.116,0.258,0.265,0.922
827521,7068.0,6544.0,7456.0,-921.0,2567.0,-2570.0,0.134,0.229,0.266,0.927
827533,6730.0,5420.0,7666.0,-979.0,2430.0,-2673.0,0.152,0.2,0.266,0.931
827555,6508.0,5370.0,6670.0,-924.0,2443.0,-2446.0,0.169,0.171,0.266,0.934
827577,5416.0,5874.0,6100.0,-984.0,2391.0,-2371.0,0.185,0.143,0.264,0.936
827589,4310.0,6148.0,6692.0,-1076.0,2233.0,-2306.0,0.201,0.116,0.262,0.937
827611,5170.0,5260.0,7080.0,-1274.0,2128.0,-2074.0,0.215,0.09,0.257,0.938
827623,4194.0,4148.0,6994.0,-1129.0,2305.0,-1928.0,0.227,0.063,0.253,0.938
827645,3042.0,4322.0,6550.0,-928.0,2312.0,-1821.0,0.238,0.037,0.251,0.938
827657,1890.0,4190.0,6332.0,-799.0,2176.0,-1702.0,0.247,0.013,0.249,0.936
827679,1756.0,3260.0,6718.0,-699.0,1934.0,-1663.0,0.257,-0.009,0.247,0.934
827691,2232.0,2966.0,5650.0,-570.0,1888.0,-1573.0,0.267,-0.03,0.247,0.931
827713,1214.0,3196.0,4680.0,-506.0,1840.0,-1677.0,0.277,-0.051,0.246,0.927
827735,378.0,4492.0,4800.0,-509.0,1660.0,-1627.0,0.287,-0.07,0.245,0.923
827747,192.0,3452.0,4948.0,-799.0,1379.0,-1568.0,0.296,-0.088,0.241,0.92
827769,730.0,1528.0,4964.0,-929.0,1454.0,-1289.0,0.303,-0.106,0.236,0.917
827781,616.0,1232.0,4788.0,-596.0,1534.0,-1403.0,0.311,-0.123,0.234,0.913
827803,-64.0,1972.0,3758.0,-606.0,1483.0,-1369.0,0.319,-0.141,0.231,0.908
827815,-244.0,2258.0,3282.0,-670.0,1404.0,-1445.0,0.328,-0.158,0.228,0.903
827837,-308.0,2116.0,2814.0,-660.0,1294.0,-1586.0,0.337,-0.174,0.224,0.898
827849,-272.0,792.0,3002.0,-723.0,1209.0,-1583.0,0.347,-0.189,0.219,0.892
827871,-2.0,116.0,2410.0,-1009.0,1209.0,-1208.0,0.353,-0.205,0.213,0.888
827883,-432.0,-242.0,2290.0,-1120.0,1229.0,-831.0,0.355,-0.22,0.206,0.885
827905,-1280.0,-694.0,1762.0,-1062.0,1114.0,-847.0,0.358,-0.235,0.199,0.882
827917,-1464.0,-414.0,1394.0,-1161.0,961.0,-469.0,0.357,-0.247,0.192,0.88
827939,-1446.0,-2484.0,1424.0,-1032.0,772.0,-415.0,0.357,-0.258,0.185,0.879
827961,-1498.0,-2548.0,1268.0,-691.0,765.0,-44.0,0.354,-0.266,0.182,0.878
827973,-1644.0,-2470.0,826.0,-254.0,540.0,-96.0,0.354,-0.271,0.181,0.877
827995,-2760.0,-500.0,520.0,-31.0,182.0,-553.0,0.358,-0.274,0.18,0.874
828007,-2012.0,-1654.0,1056.0,142.0,-168.0,-513.0,0.363,-0.273,0.179,0.873
828029,-2062.0,-2602.0,1668.0,146.0,-375.0,-109.0,0.365,-0.269,0.179,0.873
828041,-2130.0,-3036.0,1744.0,448.0,-492.0,222.0,0.366,-0.263,0.182,0.874
828063,-2160.0,-1744.0,1740.0,868.0,-630.0,432.0,0.366,-0.254,0.188,0.875
828075,-2406.0,-1014.0,1428.0,1027.0,-907.0,573.0,0.365,-0.242,0.195,0.878
828097,-1936.0,-490.0,1724.0,1079.0,-1163.0,736.0,0.364,-0.227,0.201,0.881
828119,-1494.0,-752.0,2570.0,1183.0,-1398.0,864.0,0.362,-0.21,0.208,0.884
828131,-1028.0,-684.0,3200.0,1370.0,-1556.0,984.0,0.36,-0.19,0.216,0.887
828153,-800.0,352.0,3368.0,1570.0,-1658.0,1060.0,0.358,-0.169,0.225,0.89
828165,-582.0,1086.0,3640.0,1645.0,-1811.0,1129.0,0.355,-0.146,0.235,0.893
828192,-388.0,2588.0,4124.0,1683.0,-1981.0,1131.0,0.352,-0.121,0.244,0.895
828204,-104.0,2892.0,4876.0,1639.0,-2204.0,1048.0,0.351,-0.095,0.251,0.897
828216,1516.0,3534.0,6110.0,1112.0,-2161.0,1716.0,0.343,-0.069,0.255,0.902
828238,1326.0,2290.0,6200.0,1343.0,-2114.0,1679.0,0.334,-0.043,0.26,0.905
828250,1964.0,6332.0,5898.0,1391.0,-2147.0,1633.0,0.326,-0.015,0.266,0.907
828272,2658.0,5632.0,7140.0,904.0,-2256.0,1766.0,0.317,0.011,0.267,0.91
828294,3354.0,2256.0,7884.0,1014.0,-2160.0,1821.0,0.307,0.038,0.268,0.912
828306,3390.0,4802.0,7008.0,1705.0,-1736.0,1945.0,0.294,0.063,0.277,0.912
828328,2686.0,7792.0,6688.0,1432.0,-1736.0,2252.0,0.279,0.087,0.283,0.913
828340,2852.0,8034.0,8478.0,946.0,-1889.0,2645.0,0.261,0.113,0.284,0.916
828362,4474.0,4374.0,8998.0,723.0,-2010.0,2913.0,0.241,0.14,0.282,0.918
828374,4108.0,4174.0,8574.0,1235.0,-1898.0,2941.0,0.219,0.167,0.284,0.918
828396,4602.0,7962.0,8624.0,1285.0,-1926.0,3119.0,0.196,0.194,0.286,0.918
828408,3510.0,6650.0,6454.0,1075.0,-2233.0,2411.0,0.179,0.222,0.287,0.915
828430,5894.0,7202.0,8198.0,1146.0,-2106.0,3131.0,0.156,0.25,0.286,0.912
828452,6726.0,7970.0,7894.0,642.0,-2216.0,2884.0,0.136,0.277,0.281,0.909
828464,6098.0,5554.0,7734.0,910.0,-2237.0,1787.0,0.124,0.302,0.281,0.902
828486,7686.0,6624.0,7478.0,722.0,-2242.0,2019.0,0.111,0.327,0.279,0.896
828498,7674.0,6696.0,7036.0,680.0,-2023.0,2237.0,0.096,0.351,0.276,0.89
828520,7274.0,5980.0,6928.0,699.0,-1903.0,2286.0,0.08,0.373,0.272,0.884
828532,8376.0,5430.0,6936.0,895.0,-1711.0,2598.0,0.06,0.394,0.269,0.877
828554,8364.0,7422.0,6142.0,1056.0,-1486.0,2701.0,0.037,0.414,0.267,0.87
828566,7504.0,6164.0,5382.0,740.0,-1560.0,2900.0,0.015,0.434,0.261,0.862
828588,6330.0,6462.0,6240.0,529.0,-1656.0,2349.0,0.002,-0.453,-0.255,-0.854
828600,7698.0,6212.0,6586.0,272.0,-1780.0,1904.0,0.014,-0.471,-0.249,-0.846
828622,8076.0,5302.0,6328.0,196.0,-1674.0,1755.0,0.025,-0.488,-0.243,-0.838
828644,8826.0,4648.0,5936.0,230.0,-1659.0,1489.0,0.034,-0.505,-0.239,-0.829
828656,8520.0,3772.0,5098.0,344.0,-1549.0,1563.0,0.045,-0.52,-0.234,-0.82
828678,7874.0,4014.0,5678.0,403.0,-1505.0,1641.0,0.056,-0.535,-0.23,-0.811
828690,8026.0,4892.0,5736.0,698.0,-1384.0,1592.0,0.069,-0.548,-0.228,-0.802
828712,8034.0,5906.0,4780.0,699.0,-1300.0,1482.0,0.081,-0.56,-0.227,-0.792
828724,8500.0,4408.0,3776.0,447.0,-1339.0,1404.0,0.091,-0.573,-0.224,-0.783
828746,8156.0,2928.0,3636.0,528.0,-1261.0,1253.0,0.1,-0.584,-0.222,-0.774
828758,7920.0,3570.0,4310.0,705.0,-1130.0,1161.0,0.111,-0.594,-0.222,-0.765
828780,9466.0,4662.0,4802.0,722.0,-1126.0,1466.0,0.123,-0.604,-0.221,-0.756
828802,7618.0,5462.0,4370.0,1012.0,-741.0,1050.0,0.135,-0.61,-0.223,-0.748
828814,7314.0,4392.0,3688.0,490.0,-940.0,457.0,0.139,-0.617,-0.225,-0.741
828836,8180.0,4176.0,2740.0,198.0,-882.0,740.0,0.144,-0.625,-0.224,-0.734
828848,7208.0,3336.0,2890.0,-7.0,-858.0,727.0,0.147,-0.631,-0.221,-0.729
828870,7282.0,3518.0,3742.0,-56.0,-844.0,456.0,0.148,-0.637,-0.22,-0.724
828882,7696.0,3490.0,4190.0,118.0,-686.0,375.0,0.15,-0.643,-0.219,-0.719
828904,7404.0,3808.0,3998.0,106.0,-568.0,359.0,0.152,-0.647,-0.219,-0.714
828926,7240.0,3844.0,3792.0,99.0,-417.0,152.0,0.153,-0.65,-0.219,-0.711
828938,6950.0,3356.0,3550.0,-41.0,-350.0,-61.0,0.152,-0.652,-0.22,-0.71
828960,7074.0,3634.0,3906.0,103.0,-179.0,-339.0,0.15,-0.651,-0.224,-0.71
828972,7196.0,5164.0,4284.0,26.0,-38.0,-580.0,0.146,-0.65,-0.228,-0.71
828994,7396.0,3942.0,4340.0,-156.0,126.0,-656.0,0.141,-0.648,-0.231,-0.712
829006,7414.0,3304.0,5094.0,-4.0,438.0,-837.0,0.137,-0.643,-0.236,-0.715
829028,7364.0,3576.0,6408.0,289.0,887.0,-1006.0,0.134,-0.635,-0.243,-0.721
829040,7076.0,4454.0,4484.0,725.0,1392.0,-1143.0,0.135,-0.622,-0.253,-0.729
829062,6486.0,7302.0,2788.0,516.0,1453.0,-1373.0,0.132,-0.608,-0.263,-0.738
829074,7798.0,7648.0,3730.0,-75.0,1282.0,-1575.0,0.124,-0.595,-0.27,-0.747
829096,9380.0,5504.0,4492.0,-457.0,1359.0,-1803.0,0.113,-0.581,-0.275,-0.757
829108,9612.0,5794.0,5124.0,-467.0,1579.0,-2073.0,0.1,-0.565,-0.282,-0.769
829130,10032.0,5706.0,7370.0,-625.0,1745.0,-2337.0,0.085,-0.547,-0.288,-0.782
829152,9496.0,7304.0,4700.0,-838.0,1929.0,-2526.0,0.068,-0.526,-0.294,-0.795
829164,9058.0,9068.0,4938.0,-1097.0,1886.0,-2687.0,0.048,-0.505,-0.297,-0.809
829186,10702.0,8408.0,6436.0,-1314.0,1848.0,-2940.0,0.025,-0.483,-0.301,-0.822
829198,11702.0,7298.0,6736.0,-1296.0,2154.0,-2982.0,0.003,-0.458,-0.304,-0.835
829220,11098.0,8532.0,6268.0,-1306.0,2410.0,-3066.0,0.019,0.43,0.307,0.849
829232,11046.0,8508.0,7198.0,-1608.0,2502.0,-3126.0,0.043,0.401,0.307,0.862
829254,11312.0,6296.0,6242.0,-1513.0,2674.0,-3015.0,0.064,0.37,0.307,0.875
829266,10068.0,8892.0,5586.0,-1325.0,2824.0,-3025.0,0.085,0.337,0.308,0.886
829288,9018.0,7772.0,6466.0,-1503.0,2481.0,-3455.0,0.111,0.305,0.308,0.894
829310,10376.0,7914.0,8066.0,-1621.0,2945.0,-2442.0,0.127,0.272,0.305,0.904
829322,7996.0,6520.0,7482.0,-1157.0,3335.0,-2069.0,0.138,0.236,0.304,0.913
829344,6526.0,10206.0,6172.0,-1501.0,2836.0,-3064.0,0.158,0.201,0.301,0.919
829356,7792.0,6494.0,7542.0,-2105.0,2467.0,-2745.0,0.178,0.169,0.292,0.924
829378,6972.0,3538.0,6932.0,-1679.0,2759.0,-2478.0,0.195,0.136,0.286,0.929
829390,5016.0,5632.0,6584.0,-1182.0,2839.0,-2375.0,0.209,0.102,0.283,0.93
829412,4086.0,6484.0,6396.0,-1191.0,2636.0,-2155.0,0.221,0.071,0.28,0.931
829434,3376.0,5294.0,6530.0,-1280.0,2421.0,-1944.0,0.232,0.043,0.275,0.932
829446,3116.0,3954.0,5582.0,-1169.0,2292.0,-1855.0,0.242,0.016,0.271,0.932
829468,2450.0,3698.0,5638.0,-1038.0,2145.0,-1825.0,0.253,-0.009,0.267,0.93
829480,1892.0,3218.0,5274.0,-875.0,2049.0,-1783.0,0.263,-0.033,0.264,0.927
829502,1634.0,2568.0,5020.0,-641.0,1932.0,-1722.0,0.273,-0.056,0.262,0.924
829514,1514.0,3266.0,3224.0,-357.0,1952.0,-1715.0,0.283,-0.078,0.263,0.919
829536,1834.0,3006.0,3938.0,-1139.0,1489.0,-1826.0,0.294,-0.098,0.256,0.916
829548,1202.0,1502.0,3794.0,-1059.0,1607.0,-1680.0,0.303,-0.118,0.25,0.912
829570,1214.0,1322.0,3070.0,-948.0,1552.0,-1685.0,0.313,-0.138,0.244,0.908
829582,44.0,842.0,2344.0,-1162.0,1512.0,-1534.0,0.321,-0.157,0.237,0.903
829604,48.0,760.0,2434.0,-1146.0,1356.0,-1444.0,0.328,-0.175,0.229,0.899
829616,454.0,1112.0,1810.0,-964.0,1379.0,-1546.0,0.337,-0.193,0.222,0.894
829638,-2.0,534.0,1494.0,-842.0,1269.0,-1608.0,0.346,-0.209,0.216,0.889
829660,-376.0,1752.0,1012.0,-986.0,1162.0,-1480.0,0.354,-0.225,0.209,0.883
829672,-888.0,-906.0,666.0,-1336.0,960.0,-1240.0,0.36,-0.24,0.199,0.88
829694,-1056.0,-2242.0,1114.0,-1124.0,741.0,-1265.0,0.367,-0.252,0.189,0.876
829706,-930.0,-1380.0,1016.0,-1218.0,453.0,-1208.0,0.373,-0.262,0.178,0.872
829728,-924.0,-1890.0,1506.0,-1011.0,363.0,-1192.0,0.38,-0.27,0.168,0.869
829740,-1696.0,-1800.0,2348.0,-327.0,329.0,-1341.0,0.389,-0.276,0.163,0.864
829762,-286.0,1406.0,2506.0,-130.0,362.0,-567.0,0.393,-0.28,0.162,0.861
829774,-1966.0,-4066.0,816.0,240.0,160.0,-448.0,0.397,-0.281,0.164,0.858
829796,-1252.0,-1776.0,1700.0,503.0,72.0,-268.0,0.401,-0.28,0.167,0.856
829818,-2072.0,-2950.0,2370.0,738.0,-11.0,136.0,0.402,-0.277,0.174,0.855
829830,-2344.0,-2780.0,2268.0,1118.0,-240.0,371.0,0.403,-0.27,0.183,0.855
829852,-2460.0,-2544.0,2602.0,1466.0,-458.0,662.0,0.402,-0.259,0.194,0.856
829864,-2678.0,-1802.0,2356.0,1830.0,-790.0,645.0,0.404,-0.245,0.208,0.857
829886,-2244.0,-532.0,2526.0,2038.0,-1008.0,858.0,0.404,-0.227,0.222,0.858
829898,-1780.0,116.0,2956.0,2145.0,-1247.0,1170.0,0.402,-0.206,0.237,0.86
829920,-1824.0,1492.0,3170.0,2021.0,-1416.0,1529.0,0.397,-0.184,0.251,0.864
829932,-1086.0,2066.0,3594.0,1894.0,-1629.0,1695.0,0.39,-0.159,0.263,0.868
829954,-678.0,2346.0,3950.0,1633.0,-1767.0,1774.0,0.383,-0.134,0.272,0.872
829976,-1724.0,2110.0,4590.0,1550.0,-1868.0,1917.0,0.374,-0.109,0.281,0.877
829988,-1026.0,4136.0,5370.0,1562.0,-1987.0,1992.0,0.365,-0.081,0.289,0.881
830010,428.0,3908.0,5812.0,1367.0,-2088.0,2145.0,0.354,-0.054,0.294,0.886
830022,1226.0,4222.0,5862.0,1317.0,-2085.0,2159.0,0.343,-0.026,0.299,0.89
830044,1512.0,5788.0,6504.0,1291.0,-2145.0,2015.0,0.333,0.003,0.303,0.893
830056,1876.0,7186.0,7160.0,1103.0,-2267.0,1983.0,0.323,0.031,0.305,0.895
830078,1950.0,4652.0,5728.0,551.0,-2395.0,2178.0,0.311,0.059,0.302,0.899
830090,2074.0,4094.0,7330.0,896.0,-2329.0,2043.0,0.3,0.088,0.301,0.901
830112,3308.0,7084.0,7532.0,951.0,-2095.0,2365.0,0.286,0.115,0.301,0.903
830134,3398.0,7756.0,7262.0,834.0,-2046.0,2648.0,0.268,0.142,0.299,0.905
830146,3946.0,6916.0,7242.0,590.0,-2111.0,2743.0,0.251,0.169,0.295,0.906
830168,4302.0,5162.0,7534.0,550.0,-2166.0,2747.0,0.233,0.196,0.29,0.907
830180,4994.0,5222.0,7986.0,1039.0,-2402.0,1974.0,0.221,0.224,0.29,0.904
830197,7310.0,8294.0,7986.0,486.0,-1999.0,3433.0,0.196,0.251,0.283,0.905
830219,4324.0,3144.0,8536.0,867.0,-2037.0,2413.0,0.179,0.276,0.28,0.902
830231,6520.0,7904.0,7738.0,1153.0,-2220.0,1726.0,0.168,0.302,0.282,0.895
830253,7888.0,8138.0,6824.0,685.0,-2033.0,2461.0,0.15,0.326,0.277,0.891
830265,7068.0,5862.0,6526.0,312.0,-1906.0,3340.0,0.127,0.351,0.267,0.889
830287,6990.0,4956.0,6402.0,584.0,-1970.0,2971.0,0.105,0.375,0.259,0.884
830309,7908.0,5604.0,6948.0,672.0,-2060.0,2341.0,0.088,0.398,0.254,0.877
830321,8592.0,6700.0,7060.0,675.0,-1812.0,3045.0,0.065,0.421,0.247,0.87
830343,7798.0,6308.0,6834.0,398.0,-1821.0,2878.0,0.045,0.442,0.237,0.864
830355,7860.0,5768.0,6500.0,87.0,-2010.0,2181.0,0.031,0.463,0.228,0.856
830377,7926.0,4564.0,6890.0,-142.0,-1954.0,1975.0,0.02,0.483,0.218,0.848
830389,7686.0,3914.0,6530.0,-23.0,-1911.0,1815.0,0.01,0.502,0.209,0.839
830411,8252.0,4908.0,5690.0,304.0,-1870.0,1824.0,0.002,-0.52,-0.203,-0.83
830423,8502.0,4424.0,5328.0,200.0,-1900.0,1780.0,0.013,-0.538,-0.196,-0.82
830445,8790.0,3308.0,5106.0,376.0,-1846.0,1635.0,0.025,-0.555,-0.191,-0.809
830457,8628.0,4440.0,4944.0,564.0,-1755.0,1402.0,0.035,-0.57,-0.188,-0.799
830479,8336.0,4084.0,5158.0,424.0,-1700.0,1478.0,0.046,-0.585,-0.184,-0.788
830501,8358.0,3676.0,4854.0,419.0,-1604.0,1439.0,0.056,-0.599,-0.18,-0.778
830513,8598.0,4484.0,4524.0,367.0,-1532.0,1252.0,0.064,-0.612,-0.176,-0.768
830535,8300.0,4030.0,4340.0,169.0,-1431.0,1232.0,0.072,-0.624,-0.171,-0.759
830547,8206.0,3436.0,4248.0,34.0,-1339.0,1134.0,0.078,-0.636,-0.166,-0.75
830569,8200.0,2950.0,4186.0,32.0,-1207.0,986.0,0.084,-0.646,-0.161,-0.742
830581,9050.0,3388.0,4062.0,185.0,-808.0,960.0,0.091,-0.652,-0.158,-0.736
830603,7518.0,2082.0,3652.0,-95.0,-1042.0,278.0,0.09,-0.659,-0.156,-0.73
830615,8138.0,3100.0,3822.0,33.0,-821.0,502.0,0.093,-0.666,-0.154,-0.724
830637,7178.0,3044.0,4346.0,-22.0,-698.0,510.0,0.095,-0.67,-0.152,-0.72
830659,7260.0,2480.0,4192.0,36.0,-594.0,287.0,0.097,-0.674,-0.151,-0.716
830671,7370.0,3096.0,3656.0,0.0,-453.0,87.0,0.096,-0.677,-0.152,-0.714
830693,7472.0,2852.0,3152.0,-142.0,-388.0,38.0,0.095,-0.679,-0.151,-0.712
830705,7492.0,2720.0,2722.0,-117.0,-249.0,-192.0,0.093,-0.68,-0.152,-0.711
830727,7358.0,2502.0,3376.0,-145.0,-173.0,-389.0,0.089,-0.68,-0.154,-0.711
830739,7462.0,3080.0,3892.0,-82.0,-41.0,-646.0,0.084,-0.679,-0.159,-0.712
830761,7452.0,3154.0,4900.0,-143.0,61.0,-793.0,0.078,-0.677,-0.163,-0.713
830773,7340.0,3582.0,4744.0,-206.0,207.0,-958.0,0.071,-0.675,-0.168,-0.715
830795,7016.0,3978.0,4960.0,-429.0,241.0,-1044.0,0.062,-0.672,-0.171,-0.718
830807,7430.0,3226.0,4890.0,-661.0,368.0,-1038.0,0.052,-0.668,-0.174,-0.722
830829,7598.0,3792.0,4498.0,-644.0,590.0,-1119.0,0.042,-0.662,-0.176,-0.727
830851,8210.0,3704.0,4692.0,-632.0,844.0,-1133.0,0.032,-0.655,-0.179,-0.734
830863,8742.0,3196.0,3878.0,-638.0,1119.0,-1191.0,0.022,-0.645,-0.182,-0.742
830885,8624.0,4138.0,3888.0,-712.0,1316.0,-1220.0,0.012,-0.634,-0.184,-0.751
830897,8804.0,4386.0,4908.0,-986.0,1377.0,-1271.0,0.0,-0.622,-0.185,-0.761
830919,9440.0,4286.0,7046.0,-1000.0,1649.0,-1327.0,0.012,0.608,0.186,0.772
830931,8576.0,9328.0,7496.0,-1788.0,1889.0,-1469.0,0.029,0.591,0.182,0.785
830953,10830.0,5492.0,7458.0,-1626.0,2170.0,-1568.0,0.045,0.572,0.179,0.799
830975,11678.0,5394.0,6772.0,-1629.0,2378.0,-1880.0,0.063,0.55,0.178,0.813
830987,11462.0,6118.0,6124.0,-1450.0,2782.0,-2056.0,0.081,0.524,0.179,0.828
831009,10826.0,6840.0,6314.0,-1595.0,2894.0,-2188.0,0.101,0.497,0.18,0.843
831021,11636.0,5752.0,7680.0,-1603.0,2953.0,-2236.0,0.12,0.468,0.181,0.857
831043,11948.0,5866.0,7958.0,-1489.0,3261.0,-2046.0,0.137,0.436,0.182,0.87
831055,10354.0,7024.0,6950.0,-1388.0,3403.0,-2225.0,0.154,0.403,0.184,0.883
831077,10876.0,6128.0,7332.0,-1171.0,3256.0,-2491.0,0.173,0.37,0.188,0.893
831089,11164.0,6130.0,7198.0,-1730.0,3359.0,-2084.0,0.19,0.335,0.186,0.904
831111,10282.0,6410.0,7352.0,-1573.0,3582.0,-1736.0,0.203,0.299,0.185,0.914
831133,9614.0,5916.0,7310.0,-1640.0,3599.0,-1671.0,0.215,0.262,0.182,0.923
831145,8608.0,5782.0,7260.0,-1646.0,3524.0,-1800.0,0.228,0.225,0.179,0.93
831167,8242.0,4582.0,7854.0,-1527.0,3431.0,-1827.0,0.241,0.189,0.177,0.935
831179,7318.0,4384.0,7360.0,-1314.0,3447.0,-1766.0,0.253,0.153,0.176,0.939
831201,6220.0,4572.0,7138.0,-1174.0,3359.0,-1711.0,0.263,0.118,0.176,0.941
831213,5420.0,4372.0,6600.0,-1055.0,3285.0,-1735.0,0.274,0.084,0.177,0.942
831235,5370.0,4138.0,6058.0,-1228.0,3133.0,-1630.0,0.284,0.05,0.175,0.941
831247,4452.0,2676.0,5610.0,-1250.0,3082.0,-1616.0,0.293,0.018,0.173,0.94
831269,2418.0,1502.0,6212.0,-1073.0,2988.0,-1488.0,0.301,-0.013,0.172,0.938
831281,674.0,1724.0,5890.0,-710.0,2792.0,-1319.0,0.308,-0.042,0.173,0.935
831303,804.0,1356.0,5696.0,-532.0,2446.0,-1232.0,0.314,-0.066,0.175,0.931
831325,548.0,1162.0,5876.0,-345.0,2225.0,-1181.0,0.32,-0.088,0.178,0.926
831337,714.0,764.0,5042.0,-416.0,2072.0,-1179.0,0.327,-0.109,0.18,0.921
831359,418.0,442.0,4590.0,-254.0,2015.0,-1012.0,0.332,-0.129,0.182,0.916
831371,776.0,776.0,3458.0,-182.0,1974.0,-959.0,0.336,-0.148,0.186,0.911
831393,842.0,1890.0,3220.0,-124.0,1899.0,-1112.0,0.343,-0.166,0.189,0.905
831405,784.0,1090.0,2756.0,-30.0,1880.0,-1382.0,0.351,-0.185,0.193,0.898
831427,532.0,1410.0,2130.0,-2.0,1777.0,-1724.0,0.362,-0.202,0.195,0.889
831439,690.0,2388.0,2050.0,-379.0,1692.0,-1640.0,0.372,-0.221,0.195,0.88
831461,118.0,722.0,1772.0,-965.0,1636.0,-1274.0,0.377,-0.24,0.19,0.874
831483,-182.0,-224.0,1488.0,-1038.0,1520.0,-1068.0,0.381,-0.257,0.184,0.869
831495,-952.0,-1204.0,1090.0,-1021.0,1371.0,-958.0,0.384,-0.274,0.179,0.864
831517,-1570.0,-1150.0,812.0,-917.0,1214.0,-779.0,0.386,-0.288,0.174,0.859
831529,-1148.0,-1534.0,742.0,-951.0,1110.0,-198.0,0.383,-0.3,0.17,0.857
831551,-1528.0,-2262.0,316.0,-882.0,999.0,251.0,0.377,-0.311,0.167,0.856
831563,-1702.0,-2882.0,176.0,-256.0,605.0,-365.0,0.379,-0.317,0.166,0.853
831585,-1220.0,-2068.0,320.0,106.0,277.0,-451.0,0.382,-0.32,0.167,0.851
831597,-1358.0,-2182.0,464.0,267.0,-11.0,-211.0,0.385,-0.319,0.168,0.85
831619,-2106.0,-2040.0,522.0,595.0,-264.0,21.0,0.388,-0.314,0.172,0.849
831631,-2656.0,-1778.0,788.0,811.0,-587.0,344.0,0.388,-0.306,0.178,0.851
831653,-2686.0,-1768.0,1020.0,972.0,-953.0,708.0,0.388,-0.294,0.184,0.854
831665,-2096.0,-1752.0,1568.0,1263.0,-1268.0,1003.0,0.386,-0.277,0.192,0.859
