timeMs,ax,ay,az,gx,gy,gz,q0,q1,q2,q3
148053,5814.0,3482.0,4368.0,45.0,4.0,55.0,0.187,-0.285,-0.33,-0.88
148076,5898.0,3716.0,4494.0,14.0,-18.0,86.0,0.188,-0.285,-0.33,-0.88
148088,5872.0,3594.0,4508.0,1.0,-24.0,98.0,0.189,-0.286,-0.33,-0.879
148111,6070.0,3376.0,4600.0,23.0,5.0,107.0,0.19,-0.286,-0.33,-0.879
148123,6172.0,3522.0,4340.0,83.0,61.0,64.0,0.192,-0.286,-0.331,-0.879
148146,6496.0,3356.0,4124.0,90.0,90.0,50.0,0.193,-0.286,-0.331,-0.878
148168,6442.0,2884.0,4130.0,187.0,161.0,-29.0,0.194,-0.284,-0.333,-0.878
148180,6168.0,3624.0,4440.0,279.0,225.0,-55.0,0.195,-0.282,-0.335,-0.878
148202,5918.0,3780.0,4712.0,239.0,251.0,-45.0,0.197,-0.279,-0.336,-0.878
148214,5764.0,3412.0,4618.0,271.0,306.0,-90.0,0.198,-0.276,-0.338,-0.878
148236,5726.0,3280.0,4720.0,304.0,313.0,-114.0,0.199,-0.273,-0.341,-0.878
148248,5544.0,3238.0,4798.0,374.0,342.0,-150.0,0.2,-0.269,-0.343,-0.877
148270,5430.0,4074.0,4920.0,423.0,339.0,-134.0,0.202,-0.265,-0.347,-0.877
148282,5102.0,4266.0,5000.0,242.0,273.0,-117.0,0.202,-0.262,-0.348,-0.877
148304,5342.0,3360.0,5314.0,242.0,259.0,-173.0,0.203,-0.259,-0.35,-0.877
148326,5262.0,4262.0,5344.0,325.0,257.0,-250.0,0.203,-0.255,-0.353,-0.877
148338,5576.0,4114.0,5520.0,211.0,203.0,-241.0,0.202,-0.252,-0.355,-0.877
148360,5706.0,3356.0,5518.0,313.0,275.0,-290.0,0.202,-0.248,-0.358,-0.877
148372,5552.0,4564.0,5578.0,353.0,293.0,-375.0,0.201,-0.244,-0.361,-0.878
148394,5656.0,4714.0,5658.0,336.0,326.0,-386.0,0.2,-0.239,-0.364,-0.878
148406,5656.0,4600.0,5874.0,358.0,420.0,-356.0,0.199,-0.234,-0.367,-0.878
148428,5548.0,5014.0,5932.0,427.0,495.0,-377.0,0.199,-0.227,-0.37,-0.878
148440,5608.0,5400.0,5500.0,473.0,555.0,-450.0,0.199,-0.22,-0.374,-0.879
148462,5806.0,7084.0,4172.0,502.0,439.0,-549.0,0.197,-0.214,-0.379,-0.879
148474,6768.0,7356.0,4718.0,6.0,485.0,-760.0,0.193,-0.207,-0.379,-0.881
148496,7144.0,4250.0,4696.0,-301.0,479.0,-972.0,0.186,-0.2,-0.378,-0.885
148518,6334.0,3606.0,6512.0,358.0,746.0,-1064.0,0.181,-0.189,-0.382,-0.886
148530,5218.0,8372.0,6834.0,590.0,844.0,-1029.0,0.177,-0.177,-0.387,-0.887
148552,4948.0,5668.0,6812.0,155.0,882.0,-880.0,0.174,-0.167,-0.388,-0.89
148564,4300.0,6594.0,6566.0,194.0,950.0,-879.0,0.17,-0.155,-0.39,-0.892
148586,3588.0,5456.0,7122.0,27.0,962.0,-894.0,0.167,-0.144,-0.39,-0.894
148598,3078.0,4108.0,6630.0,53.0,1016.0,-793.0,0.164,-0.132,-0.389,-0.897
148620,2536.0,5246.0,5882.0,184.0,1023.0,-739.0,0.163,-0.12,-0.39,-0.898
148632,2680.0,6824.0,5952.0,-11.0,916.0,-715.0,0.16,-0.11,-0.39,-0.9
148654,2646.0,5042.0,6168.0,-366.0,897.0,-567.0,0.159,-0.101,-0.386,-0.903
148666,2096.0,4752.0,6022.0,-165.0,979.0,-547.0,0.158,-0.09,-0.383,-0.906
148689,1950.0,5866.0,5770.0,-88.0,933.0,-708.0,0.156,-0.08,-0.382,-0.908
148711,1752.0,5596.0,5652.0,-101.0,921.0,-739.0,0.153,-0.069,-0.38,-0.91
148723,1364.0,7838.0,4804.0,-390.0,875.0,-885.0,0.149,-0.059,-0.376,-0.913
148745,896.0,6176.0,4820.0,-682.0,731.0,-819.0,0.144,-0.051,-0.37,-0.916
148757,380.0,6164.0,4582.0,-575.0,676.0,-876.0,0.139,-0.042,-0.365,-0.92
148779,272.0,5884.0,3484.0,-368.0,482.0,-1028.0,0.132,-0.035,-0.362,-0.922
148791,218.0,7010.0,3198.0,-284.0,344.0,-1211.0,0.123,-0.028,-0.36,-0.925
148813,442.0,7528.0,2728.0,-643.0,9.0,-1484.0,0.11,-0.023,-0.355,-0.928
148825,848.0,5822.0,3624.0,-706.0,-91.0,-1298.0,0.099,-0.02,-0.35,-0.931
148847,450.0,5864.0,3780.0,-609.0,-187.0,-1454.0,0.086,-0.018,-0.345,-0.935
148869,776.0,5808.0,3634.0,-516.0,-343.0,-1629.0,0.071,-0.016,-0.341,-0.937
148881,1122.0,5362.0,3236.0,-477.0,-456.0,-1641.0,0.055,-0.015,-0.337,-0.94
148903,1406.0,4396.0,3028.0,-287.0,-502.0,-1618.0,0.04,-0.014,-0.335,-0.941
148915,1234.0,5390.0,2954.0,116.0,-570.0,-1743.0,0.023,-0.013,-0.336,-0.941
148937,1320.0,6482.0,3460.0,-43.0,-830.0,-1774.0,0.005,-0.015,-0.337,-0.941
148949,2030.0,3990.0,4202.0,-257.0,-827.0,-1601.0,0.011,0.017,0.335,0.942
148971,1612.0,3736.0,3886.0,-5.0,-745.0,-1578.0,0.027,0.019,0.335,0.942
148983,1358.0,3576.0,3866.0,156.0,-746.0,-1498.0,0.042,0.021,0.336,0.941
149005,1376.0,4182.0,3668.0,214.0,-835.0,-1340.0,0.056,0.024,0.338,0.939
149017,1564.0,4328.0,3148.0,123.0,-988.0,-1145.0,0.069,0.029,0.339,0.938
149039,1772.0,3356.0,3552.0,-24.0,-1130.0,-975.0,0.081,0.036,0.338,0.937
149061,1944.0,3104.0,5480.0,125.0,-1223.0,-805.0,0.092,0.044,0.339,0.935
149073,3038.0,4502.0,6634.0,32.0,-1336.0,-669.0,0.102,0.054,0.338,0.934
149095,4422.0,4016.0,7740.0,-111.0,-1241.0,-362.0,0.109,0.063,0.336,0.933
149107,5110.0,5092.0,7952.0,-411.0,-1185.0,-258.0,0.115,0.072,0.331,0.934
149129,6144.0,4484.0,8516.0,-840.0,-1057.0,-149.0,0.12,0.08,0.323,0.935
149141,4904.0,4018.0,7524.0,-2864.0,-1204.0,-1079.0,0.135,0.084,0.297,0.942
149163,3936.0,5062.0,8340.0,-2557.0,-673.0,-969.0,0.147,0.084,0.275,0.947
149175,2582.0,4874.0,9854.0,-2698.0,-1028.0,-1073.0,0.161,0.087,0.25,0.951
149202,4024.0,10196.0,10384.0,-2515.0,-1005.0,-635.0,0.171,0.09,0.227,0.955
149214,2368.0,-102.0,10216.0,-1205.0,-450.0,-74.0,0.173,0.092,0.215,0.957
149236,4072.0,1046.0,10576.0,-48.0,-129.0,449.0,0.169,0.094,0.214,0.957
149248,3156.0,1580.0,9486.0,1064.0,160.0,724.0,0.162,0.096,0.223,0.956
149270,2774.0,3250.0,6608.0,1631.0,320.0,755.0,0.153,0.097,0.238,0.954
149282,1742.0,6176.0,4186.0,1569.0,268.0,829.0,0.143,0.099,0.252,0.952
149304,1496.0,10152.0,4748.0,846.0,-555.0,485.0,0.14,0.107,0.258,0.95
149316,466.0,3508.0,7080.0,655.0,-478.0,284.0,0.138,0.112,0.263,0.948
149338,860.0,6504.0,6614.0,661.0,-548.0,-532.0,0.143,0.117,0.268,0.945
149350,1872.0,5772.0,5678.0,417.0,-300.0,-288.0,0.146,0.119,0.272,0.944
149372,1492.0,6018.0,4338.0,89.0,-216.0,-297.0,0.149,0.121,0.274,0.942
149394,1636.0,4882.0,4432.0,-106.0,-282.0,-271.0,0.152,0.123,0.273,0.942
149406,1486.0,3586.0,4454.0,30.0,-244.0,-321.0,0.156,0.124,0.273,0.941
149428,890.0,3756.0,4922.0,159.0,-222.0,-269.0,0.158,0.125,0.274,0.94
149440,862.0,3774.0,5428.0,231.0,-257.0,-346.0,0.162,0.127,0.276,0.939
149462,1094.0,3760.0,5312.0,96.0,-334.0,-308.0,0.165,0.129,0.277,0.938
149474,2034.0,3728.0,5230.0,172.0,-310.0,78.0,0.165,0.133,0.278,0.937
149496,1842.0,1236.0,4640.0,-203.0,-501.0,-83.0,0.167,0.136,0.276,0.937
149508,1856.0,2096.0,4364.0,-107.0,-509.0,303.0,0.166,0.142,0.273,0.937
149530,2058.0,1722.0,5318.0,-49.0,-571.0,393.0,0.164,0.147,0.272,0.937
149542,2096.0,11964.0,6536.0,-215.0,-665.0,184.0,0.165,0.153,0.268,0.937
149564,4832.0,3778.0,8322.0,-1506.0,-641.0,-281.0,0.171,0.156,0.255,0.939
149586,4784.0,1812.0,9864.0,-670.0,-145.0,-30.0,0.172,0.156,0.249,0.94
149598,4830.0,3446.0,10924.0,-186.0,56.0,-296.0,0.175,0.155,0.248,0.94
149620,3714.0,4108.0,9822.0,501.0,299.0,-217.0,0.176,0.152,0.253,0.939
149632,1800.0,6954.0,9840.0,932.0,330.0,-253.0,0.176,0.15,0.262,0.937
149654,808.0,7206.0,9280.0,531.0,152.0,45.0,0.174,0.15,0.267,0.936
149666,1358.0,4058.0,6758.0,-602.0,8.0,-247.0,0.177,0.148,0.262,0.937
149688,1258.0,1590.0,4506.0,-418.0,25.0,-627.0,0.183,0.146,0.259,0.937
149700,2518.0,6100.0,4484.0,231.0,-175.0,-649.0,0.189,0.147,0.262,0.935
149722,2934.0,8928.0,4170.0,-213.0,-421.0,-249.0,0.192,0.149,0.26,0.934
149744,1542.0,5952.0,6088.0,-427.0,-181.0,-35.0,0.194,0.15,0.256,0.935
149756,534.0,5074.0,6412.0,-287.0,-27.0,-221.0,0.196,0.149,0.254,0.935
149778,682.0,6600.0,5518.0,-108.0,-17.0,-562.0,0.201,0.148,0.254,0.934
149790,1386.0,4996.0,5018.0,-34.0,11.0,-679.0,0.207,0.146,0.255,0.933
149812,1202.0,3648.0,4114.0,223.0,5.0,-635.0,0.213,0.145,0.258,0.931
149824,1596.0,3520.0,3658.0,463.0,-97.0,-551.0,0.217,0.145,0.262,0.929
149846,1442.0,3010.0,3530.0,474.0,-148.0,-376.0,0.22,0.147,0.267,0.927
149858,1298.0,2798.0,3784.0,440.0,-251.0,-306.0,0.223,0.149,0.27,0.925
149880,1972.0,2024.0,4864.0,406.0,-388.0,-360.0,0.226,0.152,0.274,0.922
149892,2168.0,1972.0,6714.0,390.0,-449.0,-302.0,0.23,0.156,0.276,0.92
149915,1932.0,1578.0,7886.0,436.0,-392.0,-179.0,0.232,0.16,0.279,0.918
149937,2374.0,3092.0,8000.0,773.0,-256.0,-30.0,0.231,0.164,0.284,0.916
149949,3886.0,5720.0,9158.0,845.0,-77.0,122.0,0.229,0.167,0.291,0.914
149971,5286.0,7072.0,10134.0,209.0,273.0,-9.0,0.228,0.165,0.294,0.914
149983,5300.0,7164.0,8366.0,-80.0,606.0,499.0,0.222,0.161,0.293,0.916
150005,4186.0,6534.0,7178.0,61.0,631.0,74.0,0.22,0.156,0.295,0.917
150017,3482.0,5832.0,6076.0,-42.0,583.0,-229.0,0.22,0.15,0.296,0.917
150039,2692.0,6010.0,5218.0,-414.0,611.0,-221.0,0.221,0.144,0.295,0.919
150051,1372.0,5034.0,5106.0,-555.0,514.0,-140.0,0.221,0.138,0.291,0.92
150073,1586.0,4698.0,5704.0,-297.0,375.0,20.0,0.221,0.134,0.289,0.922
150085,1188.0,4498.0,6290.0,-233.0,444.0,29.0,0.219,0.13,0.288,0.923
150107,724.0,4794.0,6748.0,-278.0,476.0,-150.0,0.22,0.125,0.287,0.924
150129,1112.0,4014.0,7160.0,-15.0,412.0,-120.0,0.22,0.121,0.288,0.924
150141,1106.0,5938.0,7112.0,193.0,467.0,-132.0,0.219,0.117,0.29,0.924
150163,1458.0,5728.0,7008.0,25.0,458.0,-64.0,0.219,0.113,0.291,0.924
150175,1232.0,5010.0,7036.0,-162.0,408.0,-186.0,0.219,0.109,0.291,0.925
150197,844.0,4036.0,6416.0,-112.0,406.0,-265.0,0.221,0.104,0.291,0.925
150209,1110.0,3942.0,6528.0,-63.0,351.0,-252.0,0.222,0.101,0.291,0.925
150231,428.0,3850.0,6186.0,68.0,331.0,-110.0,0.222,0.098,0.293,0.925
150243,-68.0,5570.0,6306.0,200.0,297.0,-18.0,0.221,0.095,0.295,0.925
150265,-214.0,6736.0,6030.0,-23.0,237.0,-2.0,0.22,0.093,0.296,0.925
150287,-136.0,4370.0,5526.0,-302.0,111.0,-120.0,0.221,0.091,0.293,0.926
150299,22.0,3234.0,5694.0,-133.0,33.0,-319.0,0.224,0.09,0.292,0.925
150321,592.0,4008.0,6490.0,61.0,19.0,-260.0,0.226,0.089,0.293,0.925
150333,1196.0,5632.0,7024.0,73.0,92.0,-58.0,0.227,0.088,0.294,0.924
150355,1194.0,6312.0,6868.0,-63.0,235.0,14.0,0.226,0.086,0.294,0.925
150367,858.0,6344.0,6392.0,-271.0,259.0,-141.0,0.227,0.083,0.292,0.925
150389,336.0,5332.0,5782.0,-389.0,195.0,-389.0,0.23,0.08,0.29,0.926
150401,-46.0,4346.0,5476.0,-357.0,110.0,-490.0,0.234,0.077,0.287,0.926
150423,-368.0,4452.0,5300.0,-252.0,71.0,-379.0,0.237,0.074,0.286,0.926
150445,-1042.0,5402.0,6484.0,-245.0,-3.0,-196.0,0.239,0.073,0.284,0.926
150457,-886.0,6634.0,7514.0,-262.0,-74.0,-195.0,0.241,0.073,0.282,0.926
150479,-200.0,7056.0,8410.0,-438.0,-159.0,-478.0,0.246,0.072,0.278,0.926
150491,-14.0,6152.0,7610.0,-600.0,-235.0,-483.0,0.251,0.071,0.272,0.926
150513,402.0,3138.0,6688.0,-880.0,-225.0,-908.0,0.26,0.069,0.265,0.926
150525,1014.0,2150.0,5854.0,-661.0,-300.0,-943.0,0.269,0.068,0.259,0.925
150547,1274.0,2360.0,5656.0,-561.0,-357.0,-755.0,0.277,0.067,0.253,0.924
150559,1624.0,2986.0,6494.0,-398.0,-363.0,-520.0,0.283,0.068,0.249,0.924
150581,2156.0,4060.0,7488.0,-300.0,-287.0,-265.0,0.286,0.07,0.246,0.924
150593,1804.0,4806.0,7470.0,-224.0,-136.0,-111.0,0.287,0.07,0.244,0.924
150615,2124.0,4536.0,7478.0,-310.0,2.0,56.0,0.287,0.07,0.241,0.925
150637,1968.0,3620.0,6454.0,-427.0,246.0,721.0,0.28,0.069,0.237,0.928
150649,1160.0,3504.0,6310.0,-199.0,315.0,801.0,0.273,0.067,0.236,0.93
150671,1676.0,4244.0,6524.0,-79.0,293.0,875.0,0.265,0.067,0.235,0.933
150683,932.0,3928.0,6760.0,-196.0,241.0,617.0,0.259,0.066,0.234,0.935
150705,1226.0,3784.0,7294.0,-114.0,235.0,483.0,0.254,0.065,0.233,0.936
150717,910.0,3460.0,7486.0,-114.0,289.0,474.0,0.25,0.063,0.232,0.938
150739,664.0,3770.0,7558.0,83.0,261.0,380.0,0.246,0.062,0.233,0.939
150751,704.0,4326.0,7508.0,68.0,290.0,463.0,0.241,0.061,0.234,0.94
150773,480.0,4980.0,7640.0,-77.0,308.0,474.0,0.236,0.059,0.234,0.941
150795,132.0,4998.0,7428.0,-136.0,261.0,275.0,0.233,0.057,0.234,0.942
150807,-110.0,4142.0,7222.0,-259.0,218.0,8.0,0.233,0.055,0.232,0.943
150829,4.0,4176.0,7048.0,-252.0,177.0,107.0,0.232,0.053,0.23,0.944
150841,1106.0,3844.0,7586.0,-280.0,286.0,165.0,0.23,0.051,0.228,0.945
150863,-708.0,4786.0,6776.0,-530.0,362.0,346.0,0.227,0.047,0.224,0.947
150875,-636.0,4296.0,6664.0,330.0,-182.0,-656.0,0.233,0.048,0.227,0.944
150897,248.0,3884.0,7338.0,507.0,-447.0,-1118.0,0.243,0.051,0.231,0.941
150909,836.0,3618.0,7900.0,36.0,-329.0,-821.0,0.251,0.052,0.231,0.939
150931,728.0,3856.0,7626.0,-321.0,-153.0,-205.0,0.253,0.052,0.228,0.939
150943,656.0,3664.0,7264.0,-485.0,-19.0,116.0,0.253,0.052,0.224,0.94
150966,406.0,3522.0,6786.0,-217.0,-8.0,170.0,0.251,0.052,0.222,0.941
150978,164.0,3150.0,7012.0,168.0,-125.0,-174.0,0.253,0.053,0.223,0.94
151001,962.0,3582.0,7546.0,-123.0,-64.0,-159.0,0.255,0.053,0.221,0.94
151023,718.0,3684.0,7620.0,-536.0,171.0,252.0,0.252,0.051,0.217,0.942
151035,402.0,4184.0,7304.0,-705.0,339.0,255.0,0.25,0.047,0.212,0.944
151057,76.0,3764.0,7254.0,-587.0,399.0,85.0,0.248,0.042,0.207,0.945
151069,-86.0,3520.0,6916.0,-137.0,188.0,-199.0,0.25,0.04,0.207,0.945
151091,94.0,3132.0,7084.0,399.0,88.0,-305.0,0.252,0.04,0.211,0.944
151103,124.0,3440.0,6912.0,773.0,64.0,-291.0,0.255,0.041,0.218,0.941
151125,200.0,3630.0,6226.0,1272.0,-56.0,-141.0,0.255,0.044,0.229,0.938
151137,-502.0,3438.0,6876.0,1518.0,-258.0,-688.0,0.261,0.048,0.242,0.933
151159,400.0,3634.0,7688.0,1500.0,-115.0,-1061.0,0.27,0.051,0.255,0.927
151171,546.0,4750.0,7202.0,1118.0,154.0,-73.0,0.27,0.052,0.265,0.924
151193,90.0,5046.0,6922.0,803.0,152.0,318.0,0.267,0.054,0.272,0.923
151210,104.0,5252.0,6620.0,709.0,58.0,70.0,0.265,0.055,0.278,0.921
151232,192.0,4942.0,6532.0,656.0,-35.0,-202.0,0.267,0.057,0.284,0.919
151244,148.0,4928.0,6614.0,565.0,-93.0,-261.0,0.269,0.059,0.289,0.917
151266,106.0,5196.0,6668.0,390.0,-139.0,-261.0,0.271,0.06,0.292,0.915
151278,-42.0,5296.0,6594.0,161.0,-196.0,-379.0,0.275,0.061,0.293,0.914
151300,262.0,5248.0,6700.0,99.0,-262.0,-470.0,0.28,0.063,0.294,0.912
151312,258.0,5358.0,6444.0,99.0,-296.0,-735.0,0.287,0.064,0.294,0.909
151334,560.0,4966.0,6366.0,142.0,-246.0,-511.0,0.292,0.065,0.295,0.907
151346,-54.0,4872.0,6446.0,78.0,-137.0,-323.0,0.295,0.066,0.296,0.906
151368,94.0,4834.0,6522.0,107.0,-88.0,-156.0,0.296,0.066,0.296,0.906
151390,-28.0,4782.0,6528.0,74.0,-66.0,-31.0,0.297,0.067,0.297,0.905
151402,-52.0,4624.0,6602.0,155.0,-29.0,130.0,0.296,0.068,0.298,0.905
151424,-172.0,4736.0,6686.0,202.0,-40.0,188.0,0.294,0.07,0.299,0.905
151436,-108.0,4988.0,6724.0,228.0,-62.0,217.0,0.292,0.072,0.301,0.905
151458,-22.0,4934.0,6888.0,229.0,-61.0,135.0,0.291,0.073,0.303,0.905
151470,296.0,4498.0,6874.0,293.0,-93.0,62.0,0.291,0.075,0.305,0.904
151492,72.0,5128.0,6968.0,190.0,-118.0,67.0,0.29,0.077,0.306,0.903
151504,268.0,5006.0,6832.0,140.0,-82.0,50.0,0.29,0.078,0.307,0.903
151526,42.0,5228.0,6306.0,74.0,-26.0,69.0,0.289,0.079,0.307,0.903
151548,536.0,5078.0,6564.0,-101.0,-25.0,-6.0,0.29,0.079,0.306,0.903
151560,830.0,4718.0,6396.0,-147.0,122.0,482.0,0.285,0.079,0.305,0.905
151582,-542.0,4930.0,6390.0,-195.0,11.0,355.0,0.283,0.08,0.303,0.907
151594,710.0,5378.0,6610.0,5.0,-25.0,5.0,0.283,0.08,0.303,0.906
151616,402.0,5410.0,6494.0,-45.0,94.0,-45.0,0.283,0.079,0.303,0.907
151628,276.0,4882.0,6340.0,-35.0,152.0,-35.0,0.283,0.078,0.303,0.907
151650,242.0,5170.0,6240.0,-66.0,125.0,0.0,0.282,0.077,0.303,0.907
151662,290.0,5292.0,6304.0,-109.0,150.0,12.0,0.282,0.076,0.303,0.907
151684,284.0,5338.0,6434.0,-126.0,155.0,-15.0,0.282,0.074,0.302,0.908
151706,372.0,4980.0,6312.0,-173.0,126.0,50.0,0.281,0.073,0.301,0.908
151718,368.0,4822.0,6426.0,-201.0,107.0,114.0,0.28,0.072,0.299,0.909
151740,302.0,5374.0,6440.0,-328.0,-117.0,276.0,0.278,0.073,0.296,0.911
151752,-1790.0,5250.0,6430.0,-1170.0,-157.0,-389.0,0.283,0.07,0.286,0.913
151774,1162.0,3858.0,6824.0,17.0,240.0,101.0,0.281,0.069,0.287,0.913
151786,588.0,5998.0,6820.0,-155.0,157.0,-489.0,0.285,0.065,0.286,0.912
151808,950.0,3980.0,6600.0,-513.0,173.0,96.0,0.284,0.063,0.282,0.914
151820,-68.0,4188.0,6342.0,4.0,254.0,-258.0,0.286,0.06,0.283,0.914
151842,576.0,4430.0,6388.0,-164.0,207.0,123.0,0.284,0.059,0.282,0.915
151854,326.0,4574.0,6692.0,-326.0,266.0,457.0,0.28,0.057,0.28,0.917
151876,318.0,4734.0,6652.0,-232.0,345.0,246.0,0.277,0.054,0.278,0.918
151898,-26.0,3782.0,6362.0,161.0,380.0,-22.0,0.276,0.051,0.281,0.918
151910,-382.0,4604.0,6514.0,367.0,373.0,-462.0,0.278,0.048,0.285,0.916
151932,-320.0,4358.0,6744.0,281.0,350.0,-319.0,0.28,0.045,0.289,0.914
151944,-488.0,4398.0,6812.0,218.0,346.0,91.0,0.278,0.043,0.291,0.914
151966,-1162.0,4546.0,6806.0,278.0,274.0,39.0,0.277,0.041,0.294,0.914
151978,-862.0,4518.0,6696.0,417.0,179.0,-13.0,0.277,0.041,0.298,0.913
152000,-938.0,4922.0,6948.0,331.0,158.0,93.0,0.276,0.041,0.301,0.912
152012,-808.0,4998.0,6870.0,106.0,104.0,259.0,0.273,0.041,0.303,0.912
152034,-760.0,4686.0,6802.0,99.0,29.0,251.0,0.271,0.041,0.303,0.913
152056,-666.0,4782.0,6666.0,173.0,-57.0,105.0,0.27,0.043,0.305,0.912
152068,-628.0,4948.0,6664.0,137.0,-141.0,80.0,0.27,0.044,0.305,0.912
152090,-352.0,4474.0,6906.0,190.0,-199.0,145.0,0.269,0.047,0.306,0.912
152102,-192.0,5118.0,6908.0,259.0,-189.0,144.0,0.268,0.05,0.308,0.911
152124,-16.0,5172.0,6762.0,230.0,-161.0,98.0,0.268,0.052,0.31,0.911
152136,-150.0,5788.0,6536.0,222.0,-112.0,-17.0,0.268,0.054,0.311,0.91
152158,-98.0,5852.0,6256.0,100.0,-143.0,-77.0,0.269,0.055,0.312,0.909
152170,98.0,5548.0,6302.0,10.0,-142.0,-80.0,0.27,0.057,0.312,0.909
152192,72.0,5456.0,6358.0,-29.0,-136.0,-126.0,0.272,0.057,0.311,0.909
152214,68.0,5614.0,6328.0,-127.0,-157.0,-214.0,0.274,0.058,0.31,0.908
152226,164.0,5470.0,6262.0,-237.0,-178.0,-285.0,0.277,0.058,0.308,0.908
152248,216.0,5234.0,6324.0,-301.0,-199.0,-295.0,0.28,0.059,0.305,0.908
152260,290.0,5466.0,6498.0,-336.0,-181.0,-305.0,0.284,0.059,0.302,0.908
152282,302.0,5126.0,6576.0,-390.0,-163.0,-309.0,0.287,0.058,0.298,0.908
152294,358.0,4916.0,6682.0,-305.0,-132.0,-277.0,0.29,0.058,0.296,0.908
152316,222.0,4934.0,6654.0,-256.0,-68.0,-176.0,0.292,0.058,0.293,0.909
152328,-124.0,4896.0,6504.0,-213.0,-66.0,-83.0,0.293,0.057,0.292,0.909
152350,-350.0,5068.0,6474.0,-281.0,-121.0,-36.0,0.293,0.058,0.289,0.909
152362,-222.0,4888.0,6494.0,-339.0,-184.0,-20.0,0.294,0.058,0.286,0.91
152384,408.0,4426.0,6474.0,-180.0,-284.0,89.0,0.294,0.061,0.283,0.911
152406,-530.0,4440.0,6860.0,-119.0,-204.0,212.0,0.293,0.063,0.282,0.911
152418,20.0,4132.0,7318.0,154.0,-148.0,290.0,0.291,0.065,0.282,0.912
152440,432.0,4004.0,7244.0,217.0,-283.0,302.0,0.289,0.069,0.283,0.912
152452,886.0,4706.0,7320.0,521.0,-180.0,286.0,0.287,0.073,0.286,0.911
152474,920.0,5330.0,7110.0,598.0,-140.0,361.0,0.284,0.077,0.291,0.91
152486,750.0,4732.0,5742.0,836.0,-219.0,521.0,0.28,0.083,0.297,0.909
152508,954.0,5368.0,6176.0,754.0,-240.0,448.0,0.276,0.089,0.302,0.908
152520,2148.0,5234.0,8004.0,498.0,-191.0,461.0,0.272,0.093,0.306,0.908
152542,2838.0,6110.0,8472.0,235.0,-22.0,412.0,0.269,0.095,0.307,0.908
152564,3458.0,5684.0,7480.0,-22.0,158.0,454.0,0.265,0.095,0.307,0.909
152576,3274.0,4676.0,7870.0,159.0,333.0,450.0,0.26,0.094,0.309,0.91
152598,2640.0,4602.0,7616.0,443.0,513.0,452.0,0.254,0.092,0.313,0.91
152610,1920.0,6014.0,6842.0,300.0,609.0,550.0,0.248,0.089,0.317,0.911
152632,1590.0,5188.0,6696.0,29.0,675.0,626.0,0.24,0.085,0.318,0.913
152644,708.0,4566.0,5950.0,21.0,744.0,676.0,0.233,0.081,0.319,0.915
152666,280.0,4294.0,5340.0,7.0,764.0,809.0,0.223,0.077,0.32,0.917
152678,-158.0,3366.0,5060.0,-23.0,763.0,925.0,0.213,0.073,0.321,0.92
152700,-894.0,2522.0,4672.0,215.0,672.0,989.0,0.203,0.071,0.324,0.921
152712,-1268.0,2410.0,3656.0,403.0,559.0,1069.0,0.192,0.07,0.327,0.923
152735,-1258.0,2536.0,3636.0,250.0,365.0,1033.0,0.182,0.071,0.329,0.924
152747,-942.0,4060.0,4600.0,-5.0,262.0,738.0,0.175,0.071,0.329,0.925
152770,-564.0,3608.0,4416.0,-50.0,183.0,433.0,0.171,0.071,0.329,0.926
152792,-892.0,5498.0,4294.0,-40.0,145.0,-27.0,0.171,0.069,0.329,0.926
152804,-234.0,5246.0,4360.0,-12.0,62.0,-160.0,0.172,0.068,0.329,0.926
152826,-802.0,6130.0,5476.0,160.0,154.0,189.0,0.17,0.068,0.331,0.926
152838,-1414.0,6950.0,7204.0,286.0,171.0,189.0,0.168,0.067,0.333,0.925
152860,-1738.0,6324.0,8470.0,568.0,317.0,-9.0,0.166,0.065,0.339,0.924
152872,-1540.0,7946.0,9414.0,1095.0,501.0,-275.0,0.167,0.062,0.349,0.92
152894,-600.0,8478.0,8796.0,1159.0,485.0,-357.0,0.167,0.058,0.36,0.916
152906,-706.0,7320.0,7332.0,1568.0,569.0,150.0,0.163,0.057,0.374,0.911
152928,-1286.0,9452.0,6180.0,1417.0,414.0,-175.0,0.163,0.055,0.387,0.906
152940,-338.0,7492.0,5418.0,378.0,-144.0,-1053.0,0.172,0.053,0.39,0.903
152962,-398.0,2704.0,5954.0,147.0,-419.0,-1058.0,0.182,0.053,0.391,0.9
152984,-616.0,2022.0,6446.0,817.0,-579.0,-717.0,0.19,0.056,0.398,0.896
152996,-1016.0,8520.0,5582.0,908.0,-838.0,-768.0,0.199,0.062,0.404,0.891
153018,-308.0,9608.0,5018.0,142.0,-1138.0,-876.0,0.211,0.068,0.404,0.888
153030,342.0,7474.0,4956.0,13.0,-1287.0,-979.0,0.224,0.076,0.402,0.885
153052,374.0,6224.0,4750.0,555.0,-1280.0,-962.0,0.236,0.084,0.405,0.88
153064,496.0,7746.0,3658.0,642.0,-1396.0,-1062.0,0.249,0.093,0.408,0.873
153086,608.0,7510.0,2564.0,334.0,-1508.0,-874.0,0.262,0.103,0.408,0.868
153098,562.0,6496.0,2210.0,189.0,-1653.0,-684.0,0.273,0.114,0.406,0.864
153120,702.0,6836.0,2916.0,238.0,-1700.0,-630.0,0.285,0.127,0.405,0.86
153142,816.0,5966.0,3120.0,368.0,-1632.0,-436.0,0.294,0.139,0.404,0.855
153154,536.0,5670.0,3402.0,52.0,-1583.0,-425.0,0.303,0.15,0.401,0.851
153176,542.0,4834.0,3582.0,111.0,-1460.0,-346.0,0.311,0.161,0.398,0.848
153188,1350.0,5284.0,3828.0,103.0,-1418.0,-242.0,0.318,0.172,0.395,0.845
153215,1980.0,6348.0,3604.0,174.0,-1312.0,-57.0,0.323,0.183,0.393,0.842
153227,2538.0,6168.0,3648.0,82.0,-1336.0,-38.0,0.328,0.194,0.389,0.839
153239,2300.0,5298.0,3174.0,92.0,-1394.0,-154.0,0.334,0.204,0.386,0.835
153261,2348.0,4724.0,3808.0,258.0,-1378.0,44.0,0.338,0.216,0.383,0.832
153283,2394.0,5870.0,4326.0,363.0,-1322.0,264.0,0.34,0.229,0.381,0.829
153295,2344.0,6816.0,4508.0,352.0,-1268.0,411.0,0.341,0.241,0.379,0.826
153317,2358.0,8252.0,4848.0,207.0,-1123.0,334.0,0.342,0.252,0.376,0.823
153329,1824.0,8782.0,5658.0,-2.0,-924.0,268.0,0.343,0.26,0.373,0.822
153351,1216.0,7652.0,7070.0,-147.0,-679.0,353.0,0.343,0.266,0.368,0.822
153363,312.0,7006.0,7640.0,-73.0,-366.0,399.0,0.342,0.27,0.366,0.823
153385,586.0,6936.0,6874.0,70.0,-60.0,381.0,0.339,0.272,0.365,0.823
153397,682.0,8058.0,6022.0,73.0,161.0,353.0,0.336,0.272,0.365,0.825
153419,1338.0,8474.0,5264.0,-182.0,399.0,236.0,0.333,0.27,0.364,0.827
153431,1386.0,6864.0,3814.0,-380.0,595.0,346.0,0.329,0.265,0.363,0.831
153453,1614.0,6600.0,3998.0,-305.0,788.0,340.0,0.325,0.259,0.362,0.834
153475,2160.0,6472.0,4264.0,-322.0,957.0,484.0,0.318,0.253,0.361,0.839
153487,3626.0,8070.0,5718.0,-297.0,1139.0,499.0,0.311,0.244,0.361,0.844
153509,3914.0,9630.0,6840.0,-797.0,1425.0,569.0,0.304,0.233,0.358,0.852
153521,3986.0,8038.0,6398.0,-1255.0,1525.0,621.0,0.297,0.219,0.351,0.861
153543,5870.0,8032.0,7348.0,-1382.0,1530.0,133.0,0.293,0.203,0.343,0.869
153555,6452.0,6532.0,7982.0,-1504.0,1847.0,-132.0,0.291,0.184,0.336,0.876
153577,5830.0,2436.0,8342.0,-1196.0,2095.0,212.0,0.285,0.164,0.332,0.884
153589,4748.0,718.0,8456.0,-194.0,2560.0,289.0,0.275,0.143,0.337,0.889
153611,5692.0,3412.0,7630.0,509.0,2450.0,481.0,0.263,0.126,0.346,0.892
153623,3340.0,4142.0,6370.0,739.0,2370.0,518.0,0.25,0.11,0.357,0.893
153645,3378.0,4464.0,5602.0,473.0,2269.0,815.0,0.235,0.096,0.365,0.896
153667,3694.0,5050.0,4990.0,-118.0,2282.0,1088.0,0.218,0.081,0.368,0.9
153679,2196.0,3410.0,4246.0,-823.0,1973.0,1509.0,0.199,0.068,0.364,0.908
153701,2250.0,3022.0,4598.0,-1209.0,1818.0,1733.0,0.179,0.056,0.355,0.916
153713,2132.0,3776.0,5066.0,-1669.0,1653.0,1887.0,0.159,0.046,0.343,0.925
153735,1254.0,2616.0,5282.0,-2084.0,1290.0,2381.0,0.135,0.039,0.326,0.935
153747,1150.0,1500.0,4974.0,-2098.0,763.0,2566.0,0.111,0.038,0.307,0.944
153769,1896.0,314.0,4096.0,-1780.0,283.0,2576.0,0.089,0.041,0.291,0.952
153781,1958.0,166.0,2728.0,-1210.0,73.0,2580.0,0.066,0.046,0.279,0.957
153803,1544.0,1302.0,2640.0,-746.0,-133.0,2522.0,0.045,0.054,0.271,0.96
153825,1772.0,2856.0,2662.0,-496.0,-456.0,2373.0,0.026,0.064,0.265,0.962
153837,1690.0,4188.0,3444.0,-538.0,-816.0,2325.0,0.008,0.077,0.258,0.963
153859,1410.0,4434.0,3282.0,-691.0,-1251.0,2253.0,0.009,-0.094,-0.25,-0.964
153871,1806.0,3594.0,2958.0,-905.0,-1755.0,2383.0,0.025,-0.115,-0.24,-0.964
153893,2036.0,4428.0,3096.0,-1042.0,-2149.0,2243.0,0.038,-0.14,-0.229,-0.963
153905,2556.0,4044.0,3190.0,-1153.0,-2558.0,2090.0,0.049,-0.168,-0.216,-0.961
153927,4096.0,2956.0,4366.0,-872.0,-2677.0,1903.0,0.059,-0.196,-0.207,-0.957
153939,5004.0,3876.0,3516.0,-821.0,-2887.0,1974.0,0.069,-0.226,-0.197,-0.952
153962,5252.0,-580.0,4362.0,318.0,-2875.0,2099.0,0.082,-0.255,-0.197,-0.943
153974,5888.0,1756.0,4742.0,1461.0,-2704.0,1874.0,0.097,-0.282,-0.207,-0.932
153996,6362.0,5060.0,4772.0,1010.0,-2909.0,1736.0,0.108,-0.309,-0.214,-0.92
154018,7612.0,5884.0,5006.0,-526.0,-3095.0,1974.0,0.117,-0.34,-0.206,-0.91
154030,7896.0,4206.0,5192.0,-1352.0,-2976.0,2211.0,0.125,-0.371,-0.191,-0.9
154052,8114.0,2402.0,5620.0,-1202.0,-2815.0,2066.0,0.133,-0.4,-0.176,-0.89
154064,8500.0,2152.0,6106.0,-805.0,-2536.0,1810.0,0.14,-0.425,-0.166,-0.879
154086,8222.0,1880.0,6036.0,-531.0,-2200.0,1641.0,0.148,-0.446,-0.157,-0.869
154098,7332.0,2152.0,6084.0,-491.0,-1960.0,1391.0,0.154,-0.464,-0.15,-0.859
154120,6614.0,2904.0,6990.0,-495.0,-1827.0,1127.0,0.157,-0.481,-0.144,-0.85
154132,6618.0,3280.0,8330.0,-455.0,-1658.0,936.0,0.16,-0.496,-0.138,-0.842
154154,7120.0,3516.0,10532.0,-395.0,-1398.0,737.0,0.162,-0.509,-0.133,-0.835
154176,7836.0,3610.0,11840.0,-432.0,-987.0,618.0,0.163,-0.518,-0.128,-0.83
154188,8250.0,4792.0,13312.0,-512.0,-490.0,471.0,0.163,-0.523,-0.123,-0.827
154210,8706.0,3690.0,14198.0,-402.0,146.0,284.0,0.164,-0.523,-0.118,-0.828
154222,8526.0,2966.0,14302.0,-13.0,901.0,22.0,0.164,-0.516,-0.116,-0.833
154244,8650.0,3698.0,14602.0,71.0,1488.0,-416.0,0.163,-0.504,-0.116,-0.84
154256,9218.0,3694.0,14670.0,-46.0,2040.0,-734.0,0.159,-0.487,-0.116,-0.851
154278,9930.0,3514.0,14402.0,-290.0,2484.0,-906.0,0.153,-0.467,-0.114,-0.864
154290,10404.0,3088.0,13660.0,-460.0,2877.0,-1070.0,0.146,-0.443,-0.111,-0.878
154312,10844.0,3214.0,12808.0,-621.0,3202.0,-1159.0,0.137,-0.416,-0.106,-0.893
154324,11456.0,2796.0,11990.0,-809.0,3395.0,-1211.0,0.127,-0.387,-0.1,-0.908
154346,11526.0,3218.0,10970.0,-929.0,3609.0,-1074.0,0.118,-0.357,-0.092,-0.922
154368,11454.0,3220.0,10390.0,-1087.0,3700.0,-977.0,0.109,-0.325,-0.081,-0.936
154380,11396.0,2722.0,10406.0,-1108.0,3720.0,-874.0,0.101,-0.293,-0.071,-0.948
154402,11294.0,2378.0,10702.0,-965.0,3760.0,-815.0,0.093,-0.26,-0.061,-0.959
154414,10924.0,2644.0,10790.0,-918.0,3788.0,-797.0,0.086,-0.226,-0.051,-0.969
154436,11102.0,3140.0,10540.0,-1113.0,3675.0,-704.0,0.079,-0.193,-0.039,-0.977
154448,11378.0,2536.0,10384.0,-1292.0,3680.0,-288.0,0.075,-0.16,-0.025,-0.984
154470,11214.0,2592.0,9938.0,-1300.0,3674.0,-233.0,0.072,-0.127,-0.011,-0.989
154482,11066.0,2196.0,9426.0,-1202.0,3729.0,-286.0,0.068,-0.094,0.002,-0.993
154504,10672.0,1790.0,8964.0,-1068.0,3792.0,-374.0,0.064,-0.059,0.014,-0.996
154526,10286.0,1614.0,7780.0,-765.0,3867.0,-641.0,0.057,-0.024,0.023,-0.998
154538,9134.0,998.0,6428.0,-435.0,3935.0,-763.0,0.049,0.012,0.029,-0.998
154560,7352.0,8.0,5564.0,-141.0,3933.0,-849.0,0.04,0.049,0.032,-0.998
154572,5912.0,-198.0,4896.0,-115.0,3860.0,-838.0,0.031,0.083,0.035,-0.995
154594,4070.0,-1118.0,4734.0,-208.0,3629.0,-838.0,0.022,0.116,0.038,-0.992
154606,3060.0,-924.0,4136.0,-470.0,3367.0,-653.0,0.015,0.147,0.044,-0.988
154628,2394.0,-438.0,2980.0,-734.0,3071.0,-833.0,0.007,0.175,0.052,-0.983
154640,2032.0,-948.0,1900.0,-965.0,2682.0,-1044.0,0.003,-0.199,-0.063,0.978
154662,1682.0,-960.0,-192.0,-1250.0,2333.0,-658.0,0.008,-0.219,-0.076,0.973
154674,1202.0,-1522.0,-1660.0,-1217.0,1970.0,-216.0,0.009,-0.237,-0.087,0.968
154696,398.0,-1666.0,-2658.0,-807.0,1697.0,-19.0,0.009,-0.253,-0.094,0.963
154718,-248.0,-1058.0,-3630.0,-508.0,1346.0,7.0,0.009,-0.265,-0.098,0.959
154730,-450.0,-1416.0,-4526.0,-378.0,857.0,-11.0,0.009,-0.272,-0.102,0.957
154752,-668.0,-2098.0,-4878.0,-27.0,436.0,122.0,0.009,-0.276,-0.101,0.956
154764,-860.0,-2392.0,-4952.0,266.0,2.0,240.0,0.008,-0.277,-0.098,0.956
154786,-1232.0,-2262.0,-4862.0,349.0,-346.0,387.0,0.006,-0.274,-0.094,0.957
154798,-1460.0,-2810.0,-3980.0,187.0,-717.0,354.0,0.003,-0.268,-0.091,0.959
154820,-1516.0,-3878.0,-2672.0,178.0,-996.0,254.0,0.001,-0.259,-0.089,0.962
154832,-1510.0,-4694.0,-1330.0,442.0,-1183.0,115.0,0.0,-0.249,-0.085,0.965
154854,-1118.0,-5130.0,-354.0,890.0,-1334.0,54.0,0.001,-0.237,-0.076,0.969
154876,-502.0,-4164.0,738.0,1345.0,-1469.0,56.0,0.003,-0.224,-0.064,0.973
154888,-298.0,-2438.0,2100.0,1485.0,-1652.0,92.0,0.005,-0.209,-0.05,0.977
154910,34.0,-1818.0,3614.0,1212.0,-1882.0,166.0,0.005,-0.191,-0.039,0.981
154922,342.0,-2020.0,4756.0,1007.0,-2057.0,125.0,0.006,-0.173,-0.029,0.985
154944,1564.0,-2292.0,5314.0,1071.0,-2332.0,190.0,0.006,-0.151,-0.019,0.988
154956,1350.0,-932.0,5832.0,851.0,-2665.0,-838.0,0.015,-0.126,-0.013,0.992
154978,4200.0,-1160.0,7544.0,1774.0,-2121.0,366.0,0.014,-0.105,0.004,0.994
155000,2848.0,2484.0,8324.0,1405.0,-2230.0,77.0,0.015,-0.084,0.016,0.996
155012,4326.0,-134.0,8954.0,1229.0,-2292.0,-177.0,0.019,-0.063,0.027,0.997
155024,3196.0,1150.0,9614.0,1024.0,-2445.0,-1052.0,0.03,-0.04,0.036,0.998
155047,5088.0,-162.0,10096.0,1099.0,-2534.0,-1408.0,0.045,-0.017,0.045,0.998
155069,6294.0,-692.0,10870.0,1484.0,-2378.0,-883.0,0.055,0.006,0.058,0.997
155081,6118.0,-36.0,9858.0,1683.0,-2106.0,208.0,0.054,0.026,0.072,0.996
155103,6546.0,1586.0,10546.0,1977.0,-1693.0,2110.0,0.036,0.045,0.089,0.994
155115,5352.0,3498.0,11456.0,1671.0,-1634.0,2282.0,0.016,0.062,0.103,0.993
155137,6044.0,2916.0,11480.0,1443.0,-1761.0,2009.0,0.001,-0.081,-0.115,-0.99
155149,6062.0,3478.0,9872.0,1565.0,-1599.0,2018.0,0.019,-0.098,-0.128,-0.987
155171,5648.0,4260.0,8734.0,1501.0,-1650.0,2189.0,0.038,-0.115,-0.14,-0.983
155183,5890.0,4634.0,8648.0,1496.0,-1632.0,2319.0,0.058,-0.133,-0.151,-0.978
155205,5752.0,5532.0,8818.0,1411.0,-1605.0,2248.0,0.078,-0.15,-0.162,-0.972
155222,5872.0,5816.0,8548.0,1245.0,-1574.0,2178.0,0.096,-0.166,-0.171,-0.966
155244,5744.0,5808.0,8024.0,951.0,-1598.0,2085.0,0.113,-0.183,-0.178,-0.96
155256,5660.0,5222.0,7806.0,708.0,-1708.0,1775.0,0.127,-0.201,-0.183,-0.954
155278,6026.0,4980.0,7526.0,677.0,-1681.0,1579.0,0.139,-0.218,-0.188,-0.948
155290,5886.0,5284.0,7188.0,638.0,-1663.0,1365.0,0.149,-0.234,-0.193,-0.941
155312,6368.0,4620.0,6910.0,731.0,-1637.0,1378.0,0.159,-0.25,-0.198,-0.934
155324,6324.0,4708.0,6618.0,790.0,-1559.0,1486.0,0.171,-0.265,-0.204,-0.927
155346,6348.0,4346.0,6562.0,766.0,-1631.0,1290.0,0.18,-0.281,-0.21,-0.919
155358,6528.0,4112.0,6410.0,762.0,-1638.0,1151.0,0.188,-0.296,-0.216,-0.911
155380,6714.0,3778.0,6382.0,708.0,-1676.0,1179.0,0.196,-0.311,-0.221,-0.903
155392,6574.0,3510.0,6366.0,695.0,-1689.0,1233.0,0.205,-0.327,-0.226,-0.894
155414,6552.0,3348.0,6350.0,701.0,-1733.0,1219.0,0.213,-0.342,-0.232,-0.885
155436,6674.0,3214.0,6454.0,675.0,-1775.0,1233.0,0.221,-0.358,-0.237,-0.876
155448,6700.0,3034.0,6606.0,679.0,-1796.0,1259.0,0.23,-0.374,-0.242,-0.865
155470,6768.0,3324.0,6922.0,574.0,-1832.0,1219.0,0.237,-0.391,-0.246,-0.855
155482,6978.0,3318.0,7126.0,478.0,-1845.0,1166.0,0.243,-0.407,-0.249,-0.844
155504,7022.0,3236.0,7342.0,426.0,-1826.0,1083.0,0.249,-0.423,-0.252,-0.834
155516,7098.0,3816.0,7544.0,228.0,-1824.0,958.0,0.252,-0.439,-0.254,-0.824
155538,7124.0,4162.0,7826.0,-95.0,-1790.0,830.0,0.254,-0.455,-0.254,-0.815
155560,7118.0,4360.0,7988.0,-333.0,-1681.0,688.0,0.253,-0.47,-0.252,-0.807
155572,7018.0,4140.0,7872.0,-500.0,-1515.0,508.0,0.251,-0.484,-0.25,-0.8
155594,7072.0,4078.0,7710.0,-586.0,-1325.0,313.0,0.247,-0.496,-0.247,-0.795
155606,7052.0,4250.0,7806.0,-747.0,-1138.0,122.0,0.242,-0.506,-0.243,-0.791
155628,6876.0,4028.0,8978.0,-832.0,-909.0,-152.0,0.235,-0.515,-0.24,-0.789
155640,6882.0,3444.0,9798.0,-723.0,-584.0,-407.0,0.227,-0.52,-0.237,-0.789
155662,6838.0,3374.0,9742.0,-533.0,-178.0,-574.0,0.219,-0.521,-0.237,-0.79
155674,6750.0,4020.0,9672.0,-391.0,190.0,-716.0,0.212,-0.519,-0.237,-0.794
155696,6472.0,4984.0,10628.0,-292.0,540.0,-879.0,0.205,-0.513,-0.238,-0.799
155708,7236.0,4712.0,12520.0,-237.0,950.0,-889.0,0.2,-0.505,-0.238,-0.805
155730,7472.0,4212.0,12426.0,-193.0,1461.0,-1013.0,0.194,-0.492,-0.239,-0.814
155752,7168.0,5316.0,10740.0,-254.0,1866.0,-1155.0,0.188,-0.475,-0.239,-0.825
155764,7562.0,6262.0,10598.0,-704.0,1984.0,-1339.0,0.179,-0.458,-0.236,-0.838
155786,8620.0,5144.0,11176.0,-895.0,2215.0,-1376.0,0.17,-0.439,-0.231,-0.851
155798,9160.0,5078.0,10604.0,-974.0,2471.0,-1468.0,0.159,-0.418,-0.225,-0.866
155820,9630.0,5552.0,9944.0,-1273.0,2625.0,-1540.0,0.147,-0.395,-0.217,-0.88
155832,10028.0,4992.0,10254.0,-1463.0,2820.0,-1507.0,0.135,-0.371,-0.206,-0.895
155854,10386.0,4444.0,10148.0,-1472.0,2985.0,-1475.0,0.124,-0.345,-0.195,-0.91
155866,10894.0,4532.0,9470.0,-1497.0,3084.0,-1473.0,0.112,-0.317,-0.184,-0.924
155888,11020.0,4362.0,8838.0,-1509.0,3215.0,-1404.0,0.101,-0.289,-0.171,-0.937
155900,11026.0,3958.0,8870.0,-1424.0,3328.0,-1303.0,0.091,-0.259,-0.159,-0.948
155922,10834.0,4508.0,8462.0,-1447.0,3447.0,-1173.0,0.082,-0.227,-0.146,-0.959
155944,10374.0,30.0,8072.0,-1176.0,3468.0,-1619.0,0.07,-0.195,-0.136,-0.969
155956,10800.0,5612.0,7294.0,-1325.0,3671.0,-805.0,0.065,-0.161,-0.123,-0.977
155978,9624.0,2738.0,6768.0,-1436.0,3460.0,-1019.0,0.058,-0.129,-0.11,-0.984
155990,9484.0,3036.0,5990.0,-1374.0,3169.0,-1105.0,0.049,-0.1,-0.097,-0.989
156012,9232.0,1340.0,5408.0,-1033.0,3206.0,-605.0,0.046,-0.07,-0.086,-0.993
156024,8830.0,3272.0,5314.0,-598.0,3462.0,250.0,0.051,-0.039,-0.079,-0.995
156046,7032.0,3464.0,5222.0,-526.0,3235.0,-449.0,0.049,-0.008,-0.073,-0.996
156068,7422.0,2996.0,5548.0,-575.0,2987.0,-439.0,0.046,0.019,-0.066,-0.997
156080,6738.0,2320.0,5106.0,-456.0,3008.0,-706.0,0.042,0.046,-0.061,-0.996
156102,6286.0,2294.0,4498.0,-426.0,2910.0,-913.0,0.035,0.072,-0.056,-0.995
156114,5728.0,1342.0,4066.0,-416.0,2842.0,-1074.0,0.027,0.098,-0.05,-0.994
156136,4784.0,806.0,3582.0,-326.0,2803.0,-1330.0,0.016,0.125,-0.045,-0.991
156148,4086.0,1018.0,3140.0,-511.0,2664.0,-1241.0,0.006,0.15,-0.039,-0.988
156170,3534.0,574.0,2892.0,-708.0,2552.0,-1090.0,0.002,-0.174,0.031,0.984
156182,2936.0,-168.0,2568.0,-748.0,2412.0,-1460.0,0.013,-0.196,0.021,0.98
156204,2456.0,-1664.0,1944.0,-571.0,2288.0,-1842.0,0.029,-0.217,0.013,0.976
156216,1546.0,-2422.0,798.0,-397.0,2162.0,-1864.0,0.045,-0.237,0.006,0.97
156238,420.0,-2902.0,-468.0,-408.0,1871.0,-1663.0,0.059,-0.255,-0.0,0.965
156260,-458.0,-3648.0,-1096.0,-412.0,1473.0,-1469.0,0.071,-0.268,-0.007,0.961
156272,-1190.0,-4786.0,-1978.0,-341.0,1009.0,-1281.0,0.082,-0.277,-0.012,0.957
156294,-1740.0,-6028.0,-1996.0,-155.0,514.0,-953.0,0.091,-0.282,-0.016,0.955
156306,-1902.0,-6264.0,-1664.0,213.0,7.0,-495.0,0.096,-0.282,-0.015,0.955
156328,-1666.0,-5950.0,-1324.0,418.0,-465.0,-25.0,0.097,-0.277,-0.012,0.956
156340,-1144.0,-5636.0,-828.0,607.0,-874.0,407.0,0.096,-0.269,-0.006,0.958
156362,-564.0,-4424.0,-430.0,854.0,-1204.0,889.0,0.09,-0.257,0.003,0.962
156374,-100.0,-2626.0,122.0,1061.0,-1491.0,1165.0,0.083,-0.243,0.014,0.966
156396,788.0,-944.0,788.0,1239.0,-1758.0,1286.0,0.075,-0.226,0.027,0.971
156408,1712.0,116.0,1842.0,1485.0,-1935.0,1301.0,0.067,-0.207,0.042,0.975
156430,2164.0,-176.0,3384.0,1400.0,-2279.0,1437.0,0.058,-0.185,0.056,0.979
156452,2642.0,518.0,4348.0,1456.0,-2464.0,1337.0,0.05,-0.16,0.071,0.983
156464,2962.0,1762.0,4684.0,1546.0,-2628.0,1114.0,0.045,-0.135,0.085,0.986
156486,3154.0,3292.0,5150.0,1404.0,-2822.0,1046.0,0.039,-0.107,0.098,0.989
156498,3736.0,3748.0,6704.0,1236.0,-3018.0,941.0,0.035,-0.077,0.11,0.99
156520,4616.0,3438.0,7788.0,1199.0,-3125.0,921.0,0.031,-0.047,0.121,0.991
156532,5208.0,3406.0,8456.0,1289.0,-3154.0,1045.0,0.026,-0.016,0.132,0.991
156554,5192.0,4310.0,8556.0,1446.0,-3161.0,1069.0,0.021,0.015,0.145,0.989
156566,5796.0,4832.0,9062.0,1423.0,-3270.0,1152.0,0.015,0.047,0.157,0.986
156588,6672.0,3950.0,9414.0,1513.0,-3294.0,1646.0,0.004,0.08,0.17,0.982
156610,7598.0,3698.0,9458.0,1597.0,-3009.0,2688.0,0.016,-0.112,-0.182,-0.977
156622,7844.0,1932.0,8910.0,1344.0,-3023.0,2825.0,0.038,-0.144,-0.191,-0.97
156644,8572.0,9034.0,8468.0,874.0,-2775.0,3900.0,0.069,-0.176,-0.195,-0.963
156656,6598.0,3236.0,8170.0,1162.0,-3060.0,1661.0,0.079,-0.206,-0.204,-0.954
156678,10278.0,5216.0,8574.0,1149.0,-2906.0,3365.0,0.105,-0.237,-0.21,-0.943
156690,8334.0,6506.0,8812.0,635.0,-2425.0,3732.0,0.134,-0.265,-0.209,-0.932
156712,7342.0,5510.0,8844.0,410.0,-2707.0,2312.0,0.149,-0.292,-0.21,-0.921
156734,8912.0,4720.0,8640.0,471.0,-2670.0,1546.0,0.158,-0.318,-0.213,-0.91
156746,8752.0,4948.0,8352.0,369.0,-2396.0,1483.0,0.167,-0.34,-0.215,-0.9
156768,8442.0,4344.0,8100.0,300.0,-2270.0,1256.0,0.173,-0.361,-0.217,-0.89
156780,8414.0,4090.0,7690.0,408.0,-2103.0,1051.0,0.179,-0.38,-0.22,-0.88
156802,8392.0,3930.0,7496.0,606.0,-1952.0,892.0,0.184,-0.397,-0.225,-0.87
156814,8316.0,3236.0,7308.0,990.0,-1736.0,847.0,0.191,-0.411,-0.233,-0.86
156836,8228.0,3474.0,7328.0,1391.0,-1530.0,911.0,0.2,-0.423,-0.243,-0.85
156848,8028.0,4092.0,7442.0,1552.0,-1335.0,990.0,0.21,-0.433,-0.254,-0.839
156870,7642.0,4658.0,7514.0,1450.0,-1166.0,984.0,0.221,-0.442,-0.263,-0.829
156882,7224.0,5126.0,7420.0,1158.0,-1068.0,888.0,0.23,-0.45,-0.271,-0.82
156904,7070.0,5128.0,7218.0,757.0,-1025.0,904.0,0.237,-0.458,-0.275,-0.811
156926,6870.0,4962.0,7022.0,372.0,-942.0,943.0,0.243,-0.467,-0.276,-0.804
156938,6580.0,4542.0,7024.0,60.0,-912.0,779.0,0.247,-0.476,-0.275,-0.798
156960,6586.0,4064.0,6892.0,-129.0,-844.0,547.0,0.248,-0.484,-0.273,-0.794
156972,6568.0,3812.0,6816.0,-189.0,-733.0,264.0,0.247,-0.49,-0.272,-0.79
156994,6518.0,3522.0,6664.0,-193.0,-605.0,-15.0,0.244,-0.495,-0.272,-0.788
157006,6684.0,3522.0,6550.0,-153.0,-458.0,-270.0,0.24,-0.498,-0.273,-0.787
157028,6840.0,3588.0,6844.0,-126.0,-314.0,-487.0,0.235,-0.5,-0.275,-0.787
157040,7396.0,3844.0,7078.0,-112.0,-106.0,-614.0,0.229,-0.499,-0.277,-0.788
157062,7384.0,3798.0,6686.0,-30.0,187.0,-709.0,0.224,-0.496,-0.28,-0.791
157074,7412.0,3860.0,6672.0,156.0,458.0,-1001.0,0.219,-0.49,-0.284,-0.795
157096,7734.0,3916.0,6978.0,537.0,748.0,-1316.0,0.213,-0.48,-0.293,-0.799
157118,8070.0,4134.0,6632.0,944.0,1100.0,-1614.0,0.209,-0.465,-0.305,-0.805
157130,8166.0,4518.0,6468.0,1335.0,1457.0,-1862.0,0.204,-0.446,-0.32,-0.81
157152,8040.0,5698.0,6318.0,1820.0,1779.0,-2197.0,0.201,-0.422,-0.339,-0.816
157164,8096.0,6656.0,5732.0,2091.0,2050.0,-2455.0,0.197,-0.395,-0.361,-0.822
157186,8100.0,6742.0,5410.0,1995.0,2235.0,-2495.0,0.192,-0.365,-0.381,-0.827
157198,7906.0,6946.0,4920.0,1979.0,2437.0,-2458.0,0.189,-0.334,-0.4,-0.832
157225,7408.0,7582.0,4814.0,2015.0,2513.0,-2609.0,0.184,-0.301,-0.419,-0.837
157237,7044.0,7616.0,5032.0,1765.0,2407.0,-2798.0,0.177,-0.268,-0.436,-0.841
157249,6912.0,6930.0,4558.0,1663.0,2334.0,-2936.0,0.167,-0.235,-0.453,-0.844
157271,6392.0,7214.0,4336.0,1625.0,2274.0,-2995.0,0.157,-0.201,-0.468,-0.846
157293,5990.0,7030.0,3982.0,1335.0,2048.0,-3020.0,0.145,-0.17,-0.481,-0.848
157305,5412.0,7044.0,3428.0,974.0,1769.0,-3001.0,0.131,-0.141,-0.491,-0.85
157327,4784.0,7312.0,3918.0,132.0,1463.0,-2937.0,0.114,-0.115,-0.494,-0.854
157339,4310.0,3778.0,3788.0,-1918.0,868.0,-2241.0,0.098,-0.1,-0.48,-0.866
157361,6164.0,572.0,4082.0,-2027.0,1224.0,-2192.0,0.085,-0.083,-0.463,-0.878
157373,2896.0,5794.0,3332.0,-879.0,1597.0,-2338.0,0.072,-0.061,-0.457,-0.885
157395,2654.0,7266.0,1424.0,-1081.0,1036.0,-2093.0,0.059,-0.044,-0.449,-0.891
157417,2570.0,5794.0,742.0,-1501.0,683.0,-1874.0,0.045,-0.032,-0.437,-0.898
157429,2094.0,4850.0,1238.0,-1651.0,389.0,-1835.0,0.031,-0.022,-0.423,-0.905
157451,1908.0,4270.0,782.0,-1677.0,-13.0,-1745.0,0.016,-0.015,-0.409,-0.912
157463,1560.0,4760.0,766.0,-1585.0,-216.0,-1678.0,0.001,-0.011,-0.396,-0.918
157485,1466.0,4686.0,1312.0,-1924.0,-472.0,-1551.0,0.015,0.009,0.379,0.925
157497,1368.0,2712.0,1306.0,-2124.0,-762.0,-1358.0,0.029,0.011,0.361,0.932
157519,1338.0,1798.0,1290.0,-1803.0,-871.0,-1255.0,0.043,0.014,0.345,0.937
157531,1450.0,1556.0,1454.0,-1364.0,-949.0,-1077.0,0.056,0.018,0.333,0.941
157553,1466.0,1146.0,1428.0,-990.0,-1070.0,-793.0,0.067,0.024,0.324,0.944
157565,1414.0,860.0,1684.0,-620.0,-1201.0,-573.0,0.075,0.033,0.318,0.945
157587,2330.0,2304.0,2230.0,-529.0,-1078.0,-416.0,0.082,0.041,0.312,0.946
157599,2960.0,5544.0,2692.0,-1841.0,-1146.0,-311.0,0.089,0.049,0.295,0.95
157621,2778.0,4390.0,4404.0,-3558.0,-1324.0,38.0,0.094,0.057,0.262,0.959
157643,3946.0,7980.0,14984.0,-4433.0,-870.0,-105.0,0.1,0.061,0.222,0.968
157655,8588.0,2294.0,18214.0,-3985.0,-1502.0,-531.0,0.11,0.07,0.185,0.974
157677,3052.0,-2798.0,14424.0,-769.0,546.0,-60.0,0.11,0.064,0.178,0.976
157689,2952.0,762.0,9672.0,573.0,564.0,-327.0,0.112,0.059,0.184,0.975
157711,3254.0,292.0,7852.0,1134.0,733.0,-136.0,0.111,0.054,0.195,0.973
157723,2458.0,952.0,6830.0,1427.0,742.0,125.0,0.108,0.049,0.208,0.971
157745,2440.0,2262.0,6812.0,1211.0,495.0,48.0,0.106,0.046,0.219,0.969
157767,3014.0,2808.0,7404.0,746.0,202.0,105.0,0.104,0.046,0.226,0.967
157779,2868.0,3740.0,7634.0,540.0,177.0,288.0,0.101,0.046,0.231,0.967
157801,2366.0,4476.0,7764.0,493.0,162.0,138.0,0.099,0.045,0.235,0.966
157813,2336.0,4274.0,7502.0,566.0,114.0,-101.0,0.099,0.045,0.241,0.964
157835,2088.0,3818.0,7056.0,641.0,142.0,-150.0,0.1,0.044,0.246,0.963
157847,1692.0,4044.0,6970.0,585.0,135.0,-174.0,0.101,0.043,0.252,0.961
157869,1628.0,4290.0,7048.0,414.0,144.0,-109.0,0.102,0.043,0.256,0.96
157881,1564.0,4570.0,7078.0,220.0,160.0,-5.0,0.101,0.042,0.258,0.96
157903,1442.0,4644.0,7122.0,120.0,189.0,83.0,0.1,0.041,0.259,0.96
157915,1266.0,4602.0,7128.0,84.0,220.0,86.0,0.098,0.039,0.26,0.96
157937,1080.0,4460.0,7108.0,54.0,251.0,94.0,0.097,0.037,0.261,0.96
157959,888.0,4188.0,7130.0,1.0,265.0,107.0,0.095,0.035,0.261,0.96
157971,880.0,3888.0,7134.0,-1.0,288.0,132.0,0.094,0.033,0.261,0.96
157993,958.0,3642.0,7230.0,39.0,315.0,188.0,0.091,0.031,0.262,0.96
158005,906.0,3558.0,7192.0,124.0,336.0,241.0,0.088,0.029,0.263,0.96
158027,764.0,3840.0,7072.0,193.0,339.0,276.0,0.085,0.027,0.265,0.96
158039,538.0,3996.0,7176.0,189.0,273.0,278.0,0.081,0.026,0.266,0.96
158061,510.0,4200.0,7384.0,154.0,240.0,233.0,0.079,0.024,0.268,0.96
158073,402.0,4208.0,7372.0,176.0,232.0,171.0,0.077,0.023,0.27,0.96
158095,348.0,4242.0,7346.0,267.0,261.0,125.0,0.075,0.021,0.272,0.959
158107,208.0,4338.0,7188.0,368.0,297.0,84.0,0.073,0.019,0.275,0.958
158129,168.0,4460.0,6950.0,385.0,300.0,63.0,0.072,0.017,0.279,0.957
158151,230.0,4578.0,6462.0,339.0,264.0,45.0,0.071,0.015,0.282,0.957
158163,182.0,4466.0,6114.0,243.0,207.0,46.0,0.07,0.013,0.285,0.956
158185,164.0,4602.0,5998.0,131.0,152.0,6.0,0.069,0.012,0.286,0.956
158197,-106.0,4654.0,5966.0,80.0,163.0,-40.0,0.069,0.011,0.287,0.955
158219,-168.0,5008.0,6086.0,110.0,147.0,-78.0,0.07,0.009,0.288,0.955
158231,-320.0,5260.0,6156.0,146.0,171.0,-87.0,0.07,0.008,0.29,0.954
158253,-516.0,5556.0,6204.0,160.0,141.0,-87.0,0.07,0.006,0.292,0.954
158265,-664.0,5984.0,6360.0,125.0,141.0,-77.0,0.071,0.005,0.293,0.953
158287,-910.0,5834.0,6550.0,-54.0,77.0,-107.0,0.072,0.004,0.293,0.953
158309,-842.0,5528.0,6802.0,-276.0,-11.0,-145.0,0.073,0.003,0.291,0.954
158321,-610.0,4768.0,7126.0,-407.0,-59.0,-171.0,0.075,0.003,0.287,0.955
158343,-418.0,4230.0,7216.0,-406.0,-86.0,-181.0,0.077,0.003,0.283,0.956
158355,-194.0,3942.0,6936.0,-333.0,-88.0,-175.0,0.078,0.003,0.28,0.957
158377,-62.0,3744.0,6882.0,-283.0,-123.0,-173.0,0.08,0.003,0.278,0.957
158389,100.0,3720.0,7174.0,-221.0,-137.0,-142.0,0.082,0.004,0.275,0.958
158411,306.0,3788.0,7314.0,-161.0,-151.0,-113.0,0.083,0.005,0.274,0.958
158423,586.0,3874.0,7304.0,-89.0,-146.0,-101.0,0.084,0.006,0.273,0.958
158445,778.0,4166.0,7156.0,-9.0,-135.0,-85.0,0.085,0.008,0.272,0.958
158467,944.0,4440.0,7014.0,24.0,-143.0,-73.0,0.086,0.009,0.273,0.958
158479,982.0,4644.0,6978.0,-8.0,-158.0,-61.0,0.087,0.01,0.272,0.958
158501,1032.0,4684.0,6944.0,-55.0,-179.0,-44.0,0.088,0.012,0.272,0.958
158513,922.0,4534.0,6844.0,-133.0,-195.0,-39.0,0.089,0.014,0.27,0.959
158535,940.0,4414.0,6784.0,-194.0,-198.0,-38.0,0.09,0.016,0.269,0.959
158547,858.0,4148.0,6940.0,-221.0,-185.0,-49.0,0.091,0.017,0.266,0.959
158569,952.0,2702.0,7922.0,173.0,-7.0,-81.0,0.091,0.018,0.268,0.959
158581,746.0,5248.0,8784.0,891.0,211.0,-21.0,0.091,0.016,0.276,0.957
158603,1480.0,6656.0,5850.0,111.0,-89.0,137.0,0.09,0.018,0.277,0.956
158615,296.0,4390.0,6128.0,-563.0,-195.0,-77.0,0.091,0.019,0.272,0.958
158637,610.0,3298.0,6946.0,-1089.0,-360.0,-144.0,0.093,0.021,0.262,0.96
158659,624.0,1304.0,7436.0,-1233.0,-342.0,-83.0,0.095,0.023,0.25,0.963
158671,962.0,642.0,7676.0,-759.0,-127.0,-10.0,0.095,0.024,0.242,0.965
158693,966.0,1332.0,8058.0,-47.0,143.0,94.0,0.094,0.023,0.241,0.966
158705,810.0,3038.0,8050.0,527.0,345.0,288.0,0.09,0.021,0.246,0.965
158727,548.0,4750.0,7446.0,675.0,387.0,536.0,0.084,0.019,0.253,0.964
158739,428.0,5038.0,6918.0,680.0,311.0,510.0,0.079,0.018,0.259,0.962
158761,722.0,5006.0,6810.0,726.0,285.0,398.0,0.075,0.017,0.266,0.961
158773,936.0,5640.0,6996.0,627.0,294.0,359.0,0.07,0.016,0.272,0.96
158795,802.0,6084.0,6630.0,299.0,183.0,362.0,0.067,0.016,0.274,0.959
158817,806.0,5530.0,5968.0,-42.0,88.0,321.0,0.063,0.016,0.274,0.959
158829,696.0,5170.0,6268.0,-87.0,63.0,279.0,0.061,0.016,0.274,0.96
158851,1420.0,3958.0,7834.0,34.0,-90.0,-42.0,0.061,0.017,0.274,0.96
158863,1430.0,2520.0,7294.0,-220.0,-177.0,-450.0,0.065,0.018,0.271,0.96
158885,-20.0,2672.0,6672.0,-515.0,39.0,165.0,0.064,0.017,0.267,0.961
158897,598.0,4030.0,6390.0,-254.0,178.0,589.0,0.058,0.017,0.265,0.962
158919,336.0,5560.0,6680.0,241.0,229.0,437.0,0.053,0.016,0.267,0.962
158931,18.0,6112.0,7144.0,235.0,114.0,371.0,0.05,0.016,0.269,0.962
158954,76.0,5682.0,7114.0,-41.0,-28.0,291.0,0.047,0.017,0.269,0.962
158966,314.0,4934.0,6836.0,-179.0,-107.0,148.0,0.046,0.019,0.267,0.962
158988,404.0,4938.0,6480.0,-258.0,-84.0,-14.0,0.046,0.019,0.265,0.963
159000,186.0,4576.0,6390.0,-488.0,-141.0,-83.0,0.047,0.02,0.261,0.964
159023,120.0,3938.0,6500.0,-635.0,-180.0,-89.0,0.049,0.021,0.255,0.965
159035,-108.0,3416.0,6694.0,-519.0,-141.0,-66.0,0.049,0.022,0.25,0.967
159058,-270.0,3388.0,7068.0,-327.0,-109.0,-34.0,0.05,0.023,0.247,0.967
159080,-398.0,3550.0,7344.0,-177.0,-72.0,-1.0,0.05,0.023,0.245,0.968
159092,-400.0,3764.0,7536.0,-98.0,-59.0,-39.0,0.051,0.023,0.245,0.968
159114,-398.0,4012.0,7584.0,-135.0,-100.0,-74.0,0.052,0.024,0.243,0.968
159126,6.0,3688.0,7684.0,-199.0,-151.0,-80.0,0.053,0.025,0.241,0.969
159148,454.0,3348.0,7726.0,-229.0,-229.0,-201.0,0.055,0.026,0.239,0.969
159160,1054.0,3086.0,7734.0,-142.0,-309.0,-419.0,0.059,0.028,0.238,0.969
159182,1462.0,2890.0,7504.0,108.0,-254.0,-454.0,0.064,0.03,0.238,0.969
159194,1620.0,3224.0,7506.0,394.0,-115.0,-265.0,0.066,0.031,0.242,0.968
159216,1908.0,3268.0,7964.0,704.0,115.0,-21.0,0.066,0.031,0.248,0.966
159233,2308.0,3606.0,8534.0,768.0,217.0,176.0,0.063,0.029,0.255,0.964
159255,2764.0,3320.0,8788.0,976.0,228.0,242.0,0.06,0.028,0.264,0.962
159267,3568.0,4856.0,9490.0,1579.0,51.0,-135.0,0.061,0.029,0.278,0.958
159289,3896.0,7218.0,9608.0,1546.0,10.0,-363.0,0.063,0.028,0.292,0.954
159301,3896.0,6746.0,9252.0,878.0,191.0,-352.0,0.066,0.026,0.3,0.951
159323,3658.0,5866.0,9324.0,268.0,620.0,-599.0,0.069,0.019,0.303,0.95
159335,3366.0,5240.0,10350.0,-139.0,1137.0,-653.0,0.071,0.007,0.302,0.951
159357,2958.0,3948.0,10772.0,-397.0,1580.0,-496.0,0.071,-0.009,0.3,0.951
159369,1852.0,3264.0,11088.0,-589.0,1974.0,-346.0,0.069,-0.028,0.296,0.952
159391,594.0,2948.0,10806.0,-963.0,2186.0,-89.0,0.063,-0.048,0.289,0.954
159403,-76.0,2748.0,9790.0,-1345.0,2257.0,213.0,0.054,-0.068,0.278,0.957
159425,-260.0,1306.0,9768.0,-1450.0,2386.0,545.0,0.042,-0.089,0.266,0.959
159447,-330.0,1086.0,9572.0,-1427.0,2545.0,890.0,0.027,-0.11,0.255,0.96
159459,-810.0,1188.0,9124.0,-1398.0,2645.0,1241.0,0.008,-0.131,0.245,0.961
159481,-1308.0,1938.0,8276.0,-1501.0,2592.0,1504.0,0.013,0.15,-0.233,-0.961
159493,-1702.0,2600.0,7286.0,-1723.0,2433.0,1729.0,0.036,0.168,-0.219,-0.96
159515,-1730.0,2912.0,6564.0,-1878.0,2272.0,1929.0,0.061,0.183,-0.204,-0.96
159527,-2090.0,2476.0,5518.0,-2081.0,2033.0,2086.0,0.087,0.196,-0.188,-0.958
159549,-2268.0,2228.0,4558.0,-2180.0,1742.0,2148.0,0.112,0.206,-0.171,-0.957
159571,-2314.0,2204.0,4102.0,-2175.0,1443.0,2139.0,0.138,0.213,-0.154,-0.955
159583,-2020.0,3020.0,4380.0,-2068.0,1113.0,2038.0,0.161,0.217,-0.138,-0.953
159605,-2108.0,3390.0,4582.0,-1895.0,846.0,1948.0,0.183,0.219,-0.124,-0.95
159617,-1866.0,3346.0,4956.0,-1682.0,608.0,1856.0,0.203,0.22,-0.112,-0.948
159639,-1920.0,2832.0,4868.0,-1457.0,415.0,1719.0,0.221,0.219,-0.102,-0.945
159651,-2512.0,2206.0,4602.0,-1267.0,189.0,1633.0,0.238,0.216,-0.094,-0.942
159673,-2612.0,1632.0,4666.0,-1097.0,-109.0,1540.0,0.253,0.211,-0.088,-0.94
159685,-2136.0,2294.0,5356.0,-949.0,-216.0,1461.0,0.267,0.206,-0.083,-0.938
159707,-1278.0,4474.0,7242.0,-902.0,-239.0,1433.0,0.28,0.2,-0.079,-0.935
159729,-204.0,5534.0,7912.0,-1003.0,-261.0,1387.0,0.294,0.194,-0.074,-0.933
159741,-3316.0,-3748.0,6728.0,-466.0,-475.0,-843.0,0.286,0.189,-0.068,-0.937
159763,1002.0,6308.0,5774.0,401.0,-86.0,888.0,0.293,0.189,-0.075,-0.934
159775,-1520.0,3598.0,6654.0,-413.0,-374.0,191.0,0.295,0.184,-0.073,-0.935
159797,-702.0,2800.0,6614.0,-158.0,-176.0,319.0,0.297,0.182,-0.073,-0.934
159809,-1006.0,3780.0,6742.0,-18.0,13.0,-91.0,0.296,0.182,-0.073,-0.935
159831,-1240.0,3838.0,6664.0,1.0,87.0,-130.0,0.295,0.183,-0.073,-0.935
159843,-1908.0,4048.0,6410.0,-219.0,-20.0,178.0,0.297,0.182,-0.072,-0.935
159865,-1990.0,3260.0,6558.0,-397.0,-135.0,311.0,0.3,0.179,-0.07,-0.934
159877,-2004.0,2054.0,6580.0,-517.0,-152.0,345.0,0.303,0.176,-0.067,-0.934
159899,-2096.0,1918.0,6590.0,-652.0,-205.0,461.0,0.308,0.172,-0.062,-0.934
159911,-2118.0,1880.0,7284.0,-799.0,-255.0,709.0,0.315,0.167,-0.057,-0.932
159933,-1486.0,1212.0,7896.0,-765.0,-223.0,877.0,0.323,0.163,-0.053,-0.931
159955,-1338.0,978.0,6428.0,-714.0,-63.0,890.0,0.332,0.159,-0.048,-0.929
159967,-1696.0,2324.0,9590.0,-573.0,177.0,1014.0,0.341,0.159,-0.044,-0.925
159989,-2322.0,2112.0,9704.0,-1092.0,168.0,146.0,0.344,0.157,-0.035,-0.925
160001,-1678.0,674.0,9812.0,-574.0,147.0,230.0,0.346,0.156,-0.03,-0.925
160023,-1898.0,750.0,9110.0,-278.0,111.0,178.0,0.348,0.156,-0.027,-0.924
160035,-1694.0,334.0,8666.0,31.0,151.0,254.0,0.35,0.157,-0.027,-0.923
160057,-1892.0,358.0,8576.0,174.0,152.0,234.0,0.351,0.159,-0.028,-0.922
160069,-1852.0,798.0,8142.0,218.0,95.0,196.0,0.352,0.16,-0.03,-0.922
160091,-1840.0,1188.0,7748.0,123.0,10.0,133.0,0.353,0.16,-0.031,-0.921
160113,-1778.0,1068.0,7524.0,-97.0,-67.0,84.0,0.354,0.159,-0.031,-0.921
160125,-1696.0,830.0,7642.0,-225.0,-70.0,95.0,0.354,0.158,-0.029,-0.921
160147,-1668.0,1034.0,8108.0,-272.0,-65.0,97.0,0.355,0.156,-0.027,-0.921
160159,-1580.0,834.0,8204.0,-224.0,-70.0,63.0,0.356,0.154,-0.026,-0.921
160181,-1624.0,744.0,8464.0,-127.0,-61.0,65.0,0.356,0.153,-0.025,-0.921
160193,-1748.0,482.0,8376.0,-23.0,-40.0,89.0,0.357,0.153,-0.025,-0.921
160215,-1842.0,776.0,8170.0,-9.0,-82.0,94.0,0.357,0.152,-0.025,-0.921
160227,-1810.0,910.0,8250.0,-59.0,-156.0,97.0,0.358,0.15,-0.025,-0.921
160249,-1460.0,648.0,7990.0,-124.0,-186.0,48.0,0.358,0.148,-0.025,-0.922
160261,-1242.0,138.0,8264.0,32.0,-110.0,77.0,0.358,0.147,-0.026,-0.922
160283,-1254.0,346.0,8110.0,194.0,0.0,56.0,0.358,0.147,-0.027,-0.922
160305,-1230.0,908.0,7458.0,186.0,-35.0,28.0,0.358,0.147,-0.029,-0.922
160317,-822.0,1410.0,7964.0,164.0,139.0,-7.0,0.357,0.149,-0.03,-0.922
160339,-1124.0,628.0,8364.0,17.0,184.0,-182.0,0.355,0.15,-0.03,-0.922
160351,-1310.0,1538.0,8516.0,-66.0,168.0,-345.0,0.352,0.151,-0.028,-0.923
160373,-1028.0,1854.0,8546.0,-13.0,160.0,-385.0,0.349,0.152,-0.027,-0.924
160385,-1392.0,1748.0,8072.0,128.0,165.0,-425.0,0.345,0.154,-0.027,-0.926
160407,-1444.0,1852.0,8022.0,181.0,147.0,-370.0,0.341,0.156,-0.028,-0.927
160419,-1278.0,1902.0,8188.0,167.0,166.0,-397.0,0.337,0.158,-0.029,-0.928
160441,-1258.0,1868.0,8020.0,147.0,132.0,-539.0,0.332,0.159,-0.029,-0.929
160463,-1492.0,1388.0,7790.0,219.0,152.0,-618.0,0.326,0.161,-0.03,-0.931
160475,-1700.0,704.0,7432.0,347.0,94.0,-642.0,0.32,0.163,-0.031,-0.933
160497,-1760.0,62.0,7148.0,511.0,18.0,-427.0,0.315,0.165,-0.035,-0.934
160509,-1646.0,-208.0,6590.0,552.0,-73.0,28.0,0.314,0.166,-0.04,-0.934
160531,-1764.0,-816.0,6082.0,672.0,-119.0,668.0,0.318,0.167,-0.048,-0.932
160543,-2708.0,2270.0,7062.0,385.0,-118.0,428.0,0.321,0.167,-0.052,-0.931
160565,-2712.0,586.0,7174.0,29.0,-291.0,-92.0,0.32,0.164,-0.053,-0.932
160577,-2580.0,550.0,7258.0,-105.0,-255.0,-112.0,0.318,0.162,-0.052,-0.933
160599,-3118.0,164.0,7396.0,-230.0,-330.0,-169.0,0.317,0.159,-0.051,-0.934
160621,-2574.0,408.0,8084.0,-251.0,-348.0,14.0,0.317,0.155,-0.049,-0.935
160633,-2524.0,1258.0,8734.0,-354.0,-391.0,86.0,0.317,0.15,-0.048,-0.935
160655,-2402.0,1070.0,9420.0,-495.0,-352.0,7.0,0.318,0.146,-0.044,-0.936
160667,-2110.0,718.0,9798.0,-523.0,-280.0,119.0,0.319,0.142,-0.041,-0.936
160689,-2302.0,830.0,9762.0,-209.0,-132.0,108.0,0.32,0.14,-0.04,-0.936
160701,-2232.0,1244.0,9360.0,98.0,-66.0,-13.0,0.319,0.14,-0.041,-0.937
160723,-2454.0,1292.0,8340.0,185.0,-96.0,-77.0,0.318,0.139,-0.043,-0.937
160735,-2458.0,950.0,7706.0,40.0,-169.0,-117.0,0.316,0.138,-0.043,-0.938
160757,-2136.0,658.0,7646.0,-10.0,-223.0,-55.0,0.315,0.136,-0.044,-0.938
160769,-1274.0,528.0,7654.0,-38.0,-253.0,-47.0,0.314,0.134,-0.044,-0.939
160791,-606.0,640.0,9284.0,-135.0,-218.0,17.0,0.314,0.131,-0.043,-0.939
160813,774.0,438.0,9636.0,-69.0,-99.0,172.0,0.316,0.13,-0.043,-0.939
160825,162.0,764.0,9036.0,165.0,59.0,9.0,0.315,0.131,-0.045,-0.939
160847,92.0,992.0,8450.0,315.0,176.0,-94.0,0.314,0.133,-0.047,-0.939
160859,-192.0,484.0,7290.0,220.0,182.0,7.0,0.313,0.135,-0.048,-0.939
160881,-656.0,858.0,6548.0,69.0,151.0,-133.0,0.312,0.137,-0.048,-0.939
160893,-400.0,618.0,6302.0,-97.0,13.0,-217.0,0.31,0.137,-0.047,-0.94
160915,86.0,1354.0,6998.0,-60.0,-23.0,-332.0,0.306,0.137,-0.046,-0.941
160927,-164.0,16.0,8296.0,-208.0,-116.0,-285.0,0.304,0.135,-0.044,-0.942
160949,-432.0,1472.0,8392.0,-225.0,-244.0,-213.0,0.302,0.132,-0.043,-0.943
160971,-938.0,1586.0,7538.0,-146.0,-191.0,-294.0,0.299,0.13,-0.042,-0.944
160983,-808.0,644.0,8046.0,-172.0,-210.0,-421.0,0.295,0.127,-0.041,-0.946
161005,-868.0,0.0,8786.0,-92.0,-37.0,-303.0,0.292,0.126,-0.039,-0.947
161017,-1432.0,572.0,8830.0,-90.0,15.0,-186.0,0.291,0.126,-0.038,-0.948
161039,-1916.0,306.0,8076.0,-53.0,-54.0,-268.0,0.288,0.125,-0.037,-0.949
161051,-2272.0,-884.0,7274.0,304.0,-63.0,-375.0,0.284,0.126,-0.039,-0.95
161073,-2042.0,-472.0,7664.0,284.0,-256.0,-201.0,0.282,0.124,-0.042,-0.951
161085,-1736.0,-596.0,8318.0,42.0,-242.0,98.0,0.282,0.122,-0.043,-0.951
161107,-2186.0,-360.0,8128.0,18.0,-160.0,16.0,0.282,0.121,-0.043,-0.951
161129,-1538.0,838.0,9078.0,63.0,-138.0,-82.0,0.281,0.12,-0.044,-0.951
161141,-1270.0,1678.0,9274.0,118.0,-118.0,23.0,0.281,0.119,-0.045,-0.951
161163,-1212.0,1448.0,8450.0,225.0,-85.0,7.0,0.28,0.119,-0.048,-0.951
161175,-1150.0,2240.0,8018.0,441.0,36.0,-181.0,0.278,0.12,-0.051,-0.952
161197,-1066.0,1524.0,8432.0,284.0,67.0,-118.0,0.276,0.121,-0.054,-0.952
161209,-1280.0,2200.0,8994.0,206.0,146.0,-75.0,0.275,0.123,-0.055,-0.952
161236,-958.0,2140.0,9626.0,267.0,208.0,-194.0,0.273,0.126,-0.057,-0.952
161248,-1338.0,3676.0,9770.0,328.0,404.0,-412.0,0.269,0.131,-0.058,-0.952
161260,-1482.0,3084.0,9042.0,298.0,602.0,-386.0,0.265,0.137,-0.059,-0.953
161282,-1842.0,3266.0,9436.0,341.0,648.0,-565.0,0.26,0.144,-0.06,-0.953
161304,-1750.0,3318.0,9278.0,407.0,565.0,-798.0,0.253,0.15,-0.061,-0.954
161316,-1390.0,4154.0,9734.0,399.0,693.0,-871.0,0.245,0.158,-0.061,-0.955
161338,-1574.0,4204.0,10378.0,452.0,830.0,-1108.0,0.234,0.167,-0.062,-0.956
161350,-2132.0,4194.0,10016.0,488.0,911.0,-1265.0,0.223,0.177,-0.062,-0.957
161372,-2498.0,4400.0,9402.0,592.0,1067.0,-1440.0,0.209,0.188,-0.063,-0.957
161384,-3010.0,3840.0,8866.0,800.0,1065.0,-1643.0,0.194,0.2,-0.065,-0.958
161406,-2770.0,4420.0,8926.0,866.0,1076.0,-1809.0,0.177,0.212,-0.068,-0.959
161418,-2602.0,4088.0,7346.0,994.0,1124.0,-1915.0,0.159,0.225,-0.071,-0.959
161441,-2966.0,3544.0,5746.0,891.0,1002.0,-2123.0,0.138,0.237,-0.074,-0.959
161453,-2940.0,4012.0,5184.0,881.0,817.0,-2310.0,0.116,0.247,-0.076,-0.959
161476,-3024.0,4304.0,4768.0,852.0,591.0,-2241.0,0.095,0.255,-0.077,-0.959
161488,-2456.0,4058.0,4638.0,996.0,349.0,-2266.0,0.072,0.26,-0.081,-0.959
161510,-2436.0,3006.0,4936.0,1145.0,132.0,-2730.0,0.045,0.264,-0.084,-0.96
161532,-2276.0,2524.0,5046.0,960.0,-83.0,-2585.0,0.019,0.266,-0.086,-0.96
161544,-2172.0,1526.0,4122.0,926.0,-220.0,-2688.0,0.007,-0.266,0.088,0.96
161566,-2318.0,1204.0,4122.0,1097.0,-370.0,-2859.0,0.036,-0.265,0.091,0.959
161578,-1880.0,926.0,5210.0,1330.0,-359.0,-2750.0,0.064,-0.263,0.096,0.958
161600,-2058.0,1154.0,5256.0,1416.0,-435.0,-2522.0,0.09,-0.261,0.102,0.956
161612,-2110.0,740.0,4944.0,1573.0,-533.0,-2423.0,0.116,-0.257,0.109,0.953
161634,-2064.0,244.0,5392.0,1586.0,-643.0,-2250.0,0.14,-0.252,0.117,0.95
161646,-1866.0,-184.0,5792.0,1453.0,-737.0,-2023.0,0.163,-0.245,0.125,0.948
161668,-1972.0,-42.0,5850.0,1368.0,-801.0,-1797.0,0.182,-0.238,0.131,0.945
161680,-1832.0,550.0,6202.0,1596.0,-867.0,-1653.0,0.202,-0.23,0.14,0.942
161702,-1296.0,1028.0,6980.0,1939.0,-914.0,-1464.0,0.22,-0.22,0.152,0.938
161724,-988.0,1150.0,7516.0,1946.0,-958.0,-1240.0,0.236,-0.209,0.164,0.935
161736,-468.0,1162.0,7720.0,1707.0,-1038.0,-1103.0,0.25,-0.197,0.175,0.932
161758,-526.0,1282.0,7828.0,1466.0,-1094.0,-1014.0,0.263,-0.185,0.182,0.929
161770,896.0,1434.0,9242.0,940.0,-1184.0,-502.0,0.271,-0.173,0.187,0.928
161792,1634.0,-3666.0,9020.0,730.0,-1662.0,-1818.0,0.291,-0.16,0.186,0.925
161804,8.0,1608.0,9590.0,934.0,-602.0,611.0,0.288,-0.152,0.193,0.926
161826,-2476.0,804.0,9314.0,1030.0,-1278.0,-303.0,0.294,-0.138,0.198,0.925
161838,296.0,-496.0,10140.0,1123.0,-1019.0,239.0,0.296,-0.126,0.205,0.924
161860,-1192.0,2146.0,11978.0,1095.0,-929.0,218.0,0.297,-0.114,0.213,0.924
161882,-168.0,1914.0,11560.0,909.0,-602.0,1087.0,0.29,-0.105,0.22,0.926
161894,-1926.0,3408.0,10502.0,574.0,-528.0,636.0,0.286,-0.097,0.224,0.927
161916,-1744.0,3364.0,9834.0,462.0,-541.0,282.0,0.285,-0.091,0.227,0.927
161928,-1674.0,2006.0,9562.0,397.0,-453.0,9.0,0.286,-0.086,0.229,0.926
161950,-1378.0,556.0,8726.0,470.0,-265.0,-195.0,0.289,-0.082,0.232,0.925
161962,-1326.0,1238.0,6702.0,676.0,-138.0,-428.0,0.293,-0.08,0.237,0.923
161984,-1086.0,2692.0,7848.0,938.0,-134.0,-496.0,0.298,-0.078,0.244,0.92
161996,-1466.0,732.0,8906.0,705.0,-39.0,-361.0,0.302,-0.076,0.249,0.917
162018,-2336.0,4618.0,7880.0,1300.0,270.0,213.0,0.3,-0.074,0.261,0.914
162040,-2268.0,3078.0,6884.0,1514.0,214.0,131.0,0.3,-0.072,0.275,0.911
162052,-3096.0,3156.0,7360.0,1900.0,469.0,200.0,0.298,-0.07,0.292,0.906
162074,-4376.0,5018.0,8130.0,2211.0,543.0,-15.0,0.298,-0.068,0.312,0.899
162086,-3074.0,5492.0,7218.0,2134.0,612.0,-16.0,0.298,-0.068,0.332,0.893
162108,-3316.0,5162.0,6394.0,1931.0,757.0,91.0,0.296,-0.068,0.35,0.886
162120,-3344.0,5184.0,6436.0,1756.0,803.0,378.0,0.291,-0.069,0.367,0.881
162142,-3266.0,5856.0,5946.0,1796.0,769.0,551.0,0.285,-0.069,0.384,0.875
162154,-3238.0,5348.0,4392.0,1737.0,614.0,667.0,0.278,-0.067,0.4,0.87
162176,-2940.0,6930.0,4018.0,1220.0,425.0,855.0,0.27,-0.064,0.412,0.868
162188,-2410.0,6868.0,4380.0,695.0,295.0,943.0,0.262,-0.061,0.42,0.867
162210,-2376.0,5556.0,4710.0,625.0,194.0,688.0,0.256,-0.058,0.426,0.866
162232,-1558.0,4456.0,5502.0,759.0,172.0,493.0,0.252,-0.056,0.432,0.864
162244,-866.0,2890.0,6354.0,1132.0,330.0,633.0,0.246,-0.053,0.442,0.861
162266,-1410.0,6390.0,5120.0,1804.0,637.0,600.0,0.239,-0.052,0.459,0.854
162278,-2148.0,8396.0,3824.0,1759.0,493.0,362.0,0.234,-0.05,0.474,0.847
162300,-1892.0,8322.0,3250.0,1201.0,252.0,116.0,0.233,-0.049,0.484,0.842
162312,-1678.0,8140.0,2862.0,716.0,8.0,64.0,0.232,-0.047,0.49,0.839
162334,-1500.0,8006.0,3210.0,166.0,-246.0,47.0,0.233,-0.044,0.491,0.838
162346,-1554.0,7524.0,3862.0,-240.0,-319.0,125.0,0.233,-0.042,0.489,0.84
162368,-1616.0,7246.0,4228.0,-381.0,-245.0,71.0,0.233,-0.04,0.485,0.842
162390,-1392.0,6844.0,4282.0,-768.0,-152.0,129.0,0.232,-0.04,0.479,0.846
162402,-1708.0,5782.0,4450.0,-775.0,-135.0,95.0,0.232,-0.04,0.472,0.849
162424,-1494.0,5634.0,4872.0,-536.0,-67.0,142.0,0.23,-0.04,0.468,0.852
162436,-1618.0,5468.0,4952.0,-97.0,-30.0,156.0,0.229,-0.039,0.467,0.853
162458,-1786.0,6260.0,4726.0,207.0,78.0,200.0,0.227,-0.039,0.469,0.853
162470,-1900.0,6372.0,4650.0,366.0,165.0,216.0,0.225,-0.038,0.472,0.852
162492,-2056.0,6704.0,4402.0,419.0,251.0,208.0,0.222,-0.038,0.476,0.85
162504,-2030.0,7106.0,4250.0,335.0,209.0,164.0,0.22,-0.039,0.479,0.849
162526,-1940.0,6950.0,4272.0,215.0,166.0,86.0,0.218,-0.039,0.481,0.848
162538,-1914.0,6740.0,4266.0,135.0,127.0,76.0,0.217,-0.039,0.483,0.848
162560,-1870.0,6496.0,4336.0,130.0,77.0,145.0,0.215,-0.039,0.484,0.847
162582,-1848.0,6518.0,4310.0,125.0,66.0,262.0,0.213,-0.038,0.485,0.847
162594,-1682.0,6580.0,4408.0,144.0,54.0,270.0,0.211,-0.037,0.486,0.847
162616,-1684.0,6610.0,4254.0,227.0,109.0,188.0,0.209,-0.036,0.488,0.847
162628,-1974.0,6838.0,4156.0,293.0,101.0,78.0,0.207,-0.036,0.491,0.845
162650,-1740.0,6432.0,4520.0,618.0,90.0,75.0,0.207,-0.035,0.496,0.843
162662,-1626.0,6566.0,4566.0,966.0,138.0,21.0,0.206,-0.035,0.504,0.838
162684,-1548.0,6854.0,4162.0,1267.0,265.0,-36.0,0.205,-0.034,0.514,0.832
162696,-1926.0,7874.0,3486.0,1215.0,319.0,-289.0,0.206,-0.036,0.524,0.826
162718,-2364.0,7736.0,3448.0,996.0,321.0,-457.0,0.208,-0.039,0.532,0.82
162740,-2360.0,7712.0,3696.0,999.0,381.0,-556.0,0.211,-0.042,0.54,0.814
162752,-2318.0,7736.0,3622.0,1015.0,475.0,-537.0,0.213,-0.047,0.549,0.807
162774,-3020.0,7290.0,3300.0,590.0,476.0,-464.0,0.214,-0.052,0.554,0.803
162786,-2546.0,6930.0,2650.0,-19.0,235.0,-335.0,0.215,-0.055,0.554,0.802
162808,-2820.0,6570.0,2346.0,-272.0,166.0,-183.0,0.215,-0.058,0.552,0.803
162820,-2832.0,6570.0,2244.0,-495.0,123.0,-119.0,0.215,-0.061,0.549,0.805
162842,-2678.0,5760.0,2330.0,-521.0,51.0,-106.0,0.215,-0.063,0.545,0.808
162854,-2314.0,5236.0,2422.0,-253.0,55.0,-66.0,0.215,-0.064,0.543,0.809
162876,-2432.0,6480.0,2570.0,127.0,83.0,37.0,0.215,-0.064,0.544,0.808
162898,-2358.0,7576.0,2868.0,476.0,169.0,7.0,0.214,-0.065,0.548,0.806
162910,-2628.0,7980.0,2596.0,615.0,200.0,-125.0,0.214,-0.065,0.554,0.802
162932,-2468.0,7752.0,2762.0,691.0,236.0,-230.0,0.215,-0.067,0.559,0.798
162944,-2288.0,7998.0,3134.0,-65.0,-97.0,-10.0,0.215,-0.066,0.558,0.798
162966,-2218.0,7298.0,2996.0,-214.0,-103.0,33.0,0.215,-0.066,0.557,0.8
162978,-2660.0,7490.0,2846.0,-306.0,-133.0,39.0,0.215,-0.065,0.554,0.801
163000,-2598.0,7446.0,2858.0,-221.0,-113.0,95.0,0.215,-0.064,0.553,0.803
163012,-2496.0,7720.0,3348.0,-208.0,-115.0,125.0,0.214,-0.063,0.551,0.804
163034,-2524.0,8090.0,3048.0,-470.0,-82.0,137.0,0.213,-0.063,0.547,0.807
163046,-2934.0,7872.0,2944.0,-733.0,-139.0,168.0,0.212,-0.062,0.542,0.811
163068,-2918.0,7584.0,2736.0,-808.0,-184.0,198.0,0.211,-0.061,0.536,0.815
163090,-2656.0,7090.0,2996.0,-803.0,-103.0,187.0,0.21,-0.061,0.529,0.82
163102,-2724.0,7358.0,3090.0,-1022.0,-49.0,13.0,0.209,-0.063,0.522,0.825
163124,-2402.0,7112.0,2810.0,-1319.0,-19.0,-80.0,0.209,-0.066,0.512,0.831
163136,-2240.0,7124.0,3198.0,-1519.0,-86.0,-93.0,0.209,-0.068,0.5,0.838
163158,-2338.0,6744.0,3910.0,-1306.0,52.0,-182.0,0.209,-0.072,0.489,0.843
163170,-2114.0,6666.0,4192.0,-1055.0,-16.0,-244.0,0.21,-0.075,0.481,0.848
163192,-2060.0,6510.0,3856.0,-802.0,25.0,-276.0,0.212,-0.078,0.475,0.851
163204,-2062.0,6102.0,3734.0,-493.0,10.0,-372.0,0.214,-0.081,0.471,0.852
163226,-1948.0,6072.0,4158.0,-552.0,-48.0,-117.0,0.215,-0.082,0.466,0.854
163243,-2154.0,5360.0,4580.0,-589.0,-103.0,-91.0,0.215,-0.082,0.461,0.857
163265,-1666.0,5740.0,5182.0,-555.0,-147.0,-8.0,0.215,-0.082,0.456,0.86
163277,-1556.0,6230.0,5344.0,-575.0,-108.0,83.0,0.215,-0.082,0.451,0.862
163299,-1558.0,5746.0,5288.0,-527.0,-139.0,3.0,0.215,-0.082,0.447,0.865
163311,-1562.0,5104.0,5034.0,-432.0,-113.0,-2.0,0.215,-0.082,0.443,0.867
163333,-1590.0,4958.0,4746.0,-256.0,-104.0,2.0,0.215,-0.081,0.441,0.868
163345,-1870.0,4928.0,4834.0,-85.0,-80.0,21.0,0.215,-0.081,0.44,0.868
163367,-1804.0,5344.0,5022.0,24.0,-20.0,-9.0,0.215,-0.08,0.44,0.868
163379,-1770.0,6180.0,5132.0,45.0,1.0,91.0,0.214,-0.08,0.44,0.868
163401,-1954.0,6322.0,4962.0,103.0,67.0,24.0,0.214,-0.08,0.441,0.868
163423,-2102.0,6652.0,4896.0,58.0,63.0,-125.0,0.215,-0.081,0.442,0.867
163435,-2128.0,6408.0,4894.0,-17.0,-10.0,-254.0,0.217,-0.082,0.441,0.867
163457,-2220.0,6296.0,5024.0,-21.0,-42.0,-320.0,0.219,-0.083,0.441,0.866
163469,-2406.0,6532.0,4864.0,-14.0,-114.0,-326.0,0.222,-0.083,0.44,0.866
163491,-2388.0,6212.0,4912.0,24.0,-196.0,-274.0,0.225,-0.082,0.44,0.865
163503,-2180.0,6216.0,4912.0,108.0,-279.0,-102.0,0.227,-0.08,0.44,0.865
163525,-2574.0,6076.0,4400.0,175.0,-466.0,34.0,0.229,-0.076,0.441,0.865
163537,-2196.0,6870.0,5210.0,264.0,-348.0,138.0,0.229,-0.072,0.442,0.864
163559,-2458.0,7020.0,5068.0,145.0,-237.0,137.0,0.229,-0.069,0.443,0.864
163581,-2504.0,6372.0,4822.0,-64.0,-223.0,79.0,0.229,-0.067,0.442,0.865
163593,-2424.0,6558.0,4618.0,-184.0,-191.0,112.0,0.229,-0.065,0.441,0.866
163615,-2568.0,6306.0,4430.0,-292.0,-234.0,67.0,0.229,-0.064,0.438,0.867
163627,-2362.0,6090.0,4562.0,-367.0,-270.0,44.0,0.229,-0.062,0.434,0.869
163649,-2196.0,5798.0,4982.0,-375.0,-245.0,66.0,0.23,-0.061,0.431,0.871
163661,-2222.0,5512.0,5180.0,-306.0,-216.0,95.0,0.229,-0.059,0.428,0.872
163683,-2044.0,5948.0,5150.0,-187.0,-169.0,124.0,0.229,-0.058,0.426,0.873
163695,-1952.0,5796.0,5118.0,-69.0,-142.0,81.0,0.229,-0.056,0.425,0.874
163717,-1754.0,6294.0,5056.0,-4.0,-114.0,73.0,0.228,-0.055,0.425,0.874
163739,-1756.0,6362.0,5106.0,-77.0,-98.0,37.0,0.228,-0.054,0.424,0.875
163751,-1702.0,6312.0,5286.0,-106.0,-88.0,1.0,0.228,-0.054,0.423,0.875
163773,-1804.0,6270.0,5184.0,-154.0,-94.0,-35.0,0.229,-0.053,0.422,0.876
163785,-1862.0,5828.0,5100.0,-155.0,-93.0,-33.0,0.229,-0.053,0.42,0.876
163807,-1868.0,5862.0,5124.0,-135.0,-98.0,-27.0,0.23,-0.052,0.419,0.877
163819,-1872.0,5742.0,5100.0,-102.0,-93.0,-14.0,0.23,-0.052,0.418,0.877
163841,-1888.0,5718.0,5322.0,-42.0,-84.0,-23.0,0.23,-0.051,0.417,0.878
163853,-1808.0,5906.0,5372.0,3.0,-54.0,-33.0,0.231,-0.051,0.417,0.877
163875,-1914.0,5856.0,5374.0,83.0,-4.0,-36.0,0.231,-0.051,0.418,0.877
163887,-1964.0,5860.0,5298.0,145.0,13.0,5.0,0.231,-0.05,0.419,0.877
163909,-1998.0,6086.0,5260.0,137.0,-9.0,-2.0,0.231,-0.05,0.42,0.876
163931,-1988.0,6064.0,5274.0,103.0,-33.0,-28.0,0.231,-0.05,0.421,0.876
163943,-2032.0,6002.0,5270.0,14.0,-43.0,-27.0,0.232,-0.049,0.421,0.876
163965,-1880.0,5832.0,5416.0,19.0,-18.0,-4.0,0.232,-0.049,0.421,0.876
163977,-1974.0,5920.0,5324.0,38.0,20.0,-23.0,0.232,-0.049,0.421,0.875
163999,-1974.0,5872.0,5172.0,45.0,18.0,-27.0,0.232,-0.049,0.422,0.875
164011,-2008.0,6026.0,5098.0,-14.0,-5.0,-8.0,0.232,-0.049,0.422,0.875
164033,-1866.0,5888.0,5324.0,-71.0,-8.0,9.0,0.232,-0.049,0.421,0.876
164045,-1902.0,5900.0,5352.0,-47.0,22.0,19.0,0.231,-0.049,0.421,0.876
164067,-2028.0,6022.0,5210.0,-43.0,31.0,18.0,0.231,-0.05,0.421,0.876
164089,-2048.0,5902.0,5306.0,-50.0,23.0,33.0,0.231,-0.05,0.42,0.876
164101,-1912.0,5936.0,5230.0,-29.0,26.0,36.0,0.23,-0.05,0.42,0.876
164123,-1882.0,5978.0,5262.0,-29.0,15.0,41.0,0.23,-0.05,0.42,0.877
164135,-1776.0,5882.0,5158.0,-10.0,30.0,30.0,0.229,-0.05,0.42,0.877
164157,-1888.0,6086.0,5210.0,-62.0,26.0,17.0,0.229,-0.05,0.419,0.877
164169,-1884.0,6090.0,5134.0,-105.0,23.0,22.0,0.228,-0.05,0.419,0.878
164191,-2006.0,6020.0,5104.0,-116.0,18.0,17.0,0.228,-0.051,0.418,0.878
164203,-1938.0,6054.0,5148.0,-114.0,10.0,19.0,0.227,-0.051,0.417,0.879
164225,-1936.0,6008.0,5194.0,-93.0,-4.0,31.0,0.227,-0.051,0.416,0.879
164247,-1878.0,6016.0,5164.0,-55.0,1.0,27.0,0.227,-0.051,0.416,0.879
164259,-1922.0,6184.0,5172.0,-77.0,-20.0,5.0,0.227,-0.051,0.415,0.88
164281,-1842.0,5940.0,5222.0,-76.0,-23.0,-8.0,0.227,-0.051,0.415,0.88
164293,-1886.0,5930.0,5224.0,-36.0,-8.0,-17.0,0.227,-0.051,0.414,0.88
164315,-1908.0,5928.0,5102.0,-17.0,3.0,-11.0,0.227,-0.051,0.414,0.88
164327,-2046.0,5912.0,5146.0,-15.0,-3.0,-11.0,0.227,-0.051,0.414,0.88
164349,-1928.0,5784.0,5206.0,23.0,-15.0,-9.0,0.227,-0.05,0.414,0.88
164361,-2044.0,6028.0,5220.0,8.0,-7.0,-4.0,0.227,-0.05,0.414,0.88
164383,-2080.0,6000.0,5236.0,-72.0,-10.0,10.0,0.227,-0.05,0.414,0.88
164395,-2164.0,5842.0,5300.0,-83.0,-7.0,8.0,0.227,-0.05,0.413,0.881
164417,-2040.0,5758.0,5332.0,-3.0,-14.0,3.0,0.227,-0.05,0.413,0.881
164439,-1982.0,5904.0,5282.0,22.0,-12.0,6.0,0.227,-0.05,0.413,0.881
164451,-2018.0,6096.0,5080.0,-51.0,-31.0,9.0,0.227,-0.05,0.413,0.881
164473,-1774.0,5408.0,5610.0,6.0,-28.0,-5.0,0.227,-0.049,0.413,0.881
164485,-1940.0,5084.0,5592.0,418.0,64.0,-56.0,0.227,-0.049,0.416,0.879
164507,-1680.0,5388.0,5540.0,651.0,109.0,-44.0,0.227,-0.049,0.422,0.876
164519,-1804.0,5782.0,5204.0,799.0,143.0,-84.0,0.228,-0.049,0.428,0.873
164541,-2046.0,6840.0,4764.0,736.0,123.0,-111.0,0.228,-0.048,0.435,0.87
164553,-2004.0,7154.0,4966.0,411.0,51.0,-112.0,0.229,-0.048,0.438,0.868
164575,-1822.0,6240.0,4962.0,260.0,47.0,-92.0,0.23,-0.048,0.44,0.867
164597,-1944.0,6160.0,4840.0,242.0,53.0,-66.0,0.23,-0.048,0.442,0.865
164609,-1992.0,5998.0,4684.0,209.0,21.0,-47.0,0.231,-0.048,0.444,0.864
164631,-1896.0,5930.0,4750.0,150.0,2.0,-21.0,0.231,-0.048,0.445,0.864
164643,-1926.0,6036.0,4764.0,83.0,6.0,21.0,0.231,-0.048,0.446,0.864
164665,-1866.0,6316.0,4876.0,11.0,35.0,71.0,0.23,-0.048,0.446,0.864
164677,-1894.0,6600.0,4904.0,-61.0,62.0,75.0,0.229,-0.048,0.446,0.864
164699,-1784.0,6338.0,5048.0,-84.0,91.0,62.0,0.228,-0.048,0.445,0.865
164711,-1792.0,6086.0,5128.0,19.0,167.0,55.0,0.226,-0.049,0.446,0.865
164733,-1928.0,5992.0,4962.0,94.0,203.0,31.0,0.225,-0.051,0.447,0.864
164745,-1974.0,5942.0,4792.0,110.0,171.0,12.0,0.224,-0.052,0.448,0.864
164768,-1906.0,6080.0,4644.0,141.0,180.0,16.0,0.224,-0.053,0.45,0.863
164790,-2122.0,6888.0,4594.0,65.0,165.0,21.0,0.223,-0.054,0.451,0.863
164802,-2246.0,6758.0,4672.0,-30.0,114.0,5.0,0.222,-0.055,0.451,0.863
164824,-2196.0,6464.0,4554.0,-77.0,101.0,21.0,0.221,-0.056,0.451,0.863
164836,-2408.0,6388.0,4458.0,-127.0,55.0,60.0,0.22,-0.056,0.45,0.864
164858,-2386.0,6292.0,4570.0,-179.0,-8.0,58.0,0.22,-0.056,0.448,0.865
164870,-2270.0,6030.0,4770.0,-173.0,-44.0,48.0,0.219,-0.056,0.447,0.865
164892,-2154.0,6164.0,4866.0,-126.0,-29.0,62.0,0.219,-0.056,0.446,0.866
164904,-2022.0,6290.0,4932.0,-92.0,-5.0,62.0,0.218,-0.056,0.445,0.867
164926,-1942.0,6270.0,4928.0,-62.0,11.0,50.0,0.218,-0.056,0.445,0.867
164938,-1952.0,6250.0,4862.0,-33.0,14.0,40.0,0.217,-0.055,0.445,0.867
164960,-1854.0,6252.0,4776.0,-52.0,30.0,31.0,0.217,-0.056,0.444,0.868
164982,-1830.0,6230.0,4820.0,-72.0,25.0,-5.0,0.216,-0.056,0.444,0.868
164994,-1810.0,6254.0,4948.0,-57.0,23.0,-13.0,0.216,-0.056,0.443,0.868
165016,-1772.0,6158.0,4978.0,7.0,35.0,-30.0,0.216,-0.056,0.443,0.868
165028,-1836.0,6236.0,4952.0,72.0,53.0,-53.0,0.216,-0.057,0.444,0.868
165050,-1894.0,6214.0,4880.0,108.0,56.0,-57.0,0.217,-0.057,0.445,0.867
165062,-1962.0,6200.0,4788.0,117.0,60.0,-51.0,0.217,-0.058,0.446,0.866
165084,-1988.0,6296.0,4708.0,90.0,56.0,-60.0,0.217,-0.058,0.447,0.866
165096,-2022.0,6282.0,4738.0,62.0,44.0,-67.0,0.217,-0.059,0.447,0.866
165118,-2070.0,6206.0,4718.0,65.0,34.0,-60.0,0.217,-0.059,0.448,0.865
165140,-2104.0,6320.0,4780.0,53.0,41.0,-41.0,0.217,-0.059,0.449,0.865
165152,-2114.0,6276.0,4812.0,24.0,44.0,-28.0,0.217,-0.06,0.449,0.865
165174,-2102.0,6290.0,4742.0,2.0,61.0,-17.0,0.217,-0.06,0.449,0.865
165186,-2210.0,6268.0,4772.0,-6.0,48.0,4.0,0.217,-0.061,0.449,0.865
165208,-2156.0,6240.0,4768.0,-4.0,48.0,10.0,0.216,-0.061,0.449,0.865
165220,-2130.0,6236.0,4812.0,-26.0,41.0,9.0,0.216,-0.061,0.449,0.865
165247,-2082.0,6258.0,4788.0,-28.0,42.0,11.0,0.216,-0.062,0.449,0.865
165259,-2046.0,6146.0,4812.0,-18.0,38.0,2.0,0.216,-0.062,0.449,0.865
165271,-2128.0,6204.0,4802.0,7.0,36.0,-4.0,0.215,-0.062,0.449,0.865
165293,-2120.0,6226.0,4784.0,21.0,32.0,-4.0,0.215,-0.062,0.449,0.865
165315,-2176.0,6262.0,4714.0,25.0,29.0,-14.0,0.215,-0.062,0.449,0.865
165327,-2148.0,6246.0,4678.0,21.0,18.0,-10.0,0.215,-0.062,0.45,0.865
165349,-2144.0,6332.0,4700.0,19.0,10.0,-10.0,0.215,-0.062,0.45,0.865
165361,-2152.0,6280.0,4700.0,13.0,2.0,-8.0,0.215,-0.062,0.45,0.864
165383,-2102.0,6340.0,4696.0,19.0,2.0,-8.0,0.215,-0.062,0.45,0.864
165395,-2114.0,6286.0,4720.0,17.0,-4.0,-5.0,0.215,-0.062,0.45,0.864
165417,-2196.0,6320.0,4726.0,16.0,-7.0,-4.0,0.215,-0.062,0.45,0.864
165429,-2114.0,6302.0,4742.0,-2.0,-14.0,1.0,0.215,-0.062,0.45,0.864
165451,-2080.0,6250.0,4712.0,-18.0,-11.0,1.0,0.215,-0.062,0.45,0.864
165473,-2120.0,6248.0,4752.0,-22.0,-12.0,1.0,0.215,-0.062,0.45,0.864
165485,-2042.0,6244.0,4842.0,-19.0,-1.0,2.0,0.215,-0.062,0.45,0.865
165507,-2112.0,6270.0,4832.0,11.0,20.0,3.0,0.215,-0.062,0.45,0.865
165519,-2104.0,6284.0,4744.0,20.0,29.0,13.0,0.215,-0.062,0.45,0.864
165541,-2102.0,6266.0,4754.0,14.0,34.0,20.0,0.214,-0.062,0.451,0.864
165553,-2124.0,6184.0,4730.0,6.0,24.0,20.0,0.214,-0.062,0.451,0.864
165575,-2068.0,6226.0,4748.0,-1.0,5.0,16.0,0.214,-0.062,0.451,0.865
165587,-2044.0,6238.0,4730.0,-1.0,0.0,9.0,0.214,-0.062,0.451,0.865
165609,-2044.0,6256.0,4724.0,6.0,1.0,8.0,0.214,-0.062,0.451,0.865
165621,-2086.0,6308.0,4732.0,4.0,-1.0,8.0,0.213,-0.061,0.451,0.865
165643,-2040.0,6306.0,4722.0,7.0,4.0,8.0,0.213,-0.061,0.451,0.865
165665,-2090.0,6300.0,4728.0,17.0,-6.0,7.0,0.213,-0.061,0.451,0.865
165677,-2054.0,6262.0,4724.0,46.0,-22.0,15.0,0.213,-0.061,0.451,0.864
165699,-2050.0,6268.0,4694.0,42.0,-31.0,22.0,0.213,-0.06,0.452,0.864
165711,-2102.0,6242.0,4724.0,26.0,-45.0,21.0,0.213,-0.06,0.452,0.864
165733,-2030.0,6170.0,4790.0,41.0,-47.0,7.0,0.213,-0.059,0.452,0.864
165745,-2196.0,6264.0,4562.0,32.0,-65.0,0.0,0.213,-0.059,0.452,0.864
165767,-2028.0,6498.0,4682.0,-34.0,-64.0,7.0,0.213,-0.058,0.452,0.864
165779,-2116.0,6374.0,4668.0,-83.0,-39.0,11.0,0.213,-0.058,0.451,0.865
165801,-2062.0,6332.0,4846.0,-103.0,-35.0,35.0,0.213,-0.058,0.45,0.865
165823,-2056.0,6082.0,4884.0,-31.0,-10.0,36.0,0.213,-0.057,0.45,0.865
165835,-2004.0,6188.0,4908.0,37.0,5.0,29.0,0.212,-0.057,0.45,0.865
165857,-1982.0,6232.0,4764.0,50.0,9.0,28.0,0.212,-0.057,0.451,0.865
165869,-2024.0,6300.0,4636.0,23.0,-4.0,40.0,0.212,-0.057,0.451,0.865
165891,-1998.0,6408.0,4664.0,-38.0,-35.0,39.0,0.211,-0.056,0.451,0.866
165903,-1902.0,6230.0,4858.0,-53.0,-33.0,40.0,0.211,-0.056,0.45,0.866
165925,-1830.0,6156.0,4922.0,30.0,27.0,20.0,0.211,-0.056,0.45,0.866
165937,-1938.0,6034.0,4806.0,141.0,82.0,5.0,0.21,-0.056,0.452,0.865
165959,-2004.0,5972.0,4720.0,212.0,119.0,-9.0,0.21,-0.057,0.454,0.864
165981,-1940.0,6506.0,4600.0,202.0,130.0,-29.0,0.21,-0.057,0.456,0.863
165993,-2090.0,7032.0,4472.0,36.0,107.0,-58.0,0.21,-0.058,0.456,0.863
166015,-1948.0,6558.0,4692.0,-73.0,81.0,-55.0,0.209,-0.059,0.456,0.863
166027,-1954.0,6476.0,4822.0,-6.0,108.0,-40.0,0.209,-0.06,0.456,0.863
166049,-2092.0,5998.0,4704.0,120.0,95.0,-42.0,0.209,-0.061,0.457,0.862
166061,-2052.0,6016.0,4500.0,143.0,78.0,-33.0,0.209,-0.062,0.458,0.862
166083,-2128.0,6266.0,4290.0,-5.0,46.0,-27.0,0.209,-0.062,0.458,0.862
166095,-2180.0,6258.0,4566.0,-119.0,6.0,-18.0,0.209,-0.062,0.457,0.862
166117,-2122.0,6434.0,4802.0,-77.0,5.0,-1.0,0.209,-0.062,0.457,0.863
166129,-2168.0,6548.0,4844.0,-12.0,19.0,11.0,0.209,-0.063,0.457,0.863
166151,-2190.0,6496.0,4700.0,12.0,19.0,5.0,0.208,-0.063,0.457,0.863
166173,-2154.0,6324.0,4648.0,11.0,16.0,6.0,0.208,-0.063,0.457,0.862
166185,-2070.0,6226.0,4624.0,11.0,-2.0,6.0,0.208,-0.062,0.457,0.862
166207,-2048.0,6202.0,4648.0,-8.0,-18.0,0.0,0.208,-0.062,0.457,0.863
166219,-2006.0,6274.0,4654.0,-22.0,-13.0,5.0,0.208,-0.062,0.457,0.863
166241,-2086.0,6266.0,4608.0,-30.0,-9.0,7.0,0.208,-0.062,0.457,0.863
166253,-2070.0,6340.0,4750.0,-17.0,-7.0,9.0,0.208,-0.062,0.456,0.863
166275,-2120.0,6376.0,4678.0,-8.0,2.0,7.0,0.208,-0.062,0.456,0.863
166287,-2096.0,6346.0,4662.0,1.0,-1.0,2.0,0.208,-0.062,0.456,0.863
166309,-2004.0,6308.0,4732.0,19.0,5.0,-1.0,0.208,-0.062,0.457,0.863
166331,-2080.0,6394.0,4652.0,5.0,12.0,-9.0,0.207,-0.062,0.457,0.863
166343,-2006.0,6308.0,4616.0,-4.0,1.0,-7.0,0.207,-0.062,0.457,0.863
166365,-2042.0,6296.0,4642.0,-2.0,2.0,3.0,0.207,-0.062,0.457,0.863
166377,-2034.0,6288.0,4646.0,1.0,0.0,9.0,0.207,-0.062,0.457,0.863
166399,-2112.0,6330.0,4662.0,-2.0,-3.0,3.0,0.207,-0.062,0.457,0.863
166411,-2022.0,6388.0,4640.0,-4.0,-8.0,0.0,0.207,-0.062,0.457,0.863
166433,-2096.0,6324.0,4740.0,9.0,-14.0,0.0,0.207,-0.061,0.457,0.863
166445,-2068.0,6316.0,4690.0,18.0,-19.0,-4.0,0.207,-0.061,0.457,0.863
166467,-2100.0,6358.0,4660.0,-3.0,-16.0,-3.0,0.207,-0.061,0.457,0.863
166479,-2126.0,6310.0,4632.0,-24.0,-24.0,-1.0,0.207,-0.061,0.456,0.863
166502,-2100.0,6204.0,4638.0,2.0,-32.0,10.0,0.207,-0.06,0.456,0.863
166524,-2082.0,6392.0,4732.0,-6.0,-24.0,17.0,0.207,-0.06,0.456,0.863
166536,-2066.0,6318.0,4712.0,-12.0,-11.0,11.0,0.207,-0.06,0.456,0.863
166558,-2086.0,6256.0,4752.0,4.0,-3.0,13.0,0.207,-0.06,0.456,0.863
166570,-2070.0,6340.0,4710.0,14.0,-5.0,15.0,0.207,-0.06,0.456,0.863
166592,-2080.0,6290.0,4562.0,3.0,-18.0,14.0,0.207,-0.059,0.456,0.863
166604,-2054.0,6334.0,4644.0,-11.0,-29.0,13.0,0.206,-0.059,0.456,0.864
166626,-2002.0,6314.0,4688.0,-11.0,-31.0,18.0,0.206,-0.059,0.456,0.864
166638,-1984.0,6336.0,4694.0,3.0,-28.0,12.0,0.206,-0.058,0.456,0.864
166660,-1964.0,6342.0,4700.0,-1.0,-16.0,11.0,0.206,-0.058,0.456,0.864
166672,-1938.0,6368.0,4672.0,3.0,-8.0,13.0,0.206,-0.058,0.456,0.864
166694,-1932.0,6388.0,4716.0,5.0,-6.0,11.0,0.206,-0.058,0.456,0.864
166716,-1968.0,6378.0,4688.0,9.0,-2.0,7.0,0.206,-0.058,0.456,0.864
166728,-1966.0,6364.0,4638.0,12.0,-4.0,2.0,0.206,-0.058,0.456,0.864
166750,-1968.0,6346.0,4688.0,12.0,-3.0,-10.0,0.206,-0.057,0.456,0.864
166762,-1956.0,6326.0,4656.0,16.0,-5.0,-10.0,0.206,-0.057,0.457,0.864
166784,-1964.0,6346.0,4712.0,22.0,-5.0,-3.0,0.206,-0.057,0.457,0.864
166796,-2028.0,6358.0,4736.0,22.0,-2.0,-2.0,0.206,-0.057,0.457,0.863
166818,-1974.0,6388.0,4644.0,23.0,4.0,-3.0,0.206,-0.057,0.457,0.863
166830,-2008.0,6392.0,4636.0,11.0,-1.0,7.0,0.206,-0.057,0.457,0.863
166852,-2026.0,6332.0,4608.0,6.0,-11.0,13.0,0.205,-0.057,0.457,0.863
166874,-2006.0,6382.0,4620.0,0.0,-9.0,15.0,0.205,-0.057,0.457,0.863
166886,-1966.0,6362.0,4698.0,7.0,-12.0,12.0,0.205,-0.056,0.457,0.863
166908,-1982.0,6364.0,4632.0,20.0,-4.0,11.0,0.205,-0.056,0.457,0.863
166920,-2010.0,6324.0,4606.0,19.0,-16.0,9.0,0.205,-0.056,0.458,0.863
166942,-1988.0,6344.0,4580.0,18.0,-22.0,7.0,0.205,-0.056,0.458,0.863
166954,-1984.0,6370.0,4594.0,17.0,-25.0,7.0,0.205,-0.055,0.458,0.863
166976,-2034.0,6410.0,4646.0,1.0,-24.0,8.0,0.205,-0.055,0.458,0.863
166988,-1934.0,6396.0,4678.0,2.0,-21.0,12.0,0.205,-0.055,0.458,0.863
167010,-2010.0,6348.0,4662.0,6.0,-22.0,13.0,0.205,-0.055,0.458,0.863
167022,-1970.0,6414.0,4656.0,-6.0,-40.0,17.0,0.205,-0.054,0.458,0.863
167045,-1928.0,6408.0,4666.0,-23.0,-43.0,19.0,0.205,-0.054,0.458,0.864
167057,-1886.0,6364.0,4654.0,-28.0,-48.0,15.0,0.205,-0.053,0.457,0.864
167080,-1914.0,6306.0,4638.0,1.0,-44.0,23.0,0.205,-0.053,0.457,0.864
167102,-1908.0,6344.0,4622.0,21.0,-36.0,22.0,0.205,-0.052,0.457,0.864
167114,-1920.0,6364.0,4612.0,23.0,-34.0,26.0,0.204,-0.052,0.457,0.864
167136,-1884.0,6372.0,4760.0,4.0,-19.0,27.0,0.204,-0.051,0.457,0.864
167148,-1972.0,6360.0,4718.0,32.0,3.0,28.0,0.204,-0.051,0.458,0.864
167170,-1928.0,6372.0,4666.0,66.0,5.0,28.0,0.204,-0.051,0.458,0.864
167182,-1944.0,6386.0,4648.0,71.0,1.0,32.0,0.203,-0.051,0.459,0.863
167204,-1902.0,6370.0,4584.0,62.0,7.0,30.0,0.203,-0.05,0.459,0.863
167216,-1918.0,6430.0,4626.0,35.0,7.0,23.0,0.203,-0.05,0.46,0.863
167238,-1882.0,6370.0,4736.0,42.0,16.0,28.0,0.203,-0.05,0.46,0.863
167255,-1940.0,6398.0,4650.0,66.0,13.0,23.0,0.202,-0.05,0.461,0.863
167277,-1872.0,6374.0,4642.0,74.0,9.0,28.0,0.202,-0.05,0.461,0.862
167289,-1856.0,6338.0,4638.0,73.0,21.0,36.0,0.202,-0.049,0.462,0.862
167311,-1856.0,6334.0,4648.0,82.0,34.0,28.0,0.201,-0.049,0.463,0.862
167323,-1870.0,6326.0,4592.0,110.0,37.0,29.0,0.201,-0.049,0.464,0.861
167345,-1898.0,6484.0,4554.0,123.0,37.0,32.0,0.201,-0.049,0.465,0.861
167357,-1860.0,6508.0,4550.0,114.0,31.0,30.0,0.2,-0.049,0.466,0.861
167379,-1878.0,6506.0,4608.0,114.0,35.0,33.0,0.2,-0.049,0.467,0.86
167391,-1834.0,6486.0,4544.0,141.0,55.0,32.0,0.2,-0.049,0.468,0.86
167413,-1904.0,6530.0,4444.0,142.0,55.0,26.0,0.199,-0.049,0.469,0.859
167425,-1914.0,6586.0,4406.0,138.0,49.0,31.0,0.199,-0.048,0.471,0.858
167447,-1814.0,6564.0,4382.0,116.0,46.0,19.0,0.198,-0.048,0.472,0.858
167469,-1846.0,6598.0,4372.0,84.0,29.0,7.0,0.198,-0.048,0.472,0.857
167481,-1896.0,6578.0,4336.0,45.0,9.0,-1.0,0.198,-0.048,0.473,0.857
167503,-1874.0,6636.0,4344.0,3.0,-5.0,-5.0,0.198,-0.048,0.473,0.857
167515,-1866.0,6570.0,4442.0,-32.0,2.0,-5.0,0.198,-0.048,0.473,0.857
167537,-1798.0,6576.0,4546.0,-36.0,34.0,-16.0,0.198,-0.049,0.472,0.857
167549,-1882.0,6440.0,4512.0,7.0,46.0,-21.0,0.198,-0.049,0.472,0.857
167571,-1878.0,6492.0,4422.0,32.0,36.0,-19.0,0.198,-0.049,0.473,0.857
167583,-1866.0,6560.0,4290.0,30.0,22.0,-21.0,0.198,-0.049,0.473,0.857
167605,-1886.0,6590.0,4326.0,-22.0,6.0,-37.0,0.199,-0.049,0.473,0.857
167627,-1832.0,6706.0,4474.0,-52.0,14.0,-48.0,0.199,-0.05,0.473,0.857
167639,-1828.0,6580.0,4498.0,-29.0,40.0,-56.0,0.199,-0.05,0.472,0.857
167661,-1932.0,6524.0,4520.0,6.0,56.0,-42.0,0.199,-0.051,0.472,0.857
167673,-1904.0,6540.0,4486.0,25.0,63.0,-27.0,0.199,-0.051,0.473,0.857
167695,-1812.0,6506.0,4484.0,14.0,72.0,-21.0,0.199,-0.052,0.473,0.857
167707,-1912.0,6446.0,4430.0,-9.0,68.0,-32.0,0.198,-0.053,0.473,0.857
167729,-1878.0,6430.0,4442.0,-11.0,59.0,-39.0,0.198,-0.053,0.473,0.857
167741,-1956.0,6514.0,4516.0,30.0,66.0,-45.0,0.198,-0.054,0.473,0.857
167763,-1912.0,6564.0,4418.0,56.0,75.0,-48.0,0.198,-0.055,0.474,0.856
167785,-2026.0,6542.0,4388.0,65.0,69.0,-55.0,0.198,-0.055,0.475,0.856
167797,-2014.0,6562.0,4356.0,73.0,71.0,-51.0,0.198,-0.056,0.475,0.855
167819,-2062.0,6600.0,4308.0,64.0,69.0,-49.0,0.199,-0.056,0.476,0.855
167831,-2124.0,6530.0,4310.0,29.0,55.0,-47.0,0.199,-0.057,0.476,0.855
167853,-2046.0,6586.0,4378.0,-27.0,61.0,-43.0,0.199,-0.058,0.476,0.855
167865,-2058.0,6524.0,4366.0,-57.0,58.0,-26.0,0.198,-0.058,0.476,0.855
167887,-1980.0,6440.0,4416.0,-41.0,60.0,-10.0,0.198,-0.059,0.476,0.855
167899,-1964.0,6460.0,4386.0,-8.0,77.0,-11.0,0.198,-0.059,0.476,0.855
167921,-1972.0,6536.0,4340.0,1.0,72.0,-23.0,0.198,-0.06,0.476,0.855
167933,-1990.0,6558.0,4370.0,1.0,72.0,-30.0,0.197,-0.061,0.476,0.855
167955,-2026.0,6652.0,4414.0,20.0,79.0,-38.0,0.197,-0.061,0.476,0.855
167977,-2090.0,6616.0,4376.0,30.0,72.0,-41.0,0.197,-0.062,0.477,0.854
167989,-2072.0,6622.0,4288.0,12.0,58.0,-43.0,0.197,-0.063,0.477,0.854
168011,-2056.0,6530.0,4270.0,-1.0,39.0,-33.0,0.197,-0.063,0.477,0.854
168023,-2122.0,6572.0,4244.0,-29.0,32.0,-30.0,0.197,-0.063,0.477,0.854
168045,-2136.0,6494.0,4344.0,-30.0,22.0,-25.0,0.197,-0.064,0.476,0.854
168057,-2158.0,6494.0,4376.0,-22.0,33.0,-26.0,0.197,-0.064,0.476,0.854
168079,-2146.0,6502.0,4432.0,-28.0,32.0,-30.0,0.197,-0.065,0.476,0.855
168091,-2162.0,6546.0,4398.0,-38.0,37.0,-23.0,0.197,-0.065,0.476,0.855
168113,-2148.0,6512.0,4388.0,-58.0,28.0,-19.0,0.197,-0.065,0.475,0.855
168135,-2116.0,6504.0,4338.0,-63.0,25.0,-18.0,0.197,-0.066,0.475,0.855
168147,-2196.0,6494.0,4384.0,-69.0,7.0,-9.0,0.197,-0.066,0.474,0.855
168169,-2116.0,6488.0,4468.0,-62.0,9.0,-9.0,0.197,-0.066,0.474,0.856
168181,-2146.0,6532.0,4456.0,-55.0,22.0,-13.0,0.197,-0.066,0.474,0.856
168203,-2138.0,6472.0,4468.0,-48.0,23.0,-14.0,0.197,-0.067,0.473,0.856
168215,-2128.0,6390.0,4364.0,-41.0,27.0,-2.0,0.197,-0.067,0.473,0.856
168237,-2120.0,6438.0,4360.0,-30.0,12.0,-4.0,0.197,-0.067,0.473,0.856
168249,-2152.0,6414.0,4420.0,-23.0,3.0,-4.0,0.197,-0.067,0.473,0.856
168271,-2130.0,6360.0,4594.0,10.0,-2.0,-17.0,0.197,-0.067,0.473,0.856
168293,-2168.0,6454.0,4446.0,47.0,-25.0,-19.0,0.197,-0.067,0.473,0.856
168305,-2268.0,6630.0,4360.0,15.0,-78.0,-20.0,0.197,-0.066,0.473,0.856
168327,-2170.0,6522.0,4354.0,-9.0,-127.0,-9.0,0.198,-0.065,0.473,0.856
168339,-2168.0,6494.0,4432.0,-22.0,-149.0,10.0,0.198,-0.064,0.472,0.856
168361,-2084.0,6524.0,4276.0,-35.0,-159.0,13.0,0.199,-0.063,0.472,0.857
168373,-2122.0,6810.0,4248.0,-150.0,-188.0,20.0,0.199,-0.061,0.47,0.858
168395,-2062.0,6546.0,4408.0,-251.0,-218.0,23.0,0.2,-0.06,0.468,0.859
168407,-1984.0,6440.0,4432.0,-214.0,-200.0,14.0,0.201,-0.058,0.466,0.86
168429,-1840.0,6754.0,4422.0,-247.0,-168.0,-1.0,0.201,-0.057,0.464,0.861
168441,-1836.0,6774.0,4596.0,-306.0,-151.0,-34.0,0.202,-0.057,0.461,0.862
168463,-1778.0,6258.0,4660.0,-261.0,-123.0,-61.0,0.203,-0.057,0.458,0.863
168485,-1882.0,6344.0,4674.0,-198.0,-110.0,-66.0,0.203,-0.056,0.457,0.864
168497,-1856.0,6082.0,4724.0,-171.0,-84.0,-57.0,0.204,-0.056,0.455,0.865
168519,-1924.0,6092.0,4738.0,-180.0,-33.0,-57.0,0.205,-0.056,0.453,0.866
168531,-2164.0,6244.0,4624.0,-193.0,-13.0,-50.0,0.205,-0.057,0.452,0.866
168553,-2224.0,6224.0,4856.0,-262.0,-31.0,-20.0,0.205,-0.057,0.45,0.867
168565,-2126.0,6106.0,4900.0,-264.0,-15.0,9.0,0.205,-0.057,0.448,0.869
168587,-2220.0,6262.0,4796.0,-299.0,-13.0,34.0,0.205,-0.058,0.445,0.87
168599,-2218.0,6118.0,4764.0,-342.0,-18.0,49.0,0.204,-0.058,0.442,0.871
168621,-2202.0,6232.0,4752.0,-400.0,-73.0,55.0,0.204,-0.058,0.439,0.873
168643,-2030.0,5964.0,5204.0,-415.0,-103.0,74.0,0.204,-0.057,0.436,0.875
168655,-1604.0,5066.0,5402.0,-111.0,-33.0,57.0,0.203,-0.057,0.434,0.876
168677,-2056.0,5800.0,5246.0,219.0,64.0,20.0,0.203,-0.057,0.436,0.875
168689,-1708.0,5806.0,5046.0,320.0,111.0,16.0,0.203,-0.057,0.439,0.873
168711,-1912.0,6420.0,4752.0,277.0,128.0,9.0,0.202,-0.057,0.442,0.872
168723,-1974.0,6582.0,4772.0,175.0,70.0,-36.0,0.202,-0.058,0.443,0.871
168745,-1894.0,6314.0,5022.0,189.0,42.0,-36.0,0.202,-0.058,0.445,0.871
168757,-1890.0,6164.0,4948.0,255.0,56.0,-40.0,0.203,-0.058,0.447,0.869
168779,-1952.0,6194.0,4748.0,267.0,59.0,-44.0,0.203,-0.058,0.449,0.868
168791,-2058.0,6154.0,4672.0,227.0,47.0,-29.0,0.203,-0.058,0.451,0.867
168814,-2002.0,6222.0,4638.0,147.0,39.0,7.0,0.203,-0.058,0.452,0.867
168826,-2026.0,6488.0,4604.0,43.0,63.0,23.0,0.202,-0.058,0.453,0.866
168849,-2044.0,6540.0,4820.0,-1.0,60.0,2.0,0.202,-0.058,0.453,0.866
168871,-2040.0,6302.0,4880.0,83.0,85.0,1.0,0.202,-0.059,0.454,0.866
168883,-2028.0,6466.0,4670.0,61.0,92.0,9.0,0.201,-0.059,0.455,0.866
168905,-2034.0,6168.0,4666.0,17.0,98.0,15.0,0.201,-0.06,0.455,0.866
168917,-2056.0,5948.0,4572.0,13.0,72.0,5.0,0.2,-0.061,0.455,0.866
168939,-2092.0,6300.0,4736.0,33.0,46.0,32.0,0.2,-0.061,0.455,0.865
168951,-1960.0,6372.0,4798.0,60.0,42.0,27.0,0.199,-0.061,0.456,0.865
168973,-2040.0,6516.0,4748.0,76.0,54.0,17.0,0.199,-0.061,0.457,0.865
168985,-2050.0,6472.0,4700.0,79.0,55.0,2.0,0.199,-0.061,0.458,0.865
169007,-2040.0,6438.0,4590.0,63.0,42.0,-16.0,0.199,-0.061,0.458,0.864
169019,-2006.0,6348.0,4576.0,26.0,30.0,-27.0,0.199,-0.062,0.458,0.864
169041,-2050.0,6320.0,4566.0,4.0,15.0,-19.0,0.199,-0.062,0.458,0.864
169063,-2002.0,6350.0,4676.0,-2.0,17.0,-11.0,0.199,-0.062,0.458,0.864
169075,-1990.0,6316.0,4612.0,7.0,20.0,-10.0,0.199,-0.062,0.459,0.864
169097,-2038.0,6272.0,4580.0,21.0,26.0,-3.0,0.199,-0.062,0.459,0.864
169109,-2018.0,6442.0,4652.0,21.0,26.0,0.0,0.198,-0.062,0.459,0.864
169131,-2062.0,6368.0,4648.0,22.0,18.0,-3.0,0.198,-0.062,0.459,0.864
169143,-2108.0,6400.0,4548.0,13.0,16.0,-10.0,0.198,-0.062,0.459,0.864
169165,-2090.0,6370.0,4642.0,-19.0,15.0,2.0,0.198,-0.062,0.459,0.864
169177,-2100.0,6346.0,4684.0,-16.0,10.0,6.0,0.198,-0.062,0.459,0.864
169199,-2100.0,6196.0,4704.0,1.0,16.0,14.0,0.198,-0.062,0.459,0.864
169221,-2060.0,6254.0,4636.0,35.0,27.0,17.0,0.198,-0.062,0.46,0.864
169233,-2076.0,6364.0,4588.0,27.0,11.0,17.0,0.197,-0.062,0.46,0.864
169260,-2016.0,6388.0,4586.0,9.0,8.0,16.0,0.197,-0.062,0.46,0.864
169272,-2048.0,6414.0,4642.0,7.0,2.0,12.0,0.197,-0.062,0.46,0.864
169284,-2030.0,6406.0,4628.0,10.0,3.0,6.0,0.197,-0.062,0.46,0.864
169306,-2032.0,6404.0,4650.0,12.0,-9.0,6.0,0.197,-0.062,0.46,0.864
169318,-2012.0,6342.0,4674.0,10.0,2.0,5.0,0.197,-0.062,0.46,0.863
169340,-2068.0,6302.0,4616.0,15.0,6.0,5.0,0.197,-0.062,0.46,0.863
169352,-2072.0,6382.0,4614.0,7.0,2.0,9.0,0.197,-0.062,0.46,0.863
169374,-2036.0,6342.0,4604.0,5.0,8.0,15.0,0.196,-0.062,0.461,0.863
169396,-2030.0,6386.0,4580.0,-4.0,7.0,14.0,0.196,-0.062,0.461,0.863
169408,-1994.0,6348.0,4654.0,-9.0,9.0,13.0,0.196,-0.062,0.461,0.864
169430,-1988.0,6348.0,4626.0,-14.0,2.0,11.0,0.196,-0.062,0.46,0.864
169442,-2014.0,6406.0,4620.0,-1.0,10.0,10.0,0.196,-0.062,0.46,0.864
169464,-2008.0,6408.0,4596.0,-5.0,9.0,12.0,0.195,-0.061,0.46,0.864
169476,-1990.0,6384.0,4616.0,-10.0,9.0,12.0,0.195,-0.061,0.46,0.864
169498,-1970.0,6404.0,4630.0,-10.0,15.0,14.0,0.195,-0.061,0.46,0.864
169510,-1976.0,6416.0,4570.0,-12.0,18.0,16.0,0.195,-0.061,0.46,0.864
169532,-2008.0,6390.0,4598.0,-20.0,14.0,17.0,0.194,-0.062,0.46,0.864
169554,-2022.0,6364.0,4644.0,-35.0,10.0,8.0,0.194,-0.062,0.46,0.864
169566,-1960.0,6366.0,4640.0,-29.0,11.0,8.0,0.194,-0.062,0.46,0.864
169588,-2038.0,6350.0,4668.0,-26.0,7.0,-5.0,0.194,-0.062,0.46,0.865
169600,-2040.0,6334.0,4662.0,-25.0,7.0,-4.0,0.194,-0.062,0.459,0.865
169622,-2050.0,6368.0,4664.0,-24.0,0.0,-5.0,0.194,-0.062,0.459,0.865
169634,-2030.0,6360.0,4604.0,-38.0,-3.0,15.0,0.194,-0.062,0.459,0.865
169656,-2146.0,6404.0,4604.0,-67.0,-13.0,13.0,0.194,-0.062,0.458,0.865
169668,-2050.0,6348.0,4642.0,-84.0,-27.0,14.0,0.194,-0.061,0.458,0.866
169690,-2082.0,6358.0,4694.0,-94.0,-36.0,15.0,0.194,-0.061,0.457,0.866
169702,-1996.0,6300.0,4704.0,-83.0,-31.0,19.0,0.194,-0.061,0.456,0.866
169724,-1988.0,6292.0,4708.0,-58.0,-26.0,20.0,0.193,-0.061,0.456,0.867
169746,-1986.0,6300.0,4700.0,-40.0,-14.0,10.0,0.193,-0.061,0.455,0.867
169758,-1960.0,6344.0,4746.0,-27.0,-5.0,10.0,0.193,-0.06,0.455,0.867
169780,-1960.0,6302.0,4726.0,-19.0,-3.0,4.0,0.193,-0.06,0.455,0.867
169792,-1972.0,6310.0,4636.0,-37.0,3.0,1.0,0.193,-0.06,0.455,0.867
169814,-1962.0,6310.0,4698.0,-57.0,2.0,8.0,0.193,-0.06,0.454,0.868
169826,-1966.0,6352.0,4668.0,-66.0,-2.0,3.0,0.193,-0.06,0.454,0.868
169848,-2000.0,6380.0,4742.0,-77.0,3.0,4.0,0.193,-0.06,0.453,0.868
169860,-1972.0,6330.0,4718.0,-77.0,2.0,10.0,0.193,-0.06,0.452,0.869
169882,-1954.0,6326.0,4750.0,-76.0,12.0,2.0,0.192,-0.061,0.452,0.869
169904,-1984.0,6272.0,4798.0,-64.0,11.0,3.0,0.192,-0.061,0.451,0.869
169916,-2006.0,6226.0,4758.0,-56.0,6.0,8.0,0.192,-0.061,0.451,0.87
169938,-1926.0,6316.0,4818.0,-48.0,5.0,2.0,0.192,-0.061,0.451,0.87
169950,-1968.0,6316.0,4804.0,-48.0,6.0,3.0,0.192,-0.061,0.45,0.87
169972,-1968.0,6274.0,4818.0,-48.0,9.0,1.0,0.192,-0.061,0.45,0.87
169984,-1950.0,6238.0,4788.0,-49.0,11.0,2.0,0.192,-0.061,0.449,0.87
170006,-1914.0,6234.0,4756.0,-27.0,16.0,-7.0,0.192,-0.061,0.449,0.87
170018,-2032.0,6240.0,4772.0,-27.0,13.0,-4.0,0.191,-0.061,0.449,0.871
170040,-1938.0,6338.0,4818.0,-36.0,7.0,-5.0,0.192,-0.061,0.449,0.871
170062,-2004.0,6252.0,4848.0,-28.0,13.0,-2.0,0.191,-0.062,0.449,0.871
170074,-2018.0,6200.0,4814.0,-17.0,13.0,3.0,0.191,-0.062,0.448,0.871
170096,-1978.0,6294.0,4824.0,3.0,8.0,-1.0,0.191,-0.062,0.449,0.871
170108,-1974.0,6256.0,4842.0,6.0,6.0,-5.0,0.191,-0.062,0.449,0.871
170130,-1960.0,6254.0,4848.0,10.0,9.0,-2.0,0.191,-0.062,0.449,0.871
170142,-1964.0,6304.0,4806.0,9.0,8.0,-11.0,0.191,-0.062,0.449,0.871
170164,-1950.0,6230.0,4856.0,4.0,5.0,-15.0,0.191,-0.062,0.449,0.871
170176,-1974.0,6278.0,4826.0,17.0,10.0,-8.0,0.191,-0.062,0.449,0.871
170198,-1986.0,6326.0,4838.0,17.0,23.0,-4.0,0.191,-0.062,0.449,0.871
170210,-1966.0,6242.0,4768.0,3.0,16.0,-2.0,0.191,-0.062,0.449,0.871
170232,-2004.0,6230.0,4768.0,-3.0,13.0,-1.0,0.191,-0.062,0.449,0.871
170254,-1962.0,6264.0,4786.0,-8.0,5.0,-1.0,0.191,-0.062,0.449,0.871
170266,-1948.0,6272.0,4844.0,-4.0,1.0,-4.0,0.191,-0.062,0.449,0.871
170288,-1956.0,6262.0,4822.0,12.0,10.0,-4.0,0.191,-0.062,0.449,0.871
170300,-2028.0,6264.0,4796.0,8.0,3.0,-3.0,0.191,-0.062,0.449,0.871
170322,-1992.0,6288.0,4784.0,12.0,1.0,4.0,0.191,-0.062,0.449,0.87
170334,-2032.0,6308.0,4754.0,6.0,-8.0,10.0,0.191,-0.062,0.449,0.87
170356,-2048.0,6308.0,4730.0,-13.0,-19.0,17.0,0.191,-0.061,0.449,0.871
170368,-2020.0,6256.0,4764.0,-22.0,-31.0,25.0,0.191,-0.061,0.449,0.871
170390,-2020.0,6260.0,4762.0,-30.0,-39.0,32.0,0.191,-0.061,0.449,0.871
170412,-1978.0,6254.0,4776.0,-41.0,-41.0,29.0,0.19,-0.06,0.449,0.871
170424,-1944.0,6270.0,4860.0,-43.0,-42.0,30.0,0.19,-0.06,0.448,0.871
170446,-1912.0,6184.0,4878.0,-35.0,-41.0,35.0,0.19,-0.059,0.448,0.872
170458,-1904.0,6292.0,4916.0,-25.0,-35.0,37.0,0.19,-0.059,0.448,0.872
170480,-1852.0,6236.0,4896.0,-11.0,-25.0,32.0,0.19,-0.058,0.447,0.872
170492,-1818.0,6210.0,4900.0,-11.0,-13.0,30.0,0.19,-0.058,0.447,0.872
170514,-1818.0,6228.0,4878.0,-5.0,1.0,21.0,0.19,-0.058,0.447,0.872
170526,-1806.0,6194.0,4896.0,-1.0,15.0,18.0,0.189,-0.058,0.447,0.872
170548,-1788.0,6216.0,4864.0,14.0,28.0,12.0,0.189,-0.058,0.447,0.872
170570,-1800.0,6294.0,4854.0,29.0,47.0,3.0,0.189,-0.058,0.448,0.872
170582,-1846.0,6326.0,4814.0,29.0,63.0,-6.0,0.189,-0.058,0.448,0.872
170604,-1910.0,6326.0,4766.0,23.0,68.0,-19.0,0.189,-0.059,0.448,0.872
170616,-1898.0,6320.0,4792.0,10.0,63.0,-22.0,0.189,-0.059,0.449,0.872
170638,-1960.0,6266.0,4804.0,7.0,66.0,-16.0,0.188,-0.06,0.449,0.872
170650,-1974.0,6276.0,4794.0,12.0,59.0,-24.0,0.188,-0.06,0.449,0.871
170672,-1962.0,6286.0,4774.0,1.0,45.0,-23.0,0.188,-0.061,0.449,0.871
170684,-2016.0,6302.0,4760.0,-8.0,40.0,-24.0,0.188,-0.061,0.449,0.871
170706,-1990.0,6246.0,4760.0,-22.0,14.0,-17.0,0.188,-0.061,0.449,0.871
170718,-2058.0,6314.0,4780.0,-12.0,2.0,-11.0,0.188,-0.061,0.449,0.871
170740,-2030.0,6218.0,4846.0,-8.0,-11.0,-2.0,0.188,-0.061,0.449,0.871
170762,-2044.0,6214.0,4824.0,8.0,-24.0,2.0,0.188,-0.061,0.449,0.871
170774,-2004.0,6256.0,4788.0,5.0,-36.0,11.0,0.188,-0.061,0.449,0.871
170796,-1990.0,6270.0,4802.0,-5.0,-47.0,18.0,0.189,-0.06,0.449,0.872
170808,-1960.0,6262.0,4790.0,-9.0,-48.0,21.0,0.189,-0.06,0.449,0.872
170830,-1940.0,6270.0,4808.0,-14.0,-51.0,25.0,0.189,-0.059,0.448,0.872
170842,-1906.0,6280.0,4800.0,-20.0,-48.0,29.0,0.188,-0.058,0.448,0.872
170864,-1876.0,6294.0,4796.0,-17.0,-46.0,22.0,0.188,-0.058,0.448,0.872
170876,-1906.0,6236.0,4828.0,-16.0,-40.0,19.0,0.189,-0.057,0.448,0.872
170898,-1874.0,6256.0,4824.0,-20.0,-39.0,28.0,0.188,-0.057,0.448,0.872
170920,-1866.0,6268.0,4808.0,-18.0,-35.0,25.0,0.188,-0.056,0.447,0.872
170932,-1838.0,6262.0,4862.0,-14.0,-26.0,20.0,0.188,-0.056,0.447,0.873
170954,-1814.0,6242.0,4844.0,-6.0,-22.0,26.0,0.188,-0.056,0.447,0.873
170966,-1832.0,6288.0,4788.0,-5.0,-12.0,24.0,0.188,-0.055,0.447,0.873
170988,-1818.0,6290.0,4800.0,-10.0,-16.0,15.0,0.188,-0.055,0.447,0.873
171000,-1852.0,6236.0,4844.0,-15.0,-15.0,12.0,0.188,-0.055,0.447,0.873
171022,-1846.0,6240.0,4848.0,-11.0,-21.0,14.0,0.188,-0.055,0.447,0.873
171034,-1826.0,6282.0,4870.0,-1.0,-8.0,15.0,0.188,-0.054,0.447,0.873
171056,-1880.0,6274.0,4848.0,4.0,-1.0,21.0,0.188,-0.054,0.447,0.873
171068,-1858.0,6294.0,4820.0,-12.0,-4.0,21.0,0.188,-0.054,0.447,0.873
171091,-1832.0,6316.0,4812.0,-25.0,-9.0,17.0,0.187,-0.054,0.447,0.873
171103,-1866.0,6294.0,4858.0,-35.0,-16.0,13.0,0.187,-0.054,0.446,0.873
171126,-1806.0,6246.0,4896.0,-32.0,-16.0,15.0,0.187,-0.054,0.446,0.874
171148,-1798.0,6264.0,4854.0,-24.0,-17.0,19.0,0.187,-0.053,0.446,0.874
171160,-1842.0,6220.0,4854.0,-11.0,-18.0,17.0,0.187,-0.053,0.446,0.874
171182,-1784.0,6270.0,4902.0,-16.0,-15.0,26.0,0.187,-0.053,0.445,0.874
171194,-1820.0,6294.0,4872.0,-16.0,-23.0,24.0,0.187,-0.053,0.445,0.874
171216,-1782.0,6268.0,4874.0,-19.0,-18.0,29.0,0.186,-0.052,0.445,0.874
171228,-1768.0,6280.0,4964.0,-11.0,-30.0,24.0,0.186,-0.052,0.445,0.874
171250,-1710.0,6238.0,4878.0,-20.0,-22.0,20.0,0.186,-0.051,0.445,0.875
171267,-1696.0,6248.0,4924.0,-18.0,-16.0,17.0,0.186,-0.051,0.445,0.875
171279,-1716.0,6234.0,4922.0,-6.0,-14.0,11.0,0.186,-0.051,0.445,0.875
171301,-1748.0,6232.0,4926.0,5.0,-11.0,5.0,0.186,-0.051,0.445,0.875
171323,-1780.0,6282.0,4934.0,11.0,-9.0,12.0,0.186,-0.051,0.445,0.875
171335,-1736.0,6258.0,4858.0,11.0,-6.0,19.0,0.186,-0.05,0.445,0.875
171357,-1810.0,6274.0,4848.0,12.0,-16.0,17.0,0.186,-0.05,0.445,0.875
171369,-1798.0,6284.0,4884.0,10.0,-15.0,21.0,0.186,-0.05,0.445,0.875
171391,-1840.0,6280.0,4882.0,0.0,-16.0,20.0,0.186,-0.049,0.445,0.875
171403,-1764.0,6242.0,4848.0,-3.0,-20.0,21.0,0.186,-0.049,0.445,0.875
171425,-1762.0,6208.0,4846.0,-1.0,-20.0,25.0,0.185,-0.049,0.445,0.875
171437,-1674.0,6218.0,4872.0,6.0,-11.0,19.0,0.185,-0.049,0.445,0.875
171459,-1694.0,6300.0,4892.0,11.0,-4.0,18.0,0.185,-0.048,0.445,0.875
171471,-1700.0,6302.0,4860.0,18.0,9.0,16.0,0.185,-0.048,0.445,0.875
171493,-1718.0,6330.0,4832.0,14.0,13.0,2.0,0.185,-0.048,0.445,0.875
171515,-1670.0,6306.0,4818.0,-1.0,13.0,-5.0,0.185,-0.048,0.445,0.875
171527,-1690.0,6344.0,4838.0,-5.0,20.0,-14.0,0.185,-0.048,0.445,0.875
171549,-1690.0,6290.0,4844.0,-6.0,24.0,-14.0,0.185,-0.049,0.445,0.875
171561,-1684.0,6314.0,4820.0,-5.0,25.0,-14.0,0.185,-0.049,0.445,0.875
171583,-1694.0,6296.0,4884.0,-14.0,29.0,-22.0,0.185,-0.049,0.445,0.875
171595,-1720.0,6300.0,4868.0,-12.0,29.0,-22.0,0.185,-0.049,0.445,0.875
171617,-1702.0,6288.0,4872.0,-10.0,27.0,-16.0,0.185,-0.05,0.445,0.875
171629,-1744.0,6248.0,4898.0,-16.0,36.0,-20.0,0.185,-0.05,0.445,0.875
171651,-1748.0,6264.0,4886.0,-7.0,39.0,-24.0,0.185,-0.05,0.445,0.875
171673,-1796.0,6268.0,4916.0,-10.0,29.0,-16.0,0.185,-0.051,0.445,0.875
171685,-1764.0,6278.0,4916.0,-10.0,34.0,-18.0,0.185,-0.051,0.445,0.875
171707,-1806.0,6206.0,4930.0,0.0,37.0,-13.0,0.185,-0.051,0.445,0.875
171719,-1826.0,6244.0,4922.0,7.0,38.0,-17.0,0.185,-0.052,0.445,0.875
171741,-1786.0,6258.0,4918.0,10.0,37.0,-16.0,0.185,-0.052,0.445,0.875
171753,-1764.0,6214.0,4868.0,8.0,30.0,-12.0,0.185,-0.052,0.445,0.874
171775,-1764.0,6298.0,4840.0,15.0,37.0,-6.0,0.185,-0.052,0.446,0.874
171787,-1804.0,6284.0,4832.0,-3.0,27.0,-5.0,0.184,-0.052,0.446,0.874
171809,-1782.0,6258.0,4868.0,-8.0,15.0,-9.0,0.184,-0.052,0.446,0.874
171831,-1768.0,6290.0,4896.0,-5.0,15.0,-12.0,0.184,-0.053,0.446,0.874
171843,-1840.0,6280.0,4868.0,-2.0,23.0,-11.0,0.184,-0.053,0.446,0.874
171865,-1834.0,6270.0,4902.0,-2.0,20.0,-10.0,0.184,-0.053,0.446,0.874
171877,-1824.0,6284.0,4874.0,1.0,22.0,-5.0,0.184,-0.053,0.446,0.874
171899,-1788.0,6322.0,4884.0,-3.0,20.0,-12.0,0.184,-0.053,0.446,0.874
171911,-1750.0,6268.0,4844.0,-4.0,28.0,-12.0,0.184,-0.053,0.446,0.874
171933,-1798.0,6264.0,4832.0,5.0,28.0,-14.0,0.184,-0.054,0.446,0.874
171945,-1736.0,6280.0,4826.0,4.0,31.0,-16.0,0.184,-0.054,0.446,0.874
171967,-1796.0,6310.0,4834.0,7.0,33.0,-17.0,0.184,-0.054,0.446,0.874
171979,-1786.0,6338.0,4822.0,0.0,30.0,-25.0,0.184,-0.054,0.446,0.874
172001,-1816.0,6334.0,4854.0,-6.0,35.0,-23.0,0.184,-0.055,0.446,0.874
172023,-1798.0,6284.0,4826.0,-10.0,26.0,-7.0,0.184,-0.055,0.446,0.874
172035,-1820.0,6286.0,4822.0,-23.0,25.0,-16.0,0.184,-0.055,0.446,0.874
172057,-1884.0,6246.0,4894.0,-31.0,21.0,-8.0,0.184,-0.055,0.446,0.874
172069,-1874.0,6222.0,4884.0,-23.0,21.0,-15.0,0.184,-0.055,0.446,0.874
172091,-1852.0,6198.0,4868.0,-10.0,26.0,-17.0,0.184,-0.056,0.446,0.874
172103,-1876.0,6254.0,4878.0,-5.0,33.0,-15.0,0.184,-0.056,0.446,0.874
172125,-1876.0,6294.0,4884.0,4.0,28.0,-13.0,0.184,-0.056,0.446,0.874
172137,-1878.0,6256.0,4900.0,-3.0,30.0,-12.0,0.184,-0.056,0.446,0.874
172159,-1884.0,6236.0,4846.0,-2.0,23.0,-7.0,0.184,-0.057,0.446,0.874
172181,-1874.0,6282.0,4856.0,-8.0,22.0,-12.0,0.184,-0.057,0.446,0.874
172193,-1880.0,6218.0,4864.0,-11.0,21.0,-10.0,0.184,-0.057,0.446,0.874
172215,-1828.0,6228.0,4912.0,-9.0,20.0,-12.0,0.184,-0.057,0.446,0.874
172227,-1816.0,6260.0,4866.0,-16.0,20.0,-6.0,0.184,-0.057,0.445,0.874
172249,-1838.0,6236.0,4910.0,-12.0,25.0,-12.0,0.184,-0.057,0.445,0.874
172261,-1862.0,6272.0,4854.0,-13.0,24.0,-14.0,0.184,-0.058,0.445,0.874
172283,-1816.0,6238.0,4838.0,-1.0,28.0,-19.0,0.184,-0.058,0.445,0.874
172295,-1806.0,6230.0,4894.0,-6.0,33.0,-19.0,0.184,-0.058,0.445,0.874
172317,-1818.0,6226.0,4914.0,-10.0,37.0,-20.0,0.184,-0.058,0.445,0.874
172339,-1828.0,6248.0,4856.0,-8.0,36.0,-24.0,0.184,-0.059,0.445,0.874
172351,-1834.0,6184.0,4894.0,-4.0,35.0,-21.0,0.184,-0.059,0.445,0.874
172373,-1900.0,6228.0,4838.0,-1.0,30.0,-20.0,0.184,-0.059,0.445,0.874
172385,-1902.0,6222.0,4896.0,-3.0,31.0,-19.0,0.184,-0.06,0.445,0.874
172407,-1936.0,6198.0,4868.0,-3.0,32.0,-19.0,0.184,-0.06,0.445,0.874
172419,-1932.0,6232.0,4904.0,3.0,33.0,-16.0,0.184,-0.06,0.445,0.874
172441,-1930.0,6246.0,4862.0,-5.0,25.0,-20.0,0.184,-0.06,0.445,0.874
172453,-1888.0,6242.0,4838.0,2.0,23.0,-15.0,0.184,-0.061,0.446,0.874
172475,-1920.0,6240.0,4834.0,-8.0,26.0,-14.0,0.184,-0.061,0.446,0.874
172487,-1910.0,6226.0,4850.0,-4.0,19.0,-12.0,0.184,-0.061,0.446,0.874
172509,-1876.0,6228.0,4878.0,2.0,21.0,-18.0,0.184,-0.061,0.446,0.874
172531,-1936.0,6230.0,4872.0,-2.0,20.0,-11.0,0.184,-0.061,0.446,0.874
172543,-1942.0,6254.0,4834.0,-10.0,16.0,-9.0,0.184,-0.061,0.446,0.874
172565,-1918.0,6246.0,4900.0,-10.0,11.0,-14.0,0.184,-0.061,0.445,0.874
172577,-1908.0,6238.0,4892.0,-6.0,7.0,-15.0,0.184,-0.062,0.445,0.874
172599,-1912.0,6226.0,4854.0,1.0,15.0,-13.0,0.184,-0.062,0.445,0.874
172611,-1942.0,6220.0,4870.0,5.0,21.0,-9.0,0.184,-0.062,0.446,0.874
172633,-1904.0,6256.0,4850.0,5.0,24.0,-8.0,0.184,-0.062,0.446,0.874
172655,-1918.0,6290.0,4862.0,-6.0,17.0,-9.0,0.184,-0.062,0.446,0.874
172667,-1932.0,6218.0,4814.0,-10.0,18.0,-16.0,0.184,-0.062,0.446,0.874
172689,-1914.0,6224.0,4856.0,-8.0,23.0,-11.0,0.184,-0.062,0.446,0.874
172701,-1892.0,6200.0,4814.0,-2.0,23.0,-15.0,0.184,-0.062,0.446,0.874
172723,-1978.0,6282.0,4858.0,1.0,19.0,-12.0,0.184,-0.063,0.446,0.874
172735,-1942.0,6220.0,4832.0,5.0,21.0,-13.0,0.184,-0.063,0.446,0.874
172757,-1930.0,6254.0,4796.0,-2.0,19.0,-13.0,0.184,-0.063,0.446,0.874
172769,-1924.0,6236.0,4840.0,1.0,12.0,-13.0,0.185,-0.063,0.446,0.874
172791,-1918.0,6222.0,4848.0,-6.0,12.0,-5.0,0.185,-0.063,0.446,0.874
172803,-1918.0,6216.0,4858.0,-3.0,13.0,-4.0,0.185,-0.063,0.446,0.874
172825,-1934.0,6162.0,4896.0,-2.0,12.0,-10.0,0.184,-0.063,0.446,0.874
172837,-1922.0,6204.0,4886.0,0.0,16.0,-8.0,0.184,-0.063,0.446,0.874
172860,-1950.0,6212.0,4890.0,0.0,19.0,-14.0,0.184,-0.063,0.446,0.874
172882,-1918.0,6224.0,4926.0,8.0,22.0,-6.0,0.184,-0.063,0.446,0.874
172894,-1942.0,6294.0,4874.0,7.0,22.0,-8.0,0.184,-0.064,0.446,0.874
172916,-1954.0,6244.0,4852.0,12.0,26.0,-13.0,0.184,-0.064,0.446,0.874
172928,-1918.0,6256.0,4816.0,7.0,27.0,-12.0,0.184,-0.064,0.446,0.873
172950,-1922.0,6236.0,4816.0,5.0,27.0,-19.0,0.184,-0.064,0.446,0.873
172962,-1910.0,6182.0,4846.0,-2.0,26.0,-19.0,0.184,-0.064,0.446,0.873
172984,-1944.0,6224.0,4856.0,1.0,20.0,-25.0,0.184,-0.065,0.446,0.873
172996,-1978.0,6240.0,4856.0,-2.0,16.0,-19.0,0.184,-0.065,0.446,0.873
173018,-1962.0,6248.0,4824.0,-9.0,22.0,-23.0,0.185,-0.065,0.446,0.873
173030,-1986.0,6236.0,5006.0,-4.0,23.0,-24.0,0.185,-0.065,0.446,0.873
173052,-2048.0,6340.0,4846.0,-1.0,24.0,-23.0,0.185,-0.065,0.446,0.873
173074,-2036.0,6192.0,4880.0,-6.0,14.0,-21.0,0.185,-0.065,0.446,0.873
173086,-2086.0,6212.0,4862.0,8.0,10.0,-14.0,0.185,-0.065,0.446,0.873
173108,-1958.0,6194.0,4830.0,17.0,15.0,-12.0,0.185,-0.066,0.446,0.873
173120,-2058.0,6226.0,4864.0,-7.0,18.0,-11.0,0.185,-0.066,0.446,0.873
173142,-2018.0,6188.0,4884.0,32.0,10.0,-6.0,0.185,-0.066,0.447,0.873
173154,-1970.0,6232.0,4894.0,30.0,18.0,1.0,0.185,-0.066,0.447,0.873
173176,-2020.0,6308.0,4770.0,7.0,19.0,4.0,0.185,-0.066,0.447,0.873
173188,-2008.0,6234.0,4840.0,-8.0,9.0,8.0,0.185,-0.066,0.447,0.873
173210,-1986.0,6226.0,4804.0,-3.0,7.0,11.0,0.185,-0.066,0.447,0.873
173232,-1918.0,6200.0,4814.0,0.0,6.0,9.0,0.185,-0.066,0.447,0.873
173244,-1914.0,6244.0,4808.0,1.0,18.0,8.0,0.184,-0.066,0.447,0.873
173271,-1902.0,6272.0,4838.0,0.0,21.0,-1.0,0.184,-0.066,0.447,0.873
173283,-1934.0,6292.0,4822.0,-3.0,19.0,-6.0,0.184,-0.066,0.447,0.873
173295,-1986.0,6270.0,4834.0,-18.0,21.0,-7.0,0.184,-0.066,0.447,0.873
173317,-1960.0,6272.0,4788.0,-18.0,13.0,-5.0,0.184,-0.066,0.447,0.873
173329,-1974.0,6208.0,4850.0,-9.0,11.0,-1.0,0.184,-0.066,0.447,0.873
173351,-1984.0,6200.0,4842.0,-7.0,9.0,-8.0,0.184,-0.066,0.447,0.873
173363,-2034.0,6234.0,4842.0,-10.0,-3.0,-3.0,0.184,-0.066,0.447,0.873
173385,-2020.0,6190.0,4870.0,-12.0,-9.0,-2.0,0.184,-0.066,0.447,0.873
173407,-2050.0,6148.0,4922.0,-5.0,-20.0,0.0,0.184,-0.066,0.447,0.873
173419,-2050.0,6292.0,4868.0,9.0,-7.0,3.0,0.184,-0.066,0.447,0.873
173441,-2000.0,6216.0,4852.0,-3.0,-12.0,13.0,0.184,-0.065,0.447,0.873
173453,-2030.0,6242.0,4844.0,-15.0,-17.0,18.0,0.184,-0.065,0.446,0.873
173475,-1986.0,6226.0,4856.0,-13.0,-21.0,19.0,0.184,-0.065,0.446,0.873
173487,-1958.0,6206.0,4844.0,-24.0,-13.0,14.0,0.184,-0.065,0.446,0.873
173509,-1954.0,6172.0,4868.0,-16.0,-9.0,12.0,0.184,-0.065,0.446,0.874
173521,-1910.0,6198.0,4842.0,-8.0,-5.0,11.0,0.184,-0.064,0.446,0.874
173543,-1880.0,6260.0,4848.0,-8.0,-6.0,13.0,0.184,-0.064,0.446,0.874
173565,-1862.0,6296.0,4856.0,-14.0,-2.0,11.0,0.184,-0.064,0.446,0.874
173577,-1914.0,6246.0,4840.0,-6.0,-6.0,8.0,0.184,-0.064,0.446,0.874
173599,-1916.0,6274.0,4884.0,-7.0,-3.0,3.0,0.184,-0.064,0.446,0.874
173611,-1934.0,6240.0,4850.0,-8.0,9.0,-6.0,0.184,-0.064,0.446,0.874
173633,-1926.0,6162.0,4872.0,-2.0,9.0,-9.0,0.184,-0.064,0.446,0.874
173645,-1956.0,6212.0,4850.0,-6.0,6.0,-7.0,0.184,-0.064,0.446,0.874
173667,-1948.0,6156.0,4880.0,-11.0,4.0,-15.0,0.184,-0.064,0.445,0.874
173679,-1976.0,6144.0,4890.0,5.0,7.0,-14.0,0.184,-0.064,0.445,0.874
173701,-1966.0,6234.0,4904.0,14.0,8.0,-7.0,0.184,-0.064,0.446,0.874
173713,-1952.0,6238.0,4908.0,15.0,8.0,-5.0,0.184,-0.064,0.446,0.874
173735,-2012.0,6234.0,4826.0,12.0,6.0,1.0,0.184,-0.064,0.446,0.874
173757,-2030.0,6276.0,4860.0,2.0,1.0,4.0,0.184,-0.064,0.446,0.874
173769,-2050.0,6218.0,4858.0,-8.0,-2.0,3.0,0.184,-0.064,0.446,0.874
173791,-1996.0,6208.0,4826.0,-17.0,-12.0,9.0,0.184,-0.064,0.446,0.874
173803,-1988.0,6204.0,4820.0,-18.0,-7.0,12.0,0.183,-0.064,0.446,0.874
173825,-1934.0,6216.0,4936.0,-4.0,-6.0,9.0,0.183,-0.063,0.445,0.874
173837,-1894.0,6224.0,4890.0,5.0,-1.0,2.0,0.183,-0.063,0.445,0.874
173859,-1930.0,6222.0,4810.0,5.0,0.0,2.0,0.183,-0.063,0.445,0.874
173871,-1930.0,6286.0,4868.0,-5.0,-2.0,4.0,0.183,-0.063,0.445,0.874
173893,-1874.0,6260.0,4836.0,-4.0,-3.0,7.0,0.183,-0.063,0.445,0.874
173915,-1896.0,6194.0,4804.0,-5.0,-9.0,1.0,0.183,-0.063,0.445,0.874
173927,-1898.0,6238.0,4896.0,-7.0,-5.0,-4.0,0.183,-0.063,0.445,0.874
173949,-1834.0,6210.0,4898.0,0.0,-2.0,0.0,0.183,-0.063,0.445,0.874
173961,-1948.0,6226.0,4850.0,16.0,4.0,1.0,0.183,-0.063,0.445,0.874
173983,-1932.0,6206.0,4884.0,22.0,3.0,-1.0,0.183,-0.063,0.446,0.874
173995,-1954.0,6268.0,4822.0,16.0,6.0,-1.0,0.183,-0.063,0.446,0.874
174017,-1942.0,6240.0,4810.0,10.0,-2.0,3.0,0.183,-0.062,0.446,0.874
174029,-1906.0,6236.0,4858.0,1.0,-6.0,3.0,0.183,-0.062,0.446,0.874
174051,-1886.0,6274.0,4864.0,7.0,-4.0,4.0,0.183,-0.062,0.446,0.874
174073,-1934.0,6254.0,4872.0,9.0,-2.0,4.0,0.183,-0.062,0.446,0.874
174085,-1934.0,6212.0,4794.0,6.0,1.0,2.0,0.183,-0.062,0.446,0.874
174107,-2008.0,6242.0,4798.0,0.0,-4.0,6.0,0.183,-0.062,0.446,0.874
174119,-1952.0,6204.0,4896.0,-3.0,-5.0,10.0,0.183,-0.062,0.446,0.874
174141,-1868.0,6246.0,4836.0,7.0,-5.0,10.0,0.183,-0.062,0.446,0.874
174153,-1932.0,6280.0,4850.0,8.0,-1.0,8.0,0.182,-0.062,0.446,0.874
174175,-1976.0,6314.0,4864.0,8.0,-13.0,4.0,0.182,-0.061,0.446,0.874
174187,-1914.0,6228.0,4818.0,18.0,-15.0,6.0,0.183,-0.061,0.446,0.874
174209,-1924.0,6290.0,4766.0,6.0,-22.0,7.0,0.183,-0.061,0.446,0.874
174221,-1864.0,6244.0,4838.0,-12.0,-29.0,4.0,0.183,-0.06,0.446,0.874
174243,-1912.0,6246.0,4914.0,-6.0,-28.0,1.0,0.183,-0.06,0.446,0.874
174265,-1868.0,6212.0,4916.0,8.0,-22.0,3.0,0.183,-0.06,0.446,0.874
174277,-1880.0,6218.0,4876.0,23.0,-15.0,5.0,0.183,-0.06,0.446,0.874
174299,-1846.0,6254.0,4898.0,13.0,-10.0,5.0,0.183,-0.059,0.446,0.874
174311,-1888.0,6316.0,4816.0,2.0,-13.0,15.0,0.183,-0.059,0.446,0.874
174333,-1856.0,6256.0,4874.0,-6.0,-21.0,7.0,0.183,-0.059,0.446,0.874
174345,-1816.0,6242.0,4836.0,-6.0,-14.0,2.0,0.183,-0.059,0.446,0.874
174367,-1854.0,6292.0,4856.0,-2.0,-9.0,9.0,0.183,-0.058,0.446,0.874
174379,-1858.0,6260.0,4824.0,7.0,-5.0,12.0,0.183,-0.058,0.446,0.874
174401,-1788.0,6280.0,4850.0,4.0,0.0,6.0,0.183,-0.058,0.446,0.874
174423,-1862.0,6324.0,4794.0,5.0,-2.0,8.0,0.183,-0.058,0.446,0.874
174435,-1786.0,6196.0,4864.0,3.0,0.0,7.0,0.183,-0.058,0.446,0.874
174457,-1900.0,6324.0,4798.0,8.0,-1.0,10.0,0.182,-0.058,0.447,0.874
174469,-1856.0,6332.0,4874.0,1.0,-10.0,12.0,0.182,-0.058,0.447,0.874
174491,-1840.0,6204.0,4876.0,7.0,-1.0,2.0,0.182,-0.058,0.447,0.874
174503,-1794.0,6196.0,4896.0,11.0,1.0,-4.0,0.182,-0.058,0.447,0.874
174525,-1910.0,6262.0,4870.0,7.0,-3.0,-4.0,0.182,-0.057,0.447,0.874
174537,-1916.0,6240.0,4848.0,4.0,-7.0,-7.0,0.183,-0.057,0.447,0.874
174559,-1868.0,6204.0,4884.0,14.0,0.0,1.0,0.182,-0.057,0.447,0.874
174571,-1874.0,6252.0,4838.0,21.0,-8.0,3.0,0.182,-0.057,0.447,0.874
174594,-1906.0,6264.0,4828.0,9.0,-11.0,2.0,0.182,-0.057,0.447,0.874
174616,-1796.0,6236.0,4868.0,13.0,-8.0,-1.0,0.183,-0.057,0.447,0.874
174628,-1904.0,6268.0,4840.0,15.0,-4.0,8.0,0.182,-0.057,0.447,0.874
174650,-1862.0,6328.0,4848.0,12.0,-7.0,14.0,0.182,-0.056,0.447,0.874
174662,-1832.0,6290.0,4858.0,11.0,-15.0,15.0,0.182,-0.056,0.447,0.874
174684,-1826.0,6246.0,4782.0,8.0,-19.0,17.0,0.182,-0.056,0.448,0.874
174696,-1790.0,6292.0,4850.0,12.0,-17.0,14.0,0.182,-0.055,0.448,0.874
174718,-1784.0,6252.0,4806.0,9.0,-13.0,17.0,0.182,-0.055,0.448,0.874
174730,-1794.0,6284.0,4828.0,11.0,-17.0,21.0,0.182,-0.055,0.448,0.874
174752,-1826.0,6352.0,4856.0,7.0,-13.0,15.0,0.182,-0.055,0.448,0.874
174764,-1788.0,6276.0,4836.0,11.0,-11.0,21.0,0.182,-0.054,0.448,0.874
174786,-1800.0,6292.0,4844.0,6.0,-6.0,19.0,0.182,-0.054,0.448,0.874
174808,-1786.0,6292.0,4804.0,3.0,-7.0,12.0,0.181,-0.054,0.448,0.874
174820,-1782.0,6340.0,4844.0,-4.0,5.0,8.0,0.181,-0.054,0.448,0.874
174842,-1724.0,6336.0,4846.0,-10.0,6.0,3.0,0.181,-0.054,0.448,0.874
174854,-1774.0,6302.0,4838.0,-12.0,15.0,0.0,0.181,-0.054,0.448,0.874
174876,-1748.0,6320.0,4792.0,-9.0,15.0,0.0,0.181,-0.054,0.448,0.874
174888,-1754.0,6318.0,4830.0,-7.0,24.0,-1.0,0.181,-0.054,0.448,0.874
174910,-1766.0,6302.0,4858.0,-22.0,23.0,-4.0,0.181,-0.054,0.448,0.874
174922,-1742.0,6334.0,4812.0,-18.0,22.0,-12.0,0.181,-0.055,0.448,0.874
174944,-1740.0,6298.0,4848.0,-19.0,24.0,-21.0,0.181,-0.055,0.447,0.874
174966,-1784.0,6284.0,4872.0,-6.0,28.0,-17.0,0.181,-0.055,0.447,0.874
174978,-1794.0,6284.0,4854.0,0.0,35.0,-31.0,0.181,-0.055,0.447,0.874
175000,-1850.0,6290.0,4842.0,3.0,33.0,-30.0,0.181,-0.056,0.448,0.874
175012,-1816.0,6274.0,4872.0,-3.0,31.0,-19.0,0.181,-0.056,0.448,0.874
175034,-1848.0,6226.0,4854.0,-3.0,31.0,-19.0,0.181,-0.056,0.448,0.874
175046,-1862.0,6228.0,4850.0,-4.0,25.0,-15.0,0.181,-0.056,0.448,0.874
175068,-1868.0,6222.0,4898.0,-4.0,19.0,-11.0,0.181,-0.057,0.448,0.874
175080,-1844.0,6274.0,4928.0,14.0,20.0,-14.0,0.181,-0.057,0.448,0.874
175102,-1830.0,6280.0,4854.0,13.0,25.0,-8.0,0.181,-0.057,0.448,0.874
175114,-1840.0,6272.0,4826.0,5.0,22.0,-1.0,0.181,-0.057,0.448,0.874
175137,-1816.0,6288.0,4758.0,-8.0,19.0,-5.0,0.181,-0.057,0.448,0.874
175149,-1786.0,6328.0,4776.0,-20.0,14.0,-3.0,0.181,-0.057,0.448,0.874
175172,-1834.0,6268.0,4818.0,-18.0,14.0,-1.0,0.181,-0.057,0.448,0.874
175194,-1830.0,6262.0,4812.0,-11.0,17.0,1.0,0.181,-0.057,0.448,0.874
175206,-1788.0,6324.0,4854.0,-4.0,23.0,-2.0,0.18,-0.057,0.448,0.874
175228,-1802.0,6334.0,4808.0,-3.0,25.0,-11.0,0.181,-0.058,0.448,0.874
175240,-1840.0,6346.0,4862.0,1.0,25.0,-11.0,0.181,-0.058,0.448,0.874
175262,-1832.0,6278.0,4802.0,2.0,26.0,-12.0,0.18,-0.058,0.448,0.874
175279,-1832.0,6328.0,4782.0,0.0,25.0,-11.0,0.181,-0.058,0.448,0.874
175291,-1814.0,6228.0,4872.0,-7.0,26.0,-20.0,0.181,-0.058,0.448,0.874
175313,-1818.0,6310.0,4890.0,-4.0,31.0,-19.0,0.181,-0.059,0.448,0.874
175325,-1828.0,6262.0,4846.0,5.0,29.0,-22.0,0.181,-0.059,0.448,0.874
175347,-1812.0,6274.0,4842.0,5.0,32.0,-17.0,0.181,-0.059,0.448,0.874
175369,-1878.0,6304.0,4820.0,6.0,36.0,-24.0,0.181,-0.059,0.448,0.874
175381,-1866.0,6262.0,4848.0,9.0,33.0,-23.0,0.181,-0.06,0.448,0.873
175403,-1878.0,6322.0,4830.0,9.0,32.0,-25.0,0.181,-0.06,0.448,0.873
175415,-1910.0,6272.0,4792.0,-4.0,30.0,-16.0,0.181,-0.06,0.448,0.873
175437,-1898.0,6232.0,4774.0,-7.0,20.0,-11.0,0.181,-0.06,0.448,0.873
175449,-1862.0,6210.0,4854.0,-7.0,22.0,-4.0,0.181,-0.06,0.448,0.873
175471,-1862.0,6320.0,4860.0,1.0,28.0,-9.0,0.181,-0.061,0.448,0.873
175483,-1836.0,6332.0,4850.0,3.0,26.0,-12.0,0.181,-0.061,0.448,0.873
175505,-1904.0,6284.0,4822.0,1.0,25.0,-16.0,0.181,-0.061,0.448,0.873
175517,-1930.0,6258.0,4832.0,4.0,26.0,-17.0,0.181,-0.061,0.449,0.873
175539,-1842.0,6252.0,4774.0,9.0,23.0,-18.0,0.181,-0.061,0.449,0.873
175561,-1886.0,6276.0,4836.0,7.0,25.0,-23.0,0.181,-0.061,0.449,0.873
175573,-1892.0,6282.0,4804.0,10.0,33.0,-20.0,0.181,-0.062,0.449,0.873
175595,-1880.0,6288.0,4786.0,2.0,24.0,-22.0,0.181,-0.062,0.449,0.873
175607,-1946.0,6276.0,4760.0,-5.0,20.0,-21.0,0.181,-0.062,0.449,0.873
175629,-1952.0,6294.0,4826.0,-3.0,23.0,-10.0,0.181,-0.062,0.449,0.873
175641,-1926.0,6280.0,4830.0,2.0,26.0,-16.0,0.181,-0.062,0.449,0.873
175663,-1932.0,6288.0,4810.0,-7.0,24.0,-10.0,0.181,-0.063,0.449,0.873
175675,-1970.0,6250.0,4820.0,-11.0,19.0,-11.0,0.181,-0.063,0.449,0.873
175697,-1950.0,6246.0,4812.0,-11.0,21.0,-9.0,0.181,-0.063,0.449,0.873
175719,-1916.0,6254.0,4854.0,-12.0,19.0,-13.0,0.181,-0.063,0.449,0.873
175731,-1928.0,6278.0,4826.0,-12.0,10.0,-6.0,0.181,-0.063,0.449,0.873
175753,-1924.0,6238.0,4866.0,-1.0,15.0,-9.0,0.181,-0.063,0.449,0.873
175765,-1936.0,6258.0,4820.0,7.0,17.0,-4.0,0.181,-0.063,0.449,0.873
175787,-1956.0,6260.0,4808.0,6.0,18.0,-9.0,0.181,-0.063,0.449,0.873
175799,-1912.0,6282.0,4850.0,11.0,15.0,-5.0,0.181,-0.064,0.449,0.873
175821,-1934.0,6282.0,4756.0,0.0,10.0,-6.0,0.181,-0.064,0.449,0.873
175833,-1936.0,6240.0,4842.0,-2.0,6.0,-8.0,0.181,-0.064,0.449,0.873
175855,-1938.0,6274.0,4836.0,-2.0,1.0,-9.0,0.181,-0.063,0.449,0.873
175877,-1910.0,6306.0,4848.0,13.0,10.0,-5.0,0.181,-0.064,0.449,0.873
175889,-2008.0,6330.0,4840.0,18.0,18.0,-9.0,0.181,-0.064,0.449,0.873
175911,-1946.0,6294.0,4778.0,7.0,14.0,-2.0,0.181,-0.064,0.449,0.873
175923,-1948.0,6292.0,4786.0,-6.0,11.0,-2.0,0.181,-0.064,0.449,0.873
175945,-1974.0,6232.0,4790.0,-17.0,3.0,-1.0,0.181,-0.064,0.449,0.873
175957,-1920.0,6220.0,4810.0,-14.0,4.0,-3.0,0.181,-0.064,0.449,0.873
175979,-1904.0,6214.0,4822.0,-9.0,9.0,-3.0,0.181,-0.064,0.449,0.873
175991,-1922.0,6294.0,4824.0,6.0,17.0,-5.0,0.181,-0.064,0.449,0.873
176013,-1922.0,6364.0,4772.0,-1.0,17.0,-8.0,0.181,-0.064,0.449,0.873
176025,-1984.0,6290.0,4764.0,0.0,14.0,-7.0,0.181,-0.064,0.449,0.873
176047,-1980.0,6318.0,4822.0,-3.0,8.0,-4.0,0.181,-0.064,0.449,0.873
176069,-1904.0,6278.0,4832.0,-7.0,7.0,-3.0,0.181,-0.064,0.449,0.873
176081,-1950.0,6262.0,4840.0,-10.0,5.0,-4.0,0.181,-0.064,0.449,0.873
176103,-1904.0,6258.0,4842.0,-9.0,10.0,0.0,0.181,-0.064,0.449,0.873
176115,-1928.0,6222.0,4856.0,-5.0,8.0,-5.0,0.181,-0.064,0.449,0.873
176137,-1978.0,6294.0,4836.0,-7.0,3.0,-5.0,0.181,-0.064,0.449,0.873
176149,-1968.0,6254.0,4834.0,-4.0,1.0,-4.0,0.181,-0.064,0.449,0.873
176171,-1980.0,6294.0,4846.0,7.0,0.0,3.0,0.181,-0.064,0.449,0.873
176183,-1932.0,6286.0,4820.0,-3.0,-1.0,-1.0,0.181,-0.064,0.449,0.873
176205,-1958.0,6236.0,4830.0,-7.0,0.0,-2.0,0.181,-0.064,0.449,0.873
176227,-1964.0,6270.0,4788.0,-5.0,-6.0,5.0,0.181,-0.064,0.449,0.873
176239,-1942.0,6236.0,4844.0,-5.0,-6.0,10.0,0.181,-0.063,0.449,0.873
176261,-1888.0,6268.0,4846.0,-11.0,-7.0,5.0,0.181,-0.063,0.449,0.873
176273,-1828.0,6308.0,4846.0,-3.0,0.0,2.0,0.181,-0.063,0.449,0.873
176295,-1902.0,6266.0,4832.0,10.0,1.0,2.0,0.181,-0.063,0.449,0.873
176307,-1896.0,6258.0,4828.0,8.0,0.0,-2.0,0.181,-0.063,0.449,0.873
176329,-1868.0,6252.0,4814.0,5.0,8.0,-2.0,0.181,-0.063,0.449,0.873
176341,-1900.0,6270.0,4850.0,9.0,1.0,-6.0,0.181,-0.063,0.449,0.873
176363,-1912.0,6324.0,4844.0,18.0,7.0,-4.0,0.181,-0.063,0.449,0.873
176385,-1892.0,6282.0,4796.0,13.0,10.0,-6.0,0.181,-0.063,0.449,0.873
176397,-1948.0,6288.0,4816.0,15.0,15.0,-6.0,0.181,-0.063,0.449,0.873
176419,-1888.0,6288.0,4790.0,7.0,15.0,-11.0,0.181,-0.063,0.449,0.873
176431,-1942.0,6282.0,4794.0,2.0,14.0,-10.0,0.181,-0.063,0.449,0.873
176453,-1936.0,6266.0,4814.0,5.0,7.0,-2.0,0.181,-0.063,0.45,0.873
176465,-1900.0,6300.0,4814.0,0.0,7.0,-9.0,0.181,-0.063,0.45,0.873
176487,-1924.0,6280.0,4800.0,-2.0,9.0,-5.0,0.181,-0.063,0.45,0.873
176499,-1896.0,6272.0,4790.0,-4.0,4.0,-4.0,0.181,-0.063,0.45,0.873
176521,-1952.0,6254.0,4820.0,-3.0,5.0,-2.0,0.181,-0.063,0.45,0.873
176533,-1976.0,6280.0,4828.0,0.0,7.0,-8.0,0.181,-0.063,0.45,0.873
176555,-1902.0,6260.0,4804.0,0.0,7.0,-2.0,0.181,-0.063,0.45,0.873
176577,-1928.0,6220.0,4802.0,-5.0,5.0,-4.0,0.18,-0.063,0.449,0.873
176589,-1924.0,6264.0,4794.0,-1.0,8.0,-4.0,0.18,-0.063,0.449,0.873
176611,-1984.0,6294.0,4804.0,4.0,7.0,-3.0,0.18,-0.063,0.45,0.873
176623,-1910.0,6270.0,4774.0,2.0,2.0,0.0,0.18,-0.063,0.45,0.873
176645,-1858.0,6270.0,4784.0,4.0,-1.0,-5.0,0.18,-0.063,0.45,0.873
176657,-1922.0,6242.0,4830.0,2.0,3.0,-6.0,0.18,-0.063,0.45,0.873
176679,-1936.0,6252.0,4880.0,4.0,-1.0,-9.0,0.18,-0.063,0.45,0.873
176691,-1948.0,6270.0,4834.0,11.0,8.0,-16.0,0.181,-0.063,0.45,0.872
176713,-1912.0,6260.0,4804.0,10.0,17.0,-5.0,0.181,-0.063,0.45,0.872
176735,-1958.0,6284.0,4798.0,3.0,6.0,-2.0,0.18,-0.063,0.45,0.872
176747,-1936.0,6326.0,4752.0,-13.0,5.0,2.0,0.18,-0.063,0.45,0.872
176769,-1942.0,6256.0,4810.0,-13.0,-1.0,-2.0,0.18,-0.063,0.45,0.873
176781,-1920.0,6308.0,4818.0,-7.0,6.0,-5.0,0.181,-0.063,0.45,0.873
176803,-1876.0,6252.0,4822.0,-3.0,14.0,-3.0,0.18,-0.063,0.45,0.873
176815,-1890.0,6310.0,4814.0,9.0,23.0,-13.0,0.18,-0.063,0.45,0.872
176837,-1876.0,6298.0,4768.0,9.0,23.0,-7.0,0.18,-0.063,0.45,0.872
176849,-1930.0,6322.0,4796.0,0.0,18.0,-10.0,0.181,-0.063,0.45,0.872
176871,-1932.0,6276.0,4816.0,-6.0,15.0,-9.0,0.181,-0.063,0.45,0.872
176883,-1942.0,6278.0,4800.0,-2.0,11.0,-8.0,0.181,-0.064,0.45,0.872
176906,-1976.0,6244.0,4812.0,2.0,15.0,-11.0,0.181,-0.064,0.45,0.872
176928,-1968.0,6286.0,4824.0,4.0,15.0,-11.0,0.181,-0.064,0.45,0.872
176940,-1976.0,6224.0,4768.0,3.0,14.0,-10.0,0.181,-0.064,0.45,0.872
176962,-1912.0,6212.0,4814.0,0.0,10.0,-10.0,0.181,-0.064,0.45,0.872
176974,-1962.0,6296.0,4820.0,-4.0,5.0,-7.0,0.181,-0.064,0.45,0.872
176996,-2030.0,6280.0,4808.0,-7.0,2.0,-3.0,0.181,-0.064,0.45,0.872
177008,-1986.0,6270.0,4822.0,-2.0,-4.0,2.0,0.181,-0.064,0.45,0.872
177030,-1926.0,6296.0,4782.0,-9.0,-5.0,6.0,0.181,-0.064,0.45,0.872
177042,-1948.0,6270.0,4800.0,-6.0,-6.0,6.0,0.181,-0.063,0.45,0.872
177064,-1914.0,6282.0,4764.0,-5.0,-4.0,14.0,0.181,-0.063,0.45,0.872
177076,-1906.0,6258.0,4852.0,-9.0,-3.0,6.0,0.181,-0.063,0.45,0.872
177098,-1908.0,6266.0,4800.0,-5.0,-7.0,2.0,0.181,-0.063,0.45,0.872
177120,-1846.0,6246.0,4816.0,3.0,-1.0,-1.0,0.181,-0.063,0.45,0.872
177132,-1876.0,6364.0,4826.0,-1.0,4.0,0.0,0.181,-0.063,0.45,0.872
177154,-1912.0,6326.0,4824.0,-4.0,6.0,-3.0,0.181,-0.063,0.45,0.873
177166,-1936.0,6314.0,4762.0,-4.0,5.0,-6.0,0.181,-0.063,0.45,0.873
177188,-1892.0,6294.0,4836.0,0.0,6.0,-4.0,0.181,-0.063,0.45,0.873
177200,-1944.0,6280.0,4796.0,-4.0,9.0,-5.0,0.181,-0.063,0.45,0.873
177222,-1894.0,6246.0,4792.0,-2.0,3.0,0.0,0.181,-0.063,0.45,0.873
177234,-1976.0,6284.0,4776.0,-4.0,7.0,-2.0,0.181,-0.063,0.45,0.873
177256,-1964.0,6278.0,4810.0,4.0,8.0,1.0,0.181,-0.063,0.45,0.873
177283,-1940.0,6276.0,4798.0,-4.0,6.0,4.0,0.181,-0.063,0.45,0.873
177295,-1972.0,6284.0,4824.0,1.0,2.0,-1.0,0.181,-0.063,0.45,0.873
177307,-2006.0,6306.0,4822.0,-7.0,-3.0,5.0,0.18,-0.063,0.45,0.873
177329,-2006.0,6254.0,4808.0,-4.0,-7.0,3.0,0.18,-0.062,0.45,0.873
177341,-1900.0,6242.0,4806.0,-6.0,-5.0,5.0,0.18,-0.062,0.449,0.873
177363,-1970.0,6290.0,4844.0,-5.0,-7.0,10.0,0.18,-0.062,0.449,0.873
177375,-1936.0,6248.0,4792.0,-7.0,-9.0,6.0,0.18,-0.062,0.449,0.873
177397,-1876.0,6304.0,4828.0,-4.0,-11.0,8.0,0.18,-0.062,0.449,0.873
177409,-1914.0,6286.0,4836.0,-3.0,-11.0,7.0,0.18,-0.062,0.449,0.873
177431,-1866.0,6264.0,4828.0,0.0,-15.0,12.0,0.18,-0.061,0.449,0.873
177453,-1876.0,6292.0,4808.0,0.0,-12.0,12.0,0.18,-0.061,0.449,0.873
177465,-1938.0,6266.0,4796.0,6.0,-16.0,10.0,0.18,-0.061,0.449,0.873
177487,-1908.0,6294.0,4870.0,10.0,-23.0,14.0,0.18,-0.061,0.449,0.873
177499,-1918.0,6266.0,4812.0,5.0,-19.0,9.0,0.18,-0.06,0.449,0.873
177521,-1878.0,6276.0,4822.0,4.0,-25.0,7.0,0.18,-0.06,0.449,0.873
177533,-1880.0,6272.0,4902.0,19.0,-21.0,10.0,0.18,-0.06,0.449,0.873
177555,-1858.0,6264.0,4876.0,29.0,-13.0,13.0,0.18,-0.059,0.45,0.873
177567,-1896.0,6386.0,4800.0,14.0,-15.0,14.0,0.18,-0.059,0.45,0.873
177589,-1830.0,6336.0,4816.0,-4.0,-19.0,22.0,0.18,-0.059,0.45,0.873
177611,-1818.0,6296.0,4818.0,-19.0,-20.0,15.0,0.18,-0.059,0.45,0.873
177623,-1852.0,6248.0,4838.0,-26.0,-22.0,13.0,0.18,-0.058,0.449,0.873
177645,-1888.0,6234.0,4812.0,-19.0,-19.0,5.0,0.18,-0.058,0.449,0.873
177657,-1816.0,6272.0,4816.0,-6.0,-14.0,12.0,0.18,-0.058,0.449,0.873
177679,-1868.0,6224.0,4882.0,5.0,-7.0,9.0,0.18,-0.058,0.449,0.873
177691,-1824.0,6334.0,4836.0,13.0,3.0,8.0,0.18,-0.058,0.449,0.873
