timeMs,ax,ay,az,gx,gy,gz,q0,q1,q2,q3
589745,7250.0,-1066.0,3718.0,71.0,22.0,227.0,0.033,-0.519,0.088,-0.85
589768,7430.0,-1206.0,3450.0,16.0,1.0,217.0,0.035,-0.519,0.089,-0.85
589781,7024.0,-1092.0,3640.0,-88.0,-36.0,227.0,0.037,-0.519,0.091,-0.849
589804,7192.0,-2020.0,3886.0,-8.0,-67.0,183.0,0.039,-0.519,0.091,-0.849
589817,7286.0,-840.0,3684.0,119.0,13.0,144.0,0.041,-0.519,0.091,-0.849
589840,7178.0,-1116.0,3426.0,-13.0,-38.0,74.0,0.042,-0.52,0.091,-0.849
589853,7486.0,-1448.0,3350.0,-8.0,-23.0,88.0,0.043,-0.52,0.091,-0.848
589876,7750.0,-1616.0,3476.0,32.0,-25.0,153.0,0.045,-0.52,0.091,-0.848
589889,7444.0,-1668.0,3484.0,144.0,34.0,155.0,0.047,-0.52,0.091,-0.848
589902,7234.0,-1210.0,3582.0,250.0,71.0,164.0,0.049,-0.519,0.09,-0.849
589925,7312.0,-1268.0,3486.0,209.0,67.0,100.0,0.051,-0.518,0.088,-0.849
589938,7056.0,-1138.0,3318.0,187.0,68.0,175.0,0.054,-0.518,0.087,-0.849
589961,7102.0,-1290.0,3504.0,150.0,-40.0,187.0,0.057,-0.518,0.087,-0.849
589974,7654.0,-1634.0,3444.0,240.0,-8.0,199.0,0.06,-0.518,0.085,-0.849
589997,7582.0,-1450.0,3310.0,345.0,35.0,254.0,0.064,-0.517,0.084,-0.849
590010,7460.0,-1408.0,3156.0,368.0,59.0,217.0,0.067,-0.517,0.082,-0.85
590033,7202.0,-1512.0,3304.0,406.0,35.0,196.0,0.071,-0.516,0.079,-0.85
590046,7286.0,-1364.0,3712.0,411.0,31.0,156.0,0.075,-0.515,0.077,-0.85
590069,7572.0,-1446.0,3680.0,467.0,24.0,76.0,0.078,-0.515,0.073,-0.851
590082,7024.0,-1624.0,3136.0,278.0,-132.0,303.0,0.082,-0.516,0.072,-0.85
590095,7440.0,-1068.0,1820.0,539.0,-627.0,484.0,0.089,-0.52,0.069,-0.846
596660,-27.0,244.0,-41.0,129.0,-109.0,-8727.0,0.871,-0.007,-0.42,-0.257
596682,-8714.0,6226.0,-709.0,12663.0,-13581.0,-20755.0,0.978,0.209,-0.0,-0.003
596692,7230.0,329.0,8208.0,12663.0,-13581.0,-20755.0,0.977,0.215,-0.006,-0.003
596697,-5480.0,-13539.0,-15433.0,329.0,8208.0,-15296.0,0.705,0.501,0.453,0.218
596759,7518.0,-1036.0,3196.0,-52.0,-22.0,22.0,0.172,-0.538,-0.032,-0.825
596772,7370.0,-1180.0,3532.0,-30.0,-5.0,49.0,0.172,-0.538,-0.032,-0.825
596795,7428.0,-1148.0,3478.0,-4.0,-8.0,37.0,0.173,-0.538,-0.032,-0.824
596808,7436.0,-1128.0,3406.0,6.0,10.0,35.0,0.174,-0.538,-0.032,-0.824
596831,7484.0,-1192.0,3288.0,15.0,5.0,47.0,0.174,-0.538,-0.032,-0.824
596844,7556.0,-1086.0,3234.0,-1.0,-5.0,50.0,0.175,-0.538,-0.032,-0.824
596857,7534.0,-1114.0,3384.0,-27.0,-4.0,42.0,0.175,-0.538,-0.032,-0.824
596880,7502.0,-1114.0,3654.0,-24.0,17.0,-1.0,0.176,-0.538,-0.032,-0.824
596893,7388.0,-1182.0,3728.0,20.0,28.0,-50.0,0.176,-0.538,-0.032,-0.824
596916,7440.0,-1238.0,3696.0,66.0,33.0,-85.0,0.176,-0.537,-0.033,-0.824
596929,7376.0,-1194.0,3554.0,67.0,26.0,-138.0,0.175,-0.537,-0.034,-0.824
596952,7390.0,-1078.0,3460.0,59.0,13.0,-180.0,0.174,-0.537,-0.036,-0.825
596965,7372.0,-994.0,3428.0,38.0,-5.0,-207.0,0.173,-0.537,-0.037,-0.825
596988,7262.0,-906.0,3550.0,32.0,-8.0,-205.0,0.172,-0.537,-0.039,-0.825
597001,7222.0,-754.0,3628.0,26.0,-13.0,-214.0,0.171,-0.537,-0.04,-0.825
597024,7350.0,-824.0,3466.0,28.0,-26.0,-212.0,0.17,-0.537,-0.042,-0.826
597037,7488.0,-818.0,3178.0,36.0,-43.0,-168.0,0.169,-0.537,-0.043,-0.825
597050,7512.0,-840.0,3328.0,67.0,-18.0,-104.0,0.168,-0.537,-0.044,-0.825
597073,7416.0,-776.0,3468.0,94.0,26.0,-58.0,0.169,-0.537,-0.046,-0.826
597086,7414.0,-814.0,3456.0,111.0,48.0,-56.0,0.169,-0.536,-0.047,-0.826
597109,7516.0,-908.0,3422.0,127.0,52.0,-54.0,0.17,-0.535,-0.048,-0.826
597122,7478.0,-882.0,3334.0,130.0,86.0,-37.0,0.17,-0.535,-0.049,-0.826
597145,7436.0,-940.0,3588.0,132.0,87.0,-45.0,0.171,-0.534,-0.05,-0.827
597158,7374.0,-836.0,3612.0,136.0,104.0,-58.0,0.171,-0.533,-0.052,-0.827
597181,7420.0,-834.0,3522.0,140.0,92.0,-73.0,0.172,-0.532,-0.053,-0.828
597194,7288.0,-854.0,3488.0,129.0,103.0,-86.0,0.172,-0.531,-0.054,-0.828
597217,7296.0,-608.0,3392.0,89.0,50.0,-70.0,0.172,-0.53,-0.056,-0.828
597230,7012.0,1218.0,3732.0,-843.0,-26.0,1245.0,0.178,-0.532,-0.044,-0.827
597243,7128.0,-1476.0,4546.0,-1030.0,-630.0,1429.0,0.183,-0.539,-0.029,-0.822
597266,7464.0,-1640.0,4136.0,-536.0,-274.0,545.0,0.185,-0.542,-0.023,-0.819
597279,7114.0,-2114.0,3062.0,9.0,-45.0,-240.0,0.183,-0.543,-0.024,-0.819
597302,7534.0,-1408.0,2786.0,62.0,-73.0,-86.0,0.183,-0.543,-0.026,-0.819
597315,7306.0,-1064.0,2914.0,7.0,-83.0,-74.0,0.183,-0.544,-0.026,-0.819
597338,7184.0,-1154.0,3212.0,-33.0,-82.0,-23.0,0.183,-0.544,-0.027,-0.818
597351,7170.0,-1108.0,3240.0,-100.0,-118.0,-66.0,0.182,-0.546,-0.027,-0.818
597374,7278.0,-1384.0,3172.0,-122.0,-167.0,-55.0,0.181,-0.547,-0.026,-0.817
597387,7260.0,-1386.0,3226.0,-148.0,-183.0,-57.0,0.181,-0.549,-0.026,-0.816
597400,7322.0,-1230.0,3416.0,-148.0,-210.0,-72.0,0.179,-0.551,-0.026,-0.815
597423,7282.0,-1208.0,3446.0,-144.0,-205.0,-111.0,0.178,-0.552,-0.026,-0.814
597436,7384.0,-1176.0,3262.0,-157.0,-197.0,-139.0,0.176,-0.554,-0.026,-0.813
597459,7646.0,-1216.0,3028.0,-149.0,-189.0,-145.0,0.175,-0.556,-0.026,-0.812
597472,7770.0,-1344.0,2794.0,-131.0,-169.0,-133.0,0.173,-0.557,-0.026,-0.812
597495,7834.0,-1180.0,2856.0,-98.0,-135.0,-74.0,0.172,-0.558,-0.026,-0.811
597508,7786.0,-1164.0,2884.0,-79.0,-87.0,-56.0,0.172,-0.559,-0.026,-0.811
597531,7794.0,-1198.0,3028.0,-45.0,-45.0,-31.0,0.171,-0.56,-0.026,-0.81
597544,7886.0,-1126.0,2940.0,-19.0,13.0,-44.0,0.171,-0.56,-0.026,-0.81
597567,7780.0,-1360.0,2960.0,37.0,40.0,-21.0,0.172,-0.559,-0.027,-0.81
597580,7598.0,-1310.0,3044.0,87.0,56.0,-19.0,0.172,-0.559,-0.028,-0.811
597593,7738.0,-1290.0,3000.0,101.0,42.0,-33.0,0.173,-0.558,-0.029,-0.811
597616,7698.0,-1338.0,2944.0,106.0,65.0,-44.0,0.173,-0.558,-0.03,-0.811
597629,7540.0,-1238.0,3060.0,106.0,66.0,-50.0,0.174,-0.557,-0.031,-0.811
597652,7594.0,-1246.0,3116.0,99.0,59.0,-82.0,0.174,-0.557,-0.032,-0.812
597665,7466.0,-1162.0,3088.0,74.0,64.0,-84.0,0.174,-0.556,-0.033,-0.812
597688,7622.0,-1206.0,3046.0,57.0,54.0,-100.0,0.174,-0.555,-0.034,-0.812
597701,7380.0,-1232.0,2896.0,49.0,85.0,-77.0,0.174,-0.555,-0.035,-0.813
597724,7500.0,-1110.0,2894.0,27.0,52.0,-61.0,0.174,-0.554,-0.035,-0.813
597737,7494.0,-1090.0,2954.0,18.0,68.0,-35.0,0.174,-0.554,-0.036,-0.813
597760,7322.0,-1066.0,2962.0,-2.0,57.0,3.0,0.174,-0.554,-0.036,-0.814
597773,7376.0,-1042.0,3054.0,-24.0,37.0,34.0,0.174,-0.553,-0.036,-0.814
597786,7390.0,-1012.0,3044.0,-19.0,31.0,49.0,0.175,-0.553,-0.035,-0.814
597809,7420.0,-1018.0,3048.0,-27.0,4.0,66.0,0.176,-0.553,-0.035,-0.814
597822,7470.0,-1144.0,3076.0,-30.0,4.0,83.0,0.176,-0.553,-0.034,-0.813
597845,7456.0,-1116.0,3118.0,-29.0,0.0,97.0,0.177,-0.553,-0.034,-0.813
597858,7502.0,-1240.0,3118.0,-45.0,-9.0,89.0,0.178,-0.554,-0.033,-0.813
597881,7552.0,-1248.0,3074.0,-41.0,-15.0,71.0,0.178,-0.554,-0.033,-0.813
597894,7564.0,-1250.0,3056.0,-39.0,-17.0,72.0,0.179,-0.554,-0.032,-0.812
597917,7590.0,-1228.0,3078.0,-32.0,-8.0,67.0,0.18,-0.554,-0.032,-0.812
597930,7496.0,-1134.0,3074.0,-36.0,-6.0,59.0,0.18,-0.554,-0.031,-0.812
597943,7586.0,-1298.0,3218.0,-36.0,-3.0,37.0,0.18,-0.555,-0.031,-0.812
597966,7446.0,-1286.0,3276.0,-31.0,10.0,9.0,0.181,-0.555,-0.031,-0.812
597979,7446.0,-1250.0,3222.0,-20.0,13.0,-18.0,0.181,-0.554,-0.031,-0.812
598002,7542.0,-1234.0,2950.0,-13.0,-6.0,-21.0,0.181,-0.555,-0.031,-0.812
598015,7582.0,-1214.0,2782.0,-33.0,-5.0,7.0,0.181,-0.555,-0.031,-0.812
598038,7518.0,-1224.0,2830.0,-47.0,-4.0,31.0,0.181,-0.555,-0.031,-0.811
598051,7446.0,-1268.0,3106.0,-32.0,5.0,61.0,0.182,-0.555,-0.03,-0.811
598074,7426.0,-1262.0,3136.0,-21.0,-3.0,65.0,0.182,-0.555,-0.03,-0.811
598087,7504.0,-1266.0,3068.0,-8.0,-2.0,71.0,0.183,-0.555,-0.03,-0.811
598110,7444.0,-1248.0,3140.0,-13.0,3.0,70.0,0.184,-0.555,-0.029,-0.811
598123,7560.0,-1278.0,3054.0,-19.0,-8.0,34.0,0.184,-0.555,-0.029,-0.81
598136,7606.0,-1318.0,2942.0,-10.0,-2.0,40.0,0.185,-0.555,-0.029,-0.81
598159,7554.0,-1372.0,3038.0,-10.0,6.0,44.0,0.185,-0.556,-0.029,-0.81
598172,7482.0,-1358.0,3172.0,-4.0,3.0,36.0,0.186,-0.556,-0.029,-0.81
598195,7480.0,-1314.0,3172.0,-4.0,22.0,19.0,0.186,-0.555,-0.029,-0.81
598208,7434.0,-1272.0,3222.0,-13.0,17.0,-4.0,0.186,-0.555,-0.029,-0.81
598231,7530.0,-1346.0,2948.0,-19.0,13.0,-12.0,0.186,-0.555,-0.029,-0.81
598244,7554.0,-1284.0,2916.0,-20.0,9.0,-2.0,0.186,-0.555,-0.029,-0.81
598267,7508.0,-1336.0,3008.0,-12.0,-6.0,-2.0,0.187,-0.555,-0.029,-0.81
598280,7478.0,-1320.0,3190.0,-21.0,-5.0,6.0,0.187,-0.556,-0.029,-0.81
598303,7474.0,-1316.0,3198.0,-1.0,-10.0,2.0,0.187,-0.556,-0.029,-0.81
598316,7454.0,-1254.0,3124.0,-1.0,-2.0,-8.0,0.187,-0.556,-0.029,-0.81
598329,7538.0,-1294.0,3122.0,-2.0,5.0,-22.0,0.188,-0.556,-0.03,-0.809
598352,7552.0,-1268.0,3026.0,-10.0,-6.0,-20.0,0.188,-0.556,-0.03,-0.809
598365,7558.0,-1324.0,2964.0,-22.0,-12.0,-18.0,0.188,-0.556,-0.03,-0.809
598388,7480.0,-1222.0,2998.0,-20.0,-9.0,-12.0,0.188,-0.556,-0.03,-0.809
598401,7442.0,-1254.0,3024.0,-25.0,-14.0,-5.0,0.188,-0.556,-0.03,-0.809
598424,7464.0,-1234.0,3028.0,-37.0,-20.0,-14.0,0.188,-0.556,-0.03,-0.809
598437,7422.0,-1270.0,3144.0,-44.0,-31.0,-22.0,0.188,-0.557,-0.03,-0.809
598460,7572.0,-1276.0,2976.0,-39.0,-34.0,-27.0,0.188,-0.557,-0.03,-0.808
598473,7658.0,-1336.0,2880.0,-39.0,-47.0,-10.0,0.187,-0.558,-0.03,-0.808
598486,7634.0,-1388.0,3028.0,-36.0,-32.0,4.0,0.188,-0.558,-0.03,-0.808
598509,7522.0,-1408.0,3128.0,-20.0,-15.0,5.0,0.188,-0.558,-0.03,-0.808
598522,7532.0,-1344.0,3138.0,-4.0,5.0,-2.0,0.188,-0.558,-0.03,-0.808
598545,7580.0,-1368.0,3026.0,-3.0,7.0,-17.0,0.188,-0.558,-0.031,-0.808
598558,7590.0,-1254.0,2968.0,-2.0,9.0,-25.0,0.188,-0.558,-0.031,-0.808
598581,7646.0,-1272.0,2844.0,-11.0,13.0,-13.0,0.189,-0.558,-0.031,-0.808
598594,7610.0,-1316.0,2884.0,-6.0,22.0,16.0,0.189,-0.558,-0.031,-0.807
598617,7526.0,-1302.0,3080.0,8.0,21.0,22.0,0.189,-0.558,-0.031,-0.807
598630,7460.0,-1306.0,3134.0,25.0,32.0,17.0,0.19,-0.558,-0.031,-0.808
598648,7472.0,-1334.0,3044.0,16.0,30.0,-8.0,0.19,-0.557,-0.032,-0.808
598671,7656.0,-1374.0,2976.0,22.0,18.0,-2.0,0.191,-0.557,-0.032,-0.808
598684,7578.0,-1310.0,2946.0,9.0,24.0,9.0,0.191,-0.557,-0.032,-0.808
598697,7586.0,-1318.0,3052.0,8.0,33.0,8.0,0.191,-0.557,-0.032,-0.808
598720,7586.0,-1334.0,3050.0,24.0,40.0,8.0,0.192,-0.557,-0.033,-0.808
598733,7496.0,-1332.0,3012.0,24.0,53.0,12.0,0.192,-0.556,-0.033,-0.808
598756,7544.0,-1392.0,2944.0,13.0,43.0,22.0,0.193,-0.556,-0.033,-0.808
598769,7362.0,-1418.0,2952.0,11.0,34.0,24.0,0.194,-0.556,-0.033,-0.808
598792,7416.0,-1298.0,3096.0,-14.0,17.0,20.0,0.194,-0.556,-0.033,-0.808
598805,7388.0,-1308.0,3276.0,-14.0,-7.0,0.0,0.194,-0.556,-0.033,-0.808
598828,7388.0,-1292.0,3292.0,-19.0,-20.0,-23.0,0.194,-0.556,-0.033,-0.808
598841,7402.0,-1314.0,3178.0,-12.0,-33.0,-44.0,0.194,-0.556,-0.034,-0.807
598854,7508.0,-1352.0,2970.0,-13.0,-38.0,-60.0,0.194,-0.556,-0.034,-0.807
598877,7552.0,-1330.0,2990.0,-24.0,-33.0,-63.0,0.194,-0.557,-0.034,-0.807
598890,7572.0,-1340.0,3000.0,-18.0,-30.0,-59.0,0.193,-0.557,-0.035,-0.807
598913,7574.0,-1234.0,2942.0,-10.0,-18.0,-48.0,0.193,-0.557,-0.035,-0.807
598926,7596.0,-1336.0,2890.0,0.0,1.0,-41.0,0.193,-0.557,-0.036,-0.807
598949,7562.0,-1312.0,3010.0,-6.0,11.0,-20.0,0.193,-0.557,-0.036,-0.807
598962,7522.0,-1350.0,3058.0,9.0,19.0,5.0,0.193,-0.557,-0.036,-0.807
598985,7616.0,-1404.0,2932.0,15.0,19.0,4.0,0.194,-0.557,-0.036,-0.807
598998,7568.0,-1280.0,2862.0,36.0,44.0,28.0,0.194,-0.557,-0.036,-0.807
599021,7606.0,-1262.0,2938.0,20.0,38.0,53.0,0.195,-0.556,-0.036,-0.807
599034,7560.0,-1360.0,3180.0,10.0,53.0,47.0,0.196,-0.556,-0.036,-0.807
599047,7386.0,-1450.0,3132.0,28.0,49.0,33.0,0.197,-0.556,-0.036,-0.807
599070,7510.0,-1386.0,2958.0,28.0,35.0,18.0,0.197,-0.555,-0.037,-0.807
599083,7470.0,-1326.0,2932.0,12.0,34.0,30.0,0.198,-0.555,-0.037,-0.807
599106,7390.0,-1342.0,3022.0,-11.0,23.0,20.0,0.198,-0.555,-0.036,-0.807
599119,7364.0,-1262.0,3160.0,-20.0,13.0,4.0,0.198,-0.555,-0.036,-0.807
599142,7428.0,-1278.0,3222.0,-35.0,7.0,-28.0,0.198,-0.555,-0.036,-0.807
599155,7460.0,-1326.0,3064.0,-16.0,18.0,-29.0,0.198,-0.555,-0.037,-0.807
599178,7444.0,-1382.0,2930.0,-9.0,17.0,-30.0,0.198,-0.555,-0.037,-0.807
599191,7426.0,-1338.0,3034.0,-11.0,28.0,-29.0,0.198,-0.555,-0.037,-0.807
599214,7372.0,-1070.0,2886.0,-22.0,57.0,-48.0,0.198,-0.554,-0.037,-0.808
599227,7508.0,-1262.0,2720.0,2.0,61.0,-59.0,0.198,-0.554,-0.038,-0.808
599240,7378.0,-1238.0,2670.0,28.0,81.0,-115.0,0.197,-0.553,-0.038,-0.808
599263,7460.0,-1378.0,2804.0,42.0,75.0,-83.0,0.197,-0.553,-0.039,-0.809
599276,7346.0,-1282.0,3046.0,48.0,56.0,-65.0,0.197,-0.552,-0.04,-0.809
599299,7466.0,-1322.0,3308.0,39.0,38.0,-57.0,0.197,-0.552,-0.041,-0.809
599312,7374.0,-1378.0,3462.0,52.0,40.0,-60.0,0.198,-0.551,-0.041,-0.81
599335,7272.0,-1376.0,3588.0,36.0,54.0,-82.0,0.198,-0.551,-0.042,-0.81
599348,7372.0,-1068.0,3514.0,13.0,41.0,-91.0,0.197,-0.55,-0.043,-0.81
599371,7788.0,-1422.0,3076.0,17.0,24.0,-104.0,0.197,-0.55,-0.044,-0.81
599384,7508.0,-1412.0,2640.0,19.0,71.0,-27.0,0.197,-0.55,-0.044,-0.811
599397,7844.0,-1574.0,3014.0,-10.0,-8.0,1.0,0.197,-0.55,-0.044,-0.81
599420,7660.0,-1214.0,2994.0,5.0,51.0,23.0,0.198,-0.55,-0.044,-0.811
599433,7570.0,-1232.0,3088.0,-19.0,55.0,15.0,0.198,-0.549,-0.044,-0.811
599456,7482.0,-1390.0,3008.0,2.0,97.0,-20.0,0.198,-0.549,-0.044,-0.811
599469,7456.0,-1392.0,3202.0,33.0,108.0,-8.0,0.199,-0.548,-0.044,-0.812
599492,7368.0,-1206.0,3358.0,9.0,100.0,-24.0,0.199,-0.547,-0.044,-0.812
599505,7404.0,-1218.0,3344.0,18.0,92.0,-27.0,0.199,-0.546,-0.045,-0.812
599528,7478.0,-1146.0,3322.0,51.0,76.0,-5.0,0.2,-0.545,-0.045,-0.813
599541,7442.0,-1162.0,3382.0,68.0,65.0,3.0,0.201,-0.545,-0.046,-0.813
599564,7448.0,-1006.0,3384.0,19.0,61.0,-13.0,0.201,-0.544,-0.046,-0.813
599577,7654.0,-1076.0,3114.0,20.0,38.0,38.0,0.201,-0.544,-0.046,-0.813
599590,7610.0,-932.0,2922.0,74.0,-47.0,96.0,0.203,-0.544,-0.046,-0.813
599613,7768.0,-1168.0,3300.0,124.0,-117.0,61.0,0.204,-0.545,-0.048,-0.812
599626,7634.0,-1330.0,3866.0,25.0,-64.0,-10.0,0.205,-0.546,-0.048,-0.811
599649,7742.0,-1392.0,4054.0,145.0,-30.0,-34.0,0.205,-0.545,-0.049,-0.811
599662,7464.0,-946.0,3526.0,113.0,30.0,-129.0,0.205,-0.545,-0.051,-0.811
599685,7568.0,-956.0,3096.0,58.0,53.0,-177.0,0.204,-0.544,-0.053,-0.812
599698,7546.0,-950.0,2728.0,14.0,57.0,-164.0,0.203,-0.544,-0.054,-0.812
599721,7406.0,-930.0,2862.0,-13.0,74.0,-113.0,0.203,-0.543,-0.054,-0.813
599734,7344.0,-858.0,3114.0,-40.0,103.0,-67.0,0.202,-0.543,-0.054,-0.813
599757,7308.0,-1184.0,3198.0,0.0,88.0,4.0,0.203,-0.542,-0.054,-0.814
599770,7466.0,-1048.0,3050.0,37.0,121.0,71.0,0.204,-0.541,-0.054,-0.814
599783,7596.0,-1176.0,2936.0,42.0,149.0,157.0,0.205,-0.54,-0.053,-0.814
599806,7528.0,-1148.0,2960.0,21.0,172.0,217.0,0.207,-0.539,-0.052,-0.815
599819,7368.0,-1226.0,3220.0,36.0,183.0,271.0,0.21,-0.538,-0.051,-0.815
599842,7548.0,-1336.0,3596.0,75.0,180.0,290.0,0.213,-0.536,-0.05,-0.815
599855,7500.0,-1080.0,3636.0,101.0,215.0,236.0,0.216,-0.535,-0.049,-0.816
599878,7292.0,-1136.0,3714.0,75.0,241.0,175.0,0.218,-0.533,-0.049,-0.816
599891,7134.0,-1392.0,3614.0,14.0,188.0,99.0,0.219,-0.531,-0.048,-0.817
599914,6212.0,-858.0,3300.0,-98.0,256.0,198.0,0.22,-0.53,-0.046,-0.818
599927,7820.0,-1466.0,3396.0,-157.0,-66.0,15.0,0.22,-0.531,-0.045,-0.817
599940,7480.0,-1372.0,3480.0,-47.0,203.0,105.0,0.221,-0.529,-0.044,-0.818
599963,6882.0,-1134.0,3146.0,-94.0,105.0,31.0,0.221,-0.529,-0.043,-0.818
599976,7254.0,-1470.0,2950.0,-75.0,101.0,24.0,0.221,-0.528,-0.042,-0.819
599999,7478.0,-1406.0,3132.0,-7.0,87.0,51.0,0.222,-0.528,-0.042,-0.819
600012,7506.0,-1592.0,3500.0,45.0,70.0,38.0,0.222,-0.527,-0.042,-0.819
600035,7506.0,-1614.0,4186.0,119.0,103.0,36.0,0.224,-0.526,-0.042,-0.819
600048,7756.0,-1910.0,4122.0,184.0,51.0,35.0,0.225,-0.525,-0.044,-0.819
600071,8050.0,-1764.0,3878.0,269.0,107.0,63.0,0.227,-0.524,-0.045,-0.82
600084,8062.0,-1532.0,3842.0,312.0,226.0,72.0,0.23,-0.522,-0.047,-0.82
600107,7410.0,-1446.0,3728.0,298.0,311.0,-93.0,0.231,-0.519,-0.049,-0.822
600120,7600.0,-1228.0,3860.0,270.0,350.0,-60.0,0.232,-0.515,-0.051,-0.823
600133,6954.0,-1540.0,3678.0,295.0,607.0,-334.0,0.231,-0.51,-0.054,-0.827
600156,6850.0,-1450.0,4076.0,128.0,356.0,-82.0,0.232,-0.507,-0.054,-0.828
600169,6324.0,-1030.0,3894.0,63.0,264.0,-255.0,0.231,-0.504,-0.056,-0.83
600192,6330.0,-894.0,4106.0,-17.0,171.0,-211.0,0.229,-0.503,-0.056,-0.831
600205,6182.0,-642.0,4068.0,-100.0,56.0,-219.0,0.227,-0.503,-0.057,-0.832
600228,6272.0,-506.0,4100.0,-213.0,-76.0,-213.0,0.225,-0.503,-0.056,-0.832
600241,6372.0,-576.0,3882.0,-310.0,-170.0,-186.0,0.222,-0.505,-0.055,-0.832
600264,6742.0,-784.0,3916.0,-331.0,-262.0,-136.0,0.22,-0.508,-0.054,-0.831
600277,6960.0,-788.0,3970.0,-296.0,-286.0,-77.0,0.218,-0.511,-0.053,-0.83
600300,7180.0,-708.0,3798.0,-300.0,-272.0,-71.0,0.216,-0.513,-0.052,-0.829
600313,7426.0,-1082.0,3470.0,-292.0,-254.0,-47.0,0.214,-0.516,-0.05,-0.828
600326,7692.0,-1324.0,3258.0,-255.0,-229.0,-39.0,0.212,-0.518,-0.049,-0.827
600349,7808.0,-1562.0,3328.0,-194.0,-223.0,-9.0,0.212,-0.521,-0.048,-0.826
600362,7708.0,-1630.0,3556.0,-95.0,-161.0,56.0,0.212,-0.522,-0.047,-0.825
600385,7816.0,-1526.0,3794.0,-14.0,-129.0,18.0,0.212,-0.523,-0.048,-0.824
600398,7584.0,-1596.0,3836.0,47.0,-36.0,-15.0,0.213,-0.523,-0.048,-0.824
600421,7484.0,-1464.0,3664.0,67.0,-13.0,-43.0,0.213,-0.523,-0.049,-0.824
600434,7440.0,-1220.0,3362.0,71.0,-9.0,-63.0,0.213,-0.523,-0.05,-0.824
600457,7258.0,-1070.0,3306.0,21.0,-28.0,-85.0,0.212,-0.524,-0.051,-0.823
600470,7008.0,-1188.0,3634.0,-3.0,-59.0,-72.0,0.212,-0.524,-0.051,-0.823
600483,6958.0,-958.0,3848.0,-14.0,-110.0,-81.0,0.212,-0.525,-0.052,-0.823
600506,6612.0,-958.0,3894.0,-57.0,-203.0,-74.0,0.211,-0.526,-0.052,-0.822
600519,7676.0,-908.0,4214.0,-47.0,-308.0,-186.0,0.209,-0.529,-0.054,-0.821
600542,7294.0,-1008.0,4362.0,-56.0,-97.0,-247.0,0.207,-0.529,-0.055,-0.821
600555,7376.0,-1026.0,4472.0,54.0,-91.0,-369.0,0.205,-0.53,-0.057,-0.821
600578,7418.0,-1196.0,4344.0,183.0,-42.0,-407.0,0.203,-0.529,-0.061,-0.822
600591,7624.0,-984.0,4014.0,344.0,78.0,-459.0,0.201,-0.528,-0.066,-0.823
600614,7462.0,-1166.0,3402.0,595.0,172.0,-493.0,0.201,-0.525,-0.072,-0.824
600627,7152.0,-830.0,2746.0,593.0,115.0,-447.0,0.2,-0.523,-0.079,-0.825
600655,7304.0,-252.0,2256.0,347.0,-57.0,-309.0,0.2,-0.523,-0.084,-0.825
600668,7574.0,-412.0,2234.0,96.0,-337.0,-241.0,0.198,-0.525,-0.086,-0.823
600681,8050.0,-256.0,3208.0,75.0,-383.0,-188.0,0.197,-0.528,-0.089,-0.821
600694,7564.0,-370.0,3454.0,34.0,-369.0,-180.0,0.196,-0.53,-0.091,-0.82
600717,7476.0,-656.0,3530.0,93.0,-365.0,-156.0,0.195,-0.533,-0.093,-0.818
600730,7522.0,-686.0,3166.0,56.0,-361.0,-49.0,0.195,-0.536,-0.094,-0.816
600753,7636.0,-704.0,2924.0,-14.0,-386.0,27.0,0.195,-0.539,-0.095,-0.814
600766,7666.0,-642.0,2810.0,-68.0,-346.0,112.0,0.195,-0.542,-0.095,-0.812
600789,7702.0,-510.0,2808.0,-145.0,-334.0,144.0,0.196,-0.545,-0.093,-0.81
600802,7542.0,-518.0,2730.0,-202.0,-325.0,165.0,0.196,-0.548,-0.092,-0.808
600825,7730.0,-644.0,2720.0,-198.0,-332.0,241.0,0.196,-0.551,-0.09,-0.806
600838,7556.0,288.0,2518.0,-430.0,-342.0,439.0,0.197,-0.555,-0.085,-0.804
600851,7430.0,-1568.0,2800.0,-400.0,-468.0,115.0,0.196,-0.559,-0.082,-0.801
600874,7902.0,-1440.0,2734.0,-132.0,-286.0,208.0,0.197,-0.562,-0.081,-0.8
600887,7958.0,-1642.0,3074.0,-55.0,-194.0,250.0,0.199,-0.563,-0.079,-0.798
600910,7826.0,-1376.0,3010.0,100.0,-177.0,63.0,0.2,-0.565,-0.08,-0.797
600923,7736.0,-1196.0,2734.0,124.0,-117.0,91.0,0.201,-0.565,-0.081,-0.796
600946,7780.0,-906.0,2640.0,116.0,-126.0,121.0,0.203,-0.566,-0.081,-0.795
600959,7592.0,-742.0,2660.0,101.0,-93.0,95.0,0.204,-0.567,-0.082,-0.794
600982,7470.0,-732.0,2848.0,92.0,-37.0,103.0,0.206,-0.567,-0.082,-0.793
600995,7314.0,-890.0,2718.0,69.0,-44.0,78.0,0.207,-0.567,-0.083,-0.793
601018,7268.0,-856.0,2596.0,72.0,-31.0,140.0,0.208,-0.567,-0.083,-0.792
601031,7294.0,-874.0,2554.0,19.0,-100.0,154.0,0.21,-0.568,-0.082,-0.791
601044,7360.0,-954.0,2690.0,-9.0,-99.0,193.0,0.211,-0.569,-0.081,-0.79
601067,7270.0,-894.0,2488.0,-41.0,-123.0,206.0,0.213,-0.57,-0.08,-0.789
601080,7298.0,-794.0,2456.0,-99.0,-174.0,221.0,0.214,-0.572,-0.079,-0.788
601103,7472.0,-866.0,2436.0,-143.0,-203.0,227.0,0.215,-0.574,-0.077,-0.786
601116,7560.0,-1104.0,2250.0,-173.0,-210.0,236.0,0.216,-0.576,-0.075,-0.785
601139,7692.0,-1356.0,2336.0,-119.0,-177.0,159.0,0.216,-0.578,-0.074,-0.783
601152,7710.0,-1354.0,2512.0,-66.0,-135.0,68.0,0.217,-0.579,-0.074,-0.782
601175,7808.0,-1390.0,2548.0,-30.0,-114.0,-54.0,0.216,-0.58,-0.074,-0.782
601188,7960.0,-1168.0,2542.0,37.0,-26.0,-94.0,0.216,-0.58,-0.075,-0.782
601211,7858.0,-1164.0,2418.0,62.0,-2.0,-188.0,0.215,-0.58,-0.077,-0.782
601224,8176.0,-1408.0,2448.0,128.0,41.0,-204.0,0.215,-0.579,-0.079,-0.782
601237,8282.0,-1452.0,2554.0,182.0,99.0,-229.0,0.215,-0.578,-0.081,-0.783
601260,8238.0,-1190.0,2546.0,249.0,137.0,-200.0,0.215,-0.576,-0.084,-0.784
601273,8288.0,-1090.0,2654.0,272.0,159.0,-166.0,0.215,-0.575,-0.087,-0.785
601296,8176.0,-366.0,2524.0,50.0,79.0,245.0,0.218,-0.574,-0.086,-0.785
601309,7912.0,-1110.0,2630.0,55.0,110.0,153.0,0.22,-0.573,-0.086,-0.785
601332,7962.0,-996.0,2642.0,83.0,238.0,230.0,0.222,-0.572,-0.085,-0.785
601345,7770.0,-1156.0,2606.0,155.0,246.0,65.0,0.224,-0.57,-0.085,-0.786
601368,7664.0,-782.0,2692.0,125.0,277.0,144.0,0.226,-0.568,-0.085,-0.787
601381,7274.0,-1076.0,2658.0,242.0,318.0,-231.0,0.226,-0.565,-0.087,-0.789
601394,7438.0,-736.0,2650.0,230.0,297.0,-120.0,0.227,-0.562,-0.089,-0.791
601417,7304.0,-826.0,2652.0,211.0,261.0,-96.0,0.228,-0.559,-0.091,-0.792
601430,7166.0,-666.0,2756.0,195.0,239.0,-27.0,0.229,-0.557,-0.092,-0.793
601453,7100.0,-666.0,2982.0,164.0,198.0,-22.0,0.23,-0.555,-0.093,-0.794
601466,7064.0,-474.0,3130.0,110.0,177.0,32.0,0.231,-0.554,-0.094,-0.794
601489,7290.0,-660.0,2958.0,21.0,101.0,48.0,0.232,-0.553,-0.093,-0.795
601502,7372.0,-764.0,2808.0,-35.0,77.0,93.0,0.233,-0.553,-0.093,-0.795
601525,7292.0,-788.0,3088.0,-82.0,55.0,105.0,0.233,-0.552,-0.092,-0.795
601538,7462.0,-1000.0,3076.0,-62.0,11.0,53.0,0.234,-0.553,-0.091,-0.795
601561,7430.0,-886.0,2922.0,-31.0,13.0,19.0,0.234,-0.553,-0.091,-0.795
601574,7514.0,-894.0,2948.0,-40.0,-8.0,-41.0,0.233,-0.553,-0.091,-0.795
601587,7618.0,-840.0,2904.0,-24.0,6.0,-85.0,0.233,-0.553,-0.091,-0.795
601610,7578.0,-854.0,2942.0,-24.0,17.0,-152.0,0.232,-0.552,-0.092,-0.795
601623,7484.0,-640.0,2934.0,-27.0,41.0,-152.0,0.231,-0.552,-0.092,-0.796
601646,7466.0,-894.0,3034.0,-88.0,13.0,-140.0,0.229,-0.552,-0.093,-0.796
601659,7638.0,-806.0,2974.0,-63.0,58.0,-155.0,0.228,-0.552,-0.093,-0.797
601682,7756.0,-620.0,2846.0,-151.0,60.0,-179.0,0.226,-0.551,-0.093,-0.798
601695,7800.0,-804.0,2546.0,-205.0,36.0,-170.0,0.224,-0.552,-0.092,-0.798
601718,7792.0,-726.0,2460.0,-272.0,8.0,-158.0,0.222,-0.552,-0.091,-0.799
601731,7756.0,-496.0,2442.0,-363.0,-17.0,-105.0,0.219,-0.553,-0.089,-0.799
601754,7580.0,-1456.0,3294.0,-278.0,-24.0,5.0,0.218,-0.554,-0.087,-0.799
601767,7762.0,-1062.0,3146.0,-157.0,-6.0,-8.0,0.218,-0.554,-0.086,-0.799
601780,7678.0,-1120.0,3144.0,-152.0,-6.0,60.0,0.218,-0.555,-0.085,-0.799
601803,7782.0,-1160.0,3172.0,-99.0,-19.0,-6.0,0.217,-0.555,-0.084,-0.799
601816,7856.0,-1228.0,3014.0,-52.0,-3.0,-24.0,0.217,-0.555,-0.084,-0.799
601839,7802.0,-1168.0,3038.0,6.0,20.0,-60.0,0.217,-0.555,-0.085,-0.799
601852,7816.0,-1194.0,3116.0,75.0,47.0,-111.0,0.217,-0.554,-0.086,-0.799
601875,7852.0,-1132.0,3040.0,144.0,90.0,-187.0,0.216,-0.553,-0.088,-0.8
601888,7766.0,-1104.0,3046.0,247.0,147.0,-249.0,0.216,-0.551,-0.091,-0.801
601911,7574.0,-960.0,3060.0,329.0,192.0,-361.0,0.216,-0.549,-0.095,-0.802
601924,7776.0,-966.0,3088.0,431.0,192.0,-420.0,0.215,-0.546,-0.1,-0.803
601937,7636.0,-744.0,3078.0,477.0,155.0,-454.0,0.215,-0.544,-0.105,-0.804
601960,7588.0,-542.0,3054.0,507.0,79.0,-451.0,0.214,-0.542,-0.111,-0.805
601973,7586.0,-354.0,3218.0,515.0,12.0,-498.0,0.213,-0.54,-0.118,-0.805
601996,7582.0,-152.0,3156.0,521.0,-59.0,-577.0,0.212,-0.539,-0.125,-0.806
602009,7362.0,-284.0,3164.0,539.0,-132.0,-666.0,0.21,-0.538,-0.133,-0.806
602032,7268.0,-138.0,2742.0,562.0,-233.0,-778.0,0.206,-0.538,-0.141,-0.805
602045,7264.0,14.0,2676.0,516.0,-427.0,-806.0,0.203,-0.539,-0.15,-0.804
602068,7172.0,-302.0,2744.0,538.0,-634.0,-780.0,0.199,-0.542,-0.159,-0.801
602081,7384.0,644.0,3038.0,668.0,-693.0,-655.0,0.196,-0.545,-0.169,-0.798
602104,7358.0,900.0,2974.0,612.0,-809.0,-626.0,0.194,-0.548,-0.179,-0.794
602117,7368.0,1208.0,2822.0,492.0,-969.0,-612.0,0.19,-0.553,-0.187,-0.789
602130,6742.0,476.0,2610.0,299.0,-1146.0,-710.0,0.185,-0.56,-0.195,-0.784
602153,7652.0,992.0,3040.0,191.0,-1330.0,-822.0,0.178,-0.568,-0.203,-0.778
602166,8174.0,1400.0,1752.0,269.0,-1444.0,-449.0,0.173,-0.577,-0.21,-0.77
602189,8310.0,682.0,1656.0,113.0,-1255.0,-314.0,0.169,-0.585,-0.215,-0.763
602202,8562.0,1114.0,1702.0,-31.0,-828.0,-180.0,0.166,-0.591,-0.217,-0.759
602225,8046.0,1062.0,1574.0,24.0,-607.0,-159.0,0.165,-0.595,-0.219,-0.756
602238,8346.0,2662.0,1664.0,68.0,-1535.0,-732.0,0.157,-0.604,-0.227,-0.748
602261,8430.0,1480.0,1098.0,120.0,-894.0,-157.0,0.155,-0.609,-0.23,-0.743
602274,8214.0,1350.0,896.0,81.0,-775.0,-237.0,0.152,-0.614,-0.233,-0.739
602297,8228.0,1930.0,1778.0,-60.0,-1225.0,-730.0,0.144,-0.621,-0.239,-0.733
602310,7958.0,1458.0,942.0,158.0,-1025.0,-182.0,0.142,-0.627,-0.242,-0.727
602323,9090.0,2662.0,-812.0,181.0,-1588.0,-556.0,0.135,-0.636,-0.249,-0.718
602346,8288.0,1290.0,342.0,229.0,-1042.0,-134.0,0.134,-0.643,-0.253,-0.711
602359,8154.0,1436.0,-32.0,157.0,-712.0,-120.0,0.132,-0.647,-0.255,-0.706
602382,8292.0,1430.0,-42.0,136.0,-551.0,-56.0,0.132,-0.65,-0.258,-0.703
602395,8192.0,1508.0,36.0,151.0,-245.0,-19.0,0.132,-0.651,-0.259,-0.701
602418,8050.0,1460.0,226.0,174.0,1.0,7.0,0.133,-0.651,-0.26,-0.7
602431,7796.0,1440.0,284.0,155.0,-5.0,1.0,0.135,-0.651,-0.262,-0.7
602454,7874.0,1286.0,194.0,131.0,-5.0,21.0,0.136,-0.651,-0.262,-0.699
602467,7930.0,1296.0,208.0,115.0,41.0,32.0,0.137,-0.651,-0.263,-0.699
602490,7966.0,1256.0,190.0,72.0,17.0,15.0,0.138,-0.65,-0.263,-0.699
602503,8074.0,1174.0,252.0,64.0,105.0,60.0,0.139,-0.65,-0.264,-0.699
602516,7988.0,1466.0,296.0,88.0,152.0,76.0,0.141,-0.649,-0.264,-0.7
602539,7910.0,1334.0,-12.0,-16.0,27.0,34.0,0.141,-0.649,-0.263,-0.7
602552,7906.0,1466.0,218.0,-41.0,-25.0,57.0,0.142,-0.649,-0.263,-0.7
602575,8150.0,1052.0,396.0,-91.0,-237.0,-68.0,0.14,-0.65,-0.263,-0.699
602588,8208.0,960.0,426.0,-27.0,-157.0,-69.0,0.14,-0.651,-0.264,-0.698
602611,7796.0,1580.0,70.0,-15.0,-269.0,-77.0,0.138,-0.653,-0.265,-0.696
602624,8162.0,1232.0,150.0,-52.0,-572.0,-187.0,0.136,-0.656,-0.266,-0.693
602647,8598.0,982.0,12.0,-4.0,-542.0,-111.0,0.134,-0.659,-0.268,-0.69
602665,8312.0,1658.0,-76.0,68.0,-199.0,83.0,0.135,-0.661,-0.268,-0.688
602678,7924.0,2224.0,38.0,84.0,-179.0,78.0,0.135,-0.662,-0.268,-0.687
602701,7984.0,1888.0,-394.0,-66.0,21.0,248.0,0.137,-0.662,-0.267,-0.687
602714,8608.0,976.0,38.0,-358.0,481.0,488.0,0.139,-0.661,-0.261,-0.69
602727,8530.0,692.0,178.0,-551.0,987.0,564.0,0.142,-0.656,-0.253,-0.696
602750,8406.0,1156.0,180.0,-716.0,1391.0,645.0,0.145,-0.65,-0.242,-0.706
602763,7614.0,1092.0,480.0,-761.0,1598.0,606.0,0.149,-0.642,-0.232,-0.716
602786,7074.0,908.0,870.0,-649.0,1379.0,416.0,0.151,-0.634,-0.223,-0.725
602799,7116.0,976.0,1222.0,-489.0,1124.0,329.0,0.153,-0.628,-0.216,-0.732
602822,6822.0,1088.0,1026.0,-290.0,620.0,15.0,0.153,-0.624,-0.214,-0.736
602835,7174.0,1052.0,756.0,-163.0,209.0,-47.0,0.152,-0.623,-0.213,-0.738
602848,7628.0,1044.0,820.0,-151.0,247.0,28.0,0.152,-0.621,-0.211,-0.739
602871,7968.0,1276.0,1204.0,-187.0,378.0,117.0,0.153,-0.619,-0.209,-0.742
602884,7968.0,1080.0,1258.0,-271.0,544.0,189.0,0.154,-0.616,-0.206,-0.745
602907,8024.0,758.0,1046.0,-333.0,546.0,197.0,0.154,-0.613,-0.201,-0.748
602920,8394.0,478.0,1204.0,-371.0,647.0,187.0,0.155,-0.609,-0.197,-0.752
602943,8296.0,292.0,1792.0,-372.0,986.0,211.0,0.157,-0.603,-0.192,-0.758
602956,7984.0,1072.0,2190.0,-312.0,1075.0,174.0,0.158,-0.596,-0.187,-0.764
602979,7158.0,2022.0,2760.0,-280.0,1019.0,-103.0,0.158,-0.589,-0.185,-0.771
602992,7766.0,1048.0,2532.0,-270.0,381.0,-315.0,0.155,-0.586,-0.184,-0.774
603015,8668.0,416.0,2128.0,-355.0,328.0,-218.0,0.152,-0.584,-0.182,-0.776
603028,8698.0,516.0,1972.0,-533.0,558.0,91.0,0.151,-0.581,-0.177,-0.78
603041,8424.0,886.0,2322.0,-647.0,651.0,472.0,0.153,-0.578,-0.169,-0.784
603064,7978.0,1104.0,2184.0,-905.0,608.0,750.0,0.154,-0.576,-0.158,-0.787
603077,7462.0,780.0,2074.0,-1348.0,77.0,1074.0,0.155,-0.579,-0.142,-0.788
603100,8514.0,-42.0,4600.0,-1542.0,-669.0,1094.0,0.154,-0.587,-0.126,-0.785
603113,8122.0,-404.0,1328.0,-1473.0,-474.0,1175.0,0.154,-0.594,-0.11,-0.782
603136,7902.0,-912.0,652.0,-1569.0,-534.0,1120.0,0.154,-0.602,-0.093,-0.778
603149,8456.0,-1206.0,524.0,-1160.0,-527.0,876.0,0.153,-0.608,-0.081,-0.775
603172,7576.0,-1222.0,-664.0,-1210.0,-621.0,648.0,0.151,-0.615,-0.069,-0.771
603185,7348.0,-2062.0,128.0,-625.0,-549.0,310.0,0.15,-0.621,-0.064,-0.767
603208,8416.0,900.0,2842.0,-712.0,-225.0,561.0,0.15,-0.623,-0.056,-0.766
603221,7514.0,-1868.0,2300.0,-400.0,86.0,28.0,0.148,-0.623,-0.053,-0.766
603234,7830.0,-922.0,1712.0,-330.0,-256.0,-174.0,0.145,-0.625,-0.052,-0.765
603257,8274.0,-1066.0,1508.0,-516.0,-58.0,531.0,0.146,-0.627,-0.046,-0.764
603270,8472.0,-690.0,1494.0,-422.0,-246.0,144.0,0.145,-0.629,-0.043,-0.762
603293,7932.0,-1456.0,1320.0,-451.0,-169.0,-7.0,0.142,-0.631,-0.04,-0.762
603306,7890.0,-1450.0,1476.0,-342.0,-48.0,25.0,0.141,-0.632,-0.037,-0.761
603329,7430.0,-740.0,2950.0,-421.0,95.0,-173.0,0.138,-0.632,-0.036,-0.762
603342,7940.0,-1396.0,2124.0,-416.0,-206.0,-317.0,0.133,-0.633,-0.035,-0.762
603365,8034.0,-614.0,1482.0,-335.0,-33.0,-259.0,0.13,-0.634,-0.034,-0.762
603378,7992.0,-696.0,732.0,-238.0,-46.0,-264.0,0.127,-0.635,-0.035,-0.762
603391,7016.0,-2940.0,2954.0,14.0,179.0,87.0,0.128,-0.633,-0.034,-0.763
603414,8894.0,-2314.0,3022.0,101.0,-157.0,-131.0,0.128,-0.634,-0.036,-0.762
603427,8184.0,-1374.0,1864.0,297.0,232.0,177.0,0.131,-0.632,-0.037,-0.763
603450,8540.0,-1414.0,1764.0,213.0,55.0,50.0,0.133,-0.631,-0.038,-0.763
603463,8608.0,-1114.0,1608.0,210.0,135.0,107.0,0.136,-0.63,-0.039,-0.763
603486,8348.0,-888.0,1468.0,121.0,117.0,80.0,0.137,-0.629,-0.039,-0.764
603499,8084.0,-1194.0,1832.0,105.0,181.0,74.0,0.139,-0.628,-0.04,-0.765
603522,7818.0,-1218.0,1914.0,183.0,296.0,-8.0,0.141,-0.626,-0.041,-0.766
603535,7098.0,-1168.0,1126.0,340.0,392.0,-405.0,0.14,-0.622,-0.045,-0.769
603558,6978.0,-852.0,1718.0,80.0,278.0,-13.0,0.141,-0.62,-0.046,-0.77
603571,7720.0,-864.0,1808.0,49.0,94.0,30.0,0.142,-0.619,-0.046,-0.771
603584,7798.0,-968.0,1856.0,13.0,76.0,14.0,0.142,-0.619,-0.046,-0.771
603607,7904.0,-1206.0,1766.0,30.0,19.0,8.0,0.143,-0.619,-0.046,-0.771
603620,7960.0,-1036.0,1874.0,88.0,6.0,8.0,0.143,-0.619,-0.047,-0.771
603643,7770.0,-966.0,1784.0,87.0,-10.0,12.0,0.144,-0.619,-0.048,-0.771
603656,7878.0,-992.0,1992.0,112.0,-15.0,-3.0,0.145,-0.619,-0.049,-0.771
603679,7860.0,-1052.0,1824.0,141.0,2.0,6.0,0.146,-0.618,-0.05,-0.771
603692,8176.0,-966.0,1692.0,154.0,-18.0,21.0,0.147,-0.618,-0.051,-0.77
603715,7990.0,-956.0,1672.0,139.0,28.0,73.0,0.149,-0.618,-0.051,-0.77
603728,8052.0,-1122.0,1932.0,129.0,13.0,71.0,0.15,-0.618,-0.052,-0.77
603751,7808.0,-1044.0,1934.0,146.0,104.0,89.0,0.152,-0.617,-0.052,-0.77
603764,7778.0,-1252.0,1980.0,138.0,79.0,49.0,0.154,-0.616,-0.053,-0.771
603777,8260.0,-1202.0,1710.0,156.0,72.0,16.0,0.155,-0.616,-0.054,-0.771
603800,7940.0,-1182.0,1662.0,130.0,104.0,75.0,0.156,-0.615,-0.055,-0.771
603813,7886.0,-1328.0,1654.0,128.0,64.0,65.0,0.158,-0.614,-0.055,-0.771
603836,7784.0,-1234.0,1820.0,114.0,44.0,85.0,0.16,-0.614,-0.056,-0.771
603849,7428.0,-1232.0,2208.0,150.0,74.0,43.0,0.161,-0.613,-0.056,-0.771
603872,7650.0,-1210.0,2078.0,158.0,52.0,-20.0,0.162,-0.612,-0.058,-0.772
603885,7894.0,-780.0,1868.0,69.0,-37.0,48.0,0.163,-0.613,-0.058,-0.771
603908,8046.0,-1214.0,1828.0,10.0,-116.0,32.0,0.164,-0.614,-0.058,-0.77
603921,8020.0,-1178.0,2050.0,38.0,-45.0,26.0,0.164,-0.614,-0.059,-0.77
603944,7938.0,-1112.0,1938.0,-29.0,-74.0,-7.0,0.164,-0.614,-0.059,-0.769
603957,7928.0,-1202.0,1932.0,-40.0,-56.0,14.0,0.164,-0.615,-0.058,-0.769
603970,7822.0,-1188.0,1850.0,-35.0,-28.0,-1.0,0.164,-0.615,-0.058,-0.769
603993,7828.0,-1094.0,1832.0,-33.0,-14.0,-29.0,0.164,-0.615,-0.058,-0.769
604006,7764.0,-1144.0,1826.0,-53.0,-21.0,-32.0,0.164,-0.616,-0.058,-0.769
604029,7714.0,-1166.0,1790.0,-67.0,-49.0,-48.0,0.163,-0.616,-0.058,-0.768
604042,7794.0,-1138.0,1936.0,-23.0,-45.0,-78.0,0.163,-0.616,-0.059,-0.768
604065,7832.0,-1108.0,1878.0,6.0,-56.0,-95.0,0.163,-0.617,-0.06,-0.768
604078,7930.0,-1032.0,1846.0,39.0,-29.0,-110.0,0.162,-0.617,-0.061,-0.768
604101,8076.0,-900.0,1840.0,84.0,10.0,-104.0,0.162,-0.617,-0.062,-0.768
604114,8122.0,-938.0,1734.0,103.0,21.0,-82.0,0.163,-0.616,-0.063,-0.768
604127,8232.0,-956.0,1790.0,99.0,82.0,-16.0,0.163,-0.616,-0.064,-0.768
604150,7948.0,-1100.0,2080.0,69.0,99.0,39.0,0.164,-0.615,-0.064,-0.769
604163,8230.0,-1098.0,1982.0,45.0,86.0,69.0,0.165,-0.614,-0.064,-0.769
604186,8050.0,-1248.0,2026.0,22.0,111.0,95.0,0.166,-0.614,-0.064,-0.769
604199,8198.0,-1142.0,1942.0,60.0,127.0,99.0,0.168,-0.613,-0.064,-0.77
604222,8074.0,-1082.0,1970.0,78.0,160.0,89.0,0.169,-0.611,-0.064,-0.77
604235,7920.0,-996.0,1976.0,85.0,181.0,90.0,0.171,-0.61,-0.063,-0.771
604258,7840.0,-1106.0,2058.0,88.0,178.0,85.0,0.172,-0.609,-0.063,-0.772
604271,7616.0,-1110.0,2084.0,67.0,167.0,97.0,0.173,-0.607,-0.063,-0.773
604294,7868.0,-1144.0,1972.0,64.0,126.0,82.0,0.175,-0.607,-0.063,-0.773
604307,7990.0,-1168.0,1912.0,49.0,112.0,92.0,0.176,-0.606,-0.063,-0.773
604320,7920.0,-1092.0,1952.0,28.0,111.0,81.0,0.177,-0.605,-0.062,-0.774
604343,7796.0,-1154.0,2104.0,8.0,122.0,73.0,0.178,-0.604,-0.062,-0.774
604356,7792.0,-1250.0,2034.0,-3.0,111.0,68.0,0.178,-0.603,-0.061,-0.775
604379,7884.0,-1168.0,2078.0,-7.0,115.0,77.0,0.179,-0.603,-0.061,-0.775
604392,7918.0,-1078.0,2108.0,-11.0,130.0,71.0,0.18,-0.602,-0.06,-0.776
604415,7866.0,-1148.0,2126.0,-5.0,146.0,88.0,0.181,-0.601,-0.059,-0.776
604428,7968.0,-1282.0,1944.0,30.0,159.0,99.0,0.182,-0.6,-0.059,-0.777
604451,7862.0,-1252.0,2122.0,61.0,183.0,91.0,0.183,-0.599,-0.059,-0.778
604464,7728.0,-1338.0,2362.0,81.0,189.0,92.0,0.185,-0.597,-0.058,-0.778
604487,7520.0,-1400.0,2504.0,87.0,205.0,33.0,0.186,-0.595,-0.059,-0.779
604500,7546.0,-1276.0,2444.0,70.0,179.0,14.0,0.186,-0.594,-0.059,-0.78
604513,7706.0,-1224.0,2326.0,7.0,106.0,52.0,0.187,-0.593,-0.058,-0.781
604536,7866.0,-1398.0,2236.0,31.0,97.0,28.0,0.188,-0.593,-0.058,-0.781
604549,7634.0,-1268.0,2388.0,65.0,105.0,39.0,0.189,-0.592,-0.058,-0.782
604572,7558.0,-1386.0,2670.0,97.0,95.0,12.0,0.19,-0.591,-0.059,-0.782
604585,7516.0,-1196.0,2632.0,47.0,71.0,53.0,0.191,-0.59,-0.059,-0.782
604608,7534.0,-1404.0,2408.0,19.0,42.0,27.0,0.191,-0.59,-0.059,-0.782
604621,7796.0,-1288.0,2338.0,31.0,47.0,5.0,0.191,-0.59,-0.059,-0.782
604644,7878.0,-1200.0,2210.0,16.0,21.0,-16.0,0.192,-0.59,-0.059,-0.782
604657,7876.0,-1204.0,2368.0,2.0,8.0,22.0,0.192,-0.59,-0.059,-0.782
604675,7688.0,-1392.0,2424.0,2.0,-5.0,23.0,0.192,-0.59,-0.059,-0.782
604688,7766.0,-1256.0,2510.0,30.0,-5.0,15.0,0.193,-0.59,-0.059,-0.782
604711,7696.0,-1230.0,2588.0,4.0,-5.0,17.0,0.193,-0.59,-0.059,-0.782
604724,7740.0,-1448.0,2540.0,-23.0,-38.0,0.0,0.193,-0.59,-0.059,-0.782
604747,7840.0,-1364.0,2330.0,-13.0,-30.0,-10.0,0.193,-0.59,-0.059,-0.782
604760,7888.0,-1258.0,2330.0,-10.0,-21.0,-15.0,0.193,-0.59,-0.06,-0.781
604783,7910.0,-1340.0,2406.0,-10.0,-3.0,-16.0,0.193,-0.591,-0.06,-0.781
604796,7736.0,-1422.0,2454.0,6.0,40.0,-22.0,0.193,-0.59,-0.06,-0.781
604819,7742.0,-1424.0,2308.0,15.0,31.0,-9.0,0.193,-0.59,-0.06,-0.782
604832,7858.0,-1280.0,2228.0,20.0,29.0,6.0,0.194,-0.59,-0.06,-0.782
604855,7930.0,-1232.0,2262.0,19.0,31.0,9.0,0.194,-0.59,-0.06,-0.782
604868,7670.0,-1248.0,2402.0,32.0,87.0,22.0,0.195,-0.589,-0.06,-0.782
604881,7568.0,-1294.0,2342.0,33.0,48.0,39.0,0.195,-0.589,-0.06,-0.782
604904,7786.0,-1554.0,2364.0,74.0,68.0,48.0,0.196,-0.588,-0.06,-0.782
604917,7768.0,-1386.0,2476.0,106.0,60.0,33.0,0.197,-0.588,-0.061,-0.782
604940,7348.0,-1348.0,2742.0,88.0,97.0,-13.0,0.198,-0.587,-0.061,-0.783
604953,7526.0,-1334.0,2532.0,71.0,3.0,-56.0,0.198,-0.586,-0.062,-0.783
604976,7766.0,-1348.0,2432.0,-17.0,-44.0,-9.0,0.198,-0.587,-0.062,-0.783
604989,7748.0,-1226.0,2422.0,-46.0,-70.0,-34.0,0.198,-0.587,-0.062,-0.782
605012,7602.0,-1214.0,2456.0,-59.0,-73.0,-43.0,0.197,-0.588,-0.062,-0.782
605025,7532.0,-1304.0,2546.0,-74.0,-90.0,-55.0,0.196,-0.589,-0.062,-0.782
605038,7680.0,-1270.0,2486.0,-75.0,-112.0,-66.0,0.196,-0.59,-0.062,-0.781
605061,7738.0,-1216.0,2434.0,-82.0,-90.0,-76.0,0.195,-0.591,-0.062,-0.781
605074,7562.0,-1352.0,2436.0,-73.0,-100.0,-63.0,0.194,-0.591,-0.062,-0.78
605097,7924.0,-1166.0,2180.0,-62.0,-96.0,-49.0,0.193,-0.592,-0.062,-0.78
605110,7924.0,-1266.0,2118.0,-46.0,-73.0,-39.0,0.193,-0.593,-0.062,-0.779
605133,8016.0,-1186.0,2232.0,-38.0,-54.0,-35.0,0.193,-0.593,-0.063,-0.779
605146,7958.0,-1270.0,2234.0,29.0,3.0,-20.0,0.193,-0.593,-0.063,-0.779
605169,7868.0,-1300.0,2322.0,91.0,37.0,-5.0,0.193,-0.593,-0.064,-0.779
605182,7824.0,-1242.0,2334.0,127.0,59.0,16.0,0.194,-0.592,-0.064,-0.779
605205,7882.0,-1222.0,2258.0,149.0,78.0,39.0,0.196,-0.592,-0.065,-0.779
605218,7830.0,-1192.0,2360.0,141.0,83.0,44.0,0.197,-0.591,-0.066,-0.78
605231,7756.0,-1278.0,2440.0,124.0,88.0,56.0,0.198,-0.59,-0.066,-0.78
605254,7832.0,-1116.0,2354.0,130.0,88.0,43.0,0.2,-0.589,-0.067,-0.78
605267,7746.0,-1382.0,2416.0,103.0,67.0,33.0,0.201,-0.589,-0.067,-0.78
605290,7806.0,-1244.0,2486.0,83.0,52.0,20.0,0.201,-0.588,-0.068,-0.78
605303,7684.0,-1300.0,2502.0,58.0,56.0,21.0,0.202,-0.588,-0.068,-0.781
605326,7652.0,-1288.0,2474.0,32.0,36.0,6.0,0.202,-0.587,-0.068,-0.781
605339,7744.0,-1382.0,2472.0,1.0,14.0,6.0,0.203,-0.587,-0.068,-0.781
605362,7766.0,-1206.0,2372.0,-41.0,-4.0,-20.0,0.203,-0.587,-0.068,-0.781
605375,7632.0,-1334.0,2522.0,-69.0,-19.0,-34.0,0.202,-0.588,-0.068,-0.781
605398,7664.0,-1312.0,2484.0,-71.0,-47.0,-38.0,0.202,-0.588,-0.068,-0.78
605411,7622.0,-1224.0,2304.0,-95.0,-56.0,-48.0,0.201,-0.589,-0.067,-0.78
605424,7618.0,-1218.0,2410.0,-102.0,-63.0,-43.0,0.2,-0.589,-0.067,-0.78
605447,7610.0,-1210.0,2490.0,-79.0,-66.0,-40.0,0.199,-0.59,-0.067,-0.78
605460,7612.0,-1242.0,2416.0,-114.0,-87.0,-55.0,0.198,-0.591,-0.067,-0.779
605483,7780.0,-1324.0,2322.0,-84.0,-107.0,-36.0,0.198,-0.592,-0.066,-0.779
605496,7766.0,-1292.0,2204.0,-60.0,-104.0,-42.0,0.197,-0.593,-0.066,-0.778
605519,7846.0,-1130.0,2260.0,-30.0,-99.0,-29.0,0.197,-0.593,-0.066,-0.778
605532,7678.0,-1176.0,2378.0,-33.0,-68.0,-16.0,0.197,-0.594,-0.067,-0.777
605555,7744.0,-1324.0,2386.0,-4.0,-75.0,-7.0,0.197,-0.594,-0.067,-0.777
605568,7806.0,-1268.0,2236.0,3.0,-65.0,8.0,0.197,-0.595,-0.067,-0.776
605581,7880.0,-1282.0,2274.0,6.0,-71.0,10.0,0.197,-0.596,-0.067,-0.776
605604,7878.0,-1208.0,2178.0,25.0,-45.0,11.0,0.197,-0.596,-0.067,-0.776
605617,7904.0,-1294.0,2262.0,28.0,-34.0,8.0,0.198,-0.596,-0.067,-0.775
605640,8008.0,-1324.0,2204.0,47.0,-33.0,8.0,0.198,-0.596,-0.068,-0.775
605653,7918.0,-1226.0,2222.0,70.0,4.0,1.0,0.199,-0.596,-0.068,-0.775
605676,7798.0,-1220.0,2386.0,72.0,46.0,-6.0,0.199,-0.596,-0.069,-0.775
605689,7940.0,-1382.0,2286.0,88.0,54.0,7.0,0.2,-0.595,-0.069,-0.775
605712,7900.0,-1320.0,2170.0,101.0,53.0,29.0,0.201,-0.595,-0.07,-0.775
605725,7866.0,-1260.0,2162.0,89.0,43.0,22.0,0.202,-0.594,-0.07,-0.775
605748,7794.0,-1256.0,2316.0,82.0,48.0,23.0,0.203,-0.594,-0.071,-0.775
605761,7618.0,-1362.0,2468.0,72.0,32.0,17.0,0.204,-0.594,-0.071,-0.775
605774,7692.0,-1218.0,2310.0,79.0,10.0,0.0,0.204,-0.593,-0.072,-0.775
605797,7910.0,-912.0,2282.0,51.0,-12.0,30.0,0.205,-0.593,-0.072,-0.775
605810,7480.0,-1436.0,2326.0,74.0,9.0,16.0,0.205,-0.593,-0.073,-0.775
605833,7492.0,-958.0,2234.0,42.0,-68.0,-7.0,0.206,-0.594,-0.073,-0.775
605846,7492.0,-1372.0,2464.0,15.0,-115.0,-42.0,0.206,-0.594,-0.074,-0.774
605869,7446.0,-1008.0,2426.0,-47.0,-153.0,-81.0,0.205,-0.595,-0.074,-0.773
605882,7744.0,-1188.0,2302.0,-96.0,-192.0,-96.0,0.204,-0.597,-0.075,-0.772
605905,7762.0,-1280.0,2148.0,-99.0,-170.0,-102.0,0.202,-0.598,-0.075,-0.772
605918,7914.0,-1136.0,2022.0,-46.0,-188.0,-66.0,0.202,-0.6,-0.075,-0.771
605941,7936.0,-1188.0,2054.0,-49.0,-80.0,-94.0,0.201,-0.6,-0.076,-0.77
605954,8124.0,-1140.0,1878.0,-6.0,-38.0,-71.0,0.2,-0.601,-0.076,-0.77
605967,8124.0,-1338.0,1866.0,30.0,28.0,-77.0,0.2,-0.601,-0.077,-0.77
605990,8066.0,-1264.0,1796.0,102.0,51.0,-38.0,0.201,-0.6,-0.078,-0.77
606003,8036.0,-1234.0,1962.0,139.0,80.0,-15.0,0.202,-0.599,-0.079,-0.771
606026,7816.0,-1108.0,2132.0,170.0,107.0,-23.0,0.203,-0.598,-0.08,-0.771
606039,7626.0,-1090.0,2156.0,175.0,105.0,-52.0,0.203,-0.597,-0.081,-0.772
606062,7706.0,-1220.0,2144.0,167.0,89.0,-88.0,0.204,-0.596,-0.083,-0.772
606075,7622.0,-1104.0,2170.0,170.0,75.0,-98.0,0.204,-0.595,-0.085,-0.772
606098,7798.0,-1120.0,2148.0,172.0,56.0,-130.0,0.205,-0.594,-0.087,-0.773
606111,7718.0,-986.0,2434.0,180.0,85.0,-166.0,0.205,-0.593,-0.089,-0.773
606124,7708.0,-1078.0,2470.0,168.0,80.0,-197.0,0.205,-0.592,-0.091,-0.774
606147,7706.0,-1054.0,2482.0,160.0,103.0,-202.0,0.204,-0.591,-0.093,-0.775
606160,7856.0,-1018.0,2490.0,130.0,53.0,-182.0,0.204,-0.59,-0.095,-0.775
606183,7988.0,-924.0,2224.0,88.0,34.0,-152.0,0.204,-0.59,-0.096,-0.776
606196,8026.0,-808.0,2288.0,49.0,15.0,-107.0,0.203,-0.59,-0.097,-0.776
606219,7812.0,-984.0,2448.0,41.0,13.0,-105.0,0.203,-0.589,-0.098,-0.776
606232,7980.0,-872.0,2302.0,20.0,-11.0,-83.0,0.202,-0.589,-0.099,-0.776
606255,7930.0,-776.0,2314.0,-26.0,-4.0,-60.0,0.202,-0.589,-0.099,-0.776
606268,7924.0,-868.0,2246.0,4.0,13.0,-35.0,0.202,-0.589,-0.099,-0.776
606291,7848.0,-854.0,2292.0,1.0,12.0,-35.0,0.202,-0.589,-0.1,-0.776
606304,7764.0,-792.0,2364.0,19.0,35.0,-48.0,0.202,-0.589,-0.1,-0.776
606317,7704.0,-882.0,2350.0,33.0,47.0,-62.0,0.202,-0.588,-0.101,-0.777
606340,7856.0,-732.0,2308.0,27.0,33.0,-68.0,0.202,-0.588,-0.101,-0.777
606353,7810.0,-826.0,2228.0,29.0,18.0,-69.0,0.202,-0.588,-0.102,-0.777
606376,7936.0,-774.0,2172.0,42.0,21.0,-67.0,0.202,-0.588,-0.103,-0.777
606389,7812.0,-742.0,2288.0,61.0,30.0,-86.0,0.202,-0.587,-0.104,-0.777
606412,7804.0,-736.0,2448.0,87.0,58.0,-92.0,0.202,-0.587,-0.105,-0.777
606425,7824.0,-742.0,2366.0,90.0,70.0,-116.0,0.201,-0.586,-0.106,-0.778
606448,7938.0,-724.0,2312.0,98.0,87.0,-114.0,0.201,-0.585,-0.107,-0.778
606461,7952.0,-774.0,2236.0,108.0,114.0,-111.0,0.201,-0.584,-0.108,-0.779
606484,8006.0,-828.0,2238.0,128.0,139.0,-98.0,0.202,-0.583,-0.109,-0.78
606497,7884.0,-778.0,2466.0,151.0,174.0,-79.0,0.202,-0.581,-0.111,-0.781
606510,7852.0,-650.0,2530.0,150.0,191.0,-80.0,0.203,-0.579,-0.112,-0.782
606533,8020.0,-512.0,2532.0,126.0,182.0,-81.0,0.203,-0.578,-0.113,-0.783
606546,8262.0,-642.0,2582.0,81.0,201.0,-106.0,0.203,-0.576,-0.114,-0.784
606569,7808.0,-428.0,2702.0,63.0,133.0,-3.0,0.204,-0.575,-0.114,-0.784
606582,7706.0,-216.0,2406.0,131.0,22.0,95.0,0.205,-0.574,-0.115,-0.784
606605,7250.0,530.0,3262.0,93.0,-62.0,13.0,0.206,-0.575,-0.116,-0.784
606618,7090.0,-1032.0,2578.0,-386.0,-406.0,-270.0,0.202,-0.578,-0.115,-0.782
606641,9044.0,-2820.0,2290.0,-252.0,-157.0,-299.0,0.198,-0.579,-0.115,-0.782
606654,7528.0,-1620.0,976.0,-278.0,-192.0,-130.0,0.196,-0.581,-0.114,-0.781
606667,8110.0,-632.0,1990.0,-351.0,-315.0,5.0,0.194,-0.584,-0.112,-0.78
606685,8022.0,-458.0,2492.0,-313.0,-165.0,-81.0,0.191,-0.586,-0.111,-0.779
606708,7564.0,-276.0,3256.0,-225.0,-8.0,-123.0,0.189,-0.586,-0.11,-0.78
606721,7382.0,-552.0,2676.0,-154.0,38.0,-159.0,0.188,-0.586,-0.11,-0.781
606744,7364.0,-900.0,2004.0,-110.0,-83.0,-40.0,0.187,-0.587,-0.109,-0.78
606757,7326.0,-836.0,1484.0,-202.0,-255.0,71.0,0.186,-0.589,-0.108,-0.779
606780,7336.0,-1350.0,1592.0,-345.0,-473.0,226.0,0.186,-0.594,-0.105,-0.776
606793,8040.0,-1430.0,2412.0,-109.0,-452.0,397.0,0.188,-0.598,-0.102,-0.773
606816,8160.0,-1984.0,3430.0,202.0,-476.0,515.0,0.192,-0.601,-0.102,-0.769
606829,8048.0,-1904.0,3262.0,302.0,-346.0,373.0,0.197,-0.603,-0.102,-0.766
606852,7874.0,-1848.0,2854.0,413.0,-334.0,257.0,0.201,-0.605,-0.104,-0.763
606865,8366.0,-1754.0,3086.0,488.0,-433.0,134.0,0.204,-0.607,-0.108,-0.76
606878,8734.0,-894.0,3868.0,585.0,-341.0,69.0,0.208,-0.609,-0.112,-0.757
606901,8054.0,-2380.0,5394.0,759.0,-254.0,-175.0,0.211,-0.609,-0.119,-0.755
606914,7846.0,-3144.0,8026.0,986.0,-91.0,-188.0,0.215,-0.607,-0.128,-0.754
606937,8722.0,-2944.0,8010.0,1356.0,177.0,-271.0,0.221,-0.603,-0.138,-0.754
606950,8632.0,154.0,4620.0,764.0,394.0,96.0,0.226,-0.599,-0.142,-0.755
606973,8388.0,760.0,3004.0,-87.0,339.0,586.0,0.23,-0.597,-0.138,-0.756
606986,10408.0,-1164.0,5382.0,-17.0,270.0,226.0,0.232,-0.596,-0.136,-0.757
607009,10698.0,-1768.0,6042.0,302.0,947.0,415.0,0.238,-0.589,-0.134,-0.761
607022,10588.0,-2082.0,8012.0,529.0,1348.0,302.0,0.245,-0.578,-0.133,-0.767
607035,10916.0,-2512.0,8152.0,421.0,1745.0,323.0,0.252,-0.565,-0.13,-0.775
607058,10228.0,-960.0,7560.0,388.0,1919.0,49.0,0.257,-0.55,-0.128,-0.784
607071,11510.0,-820.0,7968.0,123.0,2054.0,580.0,0.264,-0.536,-0.122,-0.793
607094,11722.0,-564.0,7972.0,73.0,2379.0,96.0,0.268,-0.518,-0.116,-0.804
607107,12230.0,-974.0,8354.0,-50.0,2622.0,441.0,0.274,-0.499,-0.107,-0.815
607130,13228.0,-576.0,9902.0,-135.0,2934.0,491.0,0.28,-0.477,-0.096,-0.827
607143,13494.0,-406.0,8458.0,-217.0,3306.0,285.0,0.284,-0.452,-0.084,-0.841
607166,12196.0,-1780.0,8466.0,-486.0,3676.0,455.0,0.289,-0.425,-0.069,-0.855
607179,12920.0,1082.0,9428.0,-233.0,3772.0,122.0,0.291,-0.395,-0.057,-0.869
607202,13032.0,-542.0,9540.0,-750.0,4121.0,117.0,0.291,-0.364,-0.039,-0.884
607215,12712.0,104.0,8468.0,-945.0,4359.0,74.0,0.29,-0.33,-0.019,-0.898
607238,12868.0,218.0,7436.0,-1197.0,4481.0,-96.0,0.286,-0.295,0.003,-0.911
607251,12268.0,-770.0,7034.0,-1363.0,4655.0,-81.0,0.282,-0.259,0.027,-0.923
607264,10858.0,-996.0,7434.0,-1022.0,4892.0,-158.0,0.276,-0.22,0.048,-0.934
607287,8638.0,992.0,9598.0,-873.0,5157.0,-193.0,0.27,-0.177,0.068,-0.944
607300,7214.0,36.0,6218.0,-1258.0,4684.0,-376.0,0.261,-0.139,0.09,-0.951
607323,5772.0,-1152.0,4942.0,-1623.0,4214.0,-192.0,0.253,-0.107,0.114,-0.955
607336,5258.0,-1746.0,4098.0,-1580.0,3966.0,-197.0,0.245,-0.075,0.138,-0.957
607359,3526.0,-1036.0,6244.0,-1223.0,3990.0,-133.0,0.238,-0.042,0.157,-0.958
607372,2196.0,-340.0,5514.0,-1065.0,3601.0,-142.0,0.23,-0.013,0.175,-0.957
607395,2768.0,-892.0,3580.0,-959.0,2996.0,171.0,0.226,0.012,0.19,-0.955
607408,2732.0,-884.0,3086.0,-1019.0,2772.0,397.0,0.225,0.036,0.204,-0.952
607421,1540.0,-868.0,2910.0,-1167.0,2607.0,499.0,0.224,0.057,0.22,-0.948
607444,1362.0,-1640.0,2654.0,-1142.0,2362.0,596.0,0.224,0.077,0.235,-0.943
607457,1360.0,-1104.0,1752.0,-890.0,2265.0,646.0,0.225,0.097,0.246,-0.938
607480,654.0,-512.0,1368.0,-890.0,2283.0,550.0,0.225,0.116,0.258,-0.932
607493,-212.0,-1022.0,624.0,-1037.0,2072.0,206.0,0.222,0.133,0.271,-0.927
607516,-422.0,-1314.0,1100.0,-974.0,1850.0,188.0,0.22,0.147,0.283,-0.922
607529,-746.0,-1478.0,474.0,-1059.0,1577.0,199.0,0.218,0.159,0.295,-0.917
607552,-778.0,-1398.0,-626.0,-1153.0,1293.0,125.0,0.216,0.169,0.307,-0.911
607565,-758.0,-2034.0,-998.0,-1018.0,1036.0,90.0,0.215,0.176,0.318,-0.907
607578,-714.0,-2254.0,-660.0,-719.0,727.0,131.0,0.215,0.181,0.325,-0.903
607601,-986.0,-2130.0,-676.0,-178.0,656.0,150.0,0.213,0.187,0.327,-0.901
607614,-1350.0,-2296.0,-1568.0,169.0,348.0,178.0,0.213,0.191,0.326,-0.901
607637,-1216.0,-2064.0,-1450.0,312.0,88.0,156.0,0.213,0.193,0.323,-0.902
607650,-1798.0,-2322.0,-1546.0,358.0,-173.0,-85.0,0.211,0.192,0.32,-0.903
607673,-1586.0,-2174.0,-1300.0,471.0,-455.0,-320.0,0.208,0.189,0.315,-0.907
607686,-1898.0,-2384.0,-1220.0,469.0,-729.0,-470.0,0.205,0.182,0.31,-0.91
607709,-1692.0,-2328.0,-1002.0,642.0,-1093.0,-490.0,0.202,0.173,0.303,-0.915
607722,-1344.0,-1954.0,-588.0,800.0,-1347.0,-460.0,0.2,0.162,0.295,-0.92
607745,-1460.0,-2486.0,-532.0,867.0,-1603.0,-468.0,0.198,0.149,0.285,-0.926
607758,-956.0,-1828.0,-126.0,1012.0,-1885.0,-515.0,0.196,0.133,0.273,-0.932
607771,-72.0,-400.0,1548.0,981.0,-2070.0,-507.0,0.195,0.116,0.261,-0.938
607794,322.0,-274.0,2470.0,961.0,-2183.0,-409.0,0.195,0.098,0.249,-0.944
607807,482.0,-376.0,3268.0,942.0,-2285.0,-379.0,0.195,0.079,0.237,-0.949
607830,870.0,-2348.0,-174.0,762.0,-2763.0,-516.0,0.195,0.055,0.225,-0.953
607843,1650.0,-3120.0,234.0,743.0,-3389.0,-832.0,0.193,0.024,0.213,-0.957
607866,3458.0,-1142.0,4102.0,1130.0,-3682.0,-926.0,0.191,-0.008,0.196,-0.962
607879,4330.0,1578.0,6280.0,749.0,-3558.0,-958.0,0.188,-0.041,0.182,-0.964
607902,4086.0,-1190.0,7330.0,639.0,-3662.0,-962.0,0.185,-0.075,0.169,-0.965
607915,5620.0,-2220.0,7302.0,579.0,-3699.0,-940.0,0.182,-0.109,0.156,-0.965
607938,6090.0,-1012.0,7822.0,595.0,-3843.0,-371.0,0.184,-0.143,0.144,-0.962
607951,7080.0,-1870.0,8918.0,213.0,-4125.0,-774.0,0.182,-0.18,0.134,-0.957
607974,8936.0,-1284.0,10738.0,570.0,-3751.0,-626.0,0.181,-0.213,0.122,-0.952
607987,8822.0,-2438.0,9836.0,595.0,-3552.0,-465.0,0.182,-0.244,0.109,-0.946
608000,8968.0,-2726.0,9892.0,430.0,-3611.0,-271.0,0.183,-0.276,0.099,-0.938
608023,9582.0,-3110.0,12004.0,420.0,-3565.0,-131.0,0.186,-0.306,0.089,-0.929
608036,9824.0,-2160.0,10308.0,400.0,-3294.0,-169.0,0.188,-0.334,0.079,-0.92
608059,10748.0,-3056.0,10538.0,462.0,-3032.0,-213.0,0.189,-0.359,0.07,-0.911
608072,10340.0,-2452.0,9328.0,570.0,-2474.0,-380.0,0.189,-0.379,0.059,-0.904
608095,7618.0,-4118.0,11020.0,1078.0,-1901.0,-838.0,0.187,-0.394,0.044,-0.899
608108,7588.0,-1850.0,11468.0,1025.0,-1949.0,-471.0,0.187,-0.408,0.03,-0.893
608121,8254.0,-3376.0,9162.0,655.0,-2297.0,-308.0,0.187,-0.426,0.02,-0.885
608144,9732.0,-3172.0,8444.0,774.0,-2065.0,-353.0,0.188,-0.442,0.009,-0.877
608157,9010.0,-1850.0,8138.0,769.0,-1910.0,-271.0,0.189,-0.456,-0.002,-0.87
608180,8272.0,-2202.0,9438.0,681.0,-1803.0,-337.0,0.188,-0.47,-0.012,-0.862
608193,7450.0,-2820.0,8328.0,735.0,-1838.0,-371.0,0.188,-0.483,-0.023,-0.855
608216,8122.0,-1906.0,7696.0,699.0,-1897.0,-298.0,0.188,-0.497,-0.033,-0.846
608229,8272.0,-1986.0,6902.0,473.0,-1849.0,-292.0,0.187,-0.511,-0.041,-0.838
608252,8316.0,-994.0,9048.0,420.0,-1787.0,-585.0,0.184,-0.524,-0.05,-0.83
608265,8062.0,-1134.0,9540.0,405.0,-1550.0,-446.0,0.182,-0.535,-0.058,-0.823
608288,8814.0,-1358.0,8642.0,247.0,-1434.0,-258.0,0.18,-0.545,-0.063,-0.816
608301,8586.0,-3278.0,6474.0,98.0,-1262.0,-283.0,0.178,-0.554,-0.068,-0.81
608314,10276.0,-1732.0,8358.0,145.0,-858.0,-179.0,0.176,-0.561,-0.071,-0.806
608337,9810.0,-1746.0,9248.0,40.0,-267.0,-359.0,0.174,-0.562,-0.074,-0.805
608350,9678.0,-1720.0,10744.0,227.0,329.0,-213.0,0.174,-0.559,-0.076,-0.807
608373,9114.0,-2058.0,9844.0,205.0,893.0,-327.0,0.173,-0.552,-0.078,-0.812
608386,8852.0,-2456.0,7374.0,-7.0,1003.0,51.0,0.174,-0.544,-0.076,-0.817
608409,9018.0,-2136.0,9308.0,-46.0,1238.0,340.0,0.178,-0.535,-0.072,-0.823
608422,8552.0,-1820.0,9574.0,-187.0,1614.0,52.0,0.178,-0.523,-0.068,-0.831
608445,8418.0,-2180.0,9768.0,-109.0,1927.0,113.0,0.18,-0.508,-0.063,-0.84
608458,8964.0,-1472.0,9664.0,-216.0,2210.0,138.0,0.182,-0.492,-0.057,-0.85
608481,9124.0,-1850.0,9450.0,-482.0,2308.0,263.0,0.183,-0.474,-0.048,-0.86
608494,9532.0,-1522.0,9816.0,-567.0,2625.0,328.0,0.184,-0.454,-0.038,-0.871
608507,9302.0,-1764.0,10188.0,-572.0,3036.0,303.0,0.185,-0.43,-0.027,-0.883
608530,9800.0,-1564.0,9618.0,-669.0,3127.0,429.0,0.187,-0.406,-0.014,-0.895
608543,9910.0,-1764.0,9584.0,-712.0,3283.0,332.0,0.188,-0.379,-0.001,-0.906
608566,10524.0,-1764.0,11386.0,-659.0,3463.0,483.0,0.189,-0.351,0.012,-0.917
608579,9494.0,-1022.0,11754.0,-578.0,3728.0,510.0,0.191,-0.32,0.025,-0.928
608602,9058.0,-1354.0,9128.0,-777.0,3681.0,495.0,0.192,-0.289,0.04,-0.937
608615,9432.0,-2208.0,9254.0,-743.0,3562.0,550.0,0.194,-0.259,0.054,-0.945
608638,8976.0,-1512.0,10354.0,-482.0,3879.0,412.0,0.194,-0.226,0.066,-0.952
608651,7874.0,-1088.0,10604.0,-411.0,3962.0,312.0,0.193,-0.191,0.078,-0.959
608664,6848.0,-1904.0,8532.0,-627.0,3854.0,445.0,0.193,-0.157,0.091,-0.964
608692,6850.0,-1346.0,7872.0,-730.0,3535.0,587.0,0.194,-0.126,0.105,-0.967
608705,6064.0,-1936.0,7946.0,-647.0,3649.0,503.0,0.194,-0.094,0.118,-0.969
608718,4512.0,-1370.0,8564.0,-606.0,3620.0,421.0,0.193,-0.062,0.13,-0.971
608741,3958.0,-976.0,7324.0,-739.0,3416.0,262.0,0.191,-0.032,0.143,-0.971
608754,3618.0,-1042.0,6156.0,-957.0,3207.0,402.0,0.189,-0.005,0.157,-0.969
608777,2892.0,-2102.0,6048.0,-909.0,3020.0,612.0,0.19,0.022,0.171,-0.967
608790,2484.0,-1650.0,6386.0,-586.0,2874.0,685.0,0.191,0.048,0.181,-0.964
608813,2336.0,-704.0,5402.0,-596.0,2713.0,773.0,0.193,0.073,0.19,-0.96
608826,1922.0,-1514.0,3450.0,-767.0,2442.0,882.0,0.197,0.095,0.201,-0.955
608849,1624.0,-1762.0,3708.0,-593.0,2187.0,908.0,0.201,0.115,0.209,-0.95
608862,1360.0,-840.0,4860.0,-466.0,2279.0,832.0,0.204,0.136,0.217,-0.945
608875,928.0,-436.0,4006.0,-544.0,2101.0,612.0,0.205,0.155,0.224,-0.94
608898,976.0,-1132.0,2796.0,-750.0,1826.0,551.0,0.207,0.171,0.234,-0.935
608911,772.0,-1268.0,1804.0,-780.0,1727.0,441.0,0.207,0.185,0.243,-0.929
608934,590.0,-1030.0,186.0,-920.0,1549.0,298.0,0.207,0.198,0.253,-0.924
608947,208.0,-1666.0,870.0,-802.0,1376.0,218.0,0.207,0.209,0.262,-0.919
608970,188.0,-848.0,1472.0,-473.0,1421.0,289.0,0.206,0.221,0.268,-0.915
608983,-932.0,-1952.0,278.0,-329.0,1249.0,380.0,0.206,0.232,0.272,-0.911
609006,-1086.0,-1704.0,742.0,-130.0,942.0,336.0,0.206,0.241,0.274,-0.908
609019,-1438.0,-716.0,1248.0,-38.0,880.0,323.0,0.206,0.249,0.275,-0.905
609032,-1946.0,-778.0,-556.0,-354.0,468.0,106.0,0.206,0.253,0.279,-0.903
609055,-1862.0,-1646.0,-730.0,-426.0,67.0,-149.0,0.205,0.253,0.282,-0.903
609068,-2314.0,-2006.0,-932.0,-418.0,-270.0,-227.0,0.204,0.249,0.286,-0.903
609091,-1808.0,-1484.0,-468.0,-337.0,-527.0,-272.0,0.203,0.244,0.288,-0.904
609104,-1940.0,-1664.0,-534.0,-300.0,-788.0,-347.0,0.202,0.236,0.29,-0.906
609127,-2074.0,-2584.0,-1408.0,-150.0,-1125.0,-423.0,0.201,0.225,0.289,-0.909
609140,-1766.0,-2420.0,-1374.0,190.0,-1418.0,-502.0,0.199,0.212,0.286,-0.913
609163,-1520.0,-2258.0,-6.0,444.0,-1611.0,-489.0,0.198,0.198,0.28,-0.918
609176,-1774.0,-1422.0,904.0,321.0,-1779.0,-593.0,0.196,0.182,0.275,-0.924
609199,-1118.0,-2160.0,1148.0,232.0,-2058.0,-646.0,0.194,0.163,0.27,-0.929
609212,-698.0,-3652.0,858.0,431.0,-2291.0,-652.0,0.193,0.143,0.263,-0.935
609225,-774.0,-2532.0,1938.0,799.0,-2447.0,-654.0,0.191,0.121,0.252,-0.941
609248,-2.0,-1976.0,3160.0,757.0,-2729.0,-628.0,0.191,0.097,0.241,-0.947
609261,818.0,-2736.0,4086.0,715.0,-3005.0,-614.0,0.19,0.071,0.23,-0.952
609284,1070.0,-3010.0,4688.0,650.0,-3147.0,-608.0,0.191,0.043,0.219,-0.956
609297,1860.0,-2862.0,4856.0,579.0,-3458.0,-589.0,0.191,0.012,0.207,-0.959
609320,3084.0,-846.0,6320.0,446.0,-3621.0,-461.0,0.193,-0.02,0.197,-0.961
609333,4210.0,-1380.0,7362.0,277.0,-3724.0,-467.0,0.195,-0.055,0.187,-0.961
609356,5468.0,-1750.0,6994.0,203.0,-3651.0,-429.0,0.197,-0.088,0.178,-0.96
609369,5370.0,-4024.0,6190.0,183.0,-3756.0,-472.0,0.199,-0.122,0.169,-0.958
609392,7906.0,-4042.0,8316.0,813.0,-3851.0,-382.0,0.201,-0.155,0.154,-0.955
609405,7588.0,-1558.0,11740.0,1244.0,-3864.0,-544.0,0.203,-0.188,0.135,-0.951
609428,7252.0,-1154.0,10236.0,730.0,-3345.0,-517.0,0.204,-0.216,0.122,-0.947
609441,7926.0,-3040.0,8524.0,480.0,-3531.0,-421.0,0.204,-0.247,0.11,-0.941
609454,8390.0,-2556.0,9146.0,641.0,-3552.0,-439.0,0.205,-0.277,0.096,-0.934
609477,7362.0,-518.0,10790.0,-10.0,-3836.0,-229.0,0.206,-0.311,0.089,-0.924
609490,7564.0,-1736.0,11350.0,-187.0,-3745.0,-923.0,0.2,-0.344,0.081,-0.914
609513,9564.0,-3310.0,11446.0,34.0,-3445.0,-261.0,0.2,-0.373,0.073,-0.903
609526,9550.0,-3594.0,9144.0,410.0,-2920.0,-1117.0,0.193,-0.398,0.061,-0.895
609549,9290.0,-4044.0,8812.0,376.0,-2648.0,-834.0,0.189,-0.419,0.05,-0.887
609562,10348.0,-3394.0,8470.0,468.0,-2443.0,-496.0,0.188,-0.439,0.04,-0.878
609575,9628.0,-4676.0,10432.0,918.0,-2003.0,-415.0,0.188,-0.454,0.027,-0.871
609598,8338.0,-1678.0,10668.0,909.0,-1562.0,-140.0,0.191,-0.465,0.016,-0.864
609621,7516.0,-2194.0,9256.0,468.0,-1507.0,-450.0,0.19,-0.476,0.008,-0.859
609634,7138.0,-4038.0,9374.0,301.0,-1399.0,-530.0,0.187,-0.487,0.001,-0.853
609647,7938.0,-2396.0,9190.0,438.0,-1225.0,-563.0,0.185,-0.496,-0.007,-0.849
609670,7020.0,-2412.0,9014.0,168.0,-1092.0,-445.0,0.182,-0.504,-0.013,-0.844
609683,6870.0,-2436.0,8542.0,85.0,-1025.0,-334.0,0.179,-0.512,-0.016,-0.84
609706,7700.0,-2166.0,8936.0,25.0,-972.0,-257.0,0.177,-0.52,-0.02,-0.836
609719,7190.0,-2910.0,9012.0,7.0,-661.0,-365.0,0.174,-0.525,-0.023,-0.833
609742,7332.0,-3536.0,8482.0,81.0,-435.0,-351.0,0.172,-0.528,-0.026,-0.831
609755,7626.0,-3104.0,8550.0,15.0,-274.0,-301.0,0.17,-0.53,-0.028,-0.83
609768,7874.0,-2422.0,10494.0,97.0,-28.0,-90.0,0.17,-0.53,-0.029,-0.83
609791,7694.0,-2466.0,11096.0,-27.0,383.0,-223.0,0.168,-0.527,-0.029,-0.833
609804,8226.0,-3392.0,11050.0,-25.0,671.0,-207.0,0.167,-0.522,-0.029,-0.836
609827,8240.0,-4098.0,10222.0,-227.0,826.0,-126.0,0.165,-0.516,-0.027,-0.84
609840,9612.0,-2912.0,11584.0,-6.0,1153.0,144.0,0.166,-0.507,-0.024,-0.846
609863,9836.0,-2154.0,11132.0,-213.0,1571.0,207.0,0.167,-0.495,-0.019,-0.853
609876,10934.0,-3680.0,10936.0,-340.0,1908.0,301.0,0.169,-0.48,-0.012,-0.861
609899,11610.0,-4738.0,11036.0,-219.0,2131.0,501.0,0.172,-0.463,-0.005,-0.869
609912,12194.0,-2850.0,10646.0,58.0,2703.0,682.0,0.178,-0.441,0.002,-0.88
609935,11566.0,-1846.0,12088.0,-124.0,3112.0,393.0,0.181,-0.416,0.01,-0.891
609948,10880.0,-2052.0,12426.0,-462.0,3495.0,397.0,0.182,-0.387,0.021,-0.904
609971,10390.0,-2214.0,12090.0,-610.0,3464.0,723.0,0.185,-0.359,0.034,-0.914
609984,10620.0,-1420.0,11386.0,-705.0,3730.0,496.0,0.186,-0.328,0.049,-0.925
609997,9348.0,-2954.0,9474.0,-713.0,4028.0,561.0,0.187,-0.294,0.063,-0.935
610020,9072.0,-748.0,9912.0,-711.0,4014.0,514.0,0.187,-0.26,0.078,-0.944
610033,8862.0,-1480.0,9732.0,-769.0,4203.0,353.0,0.185,-0.223,0.093,-0.952
610056,7852.0,-1604.0,8290.0,-642.0,4242.0,436.0,0.184,-0.186,0.107,-0.959
610069,6388.0,-1330.0,8774.0,-497.0,4218.0,526.0,0.183,-0.149,0.119,-0.964
610092,6164.0,-286.0,7334.0,-567.0,4151.0,367.0,0.181,-0.112,0.132,-0.968
610105,4486.0,-124.0,5594.0,-867.0,4111.0,379.0,0.178,-0.076,0.147,-0.97
610128,3762.0,-2390.0,6232.0,-513.0,3847.0,541.0,0.177,-0.042,0.158,-0.971
610141,3236.0,-746.0,6572.0,-190.0,3771.0,335.0,0.174,-0.008,0.166,-0.971
610154,2990.0,596.0,6082.0,-278.0,3582.0,228.0,0.17,0.025,0.174,-0.97
610177,1994.0,-16.0,3544.0,-902.0,3447.0,238.0,0.167,0.055,0.187,-0.966
610190,2006.0,-1720.0,3580.0,-931.0,2827.0,454.0,0.166,0.08,0.2,-0.962
610213,2348.0,-600.0,3748.0,-623.0,2819.0,517.0,0.165,0.105,0.209,-0.958
610226,754.0,-1876.0,3144.0,-450.0,2536.0,537.0,0.165,0.128,0.217,-0.954
610249,994.0,438.0,1922.0,-649.0,2455.0,442.0,0.164,0.15,0.225,-0.949
610262,-28.0,-1204.0,1310.0,-878.0,2136.0,301.0,0.163,0.168,0.236,-0.943
610285,-292.0,-1694.0,1070.0,-802.0,1854.0,0.0,0.16,0.183,0.246,-0.938
610298,-792.0,-2174.0,1164.0,-667.0,1545.0,18.0,0.157,0.196,0.253,-0.934
610311,-730.0,-1016.0,676.0,-760.0,1352.0,52.0,0.155,0.207,0.262,-0.93
610334,-1108.0,-1344.0,388.0,-860.0,1087.0,75.0,0.153,0.216,0.27,-0.926
610347,-1864.0,-1892.0,536.0,-848.0,798.0,74.0,0.153,0.222,0.279,-0.922
610370,-1616.0,-2836.0,58.0,-718.0,509.0,91.0,0.153,0.225,0.285,-0.919
610383,-1644.0,-2164.0,388.0,-557.0,285.0,98.0,0.154,0.228,0.29,-0.917
610406,-1708.0,-2514.0,-346.0,-498.0,32.0,124.0,0.155,0.228,0.294,-0.915
610419,-1504.0,-2426.0,-814.0,-357.0,-273.0,48.0,0.156,0.225,0.296,-0.915
610442,-1220.0,-3216.0,-884.0,-149.0,-415.0,17.0,0.157,0.222,0.296,-0.916
610455,-1122.0,-2696.0,-356.0,103.0,-457.0,-49.0,0.157,0.218,0.295,-0.917
610478,-1308.0,-2968.0,-372.0,213.0,-558.0,-64.0,0.157,0.214,0.292,-0.919
610491,-1540.0,-3246.0,-98.0,367.0,-779.0,-154.0,0.156,0.207,0.288,-0.922
610504,-1128.0,-2620.0,308.0,470.0,-962.0,-188.0,0.155,0.199,0.282,-0.925
610527,-1584.0,-3394.0,530.0,513.0,-1240.0,-224.0,0.155,0.189,0.276,-0.929
610540,-1364.0,-3032.0,636.0,666.0,-1503.0,-243.0,0.155,0.177,0.269,-0.934
610563,-1364.0,-2594.0,1676.0,660.0,-1795.0,-270.0,0.155,0.161,0.261,-0.939
610576,-1044.0,-2684.0,2008.0,576.0,-2088.0,-284.0,0.156,0.143,0.253,-0.944
610599,-814.0,-3306.0,2588.0,759.0,-2413.0,-282.0,0.158,0.123,0.243,-0.949
610612,52.0,-336.0,2500.0,544.0,-2547.0,-165.0,0.161,0.101,0.234,-0.954
610635,1166.0,-30.0,4336.0,-403.0,-2831.0,-274.0,0.164,0.074,0.234,-0.955
610648,1476.0,-2088.0,3626.0,-1077.0,-3215.0,-846.0,0.163,0.042,0.239,-0.956
610671,3576.0,-4070.0,5394.0,-339.0,-3510.0,-726.0,0.164,0.008,0.237,-0.958
610684,4872.0,-608.0,8048.0,397.0,-3201.0,-748.0,0.163,-0.021,0.228,-0.96
610702,3438.0,-984.0,8226.0,205.0,-3044.0,-1099.0,0.159,-0.051,0.221,-0.961
610715,4642.0,-2446.0,7540.0,182.0,-3191.0,-1357.0,0.153,-0.082,0.214,-0.961
610738,4454.0,-2684.0,7738.0,384.0,-3124.0,-1396.0,0.146,-0.112,0.205,-0.961
610751,4790.0,-2122.0,8376.0,560.0,-3195.0,-1313.0,0.141,-0.142,0.194,-0.96
610774,6906.0,-3744.0,7680.0,745.0,-3527.0,-476.0,0.143,-0.174,0.182,-0.957
610787,5808.0,-2462.0,8424.0,591.0,-3418.0,-967.0,0.141,-0.205,0.17,-0.953
610810,7582.0,-2576.0,8666.0,665.0,-3314.0,-551.0,0.142,-0.234,0.159,-0.949
610823,7588.0,-3142.0,9666.0,902.0,-3040.0,-572.0,0.143,-0.261,0.146,-0.944
610846,6578.0,-3148.0,10174.0,966.0,-2710.0,-711.0,0.142,-0.284,0.132,-0.939
610859,7210.0,-2774.0,9870.0,891.0,-2925.0,-782.0,0.141,-0.309,0.118,-0.933
610882,7982.0,-2320.0,8922.0,660.0,-3005.0,-447.0,0.142,-0.335,0.108,-0.925
610895,8376.0,-3184.0,8622.0,714.0,-2878.0,-586.0,0.142,-0.359,0.096,-0.917
610908,7980.0,-3764.0,9182.0,1014.0,-2539.0,-664.0,0.141,-0.38,0.082,-0.91
610931,7604.0,-2972.0,9174.0,940.0,-2645.0,-612.0,0.141,-0.402,0.068,-0.902
610944,8684.0,-2264.0,8492.0,640.0,-2504.0,-448.0,0.141,-0.422,0.058,-0.894
610967,9304.0,-3196.0,10420.0,793.0,-2380.0,-367.0,0.142,-0.441,0.047,-0.885
610980,8032.0,-3776.0,10054.0,910.0,-1835.0,-459.0,0.143,-0.455,0.035,-0.878
611003,7782.0,-3408.0,8478.0,667.0,-1806.0,-274.0,0.143,-0.469,0.026,-0.871
611016,9886.0,-2216.0,7438.0,586.0,-1552.0,-489.0,0.142,-0.481,0.017,-0.865
611029,10116.0,-2566.0,8860.0,438.0,-1225.0,-442.0,0.141,-0.49,0.01,-0.86
611052,8104.0,-3078.0,11238.0,566.0,-720.0,-304.0,0.141,-0.495,0.004,-0.857
611075,7356.0,-1220.0,11528.0,400.0,-523.0,-226.0,0.141,-0.499,-0.001,-0.855
611088,6610.0,-2330.0,9240.0,-62.0,-537.0,6.0,0.14,-0.503,-0.001,-0.853
611101,7426.0,-3626.0,9098.0,19.0,-580.0,-24.0,0.14,-0.508,-0.002,-0.85
611124,7342.0,-2864.0,10600.0,274.0,-223.0,-337.0,0.139,-0.509,-0.006,-0.849
611137,5998.0,-1460.0,10378.0,166.0,89.0,10.0,0.14,-0.509,-0.008,-0.85
611160,6630.0,-3092.0,9830.0,193.0,128.0,214.0,0.143,-0.507,-0.008,-0.85
611173,6686.0,-2244.0,8820.0,68.0,397.0,188.0,0.144,-0.504,-0.007,-0.851
611196,6620.0,-1692.0,10660.0,-106.0,614.0,314.0,0.147,-0.499,-0.004,-0.854
611209,6352.0,-2408.0,11436.0,-22.0,1023.0,150.0,0.148,-0.491,-0.002,-0.858
611222,6276.0,-1910.0,10780.0,-205.0,1229.0,335.0,0.15,-0.482,0.003,-0.863
611245,6764.0,-3176.0,10304.0,-500.0,1290.0,142.0,0.149,-0.472,0.01,-0.869
611258,8250.0,-1666.0,11142.0,-495.0,1627.0,396.0,0.15,-0.459,0.017,-0.875
611281,8168.0,-2328.0,12544.0,-547.0,1960.0,385.0,0.15,-0.444,0.026,-0.883
611294,7892.0,-2112.0,11140.0,-816.0,2298.0,334.0,0.149,-0.426,0.038,-0.892
611317,9306.0,-3458.0,10182.0,-926.0,2111.0,513.0,0.149,-0.41,0.05,-0.899
611330,10322.0,-2838.0,11450.0,-856.0,2394.0,839.0,0.151,-0.39,0.064,-0.906
611353,9928.0,-2886.0,12380.0,-777.0,2790.0,640.0,0.152,-0.367,0.077,-0.914
611366,10516.0,-2648.0,10992.0,-659.0,3084.0,990.0,0.156,-0.341,0.09,-0.923
611389,10352.0,-3162.0,10064.0,-878.0,3210.0,774.0,0.158,-0.314,0.105,-0.93
611402,10118.0,-3088.0,10018.0,-892.0,3433.0,704.0,0.158,-0.285,0.119,-0.938
611425,8090.0,-4394.0,10040.0,-979.0,3433.0,627.0,0.157,-0.255,0.135,-0.945
611438,8330.0,-1558.0,10518.0,-1016.0,3400.0,539.0,0.155,-0.226,0.15,-0.95
611451,8240.0,-2692.0,8760.0,-1398.0,3263.0,607.0,0.152,-0.198,0.168,-0.954
611474,7204.0,-4328.0,7296.0,-1323.0,3219.0,662.0,0.151,-0.17,0.186,-0.956
611487,6636.0,-2958.0,7608.0,-1085.0,3268.0,641.0,0.149,-0.141,0.201,-0.958
611510,6360.0,-2738.0,7772.0,-1066.0,3330.0,523.0,0.146,-0.112,0.215,-0.959
611523,5472.0,-2340.0,6610.0,-1207.0,3372.0,560.0,0.142,-0.083,0.231,-0.959
611546,5058.0,-3260.0,4490.0,-1291.0,3110.0,726.0,0.14,-0.057,0.247,-0.957
611559,4198.0,-3104.0,4638.0,-1208.0,2971.0,882.0,0.14,-0.03,0.262,-0.954
611582,4018.0,-2374.0,4650.0,-1139.0,2868.0,864.0,0.14,-0.004,0.276,-0.951
611595,2792.0,-2846.0,4426.0,-1183.0,2880.0,907.0,0.141,0.023,0.29,-0.946
611618,1798.0,-2810.0,4260.0,-1143.0,2821.0,913.0,0.141,0.049,0.304,-0.941
611631,2240.0,-886.0,1708.0,-852.0,2661.0,833.0,0.14,0.074,0.314,-0.936
611644,984.0,-2616.0,1088.0,-923.0,2574.0,756.0,0.14,0.097,0.325,-0.93
611667,966.0,-2564.0,1718.0,-444.0,2294.0,602.0,0.138,0.118,0.331,-0.926
611680,-98.0,-1780.0,3088.0,-200.0,2297.0,616.0,0.136,0.14,0.335,-0.922
611703,-488.0,-1462.0,1288.0,-338.0,1933.0,522.0,0.134,0.158,0.339,-0.918
611716,-632.0,-2398.0,-102.0,-308.0,1553.0,398.0,0.133,0.172,0.343,-0.914
611739,-812.0,-1976.0,164.0,-79.0,1434.0,394.0,0.131,0.186,0.345,-0.911
611752,-1712.0,-1576.0,558.0,-87.0,1261.0,413.0,0.13,0.198,0.346,-0.908
611765,-1846.0,-1612.0,456.0,-192.0,931.0,419.0,0.131,0.207,0.348,-0.905
611788,-1950.0,-2316.0,-362.0,-90.0,629.0,315.0,0.131,0.214,0.349,-0.903
611801,-1616.0,-1536.0,-684.0,83.0,507.0,254.0,0.13,0.219,0.348,-0.902
611824,-2170.0,-2006.0,-1062.0,-7.0,299.0,236.0,0.131,0.223,0.348,-0.901
611837,-1874.0,-2258.0,-372.0,65.0,22.0,51.0,0.13,0.223,0.347,-0.902
611860,-2026.0,-2490.0,-752.0,226.0,-142.0,-68.0,0.129,0.222,0.345,-0.903
611873,-1538.0,-2444.0,-960.0,495.0,-368.0,-98.0,0.128,0.22,0.34,-0.905
611896,-1782.0,-2374.0,-846.0,629.0,-509.0,-119.0,0.126,0.216,0.334,-0.909
611909,-1878.0,-2698.0,-558.0,801.0,-814.0,-222.0,0.125,0.21,0.327,-0.913
611932,-1534.0,-1936.0,476.0,947.0,-1010.0,-272.0,0.123,0.202,0.318,-0.918
611945,-1710.0,-2126.0,530.0,1056.0,-1251.0,-296.0,0.121,0.191,0.308,-0.924
611958,-1514.0,-2326.0,554.0,964.0,-1474.0,-423.0,0.12,0.179,0.298,-0.93
611981,-1382.0,-2448.0,780.0,887.0,-1775.0,-627.0,0.117,0.163,0.289,-0.936
611994,-780.0,-2166.0,1696.0,850.0,-2032.0,-785.0,0.114,0.144,0.281,-0.942
612017,-238.0,-2396.0,2282.0,831.0,-2261.0,-885.0,0.11,0.123,0.272,-0.948
612030,-16.0,-2254.0,1364.0,928.0,-2487.0,-947.0,0.106,0.099,0.262,-0.954
612053,578.0,-1744.0,2162.0,977.0,-2924.0,-979.0,0.103,0.072,0.251,-0.96
612066,1720.0,-1214.0,3938.0,873.0,-3115.0,-1021.0,0.099,0.043,0.241,-0.964
612089,1842.0,-1794.0,5940.0,833.0,-3348.0,-1070.0,0.096,0.011,0.231,-0.968
612102,3074.0,-900.0,5352.0,844.0,-3539.0,-1057.0,0.094,-0.022,0.22,-0.971
612125,3942.0,-256.0,4706.0,472.0,-3604.0,-942.0,0.092,-0.056,0.212,-0.971
612138,4934.0,-1680.0,6342.0,212.0,-3773.0,-1083.0,0.088,-0.093,0.206,-0.97
612161,6932.0,-1576.0,7364.0,183.0,-3880.0,-1256.0,0.084,-0.13,0.2,-0.968
612174,7306.0,-3460.0,10358.0,658.0,-4361.0,-1117.0,0.082,-0.171,0.189,-0.963
612187,8148.0,-1102.0,8832.0,661.0,-3804.0,-963.0,0.081,-0.206,0.179,-0.959
612210,9172.0,-2964.0,7018.0,348.0,-3732.0,-938.0,0.079,-0.24,0.171,-0.952
612223,10484.0,-3110.0,8052.0,584.0,-3847.0,-644.0,0.08,-0.275,0.162,-0.944
612246,11510.0,-1236.0,10900.0,578.0,-3427.0,-670.0,0.08,-0.305,0.152,-0.937
612259,10704.0,-2902.0,10376.0,585.0,-2882.0,-820.0,0.078,-0.331,0.143,-0.929
612282,9316.0,-4992.0,9560.0,935.0,-2586.0,-734.0,0.078,-0.354,0.131,-0.923
612295,9964.0,-2220.0,9226.0,1059.0,-2521.0,-423.0,0.081,-0.375,0.118,-0.916
612308,9480.0,-2620.0,9030.0,770.0,-2462.0,-701.0,0.08,-0.396,0.107,-0.908
612331,9572.0,-3604.0,9098.0,727.0,-2318.0,-549.0,0.08,-0.416,0.098,-0.901
612344,9624.0,-4328.0,10172.0,923.0,-2144.0,-582.0,0.08,-0.434,0.086,-0.893
612367,8890.0,-3072.0,9228.0,1053.0,-1928.0,-338.0,0.083,-0.449,0.075,-0.887
612380,8790.0,-3096.0,8730.0,1085.0,-1806.0,-193.0,0.087,-0.463,0.063,-0.88
612403,8646.0,-2990.0,8134.0,888.0,-1719.0,-286.0,0.09,-0.477,0.054,-0.873
612416,8938.0,-2576.0,9204.0,801.0,-1521.0,-426.0,0.09,-0.489,0.044,-0.867
612439,8326.0,-2180.0,8454.0,699.0,-1249.0,-306.0,0.091,-0.498,0.036,-0.862
612452,7662.0,-2328.0,9368.0,774.0,-1073.0,-284.0,0.093,-0.506,0.028,-0.857
612475,7138.0,-2650.0,8976.0,754.0,-1095.0,-181.0,0.095,-0.514,0.02,-0.852
612488,7044.0,-1982.0,7892.0,461.0,-1163.0,-15.0,0.098,-0.523,0.015,-0.847
612501,7078.0,-1564.0,9204.0,431.0,-1052.0,-43.0,0.099,-0.531,0.011,-0.841
612524,7028.0,-2116.0,8880.0,164.0,-901.0,-369.0,0.097,-0.538,0.007,-0.837
612537,7230.0,-2588.0,8858.0,78.0,-758.0,-217.0,0.096,-0.544,0.004,-0.834
612560,7902.0,-3780.0,9372.0,243.0,-547.0,-257.0,0.096,-0.548,0.001,-0.831
612573,7430.0,-640.0,9588.0,457.0,-197.0,-33.0,0.098,-0.549,-0.003,-0.83
612596,7400.0,-2328.0,8138.0,19.0,-291.0,47.0,0.098,-0.551,-0.004,-0.828
612609,9320.0,-3134.0,8374.0,-45.0,-55.0,-20.0,0.098,-0.552,-0.003,-0.828
612632,8556.0,-2858.0,10478.0,-84.0,426.0,240.0,0.1,-0.549,-0.001,-0.83
612645,8928.0,-1334.0,12340.0,12.0,1022.0,131.0,0.101,-0.541,0.0,-0.835
612668,7790.0,-2644.0,11134.0,-598.0,1465.0,138.0,0.099,-0.53,0.007,-0.842
612681,8246.0,-3256.0,10478.0,-944.0,1749.0,24.0,0.095,-0.517,0.016,-0.851
612694,9374.0,-4514.0,10848.0,-787.0,1881.0,286.0,0.093,-0.503,0.025,-0.859
612712,10394.0,-1808.0,11834.0,-623.0,2472.0,237.0,0.092,-0.483,0.033,-0.87
612735,8884.0,-3946.0,11014.0,-878.0,2745.0,427.0,0.09,-0.461,0.045,-0.881
612748,9786.0,-2764.0,11016.0,-964.0,2718.0,609.0,0.09,-0.44,0.057,-0.892
612771,11130.0,-2724.0,10772.0,-1142.0,2921.0,751.0,0.09,-0.416,0.072,-0.902
612784,10636.0,-3350.0,10902.0,-1040.0,3248.0,864.0,0.092,-0.388,0.087,-0.913
612807,10072.0,-2122.0,11478.0,-1183.0,3404.0,1011.0,0.093,-0.359,0.104,-0.923
612820,11686.0,-2392.0,9796.0,-1438.0,3437.0,918.0,0.093,-0.33,0.122,-0.931
612843,10874.0,-3312.0,9134.0,-1298.0,3744.0,1055.0,0.094,-0.297,0.14,-0.94
612856,9928.0,-2546.0,9612.0,-1003.0,3826.0,949.0,0.095,-0.263,0.154,-0.948
612869,8296.0,-2660.0,9424.0,-1015.0,3906.0,839.0,0.094,-0.228,0.169,-0.954
612892,8096.0,-1572.0,7662.0,-1313.0,3708.0,998.0,0.094,-0.195,0.185,-0.959
612905,7528.0,-2878.0,7472.0,-1569.0,3226.0,1263.0,0.097,-0.165,0.204,-0.96
612928,6644.0,-3482.0,6582.0,-1449.0,3267.0,1228.0,0.099,-0.135,0.222,-0.961
612941,5476.0,-2282.0,8060.0,-1081.0,3365.0,1215.0,0.102,-0.103,0.236,-0.961
612964,5352.0,-1964.0,6434.0,-1047.0,3219.0,971.0,0.102,-0.074,0.249,-0.96
612977,5280.0,-2054.0,4482.0,-1238.0,3003.0,1193.0,0.105,-0.045,0.264,-0.958
613000,4260.0,-3504.0,3716.0,-1188.0,2788.0,1322.0,0.109,-0.018,0.278,-0.954
613013,3412.0,-2492.0,4172.0,-838.0,2692.0,1341.0,0.114,0.008,0.288,-0.951
613026,2658.0,-1650.0,4188.0,-793.0,2601.0,1216.0,0.117,0.034,0.297,-0.947
613049,2278.0,-1758.0,3814.0,-843.0,2192.0,1217.0,0.122,0.056,0.307,-0.942
613072,2014.0,-1814.0,1962.0,-721.0,2122.0,1261.0,0.127,0.077,0.315,-0.938
613085,1282.0,-2212.0,1140.0,-470.0,2006.0,1017.0,0.13,0.097,0.32,-0.933
613098,434.0,-2002.0,2046.0,-134.0,1958.0,767.0,0.13,0.117,0.323,-0.93
613121,-304.0,-1216.0,1492.0,-185.0,1885.0,667.0,0.13,0.135,0.326,-0.927
613134,-406.0,-1420.0,860.0,-247.0,1571.0,559.0,0.13,0.15,0.329,-0.923
613157,-152.0,-1626.0,-24.0,-262.0,1303.0,504.0,0.13,0.163,0.332,-0.92
613170,-826.0,-1610.0,-392.0,-163.0,1193.0,484.0,0.13,0.174,0.334,-0.917
613193,-830.0,-1274.0,-78.0,-102.0,1059.0,337.0,0.13,0.184,0.336,-0.915
613206,-1334.0,-1496.0,-604.0,-193.0,868.0,247.0,0.129,0.193,0.338,-0.912
613219,-1354.0,-2774.0,-1412.0,-4.0,619.0,99.0,0.127,0.198,0.338,-0.911
613242,-1174.0,-1854.0,-1520.0,378.0,473.0,-15.0,0.124,0.203,0.335,-0.912
613255,-1124.0,-1220.0,-402.0,434.0,354.0,-31.0,0.121,0.207,0.332,-0.912
613278,-1262.0,-1184.0,-422.0,405.0,154.0,-114.0,0.119,0.208,0.329,-0.914
613291,-1544.0,-2956.0,-2122.0,420.0,-217.0,-194.0,0.116,0.207,0.325,-0.916
613314,-644.0,-2492.0,-1532.0,814.0,-582.0,-363.0,0.113,0.202,0.318,-0.92
613327,-398.0,-1222.0,-674.0,959.0,-632.0,-317.0,0.109,0.196,0.31,-0.924
613350,-340.0,-1594.0,-340.0,918.0,-905.0,-332.0,0.107,0.189,0.301,-0.929
613363,312.0,-1902.0,212.0,1073.0,-1085.0,-355.0,0.104,0.18,0.291,-0.934
613386,-156.0,-3160.0,50.0,1223.0,-1172.0,-355.0,0.101,0.17,0.28,-0.939
613399,458.0,-1510.0,-406.0,1341.0,-1415.0,-462.0,0.098,0.158,0.267,-0.946
613412,866.0,-1682.0,1272.0,1245.0,-1709.0,-467.0,0.096,0.143,0.255,-0.951
613435,870.0,-1660.0,2250.0,1333.0,-1997.0,-418.0,0.094,0.125,0.242,-0.958
613448,776.0,-1786.0,1122.0,1265.0,-2474.0,-535.0,0.093,0.103,0.229,-0.963
613471,1514.0,-2456.0,3608.0,1522.0,-3012.0,-603.0,0.092,0.076,0.213,-0.97
613484,1562.0,-72.0,4812.0,1479.0,-3180.0,-666.0,0.09,0.048,0.197,-0.975
613507,1848.0,-1160.0,6274.0,1140.0,-3706.0,-949.0,0.087,0.013,0.184,-0.979
613520,3312.0,-1066.0,7232.0,963.0,-4005.0,-815.0,0.085,-0.025,0.172,-0.981
613543,4466.0,-3730.0,6892.0,1259.0,-4874.0,-1204.0,0.082,-0.07,0.156,-0.982
613556,5050.0,-1292.0,8408.0,972.0,-4225.0,-486.0,0.083,-0.109,0.143,-0.98
613579,6682.0,-3100.0,8950.0,1050.0,-4396.0,-768.0,0.083,-0.149,0.129,-0.977
613592,8994.0,-846.0,10382.0,1140.0,-4248.0,-327.0,0.086,-0.187,0.115,-0.972
613605,8610.0,-1250.0,10900.0,984.0,-3843.0,-300.0,0.088,-0.221,0.103,-0.966
613628,7986.0,-2632.0,10278.0,953.0,-3787.0,-306.0,0.09,-0.254,0.091,-0.959
613641,8528.0,-3732.0,9694.0,1095.0,-3886.0,-258.0,0.094,-0.288,0.077,-0.95
613664,9422.0,-1168.0,12454.0,1214.0,-3840.0,-63.0,0.099,-0.321,0.063,-0.94
613677,9778.0,788.0,11982.0,1053.0,-3429.0,-101.0,0.102,-0.35,0.05,-0.93
613700,9032.0,-4012.0,9476.0,823.0,-3218.0,-193.0,0.105,-0.377,0.039,-0.919
613713,9756.0,-3060.0,9622.0,970.0,-3111.0,-12.0,0.109,-0.403,0.028,-0.908
613736,10380.0,-446.0,10596.0,895.0,-3016.0,-240.0,0.111,-0.427,0.017,-0.897
613749,10478.0,-880.0,10064.0,667.0,-2741.0,-371.0,0.11,-0.449,0.007,-0.886
613762,10366.0,-1556.0,9050.0,570.0,-2635.0,-138.0,0.112,-0.47,-0.001,-0.875
613785,9730.0,-1446.0,9236.0,236.0,-2650.0,209.0,0.114,-0.492,-0.005,-0.863
613798,9470.0,-2116.0,8034.0,591.0,-2318.0,55.0,0.117,-0.51,-0.012,-0.852
613821,9902.0,-1218.0,7536.0,536.0,-2011.0,-15.0,0.119,-0.525,-0.018,-0.842
613834,9734.0,-1716.0,8180.0,308.0,-1678.0,-16.0,0.12,-0.538,-0.022,-0.834
613857,8662.0,-1816.0,7554.0,281.0,-1531.0,-25.0,0.121,-0.549,-0.026,-0.826
613870,8170.0,-1432.0,8276.0,330.0,-1362.0,-43.0,0.122,-0.56,-0.031,-0.819
613893,8188.0,-828.0,8988.0,305.0,-1086.0,-83.0,0.123,-0.567,-0.035,-0.813
613906,7224.0,-1152.0,7850.0,-48.0,-945.0,-57.0,0.122,-0.575,-0.036,-0.808
613929,7610.0,-880.0,7710.0,-363.0,-1095.0,230.0,0.122,-0.583,-0.033,-0.802
613942,8070.0,-952.0,8926.0,-94.0,-593.0,58.0,0.122,-0.588,-0.033,-0.799
613955,6970.0,-1294.0,9378.0,-182.0,-270.0,-138.0,0.12,-0.59,-0.033,-0.798
613978,7574.0,-1524.0,9062.0,-229.0,-180.0,148.0,0.12,-0.592,-0.031,-0.797
613991,8126.0,-1264.0,9334.0,-187.0,176.0,145.0,0.12,-0.591,-0.028,-0.797
614014,7490.0,-1672.0,10208.0,-225.0,558.0,-21.0,0.119,-0.587,-0.026,-0.8
614027,7628.0,-996.0,9932.0,-360.0,831.0,-106.0,0.117,-0.581,-0.023,-0.805
614050,8328.0,-2276.0,10410.0,-637.0,1071.0,86.0,0.114,-0.574,-0.017,-0.811
614063,9884.0,-2912.0,10126.0,-331.0,1564.0,84.0,0.114,-0.562,-0.013,-0.819
614086,9180.0,-3260.0,10694.0,-295.0,1934.0,272.0,0.115,-0.548,-0.007,-0.829
614099,9570.0,-1232.0,12764.0,-82.0,2308.0,234.0,0.116,-0.53,-0.003,-0.84
614122,10356.0,-2106.0,12262.0,-570.0,2451.0,251.0,0.116,-0.511,0.005,-0.852
614135,12196.0,-3118.0,10832.0,-523.0,2715.0,411.0,0.117,-0.49,0.014,-0.864
614148,12906.0,-3340.0,11632.0,-189.0,2990.0,556.0,0.12,-0.466,0.022,-0.876
614171,13484.0,-654.0,12416.0,-304.0,3592.0,500.0,0.122,-0.437,0.03,-0.891
614184,12808.0,-3414.0,11446.0,-444.0,3821.0,555.0,0.124,-0.405,0.04,-0.905
614207,13560.0,-1748.0,11024.0,-295.0,4126.0,598.0,0.127,-0.37,0.05,-0.919
614220,11702.0,-1152.0,11236.0,-421.0,4460.0,147.0,0.124,-0.332,0.059,-0.933
614243,10538.0,-2362.0,10286.0,-680.0,4515.0,223.0,0.122,-0.293,0.071,-0.946
614256,10772.0,-2172.0,9168.0,-775.0,4428.0,354.0,0.12,-0.254,0.084,-0.956
614279,9594.0,-1720.0,8696.0,-682.0,4450.0,416.0,0.118,-0.215,0.095,-0.965
614292,8724.0,-1004.0,7582.0,-742.0,4506.0,365.0,0.116,-0.175,0.108,-0.972
614315,7764.0,-1576.0,6318.0,-768.0,4261.0,570.0,0.116,-0.136,0.12,-0.976
614328,6812.0,-1506.0,5996.0,-792.0,4136.0,569.0,0.115,-0.099,0.132,-0.979
614341,5400.0,-1974.0,6264.0,-529.0,3967.0,517.0,0.114,-0.064,0.142,-0.981
614364,4696.0,-658.0,5886.0,-313.0,3767.0,378.0,0.112,-0.03,0.148,-0.982
614377,4822.0,12.0,4166.0,-411.0,3488.0,337.0,0.11,0.002,0.156,-0.982
614400,4376.0,-588.0,2768.0,-602.0,3156.0,484.0,0.11,0.031,0.164,-0.98
614413,3684.0,-1374.0,2052.0,-510.0,2875.0,824.0,0.112,0.058,0.172,-0.977
614436,2306.0,-538.0,3388.0,-266.0,2789.0,809.0,0.115,0.084,0.177,-0.974
614449,1552.0,-590.0,3308.0,-150.0,2563.0,657.0,0.117,0.109,0.18,-0.971
614472,1688.0,-890.0,1684.0,-146.0,2433.0,679.0,0.118,0.132,0.183,-0.967
614485,912.0,-562.0,588.0,-327.0,2308.0,556.0,0.119,0.153,0.188,-0.963
614498,-94.0,-1422.0,608.0,-396.0,2022.0,-44.0,0.116,0.171,0.194,-0.959
614521,-182.0,-1506.0,1714.0,-205.0,1807.0,41.0,0.112,0.187,0.197,-0.956
614534,-614.0,-342.0,1690.0,-128.0,1599.0,71.0,0.11,0.201,0.2,-0.953
614557,-852.0,-900.0,756.0,-535.0,1339.0,102.0,0.109,0.213,0.205,-0.949
614570,-1378.0,-1756.0,-292.0,-463.0,1114.0,6.0,0.107,0.222,0.21,-0.946
614593,-1888.0,-2208.0,-612.0,-240.0,906.0,-81.0,0.104,0.23,0.213,-0.944
614606,-1658.0,-1504.0,-84.0,-43.0,725.0,-90.0,0.101,0.236,0.214,-0.942
614629,-2548.0,-1720.0,-200.0,-107.0,491.0,-122.0,0.099,0.24,0.216,-0.941
614642,-2264.0,-1894.0,-694.0,-74.0,172.0,-263.0,0.096,0.242,0.217,-0.941
614665,-2298.0,-2420.0,-828.0,36.0,-39.0,-301.0,0.092,0.241,0.217,-0.941
614678,-2154.0,-1910.0,-888.0,234.0,-237.0,-427.0,0.088,0.238,0.216,-0.943
614691,-2252.0,-1986.0,-734.0,268.0,-472.0,-360.0,0.084,0.234,0.214,-0.945
614719,-2260.0,-2108.0,-462.0,312.0,-821.0,-405.0,0.081,0.226,0.211,-0.948
614732,-1808.0,-2150.0,6.0,422.0,-1081.0,-397.0,0.078,0.216,0.207,-0.951
614745,-1810.0,-1908.0,476.0,533.0,-1368.0,-351.0,0.075,0.204,0.202,-0.955
614768,-1404.0,-2140.0,712.0,557.0,-1665.0,-383.0,0.073,0.189,0.196,-0.959
614781,-710.0,-1760.0,1322.0,595.0,-1906.0,-455.0,0.071,0.171,0.19,-0.964
614804,-574.0,-2288.0,1298.0,592.0,-2176.0,-511.0,0.068,0.151,0.184,-0.969
614817,-30.0,-1908.0,2288.0,645.0,-2555.0,-582.0,0.066,0.128,0.177,-0.974
614840,1084.0,-766.0,4050.0,587.0,-2680.0,-555.0,0.064,0.103,0.171,-0.978
614853,970.0,-62.0,4836.0,377.0,-2777.0,-612.0,0.061,0.077,0.166,-0.981
614866,1282.0,-454.0,5646.0,-174.0,-2942.0,-838.0,0.058,0.049,0.166,-0.983
614889,2664.0,-2508.0,4142.0,-439.0,-3448.0,-1227.0,0.051,0.015,0.169,-0.984
614902,4650.0,-2590.0,4332.0,225.0,-3833.0,-974.0,0.048,-0.021,0.165,-0.985
614925,5700.0,-1820.0,7764.0,1042.0,-4007.0,-807.0,0.046,-0.059,0.153,-0.985
614938,5672.0,896.0,7742.0,522.0,-3367.0,-638.0,0.044,-0.09,0.147,-0.984
614961,6694.0,-2290.0,7552.0,376.0,-3558.0,-650.0,0.043,-0.124,0.141,-0.981
614974,7228.0,-1494.0,7586.0,456.0,-3349.0,-377.0,0.044,-0.155,0.135,-0.978
614997,7508.0,-1778.0,8228.0,467.0,-3511.0,-412.0,0.045,-0.187,0.129,-0.973
615010,7296.0,-1814.0,10544.0,645.0,-3289.0,-533.0,0.044,-0.217,0.121,-0.968
615033,7828.0,-1674.0,10038.0,774.0,-3186.0,-850.0,0.041,-0.246,0.111,-0.962
615046,8270.0,-3016.0,9488.0,866.0,-3202.0,-610.0,0.041,-0.275,0.101,-0.955
615059,8868.0,-796.0,10918.0,817.0,-2984.0,-609.0,0.04,-0.302,0.091,-0.948
615082,8834.0,-682.0,10452.0,222.0,-3221.0,-488.0,0.039,-0.33,0.086,-0.939
615095,8916.0,-4172.0,10032.0,-49.0,-3549.0,-352.0,0.038,-0.362,0.085,-0.928
615118,10470.0,-3582.0,9312.0,881.0,-3168.0,-673.0,0.037,-0.389,0.074,-0.918
615131,9818.0,-634.0,10580.0,749.0,-2796.0,-241.0,0.04,-0.413,0.065,-0.908
615154,10634.0,-1560.0,10312.0,346.0,-2563.0,-475.0,0.038,-0.435,0.06,-0.898
615167,10032.0,-3678.0,10260.0,480.0,-2207.0,-411.0,0.038,-0.453,0.053,-0.889
615190,9522.0,-2104.0,9544.0,613.0,-1983.0,-322.0,0.039,-0.469,0.046,-0.881
615203,9538.0,-1830.0,10250.0,559.0,-1766.0,-333.0,0.039,-0.484,0.04,-0.873
615216,8582.0,-2720.0,8780.0,594.0,-1480.0,-292.0,0.04,-0.496,0.033,-0.867
615239,8262.0,-2828.0,7436.0,620.0,-1435.0,-166.0,0.042,-0.507,0.027,-0.861
615252,8920.0,-852.0,8344.0,534.0,-1486.0,-140.0,0.044,-0.519,0.021,-0.854
615275,7268.0,-2320.0,9658.0,408.0,-1158.0,-228.0,0.044,-0.528,0.017,-0.848
615288,6550.0,-2818.0,8734.0,558.0,-1146.0,-75.0,0.046,-0.537,0.011,-0.842
615311,6562.0,-800.0,8916.0,351.0,-1188.0,364.0,0.051,-0.546,0.01,-0.836
615324,6228.0,-1338.0,7728.0,40.0,-1032.0,212.0,0.053,-0.554,0.01,-0.831
615347,6542.0,-2270.0,8128.0,26.0,-965.0,142.0,0.055,-0.561,0.01,-0.826
615360,6626.0,-1806.0,9070.0,292.0,-560.0,-5.0,0.056,-0.566,0.007,-0.823
615383,6410.0,-582.0,10554.0,226.0,-219.0,76.0,0.058,-0.567,0.006,-0.822
615396,6302.0,-1850.0,9418.0,-69.0,-91.0,126.0,0.059,-0.568,0.007,-0.821
615409,7160.0,-2964.0,8206.0,-360.0,-110.0,416.0,0.06,-0.569,0.012,-0.82
615432,8042.0,-3236.0,9120.0,117.0,243.0,217.0,0.063,-0.567,0.012,-0.821
615445,7406.0,-856.0,11954.0,325.0,1012.0,223.0,0.066,-0.559,0.011,-0.826
615468,7144.0,-1296.0,11784.0,51.0,1349.0,121.0,0.068,-0.549,0.012,-0.833
615481,7728.0,-3312.0,10468.0,-301.0,1356.0,282.0,0.068,-0.538,0.017,-0.84
615504,9302.0,-2286.0,10442.0,-445.0,1450.0,413.0,0.069,-0.527,0.023,-0.847
615517,9056.0,-2522.0,11086.0,-391.0,1952.0,129.0,0.068,-0.512,0.028,-0.856
615540,9536.0,-2552.0,12252.0,-224.0,2132.0,210.0,0.068,-0.495,0.032,-0.866
615553,12226.0,-1298.0,12304.0,-265.0,2334.0,271.0,0.069,-0.476,0.037,-0.876
615576,13886.0,-1648.0,10840.0,-435.0,2874.0,278.0,0.068,-0.452,0.043,-0.888
615589,12488.0,-1774.0,9560.0,-521.0,3553.0,-58.0,0.064,-0.423,0.05,-0.902
615602,12702.0,-1376.0,9776.0,-375.0,3950.0,231.0,0.063,-0.39,0.056,-0.917
615625,10990.0,-996.0,9898.0,-551.0,4376.0,-33.0,0.059,-0.352,0.063,-0.932
615638,9992.0,-402.0,11640.0,-476.0,4516.0,119.0,0.056,-0.313,0.07,-0.945
615661,7862.0,-810.0,10470.0,-856.0,4512.0,-28.0,0.05,-0.274,0.08,-0.957
615674,7884.0,-1046.0,9330.0,-1176.0,4243.0,-12.0,0.044,-0.236,0.092,-0.966
615697,7276.0,-1702.0,8798.0,-1137.0,3992.0,-98.0,0.037,-0.201,0.104,-0.973
615710,6476.0,-580.0,9300.0,-1003.0,3932.0,-87.0,0.031,-0.165,0.114,-0.979
615733,5856.0,-1292.0,8368.0,-1048.0,3662.0,-60.0,0.025,-0.132,0.124,-0.983
615746,4952.0,-1410.0,7118.0,-1207.0,3240.0,50.0,0.02,-0.103,0.136,-0.985
615769,5454.0,-1356.0,7486.0,-1154.0,3096.0,202.0,0.016,-0.075,0.147,-0.986
615782,4768.0,-952.0,6836.0,-955.0,3030.0,109.0,0.012,-0.048,0.156,-0.987
615805,4524.0,-972.0,6492.0,-865.0,2883.0,176.0,0.009,-0.022,0.164,-0.986
615818,3620.0,-1946.0,5628.0,-730.0,2721.0,418.0,0.008,0.004,0.171,-0.985
615831,3904.0,-270.0,4550.0,-738.0,2518.0,555.0,0.009,0.028,0.178,-0.984
615854,3728.0,-822.0,3662.0,-796.0,2378.0,777.0,0.012,0.051,0.185,-0.981
615867,3158.0,-184.0,3602.0,-769.0,2321.0,913.0,0.016,0.073,0.192,-0.979
615890,2778.0,374.0,3224.0,-939.0,2283.0,1031.0,0.022,0.096,0.2,-0.975
615903,2180.0,-684.0,3230.0,-946.0,2305.0,943.0,0.026,0.119,0.208,-0.971
615926,1402.0,-2080.0,2002.0,-684.0,2176.0,571.0,0.028,0.139,0.214,-0.966
615939,1072.0,-1772.0,756.0,-368.0,1927.0,410.0,0.027,0.157,0.217,-0.963
615952,1316.0,-1372.0,164.0,-272.0,1703.0,197.0,0.026,0.173,0.22,-0.96
615975,1428.0,-310.0,166.0,-231.0,1693.0,101.0,0.023,0.189,0.222,-0.956
615988,60.0,-1620.0,-96.0,-224.0,1618.0,28.0,0.019,0.203,0.224,-0.953
616011,-444.0,-1624.0,30.0,-25.0,1421.0,2.0,0.016,0.216,0.224,-0.95
616024,-1102.0,-750.0,158.0,-4.0,1233.0,80.0,0.013,0.227,0.224,-0.948
616047,-1696.0,-1638.0,-392.0,-172.0,909.0,-20.0,0.011,0.235,0.225,-0.945
616060,-1920.0,-2778.0,-1186.0,-113.0,451.0,-111.0,0.009,0.239,0.227,-0.944
616083,-1906.0,-2824.0,-1208.0,142.0,150.0,-75.0,0.007,0.24,0.225,-0.944
616096,-2086.0,-2772.0,-1680.0,445.0,-112.0,-78.0,0.004,0.239,0.221,-0.945
616119,-2022.0,-2438.0,-1568.0,602.0,-470.0,-90.0,0.002,0.235,0.216,-0.948
616132,-1708.0,-2506.0,-1386.0,683.0,-862.0,-87.0,0.001,0.228,0.21,-0.951
616145,-1628.0,-3064.0,-1124.0,710.0,-1224.0,-89.0,0.0,0.217,0.204,-0.955
616168,-1104.0,-2462.0,88.0,838.0,-1671.0,-173.0,0.0,-0.202,-0.196,0.96
616181,-684.0,-2466.0,776.0,930.0,-1949.0,-200.0,0.001,-0.184,-0.188,0.965
616204,-390.0,-1886.0,1128.0,879.0,-2237.0,-230.0,0.002,-0.163,-0.18,0.97
616217,-58.0,-2662.0,1176.0,752.0,-2571.0,-296.0,0.002,-0.14,-0.174,0.975
616240,86.0,-4028.0,116.0,1161.0,-2825.0,-473.0,0.004,-0.113,-0.164,0.98
616253,886.0,-3224.0,2320.0,1258.0,-3354.0,-143.0,0.003,-0.082,-0.152,0.985
616276,1558.0,-2254.0,3456.0,1665.0,-3692.0,-298.0,0.002,-0.048,-0.137,0.989
616289,2238.0,-26.0,3780.0,1625.0,-3864.0,-218.0,0.001,-0.012,-0.122,0.992
616312,4006.0,854.0,4578.0,947.0,-4122.0,-106.0,0.003,-0.026,0.113,-0.993
616325,5418.0,106.0,5076.0,508.0,-4201.0,56.0,0.007,-0.066,0.108,-0.992
616348,6052.0,-16.0,6336.0,429.0,-4230.0,187.0,0.012,-0.106,0.104,-0.989
616361,7608.0,438.0,6264.0,281.0,-4098.0,105.0,0.017,-0.143,0.101,-0.984
616374,8092.0,-2262.0,6986.0,309.0,-4160.0,90.0,0.021,-0.181,0.098,-0.978
616397,9722.0,-696.0,7114.0,593.0,-4136.0,260.0,0.028,-0.218,0.092,-0.971
616410,10454.0,-588.0,8234.0,420.0,-4025.0,338.0,0.034,-0.254,0.088,-0.963
616433,10806.0,-610.0,10296.0,424.0,-3762.0,272.0,0.041,-0.287,0.083,-0.953
616446,10982.0,-726.0,10680.0,650.0,-3616.0,63.0,0.045,-0.319,0.077,-0.944
616469,10970.0,-950.0,10256.0,574.0,-3380.0,12.0,0.049,-0.348,0.07,-0.933
616482,11070.0,-1368.0,8936.0,401.0,-3447.0,34.0,0.053,-0.378,0.065,-0.922
616505,10988.0,-3186.0,9558.0,438.0,-3139.0,-291.0,0.053,-0.405,0.059,-0.911
616518,11106.0,-1816.0,10508.0,723.0,-2997.0,4.0,0.058,-0.43,0.052,-0.9
616531,11614.0,-314.0,10060.0,706.0,-2780.0,121.0,0.063,-0.453,0.045,-0.888
616554,10514.0,-1278.0,11110.0,585.0,-2374.0,-45.0,0.066,-0.472,0.038,-0.878
616567,9542.0,-1372.0,10778.0,452.0,-2091.0,-125.0,0.067,-0.489,0.033,-0.869
616590,9804.0,-2520.0,10060.0,447.0,-2084.0,-231.0,0.068,-0.505,0.027,-0.86
616603,9614.0,-2836.0,10228.0,803.0,-1824.0,102.0,0.073,-0.519,0.02,-0.851
616626,9678.0,-1018.0,11158.0,951.0,-1554.0,200.0,0.079,-0.531,0.012,-0.844
616639,9234.0,-1216.0,10744.0,673.0,-1214.0,-209.0,0.081,-0.54,0.005,-0.838
616662,7540.0,-1864.0,11924.0,531.0,-970.0,-91.0,0.083,-0.547,-0.0,-0.833
616675,7640.0,-854.0,11574.0,295.0,-601.0,-164.0,0.084,-0.552,-0.004,-0.83
616688,6822.0,-678.0,10868.0,54.0,-418.0,-165.0,0.083,-0.555,-0.006,-0.828
616711,6396.0,-1556.0,9338.0,-356.0,-320.0,-387.0,0.078,-0.558,-0.005,-0.826
616729,6408.0,-2320.0,9146.0,-121.0,172.0,16.0,0.078,-0.556,-0.004,-0.827
616742,6266.0,-2078.0,10428.0,-46.0,164.0,58.0,0.079,-0.555,-0.004,-0.828
616765,6590.0,6.0,11196.0,52.0,569.0,-37.0,0.079,-0.551,-0.004,-0.831
616778,5768.0,-2256.0,10458.0,-184.0,813.0,18.0,0.078,-0.545,-0.002,-0.835
616801,7728.0,-1630.0,11030.0,276.0,1445.0,-25.0,0.08,-0.533,-0.003,-0.842
616814,6806.0,-1378.0,11486.0,-151.0,1604.0,196.0,0.081,-0.521,-0.0,-0.85
616837,6900.0,-972.0,11916.0,-394.0,1621.0,206.0,0.081,-0.508,0.005,-0.857
616850,8410.0,-1530.0,11138.0,-308.0,1820.0,251.0,0.082,-0.494,0.01,-0.866
616863,8952.0,-912.0,11260.0,-429.0,2220.0,193.0,0.081,-0.476,0.016,-0.876
616886,8924.0,-2282.0,10360.0,-618.0,2473.0,86.0,0.079,-0.456,0.023,-0.886
616899,9148.0,-2794.0,10970.0,-439.0,2513.0,211.0,0.079,-0.436,0.029,-0.896
616922,10876.0,-28.0,12186.0,-188.0,2904.0,208.0,0.079,-0.411,0.034,-0.907
616935,9798.0,-158.0,11820.0,-374.0,3293.0,158.0,0.078,-0.383,0.04,-0.919
616958,9636.0,-1120.0,10732.0,-741.0,3316.0,197.0,0.076,-0.355,0.049,-0.93
616971,10070.0,-2560.0,10450.0,-776.0,3349.0,255.0,0.075,-0.327,0.059,-0.94
616994,10528.0,-834.0,11080.0,-679.0,3643.0,113.0,0.072,-0.295,0.068,-0.95
617007,9382.0,-1976.0,10022.0,-694.0,3714.0,52.0,0.068,-0.262,0.076,-0.96
617030,8554.0,-1580.0,9678.0,-704.0,3785.0,179.0,0.065,-0.229,0.085,-0.968
617043,7958.0,-608.0,10012.0,-808.0,3791.0,54.0,0.061,-0.195,0.095,-0.974
617056,6952.0,-1350.0,8142.0,-1198.0,3704.0,40.0,0.056,-0.162,0.108,-0.979
617079,7132.0,-2328.0,8106.0,-1207.0,3427.0,161.0,0.052,-0.131,0.121,-0.983
617092,6350.0,-1974.0,7860.0,-953.0,3633.0,127.0,0.048,-0.098,0.132,-0.985
617115,4834.0,-1770.0,7074.0,-704.0,3655.0,121.0,0.044,-0.065,0.14,-0.987
617128,4104.0,-950.0,6336.0,-832.0,3642.0,30.0,0.039,-0.033,0.148,-0.988
617151,2864.0,-2486.0,5436.0,-1001.0,3288.0,229.0,0.036,-0.003,0.159,-0.987
617164,3370.0,-1386.0,4642.0,-691.0,3034.0,586.0,0.036,0.026,0.166,-0.985
617187,2270.0,-2012.0,4574.0,-444.0,2966.0,543.0,0.037,0.054,0.171,-0.983
617200,1736.0,-1214.0,4588.0,-336.0,2823.0,614.0,0.038,0.081,0.175,-0.981
617213,1046.0,-1158.0,3226.0,-787.0,2477.0,577.0,0.039,0.104,0.182,-0.977
617236,738.0,-2294.0,3100.0,-781.0,2121.0,610.0,0.041,0.124,0.189,-0.973
617249,854.0,-1978.0,2782.0,-406.0,1957.0,389.0,0.042,0.142,0.193,-0.97
617272,422.0,-1330.0,2510.0,-235.0,1899.0,238.0,0.04,0.16,0.196,-0.967
617285,234.0,-442.0,2662.0,-326.0,1889.0,258.0,0.039,0.177,0.199,-0.963
617308,-444.0,-1146.0,1928.0,-478.0,1767.0,206.0,0.038,0.194,0.203,-0.959
617321,-708.0,-2274.0,658.0,-453.0,1445.0,148.0,0.037,0.207,0.207,-0.955
617344,-854.0,-2560.0,740.0,-202.0,1179.0,86.0,0.035,0.217,0.209,-0.953
617357,-804.0,-998.0,794.0,-170.0,1124.0,96.0,0.033,0.228,0.211,-0.95
617380,-1672.0,-2064.0,1052.0,-340.0,921.0,141.0,0.033,0.236,0.213,-0.947
617393,-1686.0,-2392.0,694.0,-165.0,639.0,23.0,0.031,0.242,0.215,-0.946
617406,-1520.0,-2126.0,442.0,68.0,454.0,56.0,0.03,0.246,0.214,-0.945
617429,-1782.0,-2076.0,-404.0,50.0,351.0,-4.0,0.029,0.249,0.213,-0.944
617442,-2088.0,-2430.0,-514.0,58.0,103.0,-128.0,0.027,0.25,0.213,-0.944
617465,-2254.0,-2240.0,412.0,147.0,-110.0,-161.0,0.024,0.249,0.212,-0.945
617478,-2556.0,-2836.0,622.0,299.0,-382.0,-112.0,0.023,0.246,0.209,-0.946
617501,-2162.0,-2270.0,520.0,441.0,-680.0,-101.0,0.021,0.24,0.205,-0.949
617514,-2410.0,-2428.0,354.0,330.0,-998.0,-156.0,0.02,0.231,0.202,-0.952
617537,-1902.0,-2552.0,1044.0,357.0,-1321.0,-224.0,0.019,0.219,0.199,-0.955
617550,-1786.0,-2854.0,1124.0,420.0,-1620.0,-274.0,0.018,0.204,0.195,-0.959
617573,-1326.0,-2584.0,2114.0,552.0,-1908.0,-342.0,0.017,0.187,0.191,-0.964
617586,-824.0,-2390.0,2572.0,644.0,-2092.0,-384.0,0.015,0.167,0.185,-0.968
617609,-442.0,-688.0,3268.0,547.0,-2166.0,-353.0,0.014,0.147,0.18,-0.972
617622,-526.0,-1450.0,3808.0,219.0,-2454.0,-397.0,0.013,0.124,0.178,-0.976
617635,276.0,-1564.0,4224.0,174.0,-2714.0,-358.0,0.014,0.099,0.176,-0.979
617658,534.0,-2234.0,3810.0,238.0,-2912.0,-348.0,0.014,0.072,0.174,-0.982
617671,2194.0,-1734.0,5320.0,538.0,-2982.0,-373.0,0.015,0.044,0.169,-0.985
617694,2366.0,-1702.0,5856.0,625.0,-2919.0,-497.0,0.014,0.017,0.163,-0.986
617707,2880.0,-1006.0,6112.0,500.0,-3104.0,-504.0,0.013,-0.012,0.158,-0.987
617730,3776.0,-1294.0,8288.0,375.0,-3235.0,-493.0,0.013,-0.043,0.154,-0.987
617743,4508.0,-758.0,8152.0,405.0,-3176.0,-665.0,0.011,-0.073,0.149,-0.986
617756,6424.0,-2578.0,8236.0,638.0,-3221.0,297.0,0.018,-0.102,0.143,-0.984
617779,5144.0,-1638.0,7734.0,476.0,-3304.0,-448.0,0.018,-0.133,0.138,-0.981
617792,6616.0,-1704.0,7816.0,522.0,-3387.0,-244.0,0.021,-0.164,0.132,-0.977
617815,6582.0,50.0,9482.0,384.0,-3222.0,-167.0,0.023,-0.193,0.128,-0.973
617828,6550.0,-2570.0,10684.0,303.0,-3165.0,-347.0,0.024,-0.222,0.124,-0.967
617851,6482.0,-3248.0,9460.0,557.0,-3143.0,-329.0,0.025,-0.25,0.118,-0.961
617864,6810.0,-644.0,8676.0,453.0,-3197.0,-137.0,0.028,-0.279,0.113,-0.953
617887,9232.0,-632.0,8546.0,-439.0,-3716.0,172.0,0.032,-0.312,0.116,-0.942
617900,10000.0,-3226.0,9160.0,-438.0,-3454.0,-146.0,0.033,-0.342,0.118,-0.932
617923,9136.0,-4662.0,9314.0,394.0,-2739.0,-717.0,0.031,-0.367,0.112,-0.923
617936,9346.0,-2712.0,8982.0,511.0,-2429.0,-446.0,0.031,-0.388,0.105,-0.915
617949,8790.0,-3706.0,8120.0,649.0,-2424.0,-542.0,0.031,-0.409,0.097,-0.907
617972,8926.0,-2554.0,8200.0,849.0,-2331.0,-433.0,0.033,-0.428,0.088,-0.899
617985,8772.0,-1260.0,8572.0,800.0,-2176.0,-358.0,0.035,-0.447,0.079,-0.891
618008,8586.0,-1688.0,8102.0,598.0,-2036.0,-337.0,0.036,-0.464,0.072,-0.882
618021,8436.0,-2468.0,7502.0,495.0,-2021.0,-300.0,0.037,-0.48,0.066,-0.874
618044,8590.0,-2382.0,7622.0,449.0,-1972.0,-222.0,0.038,-0.496,0.061,-0.865
618057,7872.0,-2836.0,7232.0,514.0,-1880.0,-176.0,0.04,-0.511,0.055,-0.857
618080,8306.0,-2042.0,8652.0,603.0,-1853.0,-96.0,0.043,-0.526,0.049,-0.848
618093,8484.0,-282.0,8888.0,439.0,-1479.0,-214.0,0.045,-0.537,0.044,-0.841
618116,7976.0,-2840.0,7750.0,137.0,-1282.0,-333.0,0.043,-0.547,0.041,-0.835
618129,7866.0,-3658.0,7998.0,281.0,-1327.0,-222.0,0.043,-0.558,0.037,-0.828
618142,8974.0,6.0,9862.0,385.0,-991.0,38.0,0.046,-0.565,0.034,-0.823
618165,7554.0,-2154.0,8428.0,19.0,-514.0,-161.0,0.045,-0.569,0.032,-0.82
618178,6870.0,-3728.0,8130.0,37.0,-565.0,13.0,0.046,-0.574,0.032,-0.817
618201,8200.0,-1628.0,10784.0,270.0,-440.0,299.0,0.05,-0.577,0.031,-0.815
618214,7264.0,-92.0,12312.0,161.0,400.0,191.0,0.053,-0.574,0.031,-0.817
618237,6372.0,-3052.0,9950.0,-88.0,608.0,-190.0,0.051,-0.569,0.031,-0.82
618250,6578.0,-4302.0,9812.0,-12.0,512.0,93.0,0.051,-0.565,0.031,-0.823
618273,8470.0,-802.0,12168.0,93.0,802.0,503.0,0.056,-0.559,0.033,-0.827
618286,8798.0,-382.0,11828.0,-317.0,1406.0,155.0,0.055,-0.548,0.037,-0.834
618299,8814.0,-3500.0,11228.0,-658.0,1602.0,189.0,0.053,-0.536,0.044,-0.841
618322,9794.0,-3740.0,11760.0,-334.0,1987.0,350.0,0.054,-0.52,0.049,-0.851
618345,9338.0,-1896.0,13370.0,-139.0,2464.0,370.0,0.055,-0.501,0.053,-0.862
618358,10020.0,-1704.0,13290.0,-207.0,2845.0,337.0,0.056,-0.478,0.058,-0.875
618371,11856.0,46.0,12156.0,-855.0,3174.0,233.0,0.052,-0.452,0.067,-0.888
618394,11900.0,-3460.0,11650.0,-859.0,3340.0,327.0,0.05,-0.424,0.077,-0.901
618407,12070.0,-2548.0,12082.0,-352.0,3813.0,362.0,0.049,-0.392,0.083,-0.915
618430,11028.0,-2588.0,10662.0,-307.0,4228.0,407.0,0.048,-0.355,0.089,-0.929
618443,11624.0,-2186.0,10362.0,-407.0,3984.0,262.0,0.046,-0.321,0.095,-0.941
618466,12482.0,-974.0,10928.0,-551.0,4210.0,202.0,0.042,-0.283,0.102,-0.953
618479,10454.0,-2116.0,10762.0,-603.0,4464.0,244.0,0.039,-0.244,0.11,-0.963
618502,9700.0,-2002.0,9288.0,-527.0,4483.0,343.0,0.036,-0.203,0.117,-0.971
618515,8370.0,-2364.0,8158.0,-697.0,4347.0,365.0,0.034,-0.163,0.125,-0.978
618528,7734.0,-1502.0,7490.0,-1006.0,4086.0,261.0,0.03,-0.126,0.136,-0.982
618551,6800.0,-1616.0,6542.0,-1247.0,3883.0,367.0,0.027,-0.09,0.149,-0.984
618564,6012.0,-1692.0,6030.0,-1160.0,3773.0,413.0,0.024,-0.057,0.16,-0.985
618587,4964.0,-1952.0,5496.0,-710.0,3743.0,276.0,0.021,-0.023,0.168,-0.985
618600,3922.0,-1488.0,5476.0,-399.0,3659.0,279.0,0.017,0.011,0.172,-0.985
618623,3024.0,-150.0,4490.0,-548.0,3362.0,380.0,0.015,0.042,0.178,-0.983
618636,3134.0,-834.0,2796.0,-959.0,2754.0,836.0,0.018,0.069,0.186,-0.98
618659,2882.0,-2416.0,1180.0,-665.0,2449.0,914.0,0.023,0.093,0.192,-0.977
618672,2570.0,-598.0,2176.0,-288.0,2439.0,1085.0,0.028,0.117,0.194,-0.974
618685,1372.0,-1028.0,3214.0,-213.0,2504.0,801.0,0.031,0.141,0.196,-0.97
618708,248.0,-938.0,1980.0,-201.0,2360.0,617.0,0.032,0.163,0.197,-0.966
618721,362.0,-1332.0,1102.0,-284.0,1970.0,389.0,0.032,0.182,0.2,-0.962
618739,822.0,54.0,306.0,-295.0,1767.0,352.0,0.032,0.198,0.202,-0.959
618762,-254.0,-836.0,1170.0,-657.0,1405.0,315.0,0.033,0.211,0.208,-0.955
618775,-824.0,-1468.0,452.0,-496.0,1215.0,323.0,0.033,0.223,0.212,-0.951
618798,-1196.0,-1738.0,854.0,-322.0,1113.0,280.0,0.034,0.233,0.214,-0.948
618811,-1324.0,-2160.0,-244.0,-89.0,922.0,305.0,0.034,0.242,0.214,-0.946
618834,-1584.0,-1680.0,-906.0,73.0,680.0,194.0,0.034,0.249,0.213,-0.944
618847,-1564.0,-924.0,-742.0,-13.0,425.0,119.0,0.033,0.253,0.213,-0.943
618860,-2082.0,-2126.0,-14.0,-134.0,134.0,31.0,0.033,0.254,0.214,-0.943
618883,-2262.0,-2176.0,-598.0,79.0,-103.0,-85.0,0.031,0.253,0.213,-0.943
618896,-2038.0,-2266.0,-798.0,266.0,-318.0,-144.0,0.029,0.25,0.211,-0.944
618919,-1638.0,-1544.0,-316.0,349.0,-448.0,-256.0,0.026,0.246,0.208,-0.946
618932,-1734.0,-1406.0,-564.0,263.0,-689.0,-244.0,0.024,0.24,0.206,-0.948
618955,-1720.0,-2150.0,-188.0,293.0,-1058.0,-244.0,0.023,0.23,0.203,-0.951
618968,-1162.0,-2140.0,866.0,422.0,-1272.0,-274.0,0.021,0.218,0.2,-0.955
618991,-968.0,-1634.0,1264.0,496.0,-1436.0,-319.0,0.019,0.205,0.195,-0.959
619004,-1016.0,-1238.0,1006.0,251.0,-1678.0,-403.0,0.017,0.19,0.193,-0.962
619027,-1114.0,-2510.0,550.0,62.0,-2059.0,-545.0,0.015,0.17,0.193,-0.966
619040,-1358.0,-3296.0,914.0,-49.0,-2516.0,-724.0,0.013,0.146,0.194,-0.97
619053,-132.0,-1176.0,2004.0,0.0,-3081.0,-1134.0,0.007,0.116,0.195,-0.974
619076,2628.0,-206.0,4336.0,231.0,-3306.0,-1017.0,0.003,0.085,0.194,-0.977
619089,3436.0,-1816.0,3894.0,448.0,-3348.0,-895.0,0.001,-0.053,-0.19,0.98
619112,3120.0,-1652.0,4702.0,958.0,-3297.0,-813.0,0.003,-0.021,-0.182,0.983
619125,3538.0,-1524.0,4676.0,1140.0,-3502.0,-900.0,0.006,0.012,-0.172,0.985
619148,4974.0,-1092.0,5962.0,858.0,-3651.0,-895.0,0.009,0.048,-0.164,0.985
619161,7078.0,-1778.0,8772.0,1030.0,-4005.0,-399.0,0.007,0.086,-0.154,0.984
619184,6396.0,-252.0,8070.0,691.0,-3958.0,-194.0,0.003,0.122,-0.148,0.981
619197,8318.0,-2638.0,6772.0,700.0,-3999.0,-447.0,0.002,0.159,-0.141,0.977
619210,8528.0,-2792.0,7720.0,942.0,-4030.0,-264.0,0.003,-0.196,0.132,-0.972
619233,10076.0,-1094.0,10176.0,1107.0,-3683.0,-346.0,0.006,-0.23,0.121,-0.966
619246,9524.0,-882.0,11356.0,1274.0,-3129.0,-473.0,0.008,-0.258,0.109,-0.96
619269,9006.0,-1368.0,10232.0,1214.0,-3020.0,-640.0,0.008,-0.286,0.096,-0.953
619282,8670.0,-902.0,10380.0,1045.0,-2969.0,-505.0,0.008,-0.313,0.085,-0.946
619305,7022.0,-334.0,9618.0,879.0,-3113.0,-514.0,0.008,-0.34,0.076,-0.937
619318,9282.0,-1524.0,8540.0,417.0,-3403.0,162.0,0.013,-0.37,0.073,-0.926
619341,11270.0,-2220.0,10510.0,1117.0,-2815.0,-740.0,0.013,-0.394,0.06,-0.917
619354,9542.0,-1272.0,10930.0,952.0,-2535.0,-737.0,0.011,-0.416,0.049,-0.908
619377,8600.0,-1544.0,11134.0,684.0,-2827.0,-423.0,0.012,-0.44,0.041,-0.897
619390,8970.0,1140.0,12612.0,756.0,-2576.0,-88.0,0.015,-0.461,0.034,-0.886
619403,8826.0,414.0,10092.0,183.0,-2443.0,-158.0,0.015,-0.482,0.032,-0.876
619426,9482.0,-1642.0,7300.0,-258.0,-2509.0,46.0,0.015,-0.502,0.034,-0.864
619439,9500.0,-4032.0,8644.0,-20.0,-2228.0,-232.0,0.014,-0.52,0.032,-0.853
619462,9486.0,-2312.0,9676.0,703.0,-1834.0,-465.0,0.015,-0.535,0.024,-0.845
619475,7338.0,540.0,12490.0,773.0,-1334.0,-353.0,0.016,-0.545,0.016,-0.838
619498,8048.0,-858.0,8820.0,120.0,-1378.0,-506.0,0.013,-0.556,0.012,-0.831
619511,8442.0,-2420.0,7196.0,-345.0,-1544.0,208.0,0.013,-0.568,0.016,-0.823
619534,8936.0,-2178.0,9554.0,-74.0,-1068.0,342.0,0.016,-0.576,0.018,-0.817
619547,7768.0,-1360.0,11166.0,-44.0,-592.0,-98.0,0.015,-0.58,0.017,-0.814
619570,7320.0,-1924.0,9386.0,335.0,236.0,6.0,0.018,-0.579,0.015,-0.815
619583,7658.0,-2438.0,9166.0,-64.0,-29.0,91.0,0.018,-0.579,0.015,-0.815
619596,8604.0,-2766.0,10844.0,-150.0,231.0,385.0,0.021,-0.577,0.018,-0.816
619619,7456.0,-2434.0,10796.0,15.0,948.0,322.0,0.023,-0.57,0.02,-0.821
619632,6472.0,-4288.0,9184.0,195.0,959.0,392.0,0.028,-0.562,0.021,-0.826
619655,8608.0,-1894.0,11328.0,206.0,950.0,551.0,0.033,-0.555,0.022,-0.831
619668,8950.0,-1368.0,12890.0,-91.0,1361.0,364.0,0.036,-0.544,0.025,-0.838
619691,9110.0,-3566.0,10272.0,-304.0,1571.0,462.0,0.038,-0.532,0.03,-0.845
619704,9060.0,-2636.0,10372.0,-307.0,1781.0,676.0,0.041,-0.518,0.036,-0.854
619727,9814.0,-1118.0,11958.0,-313.0,2057.0,796.0,0.046,-0.501,0.043,-0.863
619740,11574.0,-2754.0,11266.0,-507.0,2201.0,811.0,0.05,-0.483,0.051,-0.872
619763,12778.0,-2356.0,10250.0,-326.0,2668.0,1066.0,0.056,-0.461,0.06,-0.883
619776,12036.0,-3054.0,10088.0,-244.0,3018.0,1043.0,0.062,-0.436,0.068,-0.895
619799,12918.0,-1576.0,10340.0,-324.0,3306.0,848.0,0.066,-0.408,0.076,-0.908
619812,13146.0,-1804.0,9886.0,-418.0,3650.0,749.0,0.069,-0.376,0.084,-0.92
619825,11970.0,-2200.0,9426.0,-375.0,3958.0,751.0,0.071,-0.342,0.092,-0.933
619848,12034.0,-2234.0,9412.0,-342.0,4050.0,580.0,0.072,-0.306,0.099,-0.944
619861,11422.0,-1248.0,8754.0,-497.0,4347.0,335.0,0.07,-0.268,0.108,-0.955
619884,9644.0,-2098.0,8070.0,-635.0,4407.0,424.0,0.068,-0.228,0.117,-0.964
619897,8998.0,-1216.0,7774.0,-567.0,4341.0,626.0,0.068,-0.189,0.126,-0.972
619920,7228.0,-1460.0,6874.0,-585.0,4305.0,653.0,0.068,-0.149,0.135,-0.977
619933,7224.0,-384.0,6800.0,-777.0,4035.0,561.0,0.067,-0.112,0.145,-0.981
619946,6268.0,-1604.0,5346.0,-1107.0,3818.0,464.0,0.065,-0.079,0.158,-0.982
619969,6124.0,-2590.0,4846.0,-802.0,3669.0,548.0,0.063,-0.046,0.168,-0.983
619982,5002.0,-1796.0,3922.0,-315.0,3729.0,362.0,0.061,-0.012,0.173,-0.983
620005,4104.0,-420.0,4122.0,-235.0,3639.0,364.0,0.058,0.022,0.177,-0.982
620018,3060.0,82.0,3240.0,-721.0,3445.0,277.0,0.055,0.054,0.186,-0.98
620041,2596.0,-2596.0,2352.0,-739.0,2932.0,668.0,0.056,0.081,0.193,-0.976
620054,2088.0,-1618.0,1910.0,-281.0,2830.0,636.0,0.057,0.108,0.197,-0.973
620077,1722.0,-1118.0,3632.0,-101.0,2507.0,617.0,0.058,0.132,0.198,-0.97
620090,636.0,658.0,1274.0,-519.0,2748.0,374.0,0.056,0.157,0.204,-0.965
620113,-722.0,-974.0,158.0,-696.0,2238.0,-12.0,0.052,0.177,0.211,-0.96
620126,-270.0,-3048.0,666.0,-386.0,1892.0,-85.0,0.048,0.194,0.216,-0.956
620149,-678.0,-878.0,1252.0,-132.0,1868.0,-10.0,0.044,0.21,0.217,-0.952
620162,-1490.0,-1074.0,1056.0,-172.0,1600.0,26.0,0.041,0.225,0.219,-0.949
620175,-2646.0,-2590.0,-622.0,-235.0,1226.0,118.0,0.039,0.236,0.221,-0.945
620198,-2262.0,-1122.0,-18.0,16.0,984.0,36.0,0.037,0.245,0.221,-0.943
620211,-2612.0,-1184.0,-112.0,-64.0,777.0,92.0,0.036,0.252,0.222,-0.941
620234,-3406.0,-2266.0,-250.0,-103.0,418.0,35.0,0.035,0.255,0.223,-0.94
620247,-3118.0,-1970.0,-432.0,-42.0,59.0,-5.0,0.034,0.256,0.223,-0.94
620270,-2960.0,-1710.0,-728.0,-117.0,-262.0,-50.0,0.034,0.254,0.224,-0.94
620283,-2700.0,-1608.0,-814.0,-127.0,-572.0,-151.0,0.033,0.249,0.225,-0.942
620306,-2190.0,-1940.0,-350.0,-64.0,-724.0,-200.0,0.032,0.242,0.225,-0.943
620319,-2190.0,-1972.0,488.0,72.0,-867.0,-248.0,0.031,0.234,0.225,-0.945
620332,-2436.0,-2470.0,72.0,177.0,-1166.0,-293.0,0.03,0.223,0.223,-0.948
620355,-1736.0,-2660.0,290.0,319.0,-1432.0,-349.0,0.029,0.21,0.221,-0.952
620368,-1336.0,-2402.0,752.0,471.0,-1694.0,-370.0,0.027,0.194,0.216,-0.956
620391,-1110.0,-1796.0,1536.0,578.0,-1873.0,-429.0,0.025,0.177,0.211,-0.961
620404,-878.0,-1658.0,2336.0,538.0,-2085.0,-407.0,0.024,0.158,0.207,-0.965
620427,-410.0,-2638.0,2672.0,498.0,-2337.0,-453.0,0.023,0.136,0.202,-0.97
620440,252.0,-2800.0,2638.0,619.0,-2573.0,-478.0,0.022,0.112,0.196,-0.974
620463,380.0,-538.0,2382.0,482.0,-2696.0,-473.0,0.022,0.087,0.192,-0.977
620476,1244.0,-1204.0,3454.0,155.0,-3059.0,-553.0,0.022,0.058,0.19,-0.98
620499,2450.0,-2206.0,3580.0,-12.0,-3333.0,-743.0,0.02,0.026,0.19,-0.981
620512,4244.0,-2852.0,5112.0,384.0,-3672.0,-759.0,0.019,-0.008,0.186,-0.982
620525,4768.0,-1740.0,7452.0,717.0,-3415.0,-649.0,0.019,-0.041,0.178,-0.983
620548,4214.0,-1784.0,7834.0,721.0,-3413.0,-862.0,0.016,-0.073,0.171,-0.982
620561,4154.0,-4310.0,7758.0,1118.0,-4108.0,-1246.0,0.011,-0.112,0.159,-0.981
620584,4118.0,-976.0,7718.0,955.0,-3721.0,-397.0,0.014,-0.147,0.149,-0.978
620597,6302.0,-1638.0,7578.0,599.0,-4026.0,-413.0,0.016,-0.184,0.142,-0.972
620620,7750.0,-2128.0,7964.0,590.0,-4065.0,-268.0,0.019,-0.221,0.136,-0.966
620633,7778.0,-2590.0,8994.0,862.0,-3785.0,-317.0,0.023,-0.255,0.127,-0.958
620656,7586.0,-1922.0,9978.0,954.0,-3542.0,-415.0,0.025,-0.287,0.117,-0.95
620669,7868.0,-1890.0,9046.0,468.0,-3970.0,-98.0,0.03,-0.322,0.111,-0.94
620682,9460.0,-2224.0,9742.0,732.0,-3707.0,-247.0,0.033,-0.354,0.103,-0.929
620705,10540.0,-1730.0,10826.0,828.0,-3256.0,91.0,0.04,-0.382,0.095,-0.918
620718,9822.0,-1712.0,9820.0,746.0,-2876.0,-708.0,0.039,-0.407,0.085,-0.909
620746,10326.0,-2944.0,9508.0,839.0,-2670.0,-445.0,0.04,-0.429,0.076,-0.899
620759,9866.0,-3438.0,9518.0,977.0,-2551.0,-1.0,0.046,-0.45,0.066,-0.889
620772,10826.0,-1508.0,9774.0,1212.0,-2158.0,-118.0,0.052,-0.468,0.055,-0.881
620795,9326.0,-1796.0,8756.0,1121.0,-1747.0,-193.0,0.056,-0.482,0.044,-0.873
620808,8978.0,-1300.0,9226.0,817.0,-1799.0,196.0,0.062,-0.496,0.037,-0.865
620831,8974.0,-1642.0,9178.0,643.0,-1601.0,396.0,0.069,-0.508,0.033,-0.858
620844,8314.0,-2676.0,8268.0,1040.0,-1204.0,-16.0,0.074,-0.517,0.024,-0.852
620857,8048.0,-1190.0,7282.0,975.0,-1058.0,37.0,0.08,-0.525,0.015,-0.847
620880,8336.0,-740.0,6968.0,661.0,-1089.0,85.0,0.084,-0.533,0.009,-0.842
620893,7874.0,-1732.0,6274.0,386.0,-1140.0,431.0,0.09,-0.541,0.007,-0.836
620916,7914.0,-1516.0,6768.0,571.0,-814.0,189.0,0.094,-0.547,0.003,-0.832
620929,7554.0,-1370.0,5964.0,687.0,-692.0,116.0,0.099,-0.552,-0.002,-0.828
620952,7164.0,-972.0,5100.0,749.0,-630.0,43.0,0.104,-0.556,-0.009,-0.825
620965,7462.0,-466.0,4998.0,654.0,-465.0,6.0,0.107,-0.558,-0.014,-0.822
620988,7774.0,-888.0,4912.0,620.0,-447.0,90.0,0.112,-0.561,-0.019,-0.82
621001,7870.0,1436.0,13400.0,1022.0,213.0,164.0,0.119,-0.559,-0.026,-0.82
621024,2772.0,1856.0,8232.0,-329.0,782.0,-1017.0,0.11,-0.551,-0.029,-0.826
621037,7274.0,-890.0,5656.0,-1066.0,-220.0,-471.0,0.101,-0.554,-0.024,-0.826
621050,8816.0,-1860.0,4052.0,-1170.0,-207.0,597.0,0.1,-0.557,-0.012,-0.824
621073,7760.0,-582.0,3528.0,-1136.0,-270.0,-205.0,0.093,-0.56,-0.005,-0.823
621086,7638.0,-1440.0,3048.0,-905.0,-92.0,-343.0,0.086,-0.561,0.0,-0.823
621109,7552.0,-1218.0,3646.0,-617.0,-64.0,-345.0,0.081,-0.562,0.003,-0.823
621122,7426.0,-764.0,3700.0,-529.0,35.0,-299.0,0.076,-0.562,0.005,-0.823
621145,7458.0,-340.0,3594.0,-613.0,16.0,-231.0,0.071,-0.563,0.008,-0.824
621158,7432.0,-480.0,3402.0,-785.0,11.0,-166.0,0.066,-0.563,0.013,-0.824
621181,7450.0,-1924.0,2912.0,-730.0,-20.0,-94.0,0.062,-0.564,0.018,-0.823
621194,7598.0,-2266.0,2658.0,-466.0,-46.0,-85.0,0.06,-0.564,0.021,-0.823
621217,7656.0,-922.0,2814.0,-185.0,-1.0,-80.0,0.059,-0.565,0.022,-0.823
621230,7752.0,-880.0,3004.0,-137.0,-19.0,-102.0,0.058,-0.565,0.022,-0.823
621243,7442.0,-842.0,3208.0,-161.0,3.0,-37.0,0.057,-0.565,0.023,-0.823
621266,7412.0,-762.0,3076.0,-176.0,-89.0,-38.0,0.056,-0.566,0.024,-0.822
621279,7642.0,-998.0,2866.0,-166.0,-116.0,-105.0,0.055,-0.567,0.024,-0.822
621302,7584.0,-1498.0,2436.0,-131.0,-168.0,-75.0,0.054,-0.568,0.025,-0.821
621315,7720.0,-1538.0,2500.0,39.0,-195.0,12.0,0.055,-0.57,0.024,-0.82
621338,7416.0,-1432.0,1904.0,308.0,-182.0,-203.0,0.056,-0.571,0.021,-0.819
621351,7254.0,-812.0,2294.0,376.0,-160.0,48.0,0.058,-0.572,0.018,-0.818
621374,7508.0,-730.0,2458.0,284.0,-281.0,-126.0,0.059,-0.574,0.014,-0.816
621387,7470.0,-1882.0,2486.0,355.0,-276.0,-35.0,0.062,-0.576,0.011,-0.815
621400,7540.0,-1336.0,2464.0,502.0,-314.0,202.0,0.066,-0.579,0.008,-0.813
621423,8216.0,-3010.0,2462.0,1383.0,-362.0,-101.0,0.073,-0.58,-0.003,-0.811
621436,8056.0,2024.0,-910.0,636.0,321.0,617.0,0.082,-0.578,-0.005,-0.812
621459,5130.0,-3856.0,3506.0,-999.0,302.0,259.0,0.079,-0.577,0.004,-0.813
621472,6308.0,-1006.0,1762.0,-148.0,-238.0,-159.0,0.077,-0.579,0.003,-0.812
621495,8770.0,950.0,5876.0,-192.0,-284.0,-274.0,0.074,-0.581,0.003,-0.81
621508,8062.0,-1998.0,3886.0,-628.0,-662.0,-689.0,0.066,-0.586,0.003,-0.807
621531,7814.0,-2280.0,5612.0,-482.0,-170.0,333.0,0.066,-0.588,0.008,-0.806
621544,7486.0,-2052.0,4954.0,-250.0,-123.0,132.0,0.066,-0.589,0.011,-0.805
621567,8294.0,-1732.0,5022.0,-58.0,-131.0,145.0,0.068,-0.59,0.012,-0.804
621580,6878.0,-2544.0,3654.0,-152.0,-19.0,-73.0,0.067,-0.59,0.012,-0.804
