timeMs,ax,ay,az,q0,q1,q2,q3
4620316,11118.0,6316.0,-982.0,0.678,0.472,-0.55,0.12
4620333,10754.0,6456.0,-688.0,0.677,0.48,-0.548,0.104
4620349,9626.0,5498.0,-590.0,0.675,0.488,-0.546,0.089
4620366,8734.0,5914.0,-676.0,0.671,0.498,-0.544,0.072
4620383,7574.0,5754.0,-610.0,0.667,0.507,-0.543,0.055
4620400,6580.0,4946.0,-500.0,0.662,0.516,-0.542,0.038
4620427,5832.0,5118.0,-732.0,0.655,0.524,-0.543,0.022
4620443,5748.0,6036.0,-990.0,0.648,0.532,-0.545,0.007
4620459,5436.0,4400.0,-1040.0,0.642,0.537,-0.547,-0.009
4620475,4994.0,4592.0,-978.0,0.635,0.543,-0.549,-0.024
4620491,3912.0,3762.0,-624.0,0.627,0.548,-0.552,-0.039
4620507,4554.0,4538.0,-1154.0,0.619,0.553,-0.555,-0.053
4620523,3716.0,4738.0,-1382.0,0.613,0.557,-0.557,-0.067
4620549,2730.0,3866.0,-1428.0,0.607,0.558,-0.56,-0.08
4620566,2776.0,3570.0,-1784.0,0.601,0.56,-0.562,-0.092
4620583,2390.0,3648.0,-1944.0,0.597,0.56,-0.565,-0.102
4620600,1804.0,3616.0,-2056.0,0.594,0.559,-0.567,-0.111
4620617,1882.0,4004.0,-1358.0,0.592,0.558,-0.569,-0.12
4620634,1494.0,3532.0,-1372.0,0.591,0.557,-0.57,-0.127
4620651,1464.0,3266.0,-1000.0,0.59,0.556,-0.57,-0.133
4620667,1438.0,3764.0,-874.0,0.59,0.556,-0.569,-0.136
4620684,888.0,3402.0,-794.0,0.592,0.555,-0.568,-0.139
4620701,1370.0,2534.0,-324.0,0.594,0.554,-0.566,-0.139
4620718,1460.0,2710.0,-30.0,0.596,0.554,-0.565,-0.138
4620744,1388.0,2958.0,-118.0,0.598,0.555,-0.562,-0.135
4620760,1382.0,3318.0,-604.0,0.599,0.556,-0.56,-0.132
4620776,2146.0,3060.0,-628.0,0.6,0.558,-0.558,-0.127
4620793,1984.0,4304.0,-818.0,0.601,0.561,-0.556,-0.122
4620809,2460.0,4844.0,-890.0,0.602,0.563,-0.555,-0.116
4620825,2162.0,4786.0,-748.0,0.603,0.565,-0.553,-0.111
4620841,2894.0,4406.0,-982.0,0.604,0.566,-0.551,-0.106
4620868,2562.0,4900.0,-902.0,0.605,0.568,-0.548,-0.1
4620884,2172.0,6070.0,-962.0,0.607,0.57,-0.546,-0.095
4620901,2692.0,5538.0,-1276.0,0.609,0.57,-0.544,-0.091
4620918,2808.0,4554.0,-1048.0,0.611,0.571,-0.541,-0.087
4620934,3128.0,6544.0,-1590.0,0.613,0.572,-0.539,-0.083
4620951,3952.0,6012.0,-1778.0,0.616,0.571,-0.537,-0.077
4620968,3760.0,5770.0,-1126.0,0.621,0.57,-0.533,-0.072
4620985,3028.0,6164.0,-1138.0,0.625,0.569,-0.53,-0.068
4621002,3638.0,5492.0,-1124.0,0.629,0.567,-0.527,-0.064
4621019,4434.0,6302.0,-1430.0,0.633,0.566,-0.525,-0.057
4621036,4568.0,5844.0,-1770.0,0.637,0.564,-0.523,-0.05
4621062,3874.0,5744.0,-958.0,0.641,0.561,-0.521,-0.042
4621078,4186.0,7160.0,-868.0,0.645,0.558,-0.52,-0.037
4621094,4756.0,5550.0,-1658.0,0.649,0.554,-0.521,-0.03
4621110,6678.0,5338.0,-2112.0,0.653,0.55,-0.52,-0.021
4621127,5232.0,5396.0,-640.0,0.657,0.547,-0.519,-0.009
4621144,4062.0,6320.0,-1010.0,0.659,0.544,-0.519,0.001
4621160,5444.0,6330.0,-1066.0,0.661,0.54,-0.521,0.011
4621177,6340.0,6816.0,-1758.0,0.665,0.533,-0.522,0.02
4621204,5972.0,4902.0,-1274.0,0.669,0.526,-0.524,0.03
4621220,5518.0,3790.0,-198.0,0.671,0.52,-0.526,0.042
4621236,7414.0,7264.0,-856.0,0.672,0.517,-0.529,0.053
4621252,6458.0,7332.0,-1030.0,0.673,0.508,-0.533,0.063
4621269,6698.0,4460.0,-566.0,0.675,0.499,-0.538,0.073
4621285,8588.0,2992.0,-1362.0,0.677,0.493,-0.541,0.082
4621301,8246.0,4226.0,-578.0,0.677,0.488,-0.542,0.093
4621328,9246.0,5522.0,-772.0,0.678,0.483,-0.544,0.106
4621345,9404.0,5628.0,-568.0,0.678,0.475,-0.548,0.122
4621362,9440.0,5270.0,-844.0,0.678,0.465,-0.552,0.139
4621379,9522.0,3866.0,-314.0,0.679,0.454,-0.556,0.155
4621396,10470.0,3386.0,-316.0,0.679,0.444,-0.559,0.171
4621413,11224.0,2706.0,-850.0,0.679,0.435,-0.562,0.186
4621430,12306.0,4238.0,-248.0,0.678,0.425,-0.565,0.202
4621447,10936.0,5462.0,2.0,0.678,0.415,-0.568,0.214
4621464,11722.0,1504.0,214.0,0.68,0.406,-0.569,0.223
4621480,10522.0,2654.0,32.0,0.681,0.4,-0.569,0.228
4621506,10880.0,1434.0,568.0,0.683,0.397,-0.569,0.227
4621523,10860.0,1596.0,390.0,0.684,0.398,-0.569,0.224
4621540,10490.0,3282.0,574.0,0.684,0.4,-0.57,0.219
4621556,11224.0,3876.0,6.0,0.684,0.401,-0.571,0.213
4621572,11288.0,2962.0,-238.0,0.684,0.402,-0.573,0.206
4621589,10998.0,2344.0,-90.0,0.684,0.404,-0.574,0.199
4621605,11116.0,3176.0,-278.0,0.684,0.407,-0.574,0.192
4621621,11132.0,3082.0,-200.0,0.683,0.411,-0.575,0.183
4621647,10968.0,3058.0,-398.0,0.683,0.417,-0.574,0.173
4621663,10778.0,3648.0,-512.0,0.683,0.424,-0.573,0.161
4621679,10392.0,3798.0,-412.0,0.682,0.431,-0.572,0.149
4621695,10372.0,3902.0,-728.0,0.68,0.438,-0.571,0.138
4621711,9828.0,4166.0,-716.0,0.678,0.445,-0.57,0.127
4621727,9348.0,4878.0,-752.0,0.676,0.452,-0.57,0.116
4621753,9386.0,4398.0,-904.0,0.674,0.459,-0.569,0.103
4621769,9360.0,3666.0,-894.0,0.67,0.467,-0.569,0.092
4621785,8508.0,4276.0,-834.0,0.666,0.478,-0.568,0.081
4621801,8198.0,5778.0,-1358.0,0.66,0.487,-0.567,0.07
4621817,7378.0,5332.0,-1312.0,0.655,0.495,-0.568,0.06
4621833,7408.0,4688.0,-1208.0,0.649,0.503,-0.569,0.05
4621859,7320.0,4998.0,-1562.0,0.641,0.511,-0.571,0.041
4621875,6648.0,6174.0,-1516.0,0.634,0.519,-0.573,0.033
4621891,6672.0,5700.0,-1566.0,0.627,0.525,-0.575,0.024
4621907,6640.0,5192.0,-1566.0,0.621,0.531,-0.577,0.015
4621924,6702.0,4960.0,-1740.0,0.615,0.536,-0.578,0.007
4621941,5902.0,5290.0,-1778.0,0.609,0.541,-0.58,0.001
4621958,5574.0,6374.0,-2062.0,0.605,0.544,-0.582,-0.006
4621975,5464.0,5356.0,-1700.0,0.602,0.545,-0.584,-0.015
4621992,5590.0,4466.0,-1780.0,0.599,0.546,-0.585,-0.024
4622018,4188.0,4974.0,-1784.0,0.594,0.548,-0.588,-0.033
4622035,5216.0,5836.0,-2208.0,0.589,0.549,-0.591,-0.043
4622052,5120.0,5528.0,-2308.0,0.587,0.549,-0.592,-0.053
4622069,3532.0,4262.0,-1996.0,0.585,0.549,-0.594,-0.062
4622085,3778.0,4692.0,-1838.0,0.583,0.549,-0.595,-0.072
4622102,3044.0,5034.0,-1744.0,0.58,0.549,-0.596,-0.081
4622118,3218.0,4952.0,-1616.0,0.579,0.548,-0.597,-0.09
4622134,2842.0,4352.0,-1636.0,0.58,0.544,-0.598,-0.098
4622151,2288.0,3788.0,-1154.0,0.582,0.541,-0.599,-0.104
4622177,1952.0,3342.0,-286.0,0.583,0.537,-0.599,-0.109
4622193,1378.0,3766.0,-940.0,0.585,0.533,-0.6,-0.112
4622210,946.0,2972.0,-388.0,0.589,0.528,-0.602,-0.114
4622227,1636.0,2546.0,-714.0,0.591,0.523,-0.604,-0.115
4622243,2018.0,2898.0,-776.0,0.593,0.519,-0.605,-0.115
4622259,2002.0,3668.0,-1026.0,0.596,0.516,-0.605,-0.114
4622275,2044.0,3546.0,-1158.0,0.599,0.511,-0.605,-0.113
4622301,2004.0,3292.0,-1134.0,0.603,0.507,-0.606,-0.111
4622317,2528.0,3362.0,-1196.0,0.606,0.505,-0.606,-0.108
4622333,1858.0,3300.0,-826.0,0.608,0.503,-0.605,-0.106
4622350,1982.0,3876.0,-912.0,0.609,0.502,-0.605,-0.104
4622366,2064.0,4170.0,-670.0,0.61,0.501,-0.605,-0.103
4622382,2472.0,3936.0,-950.0,0.61,0.501,-0.605,-0.101
4622399,3434.0,4564.0,-910.0,0.611,0.502,-0.604,-0.099
4622425,3096.0,5730.0,-984.0,0.613,0.502,-0.603,-0.096
4622441,2616.0,5226.0,-976.0,0.615,0.501,-0.601,-0.093
4622457,3252.0,4982.0,-816.0,0.618,0.5,-0.6,-0.091
4622473,4012.0,4326.0,-1232.0,0.619,0.501,-0.598,-0.088
4622489,3382.0,6138.0,-1292.0,0.622,0.501,-0.596,-0.085
4622505,2948.0,5300.0,-600.0,0.625,0.499,-0.595,-0.081
4622531,3796.0,4640.0,-966.0,0.627,0.498,-0.594,-0.078
4622547,4650.0,5138.0,-1604.0,0.63,0.497,-0.592,-0.074
4622563,4150.0,5588.0,-860.0,0.633,0.495,-0.591,-0.069
4622580,4440.0,5374.0,-1088.0,0.636,0.492,-0.591,-0.062
4622596,5562.0,5298.0,-1838.0,0.64,0.49,-0.589,-0.055
4622612,4184.0,6898.0,-822.0,0.645,0.486,-0.588,-0.049
4622638,5458.0,6016.0,-1112.0,0.65,0.48,-0.588,-0.043
4622655,6316.0,4670.0,-1646.0,0.655,0.473,-0.588,-0.035
4622672,6480.0,4498.0,-912.0,0.661,0.469,-0.585,-0.027
4622688,5850.0,6284.0,-1044.0,0.665,0.465,-0.583,-0.019
4622704,6240.0,5988.0,-570.0,0.671,0.459,-0.583,-0.012
4622720,9082.0,6278.0,-1148.0,0.676,0.451,-0.583,-0.003
4622736,10594.0,3506.0,-1356.0,0.683,0.443,-0.58,0.006
4622762,8802.0,6046.0,-854.0,0.691,0.437,-0.576,0.017
4622779,8552.0,6406.0,-330.0,0.698,0.427,-0.574,0.029
4622795,8102.0,5666.0,246.0,0.703,0.416,-0.576,0.041
4622811,10080.0,5072.0,-124.0,0.706,0.403,-0.58,0.051
4622828,11256.0,4822.0,202.0,0.709,0.391,-0.584,0.063
4622845,12382.0,5944.0,-100.0,0.712,0.379,-0.587,0.074
4622862,12768.0,5032.0,-610.0,0.715,0.366,-0.59,0.084
4622879,12208.0,3320.0,-70.0,0.718,0.357,-0.59,0.092
4622896,11070.0,3826.0,582.0,0.72,0.353,-0.589,0.097
4622913,10100.0,4310.0,548.0,0.721,0.35,-0.59,0.099
4622930,11298.0,3744.0,204.0,0.72,0.347,-0.593,0.098
4622957,12126.0,2820.0,-192.0,0.719,0.346,-0.594,0.098
4622973,12640.0,3616.0,-364.0,0.719,0.346,-0.594,0.098
4622989,12702.0,4668.0,-364.0,0.72,0.347,-0.593,0.097
4623005,12340.0,3382.0,-12.0,0.721,0.348,-0.592,0.094
4623021,12098.0,3400.0,-190.0,0.721,0.351,-0.59,0.088
4623037,11906.0,3690.0,-286.0,0.721,0.356,-0.589,0.081
4623063,12184.0,2900.0,-378.0,0.72,0.362,-0.588,0.075
4623079,11698.0,3882.0,-236.0,0.718,0.371,-0.586,0.07
4623095,10994.0,4458.0,-286.0,0.715,0.379,-0.584,0.062
4623111,11256.0,4544.0,-592.0,0.712,0.389,-0.582,0.054
4623127,10690.0,4714.0,-432.0,0.709,0.399,-0.58,0.046
4623143,10656.0,4994.0,-764.0,0.705,0.411,-0.577,0.038
4623169,9592.0,6306.0,-514.0,0.701,0.422,-0.575,0.03
4623185,9142.0,5762.0,-588.0,0.696,0.432,-0.574,0.021
4623201,9034.0,4638.0,-910.0,0.691,0.442,-0.572,0.013
4623217,7678.0,5206.0,-612.0,0.685,0.455,-0.57,0.004
4623234,6374.0,6278.0,-792.0,0.678,0.466,-0.569,-0.004
4623250,6744.0,6046.0,-1050.0,0.672,0.475,-0.568,-0.012
4623266,5626.0,5054.0,-750.0,0.666,0.483,-0.569,-0.021
4623293,5618.0,5240.0,-1020.0,0.659,0.491,-0.569,-0.029
4623310,5122.0,5580.0,-1020.0,0.653,0.498,-0.569,-0.037
4623327,4956.0,5004.0,-896.0,0.648,0.504,-0.569,-0.044
4623343,3566.0,5066.0,-810.0,0.644,0.508,-0.57,-0.051
4623359,4318.0,4636.0,-864.0,0.64,0.512,-0.57,-0.058
4623375,3140.0,4150.0,-766.0,0.636,0.514,-0.571,-0.064
4623391,3490.0,4498.0,-558.0,0.633,0.516,-0.573,-0.07
4623417,2702.0,4106.0,-472.0,0.631,0.517,-0.574,-0.076
4623433,2502.0,3108.0,-524.0,0.629,0.517,-0.575,-0.082
4623449,2682.0,2434.0,-814.0,0.628,0.517,-0.576,-0.086
4623466,3098.0,3300.0,-946.0,0.627,0.518,-0.575,-0.087
4623483,2164.0,4554.0,-1130.0,0.628,0.518,-0.574,-0.088
4623499,2182.0,3534.0,-1030.0,0.631,0.516,-0.572,-0.089
4623516,1684.0,2722.0,-756.0,0.632,0.515,-0.571,-0.091
4623533,1648.0,2198.0,-544.0,0.632,0.516,-0.571,-0.092
4623550,2078.0,3158.0,-462.0,0.63,0.518,-0.572,-0.091
4623570,1896.0,4390.0,-464.0,0.627,0.52,-0.572,-0.091
4623590,2042.0,4304.0,-268.0,0.625,0.521,-0.574,-0.091
4623607,2744.0,3888.0,-248.0,0.623,0.522,-0.575,-0.09
4623623,2640.0,4652.0,-322.0,0.621,0.524,-0.576,-0.089
4623641,3064.0,5906.0,-282.0,0.62,0.524,-0.577,-0.088
4623657,2248.0,4998.0,16.0,0.62,0.524,-0.577,-0.087
4623674,3056.0,4702.0,-64.0,0.62,0.523,-0.578,-0.085
4623700,3580.0,4928.0,-416.0,0.62,0.523,-0.578,-0.083
4623716,3202.0,5678.0,-504.0,0.622,0.523,-0.577,-0.08
4623732,3692.0,5772.0,-542.0,0.624,0.522,-0.576,-0.076
4623748,3588.0,5760.0,-624.0,0.627,0.521,-0.574,-0.073
4623764,4170.0,4994.0,-444.0,0.631,0.52,-0.571,-0.069
4623780,4118.0,5784.0,-608.0,0.635,0.52,-0.567,-0.065
4623806,3754.0,6104.0,-244.0,0.641,0.519,-0.563,-0.06
4623823,3564.0,6236.0,-160.0,0.646,0.518,-0.559,-0.057
4623839,3760.0,5704.0,-296.0,0.651,0.516,-0.555,-0.053
4623855,5142.0,4142.0,-510.0,0.656,0.515,-0.55,-0.049
4623871,3614.0,5500.0,-356.0,0.66,0.516,-0.544,-0.044
4623887,3478.0,6550.0,-42.0,0.664,0.516,-0.54,-0.039
4623903,2896.0,5644.0,74.0,0.667,0.514,-0.538,-0.034
4623929,4100.0,4480.0,-426.0,0.67,0.512,-0.537,-0.031
4623946,3762.0,3382.0,-362.0,0.674,0.509,-0.535,-0.027
4623962,5616.0,4720.0,-826.0,0.675,0.508,-0.534,-0.018
4623978,4392.0,4660.0,-636.0,0.677,0.507,-0.533,-0.007
4623995,4332.0,6880.0,-402.0,0.681,0.502,-0.533,0.001
4624011,5548.0,4934.0,-838.0,0.685,0.496,-0.534,0.007
4624027,5080.0,4394.0,-398.0,0.69,0.488,-0.535,0.015
4624053,5706.0,3020.0,-160.0,0.692,0.482,-0.536,0.023
4624069,8096.0,3872.0,-704.0,0.693,0.478,-0.539,0.035
4624086,8162.0,7680.0,-1120.0,0.695,0.471,-0.541,0.05
4624103,8706.0,4568.0,-514.0,0.7,0.459,-0.544,0.066
4624119,8022.0,4436.0,-190.0,0.702,0.449,-0.546,0.084
4624135,8182.0,5378.0,260.0,0.704,0.437,-0.55,0.1
4624151,9660.0,5536.0,586.0,0.705,0.425,-0.555,0.116
4624177,11504.0,6690.0,310.0,0.706,0.411,-0.563,0.13
4624194,13148.0,5262.0,502.0,0.706,0.395,-0.569,0.145
4624210,15524.0,4206.0,-320.0,0.709,0.382,-0.572,0.157
4624226,15672.0,3376.0,14.0,0.713,0.372,-0.57,0.168
4624242,13474.0,3106.0,788.0,0.717,0.367,-0.566,0.174
4624258,12928.0,1790.0,696.0,0.72,0.368,-0.561,0.176
4624275,12046.0,3120.0,664.0,0.721,0.373,-0.557,0.174
4624302,11784.0,4484.0,512.0,0.721,0.378,-0.555,0.17
4624318,12712.0,4138.0,190.0,0.72,0.383,-0.555,0.164
4624335,12870.0,3336.0,158.0,0.719,0.389,-0.555,0.156
4624351,12952.0,3974.0,-86.0,0.718,0.395,-0.554,0.148
4624368,13564.0,3996.0,-366.0,0.717,0.402,-0.553,0.14
4624385,11980.0,4268.0,-44.0,0.716,0.408,-0.551,0.131
4624401,10360.0,4764.0,112.0,0.715,0.414,-0.551,0.12
4624417,10732.0,4738.0,-106.0,0.714,0.419,-0.55,0.107
4624434,10456.0,4342.0,-248.0,0.714,0.424,-0.55,0.094
4624461,10156.0,5696.0,-258.0,0.714,0.429,-0.548,0.081
4624477,9928.0,5600.0,-240.0,0.714,0.432,-0.547,0.067
4624493,9790.0,5646.0,-158.0,0.713,0.437,-0.546,0.052
4624509,9686.0,6036.0,-516.0,0.712,0.442,-0.544,0.037
4624525,8852.0,7244.0,-634.0,0.712,0.446,-0.542,0.022
4624541,8056.0,5644.0,-584.0,0.712,0.449,-0.54,0.007
4624567,7010.0,6068.0,-606.0,0.711,0.452,-0.539,-0.008
4624583,6702.0,6112.0,-622.0,0.71,0.454,-0.538,-0.021
4624599,6912.0,5782.0,-908.0,0.711,0.454,-0.536,-0.035
4624615,5370.0,5942.0,-644.0,0.712,0.454,-0.534,-0.047
4624631,5516.0,4888.0,-688.0,0.713,0.453,-0.533,-0.058
4624649,4756.0,4474.0,-472.0,0.713,0.452,-0.531,-0.07
4624675,4598.0,4572.0,-138.0,0.713,0.452,-0.53,-0.081
4624691,4234.0,4348.0,-36.0,0.713,0.453,-0.528,-0.091
4624707,3522.0,4092.0,340.0,0.713,0.453,-0.526,-0.1
4624723,3998.0,3920.0,302.0,0.711,0.454,-0.526,-0.109
4624739,3396.0,4416.0,388.0,0.71,0.455,-0.525,-0.117
4624755,3816.0,3840.0,456.0,0.709,0.455,-0.524,-0.124
4624772,3140.0,3690.0,404.0,0.707,0.457,-0.523,-0.13
4624789,2216.0,3212.0,772.0,0.706,0.458,-0.523,-0.135
4624815,1882.0,2388.0,536.0,0.704,0.46,-0.523,-0.14
4624831,1914.0,3226.0,796.0,0.702,0.461,-0.524,-0.144
4624847,2706.0,2796.0,282.0,0.703,0.46,-0.523,-0.146
4624863,2110.0,2998.0,410.0,0.706,0.458,-0.52,-0.146
4624879,1474.0,1504.0,1118.0,0.709,0.456,-0.517,-0.145
4624895,868.0,1334.0,1728.0,0.712,0.456,-0.515,-0.142
4624912,80.0,2140.0,2092.0,0.712,0.457,-0.515,-0.14
4624939,716.0,2666.0,1906.0,0.711,0.458,-0.516,-0.138
4624955,1678.0,3296.0,1314.0,0.71,0.458,-0.518,-0.135
4624971,2482.0,3762.0,920.0,0.709,0.459,-0.519,-0.131
4624987,2832.0,4300.0,776.0,0.709,0.46,-0.52,-0.125
4625003,2752.0,5418.0,592.0,0.71,0.46,-0.519,-0.12
4625029,2444.0,4414.0,888.0,0.712,0.459,-0.519,-0.115
4625045,2108.0,4362.0,1008.0,0.713,0.459,-0.518,-0.11
4625061,3408.0,4486.0,440.0,0.714,0.46,-0.517,-0.105
4625077,3114.0,4650.0,472.0,0.715,0.462,-0.515,-0.1
4625094,2164.0,4986.0,1014.0,0.716,0.464,-0.512,-0.095
4625110,2998.0,6038.0,762.0,0.717,0.465,-0.511,-0.092
4625127,3166.0,5006.0,352.0,0.718,0.466,-0.509,-0.088
4625143,4726.0,3964.0,354.0,0.719,0.469,-0.506,-0.083
4625169,3712.0,6792.0,160.0,0.72,0.472,-0.503,-0.078
4625185,3008.0,6090.0,704.0,0.722,0.473,-0.501,-0.073
4625202,2984.0,4554.0,686.0,0.722,0.473,-0.501,-0.068
4625219,4324.0,4426.0,44.0,0.72,0.474,-0.503,-0.062
4625236,4742.0,4366.0,-306.0,0.719,0.477,-0.503,-0.055
4625253,4026.0,6482.0,288.0,0.718,0.478,-0.503,-0.046
4625270,2818.0,5746.0,790.0,0.718,0.476,-0.506,-0.038
4625287,4264.0,4454.0,-72.0,0.717,0.473,-0.511,-0.032
4625304,5482.0,3846.0,-2.0,0.715,0.471,-0.516,-0.022
4625321,7746.0,4096.0,-662.0,0.712,0.472,-0.519,-0.01
4625338,5876.0,7302.0,-122.0,0.712,0.471,-0.522,0.002
4625355,6036.0,6606.0,272.0,0.712,0.465,-0.526,0.014
4625381,8648.0,3942.0,-152.0,0.713,0.457,-0.53,0.028
4625398,9048.0,4336.0,30.0,0.713,0.451,-0.535,0.046
4625418,8980.0,5874.0,16.0,0.712,0.444,-0.54,0.068
4625434,8228.0,6494.0,490.0,0.711,0.434,-0.546,0.088
4625450,8676.0,5872.0,946.0,0.71,0.421,-0.554,0.105
4625466,10974.0,4174.0,638.0,0.709,0.407,-0.563,0.122
4625482,12970.0,4942.0,-264.0,0.705,0.394,-0.573,0.141
4625498,12734.0,5966.0,-254.0,0.702,0.379,-0.581,0.16
4625514,13398.0,3564.0,-644.0,0.702,0.365,-0.587,0.173
4625540,14022.0,1046.0,-104.0,0.703,0.355,-0.588,0.183
4625557,13542.0,1994.0,72.0,0.704,0.35,-0.587,0.192
4625575,12164.0,3174.0,220.0,0.705,0.348,-0.586,0.199
4625592,11332.0,3158.0,432.0,0.705,0.346,-0.585,0.202
4625608,11290.0,2388.0,174.0,0.705,0.346,-0.585,0.203
4625625,11132.0,2452.0,368.0,0.704,0.347,-0.586,0.202
4625641,11432.0,2414.0,38.0,0.703,0.349,-0.586,0.199
4625657,11486.0,2290.0,96.0,0.703,0.353,-0.586,0.195
4625673,12044.0,2818.0,-108.0,0.702,0.357,-0.586,0.19
4625699,11172.0,2542.0,320.0,0.701,0.363,-0.586,0.183
4625715,12016.0,2600.0,-98.0,0.701,0.37,-0.585,0.173
4625732,11674.0,3066.0,-208.0,0.7,0.379,-0.583,0.162
4625748,11804.0,3446.0,-206.0,0.699,0.389,-0.581,0.151
4625764,11280.0,4390.0,-292.0,0.698,0.398,-0.579,0.139
4625790,11404.0,4774.0,-216.0,0.697,0.405,-0.577,0.127
4625806,11098.0,3656.0,-500.0,0.696,0.413,-0.576,0.115
4625824,11416.0,3288.0,-490.0,0.695,0.423,-0.573,0.101
4625840,10492.0,5828.0,-446.0,0.693,0.434,-0.57,0.087
4625856,9942.0,6766.0,-744.0,0.691,0.441,-0.567,0.072
4625874,9326.0,5218.0,-344.0,0.689,0.448,-0.567,0.058
4625890,9116.0,5006.0,-862.0,0.686,0.455,-0.566,0.043
4625906,8564.0,5546.0,-628.0,0.684,0.463,-0.563,0.026
4625922,6762.0,7504.0,-506.0,0.68,0.47,-0.563,0.008
4625948,7108.0,4960.0,-608.0,0.677,0.474,-0.563,-0.009
4625964,6644.0,5324.0,-714.0,0.672,0.478,-0.564,-0.025
4625980,6040.0,5602.0,-968.0,0.668,0.483,-0.565,-0.04
4625996,5600.0,6108.0,-1026.0,0.664,0.485,-0.566,-0.055
4626012,4942.0,5328.0,-712.0,0.662,0.485,-0.568,-0.069
4626028,5172.0,3680.0,-788.0,0.658,0.485,-0.57,-0.082
4626054,4828.0,5282.0,-958.0,0.655,0.486,-0.571,-0.093
4626070,4190.0,4944.0,-1210.0,0.653,0.484,-0.573,-0.103
4626086,3334.0,3848.0,-910.0,0.654,0.482,-0.573,-0.11
4626103,2164.0,3268.0,-426.0,0.653,0.48,-0.574,-0.117
4626119,2462.0,3426.0,-414.0,0.652,0.478,-0.575,-0.124
4626136,2018.0,4002.0,-114.0,0.653,0.475,-0.576,-0.129
4626152,2160.0,2500.0,238.0,0.653,0.473,-0.577,-0.133
4626178,2282.0,2898.0,342.0,0.652,0.472,-0.577,-0.136
4626195,2346.0,3398.0,410.0,0.652,0.471,-0.577,-0.137
4626212,2128.0,3472.0,396.0,0.654,0.47,-0.577,-0.138
4626228,1758.0,2920.0,376.0,0.656,0.469,-0.575,-0.138
4626245,1834.0,3122.0,228.0,0.658,0.467,-0.574,-0.137
4626263,1848.0,2488.0,430.0,0.661,0.467,-0.572,-0.136
4626280,1698.0,3252.0,458.0,0.662,0.466,-0.571,-0.135
4626297,2158.0,3492.0,324.0,0.664,0.465,-0.57,-0.133
4626314,2600.0,3530.0,170.0,0.666,0.464,-0.569,-0.132
4626331,2534.0,4182.0,-100.0,0.667,0.464,-0.568,-0.13
4626348,2512.0,3944.0,360.0,0.668,0.464,-0.568,-0.128
4626365,2450.0,4554.0,230.0,0.669,0.463,-0.567,-0.127
4626382,2160.0,4208.0,406.0,0.671,0.46,-0.567,-0.126
4626399,2580.0,3728.0,384.0,0.673,0.458,-0.567,-0.124
4626425,3102.0,4286.0,280.0,0.675,0.457,-0.567,-0.122
4626442,3390.0,5612.0,-128.0,0.678,0.455,-0.565,-0.119
4626459,2748.0,4648.0,554.0,0.682,0.452,-0.562,-0.117
4626476,2706.0,4300.0,508.0,0.686,0.449,-0.561,-0.114
4626492,3918.0,5060.0,80.0,0.69,0.446,-0.559,-0.109
4626509,3604.0,4672.0,356.0,0.695,0.443,-0.557,-0.103
4626525,2698.0,5384.0,724.0,0.699,0.439,-0.556,-0.098
4626541,3900.0,5592.0,756.0,0.702,0.434,-0.557,-0.093
4626567,4322.0,3548.0,336.0,0.705,0.429,-0.558,-0.086
4626583,5498.0,5188.0,168.0,0.708,0.426,-0.559,-0.076
4626599,4586.0,5386.0,374.0,0.709,0.422,-0.561,-0.065
4626615,3732.0,6268.0,664.0,0.711,0.416,-0.564,-0.055
4626632,6134.0,4354.0,424.0,0.712,0.408,-0.569,-0.046
4626649,6306.0,3348.0,192.0,0.711,0.403,-0.575,-0.034
4626666,6952.0,6070.0,-154.0,0.709,0.399,-0.581,-0.018
4626682,8018.0,6638.0,-300.0,0.711,0.392,-0.584,-0.008
4626709,6306.0,4696.0,1108.0,0.713,0.382,-0.588,-0.001
4626726,9454.0,3822.0,196.0,0.713,0.373,-0.594,0.009
4626742,11022.0,5114.0,-1444.0,0.713,0.365,-0.599,0.024
4626759,10850.0,4334.0,-910.0,0.715,0.355,-0.6,0.043
4626775,8564.0,1956.0,1126.0,0.718,0.346,-0.601,0.06
4626791,8960.0,5828.0,1068.0,0.717,0.339,-0.604,0.076
4626807,10872.0,6280.0,378.0,0.716,0.327,-0.61,0.089
4626833,12250.0,5022.0,204.0,0.715,0.311,-0.618,0.101
4626849,13112.0,1914.0,-48.0,0.713,0.297,-0.624,0.116
4626865,15220.0,378.0,-872.0,0.713,0.286,-0.626,0.13
4626882,14074.0,1332.0,-482.0,0.715,0.282,-0.623,0.142
4626898,13022.0,2042.0,-166.0,0.719,0.28,-0.617,0.152
4626914,11082.0,1018.0,346.0,0.723,0.282,-0.611,0.16
4626931,9468.0,1584.0,832.0,0.724,0.286,-0.605,0.164
4626957,8678.0,3074.0,966.0,0.724,0.291,-0.604,0.165
4626974,9314.0,2664.0,838.0,0.722,0.293,-0.605,0.163
4626990,10846.0,1722.0,242.0,0.719,0.296,-0.608,0.16
4627006,12570.0,1352.0,-798.0,0.718,0.301,-0.608,0.157
4627023,12676.0,1324.0,-376.0,0.718,0.308,-0.605,0.154
4627039,11512.0,2254.0,-8.0,0.719,0.317,-0.601,0.15
4627056,11716.0,1884.0,184.0,0.719,0.327,-0.596,0.144
4627072,11576.0,2616.0,0.0,0.718,0.34,-0.592,0.137
4627098,11896.0,3370.0,-244.0,0.717,0.353,-0.588,0.129
4627115,11866.0,4324.0,-384.0,0.715,0.364,-0.584,0.122
4627132,12060.0,3962.0,-558.0,0.715,0.375,-0.58,0.114
4627148,10926.0,3200.0,84.0,0.713,0.386,-0.576,0.107
4627164,10954.0,4048.0,52.0,0.71,0.397,-0.573,0.098
4627181,11058.0,4524.0,-408.0,0.706,0.409,-0.571,0.09
4627197,10678.0,5240.0,-650.0,0.702,0.42,-0.569,0.081
4627224,8800.0,5464.0,-136.0,0.698,0.43,-0.569,0.072
4627241,8394.0,4728.0,-340.0,0.693,0.439,-0.569,0.061
4627257,7802.0,3574.0,-352.0,0.686,0.448,-0.571,0.05
4627274,8096.0,3426.0,-636.0,0.679,0.459,-0.572,0.041
4627291,6830.0,5314.0,-584.0,0.671,0.47,-0.573,0.031
4627308,6026.0,6294.0,-832.0,0.665,0.477,-0.574,0.021
4627325,4972.0,4814.0,-366.0,0.659,0.482,-0.577,0.011
4627342,5670.0,3014.0,-506.0,0.653,0.488,-0.579,0.001
4627358,5258.0,5260.0,-1042.0,0.646,0.494,-0.582,-0.007
4627375,4352.0,6768.0,-1080.0,0.64,0.498,-0.585,-0.015
4627392,4592.0,4818.0,-990.0,0.634,0.5,-0.589,-0.025
4627409,4494.0,4996.0,-1254.0,0.628,0.503,-0.593,-0.036
4627426,3828.0,6006.0,-1316.0,0.621,0.506,-0.597,-0.048
4627453,4502.0,6454.0,-1578.0,0.615,0.507,-0.601,-0.06
4627469,4454.0,5422.0,-1758.0,0.61,0.507,-0.604,-0.073
4627486,3980.0,4782.0,-1746.0,0.604,0.508,-0.608,-0.085
4627503,4592.0,5484.0,-2338.0,0.598,0.509,-0.612,-0.096
4627519,4058.0,5896.0,-1944.0,0.593,0.509,-0.615,-0.108
4627535,3220.0,4824.0,-1644.0,0.588,0.506,-0.619,-0.12
4627552,2792.0,3300.0,-1150.0,0.583,0.504,-0.624,-0.131
4627569,2798.0,3728.0,-956.0,0.578,0.502,-0.628,-0.141
4627585,2856.0,3274.0,-740.0,0.575,0.498,-0.631,-0.15
4627611,2436.0,2252.0,-442.0,0.575,0.494,-0.632,-0.157
4627628,2458.0,2746.0,-288.0,0.576,0.492,-0.633,-0.162
4627645,2148.0,2982.0,-270.0,0.578,0.489,-0.632,-0.166
4627662,1640.0,2944.0,-66.0,0.582,0.485,-0.63,-0.17
4627679,2436.0,1962.0,-74.0,0.587,0.482,-0.627,-0.172
4627696,2784.0,2780.0,-408.0,0.591,0.481,-0.624,-0.172
4627713,1928.0,3920.0,-334.0,0.595,0.48,-0.621,-0.171
4627730,2014.0,3894.0,-494.0,0.6,0.478,-0.618,-0.171
4627747,2848.0,3546.0,-880.0,0.605,0.476,-0.615,-0.17
4627764,2518.0,4104.0,-980.0,0.609,0.476,-0.612,-0.167
4627781,2408.0,4858.0,-834.0,0.613,0.476,-0.609,-0.164
4627807,2440.0,5122.0,-744.0,0.617,0.475,-0.606,-0.162
4627824,2732.0,4878.0,-720.0,0.622,0.474,-0.603,-0.16
4627841,2528.0,4986.0,-746.0,0.626,0.473,-0.599,-0.158
4627857,3322.0,4942.0,-1150.0,0.631,0.473,-0.596,-0.155
4627873,3156.0,6236.0,-866.0,0.636,0.473,-0.591,-0.15
4627889,3000.0,5228.0,-776.0,0.642,0.471,-0.587,-0.147
4627905,2960.0,6066.0,-674.0,0.648,0.47,-0.582,-0.143
4627921,4000.0,4228.0,-894.0,0.655,0.469,-0.576,-0.139
4627948,3504.0,5364.0,-636.0,0.661,0.469,-0.57,-0.133
4627965,2050.0,5892.0,72.0,0.667,0.468,-0.566,-0.126
4627981,2318.0,5460.0,310.0,0.672,0.465,-0.564,-0.119
4627998,5058.0,5752.0,-1206.0,0.677,0.461,-0.562,-0.114
4628015,5972.0,2546.0,-840.0,0.687,0.458,-0.555,-0.107
4628032,2404.0,5566.0,600.0,0.692,0.457,-0.551,-0.094
4628049,3096.0,5730.0,802.0,0.697,0.454,-0.549,-0.083
4628065,4602.0,6606.0,28.0,0.699,0.449,-0.551,-0.074
4628081,6660.0,3382.0,-606.0,0.706,0.443,-0.548,-0.067
4628098,4976.0,4830.0,742.0,0.71,0.44,-0.547,-0.057
4628125,5376.0,5494.0,186.0,0.712,0.435,-0.55,-0.046
4628141,6192.0,4428.0,602.0,0.713,0.429,-0.554,-0.033
4628157,10282.0,5242.0,-964.0,0.713,0.425,-0.557,-0.018
4628174,9398.0,6180.0,362.0,0.715,0.418,-0.56,0.001
4628190,8440.0,6498.0,932.0,0.715,0.41,-0.566,0.02
4628206,9482.0,6318.0,722.0,0.714,0.397,-0.575,0.04
4628222,9836.0,7062.0,1100.0,0.713,0.381,-0.586,0.059
4628248,12210.0,5438.0,230.0,0.712,0.361,-0.597,0.076
4628264,13746.0,4018.0,430.0,0.712,0.343,-0.606,0.093
4628280,14094.0,2830.0,-1012.0,0.711,0.329,-0.612,0.107
4628296,16614.0,1438.0,-1118.0,0.715,0.322,-0.609,0.119
4628312,12654.0,2414.0,1006.0,0.718,0.322,-0.603,0.129
4628338,11648.0,3744.0,910.0,0.72,0.326,-0.598,0.134
4628355,11540.0,3792.0,470.0,0.72,0.331,-0.594,0.136
4628371,11208.0,3444.0,488.0,0.72,0.337,-0.591,0.136
4628387,11670.0,3478.0,214.0,0.72,0.344,-0.588,0.134
4628403,12194.0,3574.0,58.0,0.719,0.35,-0.586,0.131
4628419,12512.0,3506.0,-116.0,0.718,0.357,-0.583,0.127
4628435,12218.0,3274.0,-192.0,0.718,0.365,-0.58,0.122
4628452,11792.0,2770.0,-134.0,0.718,0.374,-0.576,0.115
4628479,12038.0,4524.0,-234.0,0.717,0.385,-0.571,0.108
4628496,12080.0,5652.0,-368.0,0.716,0.394,-0.568,0.102
4628513,11992.0,5100.0,-512.0,0.716,0.402,-0.563,0.092
4628529,11052.0,3904.0,-56.0,0.716,0.411,-0.558,0.082
4628545,10928.0,4628.0,-430.0,0.714,0.422,-0.553,0.071
4628561,10688.0,5914.0,-632.0,0.712,0.434,-0.548,0.059
4628577,9134.0,6732.0,-468.0,0.71,0.445,-0.544,0.047
4628594,8902.0,5966.0,-618.0,0.707,0.454,-0.541,0.035
4628621,8728.0,5870.0,-716.0,0.704,0.464,-0.538,0.023
4628637,8322.0,6042.0,-796.0,0.701,0.473,-0.534,0.01
4628653,7312.0,5500.0,-502.0,0.698,0.481,-0.531,-0.001
4628670,6130.0,5954.0,-478.0,0.694,0.489,-0.528,-0.012
4628686,6422.0,6122.0,-600.0,0.691,0.496,-0.525,-0.023
4628703,6112.0,6254.0,-842.0,0.688,0.501,-0.523,-0.033
4628720,5938.0,5888.0,-502.0,0.687,0.505,-0.521,-0.042
4628736,5256.0,6258.0,-458.0,0.687,0.507,-0.519,-0.049
4628762,3724.0,4606.0,-110.0,0.687,0.509,-0.516,-0.057
4628778,3124.0,4598.0,52.0,0.686,0.511,-0.514,-0.065
4628794,2984.0,4936.0,-248.0,0.684,0.513,-0.513,-0.072
4628811,2166.0,3680.0,480.0,0.681,0.515,-0.514,-0.08
4628827,2772.0,4298.0,106.0,0.678,0.518,-0.515,-0.088
4628844,3724.0,5530.0,-560.0,0.676,0.519,-0.514,-0.095
4628860,1872.0,4166.0,590.0,0.675,0.52,-0.513,-0.101
4628886,2078.0,3330.0,614.0,0.673,0.522,-0.513,-0.108
4628902,2246.0,4620.0,-28.0,0.67,0.524,-0.514,-0.114
4628919,1982.0,4744.0,-238.0,0.669,0.525,-0.513,-0.121
4628935,2008.0,2692.0,68.0,0.668,0.525,-0.512,-0.127
4628952,1474.0,2878.0,352.0,0.666,0.527,-0.511,-0.131
4628968,2180.0,4218.0,-222.0,0.665,0.528,-0.51,-0.137
4628985,1028.0,3276.0,104.0,0.665,0.528,-0.509,-0.142
4629002,1550.0,2252.0,328.0,0.665,0.528,-0.508,-0.147
4629028,1366.0,3030.0,334.0,0.663,0.529,-0.508,-0.151
4629044,1750.0,4466.0,156.0,0.662,0.528,-0.508,-0.155
4629060,1624.0,4358.0,284.0,0.664,0.526,-0.508,-0.158
4629076,1902.0,3516.0,446.0,0.665,0.522,-0.509,-0.161
4629092,2228.0,4154.0,418.0,0.667,0.519,-0.509,-0.162
4629108,2062.0,4614.0,608.0,0.67,0.514,-0.51,-0.163
4629134,1684.0,4192.0,744.0,0.673,0.51,-0.51,-0.162
4629151,1466.0,3602.0,922.0,0.676,0.506,-0.511,-0.161
4629167,1942.0,3534.0,922.0,0.678,0.503,-0.512,-0.158
4629183,2266.0,5004.0,632.0,0.68,0.501,-0.513,-0.154
4629200,2456.0,5226.0,640.0,0.684,0.497,-0.513,-0.149
4629217,2296.0,5288.0,570.0,0.687,0.493,-0.514,-0.144
4629234,2078.0,5748.0,1070.0,0.691,0.488,-0.514,-0.139
4629251,3728.0,3624.0,350.0,0.695,0.483,-0.516,-0.133
4629268,4368.0,4200.0,170.0,0.697,0.483,-0.515,-0.125
4629285,3306.0,6996.0,540.0,0.702,0.48,-0.513,-0.117
4629302,2670.0,6188.0,882.0,0.707,0.475,-0.513,-0.111
4629329,3956.0,4620.0,702.0,0.71,0.469,-0.515,-0.104
4629345,5364.0,3146.0,-42.0,0.711,0.465,-0.519,-0.092
4629361,5868.0,4582.0,-70.0,0.711,0.466,-0.521,-0.078
4629377,6070.0,10688.0,-148.0,0.712,0.464,-0.522,-0.066
4629393,3350.0,6430.0,990.0,0.716,0.454,-0.527,-0.056
4629410,8728.0,2994.0,94.0,0.717,0.447,-0.533,-0.042
4629426,8460.0,3610.0,-468.0,0.715,0.446,-0.537,-0.025
4629453,6970.0,8332.0,52.0,0.713,0.446,-0.541,-0.007
4629469,8932.0,8814.0,-158.0,0.714,0.44,-0.545,0.007
4629485,8022.0,6832.0,248.0,0.715,0.431,-0.55,0.02
4629501,9998.0,2998.0,-244.0,0.715,0.425,-0.554,0.032
4629518,11032.0,2880.0,-558.0,0.715,0.425,-0.554,0.044
4629535,9258.0,6576.0,124.0,0.714,0.426,-0.553,0.057
4629551,9872.0,8064.0,-328.0,0.713,0.424,-0.554,0.069
4629568,10790.0,6328.0,-32.0,0.713,0.417,-0.558,0.083
4629585,11588.0,5866.0,-124.0,0.713,0.409,-0.562,0.097
4629612,12060.0,5314.0,-206.0,0.713,0.399,-0.565,0.111
4629628,11036.0,4964.0,456.0,0.713,0.39,-0.569,0.124
4629644,11824.0,3568.0,44.0,0.713,0.382,-0.572,0.135
4629660,11814.0,3562.0,196.0,0.713,0.378,-0.573,0.142
4629676,12472.0,2594.0,-126.0,0.713,0.377,-0.573,0.147
4629692,11822.0,3276.0,112.0,0.713,0.38,-0.57,0.149
4629718,11366.0,4036.0,110.0,0.713,0.385,-0.567,0.149
4629735,11714.0,4644.0,-190.0,0.712,0.391,-0.565,0.147
4629751,11802.0,3584.0,-284.0,0.71,0.398,-0.562,0.143
4629768,11890.0,3146.0,-234.0,0.709,0.408,-0.559,0.137
4629785,11708.0,4326.0,-524.0,0.706,0.418,-0.556,0.13
4629802,11716.0,4790.0,-936.0,0.704,0.429,-0.553,0.122
4629819,11744.0,4996.0,-1012.0,0.701,0.44,-0.55,0.113
4629835,11024.0,5844.0,-770.0,0.699,0.45,-0.547,0.104
4629861,11606.0,5436.0,-890.0,0.698,0.459,-0.543,0.092
4629877,11196.0,4214.0,-1090.0,0.696,0.469,-0.538,0.082
4629893,10852.0,5568.0,-1012.0,0.694,0.481,-0.531,0.074
4629909,9858.0,8518.0,-1086.0,0.693,0.492,-0.523,0.065
4629926,6764.0,7038.0,-428.0,0.693,0.498,-0.519,0.053
4629943,6310.0,4362.0,4.0,0.69,0.505,-0.518,0.04
4629960,7326.0,5446.0,-1010.0,0.685,0.514,-0.516,0.028
4629977,6518.0,6274.0,-936.0,0.681,0.52,-0.514,0.018
4629993,5136.0,5626.0,-552.0,0.679,0.526,-0.513,0.008
4630019,5230.0,5474.0,-684.0,0.675,0.531,-0.513,0.0
4630035,4582.0,5342.0,-314.0,0.671,0.535,-0.513,-0.008
4630052,4666.0,5198.0,-522.0,0.666,0.54,-0.514,-0.016
4630069,4996.0,5416.0,-350.0,0.663,0.544,-0.514,-0.024
4630085,3720.0,4686.0,-218.0,0.66,0.547,-0.514,-0.032
4630102,2092.0,5612.0,-30.0,0.655,0.55,-0.517,-0.039
4630119,2088.0,5704.0,444.0,0.65,0.551,-0.521,-0.046
4630135,2108.0,4868.0,502.0,0.645,0.551,-0.527,-0.055
4630161,4068.0,4284.0,-288.0,0.641,0.55,-0.531,-0.064
4630178,1802.0,4404.0,490.0,0.634,0.553,-0.536,-0.073
4630195,3522.0,4346.0,-784.0,0.627,0.555,-0.541,-0.083
4630212,3600.0,4460.0,-148.0,0.62,0.558,-0.544,-0.092
4630228,944.0,5748.0,-102.0,0.614,0.559,-0.549,-0.101
4630244,2326.0,4638.0,-544.0,0.609,0.557,-0.555,-0.108
4630261,3240.0,3728.0,-904.0,0.606,0.554,-0.558,-0.115
4630277,2824.0,4696.0,-670.0,0.606,0.553,-0.559,-0.12
4630293,2422.0,5258.0,-722.0,0.608,0.55,-0.559,-0.124
4630319,2310.0,4156.0,-636.0,0.612,0.546,-0.557,-0.127
4630335,1762.0,3778.0,-426.0,0.618,0.542,-0.554,-0.13
4630352,1464.0,3492.0,-460.0,0.624,0.539,-0.55,-0.132
4630369,1402.0,3112.0,-372.0,0.63,0.535,-0.546,-0.133
4630385,594.0,2752.0,-382.0,0.636,0.533,-0.542,-0.133
4630402,804.0,4148.0,-464.0,0.641,0.531,-0.538,-0.132
4630418,998.0,3728.0,-486.0,0.646,0.528,-0.535,-0.131
4630444,1586.0,2752.0,-210.0,0.651,0.527,-0.532,-0.128
4630460,1336.0,3924.0,-526.0,0.654,0.526,-0.529,-0.123
4630477,2366.0,5184.0,-186.0,0.659,0.524,-0.526,-0.118
4630493,1878.0,5304.0,-636.0,0.664,0.521,-0.524,-0.113
4630509,1628.0,4200.0,254.0,0.669,0.517,-0.522,-0.108
4630525,3146.0,3310.0,-434.0,0.672,0.516,-0.522,-0.102
4630551,3264.0,5292.0,-762.0,0.673,0.516,-0.521,-0.094
4630568,3268.0,6320.0,-570.0,0.676,0.514,-0.521,-0.086
4630585,2418.0,5956.0,-100.0,0.68,0.509,-0.522,-0.079
4630602,2578.0,3434.0,-38.0,0.681,0.505,-0.525,-0.073
4630618,4606.0,3174.0,-816.0,0.679,0.504,-0.53,-0.063
4630635,6758.0,5560.0,-1398.0,0.678,0.505,-0.532,-0.051
4630651,3660.0,6366.0,-324.0,0.678,0.504,-0.533,-0.039
4630667,3434.0,7152.0,-574.0,0.679,0.499,-0.537,-0.03
4630684,6518.0,6022.0,-1006.0,0.681,0.492,-0.543,-0.02
4630701,6936.0,3172.0,-1090.0,0.681,0.485,-0.549,-0.007
4630718,8522.0,4206.0,-728.0,0.68,0.482,-0.553,0.009
4630744,7616.0,6616.0,-772.0,0.679,0.478,-0.557,0.026
4630760,5680.0,8946.0,-350.0,0.68,0.467,-0.564,0.038
4630776,7322.0,5246.0,-264.0,0.681,0.452,-0.574,0.047
4630793,8904.0,3482.0,-350.0,0.682,0.436,-0.584,0.054
4630809,10066.0,5020.0,410.0,0.682,0.42,-0.596,0.062
4630826,10866.0,6222.0,-1170.0,0.681,0.401,-0.609,0.073
4630842,11622.0,3072.0,-2218.0,0.683,0.381,-0.618,0.086
4630869,14138.0,328.0,-1772.0,0.689,0.365,-0.618,0.098
4630886,13484.0,3050.0,-692.0,0.695,0.355,-0.614,0.114
4630902,12458.0,5724.0,-408.0,0.703,0.345,-0.608,0.127
4630919,11174.0,3768.0,-142.0,0.71,0.334,-0.604,0.137
4630935,10340.0,1616.0,504.0,0.716,0.326,-0.6,0.145
4630951,10360.0,1952.0,282.0,0.719,0.323,-0.597,0.151
4630967,10832.0,4522.0,106.0,0.721,0.32,-0.595,0.153
4630984,11072.0,3958.0,-30.0,0.724,0.315,-0.595,0.152
4631001,10998.0,2294.0,42.0,0.726,0.311,-0.595,0.15
4631028,11096.0,2528.0,-94.0,0.728,0.308,-0.595,0.147
4631044,11174.0,2928.0,70.0,0.729,0.307,-0.595,0.144
4631060,11520.0,2748.0,100.0,0.73,0.306,-0.595,0.139
4631076,11442.0,2952.0,40.0,0.73,0.307,-0.596,0.132
4631093,11626.0,2690.0,70.0,0.73,0.31,-0.597,0.124
4631110,11958.0,2558.0,-108.0,0.729,0.315,-0.597,0.115
4631127,11920.0,2736.0,-348.0,0.728,0.321,-0.596,0.105
4631143,11134.0,3378.0,150.0,0.727,0.33,-0.595,0.094
4631169,11324.0,4172.0,938.0,0.724,0.338,-0.596,0.081
4631185,11304.0,4876.0,-278.0,0.719,0.346,-0.599,0.067
4631201,12114.0,4038.0,-660.0,0.714,0.353,-0.602,0.052
4631218,10804.0,4776.0,-638.0,0.71,0.36,-0.604,0.039
4631235,9282.0,5320.0,-442.0,0.705,0.365,-0.607,0.027
4631251,8308.0,4744.0,-580.0,0.701,0.369,-0.61,0.014
4631267,7812.0,3858.0,-282.0,0.694,0.374,-0.615,0.001
4631294,7760.0,4286.0,-532.0,0.687,0.38,-0.619,-0.013
4631311,8538.0,4674.0,-1586.0,0.68,0.387,-0.622,-0.026
4631328,7964.0,4554.0,-906.0,0.674,0.395,-0.623,-0.039
4631344,6726.0,4850.0,-694.0,0.669,0.403,-0.622,-0.051
4631360,6780.0,3702.0,-794.0,0.664,0.412,-0.621,-0.062
4631376,6086.0,5814.0,-882.0,0.659,0.421,-0.618,-0.074
4631392,5912.0,5420.0,-746.0,0.655,0.429,-0.615,-0.088
4631409,5726.0,4026.0,-802.0,0.652,0.437,-0.612,-0.1
4631430,6228.0,4360.0,-1044.0,0.648,0.447,-0.607,-0.11
4631447,5656.0,6062.0,-986.0,0.645,0.457,-0.601,-0.12
4631464,5426.0,5700.0,-1172.0,0.644,0.465,-0.593,-0.131
4631481,4766.0,3976.0,-652.0,0.642,0.474,-0.586,-0.141
4631498,4080.0,5020.0,-850.0,0.639,0.485,-0.579,-0.149
4631524,3702.0,6872.0,-888.0,0.635,0.494,-0.573,-0.158
4631540,3572.0,5698.0,-674.0,0.632,0.501,-0.567,-0.166
4631557,3344.0,4688.0,-428.0,0.628,0.508,-0.563,-0.174
4631574,3110.0,4510.0,-752.0,0.623,0.517,-0.559,-0.18
4631591,3524.0,6110.0,-1106.0,0.618,0.525,-0.555,-0.185
4631608,3384.0,5468.0,-948.0,0.615,0.53,-0.552,-0.189
4631624,3676.0,4892.0,-1050.0,0.614,0.534,-0.548,-0.193
4631640,2294.0,3986.0,-474.0,0.614,0.537,-0.544,-0.196
4631656,2028.0,4082.0,-382.0,0.615,0.539,-0.541,-0.197
4631683,1926.0,4546.0,-368.0,0.617,0.54,-0.537,-0.198
4631699,1806.0,4486.0,-520.0,0.62,0.539,-0.535,-0.199
4631716,1756.0,3928.0,-276.0,0.623,0.537,-0.532,-0.199
4631732,1258.0,4832.0,-106.0,0.627,0.535,-0.531,-0.199
4631748,1032.0,5078.0,-54.0,0.631,0.53,-0.53,-0.2
4631765,1490.0,3490.0,-72.0,0.635,0.525,-0.531,-0.2
4631782,1374.0,4314.0,120.0,0.638,0.52,-0.532,-0.2
4631799,1810.0,5526.0,-166.0,0.64,0.515,-0.533,-0.2
4631816,2112.0,5164.0,144.0,0.644,0.509,-0.535,-0.199
4631833,2420.0,4978.0,270.0,0.648,0.503,-0.536,-0.199
4631860,1848.0,5414.0,500.0,0.652,0.497,-0.537,-0.199
4631876,1782.0,5288.0,736.0,0.655,0.492,-0.538,-0.198
4631892,2202.0,5278.0,684.0,0.659,0.486,-0.54,-0.197
4631909,3536.0,4330.0,350.0,0.663,0.482,-0.539,-0.195
4631925,2200.0,5778.0,518.0,0.667,0.479,-0.537,-0.193
4631942,1698.0,5762.0,864.0,0.672,0.475,-0.536,-0.191
4631959,1718.0,5812.0,888.0,0.676,0.47,-0.535,-0.188
4631976,3354.0,5242.0,-32.0,0.681,0.465,-0.535,-0.185
4631993,3100.0,4252.0,446.0,0.686,0.462,-0.532,-0.181
4632019,2336.0,6414.0,730.0,0.691,0.46,-0.529,-0.176
4632036,1582.0,5928.0,1054.0,0.696,0.455,-0.528,-0.171
4632052,3014.0,4992.0,764.0,0.699,0.451,-0.53,-0.165
4632069,4414.0,4530.0,-36.0,0.701,0.448,-0.532,-0.157
4632086,3452.0,5208.0,440.0,0.704,0.446,-0.532,-0.149
4632103,3830.0,6952.0,666.0,0.707,0.442,-0.534,-0.14
4632120,3432.0,6032.0,562.0,0.71,0.435,-0.538,-0.131
4632137,4950.0,3252.0,96.0,0.712,0.428,-0.543,-0.119
4632153,6768.0,3126.0,-674.0,0.714,0.425,-0.547,-0.104
4632170,4692.0,5606.0,250.0,0.717,0.422,-0.549,-0.088
4632196,4460.0,5754.0,214.0,0.719,0.415,-0.552,-0.073
4632212,6228.0,5322.0,-344.0,0.723,0.405,-0.557,-0.058
4632228,7160.0,4462.0,-592.0,0.727,0.393,-0.562,-0.039
4632245,8218.0,2618.0,340.0,0.731,0.382,-0.565,-0.018
4632262,7254.0,5476.0,824.0,0.733,0.372,-0.569,-0.0
4632279,9194.0,5966.0,100.0,0.734,0.359,-0.576,0.017
4632296,9864.0,4658.0,304.0,0.734,0.344,-0.585,0.035
4632313,8626.0,4086.0,576.0,0.732,0.328,-0.594,0.054
4632330,9464.0,3364.0,654.0,0.729,0.313,-0.605,0.072
4632347,10870.0,2878.0,242.0,0.723,0.299,-0.616,0.09
4632374,11524.0,3650.0,-442.0,0.718,0.286,-0.625,0.106
4632391,11312.0,2672.0,-556.0,0.715,0.274,-0.632,0.12
4632408,10164.0,1478.0,168.0,0.714,0.265,-0.635,0.13
4632425,10776.0,1340.0,838.0,0.713,0.259,-0.637,0.137
4632442,12340.0,1976.0,-20.0,0.712,0.253,-0.64,0.141
4632459,11684.0,1618.0,-208.0,0.711,0.249,-0.641,0.145
4632475,10654.0,1048.0,36.0,0.712,0.246,-0.64,0.149
4632491,10996.0,904.0,112.0,0.714,0.245,-0.638,0.154
4632508,11714.0,398.0,26.0,0.716,0.245,-0.634,0.157
4632524,10738.0,962.0,274.0,0.718,0.247,-0.63,0.161
4632550,9914.0,2278.0,428.0,0.719,0.247,-0.628,0.164
4632566,9320.0,1748.0,398.0,0.719,0.247,-0.628,0.166
