timeMs,ax,ay,az,q0,q1,q2,q3
7715432,6767.0,3586.0,338.0,0.682,0.432,-0.564,0.172
7715449,6999.0,2564.0,978.0,0.681,0.433,-0.565,0.173
7715466,7657.0,2880.0,90.0,0.677,0.436,-0.567,0.174
7715492,8881.0,3602.0,-1452.0,0.674,0.438,-0.568,0.177
7715509,8777.0,3486.0,-1772.0,0.673,0.437,-0.568,0.182
7715525,6977.0,1688.0,-540.0,0.675,0.435,-0.566,0.188
7715541,5827.0,1938.0,440.0,0.673,0.435,-0.566,0.193
7715557,7367.0,3138.0,-1030.0,0.67,0.436,-0.567,0.199
7715573,8231.0,2936.0,-1294.0,0.668,0.434,-0.568,0.206
7715599,7393.0,2918.0,-450.0,0.667,0.43,-0.57,0.212
7715615,7269.0,2344.0,-234.0,0.665,0.426,-0.574,0.218
7715632,8555.0,2100.0,-82.0,0.661,0.421,-0.579,0.224
7715648,9667.0,2006.0,-618.0,0.657,0.417,-0.584,0.231
7715665,10255.0,2218.0,-1050.0,0.654,0.411,-0.589,0.24
7715681,9625.0,1144.0,-134.0,0.652,0.404,-0.592,0.247
7715698,9941.0,1016.0,-8.0,0.65,0.399,-0.595,0.254
7715714,10075.0,530.0,100.0,0.647,0.396,-0.597,0.26
7715740,9723.0,1048.0,-90.0,0.645,0.394,-0.599,0.263
7715756,10347.0,642.0,-548.0,0.644,0.394,-0.599,0.266
7715772,10213.0,570.0,-154.0,0.644,0.396,-0.598,0.268
7715788,9775.0,1520.0,382.0,0.644,0.398,-0.596,0.269
7715804,9395.0,2346.0,412.0,0.643,0.399,-0.595,0.271
7715820,9695.0,2174.0,320.0,0.642,0.399,-0.595,0.272
7715846,9895.0,1634.0,-26.0,0.64,0.398,-0.597,0.275
7715863,10331.0,1498.0,-218.0,0.639,0.395,-0.599,0.277
7715880,10503.0,1038.0,-274.0,0.638,0.393,-0.6,0.28
7715896,10085.0,1180.0,116.0,0.638,0.39,-0.601,0.282
7715913,10463.0,620.0,92.0,0.637,0.389,-0.602,0.283
7715929,10399.0,716.0,-54.0,0.638,0.389,-0.602,0.283
7715946,10813.0,904.0,-160.0,0.638,0.391,-0.6,0.283
7715963,10477.0,184.0,70.0,0.639,0.393,-0.598,0.281
7715980,10913.0,532.0,-40.0,0.64,0.398,-0.596,0.278
7715997,11891.0,610.0,-668.0,0.64,0.404,-0.593,0.275
7716024,12763.0,18.0,-1480.0,0.641,0.411,-0.589,0.271
7716040,11417.0,816.0,-486.0,0.643,0.419,-0.584,0.266
7716056,9655.0,1932.0,290.0,0.642,0.426,-0.581,0.262
7716072,9107.0,1920.0,-126.0,0.64,0.432,-0.581,0.258
7716088,8779.0,1138.0,-656.0,0.637,0.436,-0.583,0.254
7716104,8331.0,1242.0,-634.0,0.633,0.44,-0.586,0.25
7716130,8149.0,1682.0,-794.0,0.63,0.444,-0.588,0.246
7716147,8187.0,1388.0,-884.0,0.626,0.447,-0.591,0.244
7716164,7615.0,1348.0,-790.0,0.623,0.451,-0.593,0.241
7716181,7933.0,1620.0,-936.0,0.62,0.454,-0.594,0.239
7716198,7465.0,1966.0,-834.0,0.617,0.457,-0.595,0.237
7716214,7635.0,2506.0,-1022.0,0.615,0.459,-0.596,0.236
7716231,7663.0,2356.0,-936.0,0.614,0.461,-0.597,0.236
7716247,7995.0,2110.0,-1194.0,0.613,0.462,-0.597,0.235
7716264,7339.0,2132.0,-826.0,0.612,0.463,-0.597,0.235
7716281,7589.0,2706.0,-704.0,0.612,0.463,-0.596,0.235
7716298,8443.0,3074.0,-866.0,0.612,0.463,-0.596,0.235
7716325,7631.0,1810.0,-930.0,0.613,0.462,-0.596,0.235
7716341,7787.0,2206.0,-436.0,0.613,0.463,-0.595,0.236
7716357,8545.0,3512.0,-1348.0,0.613,0.463,-0.594,0.238
7716373,8237.0,2938.0,-936.0,0.614,0.462,-0.593,0.24
7716389,7379.0,1392.0,-740.0,0.616,0.46,-0.592,0.243
7716405,8653.0,1828.0,-1172.0,0.617,0.46,-0.589,0.245
7716431,8331.0,2164.0,-1116.0,0.619,0.461,-0.586,0.247
7716448,8245.0,3302.0,-634.0,0.621,0.462,-0.582,0.249
7716465,8699.0,2780.0,-1120.0,0.623,0.462,-0.58,0.25
7716482,9927.0,2768.0,-2098.0,0.626,0.462,-0.577,0.249
7716498,9925.0,2350.0,-1088.0,0.631,0.462,-0.572,0.247
7716515,9547.0,3470.0,-982.0,0.637,0.463,-0.566,0.245
7716532,9849.0,1428.0,-964.0,0.644,0.462,-0.559,0.243
7716548,8711.0,882.0,-540.0,0.65,0.465,-0.55,0.243
7716564,7487.0,3186.0,-344.0,0.655,0.469,-0.541,0.242
7716591,7005.0,3764.0,44.0,0.659,0.472,-0.534,0.241
7716607,7351.0,2724.0,-350.0,0.662,0.473,-0.529,0.241
7716623,6737.0,3524.0,164.0,0.664,0.476,-0.524,0.241
7716639,6895.0,3824.0,-88.0,0.667,0.477,-0.52,0.24
7716655,6055.0,4796.0,318.0,0.67,0.478,-0.515,0.24
7716671,5689.0,3980.0,636.0,0.672,0.478,-0.512,0.24
7716687,7359.0,4126.0,-968.0,0.675,0.48,-0.506,0.241
7716713,9425.0,5806.0,-1426.0,0.682,0.479,-0.495,0.246
7716729,5241.0,5544.0,608.0,0.691,0.475,-0.483,0.254
7716745,4481.0,3620.0,1060.0,0.698,0.471,-0.472,0.261
7716761,5163.0,4204.0,534.0,0.705,0.467,-0.463,0.267
7716777,3329.0,3824.0,1718.0,0.711,0.461,-0.454,0.275
7716793,3305.0,3776.0,1704.0,0.717,0.455,-0.448,0.28
7716820,2617.0,3170.0,1746.0,0.721,0.449,-0.444,0.284
7716836,3343.0,1482.0,1284.0,0.725,0.444,-0.441,0.287
7716852,2825.0,2440.0,1396.0,0.729,0.441,-0.437,0.288
7716868,2707.0,3090.0,994.0,0.732,0.438,-0.435,0.29
7716884,2929.0,2100.0,1064.0,0.735,0.433,-0.433,0.291
7716900,3325.0,1598.0,662.0,0.739,0.429,-0.432,0.291
7716917,3459.0,1776.0,582.0,0.742,0.424,-0.43,0.29
7716943,4017.0,1896.0,632.0,0.745,0.421,-0.429,0.289
7716959,3489.0,3336.0,1450.0,0.748,0.417,-0.428,0.288
7716975,3441.0,2838.0,1542.0,0.75,0.412,-0.432,0.286
7716991,4905.0,1962.0,920.0,0.751,0.407,-0.437,0.282
7717007,5673.0,1254.0,584.0,0.751,0.405,-0.441,0.279
7717033,5281.0,3426.0,1284.0,0.751,0.403,-0.445,0.275
7717049,5221.0,3522.0,1932.0,0.75,0.4,-0.452,0.271
7717065,5825.0,2690.0,2046.0,0.747,0.398,-0.461,0.265
7717081,7101.0,2694.0,946.0,0.744,0.397,-0.471,0.259
7717098,8229.0,2340.0,792.0,0.742,0.396,-0.478,0.253
7717114,6929.0,2932.0,1770.0,0.741,0.395,-0.484,0.246
7717133,6465.0,4098.0,2064.0,0.74,0.394,-0.49,0.239
7717149,8425.0,4060.0,1284.0,0.738,0.391,-0.497,0.234
7717165,8141.0,2452.0,1164.0,0.738,0.387,-0.503,0.229
7717191,8131.0,2184.0,1466.0,0.738,0.385,-0.506,0.225
7717208,6407.0,3370.0,2354.0,0.739,0.383,-0.509,0.221
7717224,7315.0,3504.0,1844.0,0.738,0.381,-0.513,0.218
7717240,7699.0,2554.0,1296.0,0.738,0.378,-0.517,0.214
7717256,7381.0,2522.0,1270.0,0.738,0.376,-0.519,0.211
7717272,6847.0,2866.0,1448.0,0.738,0.375,-0.521,0.209
7717298,5847.0,3664.0,1862.0,0.737,0.373,-0.524,0.206
7717314,7443.0,2384.0,890.0,0.736,0.371,-0.529,0.202
7717331,7623.0,2654.0,534.0,0.735,0.371,-0.532,0.198
7717348,6595.0,3510.0,976.0,0.735,0.371,-0.533,0.195
7717364,5807.0,3236.0,1444.0,0.734,0.37,-0.535,0.193
7717380,6953.0,3208.0,558.0,0.733,0.37,-0.537,0.191
7717397,8629.0,1632.0,-1094.0,0.735,0.368,-0.536,0.19
7717414,7189.0,2654.0,262.0,0.74,0.368,-0.531,0.189
7717440,5179.0,3056.0,1432.0,0.744,0.368,-0.525,0.19
7717456,6409.0,3330.0,1350.0,0.745,0.368,-0.523,0.189
7717472,7799.0,2626.0,216.0,0.747,0.368,-0.521,0.19
7717488,8493.0,3132.0,310.0,0.748,0.369,-0.517,0.191
7717504,6979.0,2512.0,1526.0,0.75,0.369,-0.514,0.194
7717520,6169.0,2984.0,2420.0,0.748,0.37,-0.514,0.197
7717546,7753.0,3056.0,1302.0,0.744,0.372,-0.518,0.199
7717562,9367.0,2922.0,1008.0,0.74,0.375,-0.522,0.201
7717578,8575.0,2328.0,1146.0,0.735,0.377,-0.525,0.204
7717594,7289.0,2758.0,1674.0,0.73,0.381,-0.53,0.205
7717610,8623.0,3004.0,1076.0,0.724,0.384,-0.536,0.206
7717626,9923.0,2762.0,-410.0,0.718,0.385,-0.541,0.208
7717652,9067.0,1622.0,166.0,0.713,0.387,-0.545,0.213
7717668,7035.0,2306.0,1408.0,0.707,0.39,-0.549,0.218
7717684,7467.0,3456.0,846.0,0.7,0.391,-0.555,0.219
7717700,8627.0,2412.0,72.0,0.695,0.39,-0.562,0.22
7717716,8751.0,1262.0,152.0,0.691,0.39,-0.567,0.221
7717732,7901.0,1126.0,600.0,0.687,0.39,-0.57,0.223
7717758,7825.0,2724.0,626.0,0.682,0.392,-0.574,0.227
7717774,9373.0,2134.0,252.0,0.678,0.391,-0.578,0.233
7717790,9335.0,1888.0,242.0,0.673,0.389,-0.581,0.241
7717806,9457.0,1816.0,670.0,0.669,0.388,-0.583,0.249
7717822,9423.0,1970.0,972.0,0.665,0.386,-0.586,0.256
7717838,9841.0,1338.0,670.0,0.66,0.385,-0.589,0.264
7717864,10187.0,498.0,578.0,0.655,0.385,-0.59,0.272
7717880,9351.0,1722.0,778.0,0.651,0.386,-0.592,0.278
7717897,8357.0,2428.0,1238.0,0.646,0.386,-0.594,0.283
7717913,8061.0,1816.0,1546.0,0.642,0.385,-0.599,0.285
7717930,8695.0,398.0,334.0,0.637,0.384,-0.604,0.286
7717947,9163.0,108.0,-684.0,0.633,0.384,-0.608,0.287
7717964,9007.0,374.0,-698.0,0.63,0.386,-0.609,0.289
7717981,8601.0,1144.0,-296.0,0.628,0.388,-0.608,0.293
7717998,8943.0,610.0,-244.0,0.626,0.389,-0.607,0.298
7718024,9429.0,548.0,-528.0,0.625,0.391,-0.604,0.303
7718040,9235.0,1134.0,-244.0,0.625,0.393,-0.601,0.308
7718056,9171.0,1496.0,180.0,0.625,0.393,-0.598,0.312
7718072,9751.0,986.0,-26.0,0.626,0.393,-0.595,0.315
7718088,9913.0,302.0,-138.0,0.627,0.394,-0.593,0.318
7718104,10069.0,1114.0,-26.0,0.628,0.395,-0.59,0.32
7718130,9907.0,710.0,492.0,0.628,0.395,-0.587,0.322
7718147,10337.0,876.0,570.0,0.629,0.397,-0.586,0.323
7718164,10819.0,-294.0,326.0,0.629,0.399,-0.584,0.323
7718181,11287.0,-168.0,156.0,0.628,0.404,-0.582,0.322
7718198,10787.0,324.0,142.0,0.627,0.41,-0.58,0.322
7718215,10221.0,688.0,366.0,0.625,0.416,-0.578,0.319
7718231,10581.0,1138.0,-300.0,0.623,0.423,-0.577,0.316
7718248,10635.0,758.0,-334.0,0.621,0.43,-0.576,0.313
7718265,10979.0,192.0,-952.0,0.619,0.436,-0.575,0.308
7718282,10857.0,516.0,-830.0,0.618,0.444,-0.573,0.304
7718299,10085.0,1438.0,-674.0,0.618,0.451,-0.57,0.301
7718325,9905.0,1952.0,-800.0,0.617,0.457,-0.568,0.297
7718341,10407.0,1878.0,-1168.0,0.617,0.461,-0.567,0.294
7718357,10111.0,1064.0,-1204.0,0.617,0.464,-0.565,0.291
7718374,9577.0,1060.0,-986.0,0.617,0.468,-0.563,0.289
7718390,8571.0,1614.0,-482.0,0.616,0.471,-0.562,0.287
7718406,8503.0,2206.0,-874.0,0.615,0.475,-0.561,0.285
7718422,8923.0,1634.0,-1334.0,0.615,0.476,-0.561,0.283
7718448,8129.0,1458.0,-1132.0,0.614,0.478,-0.561,0.282
7718465,7787.0,1152.0,-898.0,0.613,0.48,-0.562,0.281
7718482,7029.0,1974.0,-212.0,0.612,0.482,-0.563,0.278
7718498,6571.0,2208.0,-214.0,0.609,0.484,-0.566,0.274
7718514,8545.0,1432.0,-2268.0,0.606,0.485,-0.569,0.271
7718530,10251.0,2786.0,-3220.0,0.606,0.485,-0.57,0.268
7718547,8121.0,4720.0,-1592.0,0.612,0.48,-0.57,0.265
7718564,6379.0,1756.0,-404.0,0.617,0.471,-0.573,0.263
7718581,9475.0,-2854.0,-1736.0,0.62,0.466,-0.574,0.262
7718608,8881.0,1084.0,-2212.0,0.623,0.468,-0.569,0.264
7718624,7633.0,4736.0,-1066.0,0.628,0.466,-0.565,0.265
7718640,5023.0,3740.0,766.0,0.632,0.462,-0.564,0.263
7718656,6609.0,1368.0,-140.0,0.633,0.458,-0.567,0.261
7718672,7285.0,688.0,-532.0,0.635,0.456,-0.568,0.258
7718688,6583.0,2782.0,430.0,0.634,0.455,-0.57,0.256
7718714,5983.0,3010.0,482.0,0.633,0.453,-0.574,0.254
7718731,7661.0,1388.0,138.0,0.632,0.451,-0.577,0.252
7718748,8125.0,2134.0,644.0,0.631,0.451,-0.58,0.25
7718765,9077.0,2974.0,-6.0,0.629,0.451,-0.582,0.249
7718782,10419.0,3406.0,-722.0,0.63,0.45,-0.582,0.248
7718799,9735.0,3610.0,146.0,0.633,0.449,-0.581,0.246
7718815,10105.0,3022.0,-28.0,0.635,0.447,-0.58,0.245
7718832,10001.0,2742.0,64.0,0.638,0.446,-0.579,0.244
7718848,9101.0,3648.0,138.0,0.64,0.446,-0.576,0.243
7718864,9261.0,3978.0,-354.0,0.643,0.445,-0.575,0.241
7718890,9479.0,2548.0,-1016.0,0.647,0.443,-0.572,0.241
7718906,8867.0,2736.0,-402.0,0.652,0.441,-0.566,0.243
7718922,6933.0,3506.0,50.0,0.657,0.439,-0.561,0.246
7718938,6475.0,4080.0,86.0,0.662,0.436,-0.556,0.249
7718954,6497.0,3222.0,-318.0,0.666,0.432,-0.553,0.253
7718970,6117.0,1656.0,-268.0,0.67,0.427,-0.55,0.258
7718996,5567.0,2246.0,-272.0,0.674,0.424,-0.544,0.264
7719012,3901.0,3776.0,424.0,0.678,0.42,-0.54,0.27
7719028,3831.0,2750.0,88.0,0.681,0.413,-0.537,0.276
7719044,3749.0,1040.0,-184.0,0.685,0.407,-0.534,0.284
7719060,3871.0,1612.0,-406.0,0.688,0.401,-0.529,0.292
7719086,2411.0,2166.0,62.0,0.692,0.395,-0.523,0.302
7719102,1905.0,1750.0,944.0,0.696,0.387,-0.519,0.31
7719118,1297.0,234.0,906.0,0.698,0.382,-0.517,0.316
7719134,2717.0,582.0,174.0,0.699,0.379,-0.514,0.321
7719150,2849.0,1578.0,328.0,0.7,0.377,-0.512,0.325
7719166,3113.0,1372.0,772.0,0.7,0.375,-0.511,0.328
7719192,3379.0,1540.0,766.0,0.7,0.374,-0.511,0.331
7719209,4305.0,-96.0,600.0,0.699,0.375,-0.511,0.332
7719225,4885.0,900.0,532.0,0.697,0.38,-0.511,0.331
7719241,6061.0,2576.0,86.0,0.695,0.385,-0.511,0.33
7719257,5627.0,2724.0,928.0,0.692,0.388,-0.513,0.327
7719273,6683.0,1752.0,618.0,0.689,0.392,-0.518,0.323
7719289,8385.0,1586.0,-1160.0,0.685,0.397,-0.521,0.319
7719315,8607.0,2214.0,40.0,0.683,0.401,-0.522,0.316
7719332,6555.0,2870.0,1330.0,0.681,0.404,-0.525,0.313
7719349,7425.0,2488.0,752.0,0.678,0.407,-0.528,0.308
7719365,8667.0,2104.0,288.0,0.676,0.41,-0.532,0.303
7719382,8405.0,2122.0,54.0,0.674,0.413,-0.534,0.3
7719398,6651.0,2838.0,1678.0,0.673,0.416,-0.534,0.297
7719414,7387.0,2820.0,1466.0,0.672,0.419,-0.537,0.292
7719440,7863.0,2486.0,326.0,0.67,0.421,-0.539,0.289
7719456,7399.0,2206.0,442.0,0.67,0.422,-0.539,0.287
7719472,7243.0,2142.0,1376.0,0.671,0.424,-0.537,0.284
7719488,5881.0,3258.0,1770.0,0.671,0.426,-0.537,0.283
7719504,6561.0,2932.0,1112.0,0.67,0.428,-0.537,0.281
7719520,6863.0,3126.0,436.0,0.669,0.429,-0.538,0.28
7719546,6449.0,2482.0,582.0,0.669,0.43,-0.539,0.279
7719563,7647.0,3030.0,-84.0,0.668,0.431,-0.538,0.278
7719580,7427.0,3634.0,-134.0,0.669,0.431,-0.537,0.28
7719597,6061.0,2760.0,644.0,0.669,0.43,-0.537,0.282
7719613,7937.0,2648.0,194.0,0.668,0.43,-0.538,0.283
7719629,8153.0,2740.0,40.0,0.667,0.431,-0.538,0.283
7719646,8375.0,2748.0,-540.0,0.666,0.431,-0.538,0.285
7719663,7615.0,3398.0,262.0,0.666,0.43,-0.538,0.286
7719679,6007.0,2408.0,854.0,0.664,0.429,-0.541,0.288
7719696,8337.0,2916.0,896.0,0.66,0.429,-0.545,0.289
7719722,8885.0,2974.0,-1204.0,0.655,0.429,-0.549,0.293
7719738,9439.0,2122.0,-2162.0,0.652,0.426,-0.552,0.298
7719754,6217.0,-410.0,-70.0,0.653,0.422,-0.552,0.302
7719770,6479.0,484.0,1116.0,0.651,0.423,-0.552,0.304
7719786,8337.0,3086.0,-394.0,0.648,0.424,-0.553,0.307
7719812,9071.0,2640.0,-600.0,0.646,0.422,-0.555,0.311
7719829,7051.0,1342.0,820.0,0.643,0.419,-0.558,0.315
7719845,6217.0,1328.0,906.0,0.639,0.417,-0.563,0.318
7719862,7173.0,1134.0,242.0,0.635,0.414,-0.569,0.32
7719879,9393.0,-536.0,-942.0,0.631,0.411,-0.575,0.321
7719896,10501.0,496.0,-1194.0,0.628,0.41,-0.577,0.323
7719913,7345.0,1706.0,616.0,0.626,0.407,-0.579,0.327
7719929,8305.0,890.0,158.0,0.624,0.404,-0.582,0.329
7719945,9751.0,-968.0,338.0,0.623,0.402,-0.585,0.33
7719962,9771.0,-672.0,-56.0,0.621,0.404,-0.585,0.329
7719979,12081.0,-1004.0,-1008.0,0.62,0.406,-0.585,0.329
7720006,10431.0,846.0,276.0,0.621,0.409,-0.583,0.328
7720022,9615.0,2862.0,1312.0,0.62,0.41,-0.583,0.327
7720038,10817.0,-202.0,88.0,0.62,0.408,-0.586,0.325
7720054,10127.0,-774.0,-460.0,0.618,0.407,-0.588,0.326
7720071,10853.0,976.0,-524.0,0.618,0.407,-0.588,0.327
7720087,10541.0,1296.0,-398.0,0.618,0.404,-0.589,0.33
7720103,10179.0,8.0,-192.0,0.618,0.399,-0.59,0.333
7720129,11255.0,-704.0,-146.0,0.618,0.397,-0.589,0.336
7720146,9945.0,358.0,134.0,0.619,0.396,-0.588,0.338
7720163,9895.0,844.0,310.0,0.62,0.394,-0.588,0.338
7720180,9187.0,360.0,532.0,0.621,0.392,-0.589,0.337
7720197,9129.0,-274.0,502.0,0.621,0.391,-0.591,0.335
7720214,9497.0,-622.0,80.0,0.621,0.391,-0.592,0.333
7720230,9623.0,-128.0,-306.0,0.621,0.392,-0.592,0.331
7720246,9179.0,102.0,198.0,0.622,0.393,-0.591,0.33
7720263,9777.0,-222.0,198.0,0.624,0.395,-0.589,0.327
7720280,10115.0,20.0,-252.0,0.626,0.398,-0.587,0.324
7720306,10265.0,280.0,-30.0,0.629,0.402,-0.583,0.32
7720322,10417.0,306.0,160.0,0.633,0.406,-0.579,0.315
7720338,11197.0,856.0,82.0,0.636,0.41,-0.575,0.312
7720354,11049.0,1230.0,-68.0,0.639,0.412,-0.571,0.309
7720370,10879.0,186.0,140.0,0.642,0.413,-0.568,0.307
7720396,10287.0,442.0,388.0,0.645,0.415,-0.564,0.305
7720412,10617.0,1238.0,446.0,0.647,0.417,-0.561,0.305
7720428,9983.0,492.0,446.0,0.648,0.417,-0.56,0.304
7720444,9585.0,774.0,366.0,0.649,0.418,-0.559,0.302
7720460,10325.0,614.0,636.0,0.65,0.419,-0.558,0.3
7720476,10425.0,378.0,314.0,0.65,0.421,-0.558,0.298
7720502,10155.0,1594.0,16.0,0.65,0.423,-0.557,0.298
7720518,10409.0,1022.0,568.0,0.65,0.424,-0.556,0.298
7720534,9967.0,1266.0,416.0,0.649,0.426,-0.556,0.297
7720550,9437.0,998.0,186.0,0.648,0.428,-0.555,0.296
7720566,9577.0,1228.0,-240.0,0.648,0.43,-0.555,0.295
7720582,8977.0,1286.0,12.0,0.648,0.433,-0.554,0.294
7720599,8295.0,1692.0,426.0,0.647,0.436,-0.553,0.292
7720625,8431.0,1894.0,264.0,0.646,0.438,-0.553,0.292
7720641,8377.0,1552.0,-448.0,0.644,0.439,-0.554,0.293
7720657,8461.0,1966.0,-612.0,0.643,0.44,-0.553,0.295
7720673,7591.0,2238.0,-320.0,0.642,0.44,-0.553,0.296
7720689,8069.0,2452.0,296.0,0.642,0.439,-0.554,0.299
7720705,7813.0,3146.0,-584.0,0.64,0.437,-0.555,0.302
7720731,7679.0,2082.0,-1726.0,0.639,0.434,-0.558,0.304
7720747,6271.0,2110.0,546.0,0.638,0.431,-0.56,0.306
7720764,6321.0,2358.0,748.0,0.635,0.429,-0.564,0.307
7720781,6867.0,1666.0,-792.0,0.632,0.428,-0.567,0.31
7720798,7821.0,1422.0,-1318.0,0.63,0.426,-0.569,0.312
7720814,6417.0,1280.0,160.0,0.629,0.426,-0.569,0.315
7720830,5721.0,2198.0,1012.0,0.628,0.426,-0.569,0.317
7720856,6559.0,1530.0,204.0,0.626,0.427,-0.569,0.32
7720872,7051.0,1900.0,-194.0,0.625,0.428,-0.569,0.322
7720888,7391.0,2614.0,-400.0,0.625,0.428,-0.567,0.323
7720904,6721.0,1326.0,-74.0,0.626,0.427,-0.566,0.324
7720921,6981.0,1450.0,326.0,0.628,0.428,-0.563,0.325
7720938,7345.0,2612.0,-10.0,0.63,0.428,-0.56,0.326
7720954,8249.0,2516.0,-334.0,0.633,0.427,-0.557,0.327
7720970,8159.0,1934.0,-336.0,0.637,0.425,-0.553,0.327
7720996,8055.0,1190.0,52.0,0.642,0.425,-0.548,0.328
7721013,8655.0,1464.0,-652.0,0.646,0.425,-0.542,0.328
7721029,8601.0,2176.0,-914.0,0.652,0.427,-0.535,0.327
7721046,8075.0,3228.0,282.0,0.658,0.426,-0.529,0.325
7721063,7057.0,2828.0,1188.0,0.662,0.425,-0.526,0.323
7721080,8489.0,1328.0,-26.0,0.664,0.424,-0.525,0.322
7721097,7035.0,1658.0,702.0,0.664,0.424,-0.525,0.323
7721114,7091.0,594.0,488.0,0.662,0.425,-0.526,0.323
7721131,6537.0,1430.0,424.0,0.659,0.427,-0.527,0.324
7721149,6385.0,1854.0,164.0,0.657,0.428,-0.529,0.325
7721165,6227.0,626.0,242.0,0.654,0.429,-0.531,0.327
7721191,5511.0,2260.0,448.0,0.652,0.429,-0.531,0.329
7721207,5243.0,1866.0,426.0,0.651,0.429,-0.532,0.331
7721223,4709.0,2240.0,550.0,0.651,0.426,-0.532,0.334
7721239,4643.0,854.0,436.0,0.652,0.423,-0.532,0.336
7721255,4001.0,1010.0,724.0,0.652,0.421,-0.531,0.34
7721271,3737.0,1878.0,1458.0,0.653,0.419,-0.529,0.343
7721297,3583.0,2054.0,1478.0,0.655,0.417,-0.528,0.345
7721313,3801.0,1528.0,1318.0,0.656,0.414,-0.528,0.346
7721329,4295.0,902.0,1660.0,0.657,0.413,-0.528,0.346
7721345,4569.0,2386.0,1432.0,0.657,0.412,-0.528,0.345
7721362,5667.0,2032.0,1098.0,0.658,0.411,-0.529,0.344
7721379,5913.0,1992.0,1408.0,0.659,0.41,-0.53,0.341
7721396,6109.0,2272.0,1066.0,0.66,0.41,-0.532,0.338
7721422,6753.0,1370.0,1162.0,0.66,0.41,-0.533,0.335
7721438,6867.0,2870.0,1030.0,0.66,0.411,-0.534,0.331
7721454,7305.0,2354.0,718.0,0.661,0.411,-0.536,0.327
7721470,7281.0,2164.0,630.0,0.662,0.412,-0.537,0.323
7721486,6761.0,2152.0,580.0,0.663,0.412,-0.538,0.319
7721503,7199.0,1902.0,548.0,0.664,0.413,-0.538,0.315
7721519,6413.0,2866.0,342.0,0.666,0.413,-0.538,0.311
7721545,5977.0,3158.0,574.0,0.668,0.413,-0.538,0.307
7721561,6127.0,1676.0,464.0,0.67,0.412,-0.538,0.304
7721577,6199.0,2324.0,-90.0,0.672,0.413,-0.537,0.301
7721594,6365.0,2070.0,586.0,0.674,0.413,-0.535,0.297
7721611,6547.0,2364.0,260.0,0.676,0.414,-0.534,0.295
7721628,6809.0,3802.0,586.0,0.677,0.414,-0.534,0.293
7721645,6713.0,2200.0,990.0,0.677,0.414,-0.535,0.29
7721662,7285.0,3080.0,570.0,0.677,0.414,-0.537,0.287
7721679,8375.0,2100.0,-168.0,0.676,0.413,-0.54,0.283
7721705,9453.0,2090.0,-286.0,0.677,0.413,-0.541,0.281
7721721,8507.0,2868.0,430.0,0.677,0.413,-0.541,0.28
7721737,8221.0,2490.0,508.0,0.677,0.412,-0.542,0.28
7721753,8757.0,2874.0,108.0,0.678,0.41,-0.543,0.279
7721769,9511.0,2218.0,-62.0,0.678,0.407,-0.545,0.278
7721785,8863.0,934.0,-132.0,0.679,0.405,-0.546,0.277
7721811,8399.0,2322.0,744.0,0.679,0.404,-0.547,0.276
7721828,8815.0,2714.0,370.0,0.679,0.401,-0.55,0.276
7721845,9475.0,1412.0,-576.0,0.678,0.397,-0.552,0.277
7721862,8805.0,688.0,-96.0,0.678,0.395,-0.554,0.278
7721879,7745.0,1814.0,726.0,0.678,0.393,-0.556,0.278
7721895,7159.0,1368.0,750.0,0.676,0.39,-0.56,0.277
7721912,7645.0,958.0,400.0,0.674,0.388,-0.565,0.275
7721929,9225.0,812.0,50.0,0.671,0.387,-0.57,0.273
7721946,9611.0,1522.0,-478.0,0.668,0.386,-0.575,0.272
7721963,8905.0,1288.0,-388.0,0.665,0.384,-0.58,0.273
7721979,9165.0,1188.0,52.0,0.663,0.382,-0.583,0.273
7722005,8535.0,606.0,930.0,0.661,0.38,-0.588,0.272
7722022,8913.0,238.0,142.0,0.658,0.378,-0.593,0.269
7722038,8809.0,496.0,-218.0,0.655,0.377,-0.598,0.267
7722054,9113.0,960.0,-596.0,0.653,0.376,-0.602,0.264
7722070,8715.0,1484.0,-576.0,0.651,0.373,-0.607,0.262
7722087,9167.0,1884.0,986.0,0.65,0.368,-0.612,0.258
7722103,9615.0,674.0,-952.0,0.649,0.362,-0.618,0.255
7722129,9075.0,-130.0,-754.0,0.649,0.356,-0.623,0.253
7722145,8997.0,-566.0,-450.0,0.65,0.352,-0.625,0.251
7722162,8541.0,100.0,-30.0,0.65,0.348,-0.628,0.249
7722179,9195.0,124.0,-410.0,0.65,0.346,-0.629,0.249
7722195,9381.0,976.0,-376.0,0.649,0.343,-0.631,0.251
7722212,9137.0,524.0,-60.0,0.648,0.339,-0.633,0.254
7722229,9283.0,544.0,92.0,0.646,0.335,-0.635,0.258
7722245,9809.0,772.0,-60.0,0.645,0.331,-0.637,0.263
7722262,10551.0,816.0,-666.0,0.644,0.327,-0.639,0.266
7722289,9913.0,594.0,-356.0,0.644,0.322,-0.641,0.268
7722305,9545.0,-84.0,220.0,0.644,0.317,-0.642,0.268
7722321,9833.0,-656.0,226.0,0.645,0.314,-0.643,0.268
7722337,10009.0,-424.0,8.0,0.646,0.313,-0.644,0.267
7722353,10083.0,-308.0,-146.0,0.646,0.312,-0.644,0.266
7722369,9591.0,230.0,60.0,0.647,0.312,-0.643,0.265
7722395,9409.0,674.0,340.0,0.647,0.312,-0.643,0.264
7722412,9355.0,614.0,342.0,0.648,0.311,-0.644,0.261
7722429,9731.0,24.0,-94.0,0.649,0.309,-0.646,0.258
7722446,10379.0,-188.0,-542.0,0.65,0.308,-0.646,0.255
7722463,9671.0,-604.0,-310.0,0.651,0.308,-0.646,0.254
7722479,9675.0,-260.0,-4.0,0.653,0.309,-0.645,0.251
7722496,9905.0,-416.0,232.0,0.654,0.311,-0.644,0.247
7722512,10647.0,-580.0,-256.0,0.655,0.313,-0.643,0.245
7722529,10349.0,-786.0,-632.0,0.656,0.317,-0.64,0.243
7722546,10131.0,-108.0,-286.0,0.658,0.322,-0.637,0.241
7722563,9729.0,246.0,2.0,0.659,0.327,-0.634,0.239
7722589,9211.0,-48.0,-100.0,0.661,0.332,-0.631,0.237
7722605,9505.0,-232.0,-316.0,0.662,0.337,-0.628,0.234
7722621,9749.0,306.0,-566.0,0.663,0.342,-0.624,0.233
7722637,9461.0,514.0,-606.0,0.664,0.348,-0.62,0.232
7722653,9561.0,1108.0,-232.0,0.665,0.353,-0.616,0.231
7722669,9501.0,460.0,-324.0,0.666,0.357,-0.613,0.231
7722695,10143.0,750.0,-1038.0,0.667,0.362,-0.609,0.232
7722712,10191.0,1404.0,-1372.0,0.67,0.365,-0.603,0.233
7722729,8341.0,1144.0,366.0,0.672,0.369,-0.598,0.234
7722746,8411.0,1980.0,24.0,0.673,0.373,-0.594,0.235
7722763,8743.0,2362.0,-430.0,0.674,0.376,-0.591,0.235
7722779,8027.0,1744.0,414.0,0.675,0.378,-0.589,0.234
7722795,7909.0,1066.0,340.0,0.675,0.381,-0.588,0.232
7722811,8907.0,1682.0,-262.0,0.674,0.385,-0.587,0.23
7722837,9699.0,2040.0,-634.0,0.674,0.388,-0.586,0.229
7722853,8565.0,2596.0,-92.0,0.673,0.391,-0.584,0.23
7722869,8447.0,2492.0,-96.0,0.673,0.393,-0.582,0.232
7722885,8497.0,1484.0,48.0,0.672,0.396,-0.58,0.234
7722901,8105.0,2166.0,-234.0,0.67,0.399,-0.579,0.237
7722927,6891.0,2718.0,1012.0,0.667,0.403,-0.578,0.241
7722944,7569.0,3108.0,-160.0,0.663,0.407,-0.579,0.244
7722961,8045.0,2838.0,-432.0,0.66,0.408,-0.58,0.247
7722978,7673.0,1742.0,228.0,0.656,0.41,-0.582,0.25
7722995,6417.0,2938.0,1092.0,0.651,0.414,-0.584,0.252
7723012,8583.0,3254.0,-346.0,0.647,0.416,-0.588,0.25
7723029,8083.0,910.0,80.0,0.644,0.418,-0.591,0.248
7723046,7729.0,2050.0,264.0,0.64,0.423,-0.593,0.243
7723062,7907.0,1866.0,-668.0,0.638,0.429,-0.594,0.236
7723078,9359.0,1232.0,-1784.0,0.636,0.436,-0.593,0.231
7723095,8735.0,4442.0,-1544.0,0.636,0.443,-0.589,0.228
7723112,7403.0,4094.0,-632.0,0.638,0.446,-0.586,0.225
7723138,7851.0,2276.0,-750.0,0.64,0.448,-0.583,0.223
7723155,7601.0,3020.0,-1232.0,0.642,0.45,-0.58,0.222
7723171,7897.0,3426.0,-1522.0,0.646,0.451,-0.575,0.222
7723187,7095.0,3606.0,-1408.0,0.651,0.45,-0.569,0.224
7723203,5249.0,3260.0,418.0,0.657,0.448,-0.563,0.226
7723219,6009.0,2766.0,730.0,0.662,0.446,-0.557,0.229
7723245,5947.0,3806.0,-456.0,0.667,0.444,-0.553,0.231
7723261,5325.0,3124.0,1148.0,0.673,0.44,-0.547,0.233
7723278,4779.0,1948.0,1872.0,0.678,0.437,-0.543,0.232
7723295,5863.0,2996.0,352.0,0.682,0.436,-0.541,0.23
7723311,6705.0,2488.0,780.0,0.686,0.434,-0.537,0.228
7723328,5333.0,2260.0,836.0,0.689,0.434,-0.534,0.228
7723345,5565.0,3548.0,796.0,0.692,0.433,-0.53,0.231
7723362,5201.0,3934.0,508.0,0.694,0.429,-0.528,0.235
7723378,4695.0,1294.0,930.0,0.698,0.423,-0.526,0.239
7723395,4683.0,408.0,130.0,0.703,0.419,-0.521,0.244
7723421,4023.0,1456.0,632.0,0.707,0.417,-0.513,0.25
7723439,2669.0,2428.0,1370.0,0.713,0.414,-0.505,0.256
7723455,2527.0,1936.0,1072.0,0.717,0.411,-0.499,0.26
7723471,3021.0,1484.0,934.0,0.721,0.408,-0.494,0.264
7723487,2407.0,1420.0,1026.0,0.723,0.407,-0.49,0.267
7723503,2683.0,2404.0,1212.0,0.723,0.408,-0.488,0.269
7723519,3589.0,3792.0,694.0,0.723,0.407,-0.488,0.27
7723545,3361.0,2426.0,1244.0,0.723,0.404,-0.491,0.27
7723562,4019.0,1384.0,1254.0,0.72,0.403,-0.496,0.269
7723578,4441.0,1150.0,734.0,0.717,0.406,-0.501,0.266
7723595,5883.0,3600.0,-160.0,0.714,0.409,-0.505,0.261
7723611,6021.0,3736.0,354.0,0.713,0.409,-0.508,0.258
7723627,5601.0,1806.0,878.0,0.711,0.41,-0.511,0.255
7723643,6151.0,1006.0,516.0,0.71,0.413,-0.513,0.251
7723669,7193.0,2432.0,-1074.0,0.71,0.418,-0.511,0.247
7723685,8129.0,5372.0,-14.0,0.713,0.421,-0.505,0.245
7723701,6193.0,4472.0,1296.0,0.717,0.42,-0.5,0.242
7723717,6515.0,3366.0,1162.0,0.72,0.42,-0.497,0.24
7723733,6769.0,3762.0,858.0,0.722,0.422,-0.495,0.236
7723749,5591.0,4186.0,1344.0,0.723,0.424,-0.493,0.234
7723775,6657.0,4588.0,1228.0,0.723,0.425,-0.494,0.23
7723791,7089.0,3690.0,1018.0,0.723,0.426,-0.495,0.228
7723807,7873.0,4054.0,758.0,0.723,0.427,-0.495,0.223
7723823,7959.0,3584.0,332.0,0.723,0.428,-0.496,0.22
7723840,7371.0,2854.0,1114.0,0.723,0.43,-0.496,0.217
7723857,8443.0,3544.0,478.0,0.721,0.434,-0.496,0.214
7723873,8201.0,4418.0,-216.0,0.718,0.437,-0.497,0.213
7723900,7375.0,3212.0,196.0,0.716,0.44,-0.498,0.212
7723916,8257.0,3394.0,182.0,0.714,0.444,-0.499,0.21
7723932,7469.0,4264.0,340.0,0.712,0.446,-0.501,0.207
7723948,7727.0,3820.0,536.0,0.709,0.448,-0.505,0.206
7723964,7287.0,3160.0,830.0,0.706,0.449,-0.509,0.204
7723980,7281.0,2922.0,244.0,0.702,0.45,-0.514,0.201
7724006,8057.0,1504.0,-480.0,0.699,0.452,-0.517,0.198
7724022,7785.0,1324.0,60.0,0.695,0.456,-0.519,0.199
7724038,7729.0,3440.0,646.0,0.69,0.462,-0.52,0.2
7724054,8123.0,4442.0,174.0,0.685,0.465,-0.523,0.201
7724070,8987.0,3508.0,-794.0,0.681,0.466,-0.527,0.203
7724086,10301.0,3106.0,-1296.0,0.677,0.465,-0.532,0.206
7724112,9741.0,2902.0,-646.0,0.672,0.465,-0.536,0.211
7724129,9589.0,4178.0,-1054.0,0.668,0.464,-0.54,0.217
7724146,9739.0,3782.0,352.0,0.664,0.462,-0.544,0.222
7724162,10255.0,1934.0,-50.0,0.66,0.46,-0.55,0.225
7724178,9517.0,2492.0,-46.0,0.655,0.459,-0.554,0.23
7724194,8863.0,3010.0,-174.0,0.651,0.457,-0.56,0.235
7724211,8171.0,2524.0,-128.0,0.646,0.454,-0.565,0.239
7724228,8587.0,1496.0,-468.0,0.643,0.45,-0.57,0.243
7724255,8283.0,214.0,-444.0,0.641,0.449,-0.571,0.249
7724271,6799.0,1172.0,708.0,0.638,0.45,-0.571,0.254
7724287,6631.0,2418.0,1142.0,0.636,0.451,-0.571,0.256
7724303,6865.0,2480.0,1004.0,0.634,0.451,-0.574,0.257
7724319,8325.0,2230.0,328.0,0.631,0.449,-0.577,0.259
7724335,8741.0,1820.0,-452.0,0.629,0.447,-0.579,0.262
7724351,9313.0,1912.0,-168.0,0.628,0.444,-0.581,0.268
7724377,9915.0,2060.0,-318.0,0.627,0.44,-0.581,0.274
7724394,9679.0,2516.0,-160.0,0.627,0.435,-0.582,0.281
7724411,10251.0,1988.0,-172.0,0.627,0.43,-0.582,0.288
7724427,10465.0,2042.0,104.0,0.627,0.426,-0.583,0.293
7724443,11025.0,1248.0,68.0,0.627,0.421,-0.584,0.298
7724459,11153.0,890.0,76.0,0.627,0.418,-0.584,0.302
7724475,11267.0,558.0,46.0,0.627,0.417,-0.583,0.305
7724501,11261.0,668.0,86.0,0.627,0.417,-0.582,0.307
7724517,11225.0,1180.0,286.0,0.626,0.418,-0.582,0.308
7724533,11005.0,586.0,650.0,0.625,0.419,-0.583,0.307
7724549,10667.0,546.0,422.0,0.623,0.421,-0.585,0.303
7724565,10665.0,-28.0,-502.0,0.622,0.423,-0.588,0.297
7724581,10277.0,-28.0,-752.0,0.622,0.427,-0.588,0.291
7724607,9699.0,814.0,-488.0,0.622,0.432,-0.587,0.286
7724623,8945.0,1270.0,-476.0,0.623,0.435,-0.586,0.281
7724639,8779.0,1000.0,-276.0,0.624,0.438,-0.585,0.276
7724655,8599.0,898.0,-460.0,0.625,0.441,-0.585,0.271
7724671,9073.0,974.0,-766.0,0.626,0.443,-0.583,0.267
7724687,8991.0,912.0,-938.0,0.627,0.445,-0.582,0.264
7724713,9145.0,1194.0,-672.0,0.628,0.448,-0.58,0.261
7724729,8635.0,1950.0,-344.0,0.629,0.45,-0.579,0.259
7724746,8105.0,1834.0,-316.0,0.629,0.45,-0.579,0.256
7724762,8907.0,614.0,-788.0,0.63,0.451,-0.58,0.252
7724779,8835.0,1562.0,-1028.0,0.63,0.453,-0.58,0.249
7724795,8603.0,2194.0,-832.0,0.63,0.454,-0.58,0.245
7724811,8721.0,2246.0,-730.0,0.631,0.455,-0.58,0.242
7724838,8601.0,1904.0,-614.0,0.632,0.455,-0.58,0.24
7724854,7885.0,1812.0,-414.0,0.633,0.456,-0.58,0.238
7724870,8159.0,2320.0,-994.0,0.633,0.456,-0.58,0.234
7724886,8421.0,2614.0,-528.0,0.635,0.456,-0.579,0.23
7724902,8391.0,2156.0,-904.0,0.636,0.456,-0.579,0.228
7724918,7793.0,3106.0,-466.0,0.637,0.456,-0.578,0.227
7724944,8151.0,3150.0,-814.0,0.639,0.454,-0.578,0.226
7724961,8291.0,2198.0,-1000.0,0.64,0.452,-0.579,0.226
7724977,8215.0,1922.0,-726.0,0.642,0.451,-0.578,0.226
7724994,7729.0,3568.0,-284.0,0.643,0.45,-0.577,0.226
7725011,8921.0,2538.0,-1120.0,0.644,0.449,-0.578,0.225
7725027,8567.0,2156.0,-762.0,0.644,0.448,-0.577,0.225
7725044,9195.0,2610.0,-1326.0,0.644,0.449,-0.577,0.225
7725061,8467.0,3062.0,-1076.0,0.644,0.45,-0.576,0.225
7725077,8165.0,2752.0,-834.0,0.643,0.451,-0.577,0.224
7725094,7709.0,1670.0,-1098.0,0.64,0.454,-0.579,0.222
7725121,7359.0,1698.0,-1520.0,0.636,0.458,-0.581,0.22
7725137,7479.0,2786.0,-1748.0,0.631,0.464,-0.583,0.217
7725153,7423.0,3018.0,-1904.0,0.625,0.467,-0.587,0.215
7725169,7533.0,2214.0,-1786.0,0.62,0.47,-0.591,0.213
7725185,7481.0,2552.0,-2298.0,0.613,0.473,-0.596,0.212
7725201,7191.0,2902.0,-2018.0,0.608,0.474,-0.601,0.212
7725227,7161.0,2434.0,-1844.0,0.602,0.475,-0.605,0.212
7725244,7553.0,2634.0,-1968.0,0.598,0.476,-0.609,0.213
7725261,7133.0,3230.0,-1572.0,0.595,0.476,-0.612,0.214
7725277,7215.0,2386.0,-1800.0,0.592,0.475,-0.614,0.216
7725293,6929.0,1716.0,-1166.0,0.592,0.475,-0.613,0.218
7725310,6439.0,3770.0,-1136.0,0.591,0.477,-0.612,0.221
7725327,7397.0,2810.0,-714.0,0.591,0.477,-0.61,0.225
7725344,6825.0,2328.0,-432.0,0.591,0.479,-0.608,0.228
7725361,6909.0,4192.0,234.0,0.59,0.483,-0.605,0.23
7725377,7795.0,4690.0,-226.0,0.587,0.486,-0.605,0.228
7725404,9949.0,1930.0,-1372.0,0.585,0.491,-0.605,0.225
7725420,8845.0,4464.0,-852.0,0.584,0.499,-0.6,0.223
7725436,9707.0,4022.0,-1956.0,0.582,0.507,-0.597,0.221
7725452,8873.0,4586.0,-2516.0,0.581,0.514,-0.591,0.22
7725469,9063.0,3674.0,-2658.0,0.582,0.52,-0.585,0.222
7725485,10353.0,3046.0,-3424.0,0.586,0.525,-0.574,0.227
7725501,6497.0,3982.0,-2026.0,0.591,0.53,-0.562,0.234
7725527,5187.0,3964.0,-1148.0,0.595,0.533,-0.551,0.242
7725544,5077.0,3984.0,-1248.0,0.598,0.534,-0.543,0.249
7725560,4775.0,1294.0,-1364.0,0.602,0.535,-0.535,0.255
7725577,3795.0,2412.0,-746.0,0.606,0.537,-0.526,0.26
7725594,3035.0,4716.0,-654.0,0.608,0.537,-0.522,0.261
7725610,3723.0,2736.0,-1046.0,0.612,0.534,-0.522,0.259
7725627,3765.0,500.0,-1152.0,0.615,0.532,-0.523,0.258
7725644,3683.0,1596.0,-988.0,0.614,0.532,-0.523,0.259
7725661,2711.0,3274.0,-128.0,0.614,0.531,-0.524,0.258
7725678,3771.0,2546.0,-620.0,0.614,0.528,-0.527,0.256
7725704,3405.0,1816.0,-642.0,0.615,0.526,-0.53,0.253
7725720,4087.0,1196.0,-668.0,0.616,0.524,-0.532,0.251
7725736,3615.0,2052.0,24.0,0.618,0.523,-0.532,0.249
7725752,3859.0,2938.0,14.0,0.621,0.52,-0.533,0.245
7725768,3965.0,2466.0,-188.0,0.624,0.516,-0.534,0.242
7725784,4849.0,1748.0,-180.0,0.628,0.512,-0.535,0.238
7725811,4517.0,2282.0,88.0,0.632,0.508,-0.536,0.235
7725827,4347.0,2626.0,320.0,0.635,0.505,-0.537,0.231
7725844,4497.0,2912.0,350.0,0.638,0.501,-0.539,0.227
7725860,5535.0,2438.0,-1456.0,0.641,0.496,-0.541,0.223
7725877,6199.0,2010.0,-700.0,0.645,0.493,-0.541,0.221
7725894,5115.0,3598.0,470.0,0.648,0.49,-0.541,0.217
7725911,5753.0,4110.0,162.0,0.651,0.486,-0.543,0.213
7725928,7177.0,3596.0,-560.0,0.652,0.482,-0.546,0.21
7725945,8097.0,2958.0,-1286.0,0.655,0.477,-0.549,0.208
7725971,7391.0,4034.0,-320.0,0.657,0.472,-0.55,0.208
7725987,5601.0,5220.0,374.0,0.658,0.467,-0.553,0.207
7726003,6299.0,2128.0,-1268.0,0.659,0.461,-0.558,0.203
7726019,9063.0,770.0,-2012.0,0.659,0.459,-0.561,0.201
7726035,6851.0,4584.0,-518.0,0.66,0.459,-0.561,0.199
7726052,6979.0,5800.0,-378.0,0.659,0.456,-0.565,0.198
7726068,6983.0,2862.0,-900.0,0.657,0.452,-0.571,0.196
7726094,8039.0,1542.0,-1620.0,0.655,0.45,-0.576,0.193
7726110,8139.0,3146.0,-1412.0,0.653,0.451,-0.578,0.191
7726127,8195.0,4244.0,-1202.0,0.65,0.451,-0.58,0.191
7726144,6673.0,4838.0,-568.0,0.648,0.45,-0.584,0.191
7726161,8089.0,2798.0,-1552.0,0.645,0.447,-0.589,0.19
7726178,8981.0,1524.0,-1520.0,0.644,0.447,-0.592,0.19
7726194,8251.0,3100.0,-1502.0,0.642,0.449,-0.592,0.191
7726211,8029.0,3870.0,-1014.0,0.641,0.449,-0.592,0.193
7726227,7909.0,4752.0,-566.0,0.639,0.448,-0.594,0.194
7726254,8105.0,2174.0,-964.0,0.639,0.446,-0.596,0.195
7726270,8657.0,1848.0,-1334.0,0.638,0.445,-0.597,0.197
7726286,7845.0,2492.0,-1194.0,0.637,0.447,-0.597,0.199
7726302,7517.0,3404.0,-1222.0,0.635,0.448,-0.596,0.202
7726318,8043.0,3430.0,-668.0,0.634,0.447,-0.597,0.204
7726334,7083.0,2220.0,-1276.0,0.632,0.446,-0.599,0.207
7726360,7759.0,1844.0,-832.0,0.63,0.446,-0.601,0.209
7726377,6649.0,2728.0,-618.0,0.626,0.447,-0.604,0.211
7726393,8085.0,3472.0,-970.0,0.621,0.446,-0.608,0.211
7726410,8781.0,1964.0,-1554.0,0.618,0.444,-0.613,0.212
7726427,8903.0,1340.0,-1578.0,0.616,0.443,-0.616,0.213
7726443,8181.0,2078.0,-1336.0,0.614,0.443,-0.617,0.215
7726460,8781.0,2412.0,-1258.0,0.612,0.441,-0.619,0.217
7726476,9629.0,1902.0,-1696.0,0.612,0.439,-0.62,0.22
7726493,8927.0,1090.0,-1496.0,0.612,0.437,-0.62,0.223
7726510,8175.0,2188.0,-504.0,0.613,0.435,-0.62,0.226
7726536,7565.0,2480.0,-402.0,0.613,0.432,-0.621,0.228
7726552,8169.0,1596.0,-760.0,0.613,0.428,-0.623,0.229
7726568,9133.0,1210.0,-1086.0,0.614,0.423,-0.625,0.23
7726584,9335.0,2046.0,-1300.0,0.615,0.419,-0.626,0.233
7726600,10245.0,2778.0,-1260.0,0.618,0.412,-0.626,0.239
7726616,10197.0,1096.0,-916.0,0.621,0.403,-0.626,0.246
7726642,10427.0,218.0,-228.0,0.623,0.396,-0.625,0.255
7726659,10135.0,2178.0,32.0,0.624,0.39,-0.624,0.262
7726676,10241.0,1156.0,-46.0,0.626,0.382,-0.625,0.267
7726693,10107.0,74.0,-54.0,0.627,0.377,-0.626,0.271
7726710,10345.0,758.0,-252.0,0.628,0.373,-0.626,0.273
7726727,10687.0,898.0,-332.0,0.629,0.369,-0.627,0.275
7726743,10761.0,458.0,-376.0,0.63,0.365,-0.628,0.276
7726760,10305.0,640.0,-80.0,0.631,0.362,-0.629,0.275
7726776,11189.0,-286.0,-498.0,0.633,0.358,-0.629,0.275
7726793,10737.0,-832.0,-680.0,0.634,0.357,-0.629,0.275
7726820,10805.0,-554.0,-652.0,0.636,0.357,-0.627,0.273
7726837,10439.0,-536.0,-420.0,0.638,0.359,-0.625,0.27
7726853,9833.0,-910.0,-272.0,0.641,0.361,-0.624,0.264
7726870,10555.0,-1046.0,-728.0,0.642,0.365,-0.622,0.259
7726887,10235.0,-912.0,-562.0,0.645,0.37,-0.62,0.251
7726903,9601.0,-200.0,-100.0,0.647,0.375,-0.618,0.245
7726919,9615.0,672.0,-934.0,0.647,0.379,-0.617,0.239
7726935,9705.0,-1426.0,-1188.0,0.649,0.381,-0.616,0.234
7726961,9199.0,-2358.0,-684.0,0.65,0.387,-0.612,0.229
7726978,8489.0,128.0,-118.0,0.651,0.396,-0.608,0.226
7726994,7649.0,2284.0,-218.0,0.65,0.403,-0.605,0.224
7727011,8847.0,2640.0,-996.0,0.648,0.407,-0.604,0.222
7727027,9539.0,848.0,-994.0,0.647,0.409,-0.604,0.221
7727043,9297.0,986.0,-812.0,0.645,0.413,-0.603,0.221
7727060,9699.0,1154.0,-1204.0,0.643,0.418,-0.602,0.222
7727077,8483.0,2344.0,-944.0,0.641,0.423,-0.601,0.222
7727094,9575.0,2082.0,-1056.0,0.639,0.427,-0.6,0.223
7727120,9197.0,1070.0,-1208.0,0.636,0.432,-0.599,0.224
7727136,8315.0,2350.0,-928.0,0.633,0.437,-0.598,0.225
7727152,8947.0,2170.0,-1414.0,0.63,0.442,-0.597,0.227
7727169,8727.0,1694.0,-1192.0,0.628,0.447,-0.595,0.228
7727185,9533.0,1716.0,-1652.0,0.625,0.452,-0.593,0.23
7727201,8825.0,3416.0,-1620.0,0.623,0.457,-0.59,0.234
7727218,8857.0,2610.0,-1616.0,0.622,0.459,-0.589,0.238
7727244,8429.0,1804.0,-1344.0,0.621,0.46,-0.587,0.241
7727261,7871.0,2896.0,-1274.0,0.62,0.461,-0.585,0.245
7727277,8183.0,2956.0,-1404.0,0.619,0.461,-0.585,0.25
7727294,7741.0,2434.0,-1294.0,0.618,0.46,-0.585,0.254
7727310,8087.0,1898.0,-1258.0,0.617,0.459,-0.586,0.258
7727327,7979.0,2924.0,-1210.0,0.615,0.459,-0.586,0.261
7727344,7575.0,2858.0,-1172.0,0.612,0.459,-0.589,0.263
7727361,8291.0,2182.0,-844.0,0.608,0.459,-0.592,0.264
7727378,7265.0,1346.0,46.0,0.602,0.46,-0.597,0.264
7727404,7293.0,820.0,-276.0,0.593,0.465,-0.603,0.261
7727421,8733.0,1966.0,-2256.0,0.585,0.47,-0.608,0.258
7727437,8803.0,3200.0,-1946.0,0.58,0.473,-0.612,0.257
7727453,7567.0,1934.0,-1126.0,0.576,0.474,-0.615,0.257
7727469,8899.0,784.0,-1622.0,0.571,0.476,-0.617,0.257
7727485,8283.0,2670.0,-1918.0,0.567,0.479,-0.618,0.257
7727501,9359.0,2808.0,-2456.0,0.566,0.48,-0.618,0.259
7727527,7823.0,3140.0,-1728.0,0.566,0.481,-0.617,0.262
7727543,8723.0,2814.0,-2110.0,0.567,0.48,-0.614,0.267
7727560,7197.0,2612.0,-1756.0,0.569,0.479,-0.61,0.273
7727576,6739.0,3042.0,-1308.0,0.572,0.478,-0.604,0.281
7727593,6969.0,3894.0,-1662.0,0.576,0.477,-0.598,0.288
7727610,6365.0,3334.0,-1162.0,0.581,0.474,-0.591,0.297
7727626,5193.0,4400.0,-942.0,0.586,0.471,-0.585,0.304
7727643,6503.0,3778.0,-1526.0,0.592,0.466,-0.58,0.309
7727670,5801.0,1880.0,-926.0,0.599,0.461,-0.573,0.316
7727686,5121.0,2810.0,30.0,0.606,0.457,-0.566,0.321
7727703,2795.0,1676.0,1448.0,0.611,0.454,-0.561,0.325
7727720,3035.0,1852.0,68.0,0.613,0.453,-0.558,0.327
7727736,4377.0,2864.0,-32.0,0.615,0.452,-0.556,0.329
7727752,2989.0,912.0,832.0,0.616,0.451,-0.555,0.33
7727768,2363.0,1266.0,632.0,0.616,0.452,-0.555,0.328
7727784,2579.0,1528.0,224.0,0.615,0.454,-0.556,0.326
7727810,3889.0,2358.0,-408.0,0.615,0.454,-0.558,0.324
7727827,3773.0,830.0,-136.0,0.615,0.455,-0.559,0.32
7727844,3939.0,1038.0,-126.0,0.616,0.456,-0.558,0.317
7727861,4349.0,1654.0,-434.0,0.616,0.458,-0.558,0.314
7727878,4699.0,1992.0,-360.0,0.618,0.459,-0.559,0.31
7727894,5123.0,1036.0,-468.0,0.62,0.459,-0.559,0.305
7727910,5125.0,1780.0,-344.0,0.621,0.46,-0.559,0.3
7727926,5487.0,1630.0,-376.0,0.622,0.461,-0.559,0.296
7727953,6303.0,2182.0,-690.0,0.623,0.463,-0.56,0.291
7727969,5857.0,2224.0,-336.0,0.624,0.463,-0.561,0.286
7727986,6281.0,1570.0,-342.0,0.624,0.464,-0.562,0.281
7728002,6273.0,2836.0,400.0,0.623,0.466,-0.565,0.275
7728018,5225.0,2850.0,222.0,0.621,0.466,-0.57,0.27
7728034,5217.0,2822.0,78.0,0.617,0.467,-0.576,0.265
7728050,6973.0,2238.0,-1982.0,0.613,0.466,-0.583,0.259
7728076,8661.0,112.0,-2648.0,0.615,0.466,-0.582,0.257
7728093,6281.0,4072.0,148.0,0.619,0.466,-0.578,0.256
7728109,4797.0,3318.0,708.0,0.621,0.465,-0.578,0.254
7728125,6687.0,2506.0,-778.0,0.621,0.464,-0.579,0.252
7728142,8413.0,2534.0,-1580.0,0.622,0.464,-0.579,0.251
7728159,8075.0,2842.0,-1714.0,0.626,0.463,-0.576,0.25
7728175,6283.0,2710.0,392.0,0.629,0.463,-0.573,0.251
7728192,6805.0,3054.0,88.0,0.628,0.463,-0.573,0.249
7728209,8849.0,2978.0,-1428.0,0.628,0.464,-0.574,0.248
7728236,9323.0,3068.0,-1388.0,0.629,0.464,-0.573,0.247
7728252,7873.0,3564.0,-698.0,0.63,0.463,-0.573,0.246
7728268,7975.0,2796.0,-556.0,0.629,0.463,-0.574,0.245
7728284,8929.0,3664.0,-1404.0,0.628,0.463,-0.576,0.244
7728300,10217.0,2782.0,-1638.0,0.628,0.462,-0.577,0.243
7728316,9503.0,2692.0,-1854.0,0.629,0.462,-0.575,0.244
7728342,8979.0,3110.0,-1332.0,0.631,0.462,-0.572,0.247
7728359,7997.0,2616.0,-270.0,0.634,0.461,-0.569,0.249
7728376,8649.0,2932.0,-876.0,0.636,0.462,-0.566,0.249
7728393,8841.0,3186.0,-1108.0,0.638,0.462,-0.564,0.249
7728409,7767.0,2522.0,-764.0,0.641,0.461,-0.561,0.248
7728425,8017.0,2082.0,-504.0,0.642,0.462,-0.56,0.247
7728442,7925.0,2222.0,-584.0,0.642,0.463,-0.56,0.246
7728458,7943.0,2840.0,-944.0,0.641,0.463,-0.561,0.245
7728475,7795.0,2124.0,-724.0,0.64,0.463,-0.564,0.244
7728492,9023.0,2066.0,-1204.0,0.638,0.462,-0.566,0.242
7728518,8887.0,1316.0,-1142.0,0.638,0.461,-0.568,0.241
7728534,7871.0,2060.0,-440.0,0.638,0.46,-0.569,0.24
7728550,7945.0,2634.0,-426.0,0.637,0.458,-0.573,0.237
7728567,8677.0,1458.0,-1036.0,0.636,0.456,-0.577,0.235
7728583,9777.0,1094.0,-1470.0,0.636,0.453,-0.579,0.235
7728599,8733.0,2100.0,-600.0,0.636,0.451,-0.58,0.237
7728625,8099.0,2330.0,-424.0,0.637,0.446,-0.582,0.238
7728642,8725.0,1200.0,110.0,0.637,0.44,-0.585,0.24
7728659,10743.0,1552.0,-962.0,0.637,0.435,-0.589,0.242
7728675,10051.0,1590.0,-564.0,0.637,0.429,-0.592,0.245
7728692,9797.0,1088.0,-72.0,0.637,0.424,-0.594,0.248
7728709,10281.0,1332.0,-400.0,0.637,0.42,-0.597,0.249
7728726,11031.0,1614.0,-634.0,0.638,0.416,-0.599,0.25
7728742,10941.0,836.0,-768.0,0.639,0.413,-0.599,0.249
7728759,10413.0,1012.0,-420.0,0.64,0.41,-0.599,0.25
7728776,9787.0,1636.0,258.0,0.641,0.409,-0.6,0.25
7728802,10581.0,1410.0,-562.0,0.641,0.406,-0.601,0.251
7728818,11233.0,446.0,-1086.0,0.642,0.404,-0.602,0.251
7728834,11641.0,844.0,-858.0,0.643,0.402,-0.601,0.252
7728850,11367.0,1000.0,-492.0,0.645,0.401,-0.599,0.254
7728866,11297.0,552.0,-336.0,0.646,0.4,-0.599,0.254
7728882,11595.0,246.0,-192.0,0.647,0.401,-0.597,0.253
7728908,11703.0,362.0,-300.0,0.648,0.403,-0.596,0.249
7728925,12017.0,358.0,-478.0,0.649,0.405,-0.595,0.245
7728941,11389.0,438.0,-548.0,0.651,0.409,-0.593,0.241
7728958,9555.0,1460.0,276.0,0.651,0.412,-0.591,0.238
7728975,9651.0,1274.0,48.0,0.649,0.416,-0.592,0.235
7728992,9605.0,974.0,-272.0,0.647,0.419,-0.593,0.232
7729009,9295.0,1382.0,-356.0,0.645,0.422,-0.594,0.23
7729026,9103.0,1560.0,-624.0,0.643,0.425,-0.595,0.227
7729043,8753.0,1142.0,-318.0,0.642,0.427,-0.596,0.225
7729059,8581.0,1078.0,-548.0,0.64,0.429,-0.596,0.223
7729086,8729.0,1534.0,-586.0,0.639,0.432,-0.596,0.222
7729102,9057.0,1820.0,-1146.0,0.639,0.434,-0.595,0.222
7729118,8201.0,1728.0,-494.0,0.64,0.436,-0.593,0.222
7729134,9029.0,1640.0,-1070.0,0.64,0.437,-0.592,0.223
7729150,9903.0,1392.0,-1530.0,0.642,0.436,-0.589,0.227
7729166,9007.0,862.0,-608.0,0.643,0.435,-0.586,0.233
7729192,8049.0,2370.0,294.0,0.641,0.434,-0.585,0.241
7729208,7971.0,1910.0,-388.0,0.638,0.431,-0.588,0.249
7729225,8363.0,814.0,-708.0,0.634,0.428,-0.592,0.254
7729242,8573.0,160.0,-244.0,0.629,0.428,-0.597,0.256
7729259,8555.0,1564.0,-1054.0,0.623,0.429,-0.602,0.257
7729275,9485.0,1648.0,-1398.0,0.618,0.429,-0.605,0.259
7729292,8939.0,1694.0,-998.0,0.615,0.43,-0.608,0.261
7729309,8925.0,1144.0,-848.0,0.611,0.432,-0.609,0.262
7729326,8399.0,1340.0,-420.0,0.608,0.435,-0.61,0.263
7729342,8835.0,1894.0,-1166.0,0.604,0.44,-0.609,0.264
7729369,9065.0,2304.0,-1240.0,0.601,0.445,-0.608,0.266
7729385,7721.0,1968.0,-74.0,0.599,0.45,-0.606,0.268
7729401,7553.0,2696.0,-1172.0,0.594,0.457,-0.605,0.268
7729417,8171.0,4702.0,-826.0,0.59,0.462,-0.605,0.268
7729434,7605.0,3164.0,-946.0,0.587,0.465,-0.607,0.267
7729450,8239.0,2400.0,-1278.0,0.582,0.469,-0.608,0.267
7729466,7907.0,2348.0,-2202.0,0.578,0.473,-0.609,0.267
7729492,7311.0,2774.0,-1870.0,0.576,0.477,-0.607,0.268
7729509,6877.0,3788.0,-1664.0,0.574,0.482,-0.605,0.271
7729526,6291.0,3436.0,-1402.0,0.572,0.484,-0.603,0.274
7729543,6829.0,2960.0,-1822.0,0.571,0.487,-0.6,0.276
7729560,7923.0,2924.0,-3172.0,0.573,0.489,-0.595,0.281
7729576,6405.0,2320.0,-1556.0,0.576,0.491,-0.587,0.289
7729592,6001.0,4272.0,-1460.0,0.58,0.492,-0.578,0.296
7729609,5337.0,3958.0,-1316.0,0.585,0.49,-0.571,0.303
7729625,5917.0,1436.0,-888.0,0.591,0.488,-0.563,0.309
7729652,4955.0,2300.0,-712.0,0.596,0.488,-0.555,0.316
7729668,5003.0,2834.0,-804.0,0.601,0.486,-0.547,0.322
7729685,3839.0,2318.0,-708.0,0.608,0.482,-0.54,0.327
7729701,3411.0,1084.0,-522.0,0.613,0.479,-0.535,0.33
7729717,2975.0,1014.0,780.0,0.617,0.477,-0.53,0.334
7729733,2721.0,2476.0,634.0,0.618,0.476,-0.528,0.336
7729749,3901.0,1712.0,-26.0,0.62,0.473,-0.528,0.337
7729775,3107.0,400.0,240.0,0.622,0.471,-0.528,0.337
7729791,3633.0,802.0,330.0,0.623,0.47,-0.527,0.337
7729808,3367.0,1484.0,312.0,0.624,0.47,-0.527,0.335
7729825,4033.0,1820.0,6.0,0.625,0.469,-0.527,0.334
7729841,5215.0,1096.0,-470.0,0.626,0.468,-0.528,0.332
7729858,4811.0,864.0,26.0,0.628,0.468,-0.528,0.33
7729875,4307.0,3092.0,546.0,0.628,0.468,-0.529,0.327
7729892,5105.0,2658.0,68.0,0.628,0.466,-0.533,0.323
7729908,5995.0,2244.0,-506.0,0.628,0.464,-0.538,0.318
7729935,6741.0,582.0,-920.0,0.629,0.461,-0.542,0.313
7729951,6153.0,1656.0,-380.0,0.629,0.461,-0.545,0.309
7729967,5505.0,3966.0,420.0,0.629,0.46,-0.548,0.305
7729983,6815.0,2598.0,-980.0,0.629,0.457,-0.554,0.298
7729999,7413.0,784.0,-1214.0,0.629,0.454,-0.559,0.293
7730015,6725.0,1284.0,-820.0,0.629,0.454,-0.56,0.289
7730041,7503.0,2506.0,-710.0,0.629,0.456,-0.561,0.285
7730058,5851.0,5372.0,-240.0,0.63,0.456,-0.563,0.281
7730075,6735.0,2958.0,-822.0,0.631,0.452,-0.568,0.274
7730092,7915.0,-170.0,-1340.0,0.631,0.45,-0.573,0.269
7730108,7731.0,1462.0,-1452.0,0.63,0.452,-0.573,0.265
7730125,7305.0,4556.0,-540.0,0.631,0.454,-0.572,0.263
7730142,5471.0,4692.0,-80.0,0.63,0.451,-0.576,0.26
7730158,9299.0,2066.0,-1524.0,0.63,0.448,-0.581,0.255
7730175,7853.0,1446.0,-1128.0,0.63,0.445,-0.585,0.252
7730201,8209.0,1860.0,-772.0,0.628,0.444,-0.588,0.25
7730217,7843.0,2898.0,-982.0,0.625,0.444,-0.591,0.249
7730233,9625.0,4010.0,-1640.0,0.623,0.442,-0.596,0.248
7730249,9667.0,1872.0,-1716.0,0.623,0.437,-0.601,0.247
7730265,7769.0,-592.0,-448.0,0.622,0.434,-0.604,0.246
7730281,7601.0,1278.0,-320.0,0.618,0.435,-0.607,0.243
7730307,8779.0,2660.0,-1362.0,0.614,0.436,-0.612,0.241
7730324,9579.0,2348.0,-2152.0,0.611,0.434,-0.617,0.24
7730341,8931.0,554.0,-1624.0,0.611,0.43,-0.619,0.241
7730357,7443.0,610.0,-918.0,0.61,0.428,-0.621,0.243
7730374,7639.0,2068.0,-872.0,0.608,0.427,-0.623,0.244
7730390,8363.0,1812.0,-1552.0,0.607,0.424,-0.626,0.244
7730407,8299.0,916.0,-1392.0,0.606,0.42,-0.629,0.246
7730424,7721.0,1432.0,-1084.0,0.606,0.417,-0.631,0.246
7730441,7633.0,662.0,-1192.0,0.606,0.414,-0.634,0.246
7730458,8847.0,670.0,-1746.0,0.605,0.412,-0.635,0.247
7730475,8709.0,2078.0,-1984.0,0.607,0.41,-0.634,0.249
7730492,8189.0,1508.0,-1436.0,0.61,0.405,-0.633,0.25
7730519,7205.0,1496.0,-1030.0,0.614,0.402,-0.632,0.25
7730535,7713.0,694.0,-1222.0,0.617,0.398,-0.631,0.249
7730551,8507.0,1010.0,-904.0,0.621,0.394,-0.63,0.249
7730567,7661.0,1198.0,-450.0,0.624,0.391,-0.629,0.251
7730583,7845.0,1124.0,-216.0,0.626,0.387,-0.628,0.253
7730600,7917.0,1506.0,-98.0,0.628,0.383,-0.628,0.256
7730616,9149.0,988.0,-886.0,0.629,0.377,-0.628,0.259
7730642,8269.0,1258.0,-64.0,0.63,0.372,-0.629,0.263
7730658,9405.0,1292.0,16.0,0.63,0.365,-0.631,0.267
7730674,10413.0,876.0,-126.0,0.63,0.357,-0.634,0.271
7730690,10915.0,834.0,-456.0,0.63,0.35,-0.637,0.275
7730707,10513.0,368.0,-376.0,0.63,0.342,-0.64,0.278
7730723,9961.0,-24.0,150.0,0.63,0.336,-0.642,0.281
7730740,10213.0,-558.0,-66.0,0.63,0.331,-0.644,0.282
7730767,10261.0,-476.0,-262.0,0.63,0.329,-0.644,0.281
7730783,10149.0,-136.0,-222.0,0.631,0.328,-0.644,0.281
7730799,9841.0,-128.0,-184.0,0.633,0.327,-0.644,0.28
7730815,10405.0,-164.0,-416.0,0.634,0.327,-0.643,0.28
7730831,10531.0,-174.0,-424.0,0.636,0.327,-0.641,0.279
7730847,10413.0,-126.0,-108.0,0.637,0.327,-0.639,0.28
7730873,10139.0,-54.0,-100.0,0.639,0.328,-0.637,0.28
7730890,10679.0,-132.0,-206.0,0.64,0.329,-0.635,0.28
7730907,11059.0,-350.0,-486.0,0.642,0.329,-0.633,0.28
7730924,10869.0,-552.0,-232.0,0.644,0.331,-0.631,0.278
7730941,10423.0,-664.0,-148.0,0.645,0.335,-0.629,0.276
7730957,10345.0,-934.0,-150.0,0.647,0.339,-0.626,0.274
7730973,10065.0,-230.0,-84.0,0.648,0.345,-0.622,0.271
7730989,10027.0,-124.0,102.0,0.649,0.351,-0.62,0.267
7731015,9999.0,0.0,-328.0,0.649,0.357,-0.617,0.264
7731031,10063.0,-552.0,-476.0,0.65,0.364,-0.615,0.26
7731047,10123.0,-348.0,-580.0,0.65,0.371,-0.611,0.258
7731063,9603.0,572.0,-108.0,0.65,0.379,-0.607,0.256
7731079,9525.0,900.0,-384.0,0.649,0.386,-0.603,0.255
7731095,9647.0,866.0,-92.0,0.649,0.393,-0.6,0.254
7731121,9541.0,730.0,-456.0,0.647,0.4,-0.598,0.252
7731137,9607.0,1556.0,-330.0,0.645,0.407,-0.596,0.251
7731153,10145.0,1812.0,-972.0,0.643,0.413,-0.595,0.248
7731169,10295.0,1292.0,-1294.0,0.642,0.419,-0.594,0.245
7731185,9549.0,1268.0,-1176.0,0.641,0.425,-0.591,0.243
7731201,9131.0,1668.0,-1174.0,0.64,0.431,-0.589,0.241
7731227,9379.0,1762.0,-1152.0,0.64,0.437,-0.586,0.239
7731243,8399.0,1728.0,-1018.0,0.64,0.442,-0.583,0.238
7731259,7977.0,1602.0,-1136.0,0.639,0.447,-0.579,0.237
7731275,8229.0,1912.0,-1318.0,0.64,0.451,-0.575,0.238
7731291,7549.0,2264.0,-952.0,0.64,0.454,-0.572,0.239
7731308,7437.0,1028.0,-794.0,0.64,0.456,-0.569,0.241
7731324,7343.0,1350.0,-982.0,0.639,0.46,-0.567,0.243
7731351,6683.0,2610.0,30.0,0.637,0.463,-0.565,0.245
7731367,4647.0,2660.0,1566.0,0.632,0.466,-0.569,0.245
7731383,4409.0,994.0,690.0,0.621,0.469,-0.579,0.243
7731399,7239.0,404.0,-1094.0,0.608,0.474,-0.592,0.237
7731415,9017.0,1854.0,-2134.0,0.593,0.479,-0.604,0.23
7731431,8769.0,3192.0,-2284.0,0.58,0.481,-0.618,0.225
7731457,10205.0,1344.0,-3220.0,0.569,0.48,-0.63,0.221
7731474,10047.0,524.0,-3268.0,0.56,0.48,-0.639,0.219
7731491,9633.0,2168.0,-2776.0,0.555,0.48,-0.643,0.218
7731508,8731.0,2664.0,-2636.0,0.551,0.48,-0.647,0.218
7731524,9045.0,2106.0,-2722.0,0.551,0.478,-0.648,0.219
7731541,8901.0,2618.0,-3026.0,0.553,0.477,-0.647,0.221
7731558,7633.0,2910.0,-1790.0,0.557,0.474,-0.644,0.224
7731574,7177.0,2498.0,-1814.0,0.561,0.471,-0.642,0.227
7731591,7243.0,2390.0,-1726.0,0.565,0.467,-0.64,0.231
7731608,7019.0,1722.0,-1644.0,0.568,0.464,-0.638,0.235
7731625,7451.0,1670.0,-2136.0,0.571,0.462,-0.634,0.241
7731652,8955.0,3430.0,-3214.0,0.576,0.458,-0.629,0.251
7731668,6987.0,2574.0,-1844.0,0.583,0.451,-0.623,0.262
7731684,5817.0,344.0,-502.0,0.587,0.446,-0.619,0.271
7731700,8143.0,3136.0,-2454.0,0.589,0.444,-0.615,0.278
7731716,6941.0,3062.0,-1918.0,0.593,0.438,-0.612,0.287
7731732,6735.0,1792.0,-1230.0,0.596,0.431,-0.61,0.295
7731758,6235.0,1088.0,330.0,0.597,0.427,-0.608,0.302
7731774,6309.0,2594.0,-206.0,0.595,0.426,-0.608,0.308
7731791,7389.0,1830.0,-756.0,0.593,0.423,-0.609,0.313
7731808,6229.0,1344.0,-12.0,0.591,0.422,-0.609,0.318
7731825,7309.0,1000.0,-558.0,0.589,0.423,-0.609,0.322
7731842,6579.0,1948.0,258.0,0.588,0.424,-0.607,0.326
7731858,4755.0,2496.0,1600.0,0.587,0.425,-0.606,0.328
7731874,5283.0,640.0,-976.0,0.585,0.427,-0.606,0.328
7731900,7445.0,-832.0,-304.0,0.587,0.428,-0.602,0.331
7731916,3099.0,2230.0,752.0,0.588,0.431,-0.596,0.336
7731932,2601.0,3070.0,318.0,0.588,0.432,-0.595,0.338
7731948,2987.0,496.0,-258.0,0.588,0.431,-0.594,0.341
7731964,2191.0,482.0,-152.0,0.587,0.432,-0.592,0.344
7731980,1199.0,1056.0,1222.0,0.586,0.433,-0.591,0.346
7732006,1597.0,1796.0,626.0,0.583,0.436,-0.592,0.346
7732023,2367.0,1926.0,66.0,0.579,0.438,-0.594,0.345
7732040,2633.0,1578.0,-100.0,0.577,0.44,-0.597,0.343
7732056,3299.0,-74.0,-790.0,0.575,0.442,-0.598,0.341
7732073,4739.0,-664.0,-1264.0,0.574,0.447,-0.596,0.34
7732090,4987.0,2532.0,-932.0,0.573,0.454,-0.592,0.34
7732107,4157.0,3792.0,-4.0,0.573,0.458,-0.589,0.338
7732123,5087.0,1870.0,-640.0,0.573,0.461,-0.589,0.335
7732139,6313.0,1274.0,-1632.0,0.571,0.466,-0.589,0.331
7732165,7625.0,2418.0,-2298.0,0.57,0.472,-0.587,0.328
7732181,5639.0,4140.0,30.0,0.571,0.475,-0.586,0.325
7732197,4555.0,3856.0,1024.0,0.568,0.477,-0.59,0.318
7732213,5575.0,2212.0,-1132.0,0.565,0.478,-0.597,0.309
7732229,5095.0,1538.0,-1806.0,0.563,0.481,-0.602,0.3
7732245,7315.0,1750.0,-2148.0,0.562,0.484,-0.604,0.291
7732271,5553.0,1654.0,-2000.0,0.562,0.487,-0.605,0.285
7732287,6975.0,4520.0,-3744.0,0.563,0.489,-0.605,0.28
7732303,8127.0,3376.0,-3172.0,0.568,0.486,-0.604,0.277
7732319,10027.0,1246.0,-3686.0,0.575,0.482,-0.601,0.277
7732335,8117.0,1930.0,-2780.0,0.581,0.48,-0.596,0.278
7732351,6937.0,4380.0,-1866.0,0.586,0.477,-0.594,0.277
7732377,10031.0,3126.0,-2914.0,0.591,0.47,-0.595,0.276
7732393,10945.0,1052.0,-2840.0,0.595,0.463,-0.596,0.275
7732409,9501.0,1448.0,-1726.0,0.6,0.458,-0.596,0.275
7732425,7255.0,3296.0,-450.0,0.6,0.455,-0.598,0.275
7732442,9177.0,3058.0,-1678.0,0.597,0.449,-0.607,0.273
7732458,11763.0,848.0,-2904.0,0.595,0.441,-0.614,0.273
7732484,10593.0,2242.0,-1524.0,0.594,0.435,-0.619,0.274
7732500,10047.0,1996.0,-1534.0,0.593,0.426,-0.625,0.276
7732516,8459.0,38.0,-910.0,0.591,0.418,-0.631,0.279
7732532,9495.0,220.0,-1360.0,0.589,0.413,-0.636,0.28
7732548,10307.0,-22.0,-2022.0,0.587,0.408,-0.64,0.282
7732565,9985.0,190.0,-1682.0,0.586,0.404,-0.642,0.284
7732581,10061.0,1150.0,-1468.0,0.587,0.399,-0.644,0.286
7732607,9753.0,650.0,-1538.0,0.589,0.392,-0.645,0.288
7732623,11295.0,-828.0,-2118.0,0.591,0.386,-0.646,0.29
7732639,11587.0,-1788.0,-2132.0,0.595,0.381,-0.644,0.293
7732655,10209.0,-42.0,-1134.0,0.599,0.379,-0.641,0.294
7732672,10039.0,868.0,-532.0,0.603,0.376,-0.64,0.293
7732689,10237.0,322.0,-522.0,0.607,0.372,-0.641,0.288
7732706,11729.0,-1838.0,-1790.0,0.609,0.368,-0.643,0.282
7732723,10601.0,-2266.0,-1086.0,0.612,0.368,-0.643,0.277
7732740,8771.0,308.0,-468.0,0.614,0.37,-0.642,0.273
7732767,9703.0,1580.0,-572.0,0.614,0.369,-0.644,0.268
7732783,9873.0,6.0,-1026.0,0.615,0.367,-0.647,0.261
7732799,10271.0,-1398.0,-1640.0,0.617,0.366,-0.647,0.256
7732815,10193.0,-692.0,-1526.0,0.62,0.367,-0.645,0.253
7732831,9201.0,848.0,-774.0,0.624,0.369,-0.642,0.25
7732847,9693.0,742.0,-632.0,0.628,0.369,-0.64,0.246
7732873,9777.0,408.0,-494.0,0.631,0.368,-0.638,0.243
7732889,10019.0,298.0,-990.0,0.633,0.368,-0.637,0.242
7732906,9773.0,688.0,-400.0,0.635,0.368,-0.635,0.241
7732922,9851.0,506.0,-318.0,0.636,0.367,-0.635,0.24
7732939,10261.0,-20.0,-208.0,0.638,0.366,-0.634,0.238
7732956,9949.0,-472.0,-404.0,0.639,0.367,-0.634,0.235
7732972,10717.0,-392.0,-154.0,0.641,0.368,-0.633,0.23
7732989,10971.0,558.0,-1334.0,0.642,0.37,-0.632,0.226
7733006,11009.0,-880.0,-1460.0,0.647,0.371,-0.629,0.222
7733023,10875.0,-32.0,-868.0,0.652,0.374,-0.623,0.217
7733050,10129.0,692.0,-236.0,0.658,0.376,-0.616,0.213
7733066,9583.0,368.0,520.0,0.664,0.378,-0.61,0.211
7733082,9029.0,864.0,754.0,0.669,0.38,-0.603,0.209
7733098,8979.0,1092.0,944.0,0.674,0.381,-0.598,0.207
7733114,8413.0,966.0,1102.0,0.677,0.381,-0.595,0.206
7733130,8487.0,1456.0,994.0,0.679,0.381,-0.593,0.204
7733156,8517.0,946.0,824.0,0.681,0.381,-0.591,0.204
7733173,8411.0,808.0,574.0,0.681,0.382,-0.591,0.204
7733190,8591.0,1386.0,228.0,0.681,0.382,-0.59,0.204
7733206,8569.0,1394.0,458.0,0.681,0.383,-0.59,0.205
7733222,8859.0,1776.0,264.0,0.679,0.385,-0.59,0.206
7733238,8351.0,1304.0,222.0,0.676,0.386,-0.592,0.209
7733254,8387.0,1282.0,-64.0,0.672,0.388,-0.594,0.213
7733280,8509.0,582.0,-786.0,0.666,0.392,-0.596,0.219
7733297,8981.0,274.0,-1440.0,0.659,0.398,-0.598,0.223
7733313,5993.0,2296.0,1546.0,0.651,0.404,-0.602,0.224
7733329,7331.0,3096.0,-370.0,0.64,0.408,-0.611,0.225
7733345,8517.0,510.0,-1160.0,0.628,0.41,-0.622,0.225
7733362,8363.0,324.0,-1892.0,0.617,0.413,-0.631,0.227
7733378,9133.0,358.0,-1902.0,0.607,0.417,-0.636,0.23
7733404,8797.0,1886.0,-2090.0,0.598,0.421,-0.64,0.235
7733420,9339.0,2184.0,-2508.0,0.592,0.424,-0.641,0.24
7733436,9139.0,538.0,-2708.0,0.589,0.426,-0.641,0.247
7733452,9213.0,1594.0,-2414.0,0.585,0.431,-0.638,0.255
7733469,9309.0,3468.0,-2574.0,0.584,0.434,-0.634,0.263
7733485,8595.0,2690.0,-2090.0,0.585,0.435,-0.629,0.27
7733501,7915.0,594.0,-1732.0,0.584,0.437,-0.625,0.276
7733527,7595.0,944.0,-1700.0,0.584,0.443,-0.62,0.282
7733543,7297.0,3096.0,-1764.0,0.584,0.448,-0.614,0.286
7733559,8117.0,2590.0,-2412.0,0.585,0.452,-0.608,0.29
7733575,7933.0,1570.0,-1894.0,0.588,0.454,-0.601,0.294
7733591,7557.0,1174.0,-1622.0,0.589,0.459,-0.593,0.3
7733608,6947.0,3144.0,-1742.0,0.59,0.465,-0.586,0.305
7733634,7465.0,3858.0,-2084.0,0.591,0.468,-0.581,0.308
7733651,7203.0,2514.0,-1368.0,0.593,0.468,-0.576,0.311
7733667,7335.0,1462.0,-1350.0,0.594,0.47,-0.572,0.316
7733683,7005.0,2946.0,-1440.0,0.593,0.473,-0.567,0.321
7733699,7925.0,4114.0,-1272.0,0.593,0.474,-0.564,0.324
7733715,7147.0,2332.0,-660.0,0.594,0.474,-0.562,0.327
7733731,8069.0,1242.0,-1570.0,0.593,0.476,-0.559,0.331
7733757,7967.0,1460.0,-1596.0,0.592,0.479,-0.554,0.336
7733774,7753.0,4400.0,-296.0,0.593,0.484,-0.547,0.339
7733790,8127.0,4896.0,-866.0,0.596,0.483,-0.544,0.339
7733806,9267.0,1954.0,-1542.0,0.601,0.481,-0.541,0.339
7733822,7255.0,2120.0,1732.0,0.603,0.482,-0.537,0.341
7733838,7729.0,5080.0,240.0,0.603,0.482,-0.536,0.34
7733864,7517.0,1996.0,600.0,0.603,0.48,-0.539,0.339
7733880,6801.0,2192.0,224.0,0.603,0.479,-0.542,0.337
7733896,5833.0,2448.0,172.0,0.601,0.478,-0.545,0.335
7733912,5027.0,2050.0,598.0,0.601,0.475,-0.55,0.333
7733928,3913.0,980.0,474.0,0.6,0.472,-0.555,0.331
7733944,2953.0,1872.0,512.0,0.598,0.47,-0.559,0.33
7733970,2539.0,1590.0,590.0,0.596,0.466,-0.565,0.329
7733987,1209.0,-742.0,2226.0,0.594,0.462,-0.569,0.332
7734004,2037.0,172.0,1168.0,0.59,0.462,-0.571,0.337
7734021,2595.0,198.0,488.0,0.586,0.462,-0.571,0.341
7734037,2677.0,1892.0,598.0,0.585,0.462,-0.572,0.343
7734053,3163.0,520.0,458.0,0.584,0.461,-0.573,0.344
7734070,4081.0,84.0,-4.0,0.583,0.461,-0.574,0.344
7734086,5369.0,942.0,-1228.0,0.582,0.463,-0.573,0.344
7734112,4867.0,2044.0,-264.0,0.585,0.464,-0.572,0.34
7734128,5619.0,1968.0,-280.0,0.586,0.465,-0.572,0.337
7734144,7097.0,926.0,-1416.0,0.587,0.466,-0.573,0.333
7734160,6869.0,1450.0,-1006.0,0.588,0.468,-0.572,0.328
7734176,7529.0,3524.0,-1190.0,0.592,0.469,-0.573,0.319
7734193,7885.0,2190.0,-1584.0,0.596,0.467,-0.574,0.311
7734209,8111.0,208.0,-1220.0,0.601,0.466,-0.574,0.303
7734235,7477.0,1256.0,-630.0,0.606,0.467,-0.572,0.296
7734252,7277.0,3670.0,-768.0,0.611,0.467,-0.57,0.288
7734268,7827.0,2442.0,-1292.0,0.617,0.464,-0.57,0.28
7734284,8813.0,874.0,-2256.0,0.625,0.462,-0.567,0.273
7734300,7203.0,2584.0,-610.0,0.633,0.462,-0.562,0.266
7734316,7195.0,3210.0,-628.0,0.64,0.461,-0.558,0.258
7734342,7845.0,4034.0,-740.0,0.647,0.458,-0.555,0.251
7734358,7389.0,3272.0,-604.0,0.652,0.455,-0.555,0.246
7734374,8003.0,1884.0,-1394.0,0.656,0.452,-0.555,0.24
7734390,6549.0,2998.0,110.0,0.66,0.45,-0.554,0.233
7734406,7443.0,3690.0,-56.0,0.662,0.448,-0.556,0.225
7734422,7213.0,2630.0,-544.0,0.664,0.446,-0.559,0.219
7734439,7133.0,3132.0,-1312.0,0.665,0.443,-0.562,0.214
7734466,7315.0,2320.0,-1288.0,0.667,0.44,-0.564,0.209
7734482,7097.0,1764.0,-258.0,0.669,0.439,-0.564,0.205
7734498,7181.0,3478.0,-436.0,0.67,0.437,-0.565,0.202
7734514,7217.0,3034.0,-638.0,0.671,0.434,-0.566,0.201
7734530,7025.0,2446.0,-680.0,0.672,0.431,-0.568,0.199
7734546,7541.0,1670.0,-544.0,0.674,0.428,-0.569,0.197
7734572,6937.0,2148.0,20.0,0.674,0.427,-0.57,0.196
7734588,7725.0,3298.0,-308.0,0.673,0.426,-0.571,0.198
7734605,8651.0,2970.0,-1234.0,0.672,0.425,-0.572,0.203
7734621,7497.0,2348.0,-358.0,0.671,0.423,-0.572,0.208
7734638,6497.0,1268.0,274.0,0.671,0.422,-0.572,0.212
7734655,6291.0,2448.0,242.0,0.67,0.423,-0.572,0.214
7734672,6919.0,2938.0,214.0,0.668,0.423,-0.573,0.216
7734689,7735.0,2378.0,-486.0,0.666,0.422,-0.575,0.219
7734706,7727.0,1682.0,-416.0,0.664,0.421,-0.577,0.221
7734723,7791.0,1420.0,-94.0,0.663,0.421,-0.578,0.223
7734740,8533.0,2300.0,-248.0,0.661,0.421,-0.579,0.226
7734766,9515.0,3556.0,-862.0,0.658,0.419,-0.58,0.232
7734782,9493.0,2244.0,-112.0,0.656,0.415,-0.583,0.24
7734798,8555.0,1776.0,342.0,0.653,0.411,-0.585,0.248
7734814,7337.0,2154.0,784.0,0.649,0.406,-0.59,0.255
7734830,9205.0,1702.0,56.0,0.645,0.4,-0.596,0.261
7734846,10201.0,604.0,-1060.0,0.642,0.393,-0.601,0.268
7734872,9809.0,1692.0,60.0,0.637,0.387,-0.606,0.279
7734889,9111.0,2464.0,840.0,0.631,0.379,-0.612,0.291
7734905,11111.0,1118.0,94.0,0.624,0.368,-0.62,0.301
7734922,11437.0,-192.0,-216.0,0.619,0.359,-0.627,0.308
7734939,11325.0,122.0,-534.0,0.615,0.353,-0.632,0.312
7734955,12105.0,586.0,-918.0,0.613,0.347,-0.636,0.314
7734971,11639.0,-474.0,-1084.0,0.614,0.342,-0.638,0.316
7734988,10639.0,-1548.0,-698.0,0.617,0.34,-0.636,0.316
7735015,10021.0,-1058.0,-84.0,0.62,0.34,-0.633,0.315
7735031,9597.0,338.0,178.0,0.623,0.341,-0.631,0.313
7735047,10107.0,1048.0,-30.0,0.626,0.34,-0.629,0.311
7735063,10393.0,48.0,-424.0,0.628,0.338,-0.629,0.308
7735079,10307.0,-804.0,-162.0,0.631,0.336,-0.628,0.306
7735095,10165.0,-514.0,158.0,0.633,0.335,-0.628,0.304
