timeMs,ax,ay,az,q0,q1,q2,q3
3894750,8024.0,248.0,-1620.0,0.531,0.409,-0.662,0.335
3894767,8060.0,152.0,-1660.0,0.531,0.407,-0.664,0.334
3894784,8090.0,-46.0,-1660.0,0.531,0.405,-0.665,0.333
3894801,8358.0,32.0,-1726.0,0.532,0.403,-0.666,0.332
3894817,8534.0,-8.0,-1702.0,0.532,0.402,-0.667,0.331
3894833,8606.0,-232.0,-1724.0,0.533,0.4,-0.668,0.33
3894860,8920.0,-504.0,-1882.0,0.534,0.399,-0.669,0.329
3894876,9012.0,-288.0,-1802.0,0.535,0.398,-0.669,0.329
3894892,9046.0,-496.0,-1806.0,0.536,0.397,-0.669,0.328
3894908,8810.0,-794.0,-1800.0,0.537,0.397,-0.669,0.326
3894924,8710.0,-752.0,-1686.0,0.538,0.397,-0.668,0.325
3894940,8898.0,-630.0,-1762.0,0.539,0.398,-0.668,0.324
3894966,9028.0,-496.0,-1804.0,0.54,0.399,-0.667,0.322
3894983,9100.0,-520.0,-1870.0,0.541,0.4,-0.667,0.321
3895000,9546.0,-1022.0,-1978.0,0.542,0.402,-0.666,0.32
3895017,9912.0,-966.0,-2020.0,0.543,0.403,-0.664,0.319
3895034,10158.0,-724.0,-2134.0,0.545,0.405,-0.661,0.318
3895051,10264.0,-712.0,-2136.0,0.548,0.406,-0.658,0.319
3895068,10326.0,-684.0,-2098.0,0.55,0.408,-0.655,0.319
3895085,10566.0,-500.0,-2076.0,0.553,0.41,-0.651,0.319
3895102,10784.0,-638.0,-2266.0,0.555,0.412,-0.648,0.319
3895119,11184.0,-300.0,-2326.0,0.558,0.415,-0.644,0.319
3895136,11630.0,-426.0,-2476.0,0.561,0.418,-0.639,0.319
3895153,11452.0,-780.0,-2234.0,0.564,0.422,-0.634,0.318
3895180,10960.0,-810.0,-2176.0,0.567,0.427,-0.629,0.317
3895197,10924.0,-158.0,-2112.0,0.57,0.433,-0.623,0.315
3895214,10736.0,-114.0,-2188.0,0.572,0.44,-0.618,0.313
3895230,10498.0,-236.0,-2254.0,0.575,0.446,-0.612,0.311
3895246,10038.0,302.0,-2216.0,0.577,0.452,-0.606,0.309
3895262,10268.0,352.0,-2384.0,0.579,0.458,-0.6,0.308
3895278,9716.0,164.0,-2228.0,0.581,0.463,-0.595,0.306
3895294,9310.0,172.0,-2220.0,0.583,0.469,-0.589,0.306
3895320,8992.0,914.0,-2120.0,0.585,0.474,-0.583,0.306
3895337,8858.0,908.0,-2096.0,0.587,0.478,-0.577,0.306
3895353,8568.0,498.0,-1946.0,0.588,0.482,-0.573,0.307
3895369,8690.0,722.0,-1968.0,0.588,0.486,-0.568,0.308
3895386,8484.0,866.0,-1708.0,0.588,0.49,-0.563,0.31
3895403,8436.0,1116.0,-1506.0,0.587,0.494,-0.56,0.312
3895419,8300.0,1492.0,-1386.0,0.585,0.498,-0.557,0.315
3895436,8214.0,1132.0,-1378.0,0.583,0.502,-0.555,0.317
3895453,8092.0,1706.0,-1338.0,0.579,0.505,-0.553,0.321
3895480,8518.0,1810.0,-1400.0,0.576,0.507,-0.553,0.325
3895496,8856.0,1616.0,-1586.0,0.572,0.509,-0.552,0.33
3895513,8872.0,1850.0,-1602.0,0.569,0.509,-0.551,0.335
3895529,8062.0,1804.0,-1222.0,0.566,0.51,-0.551,0.341
3895545,7898.0,1754.0,-1220.0,0.563,0.51,-0.551,0.347
3895561,8296.0,1784.0,-1428.0,0.56,0.509,-0.551,0.354
3895577,8470.0,1810.0,-1358.0,0.557,0.507,-0.55,0.361
3895603,8146.0,1720.0,-1348.0,0.554,0.503,-0.55,0.37
3895620,7958.0,1820.0,-1272.0,0.552,0.5,-0.55,0.378
3895640,7862.0,1528.0,-1452.0,0.549,0.497,-0.549,0.387
3895656,7566.0,1868.0,-1258.0,0.546,0.493,-0.549,0.397
3895672,7364.0,1456.0,-1344.0,0.542,0.49,-0.548,0.406
3895688,6920.0,974.0,-1344.0,0.538,0.488,-0.547,0.416
3895704,7112.0,2168.0,-1458.0,0.535,0.486,-0.545,0.425
3895720,5800.0,1214.0,-740.0,0.53,0.486,-0.542,0.435
3895736,5654.0,1942.0,-922.0,0.525,0.486,-0.54,0.444
3895762,6122.0,1934.0,-890.0,0.518,0.485,-0.537,0.455
3895778,6022.0,1978.0,-662.0,0.512,0.485,-0.534,0.466
3895794,6032.0,1702.0,-270.0,0.506,0.485,-0.53,0.478
3895810,5762.0,1704.0,-48.0,0.498,0.486,-0.526,0.489
3895826,5602.0,1606.0,274.0,0.49,0.488,-0.52,0.501
3895842,5624.0,1632.0,272.0,0.482,0.489,-0.514,0.513
3895868,5310.0,2562.0,502.0,0.475,0.491,-0.508,0.525
3895884,5612.0,2218.0,344.0,0.469,0.491,-0.502,0.536
3895900,5212.0,2262.0,1538.0,0.463,0.492,-0.495,0.546
3895916,4460.0,2034.0,1128.0,0.457,0.493,-0.489,0.555
3895932,4178.0,1646.0,1326.0,0.451,0.495,-0.486,0.562
3895948,5284.0,1316.0,744.0,0.446,0.496,-0.482,0.568
3895974,4952.0,1948.0,818.0,0.444,0.497,-0.477,0.573
3895990,5120.0,1528.0,512.0,0.443,0.498,-0.473,0.577
3896006,4382.0,2182.0,918.0,0.443,0.498,-0.47,0.579
3896022,4474.0,2146.0,1074.0,0.444,0.499,-0.468,0.579
3896038,4986.0,1590.0,794.0,0.446,0.5,-0.467,0.577
3896064,4776.0,1952.0,918.0,0.449,0.501,-0.467,0.574
3896080,4782.0,1924.0,1020.0,0.452,0.502,-0.468,0.569
3896096,5000.0,2002.0,994.0,0.456,0.504,-0.47,0.563
3896113,5348.0,1828.0,758.0,0.461,0.505,-0.473,0.556
3896129,5670.0,1192.0,590.0,0.465,0.506,-0.477,0.548
3896145,5960.0,894.0,346.0,0.471,0.507,-0.479,0.54
3896161,5560.0,1720.0,226.0,0.477,0.508,-0.482,0.531
3896187,5446.0,1282.0,246.0,0.483,0.508,-0.487,0.521
3896203,6000.0,622.0,-138.0,0.489,0.51,-0.49,0.511
3896219,4996.0,1470.0,-264.0,0.494,0.512,-0.493,0.501
3896235,6064.0,1818.0,-658.0,0.5,0.513,-0.496,0.49
3896251,5394.0,1946.0,-532.0,0.506,0.514,-0.5,0.479
3896267,6228.0,1024.0,-954.0,0.511,0.515,-0.504,0.468
3896293,6076.0,458.0,-992.0,0.516,0.518,-0.507,0.456
3896309,6288.0,1422.0,-1400.0,0.522,0.522,-0.509,0.444
3896325,6068.0,1810.0,-1138.0,0.527,0.524,-0.511,0.432
3896341,5768.0,1518.0,-1506.0,0.532,0.527,-0.513,0.42
3896357,5714.0,2624.0,-1780.0,0.536,0.529,-0.516,0.408
3896373,8528.0,1056.0,-2550.0,0.54,0.531,-0.518,0.397
3896399,5842.0,1764.0,-1256.0,0.544,0.534,-0.519,0.386
3896416,6154.0,1814.0,-1700.0,0.546,0.538,-0.522,0.373
3896433,7638.0,2358.0,-1836.0,0.548,0.542,-0.525,0.361
3896449,7622.0,2998.0,-1780.0,0.548,0.545,-0.53,0.349
3896465,10306.0,1018.0,-3310.0,0.55,0.546,-0.534,0.339
3896481,8588.0,1020.0,-2192.0,0.552,0.547,-0.535,0.33
3896497,8028.0,1930.0,-2074.0,0.554,0.549,-0.537,0.322
3896523,8144.0,1968.0,-2118.0,0.555,0.55,-0.54,0.313
3896539,8630.0,1236.0,-1974.0,0.556,0.549,-0.544,0.305
3896555,9276.0,562.0,-2330.0,0.556,0.549,-0.548,0.298
3896571,9786.0,718.0,-2352.0,0.557,0.549,-0.55,0.293
3896587,8718.0,658.0,-2166.0,0.559,0.547,-0.552,0.29
3896603,9438.0,1330.0,-2168.0,0.561,0.545,-0.553,0.288
3896629,9178.0,746.0,-2034.0,0.563,0.541,-0.555,0.287
3896645,10030.0,502.0,-2280.0,0.564,0.538,-0.557,0.287
3896661,8872.0,852.0,-1894.0,0.565,0.535,-0.559,0.289
3896677,8356.0,596.0,-1550.0,0.564,0.531,-0.562,0.291
3896693,10116.0,-166.0,-2252.0,0.562,0.528,-0.564,0.294
3896719,10378.0,732.0,-2396.0,0.561,0.524,-0.566,0.299
3896735,9770.0,1306.0,-1922.0,0.561,0.52,-0.568,0.306
3896751,8708.0,1170.0,-1548.0,0.559,0.513,-0.571,0.313
3896767,9466.0,-558.0,-1558.0,0.557,0.508,-0.574,0.32
3896783,10580.0,1008.0,-2276.0,0.554,0.503,-0.577,0.328
3896799,10946.0,1238.0,-2062.0,0.552,0.496,-0.579,0.338
3896826,10910.0,990.0,-1938.0,0.55,0.489,-0.581,0.348
3896842,11344.0,1044.0,-1926.0,0.547,0.482,-0.583,0.358
3896858,11582.0,746.0,-1748.0,0.545,0.476,-0.585,0.367
3896874,11638.0,-876.0,-1990.0,0.542,0.472,-0.586,0.374
3896890,11146.0,-6.0,-1838.0,0.539,0.471,-0.585,0.381
3896906,10200.0,1220.0,-1498.0,0.536,0.471,-0.584,0.387
3896922,9818.0,936.0,-1186.0,0.533,0.471,-0.585,0.39
3896948,10654.0,264.0,-1614.0,0.529,0.472,-0.587,0.392
3896965,11040.0,-166.0,-1684.0,0.526,0.473,-0.588,0.394
3896982,11390.0,-440.0,-1670.0,0.523,0.474,-0.588,0.395
3896999,11714.0,2.0,-1770.0,0.521,0.477,-0.586,0.396
3897016,11904.0,-42.0,-2012.0,0.521,0.479,-0.584,0.397
3897033,11634.0,-434.0,-1950.0,0.521,0.482,-0.582,0.398
3897050,11846.0,-456.0,-1960.0,0.521,0.485,-0.579,0.397
3897067,11106.0,-1196.0,-1450.0,0.52,0.49,-0.577,0.395
3897084,11460.0,-866.0,-1688.0,0.519,0.498,-0.575,0.391
3897101,12236.0,-724.0,-2172.0,0.517,0.506,-0.573,0.386
3897118,11960.0,-372.0,-1958.0,0.515,0.513,-0.571,0.381
3897135,11768.0,-76.0,-1932.0,0.513,0.521,-0.569,0.376
3897152,11722.0,206.0,-1962.0,0.511,0.527,-0.568,0.371
3897179,11808.0,-98.0,-2154.0,0.51,0.533,-0.567,0.366
3897196,11732.0,-76.0,-2198.0,0.509,0.539,-0.565,0.361
3897212,11562.0,300.0,-2250.0,0.509,0.545,-0.563,0.357
3897228,10600.0,390.0,-2038.0,0.509,0.551,-0.56,0.352
3897245,9836.0,528.0,-1994.0,0.508,0.556,-0.558,0.348
3897262,9508.0,672.0,-1838.0,0.508,0.562,-0.556,0.342
3897279,9904.0,1010.0,-2380.0,0.507,0.568,-0.554,0.337
3897296,9974.0,968.0,-2446.0,0.506,0.574,-0.552,0.332
3897313,9346.0,1154.0,-2372.0,0.505,0.579,-0.55,0.327
3897330,8952.0,1376.0,-2638.0,0.504,0.585,-0.548,0.323
3897347,8670.0,1500.0,-2714.0,0.502,0.59,-0.547,0.319
3897364,8926.0,1910.0,-3136.0,0.5,0.594,-0.545,0.317
3897391,8472.0,1694.0,-3030.0,0.499,0.596,-0.544,0.316
3897407,8222.0,1354.0,-3058.0,0.498,0.598,-0.542,0.317
3897423,8004.0,1772.0,-2940.0,0.496,0.6,-0.541,0.318
3897439,7756.0,1570.0,-2856.0,0.495,0.601,-0.54,0.32
3897455,7690.0,1696.0,-2966.0,0.494,0.602,-0.538,0.323
3897472,7406.0,1832.0,-3006.0,0.494,0.601,-0.537,0.327
3897488,6544.0,2096.0,-2716.0,0.494,0.599,-0.536,0.332
3897515,6720.0,1676.0,-2772.0,0.493,0.597,-0.535,0.338
3897532,6876.0,1598.0,-2796.0,0.493,0.594,-0.534,0.345
3897549,7076.0,1718.0,-2930.0,0.494,0.591,-0.532,0.352
3897566,6900.0,2358.0,-2850.0,0.496,0.587,-0.528,0.361
3897582,6180.0,1814.0,-2708.0,0.499,0.582,-0.524,0.372
3897599,5174.0,1900.0,-2200.0,0.501,0.577,-0.52,0.382
3897616,5456.0,2018.0,-2110.0,0.502,0.573,-0.516,0.392
3897633,4544.0,1366.0,-1448.0,0.501,0.57,-0.512,0.403
3897650,4630.0,1976.0,-1316.0,0.499,0.567,-0.508,0.414
3897667,4094.0,2216.0,-1070.0,0.497,0.564,-0.504,0.425
3897684,3894.0,1680.0,-860.0,0.494,0.561,-0.5,0.437
3897701,4076.0,1102.0,-776.0,0.49,0.56,-0.496,0.448
3897718,3776.0,2052.0,-530.0,0.485,0.559,-0.491,0.46
3897745,3064.0,1970.0,-104.0,0.48,0.558,-0.486,0.472
3897762,2974.0,2246.0,-42.0,0.473,0.557,-0.483,0.482
3897779,3520.0,1794.0,-366.0,0.467,0.557,-0.48,0.492
3897796,4058.0,2072.0,-334.0,0.462,0.557,-0.475,0.501
3897813,4044.0,2460.0,-124.0,0.457,0.558,-0.472,0.507
3897829,4242.0,2248.0,190.0,0.452,0.559,-0.469,0.513
3897845,4910.0,2014.0,446.0,0.447,0.561,-0.468,0.516
3897862,5314.0,1874.0,392.0,0.443,0.563,-0.467,0.518
3897878,6020.0,1902.0,294.0,0.439,0.566,-0.466,0.519
3897895,5774.0,2744.0,566.0,0.437,0.568,-0.467,0.518
3897922,6964.0,1754.0,148.0,0.436,0.57,-0.468,0.516
3897939,6652.0,2770.0,322.0,0.435,0.572,-0.47,0.513
3897955,6838.0,2454.0,300.0,0.436,0.572,-0.472,0.509
3897971,6912.0,2236.0,164.0,0.437,0.573,-0.476,0.505
3897987,6824.0,2126.0,108.0,0.44,0.572,-0.479,0.499
3898003,6826.0,2250.0,-254.0,0.443,0.572,-0.483,0.494
3898019,6794.0,1460.0,-604.0,0.447,0.57,-0.486,0.489
3898045,6102.0,2184.0,-374.0,0.451,0.569,-0.489,0.482
3898062,6300.0,1458.0,-682.0,0.456,0.568,-0.493,0.476
3898079,6152.0,1058.0,-632.0,0.461,0.567,-0.496,0.469
3898095,6154.0,1246.0,-1082.0,0.465,0.566,-0.499,0.462
3898112,6214.0,1288.0,-1060.0,0.469,0.566,-0.503,0.455
3898129,5800.0,814.0,-1096.0,0.472,0.565,-0.506,0.448
3898145,5890.0,790.0,-1340.0,0.475,0.565,-0.51,0.441
3898161,5776.0,500.0,-1554.0,0.477,0.567,-0.513,0.433
3898187,5030.0,852.0,-1368.0,0.479,0.569,-0.516,0.426
3898203,5188.0,1028.0,-1574.0,0.479,0.571,-0.519,0.418
3898219,5012.0,1136.0,-1538.0,0.479,0.574,-0.522,0.41
3898235,5696.0,720.0,-2002.0,0.48,0.576,-0.525,0.403
3898252,5014.0,780.0,-1826.0,0.481,0.579,-0.526,0.396
3898268,4422.0,1660.0,-1788.0,0.482,0.582,-0.527,0.389
3898295,5494.0,1132.0,-1982.0,0.483,0.584,-0.528,0.383
3898312,5608.0,1458.0,-2318.0,0.484,0.586,-0.529,0.377
3898328,5628.0,1136.0,-2180.0,0.486,0.588,-0.529,0.372
3898345,6194.0,1240.0,-2620.0,0.488,0.59,-0.528,0.367
3898361,6380.0,2088.0,-2668.0,0.49,0.591,-0.528,0.363
3898377,6826.0,2506.0,-2552.0,0.491,0.592,-0.53,0.358
3898393,7698.0,836.0,-2720.0,0.492,0.592,-0.531,0.353
3898409,7344.0,1246.0,-2478.0,0.494,0.593,-0.531,0.349
3898435,7658.0,3122.0,-2616.0,0.496,0.594,-0.53,0.345
3898452,7798.0,2584.0,-2386.0,0.498,0.593,-0.533,0.341
3898468,9670.0,1890.0,-2948.0,0.499,0.592,-0.535,0.337
3898484,10076.0,1620.0,-3060.0,0.501,0.59,-0.537,0.335
3898500,9162.0,1734.0,-2600.0,0.504,0.588,-0.538,0.333
3898516,8806.0,1768.0,-2478.0,0.506,0.586,-0.539,0.331
3898534,7536.0,2056.0,-1870.0,0.509,0.583,-0.542,0.329
3898551,8836.0,706.0,-2060.0,0.51,0.579,-0.546,0.327
3898568,9968.0,668.0,-2760.0,0.511,0.575,-0.549,0.327
3898595,9158.0,1360.0,-2306.0,0.514,0.569,-0.551,0.329
3898611,9120.0,1712.0,-1772.0,0.517,0.56,-0.555,0.333
3898628,10162.0,-610.0,-1730.0,0.518,0.55,-0.561,0.339
3898644,12378.0,-1374.0,-2676.0,0.519,0.539,-0.565,0.347
3898661,14350.0,-686.0,-4134.0,0.522,0.528,-0.565,0.36
3898678,11926.0,46.0,-3008.0,0.525,0.515,-0.563,0.377
3898695,8880.0,248.0,-1208.0,0.527,0.503,-0.563,0.391
3898712,9346.0,916.0,-1154.0,0.525,0.493,-0.566,0.4
3898728,9900.0,-230.0,-1192.0,0.522,0.486,-0.572,0.405
3898754,11660.0,-1918.0,-1846.0,0.519,0.482,-0.577,0.408
3898770,12046.0,-1060.0,-2064.0,0.516,0.482,-0.577,0.41
3898786,11812.0,-254.0,-1684.0,0.515,0.484,-0.576,0.411
3898802,11742.0,-692.0,-1486.0,0.513,0.486,-0.575,0.412
3898819,11796.0,304.0,-1704.0,0.511,0.49,-0.574,0.412
3898835,11876.0,436.0,-1764.0,0.509,0.491,-0.575,0.411
3898851,11370.0,-754.0,-1530.0,0.508,0.493,-0.576,0.409
3898878,11196.0,-1116.0,-1504.0,0.507,0.495,-0.577,0.406
3898894,11696.0,-260.0,-1722.0,0.505,0.499,-0.577,0.403
3898910,11326.0,-132.0,-1578.0,0.505,0.502,-0.578,0.399
3898926,11476.0,-2592.0,-1260.0,0.505,0.505,-0.579,0.394
3898942,12024.0,-1454.0,-1890.0,0.505,0.512,-0.577,0.388
3898968,11984.0,542.0,-1840.0,0.504,0.517,-0.576,0.383
3898985,12012.0,-144.0,-2160.0,0.505,0.522,-0.575,0.377
3899002,11830.0,-106.0,-2110.0,0.505,0.527,-0.574,0.372
3899019,12102.0,606.0,-2552.0,0.506,0.532,-0.572,0.367
3899035,11104.0,786.0,-2190.0,0.506,0.536,-0.571,0.361
3899051,12166.0,1264.0,-3108.0,0.506,0.541,-0.57,0.355
3899068,12064.0,1852.0,-3164.0,0.506,0.546,-0.569,0.349
3899084,10992.0,942.0,-2814.0,0.507,0.551,-0.568,0.342
3899101,10022.0,926.0,-2750.0,0.506,0.557,-0.568,0.333
3899118,9426.0,1690.0,-2826.0,0.504,0.564,-0.568,0.324
3899135,8954.0,1740.0,-2950.0,0.501,0.57,-0.57,0.315
3899161,9410.0,1510.0,-3198.0,0.499,0.576,-0.571,0.306
3899177,8918.0,2204.0,-3226.0,0.497,0.581,-0.572,0.299
3899194,8606.0,1004.0,-3164.0,0.495,0.585,-0.572,0.292
3899210,8598.0,2178.0,-3258.0,0.494,0.59,-0.571,0.287
3899227,7774.0,1992.0,-3002.0,0.493,0.593,-0.571,0.282
3899243,7412.0,1356.0,-2832.0,0.492,0.596,-0.571,0.278
3899259,7742.0,1480.0,-3012.0,0.492,0.598,-0.57,0.274
3899285,7584.0,2168.0,-2802.0,0.492,0.6,-0.569,0.272
3899302,7702.0,936.0,-2776.0,0.493,0.6,-0.569,0.271
3899318,7404.0,1728.0,-2666.0,0.493,0.601,-0.568,0.27
3899334,6830.0,1874.0,-2546.0,0.494,0.601,-0.567,0.27
3899351,6946.0,1456.0,-2634.0,0.495,0.601,-0.567,0.271
3899368,7324.0,2338.0,-2918.0,0.496,0.6,-0.566,0.272
3899385,6812.0,2314.0,-2846.0,0.498,0.597,-0.565,0.276
3899401,6774.0,1976.0,-2816.0,0.501,0.594,-0.563,0.281
3899418,6258.0,2784.0,-2750.0,0.503,0.591,-0.562,0.287
3899435,5672.0,2174.0,-2656.0,0.505,0.587,-0.561,0.294
3899462,5892.0,2100.0,-2554.0,0.506,0.583,-0.559,0.301
3899478,5922.0,2336.0,-2670.0,0.506,0.58,-0.558,0.309
3899494,5968.0,1958.0,-2718.0,0.506,0.577,-0.556,0.318
3899510,5424.0,2206.0,-2534.0,0.505,0.574,-0.555,0.328
3899526,4816.0,1802.0,-2134.0,0.503,0.571,-0.553,0.339
3899542,4766.0,1216.0,-1948.0,0.5,0.569,-0.552,0.349
3899568,5124.0,1380.0,-2126.0,0.497,0.567,-0.549,0.36
3899584,4260.0,1362.0,-1650.0,0.493,0.565,-0.547,0.372
3899601,4396.0,1104.0,-1666.0,0.489,0.563,-0.544,0.384
3899617,3856.0,1656.0,-1232.0,0.484,0.562,-0.541,0.396
3899634,4208.0,594.0,-1124.0,0.479,0.561,-0.539,0.407
3899656,4384.0,1036.0,-938.0,0.473,0.561,-0.536,0.418
3899672,4462.0,1758.0,-808.0,0.466,0.562,-0.533,0.427
3899688,4520.0,1354.0,-644.0,0.46,0.562,-0.531,0.436
3899705,4926.0,1528.0,-760.0,0.454,0.563,-0.528,0.445
3899721,4768.0,2564.0,-492.0,0.449,0.564,-0.526,0.452
3899737,4750.0,1820.0,-280.0,0.444,0.564,-0.524,0.458
3899763,4920.0,2062.0,-332.0,0.44,0.565,-0.523,0.462
3899780,4910.0,2016.0,-344.0,0.436,0.567,-0.521,0.466
3899797,4752.0,2820.0,-370.0,0.434,0.568,-0.52,0.468
3899814,4788.0,2778.0,-320.0,0.433,0.569,-0.519,0.468
3899831,4954.0,2352.0,-588.0,0.433,0.57,-0.519,0.467
3899848,5036.0,1850.0,-800.0,0.434,0.571,-0.518,0.466
3899865,5118.0,2438.0,-830.0,0.437,0.573,-0.517,0.463
3899882,4984.0,2280.0,-952.0,0.44,0.574,-0.517,0.459
3899899,5714.0,1370.0,-1448.0,0.442,0.575,-0.517,0.455
3899916,6768.0,994.0,-2140.0,0.444,0.575,-0.517,0.452
3899933,7188.0,-202.0,-2980.0,0.448,0.576,-0.515,0.449
3899950,5472.0,404.0,-1306.0,0.451,0.58,-0.512,0.445
3899967,5334.0,2196.0,-902.0,0.45,0.586,-0.513,0.437
3899984,7830.0,1368.0,-2142.0,0.448,0.591,-0.515,0.429
3900010,7692.0,1386.0,-2132.0,0.446,0.595,-0.518,0.423
3900027,7304.0,1302.0,-1914.0,0.445,0.598,-0.521,0.416
3900044,6566.0,1804.0,-1400.0,0.443,0.6,-0.525,0.409
3900061,6218.0,1930.0,-1766.0,0.44,0.603,-0.532,0.401
3900078,6276.0,900.0,-1944.0,0.437,0.605,-0.538,0.393
3900094,6318.0,-224.0,-1956.0,0.434,0.608,-0.541,0.386
3900110,5132.0,1844.0,-1808.0,0.432,0.611,-0.543,0.38
3900126,4894.0,2376.0,-2104.0,0.432,0.612,-0.546,0.375
3900152,4702.0,1930.0,-2198.0,0.431,0.613,-0.55,0.369
3900168,5602.0,1480.0,-2620.0,0.432,0.613,-0.554,0.363
3900184,5038.0,992.0,-2084.0,0.432,0.613,-0.556,0.357
3900201,5602.0,1654.0,-2330.0,0.433,0.614,-0.557,0.352
3900217,7192.0,2812.0,-3082.0,0.436,0.614,-0.558,0.348
3900234,5296.0,2092.0,-2176.0,0.441,0.61,-0.561,0.345
3900251,7458.0,1516.0,-3554.0,0.445,0.608,-0.562,0.342
3900268,6404.0,740.0,-2852.0,0.45,0.605,-0.562,0.34
3900285,7814.0,2534.0,-3368.0,0.454,0.605,-0.561,0.337
3900311,7828.0,2436.0,-3544.0,0.459,0.602,-0.561,0.334
3900327,7426.0,2788.0,-3034.0,0.464,0.599,-0.562,0.332
3900343,7400.0,2124.0,-3042.0,0.468,0.596,-0.564,0.328
3900359,10028.0,1882.0,-4010.0,0.474,0.592,-0.565,0.326
3900375,9252.0,340.0,-3096.0,0.479,0.59,-0.563,0.324
3900391,9348.0,1916.0,-3496.0,0.486,0.589,-0.56,0.323
3900417,8436.0,4350.0,-3322.0,0.493,0.584,-0.558,0.322
3900434,8016.0,2144.0,-2350.0,0.5,0.577,-0.559,0.322
3900451,10080.0,-856.0,-3170.0,0.506,0.572,-0.56,0.321
3900467,9746.0,1456.0,-2746.0,0.512,0.568,-0.558,0.322
3900484,9080.0,2228.0,-2396.0,0.518,0.562,-0.557,0.324
3900501,8596.0,860.0,-1654.0,0.524,0.555,-0.559,0.326
3900517,10212.0,-270.0,-2368.0,0.528,0.549,-0.559,0.328
3900534,11938.0,1778.0,-3224.0,0.532,0.542,-0.558,0.333
3900551,11236.0,2444.0,-2352.0,0.537,0.533,-0.559,0.34
3900577,10210.0,-44.0,-1724.0,0.54,0.524,-0.561,0.345
3900593,11140.0,-530.0,-2234.0,0.54,0.519,-0.563,0.35
3900610,12134.0,306.0,-2422.0,0.539,0.515,-0.564,0.354
3900626,11812.0,646.0,-2436.0,0.538,0.512,-0.566,0.358
3900642,11092.0,114.0,-1950.0,0.537,0.509,-0.569,0.36
3900658,10758.0,-354.0,-1814.0,0.534,0.507,-0.572,0.362
3900674,10774.0,-114.0,-2016.0,0.53,0.507,-0.574,0.364
3900701,10642.0,-226.0,-2060.0,0.526,0.507,-0.577,0.365
3900718,10378.0,-16.0,-1804.0,0.523,0.508,-0.579,0.365
3900735,10654.0,-102.0,-2046.0,0.519,0.508,-0.581,0.366
3900751,11326.0,240.0,-2196.0,0.517,0.509,-0.583,0.366
3900767,11418.0,-516.0,-1984.0,0.516,0.509,-0.583,0.367
3900784,11664.0,-1362.0,-1996.0,0.516,0.511,-0.582,0.367
3900801,10764.0,-668.0,-1622.0,0.516,0.514,-0.579,0.365
3900818,10730.0,-876.0,-1642.0,0.516,0.519,-0.577,0.362
3900834,10936.0,-694.0,-1906.0,0.515,0.525,-0.576,0.358
3900861,10988.0,-568.0,-2190.0,0.513,0.53,-0.574,0.354
3900878,11114.0,-212.0,-2412.0,0.512,0.535,-0.573,0.35
3900894,11044.0,-204.0,-2464.0,0.511,0.539,-0.572,0.347
3900911,11066.0,280.0,-2778.0,0.509,0.544,-0.571,0.344
3900928,10350.0,-228.0,-2800.0,0.507,0.548,-0.571,0.341
3900944,10374.0,550.0,-3006.0,0.503,0.554,-0.572,0.336
3900960,11338.0,1346.0,-3624.0,0.497,0.559,-0.575,0.331
3900976,11654.0,742.0,-4026.0,0.493,0.564,-0.577,0.326
3901002,11080.0,862.0,-4090.0,0.49,0.569,-0.578,0.321
3901018,11058.0,1324.0,-3926.0,0.487,0.573,-0.578,0.316
3901034,10200.0,1500.0,-3598.0,0.485,0.578,-0.578,0.311
3901050,9494.0,1642.0,-3526.0,0.482,0.582,-0.579,0.305
3901066,9456.0,1616.0,-3594.0,0.48,0.585,-0.58,0.3
3901092,8764.0,1084.0,-3568.0,0.479,0.588,-0.581,0.295
3901108,7526.0,1002.0,-2638.0,0.477,0.591,-0.582,0.29
3901124,8134.0,1464.0,-2962.0,0.476,0.593,-0.584,0.286
3901140,7458.0,1600.0,-3060.0,0.474,0.594,-0.585,0.282
3901156,6566.0,1660.0,-2846.0,0.473,0.594,-0.587,0.279
3901172,6542.0,1532.0,-2810.0,0.473,0.594,-0.588,0.277
3901188,6252.0,1690.0,-2616.0,0.473,0.593,-0.59,0.276
3901214,5742.0,1562.0,-2458.0,0.473,0.592,-0.592,0.275
3901231,6718.0,1756.0,-2976.0,0.472,0.591,-0.594,0.274
3901248,7030.0,2368.0,-3196.0,0.473,0.588,-0.595,0.276
3901264,7008.0,1700.0,-3206.0,0.475,0.585,-0.595,0.279
3901280,6916.0,2836.0,-3380.0,0.478,0.582,-0.595,0.283
3901296,6896.0,2390.0,-3408.0,0.481,0.577,-0.594,0.288
3901312,6014.0,1454.0,-2790.0,0.482,0.574,-0.593,0.292
3901338,7284.0,2666.0,-3264.0,0.484,0.573,-0.591,0.297
3901354,6360.0,1850.0,-2824.0,0.486,0.572,-0.589,0.301
3901370,6886.0,1830.0,-2628.0,0.487,0.573,-0.585,0.304
3901387,6110.0,2246.0,-2232.0,0.486,0.577,-0.58,0.308
3901403,5378.0,2396.0,-2138.0,0.484,0.58,-0.576,0.311
3901419,6386.0,2550.0,-2770.0,0.483,0.584,-0.571,0.315
3901445,6128.0,2474.0,-2750.0,0.483,0.586,-0.566,0.32
3901462,6296.0,-1238.0,-1970.0,0.483,0.589,-0.56,0.326
3901479,5876.0,2418.0,-2802.0,0.483,0.591,-0.553,0.333
3901496,4172.0,2142.0,-1810.0,0.481,0.593,-0.547,0.343
3901512,4126.0,2446.0,-1666.0,0.477,0.594,-0.543,0.353
3901528,4906.0,1336.0,-2150.0,0.472,0.596,-0.54,0.362
3901544,4410.0,2040.0,-1534.0,0.467,0.598,-0.536,0.371
3901560,4458.0,2314.0,-1464.0,0.461,0.598,-0.534,0.379
3901586,5280.0,1772.0,-1594.0,0.454,0.599,-0.534,0.387
3901602,6384.0,1326.0,-1942.0,0.447,0.599,-0.533,0.396
3901618,5378.0,2140.0,-1442.0,0.441,0.599,-0.533,0.404
3901635,5036.0,1552.0,-1262.0,0.436,0.598,-0.533,0.41
3901652,4932.0,2028.0,-1028.0,0.431,0.598,-0.534,0.414
3901668,5144.0,1210.0,-1084.0,0.428,0.597,-0.535,0.417
3901685,5066.0,1760.0,-1044.0,0.426,0.597,-0.536,0.419
3901702,4880.0,1848.0,-764.0,0.425,0.596,-0.537,0.419
3901719,5108.0,2080.0,-846.0,0.425,0.595,-0.538,0.419
3901746,4708.0,2284.0,-740.0,0.427,0.594,-0.539,0.417
3901762,4740.0,2370.0,-884.0,0.43,0.592,-0.541,0.415
3901779,4824.0,1640.0,-770.0,0.433,0.591,-0.542,0.411
3901795,5064.0,2128.0,-816.0,0.437,0.59,-0.544,0.407
3901811,5170.0,2794.0,-1190.0,0.441,0.588,-0.546,0.402
3901828,5294.0,2734.0,-1220.0,0.445,0.586,-0.548,0.397
3901844,5954.0,2338.0,-1434.0,0.45,0.583,-0.552,0.392
3901860,5900.0,2192.0,-1136.0,0.455,0.58,-0.556,0.386
3901887,6324.0,1598.0,-1452.0,0.46,0.576,-0.559,0.38
3901904,6604.0,1016.0,-1658.0,0.466,0.573,-0.561,0.374
3901920,5264.0,1740.0,-1436.0,0.473,0.569,-0.563,0.368
3901936,5574.0,2302.0,-1844.0,0.479,0.566,-0.566,0.361
3901953,5680.0,1726.0,-1986.0,0.485,0.562,-0.57,0.353
3901970,5450.0,1190.0,-2010.0,0.49,0.558,-0.574,0.345
3901986,6676.0,1274.0,-2840.0,0.496,0.555,-0.576,0.338
3902002,5652.0,1750.0,-2570.0,0.503,0.552,-0.576,0.331
3902029,6182.0,2670.0,-2618.0,0.511,0.549,-0.577,0.324
3902046,6324.0,2332.0,-2680.0,0.518,0.546,-0.578,0.318
3902063,5824.0,1048.0,-2590.0,0.525,0.543,-0.577,0.312
3902080,5970.0,1940.0,-2510.0,0.531,0.541,-0.575,0.307
3902096,5360.0,2048.0,-2112.0,0.537,0.539,-0.574,0.302
3902113,5686.0,2624.0,-2090.0,0.542,0.537,-0.573,0.299
3902130,6518.0,2020.0,-2388.0,0.545,0.535,-0.574,0.296
3902147,8302.0,2486.0,-3030.0,0.55,0.532,-0.573,0.296
3902164,6026.0,264.0,-1718.0,0.556,0.528,-0.57,0.295
3902180,5654.0,1160.0,-1584.0,0.56,0.527,-0.568,0.294
3902197,6156.0,2118.0,-1758.0,0.562,0.527,-0.567,0.293
3902223,6462.0,2346.0,-1760.0,0.563,0.525,-0.568,0.292
3902239,7134.0,2424.0,-1804.0,0.564,0.521,-0.57,0.292
3902255,7660.0,324.0,-1958.0,0.564,0.519,-0.572,0.292
3902271,7550.0,1520.0,-1516.0,0.565,0.518,-0.572,0.292
3902287,8068.0,2556.0,-1610.0,0.565,0.517,-0.574,0.292
3902303,9560.0,2298.0,-2098.0,0.564,0.513,-0.576,0.293
3902329,9118.0,1496.0,-1962.0,0.565,0.509,-0.579,0.296
3902345,9624.0,846.0,-2054.0,0.565,0.504,-0.581,0.299
3902362,11630.0,1788.0,-2690.0,0.565,0.499,-0.583,0.304
3902379,11850.0,2012.0,-2470.0,0.566,0.491,-0.585,0.311
3902396,11278.0,2156.0,-2242.0,0.567,0.482,-0.587,0.319
3902413,11816.0,1400.0,-1990.0,0.567,0.472,-0.591,0.326
3902430,11828.0,1246.0,-2076.0,0.568,0.462,-0.595,0.332
3902447,11970.0,610.0,-2018.0,0.568,0.453,-0.599,0.337
3902464,11924.0,-728.0,-2046.0,0.568,0.447,-0.601,0.341
3902480,11518.0,316.0,-1492.0,0.568,0.443,-0.602,0.344
3902507,10868.0,4.0,-1426.0,0.568,0.44,-0.604,0.346
3902523,11012.0,-1598.0,-1392.0,0.567,0.439,-0.605,0.347
3902539,10626.0,-572.0,-1292.0,0.565,0.439,-0.606,0.348
3902556,10264.0,1050.0,-1348.0,0.563,0.438,-0.608,0.349
3902572,10518.0,618.0,-1418.0,0.561,0.436,-0.611,0.349
3902589,10730.0,-1384.0,-1522.0,0.559,0.434,-0.615,0.348
3902606,11252.0,-1224.0,-1660.0,0.557,0.434,-0.617,0.348
3902622,11084.0,-428.0,-1752.0,0.557,0.435,-0.617,0.347
3902648,10824.0,-738.0,-1618.0,0.558,0.436,-0.616,0.345
3902665,10836.0,-1036.0,-1630.0,0.558,0.438,-0.615,0.343
3902681,10746.0,-1380.0,-1684.0,0.559,0.442,-0.614,0.34
3902697,10748.0,-1282.0,-1718.0,0.559,0.447,-0.612,0.337
3902714,10512.0,-894.0,-1644.0,0.558,0.454,-0.61,0.333
3902730,10860.0,-416.0,-1860.0,0.556,0.46,-0.609,0.33
3902746,11110.0,94.0,-2030.0,0.555,0.465,-0.608,0.326
3902763,11340.0,-114.0,-2024.0,0.554,0.469,-0.608,0.323
3902789,11390.0,-1396.0,-1846.0,0.553,0.473,-0.607,0.32
3902806,11358.0,-1060.0,-1878.0,0.552,0.481,-0.604,0.316
3902822,11396.0,344.0,-2032.0,0.551,0.489,-0.6,0.311
3902839,11950.0,1378.0,-2508.0,0.552,0.496,-0.596,0.307
3902855,11460.0,208.0,-2226.0,0.553,0.501,-0.593,0.302
3902872,11298.0,-356.0,-2194.0,0.553,0.508,-0.589,0.298
3902889,11604.0,876.0,-2368.0,0.554,0.515,-0.585,0.293
3902905,10578.0,982.0,-2220.0,0.555,0.522,-0.581,0.288
3902931,10010.0,1138.0,-2160.0,0.555,0.528,-0.577,0.282
3902947,9638.0,1522.0,-2236.0,0.555,0.534,-0.574,0.277
3902963,9726.0,1748.0,-2330.0,0.555,0.54,-0.571,0.273
3902980,9584.0,2344.0,-2204.0,0.555,0.545,-0.568,0.269
3902996,9892.0,2402.0,-2316.0,0.554,0.549,-0.566,0.266
3903012,9442.0,2986.0,-2354.0,0.555,0.553,-0.563,0.264
3903029,9008.0,2722.0,-2332.0,0.555,0.556,-0.56,0.262
3903046,8760.0,2654.0,-2518.0,0.556,0.559,-0.557,0.262
3903072,7802.0,3244.0,-2222.0,0.556,0.561,-0.555,0.262
3903088,7528.0,2890.0,-2252.0,0.555,0.563,-0.554,0.262
3903104,7248.0,3006.0,-2458.0,0.554,0.565,-0.553,0.262
3903120,6768.0,2210.0,-2446.0,0.553,0.567,-0.551,0.262
3903136,6876.0,3006.0,-2620.0,0.552,0.569,-0.549,0.263
3903153,5668.0,3132.0,-2344.0,0.552,0.571,-0.547,0.265
3903170,6324.0,1468.0,-2634.0,0.552,0.573,-0.543,0.267
3903196,4834.0,3034.0,-2082.0,0.551,0.576,-0.54,0.269
3903212,5288.0,3542.0,-1914.0,0.548,0.579,-0.539,0.272
3903228,4746.0,3186.0,-1724.0,0.544,0.581,-0.539,0.276
3903244,4478.0,3586.0,-1458.0,0.54,0.583,-0.539,0.28
3903260,3336.0,2122.0,-1438.0,0.536,0.585,-0.539,0.284
3903276,4936.0,2848.0,-1272.0,0.532,0.586,-0.539,0.29
3903302,3978.0,3008.0,-1558.0,0.528,0.587,-0.538,0.296
3903318,4506.0,3802.0,-1332.0,0.525,0.586,-0.537,0.304
3903334,4114.0,3478.0,-1214.0,0.522,0.585,-0.536,0.313
3903350,4586.0,2630.0,-1332.0,0.52,0.583,-0.536,0.322
3903366,4506.0,2850.0,-1044.0,0.517,0.581,-0.535,0.331
3903392,5338.0,2334.0,-1336.0,0.515,0.579,-0.534,0.339
3903409,5174.0,2476.0,-1316.0,0.513,0.578,-0.531,0.348
3903426,5118.0,2346.0,-1226.0,0.511,0.576,-0.53,0.355
3903442,5588.0,2660.0,-1298.0,0.508,0.575,-0.529,0.362
3903458,6622.0,542.0,-1628.0,0.507,0.575,-0.527,0.368
3903474,5540.0,2772.0,-1404.0,0.506,0.575,-0.524,0.373
3903490,6640.0,1170.0,-1942.0,0.506,0.575,-0.519,0.378
3903516,5670.0,1282.0,-1770.0,0.507,0.576,-0.514,0.383
3903533,4326.0,870.0,-1368.0,0.507,0.577,-0.509,0.388
3903550,4520.0,544.0,-1462.0,0.507,0.579,-0.504,0.391
3903567,3582.0,792.0,-524.0,0.505,0.582,-0.501,0.394
3903583,3858.0,1486.0,-86.0,0.501,0.586,-0.499,0.395
3903601,4896.0,1810.0,-276.0,0.496,0.589,-0.5,0.396
3903618,5358.0,2040.0,-82.0,0.492,0.592,-0.5,0.396
3903635,5808.0,2824.0,-134.0,0.488,0.595,-0.502,0.396
3903651,6250.0,2530.0,-430.0,0.484,0.596,-0.503,0.396
3903670,6142.0,3074.0,-394.0,0.481,0.597,-0.506,0.395
3903686,6218.0,2754.0,-576.0,0.479,0.597,-0.509,0.394
3903703,5628.0,3154.0,-456.0,0.478,0.596,-0.514,0.391
3903720,5656.0,1958.0,-570.0,0.478,0.594,-0.519,0.387
3903746,5516.0,2622.0,-608.0,0.479,0.592,-0.523,0.382
3903763,6204.0,2258.0,-1136.0,0.481,0.589,-0.528,0.377
3903779,5010.0,3194.0,-862.0,0.485,0.586,-0.531,0.373
3903795,5856.0,2338.0,-1244.0,0.49,0.582,-0.535,0.367
3903811,5344.0,2334.0,-884.0,0.495,0.579,-0.537,0.361
3903827,5480.0,3460.0,-1102.0,0.5,0.577,-0.54,0.354
3903844,5078.0,2456.0,-1076.0,0.506,0.574,-0.543,0.347
3903870,4918.0,2806.0,-1314.0,0.511,0.572,-0.545,0.34
3903887,6028.0,3064.0,-2226.0,0.516,0.57,-0.547,0.333
3903903,5342.0,3860.0,-1804.0,0.521,0.567,-0.548,0.326
3903920,5900.0,3448.0,-1922.0,0.527,0.563,-0.551,0.32
3903936,5660.0,1872.0,-1634.0,0.532,0.56,-0.552,0.314
3903953,5978.0,2506.0,-1712.0,0.537,0.558,-0.552,0.308
3903969,6860.0,4200.0,-2428.0,0.543,0.557,-0.552,0.302
3903985,6830.0,3604.0,-2348.0,0.549,0.553,-0.551,0.298
3904011,6932.0,2632.0,-2358.0,0.556,0.549,-0.551,0.293
3904027,6954.0,2298.0,-2114.0,0.562,0.548,-0.549,0.288
3904043,7226.0,3292.0,-2100.0,0.567,0.546,-0.547,0.283
3904059,7428.0,4040.0,-2188.0,0.573,0.544,-0.546,0.278
3904075,8258.0,3740.0,-2386.0,0.579,0.541,-0.545,0.274
3904091,6956.0,2498.0,-1868.0,0.585,0.538,-0.544,0.268
3904117,6966.0,2030.0,-1392.0,0.588,0.539,-0.543,0.262
3904133,6366.0,3964.0,-1310.0,0.591,0.54,-0.543,0.253
3904149,8556.0,4386.0,-1824.0,0.593,0.539,-0.545,0.246
3904165,8934.0,2678.0,-2182.0,0.597,0.536,-0.547,0.24
3904181,8682.0,2120.0,-1970.0,0.6,0.534,-0.547,0.235
3904197,8774.0,3970.0,-2164.0,0.604,0.531,-0.547,0.231
3904223,8258.0,2634.0,-1564.0,0.607,0.527,-0.549,0.228
3904240,9304.0,2030.0,-2018.0,0.61,0.522,-0.551,0.227
3904257,9644.0,2528.0,-2324.0,0.613,0.517,-0.552,0.228
3904274,9026.0,2176.0,-1796.0,0.616,0.511,-0.554,0.231
3904291,9110.0,2522.0,-1674.0,0.617,0.504,-0.556,0.235
3904308,10008.0,1700.0,-1776.0,0.617,0.497,-0.561,0.24
3904325,10674.0,1984.0,-2008.0,0.616,0.489,-0.567,0.246
3904341,10892.0,834.0,-1964.0,0.615,0.481,-0.572,0.253
3904357,11854.0,1858.0,-2038.0,0.612,0.473,-0.577,0.261
3904374,11676.0,1782.0,-1742.0,0.61,0.465,-0.583,0.268
3904400,12648.0,10.0,-2080.0,0.608,0.458,-0.588,0.274
3904416,12628.0,-54.0,-2156.0,0.606,0.453,-0.59,0.281
3904432,12152.0,184.0,-2028.0,0.605,0.45,-0.592,0.286
3904448,11872.0,34.0,-1906.0,0.603,0.449,-0.592,0.29
3904465,11386.0,-98.0,-1772.0,0.601,0.449,-0.593,0.292
3904481,11606.0,-14.0,-1856.0,0.599,0.451,-0.594,0.291
3904507,11458.0,-218.0,-1786.0,0.596,0.454,-0.596,0.289
3904525,11588.0,-148.0,-2036.0,0.594,0.458,-0.596,0.286
3904541,11412.0,254.0,-1926.0,0.592,0.463,-0.596,0.283
3904560,11262.0,572.0,-1876.0,0.591,0.468,-0.595,0.279
3904576,11248.0,636.0,-1732.0,0.59,0.473,-0.594,0.274
3904592,11182.0,518.0,-1718.0,0.59,0.479,-0.592,0.268
3904608,11376.0,764.0,-2002.0,0.59,0.486,-0.589,0.262
3904624,11460.0,1018.0,-1968.0,0.591,0.493,-0.586,0.256
3904640,11432.0,950.0,-1930.0,0.591,0.5,-0.582,0.25
3904666,11340.0,1240.0,-2086.0,0.592,0.507,-0.577,0.244
3904682,10484.0,1616.0,-1848.0,0.593,0.514,-0.572,0.239
3904699,10432.0,1952.0,-1934.0,0.593,0.52,-0.568,0.235
3904715,9996.0,1628.0,-1886.0,0.593,0.526,-0.564,0.232
3904732,9932.0,2062.0,-1998.0,0.593,0.532,-0.56,0.229
3904748,9306.0,2348.0,-1832.0,0.593,0.537,-0.556,0.227
3904764,8830.0,2534.0,-1664.0,0.592,0.542,-0.552,0.225
3904790,8748.0,2758.0,-1840.0,0.59,0.547,-0.55,0.223
3904806,8740.0,3208.0,-1682.0,0.589,0.552,-0.547,0.221
3904823,8808.0,2788.0,-1702.0,0.588,0.556,-0.545,0.22
3904839,9010.0,4024.0,-1960.0,0.587,0.561,-0.542,0.219
3904856,8724.0,3492.0,-1850.0,0.587,0.563,-0.539,0.218
3904872,8732.0,3148.0,-1880.0,0.587,0.566,-0.535,0.219
3904888,8392.0,4436.0,-1986.0,0.588,0.569,-0.531,0.22
3904914,8524.0,4304.0,-2188.0,0.59,0.57,-0.527,0.222
3904930,8150.0,4102.0,-2178.0,0.591,0.57,-0.524,0.224
3904946,7582.0,4036.0,-2174.0,0.592,0.571,-0.521,0.227
3904962,6888.0,3882.0,-1844.0,0.593,0.571,-0.518,0.23
3904978,5974.0,4442.0,-1844.0,0.593,0.572,-0.517,0.231
3904995,6476.0,4710.0,-2208.0,0.591,0.573,-0.517,0.233
3905011,5768.0,4356.0,-2038.0,0.59,0.573,-0.518,0.236
3905037,6440.0,4314.0,-2226.0,0.588,0.572,-0.519,0.238
3905054,6822.0,3972.0,-2552.0,0.587,0.571,-0.52,0.242
3905070,5890.0,3502.0,-2000.0,0.586,0.569,-0.521,0.248
3905086,5738.0,3034.0,-1820.0,0.584,0.568,-0.522,0.254
3905103,5094.0,3172.0,-1548.0,0.582,0.566,-0.523,0.26
3905119,5622.0,3280.0,-1728.0,0.579,0.564,-0.525,0.267
3905135,5600.0,2796.0,-1630.0,0.576,0.562,-0.526,0.275
3905161,4764.0,2664.0,-1088.0,0.572,0.56,-0.527,0.283
3905177,4604.0,2420.0,-978.0,0.567,0.559,-0.53,0.292
3905193,4394.0,2920.0,-864.0,0.56,0.558,-0.533,0.3
3905209,5124.0,2074.0,-1112.0,0.554,0.556,-0.536,0.31
3905225,4710.0,2196.0,-740.0,0.547,0.556,-0.538,0.32
3905241,4978.0,2270.0,-706.0,0.54,0.556,-0.539,0.33
3905267,5116.0,2238.0,-766.0,0.533,0.556,-0.54,0.34
3905284,5574.0,2770.0,-1004.0,0.526,0.556,-0.54,0.351
3905300,5860.0,3242.0,-754.0,0.521,0.555,-0.539,0.362
3905316,5600.0,2764.0,-780.0,0.516,0.554,-0.537,0.373
3905333,4742.0,1844.0,-82.0,0.511,0.554,-0.535,0.382
3905349,4676.0,3208.0,-230.0,0.505,0.555,-0.533,0.391
3905365,6032.0,1918.0,-932.0,0.501,0.556,-0.53,0.399
3905392,5088.0,3092.0,-450.0,0.498,0.557,-0.526,0.406
3905408,4762.0,2640.0,-148.0,0.495,0.558,-0.524,0.411
3905424,4732.0,2002.0,-370.0,0.492,0.561,-0.522,0.414
3905440,4686.0,2976.0,-376.0,0.489,0.564,-0.52,0.415
3905456,4798.0,3170.0,-526.0,0.487,0.568,-0.518,0.416
3905472,4866.0,2770.0,-430.0,0.486,0.57,-0.516,0.415
3905498,4330.0,2870.0,-320.0,0.486,0.574,-0.514,0.413
3905515,4642.0,2682.0,-412.0,0.486,0.578,-0.512,0.409
3905532,4562.0,3268.0,-546.0,0.487,0.582,-0.51,0.405
3905548,4162.0,3674.0,-398.0,0.49,0.585,-0.507,0.4
3905565,4322.0,3274.0,-472.0,0.492,0.588,-0.506,0.395
3905582,4062.0,3560.0,-602.0,0.495,0.591,-0.505,0.388
3905599,5016.0,2012.0,-1158.0,0.498,0.594,-0.503,0.382
3905616,4122.0,2888.0,-798.0,0.502,0.598,-0.5,0.374
3905633,4420.0,3494.0,-1244.0,0.507,0.6,-0.498,0.367
3905650,4832.0,3554.0,-1682.0,0.512,0.601,-0.497,0.36
3905666,6166.0,1844.0,-2302.0,0.518,0.601,-0.494,0.355
3905692,5320.0,2136.0,-1648.0,0.526,0.601,-0.49,0.35
3905708,5298.0,4116.0,-1658.0,0.533,0.6,-0.486,0.345
3905724,4628.0,2996.0,-1314.0,0.54,0.598,-0.485,0.339
3905740,5562.0,2026.0,-1550.0,0.546,0.597,-0.485,0.333
3905756,6412.0,2908.0,-1878.0,0.552,0.596,-0.484,0.326
3905772,7014.0,3078.0,-1944.0,0.558,0.594,-0.483,0.32
3905798,6864.0,3856.0,-1788.0,0.563,0.593,-0.482,0.314
3905814,6860.0,3246.0,-1804.0,0.567,0.592,-0.483,0.307
3905830,8060.0,4156.0,-2196.0,0.572,0.59,-0.485,0.301
3905846,8578.0,2522.0,-2422.0,0.576,0.588,-0.486,0.294
3905862,7406.0,3748.0,-1886.0,0.58,0.587,-0.486,0.288
3905878,8092.0,4804.0,-1860.0,0.584,0.584,-0.488,0.281
3905905,7782.0,1732.0,-1380.0,0.587,0.582,-0.492,0.274
3905922,9704.0,2750.0,-2182.0,0.589,0.581,-0.494,0.266
3905938,8842.0,3332.0,-2380.0,0.593,0.579,-0.495,0.262
3905955,9028.0,4410.0,-1938.0,0.597,0.574,-0.497,0.259
3905971,9252.0,3240.0,-1526.0,0.601,0.567,-0.501,0.257
3905989,10390.0,2512.0,-2142.0,0.606,0.56,-0.504,0.255
3906005,9980.0,1336.0,-2276.0,0.611,0.554,-0.505,0.254
3906021,9136.0,2186.0,-1400.0,0.616,0.548,-0.505,0.253
3906047,9076.0,3256.0,-1072.0,0.621,0.543,-0.506,0.254
3906063,9984.0,3320.0,-1406.0,0.624,0.534,-0.509,0.256
3906079,10352.0,2062.0,-1074.0,0.626,0.525,-0.515,0.26
3906095,10632.0,1790.0,-1424.0,0.626,0.516,-0.522,0.263
3906111,10676.0,954.0,-1070.0,0.625,0.508,-0.528,0.267
3906128,11388.0,2322.0,-1162.0,0.624,0.502,-0.535,0.271
3906154,11686.0,1342.0,-1442.0,0.622,0.496,-0.541,0.274
3906170,11614.0,1406.0,-1276.0,0.62,0.491,-0.546,0.278
3906186,10852.0,1016.0,-1106.0,0.618,0.486,-0.55,0.28
3906202,10664.0,1082.0,-1012.0,0.616,0.483,-0.555,0.283
3906218,10452.0,-10.0,-892.0,0.613,0.48,-0.559,0.284
3906234,10336.0,578.0,-1176.0,0.611,0.48,-0.562,0.283
3906250,10344.0,796.0,-1182.0,0.609,0.479,-0.565,0.283
3906276,10314.0,590.0,-1262.0,0.606,0.48,-0.568,0.283
3906292,10126.0,848.0,-1214.0,0.605,0.48,-0.569,0.283
3906308,10238.0,656.0,-1206.0,0.604,0.481,-0.57,0.283
3906324,10268.0,732.0,-1294.0,0.602,0.482,-0.571,0.282
3906340,10484.0,762.0,-1318.0,0.601,0.483,-0.571,0.281
3906356,10760.0,932.0,-1636.0,0.6,0.485,-0.571,0.28
3906382,10862.0,294.0,-1568.0,0.598,0.488,-0.571,0.279
3906399,10798.0,854.0,-1458.0,0.597,0.491,-0.57,0.278
3906415,10684.0,870.0,-1402.0,0.596,0.495,-0.569,0.276
3906432,10662.0,956.0,-1530.0,0.594,0.499,-0.568,0.275
3906449,10866.0,1316.0,-1612.0,0.592,0.503,-0.567,0.273
3906465,10784.0,1138.0,-1672.0,0.59,0.508,-0.566,0.271
3906482,10452.0,1282.0,-1460.0,0.589,0.512,-0.564,0.27
3906498,10206.0,1756.0,-1430.0,0.587,0.517,-0.562,0.268
3906524,10454.0,1612.0,-1712.0,0.586,0.521,-0.561,0.266
3906540,10266.0,1694.0,-1606.0,0.585,0.526,-0.559,0.264
3906556,9656.0,1630.0,-1492.0,0.584,0.53,-0.556,0.263
3906572,9266.0,2496.0,-1396.0,0.583,0.534,-0.554,0.261
3906588,9490.0,2874.0,-1586.0,0.582,0.537,-0.552,0.259
3906604,9886.0,1904.0,-1668.0,0.582,0.54,-0.55,0.257
3906630,9948.0,2894.0,-1756.0,0.582,0.544,-0.547,0.256
3906646,9368.0,3450.0,-1570.0,0.583,0.547,-0.544,0.254
3906662,10094.0,4416.0,-1864.0,0.584,0.549,-0.542,0.253
3906678,9502.0,3420.0,-1568.0,0.585,0.55,-0.54,0.251
3906695,8794.0,2450.0,-1366.0,0.586,0.552,-0.538,0.249
3906712,8910.0,4926.0,-1674.0,0.587,0.555,-0.536,0.246
3906728,8194.0,4080.0,-1722.0,0.588,0.556,-0.535,0.244
3906755,8678.0,3636.0,-1900.0,0.589,0.557,-0.533,0.242
3906771,8218.0,3926.0,-2070.0,0.591,0.557,-0.532,0.241
3906787,8224.0,3064.0,-2278.0,0.593,0.557,-0.529,0.241
3906803,8570.0,3938.0,-2556.0,0.597,0.556,-0.525,0.242
3906819,8004.0,4232.0,-2422.0,0.602,0.553,-0.521,0.246
3906836,7572.0,4106.0,-2260.0,0.607,0.55,-0.517,0.25
3906852,7834.0,2646.0,-1946.0,0.611,0.546,-0.513,0.255
3906878,7572.0,4336.0,-1778.0,0.613,0.545,-0.509,0.261
3906895,6722.0,2988.0,-1104.0,0.613,0.543,-0.507,0.268
3906912,6522.0,3774.0,-786.0,0.611,0.543,-0.507,0.274
3906928,6558.0,3646.0,-856.0,0.607,0.543,-0.508,0.28
3906945,6062.0,2906.0,-538.0,0.602,0.544,-0.509,0.287
3906961,6126.0,3966.0,-742.0,0.595,0.546,-0.512,0.295
3906977,6274.0,2978.0,-810.0,0.587,0.546,-0.515,0.304
3906994,5968.0,2888.0,-1106.0,0.579,0.546,-0.517,0.315
3907011,5746.0,3664.0,-1208.0,0.57,0.547,-0.518,0.329
3907037,5122.0,2932.0,-1030.0,0.562,0.546,-0.519,0.343
3907053,4926.0,1958.0,-1266.0,0.552,0.545,-0.519,0.359
3907069,4480.0,2822.0,-1226.0,0.543,0.545,-0.518,0.374
3907085,3834.0,2116.0,-880.0,0.533,0.545,-0.516,0.391
3907101,3650.0,1996.0,-1028.0,0.522,0.545,-0.515,0.406
3907117,4012.0,2114.0,-1270.0,0.512,0.546,-0.513,0.42
3907144,3492.0,1786.0,-768.0,0.502,0.548,-0.511,0.433
3907161,3690.0,1984.0,-762.0,0.492,0.55,-0.508,0.445
3907177,3802.0,2132.0,-666.0,0.483,0.551,-0.505,0.455
3907194,3640.0,1826.0,-406.0,0.475,0.554,-0.503,0.464
3907211,3440.0,2396.0,-18.0,0.468,0.557,-0.5,0.47
3907228,3352.0,2248.0,306.0,0.461,0.561,-0.499,0.473
3907245,3684.0,2180.0,324.0,0.456,0.564,-0.498,0.474
3907261,3648.0,2374.0,422.0,0.452,0.569,-0.497,0.474
3907277,3926.0,3006.0,384.0,0.45,0.572,-0.497,0.472
3907295,4702.0,2686.0,84.0,0.45,0.575,-0.497,0.468
3907321,4702.0,2562.0,326.0,0.452,0.578,-0.497,0.463
3907337,4666.0,2590.0,338.0,0.455,0.581,-0.496,0.458
3907353,4578.0,3152.0,238.0,0.459,0.583,-0.496,0.451
3907369,5242.0,2158.0,-188.0,0.464,0.584,-0.497,0.444
3907385,6320.0,1692.0,-1002.0,0.47,0.585,-0.495,0.437
3907402,4626.0,2894.0,-442.0,0.478,0.586,-0.493,0.43
3907418,4744.0,2682.0,-518.0,0.483,0.588,-0.493,0.422
3907445,4958.0,2246.0,-884.0,0.488,0.59,-0.493,0.413
3907461,4898.0,2658.0,-986.0,0.492,0.593,-0.494,0.403
3907478,5282.0,1602.0,-1568.0,0.496,0.597,-0.494,0.393
3907494,5000.0,2848.0,-1490.0,0.499,0.602,-0.493,0.382
3907511,4622.0,2910.0,-1512.0,0.501,0.607,-0.493,0.371
3907528,5010.0,3148.0,-1984.0,0.502,0.612,-0.494,0.36
3907544,6090.0,3462.0,-2128.0,0.503,0.616,-0.495,0.351
3907561,6656.0,2052.0,-2474.0,0.504,0.619,-0.495,0.342
3907578,6390.0,2918.0,-2220.0,0.506,0.622,-0.495,0.335
3907604,6260.0,3624.0,-2118.0,0.508,0.625,-0.494,0.329
3907621,6382.0,2838.0,-2114.0,0.509,0.627,-0.494,0.322
3907637,7938.0,4662.0,-2788.0,0.51,0.628,-0.495,0.317
3907653,9276.0,3400.0,-3372.0,0.514,0.626,-0.495,0.314
3907669,7388.0,1466.0,-2374.0,0.517,0.625,-0.494,0.312
3907685,7886.0,3372.0,-2480.0,0.519,0.627,-0.491,0.31
3907711,8402.0,5268.0,-3272.0,0.523,0.626,-0.491,0.308
3907728,9392.0,3058.0,-3044.0,0.527,0.621,-0.491,0.308
3907745,8592.0,2132.0,-2878.0,0.532,0.617,-0.491,0.309
3907761,8124.0,1794.0,-2380.0,0.536,0.615,-0.49,0.309
3907778,7660.0,3460.0,-2058.0,0.538,0.613,-0.489,0.309
3907794,8412.0,3692.0,-1890.0,0.54,0.61,-0.491,0.309
3907811,10628.0,1802.0,-2766.0,0.54,0.606,-0.495,0.31
3907827,10868.0,2420.0,-3054.0,0.542,0.601,-0.497,0.315
3907844,9502.0,2078.0,-2178.0,0.544,0.595,-0.498,0.32
3907861,9408.0,1752.0,-1958.0,0.544,0.589,-0.501,0.325
3907888,9638.0,2270.0,-1912.0,0.543,0.583,-0.506,0.33
3907904,11244.0,1974.0,-2478.0,0.541,0.576,-0.512,0.335
3907920,11130.0,1528.0,-2412.0,0.539,0.569,-0.519,0.341
3907936,11068.0,1490.0,-2108.0,0.537,0.562,-0.525,0.346
3907952,11168.0,766.0,-2246.0,0.534,0.556,-0.531,0.351
3907969,11454.0,292.0,-2134.0,0.532,0.551,-0.537,0.354
3907985,11704.0,-14.0,-2216.0,0.529,0.548,-0.541,0.357
3908011,11672.0,122.0,-2432.0,0.527,0.545,-0.545,0.359
3908028,11066.0,74.0,-2204.0,0.526,0.542,-0.548,0.359
3908045,10306.0,470.0,-1900.0,0.525,0.541,-0.551,0.359
3908062,10064.0,154.0,-1910.0,0.524,0.539,-0.554,0.357
3908079,9972.0,-134.0,-1982.0,0.523,0.538,-0.558,0.354
3908096,10014.0,-346.0,-1976.0,0.523,0.537,-0.562,0.351
3908113,10068.0,-436.0,-1996.0,0.523,0.537,-0.564,0.347
3908129,9888.0,204.0,-2052.0,0.524,0.537,-0.566,0.343
3908145,9748.0,274.0,-2026.0,0.526,0.536,-0.567,0.339
3908171,9844.0,-70.0,-2040.0,0.528,0.536,-0.567,0.334
3908187,9620.0,-296.0,-1840.0,0.531,0.536,-0.568,0.329
3908203,9460.0,160.0,-1910.0,0.533,0.537,-0.568,0.324
3908219,9570.0,2.0,-1956.0,0.535,0.537,-0.569,0.319
3908235,10012.0,98.0,-2194.0,0.537,0.538,-0.569,0.313
3908251,10126.0,286.0,-2174.0,0.54,0.54,-0.568,0.308
3908277,9962.0,676.0,-2260.0,0.542,0.541,-0.567,0.303
3908294,9890.0,64.0,-2124.0,0.545,0.543,-0.566,0.297
3908311,10044.0,608.0,-2062.0,0.547,0.546,-0.565,0.29
3908328,10530.0,1064.0,-2368.0,0.549,0.549,-0.563,0.284
3908345,9976.0,750.0,-2216.0,0.551,0.552,-0.561,0.278
3908362,9680.0,1320.0,-2198.0,0.552,0.556,-0.558,0.272
3908379,9548.0,1546.0,-2102.0,0.554,0.56,-0.556,0.267
3908396,9520.0,1366.0,-2194.0,0.555,0.563,-0.553,0.261
3908413,10240.0,1396.0,-2488.0,0.556,0.567,-0.55,0.257
3908430,10490.0,2238.0,-2618.0,0.558,0.571,-0.547,0.253
3908447,10534.0,1748.0,-2542.0,0.559,0.575,-0.543,0.25
3908464,11496.0,2016.0,-2836.0,0.559,0.579,-0.539,0.248
3908481,12032.0,2256.0,-3042.0,0.56,0.584,-0.534,0.247
3908498,11438.0,2184.0,-2900.0,0.561,0.588,-0.528,0.247
3908524,11506.0,3044.0,-3084.0,0.562,0.593,-0.521,0.247
3908541,10296.0,2172.0,-2708.0,0.563,0.596,-0.515,0.249
3908558,10004.0,2596.0,-2910.0,0.563,0.601,-0.509,0.251
3908577,9676.0,3674.0,-2920.0,0.563,0.605,-0.504,0.254
3908594,9630.0,3154.0,-2584.0,0.561,0.608,-0.499,0.257
3908610,9586.0,3456.0,-2790.0,0.56,0.611,-0.495,0.262
3908627,9442.0,3994.0,-2714.0,0.558,0.613,-0.491,0.268
3908643,8410.0,3700.0,-2456.0,0.556,0.614,-0.488,0.274
3908659,8222.0,3002.0,-2424.0,0.554,0.614,-0.486,0.283
3908675,6770.0,3760.0,-1856.0,0.551,0.614,-0.483,0.292
3908701,6980.0,3726.0,-2214.0,0.547,0.614,-0.483,0.301
3908717,6706.0,4094.0,-2218.0,0.543,0.612,-0.484,0.311
3908733,5676.0,3160.0,-1918.0,0.538,0.609,-0.485,0.323
3908749,5536.0,3782.0,-2020.0,0.533,0.605,-0.486,0.336
3908765,4790.0,3970.0,-1862.0,0.528,0.6,-0.489,0.349
3908781,3882.0,4272.0,-1522.0,0.522,0.595,-0.493,0.363
3908807,4940.0,3362.0,-2074.0,0.515,0.588,-0.497,0.377
3908823,5030.0,3302.0,-2088.0,0.509,0.582,-0.5,0.391
3908839,4174.0,3898.0,-1868.0,0.503,0.575,-0.501,0.406
3908855,3820.0,3782.0,-1772.0,0.498,0.569,-0.502,0.42
3908871,3470.0,3936.0,-1250.0,0.492,0.563,-0.503,0.433
3908897,3676.0,2934.0,-1164.0,0.485,0.558,-0.505,0.444
3908913,3978.0,2524.0,-948.0,0.48,0.554,-0.506,0.455
3908930,3914.0,2690.0,-734.0,0.475,0.55,-0.506,0.464
3908947,3824.0,2908.0,-618.0,0.47,0.548,-0.506,0.472
3908964,4366.0,2166.0,-674.0,0.466,0.546,-0.504,0.479
3908981,4000.0,2810.0,-450.0,0.462,0.546,-0.503,0.485
3908997,4404.0,2568.0,-412.0,0.459,0.547,-0.502,0.489
3909014,4812.0,1722.0,-306.0,0.456,0.549,-0.5,0.491
3909031,4802.0,2664.0,-290.0,0.453,0.551,-0.497,0.494
3909047,4482.0,2254.0,-44.0,0.451,0.554,-0.495,0.494
3909074,4170.0,2448.0,-8.0,0.449,0.558,-0.495,0.493
3909090,4710.0,1984.0,-160.0,0.446,0.563,-0.494,0.49
3909106,4980.0,2126.0,-400.0,0.445,0.568,-0.493,0.486
3909122,5362.0,1970.0,-520.0,0.446,0.573,-0.491,0.482
3909138,4462.0,2860.0,-280.0,0.448,0.578,-0.488,0.477
3909154,4570.0,2792.0,-22.0,0.45,0.582,-0.487,0.47
3909180,5100.0,1998.0,-318.0,0.453,0.586,-0.487,0.463
3909196,5082.0,1852.0,-404.0,0.456,0.591,-0.485,0.456
3909212,5182.0,1840.0,-376.0,0.461,0.595,-0.483,0.447
3909228,5082.0,2932.0,-464.0,0.466,0.599,-0.481,0.438
3909244,5654.0,3586.0,-884.0,0.472,0.602,-0.481,0.429
3909260,4982.0,2688.0,-812.0,0.477,0.604,-0.481,0.419
3909286,6750.0,2136.0,-1924.0,0.484,0.605,-0.481,0.41
3909303,5240.0,3316.0,-1522.0,0.491,0.607,-0.48,0.4
3909319,4068.0,2036.0,-996.0,0.497,0.609,-0.481,0.388
3909335,4194.0,2082.0,-1272.0,0.501,0.613,-0.482,0.374
3909351,5202.0,4372.0,-2062.0,0.505,0.617,-0.485,0.36
3909368,6468.0,3560.0,-2846.0,0.51,0.617,-0.489,0.348
3909384,7254.0,136.0,-3020.0,0.516,0.615,-0.492,0.336
3909410,4750.0,1484.0,-1778.0,0.522,0.617,-0.492,0.323
3909427,5416.0,2568.0,-1984.0,0.525,0.621,-0.493,0.309
3909444,6030.0,3156.0,-2424.0,0.528,0.622,-0.496,0.296
3909461,6920.0,2388.0,-2536.0,0.532,0.621,-0.5,0.286
3909478,6430.0,1396.0,-2358.0,0.536,0.619,-0.503,0.277
3909495,7538.0,1950.0,-3014.0,0.54,0.617,-0.504,0.27
3909512,5058.0,1934.0,-1572.0,0.545,0.614,-0.506,0.264
3909529,7246.0,2502.0,-2220.0,0.547,0.612,-0.509,0.258
3909546,6524.0,1750.0,-2036.0,0.549,0.609,-0.514,0.253
3909562,8726.0,2840.0,-2892.0,0.551,0.605,-0.518,0.252
3909578,7912.0,2672.0,-2528.0,0.554,0.598,-0.521,0.253
3909604,8518.0,2264.0,-2268.0,0.558,0.591,-0.524,0.255
3909620,8814.0,712.0,-2188.0,0.559,0.585,-0.528,0.258
3909637,10300.0,3108.0,-2772.0,0.56,0.579,-0.53,0.263
3909654,9274.0,1972.0,-2268.0,0.56,0.572,-0.535,0.27
3909671,9904.0,1582.0,-2644.0,0.559,0.564,-0.54,0.279
3909688,10856.0,1734.0,-2662.0,0.557,0.555,-0.545,0.29
3909704,11982.0,2528.0,-2884.0,0.554,0.544,-0.552,0.302
3909720,12164.0,1440.0,-2524.0,0.551,0.533,-0.56,0.314
3909747,12294.0,470.0,-2294.0,0.547,0.522,-0.567,0.326
3909764,13736.0,852.0,-2692.0,0.543,0.512,-0.573,0.338
3909780,13704.0,346.0,-2890.0,0.54,0.503,-0.578,0.348
3909797,12858.0,48.0,-2290.0,0.536,0.496,-0.582,0.357
3909813,11978.0,-532.0,-2112.0,0.533,0.491,-0.586,0.363
3909830,11522.0,-990.0,-2006.0,0.53,0.489,-0.589,0.366
3909847,11264.0,-736.0,-2108.0,0.526,0.489,-0.591,0.367
3909864,10932.0,-466.0,-2242.0,0.522,0.49,-0.594,0.366
3909881,10322.0,-326.0,-1930.0,0.519,0.492,-0.597,0.365
3909898,9772.0,-516.0,-1928.0,0.516,0.493,-0.6,0.362
3909914,10008.0,-1158.0,-2140.0,0.514,0.495,-0.602,0.359
3909940,9562.0,-1126.0,-1938.0,0.514,0.497,-0.602,0.356
3909957,9836.0,-226.0,-1858.0,0.515,0.5,-0.601,0.353
3909974,9730.0,144.0,-1872.0,0.516,0.501,-0.6,0.35
3909991,10576.0,-128.0,-1886.0,0.518,0.5,-0.6,0.347
3910008,10992.0,-444.0,-2186.0,0.521,0.5,-0.6,0.345
3910026,10754.0,-1426.0,-2144.0,0.523,0.5,-0.599,0.343
3910043,10042.0,-692.0,-1812.0,0.524,0.503,-0.598,0.34
3910060,10348.0,302.0,-1980.0,0.524,0.506,-0.597,0.335
3910077,10912.0,174.0,-2294.0,0.524,0.51,-0.596,0.331
3910094,11086.0,-182.0,-2448.0,0.524,0.514,-0.595,0.327
3910111,11576.0,972.0,-2558.0,0.524,0.518,-0.594,0.323
3910128,11602.0,622.0,-2752.0,0.524,0.522,-0.593,0.319
3910145,11690.0,-40.0,-2666.0,0.524,0.526,-0.591,0.314
3910162,11542.0,270.0,-2596.0,0.525,0.531,-0.589,0.31
3910189,11440.0,1270.0,-2908.0,0.526,0.536,-0.586,0.304
3910206,11276.0,976.0,-2870.0,0.528,0.54,-0.583,0.299
3910223,10834.0,1112.0,-2830.0,0.529,0.545,-0.58,0.294
3910240,10264.0,1738.0,-2644.0,0.531,0.549,-0.577,0.289
3910257,10188.0,1406.0,-2824.0,0.534,0.553,-0.573,0.284
3910274,9900.0,1318.0,-2698.0,0.536,0.557,-0.569,0.28
3910290,9978.0,1976.0,-2924.0,0.538,0.561,-0.565,0.277
3910306,8588.0,2198.0,-2436.0,0.54,0.564,-0.56,0.275
3910322,8352.0,1578.0,-2324.0,0.542,0.567,-0.557,0.273
3910348,8572.0,1984.0,-2572.0,0.543,0.57,-0.553,0.272
3910364,8076.0,2548.0,-2362.0,0.544,0.573,-0.55,0.273
3910380,7608.0,3004.0,-2122.0,0.544,0.574,-0.547,0.275
3910397,8010.0,1720.0,-2104.0,0.544,0.575,-0.544,0.278
3910413,7624.0,2362.0,-2138.0,0.543,0.576,-0.542,0.282
3910430,7568.0,2668.0,-2130.0,0.542,0.576,-0.54,0.288
3910446,8064.0,1776.0,-2366.0,0.541,0.575,-0.539,0.295
3910472,7530.0,2334.0,-2172.0,0.539,0.574,-0.537,0.304
3910489,7376.0,2154.0,-2172.0,0.536,0.572,-0.536,0.313
3910506,7808.0,2606.0,-2206.0,0.533,0.569,-0.536,0.324
3910522,8042.0,2400.0,-2458.0,0.531,0.565,-0.535,0.335
3910538,7788.0,2400.0,-2322.0,0.528,0.562,-0.533,0.347
3910554,6274.0,4066.0,-1716.0,0.525,0.559,-0.531,0.359
3910570,6704.0,3484.0,-2116.0,0.521,0.555,-0.532,0.371
3910596,7548.0,3420.0,-2556.0,0.517,0.552,-0.531,0.382
3910613,6324.0,3382.0,-2018.0,0.513,0.549,-0.529,0.394
3910630,5374.0,3538.0,-1634.0,0.507,0.546,-0.529,0.406
3910646,5230.0,3510.0,-1494.0,0.5,0.544,-0.53,0.417
3910663,5196.0,2054.0,-1670.0,0.492,0.542,-0.531,0.428
3910680,5784.0,1298.0,-1974.0,0.484,0.541,-0.53,0.439
3910696,4676.0,2548.0,-1758.0,0.475,0.54,-0.528,0.451
3910713,4170.0,1050.0,-1600.0,0.464,0.541,-0.527,0.463
3910730,3770.0,1314.0,-1760.0,0.451,0.543,-0.527,0.474
3910746,2820.0,1042.0,-1130.0,0.437,0.546,-0.526,0.484
3910773,2740.0,620.0,-686.0,0.423,0.55,-0.525,0.493
3910790,2318.0,1442.0,-138.0,0.408,0.555,-0.525,0.5
3910806,3106.0,-324.0,-290.0,0.395,0.56,-0.522,0.507
3910823,1054.0,1940.0,1036.0,0.382,0.567,-0.519,0.513
3910839,1492.0,3234.0,1332.0,0.37,0.573,-0.518,0.516
3910855,1682.0,414.0,1172.0,0.36,0.579,-0.518,0.517
3910871,2210.0,768.0,1234.0,0.352,0.586,-0.516,0.516
3910897,2770.0,1910.0,844.0,0.345,0.594,-0.512,0.515
3910913,2680.0,2680.0,902.0,0.34,0.601,-0.51,0.514
3910929,2586.0,2050.0,568.0,0.336,0.606,-0.509,0.511
3910945,3950.0,1064.0,-330.0,0.334,0.611,-0.508,0.506
3910962,4226.0,1314.0,-352.0,0.335,0.617,-0.506,0.5
3910978,4898.0,1870.0,-1136.0,0.336,0.623,-0.505,0.494
3910994,4932.0,2188.0,-946.0,0.338,0.629,-0.504,0.486
3911020,5774.0,1960.0,-1416.0,0.341,0.633,-0.507,0.476
3911036,7212.0,452.0,-2392.0,0.344,0.636,-0.511,0.465
3911052,7112.0,1136.0,-2286.0,0.348,0.639,-0.515,0.453
3911068,6812.0,1514.0,-2992.0,0.352,0.641,-0.52,0.441
3911084,7352.0,2004.0,-3824.0,0.357,0.641,-0.527,0.429
3911100,7516.0,462.0,-3878.0,0.364,0.639,-0.533,0.418
3911126,5952.0,-888.0,-2968.0,0.37,0.637,-0.538,0.409
3911144,5206.0,-552.0,-2828.0,0.375,0.637,-0.542,0.399
3911161,5774.0,740.0,-3544.0,0.379,0.637,-0.546,0.39
3911178,7946.0,656.0,-4588.0,0.384,0.635,-0.55,0.384
3911195,7818.0,1200.0,-5058.0,0.39,0.631,-0.553,0.379
3911212,5660.0,-260.0,-3670.0,0.396,0.628,-0.555,0.374
3911229,6468.0,464.0,-4062.0,0.399,0.628,-0.557,0.369
3911246,8108.0,2942.0,-4472.0,0.403,0.625,-0.559,0.367
3911263,7216.0,204.0,-3712.0,0.408,0.621,-0.562,0.364
3911279,7830.0,-152.0,-3918.0,0.412,0.618,-0.562,0.364
3911296,7420.0,212.0,-3574.0,0.416,0.616,-0.561,0.363
3911322,6864.0,642.0,-3128.0,0.42,0.615,-0.56,0.363
3911339,7672.0,-244.0,-3082.0,0.423,0.612,-0.56,0.364
3911355,8582.0,-1414.0,-3008.0,0.426,0.609,-0.56,0.366
3911371,10942.0,-2724.0,-3614.0,0.43,0.607,-0.557,0.371
3911388,11164.0,-202.0,-3526.0,0.436,0.604,-0.55,0.377
3911405,9340.0,196.0,-2622.0,0.444,0.6,-0.544,0.384
3911422,7666.0,46.0,-1602.0,0.449,0.596,-0.54,0.388
3911438,11170.0,-2230.0,-2876.0,0.451,0.593,-0.539,0.394
3911455,11954.0,584.0,-3260.0,0.453,0.589,-0.535,0.402
3911472,11556.0,1468.0,-3100.0,0.455,0.583,-0.534,0.411
3911499,9932.0,-524.0,-2170.0,0.456,0.576,-0.533,0.42
3911515,8760.0,800.0,-1604.0,0.455,0.571,-0.534,0.426
3911531,10912.0,20.0,-2508.0,0.453,0.567,-0.536,0.43
3911547,11748.0,610.0,-2778.0,0.452,0.564,-0.538,0.435
3911563,11996.0,308.0,-2756.0,0.451,0.559,-0.538,0.44
3911579,11254.0,-226.0,-2126.0,0.45,0.556,-0.539,0.445
3911596,10802.0,-154.0,-1840.0,0.448,0.554,-0.54,0.448
3911623,11522.0,-1664.0,-2142.0,0.446,0.553,-0.542,0.449
3911639,12418.0,-2124.0,-2488.0,0.442,0.554,-0.543,0.451
3911655,10192.0,-146.0,-1126.0,0.439,0.555,-0.544,0.451
3911671,10914.0,604.0,-1506.0,0.436,0.555,-0.549,0.448
3911687,11482.0,-1954.0,-1694.0,0.434,0.553,-0.556,0.444
3911703,12012.0,-2936.0,-1866.0,0.432,0.552,-0.56,0.441
3911729,11556.0,-2262.0,-1650.0,0.432,0.552,-0.561,0.44
3911745,10402.0,-718.0,-1366.0,0.433,0.552,-0.562,0.438
3911761,10160.0,-124.0,-1328.0,0.435,0.55,-0.564,0.437
3911777,10262.0,-896.0,-1726.0,0.437,0.547,-0.567,0.434
3911793,11220.0,-1362.0,-1986.0,0.44,0.544,-0.57,0.431
3911810,11030.0,-2448.0,-2118.0,0.443,0.542,-0.573,0.427
3911826,11032.0,-982.0,-1984.0,0.445,0.542,-0.574,0.423
3911852,10950.0,-434.0,-2302.0,0.448,0.541,-0.576,0.418
3911868,10878.0,-1364.0,-2296.0,0.45,0.54,-0.579,0.413
3911884,10796.0,-1020.0,-2474.0,0.451,0.54,-0.582,0.408
3911900,11332.0,-1210.0,-2926.0,0.453,0.54,-0.585,0.403
3911916,10574.0,-956.0,-2708.0,0.454,0.54,-0.587,0.397
3911932,10920.0,-470.0,-3106.0,0.454,0.541,-0.59,0.391
3911959,10656.0,-484.0,-3256.0,0.455,0.541,-0.593,0.386
3911976,11248.0,-318.0,-3664.0,0.456,0.541,-0.595,0.381
3911993,10976.0,-940.0,-3558.0,0.458,0.541,-0.596,0.378
3912010,10076.0,-804.0,-3382.0,0.459,0.542,-0.596,0.373
3912027,10180.0,148.0,-3532.0,0.46,0.544,-0.597,0.369
3912044,10206.0,194.0,-3644.0,0.462,0.544,-0.597,0.366
3912061,9850.0,-782.0,-3500.0,0.463,0.546,-0.597,0.363
3912078,8864.0,132.0,-3140.0,0.464,0.548,-0.595,0.36
3912094,8726.0,788.0,-2946.0,0.464,0.551,-0.594,0.358
3912111,8936.0,914.0,-3036.0,0.463,0.553,-0.595,0.355
3912128,9016.0,300.0,-3060.0,0.461,0.554,-0.596,0.354
3912144,9048.0,-66.0,-3020.0,0.461,0.555,-0.595,0.354
3912171,8672.0,938.0,-2782.0,0.46,0.556,-0.594,0.355
3912187,8608.0,746.0,-3106.0,0.46,0.557,-0.592,0.358
3912204,7664.0,198.0,-2700.0,0.459,0.556,-0.591,0.361
3912220,8118.0,1198.0,-3074.0,0.458,0.557,-0.589,0.365
3912236,7816.0,1446.0,-3290.0,0.457,0.556,-0.588,0.369
3912252,7094.0,1108.0,-3114.0,0.456,0.555,-0.586,0.375
3912268,6524.0,2012.0,-2906.0,0.453,0.554,-0.585,0.38
3912294,6564.0,1008.0,-2634.0,0.45,0.554,-0.584,0.386
3912310,5014.0,1986.0,-1966.0,0.446,0.554,-0.584,0.391
3912327,5252.0,1632.0,-1946.0,0.441,0.553,-0.585,0.397
3912344,5530.0,3240.0,-1756.0,0.435,0.552,-0.587,0.403
3912361,5070.0,1994.0,-1342.0,0.429,0.548,-0.59,0.409
3912378,5988.0,1140.0,-1636.0,0.423,0.545,-0.592,0.416
3912395,5474.0,2488.0,-1354.0,0.419,0.542,-0.593,0.424
3912412,4444.0,2052.0,-1004.0,0.414,0.538,-0.594,0.431
3912429,5038.0,140.0,-1252.0,0.411,0.534,-0.594,0.439
3912445,4182.0,1134.0,-1228.0,0.409,0.531,-0.594,0.446
3912472,3870.0,1026.0,-870.0,0.407,0.527,-0.593,0.454
3912488,4038.0,456.0,-1124.0,0.405,0.523,-0.592,0.461
3912505,3674.0,-1042.0,-550.0,0.404,0.521,-0.589,0.468
3912522,2976.0,-300.0,-20.0,0.403,0.52,-0.585,0.474
3912539,3014.0,-174.0,68.0,0.401,0.521,-0.581,0.48
3912556,2772.0,-858.0,232.0,0.399,0.523,-0.576,0.485
3912573,3206.0,-770.0,298.0,0.396,0.528,-0.571,0.489
3912590,3206.0,550.0,-70.0,0.394,0.533,-0.566,0.491
3912607,3348.0,288.0,-4.0,0.392,0.538,-0.561,0.491
3912624,3556.0,844.0,44.0,0.392,0.543,-0.558,0.49
3912642,3926.0,506.0,16.0,0.392,0.548,-0.555,0.488
3912659,3426.0,1206.0,290.0,0.393,0.553,-0.552,0.485
3912676,3702.0,568.0,-170.0,0.396,0.557,-0.551,0.48
3912693,3388.0,726.0,348.0,0.399,0.561,-0.549,0.474
3912720,3906.0,758.0,-210.0,0.403,0.565,-0.548,0.467
3912737,4072.0,1936.0,-236.0,0.408,0.568,-0.548,0.459
3912754,3866.0,1654.0,-250.0,0.414,0.57,-0.55,0.449
3912771,4924.0,686.0,-1062.0,0.42,0.571,-0.552,0.438
3912788,4542.0,1456.0,-1102.0,0.427,0.572,-0.554,0.428
3912804,5004.0,1190.0,-1346.0,0.436,0.572,-0.556,0.417
3912821,4676.0,2296.0,-1474.0,0.443,0.572,-0.559,0.405
3912838,5076.0,1716.0,-1916.0,0.451,0.57,-0.564,0.393
3912855,5422.0,464.0,-2250.0,0.459,0.568,-0.568,0.38
3912872,5664.0,1280.0,-2578.0,0.466,0.566,-0.572,0.368
3912888,7314.0,1562.0,-3382.0,0.473,0.563,-0.576,0.357
3912915,5424.0,3066.0,-2712.0,0.481,0.559,-0.58,0.345
3912931,8240.0,2122.0,-3862.0,0.488,0.554,-0.586,0.335
3912947,6468.0,862.0,-2974.0,0.495,0.548,-0.592,0.324
3912963,8292.0,-222.0,-3416.0,0.5,0.545,-0.595,0.315
3912979,6964.0,1980.0,-3060.0,0.505,0.542,-0.597,0.306
3912995,8006.0,3752.0,-3634.0,0.511,0.537,-0.601,0.298
3913021,8714.0,2404.0,-3110.0,0.517,0.529,-0.607,0.292
3913038,8022.0,-298.0,-3048.0,0.522,0.52,-0.613,0.287
3913055,8934.0,-1002.0,-3206.0,0.527,0.515,-0.615,0.283
3913072,7718.0,1852.0,-2646.0,0.532,0.511,-0.615,0.279
3913088,9972.0,3818.0,-3286.0,0.537,0.504,-0.617,0.277
3913105,9760.0,1058.0,-2954.0,0.543,0.494,-0.62,0.277
3913122,9296.0,-50.0,-2386.0,0.548,0.484,-0.622,0.278
3913139,8808.0,176.0,-2464.0,0.553,0.476,-0.624,0.279
3913155,10428.0,336.0,-2810.0,0.557,0.468,-0.626,0.282
3913171,11834.0,1264.0,-3518.0,0.561,0.458,-0.627,0.287
3913197,11312.0,926.0,-3276.0,0.565,0.447,-0.629,0.293
3913213,9898.0,976.0,-2294.0,0.567,0.436,-0.631,0.299
3913229,10498.0,-404.0,-2526.0,0.567,0.426,-0.636,0.304
3913246,12260.0,-704.0,-3080.0,0.565,0.418,-0.64,0.31
3913262,13424.0,-400.0,-3424.0,0.563,0.412,-0.644,0.315
3913279,12866.0,-86.0,-3024.0,0.561,0.406,-0.647,0.32
3913296,11954.0,-1072.0,-2776.0,0.558,0.402,-0.65,0.324
3913313,11510.0,-1328.0,-2802.0,0.556,0.399,-0.652,0.326
3913330,11322.0,-1206.0,-2634.0,0.553,0.399,-0.655,0.327
3913356,11452.0,-1324.0,-2768.0,0.549,0.4,-0.657,0.327
3913372,11520.0,-1506.0,-2958.0,0.546,0.402,-0.659,0.326
3913388,10644.0,-1140.0,-2724.0,0.544,0.405,-0.659,0.325
3913404,9878.0,-992.0,-2390.0,0.542,0.409,-0.659,0.324
3913420,9710.0,-1358.0,-2364.0,0.539,0.413,-0.659,0.323
3913446,9514.0,-764.0,-2244.0,0.536,0.419,-0.659,0.321
3913462,9390.0,-322.0,-2264.0,0.534,0.424,-0.659,0.318
3913478,9452.0,-556.0,-2202.0,0.531,0.429,-0.659,0.315
3913494,9032.0,-474.0,-2050.0,0.53,0.434,-0.659,0.312
