timeMs,ax,ay,az,q0,q1,q2,q3
2697817,11645.0,1771.0,-1772.0,0.624,0.236,-0.743,0.05
2697834,11469.0,1917.0,-1982.0,0.624,0.246,-0.74,0.05
2697852,11293.0,2037.0,-2278.0,0.624,0.258,-0.736,0.048
2697870,11417.0,2241.0,-2432.0,0.624,0.27,-0.732,0.046
2697888,11211.0,2557.0,-2120.0,0.625,0.282,-0.727,0.043
2697905,10789.0,3765.0,-1790.0,0.626,0.293,-0.721,0.038
2697923,9909.0,4109.0,-1734.0,0.628,0.304,-0.716,0.033
2697942,9591.0,3977.0,-1882.0,0.631,0.313,-0.71,0.028
2697952,8711.0,2933.0,-2088.0,0.634,0.322,-0.703,0.023
2697970,8629.0,2089.0,-1916.0,0.636,0.333,-0.696,0.021
2697988,8337.0,3591.0,-1542.0,0.637,0.345,-0.689,0.021
2698006,7907.0,4825.0,-1476.0,0.639,0.356,-0.682,0.02
2698025,7261.0,4131.0,-1832.0,0.641,0.365,-0.674,0.019
2698044,6963.0,2841.0,-1672.0,0.645,0.374,-0.667,0.018
2698063,6883.0,2583.0,-1152.0,0.647,0.384,-0.659,0.02
2698082,5937.0,3247.0,-1148.0,0.649,0.395,-0.65,0.023
2698091,6399.0,4919.0,-1486.0,0.649,0.407,-0.642,0.025
2698110,6095.0,6153.0,-1240.0,0.651,0.415,-0.635,0.027
2698129,5783.0,4193.0,-1316.0,0.653,0.421,-0.629,0.028
2698148,6173.0,3773.0,-1534.0,0.655,0.427,-0.622,0.03
2698166,5683.0,3185.0,-1418.0,0.658,0.433,-0.615,0.033
2698184,5565.0,3301.0,-860.0,0.66,0.44,-0.608,0.036
2698203,5075.0,4355.0,-834.0,0.66,0.448,-0.602,0.04
2698221,5365.0,5889.0,-988.0,0.66,0.454,-0.597,0.044
2698229,5489.0,6045.0,-1260.0,0.661,0.458,-0.593,0.046
2698247,5255.0,3677.0,-1358.0,0.662,0.46,-0.589,0.049
2698266,5073.0,2739.0,-1342.0,0.663,0.464,-0.585,0.055
2698285,4667.0,3265.0,-1184.0,0.663,0.47,-0.579,0.061
2698303,4067.0,4309.0,-802.0,0.663,0.476,-0.574,0.068
2698321,3735.0,4335.0,-936.0,0.662,0.482,-0.57,0.075
2698339,3323.0,3569.0,-690.0,0.66,0.486,-0.566,0.082
2698357,2413.0,2197.0,-712.0,0.659,0.491,-0.563,0.09
2698376,2213.0,1933.0,-302.0,0.659,0.495,-0.558,0.097
2698395,1139.0,1763.0,152.0,0.659,0.499,-0.554,0.102
2698413,919.0,359.0,480.0,0.658,0.503,-0.551,0.106
2698420,677.0,941.0,464.0,0.656,0.507,-0.549,0.108
2698438,1363.0,1539.0,-132.0,0.655,0.509,-0.548,0.109
2698456,1899.0,1227.0,-254.0,0.654,0.511,-0.547,0.11
2698474,2285.0,1327.0,-160.0,0.652,0.513,-0.547,0.111
2698492,2957.0,1715.0,-260.0,0.651,0.515,-0.547,0.112
2698509,3575.0,1725.0,-474.0,0.649,0.517,-0.547,0.112
2698527,3691.0,2191.0,-860.0,0.648,0.519,-0.547,0.113
2698545,4387.0,3219.0,-732.0,0.645,0.522,-0.546,0.114
2698564,4679.0,4103.0,-1098.0,0.643,0.524,-0.546,0.115
2698582,5621.0,4589.0,-1796.0,0.641,0.526,-0.547,0.116
2698600,6277.0,4707.0,-1560.0,0.64,0.527,-0.548,0.116
2698619,6517.0,5487.0,-1924.0,0.638,0.528,-0.549,0.116
2698638,6813.0,4489.0,-2244.0,0.634,0.529,-0.551,0.118
2698656,6767.0,5067.0,-2132.0,0.631,0.531,-0.553,0.119
2698673,6851.0,6243.0,-2174.0,0.628,0.532,-0.556,0.118
2698691,7239.0,5869.0,-2548.0,0.625,0.532,-0.559,0.117
2698710,6991.0,4091.0,-2126.0,0.622,0.53,-0.564,0.117
2698718,7081.0,3041.0,-2028.0,0.617,0.531,-0.568,0.118
2698736,6709.0,6121.0,-2180.0,0.613,0.533,-0.572,0.119
2698754,7181.0,6991.0,-2378.0,0.611,0.53,-0.577,0.117
2698771,7229.0,4005.0,-2382.0,0.608,0.526,-0.583,0.116
2698788,8063.0,2495.0,-2000.0,0.606,0.522,-0.589,0.117
2698806,7967.0,4679.0,-2380.0,0.602,0.521,-0.593,0.119
2698824,7211.0,5439.0,-2062.0,0.601,0.517,-0.597,0.119
2698842,7563.0,3369.0,-2174.0,0.601,0.513,-0.602,0.119
2698861,8057.0,4497.0,-2094.0,0.6,0.508,-0.606,0.12
2698879,7709.0,3659.0,-1896.0,0.599,0.504,-0.61,0.123
2698897,7509.0,3615.0,-1788.0,0.599,0.499,-0.614,0.124
2698916,7515.0,3563.0,-1642.0,0.599,0.493,-0.618,0.125
2698934,8579.0,4569.0,-2222.0,0.599,0.487,-0.623,0.128
2698952,8913.0,4349.0,-2234.0,0.599,0.479,-0.628,0.132
2698970,8579.0,3453.0,-1594.0,0.601,0.47,-0.633,0.135
2698988,8841.0,2781.0,-1276.0,0.602,0.461,-0.637,0.138
2699006,9797.0,3393.0,-1858.0,0.604,0.452,-0.641,0.141
2699025,10527.0,3893.0,-2662.0,0.606,0.442,-0.645,0.146
2699034,11219.0,3831.0,-1492.0,0.609,0.431,-0.648,0.152
2699051,11443.0,4475.0,-1222.0,0.613,0.419,-0.651,0.158
2699069,12399.0,3439.0,-2016.0,0.617,0.406,-0.654,0.162
2699087,14131.0,1721.0,-2180.0,0.622,0.395,-0.656,0.166
2699106,13697.0,1655.0,-1116.0,0.625,0.388,-0.656,0.17
2699125,13503.0,1529.0,-464.0,0.627,0.385,-0.655,0.171
2699144,13791.0,1995.0,-422.0,0.628,0.387,-0.654,0.169
2699162,13621.0,2735.0,-908.0,0.627,0.391,-0.653,0.163
2699180,13345.0,2555.0,-1044.0,0.627,0.397,-0.652,0.155
2699199,13037.0,3151.0,-1536.0,0.626,0.404,-0.651,0.146
2699217,12343.0,3759.0,-1574.0,0.624,0.412,-0.649,0.138
2699226,11637.0,4339.0,-1488.0,0.623,0.419,-0.648,0.13
2699243,11049.0,4401.0,-1406.0,0.622,0.425,-0.646,0.121
2699262,10481.0,4271.0,-1648.0,0.622,0.431,-0.644,0.113
2699282,9927.0,3403.0,-1676.0,0.623,0.436,-0.641,0.105
2699301,9169.0,3673.0,-1478.0,0.623,0.443,-0.637,0.099
2699319,8319.0,4599.0,-1450.0,0.623,0.45,-0.633,0.093
2699338,7975.0,4771.0,-1648.0,0.624,0.455,-0.629,0.086
2699356,7769.0,4345.0,-1708.0,0.626,0.46,-0.624,0.081
2699375,7503.0,3055.0,-1606.0,0.628,0.465,-0.619,0.078
2699384,6937.0,3299.0,-1634.0,0.629,0.471,-0.613,0.077
2699402,6363.0,4715.0,-1644.0,0.631,0.477,-0.606,0.075
2699420,5835.0,3983.0,-1454.0,0.634,0.482,-0.6,0.075
2699437,5893.0,3519.0,-1604.0,0.636,0.487,-0.594,0.075
2699454,5177.0,4303.0,-1056.0,0.637,0.491,-0.589,0.077
2699472,4753.0,4185.0,-762.0,0.637,0.494,-0.586,0.078
2699490,4675.0,3537.0,-970.0,0.638,0.495,-0.585,0.079
2699509,4819.0,3511.0,-1068.0,0.637,0.497,-0.583,0.081
2699527,4895.0,4857.0,-1686.0,0.638,0.497,-0.582,0.083
2699545,5149.0,3141.0,-1364.0,0.639,0.497,-0.581,0.086
2699563,5069.0,2819.0,-1342.0,0.641,0.496,-0.579,0.091
2699582,5055.0,3493.0,-1494.0,0.643,0.497,-0.576,0.095
2699600,4321.0,2333.0,-1280.0,0.645,0.497,-0.572,0.1
2699618,3943.0,2733.0,-1166.0,0.648,0.498,-0.567,0.106
2699635,3407.0,3189.0,-980.0,0.65,0.498,-0.563,0.111
2699653,3109.0,2119.0,-762.0,0.653,0.498,-0.559,0.115
2699671,2343.0,703.0,-546.0,0.655,0.498,-0.555,0.119
2699678,2033.0,-481.0,52.0,0.656,0.5,-0.551,0.124
2699695,2421.0,-493.0,-510.0,0.656,0.503,-0.548,0.129
2699712,2609.0,1819.0,-1112.0,0.655,0.506,-0.544,0.136
2699729,1575.0,3229.0,84.0,0.656,0.506,-0.542,0.141
2699746,1893.0,341.0,890.0,0.656,0.504,-0.543,0.145
2699764,2701.0,-565.0,-232.0,0.656,0.502,-0.544,0.149
2699782,4089.0,1077.0,-832.0,0.655,0.5,-0.544,0.154
2699800,3455.0,1451.0,-38.0,0.654,0.5,-0.545,0.159
2699818,4267.0,2919.0,-774.0,0.652,0.499,-0.547,0.164
2699836,5071.0,3759.0,-1290.0,0.649,0.499,-0.549,0.168
2699855,5319.0,3865.0,-908.0,0.647,0.498,-0.552,0.171
2699874,5687.0,3657.0,-1234.0,0.643,0.498,-0.556,0.174
2699892,6111.0,5537.0,-1442.0,0.639,0.498,-0.559,0.176
2699911,6907.0,4445.0,-1602.0,0.635,0.497,-0.564,0.177
2699929,7135.0,5143.0,-1978.0,0.631,0.496,-0.569,0.178
2699947,7009.0,4861.0,-1636.0,0.627,0.495,-0.574,0.179
2699966,7623.0,3399.0,-1620.0,0.623,0.495,-0.579,0.179
2699985,7785.0,5969.0,-2368.0,0.619,0.495,-0.583,0.179
2700004,8269.0,5005.0,-2516.0,0.617,0.492,-0.587,0.178
2700013,7123.0,2335.0,-1202.0,0.616,0.49,-0.591,0.177
2700031,7597.0,4249.0,-1634.0,0.613,0.49,-0.594,0.175
2700050,7955.0,5037.0,-2216.0,0.611,0.49,-0.598,0.174
2700068,7961.0,4735.0,-2364.0,0.61,0.486,-0.601,0.172
2700086,7849.0,3119.0,-1748.0,0.61,0.483,-0.605,0.169
2700104,7903.0,2901.0,-1424.0,0.61,0.481,-0.608,0.167
2700121,7581.0,4389.0,-1772.0,0.609,0.478,-0.611,0.165
2700138,7933.0,3897.0,-1862.0,0.609,0.475,-0.614,0.162
2700156,7597.0,3211.0,-1460.0,0.61,0.47,-0.617,0.16
2700173,8423.0,3641.0,-1768.0,0.61,0.466,-0.621,0.158
2700191,8349.0,3503.0,-1576.0,0.611,0.461,-0.624,0.157
2700209,8379.0,3905.0,-1460.0,0.612,0.455,-0.627,0.156
2700227,8911.0,2825.0,-1294.0,0.614,0.449,-0.631,0.154
2700245,9155.0,2343.0,-1820.0,0.617,0.442,-0.633,0.152
2700264,10001.0,2527.0,-1712.0,0.62,0.436,-0.634,0.151
2700283,10573.0,2959.0,-1748.0,0.625,0.429,-0.634,0.152
2700291,12269.0,2141.0,-1904.0,0.63,0.422,-0.633,0.153
2700310,12603.0,2511.0,-1574.0,0.635,0.416,-0.632,0.157
2700328,13709.0,2237.0,-896.0,0.638,0.41,-0.631,0.161
2700348,13827.0,2367.0,-532.0,0.64,0.407,-0.631,0.163
2700366,13759.0,2223.0,44.0,0.64,0.405,-0.632,0.163
2700384,13303.0,1919.0,-30.0,0.638,0.405,-0.635,0.16
2700402,13095.0,3163.0,-782.0,0.635,0.407,-0.639,0.155
2700420,12739.0,3777.0,-1148.0,0.631,0.408,-0.642,0.149
2700438,12141.0,3353.0,-1172.0,0.629,0.409,-0.645,0.143
2700455,11771.0,2423.0,-1316.0,0.628,0.411,-0.647,0.137
2700472,11051.0,2113.0,-1366.0,0.626,0.415,-0.646,0.132
2700490,10073.0,3461.0,-1236.0,0.626,0.421,-0.644,0.129
2700509,9097.0,4657.0,-1062.0,0.625,0.425,-0.642,0.126
2700526,8461.0,4087.0,-822.0,0.626,0.429,-0.64,0.123
2700545,8531.0,3835.0,-1070.0,0.626,0.433,-0.638,0.119
2700554,8291.0,3817.0,-1124.0,0.626,0.437,-0.635,0.116
2700571,8323.0,3847.0,-1194.0,0.627,0.441,-0.632,0.114
2700588,8861.0,5103.0,-1552.0,0.629,0.444,-0.629,0.112
2700606,8607.0,3933.0,-1486.0,0.631,0.446,-0.625,0.11
2700625,8239.0,3145.0,-1128.0,0.634,0.45,-0.62,0.11
2700642,8371.0,3571.0,-1050.0,0.636,0.454,-0.614,0.111
2700659,7579.0,4283.0,-1288.0,0.638,0.458,-0.608,0.112
2700675,7387.0,3903.0,-1408.0,0.641,0.462,-0.601,0.114
2700692,6333.0,3463.0,-1236.0,0.644,0.466,-0.595,0.118
2700709,6011.0,3949.0,-1210.0,0.647,0.469,-0.589,0.122
2700726,5597.0,4299.0,-1148.0,0.651,0.471,-0.583,0.126
2700743,5453.0,4569.0,-1022.0,0.654,0.472,-0.577,0.13
2700760,5269.0,3151.0,-1000.0,0.657,0.472,-0.573,0.134
2700777,5337.0,2771.0,-1198.0,0.66,0.473,-0.567,0.139
2700793,4927.0,4267.0,-1228.0,0.663,0.475,-0.561,0.144
2700810,4423.0,4833.0,-1054.0,0.666,0.476,-0.555,0.149
2700826,3775.0,4163.0,-810.0,0.671,0.475,-0.549,0.154
2700843,3125.0,231.0,-574.0,0.675,0.476,-0.542,0.158
2700860,2849.0,-585.0,-1074.0,0.678,0.48,-0.532,0.163
2700877,1439.0,1443.0,-160.0,0.681,0.486,-0.521,0.168
2700904,329.0,1945.0,498.0,0.683,0.491,-0.512,0.173
2700921,375.0,179.0,912.0,0.684,0.497,-0.504,0.175
2700939,287.0,-31.0,1004.0,0.684,0.502,-0.499,0.176
2700957,903.0,2321.0,14.0,0.682,0.509,-0.495,0.177
2700975,1917.0,2937.0,294.0,0.68,0.513,-0.493,0.176
2700993,3055.0,957.0,530.0,0.678,0.517,-0.493,0.176
2701012,3823.0,2703.0,-662.0,0.674,0.521,-0.493,0.176
2701032,4129.0,4413.0,-432.0,0.671,0.525,-0.493,0.175
2701051,5385.0,4895.0,-108.0,0.668,0.528,-0.495,0.173
2701069,5269.0,3033.0,324.0,0.663,0.532,-0.499,0.171
2701078,5949.0,3351.0,-1172.0,0.656,0.537,-0.503,0.169
2701095,7735.0,7559.0,-1974.0,0.65,0.542,-0.506,0.166
2701114,6399.0,4561.0,-818.0,0.646,0.544,-0.51,0.163
2701133,6905.0,3577.0,-1376.0,0.64,0.548,-0.514,0.16
2701151,7277.0,5395.0,-1512.0,0.634,0.553,-0.517,0.158
2701169,7295.0,7025.0,-2034.0,0.629,0.555,-0.521,0.155
2701187,7189.0,5093.0,-1790.0,0.627,0.555,-0.526,0.15
2701205,6711.0,2425.0,-1500.0,0.623,0.556,-0.531,0.146
2701223,7045.0,2985.0,-1736.0,0.618,0.559,-0.534,0.144
2701241,7113.0,7393.0,-2492.0,0.614,0.561,-0.537,0.142
2701260,6763.0,7365.0,-2042.0,0.613,0.558,-0.542,0.138
2701277,6377.0,3063.0,-1102.0,0.612,0.553,-0.549,0.133
2701296,6897.0,1219.0,-1762.0,0.609,0.552,-0.554,0.129
2701316,6457.0,3105.0,-1966.0,0.604,0.554,-0.558,0.128
2701324,7251.0,6983.0,-2996.0,0.602,0.553,-0.562,0.126
2701343,6429.0,5821.0,-2166.0,0.603,0.549,-0.566,0.123
2701362,7243.0,4013.0,-1872.0,0.604,0.544,-0.571,0.12
2701381,6789.0,2103.0,-1782.0,0.604,0.54,-0.574,0.119
2701400,7091.0,3563.0,-2364.0,0.603,0.538,-0.577,0.118
2701418,7831.0,4945.0,-2432.0,0.603,0.536,-0.579,0.119
2701437,7321.0,5333.0,-2002.0,0.603,0.532,-0.582,0.121
2701450,7111.0,4233.0,-1512.0,0.604,0.528,-0.585,0.122
2701468,7433.0,3099.0,-1638.0,0.604,0.523,-0.588,0.123
2701487,7495.0,3699.0,-1964.0,0.604,0.52,-0.591,0.125
2701505,7967.0,4333.0,-2092.0,0.604,0.516,-0.593,0.128
2701523,7907.0,4729.0,-1932.0,0.605,0.512,-0.596,0.132
2701541,7449.0,3455.0,-1168.0,0.604,0.507,-0.599,0.135
2701551,7329.0,3955.0,-1282.0,0.604,0.502,-0.604,0.138
2701573,7627.0,3735.0,-1796.0,0.604,0.495,-0.609,0.14
2701591,8925.0,4179.0,-1958.0,0.603,0.49,-0.614,0.144
2701610,9325.0,3569.0,-1258.0,0.602,0.483,-0.619,0.148
2701629,9835.0,4433.0,-1412.0,0.601,0.476,-0.624,0.151
2701639,12463.0,5543.0,-2258.0,0.601,0.468,-0.629,0.155
2701657,13207.0,3713.0,-2652.0,0.602,0.46,-0.633,0.159
2701676,14857.0,2983.0,-2392.0,0.604,0.454,-0.634,0.163
2701695,14567.0,3607.0,-1634.0,0.606,0.452,-0.633,0.166
2701714,13949.0,2597.0,-1134.0,0.608,0.454,-0.63,0.165
2701733,13653.0,3033.0,-896.0,0.609,0.459,-0.627,0.161
2701742,13083.0,4535.0,-1354.0,0.609,0.466,-0.623,0.155
2701761,12147.0,5159.0,-1306.0,0.608,0.471,-0.621,0.149
2701780,11755.0,3993.0,-1796.0,0.608,0.476,-0.62,0.141
2701799,11493.0,3115.0,-1794.0,0.608,0.481,-0.618,0.133
2701817,11047.0,3517.0,-2114.0,0.607,0.487,-0.615,0.127
2701836,10775.0,3911.0,-1996.0,0.607,0.493,-0.611,0.122
2701855,10007.0,4741.0,-1910.0,0.607,0.498,-0.608,0.117
2701872,10045.0,4917.0,-2134.0,0.609,0.502,-0.604,0.112
2701891,8825.0,3683.0,-1612.0,0.61,0.505,-0.601,0.108
2701899,8747.0,3621.0,-1934.0,0.612,0.509,-0.596,0.105
2701918,7577.0,4625.0,-1586.0,0.613,0.513,-0.592,0.105
2701937,6905.0,4753.0,-1370.0,0.615,0.515,-0.588,0.104
2701955,6483.0,3931.0,-1654.0,0.617,0.517,-0.584,0.104
2701974,6571.0,4067.0,-1864.0,0.619,0.518,-0.58,0.106
2701993,5827.0,4601.0,-1604.0,0.622,0.52,-0.576,0.108
2702012,6035.0,3989.0,-1832.0,0.625,0.52,-0.571,0.111
2702031,5713.0,4329.0,-1804.0,0.629,0.52,-0.566,0.115
2702041,5743.0,4605.0,-1876.0,0.634,0.52,-0.56,0.12
2702059,5285.0,4001.0,-1546.0,0.639,0.519,-0.554,0.125
2702077,5093.0,4617.0,-1140.0,0.643,0.518,-0.548,0.13
2702095,5223.0,5017.0,-1130.0,0.648,0.517,-0.544,0.134
2702112,5129.0,3019.0,-1274.0,0.652,0.515,-0.539,0.138
2702129,5381.0,3861.0,-1170.0,0.656,0.514,-0.534,0.143
2702146,4905.0,4105.0,-962.0,0.659,0.514,-0.529,0.146
2702164,4571.0,4613.0,-906.0,0.662,0.513,-0.525,0.149
2702182,4223.0,2321.0,-802.0,0.664,0.513,-0.522,0.152
2702201,3399.0,3145.0,-852.0,0.665,0.515,-0.518,0.156
2702220,2401.0,5851.0,-634.0,0.665,0.517,-0.516,0.158
2702238,1463.0,2741.0,294.0,0.665,0.516,-0.516,0.157
2702256,1839.0,459.0,-370.0,0.665,0.517,-0.516,0.156
2702274,1905.0,265.0,-836.0,0.664,0.52,-0.515,0.154
2702292,1437.0,1135.0,-590.0,0.662,0.524,-0.514,0.153
2702310,1143.0,2667.0,-364.0,0.661,0.526,-0.514,0.151
2702320,1511.0,453.0,-282.0,0.66,0.527,-0.515,0.147
2702338,2521.0,431.0,-744.0,0.658,0.529,-0.517,0.144
2702356,2889.0,687.0,-966.0,0.655,0.532,-0.518,0.141
2702374,2605.0,1551.0,-582.0,0.652,0.535,-0.519,0.138
2702392,3201.0,3883.0,-738.0,0.648,0.538,-0.523,0.135
2702411,3893.0,3553.0,-1118.0,0.645,0.537,-0.528,0.131
2702429,5111.0,2173.0,-1556.0,0.641,0.537,-0.533,0.127
2702449,4765.0,729.0,-884.0,0.636,0.539,-0.538,0.124
2702469,5529.0,3469.0,-1192.0,0.629,0.543,-0.543,0.123
2702478,6433.0,7375.0,-2700.0,0.623,0.545,-0.548,0.121
2702496,6961.0,6449.0,-2122.0,0.62,0.542,-0.554,0.119
2702515,6731.0,2119.0,-1676.0,0.618,0.539,-0.561,0.116
2702533,6771.0,1083.0,-1782.0,0.613,0.539,-0.566,0.114
2702550,7871.0,5903.0,-2442.0,0.606,0.542,-0.57,0.116
2702569,7725.0,9025.0,-2680.0,0.602,0.541,-0.576,0.116
2702588,7029.0,4679.0,-1778.0,0.601,0.535,-0.584,0.113
2702606,7335.0,165.0,-2396.0,0.598,0.531,-0.59,0.11
2702624,7007.0,2477.0,-2454.0,0.593,0.532,-0.594,0.111
2702643,7011.0,7761.0,-2976.0,0.588,0.534,-0.597,0.113
2702653,7091.0,7475.0,-2790.0,0.587,0.53,-0.601,0.113
2702670,7905.0,5351.0,-2860.0,0.587,0.525,-0.605,0.113
2702688,7089.0,2257.0,-2728.0,0.589,0.52,-0.608,0.112
2702706,7087.0,2827.0,-1976.0,0.588,0.519,-0.61,0.114
2702724,7223.0,5509.0,-2116.0,0.587,0.517,-0.612,0.116
2702742,8315.0,8499.0,-2424.0,0.587,0.513,-0.615,0.119
2702760,9075.0,4485.0,-2894.0,0.589,0.505,-0.62,0.118
2702778,8565.0,615.0,-2230.0,0.591,0.498,-0.623,0.119
2702797,8173.0,2189.0,-1984.0,0.592,0.495,-0.624,0.123
2702814,8057.0,5867.0,-1718.0,0.592,0.493,-0.625,0.128
2702831,9183.0,6027.0,-1476.0,0.592,0.488,-0.628,0.131
2702850,9525.0,4343.0,-1984.0,0.593,0.481,-0.632,0.134
2702869,9739.0,2879.0,-1740.0,0.594,0.474,-0.635,0.137
2702877,9305.0,2081.0,-1432.0,0.594,0.468,-0.639,0.14
2702895,9905.0,2775.0,-1650.0,0.594,0.464,-0.641,0.145
2702914,12005.0,5445.0,-2096.0,0.593,0.461,-0.643,0.15
2702932,11891.0,5309.0,-1718.0,0.594,0.455,-0.645,0.153
2702949,12087.0,2207.0,-1966.0,0.595,0.451,-0.647,0.153
2702966,11931.0,1975.0,-1836.0,0.596,0.45,-0.647,0.153
2702983,11497.0,3735.0,-1602.0,0.596,0.453,-0.645,0.153
2703001,10917.0,4523.0,-1220.0,0.595,0.457,-0.644,0.15
2703020,10387.0,5047.0,-1596.0,0.594,0.461,-0.644,0.143
2703038,10821.0,4511.0,-2026.0,0.592,0.465,-0.644,0.135
2703055,10461.0,4335.0,-2290.0,0.592,0.47,-0.643,0.126
2703073,10079.0,4113.0,-2144.0,0.591,0.476,-0.641,0.117
2703092,9795.0,4389.0,-2286.0,0.59,0.482,-0.638,0.11
2703110,9421.0,4421.0,-2284.0,0.59,0.488,-0.635,0.103
2703128,9341.0,4033.0,-2482.0,0.591,0.495,-0.63,0.095
2703147,8625.0,4349.0,-1982.0,0.592,0.502,-0.624,0.089
2703165,8111.0,4579.0,-1900.0,0.593,0.509,-0.619,0.083
2703182,7897.0,4599.0,-2134.0,0.594,0.515,-0.614,0.076
2703201,7239.0,4147.0,-1778.0,0.595,0.521,-0.609,0.069
2703218,7345.0,4465.0,-2174.0,0.596,0.526,-0.603,0.062
2703235,7231.0,4845.0,-2262.0,0.597,0.531,-0.598,0.056
2703253,7159.0,3591.0,-1904.0,0.598,0.536,-0.593,0.051
2703271,7233.0,4099.0,-2286.0,0.599,0.541,-0.588,0.046
2703279,7069.0,4953.0,-2406.0,0.601,0.546,-0.583,0.042
2703298,6699.0,4987.0,-2070.0,0.602,0.55,-0.578,0.039
2703316,6493.0,4597.0,-2266.0,0.604,0.553,-0.574,0.036
2703334,6433.0,3747.0,-2266.0,0.605,0.556,-0.569,0.034
2703353,6271.0,5395.0,-2096.0,0.607,0.559,-0.565,0.033
2703371,5705.0,4211.0,-1850.0,0.608,0.56,-0.561,0.032
2703389,5727.0,4617.0,-2160.0,0.609,0.562,-0.558,0.032
2703407,5349.0,4651.0,-1896.0,0.611,0.563,-0.555,0.033
2703425,4995.0,4635.0,-1904.0,0.612,0.564,-0.553,0.034
2703444,5103.0,4601.0,-2234.0,0.613,0.565,-0.552,0.037
2703462,5277.0,5903.0,-2004.0,0.614,0.565,-0.55,0.039
2703480,5211.0,5685.0,-2008.0,0.616,0.563,-0.55,0.041
2703499,5523.0,5603.0,-2332.0,0.618,0.561,-0.549,0.043
2703508,5477.0,4397.0,-1924.0,0.62,0.559,-0.549,0.047
2703527,4981.0,5169.0,-1922.0,0.622,0.557,-0.548,0.05
2703545,4451.0,5917.0,-1544.0,0.625,0.554,-0.548,0.052
2703564,4107.0,4369.0,-1492.0,0.628,0.551,-0.548,0.054
2703582,3671.0,3259.0,-1708.0,0.63,0.548,-0.548,0.056
2703600,2775.0,2659.0,-1222.0,0.632,0.546,-0.547,0.058
2703618,1887.0,1473.0,-864.0,0.635,0.544,-0.546,0.059
2703637,1397.0,-527.0,-874.0,0.637,0.543,-0.544,0.061
2703655,255.0,1093.0,-464.0,0.637,0.545,-0.542,0.065
2703672,327.0,3909.0,-568.0,0.638,0.543,-0.542,0.067
2703691,985.0,1799.0,-638.0,0.64,0.539,-0.543,0.067
2703699,2305.0,917.0,-754.0,0.641,0.536,-0.545,0.068
2703718,3029.0,2477.0,-898.0,0.64,0.535,-0.547,0.069
2703736,3503.0,4387.0,-810.0,0.64,0.533,-0.549,0.069
2703754,4025.0,2727.0,-782.0,0.638,0.532,-0.552,0.069
2703772,4515.0,3737.0,-980.0,0.635,0.533,-0.555,0.069
2703794,5137.0,6119.0,-1560.0,0.633,0.534,-0.557,0.069
2703813,5789.0,5987.0,-1576.0,0.63,0.534,-0.559,0.07
2703822,5931.0,4795.0,-1240.0,0.629,0.532,-0.562,0.069
2703840,6223.0,3517.0,-1604.0,0.627,0.532,-0.565,0.07
2703858,6655.0,5145.0,-1484.0,0.624,0.533,-0.567,0.071
2703876,6815.0,6691.0,-2060.0,0.621,0.534,-0.57,0.072
2703894,6953.0,5605.0,-1878.0,0.619,0.532,-0.573,0.074
2703913,6247.0,4739.0,-1440.0,0.618,0.53,-0.576,0.074
2703930,6737.0,2971.0,-1718.0,0.615,0.53,-0.579,0.075
2703949,6403.0,5257.0,-1874.0,0.612,0.532,-0.581,0.078
2703967,6369.0,6187.0,-1750.0,0.609,0.531,-0.584,0.079
2703985,6253.0,6015.0,-2128.0,0.607,0.529,-0.588,0.08
2704003,7145.0,5929.0,-1706.0,0.606,0.526,-0.592,0.08
2704021,7089.0,3593.0,-2074.0,0.604,0.522,-0.597,0.081
2704039,7129.0,4247.0,-2400.0,0.602,0.52,-0.6,0.084
2704058,6695.0,5323.0,-1680.0,0.601,0.518,-0.603,0.085
2704067,6547.0,5337.0,-1604.0,0.601,0.514,-0.606,0.086
2704085,7543.0,4133.0,-2348.0,0.601,0.51,-0.609,0.086
2704102,7479.0,4467.0,-2014.0,0.601,0.505,-0.612,0.088
2704121,7021.0,4181.0,-1594.0,0.601,0.502,-0.615,0.09
2704138,6805.0,4941.0,-1708.0,0.601,0.498,-0.618,0.091
2704156,7187.0,4529.0,-2086.0,0.602,0.493,-0.622,0.091
2704173,8053.0,4003.0,-2308.0,0.603,0.487,-0.625,0.091
2704190,8011.0,3601.0,-2226.0,0.605,0.481,-0.628,0.093
2704210,7587.0,3769.0,-1500.0,0.606,0.476,-0.63,0.096
2704227,7167.0,4363.0,-1532.0,0.608,0.471,-0.632,0.098
2704245,7501.0,4017.0,-1364.0,0.609,0.464,-0.635,0.099
2704263,7957.0,3609.0,-1552.0,0.611,0.457,-0.639,0.101
2704282,8767.0,4255.0,-1928.0,0.613,0.449,-0.642,0.104
2704300,8923.0,4073.0,-1630.0,0.615,0.441,-0.645,0.108
2704317,9203.0,3895.0,-1666.0,0.617,0.432,-0.648,0.113
2704335,9959.0,3551.0,-1926.0,0.619,0.424,-0.651,0.117
2704353,12281.0,4067.0,-2274.0,0.621,0.416,-0.653,0.121
2704371,12553.0,4259.0,-1842.0,0.624,0.409,-0.654,0.125
2704388,13201.0,3001.0,-1746.0,0.627,0.403,-0.654,0.126
2704406,12701.0,2271.0,-1310.0,0.63,0.402,-0.653,0.125
2704425,12681.0,3493.0,-1458.0,0.631,0.403,-0.651,0.122
2704434,12819.0,3291.0,-1816.0,0.631,0.408,-0.649,0.119
2704452,12089.0,3829.0,-1682.0,0.632,0.414,-0.646,0.114
2704471,11197.0,4009.0,-1248.0,0.631,0.421,-0.643,0.108
2704489,11401.0,4287.0,-1878.0,0.63,0.428,-0.64,0.103
2704506,10755.0,4349.0,-1834.0,0.63,0.434,-0.637,0.097
2704523,10067.0,3135.0,-1730.0,0.629,0.441,-0.634,0.091
2704540,9361.0,4113.0,-1640.0,0.628,0.449,-0.63,0.086
2704557,8771.0,4239.0,-1460.0,0.627,0.456,-0.626,0.08
2704575,8313.0,3531.0,-1632.0,0.626,0.463,-0.623,0.075
2704593,7935.0,3955.0,-1750.0,0.625,0.47,-0.619,0.071
2704611,7467.0,4405.0,-1538.0,0.625,0.477,-0.614,0.067
2704630,7269.0,3971.0,-1730.0,0.624,0.484,-0.61,0.063
2704649,7201.0,3941.0,-1776.0,0.624,0.49,-0.606,0.06
2704668,6715.0,3723.0,-1724.0,0.623,0.496,-0.602,0.058
2704687,6465.0,4121.0,-1874.0,0.623,0.502,-0.597,0.058
2704695,6349.0,4529.0,-1824.0,0.622,0.508,-0.592,0.057
2704713,6363.0,5159.0,-1938.0,0.623,0.513,-0.588,0.057
2704732,6447.0,4019.0,-1720.0,0.624,0.516,-0.584,0.057
2704751,6335.0,3909.0,-1668.0,0.625,0.52,-0.579,0.058
2704769,6301.0,4445.0,-1852.0,0.625,0.525,-0.575,0.06
2704788,6093.0,4549.0,-1644.0,0.626,0.529,-0.57,0.062
2704807,5999.0,5455.0,-1550.0,0.628,0.532,-0.565,0.063
2704826,5941.0,3479.0,-1426.0,0.63,0.534,-0.56,0.065
2704844,5929.0,4015.0,-1642.0,0.63,0.537,-0.556,0.068
2704853,5821.0,5113.0,-1550.0,0.631,0.54,-0.552,0.07
2704871,5391.0,4757.0,-1246.0,0.633,0.541,-0.549,0.072
2704889,5351.0,3625.0,-1058.0,0.635,0.54,-0.547,0.073
2704908,5809.0,4151.0,-1274.0,0.636,0.54,-0.546,0.077
2704927,6063.0,3817.0,-1364.0,0.636,0.54,-0.545,0.081
2704944,5655.0,5073.0,-1308.0,0.637,0.539,-0.544,0.085
2704964,5363.0,4857.0,-920.0,0.64,0.536,-0.543,0.089
2704983,4891.0,3757.0,-936.0,0.643,0.531,-0.544,0.094
2705003,3785.0,2233.0,-236.0,0.644,0.528,-0.544,0.102
2705011,2939.0,4045.0,-344.0,0.644,0.527,-0.544,0.107
2705030,1935.0,2901.0,48.0,0.645,0.524,-0.545,0.11
2705049,1787.0,1751.0,86.0,0.645,0.523,-0.546,0.111
2705067,1497.0,1053.0,-220.0,0.644,0.523,-0.546,0.114
2705086,1455.0,2219.0,-1018.0,0.643,0.524,-0.546,0.117
2705104,867.0,3127.0,-70.0,0.644,0.524,-0.546,0.118
2705122,757.0,2037.0,442.0,0.644,0.523,-0.546,0.117
2705141,2021.0,1101.0,-172.0,0.643,0.523,-0.548,0.116
2705150,2991.0,1513.0,-1092.0,0.641,0.523,-0.549,0.116
2705167,3847.0,4159.0,-1724.0,0.641,0.524,-0.549,0.116
2705186,4217.0,3265.0,-1214.0,0.641,0.523,-0.55,0.116
2705204,4527.0,2183.0,-582.0,0.641,0.522,-0.551,0.115
2705221,5551.0,4081.0,-1464.0,0.639,0.523,-0.553,0.115
2705238,5935.0,5541.0,-1590.0,0.637,0.524,-0.554,0.115
2705257,6429.0,5301.0,-1336.0,0.636,0.522,-0.557,0.112
2705274,6755.0,3637.0,-1374.0,0.634,0.52,-0.561,0.111
2705293,7641.0,2985.0,-1896.0,0.631,0.521,-0.565,0.112
2705313,8363.0,6353.0,-2410.0,0.628,0.522,-0.567,0.113
2705332,7511.0,6543.0,-1936.0,0.626,0.52,-0.57,0.112
2705350,7675.0,4767.0,-1604.0,0.626,0.517,-0.573,0.11
2705369,8225.0,3605.0,-1884.0,0.624,0.516,-0.577,0.111
2705379,7941.0,4491.0,-2100.0,0.62,0.516,-0.58,0.113
2705397,7169.0,6591.0,-1674.0,0.618,0.515,-0.583,0.114
2705416,7683.0,5529.0,-1470.0,0.616,0.512,-0.588,0.114
2705435,7529.0,4991.0,-1424.0,0.615,0.507,-0.594,0.112
2705453,7957.0,3097.0,-1790.0,0.613,0.503,-0.599,0.113
2705471,7911.0,3465.0,-2016.0,0.609,0.501,-0.604,0.115
2705490,7321.0,5857.0,-1796.0,0.607,0.499,-0.607,0.116
2705509,7587.0,5043.0,-1424.0,0.607,0.494,-0.612,0.114
2705517,7669.0,3895.0,-1892.0,0.608,0.488,-0.617,0.112
2705535,8005.0,2955.0,-1892.0,0.607,0.483,-0.621,0.113
2705553,7211.0,2739.0,-1560.0,0.607,0.48,-0.623,0.115
2705572,6921.0,4131.0,-1320.0,0.607,0.477,-0.626,0.115
2705591,8117.0,4167.0,-1772.0,0.607,0.473,-0.628,0.115
2705609,8365.0,4691.0,-2138.0,0.608,0.468,-0.631,0.116
2705627,7883.0,2993.0,-1520.0,0.609,0.462,-0.634,0.118
2705646,7209.0,2911.0,-1110.0,0.61,0.458,-0.636,0.12
2705666,7303.0,3459.0,-1202.0,0.61,0.453,-0.638,0.121
2705674,7583.0,3477.0,-1758.0,0.611,0.448,-0.641,0.122
2705692,8193.0,3399.0,-1926.0,0.612,0.443,-0.644,0.125
2705711,7975.0,2903.0,-1562.0,0.613,0.436,-0.646,0.128
2705730,7371.0,2229.0,-942.0,0.615,0.429,-0.649,0.132
2705749,8073.0,2633.0,-560.0,0.616,0.422,-0.651,0.135
2705767,9507.0,2661.0,-1432.0,0.618,0.414,-0.654,0.14
2705785,10571.0,3181.0,-1994.0,0.62,0.405,-0.656,0.147
2705805,11035.0,3761.0,-1710.0,0.623,0.394,-0.658,0.155
2705823,11651.0,1757.0,-1166.0,0.627,0.382,-0.659,0.164
2705832,12319.0,2487.0,-1218.0,0.631,0.372,-0.659,0.173
2705850,12821.0,1977.0,-794.0,0.634,0.363,-0.659,0.181
2705869,12935.0,445.0,-372.0,0.636,0.358,-0.657,0.185
2705892,12747.0,1583.0,-326.0,0.637,0.359,-0.656,0.187
2705911,12317.0,2217.0,-298.0,0.637,0.362,-0.655,0.185
2705921,12353.0,2493.0,-808.0,0.635,0.368,-0.655,0.181
2705939,12195.0,2765.0,-1114.0,0.633,0.374,-0.655,0.175
2705957,11807.0,2471.0,-1394.0,0.63,0.381,-0.655,0.169
2705974,11955.0,2417.0,-1940.0,0.628,0.389,-0.654,0.163
2705992,11139.0,3365.0,-1802.0,0.626,0.397,-0.652,0.159
2706010,9929.0,2499.0,-1444.0,0.625,0.405,-0.65,0.154
2706028,9393.0,2675.0,-1548.0,0.623,0.413,-0.647,0.149
2706046,8967.0,3881.0,-1868.0,0.622,0.421,-0.644,0.144
2706065,7997.0,3377.0,-1498.0,0.622,0.428,-0.641,0.139
2706083,8383.0,2043.0,-1550.0,0.621,0.434,-0.638,0.135
2706102,8389.0,2685.0,-1732.0,0.621,0.441,-0.635,0.132
2706110,8611.0,3277.0,-1880.0,0.62,0.449,-0.63,0.13
2706128,7689.0,3485.0,-1618.0,0.62,0.456,-0.626,0.128
2706146,6995.0,2373.0,-1586.0,0.62,0.463,-0.621,0.127
2706165,6717.0,3507.0,-1536.0,0.619,0.47,-0.617,0.126
2706184,6201.0,4485.0,-1194.0,0.618,0.475,-0.614,0.126
2706202,6343.0,4003.0,-1312.0,0.617,0.479,-0.612,0.126
2706220,6639.0,3467.0,-1566.0,0.616,0.483,-0.61,0.125
2706238,7257.0,3661.0,-1880.0,0.615,0.486,-0.609,0.125
2706257,7699.0,4183.0,-1814.0,0.615,0.489,-0.606,0.127
2706276,7127.0,2753.0,-1482.0,0.615,0.491,-0.604,0.129
2706295,7481.0,3519.0,-1488.0,0.614,0.495,-0.6,0.131
2706305,6737.0,3987.0,-1346.0,0.614,0.499,-0.598,0.132
2706323,6843.0,4387.0,-1540.0,0.614,0.502,-0.595,0.133
2706341,6763.0,3725.0,-1830.0,0.614,0.503,-0.593,0.134
2706360,5917.0,3089.0,-1140.0,0.614,0.505,-0.591,0.136
2706379,5657.0,3853.0,-1232.0,0.613,0.507,-0.59,0.139
2706398,4805.0,2469.0,-1312.0,0.612,0.508,-0.59,0.14
2706416,4407.0,2645.0,-1476.0,0.611,0.51,-0.589,0.142
2706435,3949.0,2995.0,-1378.0,0.61,0.512,-0.589,0.143
2706444,3181.0,2583.0,-982.0,0.608,0.512,-0.589,0.145
2706462,2807.0,1981.0,-1072.0,0.607,0.512,-0.59,0.146
2706481,2495.0,671.0,-804.0,0.606,0.513,-0.591,0.147
2706500,1485.0,749.0,-232.0,0.603,0.514,-0.591,0.147
2706518,1691.0,1095.0,-330.0,0.601,0.516,-0.593,0.146
2706536,2173.0,863.0,-1012.0,0.599,0.518,-0.594,0.145
2706553,2353.0,1969.0,-724.0,0.597,0.519,-0.594,0.145
2706572,2537.0,661.0,-800.0,0.596,0.52,-0.595,0.144
2706590,3189.0,-409.0,-786.0,0.595,0.52,-0.596,0.144
2706609,3027.0,1599.0,-736.0,0.593,0.522,-0.596,0.144
2706618,3739.0,3767.0,-1242.0,0.593,0.522,-0.597,0.144
2706636,4743.0,2879.0,-1436.0,0.593,0.519,-0.599,0.143
2706654,5213.0,2285.0,-1634.0,0.594,0.516,-0.601,0.143
2706672,6185.0,2277.0,-1934.0,0.594,0.514,-0.602,0.143
2706690,6335.0,2287.0,-1616.0,0.593,0.513,-0.603,0.144
2706708,6975.0,5307.0,-1978.0,0.592,0.513,-0.605,0.145
2706726,7295.0,6681.0,-2000.0,0.592,0.509,-0.607,0.145
2706745,7773.0,2629.0,-1928.0,0.593,0.504,-0.611,0.144
2706764,8313.0,2225.0,-2448.0,0.592,0.502,-0.613,0.145
2706782,8005.0,3853.0,-2350.0,0.592,0.501,-0.614,0.148
2706806,8673.0,6069.0,-2312.0,0.592,0.498,-0.615,0.15
2706814,8109.0,4999.0,-1818.0,0.594,0.494,-0.617,0.15
2706831,8439.0,2941.0,-1974.0,0.595,0.488,-0.62,0.151
2706848,7905.0,1867.0,-1754.0,0.596,0.484,-0.623,0.152
2706865,8469.0,3233.0,-1918.0,0.596,0.482,-0.624,0.155
2706882,8547.0,5447.0,-2334.0,0.597,0.477,-0.625,0.156
2706900,9221.0,5619.0,-1918.0,0.6,0.47,-0.628,0.158
2706917,8235.0,1691.0,-1674.0,0.603,0.461,-0.632,0.159
2706934,8275.0,235.0,-1142.0,0.604,0.454,-0.634,0.163
2706951,8995.0,2921.0,-1198.0,0.604,0.451,-0.636,0.166
2706970,9135.0,5579.0,-2190.0,0.605,0.445,-0.638,0.169
2706987,8875.0,3481.0,-1436.0,0.607,0.437,-0.641,0.172
2707004,8265.0,845.0,-810.0,0.609,0.429,-0.644,0.176
2707021,8755.0,1271.0,-1396.0,0.61,0.423,-0.646,0.179
2707039,8389.0,2851.0,-1738.0,0.611,0.419,-0.646,0.184
2707057,8131.0,2807.0,-1520.0,0.612,0.413,-0.647,0.19
2707076,8055.0,2397.0,-1190.0,0.614,0.407,-0.647,0.196
2707095,9235.0,2931.0,-1296.0,0.615,0.4,-0.648,0.203
2707115,8183.0,2953.0,-1196.0,0.617,0.393,-0.649,0.209
2707133,8169.0,1633.0,-822.0,0.619,0.384,-0.651,0.214
2707143,9131.0,631.0,-710.0,0.621,0.377,-0.652,0.218
2707161,10661.0,2129.0,-1306.0,0.622,0.371,-0.653,0.224
2707180,11213.0,2751.0,-1436.0,0.623,0.365,-0.653,0.229
2707199,11711.0,1663.0,-856.0,0.624,0.359,-0.654,0.232
2707218,12575.0,887.0,-746.0,0.625,0.356,-0.654,0.233
2707236,13037.0,567.0,-690.0,0.626,0.355,-0.654,0.233
2707254,13687.0,533.0,-856.0,0.626,0.359,-0.653,0.231
2707272,13009.0,1551.0,-822.0,0.626,0.365,-0.651,0.227
2707290,13323.0,2465.0,-1118.0,0.625,0.373,-0.649,0.222
2707308,12947.0,3129.0,-1284.0,0.624,0.381,-0.647,0.216
2707318,12437.0,1605.0,-1550.0,0.624,0.388,-0.646,0.207
2707334,11693.0,1519.0,-1106.0,0.623,0.398,-0.644,0.199
2707353,10763.0,3021.0,-1318.0,0.622,0.408,-0.641,0.191
2707371,10349.0,3469.0,-1588.0,0.621,0.417,-0.638,0.184
2707389,9361.0,3209.0,-1292.0,0.62,0.425,-0.636,0.177
2707407,8779.0,2813.0,-1036.0,0.619,0.432,-0.633,0.171
2707425,9727.0,4119.0,-1632.0,0.618,0.439,-0.63,0.166
2707444,8815.0,3883.0,-1034.0,0.618,0.445,-0.628,0.162
2707463,8523.0,3201.0,-1250.0,0.619,0.45,-0.625,0.155
2707481,8137.0,2755.0,-892.0,0.619,0.455,-0.622,0.15
2707499,7557.0,3089.0,-1090.0,0.62,0.461,-0.618,0.146
2707517,7167.0,4157.0,-1404.0,0.62,0.467,-0.614,0.143
2707534,7295.0,4073.0,-996.0,0.621,0.472,-0.61,0.14
2707551,7111.0,4133.0,-1252.0,0.623,0.475,-0.606,0.137
2707569,6125.0,1665.0,-942.0,0.625,0.478,-0.602,0.135
2707587,5759.0,2029.0,-580.0,0.627,0.482,-0.597,0.134
2707606,4859.0,3469.0,-668.0,0.628,0.486,-0.593,0.135
2707615,4621.0,4125.0,-598.0,0.629,0.488,-0.589,0.135
2707633,4467.0,2775.0,-384.0,0.631,0.488,-0.587,0.135
2707651,4053.0,1311.0,-350.0,0.632,0.489,-0.585,0.136
2707670,3545.0,2541.0,-552.0,0.633,0.49,-0.583,0.137
2707688,3265.0,2209.0,-354.0,0.636,0.489,-0.581,0.138
2707706,3169.0,1597.0,-524.0,0.638,0.488,-0.579,0.137
2707725,3041.0,1979.0,-472.0,0.641,0.488,-0.576,0.137
2707743,2777.0,1719.0,-350.0,0.644,0.488,-0.574,0.138
2707762,2801.0,2333.0,-324.0,0.646,0.487,-0.571,0.139
2707772,2439.0,801.0,48.0,0.648,0.485,-0.57,0.138
2707790,2831.0,575.0,-668.0,0.65,0.485,-0.568,0.137
2707808,3545.0,1421.0,-460.0,0.651,0.486,-0.567,0.137
2707826,3553.0,3485.0,-860.0,0.652,0.486,-0.566,0.138
2707843,3947.0,2463.0,-926.0,0.653,0.484,-0.566,0.138
2707861,4171.0,821.0,-332.0,0.653,0.483,-0.567,0.138
2707880,4283.0,2775.0,-766.0,0.651,0.484,-0.568,0.138
2707898,5295.0,2833.0,-1220.0,0.65,0.484,-0.57,0.138
2707917,6085.0,2441.0,-1510.0,0.649,0.484,-0.571,0.137
2707936,5901.0,3743.0,-1694.0,0.648,0.484,-0.572,0.138
2707954,6795.0,4903.0,-1390.0,0.647,0.483,-0.573,0.138
2707972,6471.0,3071.0,-1076.0,0.647,0.481,-0.576,0.137
2707981,7345.0,2063.0,-1490.0,0.645,0.48,-0.578,0.137
2707998,7539.0,3149.0,-1566.0,0.643,0.481,-0.58,0.139
2708016,8569.0,6861.0,-2120.0,0.64,0.481,-0.582,0.141
2708035,7875.0,4729.0,-1280.0,0.639,0.478,-0.586,0.141
2708053,7523.0,2221.0,-1186.0,0.639,0.474,-0.59,0.14
2708072,8219.0,1357.0,-1464.0,0.636,0.473,-0.593,0.14
2708091,8473.0,5275.0,-1792.0,0.633,0.474,-0.595,0.143
2708110,7879.0,5749.0,-1278.0,0.63,0.472,-0.599,0.146
2708128,7441.0,2983.0,-632.0,0.628,0.468,-0.604,0.146
2708151,7903.0,1445.0,-1138.0,0.626,0.465,-0.609,0.147
2708160,8213.0,2675.0,-1910.0,0.623,0.464,-0.612,0.149
2708178,8881.0,4645.0,-2246.0,0.62,0.463,-0.615,0.153
2708195,8663.0,5391.0,-1248.0,0.618,0.459,-0.618,0.158
2708212,7259.0,3203.0,-524.0,0.617,0.454,-0.623,0.16
2708231,7841.0,1677.0,-826.0,0.615,0.45,-0.627,0.161
2708249,8631.0,2835.0,-1340.0,0.613,0.447,-0.631,0.164
2708266,9031.0,4547.0,-2260.0,0.61,0.444,-0.635,0.167
2708283,9561.0,4567.0,-1856.0,0.609,0.438,-0.638,0.171
2708302,8693.0,1975.0,-1132.0,0.609,0.432,-0.642,0.174
2708320,8747.0,1665.0,-1154.0,0.609,0.428,-0.644,0.176
2708337,8415.0,2547.0,-1238.0,0.608,0.425,-0.646,0.179
2708354,8161.0,3023.0,-1024.0,0.608,0.422,-0.647,0.183
2708371,8179.0,3095.0,-1138.0,0.607,0.418,-0.649,0.186
2708389,7827.0,3103.0,-1096.0,0.607,0.414,-0.652,0.188
2708407,7541.0,2023.0,-792.0,0.607,0.409,-0.654,0.19
2708425,8855.0,2021.0,-1238.0,0.607,0.404,-0.657,0.192
2708443,8573.0,2019.0,-1484.0,0.608,0.398,-0.659,0.195
2708461,8555.0,1869.0,-1472.0,0.609,0.393,-0.66,0.198
2708480,8159.0,1599.0,-944.0,0.611,0.387,-0.661,0.203
2708489,9279.0,1765.0,-1174.0,0.612,0.382,-0.661,0.207
2708506,9719.0,2295.0,-1412.0,0.614,0.376,-0.661,0.212
2708524,10183.0,1925.0,-1374.0,0.617,0.369,-0.661,0.217
2708542,10567.0,1465.0,-768.0,0.619,0.363,-0.66,0.221
2708560,11069.0,1225.0,-722.0,0.621,0.359,-0.66,0.223
2708579,12201.0,973.0,-1048.0,0.622,0.356,-0.66,0.225
2708597,12115.0,947.0,-776.0,0.623,0.357,-0.659,0.225
2708615,11815.0,573.0,-204.0,0.623,0.36,-0.658,0.223
2708633,11965.0,1443.0,-832.0,0.621,0.365,-0.658,0.219
2708652,11673.0,1943.0,-936.0,0.619,0.371,-0.658,0.215
2708670,12083.0,2413.0,-1500.0,0.617,0.378,-0.658,0.21
2708687,12579.0,3203.0,-1754.0,0.614,0.385,-0.658,0.203
2708704,11635.0,2083.0,-1466.0,0.613,0.392,-0.657,0.196
2708721,11863.0,1429.0,-1708.0,0.611,0.401,-0.656,0.188
2708738,11443.0,2917.0,-1978.0,0.61,0.41,-0.654,0.18
2708756,10897.0,2881.0,-1704.0,0.608,0.42,-0.651,0.172
2708775,9929.0,3275.0,-1722.0,0.607,0.429,-0.649,0.163
2708793,9857.0,3599.0,-1900.0,0.606,0.438,-0.646,0.155
2708803,9703.0,4107.0,-1962.0,0.605,0.446,-0.643,0.147
2708820,9311.0,3885.0,-1982.0,0.605,0.453,-0.64,0.141
2708839,9381.0,4423.0,-2318.0,0.605,0.459,-0.636,0.135
2708858,8849.0,4073.0,-1978.0,0.606,0.464,-0.633,0.128
2708876,8261.0,2959.0,-1748.0,0.608,0.469,-0.629,0.123
2708895,7683.0,3463.0,-1692.0,0.608,0.475,-0.624,0.119
2708914,6941.0,4153.0,-1420.0,0.609,0.48,-0.621,0.116
2708933,7015.0,4041.0,-1634.0,0.609,0.484,-0.618,0.114
2708942,6495.0,4233.0,-1714.0,0.61,0.487,-0.615,0.112
2708962,6057.0,2787.0,-1620.0,0.612,0.487,-0.613,0.112
2708982,5695.0,2601.0,-1968.0,0.614,0.488,-0.61,0.113
2709001,4949.0,2911.0,-1584.0,0.616,0.488,-0.608,0.115
2709018,4117.0,3189.0,-1128.0,0.619,0.486,-0.606,0.117
2709036,3753.0,2219.0,-1158.0,0.621,0.484,-0.604,0.12
2709054,3267.0,1385.0,-962.0,0.623,0.482,-0.603,0.123
2709071,2775.0,1871.0,-946.0,0.625,0.48,-0.602,0.127
2709089,2365.0,1999.0,-722.0,0.628,0.478,-0.601,0.129
2709107,2023.0,683.0,-470.0,0.63,0.475,-0.6,0.131
2709125,1763.0,951.0,-504.0,0.631,0.474,-0.599,0.133
2709143,1365.0,-233.0,74.0,0.633,0.473,-0.599,0.134
2709152,1205.0,529.0,14.0,0.632,0.473,-0.598,0.135
2709170,1581.0,1023.0,-120.0,0.632,0.473,-0.599,0.136
2709187,2001.0,593.0,-366.0,0.631,0.474,-0.599,0.136
2709205,2375.0,1355.0,-372.0,0.629,0.475,-0.601,0.136
2709223,2833.0,1075.0,-368.0,0.626,0.476,-0.602,0.136
2709240,3175.0,1105.0,-438.0,0.623,0.478,-0.605,0.136
2709258,3933.0,2039.0,-926.0,0.619,0.48,-0.607,0.135
2709276,4237.0,1843.0,-878.0,0.615,0.482,-0.61,0.135
2709295,4753.0,3555.0,-1462.0,0.61,0.483,-0.613,0.134
2709315,5263.0,1739.0,-1418.0,0.606,0.484,-0.616,0.134
2709333,5413.0,2765.0,-1458.0,0.602,0.486,-0.619,0.134
2709350,6575.0,4183.0,-2368.0,0.597,0.488,-0.622,0.134
2709367,6773.0,4175.0,-2382.0,0.595,0.488,-0.624,0.133
2709384,6537.0,2723.0,-1738.0,0.593,0.488,-0.627,0.132
2709402,7435.0,2305.0,-1902.0,0.589,0.489,-0.629,0.133
2709420,8237.0,5911.0,-4032.0,0.587,0.491,-0.63,0.134
2709438,8123.0,7055.0,-3280.0,0.589,0.487,-0.631,0.133
2709457,8291.0,2819.0,-2250.0,0.591,0.482,-0.633,0.132
2709475,7825.0,1057.0,-1782.0,0.591,0.48,-0.635,0.132
2709485,8891.0,4729.0,-2902.0,0.591,0.48,-0.635,0.133
2709501,8855.0,7087.0,-3182.0,0.592,0.477,-0.636,0.132
2709520,8051.0,4591.0,-2254.0,0.595,0.471,-0.638,0.131
2709539,8135.0,2771.0,-1726.0,0.596,0.465,-0.641,0.131
2709557,7135.0,2739.0,-974.0,0.596,0.461,-0.644,0.131
2709575,8649.0,3653.0,-2258.0,0.595,0.457,-0.648,0.13
2709593,9039.0,5143.0,-3130.0,0.595,0.452,-0.652,0.13
2709612,8459.0,4505.0,-2116.0,0.596,0.445,-0.656,0.13
2709631,7913.0,3103.0,-1410.0,0.597,0.437,-0.66,0.131
2709649,7659.0,1993.0,-1062.0,0.597,0.43,-0.664,0.13
2709667,8817.0,3041.0,-1988.0,0.597,0.425,-0.668,0.129
2709676,8503.0,3663.0,-2512.0,0.598,0.418,-0.671,0.129
2709695,8345.0,2679.0,-1962.0,0.6,0.41,-0.674,0.13
2709714,8549.0,2573.0,-1774.0,0.602,0.403,-0.676,0.131
2709733,8119.0,3349.0,-1580.0,0.606,0.395,-0.678,0.132
2709752,8171.0,2087.0,-1754.0,0.609,0.386,-0.68,0.132
2709771,8253.0,1519.0,-1824.0,0.613,0.378,-0.681,0.133
2709789,8747.0,2133.0,-1712.0,0.617,0.371,-0.681,0.136
2709807,9225.0,3847.0,-2186.0,0.622,0.362,-0.68,0.138
2709816,9639.0,3669.0,-1736.0,0.627,0.353,-0.68,0.141
2709833,9753.0,2963.0,-826.0,0.632,0.342,-0.68,0.144
2709851,10411.0,2181.0,-1018.0,0.635,0.333,-0.681,0.146
2709869,11249.0,2109.0,-1116.0,0.638,0.325,-0.682,0.147
2709887,12593.0,3513.0,-1166.0,0.64,0.319,-0.683,0.148
2709905,12101.0,3143.0,-1292.0,0.642,0.314,-0.684,0.146
2709923,11629.0,1053.0,-950.0,0.643,0.311,-0.685,0.142
2709942,11287.0,1151.0,-826.0,0.645,0.311,-0.685,0.137
2709961,10803.0,1365.0,-770.0,0.646,0.313,-0.684,0.13
2709979,10699.0,1577.0,-902.0,0.646,0.317,-0.683,0.123
2709998,10209.0,1789.0,-908.0,0.646,0.323,-0.682,0.116
2710015,10133.0,2031.0,-1090.0,0.646,0.328,-0.68,0.108
2710034,10077.0,1773.0,-1084.0,0.647,0.334,-0.679,0.101
2710044,9945.0,2131.0,-1056.0,0.647,0.339,-0.677,0.094
2710061,10107.0,2369.0,-1140.0,0.647,0.344,-0.675,0.088
2710078,10455.0,2821.0,-1436.0,0.647,0.35,-0.673,0.082
2710096,10563.0,2141.0,-1190.0,0.648,0.354,-0.67,0.075
2710115,10905.0,2247.0,-1144.0,0.649,0.36,-0.667,0.07
2710134,10495.0,3067.0,-1068.0,0.649,0.366,-0.664,0.064
2710151,10187.0,2853.0,-998.0,0.648,0.373,-0.661,0.06
2710168,11335.0,4323.0,-1288.0,0.647,0.38,-0.659,0.055
2710186,11375.0,5261.0,-1410.0,0.647,0.385,-0.657,0.049
2710203,11089.0,3861.0,-1328.0,0.647,0.389,-0.654,0.043
2710220,10299.0,2043.0,-814.0,0.646,0.395,-0.652,0.038
2710237,10289.0,4847.0,-1232.0,0.645,0.403,-0.648,0.034
2710254,9305.0,6051.0,-1562.0,0.644,0.41,-0.646,0.029
2710271,9409.0,4331.0,-1552.0,0.644,0.414,-0.643,0.026
2710288,8823.0,4105.0,-1504.0,0.644,0.419,-0.64,0.024
2710305,8045.0,5013.0,-1422.0,0.645,0.423,-0.636,0.022
2710322,7461.0,3911.0,-1334.0,0.646,0.426,-0.633,0.023
2710339,6781.0,2971.0,-1488.0,0.648,0.429,-0.629,0.025
2710356,5789.0,3597.0,-1016.0,0.65,0.432,-0.624,0.029
2710374,5065.0,4455.0,-938.0,0.651,0.435,-0.621,0.033
2710392,4545.0,3483.0,-934.0,0.654,0.435,-0.618,0.039
2710410,4531.0,3793.0,-1126.0,0.656,0.435,-0.615,0.045
2710428,3821.0,2551.0,-980.0,0.659,0.434,-0.612,0.052
2710446,3895.0,2327.0,-1160.0,0.662,0.433,-0.609,0.06
2710464,3327.0,4057.0,-942.0,0.666,0.432,-0.604,0.068
2710482,2479.0,4133.0,-324.0,0.671,0.428,-0.601,0.075
2710500,2301.0,2909.0,-420.0,0.675,0.424,-0.598,0.081
2710518,2387.0,1715.0,-572.0,0.679,0.421,-0.595,0.087
2710536,2149.0,2767.0,-376.0,0.682,0.418,-0.593,0.092
2710553,1447.0,2053.0,564.0,0.684,0.417,-0.591,0.095
2710570,2095.0,2693.0,-282.0,0.686,0.415,-0.59,0.096
2710587,2729.0,585.0,-408.0,0.687,0.415,-0.589,0.097
2710604,2677.0,1243.0,-164.0,0.686,0.418,-0.587,0.097
2710621,2695.0,2365.0,-278.0,0.686,0.421,-0.586,0.097
2710638,2909.0,1659.0,-476.0,0.685,0.424,-0.585,0.095
2710655,3267.0,1217.0,-286.0,0.683,0.428,-0.584,0.094
2710672,3075.0,1737.0,-170.0,0.681,0.433,-0.584,0.091
2710689,3107.0,2325.0,-322.0,0.678,0.438,-0.584,0.088
2710706,3583.0,2169.0,-438.0,0.674,0.442,-0.586,0.085
2710723,3659.0,1993.0,-704.0,0.67,0.447,-0.588,0.081
2710741,4307.0,1967.0,-954.0,0.665,0.452,-0.59,0.077
2710759,4285.0,1641.0,-626.0,0.66,0.457,-0.592,0.074
2710779,4479.0,4453.0,-1274.0,0.654,0.462,-0.595,0.071
2710797,5343.0,3519.0,-1118.0,0.65,0.464,-0.598,0.068
2710816,5773.0,2703.0,-1126.0,0.646,0.466,-0.601,0.065
2710835,6565.0,4271.0,-1762.0,0.642,0.468,-0.603,0.064
2710854,6175.0,4327.0,-1366.0,0.64,0.469,-0.606,0.064
2710872,7707.0,4835.0,-1892.0,0.638,0.468,-0.608,0.064
2710890,6847.0,3079.0,-1122.0,0.637,0.467,-0.61,0.065
2710908,7489.0,4691.0,-1528.0,0.635,0.468,-0.611,0.067
2710918,8591.0,7063.0,-2154.0,0.635,0.465,-0.613,0.069
2710935,7669.0,3573.0,-1740.0,0.635,0.461,-0.615,0.072
2710953,7341.0,2731.0,-1070.0,0.635,0.458,-0.617,0.076
2710971,7889.0,7207.0,-1474.0,0.634,0.456,-0.619,0.079
2710988,9111.0,7725.0,-1942.0,0.635,0.45,-0.623,0.081
2711006,8693.0,3169.0,-1550.0,0.636,0.441,-0.628,0.083
2711025,8495.0,1409.0,-1266.0,0.635,0.436,-0.632,0.086
2711043,8257.0,3363.0,-970.0,0.633,0.434,-0.635,0.09
2711061,8673.0,7565.0,-1276.0,0.63,0.43,-0.64,0.094
2711078,9397.0,6641.0,-1972.0,0.629,0.422,-0.646,0.095
2711096,9535.0,2107.0,-1686.0,0.629,0.413,-0.652,0.097
2711113,9103.0,1065.0,-1002.0,0.628,0.407,-0.656,0.099
2711132,8683.0,3145.0,-1178.0,0.626,0.403,-0.66,0.103
2711149,8755.0,4523.0,-1340.0,0.624,0.399,-0.664,0.108
2711167,9073.0,5151.0,-1936.0,0.623,0.392,-0.668,0.112
2711185,8911.0,3795.0,-1290.0,0.624,0.383,-0.672,0.114
2711204,9493.0,2193.0,-1198.0,0.624,0.374,-0.676,0.116
2711221,9127.0,2459.0,-1326.0,0.625,0.366,-0.68,0.119
2711239,9071.0,2759.0,-1056.0,0.625,0.359,-0.682,0.122
2711258,9303.0,2629.0,-972.0,0.625,0.352,-0.686,0.125
2711277,9429.0,2675.0,-1098.0,0.625,0.344,-0.689,0.128
2711286,9699.0,2823.0,-1074.0,0.625,0.337,-0.691,0.131
2711303,9287.0,1961.0,-698.0,0.626,0.33,-0.694,0.133
2711321,9321.0,1647.0,-798.0,0.626,0.323,-0.697,0.134
2711340,9621.0,2003.0,-726.0,0.625,0.318,-0.7,0.135
2711359,9435.0,2019.0,-886.0,0.625,0.312,-0.702,0.135
2711378,9625.0,1549.0,-1002.0,0.625,0.307,-0.705,0.134
2711397,9497.0,1399.0,-944.0,0.625,0.303,-0.707,0.133
2711406,9489.0,1329.0,-826.0,0.625,0.3,-0.708,0.132
2711423,9251.0,1477.0,-838.0,0.625,0.297,-0.71,0.13
2711440,9295.0,1393.0,-946.0,0.626,0.294,-0.711,0.129
2711458,9115.0,1381.0,-1010.0,0.627,0.292,-0.711,0.127
2711477,9053.0,1385.0,-1008.0,0.627,0.29,-0.711,0.126
2711495,8791.0,1509.0,-930.0,0.629,0.288,-0.711,0.124
2711514,8839.0,1555.0,-958.0,0.63,0.287,-0.711,0.123
2711533,8673.0,1461.0,-888.0,0.632,0.285,-0.711,0.121
2711551,8719.0,1291.0,-922.0,0.634,0.283,-0.71,0.119
2711568,8467.0,1409.0,-896.0,0.636,0.281,-0.709,0.118
