timeMs,ax,ay,az,q0,q1,q2,q3
5406332,-4582.0,6044.0,-434.0,0.187,-0.167,0.734,0.632
5406348,-4544.0,6268.0,-444.0,0.188,-0.168,0.735,0.63
5406364,-4586.0,6722.0,-594.0,0.189,-0.169,0.735,0.629
5406380,-4684.0,7092.0,-730.0,0.19,-0.171,0.733,0.63
5406396,-4752.0,7410.0,-996.0,0.191,-0.173,0.732,0.631
5406422,-4834.0,7636.0,-1300.0,0.193,-0.176,0.73,0.632
5406438,-4808.0,7540.0,-1482.0,0.195,-0.178,0.728,0.632
5406454,-4966.0,7314.0,-1546.0,0.198,-0.18,0.727,0.633
5406470,-5256.0,7096.0,-1518.0,0.201,-0.182,0.726,0.632
5406486,-5468.0,7012.0,-1392.0,0.205,-0.183,0.726,0.63
5406502,-5800.0,6852.0,-1242.0,0.209,-0.185,0.726,0.629
5406519,-5948.0,6476.0,-1018.0,0.213,-0.187,0.726,0.626
5406545,-6024.0,6202.0,-984.0,0.218,-0.189,0.727,0.623
5406562,-4886.0,5162.0,-1162.0,0.222,-0.191,0.727,0.621
5406578,-2532.0,3580.0,-1300.0,0.225,-0.192,0.727,0.62
5406594,-718.0,-1168.0,-1232.0,0.226,-0.192,0.724,0.623
5406610,-3614.0,1442.0,-328.0,0.225,-0.189,0.723,0.625
5406627,-4632.0,4636.0,272.0,0.225,-0.185,0.724,0.625
5406644,-6352.0,7126.0,486.0,0.225,-0.182,0.729,0.621
5406661,-6290.0,9480.0,-798.0,0.226,-0.181,0.733,0.616
5406678,-5872.0,8994.0,-666.0,0.226,-0.18,0.737,0.611
5406705,-5582.0,6824.0,-622.0,0.225,-0.178,0.74,0.609
5406722,-5332.0,5232.0,-638.0,0.224,-0.178,0.742,0.606
5406739,-5486.0,4778.0,-728.0,0.224,-0.177,0.745,0.603
5406756,-5222.0,4960.0,-978.0,0.224,-0.176,0.746,0.602
5406773,-5130.0,5790.0,-1142.0,0.223,-0.176,0.746,0.602
5406790,-5138.0,6474.0,-1312.0,0.223,-0.176,0.745,0.603
5406807,-5098.0,6918.0,-1334.0,0.222,-0.176,0.744,0.606
5406824,-5398.0,7152.0,-1234.0,0.221,-0.176,0.741,0.609
5406842,-4992.0,7200.0,-1268.0,0.22,-0.177,0.739,0.612
5406859,-4876.0,7194.0,-1324.0,0.219,-0.178,0.737,0.615
5406876,-4748.0,7408.0,-1360.0,0.218,-0.18,0.734,0.617
5406893,-4574.0,7350.0,-1404.0,0.217,-0.181,0.732,0.62
5406910,-4402.0,6970.0,-1258.0,0.216,-0.182,0.729,0.624
5406927,-4228.0,6686.0,-1120.0,0.214,-0.183,0.727,0.626
5406944,-4050.0,6434.0,-804.0,0.213,-0.183,0.726,0.628
5406961,-4264.0,6752.0,-856.0,0.212,-0.184,0.725,0.629
5406987,-4136.0,6562.0,-708.0,0.21,-0.184,0.725,0.63
5407004,-4596.0,6710.0,-508.0,0.209,-0.186,0.725,0.63
5407021,-4698.0,6234.0,-464.0,0.208,-0.187,0.724,0.63
5407038,-4700.0,6298.0,-456.0,0.206,-0.189,0.724,0.63
5407055,-4538.0,6614.0,-662.0,0.205,-0.191,0.724,0.631
5407072,-5232.0,7858.0,-470.0,0.204,-0.195,0.721,0.633
5407089,-4936.0,5616.0,224.0,0.202,-0.199,0.716,0.638
5407106,-4896.0,7566.0,-72.0,0.2,-0.205,0.711,0.643
5407123,-4732.0,6332.0,-152.0,0.198,-0.212,0.702,0.65
5407140,-4448.0,6864.0,-246.0,0.195,-0.22,0.693,0.659
5407157,-5264.0,5536.0,76.0,0.191,-0.228,0.682,0.668
5407184,-5104.0,4360.0,-480.0,0.186,-0.235,0.674,0.675
5407201,-4664.0,6170.0,-670.0,0.183,-0.241,0.67,0.678
5407218,-4754.0,7046.0,-512.0,0.18,-0.247,0.665,0.682
5407235,-4268.0,6882.0,-1054.0,0.175,-0.252,0.658,0.688
5407252,-4200.0,4738.0,-4.0,0.168,-0.254,0.648,0.698
5407269,-3898.0,2836.0,-402.0,0.159,-0.255,0.64,0.707
5407286,-3314.0,3902.0,176.0,0.151,-0.254,0.637,0.712
5407303,-3502.0,4450.0,-12.0,0.143,-0.252,0.636,0.715
5407319,-2928.0,5478.0,390.0,0.135,-0.249,0.638,0.716
5407335,-3304.0,6662.0,246.0,0.126,-0.245,0.639,0.718
5407351,-3124.0,6646.0,550.0,0.117,-0.241,0.639,0.721
5407377,-2954.0,6708.0,588.0,0.107,-0.237,0.638,0.725
5407393,-2870.0,6542.0,690.0,0.096,-0.231,0.637,0.729
5407410,-3014.0,6356.0,748.0,0.085,-0.225,0.636,0.733
5407427,-3238.0,6298.0,786.0,0.073,-0.218,0.634,0.738
5407443,-3366.0,6264.0,856.0,0.061,-0.209,0.633,0.743
5407459,-3332.0,6188.0,408.0,0.049,-0.199,0.632,0.747
5407475,-3320.0,6448.0,-384.0,0.036,-0.185,0.632,0.751
5407501,-3094.0,6598.0,-932.0,0.022,-0.17,0.634,0.754
5407517,-2656.0,7108.0,-1300.0,0.007,-0.152,0.638,0.754
5407533,-2136.0,8044.0,-1600.0,0.007,0.134,-0.645,-0.752
5407549,-1792.0,9474.0,-1778.0,0.021,0.115,-0.651,-0.75
5407565,-1780.0,10296.0,-1818.0,0.034,0.099,-0.655,-0.748
5407582,-1736.0,10214.0,-1478.0,0.045,0.085,-0.657,-0.748
5407609,-1880.0,9618.0,-1060.0,0.054,0.073,-0.657,-0.748
5407626,-1964.0,8858.0,-830.0,0.063,0.064,-0.658,-0.748
5407643,-2204.0,8290.0,-826.0,0.071,0.058,-0.66,-0.745
5407659,-2334.0,8466.0,-800.0,0.078,0.052,-0.665,-0.741
5407675,-2366.0,8966.0,-936.0,0.084,0.047,-0.671,-0.735
5407691,-2446.0,9318.0,-1088.0,0.09,0.042,-0.677,-0.729
5407708,-2426.0,9346.0,-1130.0,0.095,0.037,-0.682,-0.724
5407725,-2482.0,9256.0,-1060.0,0.098,0.032,-0.686,-0.721
5407741,-2346.0,9110.0,-902.0,0.1,0.027,-0.689,-0.718
5407767,-2080.0,8956.0,-726.0,0.101,0.021,-0.691,-0.715
5407783,-1932.0,8900.0,-568.0,0.1,0.015,-0.692,-0.714
5407799,-1448.0,8930.0,-178.0,0.097,0.008,-0.693,-0.714
5407815,-918.0,9214.0,154.0,0.094,0.0,-0.693,-0.715
5407831,-56.0,9502.0,412.0,0.091,-0.008,-0.692,-0.716
5407847,838.0,9738.0,598.0,0.088,-0.018,-0.691,-0.717
5407873,1604.0,9522.0,730.0,0.086,-0.028,-0.691,-0.717
5407889,1922.0,8970.0,756.0,0.082,-0.037,-0.691,-0.717
5407905,1936.0,8070.0,984.0,0.078,-0.044,-0.693,-0.715
5407921,1630.0,7532.0,1156.0,0.073,-0.051,-0.696,-0.713
5407937,1288.0,7536.0,1272.0,0.068,-0.057,-0.699,-0.709
5407953,1052.0,7710.0,1530.0,0.064,-0.064,-0.703,-0.706
5407979,1014.0,8308.0,1644.0,0.059,-0.072,-0.705,-0.703
5407996,928.0,8876.0,1648.0,0.055,-0.082,-0.707,-0.7
5408013,1180.0,9156.0,1620.0,0.05,-0.093,-0.707,-0.699
5408029,1772.0,9282.0,1632.0,0.045,-0.104,-0.707,-0.698
5408046,1900.0,9058.0,1534.0,0.04,-0.113,-0.705,-0.699
5408063,2006.0,8292.0,1602.0,0.035,-0.122,-0.702,-0.701
5408080,1906.0,7452.0,1648.0,0.031,-0.128,-0.699,-0.703
5408097,1572.0,7046.0,1474.0,0.027,-0.133,-0.697,-0.704
5408113,1300.0,6992.0,1564.0,0.023,-0.137,-0.696,-0.704
5408139,862.0,6898.0,1420.0,0.021,-0.142,-0.696,-0.704
5408155,740.0,7330.0,1236.0,0.018,-0.149,-0.695,-0.703
5408171,902.0,8482.0,1036.0,0.014,-0.157,-0.693,-0.703
5408187,1408.0,8244.0,1172.0,0.011,-0.167,-0.69,-0.704
5408203,1722.0,8544.0,1262.0,0.007,-0.178,-0.685,-0.707
5408219,1984.0,8824.0,1460.0,0.003,-0.188,-0.679,-0.71
5408245,2340.0,8674.0,1802.0,0.002,0.198,0.671,0.714
5408261,2636.0,8598.0,1952.0,0.008,0.207,0.664,0.718
5408277,2978.0,8308.0,2094.0,0.014,0.215,0.658,0.721
5408293,3168.0,7978.0,2234.0,0.02,0.221,0.653,0.725
5408309,3234.0,7788.0,2260.0,0.024,0.225,0.648,0.727
5408325,3254.0,7778.0,1956.0,0.027,0.228,0.645,0.729
5408351,3418.0,7668.0,1696.0,0.029,0.23,0.642,0.731
5408367,3600.0,7478.0,1546.0,0.03,0.23,0.64,0.732
5408383,3788.0,7424.0,1340.0,0.03,0.229,0.638,0.734
5408399,3662.0,7128.0,1178.0,0.029,0.227,0.637,0.736
5408415,3772.0,6870.0,1090.0,0.027,0.223,0.635,0.739
5408432,3718.0,6534.0,1130.0,0.024,0.219,0.634,0.742
5408449,3810.0,6428.0,1184.0,0.02,0.214,0.633,0.744
5408475,3816.0,6234.0,1228.0,0.015,0.208,0.632,0.746
5408491,3698.0,6222.0,1228.0,0.009,0.202,0.633,0.747
5408508,3672.0,6448.0,1036.0,0.002,0.195,0.635,0.748
5408524,3540.0,6360.0,908.0,0.005,-0.187,-0.637,-0.748
5408541,3206.0,6562.0,626.0,0.013,-0.179,-0.641,-0.747
5408557,2846.0,6740.0,392.0,0.022,-0.17,-0.644,-0.745
5408574,2600.0,6978.0,372.0,0.032,-0.162,-0.648,-0.744
5408591,2404.0,7296.0,300.0,0.043,-0.155,-0.651,-0.742
5408607,2330.0,7456.0,214.0,0.053,-0.149,-0.652,-0.741
5408634,2316.0,7162.0,316.0,0.063,-0.143,-0.654,-0.741
5408650,2378.0,6910.0,452.0,0.074,-0.136,-0.656,-0.739
5408666,2310.0,7098.0,568.0,0.086,-0.129,-0.659,-0.736
5408682,2208.0,7564.0,508.0,0.097,-0.121,-0.663,-0.732
5408698,2020.0,7942.0,374.0,0.108,-0.112,-0.668,-0.728
5408715,1914.0,8124.0,222.0,0.119,-0.104,-0.672,-0.724
5408731,1792.0,8106.0,154.0,0.129,-0.095,-0.675,-0.72
5408757,1722.0,7942.0,194.0,0.139,-0.086,-0.679,-0.716
5408773,1568.0,7704.0,238.0,0.148,-0.076,-0.682,-0.712
5408789,1526.0,7646.0,182.0,0.158,-0.067,-0.686,-0.708
5408805,1362.0,7748.0,298.0,0.167,-0.058,-0.689,-0.703
5408821,1294.0,7630.0,326.0,0.176,-0.049,-0.693,-0.698
5408847,1178.0,7744.0,278.0,0.185,-0.04,-0.697,-0.692
5408863,960.0,7836.0,250.0,0.193,-0.031,-0.701,-0.686
5408879,678.0,7960.0,374.0,0.201,-0.022,-0.706,-0.679
5408895,498.0,8158.0,310.0,0.207,-0.014,-0.71,-0.672
5408911,242.0,8482.0,136.0,0.212,-0.006,-0.715,-0.666
5408927,154.0,8694.0,124.0,0.217,0.0,-0.719,-0.66
5408953,-42.0,8794.0,154.0,0.22,0.005,-0.722,-0.656
5408969,-24.0,8822.0,242.0,0.222,0.01,-0.725,-0.652
5408985,-30.0,8830.0,240.0,0.222,0.013,-0.728,-0.648
5409001,-110.0,8916.0,180.0,0.222,0.015,-0.731,-0.645
5409017,-48.0,9096.0,220.0,0.22,0.016,-0.733,-0.643
5409033,30.0,9222.0,220.0,0.217,0.016,-0.735,-0.642
5409059,296.0,9334.0,100.0,0.213,0.015,-0.736,-0.642
5409075,526.0,9122.0,22.0,0.207,0.013,-0.737,-0.643
5409091,696.0,8766.0,-324.0,0.201,0.01,-0.736,-0.646
5409107,1074.0,8414.0,-516.0,0.193,0.007,-0.736,-0.648
5409123,1700.0,8596.0,-120.0,0.186,0.003,-0.737,-0.65
5409139,1524.0,9196.0,-674.0,0.18,-0.002,-0.737,-0.652
5409165,1520.0,8726.0,-1036.0,0.172,-0.008,-0.736,-0.654
5409181,1818.0,8436.0,-1150.0,0.165,-0.015,-0.736,-0.657
5409197,1622.0,7930.0,-1094.0,0.157,-0.022,-0.735,-0.659
5409213,1658.0,7774.0,-1060.0,0.15,-0.028,-0.736,-0.66
5409230,1440.0,7834.0,-880.0,0.142,-0.034,-0.736,-0.661
5409247,1336.0,7870.0,-446.0,0.136,-0.041,-0.734,-0.664
5409264,1146.0,9000.0,-610.0,0.13,-0.047,-0.731,-0.668
5409281,1062.0,9292.0,-904.0,0.123,-0.054,-0.726,-0.675
5409298,1480.0,8328.0,-1210.0,0.116,-0.061,-0.718,-0.683
5409315,1570.0,7252.0,-1252.0,0.109,-0.067,-0.711,-0.691
5409342,1548.0,6834.0,-1254.0,0.103,-0.072,-0.705,-0.698
5409359,1528.0,6398.0,-1138.0,0.098,-0.075,-0.701,-0.703
5409375,1230.0,7442.0,-1354.0,0.092,-0.079,-0.7,-0.704
5409391,1116.0,7936.0,-1738.0,0.088,-0.083,-0.699,-0.705
5409407,1390.0,7392.0,-1590.0,0.083,-0.088,-0.698,-0.705
5409423,1332.0,7016.0,-1388.0,0.078,-0.092,-0.698,-0.706
5409440,1114.0,6982.0,-1170.0,0.074,-0.097,-0.697,-0.707
5409457,1394.0,6616.0,-918.0,0.069,-0.101,-0.695,-0.708
5409483,1492.0,6564.0,-718.0,0.066,-0.106,-0.694,-0.709
5409499,2034.0,7954.0,-638.0,0.063,-0.111,-0.695,-0.708
5409515,1962.0,8716.0,-842.0,0.061,-0.116,-0.695,-0.707
5409532,1944.0,8478.0,-936.0,0.058,-0.12,-0.695,-0.707
5409548,2000.0,8420.0,-846.0,0.056,-0.123,-0.695,-0.707
5409564,1956.0,8484.0,-810.0,0.054,-0.124,-0.695,-0.706
5409590,1752.0,8364.0,-744.0,0.052,-0.125,-0.696,-0.705
5409606,1624.0,8332.0,-632.0,0.05,-0.125,-0.697,-0.704
5409622,1632.0,7998.0,-472.0,0.048,-0.123,-0.699,-0.703
5409638,1626.0,7660.0,-392.0,0.047,-0.12,-0.701,-0.701
5409655,1540.0,7814.0,-198.0,0.046,-0.116,-0.704,-0.699
5409672,1222.0,7712.0,-154.0,0.046,-0.111,-0.706,-0.698
5409689,1000.0,7710.0,-246.0,0.046,-0.106,-0.708,-0.697
5409706,834.0,7642.0,-450.0,0.046,-0.101,-0.708,-0.697
5409732,958.0,7384.0,-798.0,0.047,-0.096,-0.709,-0.697
5409748,1012.0,7684.0,-936.0,0.049,-0.092,-0.71,-0.696
5409764,622.0,8570.0,-1180.0,0.05,-0.089,-0.711,-0.696
5409781,566.0,8748.0,-1176.0,0.051,-0.088,-0.71,-0.696
5409797,750.0,8980.0,-1086.0,0.052,-0.088,-0.709,-0.698
5409814,860.0,9298.0,-1156.0,0.051,-0.09,-0.706,-0.7
5409831,840.0,9912.0,-1110.0,0.048,-0.093,-0.701,-0.705
5409847,1114.0,8528.0,-750.0,0.044,-0.097,-0.696,-0.71
5409864,1512.0,8016.0,98.0,0.04,-0.101,-0.692,-0.714
5409891,1302.0,8410.0,628.0,0.035,-0.103,-0.691,-0.714
5409908,1152.0,8698.0,812.0,0.029,-0.104,-0.695,-0.711
5409925,976.0,9444.0,750.0,0.022,-0.103,-0.702,-0.704
5409942,298.0,9884.0,400.0,0.015,-0.101,-0.711,-0.696
5409959,-40.0,9962.0,186.0,0.009,-0.097,-0.719,-0.688
5409976,-332.0,9698.0,18.0,0.003,-0.092,-0.726,-0.682
5409993,-584.0,8862.0,-120.0,0.002,0.087,0.731,0.677
5410010,-672.0,8344.0,-460.0,0.008,0.081,0.735,0.673
5410026,-880.0,8234.0,-784.0,0.013,0.074,0.74,0.669
5410044,-946.0,8060.0,-1136.0,0.018,0.066,0.743,0.666
5410061,-932.0,7542.0,-1176.0,0.023,0.058,0.747,0.662
5410087,-1076.0,7506.0,-1378.0,0.027,0.049,0.751,0.658
5410103,-1318.0,8180.0,-1784.0,0.032,0.04,0.756,0.653
5410119,-1488.0,7952.0,-1940.0,0.036,0.031,0.759,0.649
5410135,-1430.0,7498.0,-1976.0,0.04,0.022,0.761,0.647
5410151,-1348.0,6952.0,-2058.0,0.042,0.014,0.763,0.644
5410167,-1062.0,6442.0,-2160.0,0.044,0.006,0.766,0.641
5410183,-890.0,6022.0,-2368.0,0.046,-0.002,0.771,0.635
5410209,-808.0,5886.0,-2416.0,0.047,-0.009,0.778,0.626
5410226,-488.0,5894.0,-2570.0,0.048,-0.017,0.788,0.614
5410243,-670.0,6298.0,-2412.0,0.048,-0.026,0.798,0.6
5410259,-996.0,6730.0,-2360.0,0.048,-0.035,0.809,0.585
5410276,-1132.0,6580.0,-2320.0,0.048,-0.042,0.818,0.571
5410293,-1264.0,6754.0,-2658.0,0.048,-0.05,0.828,0.556
5410310,-1422.0,7636.0,-2742.0,0.048,-0.057,0.837,0.541
5410327,-1434.0,8370.0,-2880.0,0.048,-0.064,0.845,0.529
5410344,-1340.0,7826.0,-2812.0,0.048,-0.071,0.851,0.519
5410361,-1296.0,7608.0,-2888.0,0.047,-0.078,0.855,0.51
5410378,-1354.0,7252.0,-2738.0,0.046,-0.084,0.859,0.503
5410395,-1456.0,7460.0,-2978.0,0.043,-0.09,0.862,0.497
5410422,-1786.0,7288.0,-3472.0,0.04,-0.095,0.864,0.492
5410439,-1238.0,7918.0,-3096.0,0.037,-0.099,0.865,0.491
5410456,-1302.0,7632.0,-3256.0,0.034,-0.103,0.864,0.492
5410472,-1212.0,7834.0,-3388.0,0.029,-0.105,0.861,0.497
5410489,-990.0,7666.0,-3370.0,0.024,-0.107,0.857,0.504
5410505,-1042.0,7368.0,-3360.0,0.019,-0.109,0.852,0.511
5410522,-876.0,7516.0,-3388.0,0.014,-0.11,0.848,0.519
5410539,-910.0,8160.0,-3364.0,0.008,-0.112,0.842,0.527
5410556,-1034.0,8370.0,-3328.0,0.002,-0.113,0.835,0.538
5410573,-1004.0,8326.0,-3376.0,0.004,0.114,-0.826,-0.553
5410590,-862.0,7946.0,-3446.0,0.012,0.114,-0.814,-0.569
5410617,-976.0,7396.0,-3456.0,0.021,0.113,-0.802,-0.586
5410633,-1048.0,7000.0,-3210.0,0.029,0.111,-0.791,-0.601
5410649,-934.0,6426.0,-2868.0,0.036,0.11,-0.781,-0.614
5410665,-738.0,6656.0,-2526.0,0.041,0.109,-0.773,-0.623
5410681,-828.0,6936.0,-2200.0,0.045,0.108,-0.769,-0.628
5410697,-698.0,8214.0,-1970.0,0.048,0.108,-0.766,-0.632
5410723,-970.0,8632.0,-1530.0,0.052,0.107,-0.762,-0.637
5410739,-1052.0,7946.0,-1118.0,0.056,0.106,-0.756,-0.644
5410756,-868.0,7048.0,-798.0,0.06,0.104,-0.75,-0.651
5410772,-832.0,6442.0,-648.0,0.062,0.101,-0.747,-0.654
5410788,-726.0,7062.0,-738.0,0.064,0.1,-0.747,-0.655
5410805,-674.0,7910.0,-732.0,0.064,0.099,-0.748,-0.653
5410822,-870.0,8486.0,-710.0,0.065,0.098,-0.75,-0.65
5410838,-726.0,8414.0,-546.0,0.065,0.098,-0.752,-0.649
5410855,-654.0,8250.0,-534.0,0.064,0.097,-0.754,-0.646
5410881,-314.0,8062.0,-296.0,0.064,0.098,-0.757,-0.643
5410898,-294.0,7678.0,-134.0,0.064,0.099,-0.761,-0.638
5410914,-894.0,8088.0,-566.0,0.065,0.101,-0.765,-0.632
5410930,-842.0,8508.0,-1126.0,0.065,0.102,-0.77,-0.627
5410946,-674.0,8654.0,-1660.0,0.065,0.102,-0.773,-0.622
5410963,-764.0,8734.0,-1958.0,0.064,0.102,-0.775,-0.62
5410980,-762.0,8030.0,-2092.0,0.064,0.101,-0.777,-0.618
5410997,-724.0,7530.0,-2006.0,0.063,0.101,-0.779,-0.616
5411024,-766.0,7258.0,-1894.0,0.061,0.101,-0.783,-0.611
5411041,-990.0,7634.0,-1928.0,0.06,0.1,-0.788,-0.605
5411059,-934.0,7616.0,-2116.0,0.058,0.1,-0.792,-0.599
5411077,-918.0,7570.0,-2388.0,0.056,0.1,-0.798,-0.592
5411094,-928.0,7814.0,-2620.0,0.054,0.1,-0.803,-0.585
5411111,-884.0,7708.0,-2790.0,0.052,0.1,-0.808,-0.579
5411127,-966.0,7484.0,-2862.0,0.05,0.099,-0.812,-0.572
5411143,-974.0,7270.0,-2964.0,0.048,0.099,-0.817,-0.566
5411159,-944.0,7614.0,-3212.0,0.046,0.098,-0.822,-0.56
5411175,-1052.0,7824.0,-3468.0,0.044,0.096,-0.825,-0.556
5411192,-1024.0,7838.0,-3510.0,0.043,0.094,-0.826,-0.554
5411209,-1114.0,7576.0,-3396.0,0.041,0.091,-0.826,-0.555
5411236,-1058.0,7730.0,-3354.0,0.039,0.088,-0.825,-0.556
5411253,-1016.0,7940.0,-3148.0,0.038,0.084,-0.824,-0.559
5411269,-994.0,8182.0,-2928.0,0.037,0.081,-0.822,-0.563
5411285,-866.0,8054.0,-2798.0,0.036,0.078,-0.818,-0.569
5411301,-920.0,9010.0,-3104.0,0.036,0.074,-0.812,-0.578
5411318,-1030.0,8780.0,-3248.0,0.036,0.07,-0.802,-0.592
5411335,-858.0,7316.0,-2958.0,0.035,0.065,-0.791,-0.608
5411352,-634.0,6792.0,-2522.0,0.034,0.061,-0.781,-0.621
5411369,-740.0,8076.0,-2450.0,0.033,0.057,-0.771,-0.633
5411386,-864.0,8404.0,-2112.0,0.032,0.053,-0.761,-0.646
5411413,-758.0,8510.0,-2024.0,0.031,0.048,-0.748,-0.661
5411429,-832.0,7590.0,-1668.0,0.029,0.044,-0.734,-0.677
5411445,-666.0,6230.0,-1226.0,0.027,0.039,-0.721,-0.691
5411461,-360.0,5824.0,-524.0,0.026,0.035,-0.714,-0.699
5411478,-388.0,7228.0,-38.0,0.024,0.032,-0.71,-0.703
5411495,-276.0,7774.0,334.0,0.023,0.029,-0.707,-0.706
5411512,-142.0,9426.0,150.0,0.022,0.027,-0.704,-0.71
5411529,-360.0,9092.0,282.0,0.02,0.026,-0.697,-0.716
5411546,-342.0,7242.0,548.0,0.019,0.025,-0.69,-0.723
5411563,-312.0,6200.0,684.0,0.019,0.024,-0.687,-0.726
5411590,-352.0,6688.0,362.0,0.018,0.024,-0.687,-0.726
5411606,-482.0,7504.0,-36.0,0.018,0.023,-0.69,-0.724
5411623,-488.0,7422.0,-40.0,0.017,0.023,-0.693,-0.72
5411640,-418.0,8730.0,-160.0,0.016,0.024,-0.698,-0.716
5411657,-584.0,9214.0,-92.0,0.015,0.023,-0.699,-0.714
5411674,-436.0,8042.0,178.0,0.014,0.023,-0.699,-0.714
5411690,-590.0,7856.0,94.0,0.014,0.022,-0.699,-0.714
5411707,-474.0,7840.0,166.0,0.013,0.022,-0.701,-0.713
5411725,-414.0,7984.0,168.0,0.012,0.022,-0.703,-0.71
5411742,-480.0,8278.0,-94.0,0.012,0.023,-0.706,-0.707
5411759,-306.0,8506.0,-174.0,0.012,0.025,-0.71,-0.704
5411776,-930.0,9322.0,-794.0,0.011,0.026,-0.712,-0.702
5411802,-936.0,9338.0,-1264.0,0.009,0.026,-0.712,-0.702
5411818,-1058.0,9064.0,-1872.0,0.006,0.026,-0.71,-0.704
5411834,-1462.0,8156.0,-1862.0,0.002,0.024,-0.707,-0.706
5411850,-1246.0,6722.0,-1164.0,0.001,-0.021,0.705,0.709
5411866,-496.0,7158.0,58.0,0.004,-0.017,0.703,0.711
5411882,-692.0,7946.0,1072.0,0.006,-0.015,0.7,0.714
5411908,142.0,8464.0,1944.0,0.008,-0.014,0.697,0.717
5411925,90.0,7652.0,2736.0,0.008,-0.016,0.695,0.719
5411941,-316.0,7462.0,2546.0,0.007,-0.019,0.694,0.72
5411957,-638.0,7838.0,1980.0,0.006,-0.023,0.695,0.718
5411974,-718.0,7994.0,1416.0,0.004,-0.026,0.697,0.716
5411991,-798.0,7496.0,1002.0,0.003,-0.03,0.701,0.713
5412007,-648.0,7430.0,650.0,0.002,-0.033,0.705,0.709
5412033,-486.0,7898.0,322.0,0.001,-0.036,0.71,0.703
5412049,-504.0,8426.0,46.0,0.0,0.039,-0.715,-0.698
5412065,-418.0,8848.0,-202.0,0.001,0.042,-0.719,-0.694
5412082,-512.0,8586.0,-344.0,0.002,0.045,-0.721,-0.691
5412098,-434.0,8036.0,-666.0,0.003,0.048,-0.724,-0.689
5412114,-636.0,7764.0,-722.0,0.005,0.05,-0.725,-0.687
5412130,-672.0,7346.0,-666.0,0.007,0.052,-0.728,-0.684
5412156,-682.0,7668.0,-816.0,0.008,0.054,-0.73,-0.681
5412173,-630.0,7704.0,-728.0,0.01,0.056,-0.733,-0.678
5412189,-742.0,7832.0,-594.0,0.011,0.058,-0.737,-0.674
5412206,-858.0,8456.0,-738.0,0.013,0.06,-0.739,-0.671
5412223,-982.0,8590.0,-956.0,0.015,0.062,-0.74,-0.669
5412239,-1074.0,8178.0,-1102.0,0.017,0.064,-0.74,-0.67
5412255,-1042.0,7450.0,-1312.0,0.019,0.065,-0.74,-0.67
5412271,-1092.0,7220.0,-1598.0,0.021,0.067,-0.741,-0.668
5412297,-1010.0,7000.0,-1760.0,0.022,0.068,-0.744,-0.664
5412313,-1208.0,7108.0,-1828.0,0.023,0.07,-0.75,-0.658
5412330,-1230.0,7228.0,-1908.0,0.023,0.07,-0.756,-0.651
5412346,-1018.0,7686.0,-2152.0,0.023,0.071,-0.762,-0.643
5412363,-1074.0,8304.0,-2334.0,0.022,0.071,-0.768,-0.636
5412380,-1020.0,8618.0,-2398.0,0.021,0.071,-0.773,-0.63
5412397,-808.0,8706.0,-2118.0,0.019,0.072,-0.777,-0.625
5412413,-928.0,8778.0,-1780.0,0.017,0.072,-0.78,-0.621
5412439,-930.0,8470.0,-1490.0,0.017,0.072,-0.781,-0.62
5412455,-1112.0,7958.0,-1338.0,0.017,0.073,-0.781,-0.62
5412472,-1014.0,7404.0,-1434.0,0.018,0.072,-0.78,-0.621
5412489,-950.0,7080.0,-1504.0,0.019,0.072,-0.78,-0.621
5412505,-948.0,7038.0,-1668.0,0.019,0.072,-0.782,-0.619
5412522,-656.0,7500.0,-1696.0,0.02,0.072,-0.784,-0.616
5412539,-838.0,8054.0,-1744.0,0.022,0.072,-0.785,-0.615
5412556,-846.0,7978.0,-1728.0,0.024,0.072,-0.785,-0.615
5412573,-776.0,7938.0,-1774.0,0.026,0.071,-0.785,-0.615
5412599,-734.0,8290.0,-2128.0,0.028,0.07,-0.785,-0.615
5412616,-722.0,8444.0,-2348.0,0.03,0.068,-0.783,-0.617
5412632,-660.0,7712.0,-2408.0,0.031,0.065,-0.782,-0.619
5412648,-734.0,7292.0,-2668.0,0.031,0.062,-0.781,-0.62
5412664,-762.0,7842.0,-2884.0,0.03,0.058,-0.781,-0.621
5412680,-712.0,8236.0,-3140.0,0.028,0.053,-0.781,-0.621
5412696,-514.0,8388.0,-3092.0,0.025,0.048,-0.781,-0.622
5412723,-554.0,8392.0,-2720.0,0.022,0.044,-0.78,-0.624
5412740,182.0,7384.0,-1102.0,0.019,0.041,-0.779,-0.625
5412756,488.0,6112.0,500.0,0.019,0.04,-0.78,-0.624
5412772,-530.0,7816.0,-12.0,0.019,0.039,-0.782,-0.622
5412788,-234.0,9000.0,-1186.0,0.019,0.039,-0.783,-0.62
5412804,-542.0,9288.0,-2016.0,0.02,0.04,-0.783,-0.621
5412820,-612.0,8720.0,-2470.0,0.019,0.04,-0.78,-0.624
5412846,-674.0,7856.0,-2592.0,0.018,0.041,-0.778,-0.626
5412862,-908.0,7722.0,-2582.0,0.016,0.042,-0.778,-0.627
5412878,-958.0,7804.0,-2494.0,0.014,0.042,-0.778,-0.627
5412895,-796.0,7612.0,-2200.0,0.013,0.042,-0.778,-0.627
5412912,-932.0,7094.0,-1772.0,0.012,0.041,-0.777,-0.628
5412929,-674.0,7194.0,-1652.0,0.011,0.039,-0.777,-0.628
5412945,-500.0,7772.0,-1584.0,0.01,0.037,-0.778,-0.628
5412971,-310.0,7884.0,-1368.0,0.009,0.035,-0.779,-0.627
5412987,-472.0,8064.0,-1358.0,0.008,0.034,-0.78,-0.625
5413004,-484.0,7938.0,-1246.0,0.008,0.033,-0.781,-0.624
5413020,-288.0,7984.0,-1588.0,0.007,0.031,-0.781,-0.623
5413036,-520.0,8430.0,-2156.0,0.006,0.03,-0.781,-0.624
5413052,-292.0,7702.0,-2252.0,0.005,0.028,-0.78,-0.625
5413069,-1084.0,7622.0,-2852.0,0.004,0.026,-0.78,-0.625
5413095,-594.0,7010.0,-2610.0,0.003,0.024,-0.78,-0.625
5413112,-742.0,7636.0,-1954.0,0.002,0.023,-0.781,-0.624
5413129,-560.0,7914.0,-1306.0,0.001,0.021,-0.782,-0.622
5413146,-586.0,8668.0,-496.0,0.002,0.02,-0.783,-0.622
5413163,-236.0,8862.0,54.0,0.002,0.02,-0.781,-0.624
5413179,-348.0,8378.0,-412.0,0.004,0.022,-0.779,-0.627
5413195,-314.0,7110.0,-728.0,0.005,0.025,-0.777,-0.629
5413212,-474.0,6674.0,-1236.0,0.007,0.028,-0.778,-0.627
5413229,-788.0,7328.0,-2008.0,0.009,0.031,-0.782,-0.623
5413246,-918.0,8590.0,-2880.0,0.011,0.033,-0.784,-0.62
5413263,-806.0,9128.0,-3278.0,0.011,0.034,-0.784,-0.62
5413289,-544.0,8166.0,-2928.0,0.01,0.034,-0.783,-0.621
5413306,-470.0,7642.0,-2510.0,0.01,0.034,-0.782,-0.623
5413323,-414.0,7910.0,-2324.0,0.008,0.033,-0.782,-0.622
5413340,-564.0,8292.0,-2266.0,0.007,0.033,-0.781,-0.623
5413356,-526.0,7530.0,-1900.0,0.007,0.032,-0.781,-0.624
5413373,-538.0,7342.0,-1772.0,0.006,0.031,-0.781,-0.624
5413389,-456.0,7816.0,-1588.0,0.006,0.03,-0.781,-0.624
5413405,-574.0,8028.0,-1422.0,0.006,0.03,-0.781,-0.624
5413431,-642.0,7734.0,-1524.0,0.006,0.03,-0.781,-0.624
5413447,-536.0,7384.0,-1672.0,0.006,0.031,-0.781,-0.623
5413463,-416.0,7332.0,-1674.0,0.007,0.031,-0.782,-0.622
5413479,-756.0,7990.0,-2034.0,0.007,0.031,-0.783,-0.621
5413496,-542.0,8000.0,-2254.0,0.006,0.031,-0.784,-0.62
5413512,-442.0,7772.0,-2194.0,0.006,0.03,-0.784,-0.62
5413528,-514.0,7984.0,-2226.0,0.005,0.029,-0.784,-0.62
5413554,-616.0,8210.0,-2238.0,0.004,0.028,-0.784,-0.62
5413570,-664.0,8108.0,-2028.0,0.003,0.027,-0.784,-0.621
5413586,-560.0,7860.0,-1680.0,0.002,0.027,-0.784,-0.621
5413603,-464.0,7778.0,-1452.0,0.002,0.026,-0.784,-0.62
5413619,-486.0,8178.0,-1658.0,0.001,0.026,-0.785,-0.619
5413635,-550.0,8166.0,-1880.0,0.001,0.026,-0.784,-0.62
5413661,-410.0,7408.0,-1624.0,0.0,0.026,-0.784,-0.621
5413678,-354.0,7188.0,-1346.0,0.001,0.026,-0.784,-0.62
5413695,-496.0,8914.0,-1842.0,0.001,0.026,-0.785,-0.619
5413712,-320.0,8370.0,-1960.0,0.001,0.026,-0.784,-0.621
5413729,-242.0,7436.0,-1684.0,0.001,0.026,-0.782,-0.623
5413745,-80.0,6746.0,-1290.0,0.002,0.026,-0.781,-0.624
5413762,-266.0,6794.0,-1114.0,0.004,0.025,-0.781,-0.624
5413779,-600.0,7758.0,-1434.0,0.005,0.025,-0.781,-0.624
5413796,-720.0,8348.0,-1582.0,0.006,0.024,-0.781,-0.624
5413813,-740.0,8626.0,-1744.0,0.007,0.025,-0.782,-0.623
5413830,-726.0,8596.0,-1774.0,0.008,0.026,-0.782,-0.622
5413856,-572.0,8366.0,-1672.0,0.009,0.028,-0.783,-0.621
5413872,-490.0,8450.0,-1446.0,0.01,0.029,-0.784,-0.62
5413888,-596.0,8564.0,-1338.0,0.012,0.031,-0.784,-0.62
5413904,-632.0,8930.0,-1528.0,0.013,0.033,-0.782,-0.622
5413921,-642.0,9220.0,-1932.0,0.014,0.033,-0.778,-0.627
5413937,-262.0,8210.0,-1618.0,0.015,0.034,-0.773,-0.634
5413953,-632.0,8864.0,-1816.0,0.017,0.035,-0.766,-0.641
5413980,-642.0,8500.0,-1542.0,0.018,0.036,-0.758,-0.651
5413996,-510.0,8136.0,-1412.0,0.02,0.036,-0.749,-0.661
5414012,-744.0,8304.0,-1260.0,0.022,0.036,-0.738,-0.673
5414029,-726.0,7548.0,-1000.0,0.024,0.035,-0.726,-0.687
5414046,-838.0,6772.0,-742.0,0.028,0.031,-0.712,-0.701
5414062,-594.0,5542.0,-1422.0,0.033,0.024,-0.699,-0.714
5414078,-128.0,6450.0,-1286.0,0.036,0.017,-0.685,-0.727
5414104,956.0,8178.0,-484.0,0.036,0.012,-0.674,-0.737
5414121,348.0,8562.0,484.0,0.035,0.011,-0.666,-0.745
5414137,628.0,7762.0,1194.0,0.034,0.011,-0.662,-0.749
5414153,46.0,7234.0,1346.0,0.035,0.012,-0.661,-0.749
5414170,14.0,6784.0,1456.0,0.037,0.012,-0.663,-0.748
5414186,-4.0,7380.0,1180.0,0.039,0.012,-0.666,-0.745
5414203,122.0,8804.0,822.0,0.041,0.012,-0.669,-0.742
5414220,234.0,9456.0,700.0,0.043,0.011,-0.669,-0.742
5414236,234.0,9144.0,612.0,0.044,0.01,-0.667,-0.744
5414263,210.0,8400.0,734.0,0.044,0.009,-0.663,-0.747
5414279,72.0,6540.0,1216.0,0.044,0.007,-0.661,-0.749
5414295,-20.0,5498.0,1188.0,0.044,0.006,-0.665,-0.746
5414311,98.0,5552.0,960.0,0.044,0.005,-0.675,-0.737
5414327,-30.0,6410.0,396.0,0.045,0.005,-0.689,-0.724
5414344,-98.0,7128.0,96.0,0.045,0.005,-0.705,-0.707
5414361,326.0,7912.0,-452.0,0.045,0.005,-0.723,-0.69
5414378,290.0,8392.0,-782.0,0.045,0.005,-0.739,-0.672
5414395,260.0,8388.0,-1048.0,0.046,0.007,-0.755,-0.654
5414421,-284.0,8742.0,-1628.0,0.046,0.009,-0.771,-0.635
5414437,-486.0,9154.0,-2350.0,0.047,0.011,-0.786,-0.616
5414453,-152.0,9466.0,-2742.0,0.047,0.013,-0.798,-0.601
5414469,-262.0,9404.0,-2904.0,0.048,0.015,-0.806,-0.59
5414486,-552.0,8538.0,-3092.0,0.049,0.017,-0.81,-0.584
5414503,-756.0,7736.0,-3296.0,0.049,0.018,-0.815,-0.578
5414529,-660.0,7480.0,-3430.0,0.049,0.019,-0.82,-0.57
5414545,-736.0,8060.0,-3730.0,0.049,0.02,-0.825,-0.563
5414561,-404.0,8290.0,-3650.0,0.048,0.021,-0.829,-0.557
5414577,-696.0,8672.0,-3552.0,0.046,0.023,-0.832,-0.553
5414594,-542.0,8188.0,-3212.0,0.044,0.025,-0.834,-0.549
5414610,-600.0,8042.0,-3304.0,0.043,0.028,-0.836,-0.546
5414626,-624.0,8352.0,-3240.0,0.04,0.032,-0.838,-0.543
5414652,-614.0,8464.0,-2964.0,0.039,0.036,-0.84,-0.54
5414668,-996.0,8320.0,-2688.0,0.037,0.04,-0.841,-0.538
5414684,-822.0,8252.0,-2738.0,0.035,0.044,-0.841,-0.538
5414700,-702.0,8096.0,-2652.0,0.033,0.049,-0.841,-0.538
5414717,-676.0,8242.0,-2660.0,0.032,0.053,-0.84,-0.539
5414734,-906.0,8116.0,-2670.0,0.031,0.058,-0.839,-0.541
5414750,-812.0,7810.0,-2622.0,0.03,0.065,-0.837,-0.542
5414776,-948.0,7608.0,-2652.0,0.029,0.071,-0.836,-0.543
5414793,-968.0,7574.0,-2598.0,0.028,0.079,-0.836,-0.542
5414810,-1230.0,8144.0,-2796.0,0.027,0.087,-0.836,-0.541
5414827,-1266.0,8374.0,-2984.0,0.026,0.094,-0.835,-0.542
5414844,-1284.0,7790.0,-3020.0,0.026,0.102,-0.833,-0.543
5414861,-1510.0,7638.0,-2912.0,0.026,0.11,-0.831,-0.544
5414878,-1456.0,7418.0,-2990.0,0.026,0.119,-0.83,-0.545
5414895,-1554.0,7272.0,-3112.0,0.026,0.128,-0.829,-0.544
5414911,-1660.0,7752.0,-3050.0,0.026,0.139,-0.828,-0.543
5414927,-1886.0,8076.0,-3332.0,0.027,0.15,-0.826,-0.542
5414953,-2136.0,7798.0,-3632.0,0.028,0.161,-0.824,-0.542
5414970,-1740.0,7272.0,-3842.0,0.029,0.172,-0.822,-0.542
5414986,-1916.0,7306.0,-4006.0,0.03,0.184,-0.821,-0.539
5415002,-2260.0,8192.0,-4210.0,0.03,0.196,-0.819,-0.538
5415018,-2034.0,8646.0,-4510.0,0.03,0.207,-0.816,-0.539
5415034,-1998.0,8126.0,-4538.0,0.03,0.217,-0.81,-0.543
5415051,-1886.0,7396.0,-4302.0,0.03,0.226,-0.805,-0.548
5415077,-1786.0,7028.0,-4010.0,0.03,0.235,-0.799,-0.552
5415094,-1582.0,7158.0,-3918.0,0.029,0.243,-0.795,-0.555
5415112,-1586.0,7474.0,-4086.0,0.029,0.25,-0.791,-0.558
5415128,-1820.0,7540.0,-3960.0,0.028,0.257,-0.786,-0.561
5415145,-1762.0,7064.0,-3686.0,0.027,0.264,-0.782,-0.564
5415162,-1754.0,7142.0,-3584.0,0.025,0.269,-0.778,-0.567
5415179,-1808.0,7312.0,-3376.0,0.024,0.274,-0.773,-0.571
5415196,-1934.0,7066.0,-3026.0,0.024,0.278,-0.769,-0.575
5415212,-2396.0,6884.0,-2804.0,0.024,0.281,-0.764,-0.58
5415229,-2514.0,6038.0,-2708.0,0.024,0.284,-0.759,-0.586
5415246,-2776.0,5510.0,-2740.0,0.025,0.286,-0.755,-0.59
5415272,-2780.0,5286.0,-2258.0,0.025,0.286,-0.753,-0.592
5415289,-2426.0,5576.0,-1984.0,0.024,0.285,-0.754,-0.592
5415305,-2048.0,6308.0,-1812.0,0.024,0.284,-0.754,-0.591
5415321,-1836.0,6932.0,-2004.0,0.025,0.283,-0.754,-0.592
5415337,-1120.0,7714.0,-2226.0,0.026,0.283,-0.753,-0.593
5415354,-1378.0,8536.0,-1810.0,0.029,0.284,-0.751,-0.596
5415372,-1150.0,7638.0,-1848.0,0.032,0.284,-0.748,-0.599
5415389,-740.0,6890.0,-1978.0,0.035,0.284,-0.746,-0.601
5415405,-338.0,7440.0,-2266.0,0.036,0.284,-0.746,-0.601
5415422,466.0,7892.0,-2484.0,0.037,0.285,-0.747,-0.6
5415448,746.0,8970.0,-2514.0,0.038,0.287,-0.746,-0.599
5415464,-470.0,8640.0,-1764.0,0.04,0.29,-0.744,-0.601
5415480,-1080.0,7148.0,-1368.0,0.04,0.294,-0.741,-0.603
5415496,-1386.0,6278.0,-1120.0,0.04,0.296,-0.738,-0.605
5415512,-1112.0,6760.0,-1148.0,0.039,0.299,-0.736,-0.606
5415528,-1098.0,7454.0,-830.0,0.04,0.302,-0.733,-0.609
5415555,-1934.0,7118.0,-186.0,0.041,0.305,-0.728,-0.613
5415572,-2426.0,5806.0,1748.0,0.04,0.309,-0.723,-0.617
5415589,-2722.0,5732.0,-1144.0,0.038,0.312,-0.72,-0.619
5415606,-3326.0,6718.0,-1562.0,0.037,0.314,-0.717,-0.622
5415622,-3882.0,7284.0,-1868.0,0.037,0.314,-0.711,-0.628
5415639,-4710.0,5816.0,-1314.0,0.038,0.312,-0.704,-0.637
5415656,-3738.0,4562.0,-1264.0,0.039,0.31,-0.699,-0.643
5415672,-3410.0,5804.0,-1936.0,0.039,0.307,-0.699,-0.645
5415688,-3508.0,8532.0,-2180.0,0.04,0.304,-0.699,-0.646
5415705,-3712.0,10680.0,-2604.0,0.042,0.3,-0.695,-0.652
5415732,-3404.0,9156.0,-2182.0,0.043,0.295,-0.688,-0.662
5415748,-2936.0,8520.0,-1654.0,0.042,0.291,-0.681,-0.671
5415764,-3144.0,8164.0,-1552.0,0.041,0.287,-0.675,-0.678
5415780,-3466.0,8160.0,-1598.0,0.038,0.284,-0.67,-0.685
5415796,-3542.0,8150.0,-1496.0,0.036,0.28,-0.665,-0.692
5415812,-3800.0,7044.0,-1032.0,0.033,0.276,-0.66,-0.698
5415838,-3740.0,6920.0,-922.0,0.03,0.27,-0.657,-0.703
5415855,-3748.0,6980.0,-984.0,0.027,0.265,-0.655,-0.707
5415872,-3440.0,7122.0,-1116.0,0.023,0.259,-0.654,-0.711
5415888,-3120.0,6894.0,-566.0,0.02,0.251,-0.653,-0.714
5415905,-2884.0,6782.0,-258.0,0.018,0.243,-0.654,-0.717
5415922,-2422.0,6610.0,-58.0,0.015,0.233,-0.656,-0.718
5415939,-2214.0,6466.0,148.0,0.012,0.223,-0.661,-0.717
5415956,-1544.0,7160.0,-918.0,0.009,0.211,-0.667,-0.714
5415973,-902.0,9402.0,-806.0,0.005,0.2,-0.673,-0.712
5415990,-1092.0,9916.0,-738.0,0.001,-0.189,0.675,0.713
5416007,-580.0,8900.0,-204.0,0.007,-0.179,0.676,0.715
5416024,-638.0,7426.0,-168.0,0.014,-0.169,0.678,0.715
5416041,-542.0,6322.0,-598.0,0.023,-0.16,0.683,0.713
5416068,-338.0,6602.0,-762.0,0.033,-0.153,0.69,0.707
5416085,-108.0,6676.0,-782.0,0.042,-0.147,0.698,0.7
5416101,-832.0,6424.0,-484.0,0.052,-0.143,0.707,0.691
5416117,-1028.0,6706.0,-1724.0,0.061,-0.141,0.717,0.68
5416133,-2630.0,8960.0,-2852.0,0.071,-0.14,0.726,0.67
5416150,-1416.0,9986.0,-3002.0,0.083,-0.137,0.731,0.663
5416166,-1900.0,8456.0,-2600.0,0.094,-0.134,0.736,0.657
5416192,-2036.0,9338.0,-2040.0,0.105,-0.13,0.741,0.65
5416208,-3604.0,9128.0,-1674.0,0.115,-0.125,0.745,0.645
5416224,-3350.0,7232.0,-1638.0,0.127,-0.119,0.751,0.638
5416240,-3466.0,7420.0,-1864.0,0.139,-0.113,0.759,0.626
5416256,-3628.0,8612.0,-2162.0,0.152,-0.107,0.767,0.614
5416273,-3902.0,8958.0,-2064.0,0.164,-0.102,0.774,0.602
5416290,-3832.0,9496.0,-1682.0,0.176,-0.1,0.781,0.591
5416307,-4238.0,9676.0,-1224.0,0.186,-0.098,0.785,0.583
5416334,-4048.0,8962.0,-1346.0,0.196,-0.097,0.786,0.579
5416350,-3778.0,7140.0,-1758.0,0.203,-0.096,0.785,0.577
5416367,-2954.0,6256.0,-2474.0,0.208,-0.095,0.786,0.575
5416384,-2908.0,5920.0,-2710.0,0.214,-0.093,0.787,0.572
5416401,-2626.0,6108.0,-2320.0,0.219,-0.091,0.786,0.571
5416417,-2530.0,5808.0,-2068.0,0.223,-0.089,0.784,0.572
5416434,-2044.0,5474.0,-1704.0,0.226,-0.088,0.781,0.576
5416451,-2386.0,5014.0,-1206.0,0.228,-0.089,0.777,0.58
5416467,-2440.0,4916.0,-1242.0,0.231,-0.09,0.774,0.582
5416493,-2398.0,5622.0,-1466.0,0.234,-0.092,0.773,0.583
5416510,-2794.0,5854.0,-1272.0,0.237,-0.096,0.771,0.584
5416527,-3202.0,6348.0,-1414.0,0.237,-0.1,0.768,0.587
5416544,-3948.0,5166.0,-2082.0,0.237,-0.105,0.763,0.592
5416560,-3958.0,5936.0,-2402.0,0.237,-0.11,0.761,0.594
5416577,-5118.0,9456.0,-2302.0,0.24,-0.115,0.759,0.594
5416594,-5568.0,10626.0,-1652.0,0.242,-0.122,0.755,0.596
5416611,-5454.0,7692.0,-1010.0,0.245,-0.129,0.749,0.602
5416627,-4588.0,5272.0,-498.0,0.247,-0.134,0.745,0.605
5416644,-4674.0,5254.0,38.0,0.249,-0.138,0.743,0.606
5416661,-5188.0,6646.0,232.0,0.251,-0.141,0.743,0.604
5416687,-5050.0,8606.0,-316.0,0.252,-0.144,0.743,0.602
5416704,-5170.0,9284.0,-928.0,0.254,-0.148,0.743,0.602
5416721,-5656.0,9324.0,-1008.0,0.256,-0.152,0.74,0.603
5416738,-5780.0,8676.0,-918.0,0.258,-0.156,0.735,0.607
5416754,-5498.0,7702.0,-794.0,0.26,-0.161,0.728,0.614
5416770,-5292.0,5952.0,-596.0,0.261,-0.165,0.719,0.623
5416786,-5002.0,5698.0,-242.0,0.262,-0.169,0.71,0.631
5416813,-5454.0,5508.0,-484.0,0.262,-0.174,0.701,0.64
5416829,-5260.0,4880.0,-160.0,0.261,-0.178,0.694,0.647
5416845,-5622.0,5170.0,-504.0,0.259,-0.181,0.689,0.652
5416861,-5252.0,4822.0,-442.0,0.256,-0.184,0.684,0.657
5416877,-5304.0,5304.0,-516.0,0.254,-0.185,0.681,0.661
5416893,-5256.0,5340.0,-452.0,0.251,-0.186,0.68,0.664
5416909,-5124.0,5394.0,-214.0,0.25,-0.187,0.679,0.665
5416936,-5132.0,6172.0,-124.0,0.25,-0.187,0.679,0.665
5416952,-5228.0,6710.0,234.0,0.25,-0.188,0.679,0.665
5416968,-5086.0,6814.0,454.0,0.25,-0.188,0.678,0.666
5416985,-4768.0,6576.0,762.0,0.25,-0.19,0.676,0.667
5417002,-4904.0,6370.0,910.0,0.25,-0.192,0.673,0.67
5417019,-4654.0,6164.0,1234.0,0.249,-0.194,0.669,0.673
5417035,-4516.0,6262.0,1330.0,0.247,-0.197,0.665,0.677
5417051,-4414.0,6318.0,1268.0,0.246,-0.201,0.661,0.68
5417077,-4482.0,6330.0,1328.0,0.244,-0.205,0.657,0.683
5417094,-4496.0,6348.0,1266.0,0.242,-0.209,0.654,0.685
5417111,-4498.0,6402.0,1224.0,0.241,-0.214,0.652,0.687
5417127,-4742.0,6356.0,1216.0,0.241,-0.218,0.65,0.687
5417143,-5212.0,6424.0,1142.0,0.24,-0.222,0.648,0.687
5417159,-5426.0,6356.0,986.0,0.241,-0.226,0.647,0.687
5417175,-5656.0,5906.0,940.0,0.242,-0.231,0.645,0.687
5417201,-5790.0,5680.0,768.0,0.244,-0.235,0.643,0.687
5417217,-5918.0,5238.0,696.0,0.245,-0.239,0.64,0.688
5417233,-5854.0,4454.0,690.0,0.246,-0.243,0.636,0.689
5417249,-5630.0,3934.0,520.0,0.247,-0.246,0.633,0.691
5417265,-5450.0,3632.0,460.0,0.247,-0.248,0.631,0.693
5417281,-5350.0,3640.0,550.0,0.247,-0.249,0.629,0.693
5417307,-5264.0,4072.0,552.0,0.247,-0.25,0.63,0.693
5417323,-5160.0,4734.0,394.0,0.247,-0.249,0.631,0.692
5417340,-5142.0,5560.0,88.0,0.248,-0.249,0.633,0.69
5417356,-5148.0,6098.0,-170.0,0.247,-0.249,0.635,0.688
5417372,-5194.0,6118.0,12.0,0.247,-0.248,0.636,0.688
5417388,-5326.0,6246.0,-28.0,0.247,-0.249,0.637,0.687
5417405,-5168.0,5942.0,32.0,0.247,-0.249,0.638,0.686
5417431,-5462.0,6020.0,138.0,0.247,-0.25,0.639,0.684
5417447,-5610.0,6148.0,-14.0,0.247,-0.251,0.64,0.683
5417463,-5834.0,6136.0,-154.0,0.247,-0.252,0.642,0.681
5417479,-5998.0,6034.0,-244.0,0.247,-0.252,0.643,0.68
5417496,-6134.0,6264.0,-366.0,0.246,-0.253,0.644,0.679
5417512,-6042.0,6202.0,-292.0,0.246,-0.253,0.645,0.678
5417528,-6178.0,5888.0,-144.0,0.247,-0.252,0.646,0.677
5417554,-6298.0,5268.0,44.0,0.248,-0.251,0.647,0.676
5417570,-6264.0,5036.0,206.0,0.249,-0.249,0.648,0.675
5417587,-6390.0,5098.0,304.0,0.25,-0.247,0.649,0.675
5417604,-6284.0,5248.0,546.0,0.25,-0.244,0.65,0.675
5417621,-5816.0,5584.0,606.0,0.25,-0.242,0.65,0.676
5417637,-5288.0,6080.0,398.0,0.249,-0.24,0.65,0.677
5417653,-5056.0,6204.0,208.0,0.247,-0.238,0.649,0.679
5417679,-4850.0,6112.0,38.0,0.245,-0.237,0.648,0.681
5417695,-4362.0,5754.0,-366.0,0.242,-0.236,0.647,0.684
5417712,-4098.0,5018.0,-458.0,0.239,-0.235,0.645,0.686
5417728,-3936.0,4718.0,-328.0,0.236,-0.233,0.645,0.689
5417744,-4164.0,4106.0,-322.0,0.232,-0.23,0.645,0.691
5417760,-3484.0,3374.0,-396.0,0.227,-0.227,0.646,0.692
5417776,-3140.0,2214.0,-624.0,0.221,-0.222,0.648,0.695
5417803,-2840.0,1288.0,108.0,0.214,-0.216,0.65,0.697
5417819,-2794.0,1432.0,630.0,0.207,-0.209,0.653,0.698
5417836,-1718.0,1576.0,886.0,0.198,-0.201,0.657,0.699
5417853,-1112.0,3186.0,1194.0,0.187,-0.191,0.663,0.7
5417869,-772.0,4756.0,796.0,0.173,-0.181,0.667,0.701
5417885,-826.0,6090.0,54.0,0.158,-0.17,0.67,0.705
5417901,-540.0,5866.0,526.0,0.141,-0.158,0.67,0.711
5417927,-44.0,6972.0,1518.0,0.124,-0.143,0.672,0.716
5417943,532.0,5078.0,1138.0,0.107,-0.127,0.675,0.719
5417960,1762.0,7294.0,-548.0,0.089,-0.11,0.68,0.719
5417977,770.0,9420.0,-1708.0,0.07,-0.091,0.684,0.72
5417993,2056.0,9206.0,-2110.0,0.051,-0.07,0.686,0.723
5418010,2918.0,6752.0,-1550.0,0.032,-0.046,0.686,0.725
5418027,3432.0,6614.0,-862.0,0.013,-0.021,0.687,0.727
5418043,2812.0,9124.0,-942.0,0.005,-0.004,-0.686,-0.728
5418060,1350.0,9462.0,604.0,0.022,-0.032,-0.68,-0.732
5418087,1702.0,9338.0,1558.0,0.04,-0.063,-0.671,-0.737
5418103,3634.0,8700.0,2338.0,0.058,-0.096,-0.663,-0.74
5418119,4932.0,8498.0,2428.0,0.076,-0.129,-0.654,-0.742
5418136,6358.0,10418.0,3192.0,0.094,-0.162,-0.645,-0.741
5418153,6542.0,11962.0,2768.0,0.113,-0.194,-0.634,-0.74
5418170,7436.0,10314.0,2574.0,0.13,-0.226,-0.622,-0.738
5418187,6382.0,9390.0,1028.0,0.147,-0.256,-0.611,-0.735
5418204,6172.0,10842.0,2256.0,0.161,-0.285,-0.598,-0.732
5418221,6170.0,9804.0,2408.0,0.174,-0.313,-0.584,-0.728
5418238,5246.0,9734.0,2762.0,0.187,-0.34,-0.571,-0.723
5418255,8048.0,618.0,6274.0,0.204,-0.367,-0.555,-0.718
5418282,3554.0,15714.0,-1530.0,0.221,-0.386,-0.549,-0.708
5418298,3762.0,11728.0,1180.0,0.234,-0.405,-0.541,-0.699
5418315,6596.0,11558.0,2090.0,0.247,-0.422,-0.532,-0.691
5418331,7674.0,9058.0,3434.0,0.258,-0.431,-0.528,-0.685
5418347,7144.0,9288.0,3938.0,0.267,-0.435,-0.525,-0.681
5418363,7602.0,9588.0,3692.0,0.272,-0.432,-0.527,-0.68
5418379,7092.0,8894.0,2622.0,0.275,-0.421,-0.533,-0.681
5418396,5746.0,10900.0,1540.0,0.274,-0.407,-0.541,-0.683
5418422,4998.0,13438.0,982.0,0.27,-0.39,-0.551,-0.687
5418439,5100.0,13170.0,1218.0,0.264,-0.37,-0.562,-0.691
5418456,5472.0,10408.0,1196.0,0.255,-0.348,-0.574,-0.696
5418473,5084.0,9154.0,1488.0,0.247,-0.324,-0.586,-0.7
5418490,5170.0,9412.0,1708.0,0.238,-0.299,-0.6,-0.703
5418507,4476.0,12890.0,776.0,0.226,-0.272,-0.614,-0.706
5418524,6296.0,11934.0,444.0,0.209,-0.247,-0.626,-0.71
5418541,9036.0,7772.0,1198.0,0.189,-0.221,-0.635,-0.716
5418558,8792.0,7702.0,1988.0,0.17,-0.194,-0.645,-0.719
5418575,8110.0,7260.0,2078.0,0.153,-0.165,-0.656,-0.72
5418592,7420.0,9102.0,1334.0,0.136,-0.138,-0.667,-0.719
5418609,6964.0,7556.0,1082.0,0.119,-0.111,-0.677,-0.718
5418626,6910.0,6384.0,698.0,0.101,-0.086,-0.684,-0.717
5418643,5802.0,5972.0,1692.0,0.086,-0.062,-0.691,-0.715
5418670,3032.0,7596.0,1428.0,0.072,-0.038,-0.699,-0.711
5418687,2354.0,7172.0,1308.0,0.059,-0.017,-0.704,-0.707
5418703,2380.0,8128.0,1228.0,0.047,0.003,-0.707,-0.706
5418719,1596.0,8876.0,950.0,0.034,0.022,-0.709,-0.704
5418735,694.0,8120.0,104.0,0.02,0.041,-0.708,-0.705
5418751,314.0,9682.0,-320.0,0.005,0.058,-0.705,-0.706
5418768,406.0,9756.0,-636.0,0.01,-0.075,0.701,0.709
5418794,1536.0,8628.0,-822.0,0.023,-0.089,0.696,0.712
5418810,1286.0,7220.0,-696.0,0.037,-0.104,0.691,0.715
5418827,-430.0,7006.0,-1006.0,0.052,-0.119,0.686,0.716
5418844,-1062.0,6516.0,-1260.0,0.064,-0.132,0.681,0.718
5418861,-724.0,5966.0,-808.0,0.075,-0.144,0.676,0.719
5418877,-904.0,6028.0,-498.0,0.086,-0.154,0.672,0.719
5418894,-740.0,6120.0,-476.0,0.096,-0.163,0.669,0.719
5418910,-1058.0,6616.0,-370.0,0.107,-0.171,0.668,0.717
5418937,-938.0,6258.0,-564.0,0.119,-0.179,0.667,0.714
5418954,-1184.0,5706.0,-566.0,0.131,-0.187,0.666,0.71
5418971,-1618.0,4936.0,-462.0,0.143,-0.195,0.664,0.708
5418987,-2500.0,2624.0,72.0,0.153,-0.201,0.661,0.706
5419003,-2440.0,368.0,538.0,0.16,-0.206,0.659,0.705
5419019,-1702.0,-1672.0,652.0,0.164,-0.207,0.659,0.704
5419035,-1208.0,-2656.0,186.0,0.165,-0.207,0.66,0.703
5419052,-992.0,-2872.0,-108.0,0.163,-0.204,0.661,0.704
5419068,-420.0,-3232.0,294.0,0.157,-0.198,0.663,0.705
5419094,-92.0,-3670.0,848.0,0.146,-0.188,0.667,0.706
5419110,52.0,-2342.0,1102.0,0.132,-0.175,0.674,0.706
5419126,-522.0,694.0,1310.0,0.115,-0.16,0.682,0.704
5419142,-258.0,4230.0,1170.0,0.097,-0.144,0.69,0.703
5419158,1306.0,4690.0,1134.0,0.076,-0.125,0.695,0.704
5419184,2420.0,4918.0,1764.0,0.052,-0.104,0.696,0.709
5419201,3402.0,7606.0,1802.0,0.025,-0.08,0.695,0.715
5419217,4078.0,9234.0,582.0,0.002,0.056,-0.692,-0.72
5419234,4330.0,7490.0,-580.0,0.029,0.029,-0.686,-0.726
5419251,4522.0,8446.0,374.0,0.053,0.001,-0.68,-0.731
5419268,4378.0,9878.0,128.0,0.077,-0.027,-0.675,-0.733
5419285,4792.0,9726.0,574.0,0.102,-0.058,-0.669,-0.734
5419302,6158.0,10124.0,1398.0,0.126,-0.09,-0.662,-0.733
5419319,7386.0,9252.0,2366.0,0.151,-0.121,-0.653,-0.732
5419336,7072.0,11362.0,994.0,0.174,-0.151,-0.643,-0.73
5419352,6916.0,10598.0,1002.0,0.195,-0.183,-0.629,-0.73
5419379,7498.0,11028.0,670.0,0.212,-0.217,-0.614,-0.729
5419396,9090.0,9536.0,1066.0,0.229,-0.252,-0.599,-0.725
5419412,9568.0,8886.0,1528.0,0.245,-0.284,-0.585,-0.719
5419428,9326.0,9826.0,972.0,0.259,-0.314,-0.571,-0.712
5419444,8800.0,10592.0,1010.0,0.272,-0.342,-0.558,-0.705
5419460,7606.0,10086.0,560.0,0.282,-0.368,-0.546,-0.698
5419477,6442.0,10072.0,1268.0,0.289,-0.391,-0.535,-0.691
5419494,6386.0,10214.0,2298.0,0.296,-0.411,-0.526,-0.684
5419520,6178.0,10458.0,3022.0,0.302,-0.424,-0.52,-0.677
5419537,5772.0,11254.0,2994.0,0.308,-0.432,-0.518,-0.671
5419553,4484.0,12184.0,3270.0,0.312,-0.434,-0.519,-0.667
5419570,4824.0,11552.0,5040.0,0.315,-0.433,-0.522,-0.664
5419586,4894.0,12518.0,4100.0,0.315,-0.428,-0.526,-0.664
5419602,5544.0,11234.0,4366.0,0.312,-0.419,-0.531,-0.667
5419618,5774.0,10868.0,3576.0,0.307,-0.406,-0.539,-0.671
5419644,5938.0,9454.0,3880.0,0.3,-0.388,-0.55,-0.676
5419660,5696.0,10518.0,2862.0,0.293,-0.367,-0.561,-0.682
5419676,5678.0,10394.0,2056.0,0.282,-0.345,-0.572,-0.689
5419693,6822.0,8270.0,2590.0,0.27,-0.322,-0.583,-0.696
5419709,7564.0,9094.0,2194.0,0.257,-0.296,-0.594,-0.702
5419725,8960.0,8334.0,1622.0,0.243,-0.27,-0.606,-0.708
5419742,9152.0,7612.0,638.0,0.227,-0.241,-0.618,-0.713
5419768,8088.0,5788.0,602.0,0.21,-0.213,-0.63,-0.717
5419784,8576.0,9026.0,1162.0,0.192,-0.185,-0.643,-0.718
5419801,8316.0,9482.0,1682.0,0.175,-0.157,-0.655,-0.718
5419817,7258.0,7224.0,842.0,0.158,-0.128,-0.666,-0.717
5419833,6748.0,7474.0,1272.0,0.141,-0.1,-0.675,-0.717
5419849,4586.0,9188.0,1242.0,0.124,-0.073,-0.684,-0.715
5419865,4782.0,8926.0,1050.0,0.107,-0.048,-0.69,-0.714
5419891,5124.0,10094.0,764.0,0.09,-0.025,-0.694,-0.713
5419907,5980.0,10266.0,832.0,0.073,-0.004,-0.696,-0.714
5419923,4872.0,9666.0,350.0,0.053,0.018,-0.696,-0.716
5419939,2508.0,8992.0,-326.0,0.032,0.041,-0.694,-0.718
5419955,1716.0,8886.0,-1002.0,0.012,0.061,-0.691,-0.721
5419981,1582.0,6892.0,-948.0,0.006,-0.079,0.686,0.723
5419997,2396.0,5928.0,-878.0,0.022,-0.096,0.684,0.723
5420013,1514.0,6032.0,-1312.0,0.038,-0.112,0.684,0.72
5420029,-106.0,4558.0,-1314.0,0.055,-0.127,0.686,0.714
5420045,-1228.0,4928.0,-720.0,0.07,-0.141,0.692,0.705
5420062,-1948.0,4682.0,-556.0,0.085,-0.153,0.699,0.693
5420079,-1508.0,4002.0,-522.0,0.099,-0.161,0.709,0.68
5420105,-1274.0,4868.0,-1182.0,0.113,-0.168,0.718,0.665
5420122,-1904.0,6890.0,-1932.0,0.128,-0.175,0.726,0.652
5420139,-1580.0,6578.0,-2034.0,0.142,-0.181,0.729,0.644
5420156,-1116.0,5766.0,-1370.0,0.155,-0.186,0.728,0.641
5420173,-732.0,3640.0,-250.0,0.166,-0.189,0.725,0.641
5420190,-656.0,1862.0,396.0,0.174,-0.192,0.723,0.641
5420207,-760.0,338.0,764.0,0.18,-0.193,0.721,0.641
5420224,-716.0,-2826.0,1174.0,0.181,-0.193,0.719,0.643
5420241,-940.0,-3976.0,2158.0,0.179,-0.191,0.717,0.646
5420258,-870.0,-4420.0,3088.0,0.171,-0.186,0.717,0.649
5420275,-854.0,-3822.0,3110.0,0.158,-0.179,0.719,0.653
5420292,-1196.0,246.0,2654.0,0.14,-0.171,0.721,0.657
5420308,-1432.0,3328.0,1184.0,0.119,-0.161,0.722,0.662
5420325,-162.0,1180.0,-54.0,0.094,-0.148,0.721,0.671
5420352,824.0,2912.0,-188.0,0.067,-0.132,0.718,0.68
5420368,1180.0,6790.0,-624.0,0.04,-0.113,0.715,0.689
5420385,2390.0,7744.0,-2116.0,0.012,-0.091,0.712,0.697
5420402,2710.0,7866.0,-2428.0,0.015,0.066,-0.708,-0.703
5420419,3524.0,8554.0,-1996.0,0.038,0.04,-0.704,-0.708
5420436,3978.0,9764.0,-1468.0,0.061,0.012,-0.701,-0.71
5420453,4090.0,9334.0,-716.0,0.084,-0.016,-0.699,-0.71
5420470,4402.0,10438.0,400.0,0.106,-0.044,-0.696,-0.709
5420487,5110.0,10820.0,1334.0,0.128,-0.072,-0.688,-0.71
5420504,5452.0,10694.0,1700.0,0.149,-0.099,-0.678,-0.713
5420521,5990.0,9954.0,2462.0,0.167,-0.128,-0.666,-0.715
5420538,7134.0,10496.0,1396.0,0.185,-0.156,-0.655,-0.716
5420555,7608.0,10942.0,640.0,0.202,-0.183,-0.644,-0.715
5420582,7008.0,11186.0,-176.0,0.218,-0.211,-0.631,-0.714
5420598,6528.0,10306.0,-58.0,0.231,-0.239,-0.617,-0.713
5420615,6452.0,9254.0,-320.0,0.242,-0.268,-0.602,-0.712
5420631,7828.0,7924.0,818.0,0.252,-0.299,-0.588,-0.708
5420647,7950.0,7386.0,1516.0,0.262,-0.326,-0.575,-0.703
5420663,8390.0,6722.0,1080.0,0.274,-0.35,-0.564,-0.696
5420679,6808.0,8684.0,946.0,0.285,-0.373,-0.554,-0.687
5420705,7268.0,7608.0,1356.0,0.295,-0.394,-0.546,-0.678
5420721,8190.0,7690.0,2360.0,0.306,-0.412,-0.539,-0.668
5420738,8044.0,9456.0,2534.0,0.317,-0.423,-0.537,-0.657
5420754,7294.0,10274.0,3024.0,0.328,-0.429,-0.537,-0.648
5420771,6730.0,10922.0,3258.0,0.336,-0.429,-0.539,-0.642
5420788,5470.0,11276.0,2166.0,0.34,-0.424,-0.544,-0.639
5420805,3866.0,12808.0,914.0,0.339,-0.418,-0.549,-0.64
5420822,4158.0,11572.0,1794.0,0.334,-0.411,-0.554,-0.642
5420839,5136.0,10818.0,3032.0,0.33,-0.4,-0.561,-0.645
5420856,4968.0,10970.0,3254.0,0.327,-0.383,-0.571,-0.648
5420883,4440.0,12694.0,2254.0,0.321,-0.364,-0.583,-0.652
5420900,6180.0,14058.0,1846.0,0.309,-0.344,-0.593,-0.659
5420917,7596.0,12382.0,2220.0,0.292,-0.322,-0.601,-0.671
5420934,7658.0,7422.0,1872.0,0.272,-0.299,-0.608,-0.683
5420951,7122.0,8456.0,1984.0,0.253,-0.274,-0.616,-0.694
5420967,7480.0,10500.0,2278.0,0.234,-0.249,-0.624,-0.703
5420983,8646.0,10806.0,1494.0,0.214,-0.223,-0.631,-0.712
5421000,12124.0,10298.0,410.0,0.191,-0.197,-0.634,-0.723
5421017,10482.0,4134.0,48.0,0.165,-0.169,-0.636,-0.734
5421034,9166.0,4648.0,1112.0,0.143,-0.138,-0.641,-0.741
5421060,5024.0,6346.0,1140.0,0.126,-0.108,-0.65,-0.742
5421076,5126.0,9070.0,-826.0,0.11,-0.08,-0.658,-0.74
5421092,6814.0,8980.0,-570.0,0.093,-0.056,-0.663,-0.74
5421109,6116.0,5842.0,642.0,0.075,-0.031,-0.668,-0.74
5421126,2732.0,8548.0,1050.0,0.057,-0.005,-0.675,-0.736
5421142,1408.0,8230.0,1076.0,0.042,0.019,-0.68,-0.732
5421158,1416.0,9438.0,896.0,0.026,0.041,-0.683,-0.729
5421184,1948.0,9982.0,924.0,0.011,0.061,-0.685,-0.726
5421200,3110.0,9492.0,234.0,0.004,-0.08,0.684,0.725
5421217,1196.0,8874.0,-350.0,0.02,-0.099,0.683,0.723
5421233,460.0,7838.0,-936.0,0.036,-0.117,0.681,0.722
5421249,-160.0,6034.0,-812.0,0.051,-0.133,0.679,0.72
5421265,-352.0,6294.0,-1170.0,0.067,-0.148,0.677,0.718
5421282,-354.0,6700.0,-528.0,0.082,-0.161,0.677,0.713
5421299,-250.0,6136.0,-564.0,0.097,-0.173,0.678,0.708
5421316,-1152.0,5796.0,-296.0,0.113,-0.184,0.68,0.7
5421343,-1948.0,4718.0,-334.0,0.127,-0.195,0.683,0.692
5421359,-2658.0,3618.0,-422.0,0.141,-0.204,0.685,0.685
5421375,-2506.0,1806.0,-460.0,0.153,-0.212,0.685,0.68
5421392,-2150.0,-738.0,-412.0,0.162,-0.218,0.684,0.678
5421409,-1808.0,-3862.0,170.0,0.168,-0.221,0.681,0.678
5421425,-1046.0,-5396.0,1032.0,0.17,-0.221,0.679,0.68
5421441,588.0,-6114.0,1922.0,0.166,-0.217,0.679,0.682
5421458,940.0,-5196.0,2140.0,0.158,-0.208,0.682,0.683
5421484,1566.0,-3326.0,1984.0,0.143,-0.197,0.689,0.682
5421501,606.0,1152.0,1428.0,0.124,-0.183,0.698,0.681
5421517,-320.0,6460.0,714.0,0.102,-0.17,0.705,0.682
5421534,600.0,6124.0,-414.0,0.077,-0.154,0.706,0.687
5421550,2078.0,3932.0,-598.0,0.051,-0.135,0.702,0.698
5421567,1012.0,5870.0,-126.0,0.027,-0.114,0.697,0.708
5421583,1720.0,7870.0,-460.0,0.002,-0.091,0.692,0.716
5421600,2764.0,5344.0,-544.0,0.021,0.064,-0.689,-0.722
5421617,4152.0,7534.0,-456.0,0.045,0.035,-0.689,-0.723
5421644,4724.0,10188.0,-502.0,0.068,0.005,-0.689,-0.721
5421660,5100.0,8726.0,-18.0,0.089,-0.026,-0.69,-0.718
5421677,6268.0,10676.0,-364.0,0.109,-0.055,-0.69,-0.714
5421693,6598.0,12600.0,-262.0,0.131,-0.085,-0.686,-0.711
5421709,6356.0,12474.0,166.0,0.152,-0.114,-0.678,-0.71
5421725,6524.0,11088.0,688.0,0.172,-0.142,-0.666,-0.712
5421741,6260.0,11210.0,668.0,0.189,-0.17,-0.654,-0.713
5421767,5444.0,10808.0,320.0,0.205,-0.198,-0.641,-0.713
5421783,5456.0,9860.0,278.0,0.219,-0.228,-0.628,-0.711
5421799,6202.0,9046.0,720.0,0.232,-0.259,-0.616,-0.707
5421816,6886.0,9996.0,1526.0,0.244,-0.29,-0.604,-0.701
5421833,7220.0,11520.0,1780.0,0.255,-0.318,-0.593,-0.695
5421849,6844.0,9304.0,1764.0,0.265,-0.342,-0.582,-0.689
5421866,6398.0,9682.0,2248.0,0.274,-0.363,-0.573,-0.682
5421893,5670.0,11510.0,2190.0,0.281,-0.381,-0.565,-0.675
5421909,6324.0,10548.0,3002.0,0.287,-0.396,-0.56,-0.669
5421925,7208.0,9774.0,4174.0,0.295,-0.403,-0.559,-0.662
5421941,7080.0,10450.0,3612.0,0.303,-0.402,-0.562,-0.657
5421957,5126.0,10818.0,1830.0,0.307,-0.396,-0.567,-0.654
5421973,3776.0,13244.0,1502.0,0.305,-0.389,-0.571,-0.655
5421989,3476.0,13882.0,1428.0,0.299,-0.383,-0.573,-0.66
5422015,4266.0,11546.0,2028.0,0.289,-0.375,-0.576,-0.666
5422031,5078.0,8406.0,2378.0,0.281,-0.363,-0.582,-0.672
5422047,4348.0,9298.0,1942.0,0.273,-0.345,-0.592,-0.676
5422063,4408.0,11162.0,868.0,0.265,-0.326,-0.603,-0.679
5422079,6422.0,8514.0,2636.0,0.255,-0.305,-0.614,-0.682
5422095,5572.0,11136.0,1738.0,0.246,-0.278,-0.63,-0.683
5422121,6090.0,12634.0,1162.0,0.232,-0.252,-0.642,-0.686
5422138,6610.0,10554.0,1150.0,0.215,-0.227,-0.651,-0.692
5422155,6306.0,8120.0,1820.0,0.196,-0.202,-0.658,-0.699
5422172,5940.0,8100.0,2474.0,0.178,-0.176,-0.666,-0.703
5422189,6614.0,8042.0,2688.0,0.163,-0.15,-0.675,-0.704
5422206,8518.0,6930.0,1604.0,0.148,-0.124,-0.683,-0.704
5422223,7270.0,7568.0,602.0,0.131,-0.096,-0.69,-0.705
5422240,5240.0,7814.0,356.0,0.115,-0.069,-0.695,-0.706
5422257,4574.0,9206.0,184.0,0.1,-0.045,-0.7,-0.706
5422273,5320.0,9278.0,-274.0,0.085,-0.024,-0.702,-0.707
5422300,6394.0,8288.0,-696.0,0.07,-0.003,-0.704,-0.707
5422316,4944.0,7896.0,-1034.0,0.054,0.019,-0.707,-0.705
5422332,1956.0,8252.0,-2260.0,0.038,0.041,-0.71,-0.702
5422349,722.0,9936.0,-2246.0,0.022,0.061,-0.71,-0.702
5422365,2000.0,7778.0,-1872.0,0.009,0.077,-0.706,-0.704
5422381,608.0,7176.0,-1342.0,0.004,-0.094,0.702,0.706
5422397,-264.0,7818.0,-966.0,0.015,-0.109,0.698,0.707
5422423,-388.0,7954.0,-554.0,0.026,-0.121,0.695,0.708
5422439,430.0,7472.0,-1178.0,0.038,-0.133,0.693,0.707
5422455,-350.0,7696.0,-1284.0,0.052,-0.145,0.693,0.705
5422471,-652.0,6326.0,-1308.0,0.066,-0.155,0.692,0.702
5422487,-460.0,5700.0,-766.0,0.081,-0.165,0.691,0.699
5422503,-1186.0,6292.0,-234.0,0.097,-0.174,0.692,0.694
5422520,-1080.0,5552.0,-66.0,0.112,-0.183,0.693,0.689
5422537,-1666.0,4798.0,68.0,0.127,-0.191,0.694,0.682
5422563,-1496.0,2980.0,84.0,0.14,-0.198,0.694,0.678
5422579,-1710.0,962.0,448.0,0.152,-0.205,0.693,0.675
5422595,-1898.0,-900.0,558.0,0.16,-0.21,0.69,0.674
5422611,-2118.0,-3512.0,698.0,0.165,-0.213,0.685,0.677
5422627,-1750.0,-5418.0,1646.0,0.165,-0.213,0.681,0.681
5422653,-1354.0,-5210.0,2242.0,0.16,-0.21,0.679,0.685
5422669,-944.0,-2296.0,1720.0,0.15,-0.204,0.681,0.687
5422685,-1272.0,-434.0,1180.0,0.134,-0.194,0.684,0.69
5422701,-2502.0,2494.0,1002.0,0.116,-0.183,0.687,0.694
5422717,-2236.0,4532.0,482.0,0.097,-0.172,0.689,0.698
5422733,-1840.0,3968.0,-482.0,0.077,-0.159,0.688,0.704
5422750,-754.0,5014.0,-816.0,0.057,-0.143,0.686,0.711
5422777,-1006.0,6840.0,-40.0,0.035,-0.123,0.684,0.718
5422794,786.0,8620.0,-84.0,0.014,-0.1,0.683,0.724
5422810,2070.0,9354.0,-978.0,0.007,0.076,-0.68,-0.729
5422826,2834.0,9472.0,502.0,0.024,0.051,-0.677,-0.733
5422842,4648.0,7648.0,838.0,0.041,0.025,-0.677,-0.734
5422858,2586.0,11262.0,274.0,0.059,-0.0,-0.68,-0.731
5422874,3446.0,10088.0,134.0,0.079,-0.028,-0.68,-0.729
5422900,5132.0,8786.0,822.0,0.098,-0.056,-0.677,-0.727
5422916,3962.0,8690.0,660.0,0.114,-0.082,-0.675,-0.724
5422932,3840.0,9172.0,472.0,0.129,-0.109,-0.672,-0.721
5422949,4528.0,9622.0,626.0,0.142,-0.137,-0.666,-0.719
5422966,5704.0,10222.0,1228.0,0.155,-0.164,-0.658,-0.718
5422983,6702.0,10534.0,1034.0,0.168,-0.191,-0.648,-0.718
5423000,6688.0,9584.0,884.0,0.18,-0.218,-0.634,-0.72
5423017,5694.0,9570.0,1230.0,0.191,-0.244,-0.62,-0.721
5423033,7118.0,8898.0,1720.0,0.202,-0.273,-0.605,-0.721
5423060,7610.0,7544.0,1618.0,0.213,-0.3,-0.591,-0.718
5423076,6690.0,8770.0,1140.0,0.224,-0.326,-0.579,-0.713
5423092,6242.0,9132.0,1868.0,0.235,-0.351,-0.567,-0.707
5423108,6466.0,9052.0,1672.0,0.247,-0.371,-0.557,-0.7
5423124,4818.0,11444.0,1902.0,0.261,-0.387,-0.552,-0.691
5423143,4728.0,12858.0,2744.0,0.272,-0.401,-0.548,-0.682
5423159,5552.0,12104.0,3348.0,0.28,-0.411,-0.546,-0.675
5423175,7246.0,10622.0,3800.0,0.286,-0.413,-0.547,-0.67
5423201,8064.0,10110.0,3662.0,0.29,-0.405,-0.553,-0.668
5423218,6194.0,13402.0,2476.0,0.291,-0.388,-0.563,-0.669
5423235,4536.0,15140.0,944.0,0.286,-0.368,-0.573,-0.674
5423252,4088.0,13872.0,400.0,0.275,-0.348,-0.583,-0.681
5423269,4326.0,11276.0,654.0,0.26,-0.327,-0.592,-0.689
5423285,4878.0,8834.0,1964.0,0.245,-0.304,-0.603,-0.696
5423301,4890.0,7764.0,2252.0,0.23,-0.277,-0.617,-0.7
5423318,2984.0,9498.0,1300.0,0.216,-0.248,-0.631,-0.703
5423344,3186.0,10062.0,1136.0,0.2,-0.222,-0.643,-0.705
5423360,5938.0,6752.0,2744.0,0.185,-0.198,-0.654,-0.707
5423376,7976.0,6042.0,3006.0,0.171,-0.172,-0.667,-0.705
5423392,6216.0,7436.0,1648.0,0.157,-0.143,-0.681,-0.701
5423408,5542.0,9228.0,1326.0,0.143,-0.115,-0.693,-0.697
5423424,4178.0,9964.0,1658.0,0.128,-0.089,-0.703,-0.694
5423440,5170.0,9826.0,2102.0,0.114,-0.064,-0.71,-0.692
5423467,5566.0,9980.0,1786.0,0.099,-0.039,-0.717,-0.689
5423484,5930.0,8624.0,842.0,0.084,-0.013,-0.723,-0.686
5423500,1966.0,10730.0,-772.0,0.067,0.013,-0.726,-0.684
5423517,752.0,12474.0,-1758.0,0.049,0.036,-0.724,-0.687
5423533,1076.0,8822.0,-1502.0,0.032,0.055,-0.718,-0.693
5423550,1992.0,7536.0,-1306.0,0.018,0.071,-0.713,-0.697
5423566,2444.0,6726.0,-2272.0,0.005,0.086,-0.71,-0.699
5423583,1586.0,6584.0,-3132.0,0.007,-0.101,0.71,0.697
5423599,322.0,7134.0,-3056.0,0.019,-0.114,0.71,0.695
5423626,-402.0,6066.0,-2352.0,0.032,-0.124,0.709,0.693
5423642,56.0,4800.0,-1346.0,0.044,-0.131,0.711,0.689
5423658,-414.0,6208.0,-1310.0,0.057,-0.139,0.716,0.681
5423675,-996.0,7394.0,-1408.0,0.072,-0.147,0.723,0.672
5423691,-1292.0,8678.0,-1642.0,0.087,-0.154,0.726,0.664
5423707,-1840.0,7924.0,-1114.0,0.103,-0.162,0.727,0.659
5423724,-1560.0,6964.0,-758.0,0.12,-0.171,0.726,0.655
5423751,-1582.0,5562.0,-720.0,0.136,-0.179,0.724,0.652
5423767,-2122.0,4752.0,-578.0,0.152,-0.186,0.722,0.649
5423784,-1270.0,3236.0,-626.0,0.166,-0.192,0.72,0.646
5423801,-1422.0,1186.0,-320.0,0.179,-0.196,0.719,0.643
5423817,-1600.0,-46.0,164.0,0.191,-0.199,0.719,0.638
5423834,-1828.0,-2110.0,1026.0,0.198,-0.199,0.721,0.633
5423850,-1728.0,-2794.0,1308.0,0.202,-0.197,0.725,0.628
5423866,-1706.0,-1826.0,1692.0,0.201,-0.194,0.728,0.626
5423892,-2026.0,-1616.0,2326.0,0.194,-0.19,0.729,0.628
5423908,-1544.0,-2172.0,2816.0,0.18,-0.184,0.729,0.634
5423924,-1454.0,-1414.0,2754.0,0.161,-0.175,0.731,0.64
5423941,-2704.0,1446.0,1900.0,0.139,-0.165,0.733,0.645
5423957,-1236.0,3248.0,342.0,0.114,-0.154,0.735,0.65
5423974,-954.0,2570.0,-706.0,0.088,-0.142,0.734,0.658
5423991,48.0,4688.0,-430.0,0.062,-0.125,0.733,0.666
5424008,110.0,6144.0,-354.0,0.035,-0.106,0.732,0.672
5424025,2356.0,11040.0,-1032.0,0.008,-0.085,0.729,0.679
5424051,3314.0,9576.0,-1208.0,0.017,0.064,-0.722,-0.688
5424067,1872.0,11752.0,-480.0,0.04,0.042,-0.711,-0.701
5424083,2698.0,9928.0,826.0,0.062,0.018,-0.699,-0.713
5424099,4608.0,10486.0,900.0,0.085,-0.007,-0.687,-0.721
5424115,5100.0,8840.0,208.0,0.107,-0.031,-0.678,-0.727
5424131,4836.0,10574.0,-546.0,0.128,-0.055,-0.669,-0.73
5424157,4732.0,10656.0,-1024.0,0.144,-0.08,-0.66,-0.733
5424173,4800.0,9660.0,-590.0,0.159,-0.108,-0.649,-0.736
5424190,5692.0,9982.0,142.0,0.172,-0.137,-0.639,-0.737
5424206,5098.0,10612.0,348.0,0.184,-0.165,-0.63,-0.736
5424222,5488.0,10428.0,644.0,0.195,-0.194,-0.619,-0.736
5424238,5272.0,9134.0,1622.0,0.203,-0.223,-0.607,-0.735
5424254,5692.0,10018.0,1712.0,0.212,-0.252,-0.595,-0.733
5424280,6192.0,8740.0,2132.0,0.219,-0.279,-0.584,-0.73
5424297,6268.0,8174.0,3004.0,0.226,-0.305,-0.573,-0.726
5424314,6658.0,8540.0,3792.0,0.237,-0.327,-0.565,-0.72
5424331,5652.0,10026.0,3236.0,0.248,-0.344,-0.558,-0.713
5424348,4624.0,10546.0,2368.0,0.258,-0.358,-0.553,-0.707
5424365,4502.0,11654.0,2450.0,0.265,-0.371,-0.548,-0.701
5424382,5720.0,10614.0,3236.0,0.269,-0.38,-0.545,-0.698
5424399,6024.0,10044.0,3204.0,0.271,-0.382,-0.544,-0.696
5424416,5660.0,9570.0,2764.0,0.272,-0.379,-0.547,-0.695
5424433,3084.0,11604.0,1626.0,0.271,-0.374,-0.551,-0.696
5424449,2014.0,11762.0,1350.0,0.268,-0.368,-0.554,-0.697
5424476,5924.0,6020.0,2752.0,0.265,-0.363,-0.556,-0.699
5424492,3890.0,8840.0,4496.0,0.269,-0.347,-0.569,-0.695
5424508,3468.0,16256.0,1384.0,0.265,-0.327,-0.582,-0.695
5424524,4732.0,13146.0,2410.0,0.256,-0.308,-0.593,-0.698
5424540,6174.0,10290.0,2722.0,0.243,-0.287,-0.605,-0.702
5424556,6400.0,9624.0,2680.0,0.229,-0.262,-0.617,-0.706
5424582,5968.0,9276.0,3404.0,0.217,-0.235,-0.631,-0.707
5424598,5378.0,12462.0,2430.0,0.204,-0.205,-0.645,-0.707
5424615,4460.0,11500.0,810.0,0.187,-0.179,-0.654,-0.711
5424631,4174.0,7048.0,1112.0,0.166,-0.153,-0.659,-0.717
5424648,5038.0,6916.0,3228.0,0.149,-0.128,-0.667,-0.719
5424665,5024.0,8578.0,2262.0,0.135,-0.102,-0.676,-0.717
5424682,6012.0,9658.0,276.0,0.12,-0.079,-0.682,-0.717
5424699,6162.0,10198.0,590.0,0.103,-0.057,-0.686,-0.718
5424715,5896.0,7426.0,318.0,0.084,-0.034,-0.69,-0.718
5424732,4384.0,8678.0,88.0,0.065,-0.011,-0.694,-0.717
5424759,2648.0,9004.0,-136.0,0.047,0.01,-0.695,-0.718
5424775,2610.0,8902.0,-448.0,0.03,0.029,-0.695,-0.718
5424791,2130.0,7384.0,-318.0,0.015,0.046,-0.696,-0.717
5424807,1802.0,7856.0,-1320.0,0.001,-0.063,0.696,0.715
5424823,220.0,6806.0,-1470.0,0.018,-0.079,0.695,0.714
5424849,-172.0,7758.0,-1366.0,0.033,-0.094,0.693,0.714
5424865,-140.0,6474.0,-1282.0,0.047,-0.107,0.691,0.713
5424882,246.0,5256.0,-688.0,0.06,-0.118,0.69,0.711
5424898,-108.0,6632.0,-862.0,0.073,-0.129,0.69,0.708
5424915,-542.0,5824.0,-690.0,0.087,-0.139,0.69,0.704
5424932,-950.0,5700.0,-346.0,0.101,-0.15,0.691,0.7
5424949,-1774.0,6530.0,-104.0,0.115,-0.159,0.693,0.694
5424966,-1990.0,6194.0,34.0,0.127,-0.167,0.694,0.689
5424982,-2086.0,5702.0,28.0,0.139,-0.173,0.695,0.684
5424999,-2100.0,5588.0,80.0,0.15,-0.179,0.696,0.679
5425026,-2104.0,5308.0,34.0,0.16,-0.183,0.698,0.674
5425042,-2048.0,4918.0,-422.0,0.17,-0.186,0.699,0.669
5425058,-2522.0,4474.0,-32.0,0.179,-0.189,0.699,0.666
5425074,-2182.0,3352.0,146.0,0.186,-0.191,0.699,0.664
5425090,-1732.0,1716.0,330.0,0.191,-0.192,0.7,0.661
5425106,-2148.0,-290.0,382.0,0.194,-0.193,0.7,0.659
5425122,-2172.0,-2344.0,496.0,0.193,-0.194,0.701,0.659
5425148,-2278.0,-4212.0,864.0,0.188,-0.194,0.7,0.661
5425164,-2438.0,-4262.0,2144.0,0.178,-0.191,0.7,0.665
5425180,-2738.0,-3096.0,2074.0,0.162,-0.185,0.701,0.669
5425196,-2020.0,-408.0,748.0,0.142,-0.177,0.704,0.673
5425213,-2080.0,2698.0,-320.0,0.12,-0.167,0.706,0.677
5425230,-1084.0,4328.0,-1340.0,0.098,-0.156,0.709,0.681
5425247,-1264.0,4624.0,-2114.0,0.074,-0.142,0.709,0.686
5425264,-566.0,4206.0,-2082.0,0.05,-0.123,0.709,0.693
5425290,-250.0,5306.0,-732.0,0.026,-0.1,0.71,0.697
5425306,1546.0,8736.0,-446.0,0.001,-0.073,0.713,0.697
5425323,2614.0,8836.0,-770.0,0.022,0.047,-0.713,-0.699
5425340,3316.0,11154.0,130.0,0.045,0.019,-0.71,-0.703
5425356,3314.0,8878.0,1604.0,0.066,-0.009,-0.703,-0.708
5425373,3730.0,9776.0,1608.0,0.088,-0.037,-0.696,-0.712
5425389,4142.0,9702.0,812.0,0.11,-0.067,-0.687,-0.715
5425406,5946.0,10002.0,1548.0,0.132,-0.099,-0.677,-0.718
5425423,8034.0,8946.0,1498.0,0.153,-0.132,-0.665,-0.719
5425440,8012.0,10716.0,736.0,0.173,-0.165,-0.653,-0.719
5425466,8912.0,10916.0,804.0,0.19,-0.198,-0.638,-0.72
5425482,8992.0,10764.0,890.0,0.205,-0.232,-0.622,-0.719
5425499,9200.0,9584.0,1208.0,0.218,-0.265,-0.605,-0.718
5425515,8574.0,10134.0,752.0,0.228,-0.297,-0.588,-0.717
5425532,6780.0,10502.0,1046.0,0.237,-0.328,-0.571,-0.715
5425548,6256.0,9002.0,6.0,0.246,-0.357,-0.555,-0.711
5425565,6762.0,8000.0,1630.0,0.255,-0.382,-0.54,-0.705
5425592,6356.0,8114.0,1462.0,0.266,-0.406,-0.528,-0.697
5425608,6022.0,8438.0,2130.0,0.279,-0.427,-0.517,-0.687
5425624,6438.0,8830.0,2498.0,0.293,-0.444,-0.51,-0.676
5425640,6904.0,10178.0,3124.0,0.308,-0.455,-0.506,-0.665
5425657,6916.0,10784.0,3400.0,0.323,-0.46,-0.506,-0.654
5425673,6618.0,10760.0,3310.0,0.336,-0.457,-0.511,-0.646
5425690,6184.0,12044.0,2158.0,0.345,-0.448,-0.519,-0.641
5425706,5168.0,13654.0,1608.0,0.347,-0.435,-0.527,-0.642
5425723,5188.0,13128.0,1736.0,0.344,-0.421,-0.536,-0.646
5425750,5458.0,10508.0,1570.0,0.338,-0.402,-0.548,-0.651
5425767,4558.0,11580.0,1308.0,0.33,-0.381,-0.561,-0.656
5425783,5094.0,12408.0,1556.0,0.317,-0.359,-0.575,-0.663
5425800,6178.0,12988.0,1864.0,0.302,-0.335,-0.589,-0.67
5425817,6802.0,10750.0,1978.0,0.285,-0.308,-0.603,-0.678
5425833,7494.0,9802.0,2054.0,0.266,-0.28,-0.617,-0.686
5425850,7224.0,9474.0,1684.0,0.244,-0.251,-0.63,-0.693
5425866,7902.0,10778.0,936.0,0.222,-0.222,-0.644,-0.698
5425883,8204.0,8686.0,792.0,0.199,-0.192,-0.655,-0.703
5425909,8574.0,6838.0,684.0,0.176,-0.164,-0.666,-0.707
5425926,7236.0,6072.0,1604.0,0.153,-0.136,-0.675,-0.709
5425942,7734.0,6666.0,1704.0,0.134,-0.108,-0.685,-0.708
5425958,6398.0,6482.0,1906.0,0.116,-0.08,-0.696,-0.704
5425975,5818.0,7908.0,924.0,0.099,-0.053,-0.707,-0.699
5425991,3880.0,10026.0,438.0,0.081,-0.026,-0.715,-0.694
5426007,3250.0,8896.0,742.0,0.063,-0.002,-0.721,-0.69
5426033,3292.0,8938.0,558.0,0.045,0.02,-0.724,-0.688
5426049,2902.0,9096.0,-178.0,0.026,0.042,-0.725,-0.687
5426065,1866.0,8272.0,-1116.0,0.006,0.063,-0.722,-0.689
5426082,722.0,8692.0,-1620.0,0.014,-0.083,0.715,0.694
5426098,206.0,7810.0,-1586.0,0.032,-0.1,0.707,0.699
5426115,1014.0,6428.0,-1554.0,0.048,-0.115,0.7,0.704
5426131,1502.0,4658.0,-1494.0,0.065,-0.13,0.694,0.705
5426148,-234.0,4716.0,-1418.0,0.081,-0.144,0.692,0.703
5426175,-1324.0,5072.0,-916.0,0.094,-0.156,0.691,0.699
5426191,-1814.0,4868.0,-178.0,0.106,-0.166,0.692,0.694
5426207,-1828.0,5354.0,156.0,0.116,-0.174,0.695,0.688
5426223,-2038.0,6882.0,22.0,0.126,-0.182,0.698,0.681
5426239,-2048.0,7402.0,-144.0,0.137,-0.19,0.701,0.674
5426256,-2268.0,6716.0,-746.0,0.148,-0.199,0.701,0.668
5426273,-2636.0,6340.0,-1360.0,0.16,-0.207,0.7,0.665
5426290,-2716.0,4942.0,-1574.0,0.17,-0.215,0.696,0.664
5426316,-2432.0,828.0,-1344.0,0.179,-0.221,0.69,0.665
5426333,-2536.0,-2252.0,-558.0,0.187,-0.225,0.684,0.668
5426350,-2086.0,-4078.0,656.0,0.191,-0.227,0.681,0.67
5426366,-1972.0,-4406.0,1628.0,0.19,-0.224,0.681,0.67
5426382,-1510.0,-3332.0,1900.0,0.186,-0.219,0.686,0.669
5426399,-1770.0,-688.0,1792.0,0.178,-0.212,0.691,0.668
5426416,-1884.0,1998.0,1424.0,0.165,-0.205,0.694,0.67
5426433,-2292.0,2880.0,1010.0,0.148,-0.196,0.695,0.676
5426449,-2734.0,4372.0,204.0,0.129,-0.187,0.694,0.683
5426476,-2564.0,4706.0,-762.0,0.11,-0.176,0.691,0.692
5426492,-2166.0,5936.0,-1448.0,0.091,-0.163,0.688,0.701
5426508,330.0,3980.0,-1758.0,0.071,-0.146,0.688,0.708
5426524,172.0,5288.0,-1422.0,0.05,-0.124,0.69,0.711
5426540,1644.0,6990.0,-866.0,0.027,-0.098,0.696,0.711
5426556,2780.0,7724.0,-1028.0,0.001,-0.071,0.706,0.705
5426573,2098.0,9546.0,-1268.0,0.024,0.044,-0.713,-0.699
5426600,2474.0,9946.0,-560.0,0.048,0.017,-0.716,-0.696
5426616,3052.0,9542.0,746.0,0.072,-0.012,-0.715,-0.695
5426633,4030.0,8970.0,690.0,0.095,-0.038,-0.712,-0.695
5426650,3550.0,8142.0,24.0,0.117,-0.063,-0.708,-0.694
5426667,4522.0,8384.0,-230.0,0.136,-0.089,-0.701,-0.695
5426684,4546.0,8640.0,418.0,0.153,-0.116,-0.692,-0.696
5426700,5736.0,8828.0,1052.0,0.169,-0.144,-0.682,-0.696
5426716,6960.0,8090.0,1740.0,0.188,-0.174,-0.672,-0.695
5426732,7952.0,8288.0,2684.0,0.209,-0.203,-0.661,-0.691
5426759,7950.0,8954.0,3090.0,0.232,-0.23,-0.65,-0.686
5426775,6858.0,9558.0,3842.0,0.255,-0.256,-0.638,-0.68
5426791,6740.0,10260.0,4720.0,0.279,-0.282,-0.626,-0.672
5426807,8724.0,10902.0,3896.0,0.305,-0.304,-0.613,-0.662
5426823,9624.0,11628.0,514.0,0.329,-0.323,-0.602,-0.651
5426840,8146.0,12788.0,-2412.0,0.347,-0.34,-0.592,-0.643
5426856,5466.0,14510.0,-3390.0,0.356,-0.36,-0.581,-0.637
5426883,5800.0,13418.0,-2072.0,0.357,-0.383,-0.566,-0.637
5426900,7266.0,10118.0,44.0,0.355,-0.403,-0.552,-0.638
5426916,7382.0,7382.0,692.0,0.356,-0.411,-0.545,-0.638
5426933,5634.0,7194.0,-334.0,0.359,-0.408,-0.545,-0.638
5426949,4268.0,8528.0,-1050.0,0.362,-0.402,-0.548,-0.638
5426966,4522.0,8826.0,-1056.0,0.362,-0.397,-0.552,-0.638
5426983,5402.0,7636.0,-336.0,0.36,-0.39,-0.558,-0.638
5427000,5290.0,9566.0,-338.0,0.357,-0.381,-0.567,-0.637
5427016,6226.0,10642.0,538.0,0.353,-0.369,-0.578,-0.637
5427042,7038.0,11234.0,788.0,0.347,-0.354,-0.59,-0.637
5427058,6228.0,11842.0,776.0,0.336,-0.335,-0.603,-0.641
5427074,6600.0,11322.0,1382.0,0.322,-0.313,-0.616,-0.647
5427090,5024.0,11614.0,1998.0,0.306,-0.288,-0.63,-0.653
5427106,5556.0,11854.0,2794.0,0.289,-0.264,-0.643,-0.659
5427122,6264.0,11630.0,2980.0,0.269,-0.238,-0.654,-0.666
5427139,7074.0,9586.0,2508.0,0.248,-0.213,-0.663,-0.674
5427166,6778.0,8640.0,1952.0,0.225,-0.186,-0.669,-0.683
5427184,5800.0,8412.0,2496.0,0.201,-0.158,-0.675,-0.692
5427201,4930.0,10466.0,2918.0,0.176,-0.132,-0.677,-0.702
5427217,7616.0,8254.0,2526.0,0.154,-0.108,-0.676,-0.712
5427234,7388.0,5838.0,2270.0,0.135,-0.081,-0.676,-0.719
5427250,7080.0,5514.0,1436.0,0.118,-0.054,-0.678,-0.724
5427266,6026.0,7474.0,-14.0,0.101,-0.025,-0.679,-0.726
5427282,3122.0,8144.0,-1120.0,0.084,0.002,-0.679,-0.729
5427308,2644.0,7908.0,-590.0,0.069,0.025,-0.677,-0.732
5427324,2158.0,7396.0,-166.0,0.055,0.046,-0.676,-0.734
5427340,2638.0,7786.0,-714.0,0.042,0.065,-0.676,-0.733
5427356,1824.0,9452.0,-1412.0,0.027,0.086,-0.675,-0.733
5427372,-188.0,9670.0,-1608.0,0.011,0.106,-0.67,-0.735
5427388,-1340.0,8866.0,-890.0,0.005,-0.124,0.663,0.738
5427414,-1028.0,6666.0,-404.0,0.018,-0.138,0.656,0.742
5427430,-684.0,5920.0,-212.0,0.03,-0.149,0.65,0.745
5427446,-44.0,6558.0,-882.0,0.042,-0.16,0.645,0.746
5427462,-966.0,5828.0,-792.0,0.055,-0.17,0.641,0.747
5427478,-2104.0,5384.0,-110.0,0.067,-0.178,0.639,0.746
5427494,-2042.0,5706.0,1108.0,0.078,-0.183,0.639,0.743
5427520,-800.0,6688.0,908.0,0.089,-0.187,0.64,0.74
5427537,-780.0,8954.0,72.0,0.1,-0.191,0.64,0.738
5427554,-894.0,8218.0,-28.0,0.111,-0.199,0.634,0.739
5427571,-1214.0,5572.0,282.0,0.123,-0.209,0.624,0.743
5427587,-2212.0,2912.0,932.0,0.133,-0.219,0.614,0.746
5427603,-2948.0,-314.0,1412.0,0.141,-0.227,0.606,0.749
5427619,-2764.0,-3310.0,1282.0,0.147,-0.232,0.603,0.749
5427635,-3262.0,-4612.0,916.0,0.151,-0.234,0.603,0.747
5427661,-2726.0,-4160.0,322.0,0.151,-0.234,0.604,0.747
5427677,-2344.0,-3690.0,736.0,0.148,-0.231,0.606,0.747
5427693,-2360.0,-3338.0,1780.0,0.14,-0.225,0.609,0.748
5427709,-2432.0,-2338.0,1584.0,0.128,-0.216,0.614,0.748
5427726,-2290.0,-1750.0,1108.0,0.112,-0.205,0.621,0.749
5427742,-2196.0,2044.0,1116.0,0.095,-0.192,0.627,0.749
5427759,-1950.0,5824.0,1134.0,0.076,-0.178,0.632,0.75
5427785,-1450.0,8542.0,398.0,0.056,-0.163,0.634,0.754
5427801,250.0,8266.0,-16.0,0.036,-0.146,0.632,0.76
5427817,884.0,7132.0,-2.0,0.016,-0.128,0.629,0.767
5427833,2416.0,8224.0,318.0,0.004,0.107,-0.628,-0.771
5427849,1648.0,8696.0,-572.0,0.022,0.088,-0.63,-0.771
5427866,1188.0,9334.0,-374.0,0.039,0.067,-0.631,-0.772
5427883,2268.0,9010.0,666.0,0.057,0.044,-0.632,-0.772
5427910,2250.0,8388.0,512.0,0.075,0.023,-0.634,-0.77
5427927,1670.0,8676.0,546.0,0.091,0.001,-0.636,-0.766
5427943,1912.0,10154.0,1294.0,0.107,-0.022,-0.637,-0.763
5427959,2696.0,9864.0,1328.0,0.121,-0.046,-0.637,-0.76
5427975,3828.0,9510.0,1468.0,0.135,-0.072,-0.635,-0.757
5427991,4258.0,9152.0,1394.0,0.147,-0.098,-0.633,-0.753
5428008,4818.0,8156.0,1160.0,0.159,-0.123,-0.631,-0.749
5428035,5510.0,8116.0,2388.0,0.171,-0.15,-0.628,-0.744
5428051,5918.0,8924.0,2574.0,0.185,-0.176,-0.625,-0.738
5428068,6462.0,7516.0,3140.0,0.199,-0.201,-0.62,-0.731
5428084,6922.0,8310.0,3732.0,0.215,-0.227,-0.616,-0.723
5428100,6968.0,9000.0,2864.0,0.231,-0.251,-0.61,-0.715
5428116,7430.0,9340.0,4144.0,0.247,-0.274,-0.603,-0.708
5428132,7102.0,9498.0,5108.0,0.263,-0.296,-0.594,-0.7
5428149,7884.0,8782.0,5770.0,0.281,-0.314,-0.585,-0.692
5428175,8770.0,10048.0,4716.0,0.3,-0.328,-0.578,-0.685
5428191,6434.0,11558.0,2972.0,0.316,-0.337,-0.57,-0.679
5428208,5536.0,12514.0,1614.0,0.325,-0.347,-0.561,-0.677
5428224,4886.0,10664.0,1766.0,0.33,-0.356,-0.552,-0.678
5428240,5228.0,10040.0,2490.0,0.334,-0.361,-0.545,-0.679
5428256,4986.0,9780.0,1712.0,0.339,-0.36,-0.542,-0.68
5428273,3788.0,11038.0,-220.0,0.342,-0.354,-0.541,-0.682
5428299,2260.0,11140.0,-1432.0,0.341,-0.348,-0.541,-0.686
5428317,3564.0,8522.0,-152.0,0.339,-0.341,-0.542,-0.689
5428333,4036.0,8624.0,274.0,0.338,-0.331,-0.548,-0.69
5428350,4186.0,11278.0,594.0,0.336,-0.318,-0.556,-0.691
5428367,5206.0,11932.0,1030.0,0.33,-0.304,-0.564,-0.693
5428384,5216.0,11552.0,1754.0,0.32,-0.288,-0.572,-0.698
5428401,5432.0,9128.0,2494.0,0.306,-0.271,-0.58,-0.705
5428418,5746.0,10316.0,2710.0,0.29,-0.251,-0.588,-0.712
5428435,5502.0,10706.0,3372.0,0.273,-0.229,-0.598,-0.718
5428452,5796.0,11902.0,2854.0,0.256,-0.206,-0.607,-0.724
5428468,5992.0,10764.0,2642.0,0.236,-0.182,-0.614,-0.73
5428494,5998.0,8580.0,2814.0,0.214,-0.158,-0.62,-0.738
5428510,6072.0,9810.0,2228.0,0.191,-0.132,-0.626,-0.745
5428526,4200.0,8254.0,2022.0,0.169,-0.107,-0.631,-0.75
5428542,4190.0,8730.0,1694.0,0.147,-0.083,-0.634,-0.754
5428558,5238.0,5598.0,2192.0,0.128,-0.061,-0.637,-0.758
5428575,4628.0,6548.0,2016.0,0.11,-0.037,-0.641,-0.759
5428592,3302.0,7474.0,1712.0,0.093,-0.015,-0.645,-0.759
5428618,2996.0,8360.0,1356.0,0.077,0.005,-0.647,-0.758
5428634,3184.0,6482.0,1622.0,0.062,0.024,-0.648,-0.758
5428650,1576.0,6782.0,1464.0,0.047,0.044,-0.651,-0.757
5428666,248.0,5812.0,1476.0,0.033,0.063,-0.653,-0.754
5428682,-588.0,6686.0,1556.0,0.021,0.079,-0.655,-0.751
5428699,-132.0,7706.0,1278.0,0.011,0.092,-0.657,-0.748
5428715,162.0,7718.0,470.0,0.0,0.105,-0.659,-0.745
5428741,-62.0,8404.0,-498.0,0.012,-0.116,0.659,0.743
5428758,-820.0,8278.0,-118.0,0.023,-0.127,0.656,0.743
5428775,-166.0,6862.0,-86.0,0.034,-0.137,0.653,0.744
5428792,-478.0,6472.0,-224.0,0.045,-0.147,0.652,0.742
5428808,-1084.0,6948.0,-800.0,0.056,-0.157,0.651,0.74
5428825,-1514.0,6278.0,-646.0,0.067,-0.166,0.65,0.739
5428842,-2264.0,4944.0,180.0,0.077,-0.174,0.649,0.737
5428858,-2676.0,5042.0,528.0,0.087,-0.182,0.65,0.733
5428875,-3040.0,6020.0,360.0,0.097,-0.189,0.653,0.727
5428892,-2930.0,6978.0,-18.0,0.107,-0.197,0.656,0.721
5428918,-3216.0,7284.0,-68.0,0.118,-0.204,0.657,0.716
5428934,-2994.0,7376.0,-12.0,0.129,-0.21,0.657,0.712
5428951,-2860.0,6492.0,-104.0,0.139,-0.217,0.656,0.709
5428968,-2822.0,5248.0,26.0,0.148,-0.222,0.654,0.708
5428984,-2482.0,3430.0,0.0,0.156,-0.225,0.651,0.707
5429000,-2534.0,1950.0,-2.0,0.163,-0.228,0.649,0.707
5429017,-2328.0,78.0,634.0,0.167,-0.229,0.648,0.707
5429034,-1826.0,-1214.0,692.0,0.169,-0.228,0.648,0.707
5429060,-2264.0,-1072.0,624.0,0.168,-0.228,0.648,0.708
5429076,-3054.0,-2234.0,1048.0,0.163,-0.225,0.646,0.711
5429092,-2866.0,-3576.0,1860.0,0.152,-0.22,0.645,0.716
5429108,-2920.0,-4002.0,1804.0,0.137,-0.212,0.645,0.721
5429125,-2874.0,-1864.0,1276.0,0.118,-0.201,0.647,0.726
5429141,-3104.0,1692.0,1082.0,0.098,-0.188,0.65,0.73
5429158,-3206.0,5244.0,840.0,0.075,-0.172,0.654,0.732
5429184,-1648.0,8394.0,-34.0,0.054,-0.156,0.658,0.734
5429201,344.0,8374.0,-844.0,0.032,-0.138,0.66,0.738
5429218,784.0,8168.0,-920.0,0.012,-0.119,0.66,0.742
5429234,1478.0,7574.0,-588.0,0.006,0.098,-0.661,-0.744
5429251,1272.0,7082.0,-404.0,0.022,0.078,-0.665,-0.742
5429267,1284.0,7980.0,34.0,0.04,0.055,-0.67,-0.739
5429283,2494.0,8010.0,246.0,0.058,0.032,-0.675,-0.735
5429309,2858.0,8298.0,654.0,0.077,0.009,-0.68,-0.729
5429325,3086.0,9734.0,754.0,0.096,-0.015,-0.683,-0.724
5429341,3478.0,10394.0,996.0,0.115,-0.04,-0.683,-0.721
5429357,4232.0,11202.0,1180.0,0.132,-0.066,-0.679,-0.719
5429373,5026.0,10510.0,1518.0,0.149,-0.091,-0.672,-0.72
5429389,4910.0,10726.0,1696.0,0.166,-0.114,-0.664,-0.72
5429405,4434.0,10118.0,950.0,0.182,-0.138,-0.657,-0.719
5429431,5278.0,9982.0,854.0,0.196,-0.164,-0.648,-0.717
5429447,5386.0,10092.0,638.0,0.21,-0.189,-0.639,-0.715
5429463,5768.0,9954.0,632.0,0.223,-0.215,-0.629,-0.713
5429479,5504.0,9102.0,906.0,0.235,-0.242,-0.618,-0.711
5429495,6564.0,8444.0,1858.0,0.246,-0.268,-0.606,-0.708
5429511,6836.0,7336.0,2284.0,0.258,-0.293,-0.594,-0.703
5429537,7250.0,7812.0,1740.0,0.27,-0.316,-0.584,-0.698
5429553,7330.0,8796.0,1990.0,0.281,-0.337,-0.573,-0.692
5429569,6868.0,9450.0,2060.0,0.29,-0.357,-0.564,-0.686
5429585,6698.0,9932.0,2696.0,0.301,-0.372,-0.557,-0.679
5429602,7730.0,11144.0,4408.0,0.312,-0.381,-0.553,-0.672
5429618,4268.0,13106.0,3072.0,0.321,-0.384,-0.552,-0.666
5429644,3096.0,14408.0,2146.0,0.323,-0.387,-0.55,-0.666
5429660,3484.0,11544.0,2828.0,0.32,-0.389,-0.547,-0.669
5429676,4160.0,10056.0,2824.0,0.315,-0.387,-0.546,-0.673
5429693,4474.0,8786.0,2382.0,0.311,-0.381,-0.547,-0.678
5429709,4346.0,9424.0,1444.0,0.307,-0.371,-0.551,-0.682
5429725,4408.0,9874.0,808.0,0.301,-0.359,-0.556,-0.687
5429742,4372.0,9618.0,808.0,0.293,-0.346,-0.563,-0.692
5429759,5364.0,9836.0,1564.0,0.285,-0.329,-0.571,-0.696
5429786,5694.0,9952.0,1746.0,0.276,-0.309,-0.581,-0.7
5429802,5030.0,11168.0,1480.0,0.264,-0.287,-0.593,-0.705
5429818,4696.0,13044.0,1380.0,0.248,-0.264,-0.603,-0.711
5429834,5048.0,12024.0,2022.0,0.229,-0.24,-0.613,-0.717
5429851,6660.0,8918.0,3530.0,0.211,-0.214,-0.624,-0.721
5429867,5212.0,8542.0,3452.0,0.194,-0.184,-0.637,-0.723
5429884,3616.0,13230.0,2302.0,0.175,-0.153,-0.65,-0.723
5429911,4126.0,13504.0,1568.0,0.153,-0.125,-0.658,-0.726
5429927,6568.0,9762.0,2068.0,0.131,-0.099,-0.663,-0.73
5429943,6188.0,8864.0,2478.0,0.108,-0.07,-0.669,-0.732
5429960,3680.0,9236.0,1150.0,0.084,-0.04,-0.675,-0.731
5429976,2796.0,9872.0,204.0,0.061,-0.013,-0.679,-0.731
5429993,3000.0,7178.0,310.0,0.039,0.012,-0.682,-0.73
5430010,2954.0,7320.0,482.0,0.019,0.034,-0.685,-0.728
5430027,3058.0,9188.0,-36.0,0.001,-0.056,0.689,0.723
5430043,3758.0,8644.0,-682.0,0.022,-0.078,0.691,0.718
5430069,2696.0,9002.0,-1382.0,0.044,-0.1,0.693,0.713
5430085,650.0,7822.0,-1382.0,0.066,-0.121,0.694,0.707
5430101,-474.0,7504.0,-1680.0,0.087,-0.139,0.695,0.7
5430117,-894.0,7234.0,-2048.0,0.107,-0.154,0.695,0.694
5430134,-966.0,6166.0,-1946.0,0.128,-0.168,0.695,0.688
5430152,-414.0,4198.0,-1380.0,0.147,-0.179,0.693,0.682
5430168,-1790.0,2594.0,-804.0,0.167,-0.189,0.692,0.677
5430185,-2114.0,690.0,86.0,0.183,-0.196,0.69,0.672
5430202,-2192.0,-1226.0,1012.0,0.197,-0.2,0.69,0.667
5430229,-2200.0,-2218.0,1734.0,0.207,-0.202,0.693,0.661
5430245,-2794.0,-2150.0,2456.0,0.215,-0.202,0.697,0.654
5430262,-3270.0,-280.0,2480.0,0.218,-0.2,0.702,0.648
5430278,-3690.0,1536.0,2146.0,0.219,-0.199,0.705,0.644
5430294,-4228.0,3576.0,1902.0,0.217,-0.198,0.707,0.643
5430310,-4642.0,4722.0,1592.0,0.213,-0.197,0.707,0.645
5430326,-5344.0,5960.0,1072.0,0.208,-0.195,0.705,0.65
5430352,-5544.0,6616.0,228.0,0.202,-0.194,0.701,0.655
5430368,-5716.0,6806.0,-482.0,0.196,-0.194,0.697,0.662
5430384,-5918.0,6774.0,-924.0,0.19,-0.193,0.693,0.668
5430401,-6244.0,6554.0,-1046.0,0.186,-0.192,0.689,0.673
5430418,-6402.0,6672.0,-1284.0,0.182,-0.191,0.687,0.677
5430434,-6418.0,6988.0,-1436.0,0.18,-0.19,0.685,0.679
5430450,-6816.0,7212.0,-1456.0,0.179,-0.19,0.685,0.68
5430467,-6770.0,7094.0,-1148.0,0.18,-0.189,0.686,0.679
5430494,-6708.0,7026.0,-1046.0,0.182,-0.189,0.688,0.677
5430511,-6784.0,7434.0,-1062.0,0.185,-0.189,0.689,0.674
5430527,-6646.0,7576.0,-870.0,0.19,-0.19,0.691,0.671
5430543,-6216.0,7258.0,-580.0,0.194,-0.19,0.693,0.668
5430559,-5918.0,6554.0,-332.0,0.199,-0.192,0.694,0.665
5430575,-5814.0,6736.0,-218.0,0.204,-0.195,0.696,0.661
5430591,-5482.0,6522.0,-224.0,0.209,-0.197,0.698,0.656
5430617,-3836.0,5474.0,-342.0,0.213,-0.199,0.701,0.65
5430634,-4104.0,4552.0,-932.0,0.218,-0.201,0.704,0.645
