timeMs,ax,ay,az,q0,q1,q2,q3
6353181,-5319.0,8004.0,469.0,0.133,-0.232,0.699,0.663
6353197,-5725.0,7974.0,181.0,0.131,-0.232,0.698,0.664
6353223,-6057.0,7600.0,167.0,0.129,-0.233,0.696,0.667
6353240,-6265.0,7042.0,223.0,0.128,-0.235,0.692,0.67
6353256,-6037.0,7102.0,-145.0,0.129,-0.237,0.689,0.672
6353273,-5831.0,7738.0,-435.0,0.131,-0.241,0.687,0.673
6353289,-5997.0,8334.0,-377.0,0.133,-0.244,0.685,0.674
6353306,-6317.0,8376.0,-123.0,0.137,-0.247,0.684,0.672
6353323,-5971.0,7564.0,97.0,0.142,-0.249,0.685,0.669
6353340,-6295.0,7216.0,679.0,0.147,-0.25,0.688,0.665
6353357,-6003.0,7352.0,629.0,0.154,-0.252,0.691,0.659
6353373,-5749.0,7686.0,43.0,0.16,-0.256,0.694,0.654
6353400,-5545.0,7312.0,-141.0,0.167,-0.261,0.694,0.65
6353417,-6049.0,7106.0,111.0,0.174,-0.267,0.692,0.648
6353434,-4317.0,5774.0,-513.0,0.18,-0.273,0.69,0.646
6353451,645.0,2462.0,-3869.0,0.185,-0.276,0.684,0.649
6353468,97.0,-678.0,-3663.0,0.189,-0.279,0.672,0.66
6353485,-1873.0,-1180.0,-107.0,0.189,-0.277,0.661,0.671
6353502,-2841.0,-784.0,2823.0,0.188,-0.27,0.661,0.675
6353518,-3197.0,754.0,3751.0,0.184,-0.261,0.671,0.67
6353534,-4639.0,4780.0,3239.0,0.182,-0.252,0.691,0.653
6353551,-8121.0,8976.0,3257.0,0.176,-0.247,0.701,0.646
6353568,-5419.0,11026.0,-1669.0,0.173,-0.247,0.708,0.639
6353585,-6109.0,10300.0,-1017.0,0.168,-0.249,0.708,0.64
6353603,-5637.0,7382.0,-549.0,0.162,-0.252,0.706,0.642
6353621,-4659.0,7396.0,-1009.0,0.158,-0.258,0.701,0.645
6353648,-4633.0,7790.0,-1049.0,0.155,-0.264,0.695,0.651
6353665,-4797.0,8332.0,-1053.0,0.153,-0.269,0.687,0.658
6353682,-4175.0,7854.0,-1187.0,0.152,-0.275,0.678,0.664
6353699,-4035.0,7680.0,-919.0,0.151,-0.28,0.67,0.671
6353716,-3999.0,6152.0,-367.0,0.151,-0.284,0.662,0.677
6353733,-4305.0,7002.0,779.0,0.151,-0.287,0.651,0.686
6353750,-3059.0,5048.0,1093.0,0.149,-0.29,0.639,0.697
6353767,-4329.0,5218.0,1345.0,0.148,-0.294,0.629,0.704
6353784,-3719.0,3660.0,2817.0,0.145,-0.296,0.626,0.706
6353801,-4715.0,6268.0,1085.0,0.145,-0.299,0.628,0.704
6353818,-3233.0,7344.0,101.0,0.143,-0.3,0.629,0.702
6353835,1909.0,-730.0,1235.0,0.133,-0.292,0.627,0.71
6353852,-2359.0,-4566.0,653.0,0.121,-0.287,0.627,0.714
6353869,-729.0,642.0,-343.0,0.107,-0.278,0.635,0.713
6353886,-1165.0,1900.0,137.0,0.09,-0.267,0.644,0.711
6353913,-279.0,884.0,371.0,0.071,-0.253,0.659,0.704
6353930,-329.0,4646.0,-1079.0,0.053,-0.236,0.681,0.691
6353946,-827.0,8242.0,-1897.0,0.032,-0.214,0.702,0.679
6353962,-1323.0,9114.0,-2339.0,0.011,-0.19,0.72,0.668
6353978,-1257.0,9946.0,-2881.0,0.01,0.162,-0.732,-0.662
6353994,-1155.0,9738.0,-4029.0,0.029,0.131,-0.742,-0.657
6354011,-1061.0,10368.0,-5247.0,0.046,0.098,-0.752,-0.651
6354028,-1037.0,11430.0,-6181.0,0.06,0.063,-0.76,-0.644
6354055,-997.0,13922.0,-6383.0,0.072,0.025,-0.767,-0.638
6354071,-1135.0,15738.0,-6107.0,0.08,-0.013,-0.768,-0.635
6354088,-1109.0,15764.0,-4865.0,0.082,-0.05,-0.764,-0.638
6354105,-915.0,15144.0,-3291.0,0.078,-0.085,-0.757,-0.643
6354122,-581.0,14408.0,-1915.0,0.07,-0.115,-0.749,-0.648
6354139,-535.0,13192.0,-723.0,0.057,-0.14,-0.741,-0.654
6354156,-659.0,11866.0,41.0,0.043,-0.16,-0.734,-0.659
6354173,-873.0,10868.0,687.0,0.027,-0.175,-0.729,-0.661
6354190,-813.0,10290.0,1053.0,0.011,-0.186,-0.726,-0.662
6354206,-775.0,10134.0,1451.0,0.007,0.194,0.725,0.661
6354223,-487.0,10246.0,1735.0,0.024,0.198,0.725,0.66
6354250,-379.0,10080.0,1757.0,0.043,0.199,0.724,0.659
6354267,-59.0,9706.0,1539.0,0.062,0.197,0.724,0.658
6354283,215.0,9158.0,1277.0,0.081,0.192,0.726,0.656
6354299,169.0,8382.0,927.0,0.098,0.185,0.729,0.652
6354316,575.0,7646.0,105.0,0.112,0.177,0.736,0.644
6354332,1205.0,9028.0,-597.0,0.125,0.167,0.747,0.632
6354349,1153.0,9398.0,-1195.0,0.138,0.154,0.758,0.619
6354366,-717.0,8784.0,-1247.0,0.15,0.144,0.767,0.607
6354383,335.0,9314.0,-1735.0,0.161,0.137,0.772,0.599
6354400,699.0,8474.0,-2253.0,0.172,0.132,0.774,0.595
6354427,963.0,7338.0,-2475.0,0.182,0.126,0.772,0.595
6354443,1029.0,6288.0,-2487.0,0.192,0.118,0.77,0.597
6354460,933.0,5448.0,-2409.0,0.202,0.11,0.767,0.599
6354477,433.0,4744.0,-2197.0,0.209,0.104,0.764,0.601
6354494,195.0,4672.0,-2101.0,0.216,0.099,0.762,0.602
6354510,15.0,4538.0,-2049.0,0.221,0.097,0.761,0.602
6354526,-13.0,4612.0,-2063.0,0.225,0.096,0.76,0.602
6354542,17.0,4962.0,-2023.0,0.228,0.097,0.76,0.601
6354568,19.0,5194.0,-1983.0,0.23,0.099,0.759,0.601
6354585,-169.0,5388.0,-1705.0,0.232,0.102,0.758,0.601
6354604,-319.0,5676.0,-1665.0,0.232,0.107,0.757,0.601
6354620,-301.0,5976.0,-1515.0,0.232,0.113,0.757,0.6
6354637,-345.0,6426.0,-1333.0,0.232,0.12,0.757,0.599
6354654,-293.0,7078.0,-1209.0,0.23,0.129,0.758,0.597
6354671,-271.0,7794.0,-1089.0,0.228,0.138,0.758,0.595
6354688,-279.0,8284.0,-815.0,0.225,0.148,0.759,0.593
6354705,-373.0,8836.0,-643.0,0.221,0.159,0.759,0.592
6354722,-237.0,9274.0,-327.0,0.219,0.17,0.758,0.591
6354739,-407.0,9028.0,-15.0,0.216,0.18,0.756,0.591
6354756,-711.0,9034.0,131.0,0.215,0.19,0.755,0.59
6354773,-875.0,8896.0,457.0,0.213,0.201,0.753,0.589
6354790,-937.0,9300.0,655.0,0.212,0.213,0.752,0.587
6354807,-877.0,10078.0,869.0,0.211,0.226,0.75,0.584
6354834,-659.0,10770.0,1017.0,0.211,0.238,0.748,0.582
6354850,-427.0,10982.0,1339.0,0.213,0.248,0.746,0.581
6354866,-533.0,10906.0,1609.0,0.215,0.255,0.744,0.58
6354883,-663.0,10530.0,1661.0,0.217,0.26,0.741,0.579
6354900,-767.0,9952.0,1733.0,0.22,0.264,0.738,0.58
6354916,-729.0,9460.0,1665.0,0.224,0.265,0.735,0.582
6354932,-557.0,8704.0,1505.0,0.227,0.265,0.731,0.586
6354958,-479.0,8164.0,1137.0,0.229,0.263,0.729,0.59
6354974,-381.0,7914.0,917.0,0.23,0.261,0.726,0.593
6354990,-291.0,7808.0,577.0,0.231,0.259,0.725,0.595
6355007,-7.0,7924.0,195.0,0.232,0.257,0.722,0.599
6355023,479.0,7722.0,-221.0,0.233,0.255,0.718,0.604
6355040,885.0,6728.0,-387.0,0.235,0.254,0.713,0.61
6355057,1203.0,6966.0,-703.0,0.235,0.254,0.708,0.615
6355073,1327.0,6950.0,-575.0,0.235,0.256,0.705,0.619
6355090,1487.0,7496.0,-507.0,0.234,0.259,0.703,0.62
6355117,1489.0,7802.0,-351.0,0.233,0.263,0.702,0.62
6355134,1455.0,7774.0,-295.0,0.232,0.267,0.701,0.619
6355150,1263.0,7562.0,-273.0,0.23,0.27,0.701,0.619
6355166,967.0,7560.0,-283.0,0.227,0.274,0.701,0.618
6355182,739.0,7284.0,-147.0,0.224,0.277,0.701,0.618
6355198,423.0,7224.0,-159.0,0.221,0.279,0.702,0.617
6355215,169.0,7296.0,-229.0,0.217,0.282,0.704,0.615
6355241,-177.0,7384.0,-397.0,0.213,0.284,0.706,0.613
6355257,-417.0,7794.0,-563.0,0.209,0.286,0.708,0.611
6355273,-779.0,8504.0,-663.0,0.206,0.289,0.71,0.608
6355290,-863.0,9084.0,-885.0,0.203,0.291,0.711,0.607
6355307,-951.0,9194.0,-743.0,0.202,0.293,0.712,0.606
6355323,-833.0,9520.0,-759.0,0.202,0.295,0.712,0.605
6355340,-819.0,9524.0,-641.0,0.203,0.297,0.712,0.603
6355357,-665.0,9538.0,-485.0,0.205,0.298,0.713,0.601
6355373,-525.0,9406.0,-315.0,0.208,0.299,0.714,0.598
6355400,-375.0,9256.0,-175.0,0.211,0.299,0.715,0.596
6355418,-143.0,8986.0,-15.0,0.216,0.298,0.715,0.594
6355434,-77.0,8584.0,141.0,0.221,0.297,0.715,0.593
6355450,-45.0,8120.0,275.0,0.226,0.296,0.715,0.592
6355466,429.0,8124.0,257.0,0.231,0.294,0.715,0.591
6355483,669.0,8250.0,285.0,0.235,0.293,0.715,0.59
6355500,643.0,8626.0,21.0,0.241,0.291,0.714,0.589
6355517,437.0,8602.0,241.0,0.248,0.289,0.712,0.59
6355533,481.0,8350.0,47.0,0.256,0.288,0.707,0.593
6355559,499.0,7310.0,167.0,0.264,0.287,0.702,0.595
6355575,261.0,6322.0,563.0,0.271,0.287,0.698,0.597
6355592,-5.0,6342.0,793.0,0.274,0.288,0.697,0.597
6355609,-7.0,7088.0,701.0,0.275,0.29,0.698,0.594
6355625,167.0,7674.0,-239.0,0.275,0.293,0.7,0.59
6355641,129.0,8800.0,-585.0,0.272,0.295,0.704,0.585
6355657,45.0,10478.0,-1037.0,0.27,0.297,0.708,0.581
6355683,127.0,10976.0,-1733.0,0.269,0.298,0.711,0.578
6355699,385.0,10638.0,-2115.0,0.27,0.297,0.712,0.577
6355715,141.0,9448.0,-1879.0,0.273,0.294,0.712,0.577
6355732,-227.0,8256.0,-1657.0,0.276,0.29,0.712,0.576
6355749,-609.0,7400.0,-1717.0,0.28,0.286,0.713,0.575
6355766,-893.0,7044.0,-1517.0,0.284,0.283,0.714,0.574
6355783,-1135.0,6952.0,-1263.0,0.289,0.282,0.713,0.573
6355799,-1161.0,7002.0,-1175.0,0.294,0.282,0.711,0.573
6355816,-923.0,7182.0,-1077.0,0.3,0.282,0.709,0.573
6355843,-745.0,7544.0,-801.0,0.306,0.284,0.706,0.572
6355860,-333.0,8260.0,-645.0,0.312,0.286,0.703,0.571
6355876,137.0,8896.0,-607.0,0.318,0.289,0.701,0.569
6355892,457.0,9108.0,-697.0,0.325,0.29,0.699,0.567
6355908,589.0,8860.0,-483.0,0.331,0.29,0.697,0.566
6355924,185.0,9130.0,-195.0,0.338,0.289,0.695,0.565
6355940,31.0,8508.0,-153.0,0.346,0.286,0.691,0.567
6355967,17.0,7644.0,-255.0,0.352,0.284,0.687,0.569
6355983,-75.0,7202.0,-383.0,0.358,0.282,0.682,0.571
6356000,-67.0,7312.0,-537.0,0.363,0.282,0.679,0.573
6356017,23.0,7834.0,-383.0,0.365,0.281,0.676,0.575
6356034,-17.0,8056.0,-339.0,0.367,0.281,0.672,0.578
6356050,29.0,8352.0,-263.0,0.369,0.281,0.669,0.581
6356067,79.0,8386.0,-127.0,0.37,0.281,0.665,0.585
6356083,733.0,8646.0,489.0,0.369,0.28,0.662,0.589
6356099,493.0,8654.0,1023.0,0.368,0.278,0.659,0.594
6356125,321.0,8160.0,1083.0,0.367,0.275,0.656,0.6
6356141,347.0,7536.0,869.0,0.365,0.273,0.653,0.605
6356158,-49.0,7366.0,737.0,0.362,0.27,0.653,0.609
6356175,-379.0,7624.0,503.0,0.359,0.268,0.652,0.612
6356191,-711.0,8152.0,311.0,0.356,0.267,0.651,0.615
6356207,-1045.0,8034.0,541.0,0.354,0.264,0.649,0.619
6356223,-1057.0,7856.0,795.0,0.351,0.262,0.646,0.625
6356250,-1025.0,7638.0,1059.0,0.349,0.26,0.643,0.631
6356266,-1053.0,7614.0,1315.0,0.346,0.258,0.64,0.636
6356283,-1027.0,8020.0,1367.0,0.342,0.256,0.638,0.64
6356299,-1013.0,8554.0,1237.0,0.338,0.254,0.636,0.646
6356315,-1059.0,8422.0,1141.0,0.334,0.25,0.634,0.651
6356331,-1027.0,8078.0,1065.0,0.329,0.247,0.631,0.657
6356347,-959.0,7812.0,819.0,0.324,0.244,0.63,0.662
6356373,-855.0,7832.0,693.0,0.318,0.241,0.629,0.667
6356390,-855.0,8114.0,577.0,0.313,0.238,0.63,0.67
6356406,-767.0,7886.0,629.0,0.308,0.235,0.629,0.674
6356422,-577.0,7166.0,841.0,0.302,0.233,0.629,0.677
6356438,-339.0,6570.0,975.0,0.296,0.231,0.63,0.68
6356454,-445.0,6746.0,1091.0,0.289,0.23,0.633,0.68
6356480,-343.0,7114.0,975.0,0.282,0.23,0.636,0.68
6356496,-259.0,7738.0,1063.0,0.274,0.231,0.64,0.68
6356513,-289.0,7676.0,1341.0,0.267,0.231,0.642,0.681
6356530,-503.0,7774.0,1553.0,0.259,0.231,0.645,0.681
6356547,-885.0,8288.0,1523.0,0.252,0.23,0.646,0.683
6356563,-969.0,8806.0,1311.0,0.246,0.23,0.645,0.686
6356579,-747.0,8922.0,1247.0,0.239,0.23,0.643,0.69
6356595,-589.0,8604.0,1219.0,0.233,0.229,0.641,0.695
6356621,-385.0,9074.0,1235.0,0.226,0.228,0.64,0.698
6356638,-81.0,9738.0,1235.0,0.219,0.226,0.64,0.701
6356654,85.0,10126.0,1359.0,0.211,0.224,0.641,0.703
6356671,393.0,10354.0,1609.0,0.204,0.22,0.642,0.705
6356687,721.0,9846.0,1933.0,0.198,0.216,0.643,0.708
6356703,1069.0,9018.0,1987.0,0.193,0.212,0.644,0.709
6356719,1425.0,8514.0,1941.0,0.189,0.208,0.645,0.711
6356736,1573.0,7784.0,1757.0,0.185,0.204,0.646,0.712
6356762,1887.0,6692.0,1453.0,0.182,0.201,0.65,0.71
6356778,1841.0,5846.0,1639.0,0.177,0.199,0.657,0.706
6356794,2387.0,5372.0,1667.0,0.172,0.199,0.668,0.696
6356811,2521.0,5536.0,1345.0,0.164,0.198,0.682,0.684
6356827,2413.0,5956.0,851.0,0.154,0.197,0.699,0.669
6356844,2249.0,7162.0,-101.0,0.143,0.195,0.716,0.655
6356860,1979.0,8336.0,-833.0,0.132,0.191,0.73,0.643
6356887,1683.0,9096.0,-1407.0,0.122,0.187,0.739,0.635
6356904,1697.0,8712.0,-1917.0,0.113,0.183,0.744,0.632
6356921,1619.0,8190.0,-2181.0,0.105,0.179,0.747,0.632
6356938,1439.0,7892.0,-2143.0,0.097,0.174,0.749,0.632
6356955,1187.0,7884.0,-2087.0,0.089,0.17,0.751,0.631
6356971,919.0,7952.0,-2005.0,0.083,0.166,0.753,0.631
6356987,823.0,8732.0,-1729.0,0.078,0.163,0.754,0.632
6357004,529.0,9208.0,-1359.0,0.074,0.16,0.751,0.637
6357021,457.0,8256.0,-565.0,0.071,0.158,0.744,0.645
6357038,713.0,7114.0,217.0,0.069,0.158,0.738,0.653
6357055,949.0,6688.0,1089.0,0.065,0.157,0.733,0.658
6357072,1067.0,6930.0,1667.0,0.062,0.157,0.731,0.661
6357099,1317.0,7000.0,1885.0,0.057,0.156,0.732,0.661
6357115,1339.0,7064.0,1441.0,0.051,0.154,0.736,0.657
6357131,1411.0,7228.0,919.0,0.045,0.152,0.742,0.651
6357147,1287.0,7864.0,349.0,0.038,0.15,0.749,0.644
6357163,1377.0,8368.0,-195.0,0.032,0.148,0.756,0.637
6357180,1331.0,8650.0,-773.0,0.026,0.146,0.762,0.631
6357196,1221.0,9190.0,-1361.0,0.021,0.144,0.766,0.626
6357223,1097.0,9456.0,-1721.0,0.017,0.141,0.769,0.623
6357239,991.0,9264.0,-1837.0,0.014,0.138,0.77,0.623
6357256,989.0,9012.0,-1699.0,0.012,0.135,0.77,0.624
6357272,951.0,8674.0,-1463.0,0.01,0.131,0.768,0.626
6357289,795.0,8582.0,-1331.0,0.008,0.127,0.767,0.629
6357306,765.0,8336.0,-1171.0,0.007,0.122,0.764,0.633
6357322,757.0,8108.0,-1193.0,0.006,0.117,0.762,0.637
6357339,863.0,8014.0,-1173.0,0.005,0.112,0.759,0.641
6357365,1005.0,8154.0,-1059.0,0.004,0.107,0.756,0.646
6357382,1047.0,8216.0,-843.0,0.002,0.102,0.752,0.651
6357398,1133.0,7972.0,-633.0,0.001,0.097,0.747,0.658
6357415,1243.0,7502.0,-395.0,0.0,-0.092,-0.742,-0.664
6357432,1255.0,6640.0,-113.0,0.002,-0.088,-0.737,-0.67
6357448,1479.0,6158.0,211.0,0.005,-0.084,-0.735,-0.673
6357464,1819.0,6370.0,525.0,0.008,-0.08,-0.737,-0.671
6357480,1825.0,7066.0,703.0,0.013,-0.076,-0.741,-0.667
6357506,1933.0,8000.0,459.0,0.017,-0.072,-0.746,-0.661
6357522,1851.0,8750.0,73.0,0.022,-0.068,-0.752,-0.656
6357539,1731.0,8986.0,-339.0,0.027,-0.065,-0.756,-0.651
6357556,1625.0,8736.0,-621.0,0.031,-0.062,-0.758,-0.648
6357573,1403.0,8372.0,-763.0,0.034,-0.06,-0.761,-0.645
6357589,1151.0,8292.0,-817.0,0.038,-0.057,-0.763,-0.643
6357605,871.0,8158.0,-783.0,0.041,-0.055,-0.764,-0.642
6357622,613.0,8124.0,-599.0,0.043,-0.053,-0.765,-0.641
6357639,319.0,7952.0,-641.0,0.046,-0.05,-0.765,-0.641
6357666,259.0,7770.0,-599.0,0.048,-0.049,-0.764,-0.641
6357683,127.0,7868.0,-551.0,0.05,-0.047,-0.764,-0.642
6357699,207.0,7876.0,-491.0,0.051,-0.046,-0.762,-0.644
6357716,201.0,7956.0,-333.0,0.053,-0.045,-0.76,-0.647
6357733,275.0,8116.0,-67.0,0.054,-0.045,-0.757,-0.65
6357750,161.0,8244.0,15.0,0.056,-0.044,-0.752,-0.655
6357767,169.0,7504.0,-103.0,0.057,-0.045,-0.745,-0.663
6357784,483.0,7024.0,-133.0,0.059,-0.046,-0.74,-0.669
6357802,557.0,7408.0,-305.0,0.061,-0.046,-0.736,-0.672
6357819,693.0,8092.0,-507.0,0.063,-0.046,-0.736,-0.673
6357836,809.0,8950.0,-881.0,0.064,-0.045,-0.737,-0.671
6357853,967.0,9662.0,-1159.0,0.065,-0.045,-0.74,-0.668
6357870,1059.0,10072.0,-1107.0,0.064,-0.043,-0.741,-0.667
6357887,983.0,9734.0,-807.0,0.063,-0.042,-0.741,-0.667
6357904,1091.0,8854.0,-505.0,0.061,-0.041,-0.739,-0.67
6357931,1105.0,8106.0,-217.0,0.06,-0.041,-0.736,-0.673
6357948,1131.0,7460.0,-21.0,0.058,-0.041,-0.734,-0.676
6357965,1153.0,7070.0,51.0,0.056,-0.041,-0.732,-0.678
6357982,1183.0,7018.0,-15.0,0.055,-0.041,-0.731,-0.678
6357999,1305.0,7202.0,-29.0,0.054,-0.041,-0.732,-0.678
6358016,1253.0,7528.0,37.0,0.054,-0.041,-0.733,-0.677
6358033,1305.0,7900.0,313.0,0.054,-0.041,-0.734,-0.676
6358050,1301.0,7950.0,471.0,0.055,-0.04,-0.734,-0.675
6358067,1289.0,7852.0,623.0,0.056,-0.04,-0.735,-0.674
6358083,1267.0,7590.0,705.0,0.057,-0.039,-0.736,-0.673
6358099,1255.0,7322.0,677.0,0.06,-0.038,-0.737,-0.672
6358126,1219.0,7322.0,485.0,0.063,-0.037,-0.739,-0.67
6358143,883.0,7186.0,315.0,0.066,-0.035,-0.74,-0.668
6358160,879.0,7836.0,-57.0,0.07,-0.035,-0.742,-0.666
6358177,1061.0,8214.0,-631.0,0.074,-0.034,-0.743,-0.664
6358194,1095.0,8610.0,-873.0,0.077,-0.034,-0.744,-0.662
6358210,1117.0,9040.0,-749.0,0.081,-0.034,-0.745,-0.661
6358226,1151.0,9106.0,-533.0,0.084,-0.035,-0.745,-0.66
6358242,1189.0,8640.0,-569.0,0.086,-0.035,-0.744,-0.661
6358259,1177.0,8474.0,-737.0,0.088,-0.035,-0.743,-0.662
6358276,1133.0,8246.0,-795.0,0.089,-0.035,-0.742,-0.664
6358303,1167.0,7930.0,-945.0,0.09,-0.036,-0.74,-0.665
6358320,1355.0,7442.0,-637.0,0.091,-0.037,-0.739,-0.666
6358337,1401.0,7492.0,1.0,0.091,-0.038,-0.738,-0.667
6358354,1439.0,7684.0,237.0,0.093,-0.037,-0.737,-0.668
6358371,1075.0,7518.0,-73.0,0.094,-0.037,-0.738,-0.668
6358388,1235.0,7792.0,-203.0,0.095,-0.037,-0.738,-0.667
6358405,1089.0,8186.0,-285.0,0.096,-0.037,-0.738,-0.667
6358422,1101.0,8256.0,-231.0,0.096,-0.037,-0.737,-0.668
6358439,991.0,8000.0,-111.0,0.097,-0.038,-0.735,-0.67
6358456,971.0,7750.0,-25.0,0.097,-0.04,-0.733,-0.672
6358472,1099.0,8146.0,477.0,0.097,-0.041,-0.732,-0.673
6358489,1097.0,8908.0,903.0,0.097,-0.043,-0.732,-0.673
6358515,1105.0,9542.0,1073.0,0.097,-0.044,-0.73,-0.675
6358531,1211.0,9550.0,1201.0,0.096,-0.046,-0.727,-0.678
6358548,1331.0,9022.0,1223.0,0.095,-0.048,-0.723,-0.683
6358565,1481.0,8340.0,1097.0,0.094,-0.051,-0.718,-0.688
6358582,1675.0,7746.0,957.0,0.093,-0.053,-0.713,-0.693
6358599,1705.0,7592.0,945.0,0.091,-0.055,-0.71,-0.696
6358616,1707.0,7404.0,943.0,0.09,-0.057,-0.708,-0.698
6358632,1741.0,7538.0,939.0,0.089,-0.058,-0.707,-0.699
6358649,1683.0,7724.0,993.0,0.088,-0.059,-0.706,-0.7
6358666,1455.0,7838.0,1113.0,0.086,-0.059,-0.706,-0.701
6358683,1461.0,7746.0,1191.0,0.085,-0.059,-0.705,-0.701
6358710,1461.0,7542.0,1235.0,0.084,-0.059,-0.705,-0.702
6358726,1413.0,7996.0,1377.0,0.083,-0.059,-0.705,-0.702
6358743,1559.0,8816.0,1393.0,0.083,-0.06,-0.705,-0.702
6358760,1749.0,9380.0,1149.0,0.084,-0.06,-0.704,-0.703
6358777,1879.0,9354.0,751.0,0.084,-0.061,-0.703,-0.704
6358794,1773.0,9036.0,715.0,0.084,-0.06,-0.701,-0.706
6358811,1471.0,8486.0,807.0,0.084,-0.057,-0.7,-0.707
6358827,1273.0,8162.0,629.0,0.084,-0.054,-0.699,-0.708
6358843,1035.0,7742.0,341.0,0.083,-0.051,-0.698,-0.709
6358869,809.0,7246.0,99.0,0.083,-0.047,-0.698,-0.71
6358886,715.0,6960.0,-223.0,0.083,-0.043,-0.697,-0.711
6358903,761.0,6894.0,-469.0,0.083,-0.041,-0.696,-0.712
6358920,847.0,7012.0,-671.0,0.083,-0.039,-0.694,-0.714
6358937,907.0,7326.0,-767.0,0.084,-0.038,-0.693,-0.715
6358954,1103.0,7458.0,-641.0,0.084,-0.037,-0.692,-0.716
6358971,1309.0,7552.0,-511.0,0.084,-0.037,-0.691,-0.717
6358988,1657.0,7704.0,-107.0,0.085,-0.037,-0.691,-0.717
6359005,1707.0,7972.0,489.0,0.085,-0.037,-0.692,-0.716
6359022,1607.0,8210.0,1027.0,0.085,-0.036,-0.693,-0.715
6359038,1409.0,8350.0,1287.0,0.085,-0.035,-0.695,-0.714
6359055,1307.0,8408.0,1333.0,0.084,-0.034,-0.696,-0.712
6359082,1261.0,8208.0,1349.0,0.084,-0.034,-0.697,-0.711
6359099,1291.0,8020.0,1387.0,0.083,-0.035,-0.698,-0.71
6359116,1269.0,8052.0,1195.0,0.082,-0.036,-0.699,-0.71
6359132,1263.0,7930.0,1031.0,0.081,-0.037,-0.699,-0.709
6359149,1271.0,7798.0,959.0,0.08,-0.038,-0.699,-0.709
6359166,1245.0,7794.0,853.0,0.08,-0.04,-0.699,-0.709
6359183,1365.0,7504.0,837.0,0.079,-0.041,-0.699,-0.709
6359200,1385.0,7544.0,795.0,0.079,-0.043,-0.699,-0.709
6359217,1427.0,7502.0,847.0,0.08,-0.044,-0.699,-0.709
6359234,1471.0,7664.0,785.0,0.081,-0.044,-0.7,-0.708
6359251,1535.0,7666.0,733.0,0.083,-0.045,-0.7,-0.708
6359267,1701.0,7724.0,727.0,0.085,-0.045,-0.701,-0.707
6359293,1645.0,7826.0,755.0,0.087,-0.045,-0.702,-0.705
6359309,1523.0,8042.0,757.0,0.09,-0.044,-0.704,-0.703
6359325,1509.0,8202.0,757.0,0.092,-0.042,-0.705,-0.701
6359341,1455.0,8362.0,683.0,0.095,-0.041,-0.707,-0.7
6359357,1389.0,8542.0,655.0,0.097,-0.04,-0.708,-0.698
6359374,1283.0,8584.0,697.0,0.099,-0.039,-0.709,-0.698
6359391,1181.0,8444.0,649.0,0.101,-0.039,-0.709,-0.697
6359418,1131.0,8366.0,589.0,0.102,-0.038,-0.709,-0.697
6359435,1067.0,8368.0,577.0,0.103,-0.038,-0.708,-0.697
6359451,951.0,8402.0,599.0,0.103,-0.039,-0.707,-0.698
6359467,895.0,8452.0,545.0,0.103,-0.04,-0.706,-0.7
6359483,947.0,8560.0,547.0,0.102,-0.042,-0.703,-0.703
6359499,1005.0,8356.0,631.0,0.101,-0.043,-0.7,-0.706
6359515,1169.0,7962.0,753.0,0.1,-0.045,-0.696,-0.709
6359541,1199.0,7694.0,841.0,0.099,-0.046,-0.694,-0.712
6359558,1355.0,7784.0,825.0,0.099,-0.047,-0.693,-0.713
6359575,1449.0,7836.0,957.0,0.098,-0.047,-0.692,-0.713
6359592,1539.0,7914.0,961.0,0.097,-0.047,-0.692,-0.714
6359609,1501.0,7894.0,945.0,0.097,-0.046,-0.691,-0.714
6359625,1565.0,7922.0,919.0,0.097,-0.045,-0.691,-0.715
6359642,1485.0,7762.0,899.0,0.097,-0.043,-0.69,-0.716
6359658,1483.0,7728.0,853.0,0.097,-0.042,-0.69,-0.716
6359684,1441.0,7762.0,701.0,0.097,-0.04,-0.69,-0.716
6359700,1453.0,7812.0,675.0,0.097,-0.039,-0.69,-0.716
6359716,1439.0,8036.0,785.0,0.097,-0.038,-0.691,-0.716
6359732,1473.0,8010.0,855.0,0.096,-0.036,-0.691,-0.716
6359748,1467.0,8022.0,857.0,0.096,-0.036,-0.691,-0.716
6359764,1549.0,8102.0,939.0,0.096,-0.035,-0.691,-0.716
6359790,1511.0,8104.0,889.0,0.095,-0.035,-0.69,-0.717
6359806,1537.0,8136.0,993.0,0.095,-0.035,-0.688,-0.718
6359822,1497.0,8062.0,1047.0,0.094,-0.035,-0.686,-0.721
6359838,1479.0,7908.0,1139.0,0.094,-0.036,-0.684,-0.723
6359854,1367.0,8134.0,1015.0,0.094,-0.037,-0.681,-0.726
6359870,1285.0,8070.0,1015.0,0.094,-0.038,-0.677,-0.729
6359896,1141.0,7944.0,1187.0,0.093,-0.04,-0.673,-0.733
6359912,1341.0,7884.0,1269.0,0.092,-0.042,-0.668,-0.737
6359928,1317.0,7744.0,1603.0,0.092,-0.043,-0.664,-0.74
6359944,1367.0,7624.0,1875.0,0.091,-0.043,-0.661,-0.743
6359960,1365.0,7550.0,2059.0,0.091,-0.043,-0.659,-0.745
6359976,1363.0,7630.0,2127.0,0.091,-0.043,-0.659,-0.746
6360002,1325.0,7760.0,2069.0,0.092,-0.042,-0.658,-0.746
6360018,1407.0,8312.0,1933.0,0.092,-0.041,-0.657,-0.747
6360034,1389.0,8388.0,1667.0,0.093,-0.04,-0.655,-0.749
6360051,1399.0,8146.0,1607.0,0.092,-0.04,-0.652,-0.752
6360067,1385.0,8124.0,1553.0,0.092,-0.04,-0.649,-0.754
6360083,1439.0,8138.0,1605.0,0.092,-0.039,-0.647,-0.756
6360099,1251.0,8102.0,1629.0,0.091,-0.038,-0.646,-0.757
6360125,1203.0,7986.0,1737.0,0.09,-0.037,-0.644,-0.759
6360141,1199.0,7902.0,1783.0,0.089,-0.036,-0.642,-0.76
6360158,1119.0,7838.0,1973.0,0.088,-0.035,-0.64,-0.762
6360175,1163.0,7734.0,1995.0,0.087,-0.035,-0.638,-0.764
6360192,1125.0,7614.0,1955.0,0.086,-0.035,-0.636,-0.766
6360208,1107.0,7434.0,1855.0,0.085,-0.035,-0.635,-0.767
6360224,1149.0,7546.0,1735.0,0.084,-0.035,-0.634,-0.768
6360251,1215.0,7408.0,1705.0,0.083,-0.035,-0.633,-0.769
6360267,1217.0,7578.0,1819.0,0.081,-0.036,-0.632,-0.77
6360283,1233.0,7540.0,1959.0,0.08,-0.037,-0.63,-0.771
6360299,1283.0,7490.0,2193.0,0.079,-0.037,-0.629,-0.772
6360315,1279.0,7438.0,2301.0,0.078,-0.038,-0.628,-0.773
6360331,1269.0,7376.0,2325.0,0.078,-0.039,-0.628,-0.774
6360347,1295.0,7574.0,2373.0,0.077,-0.039,-0.628,-0.774
6360373,1215.0,7664.0,2469.0,0.078,-0.039,-0.627,-0.774
6360389,1249.0,7798.0,2389.0,0.078,-0.039,-0.628,-0.774
6360405,1263.0,7948.0,2429.0,0.078,-0.038,-0.628,-0.774
6360421,1273.0,7812.0,2567.0,0.078,-0.037,-0.628,-0.774
6360437,1237.0,7932.0,2671.0,0.079,-0.036,-0.628,-0.773
6360453,1209.0,7928.0,2523.0,0.079,-0.034,-0.628,-0.773
6360479,1223.0,7836.0,2431.0,0.08,-0.031,-0.628,-0.773
6360495,1165.0,7766.0,2289.0,0.081,-0.029,-0.628,-0.773
6360511,1077.0,7846.0,2317.0,0.081,-0.026,-0.629,-0.773
6360527,989.0,8002.0,2287.0,0.081,-0.023,-0.63,-0.772
6360543,927.0,7960.0,2179.0,0.081,-0.021,-0.63,-0.772
6360569,883.0,7796.0,1987.0,0.081,-0.019,-0.631,-0.772
6360585,621.0,7586.0,1733.0,0.081,-0.018,-0.63,-0.772
6360602,957.0,7668.0,1935.0,0.08,-0.017,-0.63,-0.773
6360618,871.0,7418.0,1987.0,0.079,-0.017,-0.629,-0.773
6360634,879.0,7466.0,2055.0,0.079,-0.017,-0.628,-0.774
6360651,871.0,7484.0,2105.0,0.079,-0.018,-0.628,-0.774
6360667,803.0,7692.0,1975.0,0.078,-0.018,-0.627,-0.775
6360693,885.0,7644.0,1937.0,0.078,-0.019,-0.626,-0.776
6360709,937.0,7726.0,1941.0,0.078,-0.02,-0.625,-0.776
6360725,885.0,7690.0,2123.0,0.077,-0.02,-0.625,-0.777
6360741,895.0,7816.0,2227.0,0.077,-0.021,-0.624,-0.777
6360757,1003.0,7800.0,2403.0,0.077,-0.021,-0.624,-0.777
6360773,961.0,7916.0,2459.0,0.077,-0.02,-0.625,-0.777
6360799,939.0,7828.0,2553.0,0.077,-0.019,-0.625,-0.777
6360815,903.0,7680.0,2545.0,0.077,-0.019,-0.625,-0.777
6360831,917.0,7622.0,2365.0,0.077,-0.018,-0.625,-0.777
6360847,917.0,7682.0,2149.0,0.077,-0.018,-0.625,-0.776
6360863,915.0,7620.0,2207.0,0.077,-0.018,-0.625,-0.776
6360879,871.0,7708.0,2249.0,0.077,-0.018,-0.625,-0.776
6360905,827.0,7754.0,2039.0,0.077,-0.018,-0.625,-0.776
6360921,813.0,7764.0,1975.0,0.076,-0.019,-0.625,-0.777
6360937,799.0,7648.0,2045.0,0.076,-0.02,-0.625,-0.777
6360953,799.0,7634.0,2127.0,0.075,-0.021,-0.625,-0.777
6360969,665.0,7656.0,1961.0,0.075,-0.021,-0.625,-0.777
6360985,1009.0,7922.0,2311.0,0.074,-0.022,-0.625,-0.777
6361011,935.0,7736.0,2441.0,0.074,-0.023,-0.625,-0.777
6361027,967.0,7758.0,2699.0,0.074,-0.023,-0.625,-0.777
6361043,1003.0,7574.0,2761.0,0.074,-0.022,-0.625,-0.777
6361059,917.0,7622.0,2653.0,0.075,-0.021,-0.626,-0.776
6361076,825.0,7740.0,2473.0,0.076,-0.02,-0.627,-0.775
6361092,823.0,7790.0,2311.0,0.076,-0.019,-0.627,-0.775
6361108,813.0,7916.0,2211.0,0.077,-0.018,-0.628,-0.774
6361134,849.0,7922.0,2121.0,0.077,-0.017,-0.628,-0.774
6361150,857.0,7810.0,2141.0,0.077,-0.017,-0.628,-0.774
6361166,899.0,7858.0,2093.0,0.078,-0.017,-0.628,-0.774
6361182,989.0,7824.0,2073.0,0.078,-0.017,-0.628,-0.774
6361198,957.0,7882.0,2095.0,0.077,-0.017,-0.628,-0.774
6361224,947.0,7910.0,2149.0,0.077,-0.017,-0.628,-0.774
6361240,985.0,7966.0,2203.0,0.077,-0.018,-0.628,-0.774
6361256,965.0,8006.0,2137.0,0.076,-0.018,-0.627,-0.775
6361272,1001.0,7806.0,2145.0,0.076,-0.019,-0.627,-0.775
6361288,1012.0,7585.0,2113.0,0.076,-0.02,-0.626,-0.776
6361304,1032.0,7533.0,1997.0,0.075,-0.021,-0.626,-0.776
6361330,1066.0,7547.0,2019.0,0.075,-0.021,-0.625,-0.776
6361346,932.0,7683.0,2235.0,0.074,-0.022,-0.625,-0.777
6361362,972.0,7797.0,2409.0,0.074,-0.023,-0.625,-0.777
6361378,988.0,7785.0,2447.0,0.074,-0.023,-0.625,-0.777
6361394,964.0,7753.0,2389.0,0.074,-0.024,-0.625,-0.777
6361410,978.0,7763.0,2279.0,0.074,-0.024,-0.625,-0.777
6361436,654.0,7817.0,1819.0,0.074,-0.024,-0.625,-0.777
6361452,1028.0,8055.0,2077.0,0.073,-0.025,-0.625,-0.777
6361468,1202.0,7931.0,2111.0,0.073,-0.026,-0.625,-0.777
6361484,1202.0,7845.0,2537.0,0.072,-0.026,-0.624,-0.778
6361500,1130.0,7419.0,2935.0,0.072,-0.026,-0.624,-0.778
6361516,1040.0,7217.0,2895.0,0.073,-0.026,-0.624,-0.778
6361542,1038.0,7511.0,2617.0,0.073,-0.025,-0.624,-0.778
6361558,988.0,7781.0,2351.0,0.074,-0.024,-0.624,-0.777
6361574,958.0,7993.0,2197.0,0.074,-0.024,-0.624,-0.777
6361591,964.0,7849.0,2125.0,0.075,-0.024,-0.624,-0.778
6361607,1004.0,7747.0,1901.0,0.075,-0.024,-0.623,-0.778
6361623,1046.0,7613.0,1993.0,0.076,-0.024,-0.623,-0.778
6361639,1126.0,7721.0,2097.0,0.076,-0.024,-0.623,-0.778
6361665,1094.0,7893.0,2173.0,0.076,-0.024,-0.623,-0.778
6361681,1132.0,7775.0,2135.0,0.077,-0.024,-0.622,-0.778
6361697,928.0,7857.0,2057.0,0.077,-0.024,-0.622,-0.778
6361713,968.0,7785.0,2073.0,0.077,-0.025,-0.622,-0.779
6361729,910.0,7841.0,1959.0,0.077,-0.025,-0.622,-0.779
6361745,882.0,7799.0,1735.0,0.077,-0.026,-0.622,-0.779
6361772,1074.0,7869.0,1799.0,0.076,-0.028,-0.622,-0.779
6361788,1086.0,7923.0,1999.0,0.075,-0.029,-0.621,-0.78
6361804,1234.0,7881.0,2081.0,0.074,-0.032,-0.62,-0.78
6361820,1264.0,7545.0,2177.0,0.072,-0.034,-0.619,-0.781
6361836,1356.0,7663.0,2285.0,0.071,-0.037,-0.618,-0.782
6361852,1298.0,7527.0,2343.0,0.07,-0.04,-0.617,-0.783
6361878,1284.0,7713.0,2471.0,0.068,-0.042,-0.617,-0.783
6361895,1322.0,7469.0,2619.0,0.067,-0.045,-0.616,-0.783
6361911,1270.0,7567.0,2675.0,0.066,-0.048,-0.616,-0.783
6361927,1362.0,7301.0,2693.0,0.065,-0.051,-0.616,-0.783
6361943,1212.0,7405.0,2627.0,0.065,-0.053,-0.617,-0.782
6361959,1186.0,7709.0,2511.0,0.065,-0.055,-0.618,-0.782
6361985,1158.0,7875.0,2337.0,0.065,-0.057,-0.618,-0.781
6362001,1174.0,8017.0,2219.0,0.065,-0.058,-0.618,-0.781
6362017,1178.0,7885.0,2145.0,0.064,-0.059,-0.618,-0.781
6362033,1226.0,7747.0,2223.0,0.064,-0.06,-0.618,-0.781
6362049,1374.0,7533.0,2291.0,0.065,-0.06,-0.618,-0.781
6362065,1410.0,7361.0,2401.0,0.065,-0.059,-0.618,-0.781
6362091,1314.0,7409.0,2475.0,0.066,-0.058,-0.62,-0.78
6362108,1316.0,7571.0,2299.0,0.067,-0.057,-0.621,-0.779
6362124,1400.0,7659.0,2285.0,0.068,-0.055,-0.623,-0.777
6362141,1394.0,7655.0,2169.0,0.069,-0.054,-0.625,-0.776
6362158,1374.0,7493.0,2053.0,0.07,-0.052,-0.626,-0.775
6362174,1322.0,7529.0,1987.0,0.071,-0.051,-0.629,-0.773
6362191,1336.0,7771.0,1939.0,0.072,-0.05,-0.631,-0.771
6362208,1358.0,7973.0,1783.0,0.073,-0.049,-0.633,-0.769
6362224,1348.0,8107.0,1649.0,0.073,-0.05,-0.634,-0.768
6362241,1346.0,8033.0,1557.0,0.073,-0.052,-0.634,-0.768
6362267,1440.0,7985.0,1745.0,0.073,-0.054,-0.633,-0.768
6362284,1538.0,7789.0,2125.0,0.073,-0.058,-0.632,-0.77
6362300,1800.0,7623.0,2425.0,0.074,-0.063,-0.629,-0.771
6362316,2014.0,7377.0,2627.0,0.074,-0.067,-0.626,-0.773
6362332,2206.0,6873.0,2793.0,0.075,-0.07,-0.623,-0.775
6362348,2158.0,6863.0,2751.0,0.076,-0.072,-0.622,-0.776
6362374,2214.0,6895.0,2695.0,0.078,-0.073,-0.622,-0.776
6362390,2052.0,7199.0,2403.0,0.081,-0.073,-0.623,-0.775
6362407,2100.0,7445.0,2167.0,0.083,-0.072,-0.624,-0.773
6362424,2168.0,7731.0,1937.0,0.086,-0.07,-0.626,-0.772
6362441,2142.0,7731.0,1679.0,0.089,-0.068,-0.628,-0.77
6362458,2252.0,7801.0,1589.0,0.092,-0.065,-0.63,-0.768
6362475,1898.0,7831.0,1547.0,0.095,-0.06,-0.633,-0.766
6362491,2010.0,7869.0,1781.0,0.098,-0.056,-0.635,-0.764
6362508,1996.0,7911.0,1997.0,0.101,-0.051,-0.638,-0.762
6362524,2048.0,7825.0,2141.0,0.104,-0.046,-0.64,-0.76
6362551,2076.0,7621.0,2233.0,0.106,-0.042,-0.641,-0.759
6362567,2052.0,7627.0,2337.0,0.109,-0.038,-0.643,-0.758
6362584,2054.0,7567.0,2175.0,0.112,-0.033,-0.644,-0.756
6362601,1996.0,7697.0,2085.0,0.114,-0.03,-0.645,-0.755
6362617,1976.0,7941.0,2075.0,0.116,-0.027,-0.646,-0.754
6362634,1960.0,8087.0,1897.0,0.118,-0.025,-0.645,-0.754
6362650,1942.0,8245.0,1815.0,0.12,-0.024,-0.644,-0.755
6362667,1998.0,8191.0,2059.0,0.121,-0.024,-0.643,-0.756
6362693,2000.0,7959.0,2341.0,0.123,-0.024,-0.641,-0.758
6362709,1994.0,7717.0,2699.0,0.125,-0.024,-0.638,-0.759
6362725,2224.0,7265.0,3185.0,0.128,-0.024,-0.636,-0.761
6362741,2478.0,6601.0,3665.0,0.131,-0.022,-0.634,-0.762
6362757,2264.0,6825.0,3447.0,0.136,-0.019,-0.633,-0.762
6362774,2462.0,6785.0,3113.0,0.14,-0.016,-0.633,-0.761
6362790,2312.0,6767.0,2797.0,0.145,-0.01,-0.634,-0.76
6362816,2036.0,7233.0,2633.0,0.15,-0.002,-0.636,-0.757
6362833,2034.0,7849.0,2747.0,0.155,0.007,-0.639,-0.753
6362849,1988.0,8269.0,2839.0,0.161,0.016,-0.641,-0.75
6362865,1954.0,8411.0,2753.0,0.166,0.026,-0.643,-0.747
6362881,2020.0,8139.0,2395.0,0.173,0.037,-0.645,-0.744
6362897,2194.0,7695.0,2053.0,0.18,0.049,-0.646,-0.74
6362923,2112.0,7067.0,1829.0,0.187,0.064,-0.65,-0.734
6362940,1542.0,7197.0,1543.0,0.195,0.08,-0.654,-0.726
6362957,1276.0,7365.0,1489.0,0.202,0.097,-0.66,-0.717
6362974,1038.0,7359.0,1307.0,0.21,0.114,-0.665,-0.708
6362991,652.0,7629.0,981.0,0.216,0.129,-0.669,-0.699
6363007,654.0,8075.0,821.0,0.222,0.143,-0.673,-0.691
6363024,876.0,8003.0,597.0,0.228,0.156,-0.676,-0.683
6363041,814.0,8363.0,453.0,0.235,0.168,-0.677,-0.677
6363058,1194.0,8613.0,369.0,0.241,0.178,-0.676,-0.673
6363075,1446.0,8617.0,303.0,0.249,0.186,-0.674,-0.67
6363091,1654.0,8527.0,263.0,0.258,0.194,-0.67,-0.668
6363117,1672.0,8249.0,255.0,0.267,0.202,-0.665,-0.667
6363133,1904.0,7909.0,243.0,0.276,0.21,-0.661,-0.666
6363150,1906.0,7695.0,205.0,0.285,0.217,-0.656,-0.664
6363167,1868.0,7633.0,141.0,0.295,0.226,-0.652,-0.661
6363183,1840.0,7557.0,43.0,0.305,0.234,-0.649,-0.657
6363199,1748.0,7571.0,-61.0,0.315,0.243,-0.645,-0.652
6363216,1640.0,7551.0,-183.0,0.324,0.252,-0.642,-0.647
6363232,1514.0,7449.0,-273.0,0.332,0.261,-0.64,-0.642
6363259,1374.0,7433.0,-439.0,0.34,0.271,-0.638,-0.635
6363275,1268.0,7635.0,-447.0,0.348,0.28,-0.637,-0.629
6363291,1234.0,7827.0,-491.0,0.355,0.289,-0.635,-0.622
6363307,1214.0,8011.0,-545.0,0.362,0.298,-0.633,-0.616
6363323,1290.0,8023.0,-547.0,0.37,0.305,-0.63,-0.611
6363339,1332.0,7909.0,-493.0,0.378,0.312,-0.627,-0.605
6363365,1398.0,7819.0,-479.0,0.386,0.319,-0.623,-0.6
6363381,1494.0,7813.0,-551.0,0.395,0.326,-0.619,-0.595
6363398,1658.0,7843.0,-583.0,0.405,0.332,-0.615,-0.59
6363414,1730.0,7719.0,-655.0,0.415,0.339,-0.61,-0.584
6363431,1780.0,7817.0,-807.0,0.425,0.347,-0.606,-0.576
6363448,1786.0,7883.0,-975.0,0.435,0.354,-0.601,-0.569
6363465,1696.0,7821.0,-1087.0,0.446,0.363,-0.597,-0.56
6363482,1578.0,7743.0,-1251.0,0.456,0.372,-0.592,-0.55
6363499,1438.0,7801.0,-1415.0,0.466,0.381,-0.588,-0.54
6363516,1290.0,7763.0,-1569.0,0.476,0.391,-0.584,-0.529
6363533,1158.0,7665.0,-1699.0,0.484,0.4,-0.581,-0.518
6363560,904.0,7615.0,-1797.0,0.492,0.41,-0.577,-0.506
6363577,720.0,7727.0,-1889.0,0.5,0.419,-0.575,-0.494
6363593,642.0,7955.0,-1959.0,0.507,0.429,-0.572,-0.482
6363609,514.0,8041.0,-2045.0,0.513,0.437,-0.569,-0.471
6363625,570.0,8167.0,-2069.0,0.519,0.444,-0.566,-0.461
6363641,476.0,8237.0,-2141.0,0.525,0.451,-0.564,-0.45
6363657,464.0,8261.0,-2167.0,0.531,0.458,-0.561,-0.44
6363683,382.0,8309.0,-2209.0,0.537,0.464,-0.558,-0.431
6363699,332.0,8359.0,-2179.0,0.542,0.47,-0.555,-0.422
6363716,326.0,8477.0,-2223.0,0.546,0.476,-0.552,-0.413
6363732,184.0,8595.0,-2193.0,0.55,0.481,-0.55,-0.404
6363748,192.0,8675.0,-2133.0,0.554,0.486,-0.548,-0.396
6363765,84.0,8647.0,-2051.0,0.556,0.491,-0.546,-0.389
6363782,70.0,8591.0,-1997.0,0.559,0.495,-0.544,-0.383
6363799,-54.0,8527.0,-1925.0,0.561,0.499,-0.543,-0.377
6363816,-62.0,8513.0,-1767.0,0.562,0.501,-0.542,-0.373
6363842,-64.0,8483.0,-1693.0,0.563,0.504,-0.541,-0.37
6363858,16.0,8467.0,-1533.0,0.564,0.505,-0.541,-0.367
6363874,98.0,8389.0,-1383.0,0.565,0.506,-0.54,-0.365
6363890,70.0,8293.0,-1263.0,0.565,0.507,-0.54,-0.363
6363906,130.0,8255.0,-1091.0,0.565,0.507,-0.541,-0.362
6363923,104.0,8291.0,-1049.0,0.565,0.508,-0.541,-0.361
6363940,120.0,7855.0,-1005.0,0.564,0.508,-0.542,-0.361
6363967,60.0,9005.0,-1133.0,0.563,0.508,-0.543,-0.359
6363984,148.0,8581.0,-1023.0,0.563,0.508,-0.544,-0.36
6364001,254.0,8857.0,-1085.0,0.562,0.507,-0.545,-0.361
6364017,248.0,8787.0,-1025.0,0.562,0.506,-0.546,-0.362
6364034,278.0,8879.0,-1061.0,0.561,0.504,-0.546,-0.365
6364050,338.0,8861.0,-955.0,0.56,0.502,-0.547,-0.368
6364067,446.0,8865.0,-917.0,0.559,0.5,-0.547,-0.371
6364083,452.0,8843.0,-893.0,0.558,0.497,-0.547,-0.376
6364110,600.0,8863.0,-797.0,0.557,0.495,-0.548,-0.381
6364126,800.0,8827.0,-691.0,0.556,0.491,-0.547,-0.387
6364142,848.0,8731.0,-611.0,0.555,0.488,-0.547,-0.393
6364158,950.0,8597.0,-541.0,0.553,0.485,-0.547,-0.399
6364174,968.0,8499.0,-503.0,0.552,0.483,-0.546,-0.405
6364190,980.0,8421.0,-357.0,0.55,0.48,-0.546,-0.412
6364206,984.0,8329.0,-361.0,0.548,0.477,-0.545,-0.418
6364232,1092.0,8263.0,-255.0,0.546,0.474,-0.545,-0.424
6364249,1122.0,8571.0,-247.0,0.544,0.471,-0.545,-0.43
6364265,1322.0,8765.0,-235.0,0.542,0.467,-0.546,-0.436
6364282,1512.0,9027.0,-125.0,0.541,0.462,-0.547,-0.442
6364298,1644.0,9135.0,87.0,0.539,0.457,-0.547,-0.449
6364315,1656.0,8757.0,261.0,0.537,0.451,-0.547,-0.457
6364332,1576.0,8215.0,509.0,0.535,0.446,-0.547,-0.464
6364349,1582.0,7819.0,725.0,0.533,0.44,-0.547,-0.472
6364366,1684.0,8005.0,855.0,0.531,0.435,-0.548,-0.479
6364392,1892.0,8405.0,883.0,0.529,0.429,-0.549,-0.484
6364408,2088.0,8665.0,983.0,0.529,0.424,-0.549,-0.49
6364424,2028.0,8521.0,1041.0,0.529,0.419,-0.548,-0.495
6364440,1878.0,7845.0,1181.0,0.529,0.414,-0.546,-0.501
6364457,1650.0,7271.0,1253.0,0.529,0.411,-0.544,-0.506
6364473,1360.0,6741.0,1263.0,0.529,0.409,-0.541,-0.511
6364490,1166.0,6265.0,1175.0,0.529,0.407,-0.537,-0.515
6364507,1132.0,6173.0,1011.0,0.53,0.406,-0.534,-0.518
6364533,1138.0,6289.0,875.0,0.532,0.405,-0.531,-0.521
6364549,1216.0,6613.0,677.0,0.534,0.405,-0.528,-0.522
6364566,1384.0,6933.0,393.0,0.536,0.405,-0.525,-0.523
6364582,1410.0,7009.0,73.0,0.538,0.406,-0.522,-0.523
6364598,1464.0,7113.0,-143.0,0.54,0.407,-0.519,-0.523
6364614,1434.0,7429.0,-447.0,0.541,0.41,-0.518,-0.521
6364640,1392.0,7805.0,-791.0,0.541,0.413,-0.517,-0.519
6364657,1368.0,8153.0,-1005.0,0.541,0.416,-0.517,-0.516
6364673,1330.0,8415.0,-1191.0,0.54,0.419,-0.518,-0.514
6364690,1128.0,8265.0,-1277.0,0.539,0.421,-0.519,-0.512
6364706,896.0,7931.0,-1249.0,0.537,0.423,-0.521,-0.511
6364723,860.0,7613.0,-979.0,0.535,0.422,-0.523,-0.512
6364740,494.0,7029.0,-905.0,0.532,0.421,-0.526,-0.512
6364757,504.0,7325.0,-685.0,0.53,0.419,-0.53,-0.513
6364773,350.0,7401.0,-479.0,0.527,0.415,-0.534,-0.514
6364799,462.0,7321.0,-339.0,0.524,0.411,-0.538,-0.516
6364816,546.0,7365.0,-117.0,0.521,0.406,-0.543,-0.518
6364832,614.0,7485.0,115.0,0.518,0.401,-0.548,-0.521
6364848,768.0,7659.0,265.0,0.514,0.396,-0.553,-0.523
6364865,946.0,7953.0,359.0,0.51,0.39,-0.558,-0.526
6364881,1182.0,8207.0,573.0,0.506,0.385,-0.562,-0.528
6364897,1380.0,8291.0,595.0,0.502,0.381,-0.567,-0.53
6364923,1412.0,8403.0,675.0,0.498,0.377,-0.572,-0.532
6364939,1432.0,8559.0,681.0,0.494,0.373,-0.576,-0.534
6364956,1354.0,8563.0,661.0,0.489,0.37,-0.581,-0.535
6364972,1322.0,8539.0,607.0,0.485,0.367,-0.585,-0.536
6364988,1124.0,8415.0,565.0,0.48,0.364,-0.59,-0.537
6365004,1100.0,8351.0,503.0,0.475,0.361,-0.594,-0.539
6365020,966.0,8257.0,471.0,0.47,0.358,-0.599,-0.541
6365046,916.0,8151.0,389.0,0.465,0.354,-0.603,-0.543
6365062,896.0,7979.0,303.0,0.46,0.35,-0.608,-0.545
6365078,768.0,7981.0,185.0,0.454,0.346,-0.612,-0.547
6365094,748.0,7977.0,59.0,0.448,0.341,-0.617,-0.55
6365110,640.0,7925.0,-61.0,0.443,0.337,-0.621,-0.552
6365126,616.0,8029.0,-181.0,0.436,0.332,-0.626,-0.554
6365152,536.0,8191.0,-355.0,0.43,0.326,-0.632,-0.557
6365168,550.0,8379.0,-465.0,0.423,0.32,-0.637,-0.559
6365184,580.0,8703.0,-583.0,0.415,0.314,-0.642,-0.562
6365200,604.0,9085.0,-619.0,0.407,0.307,-0.648,-0.566
6365216,668.0,9083.0,-621.0,0.399,0.3,-0.652,-0.57
6365233,842.0,8931.0,-581.0,0.39,0.293,-0.656,-0.576
6365250,960.0,8837.0,-451.0,0.381,0.285,-0.66,-0.581
6365276,928.0,8861.0,-419.0,0.371,0.278,-0.664,-0.587
6365293,1066.0,8883.0,-381.0,0.36,0.271,-0.668,-0.592
6365309,1208.0,8871.0,-339.0,0.35,0.264,-0.671,-0.598
6365326,1296.0,8645.0,-267.0,0.339,0.257,-0.674,-0.604
6365342,1278.0,8433.0,-255.0,0.328,0.251,-0.677,-0.609
6365358,1224.0,8341.0,-253.0,0.318,0.245,-0.68,-0.614
6365375,1142.0,8195.0,-297.0,0.306,0.24,-0.683,-0.618
6365401,1052.0,7925.0,-305.0,0.296,0.235,-0.685,-0.623
6365418,872.0,7743.0,-431.0,0.285,0.229,-0.688,-0.627
6365435,802.0,7789.0,-619.0,0.274,0.224,-0.691,-0.63
6365451,618.0,7873.0,-805.0,0.264,0.219,-0.693,-0.634
6365467,558.0,7875.0,-885.0,0.254,0.213,-0.696,-0.637
6365484,522.0,7989.0,-999.0,0.244,0.207,-0.698,-0.64
6365501,404.0,8179.0,-1075.0,0.234,0.2,-0.701,-0.643
6365518,348.0,8393.0,-1207.0,0.224,0.194,-0.703,-0.646
6365535,358.0,8511.0,-1195.0,0.213,0.188,-0.705,-0.649
6365552,392.0,8707.0,-1185.0,0.203,0.181,-0.707,-0.652
6365569,344.0,8755.0,-1159.0,0.192,0.175,-0.709,-0.656
6365586,318.0,8705.0,-1117.0,0.181,0.17,-0.71,-0.659
6365613,362.0,8609.0,-1057.0,0.17,0.164,-0.711,-0.663
6365629,310.0,8443.0,-955.0,0.159,0.159,-0.711,-0.666
6365645,326.0,8397.0,-945.0,0.148,0.155,-0.712,-0.668
6365662,344.0,8469.0,-795.0,0.138,0.152,-0.713,-0.671
6365679,238.0,8683.0,-593.0,0.127,0.149,-0.714,-0.673
6365696,184.0,8805.0,-347.0,0.116,0.147,-0.714,-0.675
6365713,-66.0,8413.0,-295.0,0.107,0.145,-0.713,-0.678
6365730,-176.0,8293.0,-457.0,0.098,0.145,-0.712,-0.68
6365747,-422.0,8215.0,-663.0,0.089,0.146,-0.713,-0.68
6365764,-1032.0,8235.0,-1275.0,0.08,0.149,-0.715,-0.679
6365781,-1786.0,9641.0,-1457.0,0.07,0.152,-0.717,-0.677
6365808,-2394.0,10699.0,-1783.0,0.06,0.155,-0.717,-0.677
6365824,-2640.0,10113.0,-2081.0,0.048,0.158,-0.715,-0.679
6365840,-3072.0,9501.0,-2383.0,0.036,0.16,-0.713,-0.682
6365857,-3434.0,9751.0,-2055.0,0.022,0.163,-0.711,-0.684
6365873,-3366.0,9737.0,-1555.0,0.007,0.166,-0.708,-0.687
6365890,-3568.0,9553.0,-1205.0,0.01,-0.169,0.704,0.69
6365906,-3836.0,8745.0,-1381.0,0.026,-0.172,0.699,0.693
6365923,-3878.0,9457.0,-987.0,0.042,-0.175,0.694,0.697
6365940,-4010.0,10169.0,-651.0,0.057,-0.179,0.685,0.704
6365967,-3620.0,8815.0,593.0,0.071,-0.183,0.672,0.714
6365983,-3378.0,6799.0,1223.0,0.083,-0.188,0.659,0.723
6365999,-3324.0,5721.0,1455.0,0.096,-0.194,0.649,0.729
6366015,-2950.0,5359.0,935.0,0.108,-0.2,0.642,0.732
6366031,-2650.0,6623.0,925.0,0.119,-0.207,0.636,0.734
6366048,-2306.0,6369.0,1117.0,0.128,-0.213,0.628,0.737
6366065,-1928.0,5179.0,1297.0,0.135,-0.219,0.622,0.74
6366091,-1746.0,4749.0,1163.0,0.141,-0.225,0.618,0.74
6366107,-1574.0,5337.0,883.0,0.147,-0.229,0.619,0.737
6366123,-1938.0,6851.0,599.0,0.153,-0.233,0.621,0.732
6366139,-2434.0,8143.0,25.0,0.156,-0.235,0.622,0.73
6366155,-2830.0,7157.0,65.0,0.16,-0.238,0.62,0.73
6366171,-2780.0,6283.0,-25.0,0.164,-0.24,0.619,0.73
6366197,-2854.0,5955.0,-213.0,0.169,-0.24,0.619,0.728
6366213,-3020.0,6565.0,-363.0,0.176,-0.239,0.621,0.725
6366229,-2996.0,6983.0,-375.0,0.182,-0.237,0.624,0.722
6366246,-3102.0,6765.0,-769.0,0.188,-0.235,0.627,0.719
6366263,-2578.0,7183.0,-473.0,0.195,-0.232,0.63,0.716
6366280,-2160.0,7451.0,129.0,0.202,-0.23,0.633,0.711
6366297,-2396.0,6875.0,359.0,0.21,-0.228,0.637,0.706
6366314,-2686.0,6017.0,527.0,0.218,-0.227,0.643,0.698
6366331,-3026.0,4873.0,-51.0,0.227,-0.225,0.653,0.687
6366347,-2790.0,4765.0,-1639.0,0.236,-0.221,0.665,0.674
6366374,-2856.0,7671.0,-1661.0,0.244,-0.217,0.676,0.66
6366391,-3730.0,8469.0,-681.0,0.25,-0.215,0.683,0.652
6366407,-4238.0,6175.0,209.0,0.253,-0.213,0.686,0.648
6366423,-4324.0,4757.0,251.0,0.255,-0.21,0.691,0.643
6366440,-4934.0,4351.0,213.0,0.258,-0.206,0.699,0.635
6366457,-5292.0,4853.0,-149.0,0.261,-0.199,0.709,0.624
6366474,-5176.0,6273.0,-895.0,0.264,-0.191,0.721,0.612
6366491,-4994.0,7793.0,-1397.0,0.266,-0.183,0.73,0.602
6366507,-5022.0,7777.0,-1441.0,0.267,-0.178,0.738,0.594
6366533,-5268.0,7423.0,-1507.0,0.267,-0.173,0.744,0.588
6366549,-5318.0,6717.0,-1471.0,0.269,-0.168,0.75,0.58
6366565,-5114.0,7077.0,-1611.0,0.27,-0.163,0.757,0.572
6366582,-5212.0,8059.0,-1725.0,0.272,-0.16,0.763,0.564
6366599,-4960.0,8295.0,-1669.0,0.272,-0.157,0.767,0.56
6366615,-4860.0,7857.0,-1457.0,0.271,-0.155,0.768,0.56
6366631,-4882.0,6485.0,-1369.0,0.269,-0.154,0.768,0.56
6366657,-4948.0,6145.0,-1071.0,0.268,-0.154,0.769,0.56
6366673,-4992.0,6305.0,-999.0,0.266,-0.154,0.77,0.559
6366690,-4622.0,6505.0,-1139.0,0.265,-0.154,0.772,0.557
6366707,-4366.0,6771.0,-1103.0,0.264,-0.156,0.773,0.556
6366723,-4194.0,6767.0,-1151.0,0.262,-0.158,0.773,0.555
6366739,-4070.0,6511.0,-1211.0,0.26,-0.162,0.773,0.555
6366755,-4080.0,5833.0,-1281.0,0.257,-0.166,0.773,0.556
6366772,-3814.0,5527.0,-1395.0,0.253,-0.171,0.773,0.557
6366798,-3846.0,5301.0,-1435.0,0.249,-0.175,0.773,0.556
6366814,-3958.0,5119.0,-1585.0,0.246,-0.179,0.774,0.556
6366831,-3608.0,5725.0,-1703.0,0.242,-0.182,0.775,0.554
6366848,-3784.0,6051.0,-1833.0,0.238,-0.186,0.776,0.554
6366865,-3532.0,5865.0,-1963.0,0.233,-0.189,0.776,0.555
6366882,-3948.0,6355.0,-2235.0,0.228,-0.192,0.776,0.557
6366898,-4042.0,6603.0,-2371.0,0.222,-0.195,0.775,0.559
6366916,-4710.0,7003.0,-2547.0,0.217,-0.199,0.773,0.562
6366932,-5038.0,9513.0,-2565.0,0.212,-0.204,0.769,0.568
6366958,-4928.0,6813.0,-2343.0,0.206,-0.21,0.763,0.575
6366974,-4716.0,5549.0,-2451.0,0.201,-0.214,0.759,0.581
6366990,-4352.0,4973.0,-2529.0,0.197,-0.217,0.756,0.585
6367006,-3606.0,5693.0,-2143.0,0.193,-0.219,0.753,0.589
6367022,-3652.0,5283.0,-2007.0,0.188,-0.222,0.75,0.594
6367038,-3656.0,4619.0,-1841.0,0.184,-0.224,0.748,0.597
6367065,-3330.0,4959.0,-1565.0,0.18,-0.225,0.746,0.6
6367081,-4328.0,6253.0,-1503.0,0.177,-0.227,0.745,0.602
6367098,-4722.0,7863.0,-1213.0,0.174,-0.231,0.745,0.601
6367115,-5748.0,10199.0,-1109.0,0.175,-0.238,0.745,0.598
6367131,-6858.0,10163.0,-1333.0,0.176,-0.245,0.745,0.595
6367148,-6354.0,8151.0,-1121.0,0.177,-0.25,0.744,0.594
6367164,-6426.0,6781.0,-1005.0,0.176,-0.253,0.743,0.594
6367181,-5846.0,7499.0,-1051.0,0.175,-0.256,0.741,0.596
6367197,-6060.0,6419.0,-1303.0,0.174,-0.26,0.738,0.598
6367224,-5274.0,6685.0,-1255.0,0.173,-0.263,0.735,0.6
6367240,-5296.0,6985.0,-1445.0,0.173,-0.267,0.731,0.603
6367256,-5140.0,6645.0,-1655.0,0.173,-0.27,0.727,0.607
6367272,-4518.0,6527.0,-1617.0,0.172,-0.272,0.723,0.61
6367288,-4254.0,6141.0,-1511.0,0.172,-0.274,0.72,0.614
6367304,-3970.0,5497.0,-1233.0,0.172,-0.275,0.718,0.616
6367330,-4006.0,5249.0,-1173.0,0.173,-0.275,0.717,0.616
6367346,-4106.0,5811.0,-1235.0,0.174,-0.275,0.718,0.615
6367363,-4648.0,6563.0,-1451.0,0.175,-0.276,0.719,0.613
6367380,-4596.0,7323.0,-1419.0,0.177,-0.276,0.72,0.612
6367397,-5140.0,7533.0,-1499.0,0.179,-0.279,0.719,0.611
6367413,-5352.0,8003.0,-1703.0,0.181,-0.282,0.716,0.612
6367430,-5800.0,7805.0,-1737.0,0.182,-0.286,0.712,0.615
6367446,-5792.0,6885.0,-1507.0,0.184,-0.289,0.706,0.619
6367472,-5290.0,5789.0,-1307.0,0.186,-0.293,0.7,0.624
6367488,-5056.0,4909.0,-1039.0,0.188,-0.295,0.695,0.628
6367504,-4892.0,4339.0,-827.0,0.191,-0.298,0.692,0.629
6367521,-4836.0,4113.0,-419.0,0.195,-0.299,0.69,0.63
6367538,-4942.0,4271.0,-225.0,0.199,-0.299,0.691,0.628
6367555,-4976.0,4633.0,-11.0,0.204,-0.299,0.693,0.624
6367572,-5134.0,5419.0,141.0,0.209,-0.298,0.695,0.62
6367588,-5444.0,6243.0,29.0,0.215,-0.297,0.698,0.615
6367604,-5726.0,7169.0,-255.0,0.22,-0.298,0.7,0.611
6367630,-5808.0,7533.0,-609.0,0.224,-0.299,0.7,0.608
6367646,-5426.0,7243.0,-903.0,0.228,-0.302,0.698,0.608
6367662,-5198.0,6859.0,-1133.0,0.231,-0.304,0.695,0.609
6367679,-4924.0,6309.0,-1251.0,0.233,-0.307,0.691,0.612
6367696,-4780.0,5775.0,-1439.0,0.234,-0.31,0.687,0.614
6367713,-4912.0,5339.0,-1415.0,0.236,-0.312,0.684,0.616
6367729,-4850.0,5017.0,-1203.0,0.238,-0.312,0.682,0.617
6367746,-4892.0,4875.0,-899.0,0.239,-0.312,0.681,0.619
6367765,-4988.0,4741.0,-581.0,0.238,-0.31,0.68,0.62
6367782,-5348.0,4453.0,-193.0,0.237,-0.307,0.68,0.622
6367808,-5282.0,4093.0,-95.0,0.234,-0.304,0.68,0.625
6367824,-5714.0,4389.0,-335.0,0.229,-0.302,0.678,0.63
6367840,-5852.0,4367.0,-303.0,0.222,-0.299,0.676,0.635
6367856,-5802.0,4437.0,-435.0,0.215,-0.296,0.674,0.641
6367872,-5804.0,4749.0,-851.0,0.209,-0.292,0.672,0.648
6367888,-5770.0,5199.0,-1289.0,0.202,-0.289,0.67,0.654
6367915,-5802.0,5623.0,-1519.0,0.195,-0.285,0.668,0.659
6367931,-6112.0,6379.0,-1341.0,0.19,-0.28,0.667,0.663
6367948,-5758.0,6635.0,-1213.0,0.186,-0.275,0.668,0.666
6367964,-4712.0,5317.0,-1247.0,0.182,-0.269,0.669,0.668
6367981,-4586.0,4749.0,-1025.0,0.179,-0.263,0.672,0.669
6367997,-4728.0,6573.0,-851.0,0.178,-0.257,0.677,0.666
6368014,-4654.0,7853.0,-991.0,0.176,-0.253,0.681,0.664
6368031,-4106.0,8157.0,-743.0,0.174,-0.249,0.685,0.662
6368048,-4156.0,8301.0,-295.0,0.172,-0.246,0.688,0.661
6368066,-4404.0,9489.0,-475.0,0.17,-0.245,0.691,0.659
6368083,-4812.0,9269.0,-749.0,0.167,-0.244,0.693,0.658
6368109,-4766.0,9145.0,-905.0,0.163,-0.243,0.693,0.658
6368126,-4876.0,8195.0,-955.0,0.16,-0.243,0.693,0.659
6368143,-5250.0,8139.0,-887.0,0.157,-0.243,0.693,0.66
6368159,-5170.0,7829.0,-771.0,0.155,-0.243,0.694,0.66
6368175,-5046.0,7141.0,-523.0,0.154,-0.242,0.694,0.66
6368191,-5070.0,7441.0,-219.0,0.154,-0.242,0.695,0.66
6368207,-4948.0,7457.0,-19.0,0.154,-0.242,0.695,0.659
6368233,-4968.0,7141.0,191.0,0.155,-0.242,0.696,0.658
6368250,-4910.0,6999.0,289.0,0.156,-0.243,0.696,0.657
6368267,-4744.0,7031.0,195.0,0.157,-0.245,0.696,0.656
6368284,-4670.0,7007.0,95.0,0.157,-0.247,0.696,0.656
6368301,-4486.0,6465.0,85.0,0.157,-0.249,0.695,0.656
6368318,-4444.0,6349.0,75.0,0.157,-0.252,0.694,0.656
6368335,-4288.0,6467.0,-87.0,0.157,-0.254,0.693,0.656
6368352,-4272.0,6527.0,-159.0,0.156,-0.256,0.692,0.656
6368369,-4484.0,6455.0,-101.0,0.155,-0.258,0.692,0.656
6368386,-4466.0,6425.0,33.0,0.154,-0.26,0.691,0.656
6368402,-4496.0,6459.0,29.0,0.155,-0.261,0.691,0.656
6368419,-4636.0,6783.0,1.0,0.155,-0.263,0.691,0.655
6368436,-4830.0,6903.0,-173.0,0.157,-0.265,0.691,0.654
6368463,-5018.0,6765.0,-271.0,0.159,-0.266,0.69,0.655
6368480,-5186.0,6177.0,-399.0,0.161,-0.268,0.688,0.655
6368497,-5406.0,5973.0,-519.0,0.162,-0.27,0.686,0.656
6368514,-5108.0,6241.0,-841.0,0.164,-0.271,0.685,0.656
6368532,-5026.0,6631.0,-1169.0,0.165,-0.272,0.684,0.656
6368549,-4904.0,6615.0,-1215.0,0.165,-0.272,0.683,0.657
6368565,-4594.0,6139.0,-933.0,0.166,-0.272,0.683,0.657
6368582,-4546.0,6083.0,-615.0,0.167,-0.272,0.684,0.656
6368598,-4420.0,6535.0,-523.0,0.169,-0.272,0.686,0.654
6368614,-4218.0,7091.0,-623.0,0.17,-0.273,0.687,0.652
6368640,-4416.0,7385.0,-663.0,0.17,-0.275,0.687,0.651
6368656,-4638.0,7245.0,-675.0,0.17,-0.279,0.685,0.652
6368673,-4856.0,6599.0,-683.0,0.17,-0.282,0.682,0.653
6368689,-5232.0,6179.0,-731.0,0.169,-0.286,0.68,0.654
6368705,-5392.0,5919.0,-733.0,0.169,-0.288,0.679,0.654
6368721,-5476.0,5725.0,-745.0,0.17,-0.29,0.678,0.653
6368737,-5538.0,5687.0,-633.0,0.171,-0.292,0.678,0.652
6368763,-5734.0,5833.0,-483.0,0.172,-0.292,0.679,0.651
6368780,-5716.0,5855.0,-219.0,0.174,-0.292,0.679,0.651
6368798,-5384.0,5989.0,-255.0,0.175,-0.292,0.679,0.65
6368815,-5240.0,6029.0,-215.0,0.176,-0.292,0.679,0.65
6368832,-5160.0,6127.0,-167.0,0.176,-0.292,0.678,0.651
6368848,-5058.0,6381.0,-265.0,0.177,-0.291,0.678,0.652
6368865,-4976.0,6575.0,-455.0,0.178,-0.291,0.677,0.652
6368882,-4730.0,6763.0,-599.0,0.178,-0.29,0.677,0.652
6368899,-4544.0,6907.0,-699.0,0.179,-0.29,0.677,0.653
6368916,-4510.0,6697.0,-779.0,0.18,-0.289,0.677,0.653
6368932,-4764.0,6561.0,-789.0,0.181,-0.289,0.676,0.653
6368949,-4718.0,6301.0,-811.0,0.182,-0.29,0.675,0.654
6368976,-4814.0,5865.0,-527.0,0.183,-0.29,0.674,0.654
6368992,-4752.0,5765.0,-221.0,0.183,-0.29,0.674,0.654
6369008,-4816.0,5867.0,-45.0,0.184,-0.29,0.674,0.655
6369024,-4922.0,6181.0,-131.0,0.184,-0.29,0.674,0.654
6369040,-5004.0,6329.0,-135.0,0.184,-0.29,0.674,0.654
6369056,-5054.0,6193.0,-165.0,0.183,-0.289,0.674,0.655
6369082,-5062.0,6295.0,-235.0,0.183,-0.289,0.674,0.655
6369099,-5232.0,6269.0,-249.0,0.182,-0.289,0.674,0.655
6369116,-5150.0,6097.0,-273.0,0.181,-0.289,0.673,0.656
6369133,-5206.0,6167.0,-235.0,0.181,-0.288,0.673,0.657
6369150,-5094.0,6065.0,-297.0,0.18,-0.288,0.673,0.658
6369167,-4942.0,5917.0,-277.0,0.179,-0.287,0.672,0.659
6369184,-4790.0,5669.0,-299.0,0.178,-0.286,0.672,0.659
6369201,-4810.0,5359.0,-199.0,0.177,-0.285,0.673,0.659
6369218,-4490.0,5605.0,-159.0,0.176,-0.284,0.674,0.659
6369235,-4128.0,5513.0,-179.0,0.175,-0.282,0.676,0.658
6369252,-4252.0,4691.0,23.0,0.174,-0.28,0.678,0.657
6369270,-4144.0,3697.0,33.0,0.173,-0.278,0.681,0.655
6369286,-4334.0,2679.0,143.0,0.173,-0.274,0.688,0.65
6369312,-3406.0,4297.0,-737.0,0.172,-0.269,0.696,0.643
6369328,-4094.0,6193.0,-1311.0,0.169,-0.264,0.704,0.637
6369344,-3354.0,6605.0,-1591.0,0.165,-0.258,0.711,0.633
6369361,-3070.0,6051.0,-1145.0,0.159,-0.253,0.716,0.631
6369378,-3100.0,4759.0,-705.0,0.153,-0.247,0.72,0.631
6369395,-2960.0,4947.0,-649.0,0.145,-0.241,0.725,0.629
6369412,-2958.0,5495.0,-905.0,0.134,-0.233,0.73,0.628
6369429,-2392.0,4879.0,-953.0,0.123,-0.224,0.735,0.628
6369445,-1788.0,5335.0,-1031.0,0.11,-0.215,0.74,0.628
6369472,-1412.0,5945.0,-1285.0,0.097,-0.205,0.745,0.628
6369488,-1110.0,6641.0,-1157.0,0.083,-0.195,0.749,0.627
6369505,-674.0,6561.0,-941.0,0.069,-0.183,0.754,0.627
6369521,-416.0,5737.0,-761.0,0.055,-0.17,0.76,0.625
6369537,30.0,5539.0,-1089.0,0.04,-0.156,0.765,0.624
6369553,-190.0,6893.0,-1521.0,0.026,-0.142,0.77,0.622
6369569,286.0,6719.0,-1861.0,0.01,-0.126,0.773,0.622
6369595,998.0,6543.0,-1725.0,0.006,0.109,-0.776,-0.622
6369612,2220.0,6677.0,-2017.0,0.022,0.089,-0.778,-0.622
6369629,2626.0,8621.0,-2683.0,0.039,0.07,-0.779,-0.622
6369646,3172.0,8027.0,-2967.0,0.057,0.048,-0.778,-0.624
6369663,2992.0,8155.0,-2455.0,0.077,0.026,-0.774,-0.627
6369680,3524.0,7167.0,-1341.0,0.096,0.003,-0.77,-0.631
6369697,3690.0,7361.0,-857.0,0.117,-0.02,-0.765,-0.633
6369713,3552.0,9945.0,-1167.0,0.136,-0.044,-0.761,-0.633
6369730,4276.0,8359.0,-1379.0,0.155,-0.069,-0.754,-0.634
6369756,5446.0,8531.0,-1269.0,0.174,-0.093,-0.747,-0.635
6369773,5792.0,9481.0,-1335.0,0.191,-0.118,-0.737,-0.638
6369790,5782.0,8519.0,-1079.0,0.206,-0.143,-0.726,-0.641
6369807,5804.0,7709.0,-653.0,0.221,-0.17,-0.713,-0.643
6369824,6708.0,8295.0,-507.0,0.234,-0.199,-0.7,-0.644
6369841,7674.0,6949.0,-195.0,0.247,-0.228,-0.687,-0.644
6369858,9030.0,6399.0,245.0,0.259,-0.257,-0.674,-0.643
6369875,9844.0,7535.0,1071.0,0.272,-0.282,-0.661,-0.64
6369892,9134.0,7049.0,1137.0,0.285,-0.305,-0.65,-0.636
6369908,8596.0,9335.0,539.0,0.298,-0.324,-0.64,-0.63
6369924,7832.0,10085.0,833.0,0.308,-0.341,-0.632,-0.624
6369951,7958.0,8035.0,2087.0,0.319,-0.354,-0.627,-0.616
6369968,7140.0,9457.0,1503.0,0.329,-0.361,-0.625,-0.609
6369985,4956.0,13089.0,685.0,0.335,-0.366,-0.624,-0.604
6370002,4624.0,12675.0,681.0,0.337,-0.371,-0.621,-0.603
6370019,5572.0,9149.0,1323.0,0.337,-0.371,-0.618,-0.606
6370036,4324.0,9993.0,641.0,0.336,-0.367,-0.618,-0.609
6370053,4060.0,9115.0,603.0,0.334,-0.361,-0.619,-0.612
6370070,5674.0,8563.0,1041.0,0.333,-0.352,-0.622,-0.615
6370087,6004.0,9273.0,1393.0,0.331,-0.339,-0.629,-0.617
6370104,7138.0,10119.0,1255.0,0.327,-0.323,-0.636,-0.62
6370120,7192.0,9963.0,693.0,0.319,-0.306,-0.642,-0.627
6370137,6870.0,7963.0,455.0,0.308,-0.289,-0.647,-0.635
6370153,7562.0,7433.0,969.0,0.295,-0.272,-0.652,-0.643
6370180,8172.0,7363.0,1911.0,0.285,-0.25,-0.66,-0.649
6370196,6562.0,9611.0,759.0,0.273,-0.223,-0.671,-0.652
6370213,6382.0,7169.0,-133.0,0.26,-0.198,-0.679,-0.657
6370230,6186.0,10045.0,-501.0,0.245,-0.173,-0.687,-0.662
6370247,6290.0,10467.0,263.0,0.227,-0.147,-0.693,-0.668
6370264,7064.0,7145.0,985.0,0.211,-0.123,-0.699,-0.673
6370281,6762.0,6425.0,1111.0,0.195,-0.097,-0.705,-0.675
6370298,6272.0,7903.0,311.0,0.18,-0.07,-0.711,-0.676
6370314,4066.0,8507.0,363.0,0.164,-0.044,-0.717,-0.676
6370330,5358.0,7987.0,655.0,0.149,-0.02,-0.72,-0.677
6370356,4358.0,9209.0,497.0,0.134,0.002,-0.723,-0.677
6370372,5038.0,7555.0,245.0,0.118,0.024,-0.724,-0.68
6370388,3150.0,8447.0,-109.0,0.102,0.046,-0.723,-0.681
6370404,2176.0,8149.0,-723.0,0.088,0.066,-0.721,-0.684
6370420,2146.0,8095.0,-727.0,0.075,0.084,-0.718,-0.686
6370436,3268.0,7361.0,-871.0,0.063,0.1,-0.715,-0.689
6370462,2198.0,7045.0,-965.0,0.051,0.116,-0.712,-0.69
6370478,1380.0,8085.0,-1737.0,0.037,0.131,-0.71,-0.691
6370494,644.0,6803.0,-1437.0,0.023,0.147,-0.707,-0.692
6370510,546.0,8141.0,-1485.0,0.01,0.162,-0.705,-0.691
6370527,16.0,7079.0,-983.0,0.003,-0.177,0.703,0.689
6370543,-392.0,6689.0,-1095.0,0.017,-0.19,0.702,0.687
6370569,-1872.0,7661.0,-811.0,0.03,-0.203,0.701,0.683
6370585,-1302.0,6105.0,-627.0,0.044,-0.214,0.7,0.68
6370602,-1874.0,5967.0,-743.0,0.056,-0.225,0.698,0.677
6370619,-1992.0,5539.0,-329.0,0.069,-0.235,0.695,0.676
6370636,-1706.0,4543.0,-121.0,0.081,-0.243,0.693,0.674
6370653,-1972.0,3081.0,153.0,0.092,-0.251,0.69,0.672
6370671,-1534.0,1953.0,501.0,0.102,-0.258,0.688,0.67
6370687,-2028.0,619.0,989.0,0.109,-0.264,0.687,0.668
6370704,-1782.0,-781.0,1141.0,0.114,-0.267,0.686,0.667
6370721,-1724.0,-1643.0,1443.0,0.113,-0.269,0.686,0.666
6370737,-1512.0,-1761.0,1855.0,0.109,-0.267,0.688,0.666
6370764,-1354.0,-1081.0,1635.0,0.1,-0.261,0.691,0.667
6370781,-1002.0,1057.0,1057.0,0.087,-0.253,0.696,0.667
6370798,-1464.0,3257.0,533.0,0.072,-0.243,0.7,0.667
6370814,-1386.0,5093.0,-457.0,0.056,-0.232,0.704,0.668
6370830,-166.0,3805.0,-1041.0,0.038,-0.218,0.707,0.671
6370846,210.0,2801.0,-541.0,0.019,-0.202,0.71,0.674
6370862,980.0,3407.0,311.0,0.001,-0.183,0.714,0.675
6370888,1722.0,4555.0,1031.0,0.014,0.164,-0.724,-0.67
6370905,3180.0,5593.0,-531.0,0.027,0.145,-0.736,-0.66
6370921,2252.0,11229.0,-1851.0,0.042,0.123,-0.749,-0.65
6370937,3234.0,11251.0,-3017.0,0.061,0.099,-0.756,-0.644
6370953,3674.0,11847.0,-1997.0,0.083,0.074,-0.756,-0.645
6370969,3802.0,10047.0,-797.0,0.105,0.048,-0.751,-0.65
6370985,3506.0,9933.0,113.0,0.127,0.022,-0.745,-0.654
6371011,3404.0,10345.0,-237.0,0.149,-0.003,-0.739,-0.657
6371028,4728.0,9027.0,-735.0,0.17,-0.031,-0.732,-0.659
6371045,5826.0,9741.0,-1435.0,0.19,-0.058,-0.725,-0.66
6371062,6382.0,11207.0,-1525.0,0.208,-0.086,-0.716,-0.66
6371079,6526.0,9535.0,-919.0,0.224,-0.114,-0.706,-0.662
6371095,7226.0,8835.0,-673.0,0.239,-0.143,-0.696,-0.662
6371112,7414.0,10361.0,-821.0,0.252,-0.172,-0.685,-0.662
6371129,7260.0,8983.0,-991.0,0.263,-0.202,-0.673,-0.661
6371145,6360.0,9557.0,-1313.0,0.272,-0.232,-0.661,-0.66
6371162,6950.0,9451.0,-259.0,0.279,-0.263,-0.649,-0.657
6371189,7694.0,10729.0,1793.0,0.285,-0.291,-0.637,-0.655
6371205,7322.0,7419.0,2985.0,0.29,-0.313,-0.627,-0.652
6371221,6576.0,8237.0,3423.0,0.294,-0.331,-0.619,-0.649
6371237,5556.0,10805.0,3405.0,0.298,-0.344,-0.613,-0.646
6371254,5662.0,9315.0,3819.0,0.302,-0.351,-0.609,-0.644
6371270,5224.0,10051.0,3785.0,0.307,-0.353,-0.608,-0.641
6371286,3930.0,11395.0,2273.0,0.309,-0.349,-0.61,-0.641
6371312,3432.0,10811.0,1025.0,0.308,-0.344,-0.611,-0.643
6371328,4596.0,8197.0,2409.0,0.305,-0.338,-0.613,-0.645
6371344,5014.0,7475.0,2637.0,0.305,-0.327,-0.619,-0.646
6371361,4618.0,9687.0,1617.0,0.305,-0.312,-0.627,-0.646
6371378,4854.0,11291.0,781.0,0.3,-0.296,-0.634,-0.648
6371395,5982.0,10821.0,629.0,0.292,-0.278,-0.641,-0.653
6371412,7012.0,7161.0,1701.0,0.283,-0.259,-0.648,-0.658
6371429,7674.0,6903.0,2739.0,0.276,-0.234,-0.658,-0.66
6371446,5690.0,10309.0,1361.0,0.271,-0.204,-0.673,-0.658
6371463,4406.0,12477.0,-367.0,0.261,-0.177,-0.684,-0.658
6371490,7102.0,7529.0,1417.0,0.247,-0.152,-0.691,-0.662
6371506,7134.0,10017.0,1997.0,0.234,-0.125,-0.699,-0.665
6371522,6694.0,9439.0,1025.0,0.22,-0.098,-0.705,-0.667
6371538,7184.0,8221.0,873.0,0.205,-0.072,-0.709,-0.671
6371554,6280.0,6699.0,1067.0,0.19,-0.046,-0.713,-0.674
6371570,4652.0,9263.0,51.0,0.175,-0.02,-0.716,-0.676
6371596,5436.0,6815.0,499.0,0.16,0.003,-0.718,-0.678
6371612,3880.0,8645.0,-81.0,0.147,0.027,-0.72,-0.678
6371628,2728.0,8017.0,-903.0,0.132,0.047,-0.72,-0.679
6371645,3094.0,8741.0,-255.0,0.117,0.067,-0.72,-0.681
6371662,3172.0,6793.0,-381.0,0.102,0.086,-0.718,-0.683
6371678,3150.0,7203.0,-509.0,0.088,0.105,-0.717,-0.684
6371695,558.0,7019.0,-1287.0,0.073,0.123,-0.715,-0.684
6371711,-350.0,8047.0,-1217.0,0.057,0.14,-0.713,-0.685
6371738,896.0,7211.0,-639.0,0.043,0.154,-0.711,-0.685
6371755,2636.0,6775.0,-901.0,0.029,0.168,-0.709,-0.685
6371771,-798.0,7841.0,-1147.0,0.015,0.182,-0.708,-0.683
6371787,-1288.0,8803.0,-1623.0,0.001,0.194,-0.706,-0.681
6371804,-910.0,7685.0,-1127.0,0.013,-0.204,0.705,0.679
6371820,-604.0,7085.0,-583.0,0.026,-0.214,0.703,0.678
6371837,-680.0,7263.0,-733.0,0.04,-0.224,0.702,0.675
6371853,-1856.0,6751.0,-693.0,0.055,-0.235,0.701,0.671
6371880,-1932.0,7285.0,-661.0,0.068,-0.243,0.7,0.668
6371896,-1340.0,7051.0,-515.0,0.081,-0.252,0.698,0.665
6371912,-1394.0,5823.0,-273.0,0.094,-0.26,0.696,0.663
6371929,-2404.0,3655.0,237.0,0.107,-0.269,0.693,0.66
6371945,-2238.0,2129.0,685.0,0.117,-0.275,0.692,0.658
6371961,-2152.0,1139.0,839.0,0.124,-0.28,0.691,0.655
6371977,-2122.0,-923.0,819.0,0.128,-0.282,0.689,0.655
6371994,-1690.0,-3697.0,1859.0,0.129,-0.282,0.688,0.657
6372020,-1628.0,-3645.0,2445.0,0.126,-0.279,0.689,0.657
6372036,-510.0,-1777.0,2039.0,0.118,-0.272,0.694,0.656
6372053,8.0,763.0,1097.0,0.105,-0.263,0.7,0.656
6372070,-688.0,3257.0,37.0,0.089,-0.253,0.705,0.656
6372087,-1224.0,6303.0,-619.0,0.071,-0.242,0.71,0.657
6372104,-44.0,5961.0,-1341.0,0.052,-0.229,0.713,0.66
6372121,772.0,3937.0,-1921.0,0.032,-0.214,0.715,0.665
6372138,646.0,4599.0,-807.0,0.012,-0.196,0.717,0.669
6372154,-252.0,7255.0,-427.0,0.008,0.177,-0.72,-0.671
6372181,182.0,7755.0,-565.0,0.028,0.156,-0.723,-0.672
6372198,1438.0,8951.0,21.0,0.048,0.133,-0.724,-0.675
6372214,1858.0,10223.0,373.0,0.067,0.109,-0.723,-0.679
6372230,2204.0,9283.0,349.0,0.086,0.085,-0.721,-0.682
6372247,2646.0,9473.0,83.0,0.105,0.061,-0.719,-0.684
6372263,3862.0,9859.0,-571.0,0.124,0.035,-0.717,-0.685
6372280,4282.0,11141.0,-1395.0,0.142,0.008,-0.714,-0.685
6372296,4982.0,10291.0,-2273.0,0.158,-0.021,-0.71,-0.686
6372313,4646.0,8785.0,-1945.0,0.171,-0.051,-0.704,-0.687
6372330,5658.0,8877.0,-1035.0,0.184,-0.082,-0.698,-0.687
6372356,6168.0,7665.0,-175.0,0.197,-0.114,-0.693,-0.685
6372372,6890.0,7807.0,361.0,0.21,-0.143,-0.688,-0.68
6372388,7768.0,8605.0,1203.0,0.223,-0.172,-0.682,-0.675
6372404,7270.0,8819.0,2051.0,0.237,-0.2,-0.674,-0.67
6372420,7606.0,8641.0,3119.0,0.25,-0.226,-0.665,-0.666
6372437,7238.0,8735.0,3239.0,0.264,-0.251,-0.655,-0.663
6372463,8016.0,9555.0,4541.0,0.275,-0.274,-0.644,-0.659
6372479,6942.0,10061.0,3035.0,0.285,-0.295,-0.634,-0.656
6372496,6482.0,11125.0,2551.0,0.292,-0.314,-0.624,-0.654
6372513,6616.0,10497.0,3067.0,0.297,-0.33,-0.615,-0.652
6372530,6044.0,11021.0,3209.0,0.301,-0.34,-0.609,-0.65
6372547,5572.0,11125.0,2765.0,0.305,-0.345,-0.606,-0.649
6372563,4412.0,12077.0,2191.0,0.307,-0.345,-0.605,-0.649
6372580,4720.0,11353.0,1409.0,0.307,-0.339,-0.605,-0.651
6372596,4244.0,10047.0,1801.0,0.306,-0.331,-0.608,-0.654
6372613,4424.0,9561.0,1881.0,0.306,-0.317,-0.614,-0.655
6372640,4196.0,11031.0,1469.0,0.305,-0.299,-0.622,-0.656
6372656,3662.0,11699.0,355.0,0.301,-0.279,-0.63,-0.659
6372674,4278.0,10685.0,889.0,0.293,-0.259,-0.637,-0.664
6372691,5088.0,11639.0,1511.0,0.284,-0.237,-0.646,-0.668
6372707,5256.0,9141.0,1083.0,0.273,-0.212,-0.655,-0.672
6372723,4692.0,8859.0,747.0,0.261,-0.186,-0.664,-0.675
6372739,3532.0,8767.0,371.0,0.249,-0.162,-0.673,-0.678
6372755,5540.0,8315.0,1657.0,0.236,-0.14,-0.68,-0.68
6372781,5930.0,8813.0,1143.0,0.224,-0.117,-0.687,-0.681
6372797,7526.0,8439.0,1163.0,0.21,-0.096,-0.694,-0.682
6372813,9270.0,7723.0,1655.0,0.194,-0.074,-0.699,-0.684
6372829,7112.0,7863.0,1371.0,0.178,-0.049,-0.706,-0.684
6372846,5550.0,9127.0,1089.0,0.162,-0.024,-0.711,-0.684
6372862,4692.0,10097.0,1079.0,0.147,-0.001,-0.715,-0.683
6372879,5672.0,7679.0,1065.0,0.132,0.022,-0.719,-0.682
6372905,4034.0,8423.0,535.0,0.117,0.046,-0.723,-0.68
6372921,2270.0,8623.0,-493.0,0.101,0.069,-0.724,-0.679
6372938,1358.0,9565.0,-1005.0,0.084,0.09,-0.723,-0.679
6372955,1800.0,7721.0,-223.0,0.068,0.107,-0.721,-0.681
6372971,1488.0,8059.0,-739.0,0.052,0.124,-0.719,-0.682
6372987,960.0,8079.0,-1083.0,0.037,0.141,-0.717,-0.682
6373003,1446.0,7101.0,-789.0,0.021,0.157,-0.716,-0.68
6373029,-100.0,5697.0,-509.0,0.006,0.173,-0.714,-0.678
6373045,-786.0,7151.0,-651.0,0.007,-0.187,0.714,0.674
6373061,-854.0,6641.0,-481.0,0.019,-0.199,0.714,0.67
6373078,-626.0,7099.0,-539.0,0.031,-0.211,0.715,0.666
6373095,-1344.0,7423.0,-309.0,0.044,-0.223,0.714,0.662
6373112,-904.0,8455.0,-363.0,0.057,-0.234,0.714,0.658
6373129,-1298.0,8003.0,-773.0,0.069,-0.245,0.712,0.655
6373146,-1338.0,8275.0,-917.0,0.082,-0.257,0.708,0.653
6373172,-1820.0,7503.0,-1011.0,0.095,-0.267,0.703,0.652
6373189,-1934.0,6229.0,-1259.0,0.107,-0.278,0.697,0.653
6373205,-1750.0,4421.0,-939.0,0.119,-0.286,0.691,0.653
6373221,-1884.0,2375.0,-349.0,0.129,-0.293,0.686,0.653
6373237,-2474.0,403.0,89.0,0.137,-0.297,0.683,0.653
6373253,-2058.0,-525.0,691.0,0.143,-0.3,0.683,0.651
6373269,-2292.0,-1541.0,985.0,0.145,-0.3,0.682,0.651
6373286,-2022.0,-2493.0,967.0,0.143,-0.299,0.681,0.653
6373312,-2056.0,-4073.0,1157.0,0.135,-0.296,0.677,0.66
6373329,-2292.0,-4047.0,1835.0,0.123,-0.289,0.673,0.67
6373345,-1612.0,-2327.0,2175.0,0.107,-0.276,0.672,0.679
6373361,-702.0,879.0,1901.0,0.088,-0.259,0.674,0.686
6373378,346.0,5705.0,1153.0,0.067,-0.241,0.68,0.69
6373395,1476.0,6759.0,-109.0,0.046,-0.222,0.684,0.693
6373411,1312.0,7483.0,-657.0,0.024,-0.201,0.686,0.699
6373437,1160.0,8851.0,217.0,0.001,-0.179,0.686,0.706
6373453,2084.0,7231.0,457.0,0.021,0.156,-0.686,-0.711
6373469,2004.0,8893.0,-275.0,0.042,0.133,-0.686,-0.714
6373486,2180.0,8567.0,-625.0,0.063,0.109,-0.687,-0.716
6373502,2060.0,11281.0,-515.0,0.082,0.084,-0.687,-0.717
6373519,3542.0,9149.0,-725.0,0.101,0.059,-0.685,-0.719
6373536,3288.0,10033.0,203.0,0.118,0.033,-0.684,-0.719
6373552,3196.0,9469.0,591.0,0.136,0.006,-0.681,-0.719
6373569,4258.0,8631.0,1957.0,0.154,-0.022,-0.679,-0.717
6373596,4564.0,7753.0,2913.0,0.174,-0.05,-0.676,-0.714
6373613,5774.0,9525.0,3131.0,0.194,-0.078,-0.672,-0.711
6373629,6522.0,8761.0,3319.0,0.214,-0.108,-0.664,-0.708
6373646,7224.0,8785.0,2899.0,0.233,-0.137,-0.654,-0.707
6373662,7342.0,8547.0,2523.0,0.249,-0.167,-0.642,-0.706
6373678,9040.0,7943.0,3029.0,0.263,-0.197,-0.629,-0.704
6373695,9188.0,8053.0,2061.0,0.276,-0.224,-0.617,-0.702
6373721,8180.0,8339.0,1605.0,0.287,-0.25,-0.605,-0.7
6373737,7668.0,9441.0,1285.0,0.296,-0.275,-0.592,-0.697
6373753,6702.0,8159.0,1497.0,0.305,-0.299,-0.58,-0.694
6373769,6812.0,7525.0,1607.0,0.314,-0.321,-0.569,-0.689
6373785,5542.0,8069.0,1837.0,0.323,-0.339,-0.561,-0.682
6373802,5088.0,8929.0,2443.0,0.333,-0.354,-0.557,-0.674
6373819,5802.0,9865.0,2985.0,0.342,-0.363,-0.555,-0.666
6373836,5858.0,11093.0,2659.0,0.351,-0.366,-0.556,-0.659
6373852,5432.0,11903.0,2027.0,0.356,-0.364,-0.559,-0.654
6373879,5518.0,11419.0,2295.0,0.358,-0.358,-0.564,-0.652
6373896,5898.0,10191.0,3089.0,0.359,-0.348,-0.571,-0.651
6373913,6112.0,10843.0,2967.0,0.359,-0.333,-0.581,-0.65
6373929,6196.0,11659.0,2493.0,0.357,-0.313,-0.593,-0.65
6373946,5140.0,12493.0,2439.0,0.35,-0.292,-0.606,-0.652
6373963,6242.0,9959.0,2917.0,0.34,-0.27,-0.617,-0.656
6373979,6248.0,13319.0,3487.0,0.326,-0.246,-0.629,-0.662
6373995,7298.0,10529.0,3553.0,0.311,-0.219,-0.639,-0.668
6374021,8014.0,7945.0,3007.0,0.295,-0.19,-0.649,-0.676
6374037,6198.0,7573.0,3179.0,0.277,-0.159,-0.658,-0.682
6374053,4878.0,9361.0,3149.0,0.262,-0.128,-0.668,-0.685
6374069,5166.0,10945.0,1619.0,0.245,-0.099,-0.674,-0.689
6374085,6046.0,6019.0,2027.0,0.228,-0.073,-0.678,-0.695
6374101,7326.0,7089.0,2257.0,0.212,-0.045,-0.683,-0.698
6374127,5820.0,7965.0,1287.0,0.196,-0.018,-0.687,-0.699
6374143,5728.0,5825.0,557.0,0.179,0.006,-0.689,-0.702
6374159,4364.0,8145.0,1409.0,0.163,0.029,-0.691,-0.704
6374176,3106.0,9055.0,1125.0,0.147,0.051,-0.693,-0.704
6374193,5238.0,9249.0,1337.0,0.133,0.07,-0.695,-0.704
6374210,5932.0,9203.0,895.0,0.118,0.089,-0.695,-0.704
6374226,5208.0,9721.0,287.0,0.102,0.109,-0.693,-0.705
6374242,1362.0,8677.0,-247.0,0.083,0.131,-0.691,-0.706
6374269,-168.0,9151.0,-559.0,0.065,0.15,-0.686,-0.709
6374285,-178.0,9091.0,-795.0,0.049,0.165,-0.68,-0.712
6374301,1516.0,7021.0,-767.0,0.034,0.179,-0.674,-0.716
6374317,884.0,6527.0,-1345.0,0.018,0.193,-0.67,-0.717
6374333,-832.0,7169.0,-1523.0,0.0,0.207,-0.667,-0.716
6374349,-1228.0,5625.0,-1293.0,0.018,-0.22,0.664,0.714
6374375,-1244.0,5639.0,-647.0,0.035,-0.232,0.664,0.711
6374391,-1012.0,5773.0,157.0,0.052,-0.241,0.666,0.704
6374407,-1132.0,7273.0,639.0,0.069,-0.25,0.67,0.696
6374423,-858.0,8149.0,515.0,0.086,-0.259,0.674,0.687
6374439,-2244.0,7619.0,431.0,0.103,-0.269,0.674,0.68
6374455,-2632.0,6993.0,835.0,0.119,-0.279,0.672,0.675
6374481,-2354.0,5417.0,941.0,0.134,-0.288,0.669,0.672
6374497,-1892.0,3755.0,937.0,0.147,-0.297,0.665,0.669
6374513,-2890.0,1437.0,863.0,0.16,-0.304,0.661,0.667
6374529,-2506.0,-283.0,595.0,0.169,-0.311,0.659,0.664
6374546,-2446.0,-1649.0,697.0,0.176,-0.314,0.657,0.662
6374563,-1646.0,-1827.0,961.0,0.18,-0.315,0.658,0.66
6374580,-1908.0,-1743.0,1361.0,0.179,-0.313,0.66,0.659
6374597,-1266.0,-2181.0,1787.0,0.174,-0.309,0.664,0.658
6374614,-1654.0,-1793.0,1765.0,0.164,-0.303,0.669,0.659
6374631,-2026.0,-29.0,1563.0,0.149,-0.295,0.673,0.662
6374658,-2558.0,2677.0,921.0,0.131,-0.285,0.676,0.667
6374675,-1738.0,2777.0,5.0,0.111,-0.275,0.678,0.673
6374691,-738.0,463.0,-1157.0,0.089,-0.261,0.679,0.68
6374708,-468.0,1715.0,-1061.0,0.067,-0.243,0.682,0.687
6374724,-658.0,6437.0,-25.0,0.046,-0.223,0.689,0.688
6374741,774.0,7583.0,-883.0,0.025,-0.201,0.697,0.687
6374757,1260.0,10633.0,-1911.0,0.006,-0.18,0.704,0.687
6374783,420.0,11057.0,-1391.0,0.013,0.157,-0.706,-0.691
6374800,736.0,8817.0,-379.0,0.031,0.133,-0.706,-0.695
6374817,1516.0,7971.0,577.0,0.051,0.107,-0.708,-0.696
6374833,1926.0,8761.0,685.0,0.07,0.082,-0.713,-0.693
6374849,3508.0,10669.0,-727.0,0.088,0.058,-0.717,-0.689
6374865,2688.0,11105.0,-871.0,0.107,0.035,-0.719,-0.686
6374881,2608.0,8825.0,329.0,0.126,0.011,-0.716,-0.687
6374898,3316.0,8335.0,865.0,0.143,-0.013,-0.712,-0.688
6374914,3662.0,8487.0,1203.0,0.163,-0.039,-0.707,-0.687
6374941,4880.0,9453.0,809.0,0.182,-0.067,-0.702,-0.685
6374958,5964.0,10605.0,823.0,0.199,-0.098,-0.695,-0.684
6374975,7634.0,8969.0,1383.0,0.215,-0.129,-0.685,-0.684
6374992,8514.0,7519.0,2691.0,0.23,-0.16,-0.675,-0.682
6375009,8080.0,9225.0,2465.0,0.245,-0.189,-0.665,-0.68
6375026,8140.0,9903.0,2819.0,0.259,-0.218,-0.653,-0.678
6375043,7570.0,9397.0,3789.0,0.272,-0.244,-0.641,-0.675
6375059,7706.0,7633.0,4065.0,0.287,-0.266,-0.63,-0.671
6375076,8958.0,7471.0,2495.0,0.302,-0.284,-0.62,-0.666
6375093,6122.0,9141.0,981.0,0.317,-0.297,-0.614,-0.659
6375110,4822.0,9901.0,311.0,0.33,-0.31,-0.608,-0.652
6375136,6222.0,9315.0,203.0,0.341,-0.322,-0.604,-0.644
6375153,6778.0,9917.0,601.0,0.351,-0.329,-0.603,-0.636
6375169,5920.0,11123.0,77.0,0.361,-0.33,-0.603,-0.63
6375186,5038.0,11427.0,-853.0,0.367,-0.327,-0.605,-0.626
6375203,4532.0,11603.0,-905.0,0.367,-0.323,-0.609,-0.625
6375219,4346.0,11977.0,-1.0,0.364,-0.316,-0.614,-0.626
6375235,4934.0,11441.0,379.0,0.359,-0.305,-0.621,-0.626
6375251,4210.0,10255.0,713.0,0.352,-0.291,-0.63,-0.627
6375268,4518.0,11023.0,1061.0,0.343,-0.276,-0.64,-0.63
6375294,4088.0,14887.0,1139.0,0.33,-0.258,-0.651,-0.633
6375311,4466.0,13015.0,1857.0,0.315,-0.24,-0.659,-0.639
6375327,5554.0,9775.0,1955.0,0.296,-0.221,-0.666,-0.648
6375344,6660.0,8545.0,3213.0,0.277,-0.2,-0.674,-0.655
6375360,7524.0,8067.0,3923.0,0.26,-0.176,-0.684,-0.659
6375377,7760.0,10135.0,2179.0,0.244,-0.149,-0.693,-0.661
6375394,5894.0,10229.0,843.0,0.224,-0.124,-0.7,-0.666
6375411,6614.0,8167.0,1109.0,0.204,-0.1,-0.704,-0.673
6375428,6728.0,6919.0,2361.0,0.185,-0.076,-0.71,-0.676
6375445,6686.0,5561.0,1791.0,0.169,-0.053,-0.715,-0.676
6375471,5726.0,8841.0,1381.0,0.153,-0.029,-0.722,-0.674
6375487,5344.0,8109.0,865.0,0.138,-0.006,-0.727,-0.672
6375504,5166.0,7427.0,1353.0,0.122,0.017,-0.732,-0.67
6375521,3116.0,7281.0,1227.0,0.107,0.041,-0.736,-0.668
6375538,2284.0,8937.0,883.0,0.094,0.064,-0.74,-0.663
6375554,2730.0,9181.0,301.0,0.081,0.084,-0.744,-0.657
6375570,3964.0,8791.0,-837.0,0.068,0.104,-0.748,-0.652
6375596,864.0,10487.0,-2667.0,0.05,0.125,-0.748,-0.649
6375612,962.0,10413.0,-2657.0,0.033,0.144,-0.745,-0.651
6375628,748.0,8215.0,-2125.0,0.018,0.159,-0.741,-0.652
6375644,1628.0,7101.0,-2201.0,0.003,0.173,-0.738,-0.652
6375660,746.0,7575.0,-2765.0,0.014,-0.188,0.738,0.648
6375676,-776.0,8745.0,-3593.0,0.032,-0.202,0.736,0.645
6375702,-814.0,8041.0,-3349.0,0.051,-0.214,0.731,0.646
6375719,-1156.0,7555.0,-2175.0,0.07,-0.226,0.724,0.648
6375735,-960.0,6263.0,-429.0,0.087,-0.236,0.718,0.649
6375751,-478.0,6483.0,-479.0,0.104,-0.246,0.714,0.647
6375767,-972.0,7877.0,-1035.0,0.12,-0.256,0.711,0.644
6375783,-1324.0,8745.0,-1369.0,0.136,-0.266,0.704,0.644
6375799,-852.0,6719.0,-1119.0,0.152,-0.277,0.694,0.647
6375825,-1506.0,2781.0,227.0,0.167,-0.287,0.683,0.65
6375842,-1398.0,-787.0,1299.0,0.179,-0.295,0.675,0.652
6375859,-2288.0,-3041.0,1229.0,0.189,-0.301,0.671,0.651
6375875,-2160.0,-4801.0,971.0,0.195,-0.304,0.669,0.65
6375891,-1800.0,-6543.0,1313.0,0.196,-0.303,0.669,0.65
6375908,-1514.0,-6593.0,2059.0,0.191,-0.299,0.672,0.65
6375925,-1460.0,-5011.0,2447.0,0.181,-0.292,0.678,0.65
6375942,-2014.0,-3035.0,2405.0,0.165,-0.281,0.688,0.648
6375968,-2614.0,127.0,1161.0,0.145,-0.27,0.699,0.646
6375984,-2092.0,2235.0,-805.0,0.122,-0.259,0.708,0.646
6376000,-2312.0,2563.0,-723.0,0.097,-0.244,0.713,0.65
6376016,-1372.0,4601.0,379.0,0.072,-0.227,0.717,0.655
6376032,62.0,8701.0,159.0,0.046,-0.206,0.724,0.657
6376048,1828.0,9945.0,-1917.0,0.023,-0.186,0.729,0.658
6376074,1950.0,10963.0,-3005.0,0.002,-0.165,0.731,0.663
6376090,1936.0,11653.0,-2187.0,0.017,0.142,-0.73,-0.669
6376106,2514.0,9067.0,-1257.0,0.038,0.116,-0.73,-0.672
6376122,3796.0,6687.0,-411.0,0.059,0.092,-0.733,-0.671
6376138,2722.0,9541.0,-1423.0,0.079,0.069,-0.738,-0.666
6376154,3434.0,10019.0,-1185.0,0.097,0.047,-0.74,-0.664
6376180,3070.0,9643.0,413.0,0.115,0.024,-0.739,-0.663
6376197,3582.0,8403.0,1185.0,0.134,-0.001,-0.737,-0.663
6376214,3764.0,10593.0,969.0,0.152,-0.025,-0.733,-0.663
6376231,4930.0,10987.0,1101.0,0.17,-0.052,-0.726,-0.665
6376248,5922.0,10961.0,1157.0,0.184,-0.08,-0.715,-0.67
6376265,6262.0,9911.0,1301.0,0.196,-0.108,-0.701,-0.678
6376282,6026.0,10553.0,1899.0,0.206,-0.137,-0.685,-0.686
6376299,4816.0,10269.0,3281.0,0.215,-0.168,-0.667,-0.693
6376316,7504.0,9203.0,5261.0,0.224,-0.199,-0.65,-0.698
6376333,8010.0,9285.0,5275.0,0.236,-0.225,-0.635,-0.701
6376350,8218.0,9873.0,3995.0,0.249,-0.245,-0.621,-0.702
6376367,5368.0,10505.0,2021.0,0.259,-0.262,-0.608,-0.703
6376384,4218.0,9779.0,1187.0,0.265,-0.279,-0.596,-0.704
6376401,3684.0,9901.0,1337.0,0.269,-0.295,-0.586,-0.705
6376428,3970.0,9403.0,1223.0,0.274,-0.309,-0.578,-0.704
6376445,4966.0,8421.0,1581.0,0.282,-0.317,-0.573,-0.701
6376462,4818.0,7913.0,907.0,0.291,-0.319,-0.571,-0.698
6376479,4082.0,10645.0,-451.0,0.299,-0.318,-0.573,-0.694
6376496,4794.0,10825.0,-411.0,0.301,-0.314,-0.576,-0.692
6376513,5180.0,9271.0,603.0,0.301,-0.307,-0.581,-0.691
6376530,4858.0,8623.0,805.0,0.301,-0.296,-0.59,-0.688
6376546,4944.0,9951.0,1105.0,0.301,-0.283,-0.6,-0.684
6376562,4036.0,10747.0,1013.0,0.3,-0.268,-0.612,-0.681
6376579,3726.0,13317.0,1989.0,0.296,-0.25,-0.625,-0.678
6376605,4940.0,13785.0,2757.0,0.288,-0.23,-0.639,-0.676
6376621,5700.0,13165.0,3617.0,0.277,-0.206,-0.652,-0.675
6376637,5770.0,11609.0,3495.0,0.262,-0.181,-0.664,-0.677
6376653,3966.0,12283.0,3099.0,0.244,-0.155,-0.674,-0.68
6376669,3660.0,11739.0,3933.0,0.224,-0.13,-0.682,-0.684
6376685,5776.0,10533.0,4635.0,0.204,-0.105,-0.688,-0.688
6376711,6110.0,9321.0,3409.0,0.185,-0.082,-0.692,-0.693
6376727,6774.0,5469.0,3373.0,0.166,-0.055,-0.693,-0.7
6376744,3750.0,7675.0,2013.0,0.148,-0.028,-0.695,-0.703
6376761,2700.0,7395.0,1285.0,0.13,-0.004,-0.695,-0.708
6376777,4852.0,6621.0,2109.0,0.114,0.016,-0.692,-0.713
6376793,5026.0,6383.0,1725.0,0.101,0.036,-0.691,-0.715
6376809,4064.0,6155.0,1611.0,0.089,0.057,-0.69,-0.716
6376826,2394.0,8237.0,143.0,0.076,0.078,-0.69,-0.716
6376853,558.0,9079.0,159.0,0.063,0.097,-0.688,-0.717
6376869,626.0,8593.0,371.0,0.051,0.114,-0.685,-0.717
6376885,744.0,9671.0,-197.0,0.038,0.13,-0.683,-0.718
6376901,2092.0,9057.0,-899.0,0.025,0.146,-0.679,-0.719
6376918,444.0,9367.0,-1781.0,0.01,0.161,-0.675,-0.72
6376934,-544.0,7957.0,-1457.0,0.005,-0.176,0.67,0.721
6376951,-1300.0,7055.0,-1725.0,0.021,-0.19,0.666,0.721
6376967,-882.0,5751.0,-1447.0,0.037,-0.201,0.665,0.719
6376994,-216.0,5037.0,-613.0,0.053,-0.211,0.665,0.714
6377011,-1320.0,5727.0,39.0,0.069,-0.221,0.668,0.707
6377028,-1466.0,6275.0,467.0,0.083,-0.229,0.672,0.699
6377045,-1886.0,6789.0,1427.0,0.098,-0.238,0.675,0.692
6377061,-2154.0,7093.0,1689.0,0.112,-0.247,0.677,0.684
6377078,-1766.0,7281.0,1265.0,0.125,-0.256,0.678,0.678
6377095,-2464.0,6703.0,747.0,0.138,-0.266,0.677,0.673
6377113,-2324.0,5005.0,243.0,0.149,-0.275,0.673,0.67
6377130,-2342.0,2779.0,-67.0,0.159,-0.282,0.668,0.67
6377147,-2388.0,-1015.0,159.0,0.166,-0.287,0.664,0.67
6377164,-2316.0,-3719.0,429.0,0.17,-0.289,0.662,0.671
6377181,-1650.0,-5293.0,967.0,0.17,-0.287,0.663,0.67
6377198,-1556.0,-4309.0,1323.0,0.166,-0.282,0.668,0.668
6377215,-1452.0,-2027.0,1991.0,0.157,-0.274,0.676,0.666
6377241,-1524.0,-411.0,1917.0,0.143,-0.265,0.685,0.664
6377257,-3110.0,2169.0,1899.0,0.125,-0.254,0.692,0.663
6377273,-3528.0,5135.0,1431.0,0.105,-0.244,0.698,0.665
6377289,-2422.0,5203.0,-77.0,0.084,-0.233,0.7,0.669
6377305,-1026.0,3531.0,-783.0,0.063,-0.218,0.699,0.678
6377322,-328.0,4675.0,71.0,0.041,-0.2,0.698,0.686
6377339,658.0,6439.0,-571.0,0.02,-0.181,0.701,0.689
6377366,1772.0,7195.0,-1495.0,0.001,0.159,-0.705,-0.691
6377383,1272.0,9415.0,-1295.0,0.021,0.137,-0.707,-0.693
6377400,2058.0,8331.0,211.0,0.043,0.112,-0.709,-0.695
6377417,3164.0,7855.0,947.0,0.065,0.086,-0.711,-0.695
6377434,3380.0,8731.0,1253.0,0.088,0.061,-0.712,-0.694
6377450,3386.0,9959.0,917.0,0.11,0.036,-0.712,-0.692
6377467,3922.0,10881.0,445.0,0.133,0.011,-0.71,-0.691
6377483,4824.0,7729.0,1505.0,0.155,-0.016,-0.705,-0.692
6377500,4400.0,7943.0,2365.0,0.175,-0.042,-0.7,-0.691
6377517,5928.0,8087.0,3107.0,0.198,-0.07,-0.694,-0.688
6377534,9584.0,9603.0,2825.0,0.225,-0.099,-0.687,-0.684
6377561,9984.0,9989.0,291.0,0.251,-0.128,-0.676,-0.68
6377577,10704.0,11125.0,-885.0,0.274,-0.161,-0.662,-0.678
6377593,10996.0,9715.0,-287.0,0.294,-0.196,-0.646,-0.677
6377610,10480.0,9571.0,-55.0,0.311,-0.229,-0.631,-0.673
6377627,9124.0,10369.0,113.0,0.326,-0.259,-0.617,-0.667
6377643,6976.0,10085.0,-197.0,0.339,-0.287,-0.604,-0.662
6377660,5162.0,10983.0,-953.0,0.347,-0.312,-0.593,-0.656
6377686,4278.0,12173.0,-35.0,0.352,-0.336,-0.584,-0.65
6377702,5028.0,10465.0,1921.0,0.355,-0.355,-0.577,-0.644
6377718,5458.0,10333.0,2587.0,0.36,-0.366,-0.575,-0.637
6377734,4604.0,11677.0,1673.0,0.362,-0.37,-0.576,-0.633
6377750,3764.0,12231.0,821.0,0.36,-0.371,-0.579,-0.631
6377766,4732.0,9601.0,2447.0,0.355,-0.369,-0.583,-0.63
6377782,4476.0,9759.0,2751.0,0.353,-0.363,-0.591,-0.628
6377808,5020.0,11031.0,3381.0,0.351,-0.352,-0.602,-0.625
6377824,5190.0,13101.0,3759.0,0.348,-0.336,-0.614,-0.624
6377841,4292.0,14615.0,3947.0,0.338,-0.318,-0.625,-0.628
6377857,6524.0,12555.0,3515.0,0.322,-0.3,-0.634,-0.636
6377873,6768.0,12119.0,4263.0,0.305,-0.279,-0.643,-0.646
6377890,7500.0,9741.0,4545.0,0.289,-0.252,-0.653,-0.653
6377916,5990.0,8301.0,3069.0,0.275,-0.221,-0.665,-0.658
6377933,6404.0,10219.0,1273.0,0.259,-0.192,-0.673,-0.665
6377950,6962.0,9899.0,1283.0,0.24,-0.164,-0.68,-0.673
6377967,7532.0,6089.0,993.0,0.221,-0.136,-0.685,-0.681
6377984,7874.0,7465.0,1031.0,0.203,-0.109,-0.691,-0.685
6378000,7304.0,7763.0,41.0,0.187,-0.083,-0.697,-0.688
6378017,8158.0,5643.0,-355.0,0.169,-0.058,-0.701,-0.691
6378034,5970.0,5163.0,1091.0,0.153,-0.033,-0.707,-0.69
6378050,5170.0,8447.0,787.0,0.139,-0.01,-0.713,-0.687
6378067,4324.0,8429.0,851.0,0.126,0.012,-0.718,-0.684
6378083,3818.0,5109.0,1593.0,0.112,0.033,-0.721,-0.683
6378109,1724.0,8943.0,1475.0,0.1,0.055,-0.724,-0.68
6378125,1270.0,10069.0,273.0,0.088,0.074,-0.725,-0.679
6378141,3684.0,8161.0,633.0,0.077,0.089,-0.722,-0.682
6378157,1826.0,7015.0,-287.0,0.063,0.106,-0.719,-0.684
6378173,24.0,8809.0,-1581.0,0.05,0.122,-0.714,-0.687
6378189,-676.0,8307.0,-1815.0,0.036,0.136,-0.71,-0.69
6378216,-38.0,5087.0,-1549.0,0.023,0.148,-0.705,-0.693
6378233,358.0,5783.0,-1013.0,0.011,0.159,-0.704,-0.692
6378250,300.0,7305.0,-1041.0,0.0,0.168,-0.706,-0.688
6378267,312.0,8141.0,-1055.0,0.012,-0.178,0.709,0.682
6378284,-966.0,8067.0,-557.0,0.024,-0.188,0.711,0.677
6378301,-1964.0,8267.0,-23.0,0.036,-0.198,0.713,0.672
6378317,-2712.0,8431.0,401.0,0.048,-0.208,0.715,0.666
6378333,-1788.0,7559.0,175.0,0.06,-0.218,0.715,0.661
6378350,-2338.0,7377.0,-75.0,0.073,-0.229,0.715,0.657
6378367,-2986.0,6503.0,-103.0,0.087,-0.24,0.712,0.654
6378384,-2686.0,5245.0,-441.0,0.099,-0.25,0.708,0.653
6378410,-2442.0,2107.0,139.0,0.11,-0.258,0.703,0.653
6378427,-2574.0,243.0,499.0,0.119,-0.263,0.7,0.653
6378443,-2204.0,-2723.0,729.0,0.124,-0.264,0.7,0.652
6378459,-842.0,-5357.0,1159.0,0.124,-0.261,0.701,0.651
6378475,-510.0,-5863.0,1955.0,0.119,-0.255,0.706,0.65
6378491,-232.0,-5335.0,2383.0,0.108,-0.244,0.711,0.65
6378517,256.0,-2347.0,2341.0,0.092,-0.23,0.717,0.651
6378533,356.0,2341.0,2151.0,0.071,-0.215,0.724,0.652
6378549,-542.0,8047.0,1045.0,0.048,-0.201,0.728,0.654
6378565,1360.0,5937.0,-1205.0,0.023,-0.186,0.727,0.66
6378582,2316.0,4775.0,-679.0,0.003,0.167,-0.723,-0.671
6378599,2682.0,7287.0,475.0,0.029,0.144,-0.72,-0.678
6378616,2438.0,10103.0,-1093.0,0.054,0.12,-0.72,-0.681
6378633,3374.0,10055.0,-2117.0,0.077,0.092,-0.717,-0.686
6378650,3970.0,10009.0,-1365.0,0.098,0.063,-0.712,-0.692
6378677,4012.0,10119.0,-285.0,0.119,0.034,-0.707,-0.696
6378693,3900.0,10057.0,219.0,0.139,0.005,-0.702,-0.698
6378710,4886.0,9353.0,503.0,0.159,-0.024,-0.698,-0.698
6378727,4318.0,10985.0,339.0,0.177,-0.052,-0.692,-0.698
6378744,5340.0,10501.0,309.0,0.194,-0.079,-0.685,-0.698
6378761,4160.0,10095.0,517.0,0.21,-0.107,-0.677,-0.698
6378778,4394.0,8519.0,345.0,0.223,-0.135,-0.668,-0.697
6378795,5378.0,8593.0,309.0,0.236,-0.165,-0.66,-0.694
6378811,6140.0,9047.0,623.0,0.248,-0.194,-0.652,-0.69
6378828,7794.0,9217.0,997.0,0.258,-0.224,-0.642,-0.686
6378845,7908.0,8465.0,1507.0,0.267,-0.252,-0.633,-0.682
6378862,8024.0,8267.0,1849.0,0.275,-0.279,-0.623,-0.677
6378879,7074.0,8865.0,1777.0,0.282,-0.304,-0.614,-0.671
6378906,7138.0,8467.0,2165.0,0.289,-0.328,-0.605,-0.666
6378923,8010.0,7749.0,2369.0,0.295,-0.348,-0.597,-0.66
6378939,6800.0,8505.0,2867.0,0.3,-0.365,-0.591,-0.654
6378955,6158.0,8577.0,3133.0,0.303,-0.38,-0.586,-0.648
6378971,5984.0,9591.0,3745.0,0.307,-0.39,-0.583,-0.644
6378987,5466.0,10281.0,4245.0,0.311,-0.394,-0.581,-0.64
6379003,5924.0,9689.0,2599.0,0.315,-0.392,-0.582,-0.639
6379029,4226.0,10825.0,863.0,0.313,-0.388,-0.585,-0.64
6379046,4630.0,9099.0,1589.0,0.309,-0.383,-0.588,-0.642
6379063,4962.0,7507.0,2523.0,0.307,-0.375,-0.594,-0.642
6379080,4428.0,8713.0,2091.0,0.308,-0.362,-0.603,-0.641
6379097,4152.0,11183.0,1725.0,0.306,-0.349,-0.611,-0.642
6379114,4236.0,10845.0,2239.0,0.3,-0.335,-0.618,-0.645
6379131,7258.0,7405.0,3339.0,0.291,-0.321,-0.624,-0.651
6379148,7318.0,6815.0,3705.0,0.283,-0.302,-0.632,-0.656
6379165,6290.0,8067.0,2641.0,0.276,-0.281,-0.641,-0.659
6379182,6140.0,8981.0,1829.0,0.268,-0.26,-0.648,-0.664
6379199,6676.0,6795.0,2011.0,0.258,-0.242,-0.654,-0.669
6379216,6912.0,5511.0,1833.0,0.248,-0.222,-0.658,-0.675
6379233,6674.0,8017.0,889.0,0.238,-0.204,-0.663,-0.68
6379260,7370.0,6419.0,1099.0,0.228,-0.186,-0.667,-0.685
6379276,7880.0,6109.0,781.0,0.218,-0.167,-0.671,-0.689
6379293,6004.0,6561.0,-9.0,0.208,-0.148,-0.675,-0.692
6379309,5082.0,6671.0,337.0,0.198,-0.131,-0.679,-0.695
6379326,4994.0,6083.0,729.0,0.19,-0.114,-0.683,-0.696
6379342,4594.0,7649.0,517.0,0.182,-0.097,-0.688,-0.696
6379359,3518.0,6863.0,609.0,0.173,-0.079,-0.692,-0.697
6379385,3006.0,8225.0,875.0,0.165,-0.063,-0.695,-0.697
6379401,3242.0,8111.0,1043.0,0.157,-0.048,-0.698,-0.697
6379417,3354.0,8443.0,805.0,0.149,-0.034,-0.7,-0.698
6379433,3030.0,8571.0,789.0,0.14,-0.019,-0.701,-0.699
6379449,1842.0,8759.0,313.0,0.13,-0.005,-0.701,-0.701
6379466,2348.0,8183.0,263.0,0.12,0.008,-0.701,-0.703
6379482,1598.0,7377.0,315.0,0.11,0.02,-0.7,-0.705
6379508,1348.0,7143.0,-43.0,0.101,0.032,-0.699,-0.707
6379524,954.0,7951.0,-17.0,0.092,0.042,-0.699,-0.708
6379540,1380.0,8137.0,457.0,0.083,0.051,-0.698,-0.709
6379556,1906.0,6257.0,407.0,0.075,0.062,-0.699,-0.709
6379572,956.0,7495.0,491.0,0.066,0.073,-0.7,-0.708
6379589,332.0,8023.0,315.0,0.059,0.084,-0.701,-0.706
6379605,-8.0,9127.0,203.0,0.051,0.094,-0.702,-0.704
6379631,492.0,9339.0,443.0,0.044,0.104,-0.703,-0.703
6379647,380.0,8319.0,69.0,0.035,0.115,-0.703,-0.701
6379663,-94.0,8143.0,-447.0,0.026,0.127,-0.703,-0.7
6379679,-2028.0,7429.0,-511.0,0.017,0.139,-0.703,-0.698
6379695,-2172.0,7863.0,-643.0,0.007,0.149,-0.703,-0.696
6379712,-1352.0,7729.0,-767.0,0.003,-0.158,0.703,0.694
6379729,-408.0,6863.0,-639.0,0.013,-0.166,0.703,0.691
6379755,-1538.0,6125.0,-501.0,0.023,-0.174,0.705,0.688
6379772,-1882.0,4975.0,67.0,0.033,-0.181,0.706,0.684
6379789,-1626.0,3489.0,797.0,0.041,-0.187,0.709,0.679
6379806,-1730.0,2397.0,1117.0,0.047,-0.192,0.713,0.673
6379822,-2102.0,3183.0,751.0,0.052,-0.196,0.717,0.667
6379838,-2084.0,3233.0,323.0,0.054,-0.198,0.72,0.663
6379854,-1390.0,1431.0,895.0,0.054,-0.198,0.72,0.663
6379870,-942.0,1087.0,1191.0,0.051,-0.197,0.721,0.663
6379897,-852.0,2143.0,425.0,0.045,-0.194,0.722,0.663
6379914,-194.0,2131.0,-179.0,0.037,-0.188,0.723,0.664
6379931,634.0,719.0,-779.0,0.026,-0.179,0.724,0.666
6379948,94.0,3269.0,-597.0,0.013,-0.168,0.725,0.667
6379965,672.0,3547.0,-179.0,0.002,0.154,-0.728,-0.668
6379982,1088.0,5131.0,-137.0,0.019,0.138,-0.73,-0.669
6379999,1180.0,6573.0,-535.0,0.036,0.12,-0.732,-0.67
6380016,1360.0,7213.0,-833.0,0.054,0.1,-0.732,-0.672
6380032,2750.0,4907.0,-109.0,0.073,0.077,-0.731,-0.674
6380049,2946.0,6579.0,655.0,0.091,0.054,-0.731,-0.674
6380066,3548.0,7779.0,319.0,0.11,0.03,-0.732,-0.671
6380093,4816.0,9477.0,215.0,0.131,0.006,-0.733,-0.668
6380109,5510.0,11327.0,215.0,0.151,-0.02,-0.731,-0.665
6380125,5980.0,11549.0,555.0,0.171,-0.046,-0.728,-0.663
6380142,6492.0,10721.0,129.0,0.189,-0.07,-0.723,-0.661
6380159,5852.0,10959.0,23.0,0.205,-0.092,-0.716,-0.661
6380176,5056.0,12197.0,251.0,0.221,-0.116,-0.708,-0.66
6380193,5552.0,9689.0,683.0,0.236,-0.141,-0.699,-0.661
6380210,6472.0,9017.0,45.0,0.25,-0.166,-0.689,-0.66
6380227,6126.0,9581.0,-875.0,0.263,-0.19,-0.68,-0.657
6380244,7172.0,9299.0,-583.0,0.275,-0.218,-0.67,-0.654
6380261,8194.0,8261.0,-629.0,0.285,-0.245,-0.661,-0.65
6380278,6874.0,7533.0,-939.0,0.294,-0.271,-0.652,-0.645
6380305,5422.0,8507.0,-223.0,0.3,-0.298,-0.644,-0.638
6380321,5188.0,7965.0,1671.0,0.305,-0.323,-0.637,-0.63
6380338,6454.0,7563.0,6697.0,0.319,-0.337,-0.636,-0.617
6380354,3856.0,12295.0,4261.0,0.339,-0.341,-0.638,-0.601
6380370,1760.0,16981.0,2393.0,0.351,-0.346,-0.638,-0.592
6380386,3644.0,13767.0,3609.0,0.355,-0.352,-0.634,-0.59
6380402,5702.0,10469.0,4245.0,0.355,-0.354,-0.631,-0.592
6380428,5904.0,11673.0,2095.0,0.352,-0.35,-0.629,-0.598
6380445,4506.0,10469.0,-123.0,0.346,-0.343,-0.627,-0.608
6380463,4422.0,7661.0,-1017.0,0.337,-0.333,-0.628,-0.618
6380480,4178.0,7603.0,-1107.0,0.329,-0.321,-0.631,-0.625
6380497,5530.0,6399.0,285.0,0.325,-0.305,-0.638,-0.628
6380514,6080.0,8887.0,-135.0,0.324,-0.285,-0.648,-0.627
6380531,5032.0,11141.0,-511.0,0.32,-0.262,-0.66,-0.627
6380548,5694.0,12703.0,-741.0,0.308,-0.24,-0.669,-0.632
6380565,6334.0,11097.0,1103.0,0.293,-0.218,-0.677,-0.639
6380582,7522.0,8971.0,2977.0,0.278,-0.194,-0.686,-0.644
6380599,7094.0,8545.0,2179.0,0.265,-0.166,-0.695,-0.647
6380615,5824.0,9999.0,1579.0,0.25,-0.138,-0.704,-0.65
6380632,6208.0,8321.0,1567.0,0.234,-0.111,-0.71,-0.654
6380649,6362.0,10257.0,1297.0,0.216,-0.086,-0.715,-0.659
6380675,6526.0,8735.0,1315.0,0.199,-0.061,-0.719,-0.663
6380694,7490.0,7213.0,1043.0,0.183,-0.038,-0.723,-0.665
6380710,6048.0,5941.0,645.0,0.167,-0.012,-0.728,-0.664
6380726,4166.0,6367.0,-27.0,0.153,0.015,-0.736,-0.66
6380742,2346.0,8567.0,-1029.0,0.139,0.039,-0.743,-0.654
6380759,3362.0,9117.0,-761.0,0.125,0.058,-0.747,-0.651
6380776,3578.0,8487.0,-739.0,0.111,0.076,-0.75,-0.648
6380793,2608.0,8493.0,-1031.0,0.096,0.095,-0.752,-0.645
6380809,1112.0,8747.0,-1599.0,0.079,0.114,-0.753,-0.643
6380835,-70.0,7195.0,-1151.0,0.063,0.132,-0.752,-0.642
6380851,-452.0,7541.0,-1411.0,0.047,0.146,-0.751,-0.642
6380867,-416.0,7595.0,-1539.0,0.033,0.158,-0.749,-0.643
6380883,-196.0,6975.0,-1257.0,0.02,0.169,-0.747,-0.643
6380899,288.0,6409.0,-1659.0,0.006,0.18,-0.746,-0.641
6380915,-1198.0,7011.0,-2115.0,0.009,-0.19,0.745,0.639
6380941,-1712.0,6563.0,-1643.0,0.023,-0.199,0.744,0.638
6380957,-1282.0,5039.0,-1045.0,0.036,-0.207,0.742,0.637
6380973,-1836.0,5215.0,-579.0,0.048,-0.213,0.742,0.634
6380989,-1418.0,4943.0,97.0,0.058,-0.219,0.743,0.63
6381005,-1670.0,5563.0,-409.0,0.068,-0.225,0.745,0.625
6381021,-2038.0,6911.0,-595.0,0.077,-0.23,0.747,0.619
6381047,-2320.0,7267.0,-483.0,0.085,-0.235,0.747,0.616
6381063,-1928.0,6911.0,-613.0,0.093,-0.24,0.745,0.615
6381079,-1782.0,6227.0,-703.0,0.1,-0.246,0.743,0.614
6381095,-2342.0,4227.0,-413.0,0.106,-0.252,0.739,0.615
6381111,-1902.0,3341.0,-417.0,0.111,-0.257,0.736,0.616
6381128,-2384.0,2289.0,-309.0,0.113,-0.261,0.733,0.618
6381154,-1450.0,-819.0,-529.0,0.112,-0.263,0.729,0.622
6381170,-1816.0,-1629.0,255.0,0.109,-0.264,0.726,0.625
6381186,-1470.0,-1965.0,1051.0,0.103,-0.262,0.726,0.627
6381202,-1656.0,-1233.0,1303.0,0.093,-0.256,0.729,0.628
6381218,-1104.0,1321.0,785.0,0.08,-0.246,0.734,0.628
6381234,-830.0,3181.0,133.0,0.064,-0.234,0.74,0.628
6381251,-950.0,5149.0,-319.0,0.046,-0.221,0.744,0.629
6381278,-1786.0,7291.0,-767.0,0.028,-0.207,0.746,0.632
6381295,-1178.0,7869.0,-1047.0,0.008,-0.189,0.746,0.638
6381311,-178.0,5437.0,-1303.0,0.012,0.169,-0.745,-0.645
6381327,62.0,7013.0,-825.0,0.031,0.144,-0.746,-0.65
6381343,2396.0,7869.0,-85.0,0.05,0.117,-0.748,-0.652
6381359,2596.0,7051.0,181.0,0.067,0.089,-0.751,-0.651
6381376,4346.0,9573.0,-683.0,0.083,0.063,-0.756,-0.647
6381393,3776.0,10219.0,53.0,0.104,0.037,-0.758,-0.643
6381410,3630.0,11345.0,75.0,0.123,0.013,-0.757,-0.641
6381436,4456.0,10869.0,-169.0,0.144,-0.01,-0.755,-0.64
6381452,4612.0,9903.0,-845.0,0.163,-0.032,-0.75,-0.64
6381468,3682.0,10597.0,-1769.0,0.18,-0.052,-0.745,-0.641
6381485,3444.0,10885.0,-2187.0,0.196,-0.073,-0.738,-0.642
6381502,3946.0,8237.0,-1907.0,0.21,-0.095,-0.73,-0.644
6381518,4418.0,7729.0,-1795.0,0.223,-0.117,-0.723,-0.643
6381535,4398.0,8593.0,-1333.0,0.235,-0.14,-0.716,-0.642
6381562,5248.0,8857.0,-611.0,0.248,-0.164,-0.709,-0.64
6381578,5616.0,9227.0,-225.0,0.258,-0.187,-0.7,-0.639
6381595,5948.0,9081.0,613.0,0.266,-0.209,-0.691,-0.639
6381611,6102.0,7917.0,995.0,0.274,-0.231,-0.68,-0.64
6381628,6220.0,7775.0,1453.0,0.282,-0.251,-0.67,-0.639
6381645,6412.0,8009.0,1645.0,0.288,-0.272,-0.66,-0.638
6381662,5944.0,7389.0,1985.0,0.295,-0.292,-0.651,-0.635
6381678,6328.0,8027.0,2193.0,0.3,-0.313,-0.644,-0.63
6381695,7360.0,8399.0,2441.0,0.305,-0.331,-0.64,-0.622
6381711,7200.0,8409.0,2673.0,0.312,-0.346,-0.638,-0.613
6381738,6992.0,9127.0,2419.0,0.321,-0.353,-0.639,-0.604
6381754,5546.0,10637.0,895.0,0.324,-0.353,-0.642,-0.598
6381770,4730.0,13019.0,-389.0,0.323,-0.351,-0.644,-0.599
6381787,4876.0,10681.0,211.0,0.319,-0.347,-0.644,-0.603
6381803,4584.0,8743.0,765.0,0.316,-0.339,-0.647,-0.605
6381819,4802.0,7153.0,837.0,0.315,-0.327,-0.654,-0.605
6381835,5176.0,9655.0,-89.0,0.314,-0.312,-0.663,-0.604
6381862,4886.0,12461.0,-853.0,0.309,-0.293,-0.674,-0.604
6381878,5198.0,13379.0,-885.0,0.299,-0.272,-0.684,-0.607
6381894,4626.0,11941.0,407.0,0.287,-0.252,-0.692,-0.612
6381911,5996.0,9279.0,1609.0,0.274,-0.231,-0.701,-0.617
6381927,6526.0,9337.0,1699.0,0.261,-0.206,-0.712,-0.619
6381944,5726.0,11947.0,727.0,0.248,-0.177,-0.724,-0.619
6381961,5582.0,13377.0,123.0,0.231,-0.152,-0.731,-0.624
6381978,6954.0,9113.0,513.0,0.211,-0.128,-0.734,-0.632
6381995,6892.0,5257.0,1105.0,0.193,-0.103,-0.738,-0.638
6382021,6664.0,8113.0,957.0,0.175,-0.074,-0.745,-0.64
6382037,5156.0,8457.0,-107.0,0.158,-0.048,-0.751,-0.639
6382053,5102.0,5587.0,221.0,0.143,-0.023,-0.756,-0.638
6382070,4030.0,6409.0,-309.0,0.129,0.002,-0.765,-0.631
6382086,3556.0,7279.0,-887.0,0.114,0.024,-0.773,-0.624
6382102,3862.0,9127.0,-1537.0,0.099,0.046,-0.78,-0.617
6382118,1984.0,8611.0,-2049.0,0.083,0.066,-0.784,-0.612
6382145,1232.0,9553.0,-1715.0,0.067,0.085,-0.787,-0.608
6382161,536.0,7241.0,-1363.0,0.052,0.102,-0.788,-0.605
6382177,464.0,8993.0,-2385.0,0.035,0.117,-0.789,-0.602
6382194,-74.0,8193.0,-2813.0,0.019,0.132,-0.789,-0.6
6382210,-626.0,8149.0,-3595.0,0.001,0.146,-0.788,-0.598
6382227,-370.0,8623.0,-4039.0,0.017,-0.158,0.786,0.597
6382244,10.0,7833.0,-3917.0,0.036,-0.168,0.784,0.596
6382260,656.0,7035.0,-3953.0,0.055,-0.178,0.783,0.594
6382287,-190.0,5089.0,-3297.0,0.074,-0.188,0.78,0.592
6382304,-870.0,3867.0,-2299.0,0.094,-0.197,0.78,0.587
6382320,-2230.0,4695.0,-1425.0,0.111,-0.205,0.782,0.578
6382336,-2600.0,4737.0,-725.0,0.128,-0.211,0.784,0.569
6382352,-2454.0,4529.0,-123.0,0.143,-0.216,0.788,0.559
6382368,-3490.0,5559.0,-105.0,0.158,-0.221,0.792,0.547
6382384,-3802.0,6415.0,-245.0,0.171,-0.227,0.793,0.538
6382410,-4150.0,6549.0,-197.0,0.183,-0.233,0.793,0.533
6382427,-4446.0,6251.0,-243.0,0.193,-0.24,0.789,0.531
