timeMs,ax,ay,az,q0,q1,q2,q3
6382461,-4106.0,3441.0,-189.0,0.206,-0.251,0.779,0.536
6382478,-4108.0,3089.0,-657.0,0.21,-0.257,0.775,0.539
6382495,-4242.0,3229.0,-1165.0,0.212,-0.261,0.77,0.542
6382512,-4428.0,3453.0,-1311.0,0.214,-0.264,0.767,0.544
6382529,-3928.0,3353.0,-1073.0,0.215,-0.265,0.765,0.545
6382546,-4416.0,4259.0,-1285.0,0.216,-0.265,0.765,0.545
6382562,-4836.0,5181.0,-1383.0,0.217,-0.265,0.766,0.545
6382579,-5364.0,5267.0,-1125.0,0.217,-0.265,0.765,0.545
6382605,-6080.0,5321.0,-1101.0,0.217,-0.266,0.765,0.545
6382622,-5904.0,5125.0,-983.0,0.216,-0.267,0.764,0.547
6382639,-6766.0,4843.0,-941.0,0.216,-0.269,0.761,0.549
6382656,-5634.0,4945.0,-807.0,0.216,-0.271,0.758,0.552
6382673,-3892.0,1263.0,-1001.0,0.214,-0.273,0.752,0.561
6382690,-4762.0,1673.0,-573.0,0.21,-0.275,0.747,0.568
6382707,-6280.0,3073.0,-319.0,0.207,-0.277,0.743,0.573
6382724,-6442.0,3969.0,-581.0,0.204,-0.279,0.742,0.575
6382741,-5562.0,6129.0,-1669.0,0.201,-0.281,0.743,0.574
6382757,-4346.0,7359.0,-2655.0,0.197,-0.282,0.743,0.574
6382774,-4090.0,7661.0,-3099.0,0.19,-0.283,0.743,0.575
6382791,-3754.0,7441.0,-2863.0,0.182,-0.283,0.743,0.579
6382818,-3688.0,7115.0,-2639.0,0.174,-0.284,0.742,0.582
6382835,-3894.0,7679.0,-2691.0,0.167,-0.285,0.741,0.584
6382852,-4358.0,8853.0,-3117.0,0.162,-0.289,0.741,0.585
6382869,-4180.0,9751.0,-3081.0,0.158,-0.292,0.738,0.587
6382886,-4274.0,8963.0,-2777.0,0.155,-0.295,0.734,0.592
6382903,-4208.0,7485.0,-2307.0,0.152,-0.298,0.727,0.6
6382919,-3440.0,6725.0,-1915.0,0.15,-0.301,0.72,0.608
6382936,-3836.0,8027.0,-1305.0,0.148,-0.304,0.711,0.617
6382953,-3910.0,7195.0,379.0,0.145,-0.307,0.697,0.632
6382970,-3802.0,6379.0,1117.0,0.141,-0.31,0.679,0.65
6382987,-4620.0,6025.0,713.0,0.136,-0.313,0.662,0.667
6383003,-3580.0,4333.0,1051.0,0.133,-0.316,0.65,0.679
6383029,-4094.0,6397.0,1087.0,0.133,-0.32,0.643,0.683
6383045,-3696.0,7437.0,603.0,0.133,-0.324,0.638,0.685
6383061,-1280.0,7211.0,-767.0,0.131,-0.326,0.633,0.69
6383077,-3900.0,529.0,3867.0,0.116,-0.32,0.624,0.703
6383094,-614.0,-3105.0,927.0,0.105,-0.316,0.623,0.708
6383111,-1388.0,-383.0,123.0,0.095,-0.309,0.629,0.707
6383127,-1334.0,1005.0,27.0,0.084,-0.299,0.64,0.703
6383154,-1804.0,2647.0,-727.0,0.071,-0.286,0.654,0.697
6383171,-1808.0,4077.0,-1173.0,0.057,-0.268,0.67,0.69
6383188,-1676.0,5439.0,-1451.0,0.042,-0.246,0.687,0.682
6383205,-1600.0,7255.0,-1751.0,0.025,-0.22,0.705,0.674
6383222,-1326.0,8713.0,-2765.0,0.008,-0.192,0.722,0.665
6383239,-842.0,9769.0,-4045.0,0.01,0.159,-0.739,-0.654
6383256,18.0,10561.0,-4777.0,0.027,0.124,-0.754,-0.645
6383273,252.0,13315.0,-5383.0,0.041,0.092,-0.764,-0.637
6383290,-158.0,15309.0,-5065.0,0.052,0.063,-0.767,-0.637
6383306,-882.0,15475.0,-4153.0,0.058,0.037,-0.763,-0.643
6383323,-1210.0,14717.0,-2673.0,0.061,0.011,-0.755,-0.653
6383340,-1400.0,13539.0,-1705.0,0.06,-0.013,-0.745,-0.664
6383357,-1918.0,12511.0,-791.0,0.057,-0.035,-0.735,-0.675
6383384,-1992.0,11459.0,265.0,0.052,-0.054,-0.723,-0.686
6383401,-2002.0,10613.0,1117.0,0.045,-0.069,-0.713,-0.696
6383418,-2458.0,9861.0,1723.0,0.038,-0.082,-0.705,-0.703
6383435,-2478.0,9511.0,2387.0,0.03,-0.093,-0.7,-0.708
6383452,-2264.0,9649.0,2733.0,0.021,-0.102,-0.696,-0.711
6383468,-1986.0,9745.0,2897.0,0.012,-0.109,-0.692,-0.713
6383484,-1452.0,9549.0,2747.0,0.002,-0.113,-0.689,-0.716
6383501,-972.0,9079.0,2649.0,0.007,0.114,0.685,0.719
6383517,-868.0,8607.0,2365.0,0.018,0.113,0.681,0.723
6383534,-530.0,7421.0,2145.0,0.028,0.111,0.678,0.726
6383560,-206.0,5821.0,1755.0,0.037,0.109,0.676,0.728
6383577,182.0,5197.0,1567.0,0.044,0.108,0.675,0.728
6383593,892.0,6835.0,1529.0,0.05,0.108,0.676,0.727
6383609,1768.0,9619.0,1133.0,0.053,0.11,0.675,0.728
6383625,2346.0,10023.0,1095.0,0.055,0.112,0.67,0.731
6383641,2874.0,10171.0,859.0,0.058,0.113,0.663,0.737
6383667,2816.0,8947.0,937.0,0.062,0.111,0.655,0.745
6383683,2554.0,7819.0,941.0,0.063,0.109,0.649,0.751
6383699,2366.0,7145.0,795.0,0.064,0.106,0.644,0.755
6383715,2124.0,6721.0,657.0,0.063,0.102,0.643,0.757
6383731,1926.0,6349.0,435.0,0.062,0.099,0.643,0.757
6383747,1536.0,5703.0,349.0,0.059,0.096,0.644,0.756
6383773,1328.0,5563.0,115.0,0.056,0.094,0.648,0.754
6383789,1040.0,5677.0,29.0,0.052,0.093,0.653,0.75
6383806,1074.0,6229.0,-151.0,0.048,0.094,0.658,0.745
6383823,996.0,6673.0,-307.0,0.044,0.095,0.663,0.742
6383839,1084.0,6993.0,-189.0,0.042,0.096,0.665,0.739
6383856,696.0,7081.0,89.0,0.04,0.098,0.666,0.738
6383872,540.0,7483.0,471.0,0.038,0.102,0.666,0.738
6383888,660.0,7925.0,661.0,0.036,0.108,0.665,0.738
6383914,824.0,8281.0,887.0,0.034,0.115,0.662,0.74
6383930,1134.0,8531.0,1255.0,0.033,0.124,0.658,0.742
6383946,1308.0,8499.0,1671.0,0.032,0.132,0.654,0.744
6383962,1290.0,8605.0,2057.0,0.032,0.14,0.651,0.745
6383978,1320.0,8465.0,2363.0,0.032,0.147,0.649,0.746
6384004,1184.0,8561.0,2551.0,0.032,0.155,0.649,0.745
6384020,1108.0,8545.0,2713.0,0.033,0.162,0.648,0.743
6384036,1002.0,8345.0,2885.0,0.035,0.17,0.646,0.743
6384052,1026.0,8087.0,3131.0,0.037,0.178,0.644,0.743
6384068,1278.0,7683.0,3331.0,0.04,0.187,0.641,0.744
6384084,1554.0,7581.0,3697.0,0.044,0.196,0.636,0.745
6384110,2042.0,8093.0,3873.0,0.046,0.206,0.63,0.747
6384126,2568.0,8973.0,3877.0,0.048,0.216,0.624,0.75
6384142,2986.0,8747.0,3945.0,0.051,0.224,0.616,0.754
6384158,3092.0,7681.0,3887.0,0.053,0.23,0.608,0.758
6384174,2888.0,6611.0,3707.0,0.055,0.233,0.603,0.761
6384190,2610.0,6465.0,3455.0,0.054,0.235,0.602,0.761
6384216,2374.0,6699.0,3091.0,0.053,0.237,0.603,0.76
6384232,2268.0,7233.0,2627.0,0.052,0.238,0.605,0.758
6384248,2330.0,7481.0,2327.0,0.05,0.241,0.607,0.756
6384264,2332.0,7371.0,2033.0,0.049,0.243,0.608,0.754
6384281,2448.0,7093.0,1785.0,0.048,0.246,0.61,0.752
6384297,2580.0,7239.0,1631.0,0.048,0.25,0.611,0.75
6384313,2862.0,6981.0,1573.0,0.048,0.253,0.611,0.748
6384339,2738.0,7533.0,1341.0,0.048,0.257,0.611,0.747
6384355,3038.0,7477.0,1217.0,0.049,0.262,0.611,0.746
6384372,3034.0,7489.0,1119.0,0.05,0.266,0.61,0.745
6384389,3128.0,7189.0,1147.0,0.051,0.271,0.608,0.744
6384405,3016.0,7139.0,1197.0,0.053,0.276,0.607,0.743
6384422,2980.0,7145.0,1313.0,0.054,0.281,0.606,0.742
6384439,2992.0,7065.0,1383.0,0.056,0.286,0.605,0.741
6384456,2890.0,6959.0,1499.0,0.057,0.291,0.605,0.739
6384482,2730.0,7131.0,1493.0,0.058,0.295,0.605,0.737
6384498,2816.0,7275.0,1541.0,0.06,0.299,0.605,0.736
6384514,2748.0,7335.0,1581.0,0.061,0.303,0.605,0.734
6384530,2762.0,7369.0,1547.0,0.062,0.307,0.605,0.732
6384547,2766.0,7353.0,1551.0,0.063,0.311,0.606,0.73
6384563,2688.0,7473.0,1583.0,0.064,0.314,0.606,0.728
6384579,2736.0,7565.0,1643.0,0.065,0.318,0.606,0.726
6384605,2706.0,7463.0,1623.0,0.067,0.322,0.606,0.724
6384623,2614.0,7475.0,1585.0,0.069,0.325,0.607,0.722
6384639,2534.0,7289.0,1531.0,0.07,0.329,0.607,0.72
6384655,2464.0,6907.0,1563.0,0.071,0.333,0.609,0.716
6384671,2534.0,6071.0,1483.0,0.07,0.337,0.615,0.71
6384688,2368.0,5815.0,1163.0,0.066,0.341,0.626,0.698
6384707,2368.0,6245.0,609.0,0.059,0.345,0.642,0.682
6384723,2114.0,7135.0,65.0,0.051,0.348,0.66,0.664
6384739,2020.0,8017.0,-503.0,0.043,0.353,0.678,0.644
6384756,2306.0,9011.0,-1037.0,0.037,0.356,0.694,0.625
6384783,2600.0,10001.0,-1571.0,0.033,0.359,0.706,0.609
6384799,2542.0,10277.0,-1773.0,0.032,0.362,0.714,0.599
6384815,2642.0,9827.0,-1915.0,0.033,0.364,0.717,0.593
6384832,2792.0,9157.0,-2051.0,0.037,0.366,0.719,0.59
6384848,2918.0,8447.0,-2065.0,0.041,0.368,0.719,0.588
6384864,3016.0,8197.0,-1967.0,0.046,0.37,0.72,0.586
6384880,3246.0,8351.0,-2013.0,0.052,0.371,0.721,0.583
6384906,3632.0,8429.0,-2003.0,0.057,0.372,0.722,0.58
6384923,3934.0,8675.0,-2127.0,0.063,0.372,0.724,0.577
6384939,4272.0,8807.0,-2159.0,0.067,0.371,0.727,0.574
6384955,4376.0,8583.0,-2339.0,0.071,0.368,0.729,0.572
6384972,4206.0,8171.0,-2361.0,0.075,0.365,0.732,0.57
6384989,3922.0,7473.0,-2453.0,0.078,0.361,0.735,0.568
6385005,3468.0,6985.0,-2399.0,0.081,0.357,0.74,0.564
6385021,3012.0,6653.0,-2439.0,0.084,0.354,0.745,0.56
6385047,2610.0,6347.0,-2373.0,0.087,0.351,0.749,0.555
6385064,2378.0,5969.0,-2301.0,0.091,0.348,0.753,0.551
6385080,2106.0,5513.0,-2147.0,0.096,0.347,0.755,0.549
6385096,1848.0,5345.0,-2029.0,0.1,0.347,0.755,0.548
6385112,1840.0,5225.0,-1917.0,0.105,0.347,0.754,0.548
6385128,1850.0,5089.0,-1693.0,0.11,0.349,0.751,0.549
6385145,2192.0,5011.0,-1535.0,0.113,0.352,0.748,0.551
6385171,2804.0,5817.0,-1839.0,0.115,0.356,0.745,0.553
6385187,3808.0,7147.0,-2203.0,0.113,0.36,0.743,0.553
6385203,4614.0,8527.0,-2631.0,0.111,0.363,0.742,0.552
6385219,4870.0,9733.0,-3067.0,0.108,0.364,0.743,0.551
6385235,4872.0,10061.0,-3303.0,0.107,0.361,0.745,0.551
6385251,4666.0,9715.0,-3381.0,0.106,0.357,0.748,0.55
6385277,4446.0,9081.0,-3291.0,0.106,0.35,0.751,0.55
6385293,4170.0,8395.0,-3263.0,0.107,0.343,0.754,0.55
6385309,3750.0,8421.0,-3297.0,0.108,0.335,0.757,0.551
6385325,3050.0,7633.0,-3005.0,0.111,0.326,0.758,0.554
6385341,2660.0,6963.0,-2731.0,0.115,0.317,0.758,0.558
6385357,2394.0,6239.0,-2387.0,0.12,0.309,0.758,0.562
6385384,2028.0,6891.0,-2529.0,0.126,0.3,0.756,0.568
6385400,1290.0,6913.0,-2129.0,0.132,0.293,0.752,0.575
6385416,768.0,6171.0,-1795.0,0.139,0.288,0.747,0.583
6385432,826.0,5661.0,-1613.0,0.146,0.286,0.74,0.591
6385448,1292.0,5541.0,-1655.0,0.151,0.286,0.732,0.599
6385464,1570.0,6439.0,-1787.0,0.154,0.287,0.725,0.607
6385490,1268.0,8047.0,-1707.0,0.158,0.288,0.716,0.616
6385507,1050.0,8303.0,-1409.0,0.163,0.289,0.705,0.627
6385523,1474.0,8067.0,-1171.0,0.168,0.29,0.692,0.639
6385540,1666.0,8225.0,-1415.0,0.172,0.292,0.681,0.649
6385557,1678.0,9615.0,-1179.0,0.177,0.293,0.669,0.659
6385573,1528.0,9509.0,-885.0,0.183,0.294,0.656,0.671
6385589,1586.0,8271.0,-661.0,0.189,0.294,0.643,0.681
6385605,1728.0,7937.0,-119.0,0.194,0.294,0.633,0.689
6385632,1660.0,8603.0,113.0,0.199,0.294,0.625,0.695
6385648,1542.0,8761.0,491.0,0.203,0.294,0.618,0.701
6385664,1600.0,8187.0,801.0,0.208,0.293,0.61,0.706
6385680,1540.0,7371.0,979.0,0.212,0.292,0.603,0.711
6385696,1456.0,7763.0,1243.0,0.215,0.292,0.597,0.716
6385712,1496.0,7563.0,1619.0,0.217,0.291,0.59,0.722
6385729,1650.0,6801.0,1965.0,0.218,0.289,0.584,0.726
6385755,1864.0,7131.0,2273.0,0.218,0.288,0.58,0.73
6385771,1912.0,7313.0,2399.0,0.217,0.286,0.577,0.734
6385787,2054.0,7473.0,2511.0,0.215,0.283,0.576,0.737
6385804,2094.0,7507.0,2589.0,0.211,0.279,0.576,0.739
6385820,1926.0,7855.0,2629.0,0.205,0.273,0.577,0.742
6385836,2156.0,7985.0,2713.0,0.2,0.266,0.578,0.745
6385862,2326.0,7333.0,2719.0,0.195,0.257,0.58,0.748
6385878,2138.0,7135.0,2349.0,0.188,0.247,0.583,0.751
6385894,1788.0,7545.0,2003.0,0.179,0.235,0.587,0.753
6385910,1514.0,7259.0,1897.0,0.168,0.223,0.592,0.756
6385926,1328.0,6685.0,1937.0,0.156,0.211,0.598,0.758
6385942,1074.0,7933.0,1345.0,0.142,0.2,0.605,0.758
6385968,1028.0,8131.0,1257.0,0.127,0.19,0.612,0.757
6385984,962.0,9161.0,1033.0,0.113,0.179,0.621,0.755
6386000,530.0,10473.0,651.0,0.1,0.167,0.629,0.753
6386016,-72.0,10375.0,817.0,0.091,0.156,0.633,0.752
6386032,-158.0,9121.0,977.0,0.084,0.146,0.636,0.753
6386048,-336.0,9013.0,1075.0,0.08,0.137,0.638,0.753
6386065,-434.0,8767.0,1179.0,0.078,0.129,0.637,0.756
6386091,-174.0,8217.0,1577.0,0.079,0.124,0.634,0.759
6386107,184.0,7701.0,2125.0,0.08,0.119,0.63,0.763
6386124,460.0,7309.0,2561.0,0.083,0.116,0.624,0.768
6386140,1254.0,6815.0,2877.0,0.086,0.114,0.616,0.774
6386157,1670.0,5907.0,3095.0,0.09,0.112,0.608,0.781
6386173,2106.0,5727.0,3309.0,0.093,0.112,0.599,0.788
6386190,3078.0,2883.0,3771.0,0.093,0.113,0.59,0.794
6386207,2834.0,3267.0,3427.0,0.091,0.114,0.586,0.797
6386233,2426.0,5917.0,2987.0,0.086,0.115,0.588,0.796
6386249,2368.0,7853.0,2697.0,0.081,0.114,0.591,0.794
6386265,1572.0,9807.0,2171.0,0.077,0.113,0.594,0.793
6386281,926.0,9681.0,1975.0,0.075,0.111,0.593,0.794
6386297,554.0,8645.0,1909.0,0.073,0.111,0.591,0.795
6386313,616.0,7855.0,2215.0,0.073,0.11,0.59,0.796
6386339,482.0,7363.0,2641.0,0.072,0.109,0.589,0.797
6386356,890.0,7453.0,3271.0,0.072,0.108,0.589,0.798
6386373,962.0,7139.0,3403.0,0.072,0.107,0.589,0.798
6386391,1004.0,6825.0,3917.0,0.071,0.103,0.591,0.797
6386408,624.0,6967.0,3757.0,0.069,0.1,0.594,0.795
6386425,824.0,6807.0,3715.0,0.066,0.097,0.598,0.793
6386441,512.0,7145.0,3259.0,0.062,0.093,0.602,0.791
6386457,-54.0,7941.0,3019.0,0.059,0.09,0.606,0.788
6386474,280.0,7487.0,3329.0,0.055,0.088,0.609,0.787
6386491,566.0,7581.0,3271.0,0.051,0.087,0.611,0.785
6386517,676.0,7791.0,2855.0,0.048,0.085,0.613,0.784
6386533,796.0,7695.0,2773.0,0.044,0.083,0.615,0.783
6386549,866.0,7797.0,2585.0,0.041,0.08,0.619,0.78
6386565,718.0,8043.0,2557.0,0.038,0.077,0.623,0.778
6386581,880.0,7755.0,2719.0,0.035,0.074,0.626,0.776
6386597,934.0,7527.0,2461.0,0.032,0.07,0.628,0.774
6386623,748.0,7323.0,2237.0,0.028,0.067,0.631,0.772
6386639,960.0,7221.0,1891.0,0.025,0.064,0.634,0.77
6386656,1066.0,7071.0,1949.0,0.022,0.061,0.637,0.768
6386672,1092.0,8031.0,1751.0,0.019,0.059,0.641,0.765
6386689,1316.0,7977.0,1821.0,0.017,0.056,0.643,0.763
6386705,1436.0,7583.0,1913.0,0.014,0.054,0.645,0.762
6386721,1358.0,8223.0,1879.0,0.011,0.053,0.646,0.761
6386747,1022.0,8957.0,1345.0,0.009,0.051,0.646,0.762
6386763,1214.0,5871.0,2663.0,0.006,0.049,0.645,0.763
6386780,1092.0,7655.0,2589.0,0.003,0.047,0.644,0.763
6386796,786.0,7893.0,2505.0,0.0,-0.045,-0.644,-0.764
6386813,318.0,7287.0,2415.0,0.004,-0.044,-0.643,-0.765
6386830,152.0,7773.0,2167.0,0.009,-0.043,-0.643,-0.765
6386847,110.0,8333.0,2227.0,0.012,-0.042,-0.643,-0.765
6386864,34.0,8497.0,2297.0,0.015,-0.04,-0.643,-0.765
6386881,178.0,8719.0,2377.0,0.018,-0.039,-0.642,-0.766
6386898,370.0,8219.0,2581.0,0.019,-0.038,-0.64,-0.768
6386915,524.0,7707.0,2869.0,0.021,-0.037,-0.637,-0.769
6386942,240.0,7553.0,2901.0,0.023,-0.037,-0.635,-0.771
6386958,290.0,8231.0,2705.0,0.025,-0.039,-0.633,-0.773
6386975,250.0,8525.0,2887.0,0.027,-0.04,-0.63,-0.775
6386991,542.0,8707.0,2657.0,0.027,-0.042,-0.626,-0.778
6387008,756.0,8545.0,2505.0,0.026,-0.044,-0.621,-0.782
6387025,910.0,8327.0,2405.0,0.024,-0.046,-0.615,-0.787
6387042,994.0,8383.0,2579.0,0.022,-0.048,-0.607,-0.793
6387059,1130.0,8177.0,2735.0,0.019,-0.051,-0.598,-0.799
6387075,1158.0,7763.0,2975.0,0.016,-0.054,-0.589,-0.806
6387102,1554.0,7121.0,3863.0,0.014,-0.058,-0.582,-0.811
6387119,1368.0,8643.0,3545.0,0.011,-0.061,-0.575,-0.816
6387136,1326.0,8375.0,3687.0,0.007,-0.063,-0.567,-0.821
6387153,1188.0,7623.0,3815.0,0.004,-0.065,-0.558,-0.827
6387170,1074.0,7219.0,3823.0,0.001,-0.066,-0.551,-0.832
6387187,916.0,7051.0,3909.0,0.002,0.067,0.546,0.835
6387204,732.0,6587.0,4211.0,0.005,0.067,0.542,0.838
6387220,736.0,6209.0,4543.0,0.009,0.066,0.54,0.839
6387236,976.0,6107.0,4635.0,0.011,0.064,0.543,0.837
6387252,558.0,6797.0,4365.0,0.012,0.061,0.548,0.834
6387278,560.0,6841.0,4441.0,0.012,0.056,0.552,0.832
6387294,-386.0,6443.0,3609.0,0.011,0.05,0.555,0.83
6387310,-506.0,5787.0,2505.0,0.01,0.044,0.558,0.829
6387326,-1724.0,7779.0,533.0,0.01,0.041,0.559,0.828
6387342,-794.0,8741.0,1435.0,0.011,0.04,0.554,0.831
6387359,-974.0,7211.0,2181.0,0.012,0.04,0.545,0.837
6387376,-294.0,6439.0,2463.0,0.015,0.043,0.536,0.843
6387393,406.0,7151.0,2567.0,0.018,0.046,0.529,0.847
6387420,368.0,8293.0,2871.0,0.023,0.047,0.52,0.853
6387437,480.0,7403.0,3437.0,0.028,0.049,0.509,0.859
6387453,746.0,6343.0,3897.0,0.033,0.05,0.499,0.864
6387469,918.0,6177.0,4099.0,0.038,0.052,0.491,0.868
6387485,1098.0,6307.0,4225.0,0.043,0.054,0.484,0.872
6387501,1366.0,5895.0,4595.0,0.045,0.056,0.477,0.876
6387517,1422.0,5651.0,4767.0,0.048,0.057,0.472,0.878
6387544,1392.0,5877.0,4995.0,0.05,0.059,0.47,0.88
6387560,1044.0,6449.0,4563.0,0.053,0.06,0.469,0.88
6387576,738.0,5845.0,957.0,0.056,0.061,0.468,0.88
6387592,-114.0,5625.0,5197.0,0.059,0.06,0.466,0.881
6387608,190.0,6631.0,5285.0,0.063,0.06,0.466,0.881
6387625,898.0,5425.0,5481.0,0.067,0.062,0.464,0.881
6387642,504.0,6421.0,5289.0,0.07,0.063,0.465,0.88
6387658,656.0,6623.0,5311.0,0.073,0.065,0.464,0.88
6387684,914.0,5709.0,5765.0,0.076,0.065,0.463,0.881
6387700,954.0,5049.0,5791.0,0.077,0.066,0.462,0.881
6387716,932.0,5191.0,5669.0,0.077,0.067,0.463,0.88
6387733,748.0,6261.0,5211.0,0.077,0.069,0.464,0.88
6387750,614.0,6657.0,4937.0,0.075,0.07,0.465,0.879
6387766,546.0,6807.0,4667.0,0.074,0.071,0.465,0.879
6387782,214.0,6857.0,4407.0,0.074,0.072,0.466,0.879
6387808,304.0,6655.0,4415.0,0.073,0.073,0.465,0.879
6387825,334.0,6371.0,4529.0,0.072,0.074,0.465,0.879
6387842,346.0,6317.0,4621.0,0.07,0.076,0.467,0.878
6387858,688.0,6741.0,4825.0,0.069,0.077,0.468,0.878
6387874,736.0,6615.0,4815.0,0.068,0.077,0.469,0.877
6387891,632.0,6317.0,5127.0,0.067,0.076,0.469,0.877
6387908,420.0,6077.0,5641.0,0.065,0.076,0.469,0.877
6387925,1102.0,6685.0,5593.0,0.063,0.074,0.47,0.877
6387951,934.0,7787.0,5253.0,0.061,0.072,0.469,0.878
6387967,502.0,7557.0,5435.0,0.058,0.069,0.467,0.88
6387983,662.0,7067.0,5077.0,0.056,0.067,0.463,0.882
6387999,854.0,6377.0,4833.0,0.054,0.065,0.459,0.884
6388015,756.0,6045.0,4643.0,0.052,0.063,0.457,0.886
6388031,792.0,6049.0,4803.0,0.049,0.061,0.455,0.887
6388057,676.0,5923.0,5065.0,0.046,0.06,0.453,0.888
6388074,750.0,5573.0,5049.0,0.042,0.059,0.451,0.889
6388091,972.0,5351.0,4637.0,0.037,0.06,0.45,0.89
6388107,1212.0,5501.0,3959.0,0.034,0.059,0.448,0.891
6388124,1200.0,5585.0,3751.0,0.031,0.058,0.448,0.892
6388141,1008.0,5489.0,4107.0,0.029,0.057,0.448,0.892
6388157,916.0,5125.0,4533.0,0.027,0.055,0.45,0.891
6388174,1120.0,5157.0,5165.0,0.024,0.055,0.453,0.889
6388191,1262.0,4985.0,5725.0,0.022,0.054,0.459,0.887
6388207,1146.0,6007.0,5925.0,0.019,0.053,0.466,0.883
6388233,1336.0,7251.0,6117.0,0.016,0.052,0.471,0.881
6388249,1330.0,7027.0,6117.0,0.013,0.051,0.473,0.879
6388265,1314.0,6779.0,6139.0,0.01,0.048,0.476,0.878
6388281,1134.0,6529.0,6135.0,0.006,0.046,0.479,0.877
6388297,890.0,6277.0,5953.0,0.003,0.043,0.483,0.874
6388313,904.0,5965.0,5725.0,0.001,-0.04,-0.49,-0.871
6388339,368.0,6373.0,5053.0,0.004,-0.037,-0.497,-0.867
6388356,526.0,5957.0,5211.0,0.008,-0.033,-0.507,-0.861
6388373,346.0,7315.0,4835.0,0.011,-0.029,-0.518,-0.855
6388390,258.0,7181.0,4523.0,0.014,-0.025,-0.529,-0.848
6388406,18.0,7447.0,4083.0,0.017,-0.022,-0.537,-0.843
6388422,92.0,7117.0,3585.0,0.022,-0.021,-0.543,-0.839
6388439,-64.0,7411.0,2829.0,0.025,-0.019,-0.547,-0.836
6388456,38.0,7935.0,2193.0,0.028,-0.018,-0.551,-0.834
6388473,-14.0,8685.0,2023.0,0.03,-0.018,-0.552,-0.833
6388490,-570.0,9361.0,1873.0,0.03,-0.017,-0.55,-0.834
6388517,-490.0,8381.0,2037.0,0.029,-0.019,-0.546,-0.837
6388534,-490.0,8241.0,2211.0,0.027,-0.022,-0.54,-0.841
6388551,-448.0,7869.0,2667.0,0.023,-0.025,-0.533,-0.845
6388568,116.0,7709.0,3641.0,0.019,-0.029,-0.527,-0.849
6388585,692.0,7637.0,4445.0,0.014,-0.032,-0.522,-0.852
6388602,534.0,7963.0,4599.0,0.009,-0.034,-0.517,-0.855
6388619,730.0,8061.0,4705.0,0.004,-0.036,-0.511,-0.859
6388636,746.0,7603.0,4837.0,0.002,0.036,0.504,0.863
6388653,672.0,6371.0,5105.0,0.007,0.036,0.496,0.867
6388670,244.0,6219.0,5079.0,0.012,0.036,0.49,0.871
6388690,238.0,6461.0,5025.0,0.017,0.037,0.484,0.874
6388707,318.0,6273.0,5031.0,0.022,0.038,0.478,0.877
6388726,332.0,5943.0,5115.0,0.026,0.039,0.473,0.88
6388743,434.0,5431.0,5627.0,0.03,0.04,0.469,0.882
6388759,304.0,5713.0,5695.0,0.034,0.041,0.467,0.883
6388775,460.0,6113.0,5321.0,0.036,0.042,0.467,0.883
6388791,802.0,6917.0,5093.0,0.039,0.043,0.466,0.883
6388818,976.0,7291.0,5195.0,0.041,0.042,0.463,0.884
6388834,654.0,6691.0,5177.0,0.043,0.042,0.459,0.887
6388850,212.0,5725.0,4535.0,0.044,0.041,0.454,0.889
6388866,202.0,4949.0,4485.0,0.044,0.042,0.45,0.891
6388882,112.0,4903.0,4609.0,0.044,0.043,0.447,0.892
6388898,544.0,4357.0,5061.0,0.043,0.043,0.445,0.893
6388924,706.0,3573.0,5095.0,0.043,0.042,0.445,0.894
6388941,508.0,2799.0,5125.0,0.042,0.042,0.447,0.892
6388958,844.0,3333.0,5033.0,0.04,0.041,0.454,0.889
6388974,1486.0,5007.0,4835.0,0.038,0.041,0.462,0.885
6388991,1656.0,6133.0,4363.0,0.034,0.039,0.47,0.881
6389008,1770.0,7643.0,3941.0,0.031,0.038,0.477,0.877
6389024,1798.0,8787.0,3699.0,0.028,0.035,0.484,0.874
6389040,1556.0,9075.0,3571.0,0.026,0.033,0.49,0.871
6389067,1554.0,9105.0,3401.0,0.025,0.031,0.494,0.868
6389084,1518.0,9027.0,3339.0,0.024,0.029,0.498,0.867
6389100,1140.0,8155.0,3383.0,0.023,0.027,0.5,0.865
6389117,694.0,6709.0,3303.0,0.022,0.025,0.502,0.864
6389134,502.0,6087.0,3305.0,0.021,0.023,0.505,0.863
6389151,372.0,5975.0,3433.0,0.019,0.021,0.509,0.86
6389167,-76.0,5785.0,3613.0,0.017,0.018,0.514,0.858
6389183,-732.0,5081.0,4059.0,0.015,0.016,0.521,0.853
6389199,-898.0,3729.0,4823.0,0.013,0.014,0.536,0.844
6389225,-1922.0,4861.0,5047.0,0.011,0.012,0.559,0.829
6389241,-1794.0,5547.0,5023.0,0.009,0.009,0.587,0.81
6389258,-1506.0,7809.0,4347.0,0.008,0.005,0.616,0.787
6389274,-1370.0,8449.0,4027.0,0.007,0.001,0.644,0.765
6389290,-1290.0,10805.0,3465.0,0.006,-0.004,0.666,0.746
6389306,-742.0,10917.0,3313.0,0.005,-0.008,0.681,0.732
6389323,-254.0,8777.0,2691.0,0.004,-0.013,0.692,0.722
6389350,-124.0,7105.0,1727.0,0.003,-0.018,0.704,0.71
6389367,-658.0,7795.0,-181.0,0.002,-0.025,0.719,0.695
6389384,-294.0,7935.0,-717.0,0.002,-0.031,0.729,0.684
6389401,-824.0,9161.0,-1879.0,0.002,-0.035,0.736,0.676
6389418,-736.0,8473.0,-2101.0,0.003,-0.039,0.74,0.672
6389435,6.0,6635.0,-1247.0,0.004,-0.04,0.742,0.669
6389452,2162.0,1405.0,1279.0,0.001,-0.04,0.752,0.658
6389469,-1276.0,12081.0,-1641.0,0.001,-0.043,0.766,0.642
6389485,794.0,11527.0,-2463.0,0.002,-0.044,0.771,0.635
6389501,56.0,13255.0,-3565.0,0.001,-0.044,0.768,0.638
6389518,-338.0,10447.0,-3249.0,0.001,-0.042,0.76,0.648
6389535,-540.0,8875.0,-2189.0,0.002,-0.04,0.753,0.657
6389552,-846.0,9437.0,-1507.0,0.002,-0.037,0.745,0.666
6389579,-998.0,10105.0,-1029.0,0.003,-0.033,0.735,0.678
6389595,-280.0,8353.0,-9.0,0.003,-0.027,0.719,0.694
6389611,1496.0,6335.0,1207.0,0.004,-0.024,0.706,0.708
6389627,76.0,6225.0,1249.0,0.004,-0.024,0.696,0.718
6389644,-126.0,6205.0,1113.0,0.004,-0.023,0.688,0.725
6389660,-310.0,5987.0,973.0,0.002,-0.022,0.682,0.731
6389677,-438.0,6817.0,979.0,0.002,-0.02,0.678,0.735
6389703,-426.0,6963.0,1225.0,0.001,-0.019,0.674,0.738
6389720,-318.0,7465.0,1459.0,0.0,0.019,-0.672,-0.74
6389736,-364.0,9317.0,1457.0,0.001,0.019,-0.67,-0.742
6389752,-228.0,9975.0,1467.0,0.002,0.019,-0.664,-0.747
6389769,-782.0,9079.0,1315.0,0.003,0.021,-0.658,-0.753
6389786,-1028.0,8903.0,1037.0,0.003,0.022,-0.653,-0.757
6389803,-944.0,9837.0,803.0,0.002,0.023,-0.646,-0.763
6389820,-856.0,9821.0,1071.0,0.001,0.024,-0.637,-0.77
6389837,-556.0,8437.0,1645.0,0.001,-0.024,0.627,0.778
6389853,-518.0,7077.0,1733.0,0.005,-0.023,0.619,0.785
6389880,-472.0,7667.0,1793.0,0.009,-0.023,0.611,0.791
6389897,-90.0,6869.0,2407.0,0.013,-0.021,0.604,0.797
6389914,112.0,5813.0,2841.0,0.017,-0.019,0.598,0.801
6389931,182.0,6073.0,2945.0,0.021,-0.019,0.595,0.803
6389948,144.0,6635.0,2979.0,0.024,-0.018,0.593,0.804
6389965,-386.0,7511.0,2999.0,0.027,-0.018,0.592,0.806
6389981,-716.0,8055.0,3015.0,0.031,-0.017,0.589,0.807
6389997,-1086.0,8287.0,2887.0,0.034,-0.016,0.585,0.81
6390014,-584.0,7857.0,2925.0,0.038,-0.013,0.58,0.814
6390030,-306.0,7409.0,3175.0,0.041,-0.01,0.573,0.819
6390056,88.0,6697.0,3385.0,0.044,-0.007,0.566,0.823
6390072,346.0,6543.0,3695.0,0.046,-0.004,0.56,0.827
6390088,434.0,6773.0,3727.0,0.047,-0.002,0.554,0.831
6390105,400.0,7053.0,3783.0,0.048,-0.001,0.549,0.834
6390122,344.0,7069.0,4051.0,0.049,-0.001,0.544,0.838
6390138,-120.0,7049.0,4025.0,0.049,-0.001,0.539,0.841
6390154,-94.0,7113.0,3879.0,0.048,-0.001,0.535,0.844
6390180,-358.0,7523.0,3743.0,0.048,-0.001,0.531,0.846
6390196,-372.0,7159.0,3959.0,0.048,-0.002,0.526,0.849
6390212,-474.0,6669.0,3979.0,0.048,-0.002,0.521,0.852
6390228,-300.0,6173.0,4267.0,0.047,-0.001,0.517,0.855
6390245,-82.0,6013.0,4413.0,0.045,-0.001,0.513,0.857
6390262,274.0,6187.0,4483.0,0.043,-0.001,0.51,0.859
6390278,374.0,6379.0,4591.0,0.041,-0.001,0.508,0.861
6390305,294.0,6103.0,4859.0,0.039,-0.003,0.505,0.862
6390321,-228.0,6233.0,4673.0,0.036,-0.004,0.502,0.864
6390337,-366.0,6455.0,4325.0,0.032,-0.005,0.5,0.866
6390354,-382.0,6695.0,4317.0,0.029,-0.005,0.497,0.867
6390370,-330.0,6949.0,4349.0,0.026,-0.005,0.494,0.869
6390386,-766.0,7241.0,4225.0,0.023,-0.005,0.493,0.87
6390402,-878.0,7597.0,4017.0,0.021,-0.005,0.492,0.87
6390428,-726.0,7697.0,3989.0,0.02,-0.005,0.491,0.871
6390444,-490.0,7591.0,4205.0,0.02,-0.004,0.491,0.871
6390460,-280.0,7731.0,4023.0,0.021,-0.004,0.491,0.871
6390476,-94.0,7655.0,4203.0,0.023,-0.004,0.492,0.87
6390492,80.0,7411.0,4707.0,0.025,-0.005,0.492,0.87
6390508,22.0,6893.0,5015.0,0.027,-0.005,0.491,0.871
6390534,26.0,6455.0,4985.0,0.028,-0.006,0.491,0.871
6390550,86.0,5185.0,5041.0,0.029,-0.006,0.49,0.871
6390566,80.0,3333.0,4989.0,0.028,-0.006,0.493,0.87
6390582,30.0,3367.0,4567.0,0.025,-0.007,0.5,0.866
6390598,666.0,5797.0,4439.0,0.022,-0.008,0.508,0.861
6390614,782.0,6303.0,4585.0,0.017,-0.01,0.514,0.858
6390640,372.0,6825.0,3991.0,0.01,-0.015,0.519,0.855
6390656,-14.0,6597.0,3615.0,0.003,-0.02,0.523,0.852
6390673,-74.0,5669.0,3535.0,0.005,0.027,-0.529,-0.848
6390689,-206.0,4615.0,3297.0,0.014,0.035,-0.54,-0.841
6390705,-434.0,5537.0,2773.0,0.022,0.044,-0.556,-0.83
6390722,-538.0,7255.0,2333.0,0.03,0.053,-0.573,-0.817
6390749,-524.0,7507.0,1929.0,0.038,0.062,-0.591,-0.803
6390765,-542.0,6931.0,1345.0,0.045,0.072,-0.611,-0.787
6390781,-246.0,6643.0,553.0,0.052,0.081,-0.634,-0.767
6390797,-292.0,7999.0,-493.0,0.058,0.091,-0.659,-0.745
6390813,-418.0,9471.0,-1141.0,0.062,0.101,-0.682,-0.722
6390829,-460.0,10283.0,-755.0,0.066,0.109,-0.702,-0.701
6390845,-498.0,10439.0,-419.0,0.069,0.117,-0.718,-0.682
6390871,-572.0,10473.0,-357.0,0.071,0.123,-0.732,-0.666
6390887,-748.0,10149.0,-447.0,0.072,0.127,-0.744,-0.652
6390904,-904.0,10267.0,-855.0,0.071,0.132,-0.755,-0.639
6390920,-824.0,10609.0,-1119.0,0.069,0.136,-0.764,-0.627
6390936,-1240.0,10317.0,-983.0,0.065,0.14,-0.772,-0.617
6390952,-1208.0,9831.0,-767.0,0.061,0.144,-0.778,-0.608
6390968,-1216.0,9475.0,-847.0,0.056,0.148,-0.784,-0.6
6390994,-1454.0,9609.0,-1071.0,0.051,0.153,-0.788,-0.594
6391010,-1532.0,9419.0,-777.0,0.045,0.157,-0.791,-0.589
6391026,-1806.0,8519.0,-1271.0,0.041,0.158,-0.792,-0.588
6391043,-994.0,6579.0,-1503.0,0.035,0.16,-0.795,-0.584
6391060,-1400.0,7161.0,-2119.0,0.03,0.162,-0.799,-0.578
6391077,-1872.0,8725.0,-2821.0,0.024,0.165,-0.804,-0.571
6391094,-1754.0,8457.0,-2683.0,0.02,0.166,-0.806,-0.568
6391111,-1934.0,7449.0,-2421.0,0.016,0.166,-0.807,-0.567
6391137,-1680.0,6997.0,-2605.0,0.011,0.166,-0.807,-0.566
6391153,-1714.0,6871.0,-2771.0,0.007,0.165,-0.808,-0.565
6391170,-1616.0,6625.0,-2709.0,0.003,0.165,-0.809,-0.564
6391187,-1716.0,6777.0,-2895.0,0.0,-0.164,0.81,0.562
6391204,-1770.0,7285.0,-3059.0,0.004,-0.164,0.811,0.562
6391221,-1716.0,7539.0,-2939.0,0.007,-0.162,0.809,0.566
6391238,-1698.0,8173.0,-2853.0,0.008,-0.16,0.803,0.574
6391255,-1788.0,8365.0,-2799.0,0.009,-0.156,0.793,0.589
6391272,-1528.0,7557.0,-2359.0,0.008,-0.151,0.778,0.609
6391289,-1260.0,7829.0,-1497.0,0.005,-0.145,0.76,0.633
6391305,-1152.0,7745.0,-593.0,0.003,-0.14,0.74,0.658
6391331,-1154.0,6393.0,9.0,0.001,0.134,-0.719,-0.682
6391347,-828.0,5445.0,341.0,0.003,0.128,-0.704,-0.699
6391363,-802.0,5679.0,599.0,0.004,0.122,-0.695,-0.709
6391379,-780.0,6725.0,679.0,0.005,0.117,-0.691,-0.713
6391396,-606.0,7863.0,619.0,0.006,0.114,-0.691,-0.714
6391412,-836.0,9719.0,813.0,0.006,0.111,-0.691,-0.715
6391428,-1320.0,10535.0,1055.0,0.006,0.109,-0.687,-0.718
6391455,-1534.0,10469.0,903.0,0.007,0.106,-0.679,-0.727
6391471,-1408.0,8955.0,1063.0,0.007,0.102,-0.667,-0.738
6391488,-1254.0,7951.0,1201.0,0.007,0.098,-0.654,-0.75
6391504,-1302.0,7817.0,1455.0,0.007,0.093,-0.64,-0.763
6391520,-1314.0,8769.0,1655.0,0.007,0.089,-0.624,-0.776
6391536,-1428.0,8613.0,1837.0,0.007,0.083,-0.606,-0.791
6391552,-1246.0,6969.0,2313.0,0.006,0.077,-0.586,-0.807
6391579,-1016.0,5811.0,2967.0,0.006,0.071,-0.569,-0.819
6391595,-870.0,5733.0,3333.0,0.005,0.067,-0.557,-0.828
6391611,-986.0,6307.0,3389.0,0.004,0.063,-0.547,-0.835
6391627,-1100.0,6747.0,3405.0,0.003,0.06,-0.538,-0.841
6391643,-922.0,6725.0,3681.0,0.002,0.057,-0.53,-0.846
6391659,-838.0,6319.0,4173.0,0.002,0.053,-0.523,-0.851
6391685,-438.0,6023.0,4501.0,0.002,0.051,-0.517,-0.855
6391701,-368.0,6503.0,4685.0,0.002,0.049,-0.513,-0.857
6391717,-442.0,7085.0,4691.0,0.002,0.048,-0.511,-0.858
6391733,-450.0,7803.0,4553.0,0.002,0.047,-0.509,-0.86
6391749,-488.0,7645.0,4539.0,0.002,0.047,-0.505,-0.862
6391765,-408.0,6635.0,4545.0,0.002,0.046,-0.501,-0.864
6391791,-278.0,6065.0,4509.0,0.002,0.046,-0.499,-0.866
6391807,-314.0,6101.0,4601.0,0.002,0.045,-0.498,-0.866
6391823,-452.0,7203.0,4527.0,0.002,0.045,-0.497,-0.866
6391839,-490.0,7283.0,4539.0,0.002,0.044,-0.495,-0.868
6391857,-302.0,6801.0,4587.0,0.001,0.042,-0.493,-0.869
6391874,-228.0,6503.0,4753.0,0.001,0.041,-0.491,-0.87
6391890,-56.0,6383.0,4913.0,0.0,0.041,-0.491,-0.87
6391948,-334.0,6745.0,4773.0,0.001,0.041,-0.493,-0.869
6391964,-198.0,6073.0,4807.0,0.001,0.041,-0.492,-0.87
6391980,-212.0,5955.0,4699.0,0.003,0.041,-0.494,-0.868
6391996,-210.0,6079.0,4537.0,0.004,0.043,-0.499,-0.865
6392022,-70.0,6075.0,4539.0,0.005,0.045,-0.507,-0.861
6392038,82.0,6393.0,4461.0,0.007,0.049,-0.517,-0.854
6392054,186.0,7309.0,4217.0,0.009,0.054,-0.527,-0.848
6392070,-92.0,7905.0,3997.0,0.012,0.059,-0.533,-0.844
6392086,54.0,7807.0,3977.0,0.016,0.064,-0.534,-0.843
6392103,256.0,6999.0,4531.0,0.022,0.068,-0.532,-0.844
6392119,306.0,8259.0,4007.0,0.029,0.072,-0.525,-0.848
6392145,-134.0,7619.0,4187.0,0.037,0.075,-0.512,-0.855
6392161,358.0,5503.0,4687.0,0.046,0.077,-0.498,-0.862
6392177,564.0,4521.0,4921.0,0.055,0.08,-0.491,-0.866
6392193,654.0,5333.0,4887.0,0.065,0.085,-0.49,-0.865
6392209,434.0,6399.0,4881.0,0.075,0.091,-0.493,-0.862
6392225,370.0,6909.0,4921.0,0.085,0.097,-0.498,-0.857
6392251,144.0,7953.0,4517.0,0.094,0.103,-0.503,-0.853
6392267,-8.0,8059.0,4339.0,0.104,0.108,-0.505,-0.85
6392283,44.0,7507.0,4363.0,0.112,0.112,-0.507,-0.847
6392299,86.0,7053.0,4225.0,0.12,0.117,-0.508,-0.845
6392315,-118.0,7491.0,4097.0,0.127,0.121,-0.51,-0.842
6392331,-410.0,8111.0,4103.0,0.134,0.124,-0.509,-0.842
6392357,-482.0,7665.0,4165.0,0.141,0.125,-0.505,-0.843
6392373,-426.0,7061.0,4139.0,0.147,0.124,-0.499,-0.845
6392390,-318.0,6711.0,3895.0,0.154,0.123,-0.494,-0.847
6392406,-128.0,6353.0,3733.0,0.16,0.121,-0.489,-0.849
6392422,-128.0,6527.0,4073.0,0.166,0.12,-0.484,-0.851
6392438,196.0,6205.0,5099.0,0.172,0.12,-0.48,-0.852
6392464,408.0,5533.0,5709.0,0.178,0.121,-0.476,-0.853
6392480,434.0,5765.0,5603.0,0.184,0.124,-0.475,-0.852
6392496,286.0,6039.0,5221.0,0.192,0.128,-0.474,-0.85
6392512,238.0,6325.0,4879.0,0.199,0.132,-0.473,-0.848
6392528,6.0,6209.0,4381.0,0.207,0.137,-0.473,-0.845
6392544,-72.0,6165.0,4173.0,0.215,0.143,-0.474,-0.842
6392570,-140.0,6087.0,4277.0,0.223,0.149,-0.476,-0.838
6392586,-66.0,5691.0,4571.0,0.23,0.157,-0.48,-0.832
6392602,-24.0,5371.0,4561.0,0.237,0.166,-0.487,-0.824
6392618,-120.0,6091.0,4491.0,0.243,0.178,-0.497,-0.814
6392634,-230.0,6887.0,4517.0,0.249,0.191,-0.508,-0.802
6392650,-394.0,8151.0,4269.0,0.255,0.206,-0.518,-0.79
6392676,-828.0,9171.0,3827.0,0.26,0.219,-0.525,-0.78
6392692,-1078.0,9185.0,3409.0,0.266,0.231,-0.528,-0.773
6392708,-1300.0,8885.0,3139.0,0.272,0.242,-0.528,-0.767
6392724,-1384.0,8427.0,3137.0,0.278,0.251,-0.526,-0.764
6392740,-1462.0,8143.0,3019.0,0.284,0.259,-0.522,-0.761
6392756,-1470.0,8015.0,2929.0,0.289,0.267,-0.518,-0.76
6392782,-1394.0,7761.0,2741.0,0.294,0.273,-0.513,-0.759
6392798,-1232.0,7519.0,2541.0,0.299,0.279,-0.508,-0.758
6392814,-1144.0,6969.0,2649.0,0.304,0.285,-0.503,-0.757
6392830,-1102.0,6827.0,2717.0,0.308,0.291,-0.499,-0.756
6392846,-1108.0,6721.0,2619.0,0.311,0.298,-0.496,-0.754
6392862,-1006.0,6637.0,2629.0,0.315,0.305,-0.495,-0.75
6392888,-1044.0,6475.0,2571.0,0.317,0.312,-0.495,-0.746
6392904,-1038.0,6629.0,2421.0,0.32,0.321,-0.497,-0.74
6392920,-974.0,6739.0,2217.0,0.322,0.329,-0.5,-0.734
6392936,-884.0,6951.0,1985.0,0.323,0.339,-0.504,-0.726
6392952,-730.0,6479.0,1737.0,0.323,0.349,-0.511,-0.716
6392978,-646.0,6169.0,1355.0,0.322,0.362,-0.52,-0.704
6392994,-680.0,6705.0,555.0,0.32,0.376,-0.531,-0.689
6393010,-1066.0,7433.0,-251.0,0.315,0.391,-0.543,-0.672
6393026,-1344.0,8685.0,-653.0,0.311,0.405,-0.554,-0.657
6393042,-1720.0,9343.0,-699.0,0.308,0.415,-0.562,-0.646
6393058,-2010.0,9683.0,-743.0,0.309,0.421,-0.563,-0.64
6393084,-2314.0,8851.0,-729.0,0.313,0.423,-0.56,-0.64
6393100,-2478.0,7445.0,-685.0,0.319,0.422,-0.554,-0.642
6393117,-2430.0,6789.0,-471.0,0.325,0.42,-0.549,-0.645
6393133,-2566.0,6961.0,-189.0,0.331,0.42,-0.546,-0.645
6393150,-2724.0,7719.0,-153.0,0.334,0.42,-0.545,-0.644
6393167,-2786.0,8143.0,-143.0,0.337,0.42,-0.545,-0.642
6393183,-2638.0,8139.0,15.0,0.34,0.421,-0.545,-0.64
6393199,-2378.0,7911.0,95.0,0.342,0.424,-0.546,-0.637
6393225,-2050.0,7519.0,337.0,0.344,0.428,-0.547,-0.632
6393242,-1950.0,7401.0,343.0,0.343,0.436,-0.551,-0.623
6393259,-1836.0,7773.0,331.0,0.342,0.447,-0.555,-0.612
6393276,-1776.0,8121.0,-121.0,0.341,0.46,-0.561,-0.598
6393293,-1978.0,7873.0,-433.0,0.338,0.473,-0.566,-0.584
6393310,-2252.0,8275.0,-645.0,0.336,0.486,-0.57,-0.571
6393327,-2228.0,8479.0,-745.0,0.335,0.496,-0.574,-0.559
6393344,-2538.0,8635.0,-975.0,0.336,0.505,-0.575,-0.55
6393361,-2664.0,8455.0,-1317.0,0.338,0.51,-0.574,-0.544
6393378,-2476.0,8149.0,-1663.0,0.341,0.514,-0.573,-0.539
6393395,-2380.0,8257.0,-2229.0,0.345,0.515,-0.573,-0.537
6393412,-2338.0,8415.0,-2403.0,0.348,0.515,-0.572,-0.535
6393429,-2202.0,8451.0,-2181.0,0.352,0.513,-0.571,-0.535
6393455,-2004.0,8407.0,-2019.0,0.355,0.511,-0.57,-0.536
6393471,-1880.0,7921.0,-2131.0,0.358,0.508,-0.569,-0.538
6393487,-1796.0,8011.0,-2049.0,0.361,0.504,-0.569,-0.541
6393503,-1888.0,7853.0,-1843.0,0.364,0.5,-0.568,-0.544
6393519,-1954.0,8017.0,-1535.0,0.366,0.495,-0.567,-0.547
6393535,-1844.0,8019.0,-1151.0,0.367,0.49,-0.568,-0.55
6393561,-1886.0,8013.0,-863.0,0.368,0.486,-0.568,-0.553
6393577,-1798.0,7955.0,-547.0,0.368,0.482,-0.569,-0.555
6393593,-1702.0,7839.0,-341.0,0.368,0.478,-0.57,-0.558
6393609,-1722.0,7705.0,-267.0,0.369,0.474,-0.57,-0.56
6393626,-1626.0,7613.0,-277.0,0.369,0.471,-0.571,-0.562
6393643,-1538.0,7865.0,-351.0,0.37,0.468,-0.571,-0.563
6393660,-1572.0,7839.0,-499.0,0.371,0.466,-0.572,-0.564
6393677,-1744.0,7945.0,-787.0,0.372,0.464,-0.572,-0.565
6393703,-1648.0,8059.0,-943.0,0.372,0.463,-0.573,-0.565
6393720,-1620.0,8189.0,-1041.0,0.372,0.462,-0.575,-0.564
6393737,-1664.0,8577.0,-973.0,0.371,0.461,-0.576,-0.564
6393754,-1602.0,8801.0,-809.0,0.371,0.459,-0.576,-0.565
6393771,-1396.0,8759.0,-491.0,0.371,0.457,-0.577,-0.567
6393788,-1142.0,8523.0,-233.0,0.371,0.454,-0.577,-0.569
6393805,-988.0,8431.0,-51.0,0.372,0.452,-0.576,-0.571
6393822,-906.0,8475.0,103.0,0.372,0.448,-0.576,-0.574
6393839,-980.0,8823.0,21.0,0.373,0.445,-0.575,-0.577
6393856,-1172.0,8917.0,81.0,0.373,0.441,-0.573,-0.58
6393873,-1072.0,9569.0,697.0,0.374,0.438,-0.571,-0.585
6393890,-830.0,9427.0,1159.0,0.376,0.435,-0.567,-0.59
6393907,-666.0,8621.0,2113.0,0.378,0.433,-0.562,-0.594
6393924,238.0,8125.0,3161.0,0.383,0.432,-0.556,-0.598
6393951,-598.0,4403.0,2305.0,0.387,0.433,-0.552,-0.598
6393967,204.0,5621.0,2015.0,0.392,0.436,-0.551,-0.595
6393983,-612.0,5687.0,333.0,0.396,0.437,-0.552,-0.589
6394000,-182.0,6607.0,-507.0,0.399,0.438,-0.556,-0.582
6394017,-278.0,8235.0,-807.0,0.402,0.439,-0.562,-0.575
6394034,-626.0,8715.0,-835.0,0.404,0.439,-0.568,-0.568
6394052,-1100.0,8577.0,-923.0,0.404,0.438,-0.574,-0.562
6394069,-1338.0,8565.0,-1007.0,0.404,0.435,-0.58,-0.558
6394086,-1536.0,8419.0,-971.0,0.404,0.43,-0.585,-0.557
6394103,-1550.0,8187.0,-1005.0,0.404,0.422,-0.589,-0.558
6394120,-1446.0,8173.0,-905.0,0.405,0.412,-0.592,-0.561
6394137,-1144.0,8075.0,-875.0,0.406,0.401,-0.595,-0.566
6394154,-1028.0,8111.0,-697.0,0.408,0.389,-0.596,-0.571
6394181,-670.0,8301.0,-391.0,0.409,0.378,-0.597,-0.577
6394197,-558.0,8451.0,-295.0,0.41,0.369,-0.598,-0.582
6394213,-196.0,8593.0,-153.0,0.41,0.361,-0.598,-0.586
6394229,12.0,8517.0,-95.0,0.411,0.355,-0.598,-0.59
6394245,200.0,8387.0,-177.0,0.41,0.351,-0.598,-0.592
6394261,230.0,8223.0,-229.0,0.41,0.348,-0.598,-0.595
6394287,418.0,7907.0,-203.0,0.408,0.346,-0.597,-0.597
6394304,480.0,7733.0,-187.0,0.407,0.345,-0.596,-0.6
6394321,610.0,7493.0,-189.0,0.405,0.345,-0.596,-0.602
6394337,758.0,7461.0,-225.0,0.404,0.345,-0.595,-0.603
6394354,824.0,7487.0,-303.0,0.403,0.344,-0.595,-0.604
6394370,860.0,7587.0,-389.0,0.401,0.344,-0.595,-0.605
6394386,890.0,7449.0,-425.0,0.4,0.344,-0.595,-0.606
6394403,922.0,7425.0,-387.0,0.398,0.345,-0.596,-0.606
6394420,872.0,7619.0,-325.0,0.397,0.344,-0.598,-0.605
6394447,770.0,7815.0,-307.0,0.395,0.344,-0.6,-0.605
6394463,658.0,7771.0,-191.0,0.392,0.343,-0.603,-0.604
6394479,508.0,7705.0,-31.0,0.39,0.341,-0.606,-0.604
6394495,446.0,7631.0,163.0,0.388,0.338,-0.608,-0.605
6394511,364.0,7693.0,317.0,0.385,0.334,-0.611,-0.606
6394527,304.0,7845.0,429.0,0.382,0.329,-0.614,-0.607
6394553,384.0,7993.0,591.0,0.38,0.324,-0.617,-0.609
6394569,452.0,8199.0,769.0,0.377,0.318,-0.619,-0.611
6394586,620.0,8565.0,865.0,0.375,0.312,-0.622,-0.613
6394602,770.0,8733.0,883.0,0.372,0.307,-0.624,-0.615
6394618,902.0,8661.0,1035.0,0.37,0.302,-0.626,-0.617
6394635,984.0,8489.0,1163.0,0.367,0.298,-0.627,-0.619
6394652,898.0,8199.0,1167.0,0.364,0.295,-0.629,-0.62
6394668,886.0,7937.0,1233.0,0.362,0.293,-0.631,-0.621
6394695,762.0,7789.0,1165.0,0.359,0.292,-0.633,-0.621
6394711,734.0,7711.0,1033.0,0.357,0.291,-0.635,-0.62
6394727,596.0,7745.0,857.0,0.355,0.29,-0.638,-0.619
6394743,468.0,7779.0,645.0,0.353,0.29,-0.64,-0.617
6394759,428.0,7743.0,473.0,0.351,0.29,-0.643,-0.616
6394776,286.0,7769.0,369.0,0.348,0.29,-0.646,-0.614
6394792,178.0,7821.0,177.0,0.346,0.289,-0.649,-0.613
6394819,128.0,8021.0,85.0,0.343,0.288,-0.652,-0.612
6394836,186.0,8129.0,73.0,0.339,0.287,-0.655,-0.611
6394853,208.0,8145.0,-11.0,0.336,0.285,-0.658,-0.61
6394870,194.0,8183.0,-117.0,0.332,0.284,-0.661,-0.609
6394887,60.0,8301.0,-193.0,0.328,0.282,-0.665,-0.609
6394903,8.0,8357.0,-227.0,0.324,0.281,-0.668,-0.608
6394920,-14.0,8417.0,-271.0,0.319,0.279,-0.672,-0.607
6394936,-130.0,8337.0,-303.0,0.313,0.278,-0.675,-0.607
6394953,-170.0,8211.0,-285.0,0.307,0.276,-0.679,-0.607
6394970,-248.0,8163.0,-279.0,0.301,0.273,-0.683,-0.607
6394996,-218.0,8283.0,-271.0,0.294,0.27,-0.686,-0.608
6395012,-112.0,8351.0,-235.0,0.286,0.266,-0.69,-0.609
6395028,-48.0,8489.0,-279.0,0.279,0.261,-0.694,-0.611
6395044,16.0,8521.0,-167.0,0.271,0.256,-0.697,-0.613
6395060,184.0,8775.0,-43.0,0.263,0.25,-0.7,-0.615
6395076,284.0,9107.0,1.0,0.255,0.244,-0.703,-0.617
6395102,522.0,9331.0,79.0,0.247,0.238,-0.706,-0.62
6395118,718.0,9229.0,187.0,0.239,0.231,-0.708,-0.623
6395134,686.0,8579.0,335.0,0.231,0.226,-0.71,-0.626
6395150,448.0,7923.0,397.0,0.224,0.221,-0.711,-0.629
6395166,142.0,7699.0,333.0,0.217,0.216,-0.713,-0.63
6395182,-30.0,7887.0,201.0,0.21,0.212,-0.715,-0.632
6395199,-122.0,7977.0,65.0,0.205,0.208,-0.717,-0.633
6395225,-218.0,8043.0,-163.0,0.199,0.204,-0.719,-0.634
6395242,-496.0,8079.0,-405.0,0.194,0.201,-0.72,-0.635
6395258,-838.0,8189.0,-707.0,0.189,0.198,-0.722,-0.636
6395275,-1144.0,8409.0,-1043.0,0.183,0.196,-0.723,-0.636
6395291,-1536.0,8681.0,-1355.0,0.178,0.193,-0.725,-0.637
6395307,-2110.0,9157.0,-1797.0,0.172,0.19,-0.726,-0.638
6395324,-2512.0,10227.0,-2217.0,0.166,0.187,-0.727,-0.64
6395340,-2626.0,11213.0,-2375.0,0.158,0.183,-0.725,-0.645
6395366,-2494.0,11247.0,-2283.0,0.15,0.179,-0.722,-0.651
6395383,-2286.0,10719.0,-2115.0,0.139,0.176,-0.718,-0.659
6395399,-2052.0,10145.0,-1711.0,0.128,0.174,-0.713,-0.667
6395415,-2028.0,9931.0,-1301.0,0.115,0.174,-0.709,-0.673
6395432,-1920.0,9951.0,-1131.0,0.102,0.175,-0.705,-0.679
6395449,-1910.0,10181.0,-1153.0,0.088,0.178,-0.701,-0.685
6395466,-2050.0,10195.0,-971.0,0.075,0.181,-0.696,-0.691
6395483,-1998.0,9727.0,-823.0,0.061,0.186,-0.69,-0.697
6395500,-2000.0,9093.0,-905.0,0.047,0.193,-0.684,-0.702
6395527,-2226.0,9181.0,-1155.0,0.032,0.2,-0.68,-0.705
6395543,-2546.0,9767.0,-1283.0,0.017,0.208,-0.676,-0.707
6395559,-2704.0,10599.0,-1783.0,0.0,0.216,-0.671,-0.71
6395576,-2836.0,10699.0,-2017.0,0.017,-0.225,0.663,0.714
6395592,-2800.0,9481.0,-1643.0,0.034,-0.233,0.653,0.72
6395608,-2590.0,8325.0,-1053.0,0.053,-0.24,0.643,0.725
6395624,-2314.0,7935.0,-575.0,0.071,-0.247,0.635,0.729
6395650,-1836.0,8199.0,-267.0,0.088,-0.253,0.627,0.731
6395666,-1670.0,8327.0,253.0,0.103,-0.26,0.618,0.735
6395682,-1776.0,7427.0,757.0,0.115,-0.267,0.608,0.739
6395698,-1560.0,6149.0,519.0,0.127,-0.275,0.599,0.741
6395714,-1358.0,6531.0,-203.0,0.139,-0.282,0.594,0.74
6395740,-1794.0,9827.0,-1137.0,0.148,-0.289,0.587,0.742
6395756,-2180.0,10051.0,-523.0,0.152,-0.296,0.572,0.75
6395773,-2730.0,6153.0,497.0,0.153,-0.302,0.553,0.762
6395789,-2438.0,2927.0,1213.0,0.155,-0.306,0.537,0.77
6395805,-3008.0,2559.0,1401.0,0.161,-0.31,0.529,0.774
6395821,-3310.0,3121.0,1191.0,0.168,-0.314,0.524,0.774
6395837,-3782.0,3393.0,1229.0,0.176,-0.316,0.522,0.773
6395854,-4234.0,3245.0,1591.0,0.183,-0.317,0.521,0.771
6395871,-4812.0,2419.0,1975.0,0.189,-0.318,0.522,0.769
6395898,-5378.0,799.0,2567.0,0.196,-0.316,0.529,0.763
6395914,-4936.0,-615.0,3149.0,0.202,-0.312,0.544,0.752
6395931,-5130.0,33.0,2793.0,0.21,-0.305,0.567,0.736
6395947,-4994.0,3397.0,1507.0,0.218,-0.297,0.594,0.715
6395963,-5346.0,5577.0,621.0,0.224,-0.289,0.62,0.694
6395979,-5214.0,6283.0,145.0,0.229,-0.28,0.645,0.673
6395995,-4878.0,6921.0,-93.0,0.233,-0.271,0.669,0.652
6396022,-4874.0,7755.0,-293.0,0.236,-0.266,0.69,0.631
6396038,-4898.0,8763.0,-529.0,0.236,-0.262,0.706,0.614
6396054,-5188.0,9557.0,-805.0,0.234,-0.261,0.716,0.604
6396070,-5142.0,8153.0,-1541.0,0.229,-0.261,0.72,0.601
6396087,-5078.0,7213.0,-1957.0,0.223,-0.263,0.721,0.601
6396104,-5096.0,6547.0,-1655.0,0.217,-0.265,0.721,0.602
6396121,-5172.0,6161.0,-1953.0,0.213,-0.269,0.72,0.603
6396138,-4806.0,5849.0,-1855.0,0.208,-0.272,0.721,0.603
6396154,-4854.0,4967.0,-1869.0,0.205,-0.273,0.723,0.6
6396181,-4690.0,5083.0,-1951.0,0.202,-0.274,0.727,0.597
6396198,-4418.0,5857.0,-2479.0,0.199,-0.275,0.729,0.594
6396214,-4178.0,5743.0,-2621.0,0.196,-0.276,0.73,0.593
6396230,-3264.0,6027.0,-2309.0,0.194,-0.28,0.729,0.594
6396246,-2910.0,5711.0,-2167.0,0.193,-0.283,0.728,0.594
6396262,-2294.0,5291.0,-1881.0,0.192,-0.287,0.726,0.595
6396278,-2132.0,6253.0,-1481.0,0.189,-0.292,0.724,0.596
6396304,-3040.0,6309.0,-973.0,0.183,-0.298,0.719,0.6
6396321,-3118.0,6087.0,-1039.0,0.177,-0.305,0.714,0.605
6396338,-3412.0,5761.0,-1307.0,0.17,-0.311,0.708,0.611
6396354,-3328.0,5391.0,-1471.0,0.163,-0.317,0.702,0.616
6396371,-3510.0,8153.0,-2031.0,0.154,-0.324,0.694,0.624
6396388,-2702.0,8767.0,-2627.0,0.143,-0.333,0.679,0.638
6396405,-2456.0,5535.0,-2701.0,0.13,-0.341,0.66,0.656
6396421,-3180.0,2123.0,-1763.0,0.119,-0.346,0.644,0.671
6396438,-6196.0,5345.0,-59.0,0.118,-0.352,0.633,0.679
6396464,-9102.0,14301.0,1499.0,0.125,-0.367,0.623,0.679
6396481,-10528.0,16433.0,789.0,0.132,-0.382,0.613,0.679
6396498,-9158.0,8605.0,261.0,0.13,-0.387,0.604,0.685
6396514,-6480.0,2423.0,179.0,0.127,-0.391,0.595,0.691
6396530,-7196.0,259.0,469.0,0.127,-0.394,0.589,0.694
6396546,-7008.0,1159.0,1095.0,0.127,-0.394,0.587,0.696
6396562,-6772.0,2757.0,1177.0,0.129,-0.395,0.584,0.697
6396588,-6842.0,4719.0,1481.0,0.131,-0.395,0.584,0.697
6396605,-6374.0,6229.0,1575.0,0.135,-0.394,0.585,0.696
6396622,-6792.0,7787.0,1579.0,0.138,-0.393,0.587,0.694
6396639,-6338.0,6505.0,1183.0,0.141,-0.392,0.589,0.693
6396656,-5192.0,5427.0,793.0,0.143,-0.391,0.59,0.692
6396673,-5048.0,4287.0,1065.0,0.144,-0.391,0.59,0.692
6396692,-4838.0,3327.0,533.0,0.143,-0.39,0.591,0.692
6396709,-4310.0,4307.0,377.0,0.142,-0.389,0.592,0.692
6396725,-4672.0,5175.0,725.0,0.14,-0.388,0.592,0.692
6396742,-4852.0,6265.0,483.0,0.137,-0.389,0.592,0.692
6396758,-5710.0,6843.0,385.0,0.136,-0.39,0.592,0.693
6396775,-6668.0,7585.0,-33.0,0.135,-0.391,0.591,0.693
6396792,-6534.0,7807.0,-383.0,0.134,-0.392,0.589,0.693
6396809,-6780.0,6579.0,-823.0,0.133,-0.393,0.587,0.696
6396835,-6610.0,5685.0,-557.0,0.131,-0.393,0.583,0.698
6396851,-5954.0,4397.0,-253.0,0.131,-0.393,0.581,0.701
6396867,-5836.0,4475.0,-217.0,0.131,-0.392,0.58,0.702
6396884,-4966.0,4991.0,123.0,0.132,-0.391,0.579,0.703
6396901,-5224.0,4873.0,559.0,0.133,-0.39,0.58,0.703
6396918,-5388.0,5527.0,651.0,0.136,-0.388,0.583,0.701
6396934,-5114.0,6609.0,943.0,0.14,-0.387,0.587,0.697
6396960,-5152.0,7047.0,1177.0,0.144,-0.386,0.591,0.694
6396976,-5186.0,7137.0,1293.0,0.148,-0.385,0.596,0.689
6396992,-5240.0,6993.0,1235.0,0.151,-0.384,0.6,0.685
6397008,-5428.0,6651.0,1247.0,0.154,-0.385,0.603,0.682
6397024,-5372.0,6483.0,1229.0,0.156,-0.385,0.605,0.679
6397040,-5312.0,6377.0,975.0,0.158,-0.387,0.607,0.676
6397066,-5378.0,6473.0,935.0,0.159,-0.388,0.607,0.675
6397083,-5556.0,6263.0,793.0,0.159,-0.39,0.606,0.675
6397099,-5586.0,5981.0,727.0,0.159,-0.393,0.604,0.675
6397115,-5680.0,5561.0,457.0,0.159,-0.395,0.602,0.676
6397131,-5978.0,5407.0,209.0,0.159,-0.397,0.6,0.677
6397147,-6370.0,5353.0,111.0,0.16,-0.398,0.598,0.677
6397173,-6606.0,5505.0,-109.0,0.161,-0.399,0.597,0.677
6397189,-6646.0,5405.0,-413.0,0.162,-0.4,0.596,0.678
6397205,-6544.0,5551.0,-547.0,0.163,-0.4,0.594,0.679
6397221,-6290.0,5647.0,-825.0,0.163,-0.4,0.592,0.681
6397238,-6194.0,5211.0,-541.0,0.163,-0.4,0.589,0.683
6397254,-6092.0,5041.0,-339.0,0.163,-0.4,0.586,0.686
6397270,-5958.0,5005.0,-269.0,0.164,-0.401,0.583,0.688
6397296,-5932.0,4817.0,-183.0,0.164,-0.401,0.581,0.689
6397312,-5616.0,4705.0,-261.0,0.165,-0.402,0.579,0.69
6397328,-5658.0,4677.0,-233.0,0.166,-0.402,0.579,0.69
6397344,-5624.0,4785.0,-321.0,0.167,-0.403,0.579,0.689
6397360,-5674.0,4683.0,-377.0,0.168,-0.403,0.58,0.688
6397376,-5800.0,5109.0,-579.0,0.17,-0.403,0.582,0.685
6397402,-5934.0,5523.0,-805.0,0.173,-0.402,0.585,0.683
6397418,-5792.0,5255.0,-1061.0,0.175,-0.401,0.587,0.681
6397435,-5666.0,4987.0,-1209.0,0.177,-0.4,0.589,0.68
6397451,-5806.0,4867.0,-1099.0,0.179,-0.398,0.59,0.679
6397468,-5826.0,4441.0,-825.0,0.181,-0.394,0.592,0.679
6397484,-5906.0,4221.0,-379.0,0.183,-0.39,0.594,0.679
6397501,-6192.0,4213.0,-169.0,0.184,-0.386,0.597,0.679
6397527,-7078.0,5501.0,247.0,0.187,-0.381,0.601,0.678
6397543,-5856.0,5811.0,-313.0,0.187,-0.376,0.604,0.678
6397559,-4234.0,4153.0,-545.0,0.187,-0.37,0.607,0.679
6397575,-4968.0,4307.0,533.0,0.186,-0.364,0.609,0.68
6397591,-5544.0,5255.0,1017.0,0.185,-0.358,0.612,0.68
6397607,-5344.0,6435.0,611.0,0.183,-0.353,0.616,0.68
6397633,-5098.0,6479.0,289.0,0.18,-0.348,0.618,0.681
6397650,-5290.0,6217.0,505.0,0.178,-0.344,0.619,0.683
6397666,-5672.0,6651.0,1049.0,0.175,-0.34,0.621,0.685
6397683,-6108.0,7453.0,883.0,0.172,-0.337,0.622,0.686
6397699,-5820.0,8015.0,177.0,0.17,-0.334,0.622,0.687
6397715,-5276.0,6843.0,177.0,0.167,-0.331,0.622,0.69
6397731,-5620.0,6395.0,749.0,0.164,-0.329,0.621,0.692
6397757,-5740.0,6733.0,1091.0,0.162,-0.327,0.62,0.694
6397774,-5678.0,7145.0,653.0,0.16,-0.326,0.621,0.695
6397791,-5306.0,7079.0,177.0,0.157,-0.325,0.621,0.696
6397807,-5238.0,6725.0,107.0,0.154,-0.326,0.619,0.698
6397824,-5732.0,6891.0,385.0,0.15,-0.327,0.618,0.699
6397840,-6194.0,6913.0,429.0,0.146,-0.329,0.616,0.701
6397856,-6228.0,6497.0,189.0,0.143,-0.331,0.615,0.701
6397872,-5936.0,5721.0,281.0,0.14,-0.332,0.614,0.702
6397898,-6118.0,5729.0,705.0,0.138,-0.334,0.614,0.702
6397914,-6382.0,6355.0,725.0,0.137,-0.335,0.615,0.701
6397930,-6026.0,6131.0,297.0,0.136,-0.336,0.615,0.7
6397946,-5942.0,5951.0,323.0,0.136,-0.338,0.615,0.7
6397962,-5898.0,6059.0,639.0,0.135,-0.339,0.613,0.701
6397978,-5692.0,6079.0,607.0,0.134,-0.34,0.612,0.702
6398004,-5784.0,6027.0,533.0,0.132,-0.341,0.61,0.703
6398020,-5628.0,5773.0,571.0,0.131,-0.341,0.609,0.704
6398037,-5478.0,5829.0,471.0,0.13,-0.342,0.609,0.704
6398053,-5432.0,6165.0,145.0,0.129,-0.342,0.609,0.704
6398069,-5260.0,6517.0,-149.0,0.128,-0.343,0.608,0.705
6398085,-5206.0,6413.0,-49.0,0.127,-0.344,0.607,0.705
6398102,-5126.0,6239.0,195.0,0.126,-0.344,0.606,0.706
6398128,-5042.0,6059.0,417.0,0.125,-0.345,0.605,0.707
6398144,-5144.0,6167.0,409.0,0.125,-0.346,0.605,0.706
6398160,-4810.0,6163.0,321.0,0.125,-0.347,0.605,0.706
6398176,-4926.0,6355.0,557.0,0.125,-0.348,0.605,0.705
6398192,-4988.0,6409.0,685.0,0.126,-0.348,0.606,0.704
6398208,-5016.0,6243.0,961.0,0.127,-0.349,0.606,0.703
6398234,-5152.0,6395.0,1097.0,0.129,-0.349,0.607,0.702
6398251,-5066.0,6143.0,1117.0,0.13,-0.349,0.608,0.701
6398267,-5298.0,6277.0,1085.0,0.132,-0.349,0.609,0.699
6398283,-5476.0,6447.0,891.0,0.134,-0.349,0.61,0.698
6398300,-5346.0,6229.0,675.0,0.135,-0.349,0.611,0.698
6398316,-5406.0,6061.0,631.0,0.137,-0.35,0.611,0.697
6398333,-5408.0,5863.0,593.0,0.139,-0.35,0.611,0.697
6398350,-5452.0,5869.0,541.0,0.141,-0.349,0.611,0.696
6398367,-5394.0,5771.0,579.0,0.143,-0.349,0.612,0.695
6398393,-5368.0,5919.0,539.0,0.145,-0.349,0.612,0.695
6398409,-5174.0,6031.0,525.0,0.148,-0.348,0.613,0.694
6398425,-5162.0,5957.0,607.0,0.149,-0.348,0.613,0.694
6398441,-5116.0,5907.0,765.0,0.151,-0.347,0.613,0.693
6398457,-5048.0,5887.0,947.0,0.152,-0.347,0.613,0.693
6398474,-4884.0,5849.0,921.0,0.152,-0.347,0.614,0.693
6398500,-4936.0,5915.0,971.0,0.153,-0.347,0.614,0.692
6398517,-5026.0,6081.0,929.0,0.153,-0.347,0.615,0.691
6398533,-5216.0,6199.0,827.0,0.154,-0.349,0.615,0.691
6398550,-5412.0,6221.0,803.0,0.154,-0.35,0.614,0.69
6398567,-5648.0,6263.0,519.0,0.154,-0.352,0.614,0.69
6398584,-5886.0,6173.0,291.0,0.154,-0.354,0.612,0.69
6398601,-6040.0,5983.0,-81.0,0.154,-0.356,0.611,0.69
6398617,-6022.0,5929.0,-275.0,0.155,-0.358,0.609,0.691
6398634,-5862.0,5875.0,-455.0,0.155,-0.36,0.607,0.692
6398651,-5902.0,6041.0,-257.0,0.155,-0.361,0.605,0.693
6398677,-5956.0,5995.0,99.0,0.154,-0.362,0.603,0.694
6398693,-5758.0,5873.0,271.0,0.154,-0.363,0.602,0.694
6398709,-5828.0,5729.0,127.0,0.154,-0.364,0.602,0.694
6398725,-5786.0,6131.0,-61.0,0.155,-0.365,0.601,0.694
6398741,-5842.0,6047.0,-245.0,0.155,-0.365,0.6,0.695
6398757,-5748.0,5841.0,-315.0,0.155,-0.366,0.598,0.696
6398783,-5584.0,5719.0,-401.0,0.155,-0.367,0.597,0.696
6398799,-5506.0,5523.0,-671.0,0.156,-0.368,0.596,0.696
6398815,-5442.0,5557.0,-639.0,0.157,-0.368,0.596,0.696
6398831,-5492.0,5375.0,-517.0,0.158,-0.368,0.596,0.696
6398847,-5402.0,5103.0,-321.0,0.16,-0.368,0.598,0.694
6398863,-5396.0,5053.0,-95.0,0.163,-0.366,0.601,0.692
6398889,-5542.0,4905.0,285.0,0.165,-0.364,0.605,0.688
6398905,-5478.0,5329.0,285.0,0.168,-0.361,0.611,0.684
6398921,-5334.0,5531.0,127.0,0.17,-0.359,0.616,0.68
6398937,-5136.0,5635.0,71.0,0.172,-0.356,0.621,0.677
6398953,-5224.0,5993.0,-41.0,0.174,-0.354,0.624,0.674
6398969,-5276.0,6343.0,-217.0,0.174,-0.352,0.627,0.672
6398996,-5156.0,6741.0,-339.0,0.173,-0.35,0.63,0.671
6399013,-5072.0,6745.0,-329.0,0.172,-0.349,0.631,0.672
6399029,-4992.0,6453.0,-181.0,0.17,-0.347,0.631,0.673
6399045,-5112.0,5895.0,7.0,0.168,-0.346,0.63,0.675
6399061,-5276.0,5825.0,145.0,0.166,-0.344,0.631,0.675
6399077,-5286.0,5773.0,23.0,0.165,-0.343,0.632,0.675
6399093,-5218.0,5935.0,-109.0,0.164,-0.341,0.634,0.674
6399119,-5148.0,6263.0,-277.0,0.164,-0.339,0.636,0.674
6399135,-5110.0,6205.0,-275.0,0.163,-0.336,0.638,0.673
6399152,-5190.0,6309.0,-245.0,0.163,-0.334,0.64,0.673
6399170,-4828.0,5949.0,-283.0,0.162,-0.332,0.641,0.673
6399187,-4784.0,5929.0,-125.0,0.161,-0.329,0.642,0.674
6399203,-4710.0,5961.0,41.0,0.16,-0.327,0.643,0.674
6399219,-4558.0,5839.0,243.0,0.159,-0.324,0.643,0.675
6399235,-4352.0,5787.0,363.0,0.157,-0.322,0.644,0.676
6399261,-4424.0,5697.0,319.0,0.155,-0.319,0.645,0.677
6399277,-4210.0,5841.0,19.0,0.153,-0.317,0.646,0.677
6399293,-4152.0,5957.0,-241.0,0.15,-0.316,0.647,0.678
6399309,-4334.0,6063.0,-277.0,0.146,-0.315,0.648,0.678
6399325,-4192.0,6083.0,-323.0,0.142,-0.313,0.649,0.679
6399341,-4266.0,5949.0,-153.0,0.138,-0.312,0.65,0.679
6399367,-4218.0,5853.0,45.0,0.133,-0.311,0.651,0.68
6399383,-4520.0,5797.0,401.0,0.129,-0.309,0.653,0.679
6399399,-4538.0,5919.0,273.0,0.124,-0.308,0.655,0.679
6399416,-4354.0,6091.0,247.0,0.12,-0.306,0.658,0.677
6399433,-4646.0,6571.0,185.0,0.117,-0.304,0.661,0.676
6399449,-4754.0,7303.0,273.0,0.113,-0.301,0.664,0.675
6399466,-4604.0,7597.0,315.0,0.11,-0.297,0.667,0.674
6399483,-4466.0,7481.0,127.0,0.106,-0.293,0.669,0.674
6399500,-4290.0,7495.0,149.0,0.103,-0.289,0.671,0.675
6399526,-4118.0,7481.0,-31.0,0.101,-0.285,0.673,0.675
6399542,-4016.0,7659.0,-381.0,0.098,-0.28,0.675,0.676
6399559,-4038.0,7221.0,-677.0,0.096,-0.276,0.676,0.676
6399575,-3856.0,6581.0,-615.0,0.093,-0.271,0.678,0.677
6399591,-3742.0,6247.0,-629.0,0.09,-0.267,0.68,0.677
6399607,-3848.0,6457.0,-521.0,0.087,-0.263,0.682,0.677
6399634,-3956.0,6631.0,-585.0,0.084,-0.258,0.685,0.676
6399650,-4064.0,6891.0,-479.0,0.08,-0.254,0.688,0.675
6399666,-3934.0,7035.0,-471.0,0.076,-0.25,0.692,0.673
6399683,-3848.0,7347.0,-461.0,0.072,-0.247,0.694,0.672
6399699,-3998.0,7511.0,-561.0,0.068,-0.244,0.696,0.672
6399715,-4246.0,7343.0,-581.0,0.064,-0.241,0.696,0.673
6399731,-4234.0,7655.0,-431.0,0.06,-0.239,0.696,0.674
6399757,-4198.0,7653.0,-81.0,0.056,-0.236,0.696,0.676
6399773,-4010.0,7883.0,155.0,0.053,-0.232,0.697,0.676
6399790,-3846.0,8415.0,151.0,0.05,-0.228,0.701,0.674
6399807,-3956.0,9149.0,-103.0,0.048,-0.225,0.706,0.67
6399823,-3934.0,9699.0,-413.0,0.047,-0.221,0.711,0.666
6399840,-3788.0,9595.0,-701.0,0.047,-0.218,0.717,0.661
6399857,-3600.0,10023.0,-1027.0,0.048,-0.215,0.722,0.656
6399874,-3538.0,10623.0,-1545.0,0.05,-0.214,0.726,0.651
6399890,-3472.0,9747.0,-1791.0,0.053,-0.213,0.729,0.648
6399907,-3432.0,9741.0,-1893.0,0.056,-0.214,0.731,0.646
6399934,-3076.0,9269.0,-1801.0,0.059,-0.215,0.731,0.645
6399951,-3136.0,8481.0,-1529.0,0.063,-0.218,0.73,0.645
6399968,-3196.0,8375.0,-1607.0,0.067,-0.22,0.729,0.645
6399985,-3134.0,7721.0,-1485.0,0.071,-0.223,0.727,0.645
6400002,-3004.0,7105.0,-1359.0,0.075,-0.225,0.727,0.645
6400019,-3086.0,6613.0,-1201.0,0.078,-0.228,0.727,0.643
6400035,-3230.0,6585.0,-1321.0,0.082,-0.23,0.728,0.641
6400052,-3182.0,6469.0,-1371.0,0.085,-0.232,0.728,0.639
6400069,-3246.0,6649.0,-1299.0,0.088,-0.234,0.729,0.637
6400086,-3190.0,6477.0,-1143.0,0.09,-0.236,0.729,0.636
6400103,-3460.0,6671.0,-891.0,0.093,-0.237,0.729,0.636
6400129,-3406.0,6987.0,-837.0,0.095,-0.238,0.728,0.635
6400145,-3330.0,7251.0,-909.0,0.097,-0.24,0.727,0.636
6400162,-3384.0,7495.0,-861.0,0.099,-0.241,0.726,0.636
6400179,-3424.0,7657.0,-1011.0,0.101,-0.242,0.725,0.637
6400196,-3748.0,7601.0,-951.0,0.103,-0.243,0.723,0.638
6400213,-3686.0,7189.0,-949.0,0.105,-0.244,0.722,0.64
6400229,-3572.0,6783.0,-941.0,0.107,-0.245,0.72,0.64
6400246,-3774.0,6739.0,-987.0,0.108,-0.246,0.719,0.641
6400262,-3940.0,6827.0,-1103.0,0.11,-0.247,0.718,0.641
6400279,-3894.0,6563.0,-1079.0,0.111,-0.248,0.717,0.642
6400306,-3710.0,6601.0,-1127.0,0.112,-0.249,0.716,0.642
6400323,-3718.0,6733.0,-1055.0,0.113,-0.251,0.715,0.642
6400340,-3702.0,7053.0,-1045.0,0.114,-0.252,0.715,0.642
6400357,-3760.0,7123.0,-1021.0,0.115,-0.253,0.715,0.641
6400374,-3824.0,7187.0,-1003.0,0.116,-0.255,0.715,0.641
6400391,-3912.0,7447.0,-1065.0,0.117,-0.256,0.715,0.641
6400408,-3814.0,7459.0,-1033.0,0.117,-0.257,0.714,0.641
6400425,-3872.0,7049.0,-1029.0,0.118,-0.258,0.713,0.641
6400442,-4006.0,6819.0,-873.0,0.119,-0.259,0.712,0.642
6400458,-3988.0,6811.0,-897.0,0.119,-0.26,0.711,0.643
6400475,-4020.0,6595.0,-1017.0,0.12,-0.262,0.709,0.643
6400492,-4052.0,6775.0,-893.0,0.12,-0.263,0.708,0.644
6400509,-3954.0,6705.0,-861.0,0.121,-0.264,0.707,0.645
6400535,-3720.0,6627.0,-899.0,0.121,-0.264,0.707,0.645
6400551,-3728.0,6769.0,-1045.0,0.122,-0.265,0.706,0.645
6400568,-3836.0,6867.0,-1111.0,0.122,-0.266,0.706,0.645
6400585,-3892.0,6723.0,-991.0,0.122,-0.266,0.706,0.645
6400602,-3638.0,6311.0,-887.0,0.122,-0.266,0.706,0.645
6400619,-3560.0,6025.0,-1003.0,0.123,-0.266,0.707,0.644
6400635,-3500.0,5855.0,-1101.0,0.123,-0.265,0.707,0.643
6400651,-3538.0,4633.0,-1181.0,0.122,-0.265,0.708,0.644
6400677,-3270.0,2779.0,-1589.0,0.12,-0.264,0.708,0.644
6400694,-2752.0,1351.0,-2075.0,0.117,-0.261,0.71,0.644
6400714,-2822.0,1897.0,-1939.0,0.113,-0.256,0.713,0.642
6400730,-2220.0,2293.0,-1201.0,0.107,-0.247,0.72,0.64
6400746,-1334.0,2235.0,-349.0,0.1,-0.236,0.728,0.636
6400762,-476.0,3781.0,385.0,0.09,-0.223,0.738,0.63
6400778,-300.0,5993.0,753.0,0.078,-0.211,0.747,0.625
6400794,-276.0,7345.0,499.0,0.063,-0.199,0.754,0.623
6400810,-274.0,7275.0,-321.0,0.046,-0.187,0.758,0.623
6400827,-172.0,7077.0,-955.0,0.03,-0.175,0.76,0.625
6400854,-308.0,7005.0,-1357.0,0.014,-0.163,0.76,0.629
6400870,348.0,7383.0,-1135.0,0.002,0.149,-0.759,-0.634
6400886,14.0,7327.0,-869.0,0.019,0.135,-0.758,-0.638
6400902,680.0,7345.0,-831.0,0.036,0.119,-0.758,-0.64
6400918,1554.0,7203.0,-1027.0,0.054,0.1,-0.759,-0.642
6400934,2044.0,8235.0,-1061.0,0.07,0.082,-0.76,-0.641
6400960,2622.0,7611.0,-637.0,0.086,0.062,-0.761,-0.641
6400976,3772.0,8355.0,-1015.0,0.101,0.043,-0.761,-0.639
6400992,3378.0,10353.0,-1619.0,0.119,0.024,-0.76,-0.639
6401008,4202.0,8769.0,-1645.0,0.138,0.003,-0.756,-0.639
6401024,5278.0,8837.0,-2367.0,0.157,-0.017,-0.752,-0.639
6401041,5614.0,9171.0,-2543.0,0.176,-0.038,-0.747,-0.64
6401067,7006.0,9035.0,-1729.0,0.195,-0.06,-0.741,-0.639
6401084,7344.0,9819.0,-1653.0,0.213,-0.083,-0.735,-0.638
6401101,6384.0,10197.0,-1711.0,0.228,-0.108,-0.727,-0.638
6401118,5408.0,9289.0,-187.0,0.24,-0.135,-0.718,-0.639
6401135,5264.0,8693.0,1149.0,0.251,-0.163,-0.707,-0.641
6401152,4808.0,9941.0,1381.0,0.26,-0.19,-0.695,-0.643
6401169,4688.0,9763.0,1343.0,0.269,-0.216,-0.682,-0.645
6401186,5308.0,9799.0,987.0,0.275,-0.241,-0.669,-0.647
6401203,4906.0,9989.0,839.0,0.279,-0.265,-0.656,-0.65
6401219,5354.0,8271.0,935.0,0.282,-0.287,-0.643,-0.651
6401235,5124.0,8911.0,1253.0,0.285,-0.306,-0.633,-0.652
6401252,5088.0,10067.0,1369.0,0.288,-0.321,-0.625,-0.651
6401279,5870.0,10113.0,2227.0,0.291,-0.332,-0.619,-0.649
6401295,6876.0,8961.0,2487.0,0.296,-0.335,-0.618,-0.647
6401312,6238.0,9453.0,1537.0,0.299,-0.331,-0.62,-0.645
6401329,4746.0,11443.0,815.0,0.298,-0.324,-0.624,-0.646
6401346,4016.0,11985.0,913.0,0.293,-0.316,-0.629,-0.647
6401362,4468.0,10197.0,1673.0,0.289,-0.304,-0.635,-0.648
6401378,4982.0,8535.0,2011.0,0.286,-0.287,-0.644,-0.649
6401394,4094.0,11467.0,1181.0,0.282,-0.266,-0.654,-0.649
6401420,4768.0,10921.0,383.0,0.274,-0.245,-0.663,-0.652
6401437,5708.0,10121.0,215.0,0.262,-0.224,-0.671,-0.656
6401454,7234.0,6499.0,1511.0,0.25,-0.201,-0.68,-0.66
6401471,6988.0,7033.0,2623.0,0.242,-0.176,-0.689,-0.66
6401488,6674.0,9133.0,1523.0,0.233,-0.149,-0.7,-0.658
6401505,6396.0,9771.0,-389.0,0.221,-0.123,-0.708,-0.659
6401522,7138.0,7831.0,509.0,0.207,-0.098,-0.714,-0.662
6401539,5742.0,5435.0,1515.0,0.195,-0.073,-0.72,-0.662
6401556,4406.0,9553.0,865.0,0.184,-0.048,-0.727,-0.66
6401573,4294.0,9765.0,-599.0,0.172,-0.027,-0.731,-0.66
6401599,7322.0,6533.0,457.0,0.158,-0.008,-0.733,-0.662
6401616,5372.0,9707.0,693.0,0.143,0.015,-0.737,-0.661
6401633,2652.0,9275.0,-465.0,0.127,0.039,-0.739,-0.661
6401649,3360.0,8279.0,-677.0,0.112,0.059,-0.738,-0.663
6401665,1628.0,8373.0,35.0,0.098,0.08,-0.738,-0.663
6401682,588.0,7005.0,-513.0,0.083,0.1,-0.736,-0.664
6401698,-224.0,8073.0,-877.0,0.069,0.119,-0.734,-0.665
6401715,1084.0,8075.0,-603.0,0.056,0.135,-0.731,-0.666
6401732,1776.0,7679.0,-1033.0,0.044,0.151,-0.729,-0.666
6401749,68.0,6777.0,-1421.0,0.031,0.168,-0.726,-0.667
6401775,-746.0,7655.0,-1525.0,0.018,0.183,-0.723,-0.666
6401792,-64.0,8569.0,-1283.0,0.006,0.195,-0.72,-0.666
6401808,370.0,8801.0,-1813.0,0.006,-0.206,0.717,0.666
6401824,186.0,7939.0,-2187.0,0.019,-0.216,0.714,0.666
6401840,-806.0,8127.0,-1859.0,0.032,-0.226,0.71,0.666
6401856,-1518.0,6243.0,-1553.0,0.045,-0.236,0.705,0.667
6401873,-1346.0,5493.0,-1189.0,0.057,-0.245,0.701,0.667
6401891,-1686.0,5203.0,-439.0,0.069,-0.253,0.698,0.667
6401907,-2090.0,5055.0,99.0,0.08,-0.261,0.697,0.663
6401933,-2662.0,4529.0,-119.0,0.09,-0.267,0.697,0.659
6401950,-2710.0,5253.0,-131.0,0.1,-0.273,0.697,0.655
6401967,-2608.0,6165.0,-251.0,0.108,-0.278,0.696,0.653
6401983,-2792.0,5821.0,-549.0,0.115,-0.282,0.694,0.653
6402000,-3246.0,5321.0,1.0,0.121,-0.285,0.689,0.655
6402016,-2750.0,3473.0,219.0,0.125,-0.288,0.684,0.658
6402032,-1436.0,-445.0,43.0,0.128,-0.291,0.68,0.66
6402059,-1558.0,-3803.0,235.0,0.128,-0.29,0.678,0.663
6402075,-998.0,-3739.0,1285.0,0.124,-0.286,0.68,0.663
6402091,-970.0,-4265.0,1749.0,0.117,-0.28,0.685,0.663
6402107,-882.0,-1973.0,1503.0,0.105,-0.271,0.692,0.66
6402123,-1368.0,391.0,963.0,0.089,-0.261,0.701,0.658
6402140,-364.0,1921.0,1.0,0.069,-0.247,0.711,0.655
6402156,380.0,4123.0,-207.0,0.047,-0.23,0.718,0.655
6402173,214.0,8037.0,-247.0,0.024,-0.212,0.724,0.656
6402199,732.0,10767.0,-1585.0,0.002,-0.193,0.727,0.659
6402216,1202.0,8043.0,-2237.0,0.02,0.17,-0.728,-0.664
6402233,2956.0,5863.0,-1773.0,0.041,0.144,-0.728,-0.669
6402250,3202.0,7399.0,-305.0,0.062,0.117,-0.731,-0.67
6402267,4440.0,9799.0,-777.0,0.082,0.09,-0.733,-0.669
6402284,3822.0,11027.0,-789.0,0.105,0.062,-0.734,-0.668
6402302,4474.0,8575.0,293.0,0.127,0.033,-0.731,-0.669
6402319,6052.0,8567.0,1549.0,0.148,0.006,-0.728,-0.67
6402336,4778.0,8471.0,2195.0,0.17,-0.021,-0.723,-0.67
6402353,4418.0,11489.0,1649.0,0.191,-0.051,-0.714,-0.671
6402370,4316.0,11911.0,1451.0,0.212,-0.085,-0.701,-0.676
6402387,7816.0,10611.0,1637.0,0.23,-0.122,-0.684,-0.681
6402403,8992.0,9333.0,1763.0,0.246,-0.158,-0.667,-0.685
6402429,8754.0,10471.0,611.0,0.261,-0.191,-0.651,-0.687
6402445,8520.0,11155.0,491.0,0.271,-0.222,-0.636,-0.688
6402461,6330.0,9851.0,-1143.0,0.28,-0.252,-0.62,-0.688
6402478,6476.0,9531.0,-1133.0,0.286,-0.281,-0.607,-0.686
6402495,5340.0,8595.0,-1457.0,0.292,-0.308,-0.595,-0.683
6402511,5932.0,6819.0,-1415.0,0.297,-0.333,-0.585,-0.677
6402527,6368.0,7275.0,-1007.0,0.301,-0.356,-0.577,-0.67
6402553,6280.0,5715.0,37.0,0.305,-0.376,-0.573,-0.662
6402569,7186.0,6893.0,1095.0,0.31,-0.393,-0.571,-0.651
6402585,10602.0,5647.0,5973.0,0.32,-0.401,-0.573,-0.639
6402601,7592.0,10151.0,5729.0,0.334,-0.401,-0.58,-0.626
6402618,4288.0,14035.0,5951.0,0.343,-0.4,-0.585,-0.617
6402634,3348.0,12233.0,7511.0,0.343,-0.403,-0.586,-0.614
6402651,5152.0,11563.0,6597.0,0.339,-0.404,-0.586,-0.615
6402668,6300.0,12315.0,5037.0,0.332,-0.398,-0.588,-0.621
6402695,6110.0,10879.0,4593.0,0.324,-0.389,-0.588,-0.631
6402712,5430.0,7101.0,3887.0,0.317,-0.374,-0.591,-0.641
6402729,6208.0,8175.0,2863.0,0.311,-0.357,-0.594,-0.65
6402746,7956.0,8041.0,1823.0,0.306,-0.336,-0.599,-0.659
6402765,9290.0,8743.0,-157.0,0.298,-0.312,-0.605,-0.669
6402781,9176.0,9211.0,-793.0,0.287,-0.288,-0.611,-0.679
6402797,9800.0,4831.0,565.0,0.275,-0.262,-0.618,-0.688
6402813,9502.0,6877.0,1625.0,0.265,-0.232,-0.629,-0.693
6402830,6546.0,8219.0,679.0,0.255,-0.198,-0.643,-0.695
6402846,5670.0,9531.0,-583.0,0.243,-0.166,-0.653,-0.698
6402872,5836.0,7779.0,269.0,0.228,-0.135,-0.663,-0.7
6402888,7132.0,9107.0,1571.0,0.214,-0.105,-0.671,-0.702
6402904,6530.0,10487.0,1133.0,0.198,-0.074,-0.68,-0.702
6402920,7912.0,10223.0,655.0,0.181,-0.046,-0.687,-0.703
6402936,8866.0,7073.0,1253.0,0.163,-0.017,-0.691,-0.704
6402953,4214.0,5877.0,1707.0,0.145,0.016,-0.695,-0.704
6402970,1108.0,9371.0,1411.0,0.128,0.043,-0.699,-0.702
6402987,3074.0,8669.0,1475.0,0.113,0.065,-0.7,-0.702
6403013,5742.0,7003.0,997.0,0.1,0.084,-0.699,-0.703
6403029,4650.0,6791.0,1355.0,0.086,0.104,-0.698,-0.704
6403046,1716.0,5339.0,43.0,0.07,0.123,-0.695,-0.705
6403063,922.0,6939.0,-81.0,0.057,0.139,-0.691,-0.707
6403080,1012.0,7669.0,-615.0,0.046,0.152,-0.687,-0.709
6403097,2868.0,5717.0,-335.0,0.036,0.164,-0.682,-0.712
6403114,574.0,6255.0,-593.0,0.025,0.178,-0.678,-0.712
6403130,-252.0,7567.0,-1083.0,0.015,0.19,-0.675,-0.712
6403146,-1048.0,7467.0,-1361.0,0.004,0.201,-0.672,-0.712
6403173,-450.0,7911.0,-1421.0,0.005,-0.211,0.669,0.712
6403189,-572.0,6729.0,-1527.0,0.016,-0.222,0.666,0.712
6403205,-1980.0,6675.0,-1487.0,0.027,-0.232,0.664,0.71
6403221,-1670.0,5325.0,-1361.0,0.039,-0.242,0.662,0.708
6403237,-1890.0,4433.0,-607.0,0.05,-0.25,0.662,0.705
6403253,-2310.0,3517.0,-261.0,0.061,-0.257,0.663,0.701
6403279,-2840.0,3503.0,381.0,0.072,-0.263,0.665,0.695
6403295,-3244.0,2751.0,1047.0,0.083,-0.269,0.669,0.688
6403311,-2292.0,1371.0,801.0,0.091,-0.272,0.672,0.682
6403327,-2326.0,-1.0,1359.0,0.097,-0.274,0.676,0.677
6403343,-2470.0,711.0,2053.0,0.099,-0.273,0.68,0.673
6403359,-2032.0,419.0,2049.0,0.097,-0.271,0.683,0.671
6403385,-2158.0,27.0,1629.0,0.091,-0.267,0.686,0.671
6403401,-2044.0,887.0,737.0,0.081,-0.262,0.688,0.672
6403417,-602.0,-1079.0,-391.0,0.068,-0.253,0.691,0.674
6403434,-796.0,-1673.0,-109.0,0.053,-0.241,0.696,0.675
6403451,-428.0,1679.0,389.0,0.036,-0.226,0.705,0.671
6403469,448.0,4817.0,-259.0,0.019,-0.21,0.718,0.664
6403486,2318.0,8407.0,-2381.0,0.001,-0.192,0.729,0.657
6403503,1154.0,9653.0,-2305.0,0.018,0.173,-0.736,-0.654
6403520,1768.0,10429.0,-1015.0,0.039,0.151,-0.737,-0.657
6403537,2636.0,11509.0,-471.0,0.061,0.128,-0.737,-0.661
6403554,3470.0,8875.0,-1247.0,0.081,0.103,-0.734,-0.666
6403571,3468.0,9521.0,-1297.0,0.1,0.078,-0.731,-0.67
6403598,3296.0,9277.0,-777.0,0.118,0.054,-0.727,-0.674
6403615,3170.0,9655.0,-721.0,0.136,0.028,-0.724,-0.676
6403632,3356.0,8189.0,-497.0,0.154,0.001,-0.72,-0.677
6403649,4194.0,8189.0,75.0,0.17,-0.026,-0.717,-0.676
6403666,5008.0,9345.0,257.0,0.185,-0.055,-0.713,-0.674
6403683,5762.0,9483.0,733.0,0.199,-0.084,-0.707,-0.673
6403699,6004.0,10179.0,1265.0,0.212,-0.113,-0.7,-0.673
6403716,7092.0,8925.0,2111.0,0.224,-0.143,-0.69,-0.673
6403732,6670.0,7583.0,2309.0,0.236,-0.171,-0.68,-0.673
6403758,5764.0,8449.0,2463.0,0.245,-0.2,-0.667,-0.674
6403774,4632.0,8429.0,1657.0,0.254,-0.231,-0.654,-0.675
6403791,5860.0,9605.0,1285.0,0.26,-0.266,-0.637,-0.676
6403808,8418.0,9263.0,2525.0,0.265,-0.3,-0.619,-0.676
6403825,10362.0,7855.0,2601.0,0.269,-0.332,-0.601,-0.676
6403842,10464.0,6941.0,2427.0,0.273,-0.357,-0.585,-0.675
6403859,8062.0,9001.0,2823.0,0.276,-0.376,-0.573,-0.674
6403876,6750.0,9729.0,2489.0,0.278,-0.39,-0.564,-0.673
6403893,6232.0,9473.0,1759.0,0.281,-0.399,-0.558,-0.671
6403909,4136.0,10383.0,1317.0,0.283,-0.404,-0.556,-0.669
6403926,4640.0,10419.0,1743.0,0.283,-0.406,-0.556,-0.667
6403952,5598.0,9487.0,2221.0,0.284,-0.403,-0.559,-0.667
6403969,5298.0,8739.0,2073.0,0.284,-0.394,-0.565,-0.667
6403986,4624.0,8767.0,2217.0,0.284,-0.382,-0.574,-0.666
6404003,4486.0,9501.0,2367.0,0.283,-0.367,-0.585,-0.665
6404020,5314.0,10207.0,2837.0,0.281,-0.35,-0.597,-0.665
6404037,6852.0,9999.0,3149.0,0.278,-0.33,-0.609,-0.666
6404054,7390.0,7981.0,2759.0,0.271,-0.308,-0.62,-0.669
6404071,7668.0,6105.0,3009.0,0.264,-0.284,-0.631,-0.672
6404088,7118.0,8291.0,3403.0,0.257,-0.258,-0.643,-0.673
6404105,7794.0,9175.0,2635.0,0.25,-0.232,-0.655,-0.674
6404122,7448.0,6795.0,2033.0,0.241,-0.205,-0.665,-0.677
6404139,6712.0,8651.0,2641.0,0.231,-0.176,-0.674,-0.679
6404156,6230.0,7805.0,3101.0,0.222,-0.149,-0.682,-0.681
6404183,6918.0,6581.0,2669.0,0.214,-0.121,-0.688,-0.683
6404200,5634.0,8589.0,1023.0,0.206,-0.092,-0.695,-0.682
6404217,5372.0,8741.0,877.0,0.197,-0.065,-0.701,-0.682
6404233,7196.0,9893.0,535.0,0.186,-0.04,-0.705,-0.683
6404250,4748.0,4507.0,351.0,0.174,-0.013,-0.707,-0.685
6404266,1938.0,7685.0,-233.0,0.163,0.014,-0.71,-0.685
6404282,-596.0,7813.0,-327.0,0.152,0.036,-0.712,-0.685
6404298,2208.0,7737.0,-847.0,0.142,0.053,-0.712,-0.686
6404314,5418.0,6791.0,-351.0,0.132,0.068,-0.71,-0.688
6404341,3498.0,6961.0,-731.0,0.121,0.084,-0.709,-0.689
6404357,1894.0,8155.0,-1313.0,0.109,0.1,-0.709,-0.69
6404373,1110.0,7827.0,-1249.0,0.097,0.113,-0.707,-0.691
6404389,1698.0,8721.0,-1077.0,0.086,0.124,-0.706,-0.692
6404405,2226.0,8181.0,-707.0,0.075,0.136,-0.705,-0.692
6404421,528.0,7239.0,-1565.0,0.064,0.148,-0.705,-0.691
6404447,-724.0,7371.0,-1557.0,0.052,0.16,-0.704,-0.69
6404464,-908.0,6935.0,-1221.0,0.041,0.169,-0.703,-0.689
6404481,-366.0,7697.0,-483.0,0.029,0.179,-0.704,-0.687
6404497,386.0,6563.0,-459.0,0.018,0.188,-0.704,-0.684
6404513,-1038.0,6541.0,-283.0,0.006,0.199,-0.705,-0.681
6404530,-2550.0,6153.0,9.0,0.005,-0.209,0.704,0.679
6404546,-2202.0,5907.0,475.0,0.015,-0.217,0.704,0.676
6404563,-1862.0,6151.0,1147.0,0.025,-0.225,0.704,0.673
6404589,-1194.0,6921.0,821.0,0.033,-0.231,0.705,0.67
6404605,-1312.0,8081.0,269.0,0.041,-0.236,0.705,0.667
6404621,-1636.0,8255.0,121.0,0.048,-0.242,0.704,0.666
6404638,-1918.0,7311.0,-19.0,0.056,-0.248,0.701,0.666
6404655,-2572.0,6287.0,89.0,0.062,-0.254,0.699,0.666
6404671,-2428.0,5541.0,-341.0,0.068,-0.259,0.697,0.665
6404687,-2396.0,5767.0,-719.0,0.072,-0.262,0.696,0.664
6404704,-2436.0,4341.0,-319.0,0.076,-0.264,0.695,0.665
6404731,-1932.0,2377.0,145.0,0.078,-0.265,0.693,0.667
6404747,-2566.0,331.0,143.0,0.077,-0.264,0.691,0.668
6404763,-2108.0,-2963.0,435.0,0.073,-0.262,0.69,0.671
6404781,-1692.0,-4171.0,1361.0,0.065,-0.257,0.692,0.671
6404798,-2172.0,-2067.0,1031.0,0.054,-0.25,0.699,0.668
6404814,-2050.0,2247.0,-117.0,0.04,-0.24,0.707,0.664
6404830,-1156.0,4041.0,-1095.0,0.023,-0.228,0.712,0.664
6404847,-190.0,3303.0,-655.0,0.005,-0.214,0.714,0.667
6404863,-212.0,5659.0,-267.0,0.015,0.197,-0.717,-0.669
6404890,-16.0,7389.0,-495.0,0.035,0.179,-0.719,-0.671
6404906,984.0,7253.0,-713.0,0.055,0.158,-0.72,-0.673
6404922,1642.0,7453.0,-843.0,0.075,0.135,-0.72,-0.676
6404938,2812.0,8585.0,139.0,0.094,0.111,-0.72,-0.679
6404954,3058.0,9033.0,321.0,0.114,0.087,-0.72,-0.679
6404971,4586.0,6587.0,593.0,0.134,0.063,-0.722,-0.676
6404987,4956.0,9627.0,-553.0,0.15,0.042,-0.725,-0.671
6405014,4762.0,11719.0,-1559.0,0.167,0.021,-0.725,-0.668
6405030,5456.0,9831.0,267.0,0.184,-0.003,-0.722,-0.667
6405046,5316.0,7595.0,1285.0,0.2,-0.025,-0.721,-0.664
6405063,5638.0,6939.0,1827.0,0.216,-0.046,-0.721,-0.656
6405080,6530.0,9503.0,-15.0,0.235,-0.066,-0.722,-0.647
6405097,5104.0,14203.0,-1353.0,0.254,-0.089,-0.717,-0.643
6405114,5734.0,11577.0,59.0,0.269,-0.116,-0.707,-0.644
6405130,6190.0,8733.0,617.0,0.282,-0.142,-0.696,-0.645
6405147,6452.0,8851.0,1019.0,0.294,-0.166,-0.687,-0.644
6405173,6432.0,10001.0,-1293.0,0.305,-0.191,-0.677,-0.642
6405189,6420.0,10471.0,-2033.0,0.312,-0.215,-0.666,-0.642
6405205,7378.0,6951.0,-2631.0,0.316,-0.24,-0.655,-0.643
6405221,6824.0,6401.0,-3319.0,0.32,-0.264,-0.647,-0.64
6405237,7704.0,6299.0,-2959.0,0.325,-0.287,-0.642,-0.633
6405254,8126.0,4569.0,-1089.0,0.33,-0.306,-0.64,-0.623
6405270,8110.0,6389.0,2371.0,0.337,-0.32,-0.642,-0.61
6405296,3868.0,10585.0,6611.0,0.354,-0.318,-0.65,-0.593
6405313,3526.0,16389.0,4797.0,0.365,-0.317,-0.653,-0.582
6405330,3748.0,12875.0,5823.0,0.371,-0.316,-0.654,-0.579
6405347,4090.0,14133.0,5413.0,0.37,-0.313,-0.654,-0.581
6405363,4838.0,12475.0,3633.0,0.364,-0.307,-0.652,-0.59
6405380,4330.0,12059.0,2129.0,0.354,-0.299,-0.65,-0.603
6405397,4922.0,7923.0,699.0,0.342,-0.29,-0.646,-0.618
6405414,4694.0,6133.0,-199.0,0.331,-0.279,-0.645,-0.63
6405430,5576.0,6993.0,45.0,0.323,-0.267,-0.645,-0.639
6405447,5996.0,9171.0,599.0,0.316,-0.25,-0.648,-0.646
6405473,5930.0,7065.0,767.0,0.309,-0.23,-0.653,-0.651
6405489,7296.0,5903.0,295.0,0.304,-0.208,-0.661,-0.654
6405505,6006.0,7759.0,-473.0,0.297,-0.184,-0.67,-0.655
6405521,4944.0,10585.0,-97.0,0.287,-0.162,-0.678,-0.657
6405538,5854.0,10369.0,1461.0,0.275,-0.14,-0.684,-0.661
6405554,7734.0,6207.0,2283.0,0.263,-0.116,-0.69,-0.664
6405580,5886.0,7563.0,1989.0,0.252,-0.088,-0.698,-0.664
6405597,3712.0,11857.0,533.0,0.239,-0.06,-0.705,-0.665
6405614,5580.0,10331.0,173.0,0.224,-0.036,-0.709,-0.668
6405630,6376.0,6819.0,861.0,0.209,-0.013,-0.711,-0.671
6405646,4816.0,7529.0,409.0,0.193,0.012,-0.715,-0.672
6405662,2356.0,8629.0,-393.0,0.178,0.034,-0.717,-0.673
6405678,3290.0,8325.0,-277.0,0.163,0.051,-0.718,-0.675
6405704,4450.0,6973.0,733.0,0.149,0.067,-0.717,-0.677
6405720,3132.0,6313.0,599.0,0.136,0.084,-0.719,-0.676
6405736,2482.0,8129.0,125.0,0.123,0.1,-0.721,-0.675
6405752,2024.0,8509.0,125.0,0.111,0.114,-0.72,-0.675
6405768,2352.0,7219.0,379.0,0.1,0.128,-0.719,-0.675
6405784,1178.0,7235.0,123.0,0.089,0.142,-0.719,-0.675
6405810,80.0,8523.0,-39.0,0.078,0.154,-0.718,-0.675
6405827,1106.0,8569.0,-393.0,0.067,0.165,-0.716,-0.675
6405843,540.0,8671.0,-753.0,0.055,0.177,-0.714,-0.675
6405859,20.0,8481.0,-885.0,0.043,0.189,-0.71,-0.677
6405875,-1116.0,6987.0,-809.0,0.032,0.199,-0.707,-0.678
6405891,-1144.0,6767.0,-953.0,0.021,0.209,-0.705,-0.677
6405907,-1336.0,6897.0,-743.0,0.011,0.218,-0.704,-0.676
6405934,-680.0,7157.0,-571.0,0.002,0.226,-0.703,-0.674
6405950,-1038.0,8055.0,-651.0,0.008,-0.234,0.704,0.671
6405967,-1612.0,7033.0,-735.0,0.019,-0.242,0.703,0.668
6405984,-2028.0,7055.0,-507.0,0.029,-0.25,0.703,0.665
6406000,-2608.0,6941.0,-165.0,0.039,-0.257,0.703,0.662
6406016,-2236.0,7175.0,-267.0,0.047,-0.262,0.703,0.66
6406032,-1262.0,6723.0,-645.0,0.057,-0.267,0.703,0.657
6406058,-2086.0,6013.0,-865.0,0.067,-0.274,0.703,0.652
6406074,-2962.0,4897.0,-919.0,0.077,-0.281,0.702,0.65
6406090,-2580.0,3009.0,-877.0,0.085,-0.285,0.701,0.648
6406106,-2656.0,1585.0,-321.0,0.091,-0.287,0.7,0.648
6406122,-2680.0,-421.0,93.0,0.094,-0.288,0.7,0.647
6406138,-2566.0,-1005.0,739.0,0.096,-0.286,0.703,0.644
6406155,-2598.0,-601.0,573.0,0.094,-0.283,0.707,0.641
6406181,-1570.0,-697.0,287.0,0.089,-0.279,0.71,0.64
6406197,-948.0,-1025.0,1103.0,0.079,-0.273,0.713,0.641
6406213,-1788.0,1101.0,1703.0,0.066,-0.264,0.717,0.642
6406229,-1668.0,3889.0,813.0,0.05,-0.254,0.722,0.641
6406245,0.0,4583.0,-683.0,0.032,-0.243,0.725,0.643
6406261,692.0,4307.0,-1999.0,0.011,-0.23,0.725,0.65
6406288,-440.0,6009.0,-1231.0,0.011,0.213,-0.721,-0.659
6406304,-736.0,7095.0,-563.0,0.033,0.192,-0.719,-0.667
6406321,2024.0,5935.0,-851.0,0.056,0.167,-0.72,-0.671
6406338,2984.0,4957.0,-591.0,0.08,0.139,-0.722,-0.673
6406355,3322.0,8345.0,-451.0,0.104,0.11,-0.726,-0.671
6406372,3284.0,9645.0,-257.0,0.128,0.08,-0.73,-0.667
6406389,3418.0,10963.0,-7.0,0.15,0.05,-0.73,-0.664
6406405,4356.0,9499.0,695.0,0.171,0.019,-0.728,-0.664
6406431,4574.0,9567.0,991.0,0.191,-0.01,-0.724,-0.662
6406447,5378.0,8319.0,865.0,0.209,-0.039,-0.72,-0.661
6406464,6300.0,9467.0,173.0,0.225,-0.065,-0.714,-0.66
6406481,6154.0,10157.0,-5.0,0.237,-0.091,-0.706,-0.661
6406497,5934.0,8463.0,279.0,0.248,-0.118,-0.698,-0.662
6406514,7506.0,7491.0,447.0,0.257,-0.146,-0.689,-0.661
6406531,7418.0,8969.0,97.0,0.267,-0.173,-0.68,-0.661
6406547,7848.0,8047.0,1203.0,0.276,-0.202,-0.668,-0.661
6406564,8856.0,8275.0,1757.0,0.283,-0.23,-0.657,-0.66
6406580,8906.0,8445.0,1707.0,0.29,-0.258,-0.646,-0.657
6406607,9232.0,8277.0,1863.0,0.298,-0.286,-0.634,-0.653
6406623,8252.0,9785.0,1463.0,0.304,-0.311,-0.623,-0.65
6406640,6684.0,10005.0,1817.0,0.306,-0.336,-0.61,-0.649
6406656,6518.0,10099.0,2099.0,0.306,-0.359,-0.598,-0.648
6406672,6156.0,9207.0,2807.0,0.305,-0.377,-0.588,-0.647
6406688,6160.0,8307.0,2857.0,0.304,-0.391,-0.582,-0.645
6406704,6494.0,9227.0,2949.0,0.304,-0.399,-0.579,-0.643
6406730,5540.0,10731.0,2355.0,0.304,-0.4,-0.579,-0.643
6406747,4468.0,10719.0,2111.0,0.301,-0.397,-0.581,-0.643
6406764,5586.0,7955.0,3455.0,0.299,-0.393,-0.583,-0.646
6406781,4818.0,9373.0,3025.0,0.299,-0.382,-0.589,-0.646
6406797,4652.0,11343.0,1867.0,0.298,-0.368,-0.598,-0.647
6406814,5608.0,9927.0,1719.0,0.294,-0.353,-0.606,-0.65
6406830,5764.0,7947.0,1583.0,0.287,-0.334,-0.615,-0.654
6406846,5226.0,9075.0,2525.0,0.28,-0.312,-0.625,-0.658
6406863,5980.0,8433.0,3161.0,0.275,-0.29,-0.636,-0.66
6406889,7602.0,7225.0,2409.0,0.272,-0.266,-0.647,-0.661
6406905,6170.0,7359.0,1513.0,0.265,-0.24,-0.659,-0.662
6406921,6206.0,9861.0,2017.0,0.257,-0.214,-0.668,-0.665
6406938,6412.0,8105.0,2115.0,0.247,-0.189,-0.675,-0.669
6406955,7804.0,6103.0,2423.0,0.238,-0.164,-0.682,-0.672
6406971,6784.0,8771.0,1203.0,0.228,-0.138,-0.689,-0.674
6406988,6694.0,10195.0,395.0,0.217,-0.114,-0.694,-0.677
6407015,8040.0,6771.0,461.0,0.203,-0.091,-0.697,-0.682
6407032,6588.0,4931.0,1295.0,0.19,-0.066,-0.701,-0.684
6407049,4170.0,8379.0,453.0,0.179,-0.041,-0.705,-0.685
6407066,4146.0,8931.0,-111.0,0.168,-0.019,-0.708,-0.686
6407083,4830.0,7517.0,-93.0,0.158,0.001,-0.709,-0.687
6407100,4550.0,6081.0,-169.0,0.147,0.021,-0.711,-0.687
6407117,2820.0,8003.0,-351.0,0.135,0.043,-0.713,-0.686
6407134,1670.0,9345.0,-49.0,0.122,0.064,-0.713,-0.687
6407151,1878.0,7727.0,-223.0,0.112,0.083,-0.713,-0.688
6407168,1536.0,7247.0,-641.0,0.101,0.101,-0.712,-0.688
6407185,1100.0,7881.0,-831.0,0.089,0.119,-0.711,-0.687
6407202,564.0,8235.0,-1033.0,0.075,0.135,-0.71,-0.686
6407219,532.0,6919.0,-741.0,0.062,0.151,-0.708,-0.687
6407236,-310.0,7599.0,-329.0,0.049,0.166,-0.706,-0.687
6407253,-504.0,7301.0,-433.0,0.038,0.18,-0.705,-0.685
6407280,-300.0,6585.0,-573.0,0.026,0.192,-0.704,-0.683
6407296,-890.0,6785.0,-341.0,0.014,0.204,-0.703,-0.681
6407313,-1170.0,7783.0,-357.0,0.003,0.215,-0.702,-0.679
6407329,-1064.0,6753.0,77.0,0.007,-0.226,0.702,0.676
6407345,-1228.0,7365.0,-97.0,0.017,-0.235,0.7,0.674
6407362,-2042.0,7301.0,-195.0,0.027,-0.245,0.699,0.671
6407379,-1560.0,7347.0,-371.0,0.038,-0.255,0.698,0.669
6407396,-2278.0,7325.0,-555.0,0.049,-0.264,0.696,0.666
6407412,-2620.0,7917.0,-455.0,0.059,-0.273,0.694,0.664
6407438,-2550.0,7805.0,-497.0,0.069,-0.281,0.692,0.661
6407454,-2600.0,7181.0,-615.0,0.08,-0.288,0.69,0.659
6407471,-3382.0,6185.0,-503.0,0.09,-0.295,0.688,0.657
6407487,-3186.0,5223.0,-353.0,0.1,-0.302,0.686,0.654
6407503,-3586.0,4685.0,-333.0,0.109,-0.307,0.685,0.651
6407519,-3658.0,3487.0,-173.0,0.119,-0.311,0.686,0.647
6407545,-3486.0,2795.0,-163.0,0.128,-0.314,0.688,0.641
6407561,-3416.0,2295.0,-237.0,0.136,-0.316,0.693,0.634
6407577,-3596.0,2045.0,-445.0,0.144,-0.316,0.698,0.626
6407593,-4042.0,839.0,-19.0,0.151,-0.315,0.704,0.618
6407609,-3382.0,-1299.0,253.0,0.155,-0.314,0.711,0.61
6407625,-3004.0,-1277.0,457.0,0.154,-0.312,0.717,0.605
6407651,-2552.0,-843.0,1337.0,0.147,-0.308,0.72,0.605
6407667,-2026.0,89.0,2041.0,0.133,-0.303,0.721,0.609
6407683,-2384.0,1981.0,1867.0,0.117,-0.298,0.722,0.613
6407699,-1238.0,2417.0,1431.0,0.099,-0.291,0.725,0.617
6407715,48.0,2411.0,745.0,0.078,-0.282,0.729,0.619
6407731,-542.0,5237.0,-857.0,0.055,-0.271,0.733,0.622
6407757,288.0,7881.0,-1623.0,0.03,-0.258,0.736,0.625
6407773,1772.0,6161.0,-2081.0,0.007,-0.244,0.737,0.631
6407789,1238.0,4429.0,-1573.0,0.015,0.228,-0.738,-0.635
6407805,1332.0,6407.0,-1159.0,0.035,0.207,-0.743,-0.635
6407821,3680.0,11283.0,-2909.0,0.057,0.184,-0.752,-0.631
6407837,4236.0,11523.0,-3053.0,0.081,0.16,-0.755,-0.63
6407863,3728.0,10395.0,-2073.0,0.104,0.136,-0.752,-0.636
6407879,2664.0,9273.0,-567.0,0.128,0.11,-0.746,-0.645
6407896,1626.0,8169.0,-131.0,0.15,0.082,-0.739,-0.652
6407913,2040.0,7571.0,471.0,0.172,0.053,-0.732,-0.657
6407929,3120.0,9403.0,265.0,0.195,0.02,-0.723,-0.662
6407945,3820.0,10319.0,489.0,0.215,-0.014,-0.713,-0.667
6407962,4886.0,11629.0,1319.0,0.233,-0.051,-0.7,-0.674
6407979,6486.0,10029.0,2789.0,0.248,-0.089,-0.684,-0.68
6407996,7634.0,9063.0,3041.0,0.263,-0.125,-0.669,-0.684
6408022,7018.0,11161.0,3103.0,0.277,-0.158,-0.652,-0.688
6408038,7364.0,10255.0,3711.0,0.289,-0.19,-0.636,-0.69
6408054,6362.0,9109.0,2191.0,0.3,-0.219,-0.621,-0.69
6408070,6676.0,9005.0,603.0,0.31,-0.245,-0.608,-0.688
6408086,6246.0,10407.0,1129.0,0.316,-0.27,-0.598,-0.685
6408102,6106.0,9027.0,983.0,0.321,-0.291,-0.59,-0.681
6408129,5908.0,9165.0,587.0,0.326,-0.308,-0.585,-0.676
6408146,4676.0,9959.0,685.0,0.331,-0.323,-0.581,-0.67
6408163,5260.0,8951.0,1781.0,0.336,-0.332,-0.58,-0.664
6408179,6076.0,8359.0,1771.0,0.34,-0.336,-0.581,-0.658
6408195,5512.0,9027.0,1901.0,0.342,-0.334,-0.586,-0.654
6408211,5096.0,9995.0,3103.0,0.343,-0.33,-0.591,-0.651
6408227,5140.0,10319.0,3843.0,0.343,-0.323,-0.598,-0.648
6408244,4830.0,10927.0,4547.0,0.343,-0.312,-0.606,-0.647
6408270,5614.0,10793.0,4995.0,0.341,-0.297,-0.614,-0.647
6408287,5446.0,10377.0,4307.0,0.337,-0.278,-0.623,-0.649
6408303,4970.0,10473.0,4137.0,0.33,-0.258,-0.63,-0.653
6408319,5772.0,11595.0,4249.0,0.32,-0.238,-0.637,-0.66
6408335,6544.0,11443.0,4633.0,0.309,-0.215,-0.643,-0.667
6408351,7674.0,9117.0,3145.0,0.295,-0.188,-0.649,-0.676
6408377,5302.0,9775.0,2649.0,0.28,-0.159,-0.654,-0.685
6408394,5144.0,9201.0,3233.0,0.264,-0.129,-0.658,-0.693
6408410,5028.0,9701.0,3035.0,0.25,-0.1,-0.663,-0.699
6408426,6804.0,10153.0,1837.0,0.237,-0.071,-0.668,-0.702
6408442,7272.0,8111.0,1027.0,0.222,-0.04,-0.672,-0.705
6408458,7052.0,9151.0,181.0,0.205,-0.009,-0.675,-0.709
6408484,5074.0,9271.0,289.0,0.187,0.021,-0.678,-0.71
6408500,5482.0,8601.0,121.0,0.169,0.049,-0.681,-0.711
6408516,4742.0,8035.0,-83.0,0.152,0.075,-0.684,-0.71
6408532,3060.0,6211.0,43.0,0.134,0.101,-0.686,-0.708
6408548,1298.0,7783.0,291.0,0.116,0.126,-0.688,-0.705
6408564,732.0,8169.0,603.0,0.1,0.148,-0.689,-0.702
6408580,1866.0,8497.0,705.0,0.086,0.167,-0.69,-0.699
6408606,1626.0,7101.0,391.0,0.071,0.186,-0.689,-0.696
6408622,634.0,9629.0,-425.0,0.055,0.205,-0.689,-0.693
6408638,124.0,9901.0,-297.0,0.038,0.221,-0.686,-0.692
6408654,634.0,9195.0,-641.0,0.021,0.235,-0.683,-0.691
6408670,564.0,9481.0,-1103.0,0.005,0.248,-0.68,-0.69
6408686,-22.0,8947.0,-1761.0,0.011,-0.259,0.678,0.688
6408712,398.0,7691.0,-1879.0,0.027,-0.269,0.675,0.687
6408728,-632.0,6005.0,-1465.0,0.044,-0.28,0.67,0.686
6408744,-1442.0,5193.0,-871.0,0.061,-0.29,0.667,0.684
6408760,-1886.0,3393.0,103.0,0.077,-0.298,0.665,0.681
6408776,-2086.0,2531.0,1093.0,0.092,-0.304,0.667,0.674
6408802,-2128.0,2075.0,1341.0,0.106,-0.309,0.672,0.665
6408818,-2260.0,1997.0,1119.0,0.119,-0.314,0.677,0.655
6408834,-2920.0,3277.0,783.0,0.131,-0.32,0.679,0.647
6408850,-4728.0,3365.0,1249.0,0.139,-0.326,0.677,0.645
6408866,-2142.0,-673.0,1435.0,0.143,-0.331,0.672,0.647
6408882,-1456.0,-4941.0,913.0,0.141,-0.333,0.665,0.653
6408909,-920.0,-6699.0,1611.0,0.134,-0.331,0.661,0.66
6408925,-584.0,-5473.0,1895.0,0.124,-0.327,0.663,0.662
6408941,-966.0,-1689.0,1745.0,0.11,-0.318,0.67,0.662
6408957,-1322.0,1359.0,1561.0,0.092,-0.306,0.68,0.66
6408973,290.0,3625.0,-123.0,0.071,-0.293,0.691,0.657
6408989,116.0,6303.0,-1585.0,0.048,-0.279,0.698,0.658
6409005,-1650.0,8571.0,-347.0,0.023,-0.262,0.701,0.663
6409031,-1008.0,9955.0,-77.0,0.002,0.245,-0.703,-0.668
6409048,462.0,8841.0,-1217.0,0.024,0.226,-0.703,-0.674
6409065,452.0,6631.0,-1491.0,0.045,0.205,-0.7,-0.683
6409082,478.0,7739.0,-1047.0,0.066,0.181,-0.697,-0.69
6409099,1008.0,7759.0,-969.0,0.086,0.153,-0.697,-0.695
6409116,2610.0,8679.0,-439.0,0.105,0.123,-0.697,-0.698
6409133,3358.0,7359.0,-577.0,0.125,0.092,-0.698,-0.699
6409150,3150.0,9931.0,-187.0,0.143,0.061,-0.699,-0.698
6409167,3300.0,10275.0,-819.0,0.158,0.03,-0.697,-0.699
6409184,3066.0,8873.0,371.0,0.169,-0.002,-0.691,-0.703
6409200,3726.0,7347.0,2375.0,0.179,-0.035,-0.683,-0.707
6409226,4428.0,9723.0,2483.0,0.189,-0.069,-0.676,-0.709
6409242,5746.0,9833.0,1453.0,0.198,-0.104,-0.667,-0.71
6409258,7006.0,9107.0,1435.0,0.205,-0.14,-0.658,-0.711
6409274,8636.0,9761.0,1593.0,0.211,-0.175,-0.649,-0.71
6409290,9020.0,8991.0,1655.0,0.217,-0.209,-0.64,-0.706
6409306,8610.0,9083.0,2425.0,0.224,-0.24,-0.633,-0.701
6409332,7656.0,9315.0,2737.0,0.231,-0.268,-0.625,-0.695
6409348,7342.0,8319.0,2841.0,0.238,-0.294,-0.617,-0.69
6409364,6292.0,8245.0,3903.0,0.247,-0.316,-0.609,-0.684
6409380,6648.0,7489.0,6573.0,0.261,-0.331,-0.606,-0.674
6409397,5328.0,10785.0,4781.0,0.277,-0.343,-0.604,-0.664
6409413,5268.0,12101.0,4015.0,0.287,-0.355,-0.598,-0.658
6409439,6056.0,11283.0,4677.0,0.293,-0.364,-0.594,-0.655
6409455,6180.0,10761.0,4345.0,0.298,-0.369,-0.59,-0.654
6409471,7378.0,8875.0,4067.0,0.301,-0.367,-0.589,-0.654
6409487,6632.0,8353.0,2871.0,0.305,-0.357,-0.591,-0.656
6409503,3850.0,10423.0,1241.0,0.309,-0.343,-0.596,-0.657
6409519,3762.0,10803.0,325.0,0.311,-0.326,-0.601,-0.66
6409545,3302.0,11063.0,773.0,0.311,-0.308,-0.608,-0.662
6409561,3866.0,10929.0,949.0,0.309,-0.287,-0.617,-0.664
6409578,3776.0,11997.0,1197.0,0.305,-0.264,-0.627,-0.666
6409595,5040.0,11327.0,1433.0,0.298,-0.238,-0.637,-0.67
6409611,7072.0,9079.0,2161.0,0.289,-0.21,-0.648,-0.673
6409628,6800.0,9339.0,2529.0,0.278,-0.179,-0.66,-0.674
6409644,6056.0,11747.0,1917.0,0.265,-0.148,-0.672,-0.676
6409661,5978.0,10749.0,1995.0,0.25,-0.117,-0.681,-0.678
6409678,6220.0,9409.0,1651.0,0.231,-0.086,-0.69,-0.681
6409695,5470.0,7125.0,2581.0,0.213,-0.055,-0.698,-0.682
6409722,5442.0,9135.0,2853.0,0.196,-0.024,-0.706,-0.68
6409738,4988.0,9239.0,1797.0,0.178,0.005,-0.714,-0.677
6409754,6554.0,7369.0,1617.0,0.159,0.032,-0.718,-0.677
6409770,3696.0,8175.0,1297.0,0.14,0.061,-0.722,-0.675
6409786,2614.0,7827.0,1707.0,0.123,0.088,-0.724,-0.673
6409802,2240.0,8749.0,1469.0,0.106,0.112,-0.726,-0.671
6409828,2500.0,7245.0,1245.0,0.091,0.135,-0.726,-0.668
6409844,1968.0,8885.0,-103.0,0.076,0.157,-0.727,-0.664
6409861,1538.0,10409.0,-799.0,0.059,0.178,-0.726,-0.662
6409877,1378.0,9695.0,-1711.0,0.043,0.196,-0.722,-0.662
6409894,1152.0,8247.0,-1749.0,0.026,0.214,-0.717,-0.663
6409910,1028.0,6935.0,-2451.0,0.01,0.229,-0.712,-0.664
6409927,-198.0,5827.0,-2541.0,0.007,-0.244,0.708,0.663
6409944,-330.0,5635.0,-2765.0,0.024,-0.258,0.704,0.661
6409970,-616.0,4853.0,-2365.0,0.04,-0.269,0.702,0.658
6409987,-978.0,5093.0,-1983.0,0.056,-0.278,0.702,0.654
6410003,-1766.0,5297.0,-1113.0,0.072,-0.285,0.704,0.647
6410020,-2196.0,5353.0,-571.0,0.086,-0.291,0.708,0.638
6410036,-2578.0,5371.0,327.0,0.1,-0.297,0.712,0.628
6410052,-3200.0,6227.0,449.0,0.113,-0.304,0.717,0.617
6410068,-3218.0,6107.0,439.0,0.125,-0.31,0.719,0.609
6410094,-3298.0,5307.0,649.0,0.135,-0.316,0.718,0.605
6410110,-3056.0,4067.0,419.0,0.143,-0.322,0.715,0.604
6410126,-2914.0,2233.0,15.0,0.15,-0.327,0.71,0.605
6410142,-3316.0,1653.0,-31.0,0.155,-0.333,0.704,0.608
6410158,-3582.0,1235.0,-347.0,0.157,-0.337,0.698,0.612
6410174,-1970.0,-1557.0,-225.0,0.156,-0.339,0.691,0.619
6410200,-1996.0,-4081.0,189.0,0.152,-0.338,0.688,0.624
6410216,-1884.0,-2981.0,375.0,0.144,-0.333,0.689,0.627
6410233,-2138.0,-3085.0,397.0,0.132,-0.326,0.694,0.628
6410249,-2108.0,-2225.0,-347.0,0.116,-0.316,0.7,0.629
6410265,-3434.0,-1931.0,-913.0,0.097,-0.302,0.707,0.632
6410282,-4430.0,2393.0,-359.0,0.073,-0.281,0.714,0.637
6410298,-2292.0,6035.0,275.0,0.047,-0.255,0.719,0.645
6410324,-332.0,9317.0,-273.0,0.021,-0.227,0.721,0.654
6410340,3912.0,9197.0,587.0,0.004,0.199,-0.724,-0.661
6410356,3112.0,10191.0,469.0,0.026,0.17,-0.724,-0.668
6410372,3856.0,10865.0,311.0,0.048,0.141,-0.723,-0.674
6410388,4424.0,9621.0,133.0,0.068,0.112,-0.721,-0.681
6410404,4892.0,9417.0,-297.0,0.087,0.082,-0.718,-0.686
6410421,4728.0,8577.0,-441.0,0.106,0.053,-0.714,-0.69
6410447,4416.0,8833.0,-779.0,0.123,0.026,-0.711,-0.691
6410464,4246.0,8145.0,-415.0,0.139,-0.002,-0.708,-0.692
6410481,3948.0,8199.0,-33.0,0.155,-0.031,-0.706,-0.691
6410498,4756.0,10475.0,71.0,0.17,-0.061,-0.702,-0.689
6410514,4676.0,10435.0,835.0,0.184,-0.092,-0.696,-0.688
6410531,5576.0,9613.0,1455.0,0.197,-0.123,-0.687,-0.689
6410548,5866.0,7077.0,2379.0,0.208,-0.154,-0.677,-0.689
6410565,7318.0,7971.0,2587.0,0.221,-0.183,-0.668,-0.686
6410581,8030.0,9919.0,2383.0,0.237,-0.212,-0.658,-0.682
6410608,8860.0,7429.0,3015.0,0.252,-0.24,-0.646,-0.679
6410625,8942.0,6375.0,3265.0,0.27,-0.265,-0.635,-0.673
6410641,6432.0,7083.0,3223.0,0.288,-0.288,-0.627,-0.664
6410657,6468.0,9081.0,2535.0,0.305,-0.312,-0.616,-0.656
6410674,5942.0,11537.0,3041.0,0.319,-0.334,-0.606,-0.648
6410690,6502.0,10983.0,3601.0,0.331,-0.355,-0.594,-0.641
6410706,6338.0,10809.0,3797.0,0.343,-0.369,-0.584,-0.636
6410723,5738.0,12489.0,2905.0,0.354,-0.377,-0.577,-0.632
6410749,5346.0,13629.0,2137.0,0.359,-0.379,-0.574,-0.631
6410765,6020.0,13329.0,2133.0,0.36,-0.375,-0.574,-0.632
6410781,5758.0,12801.0,2307.0,0.359,-0.363,-0.579,-0.636
6410798,4554.0,13413.0,1297.0,0.355,-0.343,-0.588,-0.641
6410814,4006.0,13061.0,757.0,0.348,-0.32,-0.598,-0.647
6410831,4596.0,11855.0,757.0,0.337,-0.295,-0.611,-0.653
6410848,5970.0,10903.0,1203.0,0.323,-0.267,-0.624,-0.66
6410865,6474.0,9061.0,1145.0,0.307,-0.238,-0.637,-0.665
6410882,6914.0,9583.0,1177.0,0.291,-0.208,-0.65,-0.67
6410908,7548.0,9977.0,1529.0,0.275,-0.178,-0.663,-0.674
6410924,9484.0,8183.0,1861.0,0.257,-0.148,-0.676,-0.675
6410940,8062.0,6811.0,1473.0,0.237,-0.118,-0.688,-0.676
6410956,7666.0,8735.0,2097.0,0.217,-0.089,-0.7,-0.675
6410972,6938.0,9055.0,1887.0,0.198,-0.061,-0.711,-0.672
6410988,5628.0,6549.0,2057.0,0.177,-0.034,-0.72,-0.67
6411014,5122.0,6543.0,3245.0,0.158,-0.007,-0.727,-0.668
6411031,2418.0,9487.0,2627.0,0.139,0.019,-0.734,-0.665
6411048,4122.0,7855.0,1949.0,0.121,0.043,-0.736,-0.665
6411065,4702.0,5773.0,2563.0,0.106,0.066,-0.738,-0.663
6411082,2450.0,8295.0,593.0,0.092,0.088,-0.741,-0.659
6411099,2684.0,8227.0,-587.0,0.078,0.107,-0.742,-0.657
6411116,1226.0,7265.0,-1295.0,0.062,0.126,-0.741,-0.656
6411133,1450.0,6023.0,-855.0,0.047,0.142,-0.739,-0.657
6411150,870.0,6311.0,-791.0,0.034,0.156,-0.738,-0.656
6411167,1166.0,5641.0,-907.0,0.022,0.17,-0.737,-0.653
6411184,918.0,6745.0,-1387.0,0.01,0.183,-0.738,-0.649
6411201,-324.0,7593.0,-1605.0,0.003,-0.196,0.739,0.645
6411218,-466.0,8245.0,-1329.0,0.015,-0.209,0.739,0.641
6411235,-1216.0,8163.0,-983.0,0.027,-0.221,0.738,0.637
6411262,-546.0,7967.0,-1197.0,0.039,-0.231,0.738,0.632
6411279,-1298.0,8343.0,-1427.0,0.051,-0.243,0.738,0.627
6411296,-2206.0,8935.0,-1625.0,0.064,-0.254,0.737,0.623
6411313,-2382.0,8517.0,-1687.0,0.076,-0.265,0.734,0.62
6411329,-2624.0,7531.0,-881.0,0.087,-0.275,0.73,0.62
6411346,-2310.0,7199.0,-545.0,0.097,-0.285,0.726,0.619
6411362,-2270.0,6255.0,-339.0,0.106,-0.294,0.722,0.617
6411378,-1934.0,5699.0,-535.0,0.115,-0.305,0.72,0.613
6411395,-2258.0,5657.0,-895.0,0.125,-0.316,0.716,0.61
6411421,-2886.0,5087.0,-1103.0,0.134,-0.327,0.712,0.607
6411437,-3130.0,2911.0,-1503.0,0.142,-0.337,0.706,0.606
6411453,-4384.0,545.0,-1195.0,0.149,-0.345,0.699,0.609
6411469,-4298.0,-2701.0,-219.0,0.152,-0.35,0.693,0.612
6411485,-3154.0,-6415.0,697.0,0.151,-0.35,0.689,0.616
6411501,-3376.0,-8125.0,1877.0,0.148,-0.349,0.688,0.619
6411518,-2862.0,-5083.0,2757.0,0.138,-0.344,0.692,0.62
6411544,-3742.0,-97.0,2283.0,0.123,-0.338,0.697,0.62
6411560,-2936.0,3571.0,1259.0,0.105,-0.332,0.7,0.623
6411576,-2202.0,3783.0,67.0,0.084,-0.325,0.7,0.63
6411592,-2054.0,5317.0,-357.0,0.062,-0.317,0.699,0.638
6411609,-2270.0,8209.0,-1265.0,0.04,-0.306,0.698,0.646
6411626,-1468.0,7533.0,-1715.0,0.019,-0.295,0.693,0.657
6411643,-852.0,5035.0,-1387.0,0.001,0.283,-0.689,-0.667
6411669,-1762.0,5951.0,-1469.0,0.02,0.266,-0.687,-0.676
6411685,-776.0,7393.0,-681.0,0.04,0.247,-0.687,-0.682
6411701,844.0,7847.0,-563.0,0.058,0.226,-0.69,-0.685
6411717,1260.0,9075.0,-857.0,0.077,0.205,-0.693,-0.687
6411733,1270.0,9853.0,-461.0,0.095,0.182,-0.694,-0.69
6411749,1546.0,10893.0,351.0,0.113,0.157,-0.695,-0.692
6411766,1958.0,9021.0,31.0,0.129,0.134,-0.695,-0.694
6411792,1122.0,9279.0,-49.0,0.144,0.11,-0.694,-0.696
6411809,1148.0,9081.0,109.0,0.158,0.085,-0.692,-0.699
6411825,2632.0,9897.0,793.0,0.172,0.058,-0.689,-0.701
6411841,2736.0,9257.0,741.0,0.185,0.031,-0.687,-0.702
6411857,4170.0,9209.0,1249.0,0.197,0.002,-0.684,-0.703
6411873,4244.0,9561.0,1697.0,0.209,-0.027,-0.681,-0.702
6411899,5310.0,9413.0,1781.0,0.221,-0.057,-0.678,-0.699
6411918,5962.0,8343.0,2317.0,0.233,-0.085,-0.675,-0.695
6411934,6046.0,8907.0,2467.0,0.244,-0.112,-0.671,-0.691
6411950,6944.0,9577.0,2401.0,0.254,-0.138,-0.666,-0.688
6411966,5578.0,9945.0,2547.0,0.263,-0.164,-0.66,-0.685
6411982,5956.0,9345.0,2907.0,0.271,-0.188,-0.652,-0.682
6411999,5540.0,8379.0,3207.0,0.278,-0.21,-0.645,-0.68
6412015,4908.0,8811.0,2961.0,0.286,-0.229,-0.638,-0.678
6412032,4744.0,9939.0,2641.0,0.293,-0.247,-0.631,-0.675
6412058,5084.0,9771.0,2395.0,0.3,-0.262,-0.625,-0.671
6412075,4836.0,9823.0,2141.0,0.305,-0.274,-0.621,-0.668
6412091,4678.0,10739.0,2307.0,0.309,-0.282,-0.619,-0.665
6412107,4848.0,10281.0,1889.0,0.311,-0.286,-0.618,-0.663
6412123,4220.0,10827.0,1843.0,0.311,-0.286,-0.618,-0.662
6412140,4124.0,11397.0,1873.0,0.311,-0.281,-0.621,-0.662
6412157,3852.0,10951.0,2185.0,0.311,-0.273,-0.626,-0.661
6412174,3700.0,11323.0,2005.0,0.31,-0.26,-0.633,-0.659
6412200,4164.0,11201.0,2097.0,0.308,-0.243,-0.642,-0.658
6412217,4726.0,10791.0,1785.0,0.302,-0.223,-0.652,-0.658
6412234,4530.0,11755.0,1567.0,0.294,-0.201,-0.663,-0.659
6412251,4266.0,11317.0,1883.0,0.283,-0.178,-0.672,-0.661
6412268,5130.0,9333.0,2423.0,0.271,-0.154,-0.68,-0.663
6412285,5814.0,7245.0,2277.0,0.259,-0.13,-0.689,-0.664
6412301,4924.0,8999.0,2165.0,0.247,-0.104,-0.697,-0.665
6412318,4708.0,10395.0,1247.0,0.233,-0.079,-0.704,-0.666
6412334,5086.0,9985.0,1439.0,0.218,-0.054,-0.709,-0.668
6412351,3928.0,7037.0,1847.0,0.202,-0.031,-0.713,-0.671
6412377,4434.0,8699.0,1821.0,0.188,-0.008,-0.716,-0.673
6412393,3668.0,8941.0,1289.0,0.175,0.016,-0.719,-0.672
6412409,4556.0,7361.0,1031.0,0.163,0.038,-0.721,-0.672
6412425,3224.0,7929.0,927.0,0.15,0.062,-0.724,-0.67
6412441,2412.0,8463.0,285.0,0.138,0.085,-0.725,-0.669
6412458,2086.0,10393.0,-253.0,0.124,0.106,-0.724,-0.67
6412475,1354.0,7145.0,5.0,0.111,0.126,-0.721,-0.672
6412492,394.0,8097.0,-295.0,0.099,0.144,-0.719,-0.673
6412518,440.0,8191.0,-667.0,0.087,0.159,-0.717,-0.673
6412534,1050.0,7429.0,-747.0,0.076,0.172,-0.715,-0.673
6412551,444.0,7877.0,-773.0,0.064,0.185,-0.713,-0.673
6412568,-238.0,8617.0,-1113.0,0.052,0.197,-0.711,-0.673
6412585,-268.0,6359.0,-1063.0,0.039,0.209,-0.707,-0.674
6412602,-1154.0,7631.0,-895.0,0.028,0.218,-0.705,-0.675
6412618,-570.0,7435.0,-435.0,0.017,0.227,-0.703,-0.674
6412634,-510.0,7193.0,-571.0,0.006,0.236,-0.701,-0.673
6412651,-1468.0,7007.0,-743.0,0.005,-0.244,0.7,0.671
6412678,-2010.0,6111.0,-533.0,0.016,-0.252,0.699,0.669
6412695,-2864.0,5933.0,-167.0,0.027,-0.26,0.698,0.667
6412712,-2572.0,5503.0,-185.0,0.037,-0.266,0.698,0.664
6412729,-3014.0,5691.0,-25.0,0.046,-0.272,0.699,0.66
6412746,-3068.0,6139.0,-181.0,0.055,-0.278,0.699,0.656
6412763,-3028.0,6365.0,-631.0,0.064,-0.285,0.699,0.653
6412779,-3072.0,6521.0,-849.0,0.072,-0.291,0.698,0.651
6412796,-3022.0,6541.0,-1035.0,0.081,-0.296,0.695,0.65
6412814,-2894.0,6383.0,-979.0,0.089,-0.302,0.692,0.65
6412831,-2532.0,5631.0,-1153.0,0.096,-0.306,0.688,0.651
6412847,-2574.0,3983.0,-1333.0,0.102,-0.31,0.684,0.653
6412863,-2604.0,1721.0,-903.0,0.107,-0.312,0.68,0.655
6412889,-2500.0,-167.0,-405.0,0.11,-0.312,0.678,0.656
6412906,-2746.0,-1517.0,-23.0,0.111,-0.31,0.678,0.657
6412923,-3638.0,-693.0,855.0,0.108,-0.307,0.68,0.657
6412939,-3122.0,-197.0,879.0,0.102,-0.304,0.682,0.657
6412955,-1994.0,-1185.0,609.0,0.091,-0.298,0.684,0.659
6412971,-2492.0,-929.0,1643.0,0.077,-0.287,0.688,0.662
6412987,-2438.0,1857.0,2439.0,0.06,-0.274,0.695,0.663
6413013,-1190.0,5995.0,1339.0,0.044,-0.261,0.703,0.66
6413030,-798.0,8491.0,-261.0,0.025,-0.247,0.709,0.66
6413047,-298.0,5957.0,-1227.0,0.006,-0.231,0.708,0.667
6413064,-952.0,8145.0,101.0,0.013,0.212,-0.706,-0.675
6413081,618.0,7493.0,601.0,0.032,0.193,-0.706,-0.68
6413098,914.0,8575.0,-257.0,0.05,0.174,-0.708,-0.683
6413115,1078.0,9059.0,-837.0,0.066,0.155,-0.708,-0.686
6413132,1136.0,9277.0,-703.0,0.083,0.135,-0.708,-0.689
6413149,1648.0,8211.0,-267.0,0.099,0.114,-0.707,-0.691
6413166,812.0,9343.0,-91.0,0.113,0.094,-0.707,-0.692
6413182,1108.0,9721.0,-337.0,0.126,0.073,-0.705,-0.695
6413208,1258.0,8949.0,405.0,0.136,0.053,-0.702,-0.698
6413224,2448.0,9461.0,379.0,0.145,0.035,-0.699,-0.699
6413240,1694.0,10895.0,717.0,0.156,0.013,-0.695,-0.701
6413256,2250.0,9363.0,543.0,0.165,-0.009,-0.691,-0.704
6413272,2218.0,8813.0,1039.0,0.172,-0.033,-0.686,-0.706
6413289,4246.0,8145.0,2031.0,0.179,-0.057,-0.684,-0.705
6413315,4728.0,8753.0,1667.0,0.187,-0.081,-0.681,-0.703
6413331,4710.0,9759.0,1465.0,0.196,-0.105,-0.676,-0.703
6413347,4414.0,7809.0,2111.0,0.203,-0.128,-0.67,-0.703
6413363,5202.0,8235.0,2381.0,0.212,-0.152,-0.664,-0.701
6413379,4954.0,7503.0,1989.0,0.221,-0.175,-0.658,-0.699
6413395,5274.0,8385.0,1457.0,0.23,-0.197,-0.651,-0.696
6413412,5480.0,8503.0,1415.0,0.238,-0.22,-0.644,-0.693
6413438,5700.0,7371.0,1279.0,0.245,-0.242,-0.636,-0.69
6413454,5570.0,7247.0,1935.0,0.253,-0.263,-0.629,-0.686
6413470,6644.0,7143.0,2297.0,0.26,-0.283,-0.622,-0.681
6413486,6656.0,6825.0,2443.0,0.27,-0.3,-0.616,-0.676
6413502,5974.0,7491.0,1947.0,0.281,-0.313,-0.612,-0.67
6413518,6074.0,8141.0,1777.0,0.292,-0.325,-0.608,-0.663
6413544,7384.0,6851.0,2891.0,0.303,-0.335,-0.606,-0.655
6413560,7114.0,7499.0,2693.0,0.314,-0.34,-0.607,-0.646
6413576,4462.0,10777.0,1831.0,0.323,-0.344,-0.608,-0.639
6413592,4734.0,11155.0,2679.0,0.327,-0.348,-0.606,-0.636
6413609,5142.0,8389.0,2961.0,0.327,-0.35,-0.605,-0.636
6413626,4406.0,10319.0,2351.0,0.327,-0.347,-0.606,-0.637
6413642,4234.0,10093.0,1699.0,0.325,-0.342,-0.606,-0.64
6413669,4986.0,7979.0,1837.0,0.323,-0.335,-0.609,-0.643
6413685,5798.0,7977.0,2057.0,0.322,-0.325,-0.613,-0.644
6413701,6432.0,9327.0,1959.0,0.321,-0.311,-0.619,-0.645
6413717,8392.0,9261.0,1315.0,0.318,-0.293,-0.627,-0.648
6413734,7594.0,9995.0,1165.0,0.311,-0.273,-0.636,-0.652
6413751,6660.0,10169.0,1497.0,0.299,-0.25,-0.644,-0.658
6413767,6488.0,11273.0,2197.0,0.287,-0.225,-0.653,-0.664
6413784,5374.0,9431.0,2417.0,0.276,-0.199,-0.662,-0.668
6413811,6508.0,7281.0,2523.0,0.264,-0.171,-0.67,-0.672
6413828,5556.0,9965.0,2427.0,0.253,-0.141,-0.68,-0.674
6413845,3562.0,10453.0,1131.0,0.238,-0.112,-0.686,-0.678
6413862,4964.0,8205.0,1677.0,0.223,-0.085,-0.69,-0.683
6413879,4536.0,7973.0,2095.0,0.207,-0.058,-0.695,-0.686
6413896,4146.0,10997.0,747.0,0.192,-0.031,-0.7,-0.687
6413913,6078.0,9631.0,597.0,0.175,-0.008,-0.702,-0.691
6413930,6238.0,7357.0,845.0,0.157,0.018,-0.703,-0.693
6413947,3760.0,6693.0,201.0,0.14,0.045,-0.706,-0.693
6413964,1054.0,8701.0,575.0,0.124,0.071,-0.709,-0.69
6413981,1494.0,8327.0,769.0,0.11,0.093,-0.712,-0.687
6413998,2820.0,7733.0,1053.0,0.097,0.113,-0.715,-0.683
6414015,1810.0,8039.0,411.0,0.082,0.135,-0.719,-0.677
6414032,564.0,9741.0,-191.0,0.065,0.157,-0.721,-0.671
6414049,-556.0,10011.0,-329.0,0.048,0.176,-0.719,-0.67
6414076,-222.0,10317.0,153.0,0.03,0.193,-0.716,-0.67
6414093,956.0,9003.0,-703.0,0.013,0.21,-0.712,-0.67
6414109,864.0,8651.0,-1547.0,0.006,-0.227,0.706,0.671
6414125,296.0,8601.0,-2035.0,0.025,-0.244,0.7,0.67
6414141,-76.0,6289.0,-1971.0,0.045,-0.26,0.693,0.671
6414157,-1104.0,2443.0,-977.0,0.064,-0.273,0.686,0.671
6414173,-1800.0,209.0,501.0,0.08,-0.285,0.684,0.667
6414199,-2202.0,-463.0,1159.0,0.096,-0.293,0.687,0.658
6414215,-4006.0,1917.0,1137.0,0.109,-0.3,0.691,0.648
6414231,-4676.0,4385.0,1317.0,0.12,-0.305,0.694,0.641
6414247,-3812.0,4129.0,1011.0,0.129,-0.311,0.691,0.639
6414263,-3626.0,2103.0,857.0,0.135,-0.315,0.686,0.642
6414280,-3186.0,1255.0,1043.0,0.137,-0.317,0.68,0.646
