timeMs,ax,ay,az,q0,q1,q2,q3
956671,334.0,3686.0,6047.0,0.161,-0.03,0.362,0.918
956689,798.0,5496.0,6285.0,0.159,-0.017,0.369,0.915
956715,1398.0,7272.0,6511.0,0.154,-0.006,0.371,0.916
956731,1442.0,7698.0,6795.0,0.147,0.003,0.363,0.92
956747,1476.0,6518.0,6873.0,0.138,0.011,0.347,0.928
956763,1790.0,4450.0,6975.0,0.128,0.019,0.328,0.936
956780,1948.0,2948.0,7673.0,0.116,0.027,0.31,0.943
956802,2624.0,2740.0,8347.0,0.104,0.036,0.301,0.947
956818,2756.0,4280.0,8719.0,0.092,0.046,0.299,0.949
956835,2630.0,6512.0,9077.0,0.082,0.056,0.3,0.949
956851,2276.0,8312.0,9567.0,0.073,0.065,0.298,0.95
956867,2236.0,9016.0,10027.0,0.066,0.073,0.288,0.953
956893,2152.0,8672.0,10107.0,0.059,0.078,0.271,0.958
956909,2026.0,7232.0,9791.0,0.051,0.08,0.248,0.964
956925,2246.0,5502.0,9391.0,0.045,0.078,0.223,0.971
956941,2172.0,3746.0,8991.0,0.038,0.072,0.199,0.977
956957,2186.0,2774.0,8575.0,0.031,0.062,0.181,0.981
956983,2110.0,2734.0,8073.0,0.023,0.051,0.168,0.984
957000,2074.0,3552.0,7685.0,0.015,0.038,0.16,0.986
957017,2036.0,4552.0,7435.0,0.007,0.025,0.153,0.988
957034,1958.0,5556.0,7491.0,0.001,-0.012,-0.144,-0.989
957051,2410.0,6054.0,7105.0,0.008,0.002,-0.133,-0.991
957068,2322.0,5974.0,7099.0,0.014,0.017,-0.119,-0.993
957085,2370.0,5546.0,7343.0,0.018,0.032,-0.104,-0.994
957102,2186.0,5250.0,7563.0,0.019,0.049,-0.09,-0.995
957118,2284.0,4980.0,7413.0,0.018,0.067,-0.076,-0.995
957134,2008.0,4566.0,7067.0,0.013,0.086,-0.063,-0.994
957150,1618.0,4020.0,6943.0,0.006,0.106,-0.048,-0.993
957176,1684.0,3476.0,6717.0,0.003,-0.126,0.032,0.992
957192,2014.0,2952.0,6295.0,0.013,-0.147,0.011,0.989
957208,2156.0,2240.0,6113.0,0.024,-0.169,-0.013,0.985
957224,2330.0,1350.0,6009.0,0.034,-0.192,-0.039,0.98
957240,2088.0,360.0,5839.0,0.044,-0.216,-0.068,0.973
957256,1688.0,-498.0,5399.0,0.053,-0.241,-0.096,0.964
957282,1216.0,-1456.0,5041.0,0.063,-0.266,-0.123,0.954
957298,1020.0,-2208.0,4795.0,0.073,-0.291,-0.148,0.942
957314,732.0,-2658.0,5005.0,0.083,-0.315,-0.171,0.93
957330,718.0,-2622.0,5433.0,0.094,-0.338,-0.193,0.916
957346,1096.0,-3582.0,6115.0,0.104,-0.362,-0.217,0.9
957363,1672.0,-5842.0,5855.0,0.114,-0.386,-0.243,0.882
957380,2256.0,-8454.0,5055.0,0.122,-0.415,-0.263,0.862
957406,3058.0,-11990.0,4531.0,0.133,-0.446,-0.273,0.842
957423,310.0,-12640.0,929.0,0.15,-0.481,-0.267,0.821
957439,-4870.0,-9692.0,-2271.0,0.174,-0.518,-0.25,0.799
957456,-7586.0,-5526.0,-4747.0,0.201,-0.552,-0.233,0.775
957473,-9848.0,-3766.0,-7015.0,0.225,-0.583,-0.224,0.748
957490,-9740.0,-3018.0,-8421.0,0.24,-0.608,-0.229,0.721
957506,-8868.0,-3994.0,-9827.0,0.242,-0.631,-0.248,0.693
957522,-7398.0,-6866.0,-9951.0,0.236,-0.651,-0.276,0.667
957548,-6828.0,-9040.0,-9415.0,0.227,-0.666,-0.304,0.642
957564,-5876.0,-9640.0,-8757.0,0.219,-0.677,-0.328,0.621
957581,-5704.0,-9284.0,-8311.0,0.212,-0.686,-0.348,0.602
957597,-6168.0,-8864.0,-6881.0,0.205,-0.693,-0.368,0.586
957614,-5640.0,-8156.0,-5915.0,0.195,-0.699,-0.386,0.57
957631,-5394.0,-7812.0,-5257.0,0.183,-0.705,-0.403,0.554
957648,-4546.0,-6562.0,-5181.0,0.171,-0.712,-0.417,0.538
957665,-4398.0,-5766.0,-4731.0,0.16,-0.719,-0.43,0.522
957682,-4482.0,-4954.0,-3947.0,0.149,-0.726,-0.444,0.504
957699,-4770.0,-3708.0,-4421.0,0.139,-0.733,-0.457,0.485
957716,-4384.0,-3280.0,-5587.0,0.127,-0.741,-0.471,0.462
957743,-4478.0,-2782.0,-6517.0,0.115,-0.749,-0.485,0.436
957760,-4490.0,-3344.0,-7883.0,0.103,-0.756,-0.499,0.41
957777,-5716.0,-5054.0,-8353.0,0.092,-0.761,-0.512,0.388
957794,-6420.0,-5250.0,-9243.0,0.082,-0.763,-0.523,0.372
957811,-5886.0,-4140.0,-8687.0,0.071,-0.763,-0.533,0.359
957828,-5248.0,-4722.0,-8141.0,0.058,-0.764,-0.54,0.349
957845,-5174.0,-5472.0,-8539.0,0.045,-0.765,-0.545,0.34
957862,-5150.0,-6210.0,-8937.0,0.03,-0.765,-0.549,0.336
957878,-4542.0,-6164.0,-8749.0,0.014,-0.765,-0.549,0.336
957895,-4284.0,-5188.0,-7681.0,0.003,0.765,0.546,-0.341
957921,-3942.0,-3652.0,-7387.0,0.022,0.765,0.542,-0.347
957938,-3924.0,-2464.0,-7377.0,0.045,0.764,0.539,-0.353
957954,-3822.0,-2772.0,-8281.0,0.069,0.762,0.534,-0.36
957970,-3828.0,-2726.0,-7211.0,0.091,0.76,0.529,-0.367
957987,1438.0,-2238.0,-1065.0,0.094,0.758,0.528,-0.371
958004,-4542.0,2628.0,-795.0,0.085,0.758,0.528,-0.374
958021,-6330.0,5918.0,-2601.0,0.083,0.756,0.528,-0.377
958037,-5360.0,1272.0,-2799.0,0.087,0.755,0.529,-0.377
958053,-7012.0,-3926.0,-4869.0,0.087,0.755,0.527,-0.38
958070,-7896.0,-4154.0,-8297.0,0.085,0.756,0.523,-0.385
958087,-7440.0,-1214.0,-9795.0,0.087,0.756,0.521,-0.386
958114,-6620.0,-2898.0,-7919.0,0.092,0.756,0.521,-0.385
958131,-5438.0,-2490.0,-5613.0,0.097,0.755,0.522,-0.384
958148,-5220.0,-2574.0,-5111.0,0.1,0.755,0.522,-0.384
958165,-4950.0,-1210.0,-5887.0,0.102,0.755,0.52,-0.385
958182,-2834.0,-1190.0,-6895.0,0.104,0.756,0.519,-0.385
958199,-3190.0,-1180.0,-7055.0,0.104,0.757,0.518,-0.384
958218,-2426.0,-1178.0,-7089.0,0.105,0.757,0.519,-0.383
958235,-3274.0,-4846.0,-4595.0,0.104,0.757,0.52,-0.382
958252,-5712.0,-5790.0,-4759.0,0.1,0.757,0.518,-0.385
958269,-6970.0,-3224.0,-4971.0,0.095,0.758,0.514,-0.39
958286,-7786.0,-1408.0,-4677.0,0.092,0.759,0.511,-0.392
958303,-7138.0,1266.0,-4573.0,0.09,0.76,0.507,-0.396
958324,-5266.0,-1060.0,-4705.0,0.09,0.76,0.504,-0.4
958340,-4452.0,-3002.0,-5897.0,0.091,0.76,0.501,-0.405
958357,-5256.0,-2684.0,-5799.0,0.091,0.758,0.5,-0.409
958374,-5264.0,-1520.0,-5727.0,0.091,0.757,0.499,-0.412
958391,-5728.0,-1006.0,-5833.0,0.092,0.755,0.499,-0.415
958408,-5604.0,-1888.0,-6167.0,0.094,0.754,0.499,-0.417
958425,-5844.0,-2758.0,-5995.0,0.094,0.753,0.499,-0.418
958442,-6030.0,-2382.0,-4999.0,0.094,0.753,0.499,-0.419
958459,-5986.0,-1054.0,-5189.0,0.094,0.753,0.498,-0.42
958486,-5452.0,-2078.0,-5239.0,0.095,0.752,0.498,-0.421
958503,-5674.0,-2288.0,-5207.0,0.095,0.752,0.497,-0.422
958520,-6038.0,-2530.0,-5371.0,0.096,0.752,0.497,-0.422
958537,-5816.0,-2824.0,-5393.0,0.095,0.752,0.498,-0.423
958553,-6318.0,-1816.0,-5063.0,0.094,0.751,0.498,-0.423
958570,-6158.0,-2272.0,-5085.0,0.094,0.752,0.497,-0.423
958587,-5654.0,-2518.0,-5513.0,0.094,0.752,0.497,-0.423
958604,-5428.0,-2710.0,-5647.0,0.093,0.752,0.498,-0.422
958620,-7016.0,-2250.0,-6299.0,0.091,0.753,0.498,-0.42
958637,-7692.0,-2074.0,-5903.0,0.092,0.754,0.497,-0.42
958654,-7614.0,-3452.0,-6667.0,0.093,0.754,0.495,-0.422
958681,-8256.0,-3270.0,-7405.0,0.094,0.754,0.493,-0.424
958698,-8560.0,-2744.0,-6797.0,0.096,0.753,0.491,-0.427
958715,-8550.0,-3392.0,-6825.0,0.099,0.752,0.488,-0.432
958732,-8390.0,-2860.0,-7281.0,0.103,0.751,0.484,-0.437
958749,-7790.0,-2400.0,-6631.0,0.107,0.749,0.479,-0.444
958767,-6836.0,-3010.0,-6501.0,0.112,0.748,0.474,-0.451
958784,-6562.0,-2312.0,-6285.0,0.117,0.746,0.469,-0.459
958801,-5690.0,-2412.0,-5695.0,0.122,0.744,0.464,-0.465
958818,-5624.0,-1206.0,-5675.0,0.127,0.743,0.458,-0.472
958835,-5084.0,-2286.0,-5021.0,0.133,0.741,0.452,-0.478
958852,-5058.0,-2246.0,-4785.0,0.139,0.74,0.446,-0.484
958869,-5482.0,-1166.0,-4429.0,0.143,0.738,0.44,-0.491
958886,-5000.0,-1270.0,-4527.0,0.149,0.737,0.434,-0.497
958903,-5426.0,-2030.0,-3797.0,0.155,0.734,0.428,-0.503
958920,-6068.0,-1736.0,-3449.0,0.16,0.732,0.423,-0.51
958937,-5738.0,-354.0,-3509.0,0.167,0.728,0.418,-0.517
958963,-5926.0,-1014.0,-3351.0,0.175,0.724,0.414,-0.523
958980,-5178.0,-3150.0,-3583.0,0.18,0.721,0.41,-0.529
958997,-5174.0,-2032.0,-3555.0,0.182,0.719,0.407,-0.533
959014,-6456.0,-522.0,-2745.0,0.182,0.718,0.404,-0.537
959031,-6844.0,-890.0,-2483.0,0.183,0.718,0.4,-0.54
959047,-7078.0,-1528.0,-2463.0,0.184,0.717,0.396,-0.543
959063,-7506.0,-796.0,-2263.0,0.185,0.716,0.393,-0.547
959080,-7384.0,-1124.0,-2225.0,0.186,0.714,0.39,-0.551
959097,-7334.0,-1436.0,-2201.0,0.187,0.711,0.388,-0.556
959114,-7510.0,-722.0,-2109.0,0.188,0.708,0.387,-0.56
959141,-7352.0,-1206.0,-2221.0,0.188,0.705,0.386,-0.564
959157,-7628.0,-906.0,-1949.0,0.189,0.703,0.385,-0.568
959174,-8020.0,-790.0,-1607.0,0.189,0.7,0.383,-0.572
959191,-7508.0,-1216.0,-1919.0,0.19,0.698,0.381,-0.576
959207,-7930.0,-1136.0,-1421.0,0.192,0.695,0.379,-0.58
959224,-7538.0,-1356.0,-1675.0,0.193,0.693,0.377,-0.584
959241,-7364.0,-1590.0,-1657.0,0.193,0.691,0.375,-0.588
959257,-7464.0,-986.0,-1263.0,0.193,0.689,0.373,-0.591
959274,-7438.0,-1166.0,-987.0,0.194,0.687,0.371,-0.594
959300,-7112.0,-1376.0,-1115.0,0.195,0.685,0.369,-0.597
959317,-6822.0,-754.0,-1231.0,0.196,0.683,0.368,-0.6
959334,-6758.0,-898.0,-1125.0,0.196,0.681,0.367,-0.602
959351,-6654.0,-888.0,-809.0,0.196,0.68,0.366,-0.604
959368,-6252.0,-1640.0,-991.0,0.195,0.679,0.366,-0.606
959385,-5778.0,-1674.0,-983.0,0.192,0.679,0.367,-0.607
959402,-5474.0,-936.0,-821.0,0.188,0.679,0.368,-0.607
959419,-4832.0,-1042.0,-731.0,0.184,0.68,0.37,-0.606
959436,-4300.0,-664.0,-651.0,0.18,0.681,0.373,-0.605
959453,-3664.0,-834.0,-701.0,0.176,0.681,0.377,-0.602
959470,-3128.0,-1496.0,-883.0,0.172,0.682,0.381,-0.599
959487,-2958.0,-1426.0,-793.0,0.166,0.684,0.386,-0.596
959513,-3652.0,-1762.0,-1505.0,0.161,0.686,0.392,-0.592
959530,-5348.0,262.0,-661.0,0.155,0.687,0.398,-0.587
959547,-4852.0,-2530.0,-1213.0,0.152,0.688,0.404,-0.584
959564,-6302.0,-1130.0,-1767.0,0.148,0.688,0.408,-0.581
959581,-6744.0,-1300.0,-2171.0,0.144,0.689,0.412,-0.579
959598,-7650.0,-3370.0,-2125.0,0.141,0.689,0.416,-0.577
959615,-8104.0,-1304.0,-2467.0,0.138,0.688,0.421,-0.575
959633,-8298.0,-2498.0,-2879.0,0.136,0.687,0.424,-0.574
959650,-8806.0,-2688.0,-2399.0,0.134,0.685,0.428,-0.574
959667,-7894.0,-3552.0,-3233.0,0.132,0.683,0.432,-0.574
959684,-8866.0,-2884.0,-2525.0,0.129,0.682,0.435,-0.573
959701,-9350.0,-3530.0,-1739.0,0.128,0.682,0.437,-0.573
959718,-9264.0,-2836.0,-2505.0,0.128,0.681,0.437,-0.573
959735,-8228.0,-3008.0,-2335.0,0.129,0.681,0.436,-0.574
959752,-8140.0,-3294.0,-3015.0,0.13,0.682,0.435,-0.573
959769,-8772.0,-2538.0,-2319.0,0.131,0.684,0.433,-0.572
959796,-9316.0,-3270.0,-1807.0,0.133,0.685,0.432,-0.571
959813,-8562.0,-3786.0,-2397.0,0.135,0.687,0.43,-0.571
959829,-8214.0,-4058.0,-2723.0,0.135,0.688,0.428,-0.57
959846,-9122.0,-2638.0,-2283.0,0.136,0.689,0.426,-0.57
959863,-9380.0,-2936.0,-2307.0,0.137,0.69,0.423,-0.571
959880,-9628.0,-2578.0,-2693.0,0.139,0.69,0.42,-0.573
959897,-9082.0,-2980.0,-2175.0,0.142,0.69,0.416,-0.576
959914,-8848.0,-2640.0,-2385.0,0.145,0.689,0.411,-0.579
959931,-8598.0,-2996.0,-2259.0,0.148,0.688,0.407,-0.582
959948,-8466.0,-2218.0,-2169.0,0.151,0.687,0.404,-0.585
959965,-8540.0,-2162.0,-2213.0,0.154,0.685,0.401,-0.588
959982,-8634.0,-1604.0,-2275.0,0.157,0.684,0.398,-0.591
959999,-8516.0,-1808.0,-1905.0,0.16,0.683,0.395,-0.593
960026,-8602.0,-1842.0,-2069.0,0.163,0.682,0.392,-0.595
960043,-8766.0,-1926.0,-1831.0,0.165,0.681,0.39,-0.597
960059,-8834.0,-1654.0,-1707.0,0.167,0.68,0.388,-0.599
960075,-8934.0,-2214.0,-2035.0,0.169,0.679,0.386,-0.601
960091,-9694.0,-2416.0,-2321.0,0.17,0.678,0.386,-0.602
960107,-11608.0,-3258.0,-2583.0,0.171,0.679,0.385,-0.601
960123,-11860.0,-2510.0,-2817.0,0.171,0.68,0.386,-0.599
960150,-12400.0,-3548.0,-3191.0,0.17,0.682,0.387,-0.596
960167,-13544.0,-3276.0,-3037.0,0.168,0.684,0.39,-0.593
960184,-12694.0,-3504.0,-3395.0,0.166,0.686,0.394,-0.589
960201,-12314.0,-3194.0,-2619.0,0.163,0.688,0.398,-0.585
960218,-12098.0,-3430.0,-2707.0,0.161,0.688,0.402,-0.582
960235,-12236.0,-3478.0,-2865.0,0.16,0.687,0.406,-0.581
960252,-11356.0,-3514.0,-2405.0,0.158,0.685,0.41,-0.581
960269,-10590.0,-2974.0,-2665.0,0.156,0.683,0.414,-0.582
960286,-10476.0,-3258.0,-2341.0,0.154,0.679,0.417,-0.584
960303,-9830.0,-2842.0,-2293.0,0.153,0.676,0.42,-0.586
960320,-8470.0,-2946.0,-2807.0,0.153,0.673,0.423,-0.588
960336,-7948.0,-3224.0,-2853.0,0.151,0.671,0.426,-0.589
960353,-8334.0,-2690.0,-2079.0,0.15,0.669,0.428,-0.589
960380,-8200.0,-2296.0,-2441.0,0.149,0.668,0.429,-0.589
960397,-7718.0,-2708.0,-2335.0,0.15,0.668,0.43,-0.589
960414,-7850.0,-2532.0,-1987.0,0.151,0.669,0.43,-0.588
960431,-7986.0,-3044.0,-1869.0,0.152,0.668,0.429,-0.588
960448,-7562.0,-2070.0,-2199.0,0.154,0.668,0.428,-0.589
960465,-7348.0,-2670.0,-1953.0,0.156,0.668,0.427,-0.589
960482,-7424.0,-2716.0,-1921.0,0.158,0.668,0.425,-0.59
960500,-7560.0,-2234.0,-1841.0,0.161,0.667,0.422,-0.592
960517,-7898.0,-1600.0,-1825.0,0.165,0.667,0.418,-0.594
960534,-7314.0,-1812.0,-3359.0,0.168,0.668,0.413,-0.596
960551,-7184.0,-2670.0,-3287.0,0.171,0.67,0.408,-0.596
960568,-7610.0,-2084.0,-2135.0,0.174,0.673,0.401,-0.596
960585,-8374.0,-1512.0,-2169.0,0.18,0.676,0.392,-0.598
960602,-7520.0,-1468.0,-1807.0,0.187,0.677,0.383,-0.6
960619,-5224.0,-778.0,-1697.0,0.198,0.676,0.373,-0.604
960636,-4014.0,250.0,-1367.0,0.21,0.675,0.362,-0.607
960662,-2552.0,1450.0,-677.0,0.222,0.674,0.351,-0.611
960678,-1302.0,2868.0,53.0,0.235,0.672,0.343,-0.612
960694,842.0,2.0,17.0,0.245,0.67,0.341,-0.612
960710,1862.0,530.0,-105.0,0.246,0.671,0.342,-0.611
960727,-3152.0,116.0,-3511.0,0.227,0.678,0.336,-0.613
960744,-1508.0,-5998.0,-3309.0,0.227,0.677,0.338,-0.613
960760,-2548.0,-9114.0,-259.0,0.217,0.681,0.334,-0.615
960786,-5282.0,-2852.0,-377.0,0.206,0.685,0.33,-0.616
960803,-4358.0,2954.0,1987.0,0.2,0.687,0.33,-0.615
960819,534.0,7108.0,1039.0,0.193,0.685,0.34,-0.615
960835,3278.0,-102.0,1755.0,0.19,0.682,0.351,-0.613
960851,2340.0,326.0,981.0,0.185,0.679,0.358,-0.613
960868,-5248.0,104.0,-2179.0,0.18,0.677,0.364,-0.614
960885,-4556.0,1562.0,-1413.0,0.175,0.675,0.375,-0.611
960902,-7656.0,-2694.0,-2349.0,0.167,0.674,0.384,-0.609
960929,-7878.0,526.0,-2747.0,0.162,0.673,0.392,-0.606
960946,-7418.0,-52.0,-1429.0,0.159,0.672,0.4,-0.603
960963,-7968.0,-3678.0,-2057.0,0.156,0.672,0.408,-0.598
960980,-9638.0,-2218.0,-3185.0,0.153,0.673,0.412,-0.595
960996,-9234.0,-2730.0,-2453.0,0.149,0.674,0.418,-0.59
961013,-10360.0,-2784.0,-1055.0,0.147,0.676,0.423,-0.586
961030,-9842.0,-2968.0,-2581.0,0.146,0.677,0.425,-0.583
961047,-9322.0,-3454.0,-2611.0,0.145,0.679,0.426,-0.58
961063,-10010.0,-1960.0,-1645.0,0.145,0.681,0.427,-0.576
961079,-8526.0,-3914.0,-2869.0,0.146,0.684,0.428,-0.572
961106,-9922.0,-2706.0,-2487.0,0.145,0.686,0.429,-0.569
961122,-9980.0,-2904.0,-1967.0,0.145,0.689,0.429,-0.566
961138,-9222.0,-2926.0,-2827.0,0.144,0.69,0.429,-0.565
961155,-9698.0,-3010.0,-2689.0,0.144,0.691,0.429,-0.564
961171,-9364.0,-2658.0,-2465.0,0.144,0.691,0.429,-0.563
961187,-9322.0,-3110.0,-2663.0,0.145,0.691,0.428,-0.563
961203,-8508.0,-3224.0,-2911.0,0.146,0.691,0.427,-0.565
961229,-8884.0,-2892.0,-2301.0,0.147,0.69,0.426,-0.566
961246,-8606.0,-2752.0,-2603.0,0.149,0.689,0.424,-0.568
961262,-8606.0,-2754.0,-2331.0,0.151,0.688,0.422,-0.57
961279,-8370.0,-2830.0,-2123.0,0.153,0.687,0.42,-0.573
961295,-8132.0,-2418.0,-2757.0,0.155,0.686,0.417,-0.576
961311,-8160.0,-2428.0,-2415.0,0.158,0.684,0.415,-0.579
961328,-8620.0,-2322.0,-2071.0,0.16,0.683,0.412,-0.581
961345,-8968.0,-2500.0,-2099.0,0.164,0.682,0.409,-0.584
961371,-8958.0,-2564.0,-2301.0,0.168,0.68,0.406,-0.587
961387,-9384.0,-2478.0,-2487.0,0.17,0.678,0.404,-0.59
961403,-9430.0,-2892.0,-3093.0,0.172,0.677,0.403,-0.591
961419,-11234.0,-2698.0,-2879.0,0.173,0.677,0.402,-0.591
961435,-11998.0,-3432.0,-3147.0,0.174,0.678,0.403,-0.59
961452,-12408.0,-3412.0,-3415.0,0.173,0.678,0.404,-0.588
961469,-13070.0,-3888.0,-3257.0,0.172,0.679,0.407,-0.586
961486,-13348.0,-3888.0,-3443.0,0.17,0.68,0.411,-0.583
961513,-12736.0,-3926.0,-3477.0,0.166,0.681,0.416,-0.58
961530,-12710.0,-3724.0,-3039.0,0.162,0.68,0.422,-0.577
961547,-12342.0,-3864.0,-2773.0,0.159,0.68,0.427,-0.575
961564,-11402.0,-3832.0,-3099.0,0.155,0.678,0.433,-0.573
961581,-11396.0,-2892.0,-2727.0,0.153,0.676,0.438,-0.573
961598,-10182.0,-3678.0,-2665.0,0.151,0.674,0.442,-0.572
961615,-9706.0,-2996.0,-2605.0,0.15,0.672,0.446,-0.572
961632,-9012.0,-3426.0,-2847.0,0.148,0.67,0.448,-0.573
961649,-8832.0,-2436.0,-2587.0,0.147,0.668,0.451,-0.573
961666,-8000.0,-2542.0,-2617.0,0.146,0.667,0.453,-0.573
961683,-8406.0,-3066.0,-2101.0,0.146,0.666,0.454,-0.574
961700,-8290.0,-2644.0,-2099.0,0.146,0.665,0.454,-0.574
961717,-6920.0,-2830.0,-2363.0,0.147,0.665,0.453,-0.576
961734,-7806.0,-2156.0,-1713.0,0.148,0.664,0.451,-0.577
961761,-7426.0,-2766.0,-2279.0,0.15,0.663,0.449,-0.579
961778,-6954.0,-1952.0,-1963.0,0.152,0.663,0.447,-0.581
961795,-5832.0,-2654.0,-2003.0,0.154,0.663,0.444,-0.583
961811,-7064.0,-1934.0,-2123.0,0.156,0.663,0.441,-0.584
961827,-6452.0,-1830.0,-2443.0,0.158,0.664,0.438,-0.585
961843,-6452.0,-2360.0,-1863.0,0.16,0.666,0.434,-0.585
961859,-7178.0,-2402.0,-2217.0,0.163,0.668,0.429,-0.585
961885,-7618.0,-1676.0,-2433.0,0.167,0.671,0.423,-0.585
961901,-7092.0,-1986.0,-2207.0,0.171,0.674,0.417,-0.586
961917,-7068.0,-608.0,-1923.0,0.178,0.675,0.409,-0.588
961933,-6184.0,-1366.0,-1329.0,0.187,0.675,0.4,-0.592
961949,-4868.0,-1442.0,-1181.0,0.196,0.673,0.391,-0.597
961966,-3402.0,-1500.0,-927.0,0.205,0.669,0.383,-0.603
961983,-1768.0,-1212.0,-1249.0,0.212,0.665,0.376,-0.609
962000,-1044.0,-264.0,-1007.0,0.218,0.662,0.37,-0.615
962017,-64.0,-780.0,-609.0,0.221,0.659,0.366,-0.619
962044,430.0,-1018.0,-813.0,0.223,0.657,0.364,-0.621
962060,858.0,-1634.0,-1109.0,0.221,0.657,0.365,-0.621
962076,306.0,-936.0,-1051.0,0.216,0.659,0.367,-0.619
962093,-1186.0,-842.0,-215.0,0.21,0.662,0.372,-0.616
962110,-1182.0,-818.0,3.0,0.202,0.664,0.378,-0.612
962126,-1640.0,-536.0,-253.0,0.194,0.666,0.387,-0.608
962143,-2448.0,-796.0,-1137.0,0.186,0.667,0.396,-0.603
962160,-3914.0,170.0,-791.0,0.178,0.669,0.406,-0.597
962176,-4728.0,-2890.0,-1111.0,0.17,0.67,0.416,-0.591
962203,-5480.0,-1884.0,-2321.0,0.162,0.67,0.425,-0.587
962219,-8022.0,-1042.0,-1931.0,0.153,0.67,0.434,-0.583
962235,-8326.0,-2370.0,-2351.0,0.148,0.669,0.441,-0.58
962252,-8000.0,-4174.0,-2649.0,0.144,0.667,0.447,-0.579
962268,-8594.0,-2878.0,-2507.0,0.138,0.665,0.451,-0.579
962285,-8362.0,-3420.0,-3851.0,0.134,0.664,0.454,-0.579
962302,-9304.0,-2056.0,-2869.0,0.133,0.664,0.457,-0.577
962319,-7904.0,-3746.0,-3069.0,0.132,0.664,0.458,-0.577
962345,-9306.0,-4028.0,-2531.0,0.132,0.664,0.457,-0.577
962362,-9100.0,-2864.0,-2799.0,0.132,0.664,0.457,-0.577
962379,-8288.0,-3692.0,-2641.0,0.134,0.663,0.456,-0.578
962395,-9276.0,-3526.0,-2493.0,0.135,0.664,0.454,-0.579
962412,-8898.0,-3292.0,-2699.0,0.136,0.664,0.451,-0.581
962428,-8710.0,-2724.0,-2467.0,0.137,0.664,0.449,-0.582
962444,-8240.0,-3892.0,-2563.0,0.137,0.665,0.447,-0.583
962461,-9290.0,-2990.0,-1705.0,0.138,0.666,0.444,-0.584
962477,-8404.0,-3492.0,-1909.0,0.139,0.667,0.44,-0.585
962504,-7356.0,-2816.0,-3115.0,0.139,0.67,0.437,-0.584
962520,-8440.0,-3040.0,-1995.0,0.14,0.674,0.434,-0.581
962536,-8508.0,-3102.0,-1851.0,0.139,0.678,0.431,-0.578
962552,-9264.0,-2940.0,-2067.0,0.14,0.681,0.429,-0.576
962568,-9328.0,-3168.0,-1749.0,0.141,0.684,0.426,-0.575
962585,-8982.0,-3436.0,-2147.0,0.142,0.687,0.423,-0.574
962602,-9518.0,-2918.0,-2443.0,0.143,0.689,0.42,-0.574
962628,-9748.0,-2884.0,-2153.0,0.145,0.69,0.416,-0.574
962644,-9722.0,-3440.0,-2141.0,0.147,0.691,0.413,-0.575
962661,-10124.0,-3068.0,-2413.0,0.149,0.691,0.41,-0.577
962677,-10390.0,-3568.0,-2623.0,0.151,0.691,0.407,-0.578
962695,-12114.0,-3566.0,-2857.0,0.153,0.691,0.405,-0.579
962712,-11452.0,-3812.0,-3011.0,0.154,0.691,0.404,-0.58
962729,-12566.0,-3884.0,-3213.0,0.155,0.691,0.404,-0.58
962746,-12636.0,-4128.0,-3267.0,0.156,0.691,0.405,-0.579
962763,-12552.0,-4028.0,-3207.0,0.155,0.69,0.407,-0.578
962779,-11944.0,-3964.0,-3215.0,0.153,0.69,0.41,-0.576
962796,-12014.0,-3698.0,-3329.0,0.152,0.689,0.414,-0.575
962822,-12090.0,-3664.0,-2991.0,0.15,0.688,0.419,-0.573
962838,-11432.0,-3730.0,-2795.0,0.148,0.687,0.423,-0.572
962854,-10940.0,-3394.0,-2959.0,0.147,0.685,0.428,-0.571
962870,-10362.0,-3600.0,-2329.0,0.145,0.684,0.433,-0.57
962886,-9686.0,-3310.0,-2499.0,0.144,0.682,0.437,-0.569
962902,-9300.0,-3148.0,-2439.0,0.143,0.68,0.44,-0.568
962928,-8106.0,-2924.0,-2723.0,0.142,0.679,0.444,-0.567
962945,-8094.0,-2588.0,-2491.0,0.141,0.679,0.447,-0.566
962961,-7936.0,-2706.0,-2363.0,0.141,0.678,0.449,-0.565
962977,-7428.0,-2684.0,-2669.0,0.14,0.678,0.45,-0.564
962994,-8050.0,-2198.0,-2135.0,0.141,0.678,0.451,-0.563
963010,-6880.0,-2722.0,-2355.0,0.142,0.678,0.451,-0.562
963027,-7686.0,-2376.0,-2165.0,0.144,0.678,0.451,-0.562
963044,-7596.0,-1864.0,-2293.0,0.145,0.679,0.449,-0.563
963061,-6550.0,-2472.0,-2277.0,0.148,0.679,0.447,-0.563
963088,-7474.0,-2706.0,-1753.0,0.15,0.679,0.444,-0.565
963104,-7766.0,-1958.0,-2513.0,0.152,0.678,0.441,-0.568
963120,-6546.0,-2160.0,-2571.0,0.155,0.679,0.437,-0.57
963136,-6444.0,-2596.0,-2559.0,0.158,0.679,0.432,-0.572
963152,-7392.0,-2250.0,-2557.0,0.161,0.679,0.426,-0.575
963168,-6840.0,-1852.0,-2099.0,0.164,0.68,0.42,-0.579
963185,-7066.0,-1338.0,-1459.0,0.169,0.679,0.411,-0.584
963211,-6390.0,-1136.0,-1801.0,0.175,0.677,0.401,-0.591
963227,-5166.0,-1058.0,-1275.0,0.183,0.675,0.39,-0.599
963244,-3116.0,-836.0,-1299.0,0.192,0.672,0.379,-0.607
963260,-1796.0,-834.0,-1519.0,0.201,0.669,0.368,-0.613
963277,-958.0,-288.0,-1195.0,0.209,0.668,0.359,-0.618
963293,-154.0,-1344.0,-995.0,0.215,0.667,0.353,-0.62
963309,-64.0,-1316.0,-1553.0,0.217,0.667,0.349,-0.621
963336,-842.0,-1334.0,-909.0,0.216,0.669,0.347,-0.62
963352,-1416.0,-954.0,-307.0,0.212,0.672,0.348,-0.619
963368,-1532.0,-948.0,-249.0,0.208,0.673,0.351,-0.617
963385,-1282.0,-748.0,-495.0,0.201,0.674,0.356,-0.615
963401,-1974.0,-734.0,-761.0,0.193,0.675,0.364,-0.612
963418,-3052.0,-1210.0,-691.0,0.186,0.676,0.373,-0.608
963434,-2936.0,-236.0,-1571.0,0.177,0.677,0.382,-0.604
963451,-4660.0,-1926.0,-1935.0,0.167,0.679,0.392,-0.598
963478,-6654.0,-1686.0,-1603.0,0.159,0.68,0.401,-0.593
963495,-7422.0,-878.0,-2231.0,0.154,0.681,0.409,-0.588
963511,-8290.0,-2500.0,-2393.0,0.148,0.681,0.416,-0.583
963528,-7754.0,-3554.0,-2759.0,0.144,0.682,0.423,-0.579
963545,-9162.0,-2712.0,-1951.0,0.141,0.683,0.428,-0.575
963561,-8622.0,-3208.0,-2705.0,0.138,0.683,0.431,-0.573
963578,-8704.0,-2954.0,-2159.0,0.137,0.684,0.434,-0.57
963594,-8478.0,-2210.0,-2261.0,0.135,0.684,0.437,-0.568
963611,-8114.0,-4090.0,-2347.0,0.134,0.685,0.438,-0.566
963637,-9278.0,-2348.0,-2417.0,0.133,0.685,0.439,-0.566
963653,-7768.0,-2430.0,-2679.0,0.134,0.686,0.439,-0.565
963669,-8550.0,-2618.0,-2177.0,0.134,0.686,0.439,-0.565
963685,-7960.0,-3942.0,-3123.0,0.134,0.686,0.438,-0.564
963701,-8854.0,-2094.0,-2443.0,0.134,0.687,0.438,-0.564
963717,-8318.0,-2638.0,-2315.0,0.134,0.687,0.438,-0.564
963743,-9218.0,-2780.0,-2311.0,0.134,0.687,0.437,-0.564
963760,-8826.0,-2456.0,-2385.0,0.134,0.687,0.436,-0.565
963776,-7544.0,-3022.0,-2553.0,0.134,0.687,0.435,-0.567
963792,-8536.0,-2368.0,-2425.0,0.135,0.687,0.433,-0.568
963808,-8420.0,-2128.0,-2411.0,0.135,0.687,0.431,-0.57
963824,-8516.0,-2962.0,-1735.0,0.137,0.687,0.428,-0.571
963840,-7834.0,-2524.0,-2577.0,0.138,0.687,0.425,-0.573
963866,-8466.0,-2502.0,-1911.0,0.14,0.687,0.422,-0.574
963883,-7920.0,-2644.0,-2211.0,0.142,0.688,0.419,-0.576
963900,-8534.0,-2834.0,-1959.0,0.144,0.688,0.416,-0.577
963917,-8612.0,-2544.0,-1939.0,0.147,0.687,0.413,-0.579
963934,-8740.0,-2798.0,-1849.0,0.149,0.687,0.409,-0.582
963951,-8642.0,-2956.0,-2017.0,0.152,0.686,0.406,-0.584
963968,-9206.0,-3018.0,-1671.0,0.155,0.685,0.403,-0.587
963985,-9080.0,-2998.0,-1821.0,0.158,0.683,0.4,-0.59
964001,-9538.0,-3222.0,-2295.0,0.161,0.682,0.396,-0.593
964018,-12394.0,-3680.0,-2055.0,0.164,0.682,0.392,-0.595
964044,-10908.0,-3788.0,-2891.0,0.166,0.682,0.39,-0.596
964061,-13238.0,-4272.0,-2569.0,0.166,0.682,0.39,-0.596
964077,-14020.0,-4412.0,-2419.0,0.166,0.682,0.391,-0.596
964094,-12718.0,-3926.0,-2957.0,0.163,0.681,0.393,-0.596
964111,-13000.0,-3954.0,-2135.0,0.161,0.679,0.396,-0.597
964128,-12816.0,-3570.0,-2251.0,0.16,0.677,0.399,-0.598
964144,-10486.0,-3850.0,-2783.0,0.158,0.673,0.403,-0.599
964161,-10940.0,-3608.0,-2433.0,0.155,0.67,0.407,-0.6
964178,-11272.0,-3434.0,-2315.0,0.153,0.668,0.412,-0.601
964194,-9696.0,-3050.0,-2579.0,0.151,0.665,0.417,-0.601
964220,-9760.0,-3108.0,-2107.0,0.149,0.663,0.421,-0.601
964236,-10146.0,-3604.0,-1577.0,0.148,0.662,0.424,-0.6
964252,-9060.0,-2848.0,-2019.0,0.147,0.661,0.427,-0.6
964268,-8604.0,-3240.0,-1595.0,0.147,0.659,0.429,-0.6
964284,-8694.0,-3446.0,-1705.0,0.147,0.658,0.431,-0.6
964301,-8084.0,-2320.0,-2275.0,0.147,0.657,0.432,-0.599
964318,-6982.0,-3406.0,-2187.0,0.146,0.657,0.434,-0.599
964344,-8284.0,-2776.0,-1421.0,0.145,0.657,0.435,-0.598
964361,-8472.0,-2080.0,-1925.0,0.146,0.657,0.435,-0.598
964378,-7284.0,-3010.0,-1649.0,0.147,0.658,0.435,-0.597
964394,-7326.0,-2950.0,-1219.0,0.147,0.658,0.434,-0.597
964410,-7616.0,-2842.0,-1767.0,0.148,0.659,0.433,-0.597
964427,-7286.0,-2398.0,-1685.0,0.15,0.66,0.431,-0.597
964444,-7048.0,164.0,-2571.0,0.152,0.661,0.429,-0.597
964461,-7650.0,-2884.0,-1159.0,0.155,0.661,0.425,-0.598
964487,-7500.0,-1792.0,-1733.0,0.157,0.662,0.421,-0.599
964503,-7482.0,-2040.0,-1771.0,0.16,0.664,0.415,-0.601
964519,-6876.0,-2498.0,-1831.0,0.164,0.666,0.409,-0.602
964535,-7462.0,-1478.0,-1459.0,0.169,0.668,0.401,-0.604
964551,-7886.0,-606.0,-1415.0,0.175,0.669,0.392,-0.606
964567,-6022.0,-1498.0,-1273.0,0.183,0.67,0.382,-0.61
964593,-5438.0,-1294.0,-621.0,0.193,0.669,0.371,-0.614
964610,-5146.0,-1594.0,-651.0,0.203,0.667,0.36,-0.619
964626,-4566.0,520.0,385.0,0.215,0.663,0.35,-0.625
964642,-2070.0,230.0,355.0,0.229,0.658,0.341,-0.631
964658,-1472.0,-152.0,261.0,0.243,0.653,0.332,-0.635
964674,-288.0,1102.0,-661.0,0.255,0.65,0.325,-0.638
964691,1042.0,-134.0,-2051.0,0.261,0.649,0.321,-0.638
964717,152.0,-1818.0,-2883.0,0.261,0.65,0.323,-0.636
964734,-204.0,-1972.0,-2745.0,0.255,0.653,0.329,-0.633
964751,-830.0,-2540.0,-621.0,0.243,0.657,0.335,-0.63
964767,-1618.0,-1756.0,-543.0,0.225,0.662,0.34,-0.629
964784,-2880.0,106.0,585.0,0.211,0.666,0.347,-0.625
964800,-3014.0,-2660.0,893.0,0.196,0.669,0.357,-0.622
964817,-2706.0,-3582.0,-149.0,0.182,0.671,0.369,-0.617
964834,-3816.0,-2506.0,-1099.0,0.165,0.674,0.383,-0.61
964851,-4722.0,262.0,-1375.0,0.151,0.676,0.399,-0.6
964867,-9838.0,260.0,93.0,0.142,0.677,0.412,-0.592
964893,-8760.0,-3900.0,-1193.0,0.136,0.677,0.423,-0.587
964909,-8930.0,-3050.0,-1271.0,0.134,0.676,0.43,-0.583
964925,-8806.0,-3818.0,-2411.0,0.131,0.675,0.437,-0.58
964942,-8670.0,-3702.0,-2565.0,0.13,0.675,0.441,-0.577
964959,-9056.0,-2698.0,-2523.0,0.128,0.674,0.444,-0.576
964976,-8260.0,-4590.0,-3079.0,0.127,0.674,0.447,-0.574
964993,-9646.0,-3872.0,-2011.0,0.127,0.674,0.449,-0.573
965010,-8838.0,-3372.0,-2995.0,0.127,0.674,0.45,-0.572
965027,-8628.0,-4590.0,-3053.0,0.127,0.674,0.45,-0.572
965053,-9462.0,-3412.0,-2311.0,0.128,0.674,0.449,-0.573
965069,-9378.0,-4156.0,-2517.0,0.129,0.673,0.448,-0.574
965085,-9186.0,-3768.0,-2423.0,0.131,0.672,0.446,-0.576
965101,-9220.0,-2998.0,-2749.0,0.133,0.671,0.445,-0.578
965117,-8618.0,-3634.0,-2883.0,0.136,0.67,0.442,-0.58
965134,-8544.0,-3472.0,-2709.0,0.137,0.67,0.44,-0.582
965150,-9442.0,-3492.0,-1935.0,0.139,0.669,0.438,-0.585
965177,-8838.0,-3022.0,-2179.0,0.14,0.667,0.435,-0.588
965193,-8434.0,-3030.0,-2235.0,0.143,0.665,0.433,-0.592
965210,-8436.0,-3092.0,-1899.0,0.145,0.663,0.43,-0.595
965227,-8448.0,-3034.0,-1671.0,0.147,0.661,0.427,-0.599
965244,-8026.0,-2782.0,-1813.0,0.15,0.659,0.424,-0.603
965261,-8124.0,-2716.0,-1555.0,0.152,0.657,0.421,-0.606
965277,-7726.0,-3036.0,-1803.0,0.155,0.656,0.419,-0.609
965293,-7884.0,-2980.0,-1823.0,0.157,0.655,0.417,-0.611
965319,-8882.0,-3136.0,-1213.0,0.159,0.654,0.415,-0.613
965335,-9344.0,-3192.0,-1359.0,0.162,0.653,0.413,-0.614
965351,-9192.0,-3536.0,-1695.0,0.164,0.652,0.411,-0.616
965367,-9906.0,-3196.0,-1449.0,0.166,0.651,0.409,-0.617
965383,-10446.0,-3720.0,-1685.0,0.168,0.651,0.407,-0.618
965400,-11120.0,-3936.0,-1991.0,0.169,0.65,0.407,-0.619
965417,-11424.0,-4068.0,-1921.0,0.17,0.65,0.407,-0.619
965434,-11976.0,-4244.0,-2165.0,0.169,0.65,0.408,-0.618
965460,-12310.0,-5170.0,-2575.0,0.167,0.65,0.411,-0.617
965477,-13474.0,-3978.0,-2093.0,0.164,0.651,0.415,-0.614
965494,-12354.0,-4928.0,-2263.0,0.161,0.652,0.419,-0.611
965510,-13054.0,-4552.0,-2029.0,0.157,0.653,0.424,-0.608
965526,-12364.0,-4670.0,-1661.0,0.154,0.653,0.429,-0.605
965543,-11518.0,-3788.0,-1765.0,0.152,0.652,0.433,-0.603
965560,-10024.0,-4242.0,-2039.0,0.15,0.652,0.436,-0.601
965577,-10172.0,-3750.0,-1399.0,0.148,0.652,0.44,-0.6
965594,-9382.0,-3544.0,-1395.0,0.146,0.651,0.442,-0.599
965611,-9252.0,-2990.0,-1405.0,0.145,0.651,0.444,-0.599
965628,-8942.0,-3484.0,-995.0,0.145,0.65,0.444,-0.599
965655,-7232.0,-3676.0,-1517.0,0.145,0.649,0.445,-0.6
965671,-7808.0,-2888.0,-1587.0,0.144,0.649,0.445,-0.601
965687,-7996.0,-2734.0,-1263.0,0.144,0.648,0.444,-0.602
965703,-7562.0,-2478.0,-1625.0,0.146,0.648,0.442,-0.603
965719,-6982.0,-3270.0,-1681.0,0.148,0.648,0.44,-0.604
965735,-7410.0,-2746.0,-1723.0,0.149,0.649,0.438,-0.604
965761,-7002.0,-2604.0,-2187.0,0.151,0.65,0.435,-0.604
965778,-7358.0,-2206.0,-1317.0,0.153,0.652,0.433,-0.604
965795,-7378.0,-3092.0,-1349.0,0.155,0.654,0.429,-0.604
965812,-7792.0,-2170.0,-1455.0,0.159,0.655,0.423,-0.605
965828,-6618.0,-2966.0,-1819.0,0.163,0.656,0.418,-0.607
965844,-7338.0,-602.0,-1931.0,0.166,0.658,0.412,-0.608
965860,-6246.0,-2914.0,-2377.0,0.172,0.661,0.405,-0.609
965877,-7858.0,-1254.0,-1453.0,0.178,0.662,0.395,-0.611
965894,-7646.0,-1056.0,-351.0,0.187,0.662,0.385,-0.615
965911,-5854.0,-344.0,-1103.0,0.199,0.659,0.374,-0.621
965938,-4302.0,-322.0,-719.0,0.213,0.655,0.362,-0.628
965954,-2736.0,-1258.0,-505.0,0.226,0.65,0.351,-0.635
965970,-1416.0,-658.0,-1065.0,0.237,0.647,0.342,-0.639
965986,-724.0,-792.0,-517.0,0.247,0.646,0.335,-0.641
966002,174.0,-1122.0,-641.0,0.253,0.646,0.329,-0.64
966018,394.0,-2814.0,-1093.0,0.254,0.649,0.326,-0.639
966044,-92.0,-3342.0,-805.0,0.249,0.654,0.324,-0.636
966061,-1436.0,-1826.0,-377.0,0.24,0.66,0.325,-0.633
966078,-1562.0,-372.0,677.0,0.229,0.665,0.331,-0.629
966095,-2264.0,-1532.0,1119.0,0.218,0.667,0.34,-0.626
966112,-1856.0,-1264.0,903.0,0.207,0.668,0.352,-0.622
966129,-2778.0,156.0,-301.0,0.195,0.67,0.363,-0.618
966146,-4138.0,-1220.0,-567.0,0.184,0.671,0.376,-0.612
966163,-5590.0,-492.0,-349.0,0.176,0.672,0.388,-0.606
966180,-7654.0,-2158.0,-551.0,0.168,0.672,0.397,-0.602
966197,-8044.0,-2200.0,-1311.0,0.164,0.671,0.405,-0.599
966214,-7240.0,-3778.0,-855.0,0.16,0.67,0.412,-0.596
966231,-8006.0,-3634.0,-2733.0,0.155,0.67,0.418,-0.593
966248,-10028.0,-1756.0,-1477.0,0.153,0.67,0.423,-0.59
966265,-8264.0,-3634.0,-1217.0,0.151,0.671,0.427,-0.588
966292,-9172.0,-3754.0,-2217.0,0.15,0.671,0.428,-0.586
966309,-8974.0,-2940.0,-2379.0,0.149,0.672,0.43,-0.585
966325,-8440.0,-3298.0,-1115.0,0.148,0.672,0.431,-0.584
966341,-9026.0,-3370.0,-1687.0,0.148,0.672,0.432,-0.584
966358,-8066.0,-3164.0,-2751.0,0.148,0.671,0.431,-0.584
966375,-8290.0,-2214.0,-1837.0,0.148,0.671,0.431,-0.584
966392,-7642.0,-3276.0,-2581.0,0.148,0.671,0.43,-0.585
966409,-9118.0,-2554.0,-1831.0,0.148,0.671,0.43,-0.585
966426,-7902.0,-3118.0,-2239.0,0.148,0.671,0.43,-0.586
966443,-8674.0,-2848.0,-2177.0,0.149,0.671,0.428,-0.586
966460,-8634.0,-2594.0,-2389.0,0.149,0.671,0.427,-0.587
966487,-8812.0,-3300.0,-1507.0,0.151,0.671,0.425,-0.588
966503,-8876.0,-2446.0,-2317.0,0.153,0.671,0.423,-0.59
966519,-8790.0,-2914.0,-1955.0,0.155,0.67,0.42,-0.592
966535,-8590.0,-2222.0,-1695.0,0.157,0.67,0.418,-0.593
966551,-8824.0,-3126.0,-1953.0,0.16,0.67,0.415,-0.595
966567,-8574.0,-2260.0,-2343.0,0.163,0.67,0.412,-0.596
966593,-8952.0,-2640.0,-1969.0,0.166,0.671,0.409,-0.596
966609,-9068.0,-2736.0,-2341.0,0.169,0.672,0.407,-0.595
966626,-9458.0,-2880.0,-1733.0,0.172,0.673,0.405,-0.595
966643,-9598.0,-2588.0,-1427.0,0.174,0.674,0.403,-0.594
966660,-9496.0,-2694.0,-1611.0,0.176,0.675,0.401,-0.593
966677,-10218.0,-2832.0,-1309.0,0.178,0.675,0.401,-0.594
966693,-10292.0,-2808.0,-1535.0,0.179,0.675,0.4,-0.594
966710,-10564.0,-3414.0,-1899.0,0.18,0.674,0.401,-0.594
966726,-12112.0,-3804.0,-2049.0,0.179,0.674,0.401,-0.594
966743,-12402.0,-3420.0,-2209.0,0.179,0.673,0.403,-0.594
966769,-11988.0,-4234.0,-2489.0,0.178,0.673,0.405,-0.593
966785,-12918.0,-3830.0,-2747.0,0.176,0.673,0.409,-0.591
966802,-12774.0,-4132.0,-2407.0,0.173,0.673,0.413,-0.589
966819,-12074.0,-3730.0,-2807.0,0.17,0.674,0.417,-0.586
966835,-12398.0,-3680.0,-2529.0,0.167,0.674,0.422,-0.583
966852,-11598.0,-4122.0,-2325.0,0.164,0.674,0.427,-0.58
966868,-10558.0,-3654.0,-2491.0,0.161,0.674,0.432,-0.578
966885,-10198.0,-3412.0,-2205.0,0.158,0.673,0.437,-0.575
966912,-9984.0,-3444.0,-1673.0,0.156,0.673,0.441,-0.574
966929,-9498.0,-2934.0,-1859.0,0.154,0.672,0.444,-0.573
966945,-8072.0,-3406.0,-2339.0,0.154,0.671,0.445,-0.573
966961,-7902.0,-2750.0,-1957.0,0.153,0.67,0.447,-0.572
966977,-7940.0,-2996.0,-2045.0,0.152,0.67,0.448,-0.572
966993,-8200.0,-2544.0,-1933.0,0.153,0.669,0.448,-0.572
967010,-7398.0,-3208.0,-1857.0,0.154,0.67,0.448,-0.572
967026,-7740.0,-2902.0,-1851.0,0.155,0.669,0.446,-0.573
967052,-7086.0,-3094.0,-2693.0,0.156,0.669,0.445,-0.574
967068,-7276.0,-2692.0,-2367.0,0.157,0.67,0.444,-0.574
967084,-7752.0,-2964.0,-1599.0,0.158,0.67,0.442,-0.575
967100,-7990.0,-2844.0,-2023.0,0.161,0.67,0.439,-0.577
967116,-7644.0,-3290.0,-2621.0,0.164,0.67,0.435,-0.579
967142,-6700.0,-2970.0,-2387.0,0.166,0.671,0.43,-0.581
967158,-7770.0,-2384.0,-2105.0,0.168,0.672,0.425,-0.583
967174,-8666.0,-2450.0,-1849.0,0.172,0.672,0.418,-0.586
967190,-7310.0,-2182.0,-2037.0,0.177,0.673,0.41,-0.589
967207,-6620.0,-884.0,-1505.0,0.185,0.673,0.401,-0.593
967223,-6378.0,-1356.0,-1435.0,0.194,0.672,0.391,-0.598
967239,-4954.0,344.0,-1153.0,0.204,0.671,0.38,-0.603
967265,-2462.0,-378.0,-1161.0,0.216,0.668,0.371,-0.608
967282,-1476.0,-1152.0,-971.0,0.226,0.666,0.362,-0.612
967299,-1090.0,-654.0,-705.0,0.234,0.665,0.354,-0.614
967316,-560.0,-1192.0,-619.0,0.24,0.665,0.349,-0.615
967333,-210.0,-1680.0,-599.0,0.242,0.665,0.346,-0.616
967349,-586.0,-1184.0,-981.0,0.242,0.667,0.345,-0.615
967366,-902.0,-1594.0,-589.0,0.238,0.669,0.347,-0.613
967383,-718.0,-1422.0,-347.0,0.232,0.67,0.351,-0.611
967399,-1002.0,-1576.0,-237.0,0.224,0.672,0.356,-0.609
967416,-2230.0,-1784.0,-1177.0,0.213,0.674,0.363,-0.607
967442,-3274.0,-956.0,-625.0,0.201,0.676,0.372,-0.604
967459,-4170.0,280.0,-605.0,0.191,0.676,0.382,-0.6
967476,-4938.0,-640.0,-1265.0,0.183,0.676,0.391,-0.598
967493,-7092.0,-1462.0,-1519.0,0.174,0.676,0.4,-0.594
967510,-7098.0,-2464.0,-1709.0,0.17,0.674,0.407,-0.592
967527,-8044.0,-2782.0,-1925.0,0.163,0.673,0.414,-0.591
967543,-9116.0,-1426.0,-2009.0,0.16,0.671,0.42,-0.59
967560,-9008.0,-2886.0,-1115.0,0.158,0.669,0.424,-0.589
967577,-8040.0,-3556.0,-2249.0,0.157,0.668,0.427,-0.589
967593,-7666.0,-3374.0,-2511.0,0.154,0.667,0.431,-0.588
967619,-8722.0,-2274.0,-1375.0,0.152,0.667,0.434,-0.586
967635,-9452.0,-3056.0,-1367.0,0.15,0.666,0.437,-0.585
967651,-7740.0,-3292.0,-2387.0,0.149,0.666,0.438,-0.585
967667,-7468.0,-3556.0,-2505.0,0.147,0.666,0.44,-0.584
967683,-9390.0,-2408.0,-2261.0,0.144,0.667,0.443,-0.581
967699,-9688.0,-3742.0,-1871.0,0.144,0.668,0.445,-0.579
967726,-8750.0,-4204.0,-2387.0,0.143,0.668,0.445,-0.579
967743,-9104.0,-3304.0,-2429.0,0.143,0.67,0.445,-0.578
967760,-8492.0,-3742.0,-2211.0,0.143,0.671,0.444,-0.577
967777,-9162.0,-3682.0,-1839.0,0.143,0.671,0.443,-0.577
967793,-8260.0,-3086.0,-2197.0,0.144,0.671,0.442,-0.578
967810,-8102.0,-2892.0,-2065.0,0.146,0.671,0.44,-0.579
967826,-7692.0,-3382.0,-2449.0,0.146,0.671,0.439,-0.58
967843,-7832.0,-2632.0,-2039.0,0.147,0.671,0.438,-0.58
967859,-7918.0,-2768.0,-1991.0,0.148,0.671,0.436,-0.581
967876,-8232.0,-2656.0,-1981.0,0.15,0.671,0.434,-0.582
967903,-8192.0,-2548.0,-1569.0,0.152,0.671,0.431,-0.584
967919,-8068.0,-2946.0,-1459.0,0.154,0.671,0.429,-0.585
967935,-8222.0,-3230.0,-1253.0,0.157,0.67,0.426,-0.588
967951,-7724.0,-3470.0,-1469.0,0.159,0.668,0.424,-0.591
967967,-8560.0,-2994.0,-1199.0,0.16,0.667,0.422,-0.593
967983,-8764.0,-2708.0,-1453.0,0.161,0.665,0.42,-0.596
968000,-9346.0,-3828.0,-1403.0,0.164,0.664,0.417,-0.599
968026,-10036.0,-3244.0,-1653.0,0.166,0.663,0.415,-0.601
968043,-10338.0,-4438.0,-1871.0,0.167,0.662,0.413,-0.602
968060,-11676.0,-4180.0,-1687.0,0.169,0.662,0.412,-0.603
968077,-12538.0,-4702.0,-1857.0,0.169,0.662,0.412,-0.603
968094,-12462.0,-4484.0,-2181.0,0.17,0.662,0.413,-0.602
968111,-12508.0,-5382.0,-2497.0,0.169,0.663,0.414,-0.6
968128,-13632.0,-5068.0,-2337.0,0.167,0.663,0.418,-0.598
968145,-12628.0,-4852.0,-2233.0,0.165,0.664,0.421,-0.595
968162,-13238.0,-4720.0,-1921.0,0.162,0.664,0.425,-0.593
968179,-12582.0,-4662.0,-2051.0,0.16,0.663,0.429,-0.592
968196,-11688.0,-4050.0,-1953.0,0.158,0.662,0.433,-0.591
968213,-10250.0,-4088.0,-2199.0,0.156,0.661,0.436,-0.59
968230,-10380.0,-3890.0,-1973.0,0.154,0.66,0.439,-0.589
968257,-9910.0,-2518.0,-2441.0,0.153,0.659,0.442,-0.589
968274,-8864.0,-3378.0,-1879.0,0.153,0.659,0.443,-0.588
968290,-7704.0,-3532.0,-2361.0,0.152,0.659,0.445,-0.588
968306,-8346.0,-3080.0,-1913.0,0.151,0.659,0.446,-0.587
968322,-8152.0,-2408.0,-1875.0,0.151,0.659,0.446,-0.586
968338,-7810.0,-2772.0,-1291.0,0.152,0.66,0.445,-0.586
968364,-7082.0,-2752.0,-1855.0,0.154,0.66,0.442,-0.587
968381,-6972.0,-2788.0,-1823.0,0.157,0.661,0.439,-0.589
968398,-7112.0,-2234.0,-1861.0,0.159,0.661,0.436,-0.589
968415,-6294.0,-2408.0,-1903.0,0.162,0.662,0.433,-0.59
968432,-7354.0,-2664.0,-1441.0,0.165,0.663,0.43,-0.591
968449,-7446.0,-2346.0,-2143.0,0.169,0.664,0.426,-0.591
968466,-6932.0,-1668.0,-2141.0,0.173,0.667,0.421,-0.59
968483,-6600.0,-2450.0,-1941.0,0.177,0.669,0.417,-0.589
968499,-8642.0,-1056.0,-2079.0,0.181,0.672,0.411,-0.589
968516,-7284.0,-1364.0,-2221.0,0.187,0.676,0.404,-0.587
968533,-6160.0,-822.0,-2341.0,0.194,0.68,0.397,-0.585
968549,-7146.0,-1680.0,-1733.0,0.201,0.685,0.387,-0.583
968566,-6478.0,-1484.0,-373.0,0.208,0.688,0.376,-0.585
968593,-5104.0,-1358.0,-371.0,0.216,0.689,0.365,-0.588
968610,-4300.0,-844.0,-573.0,0.224,0.688,0.354,-0.593
968627,-3120.0,-340.0,283.0,0.233,0.685,0.344,-0.598
968644,-1188.0,-720.0,-661.0,0.241,0.682,0.335,-0.603
968661,-270.0,-1442.0,-1399.0,0.248,0.681,0.329,-0.606
968678,430.0,-2832.0,-1505.0,0.25,0.681,0.325,-0.607
968695,-600.0,-1198.0,-377.0,0.248,0.683,0.323,-0.606
968712,-852.0,-1466.0,-373.0,0.243,0.685,0.325,-0.605
968729,-1196.0,-1822.0,-65.0,0.237,0.686,0.33,-0.604
968746,-2496.0,-1198.0,77.0,0.228,0.687,0.337,-0.602
968763,-3056.0,-848.0,133.0,0.22,0.686,0.347,-0.6
968780,-2738.0,-986.0,-221.0,0.211,0.685,0.358,-0.598
968797,-3708.0,-386.0,-693.0,0.202,0.685,0.368,-0.595
968814,-4014.0,-308.0,-1173.0,0.193,0.686,0.378,-0.591
968841,-6046.0,-1430.0,-959.0,0.185,0.686,0.388,-0.587
968858,-6888.0,-804.0,-1081.0,0.177,0.687,0.397,-0.583
968875,-6968.0,-1490.0,-1643.0,0.172,0.686,0.405,-0.579
968891,-8102.0,-1176.0,-2141.0,0.166,0.686,0.412,-0.576
968908,-7234.0,-3352.0,-2569.0,0.162,0.686,0.419,-0.572
968925,-9276.0,-2246.0,-1001.0,0.158,0.686,0.425,-0.57
968942,-8784.0,-2880.0,-2337.0,0.156,0.684,0.428,-0.569
968959,-8856.0,-2868.0,-2813.0,0.155,0.682,0.431,-0.569
968976,-8340.0,-2612.0,-2183.0,0.154,0.681,0.435,-0.569
968992,-8078.0,-4080.0,-2591.0,0.153,0.68,0.437,-0.569
969009,-9544.0,-2614.0,-2219.0,0.152,0.678,0.438,-0.57
969036,-8364.0,-3502.0,-2755.0,0.152,0.677,0.438,-0.571
969053,-8518.0,-2920.0,-2351.0,0.153,0.676,0.438,-0.573
969069,-8372.0,-3410.0,-2681.0,0.154,0.675,0.437,-0.574
969085,-9430.0,-3050.0,-2449.0,0.154,0.674,0.436,-0.576
969101,-8004.0,-3522.0,-2803.0,0.154,0.674,0.436,-0.576
969117,-9016.0,-2794.0,-2161.0,0.154,0.674,0.435,-0.577
969133,-9388.0,-3410.0,-2163.0,0.155,0.674,0.434,-0.578
969159,-8980.0,-3176.0,-1909.0,0.156,0.674,0.431,-0.579
969176,-8724.0,-2860.0,-2327.0,0.157,0.674,0.429,-0.581
969193,-8774.0,-3046.0,-2051.0,0.158,0.673,0.427,-0.583
969209,-9084.0,-2600.0,-1777.0,0.159,0.673,0.424,-0.585
969225,-9166.0,-2866.0,-1673.0,0.161,0.672,0.421,-0.587
969242,-9000.0,-3098.0,-1535.0,0.164,0.671,0.419,-0.59
969259,-8894.0,-2854.0,-1499.0,0.166,0.67,0.415,-0.593
969276,-9000.0,-2772.0,-1595.0,0.168,0.668,0.412,-0.596
969293,-9134.0,-3080.0,-1443.0,0.171,0.667,0.409,-0.599
969319,-9010.0,-3350.0,-1651.0,0.173,0.666,0.406,-0.601
969335,-10092.0,-3320.0,-1191.0,0.175,0.666,0.404,-0.603
969351,-10644.0,-3508.0,-1249.0,0.176,0.665,0.402,-0.604
969367,-11786.0,-3854.0,-1583.0,0.178,0.665,0.4,-0.605
969383,-11796.0,-4674.0,-1743.0,0.179,0.665,0.4,-0.605
969399,-12250.0,-4220.0,-1689.0,0.178,0.665,0.401,-0.604
969416,-12944.0,-4498.0,-1841.0,0.177,0.666,0.403,-0.602
969442,-12912.0,-4346.0,-1581.0,0.176,0.666,0.406,-0.6
969459,-11790.0,-4236.0,-1579.0,0.174,0.667,0.409,-0.598
969476,-11260.0,-4680.0,-1953.0,0.171,0.667,0.413,-0.596
969492,-11176.0,-4060.0,-1743.0,0.167,0.668,0.418,-0.593
969509,-10814.0,-3472.0,-1521.0,0.164,0.668,0.423,-0.59
969526,-10574.0,-3270.0,-1561.0,0.162,0.668,0.428,-0.587
969542,-10214.0,-3488.0,-1833.0,0.161,0.669,0.431,-0.584
969559,-8360.0,-3932.0,-2393.0,0.158,0.669,0.435,-0.581
969576,-9018.0,-2920.0,-2109.0,0.156,0.67,0.439,-0.578
969593,-9266.0,-2974.0,-2105.0,0.155,0.671,0.441,-0.576
969619,-8982.0,-2784.0,-1765.0,0.154,0.671,0.443,-0.574
969635,-8776.0,-2324.0,-1655.0,0.156,0.671,0.443,-0.574
969651,-7248.0,-4512.0,-2565.0,0.156,0.67,0.444,-0.575
969667,-8956.0,-2100.0,-2191.0,0.157,0.668,0.443,-0.576
969683,-8306.0,-2910.0,-1587.0,0.159,0.666,0.441,-0.58
969699,-8634.0,-2064.0,-1677.0,0.162,0.664,0.439,-0.584
969726,-8096.0,-2578.0,-1555.0,0.166,0.661,0.435,-0.588
969742,-6022.0,-2516.0,-3071.0,0.17,0.658,0.432,-0.593
969759,-6466.0,-3176.0,-2349.0,0.171,0.657,0.431,-0.594
969776,-7810.0,-1078.0,-1603.0,0.173,0.657,0.429,-0.595
969792,-7474.0,-2400.0,-1985.0,0.176,0.657,0.427,-0.595
969808,-6842.0,-2866.0,-2641.0,0.179,0.659,0.424,-0.595
969825,-7602.0,-2308.0,-1401.0,0.182,0.662,0.42,-0.594
969841,-7434.0,-2990.0,-1743.0,0.185,0.665,0.417,-0.592
969868,-7650.0,-2438.0,-1737.0,0.187,0.668,0.412,-0.591
969884,-6932.0,-1656.0,-1327.0,0.19,0.672,0.405,-0.59
969901,-6974.0,-694.0,-1097.0,0.196,0.674,0.397,-0.591
969917,-6168.0,-420.0,-755.0,0.205,0.676,0.388,-0.592
969933,-3872.0,1394.0,-501.0,0.219,0.676,0.378,-0.593
969949,-2306.0,470.0,23.0,0.236,0.675,0.369,-0.593
969965,-1316.0,4308.0,-201.0,0.256,0.674,0.364,-0.59
969982,1318.0,498.0,-383.0,0.274,0.673,0.364,-0.583
970009,776.0,-2974.0,-221.0,0.282,0.673,0.368,-0.576
970025,-1692.0,-3278.0,-2837.0,0.279,0.676,0.372,-0.572
970042,-1864.0,-6298.0,-2539.0,0.273,0.679,0.375,-0.569
970059,-4632.0,-4418.0,-2725.0,0.253,0.686,0.37,-0.573
970076,-3554.0,-6518.0,295.0,0.239,0.69,0.368,-0.576
970093,-3538.0,-4330.0,811.0,0.222,0.693,0.366,-0.579
970109,-1738.0,5270.0,1229.0,0.207,0.695,0.374,-0.579
970125,-72.0,2872.0,1143.0,0.194,0.692,0.389,-0.576
970151,-2462.0,-624.0,799.0,0.184,0.69,0.4,-0.575
970167,-5642.0,-2776.0,-1985.0,0.173,0.687,0.409,-0.575
970183,-4626.0,-1694.0,-1207.0,0.161,0.686,0.419,-0.573
970199,-4290.0,-134.0,-1221.0,0.153,0.684,0.429,-0.57
970215,-8298.0,-2866.0,-2555.0,0.147,0.681,0.439,-0.567
970231,-8688.0,-1018.0,-3433.0,0.143,0.679,0.449,-0.563
970248,-7446.0,-3720.0,-657.0,0.142,0.678,0.456,-0.559
970275,-9308.0,-5138.0,-2997.0,0.139,0.677,0.459,-0.558
970291,-9768.0,-3854.0,-3765.0,0.138,0.677,0.461,-0.557
970308,-8910.0,-3772.0,-1681.0,0.139,0.677,0.463,-0.554
970324,-9068.0,-5026.0,-2773.0,0.14,0.678,0.464,-0.553
970340,-10624.0,-3440.0,-3119.0,0.141,0.677,0.463,-0.554
970356,-9426.0,-3386.0,-2609.0,0.144,0.677,0.462,-0.555
970372,-7970.0,-3848.0,-3537.0,0.146,0.677,0.46,-0.556
970399,-9060.0,-3020.0,-2909.0,0.148,0.677,0.457,-0.557
970415,-8988.0,-3370.0,-2643.0,0.15,0.678,0.455,-0.558
970432,-8628.0,-2366.0,-2959.0,0.152,0.678,0.452,-0.558
970449,-8868.0,-2658.0,-2705.0,0.154,0.679,0.45,-0.56
970465,-9524.0,-3302.0,-2171.0,0.156,0.678,0.448,-0.561
970482,-8640.0,-2694.0,-3293.0,0.157,0.677,0.446,-0.563
970498,-9154.0,-2588.0,-2595.0,0.159,0.676,0.444,-0.566
970515,-9360.0,-2018.0,-2263.0,0.161,0.675,0.442,-0.569
970531,-8414.0,-2990.0,-2691.0,0.163,0.673,0.44,-0.572
970558,-8568.0,-2274.0,-2365.0,0.164,0.671,0.438,-0.575
970575,-8828.0,-2626.0,-2123.0,0.165,0.669,0.437,-0.578
970591,-8696.0,-2422.0,-2269.0,0.166,0.668,0.436,-0.58
970608,-8758.0,-2700.0,-1847.0,0.166,0.666,0.435,-0.583
970625,-8432.0,-3612.0,-2057.0,0.166,0.664,0.435,-0.585
970642,-8870.0,-2572.0,-2193.0,0.166,0.664,0.435,-0.586
970659,-8940.0,-3676.0,-1455.0,0.166,0.663,0.434,-0.587
970676,-9742.0,-3242.0,-1635.0,0.166,0.662,0.434,-0.588
970692,-9534.0,-4238.0,-2079.0,0.166,0.662,0.434,-0.588
970709,-10460.0,-3862.0,-1773.0,0.166,0.662,0.435,-0.587
970726,-10574.0,-4640.0,-2101.0,0.166,0.663,0.435,-0.586
970753,-11210.0,-4522.0,-2131.0,0.166,0.663,0.436,-0.585
970769,-10930.0,-5438.0,-1993.0,0.165,0.664,0.438,-0.583
970786,-11644.0,-4772.0,-1927.0,0.164,0.665,0.441,-0.581
970802,-10798.0,-4618.0,-2291.0,0.162,0.665,0.443,-0.579
970818,-11096.0,-4446.0,-2211.0,0.161,0.666,0.447,-0.576
970834,-10068.0,-5414.0,-2685.0,0.159,0.666,0.45,-0.573
970850,-10838.0,-4038.0,-2541.0,0.156,0.667,0.454,-0.569
970876,-10604.0,-4278.0,-2181.0,0.154,0.668,0.458,-0.566
970893,-10584.0,-3906.0,-2271.0,0.153,0.668,0.462,-0.563
970910,-9548.0,-4434.0,-2597.0,0.152,0.668,0.465,-0.561
970927,-9168.0,-3912.0,-2501.0,0.151,0.667,0.467,-0.56
970944,-9276.0,-3578.0,-2635.0,0.15,0.667,0.469,-0.559
970962,-8654.0,-3358.0,-3119.0,0.15,0.667,0.471,-0.557
970979,-7798.0,-3846.0,-3151.0,0.15,0.668,0.473,-0.554
970996,-8308.0,-3358.0,-2891.0,0.149,0.67,0.474,-0.551
971013,-8130.0,-2812.0,-2849.0,0.149,0.673,0.474,-0.548
971030,-7694.0,-3344.0,-2545.0,0.149,0.675,0.474,-0.546
971047,-7462.0,-2544.0,-2589.0,0.15,0.677,0.473,-0.544
971064,-7128.0,-2842.0,-2187.0,0.152,0.679,0.471,-0.543
971081,-7032.0,-2670.0,-2275.0,0.153,0.68,0.47,-0.542
971098,-6664.0,-2294.0,-2309.0,0.155,0.681,0.468,-0.542
971115,-6524.0,-3044.0,-1825.0,0.156,0.681,0.466,-0.542
971141,-7380.0,-2776.0,-2239.0,0.158,0.682,0.463,-0.544
971158,-7500.0,-1754.0,-2663.0,0.159,0.682,0.459,-0.547
971174,-5688.0,-3298.0,-2447.0,0.162,0.683,0.456,-0.548
971191,-7878.0,-2416.0,-1597.0,0.164,0.683,0.451,-0.551
971207,-8254.0,-2804.0,-2497.0,0.168,0.683,0.444,-0.556
971223,-7024.0,-978.0,-2175.0,0.172,0.683,0.437,-0.56
971239,-6356.0,-2120.0,-1633.0,0.179,0.682,0.429,-0.565
971266,-7156.0,-1642.0,-1527.0,0.185,0.68,0.42,-0.571
971282,-5796.0,-2082.0,-957.0,0.193,0.678,0.41,-0.579
971298,-4606.0,-440.0,-1113.0,0.201,0.675,0.4,-0.587
971314,-4286.0,-1582.0,-281.0,0.21,0.67,0.39,-0.595
971330,-2926.0,-2372.0,119.0,0.216,0.666,0.381,-0.604
971356,-1096.0,-202.0,-823.0,0.221,0.662,0.374,-0.611
971372,900.0,-426.0,-2233.0,0.223,0.66,0.368,-0.616
971388,1490.0,-674.0,-2079.0,0.22,0.663,0.365,-0.616
971405,600.0,34.0,-1073.0,0.215,0.668,0.365,-0.612
971422,-1098.0,-1068.0,87.0,0.208,0.672,0.369,-0.607
971439,-1836.0,-1864.0,611.0,0.201,0.676,0.376,-0.601
971455,-2132.0,-1798.0,501.0,0.191,0.678,0.384,-0.597
971471,-2910.0,-482.0,-47.0,0.182,0.679,0.394,-0.592
971488,-3010.0,-86.0,-781.0,0.175,0.68,0.404,-0.587
971505,-4070.0,-1262.0,-845.0,0.169,0.68,0.413,-0.582
971531,-4784.0,-1738.0,-1549.0,0.163,0.679,0.422,-0.578
971548,-6660.0,-2212.0,-1113.0,0.158,0.678,0.431,-0.573
971564,-5478.0,-3628.0,-2515.0,0.154,0.677,0.439,-0.57
971581,-7736.0,-1962.0,-1873.0,0.15,0.676,0.446,-0.567
971598,-7790.0,-3560.0,-2503.0,0.147,0.675,0.453,-0.564
971614,-8862.0,-2568.0,-2117.0,0.145,0.674,0.457,-0.562
971631,-7482.0,-3872.0,-3707.0,0.143,0.673,0.462,-0.559
971648,-8712.0,-3998.0,-2317.0,0.142,0.673,0.467,-0.556
971664,-9542.0,-3940.0,-1991.0,0.14,0.673,0.471,-0.553
971691,-9884.0,-3854.0,-2873.0,0.14,0.673,0.472,-0.551
971708,-8276.0,-3786.0,-2925.0,0.14,0.674,0.474,-0.549
971725,-8564.0,-3988.0,-2923.0,0.139,0.675,0.474,-0.547
971742,-9108.0,-4126.0,-3409.0,0.138,0.677,0.475,-0.545
971759,-9810.0,-3700.0,-2629.0,0.138,0.678,0.476,-0.544
971776,-8984.0,-4776.0,-2689.0,0.138,0.679,0.475,-0.543
971793,-9748.0,-3702.0,-3069.0,0.139,0.68,0.473,-0.543
971810,-9296.0,-3370.0,-3085.0,0.139,0.681,0.472,-0.542
971827,-8406.0,-3764.0,-2751.0,0.14,0.683,0.47,-0.542
971844,-8848.0,-3652.0,-2643.0,0.141,0.684,0.468,-0.541
971861,-8236.0,-3408.0,-3235.0,0.142,0.685,0.467,-0.541
971878,-8332.0,-3398.0,-2395.0,0.142,0.686,0.467,-0.54
971895,-8120.0,-3984.0,-3223.0,0.142,0.686,0.466,-0.54
971912,-8820.0,-2996.0,-2887.0,0.142,0.687,0.466,-0.539
971939,-8666.0,-3578.0,-2529.0,0.143,0.688,0.465,-0.539
971956,-8714.0,-3438.0,-2961.0,0.145,0.688,0.463,-0.539
971973,-8354.0,-3372.0,-2677.0,0.147,0.688,0.461,-0.541
971990,-8072.0,-3412.0,-2235.0,0.148,0.688,0.458,-0.543
972007,-7736.0,-3424.0,-2661.0,0.15,0.686,0.456,-0.546
972023,-7700.0,-2852.0,-2503.0,0.152,0.685,0.454,-0.549
972040,-7460.0,-3088.0,-2301.0,0.154,0.683,0.452,-0.552
972057,-7596.0,-2852.0,-2433.0,0.155,0.682,0.45,-0.555
972074,-7570.0,-2614.0,-2399.0,0.158,0.681,0.448,-0.558
972091,-7490.0,-3048.0,-2189.0,0.16,0.68,0.446,-0.56
972108,-7832.0,-2870.0,-2107.0,0.162,0.679,0.444,-0.561
972125,-7466.0,-3008.0,-2063.0,0.164,0.679,0.442,-0.563
972142,-7732.0,-2698.0,-1963.0,0.166,0.678,0.44,-0.564
972169,-7688.0,-2698.0,-2083.0,0.168,0.678,0.438,-0.565
972186,-8200.0,-2740.0,-2039.0,0.17,0.679,0.436,-0.566
972203,-8696.0,-3416.0,-2221.0,0.172,0.68,0.433,-0.566
972219,-9190.0,-2858.0,-2679.0,0.174,0.681,0.432,-0.565
972236,-10294.0,-3920.0,-2331.0,0.174,0.682,0.433,-0.564
972252,-11378.0,-3468.0,-2477.0,0.174,0.682,0.434,-0.562
972268,-10644.0,-3886.0,-3267.0,0.174,0.684,0.435,-0.559
972284,-10362.0,-3782.0,-2937.0,0.173,0.685,0.438,-0.556
972301,-10288.0,-4170.0,-2927.0,0.171,0.686,0.441,-0.553
972328,-10502.0,-3842.0,-3377.0,0.168,0.688,0.444,-0.549
972345,-9772.0,-3148.0,-3101.0,0.165,0.688,0.449,-0.545
972362,-10342.0,-3836.0,-2813.0,0.163,0.688,0.454,-0.542
972379,-10578.0,-3516.0,-3263.0,0.161,0.688,0.458,-0.539
972396,-9864.0,-3474.0,-2885.0,0.16,0.686,0.463,-0.538
972413,-9874.0,-3580.0,-2679.0,0.158,0.684,0.467,-0.537
972430,-9396.0,-3596.0,-2617.0,0.157,0.682,0.471,-0.538
972447,-8680.0,-3496.0,-2347.0,0.156,0.679,0.474,-0.538
972463,-8756.0,-2942.0,-2403.0,0.156,0.676,0.477,-0.54
972480,-7220.0,-3326.0,-2589.0,0.155,0.673,0.478,-0.542
972497,-7164.0,-3132.0,-2275.0,0.155,0.671,0.48,-0.543
972514,-6744.0,-3292.0,-2389.0,0.154,0.669,0.481,-0.545
972531,-6854.0,-2540.0,-2451.0,0.153,0.668,0.482,-0.545
972557,-6988.0,-2266.0,-2123.0,0.153,0.668,0.483,-0.545
972573,-6334.0,-2880.0,-1973.0,0.154,0.668,0.483,-0.545
972589,-6678.0,-3076.0,-2299.0,0.154,0.669,0.482,-0.544
972606,-6768.0,-2394.0,-2283.0,0.155,0.67,0.481,-0.543
972622,-6292.0,-2836.0,-2371.0,0.156,0.671,0.481,-0.542
972638,-6798.0,-3148.0,-2485.0,0.157,0.673,0.48,-0.54
972655,-7860.0,-2620.0,-2235.0,0.158,0.674,0.48,-0.538
972682,-7084.0,-3070.0,-2267.0,0.159,0.676,0.479,-0.537
972698,-7290.0,-2918.0,-3037.0,0.16,0.677,0.478,-0.536
972714,-6848.0,-2972.0,-2715.0,0.161,0.679,0.476,-0.535
972730,-7492.0,-3332.0,-2029.0,0.161,0.681,0.475,-0.533
972747,-7714.0,-3048.0,-2463.0,0.162,0.682,0.474,-0.533
972763,-7762.0,-2162.0,-2371.0,0.164,0.683,0.471,-0.533
972780,-7192.0,-3054.0,-2307.0,0.166,0.684,0.469,-0.534
972797,-7438.0,-2900.0,-2465.0,0.168,0.684,0.466,-0.536
972824,-7552.0,-2868.0,-2255.0,0.17,0.683,0.462,-0.539
972841,-7860.0,-1860.0,-2511.0,0.172,0.683,0.458,-0.542
972858,-6920.0,-2518.0,-2797.0,0.175,0.683,0.454,-0.544
972875,-6768.0,-2810.0,-2821.0,0.177,0.684,0.45,-0.546
972892,-8004.0,-3312.0,-2203.0,0.179,0.685,0.446,-0.548
972909,-7384.0,-2308.0,-2095.0,0.181,0.685,0.441,-0.552
972926,-7360.0,-1304.0,-2263.0,0.182,0.685,0.436,-0.555
972943,-7446.0,-2560.0,-2019.0,0.185,0.685,0.43,-0.558
972960,-7124.0,-2452.0,-2307.0,0.186,0.686,0.423,-0.562
972977,-7604.0,-316.0,-1361.0,0.189,0.686,0.416,-0.566
972994,-6422.0,-1374.0,-1401.0,0.194,0.686,0.407,-0.571
973011,-4990.0,-1576.0,-2267.0,0.201,0.685,0.399,-0.576
973028,-4654.0,438.0,-1287.0,0.207,0.685,0.392,-0.578
973045,-3880.0,-2136.0,-777.0,0.215,0.684,0.386,-0.58
973062,-4230.0,-190.0,-833.0,0.221,0.683,0.38,-0.583
973089,-3412.0,-2058.0,-1011.0,0.228,0.682,0.377,-0.584
973106,-3510.0,-2170.0,-1073.0,0.229,0.682,0.376,-0.584
973123,-4718.0,-330.0,-689.0,0.23,0.682,0.375,-0.584
973140,-4792.0,-2200.0,-587.0,0.23,0.682,0.377,-0.583
973157,-5230.0,-3584.0,-1507.0,0.227,0.682,0.379,-0.582
973174,-7252.0,498.0,-1073.0,0.222,0.684,0.383,-0.58
973191,-7510.0,-2046.0,-763.0,0.219,0.684,0.387,-0.579
973208,-8966.0,-1874.0,-1527.0,0.214,0.685,0.39,-0.577
973225,-9710.0,-660.0,-1461.0,0.211,0.685,0.393,-0.576
973242,-9614.0,-2380.0,-1209.0,0.209,0.685,0.395,-0.575
973259,-9788.0,-1860.0,-1651.0,0.208,0.685,0.397,-0.574
973276,-8808.0,-3068.0,-1645.0,0.206,0.685,0.398,-0.574
973293,-9254.0,-1354.0,-1239.0,0.204,0.685,0.4,-0.574
973310,-8414.0,-1720.0,-1327.0,0.204,0.685,0.4,-0.573
973337,-7994.0,-1840.0,-1143.0,0.204,0.686,0.4,-0.573
973354,-7272.0,-1962.0,-1363.0,0.204,0.686,0.401,-0.572
973371,-6814.0,-1916.0,-1391.0,0.203,0.687,0.401,-0.57
973388,-6688.0,-2422.0,-1079.0,0.201,0.689,0.403,-0.568
973404,-7098.0,-1526.0,-1083.0,0.199,0.69,0.404,-0.566
973421,-7028.0,-1790.0,-1259.0,0.196,0.692,0.406,-0.564
973438,-7350.0,-1842.0,-1101.0,0.194,0.694,0.407,-0.562
973455,-7658.0,-1802.0,-1327.0,0.191,0.695,0.409,-0.559
973472,-7894.0,-1804.0,-1373.0,0.189,0.697,0.41,-0.557
973488,-7930.0,-2066.0,-1337.0,0.187,0.698,0.412,-0.556
973514,-7868.0,-2314.0,-1883.0,0.185,0.699,0.413,-0.554
973530,-7994.0,-1844.0,-1815.0,0.182,0.7,0.415,-0.552
973546,-7958.0,-2206.0,-1733.0,0.18,0.701,0.417,-0.55
973563,-7992.0,-2036.0,-1989.0,0.178,0.702,0.418,-0.548
973580,-7310.0,-2596.0,-2113.0,0.175,0.704,0.42,-0.546
973596,-7452.0,-2158.0,-2259.0,0.172,0.706,0.421,-0.543
973613,-7440.0,-2166.0,-2443.0,0.169,0.709,0.423,-0.539
973630,-7160.0,-2412.0,-2391.0,0.166,0.711,0.425,-0.534
973647,-7478.0,-2682.0,-2503.0,0.163,0.714,0.427,-0.53
973664,-7686.0,-2020.0,-2509.0,0.161,0.718,0.429,-0.525
973691,-7306.0,-2592.0,-2739.0,0.159,0.721,0.43,-0.52
973708,-7210.0,-2712.0,-2741.0,0.158,0.724,0.43,-0.516
973725,-6718.0,-2590.0,-2969.0,0.156,0.726,0.432,-0.512
973742,-6782.0,-2918.0,-3083.0,0.154,0.729,0.433,-0.507
973759,-6992.0,-2330.0,-3109.0,0.151,0.731,0.435,-0.503
973776,-6800.0,-2276.0,-3213.0,0.148,0.734,0.436,-0.499
973793,-6924.0,-2024.0,-3403.0,0.146,0.736,0.438,-0.496
973810,-7030.0,-2122.0,-3335.0,0.143,0.738,0.439,-0.492
973827,-6976.0,-2302.0,-3543.0,0.141,0.74,0.44,-0.488
973844,-6674.0,-2460.0,-3841.0,0.138,0.742,0.442,-0.485
973861,-6982.0,-1968.0,-3637.0,0.135,0.744,0.444,-0.481
973878,-6872.0,-2062.0,-3775.0,0.133,0.745,0.445,-0.478
973895,-6942.0,-2432.0,-3901.0,0.131,0.747,0.447,-0.475
973912,-6696.0,-2432.0,-3817.0,0.129,0.748,0.448,-0.472
973939,-6722.0,-2348.0,-4045.0,0.127,0.749,0.45,-0.469
973956,-6790.0,-2058.0,-4141.0,0.125,0.75,0.452,-0.466
973973,-6700.0,-2654.0,-4011.0,0.123,0.751,0.454,-0.463
973990,-6800.0,-2324.0,-4281.0,0.121,0.753,0.455,-0.46
974007,-6778.0,-2476.0,-4251.0,0.119,0.754,0.457,-0.457
974023,-6690.0,-2610.0,-4273.0,0.117,0.755,0.459,-0.454
974040,-6618.0,-2564.0,-4481.0,0.115,0.756,0.46,-0.45
974057,-6638.0,-2422.0,-4443.0,0.113,0.758,0.462,-0.447
974073,-6844.0,-2468.0,-4341.0,0.111,0.759,0.464,-0.443
974090,-6762.0,-2636.0,-4709.0,0.109,0.76,0.465,-0.44
974107,-6628.0,-2796.0,-4739.0,0.108,0.761,0.466,-0.437
974133,-6838.0,-2610.0,-4639.0,0.106,0.762,0.468,-0.435
974149,-6870.0,-2646.0,-4867.0,0.105,0.763,0.469,-0.432
974165,-6786.0,-2364.0,-4761.0,0.104,0.764,0.47,-0.43
974182,-6698.0,-2600.0,-4665.0,0.103,0.764,0.471,-0.428
974199,-6626.0,-2550.0,-4853.0,0.102,0.765,0.472,-0.426
974216,-6566.0,-2262.0,-4655.0,0.102,0.765,0.472,-0.425
974232,-6462.0,-2250.0,-4601.0,0.101,0.766,0.473,-0.423
974248,-6288.0,-2210.0,-4813.0,0.101,0.766,0.474,-0.422
974274,-6120.0,-2218.0,-4725.0,0.101,0.767,0.475,-0.42
974291,-5730.0,-2286.0,-4719.0,0.1,0.767,0.476,-0.418
974308,-4334.0,-718.0,-2353.0,0.099,0.768,0.477,-0.416
974325,-2144.0,-472.0,1605.0,0.102,0.767,0.48,-0.414
974342,-9466.0,-8026.0,-9467.0,0.101,0.766,0.479,-0.416
974359,-7300.0,-4646.0,-10311.0,0.102,0.765,0.48,-0.417
974376,-5828.0,-2008.0,-6423.0,0.102,0.764,0.481,-0.418
974393,-7406.0,-1852.0,-1621.0,0.102,0.763,0.483,-0.417
974410,-7288.0,-1662.0,-5673.0,0.101,0.763,0.485,-0.416
974427,-4668.0,-1434.0,-4941.0,0.101,0.762,0.487,-0.414
974444,-7484.0,-1980.0,-1707.0,0.099,0.762,0.49,-0.412
974461,-7700.0,-1674.0,-5749.0,0.098,0.762,0.491,-0.409
974478,-5640.0,-1812.0,-5537.0,0.097,0.763,0.493,-0.407
974505,-7046.0,-3382.0,-2575.0,0.096,0.763,0.496,-0.405
974521,-6106.0,-1646.0,-6873.0,0.096,0.761,0.497,-0.405
974538,-3086.0,-3192.0,-2241.0,0.095,0.76,0.499,-0.406
974555,-5144.0,-1932.0,-3693.0,0.094,0.759,0.5,-0.405
974571,-6264.0,-2324.0,-6413.0,0.093,0.758,0.502,-0.406
974587,-6296.0,-5536.0,-6801.0,0.094,0.756,0.505,-0.404
974604,-5806.0,-2240.0,-2667.0,0.091,0.756,0.507,-0.403
974621,-3608.0,-3442.0,-6085.0,0.091,0.755,0.509,-0.402
974638,-5164.0,-3116.0,1287.0,0.09,0.756,0.512,-0.399
974664,-3736.0,-646.0,-3823.0,0.089,0.756,0.513,-0.397
974680,-4100.0,-1108.0,-9595.0,0.089,0.754,0.516,-0.396
974696,-5846.0,-3284.0,-2463.0,0.086,0.754,0.519,-0.393
974713,-4370.0,-3316.0,-6805.0,0.085,0.754,0.521,-0.392
974729,4352.0,-4228.0,15295.0,0.082,0.756,0.519,-0.39
974745,-8476.0,-22748.0,-5987.0,0.093,0.759,0.516,-0.386
974762,-8054.0,9742.0,-15961.0,0.09,0.757,0.516,-0.39
974779,-8900.0,-12450.0,-2925.0,0.093,0.758,0.519,-0.385
974806,-5920.0,-6838.0,-11935.0,0.095,0.757,0.518,-0.386
974823,-9762.0,6628.0,-10309.0,0.092,0.756,0.52,-0.387
974840,-9394.0,-9360.0,-6463.0,0.095,0.757,0.521,-0.383
974857,-2548.0,2042.0,-3879.0,0.096,0.757,0.522,-0.381
974874,-6474.0,-6750.0,-3505.0,0.094,0.758,0.523,-0.379
