timeMs,ax,ay,az,q0,q1,q2,q3
1729194,708.0,4785.0,6939.0,0.277,-0.039,0.24,0.93
1729211,578.0,4129.0,6983.0,0.287,-0.058,0.222,0.93
1729228,534.0,3561.0,6965.0,0.297,-0.078,0.201,0.93
1729244,432.0,3027.0,6901.0,0.306,-0.099,0.179,0.93
1729261,272.0,2525.0,6853.0,0.314,-0.122,0.156,0.929
1729278,82.0,2067.0,6731.0,0.322,-0.146,0.129,0.927
1729294,-8.0,1441.0,6673.0,0.328,-0.171,0.1,0.924
1729311,-104.0,535.0,6301.0,0.333,-0.198,0.068,0.919
1729328,-194.0,-401.0,5883.0,0.336,-0.227,0.034,0.914
1729355,-778.0,-1197.0,5377.0,0.336,-0.258,-0.001,0.906
1729372,-1722.0,-2303.0,4831.0,0.334,-0.29,-0.035,0.896
1729388,-2456.0,-3423.0,4511.0,0.329,-0.322,-0.069,0.885
1729404,-2922.0,-4545.0,4363.0,0.324,-0.353,-0.1,0.872
1729420,-3410.0,-5177.0,4317.0,0.317,-0.383,-0.127,0.858
1729436,-3640.0,-5551.0,4713.0,0.309,-0.41,-0.15,0.845
1729452,-2460.0,-5705.0,5519.0,0.301,-0.434,-0.171,0.832
1729479,-606.0,-6707.0,5317.0,0.294,-0.457,-0.188,0.818
1729496,-210.0,-7693.0,4311.0,0.288,-0.48,-0.201,0.804
1729513,-1184.0,-8463.0,2775.0,0.288,-0.505,-0.206,0.787
1729530,-2972.0,-8407.0,1469.0,0.293,-0.529,-0.203,0.77
1729547,-5324.0,-7239.0,93.0,0.305,-0.551,-0.195,0.752
1729564,-7198.0,-5595.0,-943.0,0.321,-0.569,-0.185,0.734
1729581,-7784.0,-4427.0,-1775.0,0.337,-0.584,-0.177,0.717
1729598,-7594.0,-3929.0,-2151.0,0.351,-0.598,-0.173,0.699
1729614,-7308.0,-4363.0,-2419.0,0.359,-0.611,-0.175,0.683
1729631,-5954.0,-4623.0,-2855.0,0.362,-0.624,-0.183,0.668
1729648,-6064.0,-5339.0,-3717.0,0.358,-0.638,-0.195,0.653
1729665,-5830.0,-6559.0,-3781.0,0.351,-0.653,-0.21,0.638
1729682,-5580.0,-7181.0,-3475.0,0.342,-0.666,-0.225,0.623
1729709,-5282.0,-7687.0,-2901.0,0.331,-0.679,-0.24,0.61
1729726,-5312.0,-7563.0,-2981.0,0.321,-0.69,-0.252,0.598
1729743,-5138.0,-7379.0,-3137.0,0.31,-0.701,-0.262,0.586
1729760,-5026.0,-6737.0,-3305.0,0.301,-0.711,-0.269,0.575
1729777,-5220.0,-6015.0,-3607.0,0.292,-0.721,-0.275,0.565
1729794,-5744.0,-5403.0,-3763.0,0.282,-0.731,-0.281,0.555
1729811,-5832.0,-4817.0,-3779.0,0.272,-0.739,-0.287,0.545
1729828,-5772.0,-4209.0,-3873.0,0.261,-0.748,-0.294,0.535
1729845,-5554.0,-4141.0,-4203.0,0.248,-0.756,-0.302,0.525
1729862,-5422.0,-4851.0,-4417.0,0.235,-0.764,-0.311,0.514
1729879,-5658.0,-5325.0,-4341.0,0.221,-0.772,-0.32,0.503
1729896,-5936.0,-5371.0,-4411.0,0.209,-0.779,-0.328,0.491
1729913,-5696.0,-5613.0,-4863.0,0.198,-0.787,-0.335,0.48
1729930,-5708.0,-5869.0,-5053.0,0.188,-0.794,-0.34,0.468
1729957,-5804.0,-5773.0,-5173.0,0.179,-0.8,-0.344,0.457
1729974,-5724.0,-6109.0,-5217.0,0.171,-0.807,-0.348,0.445
1729991,-5858.0,-6785.0,-5423.0,0.162,-0.814,-0.35,0.434
1730008,-5708.0,-6813.0,-5647.0,0.153,-0.821,-0.349,0.425
1730025,-5450.0,-6575.0,-5839.0,0.146,-0.827,-0.347,0.417
1730042,-5606.0,-6051.0,-5689.0,0.139,-0.833,-0.344,0.411
1730059,-5284.0,-6793.0,-5513.0,0.134,-0.837,-0.34,0.406
1730076,-5670.0,-5709.0,-5947.0,0.13,-0.842,-0.335,0.404
1730093,-5338.0,-4513.0,-6749.0,0.124,-0.845,-0.328,0.403
1730110,-5014.0,-2521.0,-7549.0,0.114,-0.849,-0.322,0.403
1730127,-4662.0,-2319.0,-7935.0,0.1,-0.853,-0.316,0.403
1730144,-4952.0,-1935.0,-8099.0,0.085,-0.855,-0.314,0.404
1730161,-4950.0,-1547.0,-8441.0,0.069,-0.855,-0.313,0.408
1730178,-4594.0,-1061.0,-8281.0,0.054,-0.853,-0.312,0.414
1730195,-4930.0,-93.0,-8113.0,0.04,-0.85,-0.312,0.421
1730222,-5036.0,167.0,-7843.0,0.024,-0.847,-0.314,0.429
1730239,-5316.0,-401.0,-7421.0,0.008,-0.841,-0.317,0.437
1730256,5396.0,4539.0,3653.0,0.0,0.841,0.323,-0.435
1730272,-5438.0,-7317.0,-1219.0,0.005,0.842,0.334,-0.425
1730289,-8020.0,-3655.0,-4117.0,0.004,-0.844,-0.332,0.422
1730306,-5548.0,-451.0,-4293.0,0.009,-0.847,-0.329,0.418
1730323,-9914.0,-3069.0,-5677.0,0.008,-0.848,-0.327,0.417
1730340,-7490.0,-2081.0,-3761.0,0.007,-0.849,-0.326,0.415
1730357,-8838.0,-3995.0,-3755.0,0.008,-0.851,-0.324,0.413
1730374,-6788.0,-1867.0,-5517.0,0.01,-0.852,-0.326,0.409
1730391,-4372.0,3039.0,-7195.0,0.004,-0.852,-0.334,0.404
1730408,-666.0,237.0,-7221.0,0.01,0.847,0.348,-0.401
1730434,-48.0,-5081.0,-6235.0,0.018,0.843,0.358,-0.401
1730451,-3190.0,-6323.0,-4503.0,0.019,0.841,0.36,-0.404
1730468,-5018.0,-245.0,-5405.0,0.018,0.84,0.358,-0.408
1730485,-4278.0,811.0,-6339.0,0.02,0.84,0.357,-0.409
1730502,-4236.0,-1803.0,-6227.0,0.022,0.841,0.356,-0.407
1730518,-4244.0,-1317.0,-5455.0,0.023,0.843,0.354,-0.405
1730535,-6016.0,691.0,-5845.0,0.026,0.845,0.352,-0.401
1730551,-6714.0,-1005.0,-5969.0,0.032,0.848,0.349,-0.398
1730568,-6416.0,-593.0,-5659.0,0.038,0.851,0.343,-0.396
1730585,-5654.0,-7.0,-6339.0,0.044,0.853,0.339,-0.393
1730611,-5944.0,-1523.0,-7037.0,0.051,0.854,0.34,-0.389
1730627,-6630.0,-3939.0,-7251.0,0.055,0.854,0.346,-0.384
1730643,-6576.0,-4431.0,-8553.0,0.059,0.853,0.354,-0.378
1730659,-8686.0,-2799.0,-7727.0,0.054,0.85,0.365,-0.376
1730676,-9812.0,-2627.0,-7167.0,0.046,0.844,0.373,-0.382
1730693,-2748.0,-2343.0,2113.0,0.044,0.845,0.373,-0.381
1730710,-6570.0,-5449.0,-2677.0,0.04,0.844,0.372,-0.384
1730726,-3740.0,-445.0,-8427.0,0.028,0.844,0.369,-0.389
1730753,-3740.0,-1251.0,-6271.0,0.024,0.844,0.367,-0.39
1730769,-3916.0,-4931.0,-5053.0,0.022,0.844,0.367,-0.39
1730785,-5944.0,-3461.0,-4595.0,0.017,0.843,0.367,-0.392
1730802,-6094.0,-3535.0,-5299.0,0.013,0.842,0.367,-0.396
1730819,-6346.0,-4235.0,-5425.0,0.008,0.841,0.366,-0.398
1730836,-6900.0,-1011.0,-4485.0,0.006,0.84,0.366,-0.4
1730852,-6962.0,-373.0,-4603.0,0.006,0.839,0.367,-0.402
1730868,-6260.0,-1201.0,-5507.0,0.006,0.837,0.368,-0.405
1730894,-6282.0,567.0,-6063.0,0.008,0.834,0.369,-0.41
1730911,-4928.0,-3889.0,-5275.0,0.012,0.831,0.37,-0.414
1730927,-5216.0,-2723.0,-5065.0,0.012,0.828,0.371,-0.42
1730944,-5378.0,-1829.0,-5591.0,0.014,0.825,0.371,-0.426
1730960,-5700.0,-1837.0,-5457.0,0.015,0.822,0.371,-0.432
1730977,-5024.0,-1823.0,-6187.0,0.017,0.819,0.371,-0.438
1730993,-4892.0,-2099.0,-5789.0,0.019,0.817,0.371,-0.441
1731010,-4994.0,-2765.0,-5553.0,0.02,0.816,0.371,-0.443
1731036,-5490.0,-2165.0,-5855.0,0.02,0.816,0.371,-0.443
1731052,-5794.0,-2571.0,-6061.0,0.02,0.816,0.372,-0.442
1731068,-7252.0,-927.0,-5053.0,0.019,0.817,0.373,-0.439
1731084,-7058.0,-937.0,-4757.0,0.023,0.818,0.373,-0.437
1731100,-5896.0,-2527.0,-5129.0,0.025,0.819,0.372,-0.436
1731117,-5264.0,-3001.0,-5669.0,0.027,0.82,0.372,-0.434
1731143,-6126.0,-3687.0,-5529.0,0.027,0.82,0.372,-0.433
1731160,-7958.0,-1657.0,-5535.0,0.027,0.82,0.372,-0.434
1731176,-7452.0,-2999.0,-6123.0,0.029,0.82,0.37,-0.436
1731193,-7180.0,-3119.0,-6559.0,0.031,0.818,0.369,-0.44
1731210,-7138.0,-2893.0,-6591.0,0.032,0.816,0.368,-0.444
1731226,-6964.0,-3427.0,-6377.0,0.033,0.814,0.367,-0.449
1731243,-7324.0,-2343.0,-5957.0,0.034,0.812,0.364,-0.454
1731259,-6356.0,-2435.0,-5945.0,0.037,0.81,0.362,-0.461
1731276,-5604.0,-2761.0,-5927.0,0.04,0.807,0.359,-0.467
1731293,-5092.0,-2225.0,-6103.0,0.042,0.806,0.356,-0.472
1731320,-4732.0,-3293.0,-5473.0,0.043,0.804,0.353,-0.476
1731336,-4984.0,-1847.0,-5207.0,0.043,0.803,0.35,-0.48
1731352,-5104.0,-1977.0,-4827.0,0.043,0.802,0.347,-0.484
1731368,-5094.0,-2413.0,-4183.0,0.044,0.799,0.345,-0.49
1731384,-5302.0,-2109.0,-3909.0,0.044,0.797,0.342,-0.496
1731400,-5040.0,-2603.0,-4121.0,0.045,0.793,0.341,-0.503
1731417,-5470.0,-2333.0,-3467.0,0.044,0.789,0.34,-0.51
1731443,-5760.0,-1983.0,-3525.0,0.044,0.784,0.34,-0.517
1731460,-6098.0,-2057.0,-3725.0,0.045,0.779,0.342,-0.524
1731476,-6182.0,-3181.0,-3353.0,0.045,0.774,0.343,-0.53
1731493,-6626.0,-1749.0,-3585.0,0.045,0.77,0.343,-0.535
1731510,-6450.0,-1793.0,-3905.0,0.046,0.767,0.344,-0.539
1731527,-6962.0,-1849.0,-3795.0,0.047,0.765,0.344,-0.543
1731543,-6970.0,-2221.0,-3811.0,0.05,0.763,0.344,-0.545
1731559,-6914.0,-2225.0,-3591.0,0.052,0.762,0.343,-0.546
1731576,-7328.0,-1849.0,-3115.0,0.054,0.762,0.342,-0.547
1731603,-7466.0,-3541.0,-3439.0,0.056,0.763,0.34,-0.547
1731620,-8128.0,-1863.0,-3181.0,0.057,0.764,0.339,-0.546
1731636,-8218.0,-2201.0,-3055.0,0.058,0.765,0.337,-0.545
1731652,-8590.0,-2257.0,-3337.0,0.06,0.766,0.334,-0.546
1731668,-8100.0,-2369.0,-3487.0,0.061,0.767,0.332,-0.546
1731684,-7664.0,-2049.0,-3277.0,0.061,0.767,0.331,-0.546
1731700,-7880.0,-2395.0,-2919.0,0.06,0.767,0.329,-0.548
1731726,-7184.0,-1767.0,-2835.0,0.06,0.766,0.328,-0.55
1731743,-6208.0,-1917.0,-2467.0,0.06,0.764,0.327,-0.554
1731759,-5402.0,-1699.0,-2315.0,0.06,0.761,0.326,-0.558
1731776,-4602.0,-2065.0,-1811.0,0.06,0.757,0.326,-0.563
1731792,-4026.0,-2639.0,-1857.0,0.06,0.754,0.326,-0.568
1731808,-3692.0,-61.0,-1845.0,0.058,0.75,0.326,-0.572
1731825,-3358.0,-245.0,-1717.0,0.059,0.748,0.327,-0.575
1731842,-3242.0,-1647.0,-2277.0,0.058,0.746,0.327,-0.576
1731868,-4900.0,-451.0,-2079.0,0.057,0.746,0.329,-0.577
1731884,-5546.0,-1279.0,-1487.0,0.057,0.745,0.331,-0.577
1731900,-6068.0,-3165.0,-2131.0,0.057,0.744,0.333,-0.576
1731916,-8594.0,-2211.0,-1817.0,0.056,0.743,0.334,-0.577
1731932,-8804.0,-2151.0,-1983.0,0.056,0.741,0.336,-0.579
1731949,-8946.0,-2737.0,-1535.0,0.057,0.738,0.337,-0.582
1731975,-7508.0,-2139.0,-2263.0,0.057,0.735,0.337,-0.586
1731992,-7196.0,-2345.0,-1777.0,0.058,0.731,0.339,-0.59
1732009,-5796.0,-1635.0,-1815.0,0.059,0.726,0.34,-0.594
1732026,-4738.0,-2283.0,-1999.0,0.059,0.722,0.342,-0.598
1732043,-4182.0,-1219.0,-1695.0,0.058,0.718,0.345,-0.601
1732060,-3398.0,-3919.0,-1449.0,0.055,0.716,0.348,-0.602
1732077,-5122.0,-457.0,-1889.0,0.052,0.715,0.35,-0.603
1732094,-6040.0,-1327.0,-1227.0,0.05,0.714,0.351,-0.604
1732111,-6050.0,-3615.0,-1415.0,0.05,0.713,0.352,-0.604
1732128,-6256.0,-2983.0,-2057.0,0.049,0.712,0.353,-0.605
1732145,-7928.0,-1923.0,-2065.0,0.048,0.712,0.353,-0.606
1732162,-8848.0,-3375.0,-1619.0,0.049,0.711,0.352,-0.607
1732179,-7522.0,-4669.0,-2595.0,0.05,0.711,0.351,-0.608
1732196,-8686.0,-3149.0,-2315.0,0.049,0.711,0.349,-0.608
1732213,-9654.0,-3239.0,-1883.0,0.049,0.712,0.346,-0.609
1732239,-9352.0,-2927.0,-1787.0,0.051,0.712,0.343,-0.61
1732256,-8406.0,-3145.0,-2073.0,0.053,0.712,0.34,-0.612
1732273,-8862.0,-2615.0,-1821.0,0.055,0.712,0.336,-0.614
1732290,-8396.0,-3763.0,-1807.0,0.057,0.713,0.334,-0.615
1732307,-8648.0,-2815.0,-1973.0,0.058,0.712,0.331,-0.616
1732324,-9106.0,-2689.0,-2127.0,0.059,0.712,0.329,-0.617
1732341,-9300.0,-2845.0,-1961.0,0.061,0.712,0.326,-0.618
1732358,-9138.0,-3083.0,-1833.0,0.063,0.712,0.324,-0.619
1732375,-9366.0,-2799.0,-2087.0,0.066,0.713,0.321,-0.62
1732392,-9794.0,-3053.0,-1651.0,0.069,0.713,0.319,-0.621
1732409,-9472.0,-3361.0,-1691.0,0.072,0.712,0.316,-0.623
1732426,-9424.0,-3085.0,-1951.0,0.074,0.712,0.314,-0.624
1732443,-9508.0,-2897.0,-1803.0,0.077,0.711,0.312,-0.625
1732470,-9354.0,-2789.0,-1949.0,0.079,0.71,0.31,-0.627
1732486,-9046.0,-3537.0,-1899.0,0.081,0.709,0.308,-0.629
1732503,-9396.0,-2773.0,-1817.0,0.082,0.707,0.307,-0.631
1732519,-10232.0,-3139.0,-1481.0,0.083,0.706,0.306,-0.633
1732535,-9856.0,-3275.0,-1801.0,0.083,0.705,0.305,-0.635
1732552,-10742.0,-3235.0,-1639.0,0.083,0.703,0.305,-0.636
1732569,-11530.0,-3065.0,-1511.0,0.083,0.702,0.306,-0.637
1732586,-11146.0,-2985.0,-2013.0,0.083,0.702,0.308,-0.637
1732603,-11000.0,-3321.0,-2049.0,0.083,0.701,0.31,-0.637
1732620,-11528.0,-3591.0,-2193.0,0.082,0.701,0.313,-0.636
1732647,-11068.0,-3373.0,-2383.0,0.079,0.701,0.317,-0.634
1732663,-11332.0,-2915.0,-2367.0,0.076,0.701,0.321,-0.632
1732680,-11642.0,-3165.0,-1969.0,0.072,0.701,0.326,-0.63
1732696,-10892.0,-3261.0,-2409.0,0.069,0.702,0.332,-0.627
1732713,-10938.0,-3169.0,-1769.0,0.066,0.702,0.337,-0.624
1732730,-10412.0,-3339.0,-1765.0,0.062,0.702,0.342,-0.621
1732746,-9536.0,-3115.0,-2339.0,0.059,0.703,0.347,-0.618
1732762,-9444.0,-3459.0,-1803.0,0.056,0.703,0.351,-0.616
1732789,-8866.0,-3707.0,-1509.0,0.054,0.703,0.355,-0.613
1732806,-8300.0,-3095.0,-2067.0,0.051,0.703,0.358,-0.612
1732823,-8702.0,-2869.0,-1591.0,0.049,0.703,0.361,-0.611
1732840,-7670.0,-4183.0,-1527.0,0.048,0.702,0.362,-0.611
1732857,-7670.0,-2041.0,-2029.0,0.048,0.702,0.362,-0.612
1732874,-6384.0,-3965.0,-1925.0,0.048,0.702,0.362,-0.612
1732891,-7872.0,-2741.0,-1801.0,0.048,0.702,0.36,-0.612
1732908,-7042.0,-2435.0,-2355.0,0.051,0.703,0.358,-0.612
1732925,-6436.0,-3737.0,-2065.0,0.053,0.705,0.355,-0.612
1732943,-7684.0,-3083.0,-1937.0,0.056,0.707,0.351,-0.612
1732960,-8088.0,-2249.0,-2415.0,0.06,0.709,0.346,-0.612
1732977,-7044.0,-3241.0,-2283.0,0.065,0.711,0.34,-0.612
1732994,-7178.0,-2915.0,-2463.0,0.069,0.714,0.333,-0.613
1733010,-8186.0,-2173.0,-1895.0,0.075,0.715,0.324,-0.615
1733036,-7238.0,-573.0,-1137.0,0.083,0.715,0.315,-0.619
1733053,-4280.0,-427.0,-1479.0,0.096,0.712,0.305,-0.625
1733070,-1772.0,-997.0,-913.0,0.111,0.71,0.294,-0.631
1733087,428.0,701.0,-221.0,0.128,0.708,0.285,-0.634
1733103,2520.0,-1385.0,287.0,0.143,0.708,0.277,-0.634
1733119,1502.0,4067.0,-1223.0,0.151,0.711,0.274,-0.63
1733136,370.0,-3151.0,-1531.0,0.159,0.713,0.275,-0.625
1733153,-496.0,-4881.0,-1879.0,0.159,0.716,0.276,-0.621
1733170,-1894.0,-4649.0,-2391.0,0.155,0.719,0.276,-0.618
1733187,-2266.0,-2761.0,-2571.0,0.152,0.722,0.276,-0.616
1733213,-3268.0,-2397.0,-1145.0,0.151,0.723,0.281,-0.613
1733229,-3592.0,-2729.0,971.0,0.145,0.725,0.284,-0.611
1733246,-4948.0,3731.0,1733.0,0.131,0.729,0.289,-0.607
1733262,-5394.0,5011.0,2451.0,0.118,0.732,0.298,-0.602
1733279,-1106.0,-1715.0,1341.0,0.108,0.732,0.315,-0.594
1733296,-612.0,-6263.0,4307.0,0.099,0.729,0.325,-0.594
1733313,-3260.0,-2243.0,-7157.0,0.087,0.726,0.33,-0.597
1733330,-6948.0,-1009.0,-4331.0,0.079,0.726,0.337,-0.595
1733346,-12296.0,-1829.0,-1307.0,0.071,0.724,0.344,-0.593
1733372,-7546.0,-1057.0,-3701.0,0.07,0.723,0.35,-0.591
1733388,-8500.0,-6865.0,-2717.0,0.067,0.722,0.355,-0.59
1733405,-10930.0,-3529.0,-3559.0,0.066,0.721,0.357,-0.59
1733422,-8642.0,-3983.0,-3715.0,0.066,0.721,0.359,-0.589
1733438,-10376.0,-4359.0,-3195.0,0.066,0.721,0.36,-0.589
1733454,-11886.0,-3507.0,-3597.0,0.066,0.72,0.36,-0.59
1733470,-10588.0,-3933.0,-3875.0,0.067,0.718,0.359,-0.592
1733496,-8800.0,-4879.0,-4967.0,0.068,0.717,0.357,-0.595
1733512,-9942.0,-3465.0,-4023.0,0.069,0.715,0.356,-0.598
1733528,-10048.0,-3133.0,-3095.0,0.07,0.711,0.354,-0.603
1733545,-9332.0,-3767.0,-2365.0,0.072,0.707,0.351,-0.609
1733562,-8818.0,-2875.0,-2511.0,0.075,0.703,0.347,-0.616
1733578,-8820.0,-2793.0,-1945.0,0.078,0.698,0.343,-0.623
1733595,-8234.0,-3499.0,-2473.0,0.081,0.694,0.339,-0.629
1733622,-9246.0,-2493.0,-2175.0,0.085,0.691,0.336,-0.635
1733639,-8474.0,-3869.0,-2253.0,0.087,0.688,0.332,-0.639
1733655,-9438.0,-3029.0,-1377.0,0.09,0.686,0.328,-0.643
1733672,-9058.0,-3087.0,-1415.0,0.093,0.685,0.324,-0.646
1733688,-9248.0,-3055.0,-1185.0,0.097,0.684,0.32,-0.648
1733705,-9186.0,-2895.0,-1299.0,0.099,0.684,0.317,-0.65
1733722,-9268.0,-2667.0,-1357.0,0.102,0.684,0.314,-0.65
1733739,-9850.0,-2913.0,-1179.0,0.104,0.685,0.312,-0.65
1733756,-10062.0,-2483.0,-955.0,0.106,0.685,0.311,-0.65
1733773,-10526.0,-3723.0,-897.0,0.109,0.686,0.31,-0.649
1733789,-11098.0,-3297.0,-1039.0,0.11,0.687,0.309,-0.648
1733806,-11122.0,-3507.0,-855.0,0.11,0.688,0.31,-0.647
1733833,-12416.0,-3449.0,-737.0,0.109,0.688,0.312,-0.646
1733849,-12586.0,-3681.0,-1089.0,0.109,0.687,0.314,-0.646
1733865,-12454.0,-3489.0,-1287.0,0.107,0.687,0.318,-0.645
1733881,-11578.0,-3945.0,-1959.0,0.105,0.686,0.322,-0.644
1733897,-12632.0,-3615.0,-1739.0,0.101,0.685,0.327,-0.643
1733913,-12092.0,-3645.0,-1499.0,0.098,0.685,0.333,-0.641
1733939,-11510.0,-3263.0,-1847.0,0.096,0.685,0.339,-0.638
1733956,-10786.0,-3713.0,-1629.0,0.095,0.686,0.345,-0.634
1733972,-9352.0,-4337.0,-1861.0,0.092,0.687,0.35,-0.629
1733989,-9384.0,-2947.0,-2265.0,0.088,0.69,0.356,-0.624
1734006,-9610.0,-3307.0,-1709.0,0.086,0.692,0.361,-0.62
1734024,-9478.0,-2659.0,-1151.0,0.085,0.694,0.365,-0.615
1734041,-8820.0,-3329.0,-1487.0,0.086,0.694,0.366,-0.613
1734058,-7892.0,-3527.0,-1867.0,0.087,0.694,0.367,-0.613
1734075,-8012.0,-2105.0,-1709.0,0.088,0.694,0.367,-0.614
1734092,-6336.0,-3417.0,-2187.0,0.089,0.693,0.367,-0.614
1734109,-6936.0,-2405.0,-1789.0,0.091,0.692,0.365,-0.616
1734126,-7722.0,-2149.0,-1265.0,0.093,0.69,0.364,-0.619
1734143,-6910.0,-2237.0,-1755.0,0.095,0.688,0.361,-0.622
1734160,-6074.0,-2871.0,-2107.0,0.098,0.686,0.358,-0.625
1734187,-7220.0,-2385.0,-1907.0,0.1,0.685,0.355,-0.628
1734204,-8260.0,-1991.0,-1903.0,0.103,0.684,0.351,-0.631
1734221,-7616.0,-1709.0,-1431.0,0.108,0.683,0.345,-0.635
1734238,-7274.0,-2367.0,-1583.0,0.113,0.682,0.339,-0.639
1734255,-7378.0,-1859.0,-1251.0,0.12,0.68,0.331,-0.642
1734271,-5620.0,-1091.0,-1097.0,0.127,0.679,0.324,-0.647
1734288,-5060.0,-917.0,-1033.0,0.135,0.677,0.317,-0.65
1734305,-3748.0,-187.0,-453.0,0.146,0.675,0.309,-0.654
1734322,-2196.0,-607.0,-279.0,0.158,0.672,0.301,-0.657
1734339,-884.0,275.0,-577.0,0.17,0.67,0.295,-0.659
1734355,392.0,-47.0,-781.0,0.181,0.67,0.291,-0.659
1734382,1058.0,-921.0,-1619.0,0.187,0.672,0.289,-0.656
1734398,1036.0,-527.0,-1487.0,0.188,0.677,0.289,-0.651
1734414,216.0,-1217.0,-527.0,0.184,0.683,0.291,-0.644
1734430,-776.0,-2025.0,-467.0,0.177,0.691,0.294,-0.637
1734447,-2644.0,-2213.0,-849.0,0.165,0.697,0.298,-0.631
1734464,-3778.0,-1713.0,-33.0,0.152,0.701,0.305,-0.627
1734480,-4246.0,-6931.0,1599.0,0.14,0.703,0.315,-0.623
1734497,-1806.0,-1549.0,1125.0,0.123,0.706,0.323,-0.619
1734523,-1502.0,5957.0,-1483.0,0.109,0.708,0.334,-0.613
1734540,-2454.0,-1141.0,-1195.0,0.103,0.707,0.347,-0.608
1734557,-7116.0,-2193.0,-2055.0,0.096,0.705,0.357,-0.605
1734574,-9186.0,-399.0,-1017.0,0.092,0.704,0.366,-0.602
1734591,-6274.0,-4905.0,-4205.0,0.088,0.703,0.373,-0.599
1734608,-10166.0,-3705.0,-2411.0,0.084,0.702,0.379,-0.597
1734625,-11856.0,-3203.0,-2143.0,0.08,0.7,0.383,-0.598
1734642,-9050.0,-3953.0,-3977.0,0.079,0.697,0.385,-0.6
1734659,-9380.0,-4233.0,-3155.0,0.077,0.694,0.385,-0.603
1734676,-9946.0,-3381.0,-2723.0,0.075,0.691,0.387,-0.606
1734693,-7712.0,-3995.0,-3849.0,0.072,0.688,0.387,-0.609
1734710,-9506.0,-3507.0,-1887.0,0.071,0.685,0.388,-0.612
1734727,-9470.0,-3367.0,-2311.0,0.071,0.683,0.387,-0.616
1734754,-8330.0,-2323.0,-3949.0,0.072,0.681,0.384,-0.619
1734770,-8334.0,-3511.0,-2153.0,0.074,0.68,0.381,-0.622
1734787,-8370.0,-3393.0,-3467.0,0.075,0.68,0.38,-0.623
1734803,-9262.0,-3427.0,-2727.0,0.076,0.678,0.378,-0.625
1734820,-8982.0,-4399.0,-1841.0,0.079,0.677,0.376,-0.628
1734837,-9404.0,-3023.0,-2493.0,0.081,0.675,0.372,-0.631
1734854,-8932.0,-3361.0,-2255.0,0.084,0.673,0.369,-0.636
1734871,-8718.0,-2985.0,-1635.0,0.086,0.671,0.365,-0.64
1734887,-8768.0,-3283.0,-2053.0,0.089,0.668,0.36,-0.645
1734913,-8250.0,-4295.0,-1709.0,0.092,0.665,0.358,-0.649
1734929,-8448.0,-2887.0,-1081.0,0.094,0.663,0.354,-0.653
1734945,-8290.0,-3557.0,-1359.0,0.097,0.661,0.349,-0.657
1734961,-8070.0,-2071.0,-1941.0,0.101,0.661,0.345,-0.659
1734978,-8476.0,-3023.0,-557.0,0.105,0.66,0.341,-0.661
1734995,-8562.0,-3143.0,-735.0,0.109,0.659,0.338,-0.663
1735011,-8470.0,-3273.0,-1243.0,0.113,0.659,0.335,-0.664
1735028,-9588.0,-3407.0,-335.0,0.116,0.659,0.332,-0.665
1735055,-10352.0,-3117.0,-701.0,0.118,0.659,0.33,-0.665
1735072,-10488.0,-3875.0,-873.0,0.121,0.659,0.329,-0.666
1735089,-11600.0,-3477.0,-655.0,0.122,0.659,0.328,-0.666
1735106,-11374.0,-4163.0,-1057.0,0.123,0.66,0.327,-0.665
1735123,-11724.0,-3809.0,-1147.0,0.122,0.66,0.328,-0.665
1735140,-12476.0,-3921.0,-611.0,0.12,0.66,0.33,-0.664
1735157,-11860.0,-3847.0,-1011.0,0.118,0.66,0.332,-0.663
1735174,-11086.0,-4005.0,-1449.0,0.116,0.661,0.335,-0.662
1735191,-11124.0,-4297.0,-903.0,0.112,0.662,0.339,-0.659
1735208,-10878.0,-3397.0,-1221.0,0.108,0.663,0.343,-0.656
1735225,-10496.0,-3491.0,-1121.0,0.105,0.665,0.347,-0.653
1735242,-10520.0,-3347.0,-733.0,0.104,0.667,0.351,-0.649
1735259,-9528.0,-2869.0,-1371.0,0.103,0.669,0.353,-0.646
1735276,-8832.0,-3153.0,-1331.0,0.102,0.671,0.356,-0.642
1735293,-8492.0,-2949.0,-1165.0,0.1,0.673,0.357,-0.64
1735320,-8400.0,-2573.0,-1319.0,0.098,0.674,0.359,-0.638
1735338,-7790.0,-2663.0,-1441.0,0.097,0.675,0.36,-0.637
1735355,-8224.0,-2657.0,-1003.0,0.096,0.675,0.36,-0.636
1735372,-7928.0,-2205.0,-991.0,0.097,0.675,0.36,-0.636
1735389,-7000.0,-3173.0,-1457.0,0.098,0.675,0.36,-0.637
1735406,-7476.0,-2401.0,-1437.0,0.098,0.675,0.359,-0.637
1735423,-7674.0,-2439.0,-1231.0,0.099,0.674,0.358,-0.638
1735440,-7328.0,-2571.0,-1493.0,0.1,0.674,0.357,-0.639
1735457,-7598.0,-2957.0,-1467.0,0.1,0.673,0.355,-0.641
1735474,-7924.0,-2797.0,-1427.0,0.101,0.673,0.352,-0.643
1735492,-7970.0,-2077.0,-1627.0,0.103,0.672,0.35,-0.645
1735509,-7326.0,-3323.0,-1817.0,0.105,0.672,0.347,-0.646
1735526,-8354.0,-2537.0,-1617.0,0.106,0.671,0.342,-0.649
1735543,-8654.0,-1885.0,-1531.0,0.109,0.671,0.338,-0.651
1735560,-7106.0,-3093.0,-1653.0,0.115,0.67,0.334,-0.653
1735577,-7164.0,-2731.0,-1409.0,0.119,0.67,0.328,-0.656
1735594,-7632.0,-593.0,-929.0,0.124,0.669,0.321,-0.659
1735621,-5006.0,-2093.0,-1131.0,0.131,0.667,0.315,-0.662
1735637,-4054.0,-1195.0,-983.0,0.138,0.667,0.307,-0.665
1735653,-3200.0,457.0,-641.0,0.145,0.666,0.3,-0.668
1735669,-1466.0,89.0,-495.0,0.152,0.665,0.295,-0.669
1735685,-384.0,477.0,-403.0,0.159,0.666,0.291,-0.669
1735701,528.0,841.0,-459.0,0.164,0.668,0.289,-0.666
1735727,1120.0,781.0,-573.0,0.167,0.671,0.29,-0.661
1735744,-384.0,3309.0,-1649.0,0.167,0.676,0.294,-0.655
1735761,-2448.0,-3859.0,403.0,0.164,0.681,0.3,-0.648
1735777,-3132.0,-4979.0,-289.0,0.157,0.684,0.304,-0.644
1735794,-2828.0,-5437.0,-7.0,0.148,0.689,0.308,-0.639
1735811,-3296.0,-1505.0,-347.0,0.135,0.692,0.312,-0.637
1735827,-1078.0,1639.0,1531.0,0.121,0.694,0.32,-0.633
1735844,-164.0,-2631.0,903.0,0.112,0.696,0.333,-0.626
1735860,-6172.0,-1105.0,-1371.0,0.102,0.699,0.341,-0.62
1735877,-8578.0,213.0,-1115.0,0.097,0.699,0.347,-0.618
1735904,-8198.0,-3731.0,-1557.0,0.091,0.699,0.353,-0.615
1735947,-9632.0,-2723.0,-2533.0,0.087,0.698,0.359,-0.613
1735954,-9572.0,-2783.0,-2247.0,0.085,0.696,0.364,-0.613
1735961,-10010.0,-4239.0,-2657.0,0.084,0.695,0.366,-0.613
1735977,-9886.0,-2977.0,-2851.0,0.083,0.693,0.368,-0.614
1735994,-8208.0,-3709.0,-2623.0,0.083,0.692,0.37,-0.615
1736011,-10112.0,-2783.0,-2529.0,0.083,0.69,0.37,-0.616
1736028,-8090.0,-4307.0,-3391.0,0.083,0.69,0.37,-0.616
1736045,-8656.0,-2725.0,-2667.0,0.084,0.69,0.37,-0.617
1736061,-10200.0,-4095.0,-2341.0,0.084,0.689,0.37,-0.617
1736077,-10100.0,-2991.0,-2669.0,0.085,0.689,0.368,-0.619
1736093,-8580.0,-3703.0,-2659.0,0.087,0.687,0.367,-0.621
1736110,-9628.0,-3829.0,-2361.0,0.088,0.686,0.365,-0.624
1736126,-9728.0,-3071.0,-2147.0,0.089,0.684,0.363,-0.627
1736152,-8544.0,-3059.0,-2049.0,0.09,0.681,0.362,-0.63
1736169,-8898.0,-3315.0,-1621.0,0.091,0.679,0.36,-0.634
1736185,-8312.0,-3207.0,-1887.0,0.093,0.676,0.357,-0.638
1736201,-7626.0,-2681.0,-1633.0,0.094,0.674,0.355,-0.64
1736218,-7520.0,-2705.0,-1551.0,0.096,0.673,0.353,-0.643
1736234,-8204.0,-2523.0,-1391.0,0.097,0.672,0.352,-0.644
1736250,-7884.0,-2259.0,-1423.0,0.1,0.672,0.35,-0.645
1736267,-8434.0,-2405.0,-1143.0,0.103,0.671,0.348,-0.646
1736285,-8708.0,-2893.0,-1383.0,0.106,0.671,0.345,-0.648
1736302,-8418.0,-3593.0,-1661.0,0.107,0.671,0.343,-0.648
1736328,-9788.0,-2827.0,-1241.0,0.108,0.671,0.341,-0.649
1736345,-10536.0,-3051.0,-1367.0,0.11,0.671,0.34,-0.65
1736362,-10790.0,-3443.0,-1285.0,0.112,0.669,0.338,-0.652
1736378,-10668.0,-3429.0,-1767.0,0.114,0.668,0.337,-0.654
1736394,-10804.0,-3769.0,-1909.0,0.115,0.666,0.337,-0.656
1736410,-11638.0,-3727.0,-1729.0,0.115,0.665,0.338,-0.657
1736426,-11770.0,-4217.0,-1399.0,0.115,0.663,0.339,-0.657
1736453,-12080.0,-4241.0,-1427.0,0.114,0.661,0.342,-0.658
1736470,-11518.0,-4583.0,-1693.0,0.113,0.66,0.345,-0.658
1736487,-11300.0,-4153.0,-1595.0,0.111,0.659,0.348,-0.657
1736504,-10986.0,-4779.0,-1411.0,0.108,0.659,0.353,-0.655
1736521,-10898.0,-3697.0,-1805.0,0.105,0.66,0.357,-0.653
1736538,-10748.0,-4193.0,-1329.0,0.103,0.661,0.361,-0.65
1736554,-10712.0,-3361.0,-1207.0,0.102,0.662,0.364,-0.647
1736571,-8824.0,-4719.0,-2039.0,0.101,0.664,0.368,-0.643
1736588,-9748.0,-3141.0,-1251.0,0.099,0.665,0.371,-0.64
1736605,-9118.0,-3299.0,-1017.0,0.097,0.666,0.374,-0.638
1736622,-8702.0,-3085.0,-1289.0,0.096,0.667,0.376,-0.636
1736639,-8554.0,-2707.0,-943.0,0.095,0.666,0.378,-0.636
1736656,-7494.0,-3757.0,-1331.0,0.095,0.666,0.379,-0.635
1736683,-7982.0,-2653.0,-1147.0,0.095,0.665,0.38,-0.636
1736700,-7348.0,-2971.0,-931.0,0.095,0.664,0.38,-0.637
1736717,-7608.0,-2993.0,-1433.0,0.095,0.664,0.379,-0.637
1736733,-7862.0,-2565.0,-1115.0,0.097,0.664,0.378,-0.638
1736750,-7568.0,-2787.0,-679.0,0.1,0.664,0.376,-0.639
1736766,-7834.0,-3349.0,-1333.0,0.102,0.664,0.373,-0.64
1736782,-7922.0,-3079.0,-1371.0,0.105,0.664,0.368,-0.642
1736798,-6632.0,-1191.0,-2283.0,0.108,0.665,0.364,-0.643
1736825,-7818.0,-2541.0,-1323.0,0.113,0.666,0.36,-0.643
1736841,-7102.0,-3117.0,-1099.0,0.119,0.667,0.355,-0.644
1736859,-6900.0,-1997.0,-1719.0,0.124,0.669,0.349,-0.645
1736876,-6552.0,-497.0,-1577.0,0.131,0.67,0.342,-0.646
1736892,-5158.0,-3257.0,-1433.0,0.137,0.672,0.334,-0.646
1736909,-6400.0,-369.0,-1037.0,0.145,0.674,0.324,-0.647
1736927,-6004.0,-31.0,-487.0,0.156,0.674,0.315,-0.65
1736944,-4308.0,-105.0,-567.0,0.168,0.672,0.306,-0.653
1736960,-2918.0,-151.0,-185.0,0.183,0.669,0.298,-0.656
1736977,-1918.0,185.0,-77.0,0.198,0.665,0.29,-0.659
1736994,-1214.0,233.0,-545.0,0.211,0.662,0.285,-0.661
1737011,-136.0,-1029.0,-1093.0,0.22,0.66,0.283,-0.66
1737037,872.0,-2435.0,-1575.0,0.223,0.661,0.285,-0.657
1737054,-1104.0,-3325.0,-1769.0,0.219,0.664,0.288,-0.654
1737072,-2582.0,-2977.0,-1083.0,0.209,0.668,0.291,-0.653
1737089,-2088.0,-2843.0,365.0,0.197,0.671,0.296,-0.651
1737107,-2206.0,-1623.0,239.0,0.18,0.673,0.302,-0.651
1737124,-1866.0,-2411.0,137.0,0.164,0.674,0.313,-0.649
1737141,-2592.0,-2467.0,269.0,0.145,0.676,0.325,-0.645
1737158,-4504.0,3751.0,-659.0,0.129,0.677,0.338,-0.642
1737175,-6202.0,-2081.0,-105.0,0.121,0.675,0.348,-0.639
1737192,-7722.0,-2011.0,-1157.0,0.114,0.673,0.356,-0.638
1737209,-8018.0,-3511.0,-741.0,0.111,0.67,0.363,-0.638
1737226,-7866.0,-3405.0,-1917.0,0.107,0.668,0.367,-0.638
1737243,-9238.0,-2363.0,-2447.0,0.105,0.666,0.37,-0.639
1737259,-9464.0,-3061.0,-1735.0,0.103,0.664,0.373,-0.64
1737285,-7998.0,-4175.0,-2411.0,0.102,0.663,0.376,-0.64
1737301,-9428.0,-2953.0,-1383.0,0.1,0.662,0.378,-0.639
1737318,-8692.0,-2915.0,-849.0,0.1,0.661,0.38,-0.639
1737335,-8748.0,-4321.0,-1229.0,0.101,0.661,0.381,-0.639
1737352,-8708.0,-3593.0,-1835.0,0.1,0.66,0.381,-0.64
1737369,-8608.0,-2841.0,-1393.0,0.101,0.66,0.381,-0.64
1737386,-8650.0,-2819.0,-1461.0,0.102,0.66,0.381,-0.64
1737403,-8422.0,-3209.0,-1865.0,0.103,0.66,0.38,-0.64
1737419,-8454.0,-2869.0,-1135.0,0.105,0.661,0.38,-0.639
1737435,-7820.0,-4489.0,-1671.0,0.105,0.662,0.379,-0.639
1737462,-8586.0,-2353.0,-1507.0,0.106,0.662,0.378,-0.638
1737478,-8134.0,-2797.0,-1189.0,0.107,0.663,0.376,-0.638
1737495,-9148.0,-2883.0,-1349.0,0.109,0.664,0.375,-0.638
1737511,-8328.0,-2891.0,-1379.0,0.111,0.664,0.374,-0.638
1737528,-7914.0,-2821.0,-1153.0,0.115,0.664,0.372,-0.639
1737544,-8078.0,-3201.0,-1537.0,0.117,0.664,0.37,-0.639
1737561,-7398.0,-2891.0,-1733.0,0.12,0.664,0.368,-0.64
1737577,-8054.0,-2407.0,-1339.0,0.121,0.665,0.367,-0.639
1737594,-8298.0,-2531.0,-1489.0,0.123,0.666,0.365,-0.639
1737621,-9170.0,-2691.0,-955.0,0.126,0.666,0.363,-0.639
1737638,-9014.0,-2723.0,-1257.0,0.129,0.666,0.361,-0.64
1737654,-9250.0,-2797.0,-1731.0,0.133,0.666,0.358,-0.641
1737671,-10376.0,-2825.0,-1373.0,0.137,0.666,0.357,-0.641
1737688,-11086.0,-3713.0,-927.0,0.141,0.665,0.355,-0.641
1737705,-12260.0,-3925.0,-1417.0,0.144,0.664,0.354,-0.643
1737722,-12960.0,-5327.0,-1385.0,0.147,0.663,0.353,-0.644
1737739,-12194.0,-4521.0,-1879.0,0.147,0.662,0.354,-0.644
1737757,-13188.0,-4629.0,-2071.0,0.145,0.662,0.356,-0.643
1737773,-13940.0,-4153.0,-1765.0,0.144,0.662,0.359,-0.642
1737790,-12232.0,-4125.0,-2019.0,0.141,0.663,0.363,-0.64
1737808,-11526.0,-4119.0,-2461.0,0.138,0.663,0.367,-0.637
1737824,-11570.0,-3857.0,-2031.0,0.134,0.664,0.372,-0.634
1737851,-10484.0,-3457.0,-2087.0,0.13,0.665,0.378,-0.631
1737868,-10472.0,-3383.0,-1517.0,0.127,0.665,0.383,-0.629
1737884,-10116.0,-3145.0,-1583.0,0.125,0.664,0.387,-0.627
1737900,-8426.0,-3437.0,-2017.0,0.123,0.664,0.39,-0.626
1737916,-8332.0,-3067.0,-1787.0,0.12,0.664,0.393,-0.625
1737932,-8518.0,-2613.0,-1931.0,0.118,0.664,0.395,-0.624
1737948,-8988.0,-2713.0,-1729.0,0.117,0.664,0.397,-0.623
1737974,-8838.0,-2469.0,-1459.0,0.118,0.664,0.397,-0.623
1737991,-7034.0,-3057.0,-2411.0,0.118,0.664,0.397,-0.623
1738008,-7634.0,-2521.0,-2435.0,0.117,0.664,0.397,-0.622
1738025,-7858.0,-1767.0,-2081.0,0.118,0.666,0.397,-0.621
1738042,-8390.0,-2565.0,-1349.0,0.119,0.667,0.396,-0.62
1738059,-8110.0,-2851.0,-1633.0,0.121,0.668,0.394,-0.62
1738076,-7242.0,-3395.0,-2177.0,0.124,0.668,0.392,-0.62
1738093,-6882.0,-2935.0,-2159.0,0.125,0.669,0.39,-0.62
1738110,-7486.0,-1969.0,-2141.0,0.126,0.671,0.388,-0.619
1738126,-8144.0,-2421.0,-1925.0,0.129,0.673,0.384,-0.619
1738143,-8078.0,-2003.0,-1753.0,0.133,0.675,0.378,-0.62
1738169,-7072.0,-2097.0,-2283.0,0.138,0.677,0.373,-0.62
1738186,-7312.0,-1267.0,-1817.0,0.146,0.678,0.366,-0.621
1738203,-7252.0,-2513.0,-1429.0,0.153,0.679,0.358,-0.622
1738220,-6542.0,2325.0,-1771.0,0.165,0.679,0.35,-0.625
1738236,-4782.0,433.0,-913.0,0.181,0.677,0.341,-0.627
1738253,-2836.0,695.0,-877.0,0.198,0.676,0.333,-0.627
1738269,-1962.0,1293.0,-759.0,0.217,0.675,0.328,-0.625
1738286,796.0,-11.0,723.0,0.235,0.676,0.324,-0.619
1738308,450.0,307.0,1291.0,0.249,0.678,0.324,-0.611
1738324,160.0,-4381.0,-1597.0,0.249,0.682,0.325,-0.607
1738340,-1178.0,-441.0,-3355.0,0.24,0.687,0.325,-0.604
1738356,618.0,-5505.0,-597.0,0.227,0.691,0.326,-0.604
1738382,-4756.0,-4895.0,-2009.0,0.21,0.696,0.322,-0.606
1738398,-6082.0,-6875.0,-1383.0,0.198,0.699,0.323,-0.607
1738414,-2884.0,-6331.0,3269.0,0.18,0.7,0.324,-0.61
1738431,-1570.0,5945.0,3887.0,0.158,0.703,0.331,-0.609
1738447,484.0,3931.0,1233.0,0.15,0.699,0.346,-0.607
1738463,-4474.0,-4165.0,-1161.0,0.143,0.695,0.357,-0.608
1738479,-10946.0,-6887.0,-2467.0,0.136,0.689,0.364,-0.611
1738506,-4464.0,-1559.0,-2729.0,0.131,0.684,0.367,-0.617
1738523,-4416.0,-651.0,-5233.0,0.125,0.68,0.375,-0.617
1738540,-11650.0,-5565.0,-3775.0,0.119,0.678,0.382,-0.617
1738556,-11384.0,-1373.0,-3933.0,0.118,0.676,0.388,-0.616
1738573,-9502.0,-4945.0,-3769.0,0.117,0.674,0.392,-0.615
1738590,-11736.0,-4899.0,-3371.0,0.117,0.673,0.394,-0.615
1738606,-9224.0,-4751.0,-3787.0,0.116,0.673,0.396,-0.614
1738622,-8880.0,-3721.0,-2795.0,0.114,0.673,0.398,-0.613
1738639,-10866.0,-3353.0,-1459.0,0.113,0.673,0.399,-0.613
1738656,-9450.0,-3495.0,-1631.0,0.115,0.672,0.398,-0.614
1738683,-7872.0,-4125.0,-2351.0,0.116,0.671,0.398,-0.615
1738699,-8760.0,-3597.0,-2051.0,0.117,0.67,0.396,-0.617
1738716,-9222.0,-3027.0,-2025.0,0.118,0.669,0.395,-0.618
1738733,-8342.0,-2805.0,-2479.0,0.12,0.668,0.394,-0.62
1738750,-8212.0,-3153.0,-2067.0,0.122,0.667,0.392,-0.622
1738767,-8760.0,-2501.0,-1879.0,0.124,0.666,0.39,-0.624
1738783,-7336.0,-3491.0,-2489.0,0.125,0.666,0.389,-0.624
1738800,-8996.0,-2773.0,-1823.0,0.125,0.667,0.388,-0.624
1738817,-10110.0,-3175.0,-1327.0,0.127,0.667,0.386,-0.624
1738833,-9374.0,-2555.0,-2213.0,0.128,0.668,0.384,-0.625
1738860,-8904.0,-3083.0,-2403.0,0.13,0.668,0.381,-0.626
1738876,-9510.0,-2615.0,-2123.0,0.131,0.669,0.379,-0.626
1738892,-8866.0,-3375.0,-1947.0,0.132,0.67,0.378,-0.625
1738909,-8926.0,-2471.0,-1597.0,0.133,0.671,0.376,-0.625
1738926,-8916.0,-2843.0,-1449.0,0.134,0.671,0.375,-0.625
1738943,-8644.0,-2687.0,-1481.0,0.136,0.671,0.373,-0.626
1738959,-8574.0,-2743.0,-1683.0,0.137,0.671,0.371,-0.627
1738976,-9502.0,-2997.0,-1607.0,0.139,0.671,0.369,-0.628
1738993,-10024.0,-2941.0,-1989.0,0.141,0.671,0.368,-0.629
1739010,-10270.0,-3665.0,-2111.0,0.142,0.669,0.367,-0.63
1739037,-11170.0,-3359.0,-1999.0,0.142,0.669,0.367,-0.631
1739054,-11508.0,-3805.0,-2103.0,0.142,0.667,0.367,-0.632
1739071,-11712.0,-4001.0,-1903.0,0.142,0.666,0.368,-0.633
1739088,-11822.0,-3649.0,-2107.0,0.142,0.665,0.37,-0.633
1739105,-11690.0,-4381.0,-1887.0,0.141,0.664,0.373,-0.633
1739122,-11238.0,-3993.0,-2079.0,0.139,0.663,0.377,-0.632
1739139,-11144.0,-4255.0,-1993.0,0.136,0.663,0.381,-0.63
1739156,-11084.0,-3673.0,-1699.0,0.133,0.662,0.385,-0.629
1739173,-10436.0,-3985.0,-1879.0,0.13,0.662,0.39,-0.626
1739190,-9898.0,-3613.0,-1913.0,0.127,0.663,0.394,-0.624
1739207,-9306.0,-3559.0,-1741.0,0.125,0.664,0.398,-0.621
1739224,-8942.0,-3743.0,-2005.0,0.123,0.665,0.401,-0.617
1739241,-8686.0,-3305.0,-1871.0,0.121,0.667,0.405,-0.613
1739258,-8596.0,-2933.0,-1733.0,0.119,0.669,0.408,-0.61
1739285,-8402.0,-3649.0,-2001.0,0.118,0.671,0.409,-0.607
1739302,-8442.0,-3083.0,-1861.0,0.118,0.672,0.41,-0.605
1739319,-7424.0,-3303.0,-2259.0,0.117,0.673,0.411,-0.604
1739336,-7888.0,-2831.0,-2275.0,0.116,0.674,0.411,-0.603
1739353,-8146.0,-2761.0,-1989.0,0.117,0.674,0.41,-0.603
1739370,-7336.0,-3245.0,-2181.0,0.118,0.674,0.409,-0.603
1739387,-7350.0,-2563.0,-2159.0,0.12,0.674,0.407,-0.605
1739403,-7080.0,-2841.0,-2193.0,0.121,0.674,0.404,-0.606
1739420,-7760.0,-2125.0,-2407.0,0.124,0.674,0.401,-0.608
1739436,-6814.0,-2281.0,-2395.0,0.127,0.675,0.398,-0.609
1739453,-6256.0,-3717.0,-2209.0,0.129,0.676,0.394,-0.61
1739480,-8138.0,-1471.0,-1987.0,0.133,0.676,0.389,-0.611
1739496,-6880.0,-2699.0,-2413.0,0.137,0.677,0.384,-0.613
1739512,-5442.0,-2315.0,-2523.0,0.141,0.678,0.379,-0.614
1739529,-6928.0,-2001.0,-1935.0,0.145,0.68,0.373,-0.615
1739545,-7296.0,-1559.0,-1779.0,0.149,0.681,0.365,-0.616
1739561,-5822.0,-913.0,-1725.0,0.156,0.682,0.359,-0.618
1739577,-5712.0,-919.0,-1249.0,0.164,0.681,0.351,-0.621
1739604,-5042.0,187.0,-941.0,0.175,0.679,0.344,-0.625
1739621,-3510.0,-1071.0,-921.0,0.186,0.676,0.337,-0.628
1739638,-2476.0,219.0,-1215.0,0.197,0.673,0.332,-0.632
1739655,-1718.0,-1405.0,-923.0,0.206,0.67,0.328,-0.634
1739673,-1168.0,-1531.0,-1191.0,0.211,0.668,0.326,-0.634
1739690,-1038.0,-1809.0,-1409.0,0.213,0.668,0.325,-0.634
1739707,-806.0,-1995.0,-1253.0,0.21,0.669,0.327,-0.633
1739724,-1480.0,-1451.0,-689.0,0.204,0.671,0.331,-0.631
1739741,-1990.0,-1817.0,-265.0,0.197,0.673,0.335,-0.629
1739758,-2402.0,-1975.0,-621.0,0.187,0.675,0.341,-0.627
1739775,-3292.0,651.0,-523.0,0.176,0.676,0.348,-0.625
1739792,-2950.0,455.0,-997.0,0.168,0.675,0.357,-0.623
1739809,-3146.0,-2383.0,-1931.0,0.162,0.675,0.364,-0.621
1739825,-5078.0,-1219.0,-1815.0,0.152,0.676,0.37,-0.619
1739842,-5900.0,-919.0,-2169.0,0.144,0.677,0.378,-0.615
1739869,-6810.0,-1097.0,-2453.0,0.139,0.677,0.384,-0.612
1739886,-6670.0,-2897.0,-3063.0,0.132,0.678,0.39,-0.608
1739902,-6946.0,-3963.0,-3535.0,0.127,0.68,0.397,-0.604
1739919,-9888.0,-1761.0,-2337.0,0.122,0.68,0.405,-0.599
1739936,-8652.0,-3615.0,-1481.0,0.119,0.679,0.409,-0.598
1739953,-8482.0,-3383.0,-2271.0,0.118,0.677,0.412,-0.599
1739971,-8012.0,-3037.0,-3051.0,0.116,0.674,0.415,-0.6
1739988,-7790.0,-2043.0,-2311.0,0.115,0.672,0.418,-0.6
1740005,-7598.0,-4011.0,-2303.0,0.114,0.67,0.421,-0.601
1740022,-8588.0,-2615.0,-2769.0,0.113,0.668,0.422,-0.602
1740039,-7936.0,-3495.0,-2665.0,0.112,0.667,0.425,-0.601
1740056,-8160.0,-3339.0,-2501.0,0.111,0.666,0.427,-0.601
1740073,-9432.0,-3557.0,-2231.0,0.11,0.665,0.429,-0.601
1740090,-9372.0,-3345.0,-2251.0,0.11,0.664,0.429,-0.602
1740117,-8344.0,-3687.0,-2621.0,0.111,0.664,0.427,-0.604
1740133,-8514.0,-3389.0,-3063.0,0.11,0.664,0.427,-0.603
1740149,-8594.0,-4137.0,-2511.0,0.11,0.664,0.427,-0.603
1740166,-9574.0,-3679.0,-1685.0,0.109,0.665,0.427,-0.603
1740183,-9002.0,-3789.0,-2197.0,0.11,0.664,0.425,-0.605
1740200,-8624.0,-3641.0,-1993.0,0.111,0.664,0.422,-0.608
1740216,-7830.0,-3675.0,-2359.0,0.113,0.663,0.419,-0.61
1740242,-8072.0,-2895.0,-2115.0,0.115,0.662,0.416,-0.613
1740259,-7608.0,-3397.0,-1997.0,0.117,0.662,0.413,-0.615
1740275,-7908.0,-2931.0,-1927.0,0.119,0.662,0.41,-0.616
1740292,-7850.0,-3599.0,-1541.0,0.122,0.661,0.408,-0.618
1740309,-8414.0,-3097.0,-1329.0,0.124,0.661,0.405,-0.62
1740325,-8544.0,-3927.0,-1409.0,0.127,0.66,0.401,-0.622
1740342,-8990.0,-3699.0,-1343.0,0.131,0.66,0.398,-0.624
1740359,-9862.0,-4131.0,-1465.0,0.135,0.659,0.395,-0.626
1740375,-11292.0,-4049.0,-1691.0,0.139,0.658,0.393,-0.627
1740392,-11360.0,-4663.0,-1439.0,0.142,0.658,0.392,-0.628
1740418,-11964.0,-4767.0,-1717.0,0.144,0.657,0.391,-0.629
1740435,-12614.0,-4507.0,-1795.0,0.144,0.656,0.392,-0.629
1740451,-11298.0,-4325.0,-2003.0,0.144,0.655,0.395,-0.628
1740467,-11424.0,-4101.0,-2191.0,0.143,0.654,0.398,-0.627
1740484,-11052.0,-4597.0,-2283.0,0.142,0.654,0.401,-0.625
1740501,-10186.0,-4103.0,-2499.0,0.14,0.654,0.406,-0.623
1740517,-10318.0,-4291.0,-2367.0,0.138,0.655,0.41,-0.62
1740534,-9674.0,-4287.0,-2547.0,0.135,0.656,0.415,-0.616
1740551,-9154.0,-3423.0,-2671.0,0.131,0.657,0.42,-0.612
1740577,-9696.0,-3603.0,-1991.0,0.129,0.658,0.425,-0.608
1740593,-8950.0,-3713.0,-2175.0,0.127,0.659,0.429,-0.605
1740609,-8852.0,-3407.0,-2257.0,0.126,0.66,0.432,-0.602
1740625,-7704.0,-3953.0,-2473.0,0.125,0.661,0.434,-0.599
1740642,-8500.0,-3159.0,-2213.0,0.124,0.661,0.436,-0.598
1740658,-7600.0,-3665.0,-2799.0,0.124,0.662,0.437,-0.596
1740675,-8322.0,-2783.0,-2037.0,0.124,0.662,0.438,-0.596
1740692,-7352.0,-3857.0,-2261.0,0.124,0.662,0.437,-0.596
1740718,-7922.0,-2779.0,-2757.0,0.125,0.662,0.436,-0.597
1740735,-6986.0,-3087.0,-2671.0,0.126,0.662,0.435,-0.597
1740752,-7354.0,-3127.0,-2045.0,0.128,0.662,0.434,-0.598
1740769,-7972.0,-2963.0,-2103.0,0.13,0.661,0.431,-0.601
1740785,-7726.0,-2351.0,-2593.0,0.133,0.661,0.427,-0.603
1740801,-6656.0,-2507.0,-2321.0,0.137,0.661,0.423,-0.604
1740817,-6372.0,-3689.0,-2207.0,0.14,0.661,0.42,-0.606
1740834,-7696.0,-2731.0,-2369.0,0.143,0.661,0.415,-0.608
1740851,-7248.0,-2001.0,-2463.0,0.146,0.662,0.411,-0.609
1740877,-6788.0,-1675.0,-2821.0,0.15,0.664,0.407,-0.61
1740894,-6770.0,-3545.0,-2379.0,0.154,0.666,0.402,-0.61
1740910,-8380.0,-2033.0,-1975.0,0.158,0.667,0.395,-0.611
1740926,-7788.0,9.0,-2097.0,0.165,0.669,0.386,-0.613
1740942,-6826.0,635.0,-2067.0,0.176,0.67,0.378,-0.615
1740959,-5090.0,-493.0,-1799.0,0.189,0.669,0.369,-0.616
1740975,-3284.0,-787.0,-1743.0,0.203,0.668,0.361,-0.618
1741001,-1608.0,-1185.0,-1465.0,0.215,0.668,0.354,-0.618
1741017,-902.0,-1641.0,-805.0,0.223,0.67,0.348,-0.617
1741034,-1516.0,-2151.0,-1321.0,0.229,0.673,0.344,-0.614
1741050,-1936.0,-583.0,-757.0,0.232,0.676,0.341,-0.611
1741067,-1494.0,-201.0,-189.0,0.233,0.679,0.339,-0.607
1741083,-1486.0,-803.0,-603.0,0.234,0.682,0.339,-0.604
1741100,-2058.0,-1871.0,-321.0,0.231,0.684,0.342,-0.601
1741126,-2592.0,-2277.0,-23.0,0.227,0.685,0.347,-0.599
1741142,-2796.0,-3263.0,-277.0,0.219,0.685,0.355,-0.597
1741158,-3446.0,-2489.0,-1123.0,0.207,0.686,0.364,-0.596
1741175,-3586.0,-1167.0,-161.0,0.193,0.686,0.372,-0.595
1741192,-3914.0,3213.0,-977.0,0.181,0.687,0.38,-0.593
1741208,-4628.0,-745.0,-1635.0,0.172,0.686,0.388,-0.591
1741225,-6438.0,-3355.0,-1773.0,0.162,0.686,0.395,-0.589
1741241,-6312.0,817.0,-1125.0,0.154,0.685,0.403,-0.587
1741258,-6072.0,-1739.0,-2575.0,0.147,0.684,0.409,-0.586
1741285,-7348.0,-2997.0,-3251.0,0.14,0.684,0.415,-0.583
1741301,-8758.0,141.0,-1811.0,0.137,0.683,0.421,-0.581
1741317,-6404.0,-4623.0,-3513.0,0.133,0.683,0.426,-0.578
1741334,-9228.0,-2473.0,-3961.0,0.129,0.684,0.429,-0.576
1741350,-8726.0,-2877.0,-3023.0,0.126,0.685,0.433,-0.572
1741367,-9116.0,-3347.0,-3273.0,0.124,0.686,0.436,-0.57
1741383,-9742.0,-3157.0,-3091.0,0.123,0.686,0.437,-0.569
1741400,-9042.0,-3069.0,-3185.0,0.123,0.686,0.437,-0.568
1741427,-8678.0,-4325.0,-3369.0,0.121,0.686,0.438,-0.568
1741443,-9042.0,-3245.0,-3195.0,0.121,0.685,0.438,-0.569
1741459,-9470.0,-3367.0,-2799.0,0.121,0.684,0.437,-0.572
1741475,-8246.0,-3515.0,-3653.0,0.122,0.682,0.435,-0.575
1741491,-7712.0,-3467.0,-3437.0,0.122,0.68,0.434,-0.578
1741508,-8352.0,-4011.0,-2895.0,0.123,0.679,0.433,-0.581
1741525,-8326.0,-3011.0,-3377.0,0.123,0.677,0.431,-0.584
1741542,-8108.0,-3139.0,-3023.0,0.125,0.676,0.429,-0.586
1741568,-8184.0,-4005.0,-2681.0,0.126,0.675,0.427,-0.588
1741585,-8664.0,-2631.0,-2749.0,0.127,0.675,0.425,-0.59
1741602,-7872.0,-3465.0,-2491.0,0.129,0.675,0.422,-0.591
1741619,-8396.0,-3029.0,-2107.0,0.132,0.675,0.419,-0.593
1741636,-7928.0,-2811.0,-2273.0,0.135,0.675,0.416,-0.595
1741653,-7444.0,-3301.0,-2455.0,0.138,0.674,0.413,-0.596
1741669,-7994.0,-3181.0,-2019.0,0.141,0.675,0.411,-0.597
1741685,-8550.0,-3045.0,-2063.0,0.143,0.675,0.408,-0.598
1741701,-8776.0,-3363.0,-2197.0,0.146,0.674,0.405,-0.6
1741728,-9222.0,-3485.0,-2261.0,0.148,0.675,0.402,-0.601
1741744,-9612.0,-4051.0,-2643.0,0.15,0.675,0.4,-0.602
1741760,-11126.0,-3453.0,-2963.0,0.152,0.675,0.398,-0.602
1741776,-11954.0,-3907.0,-3067.0,0.153,0.676,0.398,-0.602
1741792,-12012.0,-4303.0,-3515.0,0.153,0.676,0.397,-0.601
1741808,-12502.0,-4731.0,-3453.0,0.153,0.677,0.398,-0.6
1741834,-12724.0,-4633.0,-3495.0,0.152,0.677,0.4,-0.599
1741850,-11464.0,-3861.0,-3853.0,0.15,0.677,0.403,-0.597
1741867,-11552.0,-3957.0,-3135.0,0.147,0.677,0.407,-0.595
1741883,-11360.0,-3819.0,-2999.0,0.145,0.677,0.411,-0.593
1741899,-10410.0,-3291.0,-3107.0,0.143,0.676,0.415,-0.591
1741916,-9298.0,-3155.0,-2921.0,0.141,0.676,0.418,-0.59
1741932,-9552.0,-3627.0,-2241.0,0.139,0.676,0.422,-0.588
1741958,-9184.0,-3047.0,-2251.0,0.138,0.675,0.424,-0.588
1741975,-8768.0,-2469.0,-2345.0,0.137,0.674,0.426,-0.588
1741991,-8148.0,-3161.0,-2299.0,0.136,0.673,0.428,-0.588
1742008,-8036.0,-2785.0,-2353.0,0.136,0.673,0.428,-0.588
1742025,-8360.0,-3317.0,-1649.0,0.136,0.672,0.428,-0.589
1742041,-7770.0,-2293.0,-2445.0,0.136,0.671,0.427,-0.591
1742058,-7406.0,-2871.0,-2363.0,0.137,0.67,0.426,-0.592
1742075,-6868.0,-2545.0,-2117.0,0.138,0.67,0.425,-0.593
1742091,-7782.0,-2471.0,-1703.0,0.139,0.67,0.424,-0.594
1742108,-7218.0,-2173.0,-2129.0,0.14,0.669,0.422,-0.595
1742135,-6750.0,-2217.0,-2115.0,0.141,0.669,0.42,-0.596
1742152,-6746.0,-2601.0,-2227.0,0.142,0.67,0.418,-0.597
1742169,-7844.0,-1919.0,-2135.0,0.143,0.671,0.415,-0.597
1742186,-8086.0,-1729.0,-1895.0,0.144,0.672,0.412,-0.598
1742203,-6540.0,-3283.0,-2557.0,0.147,0.673,0.407,-0.6
1742220,-7694.0,-2011.0,-1997.0,0.148,0.674,0.402,-0.601
1742237,-7772.0,-1747.0,-2131.0,0.151,0.675,0.397,-0.603
1742254,-7242.0,-1987.0,-2705.0,0.153,0.676,0.392,-0.604
1742271,-6836.0,-1761.0,-2237.0,0.156,0.677,0.387,-0.606
1742288,-6794.0,-1993.0,-1855.0,0.159,0.678,0.38,-0.608
1742305,-5964.0,-1343.0,-1699.0,0.164,0.679,0.372,-0.611
1742322,-3918.0,-1013.0,-2019.0,0.168,0.678,0.366,-0.614
1742339,-2758.0,-833.0,-1331.0,0.173,0.678,0.36,-0.617
1742356,-2358.0,-535.0,-899.0,0.177,0.678,0.354,-0.619
1742383,-1730.0,-1113.0,-531.0,0.181,0.678,0.35,-0.621
1742400,-1020.0,-1373.0,-463.0,0.183,0.677,0.346,-0.623
1742417,-456.0,-1475.0,-543.0,0.184,0.678,0.345,-0.623
1742433,-692.0,-1967.0,-435.0,0.182,0.679,0.345,-0.622
1742449,-1220.0,-955.0,-235.0,0.177,0.679,0.348,-0.621
1742465,-1798.0,-415.0,71.0,0.173,0.68,0.354,-0.619
1742481,-1818.0,-1733.0,-597.0,0.168,0.68,0.361,-0.616
1742507,-2466.0,-1313.0,-667.0,0.162,0.68,0.368,-0.613
1742524,-4690.0,-279.0,-1029.0,0.156,0.681,0.375,-0.609
1742541,-4946.0,-1299.0,-1221.0,0.153,0.681,0.383,-0.606
1742557,-5002.0,-3381.0,-1825.0,0.147,0.682,0.389,-0.602
1742574,-6862.0,-1537.0,-2419.0,0.142,0.682,0.394,-0.599
1742591,-7472.0,-959.0,-2243.0,0.138,0.682,0.4,-0.596
1742608,-6878.0,-3257.0,-2267.0,0.136,0.682,0.405,-0.593
1742624,-7452.0,-3133.0,-2635.0,0.132,0.681,0.41,-0.592
1742641,-7074.0,-2227.0,-2859.0,0.13,0.681,0.413,-0.59
1742657,-7720.0,-2523.0,-2715.0,0.128,0.68,0.417,-0.589
1742684,-7768.0,-3053.0,-2823.0,0.126,0.679,0.421,-0.587
1742701,-8384.0,-3683.0,-2029.0,0.126,0.678,0.423,-0.588
1742718,-8316.0,-2813.0,-2771.0,0.125,0.677,0.423,-0.589
1742734,-8338.0,-2427.0,-2829.0,0.125,0.676,0.424,-0.59
1742750,-7808.0,-3743.0,-2497.0,0.126,0.675,0.424,-0.591
1742766,-8256.0,-3135.0,-2855.0,0.126,0.674,0.424,-0.593
1742783,-8844.0,-2667.0,-2545.0,0.126,0.672,0.423,-0.594
1742799,-8032.0,-3073.0,-2315.0,0.127,0.671,0.422,-0.596
1742825,-8834.0,-2987.0,-2069.0,0.129,0.669,0.421,-0.599
1742841,-8544.0,-2883.0,-2617.0,0.13,0.667,0.42,-0.601
1742857,-8558.0,-2763.0,-2237.0,0.132,0.666,0.418,-0.604
1742874,-8604.0,-3479.0,-2299.0,0.133,0.665,0.417,-0.605
1742891,-8500.0,-3387.0,-2607.0,0.134,0.664,0.415,-0.607
1742907,-9458.0,-2871.0,-1947.0,0.135,0.664,0.413,-0.608
1742924,-9054.0,-3403.0,-2019.0,0.137,0.663,0.411,-0.61
1742941,-9158.0,-3309.0,-1959.0,0.139,0.662,0.409,-0.613
1742958,-8950.0,-3345.0,-1859.0,0.142,0.66,0.406,-0.616
1742984,-8666.0,-3097.0,-2079.0,0.144,0.659,0.403,-0.618
1743000,-9014.0,-3303.0,-1943.0,0.147,0.658,0.401,-0.621
1743016,-9534.0,-3683.0,-1727.0,0.149,0.656,0.399,-0.623
1743033,-10058.0,-3473.0,-2041.0,0.152,0.655,0.397,-0.625
1743050,-11578.0,-3961.0,-1913.0,0.154,0.654,0.395,-0.627
1743067,-11308.0,-4955.0,-2247.0,0.156,0.653,0.394,-0.628
1743083,-12206.0,-4499.0,-2085.0,0.156,0.652,0.394,-0.629
1743100,-12700.0,-4779.0,-1891.0,0.156,0.651,0.395,-0.629
1743117,-12122.0,-4635.0,-2031.0,0.156,0.65,0.397,-0.629
1743144,-11564.0,-4395.0,-1777.0,0.156,0.649,0.399,-0.629
1743160,-11084.0,-4607.0,-1893.0,0.156,0.648,0.401,-0.628
1743176,-9882.0,-4257.0,-2069.0,0.154,0.647,0.405,-0.627
1743192,-10298.0,-3925.0,-1631.0,0.152,0.647,0.408,-0.626
1743208,-10236.0,-3855.0,-1399.0,0.15,0.647,0.412,-0.624
1743224,-9268.0,-2899.0,-2005.0,0.149,0.647,0.416,-0.622
1743241,-8616.0,-3577.0,-1707.0,0.147,0.647,0.419,-0.62
1743267,-8656.0,-3465.0,-1697.0,0.145,0.647,0.422,-0.618
1743284,-8532.0,-2813.0,-1871.0,0.143,0.648,0.426,-0.615
1743301,-8776.0,-3141.0,-1391.0,0.141,0.648,0.429,-0.613
1743318,-8772.0,-3149.0,-1543.0,0.141,0.648,0.43,-0.612
1743335,-7966.0,-3147.0,-1773.0,0.14,0.649,0.431,-0.611
1743352,-8112.0,-3009.0,-1535.0,0.14,0.648,0.431,-0.611
1743368,-8452.0,-2667.0,-2299.0,0.14,0.649,0.431,-0.611
1743385,-7758.0,-2763.0,-2101.0,0.141,0.649,0.431,-0.611
1743401,-7244.0,-3249.0,-2057.0,0.141,0.649,0.43,-0.611
1743418,-8422.0,-3457.0,-2227.0,0.142,0.649,0.429,-0.612
1743444,-8176.0,-2113.0,-2497.0,0.142,0.65,0.429,-0.611
1743460,-6976.0,-2969.0,-1983.0,0.143,0.651,0.428,-0.611
1743476,-8140.0,-3377.0,-1759.0,0.144,0.652,0.426,-0.611
1743492,-8732.0,-2859.0,-2087.0,0.145,0.652,0.424,-0.612
1743509,-7094.0,-2649.0,-1895.0,0.147,0.652,0.42,-0.613
1743525,-6850.0,-2783.0,-2577.0,0.15,0.653,0.416,-0.615
1743551,-8640.0,-2819.0,-1819.0,0.153,0.653,0.412,-0.617
1743568,-7856.0,-2823.0,-1487.0,0.157,0.653,0.406,-0.62
1743585,-7838.0,-1783.0,-1159.0,0.162,0.651,0.398,-0.625
1743602,-6926.0,-2257.0,-1939.0,0.17,0.649,0.391,-0.631
1743619,-6054.0,-1791.0,-1733.0,0.178,0.646,0.382,-0.636
1743636,-5194.0,-1295.0,-1405.0,0.186,0.644,0.374,-0.641
1743653,-4436.0,283.0,-895.0,0.198,0.641,0.365,-0.645
1743670,-2970.0,-533.0,-417.0,0.212,0.638,0.357,-0.649
1743687,-1592.0,271.0,-361.0,0.228,0.635,0.35,-0.65
1743704,-130.0,1003.0,-1155.0,0.242,0.632,0.348,-0.649
1743721,526.0,-1341.0,-1281.0,0.252,0.632,0.348,-0.645
1743738,88.0,-3339.0,-1229.0,0.256,0.635,0.349,-0.64
1743755,-526.0,-2367.0,-743.0,0.253,0.64,0.349,-0.636
1743772,-1386.0,-543.0,-213.0,0.247,0.645,0.35,-0.632
1743799,-2070.0,-223.0,-229.0,0.241,0.649,0.355,-0.628
1743816,-3220.0,-2469.0,-1367.0,0.233,0.651,0.364,-0.624
1743832,-5016.0,-5691.0,-1557.0,0.218,0.652,0.373,-0.622
1743848,-1280.0,-2153.0,3345.0,0.2,0.655,0.379,-0.622
1743864,-1094.0,2193.0,-339.0,0.185,0.656,0.39,-0.619
1743881,-4504.0,-775.0,-1527.0,0.172,0.658,0.399,-0.615
1743898,-8206.0,81.0,-903.0,0.163,0.658,0.408,-0.611
1743914,-6056.0,-2193.0,-1119.0,0.157,0.658,0.415,-0.609
1743931,-7546.0,-4237.0,-3541.0,0.15,0.658,0.42,-0.607
1743958,-8944.0,47.0,-2967.0,0.145,0.658,0.426,-0.604
1743974,-7620.0,-3533.0,-2113.0,0.142,0.658,0.433,-0.6
1743990,-9206.0,-4331.0,-3583.0,0.138,0.658,0.436,-0.598
1744007,-9044.0,-2565.0,-3015.0,0.135,0.657,0.44,-0.597
1744024,-8874.0,-2955.0,-2099.0,0.134,0.656,0.444,-0.595
1744040,-9392.0,-3927.0,-2957.0,0.133,0.655,0.445,-0.596
1744057,-8652.0,-3877.0,-3083.0,0.134,0.654,0.445,-0.596
1744074,-9398.0,-3495.0,-2335.0,0.133,0.653,0.446,-0.597
1744100,-9314.0,-3405.0,-3163.0,0.135,0.652,0.445,-0.599
1744117,-9176.0,-4005.0,-2569.0,0.137,0.65,0.443,-0.602
1744134,-9328.0,-3713.0,-2773.0,0.138,0.648,0.441,-0.605
1744150,-8658.0,-3279.0,-2963.0,0.14,0.646,0.44,-0.608
1744167,-8166.0,-4171.0,-2699.0,0.14,0.645,0.438,-0.61
1744183,-9502.0,-3333.0,-2273.0,0.14,0.644,0.438,-0.612
1744200,-8268.0,-3535.0,-2553.0,0.14,0.643,0.436,-0.614
1744217,-8852.0,-3947.0,-1835.0,0.14,0.642,0.435,-0.616
1744233,-9332.0,-3777.0,-1765.0,0.141,0.641,0.432,-0.618
1744250,-8518.0,-3271.0,-2113.0,0.143,0.64,0.43,-0.621
1744277,-8288.0,-3335.0,-1575.0,0.144,0.639,0.427,-0.623
1744293,-8672.0,-2979.0,-1547.0,0.146,0.638,0.425,-0.626
1744309,-8232.0,-3307.0,-1635.0,0.148,0.636,0.422,-0.628
1744325,-8450.0,-3123.0,-1617.0,0.151,0.635,0.421,-0.63
1744342,-7652.0,-3921.0,-1533.0,0.152,0.635,0.42,-0.631
1744358,-8064.0,-2731.0,-1635.0,0.153,0.635,0.419,-0.631
1744374,-7980.0,-3385.0,-1513.0,0.153,0.635,0.418,-0.631
1744400,-8110.0,-3115.0,-1559.0,0.154,0.636,0.417,-0.631
1744417,-9140.0,-3459.0,-1855.0,0.156,0.637,0.417,-0.629
1744434,-10436.0,-4077.0,-1221.0,0.158,0.638,0.416,-0.628
1744451,-9598.0,-3901.0,-1817.0,0.16,0.64,0.416,-0.627
1744468,-10916.0,-4861.0,-2137.0,0.16,0.641,0.416,-0.625
1744484,-11098.0,-4335.0,-1761.0,0.159,0.642,0.418,-0.623
1744501,-10820.0,-4061.0,-2063.0,0.158,0.643,0.42,-0.62
1744518,-10510.0,-4445.0,-1989.0,0.157,0.644,0.423,-0.618
1744535,-9886.0,-4595.0,-1847.0,0.155,0.646,0.426,-0.615
1744551,-10202.0,-4229.0,-2199.0,0.152,0.647,0.429,-0.612
1744578,-9744.0,-3911.0,-2265.0,0.149,0.647,0.433,-0.609
1744594,-10062.0,-4051.0,-2091.0,0.146,0.647,0.437,-0.607
1744610,-9366.0,-4087.0,-2527.0,0.143,0.647,0.441,-0.605
1744626,-9480.0,-3557.0,-2279.0,0.14,0.645,0.445,-0.605
1744642,-9082.0,-3781.0,-2009.0,0.138,0.644,0.448,-0.604
1744659,-8286.0,-3507.0,-2281.0,0.135,0.642,0.451,-0.605
1744675,-8276.0,-3791.0,-2039.0,0.133,0.64,0.454,-0.605
1744701,-8300.0,-3417.0,-1801.0,0.131,0.638,0.457,-0.606
1744718,-7986.0,-3271.0,-2133.0,0.13,0.637,0.459,-0.606
1744735,-7392.0,-3537.0,-2433.0,0.128,0.636,0.46,-0.606
1744752,-7806.0,-3707.0,-1861.0,0.126,0.635,0.462,-0.606
1744769,-8048.0,-3187.0,-2235.0,0.125,0.635,0.464,-0.605
1744786,-7702.0,-3261.0,-2213.0,0.124,0.636,0.465,-0.604
1744803,-7440.0,-3435.0,-2079.0,0.124,0.636,0.465,-0.603
1744820,-8174.0,-3437.0,-1841.0,0.124,0.637,0.466,-0.602
1744837,-7410.0,-3465.0,-1901.0,0.124,0.637,0.466,-0.601
1744854,-6946.0,-3423.0,-1967.0,0.124,0.638,0.465,-0.601
1744871,-7076.0,-3675.0,-1763.0,0.124,0.639,0.465,-0.601
1744887,-7852.0,-3155.0,-1991.0,0.125,0.64,0.464,-0.6
1744914,-6968.0,-4063.0,-1903.0,0.126,0.642,0.461,-0.6
1744930,-7458.0,-2815.0,-1875.0,0.128,0.644,0.458,-0.599
1744947,-7882.0,-2323.0,-1939.0,0.131,0.645,0.455,-0.599
1744963,-6674.0,-4037.0,-2347.0,0.135,0.647,0.453,-0.599
1744979,-7398.0,-2473.0,-1869.0,0.138,0.648,0.45,-0.599
1744995,-7102.0,-3021.0,-1935.0,0.142,0.649,0.446,-0.599
1745011,-7392.0,-2231.0,-2417.0,0.146,0.651,0.442,-0.599
1745037,-6928.0,-2743.0,-1963.0,0.15,0.652,0.438,-0.6
1745054,-6800.0,-2011.0,-1891.0,0.155,0.653,0.434,-0.6
1745071,-7234.0,-2711.0,-1757.0,0.16,0.655,0.429,-0.601
1745088,-7112.0,-1947.0,-1797.0,0.167,0.655,0.424,-0.603
1745105,-6612.0,-1073.0,-2151.0,0.175,0.655,0.417,-0.605
1745122,-6180.0,-1391.0,-2089.0,0.186,0.656,0.411,-0.605
1745139,-5234.0,-1407.0,-1661.0,0.197,0.657,0.404,-0.605
1745156,-5490.0,-1829.0,-1327.0,0.209,0.657,0.397,-0.605
1745173,-4774.0,-2655.0,-1669.0,0.22,0.658,0.39,-0.606
1745190,-5312.0,137.0,-929.0,0.228,0.659,0.382,-0.607
1745207,-4354.0,-521.0,-469.0,0.239,0.658,0.377,-0.607
1745223,-4030.0,-2275.0,-773.0,0.248,0.657,0.372,-0.607
1745250,-3580.0,-2389.0,-1069.0,0.252,0.656,0.369,-0.608
1745267,-3500.0,-1013.0,-479.0,0.254,0.657,0.367,-0.607
1745284,-3804.0,-1065.0,-439.0,0.254,0.657,0.368,-0.606
1745301,-4018.0,-3273.0,-1375.0,0.252,0.659,0.37,-0.605
1745318,-5828.0,-913.0,-459.0,0.244,0.662,0.371,-0.604
1745335,-7008.0,45.0,-131.0,0.24,0.662,0.376,-0.602
1745352,-7132.0,-3247.0,-1657.0,0.236,0.662,0.38,-0.602
1745369,-8546.0,-923.0,-1593.0,0.229,0.663,0.383,-0.601
1745386,-9626.0,-401.0,-1369.0,0.225,0.663,0.387,-0.6
1745403,-9634.0,-2161.0,-1875.0,0.222,0.663,0.39,-0.6
1745420,-9160.0,-2133.0,-2339.0,0.218,0.662,0.393,-0.599
1745437,-9612.0,-1581.0,-1881.0,0.215,0.663,0.395,-0.598
1745454,-9298.0,-1841.0,-1807.0,0.212,0.664,0.397,-0.597
1745471,-8190.0,-2169.0,-1991.0,0.21,0.665,0.398,-0.596
1745498,-8266.0,-1841.0,-1701.0,0.207,0.667,0.4,-0.594
1745515,-8356.0,-1395.0,-1643.0,0.205,0.669,0.4,-0.592
1745532,-7304.0,-2053.0,-1637.0,0.204,0.67,0.401,-0.59
1745549,-7012.0,-1929.0,-1553.0,0.203,0.672,0.402,-0.588
1745566,-7268.0,-2175.0,-1573.0,0.201,0.674,0.403,-0.585
1745582,-7088.0,-1689.0,-1489.0,0.199,0.676,0.404,-0.583
1745599,-7072.0,-1923.0,-1505.0,0.197,0.678,0.405,-0.58
1745615,-7150.0,-2007.0,-1767.0,0.195,0.681,0.406,-0.578
1745632,-7382.0,-1649.0,-1691.0,0.193,0.683,0.406,-0.575
1745649,-7254.0,-1495.0,-1881.0,0.191,0.686,0.407,-0.572
1745666,-7198.0,-1917.0,-2113.0,0.188,0.688,0.409,-0.569
1745693,-7238.0,-1839.0,-2341.0,0.185,0.692,0.41,-0.565
1745709,-7498.0,-1441.0,-2255.0,0.182,0.695,0.411,-0.561
1745725,-6944.0,-2035.0,-2547.0,0.179,0.698,0.412,-0.557
1745741,-7026.0,-1857.0,-2705.0,0.176,0.702,0.414,-0.553
1745757,-6810.0,-1751.0,-2827.0,0.172,0.705,0.415,-0.548
1745773,-6908.0,-2235.0,-2977.0,0.167,0.709,0.417,-0.543
1745799,-7550.0,-1871.0,-2941.0,0.163,0.713,0.418,-0.538
1745816,-7490.0,-1925.0,-2911.0,0.159,0.717,0.42,-0.534
1745832,-7338.0,-2327.0,-3263.0,0.156,0.72,0.421,-0.529
1745849,-7374.0,-1901.0,-3415.0,0.153,0.723,0.422,-0.525
1745866,-7338.0,-2389.0,-3357.0,0.15,0.726,0.424,-0.52
1745883,-7210.0,-2445.0,-3649.0,0.148,0.729,0.425,-0.516
1745900,-7236.0,-2253.0,-3825.0,0.145,0.731,0.427,-0.512
1745916,-7030.0,-2009.0,-3791.0,0.144,0.733,0.428,-0.508
1745932,-7076.0,-2161.0,-4211.0,0.142,0.735,0.429,-0.505
1745958,-6750.0,-2023.0,-4265.0,0.14,0.738,0.431,-0.501
1745974,-6878.0,-2427.0,-4075.0,0.138,0.74,0.432,-0.497
1745990,-7136.0,-2077.0,-4277.0,0.137,0.741,0.433,-0.494
1746006,-6846.0,-2051.0,-4433.0,0.135,0.743,0.435,-0.491
1746023,-7024.0,-1879.0,-4279.0,0.134,0.744,0.436,-0.489
1746040,-6838.0,-2275.0,-4533.0,0.134,0.745,0.437,-0.486
1746056,-6564.0,-2161.0,-4557.0,0.133,0.746,0.438,-0.484
1746073,-6704.0,-1955.0,-4285.0,0.132,0.747,0.439,-0.482
1746099,-6704.0,-1773.0,-4449.0,0.131,0.747,0.441,-0.479
1746116,-6606.0,-2115.0,-4229.0,0.131,0.748,0.442,-0.477
1746133,-6428.0,-2253.0,-4307.0,0.13,0.749,0.443,-0.475
1746150,-6638.0,-1703.0,-4579.0,0.129,0.75,0.444,-0.473
1746167,-6462.0,-1725.0,-4441.0,0.129,0.751,0.445,-0.471
1746183,-6382.0,-2095.0,-4439.0,0.128,0.752,0.446,-0.468
1746199,-18.0,3601.0,2939.0,0.128,0.752,0.449,-0.466
1746216,-352.0,1891.0,-683.0,0.129,0.75,0.451,-0.466
1746232,-8526.0,-3151.0,-6833.0,0.128,0.75,0.451,-0.466
1746258,-6648.0,-4411.0,-5543.0,0.129,0.75,0.452,-0.465
1746274,-7506.0,-2615.0,-1921.0,0.129,0.751,0.454,-0.462
1746290,-8528.0,-1481.0,-6271.0,0.128,0.751,0.457,-0.459
1746306,-5906.0,-1671.0,-4699.0,0.129,0.751,0.459,-0.457
1746323,-5930.0,-2779.0,-1193.0,0.129,0.751,0.462,-0.454
1746339,-5846.0,-439.0,-4791.0,0.128,0.752,0.463,-0.452
1746356,-4536.0,-1197.0,-4325.0,0.129,0.752,0.465,-0.45
1746382,-6692.0,-2133.0,-2861.0,0.128,0.752,0.467,-0.447
1746399,-7904.0,-1449.0,-6093.0,0.128,0.753,0.468,-0.444
1746416,-6190.0,-2691.0,-5389.0,0.129,0.753,0.471,-0.441
1746432,-7106.0,-3039.0,-3459.0,0.129,0.754,0.473,-0.438
1746449,-7960.0,-2895.0,-13223.0,0.133,0.749,0.476,-0.442
1746465,-3222.0,141.0,91.0,0.129,0.747,0.478,-0.443
1746481,-6074.0,-413.0,-10385.0,0.131,0.745,0.48,-0.446
1746507,-4206.0,-2471.0,-2569.0,0.133,0.742,0.481,-0.448
1746523,-7226.0,-3759.0,3067.0,0.131,0.742,0.483,-0.447
1746539,-7990.0,-617.0,-13385.0,0.129,0.74,0.484,-0.449
1746555,-1872.0,-929.0,-1797.0,0.13,0.739,0.487,-0.448
1746571,-7098.0,-4033.0,285.0,0.127,0.74,0.488,-0.444
1746587,-6770.0,337.0,-10725.0,0.126,0.741,0.489,-0.444
1746613,-1804.0,-449.0,1447.0,0.126,0.741,0.492,-0.44
1746629,-6982.0,-3011.0,201.0,0.122,0.743,0.494,-0.435
1746646,-4110.0,3159.0,-4499.0,0.121,0.742,0.496,-0.434
1746662,-5236.0,-2247.0,-1191.0,0.122,0.742,0.499,-0.43
1746679,-5972.0,879.0,-13535.0,0.119,0.741,0.499,-0.432
1746695,-8620.0,-3359.0,-7963.0,0.119,0.74,0.5,-0.433
1746711,-7734.0,-2391.0,-7049.0,0.119,0.74,0.502,-0.431
1746728,-16676.0,-10143.0,-19467.0,0.119,0.738,0.504,-0.432
1746754,-6186.0,585.0,-977.0,0.122,0.737,0.504,-0.432
1746770,-7648.0,-5343.0,-9977.0,0.12,0.736,0.505,-0.434
1746787,-4252.0,203.0,-3339.0,0.121,0.736,0.505,-0.434
1746804,-2548.0,1237.0,2135.0,0.12,0.735,0.507,-0.434
1746821,-5902.0,-3187.0,-5821.0,0.118,0.735,0.508,-0.433
1746838,-9570.0,-1983.0,-7057.0,0.116,0.735,0.509,-0.433
1746855,-3436.0,-3547.0,-3425.0,0.117,0.734,0.511,-0.431
1746872,-9432.0,-5605.0,-9869.0,0.115,0.735,0.513,-0.429
