timeMs,ax,ay,az,q0,q1,q2,q3
2212346,-4791.0,70.0,-6241.0,0.099,0.773,0.509,-0.366
2212362,-3719.0,-1486.0,-6177.0,0.098,0.775,0.522,-0.341
2212378,-3549.0,-1754.0,-6277.0,0.095,0.778,0.533,-0.319
2212395,-4671.0,-918.0,-6669.0,0.095,0.779,0.54,-0.303
2212411,-2953.0,-360.0,-7017.0,0.099,0.781,0.545,-0.288
2212427,-2941.0,220.0,-7319.0,0.108,0.783,0.548,-0.275
2212453,-1791.0,-1338.0,-7735.0,0.121,0.784,0.549,-0.262
2212470,-1739.0,-2372.0,-8301.0,0.131,0.786,0.548,-0.255
2212487,-1057.0,-1556.0,-9061.0,0.143,0.786,0.545,-0.254
2212504,3593.0,1442.0,-6929.0,0.157,0.786,0.543,-0.249
2212521,1657.0,-7320.0,-4779.0,0.156,0.786,0.547,-0.244
2212537,3353.0,1354.0,-3627.0,0.149,0.787,0.547,-0.244
2212553,2299.0,252.0,-2909.0,0.145,0.787,0.552,-0.237
2212569,-5049.0,-1240.0,-3711.0,0.141,0.788,0.55,-0.235
2212586,-7229.0,96.0,-5861.0,0.14,0.792,0.545,-0.238
2212613,-7007.0,-1078.0,-8499.0,0.144,0.793,0.539,-0.242
2212630,-6171.0,-1226.0,-10151.0,0.151,0.795,0.534,-0.244
2212647,-5593.0,-1694.0,-11171.0,0.161,0.795,0.532,-0.243
2212664,-5861.0,-262.0,-9831.0,0.171,0.794,0.532,-0.239
2212681,-5417.0,462.0,-7915.0,0.179,0.793,0.532,-0.237
2212698,-5903.0,1542.0,-8637.0,0.186,0.792,0.53,-0.239
2212715,-2535.0,4492.0,-8667.0,0.191,0.79,0.529,-0.244
2212731,3699.0,5500.0,-6861.0,0.196,0.782,0.537,-0.248
2212747,-137.0,-858.0,-6665.0,0.198,0.777,0.543,-0.249
2212764,-2145.0,-1378.0,-7195.0,0.2,0.777,0.543,-0.249
2212781,-3779.0,-434.0,-6631.0,0.198,0.778,0.541,-0.252
2212808,-5055.0,-840.0,-6235.0,0.197,0.779,0.538,-0.255
2212824,-6495.0,-540.0,-6883.0,0.195,0.78,0.536,-0.258
2212842,-5495.0,582.0,-5891.0,0.194,0.781,0.535,-0.259
2212858,-6727.0,812.0,-6989.0,0.194,0.781,0.535,-0.259
2212874,-6025.0,-242.0,-6059.0,0.192,0.781,0.535,-0.258
2212890,-4541.0,-244.0,-6721.0,0.191,0.781,0.537,-0.257
2212906,-3925.0,304.0,-8407.0,0.192,0.778,0.542,-0.253
2212922,-5809.0,-1956.0,-5485.0,0.19,0.776,0.544,-0.256
2212949,-4521.0,2980.0,-5705.0,0.19,0.773,0.547,-0.259
2212966,-4141.0,486.0,-6943.0,0.192,0.769,0.55,-0.261
2212983,-3027.0,-1704.0,-7843.0,0.192,0.767,0.553,-0.263
2213000,-3859.0,-806.0,-7745.0,0.188,0.765,0.556,-0.265
2213017,-5161.0,408.0,-6435.0,0.185,0.764,0.558,-0.267
2213034,-5467.0,654.0,-6059.0,0.183,0.763,0.559,-0.268
2213051,-4621.0,254.0,-6349.0,0.182,0.762,0.56,-0.269
2213068,-5079.0,264.0,-6629.0,0.182,0.762,0.56,-0.27
2213085,-4707.0,-244.0,-6807.0,0.182,0.762,0.56,-0.27
2213102,-4685.0,-220.0,-6541.0,0.182,0.762,0.559,-0.27
2213119,-4627.0,10.0,-6705.0,0.182,0.763,0.559,-0.27
2213136,-4361.0,136.0,-7307.0,0.182,0.764,0.558,-0.268
2213162,-3377.0,444.0,-7461.0,0.181,0.766,0.558,-0.265
2213178,-4447.0,-36.0,-6581.0,0.179,0.768,0.557,-0.26
2213194,-4799.0,810.0,-7449.0,0.178,0.771,0.556,-0.254
2213210,-4261.0,-910.0,-7925.0,0.176,0.775,0.555,-0.246
2213226,-4141.0,-794.0,-7703.0,0.172,0.778,0.555,-0.238
2213242,-4469.0,-222.0,-6915.0,0.166,0.782,0.555,-0.23
2213268,-4053.0,660.0,-7121.0,0.162,0.785,0.556,-0.222
2213284,-4083.0,172.0,-6955.0,0.158,0.788,0.555,-0.213
2213300,-4323.0,226.0,-7213.0,0.155,0.791,0.554,-0.206
2213317,-4863.0,-266.0,-6523.0,0.153,0.795,0.552,-0.201
2213334,-5331.0,44.0,-6253.0,0.152,0.797,0.55,-0.198
2213351,-4857.0,-470.0,-6421.0,0.152,0.799,0.548,-0.196
2213368,-4591.0,-46.0,-6745.0,0.153,0.8,0.546,-0.196
2213385,-4593.0,-132.0,-6683.0,0.155,0.801,0.544,-0.198
2213401,-4459.0,174.0,-6849.0,0.158,0.801,0.542,-0.202
2213418,-4439.0,-142.0,-7037.0,0.161,0.8,0.54,-0.206
2213445,-4433.0,36.0,-6715.0,0.165,0.799,0.539,-0.211
2213461,-4077.0,450.0,-6765.0,0.17,0.797,0.537,-0.217
2213477,-4171.0,266.0,-6811.0,0.175,0.795,0.537,-0.222
2213493,-4465.0,-332.0,-7647.0,0.18,0.793,0.537,-0.226
2213510,-4381.0,-1058.0,-7603.0,0.184,0.789,0.54,-0.228
2213527,-3817.0,842.0,-7491.0,0.187,0.785,0.544,-0.23
2213543,-3779.0,1198.0,-7387.0,0.19,0.782,0.547,-0.231
2213569,-4255.0,600.0,-6519.0,0.191,0.781,0.547,-0.232
2213586,-4475.0,854.0,-6013.0,0.193,0.78,0.546,-0.236
2213603,-3555.0,546.0,-7977.0,0.195,0.781,0.544,-0.239
2213619,-5093.0,-2022.0,-7391.0,0.196,0.78,0.541,-0.244
2213636,-5207.0,-2026.0,-5537.0,0.193,0.781,0.537,-0.254
2213653,-6479.0,-276.0,-5951.0,0.191,0.782,0.532,-0.263
2213670,-5515.0,800.0,-5739.0,0.192,0.782,0.529,-0.268
2213687,-4943.0,1504.0,-7301.0,0.192,0.782,0.528,-0.27
2213703,-4405.0,206.0,-9343.0,0.192,0.779,0.532,-0.271
2213720,-3987.0,644.0,-8015.0,0.189,0.775,0.538,-0.271
2213737,-3579.0,974.0,-6193.0,0.187,0.77,0.546,-0.271
2213763,-5041.0,104.0,-6643.0,0.189,0.766,0.552,-0.271
2213780,-4083.0,-1058.0,-5045.0,0.193,0.762,0.555,-0.272
2213797,-3249.0,-2392.0,-5571.0,0.195,0.759,0.558,-0.273
2213814,-4919.0,-2936.0,-5785.0,0.194,0.758,0.559,-0.275
2213831,-4745.0,-2530.0,-5887.0,0.192,0.757,0.56,-0.276
2213848,-5519.0,-4360.0,-6717.0,0.184,0.759,0.559,-0.279
2213865,-6679.0,332.0,-8241.0,0.172,0.763,0.555,-0.285
2213882,-6479.0,3772.0,-9491.0,0.17,0.766,0.55,-0.286
2213899,-6969.0,2838.0,-9171.0,0.178,0.768,0.547,-0.283
2213916,-6537.0,1254.0,-9155.0,0.187,0.769,0.543,-0.28
2213934,-5267.0,2128.0,-7675.0,0.195,0.769,0.542,-0.279
2213950,-2825.0,270.0,-2079.0,0.193,0.77,0.541,-0.278
2213967,-6723.0,662.0,-2645.0,0.192,0.771,0.541,-0.277
2213994,-5081.0,-2688.0,-4937.0,0.195,0.772,0.539,-0.276
2214010,-5023.0,-1604.0,-6855.0,0.195,0.773,0.536,-0.279
2214027,-4813.0,1118.0,-7721.0,0.194,0.773,0.534,-0.281
2214043,-5189.0,-668.0,-7061.0,0.196,0.772,0.535,-0.281
2214060,-6177.0,-422.0,-5739.0,0.198,0.771,0.536,-0.283
2214077,-5991.0,430.0,-4967.0,0.203,0.768,0.537,-0.284
2214094,-6045.0,-806.0,-7093.0,0.207,0.767,0.538,-0.283
2214111,-5471.0,-4240.0,-8961.0,0.206,0.765,0.539,-0.285
2214127,-4203.0,758.0,-6941.0,0.201,0.763,0.544,-0.287
2214153,-8307.0,1900.0,-4461.0,0.199,0.758,0.549,-0.291
2214169,-5621.0,112.0,-5643.0,0.2,0.753,0.551,-0.298
2214186,-3067.0,208.0,-7695.0,0.201,0.751,0.55,-0.305
2214202,-3349.0,1688.0,-7659.0,0.203,0.75,0.549,-0.308
2214219,-4901.0,-1702.0,-7383.0,0.206,0.75,0.547,-0.31
2214236,-4723.0,-362.0,-9121.0,0.208,0.75,0.545,-0.312
2214252,-5913.0,-756.0,-7713.0,0.21,0.75,0.543,-0.315
2214269,-5735.0,288.0,-9095.0,0.213,0.749,0.54,-0.319
2214286,-6897.0,-550.0,-8519.0,0.216,0.748,0.538,-0.323
2214312,-6229.0,-170.0,-8563.0,0.218,0.746,0.535,-0.33
2214329,-5921.0,588.0,-9041.0,0.222,0.745,0.531,-0.338
2214346,-7305.0,-314.0,-8179.0,0.226,0.742,0.528,-0.345
2214363,-7267.0,-484.0,-7509.0,0.232,0.738,0.524,-0.356
2214380,-6667.0,182.0,-7947.0,0.238,0.733,0.519,-0.369
2214397,-6575.0,-66.0,-8447.0,0.244,0.727,0.515,-0.382
2214414,-6435.0,252.0,-7401.0,0.25,0.722,0.511,-0.395
2214431,-8039.0,-108.0,-5871.0,0.255,0.716,0.506,-0.408
2214448,-7589.0,-250.0,-6531.0,0.262,0.71,0.499,-0.421
2214465,-7681.0,-76.0,-5789.0,0.269,0.704,0.492,-0.436
2214482,-7295.0,294.0,-5437.0,0.277,0.698,0.484,-0.449
2214499,-8537.0,-550.0,-5049.0,0.285,0.692,0.476,-0.461
2214516,-8851.0,880.0,-3593.0,0.294,0.686,0.466,-0.474
2214533,-7617.0,452.0,-3099.0,0.306,0.68,0.454,-0.487
2214560,-7375.0,1466.0,-2363.0,0.32,0.674,0.441,-0.499
2214576,-6289.0,202.0,-1355.0,0.335,0.667,0.427,-0.511
2214592,-4617.0,472.0,-551.0,0.349,0.659,0.414,-0.521
2214608,-3795.0,-1548.0,-457.0,0.363,0.652,0.402,-0.531
2214625,-3069.0,-1196.0,-111.0,0.374,0.646,0.391,-0.538
2214641,-1873.0,-1702.0,-55.0,0.382,0.641,0.384,-0.544
2214657,-2379.0,-3026.0,-475.0,0.387,0.638,0.378,-0.548
2214683,-3083.0,-1476.0,535.0,0.387,0.636,0.375,-0.552
2214699,-3631.0,-1554.0,903.0,0.384,0.636,0.376,-0.554
2214715,-4411.0,-52.0,947.0,0.381,0.635,0.378,-0.556
2214731,-5563.0,868.0,1329.0,0.379,0.634,0.38,-0.557
2214747,-6523.0,-1072.0,665.0,0.378,0.633,0.382,-0.558
2214764,-7335.0,572.0,1037.0,0.376,0.631,0.384,-0.559
2214781,-6317.0,58.0,315.0,0.375,0.628,0.388,-0.561
2214808,-5365.0,488.0,43.0,0.373,0.626,0.392,-0.561
2214824,-4085.0,394.0,-1099.0,0.371,0.625,0.396,-0.561
2214840,-4161.0,-1444.0,-1073.0,0.367,0.625,0.402,-0.56
2214857,-5683.0,-844.0,479.0,0.359,0.625,0.407,-0.561
2214874,-4937.0,956.0,71.0,0.353,0.623,0.413,-0.562
2214890,-4463.0,1022.0,-193.0,0.349,0.619,0.419,-0.564
2214907,-4631.0,-664.0,-1525.0,0.346,0.616,0.426,-0.565
2214924,-4895.0,196.0,-1409.0,0.341,0.612,0.434,-0.566
2214950,-4881.0,-108.0,-447.0,0.335,0.611,0.441,-0.566
2214967,-5977.0,-378.0,-1127.0,0.33,0.61,0.447,-0.565
2214983,-6679.0,-200.0,-1141.0,0.325,0.61,0.452,-0.564
2215000,-5917.0,240.0,-675.0,0.32,0.611,0.458,-0.56
2215016,-7095.0,-850.0,-1175.0,0.316,0.613,0.464,-0.557
2215033,-8819.0,-1340.0,-963.0,0.311,0.614,0.469,-0.553
2215050,-7815.0,-324.0,43.0,0.308,0.615,0.472,-0.551
2215066,-7577.0,-898.0,-1755.0,0.306,0.617,0.476,-0.548
2215083,-10691.0,-998.0,-909.0,0.304,0.617,0.48,-0.545
2215109,-8733.0,-1848.0,315.0,0.304,0.616,0.482,-0.543
2215126,-9387.0,-260.0,-1187.0,0.303,0.616,0.484,-0.543
2215142,-10835.0,-1738.0,-1995.0,0.305,0.615,0.485,-0.542
2215159,-11023.0,-1188.0,-449.0,0.306,0.615,0.485,-0.541
2215175,-12043.0,-2234.0,-1529.0,0.308,0.616,0.483,-0.541
2215192,-14025.0,-2692.0,-1705.0,0.31,0.616,0.479,-0.543
2215208,-12941.0,-1428.0,-2853.0,0.312,0.616,0.477,-0.543
2215225,-14893.0,-2274.0,-3905.0,0.313,0.617,0.476,-0.543
2215241,-17491.0,-3224.0,-2897.0,0.314,0.619,0.474,-0.542
2215268,-17987.0,-3630.0,-2423.0,0.314,0.62,0.473,-0.542
2215285,-15663.0,-574.0,-6169.0,0.312,0.621,0.473,-0.541
2215302,-16823.0,-3102.0,-4381.0,0.31,0.623,0.476,-0.538
2215319,-17643.0,-2960.0,-2075.0,0.307,0.625,0.479,-0.535
2215336,-16167.0,-2776.0,-3307.0,0.305,0.624,0.482,-0.534
2215353,-13417.0,-1606.0,-4123.0,0.302,0.622,0.485,-0.536
2215370,-11895.0,-1364.0,-3537.0,0.299,0.619,0.489,-0.537
2215387,-13235.0,-1628.0,-3019.0,0.296,0.616,0.493,-0.539
2215403,-11497.0,-2184.0,-2597.0,0.294,0.612,0.495,-0.542
2215419,-9657.0,-1420.0,-2519.0,0.292,0.608,0.497,-0.545
2215436,-8877.0,-646.0,-3855.0,0.291,0.604,0.5,-0.548
2215463,-8985.0,-956.0,-2035.0,0.291,0.6,0.502,-0.551
2215480,-9453.0,-824.0,-781.0,0.294,0.596,0.501,-0.554
2215497,-8035.0,-2260.0,-2433.0,0.298,0.593,0.499,-0.558
2215514,-6645.0,-1974.0,-1851.0,0.299,0.588,0.497,-0.563
2215531,-6293.0,-754.0,-1439.0,0.302,0.585,0.495,-0.567
2215548,-5959.0,-394.0,-1993.0,0.305,0.583,0.493,-0.569
2215565,-6259.0,-1180.0,-651.0,0.31,0.581,0.49,-0.571
2215582,-5449.0,-1612.0,-697.0,0.315,0.581,0.486,-0.572
2215599,-5189.0,-1160.0,-1539.0,0.32,0.582,0.481,-0.572
2215616,-4825.0,-1126.0,-1153.0,0.324,0.583,0.477,-0.573
2215633,-5379.0,-794.0,-951.0,0.329,0.586,0.472,-0.571
2215650,-6043.0,-226.0,-1325.0,0.335,0.589,0.466,-0.569
2215667,-5205.0,-472.0,-1379.0,0.343,0.592,0.46,-0.567
2215684,-5997.0,-518.0,-815.0,0.351,0.596,0.452,-0.563
2215701,-5657.0,-638.0,-1021.0,0.362,0.599,0.442,-0.561
2215728,-4923.0,-1148.0,-629.0,0.373,0.603,0.429,-0.56
2215745,-4801.0,-284.0,349.0,0.385,0.605,0.414,-0.561
2215762,-3573.0,-214.0,-99.0,0.398,0.604,0.399,-0.563
2215779,-2351.0,-1308.0,-353.0,0.41,0.601,0.387,-0.566
2215795,-1013.0,-1320.0,-1527.0,0.419,0.598,0.38,-0.567
2215811,-107.0,-3044.0,-2317.0,0.422,0.597,0.379,-0.568
2215828,-301.0,-2780.0,-1863.0,0.417,0.597,0.383,-0.569
2215845,-883.0,-668.0,-645.0,0.407,0.599,0.39,-0.569
2215862,-897.0,-776.0,-239.0,0.394,0.6,0.401,-0.569
2215879,-1707.0,308.0,-589.0,0.381,0.601,0.413,-0.569
2215905,-2385.0,526.0,-579.0,0.369,0.601,0.426,-0.567
2215921,-3107.0,-1292.0,-899.0,0.355,0.601,0.439,-0.566
2215938,-4599.0,-608.0,-1121.0,0.339,0.603,0.45,-0.565
2215955,-5531.0,2110.0,-913.0,0.325,0.604,0.46,-0.564
2215972,-6013.0,-392.0,-1211.0,0.314,0.604,0.471,-0.561
2215989,-8837.0,-960.0,-1257.0,0.305,0.605,0.479,-0.559
2216006,-7859.0,192.0,-1867.0,0.299,0.606,0.485,-0.555
2216022,-7423.0,-2702.0,-1909.0,0.294,0.607,0.492,-0.551
2216038,-8271.0,-1752.0,-2147.0,0.288,0.608,0.498,-0.547
2216065,-7881.0,-810.0,-1703.0,0.284,0.609,0.503,-0.544
2216082,-8623.0,-1880.0,-1527.0,0.281,0.609,0.507,-0.542
2216099,-8407.0,-1434.0,-1965.0,0.278,0.609,0.51,-0.541
2216117,-7361.0,-1884.0,-1997.0,0.276,0.608,0.512,-0.54
2216134,-8535.0,-2248.0,-2467.0,0.273,0.608,0.515,-0.54
2216151,-9197.0,-1050.0,-2291.0,0.272,0.606,0.516,-0.541
2216168,-8737.0,-2854.0,-2467.0,0.272,0.605,0.516,-0.542
2216185,-9661.0,-1884.0,-3101.0,0.272,0.603,0.516,-0.544
2216202,-10429.0,-2360.0,-2591.0,0.273,0.601,0.515,-0.546
2216219,-11587.0,-3814.0,-2667.0,0.275,0.6,0.514,-0.548
2216236,-13633.0,-3372.0,-2925.0,0.276,0.6,0.511,-0.551
2216253,-13655.0,-3214.0,-3867.0,0.278,0.6,0.507,-0.553
2216269,-14271.0,-4698.0,-4685.0,0.28,0.601,0.505,-0.553
2216295,-16835.0,-4914.0,-4525.0,0.28,0.602,0.505,-0.552
2216312,-17583.0,-4654.0,-4147.0,0.279,0.604,0.504,-0.551
2216329,-17487.0,-4692.0,-4307.0,0.278,0.606,0.503,-0.549
2216346,-16065.0,-4338.0,-4549.0,0.277,0.607,0.505,-0.548
2216363,-15015.0,-4442.0,-4161.0,0.274,0.608,0.508,-0.546
2216380,-14903.0,-3966.0,-3079.0,0.271,0.608,0.511,-0.545
2216397,-14295.0,-3856.0,-2091.0,0.268,0.607,0.512,-0.545
2216414,-11925.0,-3338.0,-2737.0,0.267,0.606,0.512,-0.547
2216431,-10133.0,-3106.0,-3181.0,0.265,0.604,0.513,-0.549
2216448,-10387.0,-2798.0,-1927.0,0.264,0.602,0.513,-0.551
2216465,-9213.0,-3576.0,-1975.0,0.263,0.601,0.512,-0.555
2216482,-9529.0,-1636.0,-1911.0,0.263,0.599,0.509,-0.559
2216499,-8581.0,-1708.0,-1905.0,0.266,0.598,0.506,-0.562
2216516,-8133.0,-1730.0,-1967.0,0.269,0.596,0.502,-0.566
2216533,-7897.0,-2012.0,-1921.0,0.274,0.595,0.498,-0.569
2216560,-8355.0,-1860.0,-1369.0,0.279,0.593,0.492,-0.573
2216576,-7997.0,76.0,-2247.0,0.288,0.591,0.487,-0.575
2216592,-7889.0,-1578.0,-2143.0,0.299,0.587,0.485,-0.575
2216609,-7513.0,-2456.0,-1535.0,0.308,0.586,0.48,-0.576
2216626,-8051.0,-742.0,-1179.0,0.319,0.585,0.472,-0.578
2216643,-6665.0,-2198.0,-807.0,0.33,0.585,0.46,-0.58
2216659,-5801.0,1494.0,-301.0,0.344,0.585,0.447,-0.583
2216675,-3381.0,1804.0,-605.0,0.362,0.583,0.434,-0.583
2216701,-2457.0,872.0,-543.0,0.382,0.581,0.422,-0.581
2216718,-1843.0,-1490.0,-725.0,0.401,0.579,0.41,-0.579
2216735,-1101.0,-738.0,-825.0,0.415,0.579,0.397,-0.579
2216752,-509.0,-464.0,-545.0,0.426,0.578,0.387,-0.579
2216769,-283.0,-3786.0,-1911.0,0.433,0.579,0.379,-0.578
2216786,227.0,-3616.0,-1229.0,0.433,0.581,0.374,-0.579
2216802,-771.0,-694.0,-791.0,0.428,0.584,0.372,-0.58
2216819,-685.0,-3128.0,-159.0,0.418,0.587,0.375,-0.583
2216836,-1509.0,-1204.0,315.0,0.405,0.59,0.38,-0.586
2216853,-1105.0,-1152.0,-447.0,0.391,0.591,0.389,-0.589
2216879,-1763.0,884.0,-73.0,0.375,0.591,0.399,-0.592
2216896,-2641.0,230.0,-513.0,0.36,0.59,0.411,-0.594
2216913,-4285.0,-1082.0,-613.0,0.344,0.59,0.422,-0.597
2216930,-5677.0,4176.0,343.0,0.329,0.59,0.432,-0.598
2216946,-5371.0,-254.0,-1465.0,0.32,0.587,0.441,-0.598
2216963,-7121.0,-808.0,-1475.0,0.311,0.587,0.449,-0.598
2216980,-7767.0,156.0,-1641.0,0.304,0.587,0.456,-0.596
2216996,-8097.0,-1464.0,-1403.0,0.299,0.587,0.463,-0.593
2217013,-8309.0,-1524.0,-1065.0,0.293,0.588,0.469,-0.59
2217030,-8513.0,-2362.0,-1627.0,0.289,0.59,0.474,-0.586
2217047,-8171.0,-3154.0,-1427.0,0.284,0.592,0.479,-0.582
2217064,-8653.0,-1080.0,-739.0,0.28,0.594,0.482,-0.58
2217082,-8771.0,-2148.0,-1197.0,0.278,0.596,0.485,-0.577
2217109,-7851.0,-2690.0,-1275.0,0.275,0.597,0.487,-0.575
2217125,-8137.0,-1954.0,-767.0,0.274,0.598,0.489,-0.573
2217141,-8821.0,-2472.0,-1177.0,0.273,0.598,0.49,-0.572
2217157,-9363.0,-1664.0,-885.0,0.274,0.598,0.491,-0.571
2217173,-8677.0,-2590.0,-539.0,0.276,0.597,0.491,-0.571
2217189,-9685.0,-3650.0,-1563.0,0.276,0.596,0.491,-0.573
2217206,-10429.0,-1800.0,-1141.0,0.277,0.594,0.49,-0.575
2217232,-10387.0,-2910.0,-921.0,0.278,0.592,0.489,-0.576
2217248,-11813.0,-3780.0,-2105.0,0.28,0.591,0.488,-0.577
2217265,-12773.0,-3634.0,-2089.0,0.282,0.591,0.488,-0.578
2217282,-13703.0,-4168.0,-1767.0,0.283,0.591,0.487,-0.577
2217298,-16639.0,-4880.0,-2077.0,0.284,0.592,0.486,-0.576
2217314,-17029.0,-4876.0,-2145.0,0.285,0.593,0.484,-0.576
2217331,-16053.0,-4556.0,-3163.0,0.285,0.594,0.484,-0.576
2217357,-17043.0,-4546.0,-3331.0,0.284,0.595,0.485,-0.575
2217373,-16479.0,-3998.0,-2471.0,0.283,0.595,0.486,-0.574
2217389,-14987.0,-3922.0,-2239.0,0.282,0.595,0.489,-0.573
2217405,-13565.0,-3384.0,-2809.0,0.28,0.593,0.491,-0.573
2217421,-11823.0,-2928.0,-2241.0,0.278,0.592,0.494,-0.574
2217437,-11475.0,-2064.0,-1591.0,0.276,0.59,0.496,-0.574
2217463,-11043.0,-2166.0,-1469.0,0.275,0.588,0.498,-0.574
2217479,-9377.0,-2090.0,-1301.0,0.276,0.586,0.499,-0.576
2217496,-8093.0,-2520.0,-1545.0,0.275,0.584,0.499,-0.578
2217512,-8413.0,-1396.0,-1667.0,0.276,0.582,0.501,-0.578
2217529,-8745.0,-2446.0,-431.0,0.276,0.58,0.501,-0.58
2217546,-8339.0,-1448.0,-1043.0,0.278,0.578,0.499,-0.583
2217563,-7813.0,-2370.0,-1457.0,0.28,0.576,0.498,-0.585
2217579,-7491.0,-2010.0,-663.0,0.282,0.574,0.496,-0.587
2217596,-7859.0,-2026.0,-813.0,0.285,0.573,0.493,-0.589
2217613,-7023.0,-2052.0,-1311.0,0.289,0.573,0.489,-0.591
2217639,-6963.0,-1598.0,-881.0,0.294,0.573,0.484,-0.592
2217655,-7179.0,-2276.0,-1177.0,0.299,0.574,0.479,-0.593
2217671,-7415.0,-2930.0,-829.0,0.305,0.575,0.473,-0.594
2217687,-7639.0,-762.0,-711.0,0.311,0.576,0.466,-0.595
2217703,-7391.0,1380.0,-913.0,0.325,0.574,0.459,-0.595
2217719,-6211.0,-846.0,-547.0,0.342,0.571,0.452,-0.594
2217745,-5271.0,-718.0,211.0,0.363,0.566,0.442,-0.594
2217762,-3861.0,132.0,255.0,0.386,0.56,0.431,-0.593
2217779,-2261.0,650.0,37.0,0.411,0.554,0.419,-0.591
2217795,-1531.0,332.0,-1025.0,0.433,0.549,0.409,-0.587
2217812,-1051.0,-2630.0,-3153.0,0.45,0.546,0.402,-0.581
2217828,-755.0,-4738.0,-3155.0,0.457,0.547,0.397,-0.578
2217845,-963.0,-3492.0,-2363.0,0.454,0.554,0.392,-0.577
2217862,-1099.0,-2136.0,-699.0,0.444,0.562,0.391,-0.578
2217879,-1519.0,-714.0,533.0,0.43,0.569,0.395,-0.579
2217896,-2649.0,146.0,567.0,0.416,0.572,0.403,-0.582
2217923,-2661.0,34.0,157.0,0.402,0.573,0.412,-0.584
2217939,-2445.0,-1028.0,-575.0,0.387,0.573,0.422,-0.586
2217955,-2583.0,-550.0,-1463.0,0.37,0.574,0.433,-0.588
2217971,-4121.0,-948.0,-923.0,0.353,0.576,0.445,-0.588
2217987,-6241.0,920.0,75.0,0.335,0.578,0.455,-0.589
2218003,-6319.0,2032.0,-433.0,0.322,0.578,0.465,-0.588
2218029,-5919.0,-2510.0,-1653.0,0.312,0.578,0.474,-0.586
2218045,-8417.0,-1048.0,-1293.0,0.302,0.578,0.481,-0.586
2218061,-8179.0,-198.0,-559.0,0.296,0.577,0.489,-0.583
2218077,-6909.0,-4624.0,-1405.0,0.289,0.576,0.496,-0.582
2218094,-8657.0,220.0,-1855.0,0.286,0.576,0.501,-0.58
2218111,-7795.0,-4928.0,-1883.0,0.283,0.576,0.506,-0.576
2218127,-8361.0,-762.0,-1517.0,0.28,0.576,0.51,-0.575
2218144,-7739.0,-2528.0,-2121.0,0.279,0.576,0.513,-0.572
2218171,-8617.0,-2192.0,-1591.0,0.278,0.577,0.516,-0.569
2218187,-7393.0,-3272.0,-1953.0,0.277,0.578,0.518,-0.566
2218204,-8187.0,-1400.0,-2187.0,0.276,0.579,0.52,-0.564
2218220,-8709.0,-3300.0,-1637.0,0.276,0.58,0.521,-0.562
2218236,-8655.0,-2052.0,-1781.0,0.276,0.58,0.521,-0.562
2218252,-8905.0,-2494.0,-1921.0,0.278,0.58,0.521,-0.562
2218278,-9847.0,-2464.0,-1649.0,0.279,0.579,0.52,-0.563
2218294,-9019.0,-3262.0,-2027.0,0.282,0.577,0.518,-0.565
2218310,-9721.0,-2840.0,-2265.0,0.283,0.575,0.517,-0.567
2218327,-11003.0,-3162.0,-1823.0,0.286,0.573,0.515,-0.569
2218343,-11553.0,-3298.0,-2091.0,0.287,0.572,0.514,-0.571
2218360,-13053.0,-3534.0,-2375.0,0.289,0.571,0.512,-0.573
2218377,-13933.0,-4538.0,-2271.0,0.29,0.57,0.51,-0.574
2218394,-14357.0,-3896.0,-3211.0,0.291,0.571,0.511,-0.574
2218410,-15881.0,-5312.0,-3143.0,0.291,0.571,0.512,-0.572
2218427,-16645.0,-5496.0,-2801.0,0.29,0.572,0.513,-0.57
2218453,-16213.0,-6164.0,-2235.0,0.289,0.572,0.515,-0.569
2218470,-15797.0,-4492.0,-2639.0,0.287,0.571,0.517,-0.569
2218486,-14143.0,-4972.0,-2197.0,0.285,0.571,0.52,-0.568
2218502,-13395.0,-4304.0,-1669.0,0.284,0.569,0.522,-0.568
2218519,-12807.0,-4000.0,-1789.0,0.283,0.568,0.524,-0.568
2218536,-11153.0,-2978.0,-1203.0,0.283,0.566,0.524,-0.57
2218552,-9337.0,-3798.0,-1551.0,0.282,0.564,0.525,-0.571
2218569,-9899.0,-2420.0,-1237.0,0.282,0.562,0.526,-0.572
2218595,-9405.0,-2402.0,-683.0,0.282,0.561,0.527,-0.573
2218612,-9315.0,-2784.0,-639.0,0.284,0.56,0.526,-0.574
2218629,-8945.0,-1926.0,-1465.0,0.285,0.559,0.524,-0.576
2218646,-7907.0,-1986.0,-1221.0,0.287,0.558,0.523,-0.576
2218663,-8521.0,-2818.0,-1135.0,0.289,0.559,0.522,-0.576
2218680,-8757.0,-1350.0,-1623.0,0.291,0.56,0.52,-0.576
2218697,-7773.0,-2274.0,-1209.0,0.295,0.561,0.518,-0.574
2218714,-7169.0,-1274.0,-1985.0,0.299,0.564,0.514,-0.573
2218731,-8229.0,-1216.0,-1067.0,0.305,0.568,0.509,-0.571
2218748,-6733.0,-2166.0,-1245.0,0.313,0.57,0.503,-0.569
2218766,-6657.0,-544.0,-1249.0,0.323,0.574,0.495,-0.568
2218783,-5445.0,-230.0,-1393.0,0.335,0.577,0.485,-0.566
2218800,-3799.0,-1384.0,-1353.0,0.349,0.581,0.472,-0.564
2218817,-2967.0,28.0,-587.0,0.365,0.587,0.455,-0.562
2218844,-1169.0,26.0,-911.0,0.381,0.593,0.436,-0.559
2218861,-847.0,-2548.0,-507.0,0.397,0.6,0.419,-0.553
2218878,-1793.0,-2850.0,-1787.0,0.407,0.61,0.401,-0.55
2218894,-913.0,-6786.0,2335.0,0.415,0.62,0.38,-0.547
2218911,-4297.0,5742.0,2141.0,0.418,0.626,0.368,-0.546
2218927,-1653.0,-2000.0,947.0,0.424,0.626,0.369,-0.54
2218944,-653.0,-4050.0,-369.0,0.426,0.625,0.376,-0.536
2218961,-2587.0,-1400.0,-1721.0,0.421,0.625,0.386,-0.533
2218977,-1711.0,-2452.0,-1149.0,0.412,0.623,0.4,-0.531
2218994,-3323.0,-6486.0,-2373.0,0.392,0.627,0.411,-0.533
2219020,-4845.0,2746.0,1851.0,0.366,0.63,0.419,-0.542
2219037,-5405.0,6496.0,2253.0,0.351,0.627,0.433,-0.544
2219053,-1181.0,-1626.0,-879.0,0.34,0.621,0.448,-0.545
2219069,-3519.0,-2636.0,-3355.0,0.324,0.62,0.46,-0.547
2219085,-6071.0,2068.0,-2091.0,0.309,0.618,0.474,-0.545
2219101,-7111.0,-2344.0,-499.0,0.296,0.616,0.488,-0.543
2219118,-8737.0,-1568.0,-2459.0,0.285,0.614,0.499,-0.541
2219135,-7731.0,-722.0,-1575.0,0.276,0.611,0.507,-0.542
2219162,-7549.0,-1756.0,-2417.0,0.266,0.609,0.514,-0.542
2219179,-8681.0,270.0,-4483.0,0.26,0.605,0.522,-0.541
2219197,-8593.0,-3420.0,-1011.0,0.256,0.602,0.529,-0.54
2219214,-7383.0,-2728.0,-1739.0,0.252,0.599,0.533,-0.541
2219231,-7527.0,-3714.0,-4343.0,0.248,0.594,0.539,-0.544
2219248,-7191.0,-452.0,-2405.0,0.245,0.589,0.545,-0.545
2219265,-8171.0,-2776.0,-1277.0,0.243,0.584,0.549,-0.546
2219282,-8349.0,-3678.0,-3435.0,0.243,0.58,0.551,-0.549
2219299,-7021.0,-2730.0,-1465.0,0.242,0.577,0.552,-0.551
2219316,-7265.0,-4182.0,-2469.0,0.241,0.574,0.555,-0.552
2219333,-11067.0,-4086.0,-3369.0,0.242,0.572,0.556,-0.552
2219350,-10817.0,-4742.0,-1333.0,0.244,0.57,0.555,-0.555
2219367,-10317.0,-5500.0,-3821.0,0.245,0.569,0.553,-0.557
2219384,-13131.0,-3532.0,-5259.0,0.247,0.568,0.553,-0.557
2219401,-13553.0,-6586.0,-3275.0,0.25,0.568,0.555,-0.554
2219421,-16363.0,-7908.0,-3649.0,0.251,0.569,0.555,-0.553
2219441,-16511.0,-6666.0,-5321.0,0.252,0.569,0.554,-0.554
2219457,-15283.0,-7374.0,-3997.0,0.251,0.569,0.555,-0.553
2219474,-16055.0,-6458.0,-4757.0,0.249,0.569,0.558,-0.55
2219491,-16421.0,-6548.0,-4173.0,0.246,0.569,0.56,-0.549
2219508,-13869.0,-6480.0,-2951.0,0.244,0.569,0.561,-0.55
2219525,-12403.0,-4528.0,-3919.0,0.242,0.568,0.562,-0.55
2219552,-11847.0,-4452.0,-3587.0,0.24,0.568,0.564,-0.55
2219569,-11691.0,-5276.0,-927.0,0.239,0.567,0.565,-0.55
2219586,-10159.0,-4454.0,-2619.0,0.239,0.565,0.563,-0.553
2219602,-8085.0,-2578.0,-3579.0,0.239,0.563,0.562,-0.557
2219618,-7403.0,-3416.0,-2127.0,0.24,0.562,0.56,-0.559
2219634,-9559.0,-4564.0,-1677.0,0.242,0.562,0.557,-0.561
2219651,-8293.0,-3196.0,-1549.0,0.245,0.563,0.549,-0.567
2219668,-6595.0,-2616.0,-1113.0,0.249,0.563,0.542,-0.572
2219684,-6433.0,-2214.0,-2287.0,0.254,0.563,0.535,-0.576
2219711,-5585.0,-2876.0,-2145.0,0.261,0.564,0.528,-0.579
2219727,-6141.0,-3498.0,-1019.0,0.266,0.568,0.518,-0.582
2219744,-5931.0,1220.0,-2085.0,0.276,0.573,0.505,-0.584
2219760,-4935.0,-10.0,-1583.0,0.29,0.579,0.491,-0.583
2219776,-3831.0,-1684.0,-1203.0,0.308,0.585,0.477,-0.58
2219792,-4093.0,-4022.0,-1037.0,0.325,0.593,0.457,-0.578
2219818,-2241.0,-1100.0,-1807.0,0.341,0.602,0.434,-0.577
2219834,-4965.0,-96.0,-3091.0,0.359,0.609,0.412,-0.574
2219851,-2001.0,-1034.0,503.0,0.378,0.617,0.388,-0.57
2219867,-2567.0,2602.0,383.0,0.397,0.622,0.369,-0.565
2219883,-1759.0,-1726.0,749.0,0.413,0.626,0.352,-0.561
2219899,-2855.0,1552.0,-99.0,0.425,0.625,0.342,-0.558
2219915,-1803.0,-48.0,-149.0,0.439,0.621,0.345,-0.55
2219941,-2633.0,-6110.0,-1725.0,0.446,0.617,0.351,-0.545
2219958,-1755.0,-3320.0,-1769.0,0.441,0.616,0.358,-0.546
2219975,-2843.0,-3304.0,-2353.0,0.427,0.616,0.368,-0.55
2219991,-4997.0,-7004.0,-3501.0,0.404,0.617,0.379,-0.56
2220007,-1915.0,228.0,1399.0,0.377,0.619,0.391,-0.567
2220023,-3083.0,6102.0,245.0,0.353,0.617,0.408,-0.573
2220040,-2093.0,2178.0,519.0,0.335,0.611,0.428,-0.575
2220066,-2549.0,-3216.0,-2839.0,0.318,0.608,0.446,-0.576
2220082,-7683.0,3552.0,-1029.0,0.305,0.605,0.459,-0.575
2220098,-8341.0,1700.0,-235.0,0.298,0.602,0.47,-0.573
2220114,-5807.0,-1424.0,-2327.0,0.293,0.599,0.479,-0.571
2220130,-8051.0,-2702.0,-2029.0,0.288,0.598,0.487,-0.569
2220146,-7827.0,-160.0,-1601.0,0.285,0.597,0.493,-0.564
2220162,-7121.0,-2232.0,-2005.0,0.283,0.597,0.5,-0.56
2220188,-7377.0,-3580.0,-1953.0,0.28,0.597,0.505,-0.557
2220205,-8303.0,-3054.0,-275.0,0.276,0.597,0.509,-0.555
2220222,-8659.0,-1386.0,-1485.0,0.275,0.596,0.512,-0.554
2220238,-8181.0,-2260.0,-1753.0,0.276,0.595,0.513,-0.553
2220254,-8207.0,-4518.0,-1503.0,0.277,0.594,0.514,-0.554
2220270,-8687.0,-2076.0,-2693.0,0.276,0.592,0.514,-0.556
2220286,-8291.0,-2024.0,-1989.0,0.278,0.589,0.514,-0.558
2220312,-8285.0,-2918.0,-1767.0,0.279,0.587,0.515,-0.559
2220329,-10729.0,-1998.0,-1749.0,0.281,0.584,0.514,-0.562
2220345,-8977.0,-3290.0,-1457.0,0.284,0.581,0.512,-0.565
2220366,-8073.0,-3544.0,-1847.0,0.285,0.579,0.511,-0.568
2220384,-10121.0,-1512.0,-2435.0,0.287,0.576,0.511,-0.57
2220400,-10547.0,-3608.0,-1547.0,0.29,0.575,0.511,-0.57
2220417,-10345.0,-4208.0,-2125.0,0.292,0.574,0.51,-0.57
2220433,-12147.0,-4742.0,-2763.0,0.294,0.575,0.509,-0.569
2220450,-13703.0,-4502.0,-1847.0,0.295,0.577,0.508,-0.567
2220467,-15193.0,-5520.0,-2065.0,0.295,0.579,0.508,-0.565
2220484,-16093.0,-5604.0,-2775.0,0.295,0.582,0.507,-0.564
2220500,-15643.0,-5444.0,-2345.0,0.294,0.585,0.506,-0.562
2220516,-15613.0,-4506.0,-2823.0,0.292,0.587,0.507,-0.559
2220542,-16101.0,-4522.0,-2285.0,0.29,0.589,0.509,-0.556
2220559,-14477.0,-4668.0,-1789.0,0.289,0.589,0.51,-0.555
2220576,-12897.0,-4054.0,-2115.0,0.287,0.589,0.511,-0.556
2220593,-11199.0,-2708.0,-2695.0,0.284,0.589,0.514,-0.556
2220610,-12083.0,-2228.0,-1093.0,0.282,0.588,0.516,-0.556
2220626,-11421.0,-1156.0,-1225.0,0.283,0.585,0.516,-0.557
2220643,-9147.0,-3142.0,-1643.0,0.284,0.583,0.515,-0.561
2220662,-7969.0,-1456.0,-1659.0,0.283,0.58,0.515,-0.564
2220679,-9217.0,-1438.0,-1105.0,0.282,0.578,0.515,-0.567
2220695,-9491.0,-2344.0,-333.0,0.283,0.574,0.513,-0.571
2220711,-7351.0,-1954.0,-855.0,0.285,0.571,0.51,-0.577
2220738,-7079.0,-2430.0,-1753.0,0.286,0.567,0.508,-0.582
2220754,-8389.0,-1444.0,-1023.0,0.289,0.564,0.505,-0.585
2220770,-7521.0,-2524.0,-755.0,0.293,0.563,0.5,-0.59
2220786,-6539.0,-1620.0,-2037.0,0.297,0.562,0.494,-0.593
2220803,-6521.0,-1516.0,-1995.0,0.301,0.563,0.489,-0.594
2220819,-7267.0,-1578.0,-1033.0,0.305,0.565,0.485,-0.594
2220835,-7565.0,-958.0,-1429.0,0.311,0.568,0.479,-0.593
2220861,-8021.0,-612.0,-1133.0,0.321,0.57,0.471,-0.592
2220877,-6873.0,-1508.0,-635.0,0.331,0.572,0.463,-0.591
2220894,-6789.0,-778.0,-879.0,0.341,0.573,0.455,-0.591
2220910,-5797.0,640.0,-997.0,0.354,0.572,0.446,-0.59
2220926,-4351.0,-96.0,-11.0,0.368,0.572,0.436,-0.589
2220943,-3019.0,-276.0,-723.0,0.383,0.572,0.426,-0.587
2220959,-1715.0,-512.0,-663.0,0.397,0.571,0.417,-0.584
2220985,-815.0,-2602.0,-771.0,0.408,0.573,0.408,-0.581
2221001,-855.0,-2458.0,-1205.0,0.414,0.577,0.4,-0.579
2221017,-1001.0,-3584.0,-931.0,0.413,0.583,0.394,-0.579
2221033,-1681.0,-2130.0,-177.0,0.408,0.587,0.392,-0.579
2221049,-1509.0,-2218.0,-703.0,0.399,0.589,0.395,-0.581
2221065,-1395.0,-376.0,-939.0,0.389,0.59,0.402,-0.583
2221091,-2213.0,-1160.0,-79.0,0.377,0.59,0.412,-0.583
2221107,-2923.0,-2414.0,-1401.0,0.364,0.59,0.423,-0.584
2221123,-4813.0,-1186.0,-477.0,0.348,0.591,0.434,-0.584
2221140,-5111.0,1508.0,-93.0,0.335,0.59,0.445,-0.584
2221156,-6615.0,-1438.0,-1047.0,0.325,0.589,0.455,-0.584
2221173,-7723.0,1008.0,-993.0,0.317,0.587,0.464,-0.583
2221189,-6371.0,-2684.0,-1101.0,0.31,0.585,0.473,-0.582
2221215,-7811.0,-2604.0,-1925.0,0.302,0.584,0.481,-0.58
2221232,-7199.0,-1446.0,-2141.0,0.295,0.584,0.489,-0.576
2221249,-6937.0,-1842.0,-967.0,0.288,0.585,0.496,-0.573
2221266,-8111.0,-2184.0,-1471.0,0.283,0.586,0.502,-0.569
2221283,-8567.0,-3404.0,-1867.0,0.279,0.586,0.508,-0.566
2221300,-8007.0,-1930.0,-1137.0,0.274,0.586,0.513,-0.564
2221316,-7565.0,-2634.0,-2011.0,0.272,0.586,0.517,-0.562
2221332,-9455.0,-3520.0,-2285.0,0.269,0.586,0.52,-0.56
2221348,-8667.0,-2654.0,-1059.0,0.267,0.585,0.522,-0.56
2221374,-7863.0,-3076.0,-2113.0,0.266,0.584,0.523,-0.56
2221391,-9495.0,-2832.0,-2215.0,0.265,0.582,0.524,-0.562
2221408,-7433.0,-2398.0,-1239.0,0.266,0.58,0.525,-0.563
2221425,-8209.0,-2922.0,-1489.0,0.267,0.578,0.525,-0.565
2221442,-8767.0,-3138.0,-2183.0,0.269,0.575,0.524,-0.568
2221459,-8259.0,-3384.0,-845.0,0.27,0.571,0.524,-0.571
2221476,-8059.0,-3384.0,-2087.0,0.271,0.569,0.523,-0.574
2221493,-10539.0,-3242.0,-2397.0,0.272,0.566,0.522,-0.577
2221512,-10639.0,-5114.0,-1429.0,0.273,0.564,0.521,-0.579
2221529,-12393.0,-4080.0,-2223.0,0.272,0.562,0.52,-0.582
2221546,-13261.0,-4110.0,-3021.0,0.273,0.561,0.52,-0.584
2221563,-12981.0,-5338.0,-2075.0,0.273,0.561,0.52,-0.584
2221580,-14235.0,-5088.0,-3133.0,0.272,0.561,0.52,-0.584
2221597,-14733.0,-5634.0,-2791.0,0.27,0.562,0.521,-0.582
2221614,-14083.0,-5580.0,-2237.0,0.268,0.563,0.523,-0.581
2221631,-13429.0,-5042.0,-3321.0,0.267,0.564,0.525,-0.578
2221658,-13145.0,-5222.0,-2477.0,0.265,0.566,0.528,-0.576
2221676,-12093.0,-5374.0,-1395.0,0.262,0.567,0.53,-0.574
2221693,-12041.0,-4576.0,-1949.0,0.26,0.568,0.531,-0.572
2221710,-10633.0,-4952.0,-1683.0,0.259,0.569,0.533,-0.57
2221727,-9463.0,-3824.0,-1581.0,0.257,0.57,0.534,-0.569
2221744,-9687.0,-4418.0,-2077.0,0.256,0.572,0.535,-0.566
2221760,-9777.0,-3488.0,-1159.0,0.255,0.573,0.536,-0.565
2221777,-9123.0,-3800.0,-1019.0,0.256,0.575,0.534,-0.564
2221796,-8193.0,-3248.0,-2159.0,0.257,0.575,0.533,-0.564
2221813,-8101.0,-3334.0,-1187.0,0.259,0.576,0.532,-0.564
2221830,-8283.0,-3476.0,-1163.0,0.261,0.577,0.53,-0.564
2221853,-8487.0,-2606.0,-1569.0,0.264,0.577,0.526,-0.566
2221869,-7119.0,-2246.0,-1227.0,0.267,0.577,0.522,-0.568
2221885,-7065.0,-2794.0,-1527.0,0.272,0.577,0.519,-0.569
2221901,-7547.0,-1840.0,-1537.0,0.277,0.577,0.514,-0.57
2221917,-6879.0,-2080.0,-811.0,0.284,0.578,0.508,-0.572
2221934,-6875.0,-1214.0,-1171.0,0.292,0.577,0.502,-0.574
2221951,-5693.0,-1638.0,-1733.0,0.301,0.576,0.495,-0.576
2221977,-5429.0,-1342.0,-721.0,0.312,0.575,0.488,-0.578
2221994,-5169.0,-2360.0,-1419.0,0.323,0.577,0.477,-0.579
2222010,-5145.0,-150.0,-1045.0,0.333,0.581,0.462,-0.581
2222026,-3737.0,130.0,-493.0,0.346,0.585,0.445,-0.583
2222042,-3521.0,-566.0,-707.0,0.359,0.592,0.425,-0.583
2222059,-4071.0,4.0,-417.0,0.37,0.598,0.406,-0.584
2222076,-4143.0,156.0,851.0,0.381,0.602,0.389,-0.584
2222093,-3983.0,-770.0,-305.0,0.391,0.604,0.377,-0.583
2222109,-2919.0,-96.0,-529.0,0.399,0.603,0.37,-0.583
2222136,-2103.0,-2334.0,-167.0,0.405,0.601,0.369,-0.583
2222152,-1375.0,-2864.0,-1063.0,0.406,0.598,0.371,-0.583
2222168,-1129.0,-1864.0,-1103.0,0.401,0.597,0.376,-0.584
2222184,-1697.0,-1366.0,-361.0,0.394,0.596,0.385,-0.585
2222200,-1873.0,-1190.0,-531.0,0.383,0.595,0.396,-0.585
2222217,-2029.0,-2204.0,-1305.0,0.37,0.596,0.409,-0.584
2222233,-2805.0,-1452.0,-617.0,0.353,0.598,0.422,-0.583
2222260,-4077.0,486.0,-215.0,0.336,0.601,0.433,-0.582
2222276,-6263.0,3064.0,369.0,0.324,0.601,0.445,-0.58
2222293,-5701.0,-608.0,-801.0,0.315,0.601,0.457,-0.575
2222310,-6757.0,-980.0,-1449.0,0.309,0.6,0.466,-0.572
2222327,-7871.0,-2474.0,-1213.0,0.301,0.601,0.475,-0.568
2222343,-7759.0,-1288.0,-1497.0,0.295,0.602,0.483,-0.564
2222359,-8191.0,-1242.0,-1845.0,0.291,0.602,0.489,-0.56
2222376,-7997.0,-3170.0,-2209.0,0.287,0.603,0.495,-0.555
2222393,-8743.0,-2008.0,-1339.0,0.284,0.603,0.5,-0.552
2222419,-8481.0,-2318.0,-2121.0,0.281,0.603,0.504,-0.55
2222435,-8709.0,-2566.0,-2303.0,0.28,0.602,0.508,-0.549
2222451,-9007.0,-3104.0,-1723.0,0.278,0.601,0.509,-0.549
2222467,-8965.0,-2418.0,-2195.0,0.278,0.599,0.51,-0.551
2222483,-8487.0,-1898.0,-2487.0,0.278,0.597,0.509,-0.554
2222499,-8389.0,-2022.0,-2105.0,0.28,0.594,0.51,-0.556
2222516,-9441.0,-2560.0,-1945.0,0.281,0.591,0.51,-0.558
2222543,-8945.0,-2158.0,-1699.0,0.284,0.588,0.509,-0.561
2222559,-8505.0,-3526.0,-2079.0,0.285,0.586,0.507,-0.564
2222576,-9475.0,-2266.0,-2007.0,0.285,0.585,0.506,-0.566
2222593,-10243.0,-2932.0,-2057.0,0.286,0.584,0.505,-0.567
2222609,-12447.0,-4320.0,-1347.0,0.287,0.584,0.504,-0.569
2222626,-13395.0,-4616.0,-1723.0,0.287,0.582,0.501,-0.572
2222643,-13897.0,-4854.0,-1979.0,0.288,0.581,0.499,-0.575
2222659,-14253.0,-5116.0,-2829.0,0.286,0.581,0.498,-0.577
2222676,-15297.0,-4048.0,-2711.0,0.285,0.58,0.499,-0.577
2222693,-15855.0,-5596.0,-2581.0,0.284,0.581,0.502,-0.575
2222720,-15499.0,-5392.0,-2865.0,0.282,0.582,0.504,-0.573
2222736,-14717.0,-4708.0,-2183.0,0.279,0.583,0.507,-0.571
2222752,-13823.0,-4146.0,-2109.0,0.275,0.584,0.51,-0.568
2222768,-12867.0,-3794.0,-2265.0,0.272,0.586,0.514,-0.565
2222784,-11999.0,-3926.0,-1355.0,0.268,0.587,0.518,-0.561
2222800,-10509.0,-3602.0,-1725.0,0.264,0.589,0.52,-0.559
2222826,-9513.0,-2366.0,-2159.0,0.261,0.59,0.522,-0.558
2222843,-9813.0,-2896.0,-1247.0,0.259,0.591,0.524,-0.556
2222859,-9733.0,-3718.0,-883.0,0.257,0.592,0.524,-0.556
2222876,-8989.0,-2482.0,-1273.0,0.257,0.592,0.522,-0.557
2222893,-8791.0,-2694.0,-1083.0,0.258,0.592,0.52,-0.559
2222910,-6145.0,-1318.0,-2119.0,0.259,0.592,0.517,-0.561
2222927,-6545.0,-1454.0,-2185.0,0.261,0.593,0.516,-0.56
2222943,-7679.0,-1204.0,-1173.0,0.266,0.595,0.513,-0.558
2222960,-6105.0,-786.0,-1763.0,0.272,0.599,0.509,-0.555
2222976,-6139.0,400.0,-2099.0,0.282,0.602,0.506,-0.549
2223003,-5363.0,-2600.0,-1741.0,0.291,0.607,0.503,-0.542
2223019,-7215.0,-4604.0,-593.0,0.297,0.612,0.499,-0.537
2223035,-6345.0,-1850.0,-2183.0,0.302,0.619,0.492,-0.533
2223051,-6979.0,-1950.0,-957.0,0.308,0.625,0.483,-0.53
2223067,-6219.0,-562.0,-1079.0,0.316,0.63,0.472,-0.53
2223083,-5711.0,-1734.0,-1603.0,0.325,0.633,0.462,-0.531
2223109,-5399.0,-1314.0,-1103.0,0.334,0.635,0.449,-0.533
2223126,-4629.0,532.0,-1379.0,0.345,0.636,0.434,-0.537
2223143,-3363.0,-462.0,-1613.0,0.357,0.636,0.419,-0.541
2223160,-1971.0,656.0,-1771.0,0.371,0.635,0.404,-0.544
2223176,-1191.0,-184.0,-1747.0,0.383,0.635,0.39,-0.546
2223193,-25.0,-2672.0,-2477.0,0.392,0.635,0.381,-0.546
2223209,-741.0,-3736.0,-2265.0,0.395,0.636,0.377,-0.545
2223226,-645.0,-4164.0,-1599.0,0.39,0.637,0.38,-0.545
2223242,-885.0,-1318.0,-827.0,0.381,0.638,0.387,-0.547
2223268,-99.0,-1352.0,-987.0,0.37,0.637,0.398,-0.547
2223284,301.0,-3106.0,-1645.0,0.355,0.638,0.41,-0.547
2223300,-2739.0,1298.0,-409.0,0.337,0.639,0.423,-0.547
2223316,-2627.0,182.0,-339.0,0.323,0.637,0.437,-0.546
2223332,-4143.0,962.0,-999.0,0.31,0.636,0.452,-0.544
2223349,-6347.0,1952.0,-1555.0,0.3,0.634,0.463,-0.541
2223375,-6215.0,-1004.0,-1371.0,0.294,0.632,0.473,-0.538
2223392,-7385.0,-404.0,-2077.0,0.288,0.631,0.483,-0.535
2223408,-7333.0,-3068.0,-3137.0,0.281,0.63,0.492,-0.531
2223425,-7409.0,-286.0,-907.0,0.275,0.629,0.502,-0.527
2223442,-7563.0,-2270.0,-2387.0,0.27,0.628,0.51,-0.523
2223459,-8775.0,-1810.0,-2517.0,0.267,0.627,0.516,-0.519
2223476,-7029.0,-3040.0,-1289.0,0.264,0.626,0.521,-0.517
2223493,-8463.0,-2018.0,-2891.0,0.26,0.625,0.526,-0.514
2223511,-8601.0,-2528.0,-3095.0,0.259,0.625,0.53,-0.512
2223528,-8715.0,-2484.0,-1331.0,0.258,0.625,0.532,-0.51
2223545,-8969.0,-2784.0,-3553.0,0.259,0.625,0.532,-0.51
2223562,-9399.0,-2750.0,-3081.0,0.261,0.624,0.531,-0.51
2223580,-8611.0,-2118.0,-2019.0,0.263,0.624,0.531,-0.51
2223597,-10117.0,-3058.0,-2921.0,0.267,0.623,0.528,-0.512
2223614,-10957.0,-3094.0,-2649.0,0.271,0.621,0.525,-0.515
2223631,-9553.0,-3410.0,-2249.0,0.275,0.619,0.522,-0.519
2223658,-11429.0,-3284.0,-3769.0,0.278,0.616,0.52,-0.523
2223675,-13693.0,-4006.0,-2923.0,0.281,0.613,0.517,-0.527
2223692,-13423.0,-3416.0,-2989.0,0.284,0.611,0.513,-0.532
2223709,-15299.0,-5324.0,-4733.0,0.287,0.608,0.509,-0.537
2223726,-16131.0,-4542.0,-4421.0,0.289,0.606,0.507,-0.54
2223743,-16427.0,-5004.0,-3579.0,0.289,0.604,0.507,-0.543
2223759,-16327.0,-4566.0,-5109.0,0.289,0.602,0.508,-0.544
2223776,-16211.0,-6414.0,-3377.0,0.288,0.601,0.509,-0.545
2223792,-14889.0,-4430.0,-2863.0,0.286,0.599,0.512,-0.546
2223809,-13749.0,-3990.0,-3423.0,0.283,0.596,0.515,-0.547
2223826,-11727.0,-3768.0,-2525.0,0.281,0.594,0.517,-0.549
2223853,-10713.0,-2658.0,-2267.0,0.278,0.592,0.519,-0.55
2223870,-10177.0,-3430.0,-2179.0,0.276,0.591,0.522,-0.55
2223886,-8671.0,-3308.0,-1609.0,0.273,0.591,0.523,-0.55
2223902,-8611.0,-2230.0,-1347.0,0.271,0.59,0.525,-0.55
2223918,-7625.0,-1962.0,-2085.0,0.269,0.591,0.526,-0.55
2223934,-8271.0,-2430.0,-567.0,0.268,0.592,0.526,-0.549
2223950,-7985.0,-2790.0,-757.0,0.267,0.592,0.526,-0.548
2223976,-7159.0,-1890.0,-1839.0,0.267,0.593,0.526,-0.548
2223992,-6453.0,-1916.0,-969.0,0.267,0.594,0.524,-0.549
2224009,-6843.0,-2026.0,-803.0,0.268,0.595,0.524,-0.548
2224026,-7077.0,-1704.0,-1433.0,0.27,0.595,0.523,-0.548
2224043,-6959.0,-1756.0,-253.0,0.273,0.595,0.521,-0.548
2224059,-5811.0,-1858.0,-1459.0,0.277,0.595,0.519,-0.549
2224076,-4841.0,-1204.0,-2263.0,0.28,0.595,0.516,-0.549
2224102,-5005.0,-2968.0,-1241.0,0.282,0.596,0.515,-0.548
2224118,-7587.0,128.0,-743.0,0.285,0.598,0.511,-0.547
2224134,-6801.0,-1566.0,-1257.0,0.292,0.599,0.507,-0.547
2224150,-6905.0,-1630.0,-891.0,0.301,0.598,0.503,-0.547
2224166,-5539.0,-1574.0,-1815.0,0.311,0.596,0.498,-0.548
2224182,-5477.0,-2192.0,-2105.0,0.32,0.594,0.494,-0.548
2224199,-6017.0,-1192.0,-1443.0,0.329,0.593,0.489,-0.548
2224215,-6737.0,-1418.0,-1431.0,0.338,0.594,0.484,-0.547
2224242,-5423.0,-1162.0,-2257.0,0.346,0.594,0.478,-0.547
2224259,-6041.0,-1128.0,-2147.0,0.353,0.596,0.473,-0.545
2224275,-6745.0,-1580.0,-1783.0,0.359,0.598,0.467,-0.543
2224292,-6827.0,-1258.0,-1775.0,0.367,0.6,0.458,-0.543
2224309,-6041.0,-506.0,-1723.0,0.375,0.602,0.448,-0.545
2224326,-5613.0,-712.0,-1651.0,0.384,0.603,0.437,-0.546
2224343,-4733.0,490.0,-2043.0,0.393,0.604,0.427,-0.547
2224359,-4305.0,-594.0,-1505.0,0.402,0.605,0.417,-0.547
2224376,-3829.0,-1916.0,-1413.0,0.409,0.607,0.406,-0.547
2224393,-3383.0,-2048.0,-1031.0,0.413,0.609,0.398,-0.548
2224419,-2755.0,-1942.0,-831.0,0.413,0.611,0.393,-0.549
2224435,-2289.0,-974.0,-925.0,0.411,0.612,0.393,-0.55
2224451,-1245.0,-1676.0,-471.0,0.406,0.611,0.399,-0.551
2224467,-897.0,-1222.0,-445.0,0.399,0.608,0.409,-0.551
2224484,-1425.0,-770.0,-857.0,0.389,0.607,0.421,-0.55
2224500,-1751.0,-1366.0,-695.0,0.376,0.607,0.433,-0.55
2224516,-3793.0,488.0,471.0,0.361,0.607,0.446,-0.549
2224542,-5347.0,1862.0,-61.0,0.35,0.606,0.459,-0.547
2224558,-5149.0,-428.0,-541.0,0.34,0.605,0.47,-0.545
2224575,-6311.0,-458.0,-2429.0,0.332,0.604,0.48,-0.543
2224592,-7977.0,-470.0,-1833.0,0.324,0.603,0.489,-0.54
2224609,-7279.0,134.0,-779.0,0.318,0.602,0.497,-0.538
2224625,-8003.0,-1608.0,-1593.0,0.314,0.602,0.504,-0.535
2224642,-7931.0,-1658.0,-1593.0,0.31,0.601,0.509,-0.532
2224659,-7849.0,-1420.0,-993.0,0.306,0.6,0.514,-0.531
2224676,-8293.0,-1944.0,-2039.0,0.302,0.6,0.519,-0.529
2224693,-9563.0,-1382.0,-1915.0,0.3,0.599,0.522,-0.528
2224711,-8941.0,-2014.0,-1361.0,0.299,0.598,0.524,-0.527
2224738,-9035.0,-3086.0,-2415.0,0.298,0.597,0.526,-0.527
2224754,-10423.0,-2758.0,-2279.0,0.298,0.596,0.527,-0.528
2224771,-9789.0,-2558.0,-1577.0,0.299,0.595,0.526,-0.529
2224788,-10611.0,-2430.0,-2317.0,0.302,0.593,0.525,-0.531
2224804,-10967.0,-3966.0,-2475.0,0.305,0.59,0.524,-0.533
2224820,-11233.0,-4020.0,-1983.0,0.306,0.589,0.522,-0.536
2224836,-13177.0,-3716.0,-2531.0,0.308,0.587,0.52,-0.538
2224862,-14611.0,-3744.0,-2587.0,0.31,0.586,0.516,-0.542
2224878,-14609.0,-4048.0,-2781.0,0.313,0.585,0.514,-0.544
2224895,-15571.0,-4854.0,-3311.0,0.314,0.585,0.512,-0.545
2224912,-16557.0,-4646.0,-2959.0,0.313,0.584,0.513,-0.546
2224928,-15853.0,-4886.0,-3005.0,0.311,0.583,0.516,-0.545
2224944,-14621.0,-4204.0,-3337.0,0.307,0.582,0.52,-0.544
2224961,-14013.0,-5298.0,-2405.0,0.302,0.582,0.526,-0.542
2224978,-13553.0,-4052.0,-2135.0,0.298,0.582,0.531,-0.539
2224995,-11525.0,-4032.0,-2219.0,0.293,0.581,0.536,-0.538
2225012,-9809.0,-3138.0,-2313.0,0.289,0.581,0.54,-0.536
2225039,-9323.0,-4256.0,-1905.0,0.284,0.581,0.544,-0.534
2225055,-8647.0,-2972.0,-1887.0,0.278,0.581,0.547,-0.534
2225071,-8403.0,-2600.0,-1961.0,0.273,0.582,0.549,-0.534
2225087,-8329.0,-2188.0,-1553.0,0.271,0.582,0.55,-0.534
2225103,-7259.0,-2726.0,-1863.0,0.27,0.581,0.551,-0.535
2225119,-6971.0,-2864.0,-1815.0,0.269,0.579,0.551,-0.537
2225145,-6889.0,-2654.0,-1649.0,0.269,0.578,0.549,-0.541
2225162,-6777.0,-2194.0,-2061.0,0.269,0.576,0.547,-0.544
2225179,-6515.0,-2274.0,-1871.0,0.271,0.574,0.544,-0.548
2225196,-6219.0,-2290.0,-1477.0,0.273,0.573,0.541,-0.551
2225213,-5717.0,-2278.0,-2143.0,0.275,0.572,0.539,-0.554
2225230,-6151.0,-2010.0,-2061.0,0.277,0.571,0.537,-0.556
2225247,-6135.0,-1730.0,-1767.0,0.278,0.571,0.535,-0.557
2225264,-6443.0,-1606.0,-1901.0,0.28,0.572,0.533,-0.557
2225281,-6289.0,-2564.0,-1507.0,0.283,0.573,0.53,-0.558
2225298,-6413.0,-1848.0,-1489.0,0.285,0.574,0.528,-0.557
2225315,-6803.0,-2060.0,-1895.0,0.287,0.575,0.527,-0.556
2225332,-6539.0,-2050.0,-1617.0,0.289,0.577,0.525,-0.555
2225348,-6345.0,-2966.0,-1879.0,0.29,0.58,0.523,-0.553
2225374,-7389.0,-2108.0,-1229.0,0.291,0.582,0.521,-0.552
2225391,-7813.0,-1446.0,-1287.0,0.293,0.584,0.519,-0.551
2225408,-7065.0,-2778.0,-1469.0,0.296,0.585,0.517,-0.55
2225425,-6989.0,-1420.0,-1793.0,0.297,0.587,0.515,-0.55
2225442,-7303.0,-1516.0,-1583.0,0.299,0.588,0.514,-0.548
2225459,-7521.0,-1496.0,-1507.0,0.301,0.59,0.512,-0.547
2225476,-7837.0,-1166.0,-1283.0,0.304,0.591,0.509,-0.547
2225493,-7319.0,-3090.0,-1121.0,0.306,0.592,0.506,-0.547
2225510,-7197.0,-1122.0,-1437.0,0.309,0.593,0.504,-0.546
2225527,-7489.0,-1980.0,-1415.0,0.311,0.594,0.502,-0.546
2225544,-7593.0,-1212.0,-1393.0,0.314,0.595,0.499,-0.546
2225561,-8681.0,-826.0,-779.0,0.319,0.595,0.496,-0.546
2225578,-7141.0,-2142.0,-1435.0,0.325,0.594,0.493,-0.547
2225605,-7281.0,-1896.0,-1355.0,0.329,0.594,0.489,-0.548
2225622,-7649.0,-1154.0,-1637.0,0.335,0.593,0.484,-0.549
2225638,-7765.0,-692.0,-457.0,0.343,0.592,0.477,-0.551
2225654,-7345.0,-2038.0,-271.0,0.351,0.59,0.471,-0.554
2225671,-6181.0,-2876.0,-961.0,0.358,0.588,0.464,-0.557
2225688,-5643.0,-1414.0,-447.0,0.363,0.588,0.457,-0.56
2225704,-5333.0,66.0,-127.0,0.367,0.589,0.452,-0.56
2225720,-4669.0,-2238.0,-325.0,0.372,0.589,0.45,-0.559
2225746,-3651.0,-4480.0,-901.0,0.373,0.592,0.448,-0.557
2225763,-4871.0,-1964.0,-79.0,0.372,0.596,0.447,-0.554
2225780,-5571.0,-2006.0,85.0,0.369,0.6,0.448,-0.551
2225797,-5281.0,-2724.0,-17.0,0.367,0.603,0.45,-0.547
2225814,-6457.0,-1646.0,443.0,0.363,0.605,0.453,-0.545
2225831,-6525.0,-2162.0,-725.0,0.36,0.608,0.456,-0.541
2225848,-7603.0,-1258.0,-201.0,0.356,0.61,0.459,-0.539
2225864,-8193.0,-1246.0,-523.0,0.352,0.612,0.463,-0.536
2225881,-7983.0,-1930.0,-1511.0,0.348,0.615,0.467,-0.532
2225898,-8999.0,-1060.0,-1475.0,0.343,0.619,0.471,-0.526
2225924,-9353.0,-1066.0,-885.0,0.34,0.623,0.474,-0.521
2225941,-8765.0,-2296.0,-2181.0,0.336,0.628,0.478,-0.515
2225958,-9289.0,-312.0,-1755.0,0.332,0.632,0.48,-0.509
2225975,-9269.0,-1262.0,-1301.0,0.329,0.637,0.482,-0.504
2225992,-8931.0,-840.0,-2085.0,0.327,0.64,0.484,-0.499
2226009,-8227.0,-1428.0,-2379.0,0.324,0.643,0.486,-0.495
2226026,-8449.0,-186.0,-1445.0,0.323,0.646,0.487,-0.491
2226043,-7811.0,-1248.0,-2447.0,0.323,0.648,0.488,-0.487
2226060,-7041.0,-514.0,-2681.0,0.322,0.65,0.489,-0.485
2226078,-7005.0,-1076.0,-2197.0,0.322,0.652,0.49,-0.481
2226095,-6735.0,-1156.0,-3121.0,0.32,0.654,0.492,-0.478
2226112,-6443.0,-786.0,-3171.0,0.317,0.656,0.494,-0.474
2226129,-6913.0,-572.0,-2757.0,0.315,0.659,0.496,-0.47
2226146,-6717.0,-1246.0,-3691.0,0.312,0.663,0.498,-0.465
2226163,-6605.0,-1482.0,-3851.0,0.308,0.667,0.498,-0.46
2226180,-7209.0,-1306.0,-3157.0,0.302,0.673,0.497,-0.457
2226207,-7747.0,274.0,-3475.0,0.298,0.678,0.497,-0.453
2226224,-6723.0,-1584.0,-3421.0,0.295,0.681,0.498,-0.449
2226241,-6697.0,-1156.0,-3751.0,0.291,0.683,0.501,-0.444
2226258,-7553.0,-886.0,-3575.0,0.288,0.686,0.502,-0.441
2226275,-7117.0,-538.0,-3663.0,0.285,0.688,0.504,-0.438
2226292,-6923.0,-1190.0,-4155.0,0.283,0.689,0.507,-0.434
2226310,-7681.0,-602.0,-4669.0,0.281,0.69,0.509,-0.431
2226327,-8197.0,-656.0,-4049.0,0.279,0.692,0.51,-0.427
2226344,-7507.0,-1044.0,-4799.0,0.278,0.694,0.511,-0.424
2226361,-7499.0,-1458.0,-5529.0,0.276,0.696,0.512,-0.421
2226378,-8089.0,-558.0,-4483.0,0.276,0.697,0.513,-0.418
2226395,-7897.0,-1340.0,-4641.0,0.275,0.699,0.513,-0.416
2226412,-7293.0,-882.0,-4829.0,0.275,0.7,0.513,-0.414
2226429,-7107.0,-1006.0,-4205.0,0.276,0.699,0.513,-0.414
2226446,-6559.0,-1596.0,-4753.0,0.275,0.7,0.514,-0.413
2226473,-6789.0,-162.0,-4675.0,0.274,0.7,0.514,-0.412
2226490,-6353.0,-840.0,-4119.0,0.274,0.7,0.515,-0.411
2226507,-6695.0,-832.0,-4357.0,0.274,0.701,0.515,-0.41
2226524,-6053.0,-1402.0,-4779.0,0.273,0.701,0.517,-0.409
2226541,-7097.0,-696.0,-3655.0,0.272,0.701,0.518,-0.408
2226558,-7031.0,-374.0,-4153.0,0.271,0.702,0.519,-0.406
2226575,-7345.0,-1116.0,-3707.0,0.271,0.702,0.52,-0.405
2226592,-7043.0,-766.0,-3737.0,0.27,0.702,0.52,-0.404
2226609,-6751.0,-1236.0,-4331.0,0.27,0.702,0.521,-0.403
2226626,-7405.0,-248.0,-3997.0,0.269,0.702,0.522,-0.403
2226643,-7077.0,-478.0,-3653.0,0.269,0.702,0.523,-0.402
2226661,-6879.0,-938.0,-4259.0,0.268,0.702,0.524,-0.401
2226678,-6841.0,-1222.0,-4207.0,0.267,0.702,0.525,-0.4
2226695,-7389.0,296.0,-3623.0,0.266,0.702,0.527,-0.399
2226712,-7059.0,-990.0,-4269.0,0.265,0.702,0.528,-0.397
2226729,-6965.0,-1272.0,-4357.0,0.263,0.702,0.53,-0.396
2226756,-7303.0,-660.0,-4349.0,0.261,0.703,0.532,-0.394
2226773,-7513.0,-1152.0,-4625.0,0.259,0.704,0.534,-0.391
2226789,-7603.0,-476.0,-4347.0,0.257,0.704,0.535,-0.389
2226806,-7069.0,-1996.0,-4863.0,0.255,0.705,0.537,-0.387
2226823,-7765.0,-524.0,-5099.0,0.252,0.706,0.538,-0.385
2226840,-7451.0,-1324.0,-4625.0,0.25,0.707,0.539,-0.383
2226857,-7551.0,-1558.0,-5137.0,0.249,0.707,0.54,-0.382
2226875,-7563.0,-1264.0,-4917.0,0.248,0.707,0.541,-0.382
2226892,-7267.0,-1246.0,-4989.0,0.248,0.707,0.541,-0.382
2226909,-7201.0,-1118.0,-5181.0,0.248,0.706,0.541,-0.383
2226926,-6323.0,-1222.0,-5469.0,0.248,0.706,0.541,-0.383
2226943,-7323.0,-1708.0,-5991.0,0.249,0.706,0.542,-0.382
2226960,-7499.0,-714.0,-4923.0,0.249,0.706,0.542,-0.382
2226977,-7039.0,-1092.0,-5397.0,0.249,0.706,0.542,-0.382
2227004,-6685.0,-918.0,-5463.0,0.25,0.705,0.542,-0.382
2227021,-6687.0,-1370.0,-4259.0,0.25,0.705,0.543,-0.382
2227038,-6917.0,-750.0,-5217.0,0.249,0.705,0.544,-0.381
2227055,-6123.0,-976.0,-5131.0,0.249,0.704,0.545,-0.381
2227072,-6541.0,-488.0,-4055.0,0.249,0.704,0.545,-0.381
2227088,-6533.0,-1384.0,-4633.0,0.249,0.703,0.546,-0.382
2227105,-5955.0,-1084.0,-4323.0,0.249,0.702,0.547,-0.382
2227122,-6063.0,-1302.0,-3843.0,0.249,0.701,0.548,-0.382
