timeMs,ax,ay,az,q0,q1,q2,q3
822168,1498.0,4404.0,6843.0,0.053,0.076,0.329,0.94
822184,1380.0,4656.0,6911.0,0.056,0.078,0.324,0.941
822200,1444.0,4922.0,6991.0,0.059,0.08,0.319,0.943
822216,1504.0,5116.0,6975.0,0.06,0.081,0.313,0.944
822243,1614.0,5286.0,7027.0,0.061,0.081,0.307,0.946
822259,1798.0,5436.0,7067.0,0.061,0.081,0.3,0.949
822275,1974.0,5564.0,7103.0,0.06,0.08,0.293,0.951
822291,2010.0,5602.0,7153.0,0.059,0.078,0.286,0.953
822307,1996.0,5734.0,7167.0,0.057,0.075,0.281,0.955
822323,1878.0,5708.0,7155.0,0.056,0.072,0.275,0.957
822349,1726.0,5702.0,7231.0,0.055,0.069,0.269,0.959
822365,1726.0,5730.0,7333.0,0.053,0.065,0.261,0.962
822381,1812.0,5534.0,7377.0,0.052,0.061,0.252,0.964
822397,1846.0,5124.0,7479.0,0.05,0.056,0.241,0.968
822413,1866.0,4522.0,7579.0,0.048,0.05,0.229,0.971
822430,1746.0,4040.0,7597.0,0.046,0.044,0.217,0.974
822447,1630.0,3758.0,7577.0,0.042,0.037,0.205,0.977
822473,1438.0,3758.0,7737.0,0.038,0.031,0.194,0.98
822490,1090.0,3830.0,8005.0,0.033,0.024,0.182,0.983
822506,748.0,3788.0,7905.0,0.028,0.018,0.168,0.985
822522,506.0,3374.0,7705.0,0.023,0.01,0.154,0.988
822538,368.0,3030.0,7669.0,0.017,0.002,0.14,0.99
822554,410.0,2806.0,7563.0,0.012,-0.007,0.127,0.992
822570,412.0,2720.0,7473.0,0.006,-0.017,0.115,0.993
822596,450.0,2732.0,7187.0,0.001,-0.028,0.104,0.994
822613,352.0,2660.0,6845.0,0.005,0.039,-0.092,-0.995
822630,260.0,2624.0,6741.0,0.01,0.05,-0.078,-0.996
822647,266.0,2650.0,6733.0,0.016,0.062,-0.064,-0.996
822664,4.0,2678.0,6587.0,0.023,0.073,-0.047,-0.996
822681,248.0,2556.0,6697.0,0.03,0.083,-0.028,-0.996
822698,300.0,2282.0,6927.0,0.037,0.093,-0.006,-0.995
822715,424.0,1726.0,7067.0,0.044,0.102,0.018,-0.994
822732,356.0,1262.0,7237.0,0.05,0.112,0.043,-0.992
822748,174.0,412.0,7389.0,0.055,0.121,0.069,-0.989
822765,152.0,-526.0,7355.0,0.059,0.132,0.093,-0.985
822792,254.0,-1558.0,6825.0,0.061,0.144,0.116,-0.981
822808,260.0,-2424.0,6039.0,0.062,0.158,0.135,-0.976
822824,-214.0,-2962.0,5255.0,0.06,0.175,0.151,-0.971
822840,-850.0,-2916.0,4605.0,0.056,0.193,0.162,-0.966
822856,-1762.0,-2748.0,4593.0,0.05,0.211,0.173,-0.961
822872,-2434.0,-3084.0,4439.0,0.043,0.227,0.183,-0.956
822889,-2392.0,-3502.0,4877.0,0.037,0.24,0.193,-0.951
822916,-1640.0,-4386.0,4985.0,0.031,0.252,0.203,-0.946
822933,-764.0,-5266.0,4459.0,0.026,0.264,0.212,-0.94
822949,-708.0,-5928.0,4017.0,0.02,0.278,0.218,-0.935
822966,-1622.0,-5858.0,3595.0,0.013,0.293,0.221,-0.93
822983,-2946.0,-5080.0,3529.0,0.006,0.308,0.22,-0.925
822999,-4498.0,-4404.0,3495.0,0.001,-0.322,-0.22,0.921
823016,-5352.0,-3966.0,3465.0,0.007,-0.334,-0.222,0.916
823033,-5742.0,-3862.0,3423.0,0.012,-0.345,-0.226,0.911
823050,-5820.0,-3932.0,3501.0,0.014,-0.354,-0.232,0.906
823076,-6154.0,-4372.0,3373.0,0.015,-0.364,-0.239,0.9
823093,-6086.0,-4750.0,3369.0,0.014,-0.375,-0.247,0.894
823110,-5520.0,-5370.0,3781.0,0.012,-0.385,-0.254,0.887
823127,-5388.0,-5994.0,3363.0,0.009,-0.397,-0.259,0.88
823144,-6024.0,-6190.0,3207.0,0.005,-0.411,-0.259,0.874
823161,-6986.0,-6182.0,3435.0,0.001,-0.425,-0.257,0.868
823177,-7280.0,-5996.0,3127.0,0.004,0.44,0.252,-0.862
823194,-6836.0,-5724.0,2673.0,0.009,0.455,0.245,-0.856
823211,-6864.0,-5626.0,2381.0,0.015,0.471,0.235,-0.85
823227,-7234.0,-5550.0,1845.0,0.019,0.489,0.223,-0.843
823244,-7190.0,-4944.0,1471.0,0.022,0.506,0.208,-0.837
823270,-7560.0,-4286.0,1265.0,0.024,0.524,0.191,-0.83
823286,-7740.0,-3462.0,941.0,0.027,0.54,0.174,-0.823
823302,-8608.0,-2308.0,769.0,0.031,0.556,0.155,-0.816
823318,-8960.0,-1216.0,541.0,0.036,0.569,0.138,-0.81
823334,-9662.0,-124.0,525.0,0.044,0.582,0.125,-0.803
823350,-9998.0,894.0,363.0,0.055,0.592,0.115,-0.795
823376,-10444.0,1462.0,121.0,0.069,0.602,0.109,-0.788
823392,-10774.0,1918.0,17.0,0.084,0.609,0.108,-0.781
823409,-11028.0,2126.0,87.0,0.101,0.615,0.11,-0.774
823426,-11272.0,2308.0,175.0,0.117,0.619,0.115,-0.768
823442,-11272.0,2072.0,311.0,0.133,0.622,0.123,-0.762
823459,-11214.0,1904.0,527.0,0.146,0.622,0.132,-0.757
823475,-10920.0,1538.0,853.0,0.156,0.623,0.141,-0.754
823492,-11006.0,1366.0,1117.0,0.163,0.623,0.15,-0.751
823509,-11172.0,1688.0,1719.0,0.166,0.623,0.158,-0.748
823526,-10958.0,2232.0,2389.0,0.164,0.622,0.166,-0.747
823552,-10586.0,2626.0,2773.0,0.16,0.622,0.177,-0.746
823568,-9902.0,2500.0,3267.0,0.154,0.622,0.189,-0.744
823584,-9048.0,2082.0,3477.0,0.144,0.623,0.204,-0.741
823600,-8788.0,1752.0,3831.0,0.133,0.625,0.222,-0.736
823616,-8740.0,1546.0,4065.0,0.122,0.628,0.244,-0.729
823632,-8594.0,454.0,4117.0,0.112,0.631,0.27,-0.718
823659,-7784.0,-1258.0,3469.0,0.103,0.634,0.298,-0.706
823676,-7040.0,-2796.0,2423.0,0.092,0.639,0.324,-0.691
823693,-7138.0,-3554.0,1641.0,0.078,0.645,0.349,-0.675
823709,-7016.0,-3348.0,799.0,0.061,0.651,0.372,-0.659
823725,-6576.0,-2710.0,135.0,0.046,0.657,0.394,-0.641
823741,-6014.0,-2176.0,-387.0,0.033,0.663,0.418,-0.621
823757,-5538.0,-2018.0,-953.0,0.024,0.668,0.444,-0.597
823783,-5040.0,-2948.0,-1627.0,0.02,0.673,0.473,-0.568
823799,-4480.0,-4910.0,-1899.0,0.019,0.68,0.505,-0.532
823816,-6060.0,-8096.0,-2037.0,0.02,0.686,0.536,-0.492
823833,-6142.0,-9406.0,-3457.0,0.02,0.692,0.561,-0.454
823849,-6914.0,-9804.0,-6299.0,0.021,0.7,0.579,-0.418
823866,-6806.0,-8338.0,-7529.0,0.03,0.711,0.588,-0.384
823883,-6556.0,-6662.0,-9537.0,0.041,0.724,0.59,-0.355
823900,-6474.0,-4154.0,-11717.0,0.052,0.736,0.587,-0.335
823917,-6188.0,414.0,-14321.0,0.061,0.742,0.584,-0.323
823933,-6516.0,2912.0,-13825.0,0.077,0.744,0.585,-0.315
823959,-5354.0,1692.0,-12017.0,0.096,0.74,0.587,-0.314
823976,-3950.0,434.0,-11309.0,0.115,0.734,0.588,-0.32
823992,-3650.0,-1916.0,-14357.0,0.13,0.726,0.587,-0.334
824009,26048.0,14664.0,-1143.0,0.095,0.73,0.609,-0.295
824025,-14594.0,-17034.0,6909.0,0.076,0.742,0.6,-0.289
824041,2408.0,7916.0,-8005.0,0.073,0.745,0.595,-0.291
824057,5696.0,5236.0,-13043.0,0.071,0.746,0.592,-0.298
824083,-4522.0,-3724.0,-4547.0,0.067,0.746,0.589,-0.302
824099,-8800.0,1480.0,-6053.0,0.07,0.745,0.59,-0.305
824116,-7928.0,-1214.0,-6165.0,0.073,0.744,0.588,-0.31
824132,-3208.0,-4086.0,-7147.0,0.077,0.742,0.586,-0.316
824149,-4648.0,-2952.0,-8139.0,0.081,0.741,0.584,-0.322
824166,-6174.0,-2504.0,-8761.0,0.084,0.739,0.583,-0.327
824183,-7420.0,-2380.0,-7211.0,0.088,0.738,0.581,-0.333
824199,-6102.0,-2382.0,-7739.0,0.092,0.737,0.578,-0.339
824226,-6578.0,-3020.0,-7639.0,0.098,0.735,0.574,-0.347
824242,-6614.0,-3256.0,-7415.0,0.103,0.734,0.57,-0.355
824259,-6272.0,-2886.0,-7445.0,0.108,0.731,0.567,-0.363
824276,-6554.0,-2458.0,-6613.0,0.114,0.729,0.564,-0.371
824293,-7034.0,-2554.0,-5859.0,0.12,0.727,0.559,-0.38
824309,-6252.0,-2392.0,-6999.0,0.126,0.726,0.554,-0.389
824325,-6164.0,-2110.0,-6283.0,0.133,0.724,0.549,-0.397
824342,-6424.0,-2554.0,-5315.0,0.139,0.722,0.544,-0.404
824358,-6458.0,-2378.0,-5671.0,0.145,0.72,0.54,-0.411
824385,-6574.0,-2444.0,-4903.0,0.152,0.719,0.534,-0.419
824401,-6694.0,-2716.0,-4101.0,0.159,0.717,0.528,-0.426
824417,-6170.0,-1808.0,-4367.0,0.165,0.716,0.522,-0.434
824434,-5128.0,-2648.0,-3765.0,0.173,0.714,0.516,-0.44
824450,-5460.0,-1298.0,-2565.0,0.181,0.713,0.509,-0.447
824466,-4140.0,-2132.0,-2507.0,0.19,0.711,0.502,-0.454
824482,-2676.0,-912.0,-2671.0,0.199,0.71,0.495,-0.46
824508,-2144.0,48.0,-2431.0,0.209,0.708,0.489,-0.465
824524,-1582.0,-1390.0,-1747.0,0.218,0.707,0.485,-0.466
824541,-1718.0,-3468.0,-3675.0,0.223,0.707,0.482,-0.466
824557,-1486.0,-10.0,-817.0,0.223,0.708,0.482,-0.466
824574,-4080.0,-1302.0,-779.0,0.222,0.708,0.482,-0.465
824590,-7304.0,-376.0,-4279.0,0.219,0.708,0.483,-0.467
824607,-7988.0,868.0,-2657.0,0.216,0.707,0.484,-0.469
824633,-9750.0,20.0,-3629.0,0.215,0.705,0.484,-0.471
824649,-10408.0,-412.0,-5531.0,0.215,0.704,0.484,-0.473
824665,-10632.0,24.0,-3827.0,0.215,0.703,0.484,-0.476
824682,-10124.0,-402.0,-4161.0,0.216,0.701,0.483,-0.478
824699,-10368.0,92.0,-4075.0,0.217,0.699,0.483,-0.481
824716,-9016.0,48.0,-3103.0,0.217,0.697,0.482,-0.485
824732,-8232.0,-688.0,-2869.0,0.218,0.694,0.481,-0.489
824749,-6880.0,-1008.0,-3107.0,0.217,0.691,0.482,-0.493
824766,-5636.0,-638.0,-2163.0,0.214,0.689,0.483,-0.497
824783,-5354.0,-2834.0,-2449.0,0.209,0.687,0.485,-0.499
824810,-5202.0,272.0,-1911.0,0.205,0.685,0.487,-0.502
824827,-4616.0,-1664.0,-1489.0,0.201,0.683,0.49,-0.503
824844,-5252.0,-920.0,-1929.0,0.198,0.681,0.493,-0.504
824861,-5206.0,-2872.0,-1911.0,0.195,0.68,0.496,-0.504
824878,-5872.0,-1826.0,-1827.0,0.192,0.679,0.497,-0.504
824895,-6658.0,-2786.0,-2039.0,0.19,0.679,0.498,-0.505
824912,-7758.0,-3896.0,-2479.0,0.188,0.68,0.497,-0.505
824929,-9496.0,-1906.0,-2487.0,0.187,0.681,0.494,-0.506
824946,-9606.0,-3186.0,-3591.0,0.188,0.682,0.491,-0.508
824963,-10758.0,-3018.0,-3705.0,0.191,0.683,0.487,-0.511
824980,-10894.0,-2950.0,-3345.0,0.195,0.682,0.483,-0.513
824997,-10986.0,-2936.0,-3983.0,0.2,0.682,0.478,-0.516
825014,-11014.0,-1296.0,-3475.0,0.208,0.681,0.472,-0.52
825031,-9698.0,-236.0,-3261.0,0.219,0.679,0.466,-0.523
825058,-9172.0,1324.0,-2835.0,0.234,0.677,0.461,-0.524
825075,-7204.0,2258.0,-2387.0,0.25,0.674,0.456,-0.524
825091,-5374.0,2642.0,-1219.0,0.266,0.672,0.452,-0.522
825107,-4998.0,2312.0,-4279.0,0.273,0.673,0.451,-0.52
825123,-5668.0,8850.0,-3891.0,0.27,0.67,0.458,-0.518
825139,-4570.0,1792.0,-4023.0,0.267,0.667,0.471,-0.512
825156,-7934.0,-23366.0,1459.0,0.243,0.673,0.474,-0.514
825172,-2080.0,-26212.0,5123.0,0.239,0.678,0.475,-0.508
825198,-5890.0,7518.0,-2135.0,0.212,0.681,0.472,-0.518
825215,-7400.0,4004.0,-2339.0,0.203,0.678,0.476,-0.522
825232,-8556.0,1628.0,-1731.0,0.2,0.674,0.478,-0.526
825248,-6154.0,-3204.0,-3601.0,0.199,0.67,0.481,-0.528
825265,-9542.0,-1266.0,-4341.0,0.198,0.668,0.484,-0.53
825282,-9768.0,-1000.0,-3617.0,0.197,0.666,0.485,-0.531
825299,-8742.0,-3498.0,-3483.0,0.196,0.665,0.486,-0.532
825316,-9470.0,-3068.0,-3543.0,0.196,0.664,0.485,-0.534
825333,-8408.0,-2788.0,-2283.0,0.196,0.663,0.484,-0.536
825349,-6580.0,-1892.0,-2095.0,0.197,0.663,0.482,-0.539
825376,-4970.0,-1792.0,-2365.0,0.197,0.662,0.481,-0.541
825393,-4118.0,-1266.0,-1153.0,0.197,0.661,0.48,-0.542
825410,-3472.0,-336.0,-1289.0,0.197,0.662,0.479,-0.542
825427,-2446.0,-1184.0,-1735.0,0.196,0.662,0.479,-0.542
825444,-2924.0,-902.0,-769.0,0.193,0.663,0.48,-0.541
825461,-3082.0,-2096.0,-523.0,0.19,0.663,0.483,-0.54
825478,-3822.0,-878.0,-2305.0,0.188,0.662,0.486,-0.539
825495,-4656.0,-102.0,-953.0,0.185,0.662,0.49,-0.537
825512,-5060.0,-1316.0,-1519.0,0.182,0.661,0.494,-0.536
825529,-7010.0,-1084.0,-2151.0,0.181,0.659,0.497,-0.535
825546,-6720.0,-2822.0,-2411.0,0.178,0.658,0.501,-0.534
825563,-8300.0,-2354.0,-1951.0,0.177,0.655,0.504,-0.534
825580,-8892.0,-2440.0,-2897.0,0.175,0.653,0.507,-0.535
825597,-9058.0,-2502.0,-2709.0,0.175,0.65,0.508,-0.537
825624,-9368.0,-3062.0,-2047.0,0.175,0.648,0.509,-0.539
825641,-7940.0,-3284.0,-2999.0,0.176,0.646,0.509,-0.542
825658,-8934.0,-2690.0,-2025.0,0.177,0.644,0.509,-0.543
825675,-8662.0,-2898.0,-2217.0,0.177,0.643,0.509,-0.544
825692,-7690.0,-3314.0,-2921.0,0.178,0.643,0.508,-0.545
825708,-8200.0,-2550.0,-2711.0,0.178,0.643,0.508,-0.545
825724,-9370.0,-2626.0,-2063.0,0.178,0.644,0.507,-0.545
825741,-9618.0,-4092.0,-1545.0,0.179,0.644,0.506,-0.546
825758,-9376.0,-2954.0,-2459.0,0.181,0.643,0.503,-0.548
825775,-9358.0,-2872.0,-2597.0,0.183,0.642,0.501,-0.551
825792,-9582.0,-3448.0,-2171.0,0.185,0.641,0.498,-0.554
825809,-9716.0,-3480.0,-2085.0,0.188,0.639,0.495,-0.558
825836,-8876.0,-3632.0,-2237.0,0.191,0.637,0.491,-0.563
825852,-9180.0,-3300.0,-1789.0,0.193,0.635,0.488,-0.567
825868,-8802.0,-3198.0,-1659.0,0.196,0.633,0.484,-0.572
825885,-8696.0,-3280.0,-1489.0,0.199,0.631,0.48,-0.576
825901,-8712.0,-3268.0,-1303.0,0.202,0.63,0.476,-0.58
825918,-8428.0,-3346.0,-1337.0,0.205,0.629,0.472,-0.583
825934,-8728.0,-2868.0,-1309.0,0.208,0.628,0.467,-0.586
825960,-8822.0,-3608.0,-933.0,0.211,0.628,0.464,-0.588
825977,-10074.0,-3406.0,-1071.0,0.214,0.628,0.461,-0.59
825994,-10420.0,-3614.0,-1699.0,0.216,0.628,0.458,-0.591
826011,-10662.0,-3486.0,-1805.0,0.217,0.629,0.457,-0.591
826028,-11978.0,-3730.0,-1451.0,0.217,0.629,0.458,-0.59
826045,-12130.0,-3692.0,-1565.0,0.216,0.629,0.459,-0.589
826062,-11754.0,-3920.0,-1853.0,0.216,0.629,0.461,-0.588
826079,-12510.0,-4320.0,-1649.0,0.215,0.628,0.464,-0.586
826096,-10886.0,-4172.0,-2273.0,0.213,0.628,0.468,-0.584
826113,-11426.0,-4518.0,-2627.0,0.21,0.628,0.473,-0.581
826130,-12286.0,-4278.0,-2313.0,0.206,0.629,0.479,-0.577
826147,-11932.0,-3730.0,-2047.0,0.203,0.63,0.485,-0.572
826164,-10968.0,-3888.0,-2095.0,0.202,0.631,0.49,-0.567
826181,-10262.0,-4862.0,-2217.0,0.2,0.632,0.493,-0.563
826208,-9928.0,-3214.0,-2595.0,0.198,0.633,0.497,-0.56
826225,-9258.0,-2792.0,-2467.0,0.197,0.634,0.5,-0.556
826242,-9002.0,-3310.0,-1591.0,0.197,0.635,0.501,-0.554
826259,-8394.0,-3214.0,-2337.0,0.197,0.636,0.501,-0.553
826276,-8870.0,-1818.0,-2271.0,0.197,0.637,0.501,-0.552
826293,-7276.0,-2700.0,-1749.0,0.198,0.637,0.5,-0.552
826310,-7352.0,-2572.0,-2189.0,0.2,0.638,0.498,-0.553
826327,-8228.0,-1782.0,-2183.0,0.201,0.639,0.496,-0.553
826344,-6836.0,-2718.0,-1441.0,0.203,0.639,0.494,-0.554
826361,-7446.0,-2092.0,-1655.0,0.205,0.639,0.491,-0.555
826378,-8042.0,-2106.0,-1449.0,0.207,0.64,0.488,-0.557
826395,-7334.0,-2584.0,-931.0,0.211,0.64,0.484,-0.559
826412,-7670.0,-1674.0,-1213.0,0.214,0.64,0.479,-0.562
826429,-7022.0,-2158.0,-1797.0,0.218,0.641,0.472,-0.565
826456,-7310.0,-1472.0,-641.0,0.223,0.641,0.466,-0.568
826473,-6526.0,-1132.0,-1149.0,0.229,0.642,0.458,-0.571
826490,-5794.0,-2186.0,-1931.0,0.236,0.642,0.448,-0.575
826507,-5900.0,-686.0,-979.0,0.243,0.643,0.439,-0.579
826524,-5304.0,-324.0,-565.0,0.252,0.643,0.429,-0.582
826541,-4326.0,270.0,-857.0,0.263,0.641,0.419,-0.586
826558,-2622.0,-392.0,-411.0,0.275,0.639,0.41,-0.59
826574,-1348.0,-842.0,-667.0,0.286,0.638,0.401,-0.592
826590,-556.0,-1026.0,-1121.0,0.292,0.637,0.395,-0.594
826607,-510.0,-990.0,-1165.0,0.295,0.638,0.391,-0.594
826624,-828.0,328.0,-799.0,0.295,0.639,0.39,-0.593
826641,-668.0,-1152.0,-205.0,0.294,0.641,0.392,-0.591
826668,-736.0,-1680.0,-141.0,0.289,0.642,0.396,-0.589
826684,-1436.0,-810.0,-399.0,0.282,0.644,0.402,-0.588
826700,-2162.0,-728.0,-509.0,0.273,0.644,0.41,-0.585
826716,-3152.0,-1276.0,-75.0,0.263,0.644,0.421,-0.583
826733,-3708.0,1210.0,-873.0,0.253,0.643,0.432,-0.58
826749,-4998.0,728.0,-1649.0,0.245,0.642,0.442,-0.576
826765,-5494.0,-2764.0,-1877.0,0.235,0.643,0.453,-0.571
826791,-7732.0,-26.0,-1235.0,0.226,0.643,0.462,-0.567
826808,-8502.0,-1978.0,-1419.0,0.219,0.643,0.471,-0.563
826824,-8888.0,-3346.0,-1745.0,0.215,0.642,0.478,-0.56
826841,-9818.0,-1732.0,-1209.0,0.211,0.641,0.483,-0.558
826858,-8178.0,-2672.0,-2687.0,0.209,0.64,0.487,-0.557
826875,-10256.0,-2010.0,-1587.0,0.208,0.639,0.489,-0.556
826892,-9086.0,-3520.0,-1971.0,0.207,0.639,0.491,-0.554
826908,-8812.0,-3026.0,-2251.0,0.207,0.638,0.492,-0.554
826925,-9354.0,-2120.0,-1905.0,0.206,0.638,0.494,-0.553
826942,-8964.0,-2614.0,-1583.0,0.206,0.638,0.495,-0.552
826968,-9334.0,-2968.0,-1273.0,0.206,0.637,0.495,-0.553
826984,-8306.0,-2794.0,-2245.0,0.207,0.636,0.495,-0.554
827000,-7764.0,-2362.0,-1723.0,0.207,0.635,0.495,-0.555
827016,-7936.0,-3056.0,-1999.0,0.207,0.634,0.496,-0.556
827032,-8272.0,-2696.0,-1489.0,0.206,0.632,0.497,-0.558
827058,-7794.0,-2860.0,-1779.0,0.206,0.63,0.497,-0.56
827074,-8368.0,-1802.0,-2289.0,0.207,0.628,0.497,-0.562
827091,-8216.0,-3196.0,-1563.0,0.208,0.626,0.498,-0.563
827107,-8182.0,-3396.0,-1689.0,0.208,0.625,0.497,-0.565
827123,-8610.0,-2932.0,-1891.0,0.209,0.624,0.496,-0.567
827139,-7940.0,-3116.0,-1481.0,0.21,0.623,0.494,-0.569
827156,-7848.0,-3052.0,-1159.0,0.211,0.622,0.492,-0.571
827172,-7992.0,-2714.0,-1523.0,0.212,0.622,0.49,-0.573
827199,-7778.0,-2660.0,-1283.0,0.214,0.621,0.488,-0.575
827215,-7948.0,-2512.0,-925.0,0.216,0.62,0.486,-0.577
827231,-8066.0,-2666.0,-1081.0,0.218,0.619,0.484,-0.579
827248,-8308.0,-2642.0,-947.0,0.221,0.618,0.482,-0.58
827264,-8084.0,-2944.0,-1103.0,0.223,0.618,0.48,-0.581
827281,-8950.0,-3070.0,-927.0,0.225,0.618,0.478,-0.582
827298,-9768.0,-2948.0,-909.0,0.227,0.618,0.476,-0.583
827314,-10396.0,-3218.0,-1133.0,0.229,0.617,0.474,-0.585
827341,-11836.0,-4806.0,-1389.0,0.231,0.617,0.472,-0.586
827358,-12392.0,-3976.0,-1871.0,0.232,0.616,0.472,-0.586
827375,-12516.0,-4856.0,-2139.0,0.232,0.616,0.472,-0.586
827392,-13656.0,-4844.0,-1817.0,0.231,0.616,0.474,-0.585
827409,-13044.0,-4488.0,-1805.0,0.229,0.616,0.477,-0.583
827425,-11636.0,-4362.0,-2743.0,0.227,0.616,0.481,-0.581
827442,-12134.0,-4078.0,-2161.0,0.224,0.617,0.486,-0.577
827458,-10830.0,-4128.0,-2089.0,0.22,0.618,0.492,-0.573
827475,-11152.0,-3970.0,-2769.0,0.216,0.618,0.498,-0.568
827491,-12092.0,-3630.0,-2149.0,0.213,0.618,0.504,-0.564
827518,-10524.0,-3760.0,-2215.0,0.21,0.619,0.51,-0.56
827534,-10246.0,-3698.0,-2781.0,0.207,0.618,0.515,-0.556
827550,-10978.0,-3492.0,-2133.0,0.205,0.618,0.52,-0.553
827566,-10270.0,-3636.0,-1985.0,0.203,0.618,0.524,-0.55
827582,-8514.0,-3806.0,-2737.0,0.201,0.618,0.526,-0.549
827598,-9584.0,-2824.0,-2265.0,0.199,0.618,0.529,-0.547
827624,-8550.0,-3676.0,-2089.0,0.198,0.618,0.531,-0.546
827641,-8430.0,-2536.0,-2017.0,0.197,0.618,0.531,-0.545
827658,-7724.0,-3216.0,-1711.0,0.198,0.619,0.53,-0.546
827675,-7294.0,-2770.0,-1221.0,0.198,0.619,0.527,-0.547
827692,-6780.0,-2980.0,-1291.0,0.198,0.621,0.524,-0.549
827708,-7050.0,-2574.0,-1159.0,0.2,0.622,0.517,-0.552
827724,-7100.0,-2434.0,-1579.0,0.203,0.624,0.51,-0.556
827741,-4394.0,-1598.0,-3203.0,0.205,0.626,0.505,-0.558
827758,-4700.0,-2332.0,-2833.0,0.207,0.628,0.501,-0.559
827775,-5940.0,-1608.0,-2589.0,0.208,0.63,0.498,-0.559
827792,-7010.0,-1574.0,-1427.0,0.209,0.631,0.496,-0.558
827818,-6532.0,-1806.0,-1407.0,0.213,0.632,0.493,-0.558
827834,-7080.0,-2570.0,-1213.0,0.217,0.633,0.488,-0.56
827850,-7224.0,-2236.0,-1961.0,0.222,0.634,0.483,-0.562
827866,-6938.0,-890.0,-1629.0,0.226,0.634,0.477,-0.565
827882,-6936.0,-1602.0,-1395.0,0.232,0.633,0.471,-0.569
827898,-6724.0,-1254.0,-1725.0,0.239,0.632,0.464,-0.573
827924,-5608.0,-1962.0,-1143.0,0.245,0.631,0.457,-0.577
827941,-5294.0,446.0,-853.0,0.253,0.628,0.45,-0.582
827957,-3574.0,-692.0,-1319.0,0.262,0.626,0.444,-0.586
827974,-2486.0,-824.0,-1137.0,0.269,0.624,0.438,-0.589
827991,-2068.0,-1318.0,-589.0,0.275,0.623,0.434,-0.59
828008,-912.0,-1220.0,-1279.0,0.278,0.623,0.431,-0.591
828025,-616.0,-1532.0,-961.0,0.277,0.625,0.43,-0.59
828042,-522.0,-1834.0,-1179.0,0.272,0.627,0.431,-0.589
828058,-858.0,-1708.0,-845.0,0.264,0.63,0.435,-0.587
828075,-1796.0,-1538.0,-165.0,0.253,0.632,0.442,-0.584
828102,-2230.0,-466.0,-205.0,0.243,0.633,0.45,-0.581
828118,-2458.0,-2242.0,-1231.0,0.233,0.634,0.46,-0.576
828135,-3840.0,316.0,-487.0,0.22,0.635,0.471,-0.572
828151,-4466.0,22.0,-295.0,0.213,0.634,0.482,-0.566
828167,-5116.0,-4346.0,-1571.0,0.208,0.633,0.49,-0.563
828184,-6048.0,-2096.0,-2701.0,0.197,0.633,0.498,-0.559
828200,-7648.0,-962.0,-1885.0,0.192,0.632,0.505,-0.555
828226,-8324.0,-3626.0,-1771.0,0.188,0.631,0.511,-0.552
828243,-8848.0,-3182.0,-2943.0,0.186,0.63,0.515,-0.551
828260,-7532.0,-2882.0,-2985.0,0.185,0.629,0.517,-0.55
828278,-9026.0,-3408.0,-1997.0,0.184,0.627,0.521,-0.549
828295,-9016.0,-3738.0,-2523.0,0.184,0.626,0.522,-0.549
828312,-8916.0,-2694.0,-2305.0,0.185,0.625,0.522,-0.551
828329,-8132.0,-3516.0,-3137.0,0.185,0.623,0.522,-0.552
828346,-9246.0,-3370.0,-2611.0,0.187,0.622,0.522,-0.553
828363,-9736.0,-3426.0,-2105.0,0.19,0.619,0.521,-0.556
828380,-9160.0,-3078.0,-2343.0,0.193,0.617,0.518,-0.56
828397,-8864.0,-2984.0,-2015.0,0.198,0.614,0.515,-0.564
828414,-8030.0,-4120.0,-2495.0,0.2,0.612,0.512,-0.568
828430,-8798.0,-2622.0,-1693.0,0.203,0.609,0.51,-0.572
828447,-7858.0,-3502.0,-1331.0,0.205,0.607,0.508,-0.576
828474,-8840.0,-2688.0,-1641.0,0.207,0.605,0.505,-0.579
828491,-8174.0,-2362.0,-1661.0,0.21,0.604,0.502,-0.582
828507,-8148.0,-3962.0,-797.0,0.213,0.603,0.499,-0.585
828524,-8342.0,-2632.0,-1281.0,0.216,0.602,0.495,-0.588
828541,-8294.0,-3398.0,-1195.0,0.218,0.601,0.492,-0.591
828557,-8876.0,-3166.0,-353.0,0.22,0.599,0.489,-0.594
828574,-9670.0,-3454.0,-409.0,0.223,0.598,0.485,-0.598
828591,-9372.0,-3496.0,-369.0,0.227,0.596,0.48,-0.603
828608,-9160.0,-3474.0,-91.0,0.231,0.593,0.475,-0.607
828625,-9266.0,-2970.0,-629.0,0.236,0.591,0.47,-0.612
828642,-10180.0,-3210.0,-277.0,0.24,0.589,0.466,-0.615
828659,-10424.0,-4032.0,63.0,0.244,0.587,0.463,-0.617
828686,-13250.0,-5030.0,-179.0,0.247,0.586,0.459,-0.62
828702,-11296.0,-3896.0,-599.0,0.249,0.585,0.458,-0.622
828718,-12894.0,-4582.0,-307.0,0.248,0.584,0.458,-0.622
828734,-13774.0,-4598.0,153.0,0.247,0.584,0.46,-0.622
828750,-12048.0,-4016.0,-593.0,0.245,0.583,0.462,-0.622
828766,-11788.0,-4306.0,-201.0,0.244,0.582,0.466,-0.621
828783,-11172.0,-4128.0,-239.0,0.24,0.581,0.47,-0.62
828809,-9954.0,-3636.0,-1165.0,0.235,0.58,0.475,-0.618
828826,-10780.0,-3550.0,-571.0,0.23,0.58,0.481,-0.615
828843,-10626.0,-3458.0,-225.0,0.225,0.581,0.487,-0.612
828860,-8992.0,-3544.0,-807.0,0.22,0.581,0.493,-0.609
828877,-9382.0,-3294.0,-603.0,0.215,0.581,0.499,-0.606
828894,-9908.0,-3604.0,-447.0,0.211,0.582,0.504,-0.602
828911,-8782.0,-3270.0,-835.0,0.209,0.582,0.508,-0.599
828928,-8926.0,-3588.0,-225.0,0.206,0.583,0.513,-0.596
828945,-9258.0,-3668.0,-615.0,0.204,0.584,0.515,-0.593
828962,-8100.0,-3682.0,-1061.0,0.204,0.584,0.517,-0.591
828979,-8124.0,-3204.0,-473.0,0.203,0.585,0.519,-0.589
828996,-7744.0,-2948.0,-1323.0,0.202,0.586,0.52,-0.588
829013,-7380.0,-3010.0,-1769.0,0.201,0.588,0.521,-0.586
829040,-7858.0,-2188.0,-1141.0,0.201,0.59,0.521,-0.583
829056,-8544.0,-3112.0,-1065.0,0.202,0.592,0.521,-0.58
829073,-7220.0,-2230.0,-1691.0,0.205,0.595,0.52,-0.578
829090,-5562.0,-3828.0,-2149.0,0.206,0.598,0.519,-0.575
829107,-7120.0,-3586.0,-1729.0,0.204,0.601,0.519,-0.573
829123,-7974.0,-2876.0,-1581.0,0.203,0.604,0.519,-0.571
829140,-8822.0,-2300.0,-1129.0,0.204,0.605,0.517,-0.57
829157,-8634.0,-2384.0,-2031.0,0.206,0.607,0.514,-0.57
829173,-7620.0,-3034.0,-1907.0,0.211,0.608,0.51,-0.571
829200,-6838.0,-4596.0,-2065.0,0.214,0.609,0.506,-0.573
829217,-9136.0,-1448.0,-1589.0,0.218,0.61,0.5,-0.575
829233,-7470.0,-2652.0,-1703.0,0.225,0.611,0.493,-0.578
829249,-6982.0,-2068.0,-1465.0,0.233,0.612,0.484,-0.581
829265,-6030.0,-2922.0,-1399.0,0.241,0.613,0.474,-0.584
829281,-5436.0,-194.0,-1137.0,0.251,0.613,0.464,-0.588
829297,-3848.0,-1034.0,-1297.0,0.264,0.613,0.453,-0.591
829323,-2340.0,-1348.0,-943.0,0.276,0.614,0.442,-0.593
829340,-1618.0,-300.0,-827.0,0.286,0.615,0.431,-0.595
829357,-1222.0,-1292.0,-923.0,0.294,0.617,0.423,-0.595
829374,-1036.0,-1474.0,-847.0,0.298,0.62,0.416,-0.595
829391,-812.0,-1758.0,-495.0,0.299,0.623,0.413,-0.594
829408,-1240.0,-2440.0,-137.0,0.295,0.625,0.413,-0.593
829425,-1562.0,-1766.0,-85.0,0.288,0.627,0.417,-0.592
829442,-1112.0,-1018.0,-333.0,0.28,0.627,0.423,-0.591
829459,-1402.0,-1150.0,-89.0,0.27,0.626,0.432,-0.59
829476,-2372.0,-1370.0,-221.0,0.26,0.625,0.442,-0.589
829493,-3208.0,-1006.0,275.0,0.248,0.623,0.452,-0.588
829510,-4098.0,-1298.0,-785.0,0.236,0.621,0.463,-0.586
829527,-5120.0,1168.0,-1027.0,0.225,0.619,0.474,-0.584
829544,-5428.0,-1418.0,-1499.0,0.218,0.617,0.484,-0.581
829571,-7448.0,-3124.0,-1445.0,0.209,0.616,0.491,-0.579
829588,-8770.0,-1900.0,-1833.0,0.203,0.614,0.498,-0.577
829604,-8640.0,-2650.0,-621.0,0.2,0.612,0.503,-0.577
829620,-7448.0,-4752.0,-2709.0,0.195,0.61,0.509,-0.576
829636,-9692.0,-2750.0,-2015.0,0.191,0.608,0.513,-0.575
829652,-8986.0,-3484.0,-867.0,0.189,0.606,0.516,-0.575
829668,-9586.0,-3416.0,-1761.0,0.188,0.605,0.518,-0.575
829694,-8806.0,-3404.0,-2557.0,0.189,0.603,0.519,-0.576
829710,-7368.0,-4048.0,-2167.0,0.188,0.601,0.522,-0.575
829727,-9338.0,-4232.0,-1303.0,0.187,0.601,0.523,-0.575
829743,-9666.0,-3454.0,-1533.0,0.188,0.6,0.523,-0.576
829759,-10346.0,-3140.0,-1633.0,0.19,0.599,0.521,-0.578
829775,-8280.0,-3816.0,-1757.0,0.194,0.598,0.519,-0.58
829801,-7734.0,-4798.0,-2209.0,0.196,0.597,0.517,-0.581
829818,-9476.0,-3172.0,-1521.0,0.198,0.597,0.515,-0.583
829835,-8130.0,-3518.0,-1423.0,0.2,0.597,0.513,-0.584
829852,-8760.0,-3678.0,-781.0,0.201,0.596,0.511,-0.586
829868,-8660.0,-3196.0,-937.0,0.204,0.594,0.509,-0.588
829885,-7598.0,-3074.0,-1397.0,0.206,0.593,0.507,-0.591
829902,-7898.0,-2898.0,-1165.0,0.208,0.592,0.505,-0.593
829918,-8200.0,-3488.0,-947.0,0.209,0.591,0.504,-0.594
829934,-8890.0,-3186.0,-747.0,0.21,0.59,0.503,-0.596
829960,-8370.0,-3376.0,-1037.0,0.212,0.589,0.501,-0.598
829977,-8924.0,-3402.0,-975.0,0.214,0.589,0.499,-0.6
829994,-8764.0,-3198.0,-1087.0,0.215,0.588,0.497,-0.601
830011,-8908.0,-3770.0,-469.0,0.218,0.587,0.495,-0.603
830028,-9112.0,-3346.0,-537.0,0.22,0.585,0.494,-0.604
830045,-8818.0,-3596.0,-667.0,0.222,0.584,0.493,-0.606
830062,-8266.0,-3612.0,-727.0,0.224,0.583,0.491,-0.607
830079,-8666.0,-3582.0,-359.0,0.225,0.583,0.49,-0.608
830096,-8472.0,-3896.0,-999.0,0.226,0.583,0.49,-0.608
830113,-8894.0,-3344.0,-561.0,0.227,0.583,0.489,-0.607
830130,-9704.0,-4164.0,-289.0,0.228,0.584,0.489,-0.606
830146,-10132.0,-4104.0,-655.0,0.228,0.585,0.49,-0.605
830173,-10082.0,-4364.0,-817.0,0.229,0.585,0.49,-0.604
830190,-10760.0,-4614.0,-689.0,0.229,0.585,0.492,-0.603
830207,-10406.0,-4846.0,-893.0,0.228,0.585,0.494,-0.602
830224,-10436.0,-3958.0,-973.0,0.227,0.584,0.497,-0.601
830241,-10124.0,-4722.0,-887.0,0.226,0.583,0.499,-0.599
830259,-10126.0,-4332.0,-1113.0,0.224,0.583,0.503,-0.598
830276,-9312.0,-4108.0,-1707.0,0.221,0.582,0.507,-0.596
830293,-10700.0,-4160.0,-1335.0,0.219,0.581,0.512,-0.594
830310,-10526.0,-4468.0,-1535.0,0.216,0.58,0.516,-0.592
830327,-10082.0,-4666.0,-1829.0,0.214,0.579,0.52,-0.591
830344,-10884.0,-4674.0,-1403.0,0.212,0.577,0.524,-0.59
830361,-10110.0,-4550.0,-1505.0,0.211,0.574,0.528,-0.589
830378,-9336.0,-4638.0,-1565.0,0.209,0.572,0.531,-0.589
830395,-10204.0,-4206.0,-1375.0,0.209,0.57,0.533,-0.589
830412,-8856.0,-4440.0,-1811.0,0.208,0.568,0.535,-0.59
830429,-8028.0,-3914.0,-1957.0,0.207,0.567,0.537,-0.59
830456,-8674.0,-4020.0,-1921.0,0.206,0.566,0.539,-0.589
830473,-9138.0,-3850.0,-1307.0,0.205,0.566,0.541,-0.587
830490,-8418.0,-3992.0,-1093.0,0.205,0.566,0.542,-0.586
830507,-7894.0,-4068.0,-1717.0,0.206,0.567,0.542,-0.585
830523,-8214.0,-4180.0,-931.0,0.206,0.568,0.542,-0.584
830540,-8060.0,-3244.0,-1219.0,0.207,0.568,0.541,-0.584
830557,-7572.0,-3152.0,-1647.0,0.209,0.569,0.539,-0.584
830574,-8366.0,-3904.0,-687.0,0.213,0.571,0.536,-0.584
830592,-8588.0,-3250.0,-403.0,0.218,0.572,0.531,-0.586
830609,-6168.0,-3114.0,-1949.0,0.222,0.572,0.526,-0.588
830626,-6370.0,-2756.0,-1833.0,0.226,0.574,0.522,-0.589
830643,-6588.0,-2466.0,-1643.0,0.229,0.576,0.518,-0.589
830660,-7284.0,-1786.0,-475.0,0.234,0.579,0.512,-0.589
830677,-7232.0,-2278.0,-209.0,0.242,0.581,0.506,-0.59
830704,-6154.0,-2244.0,-1341.0,0.251,0.583,0.498,-0.591
830721,-5490.0,-2196.0,-993.0,0.259,0.585,0.49,-0.592
830738,-4856.0,300.0,-1107.0,0.269,0.587,0.481,-0.593
830754,-4396.0,-1274.0,-711.0,0.278,0.591,0.472,-0.593
830771,-3516.0,-1202.0,-257.0,0.287,0.594,0.462,-0.593
830787,-2678.0,-1112.0,-273.0,0.295,0.596,0.453,-0.593
830803,-2472.0,-1238.0,-57.0,0.3,0.599,0.446,-0.594
830819,-1732.0,-660.0,-3.0,0.304,0.6,0.441,-0.594
830836,-1084.0,-1498.0,-75.0,0.307,0.601,0.439,-0.593
830863,-622.0,-1556.0,-557.0,0.305,0.602,0.44,-0.592
830879,-514.0,-1854.0,-699.0,0.301,0.603,0.443,-0.591
830896,-1266.0,-1790.0,-55.0,0.294,0.604,0.448,-0.59
830912,-2010.0,-1200.0,633.0,0.286,0.604,0.455,-0.588
830928,-2078.0,130.0,-339.0,0.277,0.603,0.464,-0.587
830945,-2808.0,-3708.0,-1137.0,0.268,0.602,0.474,-0.584
830962,-4232.0,164.0,-633.0,0.257,0.601,0.484,-0.581
830979,-5182.0,-1032.0,-585.0,0.249,0.6,0.494,-0.578
830996,-6932.0,-2948.0,-1211.0,0.242,0.599,0.501,-0.576
831022,-7846.0,-322.0,-929.0,0.237,0.597,0.507,-0.575
831039,-6276.0,-3640.0,-1441.0,0.234,0.594,0.513,-0.573
831056,-7588.0,-2724.0,-1721.0,0.23,0.593,0.518,-0.572
831072,-7358.0,-3318.0,-2675.0,0.226,0.592,0.523,-0.57
831089,-8228.0,-2168.0,-1041.0,0.224,0.591,0.528,-0.568
831106,-8108.0,-3838.0,-2083.0,0.222,0.59,0.531,-0.566
831123,-9250.0,-2990.0,-2345.0,0.221,0.59,0.532,-0.566
831140,-7686.0,-2920.0,-1855.0,0.22,0.59,0.534,-0.564
831157,-8408.0,-4338.0,-1479.0,0.221,0.59,0.535,-0.563
831175,-9224.0,-3254.0,-1999.0,0.221,0.589,0.535,-0.564
831192,-7614.0,-4190.0,-2635.0,0.221,0.589,0.535,-0.564
831209,-8688.0,-2746.0,-1825.0,0.221,0.589,0.534,-0.564
831226,-8614.0,-4576.0,-1559.0,0.222,0.589,0.533,-0.566
831253,-9718.0,-2748.0,-1785.0,0.224,0.588,0.53,-0.569
831269,-8490.0,-3302.0,-2033.0,0.226,0.587,0.527,-0.571
831286,-8352.0,-3638.0,-1663.0,0.229,0.586,0.524,-0.574
831302,-8772.0,-3554.0,-1439.0,0.231,0.585,0.521,-0.578
831318,-8352.0,-4170.0,-1623.0,0.232,0.583,0.518,-0.581
831335,-8304.0,-3380.0,-997.0,0.234,0.582,0.514,-0.585
831352,-8388.0,-3278.0,-643.0,0.236,0.582,0.51,-0.588
831369,-8870.0,-2890.0,-1045.0,0.237,0.581,0.505,-0.592
831385,-7992.0,-3414.0,-989.0,0.241,0.581,0.499,-0.595
831411,-7902.0,-3088.0,-849.0,0.243,0.582,0.494,-0.598
831428,-8216.0,-3278.0,-1131.0,0.245,0.583,0.49,-0.6
831445,-8700.0,-3002.0,-537.0,0.247,0.585,0.486,-0.6
831462,-8570.0,-2930.0,-339.0,0.25,0.587,0.481,-0.601
831479,-9250.0,-3090.0,-261.0,0.253,0.588,0.477,-0.602
831495,-9446.0,-3052.0,409.0,0.255,0.589,0.473,-0.604
831512,-9240.0,-2614.0,53.0,0.258,0.589,0.468,-0.606
831529,-9814.0,-2536.0,-173.0,0.259,0.589,0.464,-0.609
831546,-10450.0,-2242.0,-33.0,0.261,0.588,0.46,-0.612
831562,-10712.0,-3164.0,115.0,0.262,0.588,0.458,-0.614
831588,-12780.0,-3144.0,-157.0,0.262,0.587,0.456,-0.615
831605,-12338.0,-3674.0,421.0,0.263,0.586,0.456,-0.617
831622,-12250.0,-4106.0,-311.0,0.261,0.584,0.457,-0.618
831639,-13156.0,-3944.0,-647.0,0.258,0.583,0.459,-0.619
831656,-12512.0,-3894.0,-419.0,0.253,0.582,0.464,-0.619
831673,-11690.0,-4088.0,-659.0,0.248,0.58,0.469,-0.618
831690,-12650.0,-4354.0,-515.0,0.243,0.579,0.475,-0.616
831707,-11624.0,-3982.0,-371.0,0.238,0.577,0.482,-0.615
831724,-9904.0,-4418.0,-629.0,0.234,0.575,0.49,-0.612
831741,-10370.0,-3824.0,-531.0,0.23,0.573,0.497,-0.61
831758,-9508.0,-4226.0,17.0,0.226,0.572,0.503,-0.607
831775,-8836.0,-3698.0,-401.0,0.224,0.571,0.509,-0.604
831792,-8432.0,-3812.0,-189.0,0.223,0.571,0.513,-0.601
831819,-7550.0,-3552.0,-575.0,0.221,0.572,0.517,-0.598
831835,-7790.0,-3358.0,-615.0,0.221,0.573,0.521,-0.593
831851,-7796.0,-3602.0,-689.0,0.221,0.575,0.524,-0.589
831868,-7824.0,-3402.0,-279.0,0.221,0.577,0.525,-0.585
831884,-7636.0,-2576.0,-1051.0,0.223,0.579,0.526,-0.582
831900,-6546.0,-4042.0,-1457.0,0.223,0.581,0.527,-0.578
831916,-8154.0,-3400.0,-693.0,0.224,0.583,0.527,-0.576
831942,-8092.0,-2794.0,-977.0,0.227,0.585,0.526,-0.574
831959,-7492.0,-3292.0,-1393.0,0.229,0.587,0.524,-0.573
831976,-6918.0,-3518.0,-1923.0,0.231,0.588,0.523,-0.572
831993,-7842.0,-2366.0,-1221.0,0.233,0.589,0.521,-0.572
832010,-7558.0,-3424.0,-1179.0,0.236,0.59,0.519,-0.572
832027,-8402.0,-2658.0,-1579.0,0.239,0.591,0.515,-0.572
832043,-8096.0,-2560.0,-985.0,0.244,0.592,0.511,-0.574
832060,-6624.0,-2984.0,-1379.0,0.248,0.593,0.506,-0.575
832077,-7744.0,-2870.0,-1123.0,0.252,0.594,0.5,-0.578
832094,-7464.0,-1308.0,-1525.0,0.256,0.595,0.494,-0.58
832111,-6378.0,-2888.0,-971.0,0.262,0.596,0.488,-0.582
832138,-7002.0,-1108.0,-973.0,0.268,0.597,0.48,-0.585
832155,-6376.0,-818.0,-869.0,0.276,0.597,0.472,-0.587
832172,-4904.0,-1328.0,-441.0,0.286,0.596,0.464,-0.589
832189,-3466.0,-520.0,-643.0,0.295,0.595,0.457,-0.592
832205,-2174.0,-1266.0,-591.0,0.302,0.595,0.451,-0.593
832221,-1692.0,-1136.0,-395.0,0.307,0.597,0.446,-0.593
832238,-1226.0,-1132.0,-253.0,0.309,0.599,0.442,-0.592
832255,-884.0,-1256.0,-151.0,0.309,0.602,0.44,-0.591
832272,-1244.0,-966.0,-147.0,0.306,0.604,0.44,-0.589
832289,-1284.0,-898.0,-77.0,0.3,0.606,0.444,-0.587
832306,-2034.0,-792.0,3.0,0.294,0.608,0.449,-0.585
832323,-2620.0,-712.0,367.0,0.288,0.608,0.456,-0.582
832350,-2472.0,-1014.0,43.0,0.281,0.608,0.464,-0.58
832366,-3340.0,-1874.0,-633.0,0.273,0.608,0.474,-0.576
832383,-4590.0,628.0,-591.0,0.266,0.607,0.483,-0.572
832399,-4646.0,-1354.0,-691.0,0.26,0.606,0.492,-0.569
832415,-6620.0,-3550.0,-1559.0,0.252,0.606,0.499,-0.566
832432,-7864.0,-660.0,-837.0,0.248,0.604,0.505,-0.564
832449,-7340.0,-1598.0,-917.0,0.246,0.602,0.509,-0.563
832465,-6520.0,-3946.0,-2889.0,0.243,0.601,0.513,-0.563
832492,-6566.0,-2404.0,-1995.0,0.241,0.6,0.517,-0.561
832509,-7592.0,-2044.0,-1523.0,0.238,0.599,0.521,-0.559
832526,-8404.0,-2948.0,-1567.0,0.236,0.597,0.524,-0.559
832543,-7852.0,-2198.0,-1915.0,0.236,0.596,0.525,-0.56
832560,-7804.0,-2510.0,-2337.0,0.236,0.596,0.525,-0.56
832577,-7380.0,-3042.0,-2659.0,0.236,0.595,0.526,-0.56
832594,-9112.0,-3158.0,-1743.0,0.236,0.594,0.528,-0.56
832611,-9136.0,-3260.0,-2477.0,0.236,0.593,0.528,-0.56
832628,-9948.0,-2834.0,-1763.0,0.236,0.593,0.527,-0.561
832645,-9398.0,-4022.0,-1501.0,0.238,0.593,0.525,-0.562
832662,-8768.0,-3740.0,-1905.0,0.24,0.592,0.522,-0.565
832678,-9520.0,-3442.0,-1611.0,0.241,0.591,0.519,-0.569
832695,-9330.0,-3768.0,-1371.0,0.244,0.589,0.516,-0.572
832722,-9128.0,-3602.0,-1239.0,0.247,0.587,0.511,-0.577
832738,-9412.0,-3230.0,-1475.0,0.25,0.585,0.507,-0.581
832755,-9378.0,-3104.0,-913.0,0.254,0.584,0.502,-0.585
832772,-8644.0,-3592.0,-925.0,0.258,0.583,0.498,-0.589
832789,-8940.0,-3352.0,-1023.0,0.261,0.582,0.493,-0.592
832805,-9354.0,-3042.0,-569.0,0.264,0.581,0.488,-0.595
832821,-8776.0,-3124.0,-729.0,0.267,0.581,0.484,-0.597
832847,-9326.0,-2152.0,-773.0,0.27,0.581,0.48,-0.599
832864,-9674.0,-3452.0,11.0,0.273,0.58,0.477,-0.602
832880,-10142.0,-2682.0,-111.0,0.276,0.579,0.473,-0.604
832896,-10698.0,-3192.0,-301.0,0.279,0.577,0.47,-0.607
832912,-10900.0,-3946.0,-181.0,0.282,0.575,0.467,-0.61
832928,-12728.0,-3980.0,-91.0,0.282,0.574,0.465,-0.613
832944,-11600.0,-4212.0,-649.0,0.282,0.572,0.464,-0.615
832961,-13312.0,-4172.0,483.0,0.281,0.571,0.464,-0.616
832978,-12594.0,-4298.0,207.0,0.279,0.569,0.466,-0.618
833004,-11018.0,-3630.0,-473.0,0.277,0.567,0.467,-0.619
833021,-10310.0,-4070.0,167.0,0.275,0.565,0.47,-0.62
833038,-10482.0,-3152.0,-155.0,0.271,0.565,0.473,-0.62
833055,-9414.0,-3432.0,-561.0,0.268,0.565,0.477,-0.618
833072,-9908.0,-3402.0,405.0,0.264,0.565,0.481,-0.616
833088,-9886.0,-3334.0,-101.0,0.26,0.566,0.485,-0.614
833104,-8930.0,-2796.0,-709.0,0.257,0.567,0.489,-0.611
833121,-9510.0,-3288.0,-5.0,0.254,0.569,0.494,-0.607
833147,-9608.0,-3612.0,-403.0,0.251,0.57,0.498,-0.603
833163,-9216.0,-3428.0,-779.0,0.249,0.572,0.502,-0.599
833180,-9512.0,-3638.0,7.0,0.248,0.573,0.505,-0.596
833196,-9036.0,-3922.0,-45.0,0.248,0.574,0.507,-0.594
833212,-7856.0,-3074.0,-1281.0,0.246,0.575,0.509,-0.592
833229,-8020.0,-3340.0,-777.0,0.245,0.576,0.511,-0.59
833245,-8820.0,-2928.0,-533.0,0.244,0.577,0.512,-0.588
833271,-8352.0,-2912.0,-829.0,0.245,0.577,0.513,-0.587
833287,-7998.0,-3414.0,-827.0,0.246,0.577,0.512,-0.586
833304,-7594.0,-2416.0,-1013.0,0.248,0.578,0.511,-0.586
833321,-7226.0,-2448.0,-1169.0,0.249,0.579,0.511,-0.585
833338,-7432.0,-2804.0,-1191.0,0.251,0.58,0.511,-0.583
833355,-8784.0,-2260.0,-1165.0,0.253,0.581,0.51,-0.581
833371,-7714.0,-2286.0,-1495.0,0.259,0.583,0.507,-0.58
833388,-7188.0,-2550.0,-1459.0,0.265,0.586,0.503,-0.577
833405,-7936.0,-2984.0,-1055.0,0.271,0.588,0.5,-0.575
833422,-6582.0,-4152.0,-1011.0,0.276,0.59,0.497,-0.573
833439,-6592.0,-1822.0,-997.0,0.281,0.592,0.492,-0.572
833456,-7236.0,-2234.0,-629.0,0.286,0.594,0.488,-0.572
833483,-7848.0,-2046.0,-231.0,0.291,0.595,0.482,-0.573
833499,-6528.0,-1020.0,-233.0,0.298,0.596,0.475,-0.575
833515,-6074.0,-624.0,-679.0,0.307,0.595,0.467,-0.578
833531,-6080.0,-1378.0,-699.0,0.317,0.595,0.458,-0.58
833548,-5118.0,-136.0,-213.0,0.326,0.595,0.448,-0.582
833564,-4082.0,-442.0,-405.0,0.336,0.596,0.439,-0.583
833580,-3564.0,-276.0,167.0,0.345,0.597,0.428,-0.584
833606,-3180.0,-452.0,-83.0,0.353,0.6,0.418,-0.584
833623,-2308.0,-294.0,9.0,0.36,0.602,0.41,-0.583
833640,-2822.0,16.0,-531.0,0.365,0.605,0.404,-0.581
833657,-2666.0,-864.0,117.0,0.369,0.607,0.401,-0.579
833674,-2186.0,-2856.0,-499.0,0.368,0.607,0.404,-0.577
833691,-2270.0,-3090.0,-349.0,0.363,0.608,0.408,-0.576
833708,-2844.0,-3056.0,-181.0,0.353,0.61,0.413,-0.577
833725,-3212.0,-386.0,543.0,0.339,0.611,0.421,-0.579
833742,-4200.0,256.0,821.0,0.324,0.61,0.433,-0.579
833759,-3928.0,-2412.0,-169.0,0.31,0.608,0.445,-0.58
833776,-5934.0,-780.0,-425.0,0.293,0.607,0.457,-0.581
833793,-8332.0,4162.0,785.0,0.283,0.604,0.465,-0.582
833819,-6820.0,-1502.0,307.0,0.281,0.6,0.47,-0.583
833835,-7064.0,-2116.0,-785.0,0.279,0.596,0.473,-0.586
833852,-6042.0,-3466.0,-1061.0,0.276,0.593,0.476,-0.588
833868,-6470.0,-826.0,-779.0,0.271,0.591,0.48,-0.59
833884,-7670.0,-2364.0,-919.0,0.265,0.588,0.484,-0.591
833900,-8494.0,-1146.0,-965.0,0.262,0.586,0.488,-0.592
833916,-8908.0,-1366.0,-157.0,0.26,0.584,0.492,-0.592
833943,-7104.0,-4136.0,-1253.0,0.258,0.582,0.495,-0.592
833960,-9034.0,-2578.0,-809.0,0.255,0.581,0.498,-0.591
833977,-9886.0,-2802.0,-11.0,0.253,0.581,0.5,-0.591
833994,-9214.0,-3000.0,-879.0,0.253,0.58,0.5,-0.591
834011,-8938.0,-3424.0,-791.0,0.252,0.581,0.5,-0.591
834028,-8422.0,-3336.0,-1367.0,0.251,0.582,0.5,-0.59
834044,-9256.0,-3558.0,-743.0,0.251,0.583,0.5,-0.589
834061,-8820.0,-3394.0,-1043.0,0.25,0.584,0.5,-0.588
834078,-9676.0,-3890.0,-475.0,0.25,0.585,0.5,-0.588
834094,-8912.0,-3256.0,-973.0,0.25,0.586,0.498,-0.588
834111,-9310.0,-2996.0,-893.0,0.251,0.587,0.497,-0.588
834138,-9150.0,-3494.0,-925.0,0.253,0.588,0.495,-0.587
834154,-8864.0,-3414.0,-779.0,0.254,0.59,0.493,-0.587
834171,-8670.0,-3678.0,-829.0,0.256,0.591,0.491,-0.587
834188,-9462.0,-2880.0,-653.0,0.257,0.592,0.489,-0.587
834205,-8740.0,-3104.0,-649.0,0.259,0.593,0.487,-0.587
834221,-8490.0,-2994.0,-723.0,0.261,0.593,0.485,-0.587
834238,-9224.0,-2814.0,-427.0,0.263,0.593,0.483,-0.588
834255,-8598.0,-2686.0,-423.0,0.265,0.593,0.481,-0.589
834272,-8576.0,-2792.0,-239.0,0.267,0.592,0.478,-0.591
834289,-8470.0,-2444.0,-439.0,0.269,0.591,0.476,-0.593
834306,-8234.0,-2094.0,-433.0,0.272,0.59,0.474,-0.594
834333,-8164.0,-2090.0,-321.0,0.274,0.589,0.472,-0.596
834349,-8482.0,-2424.0,-167.0,0.277,0.588,0.47,-0.597
834365,-8754.0,-2724.0,-309.0,0.279,0.588,0.469,-0.597
834381,-9278.0,-2086.0,-305.0,0.281,0.588,0.468,-0.597
834397,-10438.0,-3380.0,-51.0,0.281,0.588,0.468,-0.597
834413,-10816.0,-3012.0,-753.0,0.281,0.589,0.468,-0.595
834439,-11328.0,-3544.0,-851.0,0.279,0.591,0.47,-0.593
834456,-12264.0,-3180.0,-271.0,0.276,0.592,0.473,-0.591
834473,-11592.0,-3788.0,-921.0,0.274,0.594,0.476,-0.588
834490,-11644.0,-3730.0,-1137.0,0.27,0.595,0.48,-0.585
834507,-11418.0,-3748.0,-621.0,0.267,0.595,0.485,-0.582
834524,-10454.0,-4194.0,-1229.0,0.262,0.596,0.49,-0.579
834541,-11148.0,-3618.0,-1529.0,0.258,0.596,0.495,-0.576
834558,-11154.0,-3380.0,-909.0,0.255,0.596,0.501,-0.573
834575,-9856.0,-4242.0,-1311.0,0.251,0.596,0.506,-0.57
834592,-10120.0,-3786.0,-1419.0,0.248,0.596,0.511,-0.567
834609,-10428.0,-3590.0,-905.0,0.245,0.596,0.515,-0.565
834626,-9776.0,-3318.0,-1599.0,0.243,0.596,0.52,-0.562
834643,-9268.0,-3920.0,-1581.0,0.241,0.594,0.524,-0.56
834670,-9488.0,-3820.0,-1207.0,0.239,0.593,0.528,-0.559
834687,-9464.0,-2972.0,-2133.0,0.238,0.591,0.531,-0.559
834704,-9186.0,-3572.0,-1375.0,0.237,0.589,0.534,-0.558
834721,-9272.0,-3254.0,-1093.0,0.237,0.586,0.537,-0.559
834738,-8510.0,-3438.0,-1815.0,0.237,0.583,0.538,-0.56
834755,-7636.0,-3030.0,-1755.0,0.238,0.58,0.539,-0.562
834772,-7946.0,-2918.0,-1235.0,0.239,0.579,0.539,-0.563
834789,-6980.0,-2934.0,-1385.0,0.24,0.578,0.538,-0.564
834806,-6244.0,-3388.0,-1431.0,0.242,0.578,0.537,-0.565
834823,-6552.0,-2636.0,-1183.0,0.243,0.579,0.536,-0.564
834840,-6654.0,-2378.0,-1159.0,0.245,0.582,0.534,-0.563
834857,-6458.0,-2994.0,-1197.0,0.247,0.584,0.531,-0.562
834873,-6656.0,-2656.0,-1447.0,0.249,0.588,0.528,-0.56
834890,-5434.0,-2352.0,-2245.0,0.25,0.592,0.526,-0.557
834916,-7962.0,-1472.0,-1251.0,0.251,0.596,0.523,-0.555
834932,-7830.0,-2230.0,-755.0,0.255,0.601,0.518,-0.553
834948,-7244.0,-2544.0,-1183.0,0.259,0.604,0.512,-0.553
834964,-6692.0,-1150.0,-1595.0,0.265,0.607,0.506,-0.553
834981,-6728.0,-1708.0,-977.0,0.269,0.61,0.5,-0.553
834998,-6302.0,-682.0,-1253.0,0.277,0.612,0.492,-0.554
835015,-5336.0,-1750.0,-1361.0,0.284,0.613,0.485,-0.556
835041,-5520.0,-1046.0,-853.0,0.29,0.615,0.477,-0.558
835057,-4150.0,1106.0,-933.0,0.299,0.615,0.469,-0.559
835074,-2920.0,-1308.0,-823.0,0.307,0.614,0.463,-0.56
835091,-2482.0,-1384.0,-1107.0,0.313,0.614,0.458,-0.561
835108,-1700.0,-1296.0,-1111.0,0.316,0.615,0.454,-0.562
835124,-1498.0,-1678.0,-1381.0,0.315,0.617,0.453,-0.561
835141,-2220.0,-1710.0,-1035.0,0.311,0.62,0.453,-0.56
835157,-2588.0,-1136.0,-483.0,0.305,0.623,0.455,-0.558
835174,-2640.0,-1480.0,-407.0,0.298,0.625,0.459,-0.556
835193,-2932.0,-1862.0,-1359.0,0.29,0.627,0.465,-0.554
835209,-3398.0,-992.0,-1327.0,0.28,0.628,0.471,-0.552
835235,-4588.0,-400.0,-531.0,0.269,0.628,0.48,-0.55
835251,-4698.0,-36.0,-969.0,0.262,0.627,0.488,-0.548
835267,-5112.0,-1640.0,-1169.0,0.256,0.626,0.494,-0.546
835284,-5238.0,-3286.0,-2201.0,0.249,0.625,0.502,-0.544
835300,-6814.0,536.0,-1171.0,0.243,0.623,0.51,-0.541
835316,-5600.0,-3332.0,-2297.0,0.239,0.622,0.516,-0.538
835342,-7128.0,-1210.0,-2763.0,0.234,0.622,0.52,-0.536
835358,-7646.0,-2812.0,-2199.0,0.229,0.622,0.527,-0.532
835375,-6950.0,-4444.0,-3099.0,0.223,0.621,0.534,-0.528
835391,-9494.0,-2228.0,-2603.0,0.219,0.621,0.539,-0.526
835408,-9668.0,-2538.0,-2169.0,0.216,0.621,0.541,-0.525
835424,-7952.0,-3420.0,-2957.0,0.215,0.62,0.541,-0.525
835441,-8414.0,-3532.0,-3313.0,0.214,0.62,0.543,-0.524
835457,-8098.0,-3400.0,-2893.0,0.212,0.619,0.545,-0.524
835483,-8720.0,-3836.0,-2191.0,0.212,0.618,0.544,-0.526
835500,-9000.0,-2354.0,-3219.0,0.212,0.617,0.543,-0.528
835516,-8356.0,-3584.0,-2389.0,0.215,0.615,0.541,-0.531
835533,-7668.0,-3326.0,-2127.0,0.217,0.614,0.538,-0.536
835549,-7392.0,-3818.0,-2451.0,0.218,0.611,0.536,-0.54
835565,-7666.0,-2484.0,-1479.0,0.22,0.609,0.532,-0.545
835581,-7562.0,-2428.0,-1855.0,0.223,0.607,0.529,-0.55
835607,-7524.0,-2800.0,-1697.0,0.227,0.605,0.525,-0.554
835624,-7686.0,-2658.0,-967.0,0.23,0.603,0.521,-0.558
835641,-7470.0,-3696.0,-1887.0,0.233,0.602,0.517,-0.562
835657,-8502.0,-2442.0,-1499.0,0.236,0.602,0.513,-0.565
835674,-8840.0,-3248.0,-397.0,0.239,0.601,0.51,-0.567
835690,-9626.0,-2922.0,-1067.0,0.242,0.601,0.505,-0.57
835707,-9100.0,-3314.0,-1039.0,0.245,0.602,0.5,-0.572
835724,-9366.0,-3016.0,-377.0,0.248,0.602,0.495,-0.575
835741,-9526.0,-3376.0,-687.0,0.252,0.602,0.49,-0.578
835767,-9234.0,-2884.0,-747.0,0.255,0.602,0.485,-0.581
835783,-8912.0,-3046.0,-199.0,0.258,0.602,0.479,-0.584
835799,-9106.0,-2428.0,-549.0,0.26,0.602,0.473,-0.587
835815,-9042.0,-3298.0,-15.0,0.263,0.603,0.468,-0.59
835831,-9642.0,-2364.0,9.0,0.265,0.602,0.464,-0.593
835847,-10010.0,-2872.0,-493.0,0.266,0.602,0.46,-0.597
835864,-11616.0,-3488.0,-315.0,0.267,0.601,0.458,-0.598
835881,-11098.0,-3242.0,-333.0,0.267,0.6,0.457,-0.6
835908,-12596.0,-3660.0,-175.0,0.268,0.599,0.457,-0.601
835930,-13062.0,-4026.0,137.0,0.268,0.596,0.458,-0.602
835952,-11492.0,-4222.0,-891.0,0.268,0.595,0.46,-0.603
835960,-11538.0,-4074.0,-705.0,0.267,0.593,0.463,-0.602
835976,-11866.0,-3716.0,-125.0,0.265,0.592,0.466,-0.601
835992,-11160.0,-3832.0,-1081.0,0.264,0.592,0.47,-0.599
836008,-11512.0,-3582.0,-341.0,0.263,0.591,0.475,-0.596
836025,-10710.0,-3564.0,-89.0,0.26,0.591,0.48,-0.594
836041,-10222.0,-4076.0,-1061.0,0.258,0.591,0.485,-0.591
836067,-10628.0,-3466.0,-569.0,0.255,0.59,0.491,-0.588
836083,-10990.0,-3326.0,-47.0,0.254,0.589,0.495,-0.586
836099,-9074.0,-3898.0,-1149.0,0.253,0.588,0.498,-0.585
836116,-8786.0,-2828.0,-961.0,0.25,0.586,0.502,-0.585
836133,-8848.0,-3358.0,-535.0,0.247,0.584,0.506,-0.585
836150,-8990.0,-2914.0,-671.0,0.245,0.582,0.509,-0.584
836166,-8194.0,-3228.0,-243.0,0.244,0.58,0.511,-0.585
836182,-8328.0,-2646.0,-139.0,0.244,0.578,0.512,-0.587
836208,-6542.0,-3034.0,-1189.0,0.244,0.576,0.512,-0.588
836224,-6692.0,-2502.0,-225.0,0.245,0.575,0.513,-0.588
836241,-7346.0,-2334.0,-307.0,0.246,0.574,0.514,-0.589
836257,-7550.0,-2576.0,-533.0,0.248,0.574,0.513,-0.588
836273,-6664.0,-2948.0,-155.0,0.251,0.574,0.511,-0.588
836289,-6560.0,-2748.0,-827.0,0.253,0.576,0.51,-0.587
836306,-7708.0,-2828.0,-715.0,0.254,0.577,0.509,-0.586
836332,-7262.0,-2524.0,-613.0,0.257,0.579,0.508,-0.585
836348,-8250.0,-2642.0,-691.0,0.259,0.581,0.505,-0.583
836364,-8196.0,-2342.0,-629.0,0.264,0.582,0.502,-0.583
836380,-6894.0,-2792.0,-703.0,0.268,0.584,0.498,-0.583
836396,-7944.0,-2896.0,-1619.0,0.271,0.586,0.494,-0.583
836412,-8308.0,-472.0,-1139.0,0.276,0.588,0.489,-0.582
836438,-6504.0,-2350.0,-859.0,0.281,0.591,0.485,-0.58
836454,-7614.0,-1588.0,-1127.0,0.287,0.593,0.479,-0.58
836471,-8024.0,-176.0,-531.0,0.294,0.596,0.473,-0.579
836488,-5436.0,-1832.0,-519.0,0.302,0.599,0.465,-0.578
836504,-4532.0,-1314.0,-333.0,0.309,0.601,0.456,-0.579
836520,-3882.0,-814.0,-245.0,0.316,0.603,0.447,-0.581
836537,-2786.0,-1176.0,109.0,0.322,0.605,0.439,-0.581
836554,-2002.0,-250.0,103.0,0.328,0.607,0.432,-0.581
836580,-2008.0,32.0,-187.0,0.333,0.609,0.427,-0.579
836598,-1882.0,-868.0,-455.0,0.336,0.612,0.424,-0.576
836615,-1196.0,-632.0,-469.0,0.338,0.615,0.424,-0.573
836631,-804.0,-1322.0,-617.0,0.336,0.617,0.426,-0.569
836647,-1970.0,-1774.0,-641.0,0.33,0.621,0.432,-0.565
836664,-3460.0,-2356.0,-23.0,0.322,0.623,0.439,-0.562
836681,-4142.0,-918.0,589.0,0.314,0.625,0.446,-0.559
836698,-4472.0,770.0,-113.0,0.307,0.625,0.454,-0.555
836714,-4022.0,-280.0,-729.0,0.299,0.624,0.465,-0.552
836731,-4042.0,-3196.0,-107.0,0.289,0.624,0.476,-0.549
836757,-5792.0,498.0,-847.0,0.279,0.623,0.486,-0.546
836774,-6528.0,1002.0,-1063.0,0.272,0.621,0.494,-0.544
836790,-5792.0,-2038.0,-2413.0,0.266,0.62,0.503,-0.541
836806,-7136.0,-1046.0,-1859.0,0.26,0.618,0.512,-0.537
836824,-7936.0,-2098.0,-2131.0,0.254,0.616,0.52,-0.534
836840,-8960.0,-458.0,-2095.0,0.251,0.614,0.526,-0.533
836856,-7194.0,-3348.0,-2695.0,0.248,0.611,0.532,-0.531
836873,-8642.0,-2308.0,-2643.0,0.245,0.609,0.538,-0.529
836890,-8608.0,-2396.0,-2109.0,0.241,0.606,0.544,-0.528
836916,-7482.0,-3494.0,-2857.0,0.238,0.603,0.549,-0.527
836932,-9720.0,-2710.0,-2675.0,0.235,0.601,0.554,-0.526
836948,-8532.0,-3802.0,-2599.0,0.233,0.599,0.557,-0.525
836965,-9134.0,-4332.0,-1927.0,0.232,0.598,0.559,-0.526
836981,-8994.0,-3684.0,-3333.0,0.23,0.596,0.56,-0.528
836997,-8522.0,-4046.0,-2481.0,0.23,0.595,0.559,-0.529
837023,-8800.0,-3646.0,-2423.0,0.23,0.594,0.559,-0.53
837041,-8778.0,-3782.0,-2753.0,0.231,0.593,0.559,-0.531
837058,-8148.0,-4130.0,-2237.0,0.232,0.594,0.559,-0.531
837075,-7614.0,-3880.0,-1143.0,0.232,0.595,0.559,-0.53
837091,-9476.0,-4890.0,-2295.0,0.233,0.596,0.557,-0.529
837108,-9082.0,-3946.0,-1819.0,0.234,0.596,0.556,-0.529
837124,-8454.0,-4078.0,-2371.0,0.235,0.597,0.555,-0.529
837140,-8842.0,-3320.0,-2031.0,0.237,0.598,0.553,-0.53
837156,-8826.0,-3832.0,-1411.0,0.239,0.599,0.551,-0.531
837173,-8696.0,-3712.0,-1807.0,0.241,0.599,0.548,-0.532
837192,-8730.0,-3366.0,-1805.0,0.243,0.599,0.544,-0.534
837209,-7946.0,-3642.0,-1985.0,0.244,0.599,0.541,-0.537
837236,-8564.0,-3416.0,-1977.0,0.246,0.6,0.538,-0.538
837253,-8632.0,-3734.0,-1685.0,0.248,0.601,0.535,-0.539
837270,-8748.0,-3504.0,-1761.0,0.25,0.601,0.533,-0.54
837287,-9108.0,-3562.0,-1757.0,0.253,0.601,0.531,-0.542
837304,-8874.0,-4338.0,-2383.0,0.255,0.601,0.528,-0.543
837321,-11460.0,-4660.0,-2099.0,0.256,0.601,0.526,-0.544
837338,-10258.0,-4004.0,-2077.0,0.257,0.6,0.525,-0.546
837355,-11724.0,-4888.0,-2731.0,0.257,0.599,0.525,-0.547
837372,-11916.0,-4354.0,-2691.0,0.257,0.598,0.526,-0.547
837389,-10638.0,-4890.0,-2779.0,0.255,0.597,0.529,-0.547
837406,-12304.0,-4990.0,-2947.0,0.253,0.596,0.532,-0.546
837422,-11388.0,-4710.0,-2749.0,0.25,0.595,0.536,-0.544
837448,-11478.0,-5138.0,-3011.0,0.247,0.595,0.54,-0.542
837464,-11688.0,-5004.0,-3133.0,0.242,0.595,0.546,-0.538
837480,-10934.0,-4330.0,-2511.0,0.238,0.595,0.551,-0.534
837496,-10070.0,-4748.0,-2793.0,0.234,0.596,0.556,-0.53
837513,-10272.0,-3926.0,-2955.0,0.23,0.596,0.562,-0.525
837529,-9770.0,-4030.0,-1989.0,0.227,0.597,0.566,-0.52
837545,-8754.0,-4006.0,-2437.0,0.225,0.599,0.57,-0.516
837571,-8958.0,-3294.0,-2349.0,0.223,0.6,0.572,-0.513
837587,-8552.0,-3358.0,-1863.0,0.222,0.601,0.574,-0.51
837604,-8052.0,-2818.0,-2039.0,0.222,0.602,0.575,-0.508
837621,-7610.0,-2926.0,-1889.0,0.223,0.603,0.574,-0.507
837640,-7982.0,-2144.0,-1481.0,0.225,0.604,0.572,-0.507
837656,-6546.0,-2966.0,-1747.0,0.227,0.605,0.57,-0.508
837672,-6832.0,-1964.0,-1615.0,0.229,0.605,0.567,-0.51
837690,-5834.0,-2322.0,-2033.0,0.232,0.605,0.565,-0.512
837706,-6236.0,-1850.0,-2193.0,0.234,0.605,0.563,-0.512
837723,-6798.0,-2348.0,-1575.0,0.238,0.605,0.562,-0.512
837749,-6834.0,-2658.0,-1901.0,0.242,0.605,0.558,-0.514
837765,-7646.0,-2120.0,-2121.0,0.246,0.606,0.553,-0.516
837781,-7022.0,-1662.0,-1781.0,0.251,0.606,0.548,-0.519
837797,-6816.0,-3040.0,-1951.0,0.256,0.606,0.543,-0.523
837813,-8328.0,-2244.0,-1847.0,0.262,0.605,0.536,-0.527
837831,-6784.0,-1184.0,-1813.0,0.269,0.605,0.53,-0.53
837847,-5444.0,-2456.0,-1451.0,0.277,0.605,0.522,-0.534
837873,-7252.0,-812.0,-1095.0,0.285,0.605,0.513,-0.538
837889,-5776.0,-516.0,-1177.0,0.296,0.605,0.503,-0.541
837906,-4562.0,-3216.0,-1389.0,0.305,0.605,0.494,-0.544
837923,-4552.0,876.0,-471.0,0.315,0.606,0.484,-0.547
837939,-3468.0,870.0,-21.0,0.327,0.605,0.475,-0.548
837956,-2722.0,170.0,-261.0,0.341,0.604,0.468,-0.547
837973,-1904.0,-714.0,-925.0,0.353,0.604,0.463,-0.544
837989,-1744.0,-2240.0,-1051.0,0.362,0.606,0.458,-0.541
838005,-1376.0,-2268.0,-1367.0,0.364,0.609,0.454,-0.539
838031,-1906.0,-2366.0,-1335.0,0.361,0.614,0.452,-0.537
838047,-1762.0,-1684.0,-839.0,0.354,0.62,0.451,-0.536
838063,-2188.0,-506.0,-395.0,0.344,0.624,0.454,-0.534
838079,-2806.0,-4442.0,-1609.0,0.333,0.627,0.461,-0.532
838096,-3584.0,-2326.0,35.0,0.314,0.63,0.47,-0.533
838113,-4010.0,3108.0,543.0,0.299,0.63,0.482,-0.531
838129,-2986.0,-1118.0,-1297.0,0.288,0.629,0.493,-0.528
838156,-4776.0,-2936.0,-2085.0,0.274,0.629,0.505,-0.524
838173,-8466.0,2676.0,-75.0,0.265,0.628,0.514,-0.52
838189,-7140.0,-2162.0,-1713.0,0.26,0.627,0.52,-0.519
838205,-6130.0,-3476.0,-3495.0,0.256,0.625,0.525,-0.518
838222,-7850.0,-1844.0,-2587.0,0.251,0.623,0.532,-0.516
838238,-8078.0,-3240.0,-2915.0,0.246,0.621,0.539,-0.513
838255,-9186.0,-2184.0,-2253.0,0.243,0.619,0.543,-0.513
838272,-9052.0,-2376.0,-2229.0,0.243,0.617,0.544,-0.514
838289,-8092.0,-3678.0,-3713.0,0.242,0.616,0.546,-0.514
838316,-8090.0,-3044.0,-3517.0,0.241,0.614,0.547,-0.515
838332,-9170.0,-3700.0,-2375.0,0.239,0.613,0.549,-0.515
838349,-10114.0,-2536.0,-2781.0,0.239,0.612,0.55,-0.516
838366,-9324.0,-3394.0,-2691.0,0.24,0.61,0.548,-0.519
838383,-8602.0,-3902.0,-3129.0,0.242,0.609,0.546,-0.522
838399,-9554.0,-3358.0,-2403.0,0.243,0.608,0.544,-0.525
838415,-8028.0,-3782.0,-2373.0,0.244,0.607,0.542,-0.528
838431,-9164.0,-3100.0,-1907.0,0.245,0.605,0.539,-0.532
838457,-8756.0,-3208.0,-1869.0,0.247,0.604,0.536,-0.536
838473,-7894.0,-3044.0,-1255.0,0.249,0.602,0.532,-0.54
838489,-7634.0,-2956.0,-1449.0,0.252,0.601,0.528,-0.545
838505,-7256.0,-2486.0,-2385.0,0.253,0.6,0.525,-0.547
838522,-7694.0,-2838.0,-1055.0,0.255,0.6,0.523,-0.549
838538,-8390.0,-2972.0,-627.0,0.256,0.6,0.521,-0.551
838555,-8950.0,-3154.0,-1039.0,0.258,0.6,0.518,-0.553
838572,-8584.0,-2830.0,-1071.0,0.261,0.6,0.514,-0.555
838589,-8888.0,-3002.0,-777.0,0.263,0.601,0.509,-0.557
838616,-8944.0,-3082.0,-1215.0,0.266,0.601,0.505,-0.559
838633,-9056.0,-2866.0,-755.0,0.269,0.601,0.502,-0.562
838650,-9072.0,-2658.0,-657.0,0.271,0.6,0.498,-0.564
838666,-8914.0,-2948.0,-741.0,0.275,0.599,0.494,-0.567
838682,-8998.0,-2584.0,-623.0,0.278,0.598,0.49,-0.57
838699,-8730.0,-2718.0,-483.0,0.28,0.597,0.487,-0.572
838715,-9058.0,-2398.0,-547.0,0.283,0.595,0.484,-0.575
838731,-8908.0,-2370.0,-505.0,0.286,0.594,0.482,-0.577
838757,-8868.0,-2390.0,-407.0,0.288,0.593,0.479,-0.579
838773,-9214.0,-2720.0,-263.0,0.29,0.592,0.477,-0.581
838789,-9226.0,-2368.0,-331.0,0.292,0.592,0.474,-0.582
838806,-9264.0,-2836.0,-237.0,0.294,0.592,0.473,-0.583
838822,-9790.0,-2866.0,-47.0,0.294,0.592,0.471,-0.583
838838,-9540.0,-2642.0,-375.0,0.295,0.593,0.47,-0.583
838855,-9430.0,-2780.0,-321.0,0.295,0.594,0.47,-0.582
838881,-9310.0,-2756.0,-313.0,0.295,0.595,0.471,-0.581
838897,-8948.0,-2508.0,-577.0,0.295,0.596,0.472,-0.58
838914,-8578.0,-2428.0,-453.0,0.294,0.596,0.473,-0.579
838931,-8546.0,-2530.0,-427.0,0.294,0.596,0.474,-0.577
838947,-8324.0,-2234.0,-583.0,0.293,0.596,0.476,-0.576
838963,-8456.0,-2322.0,-341.0,0.292,0.596,0.479,-0.575
838980,-8534.0,-2618.0,-555.0,0.291,0.596,0.481,-0.573
839006,-9278.0,-2230.0,-729.0,0.29,0.595,0.485,-0.571
839023,-9796.0,-3322.0,-893.0,0.289,0.596,0.489,-0.568
839039,-10722.0,-3042.0,-1017.0,0.287,0.595,0.493,-0.566
839056,-11136.0,-3688.0,-1145.0,0.284,0.595,0.498,-0.563
839073,-11278.0,-4262.0,-1213.0,0.282,0.595,0.504,-0.56
839090,-11128.0,-4024.0,-1549.0,0.278,0.594,0.51,-0.557
839106,-10894.0,-3362.0,-1521.0,0.273,0.593,0.517,-0.553
839122,-10742.0,-3854.0,-1529.0,0.269,0.592,0.524,-0.55
839139,-10696.0,-3392.0,-1755.0,0.266,0.591,0.531,-0.546
839165,-9870.0,-3638.0,-1885.0,0.263,0.59,0.537,-0.542
839181,-9548.0,-3746.0,-1971.0,0.26,0.588,0.544,-0.539
839197,-9364.0,-3394.0,-1697.0,0.258,0.587,0.549,-0.536
839213,-8556.0,-3394.0,-1509.0,0.256,0.585,0.554,-0.534
839229,-8560.0,-2858.0,-1351.0,0.255,0.584,0.557,-0.533
839246,-7822.0,-2634.0,-1671.0,0.255,0.583,0.559,-0.532
839262,-6964.0,-3110.0,-1325.0,0.255,0.582,0.561,-0.531
839289,-6196.0,-3120.0,-1679.0,0.254,0.581,0.563,-0.53
839305,-7070.0,-2810.0,-1445.0,0.253,0.581,0.565,-0.529
839322,-7380.0,-2538.0,-595.0,0.254,0.581,0.565,-0.528
839339,-5930.0,-3032.0,-1111.0,0.255,0.58,0.564,-0.529
839355,-6466.0,-2530.0,-2009.0,0.256,0.581,0.564,-0.528
839371,-6492.0,-2622.0,-1245.0,0.257,0.582,0.564,-0.527
839388,-6784.0,-3144.0,-1185.0,0.258,0.583,0.563,-0.526
839405,-7318.0,-2122.0,-1871.0,0.26,0.584,0.562,-0.525
839422,-6724.0,-3446.0,-1899.0,0.262,0.586,0.56,-0.524
839439,-7716.0,-2292.0,-1109.0,0.264,0.588,0.558,-0.523
839465,-7606.0,-2538.0,-1163.0,0.267,0.589,0.555,-0.523
839482,-6650.0,-3300.0,-1755.0,0.271,0.59,0.552,-0.524
839499,-7084.0,-2346.0,-1721.0,0.273,0.591,0.548,-0.525
839515,-7352.0,-1594.0,-1397.0,0.276,0.592,0.545,-0.526
839531,-6938.0,-2786.0,-1157.0,0.279,0.592,0.541,-0.528
839548,-7708.0,-2434.0,-1153.0,0.282,0.593,0.536,-0.531
839565,-7550.0,-1798.0,-1847.0,0.285,0.593,0.531,-0.534
839582,-7076.0,-1076.0,-1243.0,0.29,0.593,0.527,-0.536
839599,-6188.0,-3190.0,-1531.0,0.294,0.593,0.523,-0.537
839616,-7666.0,-1490.0,-1567.0,0.298,0.595,0.517,-0.539
839643,-7580.0,-446.0,-953.0,0.304,0.596,0.512,-0.539
839660,-5996.0,-2508.0,-1557.0,0.31,0.597,0.507,-0.539
839677,-6302.0,-1492.0,-1529.0,0.315,0.6,0.501,-0.539
839694,-6234.0,-922.0,-787.0,0.32,0.603,0.496,-0.537
839711,-5750.0,-1230.0,-1285.0,0.324,0.606,0.491,-0.535
839728,-5548.0,-912.0,-793.0,0.327,0.609,0.487,-0.533
839745,-5300.0,-442.0,-79.0,0.332,0.612,0.483,-0.531
839762,-5774.0,-1682.0,-199.0,0.336,0.615,0.479,-0.528
839779,-4912.0,-1116.0,-707.0,0.341,0.616,0.476,-0.527
839795,-5082.0,-1870.0,-265.0,0.344,0.617,0.475,-0.525
839812,-5392.0,-1412.0,-555.0,0.345,0.618,0.475,-0.523
839829,-5376.0,-2278.0,-759.0,0.344,0.619,0.476,-0.521
839855,-6442.0,-1068.0,-795.0,0.341,0.621,0.478,-0.519
839872,-6836.0,-508.0,-585.0,0.339,0.622,0.481,-0.516
839888,-6716.0,-3110.0,-1125.0,0.335,0.623,0.485,-0.514
839905,-8138.0,-932.0,-1537.0,0.328,0.626,0.488,-0.512
839922,-8898.0,-144.0,-805.0,0.324,0.628,0.491,-0.509
839938,-8614.0,-1846.0,-1099.0,0.322,0.629,0.494,-0.506
839955,-8746.0,-1098.0,-1995.0,0.319,0.631,0.496,-0.504
839972,-8738.0,-1036.0,-1421.0,0.316,0.633,0.498,-0.501
839989,-8328.0,-1628.0,-1435.0,0.314,0.635,0.5,-0.498
840006,-8142.0,-1700.0,-1993.0,0.311,0.637,0.502,-0.495
840032,-8054.0,-814.0,-1667.0,0.307,0.64,0.504,-0.491
840048,-8282.0,-1094.0,-1353.0,0.305,0.643,0.506,-0.488
840065,-7696.0,-1388.0,-1855.0,0.303,0.644,0.507,-0.485
840082,-7040.0,-1774.0,-2001.0,0.301,0.646,0.509,-0.483
840099,-6944.0,-1246.0,-2341.0,0.297,0.649,0.51,-0.48
840115,-6832.0,-1378.0,-2475.0,0.293,0.651,0.513,-0.476
840132,-7100.0,-1654.0,-2229.0,0.289,0.654,0.515,-0.473
840149,-7254.0,-1592.0,-2675.0,0.284,0.657,0.518,-0.469
840166,-7506.0,-1186.0,-2721.0,0.279,0.659,0.52,-0.466
840183,-7444.0,-1426.0,-2831.0,0.274,0.662,0.522,-0.462
840200,-7522.0,-1706.0,-3395.0,0.27,0.664,0.525,-0.459
840227,-7650.0,-1634.0,-3435.0,0.265,0.666,0.527,-0.456
840244,-7654.0,-1594.0,-3315.0,0.261,0.668,0.529,-0.453
840261,-7690.0,-1932.0,-3565.0,0.257,0.67,0.532,-0.45
840277,-7674.0,-1764.0,-3731.0,0.253,0.671,0.534,-0.448
840294,-7978.0,-1566.0,-3409.0,0.25,0.672,0.536,-0.446
840311,-7454.0,-2026.0,-3665.0,0.247,0.673,0.537,-0.444
840328,-7368.0,-1804.0,-3647.0,0.245,0.674,0.538,-0.443
840345,-7018.0,-1990.0,-3719.0,0.242,0.675,0.54,-0.441
840362,-7112.0,-1952.0,-3759.0,0.239,0.676,0.542,-0.439
840378,-7054.0,-1822.0,-3691.0,0.236,0.677,0.543,-0.437
840395,-6844.0,-1996.0,-3673.0,0.233,0.678,0.545,-0.435
840422,-6816.0,-1758.0,-3677.0,0.23,0.679,0.546,-0.433
840438,-6886.0,-2026.0,-3739.0,0.227,0.68,0.548,-0.431
840455,-6786.0,-1802.0,-3699.0,0.224,0.682,0.549,-0.428
840472,-6836.0,-1886.0,-3909.0,0.221,0.683,0.55,-0.426
840488,-6854.0,-1832.0,-3941.0,0.219,0.684,0.552,-0.423
840505,-6770.0,-2182.0,-4051.0,0.216,0.686,0.553,-0.42
840521,-7018.0,-1850.0,-4239.0,0.213,0.687,0.555,-0.418
840538,-7112.0,-1766.0,-4095.0,0.211,0.688,0.557,-0.416
840555,-7010.0,-2002.0,-4023.0,0.208,0.689,0.558,-0.414
840581,-6828.0,-2208.0,-4323.0,0.205,0.689,0.56,-0.412
840597,-7142.0,-1830.0,-4153.0,0.203,0.69,0.561,-0.41
840614,-6978.0,-1984.0,-4131.0,0.202,0.69,0.562,-0.409
840630,-6362.0,-2572.0,-4625.0,0.199,0.689,0.564,-0.408
840646,-6658.0,-2092.0,-4405.0,0.197,0.689,0.566,-0.407
840662,-6882.0,-1946.0,-4191.0,0.195,0.689,0.568,-0.405
840679,-6796.0,-2078.0,-4577.0,0.193,0.69,0.569,-0.404
840705,-6588.0,-2062.0,-4437.0,0.192,0.69,0.57,-0.403
840722,-6544.0,-2350.0,-4477.0,0.191,0.69,0.572,-0.401
840738,-6332.0,-2344.0,-4743.0,0.189,0.69,0.573,-0.4
840755,-6586.0,-2212.0,-4571.0,0.187,0.69,0.575,-0.398
840771,-6574.0,-1928.0,-4481.0,0.185,0.691,0.576,-0.396
840787,-6170.0,-2402.0,-4899.0,0.183,0.691,0.578,-0.394
840803,-6666.0,-2100.0,-4567.0,0.181,0.692,0.579,-0.392
840820,-6510.0,-2304.0,-4471.0,0.179,0.692,0.581,-0.39
840846,-6416.0,-2274.0,-4759.0,0.178,0.692,0.582,-0.388
840863,-6282.0,-2744.0,-4691.0,0.177,0.692,0.584,-0.386
840879,-6230.0,-2328.0,-4507.0,0.175,0.692,0.585,-0.385
840895,-6394.0,-2278.0,-4755.0,0.174,0.692,0.586,-0.383
840912,-6298.0,-2284.0,-4617.0,0.174,0.692,0.587,-0.382
840928,-3580.0,3428.0,-4423.0,0.174,0.691,0.588,-0.383
840945,-2428.0,-2666.0,-3729.0,0.175,0.689,0.589,-0.384
840962,-4632.0,-1072.0,-5039.0,0.174,0.689,0.59,-0.384
840988,-4314.0,-734.0,-6457.0,0.174,0.688,0.59,-0.385
841005,-5220.0,-1444.0,-1993.0,0.173,0.688,0.591,-0.384
841021,-6782.0,-2118.0,-3579.0,0.171,0.688,0.592,-0.383
841038,-5462.0,-1348.0,-5091.0,0.171,0.687,0.594,-0.381
841054,-5442.0,-4268.0,-2653.0,0.168,0.687,0.597,-0.379
841070,-7730.0,-1300.0,-4921.0,0.165,0.688,0.599,-0.376
841086,-5634.0,-1646.0,-5583.0,0.162,0.689,0.601,-0.372
841112,-5698.0,-2736.0,-2451.0,0.16,0.69,0.603,-0.367
841129,-7288.0,-4466.0,-5173.0,0.158,0.692,0.604,-0.364
841145,-10932.0,-1654.0,-13615.0,0.157,0.691,0.605,-0.363
841162,-3330.0,-808.0,-1373.0,0.155,0.691,0.607,-0.361
841178,-6296.0,440.0,-8171.0,0.153,0.69,0.609,-0.36
841195,-5594.0,-2082.0,-5137.0,0.152,0.688,0.611,-0.36
841212,-6798.0,-1556.0,-1349.0,0.149,0.687,0.615,-0.357
841228,-4596.0,-822.0,-2327.0,0.147,0.687,0.618,-0.353
841245,-5140.0,232.0,-2753.0,0.147,0.686,0.621,-0.35
841271,-5668.0,-548.0,-6009.0,0.145,0.684,0.624,-0.347
841288,-6140.0,-3010.0,-11639.0,0.144,0.683,0.625,-0.349
841305,-7492.0,-2822.0,-5945.0,0.143,0.683,0.627,-0.348
841322,-8402.0,-6766.0,-5651.0,0.143,0.683,0.627,-0.346
841339,-6610.0,-2484.0,-1479.0,0.142,0.683,0.629,-0.344
841355,-3668.0,-4490.0,-4473.0,0.143,0.682,0.63,-0.342
841372,-3378.0,-3694.0,-4047.0,0.145,0.681,0.631,-0.341
841388,-6016.0,-2062.0,-2569.0,0.143,0.681,0.633,-0.34
841404,-4814.0,-3724.0,-6569.0,0.142,0.681,0.634,-0.339
841430,-5064.0,-2638.0,-1389.0,0.141,0.681,0.636,-0.336
841446,-4538.0,-3276.0,-7167.0,0.139,0.68,0.637,-0.334
841462,-6392.0,-2708.0,-5017.0,0.138,0.68,0.639,-0.333
841478,-6024.0,-4776.0,-6165.0,0.137,0.68,0.641,-0.329
841495,-5520.0,-2734.0,-7215.0,0.136,0.68,0.642,-0.328
841511,-6714.0,-1822.0,-3533.0,0.135,0.679,0.643,-0.326
841528,-3704.0,-1874.0,-7933.0,0.134,0.679,0.645,-0.324
841555,-4910.0,-1532.0,-2979.0,0.132,0.678,0.648,-0.322
841571,-5584.0,-2040.0,-4347.0,0.131,0.678,0.65,-0.318
841587,-5602.0,-3362.0,-5603.0,0.129,0.678,0.651,-0.316
841604,-17450.0,-20364.0,-5479.0,0.136,0.68,0.647,-0.318
841620,-9052.0,2620.0,-12953.0,0.14,0.679,0.648,-0.316
841636,-5966.0,-296.0,-12113.0,0.138,0.677,0.649,-0.32
841653,-3586.0,-6126.0,983.0,0.139,0.677,0.648,-0.319
841669,-2490.0,3756.0,-5153.0,0.14,0.677,0.65,-0.316
841695,-7184.0,-3490.0,-8591.0,0.137,0.676,0.652,-0.317
841712,-9244.0,2860.0,-9125.0,0.134,0.675,0.654,-0.315
841728,-11272.0,-1282.0,-6833.0,0.133,0.674,0.655,-0.315
