timeMs,ax,ay,az,q0,q1,q2,q3
788247,3795.0,5061.0,-336.0,0.208,-0.151,-0.616,-0.745
788264,4081.0,2699.0,464.0,0.206,-0.153,-0.607,-0.752
788280,3521.0,1421.0,1206.0,0.204,-0.152,-0.602,-0.757
788307,3473.0,723.0,1774.0,0.202,-0.151,-0.603,-0.757
788323,3513.0,1057.0,2088.0,0.202,-0.149,-0.61,-0.752
788340,4209.0,1689.0,2206.0,0.202,-0.147,-0.621,-0.743
788356,5059.0,4131.0,2430.0,0.204,-0.143,-0.635,-0.732
788372,5215.0,9135.0,2734.0,0.204,-0.137,-0.646,-0.723
788388,3921.0,10745.0,2512.0,0.203,-0.13,-0.654,-0.717
788404,3011.0,12577.0,1666.0,0.203,-0.126,-0.66,-0.712
788431,1895.0,15957.0,202.0,0.205,-0.126,-0.664,-0.708
788447,2621.0,16641.0,-678.0,0.207,-0.129,-0.663,-0.708
788463,2365.0,13265.0,-1050.0,0.207,-0.135,-0.654,-0.715
788479,3607.0,8737.0,-918.0,0.205,-0.142,-0.638,-0.728
788496,4071.0,4923.0,-328.0,0.201,-0.148,-0.62,-0.744
788512,3871.0,2487.0,596.0,0.197,-0.152,-0.603,-0.758
788528,3543.0,405.0,1348.0,0.192,-0.152,-0.591,-0.768
788554,3255.0,-145.0,1900.0,0.19,-0.152,-0.587,-0.772
788570,3305.0,261.0,2188.0,0.188,-0.151,-0.591,-0.77
788586,4015.0,1175.0,2274.0,0.188,-0.149,-0.6,-0.763
788602,4439.0,2399.0,2322.0,0.19,-0.148,-0.613,-0.753
788618,5269.0,8287.0,3506.0,0.192,-0.143,-0.625,-0.743
788634,4167.0,12097.0,4100.0,0.192,-0.135,-0.634,-0.737
788660,2159.0,14227.0,3088.0,0.193,-0.129,-0.642,-0.73
788676,827.0,17405.0,1076.0,0.197,-0.128,-0.649,-0.724
788692,1541.0,16291.0,-328.0,0.2,-0.133,-0.649,-0.722
788708,2993.0,12041.0,-944.0,0.201,-0.14,-0.641,-0.728
788724,4347.0,7471.0,-858.0,0.199,-0.148,-0.626,-0.739
788740,3999.0,4225.0,-272.0,0.196,-0.153,-0.609,-0.753
788766,3845.0,1833.0,602.0,0.193,-0.155,-0.594,-0.765
788782,3567.0,443.0,1276.0,0.189,-0.155,-0.585,-0.773
788798,3367.0,-205.0,1730.0,0.187,-0.155,-0.584,-0.775
788814,3711.0,549.0,2014.0,0.187,-0.154,-0.589,-0.771
788831,3923.0,1443.0,2042.0,0.187,-0.153,-0.601,-0.762
788848,5169.0,6565.0,2956.0,0.189,-0.149,-0.614,-0.752
788865,4719.0,11193.0,3984.0,0.191,-0.142,-0.624,-0.744
788882,2885.0,13213.0,3450.0,0.192,-0.134,-0.632,-0.739
788909,1185.0,15637.0,1830.0,0.194,-0.132,-0.638,-0.733
788925,2167.0,16105.0,210.0,0.197,-0.134,-0.641,-0.73
788941,2777.0,13181.0,-650.0,0.199,-0.14,-0.636,-0.732
788957,4291.0,8439.0,-626.0,0.198,-0.146,-0.625,-0.741
788974,3653.0,4565.0,-236.0,0.195,-0.15,-0.612,-0.751
788990,4109.0,3021.0,672.0,0.192,-0.152,-0.601,-0.761
789006,3599.0,1611.0,1346.0,0.188,-0.153,-0.592,-0.768
789023,3433.0,547.0,2016.0,0.186,-0.153,-0.589,-0.771
789050,3467.0,915.0,2350.0,0.185,-0.153,-0.592,-0.769
789066,3743.0,1843.0,2584.0,0.186,-0.152,-0.601,-0.762
789083,4881.0,5437.0,3226.0,0.187,-0.149,-0.613,-0.753
789099,4361.0,8917.0,3766.0,0.188,-0.144,-0.623,-0.746
789116,3237.0,11497.0,3636.0,0.188,-0.137,-0.631,-0.74
789133,1961.0,13635.0,2522.0,0.189,-0.133,-0.639,-0.734
789150,1979.0,15675.0,884.0,0.191,-0.134,-0.643,-0.729
789166,1869.0,13953.0,-338.0,0.194,-0.138,-0.643,-0.728
789183,3909.0,10343.0,-664.0,0.195,-0.144,-0.635,-0.733
789200,3719.0,6403.0,-554.0,0.193,-0.15,-0.625,-0.742
789227,4133.0,4393.0,200.0,0.191,-0.153,-0.614,-0.751
789243,3853.0,2747.0,942.0,0.188,-0.155,-0.603,-0.759
789259,3695.0,1465.0,1624.0,0.187,-0.156,-0.597,-0.764
789275,3219.0,1051.0,2144.0,0.186,-0.156,-0.596,-0.765
789291,3727.0,1521.0,2290.0,0.187,-0.155,-0.601,-0.761
789307,4391.0,3829.0,2528.0,0.189,-0.154,-0.611,-0.754
789333,4425.0,7151.0,3120.0,0.19,-0.149,-0.62,-0.746
789349,3745.0,10421.0,3386.0,0.189,-0.142,-0.629,-0.741
789366,2319.0,12553.0,2684.0,0.189,-0.136,-0.636,-0.736
789383,1629.0,15263.0,1322.0,0.191,-0.135,-0.641,-0.731
789400,2065.0,15197.0,116.0,0.193,-0.138,-0.642,-0.729
789416,2845.0,12085.0,-554.0,0.193,-0.144,-0.636,-0.733
789433,4117.0,8015.0,-494.0,0.193,-0.151,-0.625,-0.741
789449,3735.0,4581.0,-150.0,0.19,-0.155,-0.614,-0.75
789466,4191.0,3359.0,744.0,0.187,-0.157,-0.604,-0.759
789493,3693.0,2173.0,1392.0,0.185,-0.158,-0.597,-0.765
789509,3619.0,1139.0,2000.0,0.183,-0.158,-0.594,-0.767
789525,3665.0,1439.0,2370.0,0.183,-0.158,-0.597,-0.765
789541,4023.0,1869.0,2482.0,0.184,-0.157,-0.604,-0.759
789557,4719.0,5887.0,3176.0,0.186,-0.154,-0.613,-0.752
789574,4057.0,8893.0,3608.0,0.188,-0.149,-0.622,-0.745
789590,3163.0,11693.0,3324.0,0.188,-0.142,-0.631,-0.739
789617,1487.0,14499.0,2052.0,0.19,-0.139,-0.638,-0.733
789633,2073.0,16011.0,754.0,0.193,-0.14,-0.641,-0.729
789649,1725.0,13485.0,-322.0,0.195,-0.145,-0.638,-0.731
789665,3757.0,9303.0,-478.0,0.194,-0.151,-0.628,-0.738
789682,3969.0,5257.0,-188.0,0.192,-0.156,-0.615,-0.749
789699,4063.0,3539.0,592.0,0.189,-0.159,-0.603,-0.759
789716,3735.0,1825.0,1178.0,0.186,-0.16,-0.594,-0.766
789733,3679.0,869.0,1710.0,0.184,-0.16,-0.591,-0.769
789750,3577.0,1143.0,1984.0,0.184,-0.16,-0.593,-0.767
789767,3953.0,1739.0,2104.0,0.185,-0.159,-0.601,-0.761
789793,4911.0,5553.0,2718.0,0.188,-0.157,-0.612,-0.752
789809,4715.0,8919.0,3448.0,0.189,-0.152,-0.621,-0.745
789825,3547.0,11635.0,3330.0,0.189,-0.145,-0.628,-0.74
789841,1723.0,13721.0,2216.0,0.191,-0.141,-0.635,-0.735
789857,1907.0,15771.0,838.0,0.193,-0.142,-0.638,-0.732
789873,1707.0,13799.0,-134.0,0.195,-0.146,-0.636,-0.733
789899,3679.0,9937.0,-392.0,0.195,-0.152,-0.627,-0.739
789916,3877.0,5727.0,-158.0,0.193,-0.157,-0.615,-0.748
789932,4085.0,3651.0,474.0,0.189,-0.159,-0.604,-0.757
789948,3817.0,2473.0,1214.0,0.187,-0.161,-0.596,-0.764
789965,3723.0,1255.0,1766.0,0.185,-0.161,-0.592,-0.768
789981,3495.0,1231.0,2188.0,0.184,-0.161,-0.593,-0.767
789998,4001.0,1837.0,2410.0,0.185,-0.161,-0.599,-0.762
790015,4795.0,4873.0,2944.0,0.187,-0.159,-0.608,-0.755
790032,4529.0,7605.0,3456.0,0.189,-0.154,-0.617,-0.748
790059,3781.0,10291.0,3508.0,0.189,-0.148,-0.625,-0.743
790075,2235.0,12451.0,2662.0,0.19,-0.142,-0.632,-0.738
790091,1513.0,15329.0,1252.0,0.192,-0.141,-0.638,-0.732
790107,1845.0,15037.0,2.0,0.195,-0.144,-0.638,-0.731
790123,2751.0,11805.0,-520.0,0.196,-0.15,-0.631,-0.735
790139,4185.0,7295.0,-444.0,0.194,-0.156,-0.62,-0.744
790165,3867.0,4175.0,-32.0,0.192,-0.16,-0.608,-0.754
790182,4115.0,3119.0,958.0,0.189,-0.162,-0.597,-0.763
790199,3659.0,1441.0,1512.0,0.187,-0.163,-0.589,-0.769
790215,3663.0,899.0,2052.0,0.186,-0.163,-0.588,-0.77
790232,3901.0,1497.0,2394.0,0.186,-0.163,-0.592,-0.767
790249,4595.0,3529.0,2936.0,0.188,-0.161,-0.6,-0.76
790266,4695.0,6739.0,3514.0,0.19,-0.158,-0.609,-0.754
790282,3823.0,10449.0,3900.0,0.191,-0.152,-0.617,-0.749
790299,2193.0,12853.0,3066.0,0.191,-0.147,-0.624,-0.743
790325,1623.0,15377.0,1478.0,0.194,-0.146,-0.63,-0.738
790341,1929.0,14395.0,244.0,0.196,-0.149,-0.63,-0.737
790358,3575.0,10923.0,-312.0,0.197,-0.155,-0.623,-0.741
790375,4023.0,6493.0,-222.0,0.196,-0.16,-0.612,-0.75
790392,4091.0,4055.0,320.0,0.193,-0.163,-0.601,-0.759
790408,4037.0,2893.0,1162.0,0.19,-0.164,-0.591,-0.766
790424,3529.0,1415.0,1602.0,0.188,-0.165,-0.585,-0.771
790440,3385.0,1327.0,2198.0,0.188,-0.165,-0.585,-0.771
790466,3685.0,1805.0,2428.0,0.189,-0.165,-0.591,-0.767
790482,4523.0,4201.0,2930.0,0.191,-0.163,-0.599,-0.76
790499,4739.0,7189.0,3532.0,0.192,-0.16,-0.608,-0.754
790516,3945.0,10273.0,3748.0,0.192,-0.153,-0.616,-0.749
790532,2349.0,11965.0,2932.0,0.192,-0.148,-0.623,-0.744
790549,1875.0,14135.0,1634.0,0.194,-0.147,-0.628,-0.739
790566,2401.0,13673.0,488.0,0.195,-0.149,-0.629,-0.738
790582,2773.0,11203.0,-72.0,0.196,-0.154,-0.624,-0.741
790599,3939.0,7471.0,-6.0,0.195,-0.159,-0.615,-0.747
790625,3793.0,4401.0,290.0,0.193,-0.163,-0.605,-0.755
790641,4113.0,3359.0,1030.0,0.19,-0.165,-0.598,-0.761
790658,3611.0,2341.0,1540.0,0.189,-0.166,-0.593,-0.765
790675,3645.0,2095.0,2086.0,0.189,-0.166,-0.594,-0.765
790691,4317.0,2669.0,2492.0,0.189,-0.165,-0.598,-0.761
790707,4383.0,5193.0,2828.0,0.19,-0.164,-0.603,-0.757
790723,4361.0,7029.0,3310.0,0.191,-0.16,-0.609,-0.753
790749,3643.0,9023.0,3360.0,0.191,-0.155,-0.615,-0.75
790765,2469.0,11467.0,2828.0,0.191,-0.151,-0.621,-0.745
790782,1889.0,14607.0,1704.0,0.193,-0.151,-0.626,-0.741
790798,1887.0,14453.0,566.0,0.195,-0.153,-0.626,-0.739
790815,3471.0,11437.0,-22.0,0.196,-0.159,-0.62,-0.743
790832,4151.0,7141.0,-52.0,0.195,-0.164,-0.61,-0.751
790849,4073.0,4087.0,378.0,0.192,-0.167,-0.599,-0.759
790866,4189.0,3049.0,1202.0,0.189,-0.169,-0.589,-0.767
790883,3709.0,1563.0,1728.0,0.187,-0.169,-0.583,-0.773
790909,3439.0,1017.0,2238.0,0.187,-0.169,-0.581,-0.774
790925,3881.0,1515.0,2524.0,0.187,-0.169,-0.585,-0.771
790941,4183.0,2219.0,2722.0,0.189,-0.167,-0.594,-0.764
790958,4677.0,6349.0,3218.0,0.191,-0.164,-0.603,-0.757
790975,4017.0,9497.0,3634.0,0.191,-0.158,-0.612,-0.751
790991,3005.0,11865.0,3216.0,0.191,-0.151,-0.621,-0.745
791007,1631.0,14887.0,1918.0,0.192,-0.148,-0.629,-0.739
791033,2287.0,16051.0,476.0,0.195,-0.15,-0.632,-0.735
791049,2063.0,13505.0,-446.0,0.197,-0.155,-0.627,-0.737
791066,4067.0,8693.0,-522.0,0.196,-0.162,-0.616,-0.745
791082,3891.0,4681.0,-172.0,0.194,-0.166,-0.603,-0.755
791098,4275.0,3461.0,742.0,0.191,-0.169,-0.592,-0.765
791115,3625.0,1657.0,1420.0,0.189,-0.169,-0.583,-0.772
791131,3609.0,861.0,2108.0,0.187,-0.169,-0.58,-0.775
791148,3707.0,1235.0,2458.0,0.188,-0.169,-0.583,-0.773
791165,4137.0,1705.0,2692.0,0.189,-0.168,-0.59,-0.767
791192,4659.0,5799.0,3272.0,0.191,-0.165,-0.6,-0.759
791208,4373.0,8987.0,3904.0,0.191,-0.16,-0.608,-0.753
791224,3287.0,11295.0,3602.0,0.191,-0.153,-0.617,-0.748
791240,1955.0,13577.0,2410.0,0.192,-0.15,-0.624,-0.742
791256,2245.0,15141.0,1038.0,0.194,-0.15,-0.628,-0.738
791272,1903.0,13263.0,-40.0,0.196,-0.154,-0.626,-0.738
791289,3699.0,9541.0,-252.0,0.196,-0.16,-0.618,-0.744
791315,3943.0,5567.0,-6.0,0.194,-0.165,-0.608,-0.752
791332,3991.0,3555.0,528.0,0.192,-0.169,-0.598,-0.76
791348,3995.0,2921.0,1318.0,0.19,-0.17,-0.591,-0.766
791365,3575.0,1713.0,1744.0,0.189,-0.17,-0.587,-0.769
791382,3775.0,1913.0,2208.0,0.189,-0.17,-0.588,-0.768
791398,4451.0,3219.0,2772.0,0.191,-0.169,-0.594,-0.763
791414,4457.0,5683.0,3066.0,0.192,-0.166,-0.6,-0.759
791431,4191.0,7943.0,3420.0,0.192,-0.161,-0.606,-0.755
791448,3455.0,9575.0,3218.0,0.191,-0.155,-0.613,-0.75
791475,2511.0,11781.0,2536.0,0.191,-0.152,-0.62,-0.745
791491,2101.0,13865.0,1496.0,0.193,-0.151,-0.625,-0.741
791507,2233.0,13323.0,650.0,0.195,-0.153,-0.625,-0.741
791523,2655.0,10697.0,154.0,0.195,-0.159,-0.619,-0.744
791539,3661.0,7057.0,142.0,0.194,-0.164,-0.61,-0.751
791556,3679.0,4359.0,462.0,0.192,-0.168,-0.6,-0.758
791572,3973.0,3249.0,1094.0,0.19,-0.17,-0.593,-0.764
791598,3609.0,2377.0,1672.0,0.189,-0.171,-0.589,-0.767
791614,3795.0,2051.0,2184.0,0.189,-0.171,-0.59,-0.766
791631,4643.0,3423.0,2664.0,0.19,-0.171,-0.593,-0.763
791648,4395.0,5075.0,2902.0,0.191,-0.168,-0.598,-0.76
791664,4293.0,6977.0,3188.0,0.191,-0.164,-0.604,-0.756
791680,3821.0,8587.0,3084.0,0.191,-0.159,-0.61,-0.752
791696,2887.0,10719.0,2650.0,0.191,-0.155,-0.617,-0.747
791722,2379.0,13067.0,1830.0,0.192,-0.153,-0.623,-0.743
791738,2499.0,13543.0,1032.0,0.193,-0.154,-0.624,-0.741
791754,2161.0,11709.0,400.0,0.194,-0.159,-0.621,-0.743
791770,3559.0,8377.0,256.0,0.194,-0.164,-0.612,-0.749
791787,3677.0,5197.0,414.0,0.192,-0.168,-0.603,-0.756
791804,3839.0,3503.0,952.0,0.19,-0.171,-0.595,-0.762
791820,3789.0,2597.0,1524.0,0.189,-0.172,-0.591,-0.765
791846,3719.0,2299.0,2046.0,0.188,-0.172,-0.59,-0.766
791862,4129.0,3029.0,2550.0,0.189,-0.172,-0.592,-0.764
791878,4433.0,4595.0,2958.0,0.19,-0.171,-0.597,-0.761
791895,4349.0,6329.0,3274.0,0.191,-0.168,-0.602,-0.757
791911,3997.0,8077.0,3232.0,0.19,-0.163,-0.608,-0.754
791927,3077.0,10161.0,2766.0,0.19,-0.159,-0.615,-0.749
791944,2559.0,12287.0,1960.0,0.191,-0.157,-0.621,-0.744
791971,2661.0,13115.0,1150.0,0.192,-0.157,-0.623,-0.742
791988,2105.0,11553.0,390.0,0.193,-0.161,-0.621,-0.743
792005,3537.0,8781.0,274.0,0.193,-0.166,-0.614,-0.747
792022,3823.0,5991.0,466.0,0.191,-0.17,-0.606,-0.753
792038,3777.0,3963.0,872.0,0.19,-0.173,-0.598,-0.759
792055,3881.0,3071.0,1440.0,0.189,-0.174,-0.594,-0.762
792071,3781.0,2875.0,1830.0,0.188,-0.174,-0.593,-0.763
792087,4225.0,3831.0,2372.0,0.189,-0.174,-0.595,-0.762
792103,4475.0,4617.0,2724.0,0.189,-0.173,-0.598,-0.759
792129,4339.0,6265.0,3030.0,0.19,-0.169,-0.602,-0.757
792145,3837.0,7375.0,2850.0,0.189,-0.165,-0.608,-0.754
792161,3397.0,9249.0,2622.0,0.189,-0.16,-0.614,-0.749
792177,2785.0,11459.0,2252.0,0.19,-0.158,-0.62,-0.745
792193,2131.0,13133.0,1426.0,0.191,-0.158,-0.623,-0.742
792219,2153.0,12387.0,642.0,0.192,-0.16,-0.622,-0.742
792235,2969.0,10011.0,286.0,0.192,-0.166,-0.616,-0.746
792252,3615.0,6859.0,340.0,0.191,-0.171,-0.607,-0.752
792268,3921.0,4301.0,692.0,0.189,-0.174,-0.598,-0.759
792284,3929.0,3051.0,1256.0,0.188,-0.176,-0.592,-0.763
792300,3867.0,2451.0,1734.0,0.187,-0.177,-0.59,-0.765
792316,3797.0,2637.0,2284.0,0.187,-0.176,-0.591,-0.764
792342,4581.0,4073.0,2802.0,0.188,-0.175,-0.594,-0.762
792359,4401.0,5379.0,3110.0,0.189,-0.173,-0.599,-0.759
792376,4067.0,7251.0,3162.0,0.189,-0.168,-0.604,-0.756
792393,3409.0,8909.0,2872.0,0.189,-0.163,-0.611,-0.751
792410,2903.0,11249.0,2344.0,0.189,-0.16,-0.617,-0.747
792427,2293.0,12973.0,1554.0,0.19,-0.159,-0.621,-0.743
792443,2413.0,12515.0,762.0,0.191,-0.161,-0.622,-0.742
792459,2723.0,10407.0,236.0,0.192,-0.166,-0.617,-0.745
792476,3725.0,7397.0,336.0,0.191,-0.17,-0.609,-0.751
792493,3803.0,4637.0,566.0,0.189,-0.174,-0.6,-0.757
792519,3795.0,3357.0,1106.0,0.187,-0.176,-0.595,-0.762
792536,3725.0,2779.0,1686.0,0.187,-0.176,-0.592,-0.764
792552,3743.0,3149.0,2220.0,0.187,-0.176,-0.593,-0.763
792568,4451.0,4303.0,2662.0,0.188,-0.175,-0.596,-0.761
792584,4293.0,5445.0,3036.0,0.189,-0.173,-0.599,-0.759
792600,4077.0,7093.0,3086.0,0.189,-0.169,-0.604,-0.756
792626,3425.0,8579.0,2790.0,0.188,-0.165,-0.61,-0.752
792643,2981.0,10791.0,2376.0,0.189,-0.162,-0.615,-0.748
792660,2445.0,12483.0,1662.0,0.19,-0.161,-0.619,-0.745
792677,2623.0,12209.0,928.0,0.191,-0.162,-0.619,-0.744
792693,2699.0,10305.0,428.0,0.191,-0.166,-0.615,-0.746
792710,3835.0,7499.0,476.0,0.19,-0.171,-0.608,-0.751
792727,3783.0,5009.0,748.0,0.189,-0.174,-0.601,-0.757
792743,3897.0,3559.0,1240.0,0.187,-0.176,-0.595,-0.762
792760,3793.0,2983.0,1742.0,0.187,-0.176,-0.593,-0.764
792777,3783.0,3311.0,2214.0,0.187,-0.176,-0.593,-0.763
792794,4461.0,4257.0,2610.0,0.188,-0.176,-0.595,-0.761
792820,4323.0,5185.0,2926.0,0.189,-0.173,-0.599,-0.759
792836,4099.0,6749.0,2954.0,0.189,-0.169,-0.604,-0.756
792852,3515.0,7971.0,2718.0,0.188,-0.165,-0.61,-0.752
792868,3167.0,10105.0,2502.0,0.188,-0.162,-0.616,-0.748
792885,2449.0,12361.0,1920.0,0.189,-0.16,-0.621,-0.744
792901,2481.0,13361.0,1090.0,0.19,-0.162,-0.622,-0.742
792927,1973.0,11833.0,340.0,0.191,-0.165,-0.619,-0.744
792944,3655.0,8779.0,196.0,0.191,-0.171,-0.611,-0.749
792961,3907.0,5409.0,368.0,0.189,-0.175,-0.602,-0.756
792977,3941.0,3693.0,778.0,0.188,-0.177,-0.594,-0.762
792993,3907.0,2833.0,1404.0,0.186,-0.178,-0.59,-0.765
793009,3775.0,2533.0,1950.0,0.186,-0.178,-0.588,-0.767
793026,4037.0,2647.0,2456.0,0.186,-0.178,-0.59,-0.765
793043,4505.0,4405.0,2978.0,0.187,-0.176,-0.595,-0.762
793060,4339.0,6019.0,3322.0,0.188,-0.173,-0.6,-0.758
793077,3925.0,7935.0,3326.0,0.188,-0.169,-0.606,-0.755
793104,3069.0,9787.0,2900.0,0.188,-0.164,-0.613,-0.75
793120,2549.0,12387.0,2106.0,0.189,-0.162,-0.619,-0.745
793137,2467.0,13523.0,1194.0,0.19,-0.163,-0.622,-0.742
793154,1925.0,12135.0,342.0,0.191,-0.166,-0.62,-0.743
793171,3573.0,9269.0,206.0,0.191,-0.171,-0.613,-0.748
793188,3805.0,5919.0,256.0,0.189,-0.175,-0.604,-0.754
793205,3787.0,3847.0,680.0,0.188,-0.178,-0.596,-0.76
793222,3923.0,3097.0,1250.0,0.186,-0.179,-0.591,-0.764
793239,3651.0,2731.0,1816.0,0.186,-0.179,-0.589,-0.766
793256,3927.0,2829.0,2276.0,0.186,-0.179,-0.591,-0.764
793273,4461.0,4395.0,2764.0,0.187,-0.177,-0.595,-0.761
793290,4363.0,5831.0,3134.0,0.188,-0.175,-0.599,-0.758
793307,4023.0,7559.0,3140.0,0.188,-0.17,-0.604,-0.755
793334,3303.0,9127.0,2812.0,0.188,-0.166,-0.611,-0.751
793351,2783.0,11573.0,2280.0,0.188,-0.163,-0.617,-0.747
793367,2159.0,13361.0,1468.0,0.189,-0.163,-0.621,-0.743
793383,2077.0,12573.0,620.0,0.19,-0.166,-0.62,-0.743
793399,3029.0,10121.0,194.0,0.19,-0.17,-0.614,-0.746
793415,3879.0,6797.0,264.0,0.189,-0.175,-0.606,-0.753
793431,3765.0,4217.0,514.0,0.188,-0.178,-0.598,-0.759
793457,3929.0,3083.0,1166.0,0.186,-0.18,-0.592,-0.763
793474,3755.0,2601.0,1720.0,0.185,-0.18,-0.589,-0.765
793491,3765.0,2569.0,2242.0,0.186,-0.18,-0.59,-0.765
793508,4571.0,3821.0,2762.0,0.187,-0.179,-0.594,-0.762
793525,4323.0,5003.0,3046.0,0.188,-0.176,-0.598,-0.759
793542,4059.0,6821.0,3188.0,0.188,-0.172,-0.604,-0.755
793559,3553.0,8565.0,3046.0,0.187,-0.167,-0.612,-0.75
793576,2869.0,11235.0,2480.0,0.188,-0.163,-0.62,-0.744
793593,2165.0,13485.0,1536.0,0.19,-0.162,-0.625,-0.74
793610,2359.0,13341.0,546.0,0.191,-0.164,-0.626,-0.738
793627,2255.0,11079.0,-134.0,0.192,-0.168,-0.623,-0.74
793643,3927.0,7671.0,24.0,0.191,-0.174,-0.615,-0.745
793669,3879.0,4885.0,276.0,0.19,-0.178,-0.607,-0.751
793685,4047.0,3443.0,866.0,0.189,-0.18,-0.601,-0.756
793702,4055.0,2923.0,1404.0,0.188,-0.181,-0.598,-0.758
793719,3975.0,3133.0,1962.0,0.188,-0.181,-0.598,-0.758
793736,4683.0,4193.0,2538.0,0.188,-0.18,-0.599,-0.757
793753,4425.0,5063.0,2918.0,0.188,-0.177,-0.601,-0.756
793770,4219.0,6453.0,2944.0,0.188,-0.173,-0.605,-0.754
793786,3651.0,7841.0,2914.0,0.187,-0.169,-0.61,-0.751
793803,3065.0,10139.0,2626.0,0.186,-0.165,-0.616,-0.747
793820,2305.0,12443.0,2050.0,0.187,-0.163,-0.621,-0.743
793847,2327.0,13371.0,1182.0,0.188,-0.164,-0.623,-0.742
793864,1971.0,11759.0,480.0,0.189,-0.168,-0.619,-0.743
793881,3447.0,8703.0,242.0,0.189,-0.174,-0.612,-0.748
793897,3747.0,5511.0,342.0,0.188,-0.178,-0.603,-0.755
793913,3827.0,3695.0,728.0,0.186,-0.181,-0.595,-0.761
793929,3939.0,2829.0,1338.0,0.185,-0.182,-0.591,-0.764
793945,3777.0,2455.0,1840.0,0.185,-0.182,-0.59,-0.765
793971,4201.0,3201.0,2322.0,0.186,-0.182,-0.592,-0.763
793988,4565.0,4471.0,2796.0,0.187,-0.18,-0.596,-0.76
794005,4475.0,6303.0,3202.0,0.187,-0.177,-0.6,-0.757
794022,4029.0,7807.0,3128.0,0.187,-0.172,-0.606,-0.754
794039,3201.0,9695.0,2732.0,0.186,-0.167,-0.613,-0.749
794056,2663.0,11879.0,2082.0,0.187,-0.165,-0.619,-0.745
794073,2189.0,13161.0,1298.0,0.188,-0.165,-0.621,-0.742
794090,2005.0,12021.0,556.0,0.189,-0.168,-0.62,-0.743
794107,3125.0,9559.0,278.0,0.189,-0.173,-0.614,-0.747
794124,3493.0,6481.0,310.0,0.188,-0.178,-0.605,-0.753
794140,3745.0,4247.0,642.0,0.186,-0.181,-0.597,-0.759
794166,3841.0,3199.0,1224.0,0.184,-0.183,-0.592,-0.763
794182,3739.0,2665.0,1724.0,0.184,-0.183,-0.59,-0.765
794198,3891.0,3167.0,2206.0,0.184,-0.183,-0.591,-0.763
794214,4541.0,4399.0,2616.0,0.185,-0.182,-0.595,-0.761
794230,4455.0,5955.0,3056.0,0.186,-0.18,-0.599,-0.758
794246,4129.0,7573.0,3108.0,0.186,-0.176,-0.604,-0.755
794272,3373.0,9383.0,2744.0,0.186,-0.171,-0.611,-0.751
794289,2879.0,11311.0,2176.0,0.186,-0.169,-0.616,-0.747
794306,2403.0,12587.0,1376.0,0.187,-0.169,-0.619,-0.744
794323,2299.0,11727.0,672.0,0.188,-0.171,-0.618,-0.744
794340,2985.0,9681.0,418.0,0.188,-0.175,-0.613,-0.748
794356,3537.0,6929.0,446.0,0.187,-0.18,-0.605,-0.753
794373,3711.0,4673.0,754.0,0.185,-0.183,-0.597,-0.759
794390,3757.0,3525.0,1218.0,0.183,-0.184,-0.592,-0.763
794406,3681.0,3043.0,1698.0,0.182,-0.185,-0.59,-0.764
794423,3751.0,3463.0,2220.0,0.183,-0.185,-0.591,-0.764
794440,4529.0,4529.0,2704.0,0.184,-0.184,-0.593,-0.762
794467,4373.0,5749.0,3142.0,0.184,-0.182,-0.597,-0.759
794483,4019.0,7033.0,3042.0,0.185,-0.178,-0.602,-0.756
794499,3485.0,8581.0,2686.0,0.184,-0.173,-0.608,-0.752
794515,3173.0,10291.0,2284.0,0.185,-0.171,-0.614,-0.748
794531,2643.0,11627.0,1676.0,0.185,-0.17,-0.618,-0.745
794547,2739.0,11789.0,956.0,0.186,-0.171,-0.618,-0.744
794573,2309.0,10243.0,420.0,0.186,-0.174,-0.616,-0.746
794590,3349.0,8051.0,396.0,0.185,-0.178,-0.61,-0.749
794607,3665.0,6319.0,758.0,0.184,-0.182,-0.604,-0.754
794624,3867.0,4963.0,1260.0,0.183,-0.185,-0.598,-0.758
794641,4055.0,4427.0,1756.0,0.182,-0.186,-0.595,-0.761
794658,4125.0,4525.0,2162.0,0.182,-0.186,-0.594,-0.761
794675,4379.0,5263.0,2436.0,0.182,-0.187,-0.595,-0.76
794692,4339.0,5969.0,2560.0,0.183,-0.187,-0.597,-0.759
794709,3881.0,6877.0,2430.0,0.184,-0.186,-0.6,-0.756
794726,3355.0,8093.0,2354.0,0.185,-0.185,-0.603,-0.753
794743,2803.0,9141.0,2160.0,0.186,-0.184,-0.607,-0.751
794759,2401.0,9493.0,2120.0,0.187,-0.184,-0.608,-0.749
794776,2303.0,9093.0,2120.0,0.187,-0.185,-0.608,-0.749
794803,1795.0,8471.0,1884.0,0.187,-0.185,-0.607,-0.75
794819,2483.0,7401.0,1468.0,0.186,-0.185,-0.606,-0.751
794835,2493.0,5751.0,1066.0,0.184,-0.185,-0.605,-0.753
794852,3259.0,4423.0,712.0,0.18,-0.184,-0.605,-0.753
794869,3115.0,3851.0,336.0,0.178,-0.183,-0.608,-0.751
794886,3083.0,4145.0,106.0,0.175,-0.183,-0.614,-0.747
794903,3531.0,5167.0,200.0,0.174,-0.184,-0.622,-0.741
794920,4219.0,8841.0,986.0,0.174,-0.185,-0.628,-0.736
794937,4175.0,9219.0,1766.0,0.174,-0.185,-0.632,-0.732
794954,4419.0,9821.0,2130.0,0.174,-0.183,-0.636,-0.729
794971,3881.0,8453.0,1648.0,0.174,-0.181,-0.641,-0.725
794998,3845.0,7787.0,1220.0,0.176,-0.179,-0.648,-0.719
795014,3787.0,7265.0,1122.0,0.178,-0.177,-0.655,-0.712
795030,3431.0,6983.0,1178.0,0.181,-0.175,-0.663,-0.705
795046,3477.0,7093.0,1394.0,0.184,-0.172,-0.671,-0.698
795062,3271.0,7157.0,1612.0,0.188,-0.169,-0.677,-0.691
795078,3283.0,6991.0,1678.0,0.191,-0.165,-0.683,-0.685
795104,3135.0,7589.0,1546.0,0.195,-0.162,-0.689,-0.679
795121,2857.0,8371.0,1146.0,0.199,-0.158,-0.695,-0.673
795138,2437.0,9533.0,748.0,0.204,-0.156,-0.699,-0.667
795155,2403.0,10001.0,450.0,0.208,-0.157,-0.7,-0.664
795172,2475.0,9377.0,484.0,0.212,-0.159,-0.699,-0.664
795189,2941.0,8171.0,870.0,0.216,-0.161,-0.696,-0.666
795206,3513.0,7947.0,1588.0,0.219,-0.165,-0.691,-0.669
795223,4333.0,8061.0,2294.0,0.221,-0.167,-0.687,-0.672
795240,5089.0,8065.0,2818.0,0.223,-0.169,-0.683,-0.675
795257,5357.0,8403.0,2984.0,0.225,-0.169,-0.678,-0.679
795274,6155.0,8013.0,2864.0,0.226,-0.168,-0.674,-0.683
795291,6525.0,8279.0,2258.0,0.227,-0.165,-0.67,-0.687
795308,6563.0,8931.0,1454.0,0.227,-0.161,-0.666,-0.692
795325,6829.0,9943.0,706.0,0.227,-0.156,-0.661,-0.698
795352,6511.0,10695.0,-196.0,0.226,-0.151,-0.656,-0.704
795369,5773.0,10115.0,-1094.0,0.224,-0.144,-0.651,-0.711
795386,5557.0,8835.0,-1814.0,0.222,-0.136,-0.646,-0.718
795403,4583.0,7883.0,-2330.0,0.218,-0.126,-0.641,-0.725
795420,3329.0,7107.0,-2570.0,0.21,-0.114,-0.638,-0.732
795437,2343.0,5801.0,-2322.0,0.199,-0.102,-0.636,-0.739
795454,1653.0,5625.0,-2004.0,0.187,-0.09,-0.637,-0.743
795471,975.0,5565.0,-1752.0,0.176,-0.08,-0.641,-0.743
795488,481.0,6577.0,-1706.0,0.165,-0.072,-0.647,-0.741
795505,557.0,7511.0,-1560.0,0.155,-0.065,-0.654,-0.738
795522,1251.0,8601.0,-1360.0,0.145,-0.058,-0.659,-0.735
795539,1171.0,8097.0,-1040.0,0.138,-0.05,-0.661,-0.736
795556,751.0,7911.0,-452.0,0.13,-0.042,-0.66,-0.738
795573,-29.0,7729.0,-160.0,0.121,-0.035,-0.657,-0.744
795590,397.0,6369.0,236.0,0.11,-0.029,-0.652,-0.75
795617,209.0,5769.0,490.0,0.1,-0.025,-0.65,-0.753
795633,-21.0,6173.0,562.0,0.089,-0.024,-0.649,-0.755
795650,119.0,6505.0,550.0,0.079,-0.025,-0.648,-0.757
795666,209.0,7059.0,676.0,0.07,-0.029,-0.647,-0.759
795682,447.0,7981.0,832.0,0.063,-0.034,-0.645,-0.761
795698,599.0,8717.0,948.0,0.057,-0.042,-0.642,-0.764
795714,661.0,8961.0,1278.0,0.051,-0.05,-0.637,-0.768
795740,887.0,8865.0,1502.0,0.044,-0.058,-0.63,-0.773
795757,1057.0,8755.0,1662.0,0.037,-0.066,-0.623,-0.779
795774,1103.0,8357.0,1828.0,0.03,-0.072,-0.616,-0.784
795791,1121.0,8277.0,2058.0,0.024,-0.078,-0.609,-0.789
795808,1149.0,8247.0,2268.0,0.017,-0.083,-0.602,-0.794
795824,1327.0,8227.0,2542.0,0.011,-0.087,-0.595,-0.799
795841,1461.0,8095.0,2836.0,0.005,-0.09,-0.588,-0.804
795858,1439.0,7421.0,2956.0,0.0,0.092,0.581,0.809
795874,1373.0,6609.0,3142.0,0.005,0.093,0.572,0.815
795900,1529.0,6139.0,3376.0,0.008,0.093,0.564,0.82
795916,2055.0,6597.0,3752.0,0.01,0.094,0.556,0.826
795932,2685.0,7277.0,3978.0,0.008,0.095,0.547,0.831
795948,3343.0,7337.0,4118.0,0.004,0.096,0.54,0.836
795964,3449.0,7031.0,4140.0,0.0,-0.098,-0.533,-0.841
795980,3115.0,6693.0,4030.0,0.005,-0.099,-0.527,-0.844
796006,2557.0,6453.0,4116.0,0.009,-0.1,-0.522,-0.847
796023,2023.0,6263.0,4228.0,0.014,-0.101,-0.519,-0.849
796040,1587.0,6171.0,4132.0,0.02,-0.102,-0.517,-0.85
796057,1329.0,6465.0,4232.0,0.025,-0.104,-0.515,-0.85
796074,1565.0,7243.0,4302.0,0.032,-0.105,-0.513,-0.851
796091,2037.0,7895.0,4062.0,0.039,-0.106,-0.508,-0.854
796108,2707.0,7977.0,3794.0,0.047,-0.105,-0.501,-0.858
796125,3307.0,7919.0,3806.0,0.055,-0.102,-0.493,-0.862
796142,3639.0,7305.0,3848.0,0.063,-0.096,-0.487,-0.866
796159,3899.0,6869.0,3870.0,0.07,-0.089,-0.484,-0.868
796185,3859.0,6891.0,3772.0,0.076,-0.079,-0.485,-0.867
796202,3545.0,7407.0,3902.0,0.081,-0.068,-0.49,-0.865
796219,3483.0,8401.0,4002.0,0.085,-0.057,-0.496,-0.862
796236,3419.0,9027.0,3724.0,0.088,-0.045,-0.502,-0.859
796253,3017.0,9451.0,3538.0,0.087,-0.031,-0.507,-0.857
796270,2543.0,9541.0,3542.0,0.084,-0.014,-0.51,-0.856
796287,2151.0,8837.0,3594.0,0.077,0.004,-0.511,-0.856
796304,1849.0,8103.0,3804.0,0.068,0.022,-0.508,-0.858
796321,2859.0,7593.0,4270.0,0.059,0.041,-0.503,-0.862
796338,2689.0,6581.0,4562.0,0.05,0.059,-0.494,-0.866
796355,2479.0,5563.0,4826.0,0.043,0.077,-0.486,-0.87
796372,1941.0,4503.0,4696.0,0.036,0.097,-0.479,-0.871
796389,1061.0,4031.0,4770.0,0.03,0.119,-0.478,-0.87
796406,581.0,5313.0,4894.0,0.024,0.141,-0.48,-0.866
796423,63.0,5959.0,4912.0,0.017,0.164,-0.482,-0.861
796440,-151.0,6675.0,4534.0,0.009,0.187,-0.483,-0.855
796467,-183.0,7623.0,4074.0,0.002,0.211,-0.481,-0.851
796484,-1047.0,7511.0,4068.0,0.005,-0.235,0.475,0.848
796500,-1641.0,7077.0,4176.0,0.012,-0.259,0.466,0.846
796516,-1645.0,6609.0,3948.0,0.019,-0.285,0.457,0.843
796532,-1787.0,6347.0,3584.0,0.027,-0.312,0.448,0.838
796548,-1979.0,5495.0,3190.0,0.038,-0.341,0.44,0.83
796564,-2327.0,4633.0,2712.0,0.05,-0.373,0.434,0.819
796590,-3055.0,3937.0,2602.0,0.063,-0.406,0.428,0.805
796607,-3609.0,3155.0,2198.0,0.077,-0.44,0.423,0.789
796623,-4529.0,1323.0,1070.0,0.09,-0.476,0.415,0.77
796640,-7117.0,-253.0,598.0,0.102,-0.51,0.411,0.749
796657,-9747.0,-179.0,2016.0,0.114,-0.541,0.408,0.727
796674,-12541.0,377.0,1676.0,0.124,-0.566,0.406,0.707
796691,-14137.0,-355.0,24.0,0.13,-0.588,0.404,0.689
796708,-13247.0,953.0,-2050.0,0.136,-0.61,0.399,0.671
796725,-11441.0,1571.0,-3074.0,0.14,-0.631,0.392,0.655
796742,-9677.0,2681.0,-5358.0,0.143,-0.653,0.383,0.638
796759,-8513.0,4221.0,-6708.0,0.146,-0.673,0.373,0.622
796785,-7241.0,5511.0,-7648.0,0.15,-0.692,0.359,0.608
796802,-6277.0,4963.0,-8310.0,0.157,-0.71,0.34,0.597
796819,-5695.0,3155.0,-8414.0,0.167,-0.726,0.318,0.586
796836,-5267.0,2259.0,-7872.0,0.183,-0.741,0.296,0.574
796853,-4773.0,1637.0,-6182.0,0.201,-0.755,0.271,0.562
796870,-3915.0,1163.0,-4812.0,0.22,-0.767,0.243,0.552
796887,-3151.0,1195.0,-4246.0,0.237,-0.779,0.211,0.541
796904,-2701.0,751.0,-4126.0,0.249,-0.791,0.175,0.531
796921,-2331.0,-489.0,-3878.0,0.257,-0.803,0.137,0.52
796938,-2629.0,-1843.0,-3462.0,0.263,-0.814,0.096,0.509
796955,-2651.0,-2629.0,-3086.0,0.266,-0.824,0.054,0.497
796972,-2847.0,-3345.0,-3346.0,0.267,-0.833,0.012,0.485
796989,-3319.0,-3863.0,-4104.0,0.265,-0.841,-0.029,0.472
797015,-3659.0,-4333.0,-5270.0,0.259,-0.848,-0.069,0.457
797032,-4067.0,-5883.0,-6162.0,0.25,-0.855,-0.107,0.442
797048,-4433.0,-7073.0,-6838.0,0.241,-0.859,-0.143,0.428
797065,-5091.0,-7311.0,-7622.0,0.233,-0.861,-0.178,0.415
797082,-5195.0,-6691.0,-8134.0,0.223,-0.862,-0.21,0.405
797099,-4863.0,-6613.0,-8198.0,0.211,-0.861,-0.238,0.396
797116,-4105.0,-6269.0,-8198.0,0.196,-0.86,-0.264,0.389
797138,-4117.0,-6195.0,-7378.0,0.182,-0.859,-0.288,0.382
797156,-3565.0,-6999.0,-7430.0,0.169,-0.857,-0.31,0.375
797173,-3707.0,-5721.0,-7294.0,0.16,-0.854,-0.328,0.37
797190,-3541.0,-5067.0,-7132.0,0.149,-0.852,-0.344,0.366
797207,-3759.0,-5559.0,-7348.0,0.138,-0.85,-0.357,0.362
797224,-3237.0,-5545.0,-7580.0,0.127,-0.848,-0.366,0.36
797241,-3105.0,-5811.0,-8040.0,0.118,-0.846,-0.374,0.361
797258,-3295.0,-5261.0,-8290.0,0.109,-0.844,-0.379,0.364
797275,-3481.0,-4269.0,-8538.0,0.098,-0.841,-0.384,0.369
797292,-3747.0,-4223.0,-8732.0,0.084,-0.838,-0.389,0.375
797308,-3723.0,-3931.0,-8706.0,0.068,-0.834,-0.392,0.382
797325,-3391.0,-3465.0,-8508.0,0.051,-0.831,-0.393,0.391
797352,-3021.0,-2741.0,-8108.0,0.034,-0.826,-0.394,0.401
797369,87.0,-5681.0,-3576.0,0.019,-0.821,-0.396,0.411
797386,1973.0,-8283.0,-2114.0,0.026,-0.814,-0.395,0.426
797403,-5201.0,9173.0,-7380.0,0.027,-0.814,-0.387,0.433
797420,-2961.0,-2103.0,-5626.0,0.019,-0.811,-0.391,0.435
797437,-3513.0,209.0,-7772.0,0.01,-0.807,-0.395,0.438
797454,-5265.0,2207.0,-9372.0,0.002,-0.802,-0.4,0.444
797471,-5065.0,-807.0,-7814.0,0.007,0.795,0.407,-0.45
797488,-5089.0,-2359.0,-6810.0,0.01,0.787,0.411,-0.459
797505,-5557.0,-3361.0,-6724.0,0.009,0.781,0.411,-0.47
797522,-1879.0,629.0,824.0,0.011,0.783,0.415,-0.464
797539,-8165.0,-13455.0,-2266.0,0.012,0.787,0.412,-0.459
797556,-6455.0,-5037.0,-3682.0,0.004,0.79,0.404,-0.462
797573,-6697.0,-569.0,-4886.0,0.001,0.794,0.398,-0.46
797600,-7587.0,-1833.0,-5654.0,0.003,0.798,0.394,-0.456
797617,-7713.0,-1345.0,-3890.0,0.009,0.801,0.393,-0.452
797633,-6831.0,-1207.0,-3784.0,0.014,0.803,0.393,-0.449
797649,-6293.0,-2929.0,-4450.0,0.016,0.805,0.391,-0.447
797666,-5937.0,-4615.0,-5374.0,0.019,0.807,0.388,-0.446
797682,-5453.0,-2199.0,-4196.0,0.023,0.808,0.386,-0.445
797699,-4341.0,89.0,-5296.0,0.027,0.808,0.385,-0.445
797716,-3517.0,-2645.0,-5062.0,0.029,0.807,0.385,-0.446
797733,-5103.0,-4145.0,-4842.0,0.029,0.806,0.384,-0.449
797759,-6535.0,-2199.0,-4998.0,0.027,0.804,0.384,-0.453
797776,-6245.0,-699.0,-5242.0,0.028,0.802,0.384,-0.456
797793,-6075.0,-2353.0,-4660.0,0.03,0.8,0.384,-0.459
797809,-5003.0,-2415.0,-5686.0,0.032,0.798,0.384,-0.463
797825,-5237.0,-1433.0,-6554.0,0.034,0.796,0.384,-0.466
797842,-5591.0,-1993.0,-6588.0,0.035,0.795,0.385,-0.468
797858,-6453.0,-2769.0,-6130.0,0.036,0.794,0.385,-0.469
797884,-7907.0,-2121.0,-5614.0,0.037,0.793,0.384,-0.471
797900,-7429.0,-2635.0,-6156.0,0.039,0.792,0.383,-0.473
797916,-7289.0,-2631.0,-6248.0,0.041,0.792,0.381,-0.476
797933,-7209.0,-3067.0,-6188.0,0.043,0.791,0.38,-0.478
797949,-7575.0,-2731.0,-5816.0,0.045,0.79,0.378,-0.481
797965,-7439.0,-2291.0,-5598.0,0.047,0.789,0.375,-0.484
797981,-6825.0,-2269.0,-5798.0,0.051,0.788,0.372,-0.488
798007,-6175.0,-2263.0,-5696.0,0.054,0.787,0.369,-0.492
798024,-5993.0,-2901.0,-5584.0,0.057,0.785,0.365,-0.497
798041,-6473.0,-1531.0,-4916.0,0.06,0.784,0.362,-0.501
798058,-5799.0,-1867.0,-4870.0,0.064,0.781,0.358,-0.507
798075,-5327.0,-2339.0,-4980.0,0.068,0.779,0.355,-0.513
798091,-4935.0,-1145.0,-5154.0,0.071,0.776,0.352,-0.519
798108,-4947.0,-1699.0,-4948.0,0.073,0.774,0.349,-0.524
798125,-5767.0,-1059.0,-4252.0,0.075,0.771,0.347,-0.528
798142,-5971.0,-1015.0,-3800.0,0.077,0.769,0.344,-0.534
798158,-5469.0,-2263.0,-4310.0,0.08,0.766,0.341,-0.539
798184,-5739.0,-1837.0,-4180.0,0.081,0.763,0.339,-0.545
798201,-5945.0,-1777.0,-3858.0,0.082,0.759,0.337,-0.551
798218,-6509.0,-1481.0,-3596.0,0.082,0.756,0.336,-0.556
798235,-7119.0,-1313.0,-2896.0,0.083,0.752,0.335,-0.561
798252,-6913.0,-2567.0,-2636.0,0.085,0.748,0.335,-0.567
798269,-6787.0,-1975.0,-2648.0,0.086,0.744,0.334,-0.573
798285,-5829.0,-1021.0,-3422.0,0.087,0.739,0.333,-0.579
798302,-6227.0,-1675.0,-3164.0,0.088,0.736,0.333,-0.583
798318,-6341.0,-2121.0,-2902.0,0.088,0.733,0.332,-0.587
798335,-6415.0,-869.0,-2590.0,0.087,0.731,0.332,-0.59
798352,-6023.0,-1773.0,-3138.0,0.087,0.729,0.331,-0.592
798378,-6425.0,-1249.0,-3300.0,0.086,0.729,0.331,-0.593
798394,-7227.0,-2309.0,-2196.0,0.084,0.73,0.331,-0.592
798410,-8191.0,-1999.0,-1970.0,0.083,0.73,0.331,-0.592
798427,-8497.0,-2353.0,-1794.0,0.081,0.73,0.331,-0.593
798443,-8233.0,-1867.0,-1652.0,0.081,0.729,0.33,-0.594
798459,-8229.0,-2049.0,-1822.0,0.081,0.728,0.328,-0.596
798485,-7503.0,-1869.0,-1860.0,0.083,0.726,0.327,-0.599
798502,-6653.0,-1341.0,-1652.0,0.084,0.724,0.325,-0.602
798519,-5713.0,-939.0,-1930.0,0.086,0.722,0.324,-0.605
798535,-4469.0,-1317.0,-1696.0,0.087,0.72,0.324,-0.608
798551,-3617.0,-989.0,-1528.0,0.087,0.718,0.324,-0.61
798567,-3045.0,-513.0,-1504.0,0.086,0.717,0.325,-0.611
798584,-2687.0,-423.0,-1176.0,0.084,0.716,0.327,-0.611
798600,-2845.0,-1159.0,-1138.0,0.082,0.715,0.33,-0.611
798617,-2901.0,-1091.0,-1242.0,0.08,0.714,0.333,-0.61
798644,-3365.0,-841.0,-990.0,0.077,0.714,0.337,-0.609
798660,-4225.0,-1579.0,-1388.0,0.074,0.713,0.34,-0.608
798676,-4865.0,-1475.0,-1866.0,0.071,0.712,0.345,-0.608
798692,-5069.0,-1581.0,-2302.0,0.066,0.711,0.35,-0.606
798708,-6883.0,-919.0,-2960.0,0.063,0.711,0.356,-0.603
798725,-7841.0,-2403.0,-2414.0,0.06,0.711,0.362,-0.6
798741,-8539.0,-2643.0,-2502.0,0.058,0.71,0.366,-0.598
798767,-8345.0,-3563.0,-3306.0,0.056,0.711,0.37,-0.596
798783,-8487.0,-3717.0,-3502.0,0.055,0.712,0.373,-0.593
798800,-9781.0,-3083.0,-2700.0,0.054,0.713,0.375,-0.59
798817,-9779.0,-4157.0,-2774.0,0.054,0.715,0.375,-0.588
798833,-9843.0,-3359.0,-2552.0,0.054,0.716,0.373,-0.587
798850,-9877.0,-2757.0,-2562.0,0.056,0.717,0.371,-0.588
798866,-8983.0,-3745.0,-2664.0,0.058,0.717,0.368,-0.589
798883,-9125.0,-2767.0,-2226.0,0.059,0.718,0.365,-0.59
798900,-8113.0,-4065.0,-2856.0,0.059,0.718,0.364,-0.591
798927,-9335.0,-2045.0,-2508.0,0.06,0.718,0.362,-0.592
798944,-8899.0,-3227.0,-2286.0,0.061,0.717,0.36,-0.594
798960,-8855.0,-2917.0,-2224.0,0.062,0.716,0.357,-0.597
798977,-8581.0,-3015.0,-2272.0,0.064,0.715,0.354,-0.6
798994,-8509.0,-2487.0,-2518.0,0.066,0.713,0.35,-0.604
799011,-8479.0,-2759.0,-1968.0,0.068,0.712,0.347,-0.607
799027,-8085.0,-2887.0,-2488.0,0.071,0.71,0.343,-0.611
799044,-8333.0,-2471.0,-2166.0,0.073,0.709,0.34,-0.614
799060,-8325.0,-2299.0,-1912.0,0.075,0.707,0.336,-0.617
799086,-8489.0,-2633.0,-1882.0,0.077,0.706,0.333,-0.621
799103,-8247.0,-2425.0,-1992.0,0.079,0.704,0.33,-0.624
799120,-8403.0,-2019.0,-2226.0,0.081,0.702,0.328,-0.626
799137,-8325.0,-3393.0,-2260.0,0.083,0.701,0.327,-0.628
799154,-9317.0,-2151.0,-2294.0,0.084,0.7,0.326,-0.63
799171,-9441.0,-2753.0,-2312.0,0.085,0.7,0.325,-0.63
799188,-9971.0,-3049.0,-2260.0,0.086,0.701,0.325,-0.629
799205,-10751.0,-3113.0,-2520.0,0.087,0.702,0.325,-0.628
799222,-10373.0,-3515.0,-2850.0,0.087,0.704,0.326,-0.625
799239,-10689.0,-3343.0,-3028.0,0.085,0.707,0.329,-0.62
799256,-11133.0,-3907.0,-3418.0,0.082,0.711,0.334,-0.613
799273,-12189.0,-3465.0,-2966.0,0.079,0.715,0.339,-0.606
799290,-10879.0,-3819.0,-3490.0,0.076,0.719,0.344,-0.598
799317,-11573.0,-3797.0,-3302.0,0.073,0.723,0.35,-0.591
799334,-11255.0,-3379.0,-3092.0,0.07,0.726,0.355,-0.585
799351,-10243.0,-3471.0,-3216.0,0.068,0.728,0.361,-0.58
799368,-10259.0,-3247.0,-2840.0,0.066,0.728,0.366,-0.576
799385,-9485.0,-3193.0,-3120.0,0.064,0.728,0.371,-0.573
799402,-9163.0,-2969.0,-3018.0,0.063,0.727,0.375,-0.572
799419,-9243.0,-2801.0,-2828.0,0.062,0.726,0.378,-0.572
799436,-8115.0,-3297.0,-3436.0,0.062,0.724,0.38,-0.572
799453,-7991.0,-2883.0,-3538.0,0.061,0.722,0.383,-0.573
799470,-8055.0,-2637.0,-2996.0,0.06,0.72,0.385,-0.575
799487,-8111.0,-2571.0,-3284.0,0.06,0.718,0.386,-0.577
799504,-6947.0,-2995.0,-3764.0,0.059,0.716,0.387,-0.578
799521,-6977.0,-3007.0,-3060.0,0.059,0.714,0.387,-0.58
799538,-7543.0,-2963.0,-3026.0,0.058,0.713,0.387,-0.581
799555,-7311.0,-2625.0,-3078.0,0.058,0.712,0.387,-0.583
799582,-7331.0,-2819.0,-2946.0,0.059,0.711,0.385,-0.585
799598,-7099.0,-3165.0,-3248.0,0.06,0.711,0.382,-0.587
799615,-7541.0,-2389.0,-2862.0,0.062,0.711,0.379,-0.589
799631,-7061.0,-4097.0,-2694.0,0.063,0.711,0.374,-0.592
799648,-8401.0,-2243.0,-3018.0,0.064,0.711,0.369,-0.595
799665,-7955.0,-2449.0,-3124.0,0.066,0.711,0.363,-0.598
799681,-7709.0,-2277.0,-2998.0,0.07,0.711,0.357,-0.602
799698,-7377.0,-2587.0,-3886.0,0.074,0.711,0.351,-0.605
799724,-8405.0,-1205.0,-2722.0,0.078,0.71,0.344,-0.609
799741,-6427.0,-1439.0,-3112.0,0.083,0.709,0.337,-0.614
799757,-5869.0,-2111.0,-2304.0,0.088,0.709,0.329,-0.618
799774,-5969.0,-825.0,-822.0,0.095,0.708,0.32,-0.623
799791,-3543.0,-379.0,-848.0,0.105,0.705,0.311,-0.629
799807,-1495.0,-229.0,-1214.0,0.116,0.702,0.302,-0.634
799824,27.0,57.0,-1094.0,0.127,0.7,0.296,-0.637
799840,483.0,-1201.0,-772.0,0.137,0.699,0.293,-0.638
799857,1091.0,-3737.0,710.0,0.143,0.7,0.291,-0.637
799883,179.0,-1783.0,-1044.0,0.145,0.702,0.291,-0.634
799899,-1545.0,-1803.0,-1732.0,0.148,0.703,0.293,-0.631
799915,-975.0,-115.0,-2156.0,0.148,0.704,0.297,-0.628
799931,-537.0,1979.0,-68.0,0.145,0.704,0.306,-0.625
799948,-1983.0,-1609.0,836.0,0.14,0.703,0.319,-0.62
799965,-3531.0,-4503.0,-114.0,0.13,0.703,0.329,-0.616
799982,-2885.0,1411.0,-116.0,0.113,0.706,0.337,-0.612
799998,-4977.0,1093.0,-976.0,0.106,0.706,0.349,-0.606
800025,-2577.0,-2051.0,2486.0,0.099,0.705,0.355,-0.605
800041,875.0,7237.0,-2350.0,0.093,0.705,0.361,-0.603
800057,-1489.0,-3463.0,-1498.0,0.084,0.707,0.37,-0.597
800074,-9905.0,3211.0,-2008.0,0.074,0.707,0.38,-0.591
800090,-7223.0,1217.0,-1102.0,0.072,0.707,0.387,-0.587
800107,-5971.0,-7041.0,-2910.0,0.069,0.708,0.392,-0.583
800124,-10067.0,-1619.0,-4118.0,0.066,0.709,0.397,-0.579
800140,-7385.0,-4031.0,-3496.0,0.063,0.71,0.401,-0.576
800157,-7849.0,-4809.0,-3434.0,0.06,0.71,0.405,-0.573
800184,-10553.0,-4235.0,-3222.0,0.057,0.709,0.407,-0.573
800201,-9171.0,-3759.0,-2744.0,0.055,0.706,0.409,-0.575
800217,-8555.0,-2841.0,-2752.0,0.055,0.703,0.409,-0.579
800233,-7487.0,-3579.0,-4012.0,0.056,0.701,0.407,-0.583
800250,-7033.0,-3277.0,-3868.0,0.057,0.7,0.405,-0.585
800267,-7715.0,-3343.0,-2986.0,0.058,0.699,0.404,-0.587
800283,-7885.0,-2787.0,-2962.0,0.059,0.697,0.403,-0.59
800300,-8599.0,-2941.0,-2726.0,0.061,0.695,0.401,-0.593
800326,-7813.0,-2069.0,-3260.0,0.064,0.694,0.399,-0.596
800342,-7205.0,-2939.0,-2758.0,0.066,0.693,0.397,-0.598
800358,-7461.0,-4821.0,-2474.0,0.068,0.692,0.395,-0.6
800374,-8459.0,-2109.0,-2370.0,0.068,0.691,0.393,-0.603
800390,-7895.0,-2765.0,-2482.0,0.07,0.69,0.39,-0.605
800407,-8483.0,-2739.0,-2344.0,0.072,0.689,0.387,-0.608
800424,-8423.0,-2499.0,-2188.0,0.075,0.688,0.383,-0.612
800451,-8133.0,-2491.0,-2418.0,0.079,0.686,0.38,-0.615
800468,-8875.0,-2081.0,-2030.0,0.083,0.684,0.377,-0.619
800484,-8407.0,-3305.0,-2528.0,0.087,0.682,0.374,-0.622
800501,-8915.0,-3709.0,-2566.0,0.089,0.681,0.371,-0.625
800518,-10463.0,-3049.0,-2134.0,0.091,0.68,0.369,-0.627
800535,-10887.0,-4221.0,-2228.0,0.093,0.679,0.367,-0.629
800552,-11735.0,-3795.0,-2450.0,0.095,0.678,0.365,-0.63
800568,-12133.0,-4393.0,-2334.0,0.096,0.678,0.364,-0.632
800584,-12087.0,-4811.0,-2134.0,0.097,0.677,0.365,-0.632
800600,-12137.0,-4597.0,-2202.0,0.097,0.676,0.366,-0.632
800617,-12443.0,-4695.0,-1712.0,0.096,0.675,0.367,-0.633
800644,-11419.0,-4237.0,-1906.0,0.096,0.674,0.369,-0.633
800660,-10055.0,-4297.0,-2310.0,0.095,0.673,0.372,-0.633
800676,-10671.0,-3925.0,-1572.0,0.093,0.672,0.375,-0.632
800692,-9995.0,-4257.0,-1514.0,0.091,0.672,0.379,-0.63
800708,-9477.0,-3249.0,-1952.0,0.09,0.671,0.382,-0.629
800724,-9197.0,-3657.0,-1514.0,0.088,0.672,0.385,-0.627
800750,-9271.0,-3355.0,-1516.0,0.087,0.672,0.387,-0.626
800767,-8575.0,-3533.0,-1780.0,0.086,0.672,0.389,-0.625
800783,-8575.0,-3855.0,-1426.0,0.084,0.672,0.391,-0.623
800800,-8871.0,-2717.0,-1468.0,0.083,0.671,0.393,-0.623
800817,-7939.0,-3223.0,-2026.0,0.082,0.671,0.394,-0.623
800833,-8151.0,-3705.0,-1720.0,0.081,0.671,0.395,-0.623
800850,-8051.0,-2843.0,-1544.0,0.08,0.67,0.395,-0.623
800866,-6823.0,-3631.0,-2576.0,0.079,0.67,0.395,-0.623
800883,-8347.0,-2887.0,-1872.0,0.078,0.67,0.395,-0.624
800909,-7817.0,-2955.0,-1494.0,0.078,0.67,0.395,-0.624
800925,-7763.0,-3461.0,-2086.0,0.078,0.669,0.393,-0.625
800941,-8415.0,-2921.0,-2296.0,0.08,0.669,0.39,-0.627
800957,-7903.0,-2393.0,-2034.0,0.082,0.669,0.388,-0.628
800973,-7039.0,-3753.0,-2622.0,0.085,0.67,0.385,-0.629
800989,-8201.0,-3109.0,-2610.0,0.087,0.67,0.381,-0.631
801016,-10075.0,-1953.0,-1366.0,0.09,0.671,0.377,-0.632
801032,-7823.0,-2599.0,-2650.0,0.096,0.672,0.371,-0.634
801049,-7915.0,-1631.0,-2888.0,0.102,0.672,0.363,-0.637
801066,-8279.0,-1551.0,-1568.0,0.11,0.672,0.355,-0.64
801083,-6541.0,-2367.0,-1634.0,0.119,0.672,0.348,-0.643
801099,-5523.0,-1647.0,-1190.0,0.126,0.671,0.339,-0.647
801116,-4261.0,115.0,-14.0,0.136,0.669,0.33,-0.652
801132,-2577.0,-575.0,112.0,0.147,0.666,0.322,-0.656
801151,-977.0,-303.0,-212.0,0.156,0.664,0.314,-0.66
801167,-433.0,-1117.0,-762.0,0.163,0.662,0.309,-0.663
801184,-351.0,-2233.0,-848.0,0.166,0.662,0.306,-0.664
801210,-321.0,-1747.0,-412.0,0.165,0.663,0.303,-0.664
801226,-409.0,-601.0,300.0,0.163,0.665,0.301,-0.664
801242,-1121.0,-947.0,274.0,0.16,0.665,0.303,-0.663
801258,-967.0,-1609.0,122.0,0.154,0.666,0.307,-0.662
801274,-939.0,-1363.0,342.0,0.147,0.666,0.314,-0.661
801290,-1465.0,-337.0,310.0,0.14,0.666,0.322,-0.658
801316,-2053.0,-1277.0,72.0,0.133,0.666,0.333,-0.655
801333,-3217.0,-433.0,-180.0,0.124,0.666,0.342,-0.652
801350,-4027.0,-2033.0,-1530.0,0.117,0.666,0.349,-0.648
801367,-6191.0,-1889.0,-1176.0,0.109,0.668,0.356,-0.645
801384,-7205.0,-1387.0,-1518.0,0.103,0.669,0.362,-0.641
801400,-8015.0,-2887.0,-2120.0,0.097,0.669,0.367,-0.638
801416,-8391.0,-3069.0,-2280.0,0.092,0.67,0.373,-0.636
801433,-8555.0,-2633.0,-1912.0,0.088,0.67,0.377,-0.634
801450,-9265.0,-2843.0,-1904.0,0.085,0.669,0.38,-0.633
801476,-9009.0,-3461.0,-2528.0,0.084,0.669,0.383,-0.632
801492,-7625.0,-3609.0,-2146.0,0.083,0.668,0.386,-0.631
801508,-8441.0,-3469.0,-2472.0,0.081,0.668,0.388,-0.629
801524,-10427.0,-2913.0,-1560.0,0.08,0.669,0.389,-0.629
801540,-8835.0,-3055.0,-1908.0,0.081,0.669,0.389,-0.628
801556,-8497.0,-3729.0,-2484.0,0.082,0.669,0.388,-0.628
801583,-9167.0,-3361.0,-2044.0,0.082,0.67,0.386,-0.628
801599,-8561.0,-3915.0,-2506.0,0.082,0.671,0.386,-0.628
801616,-10049.0,-3105.0,-1964.0,0.082,0.672,0.385,-0.627
801632,-10011.0,-3997.0,-1280.0,0.084,0.673,0.383,-0.627
801648,-9419.0,-3255.0,-2166.0,0.086,0.673,0.379,-0.629
801665,-8801.0,-3845.0,-2430.0,0.088,0.674,0.376,-0.63
801682,-9187.0,-2921.0,-1804.0,0.09,0.674,0.373,-0.631
801699,-9277.0,-3389.0,-1780.0,0.092,0.674,0.371,-0.633
801715,-8849.0,-3637.0,-2148.0,0.094,0.673,0.368,-0.634
801732,-9869.0,-2895.0,-1434.0,0.095,0.673,0.366,-0.636
801759,-9731.0,-3495.0,-1892.0,0.098,0.672,0.364,-0.638
801775,-10031.0,-3549.0,-2092.0,0.1,0.672,0.361,-0.639
801791,-10607.0,-3805.0,-1680.0,0.102,0.671,0.359,-0.641
801807,-11161.0,-3579.0,-1896.0,0.104,0.67,0.358,-0.642
801823,-10979.0,-4429.0,-2132.0,0.105,0.67,0.358,-0.642
801839,-11925.0,-3747.0,-1644.0,0.106,0.669,0.358,-0.643
801856,-11913.0,-4025.0,-2180.0,0.107,0.669,0.358,-0.643
801883,-12019.0,-3821.0,-2200.0,0.107,0.669,0.36,-0.642
801900,-11351.0,-3659.0,-2614.0,0.107,0.67,0.362,-0.639
801917,-11257.0,-4095.0,-2848.0,0.105,0.673,0.365,-0.635
801934,-11221.0,-3917.0,-2496.0,0.103,0.676,0.369,-0.629
801950,-11161.0,-3473.0,-2126.0,0.1,0.68,0.372,-0.624
801967,-10787.0,-3885.0,-2178.0,0.097,0.683,0.376,-0.619
801983,-10091.0,-3781.0,-1968.0,0.094,0.685,0.38,-0.615
801999,-9857.0,-3351.0,-1424.0,0.091,0.686,0.383,-0.612
802026,-9175.0,-3543.0,-1794.0,0.089,0.686,0.385,-0.61
802042,-9213.0,-2999.0,-1290.0,0.087,0.686,0.387,-0.61
802058,-8055.0,-3335.0,-1664.0,0.087,0.685,0.387,-0.611
802074,-7797.0,-3171.0,-1922.0,0.086,0.684,0.387,-0.613
802090,-7371.0,-2687.0,-1930.0,0.085,0.682,0.387,-0.615
802106,-7499.0,-2591.0,-1646.0,0.085,0.68,0.385,-0.617
802122,-7615.0,-3297.0,-1326.0,0.086,0.679,0.384,-0.62
802148,-7675.0,-2869.0,-1192.0,0.087,0.677,0.381,-0.624
802164,-7231.0,-2921.0,-1380.0,0.089,0.674,0.376,-0.629
802180,-6959.0,-2535.0,-1538.0,0.091,0.672,0.372,-0.635
802197,-6957.0,-2971.0,-1422.0,0.092,0.669,0.367,-0.64
802214,-7423.0,-2873.0,-1778.0,0.094,0.668,0.361,-0.644
802231,-7719.0,-1171.0,-1820.0,0.098,0.666,0.355,-0.648
802247,-7269.0,-2167.0,-1598.0,0.104,0.665,0.35,-0.652
802273,-7425.0,-3909.0,-2238.0,0.109,0.664,0.344,-0.655
802289,-6523.0,-773.0,-2640.0,0.113,0.663,0.339,-0.658
802306,-7241.0,-2203.0,-1534.0,0.119,0.662,0.334,-0.66
802322,-7567.0,-1695.0,-816.0,0.126,0.66,0.33,-0.663
802339,-7557.0,-1951.0,-1030.0,0.133,0.658,0.324,-0.666
802356,-6597.0,-1807.0,-516.0,0.142,0.655,0.318,-0.67
802373,-5497.0,-1719.0,-8.0,0.15,0.652,0.311,-0.675
802389,-5371.0,-7.0,122.0,0.161,0.648,0.304,-0.679
802406,-3833.0,249.0,594.0,0.174,0.644,0.298,-0.683
802423,-2205.0,379.0,246.0,0.188,0.639,0.294,-0.685
802449,-1083.0,-1663.0,-1252.0,0.199,0.637,0.293,-0.685
802465,-453.0,-2365.0,-1380.0,0.205,0.637,0.292,-0.684
802482,5.0,-2207.0,-1570.0,0.204,0.64,0.29,-0.682
802498,-915.0,-2567.0,-1172.0,0.198,0.645,0.288,-0.68
802514,-2171.0,-1911.0,-154.0,0.187,0.651,0.284,-0.679
802531,-2103.0,577.0,456.0,0.175,0.657,0.283,-0.677
802548,-3347.0,323.0,1144.0,0.164,0.661,0.286,-0.674
802565,-3947.0,-445.0,1804.0,0.155,0.663,0.292,-0.672
802582,-3255.0,-687.0,942.0,0.147,0.663,0.3,-0.67
802609,-2959.0,-1641.0,-866.0,0.137,0.663,0.309,-0.668
802625,-5163.0,-3405.0,-974.0,0.127,0.665,0.317,-0.664
802641,-8149.0,2145.0,-194.0,0.116,0.666,0.325,-0.662
802657,-7275.0,-3171.0,-1190.0,0.111,0.666,0.332,-0.659
802673,-9435.0,-1871.0,-616.0,0.106,0.665,0.337,-0.658
802689,-9077.0,-1829.0,-774.0,0.103,0.664,0.341,-0.657
802706,-7697.0,-2833.0,-1306.0,0.102,0.664,0.345,-0.656
802732,-7841.0,-2611.0,-1342.0,0.099,0.663,0.348,-0.655
802749,-8159.0,-3135.0,-1124.0,0.097,0.663,0.35,-0.654
802766,-8761.0,-1895.0,-816.0,0.095,0.663,0.352,-0.654
802783,-7611.0,-3529.0,-1768.0,0.094,0.662,0.354,-0.653
802800,-8809.0,-2281.0,-1714.0,0.093,0.662,0.355,-0.653
802816,-9237.0,-2621.0,-1258.0,0.092,0.663,0.356,-0.652
802833,-9503.0,-3135.0,-1460.0,0.093,0.663,0.356,-0.652
802850,-8773.0,-3217.0,-1756.0,0.094,0.663,0.356,-0.652
802866,-9835.0,-2969.0,-1070.0,0.095,0.663,0.355,-0.652
802892,-9627.0,-3545.0,-1102.0,0.096,0.663,0.354,-0.653
802908,-8763.0,-3777.0,-1456.0,0.096,0.662,0.353,-0.654
802924,-9573.0,-2849.0,-1372.0,0.097,0.662,0.351,-0.655
802940,-8787.0,-3037.0,-1542.0,0.099,0.661,0.349,-0.657
802956,-9281.0,-2665.0,-1220.0,0.101,0.661,0.346,-0.658
802982,-8991.0,-2933.0,-1164.0,0.103,0.66,0.344,-0.66
802998,-8443.0,-3309.0,-1396.0,0.106,0.659,0.341,-0.662
803014,-9717.0,-2601.0,-1170.0,0.108,0.658,0.339,-0.663
803030,-8719.0,-3909.0,-1830.0,0.109,0.658,0.338,-0.664
803046,-10515.0,-2755.0,-1336.0,0.111,0.659,0.336,-0.664
803063,-10917.0,-3533.0,-1302.0,0.112,0.659,0.335,-0.664
803080,-11527.0,-4035.0,-870.0,0.114,0.659,0.333,-0.664
803096,-11845.0,-3547.0,-1236.0,0.115,0.659,0.332,-0.665
803113,-12219.0,-3721.0,-962.0,0.117,0.659,0.333,-0.665
803139,-11907.0,-4385.0,-766.0,0.118,0.658,0.333,-0.665
803156,-12457.0,-3971.0,-712.0,0.118,0.658,0.334,-0.665
803172,-11845.0,-3947.0,-942.0,0.117,0.657,0.336,-0.664
803189,-11439.0,-3709.0,-766.0,0.115,0.657,0.339,-0.664
803205,-10899.0,-3683.0,-1150.0,0.113,0.657,0.341,-0.662
803222,-10461.0,-3943.0,-1524.0,0.109,0.659,0.345,-0.66
803239,-10513.0,-3625.0,-1398.0,0.105,0.661,0.349,-0.656
803256,-10291.0,-3607.0,-1688.0,0.101,0.663,0.354,-0.652
803272,-9981.0,-3597.0,-1670.0,0.097,0.665,0.357,-0.648
803299,-10037.0,-3327.0,-1408.0,0.094,0.668,0.361,-0.644
803316,-9519.0,-3713.0,-1476.0,0.092,0.67,0.364,-0.641
803332,-9049.0,-3393.0,-1296.0,0.091,0.671,0.366,-0.639
803349,-9077.0,-3115.0,-1166.0,0.09,0.672,0.367,-0.637
803366,-8549.0,-3257.0,-1816.0,0.091,0.672,0.367,-0.637
803383,-8329.0,-2799.0,-1406.0,0.092,0.672,0.367,-0.637
803400,-7785.0,-3061.0,-1380.0,0.093,0.671,0.365,-0.639
803416,-8185.0,-2383.0,-1488.0,0.095,0.67,0.363,-0.641
803433,-7781.0,-2477.0,-1244.0,0.097,0.668,0.361,-0.643
803450,-6701.0,-3323.0,-1718.0,0.098,0.667,0.359,-0.645
803467,-7667.0,-1949.0,-1408.0,0.1,0.666,0.357,-0.648
803494,-7893.0,-2369.0,-1008.0,0.102,0.664,0.354,-0.65
803510,-7891.0,-2475.0,-1264.0,0.104,0.663,0.35,-0.653
803526,-6739.0,-2335.0,-1528.0,0.108,0.662,0.347,-0.656
803542,-7859.0,-1889.0,-1144.0,0.112,0.661,0.342,-0.658
803558,-7503.0,-3107.0,-1432.0,0.116,0.661,0.338,-0.66
803574,-7067.0,-1305.0,-1348.0,0.12,0.66,0.333,-0.663
803600,-7075.0,-2741.0,-1246.0,0.125,0.66,0.328,-0.665
803617,-7621.0,-183.0,-894.0,0.132,0.66,0.32,-0.667
803634,-6337.0,-1511.0,-838.0,0.141,0.659,0.312,-0.67
803651,-4753.0,-351.0,-676.0,0.151,0.658,0.303,-0.673
803668,-3211.0,-447.0,-510.0,0.162,0.658,0.295,-0.674
803685,-1501.0,1125.0,-484.0,0.172,0.659,0.288,-0.673
803702,-883.0,2465.0,418.0,0.185,0.662,0.286,-0.668
803719,-561.0,1469.0,224.0,0.198,0.666,0.287,-0.659
803736,-553.0,1021.0,-2298.0,0.206,0.671,0.29,-0.651
803753,-615.0,-1679.0,-1338.0,0.209,0.675,0.294,-0.643
803770,-2113.0,-225.0,-2738.0,0.199,0.68,0.295,-0.641
803787,-1187.0,-2649.0,-2086.0,0.18,0.683,0.295,-0.644
803804,-6561.0,-1503.0,-3546.0,0.156,0.685,0.294,-0.648
803831,-8993.0,-5175.0,-1556.0,0.142,0.684,0.295,-0.652
803847,-4401.0,-12167.0,12686.0,0.135,0.691,0.302,-0.642
803864,1543.0,5807.0,-3152.0,0.114,0.7,0.308,-0.634
803880,-5011.0,3749.0,-474.0,0.104,0.701,0.32,-0.629
803896,-3239.0,-1677.0,-2324.0,0.105,0.695,0.328,-0.631
803912,-7099.0,-4431.0,-4008.0,0.1,0.693,0.331,-0.633
803929,-6549.0,-981.0,-714.0,0.097,0.69,0.338,-0.633
803946,-9167.0,-4045.0,-1356.0,0.092,0.686,0.343,-0.635
803963,-10789.0,-707.0,-2190.0,0.09,0.681,0.348,-0.638
803989,-8379.0,-2093.0,-564.0,0.088,0.676,0.353,-0.641
804005,-10285.0,-3945.0,-1864.0,0.086,0.67,0.354,-0.647
804022,-10647.0,-3209.0,-3020.0,0.086,0.665,0.353,-0.653
804038,-8815.0,-2231.0,-1616.0,0.086,0.659,0.354,-0.658
804055,-7447.0,-4649.0,-1666.0,0.085,0.654,0.354,-0.663
804072,-9497.0,-2675.0,-928.0,0.085,0.651,0.353,-0.667
804088,-8541.0,-2241.0,18.0,0.086,0.648,0.351,-0.671
804105,-7329.0,-5025.0,-536.0,0.087,0.646,0.349,-0.674
804122,-7861.0,-2859.0,-916.0,0.088,0.645,0.347,-0.675
804148,-8229.0,-3487.0,104.0,0.088,0.645,0.345,-0.676
804164,-8243.0,-3291.0,-50.0,0.089,0.645,0.343,-0.677
804181,-8245.0,-2733.0,-132.0,0.09,0.646,0.341,-0.677
804197,-8591.0,-3309.0,316.0,0.091,0.647,0.34,-0.677
804214,-8769.0,-3473.0,190.0,0.092,0.648,0.338,-0.677
804231,-8905.0,-3255.0,328.0,0.094,0.648,0.336,-0.677
804247,-9545.0,-3493.0,478.0,0.095,0.649,0.334,-0.677
804274,-9223.0,-3209.0,-76.0,0.097,0.648,0.332,-0.678
804290,-8795.0,-3405.0,-40.0,0.099,0.648,0.33,-0.679
804306,-9359.0,-2779.0,86.0,0.101,0.649,0.329,-0.679
804322,-9415.0,-3661.0,-26.0,0.103,0.649,0.328,-0.679
804338,-9959.0,-3039.0,98.0,0.104,0.65,0.327,-0.678
804354,-11417.0,-4431.0,314.0,0.106,0.651,0.326,-0.677
804371,-11207.0,-3565.0,-468.0,0.107,0.652,0.326,-0.676
804397,-11423.0,-4415.0,-744.0,0.108,0.653,0.326,-0.674
804413,-12507.0,-3965.0,-124.0,0.108,0.655,0.328,-0.672
804429,-11027.0,-4581.0,-1174.0,0.107,0.657,0.331,-0.669
804445,-11415.0,-4035.0,-1148.0,0.106,0.659,0.335,-0.665
804461,-11903.0,-3959.0,-850.0,0.105,0.661,0.339,-0.662
804477,-10749.0,-4303.0,-1164.0,0.104,0.663,0.343,-0.658
804503,-10627.0,-4235.0,-1580.0,0.102,0.664,0.348,-0.654
804519,-10805.0,-3755.0,-1108.0,0.1,0.666,0.352,-0.65
804535,-9511.0,-3793.0,-1952.0,0.099,0.668,0.358,-0.646
804552,-9777.0,-3781.0,-1074.0,0.097,0.669,0.363,-0.642
804568,-9757.0,-3483.0,-824.0,0.096,0.669,0.366,-0.639
804585,-8959.0,-3617.0,-1380.0,0.095,0.669,0.37,-0.637
804602,-8131.0,-3517.0,-1162.0,0.094,0.669,0.373,-0.636
804618,-8767.0,-3359.0,-488.0,0.093,0.668,0.376,-0.636
804635,-8223.0,-2637.0,-1230.0,0.093,0.666,0.378,-0.636
804662,-7607.0,-2885.0,-952.0,0.094,0.664,0.379,-0.637
804678,-7773.0,-3387.0,-632.0,0.095,0.663,0.379,-0.639
804695,-7189.0,-2205.0,-1836.0,0.095,0.661,0.378,-0.641
804711,-6475.0,-2753.0,-1910.0,0.096,0.66,0.379,-0.641
804728,-7083.0,-2093.0,-2106.0,0.096,0.66,0.381,-0.64
804744,-7663.0,-3667.0,-1480.0,0.097,0.661,0.383,-0.638
804761,-8637.0,-2755.0,-666.0,0.098,0.661,0.384,-0.637
804777,-8517.0,-3509.0,-870.0,0.099,0.661,0.383,-0.638
804803,-8169.0,-3287.0,-810.0,0.102,0.66,0.381,-0.64
804819,-7197.0,-3679.0,-1220.0,0.102,0.658,0.379,-0.642
804835,-7049.0,-2395.0,-1868.0,0.103,0.658,0.376,-0.644
804851,-7303.0,-3093.0,-1916.0,0.105,0.658,0.374,-0.645
804867,-8073.0,-2655.0,-206.0,0.107,0.658,0.371,-0.647
804883,-7057.0,-3315.0,-1390.0,0.11,0.657,0.367,-0.649
804909,-7177.0,-2775.0,-1344.0,0.112,0.656,0.361,-0.653
804926,-6743.0,-1233.0,-1574.0,0.116,0.657,0.356,-0.654
804942,-7347.0,-2305.0,-1160.0,0.121,0.658,0.35,-0.656
804959,-6853.0,-1705.0,-986.0,0.127,0.658,0.344,-0.657
804975,-6197.0,-1771.0,-936.0,0.135,0.659,0.336,-0.659
804992,-5833.0,57.0,-1182.0,0.144,0.658,0.329,-0.662
805009,-4609.0,-363.0,-544.0,0.155,0.657,0.322,-0.664
805026,-2977.0,-1515.0,-454.0,0.167,0.655,0.317,-0.666
805052,-1975.0,-1251.0,-308.0,0.176,0.653,0.313,-0.667
805068,-851.0,-885.0,-474.0,0.184,0.652,0.31,-0.667
805085,-197.0,-1895.0,-886.0,0.187,0.653,0.309,-0.665
805102,-487.0,-2793.0,-992.0,0.185,0.657,0.309,-0.663
805118,-1291.0,-1469.0,-392.0,0.179,0.662,0.309,-0.659
805135,-2421.0,-45.0,118.0,0.172,0.666,0.313,-0.655
805151,-2555.0,33.0,360.0,0.165,0.669,0.319,-0.65
805171,-2067.0,-1049.0,494.0,0.158,0.672,0.327,-0.645
805188,-1653.0,-885.0,-694.0,0.151,0.675,0.336,-0.639
805204,-3367.0,-1023.0,-1492.0,0.143,0.679,0.343,-0.633
805220,-5313.0,-1325.0,-1116.0,0.134,0.683,0.352,-0.626
805246,-5137.0,-2631.0,-1820.0,0.125,0.688,0.362,-0.617
805262,-7901.0,-1535.0,-1884.0,0.117,0.692,0.371,-0.609
805278,-8257.0,-1035.0,-1880.0,0.111,0.695,0.379,-0.601
805294,-7825.0,-3195.0,-2800.0,0.107,0.697,0.386,-0.595
805310,-8705.0,-2441.0,-3284.0,0.104,0.699,0.392,-0.589
805327,-8037.0,-3849.0,-3200.0,0.102,0.701,0.4,-0.582
805343,-8861.0,-3371.0,-3322.0,0.1,0.702,0.405,-0.577
805370,-9367.0,-3555.0,-2930.0,0.099,0.704,0.408,-0.573
805386,-8817.0,-2779.0,-3112.0,0.099,0.705,0.41,-0.57
805403,-8163.0,-4199.0,-3210.0,0.1,0.706,0.41,-0.569
805419,-8003.0,-3953.0,-3538.0,0.099,0.706,0.411,-0.568
805435,-8659.0,-2435.0,-3064.0,0.099,0.706,0.412,-0.568
805452,-8161.0,-3227.0,-3220.0,0.1,0.705,0.412,-0.568
805468,-8065.0,-3109.0,-3576.0,0.101,0.705,0.412,-0.569
805485,-8507.0,-2701.0,-3014.0,0.102,0.704,0.412,-0.57
805511,-8347.0,-2809.0,-3270.0,0.103,0.703,0.411,-0.571
805527,-8481.0,-2839.0,-3462.0,0.105,0.702,0.411,-0.573
805543,-8157.0,-3353.0,-3558.0,0.107,0.702,0.409,-0.573
805559,-9327.0,-2675.0,-2860.0,0.108,0.701,0.408,-0.574
805575,-8987.0,-3247.0,-3090.0,0.11,0.701,0.405,-0.576
805591,-8789.0,-2757.0,-2742.0,0.113,0.701,0.402,-0.579
805618,-8347.0,-3417.0,-2858.0,0.115,0.7,0.398,-0.582
805635,-8331.0,-2591.0,-2968.0,0.117,0.698,0.396,-0.584
805652,-8089.0,-3225.0,-2746.0,0.119,0.697,0.394,-0.586
805668,-7963.0,-2611.0,-2836.0,0.121,0.696,0.393,-0.589
805685,-8583.0,-2795.0,-2246.0,0.123,0.695,0.391,-0.591
805701,-8341.0,-2833.0,-2340.0,0.125,0.694,0.389,-0.593
805717,-8245.0,-2707.0,-2218.0,0.128,0.693,0.386,-0.596
805734,-8257.0,-2587.0,-2446.0,0.13,0.692,0.383,-0.598
805751,-8455.0,-3131.0,-2078.0,0.132,0.69,0.381,-0.6
805778,-8349.0,-2401.0,-2230.0,0.135,0.689,0.379,-0.602
805794,-8611.0,-2797.0,-1980.0,0.137,0.689,0.378,-0.604
805810,-8851.0,-2899.0,-1916.0,0.138,0.688,0.376,-0.605
805826,-10033.0,-3109.0,-1734.0,0.14,0.687,0.376,-0.606
805843,-10137.0,-3599.0,-1854.0,0.142,0.686,0.375,-0.607
805859,-10167.0,-4229.0,-1886.0,0.143,0.685,0.375,-0.608
805876,-11531.0,-4009.0,-1536.0,0.143,0.684,0.376,-0.608
805892,-11135.0,-4059.0,-1630.0,0.143,0.683,0.377,-0.609
805918,-10437.0,-3749.0,-1700.0,0.142,0.682,0.379,-0.609
805935,-9935.0,-3753.0,-1816.0,0.142,0.681,0.381,-0.61
805951,-9795.0,-3501.0,-1760.0,0.141,0.68,0.383,-0.61
805968,-8791.0,-3223.0,-1802.0,0.139,0.68,0.385,-0.609
805984,-8819.0,-3305.0,-1824.0,0.137,0.68,0.388,-0.607
806001,-9073.0,-2941.0,-1648.0,0.135,0.68,0.391,-0.606
806018,-8399.0,-2763.0,-1686.0,0.133,0.681,0.393,-0.604
806034,-8479.0,-2829.0,-1872.0,0.132,0.681,0.395,-0.602
806051,-8539.0,-2783.0,-1992.0,0.13,0.682,0.398,-0.599
806078,-7963.0,-2727.0,-1898.0,0.129,0.683,0.401,-0.597
806094,-8343.0,-2999.0,-1862.0,0.127,0.684,0.403,-0.594
806110,-8547.0,-2701.0,-2080.0,0.125,0.685,0.405,-0.592
806126,-8043.0,-3067.0,-2144.0,0.124,0.686,0.407,-0.59
806142,-8411.0,-2695.0,-2350.0,0.122,0.687,0.409,-0.588
806158,-8045.0,-3339.0,-2358.0,0.12,0.687,0.411,-0.587
806184,-8497.0,-2931.0,-2178.0,0.118,0.687,0.413,-0.586
806201,-8987.0,-2743.0,-2376.0,0.117,0.687,0.414,-0.585
806218,-8417.0,-2879.0,-2652.0,0.116,0.688,0.415,-0.585
806234,-7845.0,-3777.0,-2746.0,0.115,0.688,0.414,-0.585
806251,-8093.0,-3367.0,-2602.0,0.113,0.689,0.413,-0.585
806267,-8145.0,-2955.0,-2660.0,0.112,0.689,0.412,-0.586
806284,-7609.0,-2839.0,-2774.0,0.111,0.689,0.411,-0.586
806301,-7545.0,-3225.0,-2296.0,0.11,0.689,0.411,-0.587
806317,-7779.0,-3649.0,-2112.0,0.108,0.689,0.41,-0.588
806344,-8175.0,-2945.0,-1844.0,0.108,0.689,0.408,-0.59
806360,-7885.0,-2455.0,-2108.0,0.108,0.688,0.405,-0.593
806376,-7215.0,-3613.0,-1952.0,0.109,0.687,0.4,-0.596
806393,-7103.0,-3209.0,-2348.0,0.11,0.687,0.397,-0.599
806409,-7803.0,-2173.0,-2274.0,0.111,0.686,0.393,-0.602
806425,-7129.0,-2957.0,-1916.0,0.113,0.686,0.388,-0.605
806442,-6669.0,-3157.0,-2588.0,0.114,0.686,0.384,-0.607
806468,-7483.0,-2555.0,-2236.0,0.116,0.687,0.38,-0.608
806484,-7409.0,-2579.0,-1870.0,0.117,0.688,0.377,-0.609
806501,-7207.0,-2319.0,-2210.0,0.119,0.689,0.373,-0.61
806517,-6703.0,-2135.0,-2770.0,0.12,0.691,0.369,-0.61
806534,-6787.0,-1747.0,-2706.0,0.121,0.695,0.365,-0.608
806550,-7305.0,-563.0,-2652.0,0.124,0.698,0.36,-0.606
806567,-6093.0,-2517.0,-2820.0,0.127,0.702,0.356,-0.604
806584,-8481.0,-1733.0,-1920.0,0.128,0.706,0.351,-0.602
806601,-8591.0,1383.0,-1016.0,0.133,0.708,0.343,-0.602
806627,-6971.0,-1481.0,-1038.0,0.142,0.708,0.336,-0.604
806643,-5619.0,-2973.0,-716.0,0.151,0.707,0.328,-0.608
806659,-4177.0,277.0,-534.0,0.162,0.704,0.32,-0.613
806675,-2737.0,-1125.0,-350.0,0.173,0.7,0.313,-0.618
806691,-2103.0,-1287.0,-564.0,0.183,0.696,0.307,-0.623
806708,-705.0,-561.0,-1520.0,0.19,0.692,0.304,-0.626
806724,-783.0,-1339.0,-1696.0,0.192,0.691,0.303,-0.628
806751,-1443.0,-1835.0,-904.0,0.191,0.69,0.306,-0.628
806767,-1011.0,-1099.0,-942.0,0.186,0.69,0.311,-0.627
806784,-1199.0,-891.0,-990.0,0.179,0.691,0.317,-0.625
806801,-1093.0,-1739.0,-1022.0,0.169,0.692,0.325,-0.622
806817,-2331.0,-2307.0,-840.0,0.156,0.694,0.332,-0.619
806833,-2713.0,-659.0,-1468.0,0.143,0.698,0.34,-0.614
806850,-3915.0,129.0,-1968.0,0.13,0.7,0.349,-0.609
806867,-5995.0,-169.0,-1788.0,0.119,0.703,0.359,-0.602
806883,-5823.0,-2515.0,-1762.0,0.11,0.705,0.371,-0.595
806910,-8763.0,-1641.0,-1942.0,0.102,0.705,0.381,-0.589
806927,-8429.0,-1217.0,-2428.0,0.097,0.705,0.39,-0.585
806943,-8069.0,-2159.0,-2642.0,0.095,0.704,0.397,-0.581
806960,-8083.0,-4791.0,-2738.0,0.094,0.703,0.405,-0.577
806977,-7979.0,-3267.0,-2718.0,0.092,0.702,0.411,-0.575
806994,-8997.0,-2325.0,-3100.0,0.091,0.702,0.416,-0.572
807010,-8943.0,-3353.0,-3062.0,0.091,0.701,0.419,-0.569
807026,-8065.0,-4405.0,-3058.0,0.091,0.701,0.423,-0.567
807052,-8575.0,-3919.0,-2910.0,0.091,0.701,0.425,-0.566
807068,-9243.0,-2917.0,-2882.0,0.091,0.7,0.428,-0.565
807084,-9463.0,-3579.0,-3024.0,0.092,0.699,0.428,-0.565
807100,-8163.0,-3545.0,-3350.0,0.094,0.699,0.428,-0.565
807117,-7515.0,-4955.0,-3228.0,0.094,0.699,0.428,-0.565
807134,-8757.0,-2857.0,-3220.0,0.094,0.7,0.427,-0.565
807151,-8013.0,-3751.0,-2838.0,0.095,0.7,0.427,-0.564
807170,-8619.0,-3347.0,-2654.0,0.095,0.701,0.426,-0.565
807186,-8217.0,-3479.0,-2764.0,0.096,0.701,0.425,-0.565
807212,-7239.0,-4231.0,-3160.0,0.097,0.701,0.424,-0.566
807229,-8203.0,-3213.0,-2898.0,0.098,0.701,0.422,-0.567
807246,-7915.0,-3843.0,-3214.0,0.098,0.702,0.42,-0.568
807262,-8537.0,-3223.0,-2594.0,0.099,0.701,0.418,-0.569
807278,-8521.0,-3493.0,-2480.0,0.102,0.701,0.415,-0.571
807295,-8689.0,-3727.0,-2536.0,0.105,0.699,0.412,-0.575
807311,-8175.0,-3411.0,-2358.0,0.11,0.696,0.408,-0.58
807328,-8183.0,-3623.0,-2208.0,0.114,0.693,0.404,-0.586
807344,-8083.0,-3427.0,-2244.0,0.118,0.689,0.4,-0.593
807361,-8339.0,-2801.0,-1890.0,0.122,0.685,0.396,-0.599
807388,-8389.0,-3017.0,-1676.0,0.127,0.681,0.393,-0.605
807404,-8477.0,-2739.0,-1792.0,0.132,0.676,0.389,-0.612
807420,-8155.0,-3121.0,-2158.0,0.137,0.672,0.387,-0.616
807436,-8451.0,-4343.0,-2202.0,0.141,0.669,0.385,-0.62
807453,-10777.0,-3783.0,-1760.0,0.144,0.668,0.384,-0.621
807470,-10651.0,-4425.0,-1674.0,0.146,0.668,0.384,-0.621
807487,-11117.0,-4771.0,-1888.0,0.148,0.668,0.386,-0.619
807503,-12241.0,-4589.0,-1246.0,0.148,0.668,0.388,-0.617
807530,-10677.0,-4093.0,-1726.0,0.148,0.669,0.39,-0.615
807547,-9565.0,-3801.0,-2014.0,0.147,0.67,0.393,-0.612
807564,-9461.0,-4043.0,-1600.0,0.146,0.671,0.396,-0.609
807581,-8979.0,-3067.0,-1764.0,0.144,0.673,0.4,-0.606
807598,-8709.0,-3107.0,-1990.0,0.142,0.674,0.404,-0.602
807615,-9035.0,-2941.0,-1718.0,0.14,0.675,0.407,-0.599
807632,-8191.0,-3181.0,-2168.0,0.138,0.677,0.41,-0.596
807649,-8429.0,-2555.0,-2138.0,0.137,0.678,0.413,-0.592
807666,-8583.0,-2777.0,-1772.0,0.135,0.68,0.416,-0.589
807683,-8157.0,-2819.0,-2074.0,0.133,0.681,0.419,-0.586
807700,-7783.0,-2807.0,-2060.0,0.131,0.682,0.422,-0.583
807718,-8331.0,-2769.0,-1824.0,0.129,0.682,0.425,-0.581
807735,-7501.0,-3381.0,-2252.0,0.127,0.683,0.428,-0.579
807752,-8039.0,-2369.0,-2168.0,0.124,0.683,0.431,-0.577
807769,-8301.0,-2823.0,-1808.0,0.122,0.683,0.433,-0.575
807786,-7917.0,-2881.0,-2204.0,0.12,0.683,0.435,-0.575
807813,-7379.0,-3051.0,-2470.0,0.119,0.682,0.436,-0.574
807830,-7669.0,-3099.0,-1998.0,0.118,0.682,0.438,-0.574
807847,-7599.0,-2751.0,-2548.0,0.117,0.682,0.438,-0.574
807864,-7547.0,-2871.0,-2544.0,0.116,0.682,0.439,-0.573
807881,-7523.0,-3259.0,-2312.0,0.115,0.682,0.439,-0.574
807898,-7943.0,-3259.0,-2268.0,0.116,0.682,0.439,-0.574
807915,-7351.0,-2937.0,-2484.0,0.116,0.681,0.438,-0.575
807931,-7211.0,-3189.0,-2354.0,0.116,0.682,0.437,-0.576
807948,-7529.0,-3261.0,-2356.0,0.116,0.682,0.436,-0.576
807965,-7689.0,-3087.0,-2478.0,0.116,0.682,0.435,-0.576
807982,-8063.0,-3141.0,-2218.0,0.117,0.682,0.433,-0.577
807999,-7821.0,-3087.0,-2330.0,0.119,0.683,0.431,-0.578
808016,-7021.0,-3953.0,-2578.0,0.119,0.683,0.429,-0.579
808043,-7577.0,-2859.0,-2532.0,0.12,0.683,0.428,-0.579
808059,-8019.0,-2461.0,-2380.0,0.12,0.684,0.427,-0.579
808075,-8041.0,-3627.0,-2038.0,0.122,0.685,0.425,-0.58
808092,-8145.0,-3309.0,-1932.0,0.123,0.685,0.422,-0.581
808108,-7317.0,-4101.0,-2156.0,0.123,0.685,0.419,-0.583
808124,-7197.0,-2207.0,-2058.0,0.124,0.685,0.416,-0.585
808141,-6775.0,-2669.0,-2426.0,0.124,0.685,0.414,-0.587
808167,-7695.0,-2121.0,-2274.0,0.126,0.685,0.411,-0.588
808184,-7181.0,-1717.0,-1774.0,0.129,0.686,0.407,-0.59
808201,-6535.0,-2927.0,-2108.0,0.132,0.686,0.403,-0.591
808218,-6825.0,-1877.0,-2770.0,0.135,0.688,0.397,-0.593
808235,-7001.0,-1815.0,-2188.0,0.139,0.689,0.392,-0.594
808252,-7285.0,-2355.0,-1744.0,0.143,0.69,0.386,-0.595
808269,-7323.0,-2291.0,-1570.0,0.149,0.691,0.379,-0.597
808286,-7023.0,-1573.0,-1430.0,0.155,0.691,0.371,-0.6
808303,-6633.0,-2397.0,-1598.0,0.163,0.69,0.364,-0.604
808320,-6069.0,-1285.0,-1708.0,0.169,0.689,0.356,-0.608
808336,-5777.0,-927.0,-1398.0,0.178,0.688,0.348,-0.611
808353,-5029.0,-1491.0,-1562.0,0.186,0.687,0.341,-0.615
808370,-3851.0,-1175.0,-1324.0,0.193,0.685,0.335,-0.617
808396,-2685.0,-1581.0,-1358.0,0.198,0.685,0.331,-0.619
808413,-2295.0,-1415.0,-1024.0,0.2,0.685,0.328,-0.619
808430,-1941.0,-1203.0,-994.0,0.199,0.686,0.327,-0.618
808446,-1679.0,-1363.0,-864.0,0.196,0.688,0.329,-0.617
808463,-1771.0,-1129.0,-454.0,0.191,0.69,0.333,-0.614
808480,-1597.0,-1883.0,-454.0,0.184,0.691,0.338,-0.611
808496,-1727.0,-1127.0,-866.0,0.176,0.693,0.345,-0.608
808513,-2595.0,-587.0,-602.0,0.167,0.695,0.353,-0.604
808530,-3447.0,131.0,-812.0,0.16,0.696,0.361,-0.599
808556,-3837.0,-2153.0,-1328.0,0.153,0.698,0.37,-0.594
808572,-3905.0,-1485.0,-2010.0,0.146,0.698,0.378,-0.59
808588,-5021.0,-1625.0,-2002.0,0.138,0.699,0.386,-0.586
808604,-7627.0,-1057.0,-2372.0,0.133,0.699,0.393,-0.583
808621,-7341.0,-475.0,-2128.0,0.13,0.698,0.4,-0.58
808637,-5991.0,-4201.0,-2360.0,0.126,0.697,0.408,-0.577
808663,-7853.0,-3255.0,-2944.0,0.122,0.695,0.415,-0.574
808680,-8307.0,-1625.0,-2756.0,0.12,0.694,0.421,-0.572
808697,-8769.0,-2651.0,-2192.0,0.119,0.692,0.427,-0.57
808713,-8703.0,-3639.0,-2982.0,0.118,0.69,0.432,-0.568
808729,-8827.0,-3909.0,-3130.0,0.118,0.688,0.436,-0.568
808746,-9289.0,-3785.0,-2644.0,0.117,0.686,0.44,-0.567
808763,-9137.0,-4299.0,-3344.0,0.117,0.684,0.442,-0.568
808780,-10325.0,-3251.0,-2972.0,0.117,0.683,0.443,-0.569
808796,-9437.0,-4361.0,-3146.0,0.119,0.681,0.442,-0.571
808822,-8923.0,-3743.0,-3180.0,0.12,0.681,0.44,-0.573
808838,-9019.0,-4035.0,-3036.0,0.122,0.68,0.437,-0.576
808854,-8653.0,-3525.0,-2858.0,0.124,0.68,0.436,-0.577
808870,-8421.0,-3435.0,-2652.0,0.126,0.679,0.433,-0.579
808886,-8123.0,-3967.0,-2646.0,0.128,0.68,0.431,-0.58
808903,-8395.0,-3519.0,-2896.0,0.129,0.68,0.429,-0.58
808919,-8625.0,-3493.0,-2424.0,0.13,0.681,0.428,-0.58
808946,-8983.0,-3247.0,-2242.0,0.131,0.682,0.426,-0.58
808963,-9375.0,-3633.0,-2540.0,0.133,0.682,0.424,-0.581
808979,-9071.0,-3589.0,-2470.0,0.135,0.682,0.421,-0.582
808996,-8899.0,-3631.0,-2164.0,0.138,0.682,0.418,-0.584
809013,-8771.0,-3293.0,-2292.0,0.14,0.682,0.415,-0.586
809030,-8497.0,-2909.0,-2346.0,0.142,0.682,0.412,-0.588
809046,-8161.0,-2931.0,-2000.0,0.144,0.681,0.409,-0.59
809063,-7893.0,-2765.0,-2162.0,0.146,0.68,0.407,-0.592
809089,-7997.0,-2847.0,-1998.0,0.147,0.679,0.404,-0.595
809105,-7993.0,-2723.0,-1722.0,0.149,0.678,0.402,-0.597
809121,-8315.0,-2567.0,-1732.0,0.151,0.677,0.4,-0.599
809137,-8395.0,-2607.0,-1638.0,0.153,0.676,0.397,-0.601
809153,-8361.0,-2733.0,-1598.0,0.155,0.675,0.395,-0.603
809172,-8483.0,-2825.0,-1634.0,0.157,0.675,0.393,-0.605
809188,-8777.0,-2801.0,-1634.0,0.158,0.674,0.391,-0.607
809204,-9197.0,-3193.0,-1350.0,0.16,0.673,0.39,-0.608
809221,-9011.0,-3023.0,-1852.0,0.161,0.673,0.389,-0.608
809238,-9411.0,-3377.0,-1802.0,0.162,0.673,0.389,-0.608
809264,-9801.0,-3667.0,-1682.0,0.162,0.674,0.39,-0.607
809281,-10435.0,-3099.0,-1626.0,0.161,0.675,0.391,-0.605
809298,-10277.0,-3087.0,-2106.0,0.161,0.675,0.393,-0.603
809315,-10549.0,-3473.0,-1974.0,0.16,0.676,0.396,-0.601
809332,-9815.0,-4521.0,-2416.0,0.158,0.677,0.399,-0.598
809349,-10651.0,-2937.0,-2268.0,0.155,0.677,0.404,-0.595
809366,-10373.0,-4017.0,-2370.0,0.152,0.678,0.408,-0.592
809383,-10409.0,-3315.0,-2348.0,0.149,0.678,0.413,-0.589
809400,-9523.0,-3569.0,-2708.0,0.145,0.678,0.418,-0.586
809417,-9665.0,-3869.0,-2392.0,0.141,0.679,0.424,-0.583
809434,-8927.0,-3241.0,-2530.0,0.138,0.679,0.428,-0.58
809451,-8767.0,-3275.0,-2314.0,0.134,0.679,0.433,-0.578
809468,-8593.0,-3363.0,-2224.0,0.131,0.679,0.436,-0.575
809485,-8447.0,-3173.0,-2114.0,0.129,0.679,0.439,-0.574
809512,-6985.0,-3051.0,-2750.0,0.127,0.679,0.442,-0.573
809529,-7505.0,-3069.0,-2484.0,0.126,0.679,0.444,-0.571
809546,-7995.0,-2681.0,-2260.0,0.124,0.679,0.446,-0.57
809563,-7195.0,-2877.0,-2812.0,0.124,0.679,0.447,-0.569
809580,-7183.0,-2945.0,-2666.0,0.123,0.68,0.448,-0.568
809597,-7441.0,-3285.0,-2568.0,0.122,0.68,0.449,-0.567
809614,-7793.0,-2873.0,-2604.0,0.122,0.68,0.45,-0.565
809631,-7035.0,-3347.0,-2620.0,0.121,0.681,0.451,-0.565
809648,-7599.0,-3047.0,-2588.0,0.121,0.681,0.451,-0.564
809665,-7669.0,-3441.0,-2306.0,0.121,0.681,0.451,-0.564
809682,-7947.0,-2443.0,-1972.0,0.122,0.681,0.449,-0.565
809698,-7135.0,-3489.0,-2516.0,0.124,0.681,0.447,-0.566
809724,-6985.0,-3359.0,-2538.0,0.125,0.681,0.444,-0.568
809740,-7441.0,-2935.0,-1710.0,0.125,0.681,0.442,-0.57
809756,-6605.0,-2209.0,-2572.0,0.127,0.681,0.439,-0.573
809773,-7213.0,-2557.0,-2180.0,0.129,0.681,0.436,-0.575
809790,-6559.0,-2907.0,-1922.0,0.131,0.681,0.432,-0.577
809807,-6233.0,-3365.0,-2212.0,0.133,0.681,0.428,-0.58
809823,-7197.0,-1861.0,-1750.0,0.135,0.68,0.423,-0.583
809840,-5591.0,-2245.0,-2536.0,0.138,0.681,0.419,-0.585
809857,-6545.0,-2293.0,-1834.0,0.141,0.681,0.414,-0.587
809884,-7071.0,-2815.0,-1752.0,0.145,0.681,0.409,-0.589
809900,-6765.0,-1231.0,-1498.0,0.15,0.681,0.403,-0.592
809916,-5991.0,-2727.0,-2042.0,0.156,0.681,0.396,-0.596
809932,-6055.0,-3173.0,-2180.0,0.161,0.68,0.39,-0.6
809948,-6535.0,-685.0,-1844.0,0.166,0.68,0.383,-0.603
809965,-7265.0,-523.0,-1508.0,0.172,0.678,0.376,-0.607
809982,-6833.0,-2827.0,-1810.0,0.179,0.676,0.369,-0.611
809999,-7445.0,-1609.0,-1768.0,0.186,0.675,0.362,-0.615
810016,-6979.0,-299.0,-1988.0,0.195,0.673,0.355,-0.619
810042,-6495.0,-3229.0,-2230.0,0.204,0.671,0.348,-0.622
810058,-7333.0,-431.0,-1686.0,0.211,0.671,0.34,-0.624
810074,-6213.0,-695.0,-1530.0,0.22,0.671,0.334,-0.625
810090,-5829.0,-1975.0,-896.0,0.228,0.67,0.327,-0.626
810106,-5531.0,-2433.0,-850.0,0.234,0.671,0.32,-0.627
810133,-5237.0,-1617.0,-784.0,0.238,0.672,0.313,-0.628
810150,-5561.0,-329.0,534.0,0.241,0.672,0.309,-0.628
810166,-5615.0,-947.0,-68.0,0.245,0.671,0.306,-0.629
810183,-4733.0,-2129.0,-382.0,0.247,0.669,0.305,-0.631
810199,-4721.0,-2579.0,-768.0,0.246,0.669,0.304,-0.632
810216,-5083.0,-365.0,-260.0,0.244,0.668,0.306,-0.632
810233,-4475.0,-2513.0,-662.0,0.24,0.669,0.309,-0.632
810249,-5207.0,-1109.0,-112.0,0.234,0.669,0.314,-0.632
810266,-4315.0,-533.0,-276.0,0.228,0.67,0.32,-0.63
810282,-3427.0,-1863.0,-1122.0,0.22,0.672,0.327,-0.627
810309,-3817.0,-111.0,-1004.0,0.211,0.675,0.334,-0.623
810325,-3435.0,-2375.0,-640.0,0.201,0.68,0.342,-0.616
810341,-3985.0,-727.0,-710.0,0.189,0.686,0.349,-0.609
810357,-5253.0,141.0,-648.0,0.178,0.692,0.358,-0.602
810373,-4981.0,-1949.0,-812.0,0.168,0.696,0.367,-0.593
810390,-5873.0,-679.0,-572.0,0.159,0.7,0.375,-0.586
810407,-6451.0,-1607.0,-1600.0,0.15,0.703,0.383,-0.579
810433,-6963.0,-1751.0,-2030.0,0.144,0.706,0.391,-0.573
810449,-7193.0,-1579.0,-2066.0,0.136,0.707,0.401,-0.566
810466,-8255.0,-1637.0,-1792.0,0.132,0.708,0.408,-0.561
810482,-8885.0,-2327.0,-1534.0,0.128,0.708,0.414,-0.558
810499,-7421.0,-3729.0,-3210.0,0.125,0.707,0.419,-0.556
810516,-7763.0,-1881.0,-2412.0,0.122,0.704,0.424,-0.556
810532,-8769.0,-3539.0,-2128.0,0.12,0.7,0.431,-0.556
810549,-8729.0,-3217.0,-2766.0,0.118,0.695,0.435,-0.559
810566,-7793.0,-2921.0,-2976.0,0.117,0.69,0.439,-0.563
810592,-8221.0,-3023.0,-3008.0,0.117,0.686,0.443,-0.565
810608,-8571.0,-3329.0,-2994.0,0.117,0.682,0.444,-0.569
810624,-7961.0,-3509.0,-2574.0,0.118,0.679,0.444,-0.572
810640,-7435.0,-3509.0,-2938.0,0.118,0.676,0.444,-0.576
810656,-7665.0,-3819.0,-2898.0,0.118,0.674,0.445,-0.578
810672,-7973.0,-2705.0,-2750.0,0.119,0.672,0.445,-0.579
810689,-8307.0,-3853.0,-2438.0,0.119,0.672,0.445,-0.58
810716,-8421.0,-3507.0,-2382.0,0.12,0.671,0.444,-0.582
810732,-8221.0,-3861.0,-2446.0,0.121,0.671,0.442,-0.583
810749,-8403.0,-2951.0,-2722.0,0.123,0.671,0.44,-0.584
810766,-7857.0,-4237.0,-2632.0,0.124,0.671,0.439,-0.584
810782,-8959.0,-3665.0,-2206.0,0.125,0.673,0.437,-0.584
810799,-9067.0,-4049.0,-2298.0,0.126,0.673,0.435,-0.584
810815,-8899.0,-3577.0,-2372.0,0.128,0.674,0.433,-0.584
810831,-8761.0,-3553.0,-2294.0,0.13,0.675,0.431,-0.585
810857,-8751.0,-4081.0,-1932.0,0.132,0.674,0.429,-0.587
810873,-8831.0,-3483.0,-1792.0,0.134,0.674,0.427,-0.588
810889,-8605.0,-3599.0,-1884.0,0.137,0.672,0.425,-0.591
810906,-8781.0,-3435.0,-1780.0,0.139,0.67,0.422,-0.594
810922,-8639.0,-3425.0,-1506.0,0.142,0.668,0.42,-0.598
810939,-8421.0,-3307.0,-1650.0,0.144,0.666,0.417,-0.602
810956,-8323.0,-3227.0,-1742.0,0.147,0.663,0.415,-0.606
810972,-8365.0,-3233.0,-1378.0,0.149,0.66,0.413,-0.609
810999,-8529.0,-2965.0,-1464.0,0.151,0.657,0.412,-0.613
811016,-8503.0,-2991.0,-1318.0,0.154,0.655,0.411,-0.616
811033,-8341.0,-3471.0,-1300.0,0.156,0.652,0.41,-0.618
811050,-8147.0,-4273.0,-1424.0,0.158,0.65,0.41,-0.62
811066,-8573.0,-3319.0,-1744.0,0.158,0.649,0.411,-0.621
811082,-9037.0,-3545.0,-1584.0,0.157,0.648,0.413,-0.62
811099,-9559.0,-4113.0,-1544.0,0.157,0.649,0.415,-0.618
811116,-9403.0,-4289.0,-1728.0,0.156,0.65,0.417,-0.616
811132,-9597.0,-4273.0,-1572.0,0.155,0.651,0.419,-0.613
811149,-9349.0,-4071.0,-1630.0,0.154,0.653,0.421,-0.61
811175,-9239.0,-4063.0,-1682.0,0.153,0.655,0.424,-0.607
811191,-8673.0,-4461.0,-1864.0,0.151,0.657,0.426,-0.603
811207,-9455.0,-3517.0,-1520.0,0.15,0.658,0.429,-0.6
811223,-9107.0,-3703.0,-1644.0,0.149,0.66,0.432,-0.597
811239,-9139.0,-3951.0,-1660.0,0.148,0.66,0.433,-0.595
811256,-8579.0,-3417.0,-2062.0,0.147,0.66,0.435,-0.594
811282,-8319.0,-3381.0,-1962.0,0.147,0.66,0.436,-0.594
811299,-8145.0,-3091.0,-2074.0,0.147,0.659,0.438,-0.594
811315,-8039.0,-3277.0,-1830.0,0.146,0.658,0.439,-0.594
811331,-7319.0,-3349.0,-2010.0,0.146,0.657,0.441,-0.594
811347,-7251.0,-3163.0,-2066.0,0.145,0.656,0.442,-0.595
811364,-7197.0,-2861.0,-1666.0,0.144,0.655,0.443,-0.595
811381,-6783.0,-3061.0,-1870.0,0.144,0.653,0.444,-0.596
811398,-7375.0,-2797.0,-1700.0,0.143,0.652,0.445,-0.597
811415,-6783.0,-2885.0,-1930.0,0.144,0.652,0.446,-0.597
811441,-6959.0,-3189.0,-1808.0,0.144,0.651,0.447,-0.597
811457,-6955.0,-3063.0,-2046.0,0.144,0.651,0.447,-0.596
811473,-7695.0,-3359.0,-1614.0,0.144,0.651,0.447,-0.596
811489,-7661.0,-2839.0,-1970.0,0.144,0.652,0.447,-0.595
811506,-7629.0,-2747.0,-1978.0,0.145,0.653,0.447,-0.594
811522,-7159.0,-3547.0,-2144.0,0.145,0.654,0.447,-0.593
811539,-7365.0,-3133.0,-2316.0,0.145,0.655,0.447,-0.591
811556,-7273.0,-3117.0,-2448.0,0.144,0.656,0.449,-0.589
811583,-8269.0,-2931.0,-1414.0,0.144,0.657,0.45,-0.587
811599,-7545.0,-3677.0,-1686.0,0.143,0.657,0.451,-0.586
811615,-7847.0,-3183.0,-1892.0,0.143,0.657,0.452,-0.586
811632,-7749.0,-3049.0,-1686.0,0.142,0.657,0.452,-0.587
811648,-7423.0,-3255.0,-1712.0,0.142,0.657,0.451,-0.588
811665,-7081.0,-3851.0,-1648.0,0.141,0.656,0.451,-0.589
811682,-7955.0,-3807.0,-1236.0,0.14,0.655,0.449,-0.591
811708,-8211.0,-3249.0,-1306.0,0.139,0.654,0.446,-0.595
811724,-7447.0,-3285.0,-1586.0,0.14,0.652,0.442,-0.6
811741,-6721.0,-2977.0,-2024.0,0.141,0.651,0.438,-0.604
811758,-7645.0,-2613.0,-1638.0,0.142,0.649,0.435,-0.607
811775,-7899.0,-2403.0,-1502.0,0.143,0.648,0.433,-0.611
811791,-6991.0,-3047.0,-1428.0,0.145,0.646,0.43,-0.613
811808,-7733.0,-2335.0,-1398.0,0.147,0.645,0.428,-0.616
811824,-5953.0,-2313.0,-1940.0,0.149,0.643,0.426,-0.618
811840,-5189.0,-2407.0,-2296.0,0.151,0.643,0.426,-0.618
811866,-6149.0,-2165.0,-1758.0,0.151,0.643,0.427,-0.617
811882,-6587.0,-3227.0,-1010.0,0.152,0.644,0.428,-0.615
811899,-7643.0,-3093.0,-690.0,0.153,0.646,0.429,-0.613
811916,-7715.0,-2117.0,-890.0,0.155,0.647,0.428,-0.612
811932,-6365.0,-3727.0,-1436.0,0.157,0.648,0.427,-0.611
811948,-6747.0,-3437.0,-1402.0,0.158,0.65,0.426,-0.609
811964,-7543.0,-2781.0,-1412.0,0.159,0.652,0.426,-0.607
811981,-7641.0,-3137.0,-1496.0,0.16,0.653,0.425,-0.606
812008,-7883.0,-2375.0,-1228.0,0.162,0.655,0.423,-0.605
812024,-7391.0,-2985.0,-1472.0,0.165,0.656,0.421,-0.604
812040,-7339.0,-2953.0,-1690.0,0.167,0.657,0.419,-0.604
812057,-6823.0,-3589.0,-1614.0,0.169,0.658,0.418,-0.603
812074,-7009.0,-1691.0,-1518.0,0.171,0.659,0.416,-0.603
812090,-7115.0,-2955.0,-1484.0,0.173,0.66,0.414,-0.603
812107,-7321.0,-3137.0,-1470.0,0.174,0.66,0.413,-0.603
812133,-8361.0,-425.0,-1376.0,0.177,0.661,0.41,-0.603
812149,-6835.0,-3215.0,-1660.0,0.182,0.661,0.408,-0.603
812165,-7547.0,-3147.0,-1810.0,0.185,0.661,0.406,-0.604
812182,-8231.0,-2053.0,-1932.0,0.188,0.662,0.404,-0.603
812199,-8299.0,-2405.0,-1782.0,0.19,0.662,0.402,-0.603
812216,-9807.0,-2525.0,-1870.0,0.194,0.663,0.399,-0.603
812232,-9455.0,-2045.0,-2046.0,0.2,0.663,0.394,-0.604
812249,-8681.0,-2379.0,-2312.0,0.205,0.664,0.388,-0.605
812265,-8209.0,-1493.0,-2184.0,0.211,0.665,0.382,-0.606
812282,-6807.0,-1257.0,-2162.0,0.217,0.667,0.374,-0.606
812309,-6175.0,-1385.0,-1560.0,0.224,0.669,0.366,-0.606
812325,-4627.0,-587.0,-1412.0,0.231,0.672,0.358,-0.606
812341,-3611.0,-1077.0,-1174.0,0.238,0.674,0.351,-0.605
812357,-2913.0,-1015.0,-1016.0,0.241,0.677,0.347,-0.603
812374,-2375.0,-1745.0,-792.0,0.242,0.68,0.345,-0.6
812390,-1795.0,-1353.0,-770.0,0.24,0.682,0.345,-0.598
812406,-1725.0,-687.0,-782.0,0.236,0.686,0.347,-0.595
812432,-1949.0,-717.0,-866.0,0.231,0.688,0.352,-0.591
812448,-2369.0,-3537.0,-1238.0,0.225,0.69,0.36,-0.586
812465,-3583.0,-4303.0,106.0,0.21,0.692,0.367,-0.584
812481,-3243.0,3413.0,506.0,0.197,0.693,0.378,-0.582
812498,-2299.0,1307.0,-1516.0,0.19,0.691,0.39,-0.578
812514,-4247.0,-5917.0,-1026.0,0.178,0.691,0.403,-0.572
812531,-6493.0,2957.0,-1630.0,0.168,0.691,0.415,-0.568
812548,-6253.0,-2793.0,-1286.0,0.162,0.69,0.423,-0.565
812565,-7639.0,-6557.0,-4014.0,0.155,0.689,0.43,-0.563
812592,-10457.0,2565.0,-1870.0,0.148,0.687,0.437,-0.562
812608,-7353.0,-4565.0,-2414.0,0.145,0.684,0.443,-0.562
812625,-9085.0,-4343.0,-4000.0,0.142,0.681,0.445,-0.563
812641,-8675.0,-2929.0,-2762.0,0.139,0.678,0.45,-0.564
812658,-8963.0,-3565.0,-2146.0,0.137,0.675,0.455,-0.564
812674,-9537.0,-3899.0,-2856.0,0.136,0.672,0.457,-0.567
812690,-9277.0,-4053.0,-2442.0,0.135,0.669,0.459,-0.569
812716,-7643.0,-4297.0,-3246.0,0.133,0.666,0.46,-0.571
812732,-8847.0,-3173.0,-3084.0,0.132,0.665,0.462,-0.573
812748,-8757.0,-3485.0,-2378.0,0.131,0.664,0.461,-0.574
812764,-9067.0,-4059.0,-2156.0,0.131,0.663,0.46,-0.576
812780,-7329.0,-3677.0,-3240.0,0.131,0.662,0.459,-0.578
812796,-8485.0,-3455.0,-2162.0,0.131,0.661,0.458,-0.58
812813,-8683.0,-3237.0,-2516.0,0.131,0.661,0.456,-0.581
812840,-8589.0,-3137.0,-2108.0,0.132,0.661,0.454,-0.582
812857,-8551.0,-3673.0,-1612.0,0.134,0.662,0.452,-0.583
812874,-8133.0,-3149.0,-2294.0,0.135,0.663,0.449,-0.584
812890,-7365.0,-3581.0,-2520.0,0.136,0.664,0.447,-0.584
812906,-8803.0,-3351.0,-1304.0,0.136,0.665,0.446,-0.583
812922,-8819.0,-3439.0,-1770.0,0.137,0.666,0.445,-0.583
812938,-8155.0,-3783.0,-2268.0,0.138,0.667,0.443,-0.583
812955,-8713.0,-3455.0,-1560.0,0.138,0.668,0.44,-0.583
812972,-8741.0,-4001.0,-2128.0,0.139,0.67,0.438,-0.583
812999,-9153.0,-3891.0,-1854.0,0.139,0.672,0.434,-0.584
813015,-8871.0,-3647.0,-1896.0,0.139,0.674,0.43,-0.584
813031,-8593.0,-3621.0,-2560.0,0.14,0.676,0.425,-0.585
813048,-7991.0,-2917.0,-2868.0,0.14,0.679,0.422,-0.584
813065,-8621.0,-3509.0,-1892.0,0.14,0.681,0.421,-0.583
813082,-8665.0,-2913.0,-2362.0,0.141,0.683,0.419,-0.582
813099,-8457.0,-3451.0,-2182.0,0.142,0.683,0.417,-0.583
813115,-8125.0,-2927.0,-2214.0,0.143,0.683,0.415,-0.584
813141,-7893.0,-3455.0,-2574.0,0.144,0.683,0.414,-0.584
813157,-8053.0,-3807.0,-2444.0,0.145,0.684,0.414,-0.583
813173,-9103.0,-3411.0,-2012.0,0.146,0.684,0.414,-0.583
813194,-8741.0,-3507.0,-2300.0,0.147,0.684,0.413,-0.583
813211,-8615.0,-3139.0,-2506.0,0.147,0.684,0.414,-0.582
813228,-8461.0,-3805.0,-2258.0,0.148,0.685,0.414,-0.581
813244,-8869.0,-3389.0,-2302.0,0.147,0.685,0.415,-0.58
813261,-9145.0,-3257.0,-2068.0,0.148,0.685,0.416,-0.58
813278,-8647.0,-3369.0,-1932.0,0.148,0.685,0.415,-0.58
813295,-8379.0,-3249.0,-2062.0,0.149,0.685,0.415,-0.581
813312,-8017.0,-3369.0,-2240.0,0.148,0.684,0.416,-0.581
813329,-8395.0,-3727.0,-1536.0,0.148,0.683,0.416,-0.581
813346,-8307.0,-3031.0,-1764.0,0.147,0.682,0.416,-0.582
813362,-7651.0,-3157.0,-2014.0,0.147,0.681,0.417,-0.584
813389,-7579.0,-3089.0,-1900.0,0.146,0.68,0.417,-0.585
813405,-7443.0,-2919.0,-2060.0,0.145,0.679,0.419,-0.586
813421,-7765.0,-2859.0,-1732.0,0.145,0.677,0.42,-0.587
813438,-7757.0,-3001.0,-1616.0,0.145,0.676,0.42,-0.588
813455,-7067.0,-3003.0,-1928.0,0.145,0.674,0.42,-0.589
813472,-6865.0,-2749.0,-1974.0,0.145,0.673,0.42,-0.59
813488,-7155.0,-2689.0,-1548.0,0.145,0.672,0.421,-0.591
813505,-6887.0,-2629.0,-1874.0,0.146,0.672,0.422,-0.591
813522,-6799.0,-2441.0,-1856.0,0.146,0.671,0.423,-0.591
813539,-7045.0,-2497.0,-1708.0,0.147,0.671,0.423,-0.59
813566,-7227.0,-2325.0,-1900.0,0.147,0.672,0.424,-0.589
813582,-6919.0,-2881.0,-1990.0,0.147,0.672,0.426,-0.588
813599,-7471.0,-2553.0,-1894.0,0.146,0.673,0.427,-0.586
813615,-8009.0,-2599.0,-1724.0,0.147,0.673,0.429,-0.585
813631,-8175.0,-2573.0,-1536.0,0.148,0.673,0.429,-0.584
813647,-7207.0,-3293.0,-2080.0,0.148,0.673,0.43,-0.583
813664,-7329.0,-2717.0,-2224.0,0.147,0.674,0.432,-0.582
813681,-7181.0,-2603.0,-2050.0,0.147,0.673,0.434,-0.58
813698,-7703.0,-2525.0,-1694.0,0.146,0.673,0.435,-0.58
813724,-7571.0,-2775.0,-1686.0,0.146,0.673,0.436,-0.579
813740,-7475.0,-2485.0,-1812.0,0.146,0.673,0.437,-0.579
813756,-7009.0,-3191.0,-1852.0,0.146,0.672,0.438,-0.579
813773,-7415.0,-2177.0,-2016.0,0.146,0.671,0.439,-0.579
813790,-6745.0,-2993.0,-2180.0,0.145,0.671,0.441,-0.579
813806,-7089.0,-2585.0,-1812.0,0.145,0.67,0.443,-0.578
813822,-7475.0,-2389.0,-1594.0,0.145,0.669,0.443,-0.578
813849,-6845.0,-2847.0,-1838.0,0.145,0.669,0.444,-0.578
813865,-6627.0,-2601.0,-1874.0,0.144,0.669,0.445,-0.578
813882,-6379.0,-2975.0,-1750.0,0.143,0.669,0.446,-0.577
813898,-6529.0,-2979.0,-1968.0,0.142,0.669,0.447,-0.577
813914,-6775.0,-2391.0,-1790.0,0.14,0.669,0.449,-0.576
813931,-6827.0,-2345.0,-1548.0,0.14,0.668,0.45,-0.575
813947,-6575.0,-3045.0,-1652.0,0.14,0.668,0.451,-0.575
813964,-6617.0,-2453.0,-1838.0,0.14,0.667,0.452,-0.575
813981,-6239.0,-3201.0,-1788.0,0.14,0.667,0.454,-0.575
814008,-6337.0,-2825.0,-1980.0,0.139,0.667,0.455,-0.574
814024,-7051.0,-2809.0,-1806.0,0.139,0.666,0.457,-0.573
814041,-7119.0,-3017.0,-1976.0,0.139,0.666,0.458,-0.573
814057,-6857.0,-3191.0,-2218.0,0.138,0.666,0.459,-0.572
814073,-7015.0,-3543.0,-2328.0,0.138,0.666,0.46,-0.571
814090,-7559.0,-3149.0,-2402.0,0.137,0.666,0.461,-0.57
814107,-7621.0,-3477.0,-2330.0,0.136,0.666,0.463,-0.569
814124,-7513.0,-3579.0,-2318.0,0.136,0.666,0.464,-0.568
814141,-7749.0,-3887.0,-2594.0,0.135,0.666,0.466,-0.567
814158,-7723.0,-3401.0,-2546.0,0.135,0.666,0.467,-0.566
814185,-7551.0,-3573.0,-2536.0,0.134,0.666,0.468,-0.565
814202,-7409.0,-3725.0,-2868.0,0.133,0.666,0.47,-0.564
814219,-7711.0,-3513.0,-2752.0,0.132,0.666,0.472,-0.563
814236,-7513.0,-3487.0,-2710.0,0.132,0.665,0.474,-0.562
814253,-7505.0,-3659.0,-2850.0,0.131,0.665,0.475,-0.561
814270,-7569.0,-3215.0,-2922.0,0.131,0.664,0.476,-0.561
814287,-7599.0,-3477.0,-2654.0,0.132,0.664,0.477,-0.561
814304,-7069.0,-4013.0,-2682.0,0.132,0.662,0.478,-0.561
814321,-7109.0,-3423.0,-2650.0,0.133,0.661,0.479,-0.562
814337,-6911.0,-3575.0,-2812.0,0.133,0.66,0.48,-0.562
814354,-6943.0,-3359.0,-2776.0,0.133,0.659,0.481,-0.562
814371,-6729.0,-3139.0,-2692.0,0.133,0.659,0.482,-0.562
814398,-6643.0,-3373.0,-2728.0,0.134,0.659,0.483,-0.561
814414,-6775.0,-3541.0,-2654.0,0.133,0.659,0.484,-0.56
814431,-6489.0,-3193.0,-2770.0,0.133,0.66,0.485,-0.559
814447,-6543.0,-3059.0,-2796.0,0.132,0.66,0.486,-0.557
814464,-6891.0,-3259.0,-2578.0,0.132,0.661,0.486,-0.556
814481,-6877.0,-3687.0,-2484.0,0.131,0.661,0.487,-0.555
814497,-6763.0,-2899.0,-2770.0,0.131,0.661,0.487,-0.555
814514,-6589.0,-2971.0,-2764.0,0.131,0.661,0.487,-0.555
814530,-6615.0,-3241.0,-2756.0,0.131,0.661,0.488,-0.555
814557,-6649.0,-3557.0,-2798.0,0.131,0.66,0.489,-0.555
814573,-6661.0,-2941.0,-2762.0,0.13,0.659,0.49,-0.556
814589,-6703.0,-2645.0,-3004.0,0.13,0.659,0.49,-0.556
814605,-6905.0,-3525.0,-2940.0,0.129,0.658,0.492,-0.555
814622,-6679.0,-3225.0,-2830.0,0.129,0.658,0.493,-0.555
814639,-6745.0,-3203.0,-2682.0,0.128,0.657,0.494,-0.554
814656,-6735.0,-3415.0,-2802.0,0.128,0.657,0.495,-0.554
814673,-6593.0,-3635.0,-2632.0,0.127,0.657,0.496,-0.553
814690,-6845.0,-3499.0,-2616.0,0.127,0.657,0.496,-0.553
814707,-6455.0,-3741.0,-2718.0,0.127,0.657,0.497,-0.552
814734,-6397.0,-3869.0,-2666.0,0.127,0.658,0.497,-0.552
814751,-6993.0,-4111.0,-2266.0,0.127,0.657,0.497,-0.552
814768,-6749.0,-3815.0,-2456.0,0.127,0.657,0.498,-0.552
814785,-6615.0,-3681.0,-2448.0,0.127,0.657,0.498,-0.552
814802,-6397.0,-3777.0,-2606.0,0.127,0.657,0.497,-0.553
814819,-6549.0,-3557.0,-2572.0,0.128,0.657,0.497,-0.553
814836,-6333.0,-3599.0,-2644.0,0.128,0.657,0.497,-0.553
814853,-6545.0,-3501.0,-2572.0,0.128,0.658,0.496,-0.552
814870,-6523.0,-3629.0,-2616.0,0.128,0.659,0.496,-0.551
814887,-7015.0,-3667.0,-2632.0,0.129,0.66,0.495,-0.551
814904,-7293.0,-3711.0,-2694.0,0.13,0.66,0.495,-0.55
814921,-6957.0,-3809.0,-2956.0,0.13,0.661,0.494,-0.549
814938,-7471.0,-4063.0,-2916.0,0.131,0.662,0.494,-0.548
814955,-7797.0,-3905.0,-2662.0,0.133,0.663,0.493,-0.547
814982,-8361.0,-3629.0,-2364.0,0.135,0.664,0.491,-0.547
814998,-8225.0,-3287.0,-2438.0,0.138,0.665,0.489,-0.548
815014,-7369.0,-3977.0,-2388.0,0.14,0.664,0.488,-0.549
815030,-7259.0,-3711.0,-2648.0,0.142,0.664,0.486,-0.55
815047,-7551.0,-3019.0,-2478.0,0.144,0.664,0.485,-0.551
815064,-7183.0,-2589.0,-2458.0,0.146,0.663,0.485,-0.551
815081,-6761.0,-3339.0,-2518.0,0.147,0.663,0.484,-0.551
815097,-7245.0,-2809.0,-2272.0,0.147,0.663,0.485,-0.551
815114,-7161.0,-3037.0,-1998.0,0.148,0.663,0.485,-0.551
815141,-6811.0,-3063.0,-2458.0,0.147,0.663,0.487,-0.55
815157,-7157.0,-2811.0,-2410.0,0.147,0.662,0.488,-0.549
815173,-7559.0,-3055.0,-2208.0,0.146,0.662,0.489,-0.548
815190,-7361.0,-3253.0,-2326.0,0.146,0.662,0.49,-0.548
815206,-7263.0,-3369.0,-2314.0,0.145,0.662,0.49,-0.548
815222,-6891.0,-2735.0,-2754.0,0.145,0.662,0.491,-0.548
815238,-7159.0,-3447.0,-2674.0,0.145,0.661,0.492,-0.547
815264,-7135.0,-2945.0,-2578.0,0.145,0.661,0.493,-0.547
815281,-6963.0,-3723.0,-2670.0,0.144,0.661,0.494,-0.546
815297,-7425.0,-3003.0,-2754.0,0.144,0.661,0.494,-0.546
815313,-6981.0,-3195.0,-2730.0,0.144,0.661,0.495,-0.545
815330,-6899.0,-3447.0,-2812.0,0.144,0.661,0.496,-0.544
815347,-7391.0,-3149.0,-2638.0,0.144,0.661,0.497,-0.543
815363,-7371.0,-3079.0,-2612.0,0.144,0.662,0.497,-0.543
815380,-7009.0,-3197.0,-3490.0,0.144,0.662,0.497,-0.542
815406,-7087.0,-2815.0,-3570.0,0.143,0.663,0.498,-0.54
815423,-7095.0,-3399.0,-3390.0,0.142,0.665,0.499,-0.538
815439,-7767.0,-3657.0,-3314.0,0.141,0.666,0.5,-0.535
815455,-8129.0,-3003.0,-3220.0,0.14,0.666,0.502,-0.534
815471,-7699.0,-3397.0,-3286.0,0.139,0.667,0.502,-0.533
815487,-7523.0,-3359.0,-3286.0,0.137,0.667,0.503,-0.532
815504,-7311.0,-3583.0,-3688.0,0.136,0.667,0.504,-0.531
815521,-7869.0,-3119.0,-2990.0,0.135,0.667,0.505,-0.531
815547,-7453.0,-3129.0,-2878.0,0.134,0.666,0.506,-0.531
815564,-7027.0,-3497.0,-3208.0,0.133,0.665,0.506,-0.532
815580,-7233.0,-3467.0,-3026.0,0.133,0.664,0.507,-0.533
815597,-7169.0,-3109.0,-2724.0,0.133,0.663,0.507,-0.535
815613,-7013.0,-3299.0,-3040.0,0.133,0.661,0.506,-0.537
815630,-6335.0,-3667.0,-3374.0,0.133,0.66,0.506,-0.539
815646,-6845.0,-3495.0,-3118.0,0.132,0.659,0.506,-0.54
815672,-6959.0,-2733.0,-3062.0,0.132,0.659,0.506,-0.541
815688,-6739.0,-3403.0,-3024.0,0.132,0.658,0.506,-0.542
815704,-6743.0,-3963.0,-3210.0,0.132,0.658,0.505,-0.543
815720,-6821.0,-3049.0,-3292.0,0.132,0.657,0.505,-0.543
815737,-6595.0,-3645.0,-3030.0,0.133,0.657,0.505,-0.543
815754,-6945.0,-3785.0,-3158.0,0.134,0.657,0.505,-0.543
815770,-6989.0,-3361.0,-2986.0,0.135,0.658,0.504,-0.543
815787,-6435.0,-3711.0,-2742.0,0.136,0.658,0.503,-0.543
815814,-6985.0,-3585.0,-2714.0,0.138,0.658,0.502,-0.543
815830,-6747.0,-3279.0,-2516.0,0.139,0.659,0.502,-0.543
815846,-5945.0,-4407.0,-2808.0,0.14,0.659,0.501,-0.543
815862,-7147.0,-2937.0,-2944.0,0.14,0.659,0.501,-0.543
815879,-6643.0,-3053.0,-2492.0,0.142,0.659,0.5,-0.543
815896,-6803.0,-3621.0,-2506.0,0.143,0.659,0.5,-0.543
815912,-6779.0,-3373.0,-2832.0,0.144,0.66,0.499,-0.543
815929,-6855.0,-3147.0,-2816.0,0.145,0.66,0.499,-0.543
815955,-6401.0,-3699.0,-2860.0,0.146,0.661,0.499,-0.542
815971,-7167.0,-3053.0,-2608.0,0.147,0.662,0.498,-0.541
815987,-7197.0,-3873.0,-2808.0,0.147,0.663,0.497,-0.54
816003,-7423.0,-2607.0,-2828.0,0.148,0.664,0.496,-0.54
816019,-6779.0,-3451.0,-2786.0,0.15,0.665,0.495,-0.539
816036,-7371.0,-3333.0,-2430.0,0.151,0.666,0.493,-0.54
816053,-7373.0,-3307.0,-2692.0,0.152,0.666,0.492,-0.54
816070,-7097.0,-3507.0,-2718.0,0.153,0.666,0.49,-0.541
816097,-7667.0,-2567.0,-2682.0,0.154,0.666,0.488,-0.542
816113,-7121.0,-3719.0,-2574.0,0.156,0.666,0.487,-0.543
816130,-7823.0,-3055.0,-2494.0,0.157,0.666,0.485,-0.545
816146,-8357.0,-2837.0,-2380.0,0.16,0.665,0.483,-0.547
816163,-7301.0,-3285.0,-2884.0,0.162,0.665,0.481,-0.547
816179,-7499.0,-3225.0,-2826.0,0.164,0.666,0.479,-0.547
816195,-8355.0,-2787.0,-2462.0,0.167,0.667,0.477,-0.547
816221,-8081.0,-3805.0,-2576.0,0.169,0.669,0.474,-0.547
816237,-8033.0,-1995.0,-2168.0,0.171,0.67,0.471,-0.547
816253,-7943.0,-2639.0,-2102.0,0.174,0.671,0.468,-0.548
816270,-8649.0,-2733.0,-2246.0,0.177,0.672,0.465,-0.549
816287,-7637.0,-3301.0,-2416.0,0.179,0.673,0.462,-0.549
816304,-8475.0,-1833.0,-1994.0,0.182,0.674,0.458,-0.551
816320,-8567.0,-2359.0,-2216.0,0.184,0.675,0.454,-0.552
816337,-8183.0,-3431.0,-2190.0,0.187,0.676,0.449,-0.553
816354,-8531.0,-1227.0,-1940.0,0.191,0.677,0.444,-0.555
816380,-7897.0,-1857.0,-1932.0,0.195,0.678,0.439,-0.557
816397,-7501.0,-1861.0,-2104.0,0.199,0.679,0.434,-0.558
816413,-6787.0,-873.0,-1842.0,0.204,0.68,0.429,-0.559
816430,-6047.0,-1697.0,-1486.0,0.209,0.681,0.425,-0.559
816447,-5851.0,-733.0,-1474.0,0.215,0.682,0.421,-0.558
816463,-4859.0,-1281.0,-936.0,0.219,0.684,0.417,-0.557
816480,-3647.0,-1057.0,-1406.0,0.224,0.686,0.414,-0.554
816496,-3419.0,-2969.0,-1436.0,0.226,0.69,0.412,-0.551
816513,-3407.0,-3457.0,-1470.0,0.222,0.695,0.411,-0.547
816530,-4681.0,-993.0,-830.0,0.217,0.7,0.412,-0.542
816556,-5089.0,-1579.0,-822.0,0.211,0.704,0.414,-0.537
816572,-5639.0,-2767.0,-1310.0,0.205,0.709,0.415,-0.532
816589,-7389.0,207.0,-1410.0,0.199,0.712,0.417,-0.529
816605,-7363.0,-2589.0,-1908.0,0.195,0.713,0.42,-0.526
816621,-8511.0,-2011.0,-2624.0,0.191,0.715,0.422,-0.523
816637,-9745.0,-1511.0,-2778.0,0.188,0.717,0.423,-0.521
816663,-9213.0,-1967.0,-3212.0,0.186,0.719,0.423,-0.519
816680,-8813.0,-1991.0,-3710.0,0.184,0.721,0.423,-0.517
816696,-8863.0,-1647.0,-3640.0,0.182,0.723,0.424,-0.515
816713,-8289.0,-1671.0,-3366.0,0.18,0.725,0.425,-0.512
816729,-7715.0,-1173.0,-3560.0,0.179,0.727,0.425,-0.509
816745,-7381.0,-1183.0,-3374.0,0.177,0.729,0.426,-0.505
816762,-6765.0,-1977.0,-3132.0,0.175,0.732,0.426,-0.502
816779,-6777.0,-1123.0,-3152.0,0.173,0.734,0.427,-0.499
816796,-6515.0,-1643.0,-3202.0,0.17,0.737,0.428,-0.495
816823,-6661.0,-1781.0,-3142.0,0.167,0.739,0.429,-0.492
816840,-6739.0,-1115.0,-3394.0,0.163,0.741,0.43,-0.489
816856,-6375.0,-1981.0,-3854.0,0.159,0.743,0.431,-0.486
816872,-6761.0,-1585.0,-4462.0,0.154,0.746,0.432,-0.483
816888,-6973.0,-1569.0,-4586.0,0.149,0.749,0.432,-0.48
816904,-7113.0,-1849.0,-4504.0,0.144,0.752,0.433,-0.476
816920,-7205.0,-1807.0,-4804.0,0.141,0.754,0.433,-0.474
816946,-7809.0,-1745.0,-4446.0,0.138,0.755,0.433,-0.472
816963,-7439.0,-1821.0,-4106.0,0.137,0.755,0.434,-0.472
816979,-6371.0,-3031.0,-4412.0,0.136,0.754,0.435,-0.473
816996,-6279.0,-2185.0,-4618.0,0.134,0.753,0.436,-0.474
817012,-6691.0,-1365.0,-4446.0,0.133,0.752,0.437,-0.475
817029,-6097.0,-2609.0,-4392.0,0.132,0.752,0.438,-0.475
817046,-6275.0,-2165.0,-4312.0,0.13,0.752,0.439,-0.475
817063,-6451.0,-2179.0,-3936.0,0.128,0.752,0.44,-0.474
817079,-6447.0,-1705.0,-4112.0,0.126,0.752,0.441,-0.474
817106,-6351.0,-1995.0,-3908.0,0.124,0.752,0.442,-0.472
817123,-5427.0,1699.0,-5514.0,0.123,0.752,0.446,-0.47
817139,-2755.0,-2707.0,-786.0,0.122,0.751,0.45,-0.468
817156,-2539.0,3093.0,-5138.0,0.12,0.75,0.453,-0.467
817172,-3967.0,-825.0,-2870.0,0.118,0.749,0.455,-0.466
817189,-6795.0,-2001.0,582.0,0.116,0.751,0.457,-0.462
817205,-7233.0,-2833.0,-6886.0,0.115,0.751,0.46,-0.46
817221,-5645.0,-2989.0,-3308.0,0.114,0.751,0.463,-0.457
817247,-8291.0,-3631.0,-1816.0,0.111,0.751,0.466,-0.454
817263,-7501.0,-1611.0,-6216.0,0.11,0.751,0.469,-0.451
817279,-5367.0,-2451.0,-3490.0,0.11,0.752,0.471,-0.449
817296,-6857.0,-2107.0,-1968.0,0.108,0.753,0.472,-0.446
817313,-6623.0,-1307.0,-5824.0,0.107,0.754,0.474,-0.442
817329,-6895.0,-2767.0,-3994.0,0.107,0.755,0.476,-0.437
817346,-9743.0,-3955.0,-9770.0,0.106,0.756,0.478,-0.435
817362,-9717.0,-2213.0,-4496.0,0.105,0.757,0.48,-0.431
817388,-5009.0,-2221.0,-7710.0,0.107,0.755,0.484,-0.43
817404,-8189.0,-3869.0,-10816.0,0.111,0.751,0.489,-0.43
817420,-5513.0,783.0,-6450.0,0.109,0.749,0.491,-0.431
817436,-4963.0,1403.0,-6462.0,0.11,0.747,0.492,-0.434
817452,-4337.0,-3721.0,-1928.0,0.112,0.745,0.494,-0.435
817469,-8507.0,-3859.0,1260.0,0.109,0.745,0.496,-0.432
817486,-7129.0,-1605.0,-9264.0,0.108,0.745,0.498,-0.431
817513,-3517.0,-3407.0,-1128.0,0.107,0.745,0.5,-0.429
817530,-5343.0,-2761.0,1846.0,0.104,0.746,0.502,-0.425
817546,-1903.0,521.0,-4032.0,0.104,0.745,0.504,-0.423
817563,-5497.0,-5173.0,-7044.0,0.102,0.746,0.508,-0.419
817579,-5777.0,-4599.0,-6404.0,0.099,0.746,0.511,-0.415
817596,-7447.0,-2285.0,-6196.0,0.096,0.747,0.515,-0.409
817612,-5241.0,-2139.0,-4240.0,0.093,0.748,0.519,-0.403
817629,-10187.0,-10207.0,-2212.0,0.09,0.751,0.515,-0.403
817646,-5985.0,-7807.0,-4962.0,0.092,0.752,0.518,-0.396
817672,-11557.0,-4883.0,-8056.0,0.087,0.753,0.52,-0.394
817688,-6021.0,3177.0,-3144.0,0.086,0.754,0.521,-0.389
817704,-1247.0,-7999.0,-2226.0,0.086,0.755,0.524,-0.384
817720,-7337.0,-823.0,-5028.0,0.081,0.756,0.526,-0.382
817737,-6445.0,-3419.0,-4400.0,0.081,0.756,0.527,-0.378
817754,-2001.0,-5987.0,-5944.0,0.08,0.757,0.529,-0.375
817770,-24981.0,-28501.0,-26808.0,0.079,0.755,0.524,-0.386
817796,-3473.0,11111.0,-900.0,0.075,0.754,0.522,-0.391
817812,-3845.0,-10991.0,-4950.0,0.073,0.756,0.517,-0.394
817829,-6085.0,-4737.0,-2420.0,0.078,0.755,0.518,-0.394
817846,-8113.0,-437.0,-4056.0,0.076,0.756,0.518,-0.394
817863,-7093.0,-11823.0,-5146.0,0.078,0.757,0.518,-0.39
817880,-6465.0,153.0,-10028.0,0.078,0.756,0.518,-0.392
817896,-5457.0,3009.0,-2624.0,0.077,0.756,0.519,-0.391
817912,-4837.0,-6657.0,-3872.0,0.077,0.757,0.517,-0.392
817929,-5361.0,-1633.0,-9306.0,0.079,0.756,0.517,-0.394
817955,-5261.0,-2041.0,-758.0,0.08,0.756,0.516,-0.396
817971,-9781.0,-5737.0,-7534.0,0.082,0.756,0.514,-0.397
817987,-2603.0,-271.0,-7854.0,0.083,0.755,0.514,-0.398
818003,-5677.0,-4697.0,-4330.0,0.084,0.757,0.514,-0.395
818020,-4971.0,-3979.0,-3916.0,0.083,0.758,0.514,-0.393
818036,-3671.0,-417.0,-6224.0,0.082,0.759,0.515,-0.389
818053,-5315.0,-3821.0,-5326.0,0.083,0.759,0.519,-0.384
