timeMs,ax,ay,az,q0,q1,q2,q3
1079505,-6659.0,-2209.0,-1860.0,0.116,0.696,0.363,-0.609
1079522,-7627.0,-2069.0,-1924.0,0.119,0.698,0.357,-0.609
1079538,-7075.0,-537.0,-1452.0,0.124,0.7,0.35,-0.61
1079555,-5667.0,-1129.0,-1636.0,0.13,0.702,0.342,-0.612
1079572,-5773.0,-951.0,-1188.0,0.136,0.703,0.333,-0.613
1079589,-4171.0,67.0,-700.0,0.144,0.704,0.324,-0.616
1079606,-2179.0,-1031.0,-890.0,0.151,0.704,0.315,-0.618
1079623,-1575.0,-1313.0,-678.0,0.155,0.705,0.307,-0.62
1079640,-1309.0,-845.0,112.0,0.158,0.707,0.301,-0.621
1079666,-777.0,-791.0,-602.0,0.16,0.708,0.298,-0.62
1079682,-753.0,-1087.0,-1404.0,0.159,0.71,0.297,-0.619
1079698,-1099.0,-1095.0,-414.0,0.157,0.712,0.298,-0.616
1079715,-707.0,-395.0,-124.0,0.154,0.714,0.301,-0.612
1079731,-1121.0,-1209.0,-124.0,0.149,0.716,0.306,-0.61
1079748,-1085.0,-979.0,-620.0,0.143,0.717,0.312,-0.607
1079765,-1459.0,-3137.0,-1246.0,0.135,0.719,0.32,-0.602
1079782,-2381.0,-285.0,-562.0,0.124,0.72,0.329,-0.598
1079799,-4117.0,7.0,-1368.0,0.116,0.721,0.337,-0.595
1079816,-5153.0,-1087.0,-2446.0,0.108,0.721,0.346,-0.591
1079843,-5235.0,375.0,-2284.0,0.1,0.72,0.356,-0.587
1079860,-6547.0,-4097.0,-2386.0,0.095,0.719,0.365,-0.584
1079877,-8617.0,-1739.0,-2604.0,0.09,0.717,0.372,-0.582
1079894,-8179.0,-1515.0,-2406.0,0.088,0.715,0.378,-0.582
1079911,-7615.0,-4581.0,-3478.0,0.087,0.713,0.382,-0.582
1079928,-8935.0,-2773.0,-4024.0,0.086,0.712,0.384,-0.581
1079944,-7855.0,-3155.0,-3410.0,0.086,0.712,0.386,-0.579
1079961,-9639.0,-4243.0,-1996.0,0.085,0.713,0.389,-0.578
1079978,-9605.0,-3869.0,-3214.0,0.085,0.712,0.389,-0.578
1079994,-9099.0,-2735.0,-2134.0,0.086,0.712,0.389,-0.578
1080011,-8439.0,-2979.0,-2202.0,0.087,0.712,0.388,-0.58
1080028,-8529.0,-3005.0,-3158.0,0.09,0.711,0.386,-0.581
1080054,-7447.0,-3921.0,-2458.0,0.091,0.71,0.385,-0.583
1080071,-7535.0,-2213.0,-2492.0,0.092,0.71,0.384,-0.583
1080088,-8047.0,-2517.0,-2780.0,0.093,0.71,0.383,-0.584
1080104,-8163.0,-2641.0,-1900.0,0.094,0.709,0.383,-0.584
1080120,-7843.0,-2375.0,-2228.0,0.095,0.71,0.382,-0.584
1080136,-7849.0,-3269.0,-2128.0,0.095,0.709,0.382,-0.585
1080162,-8241.0,-2263.0,-1920.0,0.095,0.709,0.381,-0.585
1080179,-8503.0,-2525.0,-2214.0,0.096,0.709,0.38,-0.586
1080195,-8661.0,-2317.0,-2302.0,0.098,0.709,0.379,-0.587
1080211,-8919.0,-2781.0,-1542.0,0.1,0.708,0.377,-0.588
1080228,-9115.0,-2699.0,-2370.0,0.102,0.707,0.376,-0.59
1080244,-8781.0,-2653.0,-2218.0,0.105,0.706,0.374,-0.592
1080261,-9093.0,-3091.0,-1552.0,0.107,0.705,0.373,-0.594
1080278,-9035.0,-2943.0,-2276.0,0.109,0.703,0.371,-0.596
1080294,-9311.0,-2783.0,-1796.0,0.111,0.702,0.369,-0.599
1080320,-9407.0,-2877.0,-1402.0,0.113,0.701,0.367,-0.601
1080336,-9635.0,-2935.0,-1896.0,0.115,0.699,0.365,-0.604
1080353,-9273.0,-2689.0,-2244.0,0.117,0.697,0.363,-0.607
1080369,-9415.0,-4005.0,-2136.0,0.118,0.696,0.361,-0.609
1080385,-11023.0,-3945.0,-2406.0,0.119,0.694,0.36,-0.612
1080402,-11781.0,-4237.0,-1848.0,0.119,0.692,0.36,-0.614
1080419,-12609.0,-4513.0,-1736.0,0.12,0.69,0.36,-0.617
1080436,-12421.0,-4935.0,-2290.0,0.12,0.687,0.361,-0.619
1080453,-12155.0,-4341.0,-2222.0,0.12,0.685,0.362,-0.621
1080480,-11673.0,-4685.0,-2442.0,0.119,0.683,0.365,-0.622
1080497,-11359.0,-4603.0,-2248.0,0.117,0.681,0.368,-0.622
1080514,-10907.0,-4607.0,-2470.0,0.114,0.68,0.372,-0.622
1080531,-10959.0,-3893.0,-2170.0,0.111,0.679,0.377,-0.621
1080548,-10761.0,-4035.0,-2084.0,0.108,0.679,0.381,-0.618
1080565,-10239.0,-4175.0,-2138.0,0.106,0.679,0.386,-0.616
1080582,-10503.0,-3771.0,-1554.0,0.104,0.68,0.389,-0.613
1080599,-10039.0,-3583.0,-1818.0,0.104,0.68,0.392,-0.61
1080616,-9205.0,-3991.0,-1904.0,0.103,0.681,0.394,-0.608
1080633,-8619.0,-3891.0,-1804.0,0.101,0.682,0.397,-0.606
1080650,-9245.0,-2817.0,-2056.0,0.1,0.682,0.399,-0.604
1080667,-9237.0,-3263.0,-1318.0,0.1,0.683,0.4,-0.603
1080684,-8391.0,-3315.0,-1392.0,0.101,0.683,0.399,-0.603
1080711,-7571.0,-3103.0,-2094.0,0.101,0.683,0.398,-0.604
1080727,-8241.0,-2437.0,-1664.0,0.102,0.684,0.397,-0.604
1080744,-7417.0,-2981.0,-1642.0,0.103,0.684,0.395,-0.604
1080760,-7567.0,-2323.0,-1968.0,0.105,0.685,0.392,-0.605
1080777,-8209.0,-2543.0,-1372.0,0.108,0.686,0.389,-0.605
1080794,-8143.0,-2025.0,-1242.0,0.112,0.687,0.384,-0.607
1080810,-7389.0,-2767.0,-1762.0,0.117,0.687,0.378,-0.609
1080827,-7929.0,-1965.0,-1610.0,0.123,0.689,0.371,-0.611
1080844,-7527.0,-1771.0,-1568.0,0.13,0.69,0.362,-0.613
1080861,-6633.0,-175.0,-1888.0,0.138,0.691,0.353,-0.615
1080887,-6259.0,-179.0,-1546.0,0.149,0.692,0.343,-0.618
1080903,-5095.0,-1335.0,-1186.0,0.16,0.693,0.331,-0.62
1080920,-4345.0,523.0,-990.0,0.171,0.693,0.32,-0.623
1080936,-2659.0,511.0,-594.0,0.184,0.692,0.308,-0.626
1080952,-2131.0,679.0,356.0,0.196,0.691,0.297,-0.629
1080968,-2269.0,691.0,324.0,0.209,0.689,0.287,-0.632
1080994,-1709.0,377.0,234.0,0.223,0.686,0.281,-0.633
1081010,-433.0,-151.0,-1460.0,0.236,0.683,0.278,-0.633
1081027,1427.0,127.0,-1140.0,0.245,0.682,0.278,-0.631
1081043,-271.0,67.0,-1756.0,0.249,0.683,0.287,-0.624
1081059,-1401.0,-2465.0,-1512.0,0.241,0.684,0.301,-0.619
1081075,-2483.0,-3523.0,-2922.0,0.227,0.687,0.315,-0.614
1081092,-2273.0,-7257.0,-3732.0,0.209,0.69,0.327,-0.612
1081108,1721.0,-15913.0,1636.0,0.182,0.699,0.327,-0.61
1081135,-4727.0,3011.0,510.0,0.15,0.708,0.332,-0.605
1081151,-6747.0,13363.0,-34.0,0.129,0.713,0.345,-0.597
1081168,-5773.0,349.0,578.0,0.126,0.712,0.359,-0.591
1081184,-5615.0,-5731.0,-1482.0,0.122,0.71,0.368,-0.588
1081200,-5975.0,-1085.0,-3836.0,0.116,0.709,0.376,-0.586
1081216,-4357.0,-3383.0,-3496.0,0.107,0.71,0.388,-0.578
1081233,-7773.0,-1771.0,-2190.0,0.099,0.711,0.399,-0.57
1081250,-10105.0,-2127.0,-2482.0,0.093,0.711,0.409,-0.565
1081267,-8349.0,-3525.0,-3448.0,0.089,0.711,0.417,-0.559
1081293,-8499.0,-3475.0,-2782.0,0.086,0.711,0.423,-0.555
1081310,-8549.0,-5181.0,-3604.0,0.083,0.712,0.425,-0.553
1081327,-10513.0,-2917.0,-2642.0,0.081,0.712,0.427,-0.551
1081343,-7241.0,-4383.0,-3458.0,0.081,0.713,0.428,-0.549
1081360,-8297.0,-3453.0,-3562.0,0.081,0.713,0.429,-0.549
1081377,-9073.0,-3315.0,-3208.0,0.081,0.713,0.429,-0.549
1081394,-8529.0,-2523.0,-3682.0,0.083,0.713,0.428,-0.549
1081410,-8027.0,-4991.0,-3096.0,0.084,0.714,0.428,-0.548
1081436,-8305.0,-4103.0,-3564.0,0.085,0.715,0.427,-0.547
1081452,-9503.0,-3411.0,-2830.0,0.086,0.716,0.426,-0.547
1081468,-7849.0,-4217.0,-3396.0,0.087,0.716,0.425,-0.547
1081484,-9175.0,-2683.0,-3306.0,0.089,0.716,0.423,-0.548
1081501,-8593.0,-3751.0,-2918.0,0.091,0.717,0.42,-0.549
1081518,-8367.0,-3673.0,-2794.0,0.094,0.716,0.417,-0.552
1081534,-8787.0,-3351.0,-2858.0,0.097,0.715,0.413,-0.555
1081551,-8913.0,-3563.0,-2400.0,0.1,0.713,0.411,-0.56
1081568,-8453.0,-3021.0,-2742.0,0.104,0.711,0.407,-0.564
1081594,-8463.0,-3107.0,-2848.0,0.108,0.709,0.404,-0.568
1081611,-8493.0,-2961.0,-2662.0,0.112,0.707,0.4,-0.572
1081627,-8935.0,-2899.0,-2764.0,0.116,0.705,0.397,-0.576
1081643,-9199.0,-2929.0,-2924.0,0.12,0.704,0.394,-0.579
1081660,-9713.0,-2967.0,-2396.0,0.123,0.702,0.391,-0.582
1081676,-9615.0,-3709.0,-2858.0,0.126,0.7,0.389,-0.585
1081693,-10199.0,-3111.0,-2722.0,0.127,0.699,0.388,-0.587
1081710,-10205.0,-3267.0,-2556.0,0.127,0.697,0.388,-0.59
1081737,-10837.0,-3309.0,-2872.0,0.127,0.695,0.389,-0.591
1081753,-10825.0,-3441.0,-2722.0,0.127,0.694,0.391,-0.591
1081770,-10879.0,-3885.0,-2820.0,0.126,0.693,0.393,-0.591
1081786,-11709.0,-3807.0,-3180.0,0.124,0.692,0.397,-0.59
1081802,-11791.0,-4345.0,-3166.0,0.121,0.692,0.401,-0.588
1081818,-11611.0,-4649.0,-3504.0,0.118,0.692,0.407,-0.584
1081834,-12145.0,-4505.0,-3452.0,0.114,0.693,0.412,-0.58
1081860,-12257.0,-4413.0,-2998.0,0.111,0.694,0.417,-0.577
1081876,-11315.0,-4747.0,-3090.0,0.108,0.694,0.421,-0.574
1081893,-10987.0,-4421.0,-2796.0,0.106,0.694,0.425,-0.572
1081910,-10513.0,-4013.0,-2812.0,0.104,0.693,0.429,-0.571
1081927,-10095.0,-3819.0,-2682.0,0.102,0.692,0.431,-0.571
1081943,-8587.0,-4061.0,-2796.0,0.102,0.69,0.433,-0.571
1081960,-8601.0,-3885.0,-2536.0,0.101,0.689,0.433,-0.572
1081976,-8479.0,-2701.0,-2554.0,0.1,0.688,0.433,-0.573
1082003,-7353.0,-3407.0,-2134.0,0.1,0.688,0.433,-0.574
1082019,-7251.0,-3311.0,-2158.0,0.101,0.687,0.431,-0.575
1082035,-6789.0,-2899.0,-2446.0,0.102,0.688,0.43,-0.576
1082051,-7235.0,-2111.0,-2308.0,0.103,0.689,0.428,-0.576
1082067,-6627.0,-3363.0,-2196.0,0.105,0.69,0.426,-0.575
1082083,-7259.0,-2723.0,-1518.0,0.108,0.692,0.423,-0.576
1082099,-6961.0,-2383.0,-1878.0,0.11,0.693,0.418,-0.576
1082126,-7287.0,-2081.0,-1874.0,0.114,0.695,0.413,-0.577
1082143,-6249.0,-3231.0,-1798.0,0.119,0.696,0.408,-0.579
1082160,-6495.0,-2607.0,-1852.0,0.122,0.698,0.401,-0.581
1082180,-7101.0,-2293.0,-1868.0,0.125,0.699,0.395,-0.583
1082197,-7089.0,-877.0,-1556.0,0.13,0.7,0.387,-0.586
1082214,-5579.0,-1711.0,-1614.0,0.136,0.7,0.379,-0.589
1082231,-5981.0,-2261.0,-1588.0,0.143,0.7,0.37,-0.594
1082247,-5651.0,-171.0,-1042.0,0.151,0.7,0.36,-0.598
1082263,-3237.0,-869.0,-1344.0,0.161,0.699,0.351,-0.602
1082279,-2725.0,-553.0,-1146.0,0.171,0.697,0.342,-0.606
1082295,-1965.0,-627.0,-720.0,0.18,0.696,0.333,-0.61
1082321,-779.0,-671.0,-1216.0,0.187,0.695,0.327,-0.613
1082337,-507.0,-1463.0,-1478.0,0.19,0.695,0.322,-0.614
1082353,-389.0,-1423.0,-1438.0,0.188,0.697,0.32,-0.614
1082369,-1141.0,-1349.0,-514.0,0.184,0.699,0.321,-0.612
1082385,-1685.0,-1915.0,-10.0,0.179,0.701,0.325,-0.609
1082401,-1585.0,-1623.0,-158.0,0.172,0.701,0.332,-0.607
1082427,-1393.0,-1043.0,-558.0,0.163,0.701,0.34,-0.605
1082443,-1037.0,-2485.0,-1222.0,0.153,0.701,0.351,-0.602
1082460,-1793.0,-1761.0,-1592.0,0.141,0.702,0.362,-0.597
1082476,-4437.0,2199.0,-1856.0,0.13,0.704,0.372,-0.591
1082492,-6795.0,-533.0,-860.0,0.123,0.705,0.382,-0.585
1082509,-6223.0,-4027.0,-1384.0,0.118,0.704,0.39,-0.582
1082526,-6765.0,-2227.0,-2470.0,0.114,0.702,0.396,-0.58
1082542,-8105.0,-1401.0,-3592.0,0.109,0.702,0.403,-0.577
1082559,-7933.0,-1939.0,-3078.0,0.108,0.702,0.408,-0.573
1082586,-8521.0,-5441.0,-2470.0,0.105,0.703,0.413,-0.57
1082602,-9741.0,-2423.0,-2646.0,0.103,0.702,0.415,-0.569
1082618,-8397.0,-2433.0,-2638.0,0.102,0.702,0.417,-0.568
1082634,-9427.0,-3369.0,-2472.0,0.102,0.701,0.418,-0.569
1082650,-8099.0,-3409.0,-2446.0,0.103,0.7,0.418,-0.57
1082666,-6809.0,-3943.0,-3358.0,0.102,0.7,0.418,-0.57
1082683,-9231.0,-1413.0,-2886.0,0.101,0.699,0.42,-0.57
1082709,-8687.0,-3105.0,-2374.0,0.102,0.699,0.421,-0.569
1082726,-8821.0,-3379.0,-2442.0,0.103,0.699,0.42,-0.57
1082743,-8137.0,-3023.0,-2850.0,0.102,0.698,0.421,-0.57
1082760,-8121.0,-3535.0,-3076.0,0.102,0.699,0.422,-0.569
1082776,-9337.0,-2703.0,-2462.0,0.101,0.699,0.422,-0.568
1082793,-8499.0,-3541.0,-2428.0,0.101,0.699,0.422,-0.568
1082809,-8843.0,-3255.0,-2118.0,0.102,0.7,0.42,-0.569
1082826,-7421.0,-3197.0,-3004.0,0.103,0.701,0.417,-0.57
1082843,-7625.0,-2647.0,-2418.0,0.103,0.701,0.415,-0.57
1082869,-7167.0,-3783.0,-2316.0,0.103,0.702,0.414,-0.57
1082886,-8401.0,-2741.0,-1970.0,0.103,0.702,0.413,-0.571
1082902,-7855.0,-2967.0,-2114.0,0.104,0.701,0.411,-0.573
1082918,-8541.0,-3057.0,-1866.0,0.106,0.701,0.408,-0.575
1082934,-8537.0,-3573.0,-1794.0,0.108,0.7,0.405,-0.578
1082950,-8559.0,-3425.0,-1948.0,0.111,0.699,0.401,-0.581
1082976,-9213.0,-3451.0,-1634.0,0.114,0.698,0.398,-0.584
1082993,-9967.0,-3563.0,-2290.0,0.116,0.697,0.394,-0.587
1083010,-10729.0,-4411.0,-2536.0,0.119,0.696,0.392,-0.59
1083026,-13591.0,-5543.0,-2162.0,0.121,0.696,0.389,-0.591
1083043,-11171.0,-4685.0,-3138.0,0.121,0.696,0.388,-0.592
1083060,-14631.0,-5189.0,-2764.0,0.12,0.696,0.389,-0.591
1083076,-13773.0,-4691.0,-2352.0,0.119,0.696,0.392,-0.59
1083093,-12019.0,-4733.0,-3002.0,0.117,0.696,0.395,-0.588
1083109,-12317.0,-4911.0,-2890.0,0.116,0.696,0.399,-0.586
1083126,-10851.0,-4151.0,-2494.0,0.113,0.696,0.403,-0.584
1083153,-10213.0,-4669.0,-3330.0,0.11,0.696,0.408,-0.581
1083169,-11275.0,-3353.0,-3124.0,0.106,0.696,0.414,-0.577
1083186,-10193.0,-3779.0,-2686.0,0.102,0.696,0.42,-0.573
1083202,-9709.0,-3913.0,-3326.0,0.099,0.696,0.426,-0.569
1083218,-9233.0,-4333.0,-3070.0,0.095,0.696,0.432,-0.566
1083234,-9977.0,-3759.0,-2260.0,0.091,0.697,0.436,-0.562
1083250,-9353.0,-3329.0,-3192.0,0.088,0.697,0.44,-0.56
1083276,-8979.0,-4053.0,-2598.0,0.087,0.696,0.443,-0.558
1083292,-7997.0,-4095.0,-2034.0,0.086,0.696,0.445,-0.558
1083309,-7691.0,-3171.0,-2878.0,0.086,0.695,0.445,-0.558
1083326,-8669.0,-3013.0,-2328.0,0.086,0.694,0.445,-0.559
1083343,-6651.0,-3845.0,-2464.0,0.087,0.694,0.444,-0.56
1083360,-7031.0,-3237.0,-2370.0,0.087,0.693,0.443,-0.562
1083376,-7665.0,-2055.0,-2448.0,0.089,0.693,0.44,-0.564
1083393,-6655.0,-2787.0,-2346.0,0.093,0.693,0.437,-0.566
1083409,-6185.0,-2967.0,-2376.0,0.097,0.693,0.434,-0.568
1083436,-6367.0,-3233.0,-2422.0,0.101,0.693,0.429,-0.571
1083453,-6983.0,-2595.0,-2648.0,0.104,0.694,0.424,-0.573
1083470,-6307.0,-1605.0,-2204.0,0.109,0.694,0.419,-0.575
1083486,-6447.0,-2429.0,-2318.0,0.114,0.695,0.413,-0.577
1083502,-7343.0,-3085.0,-2082.0,0.121,0.696,0.406,-0.579
1083518,-6377.0,-1203.0,-1916.0,0.128,0.698,0.397,-0.582
1083534,-5377.0,-2415.0,-2264.0,0.137,0.699,0.387,-0.585
1083560,-5879.0,-1905.0,-1682.0,0.146,0.7,0.377,-0.588
1083577,-4847.0,-813.0,-1390.0,0.157,0.701,0.366,-0.592
1083594,-3641.0,67.0,-826.0,0.172,0.701,0.354,-0.595
1083611,-2361.0,-1983.0,-988.0,0.187,0.701,0.341,-0.598
1083628,-2075.0,-443.0,-978.0,0.2,0.701,0.328,-0.601
1083644,-1283.0,-283.0,-1234.0,0.211,0.701,0.318,-0.603
1083660,-823.0,-1985.0,-1224.0,0.218,0.701,0.311,-0.603
1083676,-853.0,-2425.0,-1144.0,0.218,0.704,0.305,-0.603
1083693,-905.0,-889.0,-788.0,0.215,0.707,0.303,-0.601
1083719,-1685.0,-155.0,-480.0,0.21,0.71,0.306,-0.598
1083735,-2059.0,-1133.0,-574.0,0.205,0.713,0.313,-0.593
1083751,-1943.0,-3229.0,-738.0,0.196,0.715,0.322,-0.589
1083767,-2579.0,-2681.0,-464.0,0.182,0.717,0.334,-0.584
1083783,-4203.0,-369.0,-840.0,0.165,0.718,0.348,-0.58
1083799,-4155.0,1891.0,-1384.0,0.154,0.717,0.362,-0.575
1083825,-5011.0,-2177.0,-920.0,0.144,0.717,0.374,-0.57
1083842,-5523.0,-747.0,-2460.0,0.136,0.716,0.384,-0.567
1083858,-7785.0,-527.0,-3010.0,0.13,0.716,0.391,-0.564
1083875,-6813.0,-3311.0,-3262.0,0.125,0.715,0.399,-0.559
1083892,-8651.0,-1515.0,-2444.0,0.12,0.715,0.408,-0.555
1083909,-9187.0,-3233.0,-3404.0,0.116,0.714,0.414,-0.552
1083925,-9317.0,-2391.0,-3100.0,0.114,0.713,0.417,-0.551
1083942,-7983.0,-2781.0,-3190.0,0.112,0.712,0.422,-0.55
1083958,-8283.0,-3617.0,-3486.0,0.11,0.71,0.427,-0.549
1083975,-9255.0,-4119.0,-3326.0,0.108,0.708,0.431,-0.549
1084002,-9229.0,-2705.0,-2882.0,0.107,0.706,0.432,-0.551
1084019,-8555.0,-3685.0,-3586.0,0.107,0.704,0.434,-0.552
1084035,-9101.0,-3901.0,-3508.0,0.107,0.702,0.433,-0.555
1084051,-9037.0,-3267.0,-3272.0,0.107,0.701,0.432,-0.557
1084067,-8785.0,-2997.0,-3298.0,0.108,0.7,0.43,-0.559
1084083,-9195.0,-3655.0,-2962.0,0.108,0.699,0.429,-0.562
1084100,-8773.0,-3245.0,-2796.0,0.11,0.698,0.427,-0.564
1084126,-8117.0,-4127.0,-3236.0,0.111,0.697,0.425,-0.566
1084142,-8271.0,-2761.0,-2422.0,0.111,0.697,0.423,-0.568
1084159,-8291.0,-3649.0,-2276.0,0.112,0.697,0.422,-0.569
1084176,-8941.0,-2217.0,-2470.0,0.113,0.697,0.42,-0.571
1084192,-8047.0,-3641.0,-1692.0,0.114,0.696,0.418,-0.573
1084209,-8509.0,-3311.0,-1960.0,0.115,0.695,0.416,-0.575
1084226,-8367.0,-2717.0,-2356.0,0.116,0.695,0.414,-0.577
1084242,-8267.0,-2901.0,-1854.0,0.118,0.694,0.412,-0.578
1084259,-8591.0,-2939.0,-1872.0,0.12,0.694,0.41,-0.58
1084276,-8351.0,-2725.0,-1842.0,0.122,0.693,0.408,-0.582
1084303,-8099.0,-2877.0,-1510.0,0.123,0.692,0.406,-0.584
1084320,-8261.0,-2743.0,-1500.0,0.125,0.691,0.404,-0.586
1084336,-7233.0,-3675.0,-1984.0,0.126,0.691,0.402,-0.587
1084352,-8077.0,-2607.0,-1522.0,0.127,0.691,0.401,-0.588
1084368,-7945.0,-2807.0,-1626.0,0.128,0.691,0.399,-0.589
1084384,-7869.0,-2605.0,-1996.0,0.13,0.692,0.397,-0.589
1084400,-8125.0,-3163.0,-1418.0,0.131,0.692,0.395,-0.589
1084426,-8263.0,-2715.0,-1670.0,0.133,0.693,0.393,-0.59
1084442,-8153.0,-2635.0,-1952.0,0.134,0.693,0.392,-0.59
1084459,-8735.0,-2949.0,-1480.0,0.136,0.693,0.391,-0.591
1084476,-8901.0,-3125.0,-1656.0,0.138,0.692,0.39,-0.591
1084492,-9553.0,-3707.0,-2046.0,0.139,0.692,0.389,-0.592
1084509,-9915.0,-3383.0,-1842.0,0.14,0.692,0.389,-0.591
1084526,-10429.0,-3739.0,-1850.0,0.14,0.693,0.39,-0.591
1084542,-10987.0,-3375.0,-2362.0,0.141,0.693,0.391,-0.589
1084569,-10931.0,-3345.0,-2704.0,0.141,0.694,0.393,-0.587
1084585,-11287.0,-4219.0,-3352.0,0.141,0.695,0.396,-0.583
1084602,-11261.0,-3791.0,-3598.0,0.139,0.697,0.4,-0.578
1084619,-11131.0,-4471.0,-3448.0,0.137,0.699,0.405,-0.572
1084636,-11897.0,-3987.0,-3380.0,0.134,0.702,0.411,-0.566
1084652,-10697.0,-3645.0,-3036.0,0.132,0.704,0.417,-0.56
1084668,-9711.0,-4053.0,-2524.0,0.129,0.705,0.423,-0.554
1084684,-9773.0,-3669.0,-2548.0,0.127,0.706,0.428,-0.549
1084710,-8629.0,-3529.0,-2614.0,0.125,0.707,0.433,-0.545
1084727,-8717.0,-2697.0,-2376.0,0.124,0.707,0.438,-0.542
1084744,-7843.0,-3327.0,-2294.0,0.123,0.706,0.441,-0.541
1084760,-7795.0,-2781.0,-2186.0,0.123,0.704,0.444,-0.54
1084777,-7255.0,-2855.0,-2902.0,0.123,0.703,0.446,-0.54
1084794,-7255.0,-2717.0,-2386.0,0.123,0.702,0.448,-0.54
1084811,-7317.0,-3061.0,-1926.0,0.123,0.7,0.449,-0.541
1084828,-7933.0,-2491.0,-2616.0,0.124,0.699,0.45,-0.542
1084845,-6615.0,-2759.0,-2826.0,0.125,0.699,0.45,-0.542
1084862,-6843.0,-3117.0,-2688.0,0.125,0.699,0.45,-0.541
1084879,-7617.0,-2589.0,-2608.0,0.126,0.699,0.45,-0.541
1084896,-7713.0,-2927.0,-2604.0,0.127,0.699,0.45,-0.541
1084923,-7591.0,-2115.0,-2794.0,0.129,0.7,0.449,-0.541
1084940,-7405.0,-2949.0,-2614.0,0.131,0.7,0.447,-0.541
1084956,-7195.0,-3197.0,-2562.0,0.133,0.7,0.445,-0.542
1084972,-7463.0,-2155.0,-2732.0,0.134,0.701,0.443,-0.543
1084988,-7347.0,-2821.0,-2218.0,0.136,0.701,0.44,-0.544
1085004,-7161.0,-2849.0,-2484.0,0.138,0.701,0.437,-0.546
1085021,-7583.0,-1847.0,-2400.0,0.14,0.701,0.434,-0.549
1085047,-6723.0,-2195.0,-2416.0,0.143,0.701,0.43,-0.551
1085064,-6613.0,-3145.0,-2736.0,0.146,0.701,0.426,-0.553
1085080,-7325.0,-2515.0,-2356.0,0.148,0.702,0.422,-0.555
1085097,-6923.0,-2365.0,-2768.0,0.151,0.703,0.417,-0.556
1085114,-7819.0,-1873.0,-2488.0,0.155,0.704,0.411,-0.558
1085131,-7301.0,-1783.0,-2302.0,0.16,0.705,0.403,-0.561
1085148,-6953.0,-2743.0,-2498.0,0.166,0.706,0.394,-0.564
1085164,-6927.0,-203.0,-2012.0,0.172,0.706,0.385,-0.568
1085181,-5153.0,-745.0,-1662.0,0.181,0.705,0.376,-0.574
1085207,-4337.0,-949.0,-1222.0,0.191,0.702,0.366,-0.58
1085224,-2991.0,-353.0,-1194.0,0.201,0.699,0.358,-0.586
1085241,-1023.0,-803.0,-1500.0,0.21,0.695,0.352,-0.591
1085258,-275.0,-1981.0,-1658.0,0.215,0.692,0.349,-0.594
1085275,-485.0,-1453.0,-1530.0,0.216,0.691,0.348,-0.595
1085291,-741.0,-1215.0,-1000.0,0.214,0.692,0.351,-0.594
1085307,-1011.0,-1479.0,-664.0,0.209,0.692,0.355,-0.592
1085324,-1155.0,-1275.0,-772.0,0.203,0.693,0.361,-0.59
1085341,-1465.0,-1869.0,-598.0,0.194,0.694,0.369,-0.587
1085358,-1977.0,-1723.0,-1096.0,0.183,0.695,0.378,-0.583
1085375,-2555.0,1285.0,-1366.0,0.172,0.697,0.387,-0.579
1085401,-2857.0,-869.0,-2304.0,0.163,0.698,0.398,-0.573
1085417,-5465.0,-101.0,-1732.0,0.155,0.7,0.407,-0.566
1085433,-5861.0,-1493.0,-2234.0,0.148,0.701,0.416,-0.56
1085449,-7593.0,-1973.0,-1806.0,0.143,0.701,0.423,-0.556
1085465,-7683.0,-2085.0,-2292.0,0.14,0.699,0.43,-0.553
1085481,-7037.0,-3285.0,-3718.0,0.137,0.698,0.437,-0.551
1085507,-8559.0,-1843.0,-3064.0,0.134,0.697,0.443,-0.548
1085523,-7925.0,-3275.0,-3206.0,0.132,0.696,0.447,-0.545
1085540,-10087.0,-3357.0,-2202.0,0.131,0.695,0.45,-0.545
1085556,-8409.0,-3431.0,-3300.0,0.131,0.694,0.452,-0.545
1085572,-9475.0,-2929.0,-2772.0,0.131,0.692,0.453,-0.547
1085588,-8513.0,-3299.0,-3118.0,0.131,0.69,0.453,-0.549
1085604,-8107.0,-3603.0,-3454.0,0.132,0.689,0.453,-0.551
1085631,-8477.0,-3127.0,-3268.0,0.13,0.688,0.454,-0.551
1085648,-9131.0,-2923.0,-2916.0,0.13,0.688,0.455,-0.551
1085664,-9715.0,-2721.0,-2638.0,0.13,0.687,0.454,-0.553
1085681,-8125.0,-3947.0,-3200.0,0.13,0.686,0.452,-0.554
1085698,-9267.0,-3193.0,-2488.0,0.13,0.686,0.451,-0.556
1085714,-8409.0,-3717.0,-2656.0,0.129,0.685,0.45,-0.559
1085731,-8919.0,-3663.0,-2302.0,0.128,0.684,0.448,-0.562
1085748,-8395.0,-4111.0,-2352.0,0.126,0.683,0.445,-0.565
1085765,-8757.0,-4443.0,-1284.0,0.123,0.682,0.441,-0.571
1085781,-7805.0,-3575.0,-2286.0,0.119,0.68,0.436,-0.577
1085807,-8729.0,-2339.0,-2594.0,0.117,0.679,0.432,-0.582
1085824,-8625.0,-2851.0,-1900.0,0.116,0.678,0.429,-0.585
1085841,-8303.0,-3147.0,-1806.0,0.116,0.679,0.425,-0.588
1085858,-8393.0,-3221.0,-2152.0,0.117,0.68,0.421,-0.589
1085875,-8655.0,-2345.0,-2102.0,0.119,0.68,0.417,-0.59
1085891,-8217.0,-3507.0,-1946.0,0.123,0.681,0.415,-0.591
1085908,-8643.0,-3707.0,-1640.0,0.126,0.682,0.412,-0.591
1085924,-9211.0,-3749.0,-992.0,0.128,0.683,0.409,-0.591
1085941,-9251.0,-3469.0,-1642.0,0.131,0.683,0.406,-0.592
1085968,-9247.0,-4341.0,-2138.0,0.133,0.684,0.404,-0.593
1085985,-10473.0,-4177.0,-2134.0,0.134,0.684,0.403,-0.593
1086001,-10455.0,-3847.0,-2496.0,0.135,0.684,0.403,-0.592
1086017,-11669.0,-4567.0,-2364.0,0.136,0.684,0.404,-0.592
1086033,-11821.0,-4655.0,-2346.0,0.136,0.684,0.405,-0.591
1086049,-12021.0,-4313.0,-2948.0,0.135,0.684,0.407,-0.59
1086065,-11647.0,-4759.0,-3118.0,0.135,0.684,0.41,-0.588
1086091,-11643.0,-4897.0,-2322.0,0.133,0.684,0.414,-0.586
1086108,-11679.0,-4983.0,-2774.0,0.131,0.683,0.418,-0.584
1086124,-11161.0,-4011.0,-2316.0,0.129,0.682,0.423,-0.582
1086141,-10143.0,-3657.0,-2358.0,0.127,0.681,0.428,-0.58
1086158,-9769.0,-3463.0,-2408.0,0.125,0.68,0.433,-0.579
1086175,-8711.0,-3637.0,-2598.0,0.124,0.679,0.437,-0.577
1086192,-7997.0,-3769.0,-2476.0,0.122,0.678,0.441,-0.575
1086208,-8053.0,-3555.0,-2178.0,0.119,0.678,0.445,-0.573
1086224,-7887.0,-3365.0,-1914.0,0.117,0.677,0.448,-0.572
1086241,-7995.0,-2925.0,-2120.0,0.116,0.676,0.45,-0.571
1086268,-7779.0,-2745.0,-1956.0,0.117,0.676,0.451,-0.571
1086284,-6047.0,-3761.0,-2176.0,0.116,0.676,0.452,-0.571
1086300,-6875.0,-2841.0,-2398.0,0.115,0.676,0.452,-0.571
1086316,-7329.0,-2571.0,-2090.0,0.115,0.676,0.451,-0.571
1086332,-6731.0,-2463.0,-1938.0,0.117,0.676,0.45,-0.571
1086348,-5841.0,-3517.0,-2348.0,0.118,0.677,0.448,-0.572
1086374,-7227.0,-2249.0,-2054.0,0.119,0.678,0.447,-0.572
1086391,-6709.0,-2765.0,-1898.0,0.12,0.679,0.445,-0.572
1086408,-7029.0,-2557.0,-2008.0,0.121,0.68,0.443,-0.571
1086424,-7453.0,-2757.0,-1670.0,0.123,0.681,0.44,-0.572
1086441,-7687.0,-2789.0,-1666.0,0.126,0.681,0.437,-0.574
1086457,-6941.0,-2701.0,-2470.0,0.128,0.681,0.435,-0.576
1086474,-7301.0,-3341.0,-2284.0,0.131,0.68,0.432,-0.577
1086491,-8535.0,-3185.0,-1400.0,0.132,0.68,0.428,-0.58
1086508,-8345.0,-2791.0,-1738.0,0.135,0.679,0.423,-0.584
1086524,-8477.0,-2805.0,-1902.0,0.14,0.678,0.417,-0.588
1086551,-7439.0,-1993.0,-1644.0,0.146,0.677,0.41,-0.593
1086567,-6103.0,-2621.0,-2270.0,0.152,0.677,0.403,-0.597
1086583,-6611.0,-1611.0,-2028.0,0.157,0.677,0.394,-0.601
1086599,-5881.0,-1725.0,-1706.0,0.163,0.679,0.385,-0.604
1086615,-6721.0,103.0,-932.0,0.172,0.679,0.376,-0.607
1086631,-5753.0,-1503.0,-426.0,0.182,0.677,0.366,-0.611
1086657,-4595.0,-1495.0,-1354.0,0.192,0.675,0.357,-0.616
1086674,-4129.0,547.0,-876.0,0.203,0.673,0.348,-0.62
1086691,-2925.0,-849.0,-738.0,0.215,0.67,0.342,-0.623
1086708,-2701.0,-1825.0,-1122.0,0.223,0.669,0.337,-0.624
1086724,-2205.0,-1713.0,-1214.0,0.227,0.669,0.333,-0.625
1086741,-2327.0,-1359.0,-434.0,0.226,0.671,0.332,-0.624
1086758,-2395.0,-1113.0,-458.0,0.223,0.672,0.333,-0.622
1086774,-2045.0,-1581.0,-370.0,0.218,0.674,0.335,-0.621
1086791,-2575.0,-843.0,40.0,0.21,0.676,0.34,-0.619
1086817,-2805.0,-1401.0,-254.0,0.202,0.678,0.346,-0.616
1086833,-2969.0,-1197.0,-276.0,0.192,0.68,0.355,-0.613
1086849,-3617.0,-141.0,-40.0,0.183,0.681,0.364,-0.608
1086865,-3421.0,-1311.0,-224.0,0.175,0.682,0.374,-0.604
1086881,-4115.0,-2703.0,-1692.0,0.166,0.683,0.383,-0.599
1086897,-6371.0,-287.0,-1138.0,0.158,0.685,0.393,-0.593
1086914,-6051.0,-2309.0,-1088.0,0.151,0.686,0.402,-0.587
1086940,-6625.0,-2969.0,-2256.0,0.145,0.686,0.41,-0.583
1086956,-7187.0,-2097.0,-3272.0,0.137,0.688,0.42,-0.576
1086972,-8115.0,-2733.0,-1590.0,0.133,0.688,0.429,-0.57
1086989,-9079.0,-3707.0,-1432.0,0.13,0.687,0.435,-0.568
1087006,-8045.0,-2897.0,-2584.0,0.127,0.685,0.44,-0.567
1087023,-7455.0,-2529.0,-2754.0,0.127,0.683,0.442,-0.567
1087040,-7473.0,-2733.0,-2194.0,0.125,0.682,0.447,-0.566
1087057,-7209.0,-2917.0,-2754.0,0.124,0.68,0.449,-0.566
1087074,-8295.0,-2915.0,-2636.0,0.123,0.679,0.451,-0.566
1087091,-7307.0,-3193.0,-2712.0,0.122,0.678,0.453,-0.567
1087117,-7585.0,-2935.0,-2758.0,0.122,0.676,0.454,-0.567
1087133,-7905.0,-3501.0,-3584.0,0.121,0.675,0.455,-0.567
1087149,-8817.0,-2945.0,-3030.0,0.121,0.675,0.457,-0.567
1087165,-8571.0,-4239.0,-2368.0,0.122,0.674,0.457,-0.567
1087181,-9103.0,-3521.0,-2832.0,0.122,0.674,0.455,-0.569
1087197,-9047.0,-3475.0,-2900.0,0.123,0.675,0.453,-0.57
1087224,-8937.0,-3205.0,-2380.0,0.125,0.675,0.451,-0.571
1087241,-8625.0,-3793.0,-2378.0,0.126,0.675,0.448,-0.573
1087257,-8797.0,-3605.0,-2402.0,0.127,0.674,0.445,-0.575
1087274,-8159.0,-3089.0,-2450.0,0.128,0.674,0.443,-0.577
1087290,-8255.0,-4231.0,-2070.0,0.13,0.674,0.44,-0.578
1087307,-8961.0,-3327.0,-1922.0,0.131,0.674,0.438,-0.581
1087324,-8635.0,-3031.0,-1982.0,0.132,0.674,0.434,-0.583
1087341,-8719.0,-3059.0,-2118.0,0.134,0.674,0.431,-0.585
1087357,-8661.0,-3091.0,-1976.0,0.137,0.675,0.427,-0.587
1087374,-8113.0,-3587.0,-1828.0,0.139,0.676,0.423,-0.587
1087400,-8617.0,-3093.0,-1852.0,0.14,0.677,0.42,-0.588
1087416,-8505.0,-3025.0,-1880.0,0.142,0.679,0.417,-0.588
1087432,-8673.0,-3161.0,-1362.0,0.144,0.68,0.414,-0.588
1087448,-8383.0,-2909.0,-1856.0,0.145,0.681,0.411,-0.589
1087464,-8351.0,-2969.0,-2008.0,0.146,0.682,0.408,-0.589
1087480,-9015.0,-3273.0,-1486.0,0.147,0.683,0.406,-0.589
1087507,-10741.0,-3879.0,-1576.0,0.149,0.683,0.405,-0.589
1087524,-10897.0,-4213.0,-1828.0,0.15,0.683,0.404,-0.59
1087541,-11151.0,-4495.0,-1868.0,0.151,0.682,0.404,-0.59
1087557,-11967.0,-4617.0,-1958.0,0.151,0.681,0.405,-0.591
1087573,-11143.0,-4525.0,-2292.0,0.15,0.68,0.407,-0.591
1087590,-10573.0,-3849.0,-2296.0,0.149,0.679,0.41,-0.591
1087607,-10883.0,-4375.0,-1958.0,0.148,0.678,0.413,-0.59
1087624,-10021.0,-3825.0,-2368.0,0.146,0.677,0.417,-0.589
1087640,-9761.0,-3837.0,-2454.0,0.144,0.676,0.421,-0.587
1087657,-9589.0,-3921.0,-2464.0,0.141,0.676,0.427,-0.584
1087684,-8899.0,-3609.0,-2840.0,0.138,0.677,0.433,-0.58
1087700,-8851.0,-3449.0,-2806.0,0.134,0.678,0.439,-0.574
1087716,-8879.0,-3643.0,-2544.0,0.132,0.68,0.444,-0.568
1087732,-8849.0,-3257.0,-2698.0,0.13,0.682,0.45,-0.562
1087748,-7983.0,-3739.0,-2726.0,0.128,0.684,0.454,-0.556
1087764,-8685.0,-3693.0,-1984.0,0.126,0.685,0.459,-0.551
1087790,-8485.0,-3613.0,-2200.0,0.124,0.686,0.462,-0.549
1087806,-8061.0,-3637.0,-2446.0,0.124,0.685,0.465,-0.548
1087823,-8615.0,-3327.0,-1920.0,0.124,0.683,0.467,-0.547
1087840,-7759.0,-3793.0,-2284.0,0.124,0.681,0.468,-0.549
1087856,-7631.0,-3111.0,-2554.0,0.125,0.679,0.468,-0.552
1087873,-7923.0,-3063.0,-2090.0,0.126,0.677,0.468,-0.554
1087889,-7825.0,-3305.0,-2130.0,0.128,0.676,0.467,-0.556
1087905,-7511.0,-3093.0,-2178.0,0.13,0.674,0.466,-0.558
1087931,-7037.0,-3177.0,-2248.0,0.132,0.673,0.464,-0.56
1087947,-7279.0,-3011.0,-2278.0,0.135,0.673,0.462,-0.562
1087963,-7341.0,-2695.0,-2288.0,0.138,0.673,0.46,-0.563
1087979,-7147.0,-3081.0,-1988.0,0.14,0.673,0.458,-0.563
1087995,-7565.0,-3033.0,-1644.0,0.143,0.673,0.455,-0.565
1088011,-6983.0,-2545.0,-2784.0,0.145,0.674,0.453,-0.565
1088037,-6939.0,-3007.0,-1842.0,0.148,0.675,0.45,-0.566
1088053,-7013.0,-2233.0,-1452.0,0.15,0.676,0.447,-0.566
1088069,-7143.0,-3175.0,-2356.0,0.153,0.678,0.442,-0.567
1088086,-7333.0,-2749.0,-2170.0,0.156,0.679,0.437,-0.569
1088103,-6963.0,-2201.0,-1554.0,0.159,0.68,0.432,-0.57
1088120,-6905.0,-2743.0,-2130.0,0.163,0.681,0.425,-0.573
1088137,-7729.0,-2033.0,-2196.0,0.168,0.682,0.418,-0.576
1088154,-7249.0,-1645.0,-1716.0,0.175,0.683,0.409,-0.58
1088171,-6367.0,-1597.0,-1988.0,0.183,0.682,0.4,-0.584
1088188,-6293.0,-1261.0,-1500.0,0.192,0.681,0.39,-0.589
1088215,-4695.0,-1715.0,-1378.0,0.202,0.679,0.38,-0.595
1088231,-3411.0,-475.0,-1280.0,0.212,0.676,0.37,-0.601
1088247,-2107.0,-969.0,-1252.0,0.222,0.672,0.363,-0.606
1088263,-1475.0,-847.0,-968.0,0.229,0.67,0.358,-0.609
1088279,-803.0,-899.0,-1118.0,0.234,0.668,0.355,-0.611
1088295,-443.0,-1307.0,-1042.0,0.235,0.667,0.354,-0.612
1088321,-575.0,-1443.0,-986.0,0.233,0.667,0.356,-0.611
1088337,-841.0,-1473.0,-854.0,0.227,0.669,0.359,-0.609
1088353,-1257.0,-1373.0,-590.0,0.219,0.672,0.364,-0.606
1088369,-1759.0,-2165.0,-676.0,0.207,0.676,0.371,-0.602
1088385,-2913.0,1649.0,-948.0,0.195,0.68,0.38,-0.596
1088401,-3273.0,-925.0,-912.0,0.186,0.682,0.391,-0.589
1088427,-3749.0,-3427.0,-1756.0,0.178,0.685,0.399,-0.582
1088443,-7645.0,77.0,-1294.0,0.17,0.688,0.408,-0.576
1088459,-7053.0,-2417.0,-1570.0,0.166,0.688,0.415,-0.572
1088475,-7819.0,-1955.0,-2438.0,0.162,0.688,0.422,-0.567
1088492,-7969.0,-2629.0,-3382.0,0.158,0.69,0.428,-0.562
1088509,-9759.0,-2589.0,-1630.0,0.156,0.691,0.432,-0.559
1088526,-8895.0,-3203.0,-2448.0,0.154,0.691,0.435,-0.556
1088543,-9673.0,-2727.0,-2582.0,0.154,0.691,0.436,-0.555
1088560,-8985.0,-2317.0,-2646.0,0.153,0.692,0.436,-0.554
1088587,-8227.0,-2901.0,-2170.0,0.154,0.692,0.436,-0.554
1088603,-8725.0,-2589.0,-3402.0,0.153,0.692,0.436,-0.554
1088620,-7435.0,-3283.0,-3556.0,0.152,0.693,0.437,-0.553
1088637,-8561.0,-2181.0,-2486.0,0.151,0.694,0.438,-0.551
1088653,-8701.0,-3039.0,-3054.0,0.15,0.695,0.438,-0.55
1088670,-9415.0,-3083.0,-1984.0,0.15,0.696,0.437,-0.55
1088687,-8209.0,-2303.0,-2684.0,0.151,0.697,0.435,-0.55
1088704,-7777.0,-3089.0,-2604.0,0.151,0.697,0.434,-0.551
1088721,-8125.0,-3003.0,-2180.0,0.151,0.697,0.433,-0.551
1088738,-8869.0,-2863.0,-2156.0,0.151,0.698,0.431,-0.552
1088755,-8141.0,-2573.0,-2564.0,0.152,0.698,0.429,-0.553
1088772,-8617.0,-2691.0,-2238.0,0.153,0.698,0.426,-0.554
1088799,-9035.0,-2927.0,-2400.0,0.154,0.698,0.423,-0.556
1088816,-8537.0,-2855.0,-2266.0,0.156,0.698,0.42,-0.559
1088832,-8913.0,-2791.0,-1974.0,0.158,0.697,0.417,-0.561
1088849,-8799.0,-2971.0,-2072.0,0.16,0.697,0.414,-0.563
1088866,-8665.0,-2585.0,-2178.0,0.162,0.697,0.41,-0.566
1088882,-8819.0,-2477.0,-1738.0,0.164,0.696,0.407,-0.568
1088899,-8753.0,-2485.0,-1876.0,0.166,0.696,0.403,-0.571
1088915,-9021.0,-2489.0,-1604.0,0.168,0.695,0.4,-0.573
1088932,-8995.0,-2533.0,-1112.0,0.171,0.694,0.396,-0.576
1088958,-8297.0,-2439.0,-1810.0,0.174,0.693,0.392,-0.579
1088975,-8185.0,-2353.0,-1746.0,0.176,0.692,0.389,-0.582
1088992,-8601.0,-2113.0,-1392.0,0.178,0.692,0.386,-0.583
1089009,-8711.0,-1973.0,-1592.0,0.179,0.692,0.384,-0.585
1089026,-8675.0,-2063.0,-1674.0,0.181,0.691,0.382,-0.586
1089043,-8981.0,-2025.0,-1394.0,0.182,0.691,0.38,-0.587
1089059,-9607.0,-2089.0,-1448.0,0.183,0.69,0.379,-0.588
1089076,-10497.0,-2541.0,-1614.0,0.184,0.69,0.379,-0.589
1089093,-10101.0,-2413.0,-1578.0,0.184,0.689,0.379,-0.589
1089110,-10603.0,-2835.0,-2312.0,0.184,0.689,0.38,-0.589
1089126,-11381.0,-3061.0,-2146.0,0.183,0.69,0.382,-0.587
1089153,-10939.0,-2963.0,-2322.0,0.181,0.691,0.385,-0.584
1089170,-11613.0,-3309.0,-2464.0,0.179,0.693,0.388,-0.581
1089186,-11949.0,-3085.0,-2530.0,0.176,0.693,0.392,-0.578
1089202,-11087.0,-3513.0,-2564.0,0.174,0.694,0.397,-0.575
1089219,-11391.0,-3379.0,-2722.0,0.17,0.694,0.403,-0.572
1089236,-11619.0,-3237.0,-2072.0,0.168,0.693,0.408,-0.57
1089253,-10321.0,-3233.0,-2168.0,0.165,0.692,0.413,-0.569
1089270,-10043.0,-3007.0,-2362.0,0.162,0.69,0.418,-0.569
1089286,-9461.0,-3183.0,-2062.0,0.16,0.687,0.422,-0.569
1089303,-8977.0,-2633.0,-2232.0,0.158,0.684,0.427,-0.57
1089330,-8819.0,-3003.0,-2150.0,0.156,0.681,0.431,-0.571
1089346,-8955.0,-2823.0,-1582.0,0.155,0.677,0.435,-0.574
1089362,-8339.0,-2845.0,-1906.0,0.155,0.672,0.437,-0.577
1089379,-8269.0,-2629.0,-1996.0,0.155,0.668,0.439,-0.581
1089396,-7535.0,-3091.0,-1714.0,0.154,0.664,0.44,-0.584
1089413,-7809.0,-3471.0,-1434.0,0.154,0.661,0.44,-0.588
1089429,-7889.0,-3133.0,-1648.0,0.153,0.659,0.44,-0.591
1089445,-8169.0,-2443.0,-1274.0,0.155,0.657,0.438,-0.594
1089472,-6589.0,-2857.0,-2154.0,0.156,0.656,0.436,-0.596
1089489,-7529.0,-2837.0,-1446.0,0.158,0.656,0.435,-0.597
1089506,-7365.0,-2609.0,-1576.0,0.16,0.656,0.434,-0.597
1089522,-7881.0,-3225.0,-1202.0,0.162,0.656,0.433,-0.596
1089539,-6885.0,-2861.0,-1572.0,0.164,0.658,0.43,-0.596
1089556,-7939.0,-2277.0,-840.0,0.166,0.66,0.427,-0.596
1089573,-7175.0,-3405.0,-1368.0,0.169,0.661,0.423,-0.596
1089590,-6943.0,-2407.0,-1388.0,0.172,0.663,0.418,-0.597
1089607,-7369.0,-1869.0,-1062.0,0.175,0.664,0.413,-0.598
1089623,-6971.0,-2517.0,-1710.0,0.179,0.665,0.408,-0.599
1089649,-7201.0,-2185.0,-1168.0,0.182,0.666,0.402,-0.601
1089665,-7881.0,-1657.0,-850.0,0.187,0.667,0.395,-0.603
1089681,-7347.0,-2717.0,-1676.0,0.192,0.667,0.388,-0.607
1089697,-6489.0,-1553.0,-1160.0,0.198,0.667,0.379,-0.61
1089713,-6191.0,-307.0,-1074.0,0.204,0.667,0.37,-0.613
1089729,-4715.0,-1297.0,-1052.0,0.213,0.666,0.361,-0.617
1089755,-3437.0,-779.0,-724.0,0.222,0.665,0.352,-0.62
1089771,-2435.0,-191.0,-652.0,0.23,0.665,0.344,-0.622
1089787,-1827.0,-571.0,-284.0,0.239,0.664,0.337,-0.624
1089803,-911.0,-1359.0,-320.0,0.245,0.663,0.332,-0.625
1089819,-1289.0,-1109.0,-388.0,0.248,0.662,0.329,-0.626
1089836,-1343.0,-1773.0,-552.0,0.247,0.663,0.329,-0.626
1089862,-1483.0,-1835.0,-530.0,0.242,0.663,0.333,-0.625
1089878,-1489.0,-1295.0,-848.0,0.234,0.664,0.34,-0.623
1089895,-2029.0,-821.0,-172.0,0.223,0.666,0.349,-0.621
1089911,-2139.0,-2879.0,-776.0,0.211,0.668,0.358,-0.617
1089928,-3685.0,753.0,-756.0,0.196,0.672,0.368,-0.612
1089944,-6165.0,-1011.0,-640.0,0.186,0.675,0.377,-0.606
1089960,-7315.0,-213.0,-508.0,0.179,0.677,0.385,-0.601
1089976,-7101.0,-3275.0,-1938.0,0.173,0.677,0.391,-0.599
1090003,-7879.0,-1269.0,-2300.0,0.169,0.677,0.397,-0.596
1090020,-7513.0,-1819.0,-1946.0,0.164,0.678,0.404,-0.592
1090037,-9413.0,-2383.0,-1766.0,0.161,0.677,0.41,-0.589
1090053,-9109.0,-1561.0,-1558.0,0.16,0.677,0.415,-0.587
1090069,-6401.0,-4347.0,-2296.0,0.157,0.677,0.421,-0.583
1090086,-8417.0,-2719.0,-2260.0,0.152,0.677,0.426,-0.58
1090103,-9485.0,-2725.0,-1574.0,0.148,0.677,0.431,-0.578
1090120,-9661.0,-1829.0,-1322.0,0.146,0.677,0.434,-0.576
1090136,-8103.0,-3531.0,-2598.0,0.145,0.676,0.435,-0.576
1090162,-8827.0,-3345.0,-2634.0,0.145,0.676,0.436,-0.577
1090178,-8579.0,-2937.0,-2348.0,0.143,0.676,0.437,-0.576
1090194,-7989.0,-3835.0,-2576.0,0.142,0.676,0.438,-0.575
1090211,-9987.0,-3035.0,-2124.0,0.141,0.675,0.439,-0.576
1090227,-8559.0,-3317.0,-1842.0,0.142,0.674,0.438,-0.578
1090243,-7499.0,-4165.0,-1942.0,0.141,0.673,0.437,-0.58
1090259,-8767.0,-3267.0,-1702.0,0.141,0.672,0.436,-0.582
1090286,-7711.0,-3629.0,-2108.0,0.14,0.671,0.435,-0.584
1090303,-7813.0,-3557.0,-1914.0,0.141,0.669,0.433,-0.587
1090320,-8199.0,-3505.0,-1558.0,0.141,0.669,0.432,-0.589
1090337,-8429.0,-3315.0,-1534.0,0.141,0.668,0.429,-0.592
1090354,-7789.0,-2793.0,-1518.0,0.142,0.667,0.427,-0.594
1090371,-7319.0,-3599.0,-1330.0,0.143,0.666,0.425,-0.596
1090388,-8045.0,-2603.0,-1406.0,0.143,0.666,0.423,-0.598
1090405,-7269.0,-3231.0,-1708.0,0.142,0.666,0.422,-0.598
1090422,-8069.0,-2705.0,-1068.0,0.142,0.667,0.421,-0.598
1090439,-8347.0,-3165.0,-1086.0,0.142,0.668,0.419,-0.598
1090456,-8019.0,-2507.0,-1518.0,0.143,0.669,0.418,-0.598
1090473,-8441.0,-2773.0,-934.0,0.144,0.67,0.417,-0.597
1090490,-8161.0,-3481.0,-1092.0,0.146,0.671,0.415,-0.597
1090507,-8213.0,-3065.0,-1224.0,0.147,0.672,0.413,-0.597
1090534,-8119.0,-2875.0,-1114.0,0.148,0.673,0.411,-0.597
1090551,-8319.0,-2831.0,-1152.0,0.149,0.674,0.409,-0.598
1090568,-7777.0,-3345.0,-1372.0,0.151,0.674,0.407,-0.598
1090585,-8577.0,-2887.0,-834.0,0.152,0.674,0.405,-0.599
1090602,-8483.0,-2865.0,-1182.0,0.153,0.674,0.403,-0.6
1090619,-8581.0,-2925.0,-1132.0,0.155,0.673,0.4,-0.602
1090635,-8787.0,-2873.0,-1010.0,0.158,0.672,0.398,-0.604
1090652,-8771.0,-3447.0,-1174.0,0.16,0.671,0.395,-0.607
1090668,-8919.0,-3437.0,-1684.0,0.162,0.669,0.394,-0.609
1090684,-10463.0,-3789.0,-1230.0,0.163,0.668,0.392,-0.611
1090710,-10543.0,-3785.0,-1764.0,0.164,0.668,0.392,-0.612
1090726,-11257.0,-3995.0,-1740.0,0.164,0.667,0.392,-0.612
1090742,-11709.0,-4309.0,-1308.0,0.165,0.665,0.393,-0.613
1090759,-11611.0,-4227.0,-1882.0,0.165,0.664,0.395,-0.613
1090775,-11383.0,-4309.0,-2198.0,0.164,0.664,0.397,-0.612
1090791,-10679.0,-4217.0,-1750.0,0.163,0.664,0.4,-0.611
1090817,-11129.0,-4461.0,-2244.0,0.161,0.664,0.404,-0.608
1090834,-11061.0,-4135.0,-2006.0,0.159,0.665,0.408,-0.605
1090850,-10537.0,-3427.0,-1542.0,0.157,0.666,0.412,-0.601
1090866,-10009.0,-3973.0,-1790.0,0.155,0.667,0.416,-0.598
1090882,-9735.0,-3407.0,-1462.0,0.153,0.668,0.42,-0.595
1090898,-9409.0,-3065.0,-1208.0,0.152,0.668,0.423,-0.592
1090915,-9015.0,-2855.0,-1496.0,0.151,0.668,0.426,-0.591
1090932,-8471.0,-2535.0,-1694.0,0.151,0.668,0.429,-0.59
1090959,-8209.0,-2783.0,-1306.0,0.151,0.667,0.431,-0.588
1090976,-8435.0,-2207.0,-1856.0,0.151,0.668,0.432,-0.587
1090992,-7475.0,-2519.0,-1792.0,0.151,0.668,0.433,-0.586
1091009,-7855.0,-2463.0,-1602.0,0.151,0.669,0.434,-0.583
1091025,-8153.0,-2769.0,-1806.0,0.152,0.67,0.435,-0.582
1091042,-7867.0,-1733.0,-1552.0,0.153,0.671,0.435,-0.58
1091059,-7505.0,-2893.0,-1798.0,0.154,0.672,0.436,-0.578
1091076,-7027.0,-2771.0,-2296.0,0.154,0.674,0.435,-0.577
1091092,-8099.0,-2053.0,-1630.0,0.154,0.676,0.435,-0.575
1091118,-7943.0,-2537.0,-1732.0,0.156,0.677,0.433,-0.575
1091134,-7651.0,-2263.0,-2100.0,0.158,0.678,0.432,-0.574
1091150,-7191.0,-3167.0,-1858.0,0.159,0.679,0.429,-0.574
1091166,-8177.0,-2307.0,-1724.0,0.161,0.68,0.425,-0.575
1091182,-7249.0,-2477.0,-2292.0,0.163,0.681,0.421,-0.576
1091208,-7633.0,-2669.0,-1744.0,0.165,0.682,0.416,-0.578
1091224,-8291.0,-2921.0,-1784.0,0.166,0.683,0.41,-0.58
1091241,-8917.0,-1097.0,-1702.0,0.171,0.684,0.402,-0.584
1091257,-6643.0,-3711.0,-1930.0,0.177,0.684,0.393,-0.589
1091274,-7959.0,-767.0,-1664.0,0.184,0.683,0.383,-0.594
1091291,-6501.0,-1829.0,-1576.0,0.194,0.681,0.372,-0.6
1091308,-5117.0,-979.0,-1332.0,0.204,0.679,0.361,-0.605
1091325,-3447.0,-1287.0,-1274.0,0.216,0.676,0.35,-0.611
1091342,-2051.0,-1241.0,-620.0,0.227,0.674,0.339,-0.616
1091359,-1147.0,-17.0,-776.0,0.235,0.672,0.331,-0.619
1091376,-757.0,-497.0,-852.0,0.241,0.671,0.324,-0.621
1091393,-1013.0,-1065.0,-474.0,0.243,0.672,0.32,-0.622
1091410,-1111.0,-923.0,-794.0,0.242,0.673,0.319,-0.621
1091437,-1229.0,-2447.0,-260.0,0.237,0.675,0.322,-0.62
1091454,-1755.0,-1495.0,-70.0,0.228,0.678,0.326,-0.618
1091471,-2237.0,-375.0,200.0,0.217,0.68,0.333,-0.616
1091488,-2643.0,89.0,-28.0,0.206,0.682,0.342,-0.613
1091505,-3287.0,-1541.0,-496.0,0.196,0.683,0.352,-0.61
1091522,-4059.0,401.0,-940.0,0.186,0.684,0.363,-0.606
1091539,-4813.0,-1837.0,-366.0,0.179,0.683,0.373,-0.602
1091556,-5813.0,-2295.0,-1354.0,0.172,0.683,0.381,-0.599
1091573,-7885.0,-601.0,-1832.0,0.166,0.683,0.388,-0.596
1091590,-6071.0,-2795.0,-2440.0,0.159,0.684,0.397,-0.591
1091607,-8975.0,-2673.0,-1958.0,0.154,0.685,0.404,-0.586
1091624,-10301.0,-2419.0,-2090.0,0.149,0.686,0.41,-0.582
1091641,-9277.0,-3511.0,-1590.0,0.147,0.686,0.415,-0.579
1091658,-9623.0,-2861.0,-1436.0,0.146,0.686,0.419,-0.577
1091675,-8903.0,-3139.0,-2122.0,0.145,0.686,0.421,-0.576
1091702,-7565.0,-3663.0,-2078.0,0.143,0.686,0.423,-0.574
1091719,-8639.0,-1605.0,-2164.0,0.141,0.686,0.426,-0.572
1091736,-8973.0,-3225.0,-1850.0,0.14,0.686,0.429,-0.571
1091753,-9215.0,-2947.0,-2214.0,0.14,0.686,0.43,-0.57
1091769,-7823.0,-3367.0,-2806.0,0.137,0.686,0.433,-0.569
1091786,-8933.0,-3139.0,-1988.0,0.135,0.686,0.435,-0.567
1091803,-9823.0,-3493.0,-2016.0,0.134,0.686,0.436,-0.567
1091820,-7829.0,-3585.0,-2620.0,0.134,0.686,0.436,-0.567
1091837,-8401.0,-3769.0,-2480.0,0.133,0.685,0.437,-0.567
1091854,-9105.0,-3133.0,-2604.0,0.132,0.685,0.437,-0.568
1091871,-8317.0,-3629.0,-2436.0,0.133,0.684,0.437,-0.568
1091888,-8395.0,-3457.0,-2324.0,0.134,0.684,0.436,-0.57
1091905,-8129.0,-3889.0,-2624.0,0.135,0.683,0.435,-0.571
1091932,-8197.0,-3121.0,-2044.0,0.135,0.683,0.434,-0.572
1091949,-8083.0,-3115.0,-1742.0,0.136,0.682,0.433,-0.574
1091966,-8067.0,-3343.0,-2042.0,0.137,0.681,0.431,-0.576
1091983,-7363.0,-2845.0,-2362.0,0.138,0.68,0.43,-0.577
1092000,-7515.0,-3095.0,-2118.0,0.139,0.68,0.429,-0.579
1092017,-7971.0,-2831.0,-2084.0,0.14,0.679,0.428,-0.58
1092034,-7923.0,-2593.0,-1930.0,0.141,0.679,0.427,-0.581
1092051,-7595.0,-3225.0,-1912.0,0.142,0.679,0.426,-0.581
1092068,-7881.0,-2967.0,-2044.0,0.143,0.679,0.425,-0.581
1092085,-7887.0,-2909.0,-1682.0,0.143,0.68,0.425,-0.58
1092102,-7933.0,-3175.0,-1512.0,0.144,0.68,0.424,-0.58
1092119,-8163.0,-3077.0,-1716.0,0.145,0.68,0.423,-0.581
1092136,-7857.0,-2837.0,-1540.0,0.146,0.68,0.422,-0.582
1092153,-7833.0,-3205.0,-1536.0,0.147,0.68,0.421,-0.582
1092180,-8055.0,-2785.0,-1524.0,0.148,0.679,0.419,-0.583
1092197,-7865.0,-2971.0,-1458.0,0.15,0.679,0.418,-0.585
1092213,-7787.0,-2933.0,-1512.0,0.151,0.678,0.417,-0.586
1092230,-7573.0,-2887.0,-1684.0,0.152,0.678,0.415,-0.587
1092246,-7757.0,-2921.0,-1362.0,0.154,0.678,0.414,-0.588
1092263,-7723.0,-2839.0,-1490.0,0.155,0.677,0.412,-0.59
1092280,-7603.0,-2911.0,-1402.0,0.156,0.676,0.411,-0.591
1092297,-7727.0,-2655.0,-1302.0,0.157,0.676,0.41,-0.593
1092314,-7757.0,-2719.0,-1350.0,0.159,0.675,0.408,-0.594
1092330,-7701.0,-2765.0,-1360.0,0.16,0.674,0.407,-0.595
1092356,-7691.0,-2839.0,-1198.0,0.162,0.673,0.405,-0.597
1092372,-7905.0,-2545.0,-1306.0,0.164,0.673,0.403,-0.598
1092388,-7871.0,-2721.0,-1362.0,0.166,0.672,0.402,-0.6
1092404,-8121.0,-2485.0,-1308.0,0.167,0.671,0.4,-0.601
1092420,-8637.0,-2857.0,-1388.0,0.169,0.671,0.398,-0.602
1092436,-9311.0,-3001.0,-1346.0,0.17,0.671,0.397,-0.603
1092463,-9469.0,-3153.0,-1468.0,0.171,0.67,0.395,-0.604
1092479,-10313.0,-3209.0,-1584.0,0.172,0.67,0.395,-0.605
1092495,-10617.0,-3267.0,-1926.0,0.171,0.67,0.394,-0.605
1092512,-10617.0,-3365.0,-1924.0,0.17,0.67,0.395,-0.605
1092529,-10913.0,-2665.0,-2426.0,0.169,0.671,0.396,-0.604
1092546,-10341.0,-3363.0,-2280.0,0.167,0.672,0.398,-0.602
1092563,-10189.0,-3397.0,-2120.0,0.165,0.673,0.401,-0.6
1092580,-9677.0,-3231.0,-1860.0,0.163,0.674,0.404,-0.596
1092597,-9401.0,-2985.0,-1504.0,0.161,0.675,0.408,-0.593
1092614,-8787.0,-3243.0,-1726.0,0.158,0.676,0.412,-0.59
1092631,-8197.0,-3081.0,-1788.0,0.155,0.677,0.417,-0.586
1092658,-8269.0,-2855.0,-1444.0,0.152,0.678,0.421,-0.582
1092674,-8483.0,-3503.0,-1518.0,0.149,0.679,0.426,-0.579
1092691,-8375.0,-2743.0,-1542.0,0.147,0.679,0.43,-0.576
1092707,-8029.0,-3355.0,-1528.0,0.145,0.68,0.434,-0.573
1092724,-8117.0,-2947.0,-1890.0,0.143,0.68,0.438,-0.571
1092741,-8059.0,-2957.0,-2046.0,0.142,0.68,0.441,-0.568
1092757,-7871.0,-3069.0,-2190.0,0.141,0.68,0.444,-0.566
1092773,-7723.0,-3165.0,-2312.0,0.14,0.68,0.447,-0.564
1092800,-7789.0,-3281.0,-2218.0,0.139,0.68,0.45,-0.562
1092817,-7281.0,-2743.0,-2496.0,0.137,0.68,0.452,-0.561
1092834,-8019.0,-2623.0,-2390.0,0.136,0.68,0.455,-0.559
1092850,-7669.0,-2959.0,-2200.0,0.136,0.68,0.457,-0.557
1092866,-7109.0,-2991.0,-2616.0,0.136,0.68,0.458,-0.556
1092882,-7049.0,-3223.0,-2536.0,0.135,0.681,0.46,-0.554
1092899,-7715.0,-2729.0,-2392.0,0.134,0.682,0.461,-0.552
1092916,-7463.0,-3153.0,-2300.0,0.134,0.682,0.462,-0.55
1092932,-7649.0,-2905.0,-2348.0,0.134,0.683,0.463,-0.549
1092958,-7259.0,-3487.0,-2332.0,0.135,0.683,0.462,-0.549
1092974,-7589.0,-2983.0,-2744.0,0.135,0.684,0.462,-0.549
1092990,-7211.0,-2933.0,-3030.0,0.136,0.685,0.462,-0.548
1093006,-7571.0,-3211.0,-2232.0,0.137,0.686,0.461,-0.547
1093022,-7539.0,-3601.0,-2518.0,0.139,0.686,0.459,-0.547
1093038,-7217.0,-3035.0,-2312.0,0.141,0.687,0.456,-0.548
1093064,-7773.0,-2811.0,-2048.0,0.143,0.687,0.454,-0.549
1093080,-6483.0,-2419.0,-2716.0,0.146,0.687,0.451,-0.551
1093097,-6745.0,-2933.0,-2032.0,0.148,0.686,0.448,-0.553
1093113,-7439.0,-2249.0,-2038.0,0.151,0.686,0.445,-0.556
1093129,-6927.0,-2839.0,-2350.0,0.153,0.685,0.442,-0.559
1093146,-6291.0,-2295.0,-2482.0,0.156,0.684,0.439,-0.561
1093162,-6677.0,-2409.0,-1700.0,0.158,0.684,0.436,-0.563
1093188,-7113.0,-2403.0,-1930.0,0.16,0.684,0.433,-0.565
1093205,-7477.0,-2235.0,-2432.0,0.162,0.683,0.431,-0.567
1093222,-7247.0,-1961.0,-1940.0,0.164,0.684,0.428,-0.568
1093238,-7283.0,-2803.0,-2092.0,0.166,0.684,0.425,-0.569
1093255,-8391.0,-1555.0,-1774.0,0.169,0.683,0.421,-0.572
1093271,-7949.0,-2639.0,-1640.0,0.172,0.683,0.418,-0.574
1093288,-7275.0,-2233.0,-1862.0,0.175,0.683,0.413,-0.576
1093305,-7675.0,-1601.0,-1386.0,0.179,0.683,0.409,-0.579
1093331,-7913.0,-1819.0,-1186.0,0.183,0.682,0.403,-0.582
1093347,-7207.0,-2603.0,-1758.0,0.187,0.681,0.398,-0.585
1093363,-7377.0,7.0,-1276.0,0.193,0.68,0.393,-0.588
1093379,-6765.0,-1749.0,-1234.0,0.2,0.679,0.387,-0.591
1093395,-6675.0,-1803.0,-1418.0,0.207,0.678,0.381,-0.594
1093412,-5615.0,-1759.0,-1208.0,0.212,0.677,0.375,-0.596
1093438,-5617.0,-791.0,-800.0,0.218,0.677,0.37,-0.597
1093455,-5473.0,-1191.0,-760.0,0.223,0.677,0.365,-0.599
1093471,-4297.0,-2417.0,-950.0,0.227,0.677,0.362,-0.599
1093488,-4117.0,-1729.0,-920.0,0.228,0.678,0.359,-0.599
1093504,-5009.0,-905.0,-472.0,0.228,0.68,0.358,-0.598
1093520,-5163.0,-1237.0,-102.0,0.229,0.681,0.357,-0.597
1093536,-4953.0,-3047.0,-824.0,0.228,0.682,0.358,-0.596
1093552,-6391.0,-1325.0,-654.0,0.224,0.684,0.359,-0.594
1093569,-6775.0,-1193.0,-378.0,0.222,0.685,0.362,-0.592
1093595,-7287.0,-2181.0,-952.0,0.219,0.686,0.365,-0.59
1093612,-8751.0,-1653.0,-1078.0,0.216,0.687,0.367,-0.588
1093628,-9399.0,-1005.0,-594.0,0.214,0.689,0.369,-0.586
1093645,-9017.0,-1795.0,-1276.0,0.213,0.689,0.371,-0.584
1093661,-9103.0,-1871.0,-1626.0,0.212,0.69,0.373,-0.583
1093678,-8811.0,-1425.0,-1102.0,0.211,0.691,0.375,-0.581
1093695,-8625.0,-1463.0,-1284.0,0.209,0.693,0.376,-0.578
1093712,-8243.0,-1271.0,-1232.0,0.208,0.696,0.378,-0.575
1093738,-7713.0,-1357.0,-988.0,0.206,0.698,0.379,-0.572
1093754,-7405.0,-1243.0,-1418.0,0.204,0.7,0.38,-0.568
1093771,-7227.0,-1065.0,-1324.0,0.202,0.703,0.382,-0.565
1093788,-7005.0,-1581.0,-1202.0,0.199,0.705,0.385,-0.561
1093805,-7135.0,-1547.0,-1534.0,0.196,0.708,0.387,-0.557
1093821,-7107.0,-1387.0,-1558.0,0.192,0.71,0.39,-0.553
1093838,-7519.0,-1127.0,-1408.0,0.188,0.713,0.393,-0.549
1093854,-7589.0,-1705.0,-1754.0,0.184,0.715,0.396,-0.545
1093870,-7245.0,-1749.0,-1936.0,0.181,0.717,0.399,-0.542
1093897,-7177.0,-1715.0,-2184.0,0.176,0.72,0.402,-0.537
1093913,-7259.0,-1613.0,-2522.0,0.172,0.723,0.406,-0.532
1093929,-7365.0,-1589.0,-2280.0,0.168,0.726,0.409,-0.527
1093945,-6997.0,-2199.0,-2660.0,0.163,0.729,0.412,-0.521
1093961,-6817.0,-2167.0,-3044.0,0.159,0.733,0.415,-0.515
1093978,-6875.0,-1659.0,-2980.0,0.154,0.737,0.419,-0.508
1093995,-6831.0,-2019.0,-3136.0,0.149,0.74,0.422,-0.502
1094012,-6479.0,-2367.0,-3458.0,0.144,0.744,0.426,-0.495
1094038,-6663.0,-2489.0,-3606.0,0.138,0.747,0.43,-0.487
1094054,-7541.0,-1361.0,-3546.0,0.134,0.751,0.434,-0.48
1094070,-7321.0,-1987.0,-3632.0,0.13,0.753,0.437,-0.474
1094087,-6691.0,-2715.0,-4166.0,0.127,0.756,0.44,-0.468
1094103,-7135.0,-2171.0,-4292.0,0.123,0.758,0.443,-0.463
1094120,-6891.0,-2363.0,-4130.0,0.12,0.76,0.446,-0.457
1094137,-6533.0,-2481.0,-4686.0,0.117,0.762,0.449,-0.452
1094154,-6551.0,-2581.0,-5098.0,0.113,0.764,0.452,-0.447
1094171,-7323.0,-1917.0,-4788.0,0.11,0.766,0.455,-0.44
1094198,-7051.0,-2545.0,-4772.0,0.108,0.768,0.458,-0.435
1094214,-6739.0,-3033.0,-5332.0,0.105,0.769,0.46,-0.431
1094231,-6205.0,-3511.0,-5708.0,0.103,0.771,0.462,-0.426
1094248,-6773.0,-2283.0,-5572.0,0.1,0.773,0.464,-0.422
1094265,-6703.0,-2655.0,-5634.0,0.098,0.774,0.466,-0.417
1094282,-6589.0,-2633.0,-5500.0,0.096,0.776,0.467,-0.414
1094299,-6109.0,-2885.0,-5526.0,0.095,0.777,0.467,-0.411
1094316,-6111.0,-2765.0,-5660.0,0.094,0.778,0.468,-0.409
1094333,-6091.0,-2187.0,-5376.0,0.093,0.779,0.469,-0.407
1094350,-6099.0,-2329.0,-5176.0,0.092,0.779,0.469,-0.406
1094366,-5839.0,-2351.0,-5336.0,0.092,0.779,0.47,-0.405
1094393,-5025.0,-2777.0,-5632.0,0.091,0.779,0.471,-0.404
1094410,-5689.0,-1883.0,-5426.0,0.09,0.779,0.471,-0.403
1094427,-5513.0,-2015.0,-5276.0,0.09,0.78,0.472,-0.401
1094444,-5523.0,-2211.0,-5232.0,0.089,0.78,0.473,-0.4
1094461,-5711.0,-2171.0,-5216.0,0.088,0.78,0.474,-0.399
1094478,-5377.0,-2335.0,-5148.0,0.088,0.78,0.475,-0.397
1094495,-5599.0,-2149.0,-5176.0,0.087,0.781,0.477,-0.395
1094511,-5771.0,-2131.0,-5090.0,0.085,0.781,0.478,-0.393
1094528,-5991.0,-1963.0,-4946.0,0.084,0.781,0.479,-0.391
1094545,-5649.0,-2261.0,-5202.0,0.083,0.781,0.481,-0.389
1094562,-5559.0,-2463.0,-5382.0,0.082,0.782,0.483,-0.386
1094579,-6953.0,-6261.0,-10462.0,0.084,0.78,0.486,-0.384
1094605,-2523.0,1903.0,-2996.0,0.083,0.779,0.487,-0.385
1094621,-8627.0,-6811.0,-12614.0,0.084,0.778,0.49,-0.384
1094638,-5493.0,-4737.0,-2776.0,0.083,0.776,0.492,-0.385
1094655,-5811.0,-1903.0,-3370.0,0.083,0.776,0.493,-0.385
1094671,-6281.0,-2085.0,-6006.0,0.083,0.776,0.494,-0.384
1094687,-6857.0,-3347.0,-4856.0,0.083,0.775,0.496,-0.383
1094703,-7441.0,-3285.0,-5720.0,0.081,0.775,0.497,-0.382
1094720,-5805.0,-2727.0,-5680.0,0.082,0.775,0.498,-0.381
1094747,-5283.0,-2147.0,-3626.0,0.082,0.774,0.499,-0.381
1094763,-5811.0,-2533.0,-4146.0,0.081,0.774,0.5,-0.381
1094779,-5199.0,-1823.0,-4732.0,0.081,0.773,0.501,-0.38
