timeMs,ax,ay,az,q0,q1,q2,q3
59720,-6548.0,-2790.0,-4592.0,0.372,0.281,0.839,-0.282
59737,-5766.0,-1792.0,-4690.0,0.369,0.281,0.841,-0.279
59764,-5632.0,-1562.0,-4456.0,0.366,0.28,0.844,-0.275
59781,-7768.0,-3862.0,-3066.0,0.364,0.279,0.846,-0.272
59798,-7850.0,-3090.0,-3108.0,0.364,0.279,0.846,-0.273
59815,-6604.0,-1206.0,-4576.0,0.365,0.278,0.845,-0.274
59832,-5814.0,-2260.0,-5174.0,0.367,0.276,0.845,-0.274
59848,-6160.0,-1928.0,-5230.0,0.368,0.275,0.845,-0.274
59865,-6466.0,-2618.0,-5552.0,0.369,0.274,0.845,-0.274
59882,-7464.0,-2640.0,-5548.0,0.371,0.273,0.844,-0.275
59899,-7612.0,-2110.0,-5818.0,0.374,0.272,0.843,-0.275
59915,-8468.0,-3102.0,-5402.0,0.376,0.271,0.842,-0.275
59932,-8850.0,-2410.0,-5994.0,0.379,0.271,0.84,-0.276
59949,-8848.0,-2446.0,-6034.0,0.383,0.271,0.838,-0.278
59975,-8730.0,-2382.0,-6066.0,0.388,0.271,0.836,-0.279
59992,-8524.0,-2386.0,-6028.0,0.392,0.272,0.833,-0.28
60009,-8258.0,-2482.0,-5766.0,0.397,0.273,0.83,-0.282
60026,-7652.0,-1710.0,-5668.0,0.401,0.274,0.826,-0.285
60043,-7918.0,-2156.0,-5072.0,0.406,0.275,0.823,-0.287
60060,-7792.0,-2072.0,-4564.0,0.412,0.277,0.818,-0.29
60077,-7300.0,-2328.0,-4376.0,0.417,0.279,0.814,-0.293
60094,-7032.0,-1650.0,-4256.0,0.424,0.281,0.809,-0.296
60111,-6588.0,-1654.0,-3950.0,0.43,0.283,0.803,-0.299
60128,-5794.0,-1740.0,-3970.0,0.436,0.285,0.798,-0.302
60145,-5732.0,-2568.0,-3840.0,0.442,0.289,0.792,-0.306
60162,-5370.0,-1074.0,-3684.0,0.446,0.291,0.788,-0.309
60189,-5688.0,-2210.0,-3042.0,0.451,0.295,0.783,-0.312
60205,-6800.0,-1314.0,-3436.0,0.456,0.298,0.777,-0.316
60221,-5604.0,-1938.0,-2584.0,0.461,0.3,0.772,-0.319
60237,-5674.0,-1614.0,-2342.0,0.465,0.3,0.768,-0.323
60253,-6016.0,-1012.0,-1558.0,0.47,0.299,0.763,-0.327
60269,-5652.0,-2118.0,-1902.0,0.474,0.296,0.76,-0.331
60295,-5174.0,-2110.0,-2280.0,0.478,0.293,0.758,-0.335
60312,-5668.0,-1492.0,-1582.0,0.479,0.29,0.756,-0.339
60329,-5920.0,-2640.0,-1602.0,0.479,0.288,0.755,-0.344
60346,-6592.0,-2250.0,-1956.0,0.477,0.286,0.755,-0.348
60363,-6706.0,-2422.0,-1552.0,0.474,0.285,0.755,-0.352
60380,-7598.0,-1752.0,-1706.0,0.471,0.284,0.756,-0.355
60397,-8290.0,-2428.0,-1878.0,0.468,0.284,0.756,-0.358
60414,-8622.0,-970.0,-1884.0,0.466,0.285,0.756,-0.36
60431,-7764.0,-2168.0,-1642.0,0.466,0.286,0.756,-0.36
60448,-7102.0,-2840.0,-1834.0,0.466,0.286,0.756,-0.361
60464,-5934.0,-1172.0,-2098.0,0.466,0.285,0.755,-0.362
60481,-4030.0,-892.0,-2230.0,0.468,0.283,0.756,-0.361
60498,-2300.0,-1942.0,-2368.0,0.468,0.281,0.757,-0.358
60525,-2264.0,-2540.0,-1928.0,0.465,0.28,0.76,-0.357
60542,-2140.0,-2244.0,-890.0,0.461,0.278,0.764,-0.356
60558,-2634.0,-1710.0,-818.0,0.456,0.277,0.767,-0.355
60574,-3152.0,-334.0,-1430.0,0.452,0.275,0.771,-0.354
60590,-3868.0,-3372.0,-1388.0,0.447,0.273,0.776,-0.352
60606,-4274.0,-224.0,-866.0,0.44,0.27,0.781,-0.351
60622,-3698.0,-1110.0,-2034.0,0.437,0.267,0.785,-0.348
60649,-4720.0,-4220.0,-2696.0,0.432,0.266,0.789,-0.346
60665,-7346.0,-810.0,-2948.0,0.429,0.264,0.792,-0.344
60681,-7422.0,-2618.0,-1798.0,0.426,0.261,0.796,-0.341
60698,-7704.0,-3226.0,-3152.0,0.426,0.258,0.798,-0.34
60714,-8640.0,-3972.0,-4062.0,0.424,0.256,0.8,-0.338
60731,-8694.0,-2978.0,-2698.0,0.423,0.254,0.802,-0.337
60748,-8492.0,-2816.0,-3606.0,0.423,0.252,0.803,-0.336
60764,-9114.0,-2644.0,-4358.0,0.424,0.25,0.804,-0.334
60781,-7912.0,-3760.0,-3464.0,0.424,0.249,0.805,-0.331
60808,-7468.0,-3830.0,-3120.0,0.423,0.248,0.806,-0.331
60824,-8158.0,-2338.0,-3004.0,0.423,0.247,0.807,-0.33
60841,-7642.0,-2810.0,-2316.0,0.424,0.245,0.807,-0.33
60858,-7160.0,-2334.0,-2524.0,0.426,0.244,0.806,-0.33
60875,-7244.0,-2964.0,-2896.0,0.428,0.242,0.806,-0.33
60891,-7364.0,-2568.0,-2120.0,0.431,0.241,0.805,-0.33
60908,-6840.0,-2722.0,-2318.0,0.434,0.239,0.803,-0.331
60924,-7518.0,-2744.0,-2652.0,0.438,0.238,0.8,-0.333
60950,-7386.0,-3076.0,-2304.0,0.442,0.236,0.798,-0.334
60966,-7364.0,-2654.0,-2656.0,0.446,0.235,0.796,-0.335
60982,-8400.0,-3196.0,-2540.0,0.45,0.234,0.794,-0.336
60999,-9036.0,-3532.0,-2416.0,0.455,0.233,0.791,-0.337
61015,-9620.0,-3058.0,-2506.0,0.46,0.232,0.787,-0.339
61031,-9660.0,-3514.0,-3336.0,0.465,0.23,0.784,-0.34
61048,-11106.0,-4138.0,-3050.0,0.469,0.228,0.782,-0.342
61064,-12614.0,-4522.0,-3052.0,0.473,0.226,0.779,-0.343
61091,-12556.0,-4908.0,-3794.0,0.476,0.224,0.777,-0.345
61108,-13666.0,-4860.0,-3830.0,0.478,0.223,0.776,-0.346
61124,-14316.0,-5418.0,-3802.0,0.478,0.221,0.777,-0.347
61140,-14444.0,-6140.0,-3418.0,0.476,0.219,0.778,-0.347
61157,-14038.0,-5988.0,-3598.0,0.474,0.218,0.779,-0.347
61173,-13610.0,-5464.0,-3492.0,0.472,0.217,0.781,-0.347
61189,-13016.0,-5232.0,-3222.0,0.469,0.216,0.783,-0.347
61215,-11552.0,-4798.0,-3478.0,0.466,0.215,0.785,-0.347
61231,-11236.0,-4822.0,-3228.0,0.463,0.213,0.787,-0.347
61247,-10524.0,-4126.0,-2856.0,0.461,0.212,0.789,-0.346
61264,-9858.0,-3984.0,-2490.0,0.459,0.212,0.791,-0.345
61281,-9132.0,-3472.0,-2450.0,0.458,0.212,0.792,-0.344
61298,-8236.0,-3202.0,-2272.0,0.457,0.212,0.793,-0.343
61314,-7480.0,-2940.0,-2108.0,0.456,0.212,0.794,-0.342
61331,-8296.0,-2940.0,-1642.0,0.455,0.213,0.794,-0.341
61357,-7516.0,-2930.0,-1326.0,0.456,0.215,0.793,-0.341
61374,-7310.0,-2732.0,-1784.0,0.457,0.217,0.792,-0.342
61390,-7012.0,-2362.0,-2014.0,0.458,0.219,0.79,-0.342
61407,-6376.0,-1506.0,-1860.0,0.461,0.221,0.788,-0.342
61424,-6616.0,-3328.0,-2006.0,0.464,0.224,0.785,-0.343
61440,-7114.0,-2252.0,-1784.0,0.468,0.225,0.781,-0.345
61456,-5832.0,-1560.0,-2012.0,0.473,0.228,0.777,-0.347
61472,-5818.0,-2640.0,-2400.0,0.478,0.23,0.772,-0.349
61498,-6192.0,-2062.0,-1730.0,0.485,0.233,0.766,-0.352
61514,-6198.0,-1848.0,-1278.0,0.491,0.236,0.76,-0.354
61531,-5184.0,-1808.0,-2602.0,0.499,0.239,0.753,-0.356
61547,-5444.0,-2166.0,-2296.0,0.507,0.243,0.746,-0.357
61564,-5686.0,-1156.0,-1464.0,0.515,0.248,0.739,-0.357
61580,-5132.0,-892.0,-1586.0,0.524,0.254,0.73,-0.357
61597,-4300.0,-176.0,-2958.0,0.535,0.259,0.722,-0.355
61614,-4090.0,-2010.0,-1344.0,0.545,0.264,0.714,-0.35
61641,-2966.0,-746.0,-1858.0,0.555,0.27,0.707,-0.346
61658,-1960.0,-1440.0,-1566.0,0.562,0.276,0.701,-0.342
61675,-1488.0,-812.0,-1994.0,0.564,0.282,0.697,-0.341
61692,-1968.0,-836.0,-890.0,0.564,0.287,0.695,-0.342
61708,-1362.0,-1246.0,-586.0,0.561,0.289,0.695,-0.344
61725,-1394.0,-2450.0,-2138.0,0.555,0.291,0.698,-0.348
61741,-2066.0,-886.0,-1372.0,0.546,0.291,0.702,-0.353
61757,-3766.0,-1600.0,-1532.0,0.537,0.29,0.707,-0.357
61774,-4106.0,-164.0,808.0,0.526,0.288,0.713,-0.362
61791,-2784.0,-246.0,-1176.0,0.517,0.284,0.72,-0.366
61808,-3288.0,1024.0,-1568.0,0.509,0.28,0.726,-0.367
61835,-4852.0,-2556.0,-1832.0,0.503,0.276,0.733,-0.367
61851,-6918.0,-1732.0,-1140.0,0.496,0.272,0.738,-0.367
61867,-7178.0,-1438.0,-1624.0,0.492,0.269,0.743,-0.366
61883,-6422.0,-2284.0,-1750.0,0.489,0.265,0.747,-0.365
61899,-7416.0,-3446.0,-2678.0,0.485,0.262,0.75,-0.365
61915,-8728.0,-2940.0,-1798.0,0.481,0.259,0.754,-0.365
61941,-7102.0,-1672.0,-1974.0,0.477,0.257,0.757,-0.364
61958,-7916.0,-2720.0,-2694.0,0.475,0.256,0.76,-0.363
61975,-9148.0,-3724.0,-2224.0,0.472,0.255,0.763,-0.362
61992,-7866.0,-2556.0,-1964.0,0.469,0.254,0.765,-0.36
62009,-7708.0,-3332.0,-2584.0,0.467,0.254,0.766,-0.36
62025,-8714.0,-3162.0,-2842.0,0.465,0.254,0.768,-0.36
62042,-8564.0,-3414.0,-1912.0,0.464,0.255,0.769,-0.359
62059,-8230.0,-2932.0,-2632.0,0.463,0.255,0.769,-0.359
62076,-8806.0,-2970.0,-2304.0,0.463,0.255,0.77,-0.359
62093,-8870.0,-3932.0,-2040.0,0.462,0.255,0.77,-0.358
62109,-8590.0,-2376.0,-2506.0,0.463,0.255,0.769,-0.358
62135,-8772.0,-2970.0,-2298.0,0.464,0.256,0.769,-0.358
62151,-8926.0,-2902.0,-1934.0,0.466,0.256,0.768,-0.357
62167,-8636.0,-3106.0,-1902.0,0.467,0.256,0.767,-0.357
62183,-8624.0,-2794.0,-1906.0,0.468,0.256,0.767,-0.357
62200,-9338.0,-3718.0,-1478.0,0.469,0.255,0.766,-0.358
62217,-9454.0,-2686.0,-1596.0,0.471,0.255,0.764,-0.36
62233,-9408.0,-3154.0,-1724.0,0.473,0.255,0.762,-0.361
62250,-10402.0,-3514.0,-2164.0,0.476,0.254,0.76,-0.362
62277,-10890.0,-3372.0,-2614.0,0.477,0.254,0.758,-0.364
62294,-12076.0,-4176.0,-2436.0,0.479,0.254,0.757,-0.365
62311,-13320.0,-4154.0,-3462.0,0.48,0.253,0.756,-0.366
62327,-14684.0,-5036.0,-3866.0,0.48,0.252,0.756,-0.367
62344,-15308.0,-5058.0,-3164.0,0.479,0.25,0.757,-0.367
62361,-15552.0,-4978.0,-3614.0,0.478,0.248,0.758,-0.368
62377,-14736.0,-5188.0,-3972.0,0.476,0.246,0.76,-0.368
62393,-13644.0,-4890.0,-3188.0,0.473,0.244,0.762,-0.368
62410,-13208.0,-4712.0,-2752.0,0.471,0.242,0.765,-0.367
62427,-11966.0,-4580.0,-2762.0,0.469,0.24,0.767,-0.367
62454,-11038.0,-4172.0,-2224.0,0.467,0.238,0.769,-0.367
62470,-10080.0,-3802.0,-2102.0,0.465,0.237,0.769,-0.367
62486,-9132.0,-3132.0,-2502.0,0.465,0.237,0.77,-0.367
62502,-8880.0,-3388.0,-1804.0,0.465,0.237,0.77,-0.366
62518,-7930.0,-2912.0,-2272.0,0.465,0.238,0.771,-0.365
62534,-8012.0,-3120.0,-1816.0,0.465,0.239,0.77,-0.365
62560,-7914.0,-2856.0,-1346.0,0.467,0.241,0.769,-0.364
62577,-7730.0,-2298.0,-1694.0,0.47,0.243,0.767,-0.364
62594,-6878.0,-2342.0,-1552.0,0.473,0.245,0.764,-0.363
62610,-6814.0,-2522.0,-1236.0,0.477,0.247,0.761,-0.363
62626,-6318.0,-1940.0,-1060.0,0.483,0.249,0.757,-0.363
62642,-5598.0,-2368.0,-1010.0,0.488,0.251,0.753,-0.363
62659,-5130.0,-1720.0,-1068.0,0.494,0.254,0.748,-0.364
62676,-4876.0,-1754.0,-964.0,0.501,0.256,0.743,-0.364
62693,-4652.0,-2240.0,-1298.0,0.507,0.258,0.737,-0.364
62720,-5146.0,-2164.0,-1300.0,0.512,0.261,0.732,-0.366
62737,-4954.0,-626.0,-910.0,0.518,0.264,0.726,-0.367
62753,-5144.0,-1604.0,-1494.0,0.526,0.267,0.72,-0.366
62769,-4810.0,-2590.0,-2012.0,0.533,0.271,0.713,-0.366
62785,-4788.0,-716.0,-1294.0,0.538,0.276,0.707,-0.367
62801,-4400.0,-682.0,-1036.0,0.545,0.279,0.701,-0.366
62817,-3798.0,-1248.0,-1306.0,0.553,0.282,0.695,-0.364
62843,-2452.0,-1192.0,-1110.0,0.559,0.283,0.69,-0.362
62860,-1040.0,-1616.0,-1434.0,0.564,0.283,0.688,-0.359
62877,-30.0,-2324.0,-2034.0,0.564,0.284,0.688,-0.358
62894,-182.0,-1708.0,-1236.0,0.56,0.285,0.691,-0.357
62911,-108.0,-1312.0,-760.0,0.554,0.286,0.695,-0.357
62928,-648.0,-2032.0,-1618.0,0.545,0.287,0.702,-0.357
62944,-2304.0,-2122.0,-564.0,0.533,0.288,0.71,-0.359
62961,-2544.0,1444.0,314.0,0.524,0.286,0.718,-0.359
62977,-1344.0,-1706.0,-1166.0,0.516,0.283,0.725,-0.357
62994,-4686.0,-2108.0,-1734.0,0.508,0.279,0.733,-0.357
63020,-5842.0,-992.0,-968.0,0.5,0.276,0.74,-0.356
63036,-5122.0,-516.0,-680.0,0.493,0.272,0.746,-0.354
63052,-6278.0,-3828.0,-3488.0,0.488,0.269,0.752,-0.352
63068,-8846.0,-1972.0,-1530.0,0.481,0.267,0.757,-0.352
63084,-6850.0,-1782.0,-1328.0,0.476,0.265,0.762,-0.35
63100,-8566.0,-2444.0,-3858.0,0.473,0.264,0.766,-0.348
63126,-9784.0,-3534.0,-2530.0,0.47,0.263,0.769,-0.345
63143,-7564.0,-2940.0,-2104.0,0.466,0.263,0.772,-0.343
63159,-8396.0,-2408.0,-4266.0,0.463,0.262,0.775,-0.341
63176,-10602.0,-3294.0,-2214.0,0.46,0.262,0.778,-0.338
63193,-9326.0,-3064.0,-2228.0,0.46,0.262,0.779,-0.336
63210,-8716.0,-2052.0,-3912.0,0.46,0.262,0.779,-0.336
63227,-9088.0,-3260.0,-2886.0,0.461,0.262,0.779,-0.335
63244,-10300.0,-2168.0,-2396.0,0.463,0.262,0.778,-0.336
63260,-9132.0,-2250.0,-4038.0,0.465,0.261,0.776,-0.336
63277,-9128.0,-2742.0,-2850.0,0.468,0.261,0.775,-0.336
63304,-10236.0,-2102.0,-2512.0,0.47,0.26,0.774,-0.337
63320,-9432.0,-2440.0,-3202.0,0.472,0.259,0.772,-0.337
63337,-9312.0,-2432.0,-2126.0,0.474,0.258,0.771,-0.338
63353,-9880.0,-2472.0,-1800.0,0.477,0.257,0.769,-0.339
63369,-9592.0,-2362.0,-2740.0,0.479,0.256,0.768,-0.34
63385,-9920.0,-3212.0,-2276.0,0.481,0.255,0.766,-0.341
63401,-10138.0,-2872.0,-2166.0,0.483,0.254,0.765,-0.342
63427,-10966.0,-3026.0,-3144.0,0.484,0.253,0.764,-0.343
63443,-11750.0,-3692.0,-2648.0,0.486,0.252,0.763,-0.344
63460,-12082.0,-4182.0,-3038.0,0.487,0.252,0.762,-0.344
63477,-12856.0,-4478.0,-4152.0,0.487,0.252,0.762,-0.345
63493,-13538.0,-4446.0,-3784.0,0.486,0.251,0.763,-0.344
63509,-14194.0,-5150.0,-3434.0,0.485,0.251,0.764,-0.344
63526,-13974.0,-5132.0,-4474.0,0.484,0.251,0.765,-0.344
63552,-13848.0,-4776.0,-3890.0,0.483,0.251,0.765,-0.344
63568,-12864.0,-4558.0,-3736.0,0.482,0.25,0.766,-0.345
63584,-12526.0,-4454.0,-3566.0,0.482,0.248,0.766,-0.346
63600,-11506.0,-3884.0,-3018.0,0.483,0.246,0.765,-0.347
63616,-10872.0,-3452.0,-2324.0,0.485,0.244,0.764,-0.349
63633,-9080.0,-3208.0,-2720.0,0.487,0.242,0.763,-0.35
63650,-9124.0,-2830.0,-1670.0,0.49,0.241,0.761,-0.352
63676,-8534.0,-2590.0,-1378.0,0.492,0.241,0.758,-0.353
63693,-7978.0,-1976.0,-1750.0,0.495,0.24,0.756,-0.354
63710,-7180.0,-1736.0,-1704.0,0.498,0.241,0.754,-0.354
63727,-7422.0,-2238.0,-1008.0,0.5,0.242,0.753,-0.353
63743,-7674.0,-1794.0,-1186.0,0.502,0.244,0.751,-0.353
63759,-6738.0,-1688.0,-1064.0,0.504,0.246,0.749,-0.353
63776,-6638.0,-1726.0,-712.0,0.506,0.25,0.747,-0.352
63792,-6560.0,-1756.0,-1028.0,0.509,0.253,0.744,-0.352
63809,-6242.0,-1694.0,-756.0,0.512,0.255,0.741,-0.352
63836,-6082.0,-1664.0,-478.0,0.515,0.258,0.738,-0.352
63852,-5894.0,-1384.0,-846.0,0.519,0.261,0.733,-0.352
63868,-5282.0,-2038.0,-628.0,0.524,0.264,0.729,-0.352
63884,-5246.0,-1462.0,-452.0,0.529,0.266,0.725,-0.352
63900,-5250.0,-1776.0,-812.0,0.534,0.269,0.72,-0.352
63916,-5262.0,-2136.0,-740.0,0.538,0.271,0.716,-0.353
63933,-5434.0,-2458.0,-856.0,0.541,0.275,0.711,-0.355
63959,-6078.0,-398.0,-920.0,0.546,0.279,0.705,-0.355
63975,-6136.0,-2648.0,-1126.0,0.552,0.283,0.699,-0.355
63992,-5824.0,-968.0,-980.0,0.558,0.286,0.693,-0.355
64009,-5330.0,-1444.0,-926.0,0.564,0.289,0.687,-0.355
64026,-4714.0,-458.0,-836.0,0.57,0.291,0.682,-0.354
64043,-3430.0,-1354.0,-676.0,0.577,0.292,0.677,-0.352
64060,-2000.0,-1274.0,-1000.0,0.582,0.291,0.674,-0.349
64077,-1216.0,-2002.0,-1434.0,0.584,0.291,0.674,-0.347
64094,-1414.0,-1724.0,-1016.0,0.582,0.291,0.675,-0.347
64110,-1660.0,-1068.0,-572.0,0.577,0.291,0.679,-0.348
64136,-1466.0,-802.0,-1220.0,0.57,0.291,0.685,-0.349
64152,-2396.0,-736.0,-1190.0,0.561,0.29,0.692,-0.349
64168,-3954.0,-348.0,-508.0,0.552,0.289,0.7,-0.349
64184,-4256.0,468.0,164.0,0.543,0.286,0.708,-0.349
64200,-4656.0,-1252.0,-1392.0,0.536,0.283,0.716,-0.347
64216,-6214.0,-2748.0,-1466.0,0.527,0.281,0.723,-0.347
64242,-7156.0,854.0,-134.0,0.519,0.277,0.73,-0.348
64259,-6220.0,-580.0,-1024.0,0.513,0.274,0.736,-0.346
64276,-8130.0,-3178.0,-1992.0,0.507,0.271,0.741,-0.346
64293,-8958.0,-434.0,-866.0,0.503,0.268,0.746,-0.346
64310,-6594.0,-1668.0,-1350.0,0.499,0.265,0.749,-0.345
64326,-7874.0,-2678.0,-3914.0,0.495,0.263,0.753,-0.344
64343,-9404.0,-2340.0,-1432.0,0.49,0.26,0.758,-0.343
64360,-7522.0,-2080.0,-1508.0,0.485,0.258,0.762,-0.341
64377,-8448.0,-1932.0,-3844.0,0.481,0.256,0.767,-0.339
64393,-9508.0,-2884.0,-2428.0,0.477,0.255,0.771,-0.336
64410,-9292.0,-3748.0,-1522.0,0.473,0.254,0.775,-0.334
64436,-9158.0,-2368.0,-2988.0,0.47,0.253,0.777,-0.333
64452,-8898.0,-3040.0,-2234.0,0.468,0.252,0.779,-0.331
64468,-9100.0,-3164.0,-2108.0,0.467,0.252,0.78,-0.33
64484,-8236.0,-2726.0,-3076.0,0.467,0.252,0.781,-0.329
64500,-8524.0,-3096.0,-2356.0,0.466,0.251,0.782,-0.328
64516,-9168.0,-2864.0,-2070.0,0.466,0.25,0.783,-0.327
64543,-9098.0,-2500.0,-2886.0,0.467,0.249,0.783,-0.327
64560,-9114.0,-3288.0,-2264.0,0.468,0.248,0.783,-0.326
64576,-9464.0,-2868.0,-2312.0,0.47,0.247,0.782,-0.326
64593,-8938.0,-2914.0,-3320.0,0.471,0.246,0.781,-0.326
64609,-9326.0,-2970.0,-2476.0,0.473,0.245,0.781,-0.326
64626,-9378.0,-3442.0,-2246.0,0.476,0.245,0.779,-0.327
64643,-9198.0,-2986.0,-2826.0,0.479,0.244,0.777,-0.328
64659,-9170.0,-3154.0,-2358.0,0.482,0.243,0.775,-0.33
64685,-9058.0,-2982.0,-2216.0,0.486,0.242,0.772,-0.331
64701,-8916.0,-3552.0,-2888.0,0.489,0.241,0.77,-0.332
64718,-10022.0,-3210.0,-2624.0,0.491,0.24,0.768,-0.334
64734,-10154.0,-3538.0,-2618.0,0.494,0.239,0.766,-0.335
64751,-10864.0,-3868.0,-3526.0,0.495,0.239,0.765,-0.336
64768,-11710.0,-4096.0,-3498.0,0.496,0.239,0.764,-0.337
64784,-12080.0,-4114.0,-3538.0,0.496,0.238,0.764,-0.337
64801,-12446.0,-4522.0,-3968.0,0.495,0.237,0.765,-0.337
64817,-12930.0,-4488.0,-3712.0,0.493,0.236,0.766,-0.337
64843,-12488.0,-4384.0,-3426.0,0.491,0.235,0.768,-0.337
64859,-11882.0,-4290.0,-3730.0,0.489,0.233,0.77,-0.337
64876,-11718.0,-4350.0,-3334.0,0.487,0.231,0.772,-0.337
64893,-11536.0,-4172.0,-2654.0,0.485,0.229,0.773,-0.337
64909,-10558.0,-3626.0,-2950.0,0.484,0.228,0.774,-0.338
64926,-10030.0,-3190.0,-2880.0,0.483,0.227,0.775,-0.338
64943,-9180.0,-3450.0,-2614.0,0.481,0.227,0.776,-0.338
64959,-9194.0,-3104.0,-2556.0,0.48,0.229,0.776,-0.339
64985,-7892.0,-2440.0,-2910.0,0.479,0.23,0.777,-0.338
65001,-8072.0,-2764.0,-2296.0,0.478,0.231,0.778,-0.337
65017,-8206.0,-2694.0,-2362.0,0.478,0.231,0.778,-0.336
65033,-8378.0,-2658.0,-1878.0,0.479,0.231,0.777,-0.337
65050,-8390.0,-2190.0,-1914.0,0.481,0.232,0.775,-0.338
65066,-8106.0,-2722.0,-1820.0,0.485,0.232,0.771,-0.34
65093,-7714.0,-2094.0,-2334.0,0.489,0.233,0.768,-0.342
65109,-7572.0,-2406.0,-1850.0,0.495,0.234,0.763,-0.344
65126,-6886.0,-1954.0,-1630.0,0.5,0.235,0.758,-0.345
65142,-6758.0,-2348.0,-1880.0,0.506,0.236,0.753,-0.347
65159,-6376.0,-1766.0,-1072.0,0.513,0.238,0.748,-0.348
65175,-5534.0,-2416.0,-1382.0,0.519,0.24,0.742,-0.349
65192,-5818.0,-2132.0,-1098.0,0.525,0.242,0.737,-0.35
65208,-5694.0,-2094.0,-456.0,0.532,0.244,0.731,-0.351
65225,-5432.0,-2058.0,-764.0,0.538,0.248,0.725,-0.351
65242,-5164.0,-1564.0,-960.0,0.544,0.252,0.719,-0.352
65269,-5586.0,-2422.0,-584.0,0.551,0.257,0.712,-0.351
65285,-5160.0,-1014.0,-594.0,0.558,0.262,0.705,-0.35
65301,-4618.0,-762.0,-170.0,0.566,0.266,0.698,-0.348
65317,-4140.0,-1610.0,-362.0,0.575,0.271,0.691,-0.345
65333,-3450.0,-404.0,-308.0,0.582,0.274,0.685,-0.341
65349,-2418.0,-1078.0,-26.0,0.589,0.276,0.681,-0.336
65366,-2262.0,-2000.0,-376.0,0.594,0.277,0.678,-0.332
65393,-1802.0,-1692.0,-718.0,0.595,0.279,0.678,-0.331
65410,-1742.0,-1726.0,-322.0,0.592,0.28,0.68,-0.331
65426,-1438.0,-672.0,-12.0,0.586,0.28,0.684,-0.332
65442,-1020.0,-248.0,-108.0,0.58,0.28,0.689,-0.333
65458,-1506.0,-238.0,-168.0,0.571,0.279,0.697,-0.333
65474,-2610.0,-738.0,-106.0,0.562,0.277,0.705,-0.332
65490,-3222.0,-1366.0,-310.0,0.551,0.275,0.714,-0.333
65516,-4426.0,-754.0,-66.0,0.54,0.272,0.723,-0.334
65533,-4512.0,1022.0,-528.0,0.529,0.268,0.732,-0.334
65550,-5040.0,-1650.0,-878.0,0.519,0.265,0.741,-0.333
65566,-7110.0,-1464.0,-1150.0,0.509,0.263,0.749,-0.333
65584,-7750.0,-338.0,-1158.0,0.502,0.261,0.755,-0.332
65601,-6464.0,-998.0,-1346.0,0.495,0.258,0.761,-0.33
65617,-7626.0,-2926.0,-3266.0,0.487,0.257,0.768,-0.328
65633,-9300.0,-1934.0,-2652.0,0.478,0.256,0.774,-0.326
65649,-7224.0,-1732.0,-1936.0,0.47,0.254,0.781,-0.323
65676,-8352.0,-1954.0,-3294.0,0.464,0.253,0.786,-0.321
65692,-9730.0,-2770.0,-3008.0,0.458,0.251,0.791,-0.318
65709,-8098.0,-3006.0,-2674.0,0.453,0.25,0.796,-0.314
65726,-8086.0,-2272.0,-3820.0,0.448,0.25,0.8,-0.311
65743,-9416.0,-3566.0,-3482.0,0.444,0.248,0.804,-0.309
65759,-9928.0,-2518.0,-2960.0,0.441,0.247,0.806,-0.307
65776,-8300.0,-3198.0,-4184.0,0.441,0.246,0.808,-0.305
65792,-9090.0,-3056.0,-3826.0,0.44,0.245,0.809,-0.303
65809,-8788.0,-4020.0,-3600.0,0.44,0.245,0.809,-0.302
65826,-9112.0,-2940.0,-4110.0,0.441,0.244,0.809,-0.302
65853,-9572.0,-3084.0,-4002.0,0.443,0.244,0.808,-0.303
65869,-9690.0,-3676.0,-3598.0,0.447,0.243,0.805,-0.304
65885,-9134.0,-3446.0,-4296.0,0.452,0.243,0.802,-0.305
65901,-9652.0,-3688.0,-4240.0,0.457,0.242,0.799,-0.307
65917,-9768.0,-3790.0,-3938.0,0.463,0.242,0.795,-0.31
65933,-10336.0,-3096.0,-4720.0,0.468,0.241,0.791,-0.312
65959,-9914.0,-4152.0,-4744.0,0.473,0.24,0.787,-0.314
65976,-11560.0,-4824.0,-4372.0,0.476,0.24,0.785,-0.316
65992,-12818.0,-4286.0,-4986.0,0.478,0.239,0.783,-0.318
66009,-13032.0,-4692.0,-5114.0,0.479,0.238,0.782,-0.32
66025,-13882.0,-5242.0,-5336.0,0.48,0.237,0.781,-0.321
66041,-14082.0,-5392.0,-5234.0,0.479,0.236,0.781,-0.323
66058,-12996.0,-4862.0,-5288.0,0.477,0.234,0.783,-0.323
66075,-13154.0,-4894.0,-4762.0,0.474,0.231,0.786,-0.323
66101,-12662.0,-4934.0,-3946.0,0.471,0.229,0.789,-0.322
66117,-11846.0,-4674.0,-3570.0,0.468,0.227,0.791,-0.322
66133,-11506.0,-4346.0,-3214.0,0.465,0.227,0.793,-0.322
66149,-10440.0,-4392.0,-2676.0,0.463,0.227,0.794,-0.322
66166,-9808.0,-3302.0,-2694.0,0.462,0.228,0.794,-0.322
66182,-8604.0,-3000.0,-2748.0,0.462,0.229,0.794,-0.323
66199,-8192.0,-2366.0,-2384.0,0.462,0.23,0.793,-0.323
66216,-7956.0,-2730.0,-1952.0,0.464,0.231,0.791,-0.324
66233,-7298.0,-1952.0,-1560.0,0.467,0.233,0.789,-0.325
66259,-6880.0,-2580.0,-1330.0,0.471,0.234,0.786,-0.326
66275,-6646.0,-1590.0,-1188.0,0.475,0.236,0.782,-0.327
66292,-6000.0,-2318.0,-1024.0,0.479,0.238,0.778,-0.329
66309,-5210.0,-1334.0,-1306.0,0.484,0.239,0.774,-0.33
66325,-5658.0,-1918.0,-764.0,0.488,0.242,0.771,-0.331
66341,-5514.0,-1348.0,-576.0,0.493,0.244,0.766,-0.332
66357,-5636.0,-2072.0,-1008.0,0.497,0.247,0.762,-0.333
66383,-5250.0,-1658.0,-1450.0,0.501,0.25,0.758,-0.334
66400,-5916.0,-1794.0,-930.0,0.505,0.255,0.754,-0.334
66416,-6422.0,-1580.0,-1326.0,0.508,0.26,0.75,-0.335
66432,-6758.0,-1050.0,-1100.0,0.513,0.266,0.745,-0.333
66449,-6388.0,-2610.0,-1920.0,0.518,0.272,0.74,-0.332
66466,-7552.0,-616.0,-1536.0,0.522,0.279,0.734,-0.333
66482,-6576.0,-1824.0,-1494.0,0.527,0.286,0.728,-0.332
66499,-7094.0,-676.0,-1406.0,0.533,0.293,0.721,-0.332
66516,-5736.0,374.0,-1652.0,0.542,0.298,0.713,-0.331
66542,-4476.0,50.0,-976.0,0.552,0.301,0.705,-0.328
66559,-3676.0,-166.0,-718.0,0.564,0.303,0.696,-0.325
66575,-2130.0,162.0,-1056.0,0.576,0.301,0.689,-0.32
66592,-792.0,-1932.0,-1492.0,0.586,0.299,0.684,-0.316
66609,-130.0,-3052.0,-2592.0,0.589,0.298,0.682,-0.315
66625,-468.0,-2458.0,-2070.0,0.587,0.298,0.683,-0.317
66642,-950.0,-1636.0,-992.0,0.58,0.298,0.686,-0.322
66659,-482.0,-210.0,-1208.0,0.571,0.297,0.692,-0.326
66685,-520.0,-1222.0,-1614.0,0.56,0.296,0.701,-0.33
66701,-2094.0,-30.0,-1532.0,0.547,0.295,0.709,-0.333
66717,-4440.0,-640.0,-378.0,0.534,0.293,0.719,-0.334
66733,-4536.0,-1106.0,-906.0,0.521,0.291,0.729,-0.336
66749,-5430.0,638.0,-1794.0,0.511,0.288,0.737,-0.335
66765,-7294.0,-1350.0,-1430.0,0.505,0.286,0.743,-0.333
66782,-7122.0,-1690.0,-1336.0,0.5,0.283,0.749,-0.331
66809,-7392.0,-1702.0,-2822.0,0.497,0.28,0.753,-0.328
66825,-7840.0,-3278.0,-2814.0,0.493,0.277,0.758,-0.325
66842,-8006.0,-1046.0,-1710.0,0.489,0.274,0.762,-0.324
66858,-7550.0,-1558.0,-2706.0,0.487,0.271,0.765,-0.322
66875,-8232.0,-2940.0,-2888.0,0.485,0.27,0.768,-0.321
66892,-8844.0,-2808.0,-1678.0,0.482,0.268,0.77,-0.32
66909,-7920.0,-1992.0,-2682.0,0.481,0.267,0.772,-0.319
66925,-8476.0,-2430.0,-2502.0,0.48,0.266,0.773,-0.318
66942,-9662.0,-2422.0,-2074.0,0.481,0.266,0.773,-0.317
66959,-7958.0,-2322.0,-2822.0,0.482,0.266,0.773,-0.317
66985,-8366.0,-2736.0,-2494.0,0.482,0.265,0.773,-0.315
67001,-9982.0,-2702.0,-1560.0,0.484,0.265,0.773,-0.314
67017,-9432.0,-3070.0,-1850.0,0.487,0.266,0.771,-0.313
67033,-9762.0,-2788.0,-1958.0,0.491,0.267,0.768,-0.313
67049,-9790.0,-2880.0,-2060.0,0.494,0.267,0.766,-0.313
67065,-10150.0,-2634.0,-1776.0,0.499,0.268,0.763,-0.313
67092,-10254.0,-3260.0,-1880.0,0.503,0.268,0.76,-0.313
67109,-10730.0,-2796.0,-1428.0,0.507,0.269,0.756,-0.314
67125,-10790.0,-2896.0,-1586.0,0.512,0.27,0.752,-0.315
67142,-10910.0,-2814.0,-1876.0,0.517,0.27,0.748,-0.316
67158,-11870.0,-3064.0,-1684.0,0.521,0.27,0.745,-0.317
67174,-11830.0,-3048.0,-2364.0,0.524,0.269,0.743,-0.319
67191,-12432.0,-2900.0,-2600.0,0.526,0.269,0.741,-0.32
67208,-13834.0,-3228.0,-2300.0,0.528,0.269,0.739,-0.32
67225,-13724.0,-3206.0,-2714.0,0.528,0.268,0.739,-0.321
67242,-13682.0,-3320.0,-2922.0,0.527,0.268,0.74,-0.321
67269,-14002.0,-3112.0,-2376.0,0.525,0.266,0.742,-0.321
67285,-13580.0,-3292.0,-2382.0,0.522,0.264,0.745,-0.321
67301,-12940.0,-2978.0,-2452.0,0.519,0.262,0.747,-0.321
67317,-11932.0,-2584.0,-1860.0,0.516,0.26,0.751,-0.32
67333,-11522.0,-2316.0,-2324.0,0.512,0.258,0.755,-0.319
67349,-10290.0,-2458.0,-2334.0,0.507,0.257,0.759,-0.317
67375,-10308.0,-2470.0,-1778.0,0.502,0.257,0.763,-0.315
67391,-9518.0,-2126.0,-2226.0,0.497,0.258,0.767,-0.313
67408,-8736.0,-1906.0,-2146.0,0.492,0.259,0.771,-0.311
67425,-8354.0,-2132.0,-1850.0,0.488,0.26,0.774,-0.308
67442,-8538.0,-2202.0,-2164.0,0.484,0.261,0.777,-0.306
67458,-7878.0,-1724.0,-2188.0,0.48,0.262,0.78,-0.304
67475,-7434.0,-2056.0,-1896.0,0.478,0.264,0.781,-0.303
67492,-8246.0,-2088.0,-2194.0,0.477,0.265,0.782,-0.302
67509,-7426.0,-1778.0,-2194.0,0.477,0.266,0.782,-0.301
67525,-6790.0,-2404.0,-1938.0,0.478,0.268,0.78,-0.301
67551,-7094.0,-1188.0,-2546.0,0.481,0.269,0.778,-0.301
67567,-6654.0,-2200.0,-2314.0,0.484,0.27,0.775,-0.301
67584,-6280.0,-1836.0,-1778.0,0.489,0.272,0.772,-0.302
67600,-6368.0,-1898.0,-2452.0,0.493,0.273,0.768,-0.303
67617,-6078.0,-2082.0,-2204.0,0.498,0.275,0.764,-0.303
67633,-5914.0,-1728.0,-1434.0,0.503,0.277,0.76,-0.303
67649,-5878.0,-1538.0,-2192.0,0.509,0.28,0.756,-0.303
67675,-6384.0,-2324.0,-1678.0,0.514,0.283,0.751,-0.303
67692,-5870.0,-1322.0,-914.0,0.52,0.287,0.746,-0.303
67708,-5828.0,-1572.0,-1824.0,0.525,0.29,0.74,-0.303
67725,-6152.0,-2054.0,-1632.0,0.53,0.295,0.735,-0.304
67741,-6462.0,-1338.0,-770.0,0.534,0.3,0.73,-0.305
67757,-5408.0,-562.0,-1610.0,0.539,0.304,0.724,-0.305
67774,-4954.0,-968.0,-1092.0,0.545,0.308,0.717,-0.305
67791,-4136.0,-484.0,-418.0,0.553,0.311,0.711,-0.303
67818,-2914.0,-982.0,-1030.0,0.56,0.313,0.705,-0.302
67835,-1804.0,-732.0,-1130.0,0.565,0.314,0.701,-0.301
67851,-1540.0,-1460.0,-846.0,0.567,0.314,0.7,-0.301
67867,-1646.0,-720.0,-1044.0,0.566,0.314,0.7,-0.302
67883,-1346.0,-1018.0,-408.0,0.563,0.313,0.702,-0.304
67899,-1046.0,-154.0,-642.0,0.557,0.311,0.707,-0.306
67915,-1134.0,-398.0,-1248.0,0.549,0.309,0.713,-0.307
67941,-1660.0,-206.0,-1252.0,0.539,0.306,0.721,-0.309
67958,-3470.0,800.0,-618.0,0.529,0.304,0.73,-0.309
67975,-4294.0,-1010.0,-902.0,0.519,0.3,0.739,-0.308
67991,-5522.0,74.0,-2042.0,0.509,0.297,0.747,-0.307
68007,-7440.0,-554.0,-1048.0,0.5,0.293,0.755,-0.306
68024,-6642.0,-576.0,-1362.0,0.494,0.289,0.762,-0.304
68041,-8126.0,-2344.0,-2796.0,0.488,0.285,0.767,-0.304
68057,-10110.0,-434.0,-3074.0,0.483,0.281,0.772,-0.303
68083,-8090.0,-2416.0,-2470.0,0.48,0.279,0.775,-0.302
68099,-8974.0,-1460.0,-3498.0,0.478,0.276,0.777,-0.303
68115,-10008.0,-2768.0,-3662.0,0.477,0.274,0.778,-0.303
68131,-8010.0,-2100.0,-3186.0,0.475,0.272,0.78,-0.302
68148,-6872.0,-2242.0,-3746.0,0.473,0.269,0.782,-0.302
68164,-9342.0,-2316.0,-3114.0,0.472,0.267,0.784,-0.302
68181,-8630.0,-2494.0,-2196.0,0.472,0.266,0.785,-0.302
68207,-7570.0,-2382.0,-3866.0,0.471,0.265,0.785,-0.303
68224,-8566.0,-2190.0,-3130.0,0.47,0.263,0.786,-0.303
68241,-9426.0,-2358.0,-2190.0,0.47,0.263,0.786,-0.303
68258,-9276.0,-2686.0,-3404.0,0.471,0.263,0.785,-0.303
68275,-8804.0,-2710.0,-2862.0,0.473,0.263,0.784,-0.304
68292,-9530.0,-2642.0,-2042.0,0.475,0.262,0.783,-0.305
68309,-9222.0,-2378.0,-3044.0,0.478,0.26,0.781,-0.307
68326,-9298.0,-2780.0,-1996.0,0.481,0.258,0.779,-0.309
68343,-9454.0,-2832.0,-1454.0,0.485,0.256,0.776,-0.312
68360,-8476.0,-2820.0,-2630.0,0.49,0.255,0.772,-0.314
68377,-8556.0,-3090.0,-2022.0,0.494,0.253,0.77,-0.316
68394,-9118.0,-3338.0,-1254.0,0.498,0.251,0.767,-0.318
68411,-9370.0,-3268.0,-1880.0,0.502,0.251,0.764,-0.319
68438,-9622.0,-3726.0,-2182.0,0.506,0.25,0.761,-0.321
68455,-9890.0,-3862.0,-2144.0,0.508,0.251,0.759,-0.322
68472,-10876.0,-3354.0,-2830.0,0.508,0.252,0.758,-0.322
68488,-12584.0,-4548.0,-2490.0,0.509,0.252,0.758,-0.322
68505,-13724.0,-4532.0,-2616.0,0.509,0.252,0.757,-0.322
68522,-13060.0,-3918.0,-3488.0,0.508,0.253,0.758,-0.322
68539,-13954.0,-4104.0,-3212.0,0.506,0.252,0.76,-0.321
68555,-13794.0,-4186.0,-3022.0,0.503,0.251,0.762,-0.321
68572,-12850.0,-3714.0,-3148.0,0.499,0.25,0.766,-0.32
68588,-12428.0,-3262.0,-3130.0,0.495,0.248,0.769,-0.32
68614,-12090.0,-3180.0,-2712.0,0.491,0.246,0.773,-0.319
68630,-11122.0,-2904.0,-3152.0,0.486,0.245,0.776,-0.319
68646,-10872.0,-2748.0,-2870.0,0.481,0.244,0.78,-0.318
68662,-10302.0,-2776.0,-2642.0,0.476,0.243,0.783,-0.317
68678,-9868.0,-2688.0,-3276.0,0.472,0.243,0.786,-0.316
68694,-9034.0,-2332.0,-2872.0,0.468,0.244,0.789,-0.315
68711,-8892.0,-2602.0,-2310.0,0.465,0.244,0.791,-0.314
68738,-8998.0,-2704.0,-2526.0,0.463,0.245,0.792,-0.313
68755,-8074.0,-2806.0,-2192.0,0.463,0.245,0.792,-0.314
68772,-7448.0,-2344.0,-1972.0,0.464,0.247,0.791,-0.314
68789,-7076.0,-2642.0,-2298.0,0.466,0.247,0.789,-0.315
68806,-7518.0,-2782.0,-1426.0,0.469,0.248,0.786,-0.316
68823,-6378.0,-2398.0,-1590.0,0.474,0.25,0.783,-0.317
68840,-5674.0,-2262.0,-2086.0,0.48,0.251,0.778,-0.318
68857,-5840.0,-2370.0,-1106.0,0.486,0.253,0.773,-0.319
68874,-5748.0,-1940.0,-1412.0,0.492,0.256,0.768,-0.32
68891,-5346.0,-1628.0,-1370.0,0.499,0.258,0.763,-0.321
68908,-5132.0,-1738.0,-662.0,0.506,0.262,0.757,-0.321
68925,-5144.0,-1276.0,-1038.0,0.512,0.265,0.751,-0.321
68942,-5458.0,-2098.0,-1468.0,0.518,0.269,0.746,-0.321
68959,-4860.0,-394.0,-998.0,0.524,0.273,0.74,-0.32
68986,-4976.0,-2760.0,-958.0,0.529,0.278,0.735,-0.319
69002,-6098.0,-1248.0,-1314.0,0.533,0.284,0.73,-0.32
69019,-5066.0,-450.0,-610.0,0.538,0.289,0.724,-0.32
69036,-5064.0,-1586.0,-1126.0,0.543,0.294,0.719,-0.319
69053,-4962.0,-234.0,-1318.0,0.548,0.298,0.714,-0.318
69069,-4610.0,-1416.0,-660.0,0.553,0.301,0.71,-0.317
69085,-4272.0,44.0,-772.0,0.558,0.302,0.706,-0.316
69102,-3502.0,-914.0,-1604.0,0.562,0.303,0.703,-0.314
69119,-2522.0,-1028.0,-1300.0,0.563,0.303,0.702,-0.312
69146,-2302.0,-1736.0,-1498.0,0.562,0.302,0.704,-0.312
69162,-2330.0,-1314.0,-1862.0,0.556,0.301,0.709,-0.313
69178,-2500.0,-930.0,-1360.0,0.548,0.299,0.715,-0.314
69194,-2568.0,-1586.0,-1378.0,0.539,0.296,0.723,-0.316
69211,-3042.0,480.0,-1400.0,0.528,0.293,0.731,-0.318
69228,-3282.0,854.0,-1326.0,0.52,0.29,0.738,-0.317
69244,-4420.0,-2152.0,-2646.0,0.513,0.288,0.745,-0.315
69260,-5908.0,-1012.0,-1536.0,0.503,0.284,0.753,-0.314
69287,-5106.0,-540.0,-1754.0,0.496,0.281,0.76,-0.312
69303,-6106.0,-1870.0,-2380.0,0.491,0.278,0.765,-0.309
69319,-7744.0,-2610.0,-3498.0,0.486,0.275,0.77,-0.308
69336,-7296.0,-986.0,-1966.0,0.482,0.272,0.774,-0.308
69353,-6890.0,-2146.0,-2176.0,0.48,0.269,0.777,-0.306
69369,-7490.0,-1896.0,-3820.0,0.479,0.266,0.779,-0.306
69386,-8144.0,-2580.0,-2484.0,0.477,0.263,0.781,-0.305
69403,-5542.0,-1698.0,-2588.0,0.474,0.261,0.784,-0.303
69419,-6530.0,-2190.0,-3438.0,0.472,0.258,0.787,-0.302
69445,-8338.0,-2786.0,-2058.0,0.469,0.256,0.79,-0.3
69461,-7640.0,-2444.0,-1954.0,0.467,0.253,0.793,-0.299
69478,-6098.0,-2060.0,-3194.0,0.466,0.252,0.795,-0.297
69494,-8392.0,-3012.0,-2382.0,0.465,0.251,0.796,-0.295
69511,-8358.0,-3054.0,-2132.0,0.464,0.251,0.797,-0.294
69528,-7470.0,-2176.0,-2456.0,0.466,0.251,0.797,-0.293
69544,-7976.0,-2518.0,-2892.0,0.467,0.25,0.796,-0.292
69561,-8802.0,-3234.0,-2618.0,0.469,0.25,0.796,-0.29
69587,-9022.0,-3566.0,-2944.0,0.471,0.251,0.795,-0.289
69604,-10354.0,-3070.0,-2552.0,0.474,0.251,0.793,-0.29
69621,-11278.0,-3176.0,-2580.0,0.479,0.25,0.79,-0.291
69638,-11048.0,-3008.0,-3434.0,0.484,0.251,0.786,-0.292
69655,-10894.0,-3436.0,-2958.0,0.49,0.25,0.782,-0.294
69671,-11378.0,-3500.0,-2526.0,0.496,0.25,0.777,-0.296
69688,-11672.0,-2936.0,-3264.0,0.502,0.249,0.773,-0.298
69704,-10804.0,-3162.0,-2640.0,0.507,0.248,0.769,-0.3
69721,-11484.0,-3362.0,-2124.0,0.512,0.246,0.765,-0.302
69738,-12406.0,-3124.0,-3032.0,0.516,0.245,0.762,-0.305
69765,-11842.0,-3026.0,-2300.0,0.519,0.243,0.76,-0.307
69782,-11880.0,-3324.0,-2588.0,0.52,0.241,0.759,-0.309
69799,-13280.0,-3196.0,-3116.0,0.52,0.24,0.759,-0.31
69815,-12932.0,-3206.0,-2366.0,0.519,0.239,0.76,-0.31
69831,-12912.0,-3164.0,-2670.0,0.516,0.238,0.762,-0.31
69847,-12542.0,-3434.0,-3548.0,0.513,0.237,0.765,-0.31
69863,-12434.0,-3212.0,-2556.0,0.508,0.235,0.769,-0.309
69889,-12262.0,-3324.0,-2678.0,0.502,0.234,0.774,-0.307
69906,-11848.0,-3510.0,-3208.0,0.497,0.233,0.778,-0.306
69923,-11412.0,-3630.0,-2206.0,0.492,0.232,0.782,-0.305
69940,-11000.0,-3344.0,-2328.0,0.488,0.231,0.785,-0.304
69958,-10428.0,-2978.0,-2872.0,0.485,0.231,0.787,-0.304
69975,-9586.0,-2900.0,-2314.0,0.483,0.231,0.788,-0.304
69992,-9284.0,-2808.0,-2664.0,0.482,0.231,0.789,-0.304
70009,-8744.0,-2692.0,-2674.0,0.481,0.232,0.789,-0.304
70026,-8326.0,-2412.0,-2028.0,0.481,0.233,0.789,-0.304
70043,-8022.0,-2346.0,-2410.0,0.482,0.234,0.788,-0.304
70060,-7328.0,-2760.0,-2442.0,0.484,0.237,0.786,-0.303
70077,-7532.0,-2948.0,-1520.0,0.486,0.239,0.783,-0.305
70094,-7384.0,-2144.0,-1732.0,0.49,0.242,0.78,-0.306
70111,-6584.0,-1944.0,-1592.0,0.495,0.245,0.775,-0.307
70128,-5894.0,-2104.0,-1082.0,0.501,0.248,0.77,-0.307
70145,-5950.0,-2324.0,-1406.0,0.507,0.253,0.764,-0.309
70171,-5906.0,-746.0,-918.0,0.514,0.256,0.758,-0.31
70188,-4224.0,-842.0,-1114.0,0.523,0.26,0.751,-0.309
70205,-4574.0,-2146.0,-1160.0,0.53,0.265,0.744,-0.308
70222,-5338.0,-832.0,-728.0,0.537,0.269,0.738,-0.309
70239,-4510.0,-1336.0,-706.0,0.543,0.274,0.731,-0.308
70256,-4702.0,-2394.0,-1532.0,0.548,0.279,0.725,-0.31
70273,-5508.0,-538.0,-930.0,0.552,0.284,0.719,-0.312
70290,-4996.0,-750.0,-774.0,0.557,0.289,0.713,-0.313
70307,-5260.0,288.0,-750.0,0.565,0.293,0.705,-0.313
70323,-4064.0,-410.0,-686.0,0.574,0.296,0.697,-0.311
70340,-3310.0,-730.0,-760.0,0.583,0.298,0.691,-0.308
70357,-2944.0,-802.0,-962.0,0.589,0.298,0.686,-0.305
70384,-1968.0,-1412.0,-1098.0,0.593,0.297,0.684,-0.304
70400,-1656.0,-1920.0,-1194.0,0.592,0.296,0.685,-0.304
70416,-1842.0,-1072.0,-956.0,0.588,0.294,0.689,-0.306
70433,-1772.0,-1028.0,-688.0,0.581,0.291,0.694,-0.309
70450,-1402.0,-1052.0,-974.0,0.572,0.288,0.702,-0.312
70467,-2016.0,-668.0,-1108.0,0.561,0.286,0.71,-0.315
70483,-2714.0,456.0,-974.0,0.55,0.284,0.719,-0.317
70500,-3452.0,-1302.0,-1146.0,0.538,0.281,0.729,-0.317
70517,-5054.0,-1314.0,-1430.0,0.525,0.278,0.738,-0.318
70534,-5884.0,1134.0,-462.0,0.515,0.275,0.747,-0.318
70561,-6048.0,-736.0,-1176.0,0.508,0.272,0.754,-0.315
70577,-5824.0,-3432.0,-3380.0,0.5,0.269,0.761,-0.314
70593,-8906.0,-1724.0,-1866.0,0.491,0.266,0.768,-0.314
70610,-7452.0,-878.0,-1484.0,0.485,0.264,0.773,-0.311
70627,-7738.0,-2226.0,-3154.0,0.481,0.262,0.777,-0.31
70643,-8932.0,-3092.0,-3476.0,0.478,0.26,0.781,-0.307
70660,-8080.0,-2692.0,-2274.0,0.473,0.257,0.785,-0.306
70677,-8420.0,-2402.0,-3388.0,0.47,0.256,0.788,-0.305
70703,-10020.0,-3120.0,-2932.0,0.469,0.254,0.789,-0.305
70720,-8940.0,-2700.0,-2242.0,0.469,0.253,0.79,-0.304
70737,-7628.0,-2844.0,-3686.0,0.47,0.251,0.79,-0.304
70754,-7640.0,-2934.0,-3704.0,0.47,0.25,0.79,-0.305
70771,-9316.0,-3134.0,-1792.0,0.471,0.248,0.79,-0.305
70788,-8492.0,-2556.0,-2552.0,0.473,0.246,0.789,-0.306
70805,-8644.0,-3050.0,-2632.0,0.475,0.245,0.788,-0.306
70822,-9266.0,-3178.0,-1840.0,0.479,0.244,0.786,-0.307
70839,-7978.0,-3074.0,-2588.0,0.482,0.243,0.783,-0.309
70856,-8752.0,-2958.0,-2662.0,0.485,0.242,0.781,-0.31
70873,-10028.0,-3306.0,-1612.0,0.489,0.242,0.779,-0.31
70890,-9730.0,-3370.0,-2032.0,0.493,0.243,0.776,-0.311
70907,-10440.0,-3512.0,-2316.0,0.498,0.243,0.772,-0.311
70924,-11870.0,-3654.0,-1852.0,0.503,0.244,0.768,-0.312
70951,-11624.0,-3746.0,-2510.0,0.507,0.244,0.765,-0.313
70967,-13082.0,-4188.0,-2674.0,0.511,0.243,0.762,-0.315
70983,-14864.0,-4784.0,-2080.0,0.515,0.241,0.759,-0.317
71000,-14408.0,-4288.0,-3390.0,0.518,0.239,0.756,-0.32
71017,-14188.0,-4096.0,-3734.0,0.519,0.236,0.756,-0.322
71033,-14624.0,-4322.0,-3034.0,0.518,0.233,0.757,-0.322
71049,-14046.0,-4192.0,-3448.0,0.516,0.23,0.76,-0.321
71075,-12622.0,-3590.0,-3296.0,0.512,0.228,0.764,-0.32
71092,-12936.0,-3964.0,-2170.0,0.506,0.226,0.769,-0.318
71109,-12210.0,-3508.0,-2266.0,0.5,0.226,0.774,-0.315
71126,-11022.0,-3174.0,-2096.0,0.494,0.226,0.779,-0.313
71143,-10536.0,-3604.0,-2014.0,0.487,0.226,0.784,-0.311
71160,-10198.0,-3264.0,-2246.0,0.481,0.228,0.788,-0.309
71176,-9532.0,-2730.0,-2070.0,0.476,0.229,0.792,-0.308
71193,-9722.0,-3266.0,-1722.0,0.472,0.23,0.794,-0.306
71210,-9268.0,-2772.0,-2054.0,0.471,0.231,0.794,-0.307
71226,-7912.0,-2350.0,-2170.0,0.472,0.232,0.793,-0.306
71243,-7394.0,-2650.0,-2108.0,0.473,0.234,0.792,-0.307
71260,-7592.0,-2038.0,-1832.0,0.476,0.236,0.79,-0.307
71286,-6246.0,-2184.0,-1872.0,0.479,0.238,0.787,-0.306
71302,-5562.0,-2788.0,-2036.0,0.483,0.242,0.784,-0.306
71319,-6714.0,-1682.0,-1262.0,0.486,0.246,0.78,-0.307
71336,-5434.0,-1486.0,-1642.0,0.491,0.249,0.777,-0.306
71352,-5570.0,-2988.0,-1640.0,0.495,0.253,0.772,-0.306
71368,-6676.0,-1218.0,-1388.0,0.5,0.258,0.767,-0.308
71385,-5570.0,-1282.0,-1634.0,0.506,0.264,0.762,-0.308
71411,-5570.0,-1664.0,-1590.0,0.512,0.269,0.755,-0.308
71427,-5054.0,-1006.0,-1458.0,0.519,0.275,0.748,-0.307
71443,-4736.0,-2040.0,-920.0,0.527,0.281,0.741,-0.306
71460,-5296.0,-2062.0,-1010.0,0.534,0.287,0.733,-0.308
71476,-4860.0,560.0,-594.0,0.542,0.291,0.725,-0.309
71493,-3798.0,-1052.0,-670.0,0.552,0.294,0.717,-0.308
71510,-3896.0,-858.0,-970.0,0.561,0.297,0.709,-0.308
71526,-3088.0,396.0,-966.0,0.571,0.297,0.701,-0.306
71543,-2516.0,-1326.0,-764.0,0.579,0.296,0.697,-0.303
71570,-2286.0,-1318.0,-1354.0,0.584,0.295,0.694,-0.301
71587,-2118.0,-2018.0,-1364.0,0.585,0.293,0.694,-0.301
71603,-2352.0,-1528.0,-852.0,0.582,0.292,0.696,-0.302
71620,-2668.0,-1040.0,-1084.0,0.576,0.29,0.701,-0.305
71637,-2804.0,-1814.0,-1048.0,0.568,0.288,0.707,-0.308
71653,-3218.0,-422.0,-500.0,0.558,0.286,0.714,-0.312
71669,-3096.0,276.0,-1478.0,0.548,0.283,0.722,-0.314
71686,-4080.0,-990.0,-1450.0,0.539,0.281,0.73,-0.314
71703,-4820.0,-1262.0,-1264.0,0.528,0.279,0.738,-0.315
71729,-5274.0,-194.0,-1522.0,0.518,0.276,0.746,-0.315
71745,-5022.0,-706.0,-1704.0,0.51,0.273,0.753,-0.313
71761,-5622.0,-1812.0,-1400.0,0.502,0.271,0.76,-0.311
71777,-7104.0,-2416.0,-2956.0,0.493,0.269,0.767,-0.31
71793,-6668.0,-356.0,-1920.0,0.486,0.266,0.773,-0.308
71810,-6748.0,-2136.0,-1614.0,0.481,0.264,0.778,-0.306
71836,-8210.0,-2178.0,-2692.0,0.477,0.261,0.782,-0.304
71852,-6972.0,-2312.0,-3048.0,0.474,0.258,0.786,-0.303
71869,-6622.0,-2076.0,-2288.0,0.47,0.256,0.789,-0.302
71886,-7588.0,-2630.0,-3250.0,0.468,0.253,0.791,-0.302
71903,-8850.0,-2040.0,-2756.0,0.467,0.251,0.793,-0.302
71920,-7216.0,-1778.0,-2408.0,0.468,0.248,0.793,-0.301
71937,-7092.0,-2834.0,-3652.0,0.468,0.246,0.793,-0.301
71953,-8378.0,-2532.0,-2966.0,0.47,0.244,0.793,-0.301
71969,-9222.0,-3066.0,-1628.0,0.473,0.242,0.791,-0.303
71986,-8730.0,-2446.0,-2514.0,0.478,0.241,0.787,-0.305
72013,-8604.0,-2698.0,-3094.0,0.485,0.239,0.783,-0.307
72029,-8784.0,-3324.0,-1900.0,0.491,0.237,0.779,-0.309
72045,-9770.0,-3442.0,-1890.0,0.498,0.235,0.774,-0.312
72061,-10162.0,-3190.0,-2444.0,0.505,0.234,0.769,-0.315
72077,-10318.0,-3170.0,-1578.0,0.512,0.233,0.763,-0.318
72093,-11134.0,-3620.0,-1760.0,0.519,0.232,0.758,-0.32
72119,-11616.0,-3558.0,-1602.0,0.526,0.23,0.753,-0.322
72135,-12160.0,-4518.0,-1176.0,0.532,0.23,0.748,-0.324
72151,-13024.0,-3962.0,-1482.0,0.537,0.23,0.743,-0.326
72168,-12946.0,-3702.0,-1996.0,0.541,0.23,0.74,-0.328
72185,-14256.0,-4668.0,-1474.0,0.543,0.229,0.738,-0.329
72201,-14994.0,-4604.0,-1430.0,0.544,0.227,0.737,-0.331
72218,-14564.0,-4282.0,-1790.0,0.543,0.226,0.737,-0.332
72235,-13936.0,-4440.0,-2120.0,0.541,0.224,0.739,-0.332
72252,-12624.0,-4282.0,-2234.0,0.537,0.222,0.743,-0.332
72269,-12620.0,-4630.0,-1620.0,0.531,0.22,0.749,-0.33
72296,-12630.0,-4194.0,-1678.0,0.524,0.22,0.754,-0.328
72312,-11370.0,-3874.0,-1628.0,0.517,0.22,0.76,-0.325
72328,-10254.0,-4340.0,-2052.0,0.509,0.222,0.767,-0.322
72344,-10962.0,-3508.0,-1690.0,0.502,0.224,0.773,-0.318
72360,-10280.0,-3460.0,-1482.0,0.495,0.226,0.777,-0.315
72376,-9932.0,-3660.0,-1386.0,0.491,0.228,0.781,-0.312
72402,-9622.0,-3082.0,-990.0,0.489,0.23,0.782,-0.31
72419,-8190.0,-2820.0,-1356.0,0.488,0.231,0.783,-0.31
72436,-7920.0,-2434.0,-1444.0,0.488,0.231,0.782,-0.31
72453,-7664.0,-2312.0,-1174.0,0.49,0.233,0.781,-0.311
72470,-6676.0,-2106.0,-1746.0,0.491,0.234,0.78,-0.311
72487,-6616.0,-1552.0,-1662.0,0.491,0.236,0.779,-0.311
72504,-6882.0,-1906.0,-926.0,0.493,0.238,0.777,-0.311
72521,-7094.0,-2256.0,-980.0,0.495,0.241,0.774,-0.311
72538,-6636.0,-2062.0,-1626.0,0.497,0.244,0.771,-0.313
72555,-6838.0,-1168.0,-1312.0,0.5,0.248,0.769,-0.313
72572,-6800.0,-2168.0,-1268.0,0.503,0.251,0.765,-0.314
72589,-6556.0,-1552.0,-1472.0,0.507,0.255,0.761,-0.314
72606,-6586.0,-1444.0,-1126.0,0.512,0.259,0.757,-0.314
72623,-5882.0,-1328.0,-1578.0,0.517,0.263,0.752,-0.313
72650,-5960.0,-2314.0,-1370.0,0.523,0.268,0.746,-0.313
72666,-6488.0,-1296.0,-804.0,0.527,0.273,0.741,-0.314
72682,-6502.0,-464.0,-900.0,0.535,0.278,0.734,-0.313
72699,-5926.0,-2176.0,-1252.0,0.543,0.284,0.726,-0.313
72715,-6476.0,-406.0,-1040.0,0.55,0.29,0.717,-0.314
72731,-5762.0,1248.0,-944.0,0.56,0.295,0.708,-0.312
72747,-4688.0,-242.0,-534.0,0.572,0.298,0.699,-0.308
72774,-3742.0,-596.0,-816.0,0.584,0.3,0.691,-0.302
72790,-2970.0,-1134.0,-940.0,0.593,0.302,0.685,-0.297
72806,-2902.0,-2098.0,-770.0,0.598,0.303,0.681,-0.293
72823,-3506.0,-2020.0,-584.0,0.599,0.305,0.68,-0.293
72839,-3370.0,-2206.0,-350.0,0.597,0.305,0.681,-0.294
72856,-4076.0,-2152.0,-398.0,0.591,0.307,0.684,-0.298
72872,-5358.0,-640.0,-38.0,0.582,0.307,0.689,-0.303
72889,-4920.0,-1742.0,-666.0,0.571,0.306,0.697,-0.308
72915,-6742.0,-912.0,-350.0,0.558,0.309,0.704,-0.314
72931,-8972.0,672.0,28.0,0.547,0.309,0.711,-0.315
72948,-9794.0,-2138.0,-870.0,0.537,0.31,0.718,-0.316
72965,-10808.0,-1218.0,-1418.0,0.529,0.31,0.724,-0.316
72981,-11174.0,-1702.0,-608.0,0.524,0.31,0.728,-0.315
72998,-10940.0,-1990.0,-1382.0,0.52,0.31,0.732,-0.312
73015,-10564.0,-1936.0,-1368.0,0.517,0.311,0.735,-0.31
73032,-9928.0,-1738.0,-556.0,0.514,0.313,0.737,-0.308
73049,-8890.0,-1540.0,-1204.0,0.513,0.314,0.738,-0.305
73066,-7684.0,-1576.0,-1268.0,0.513,0.316,0.739,-0.302
73092,-6948.0,-1376.0,-754.0,0.511,0.317,0.741,-0.299
73109,-6604.0,-1686.0,-1296.0,0.509,0.319,0.743,-0.296
73126,-6404.0,-1334.0,-1106.0,0.506,0.32,0.745,-0.294
73143,-6154.0,-1584.0,-830.0,0.502,0.321,0.748,-0.292
73160,-6394.0,-1322.0,-1328.0,0.497,0.322,0.752,-0.29
73177,-6548.0,-1474.0,-1526.0,0.491,0.323,0.756,-0.288
73194,-6944.0,-1148.0,-1134.0,0.485,0.323,0.761,-0.286
73211,-6954.0,-1732.0,-1818.0,0.478,0.324,0.765,-0.285
73228,-7458.0,-1126.0,-2110.0,0.471,0.325,0.77,-0.283
73245,-7496.0,-1426.0,-2166.0,0.464,0.325,0.775,-0.28
73262,-7484.0,-1420.0,-2666.0,0.457,0.326,0.78,-0.277
73279,-7508.0,-1660.0,-3136.0,0.45,0.328,0.784,-0.273
73296,-7918.0,-1184.0,-2784.0,0.444,0.33,0.788,-0.27
73323,-7674.0,-1054.0,-3300.0,0.439,0.331,0.792,-0.265
73340,-7266.0,-1478.0,-3256.0,0.434,0.331,0.796,-0.261
73356,-7104.0,-1556.0,-3334.0,0.43,0.331,0.8,-0.257
73372,-6530.0,-1982.0,-3798.0,0.425,0.33,0.804,-0.254
73389,-6294.0,-888.0,-3918.0,0.42,0.33,0.807,-0.251
73405,-6100.0,-1180.0,-4174.0,0.415,0.33,0.811,-0.247
73422,-5808.0,-1252.0,-4834.0,0.409,0.33,0.815,-0.244
73439,-6326.0,-1664.0,-5240.0,0.403,0.33,0.819,-0.24
73456,-6914.0,-1004.0,-4734.0,0.396,0.33,0.824,-0.236
73482,-6196.0,-1606.0,-4888.0,0.391,0.329,0.828,-0.232
73498,-6344.0,-1250.0,-5760.0,0.385,0.329,0.831,-0.229
73515,-6646.0,-1636.0,-5606.0,0.379,0.329,0.835,-0.226
73532,-6646.0,-954.0,-4854.0,0.374,0.329,0.838,-0.223
73549,-6272.0,-1408.0,-5574.0,0.37,0.329,0.841,-0.22
73566,-6144.0,-1188.0,-5476.0,0.366,0.329,0.843,-0.217
73582,-6216.0,-1492.0,-5096.0,0.363,0.328,0.845,-0.215
73599,-5806.0,-1744.0,-5536.0,0.358,0.327,0.848,-0.213
73616,-5908.0,-1244.0,-5182.0,0.354,0.326,0.851,-0.21
73632,-6298.0,-1440.0,-4894.0,0.35,0.326,0.853,-0.208
73659,-5816.0,-1924.0,-5622.0,0.346,0.325,0.856,-0.206
73676,-5994.0,-1274.0,-5402.0,0.342,0.324,0.858,-0.203
73693,-5858.0,-1866.0,-5196.0,0.337,0.324,0.861,-0.201
73710,-6402.0,-1470.0,-5654.0,0.333,0.324,0.863,-0.198
73727,-6436.0,-1792.0,-5286.0,0.33,0.324,0.865,-0.195
73744,-6246.0,-2128.0,-5530.0,0.326,0.324,0.867,-0.192
73761,-6386.0,-1836.0,-5914.0,0.323,0.324,0.869,-0.19
73778,-6060.0,-1536.0,-5650.0,0.32,0.324,0.87,-0.187
73794,-6292.0,-1826.0,-5580.0,0.317,0.324,0.872,-0.185
73810,-6260.0,-1562.0,-5706.0,0.315,0.324,0.873,-0.184
73836,-5420.0,-1642.0,-5650.0,0.313,0.324,0.874,-0.181
73853,-5556.0,-1544.0,-5634.0,0.311,0.323,0.875,-0.18
73870,-5544.0,-1438.0,-5840.0,0.309,0.323,0.877,-0.178
73887,-5424.0,-1220.0,-5424.0,0.307,0.322,0.878,-0.176
73903,-5274.0,-1222.0,-5760.0,0.305,0.322,0.879,-0.174
73920,-5456.0,-1560.0,-6038.0,0.303,0.322,0.88,-0.172
73936,-5854.0,-1398.0,-5834.0,0.3,0.321,0.882,-0.17
73952,-5802.0,-1012.0,-5794.0,0.298,0.321,0.883,-0.169
73968,-4852.0,460.0,-9308.0,0.297,0.321,0.883,-0.169
73995,-4640.0,-1184.0,-5236.0,0.296,0.32,0.884,-0.168
74012,-4630.0,-1144.0,-7452.0,0.295,0.319,0.885,-0.168
74029,-4898.0,-1304.0,-5994.0,0.294,0.319,0.885,-0.167
74046,-6460.0,-1546.0,-5352.0,0.293,0.319,0.886,-0.167
74063,-6264.0,-1136.0,-7624.0,0.292,0.319,0.886,-0.166
74080,-5052.0,-1478.0,-6062.0,0.291,0.319,0.887,-0.165
74097,-5898.0,-1562.0,-5534.0,0.289,0.319,0.888,-0.164
74114,-11650.0,-4278.0,-11312.0,0.29,0.318,0.888,-0.163
74131,-5904.0,-3526.0,-6032.0,0.289,0.318,0.888,-0.164
74148,-6648.0,-2252.0,-4146.0,0.289,0.318,0.888,-0.163
74165,-3742.0,-1162.0,-3884.0,0.288,0.317,0.889,-0.162
74182,-5910.0,-202.0,-5670.0,0.288,0.317,0.889,-0.161
74199,-7048.0,-824.0,-7142.0,0.288,0.317,0.889,-0.161
74216,-4928.0,-1176.0,-6590.0,0.287,0.317,0.889,-0.162
74243,402.0,902.0,792.0,0.284,0.316,0.891,-0.162
74259,-5632.0,-1496.0,-7556.0,0.285,0.315,0.891,-0.162
74276,-5966.0,8.0,-4818.0,0.285,0.314,0.891,-0.163
74292,2912.0,5076.0,7442.0,0.283,0.317,0.891,-0.162
74308,-5230.0,-784.0,-10370.0,0.282,0.318,0.89,-0.166
74325,-4012.0,58.0,-2904.0,0.28,0.319,0.89,-0.166
74342,-6708.0,-1602.0,-5952.0,0.28,0.319,0.89,-0.166
74359,-4180.0,-1776.0,-7400.0,0.279,0.319,0.89,-0.167
74376,-7080.0,-556.0,-6380.0,0.279,0.319,0.89,-0.168
74393,-4520.0,-1854.0,-4324.0,0.278,0.319,0.89,-0.168
74420,-5010.0,-1042.0,-6162.0,0.277,0.319,0.891,-0.168
74437,-5242.0,-598.0,-8064.0,0.277,0.318,0.891,-0.169
74454,-7110.0,-2268.0,-5374.0,0.276,0.319,0.891,-0.169
74471,-2932.0,-932.0,-5316.0,0.275,0.319,0.891,-0.17
74487,-3676.0,-4322.0,-1658.0,0.272,0.321,0.891,-0.169
74503,-3596.0,-1916.0,-4788.0,0.273,0.323,0.891,-0.167
74520,-4244.0,-4442.0,-678.0,0.271,0.324,0.891,-0.165
74537,-10022.0,-2230.0,-13332.0,0.272,0.324,0.891,-0.167
74553,-11818.0,-6144.0,-11246.0,0.273,0.322,0.891,-0.166
74570,-6874.0,-2858.0,-3724.0,0.272,0.321,0.892,-0.164
74596,-2022.0,-1732.0,-3204.0,0.273,0.32,0.893,-0.163
74612,-4994.0,-1562.0,-5144.0,0.273,0.32,0.893,-0.162
74628,-5336.0,-1414.0,-6002.0,0.272,0.32,0.893,-0.163
74644,-6640.0,-2596.0,-4926.0,0.273,0.32,0.893,-0.162
74661,-3744.0,-1362.0,-5498.0,0.272,0.32,0.893,-0.163
74678,-5554.0,-1058.0,-6136.0,0.272,0.32,0.893,-0.163
74695,-6292.0,62.0,-10016.0,0.274,0.319,0.893,-0.164
74712,-5068.0,-3188.0,-3000.0,0.274,0.318,0.893,-0.162
