timeMs,ax,ay,az,q0,q1,q2,q3
901216,6732.0,10184.0,8097.0,0.212,-0.095,-0.547,-0.804
901242,7430.0,12664.0,7443.0,0.206,-0.089,-0.549,-0.805
901259,7478.0,11570.0,6577.0,0.199,-0.076,-0.549,-0.808
901276,6604.0,9968.0,6617.0,0.193,-0.056,-0.548,-0.812
901293,5844.0,8200.0,6315.0,0.186,-0.034,-0.541,-0.819
901310,5962.0,6154.0,5671.0,0.181,-0.009,-0.53,-0.829
901327,5176.0,4504.0,4877.0,0.18,0.016,-0.515,-0.838
901344,4602.0,4128.0,4013.0,0.18,0.042,-0.5,-0.846
901361,3376.0,4368.0,3447.0,0.182,0.066,-0.483,-0.854
901378,3194.0,4806.0,2475.0,0.186,0.086,-0.465,-0.861
901394,3164.0,4798.0,1743.0,0.193,0.103,-0.444,-0.869
901410,2940.0,3212.0,1221.0,0.202,0.117,-0.42,-0.877
901437,2354.0,1136.0,1053.0,0.212,0.128,-0.397,-0.884
901456,1456.0,1428.0,949.0,0.225,0.138,-0.38,-0.887
901473,558.0,2146.0,1241.0,0.241,0.145,-0.369,-0.886
901489,-154.0,3062.0,1405.0,0.261,0.151,-0.363,-0.882
901505,-402.0,4164.0,1805.0,0.28,0.154,-0.363,-0.875
901522,-682.0,5662.0,1655.0,0.298,0.157,-0.368,-0.867
901538,-1038.0,7050.0,1563.0,0.314,0.159,-0.376,-0.857
901555,-1500.0,7478.0,1369.0,0.329,0.162,-0.386,-0.847
901572,-2462.0,8634.0,1201.0,0.343,0.165,-0.396,-0.835
901589,-3766.0,10048.0,1137.0,0.358,0.168,-0.403,-0.826
901606,-5562.0,10542.0,1867.0,0.373,0.167,-0.404,-0.819
901623,-6684.0,9872.0,2419.0,0.385,0.164,-0.4,-0.816
901640,-7466.0,7486.0,2729.0,0.394,0.159,-0.393,-0.816
901657,-7772.0,5782.0,3469.0,0.398,0.156,-0.389,-0.816
901684,-6828.0,7306.0,4337.0,0.398,0.154,-0.389,-0.816
901701,-5314.0,10236.0,4917.0,0.395,0.152,-0.389,-0.818
901718,-3300.0,11994.0,5371.0,0.391,0.148,-0.384,-0.824
901735,-2532.0,9674.0,5763.0,0.385,0.143,-0.372,-0.833
901752,-1808.0,6896.0,6195.0,0.377,0.14,-0.36,-0.842
901769,-996.0,5958.0,6343.0,0.369,0.14,-0.353,-0.848
901786,-150.0,8128.0,6317.0,0.361,0.142,-0.348,-0.853
901803,234.0,9548.0,5973.0,0.354,0.144,-0.34,-0.859
901820,-174.0,8180.0,5501.0,0.348,0.146,-0.327,-0.866
901837,-1118.0,5384.0,5229.0,0.342,0.148,-0.313,-0.873
901854,-2166.0,3260.0,4895.0,0.336,0.15,-0.303,-0.879
901871,-2924.0,2326.0,4397.0,0.331,0.153,-0.296,-0.883
901898,-3216.0,2742.0,4463.0,0.327,0.154,-0.294,-0.885
901914,-2704.0,4264.0,4397.0,0.326,0.151,-0.294,-0.886
901931,-2234.0,4426.0,4179.0,0.326,0.146,-0.294,-0.887
901948,-1414.0,4090.0,4035.0,0.326,0.138,-0.293,-0.888
901965,-1088.0,2942.0,4407.0,0.324,0.13,-0.292,-0.89
901982,-444.0,2424.0,4811.0,0.323,0.12,-0.293,-0.892
901999,920.0,2766.0,5215.0,0.324,0.108,-0.296,-0.892
902016,2168.0,3214.0,5379.0,0.326,0.091,-0.298,-0.893
902033,3454.0,3414.0,5541.0,0.332,0.071,-0.296,-0.893
902050,5548.0,3626.0,6353.0,0.339,0.048,-0.293,-0.893
902067,8346.0,5060.0,7881.0,0.347,0.025,-0.287,-0.892
902084,10496.0,7262.0,9863.0,0.353,0.004,-0.282,-0.892
902101,12656.0,8348.0,11299.0,0.355,-0.01,-0.278,-0.893
902118,14026.0,7714.0,11039.0,0.35,-0.012,-0.278,-0.894
902135,12540.0,5482.0,9597.0,0.342,-0.001,-0.283,-0.896
902162,10346.0,4316.0,8293.0,0.332,0.019,-0.292,-0.897
902179,7990.0,4352.0,7285.0,0.32,0.041,-0.3,-0.898
902196,7062.0,4776.0,6771.0,0.309,0.06,-0.305,-0.899
902213,6734.0,3424.0,6273.0,0.3,0.077,-0.307,-0.9
902229,6182.0,1662.0,5787.0,0.293,0.093,-0.309,-0.9
902246,4068.0,768.0,5423.0,0.286,0.112,-0.316,-0.898
902262,1992.0,2462.0,5379.0,0.281,0.132,-0.327,-0.893
902279,304.0,4654.0,4647.0,0.279,0.149,-0.338,-0.886
902296,-2236.0,5372.0,4975.0,0.279,0.162,-0.345,-0.881
902313,-3340.0,5042.0,5497.0,0.284,0.171,-0.345,-0.878
902340,-5474.0,3888.0,6189.0,0.293,0.176,-0.344,-0.874
902357,-7594.0,2462.0,5789.0,0.307,0.18,-0.344,-0.869
902374,-11398.0,3202.0,5015.0,0.323,0.185,-0.346,-0.861
902391,-14872.0,5160.0,5075.0,0.341,0.188,-0.35,-0.852
902408,-17500.0,6648.0,5415.0,0.355,0.188,-0.349,-0.847
902425,-17254.0,6202.0,4811.0,0.364,0.183,-0.342,-0.847
902442,-15748.0,3994.0,4245.0,0.368,0.178,-0.331,-0.85
902459,-13260.0,2034.0,3647.0,0.37,0.173,-0.321,-0.854
902476,-10962.0,2030.0,3077.0,0.369,0.17,-0.315,-0.858
902493,-9164.0,2934.0,2667.0,0.368,0.167,-0.309,-0.861
902510,-7068.0,2532.0,2329.0,0.367,0.164,-0.301,-0.865
902526,-4630.0,1010.0,2201.0,0.368,0.155,-0.292,-0.869
902543,-1052.0,758.0,2773.0,0.374,0.142,-0.285,-0.871
902560,3396.0,3386.0,3627.0,0.387,0.123,-0.283,-0.869
902587,9708.0,9670.0,5497.0,0.406,0.095,-0.281,-0.864
902604,14638.0,10740.0,6977.0,0.424,0.059,-0.271,-0.862
902621,18092.0,9480.0,8711.0,0.438,0.019,-0.255,-0.862
902638,20034.0,7920.0,11013.0,0.45,-0.014,-0.24,-0.86
902655,21322.0,5812.0,11685.0,0.458,-0.032,-0.233,-0.857
902672,19162.0,978.0,8921.0,0.461,-0.024,-0.236,-0.855
902689,13352.0,154.0,6571.0,0.455,0.006,-0.252,-0.854
902706,9710.0,2916.0,5341.0,0.444,0.043,-0.272,-0.852
902723,7240.0,4240.0,4987.0,0.43,0.077,-0.288,-0.852
902739,5768.0,3962.0,4441.0,0.416,0.102,-0.294,-0.854
902756,3820.0,2748.0,3985.0,0.405,0.119,-0.291,-0.859
902782,1536.0,408.0,4183.0,0.398,0.131,-0.284,-0.862
902799,-1170.0,-1544.0,4371.0,0.396,0.14,-0.283,-0.862
902816,-5404.0,-2790.0,4409.0,0.396,0.15,-0.29,-0.858
902832,-8790.0,-484.0,4809.0,0.4,0.159,-0.308,-0.848
902849,-12154.0,3294.0,4801.0,0.406,0.165,-0.333,-0.835
902866,-14672.0,8172.0,5333.0,0.414,0.167,-0.355,-0.822
902883,-16264.0,10264.0,6233.0,0.421,0.163,-0.37,-0.811
902900,-15448.0,10604.0,6565.0,0.426,0.157,-0.38,-0.806
902917,-13038.0,9020.0,6509.0,0.425,0.152,-0.383,-0.806
902934,-10812.0,5726.0,5985.0,0.422,0.15,-0.383,-0.808
902951,-8270.0,3604.0,5123.0,0.418,0.149,-0.382,-0.81
902968,-5912.0,1768.0,4807.0,0.418,0.148,-0.382,-0.811
902985,-2622.0,1738.0,4633.0,0.423,0.145,-0.388,-0.806
903012,1582.0,4408.0,3589.0,0.432,0.141,-0.4,-0.796
903028,6314.0,9002.0,3455.0,0.444,0.13,-0.407,-0.788
903044,11282.0,14208.0,4575.0,0.455,0.11,-0.402,-0.787
903060,15336.0,11940.0,6927.0,0.466,0.083,-0.392,-0.789
903077,18282.0,11540.0,8153.0,0.471,0.061,-0.388,-0.79
903094,19880.0,10590.0,7281.0,0.47,0.052,-0.388,-0.791
903111,18262.0,8388.0,5333.0,0.462,0.057,-0.388,-0.795
903128,14158.0,4854.0,4315.0,0.45,0.074,-0.386,-0.802
903145,11104.0,3600.0,3769.0,0.437,0.097,-0.384,-0.808
903162,8284.0,2222.0,3195.0,0.423,0.12,-0.38,-0.814
903189,5432.0,928.0,2981.0,0.412,0.141,-0.374,-0.819
903206,2832.0,-182.0,2715.0,0.404,0.157,-0.37,-0.822
903223,-36.0,-724.0,2541.0,0.401,0.169,-0.369,-0.822
903240,-2640.0,-702.0,2375.0,0.402,0.176,-0.372,-0.818
903257,-5240.0,1108.0,2619.0,0.407,0.179,-0.38,-0.811
903274,-7182.0,3780.0,3703.0,0.415,0.179,-0.389,-0.803
903290,-9202.0,6376.0,4867.0,0.424,0.174,-0.399,-0.794
903307,-10908.0,8478.0,5669.0,0.431,0.167,-0.409,-0.787
903323,-11866.0,10652.0,6091.0,0.435,0.16,-0.417,-0.782
903340,-10490.0,12446.0,7195.0,0.434,0.157,-0.421,-0.781
903357,-8658.0,11168.0,7679.0,0.431,0.158,-0.421,-0.782
903374,-6726.0,9120.0,6829.0,0.427,0.161,-0.42,-0.784
903401,-4770.0,9212.0,5205.0,0.423,0.165,-0.42,-0.786
903417,-3668.0,11302.0,3895.0,0.417,0.167,-0.42,-0.789
903434,-1974.0,10904.0,3207.0,0.413,0.164,-0.417,-0.793
903451,-584.0,8814.0,3097.0,0.409,0.158,-0.414,-0.797
903468,1480.0,8108.0,3301.0,0.406,0.15,-0.412,-0.802
903484,2678.0,8738.0,3241.0,0.402,0.141,-0.41,-0.806
903501,4420.0,10672.0,3269.0,0.398,0.13,-0.407,-0.812
903518,5304.0,10132.0,3387.0,0.394,0.118,-0.4,-0.819
903535,5830.0,8154.0,3549.0,0.388,0.107,-0.391,-0.828
903552,5694.0,5404.0,3697.0,0.381,0.099,-0.383,-0.836
903578,5606.0,4366.0,3653.0,0.371,0.096,-0.38,-0.842
903594,4882.0,4490.0,3547.0,0.36,0.096,-0.383,-0.845
903610,4308.0,4928.0,3287.0,0.347,0.099,-0.388,-0.848
903627,3794.0,5084.0,2731.0,0.333,0.101,-0.394,-0.851
903644,3306.0,5088.0,2245.0,0.319,0.101,-0.4,-0.853
903661,2738.0,4476.0,2045.0,0.305,0.098,-0.405,-0.857
903677,2256.0,3760.0,2305.0,0.29,0.092,-0.41,-0.86
903693,1992.0,3328.0,2665.0,0.275,0.082,-0.414,-0.864
903720,2096.0,3278.0,2877.0,0.26,0.069,-0.419,-0.867
903737,2418.0,3028.0,2951.0,0.247,0.054,-0.422,-0.87
903754,2560.0,2982.0,2943.0,0.236,0.036,-0.425,-0.873
903771,2592.0,3170.0,3695.0,0.227,0.018,-0.428,-0.875
903788,2960.0,3182.0,4123.0,0.22,-0.003,-0.429,-0.876
903805,3214.0,3140.0,4457.0,0.214,-0.023,-0.43,-0.877
903822,3638.0,3134.0,4761.0,0.21,-0.044,-0.431,-0.876
903839,3902.0,3598.0,5237.0,0.208,-0.064,-0.433,-0.875
903856,4268.0,5200.0,5893.0,0.208,-0.084,-0.435,-0.872
903873,4670.0,7370.0,6501.0,0.21,-0.105,-0.434,-0.87
903889,4684.0,9146.0,7107.0,0.212,-0.126,-0.428,-0.869
903905,4886.0,10144.0,7931.0,0.215,-0.149,-0.415,-0.871
903932,6840.0,7590.0,10431.0,0.213,-0.171,-0.4,-0.875
903949,7608.0,4046.0,12195.0,0.216,-0.184,-0.392,-0.875
903966,7188.0,5048.0,11439.0,0.218,-0.185,-0.393,-0.874
903982,5588.0,6502.0,9621.0,0.217,-0.181,-0.395,-0.874
903999,4864.0,5454.0,8037.0,0.216,-0.177,-0.39,-0.877
904016,4166.0,2550.0,6927.0,0.217,-0.174,-0.382,-0.881
904033,3552.0,1530.0,6305.0,0.217,-0.17,-0.379,-0.883
904050,3774.0,2122.0,6221.0,0.219,-0.164,-0.384,-0.882
904067,3594.0,4584.0,5509.0,0.221,-0.159,-0.394,-0.878
904083,3774.0,6232.0,4933.0,0.223,-0.154,-0.402,-0.875
904109,3746.0,5896.0,4759.0,0.225,-0.151,-0.405,-0.873
904125,3526.0,4744.0,4851.0,0.227,-0.146,-0.407,-0.872
904142,3310.0,4126.0,4593.0,0.229,-0.141,-0.41,-0.871
904159,2820.0,3660.0,4157.0,0.232,-0.135,-0.415,-0.87
904176,2410.0,3564.0,3591.0,0.235,-0.128,-0.422,-0.866
904193,2388.0,3512.0,3173.0,0.239,-0.122,-0.43,-0.862
904210,2292.0,3322.0,2793.0,0.243,-0.115,-0.439,-0.857
904227,2288.0,3306.0,2813.0,0.249,-0.108,-0.449,-0.852
904244,2114.0,4032.0,3451.0,0.254,-0.103,-0.458,-0.845
904261,1432.0,6070.0,4979.0,0.259,-0.101,-0.465,-0.841
904278,1568.0,8710.0,5571.0,0.262,-0.104,-0.468,-0.838
904295,1850.0,9032.0,6619.0,0.266,-0.111,-0.467,-0.836
904322,1942.0,9914.0,7375.0,0.27,-0.12,-0.467,-0.833
904339,2908.0,10440.0,7013.0,0.273,-0.13,-0.464,-0.833
904356,5048.0,8806.0,6461.0,0.272,-0.138,-0.458,-0.835
904373,5558.0,7424.0,5613.0,0.269,-0.139,-0.452,-0.839
904390,4860.0,6736.0,4947.0,0.264,-0.137,-0.444,-0.845
904407,4006.0,5792.0,4399.0,0.26,-0.133,-0.435,-0.852
904424,3888.0,4484.0,4295.0,0.255,-0.131,-0.426,-0.858
904441,3868.0,3522.0,4007.0,0.252,-0.129,-0.42,-0.862
904458,3800.0,3000.0,3819.0,0.25,-0.128,-0.419,-0.863
904475,3816.0,3376.0,3589.0,0.249,-0.126,-0.422,-0.862
904492,3838.0,4068.0,3577.0,0.25,-0.125,-0.428,-0.86
904508,3876.0,4722.0,3591.0,0.251,-0.123,-0.434,-0.856
904525,3858.0,5318.0,3503.0,0.252,-0.122,-0.44,-0.853
904552,3906.0,5330.0,3481.0,0.254,-0.121,-0.445,-0.85
904569,3844.0,5598.0,3691.0,0.256,-0.121,-0.448,-0.848
904586,3468.0,6906.0,4219.0,0.257,-0.122,-0.45,-0.846
904602,3144.0,8372.0,4935.0,0.259,-0.125,-0.449,-0.846
904619,3288.0,8636.0,5599.0,0.26,-0.13,-0.446,-0.847
904636,3858.0,7612.0,5981.0,0.26,-0.134,-0.443,-0.847
904653,4380.0,6676.0,5783.0,0.259,-0.137,-0.442,-0.848
904670,4566.0,5878.0,5515.0,0.257,-0.137,-0.44,-0.849
904687,4466.0,5412.0,5027.0,0.255,-0.136,-0.439,-0.851
904704,4414.0,4580.0,4569.0,0.254,-0.135,-0.435,-0.853
904721,4206.0,3824.0,4191.0,0.253,-0.133,-0.432,-0.855
904738,4104.0,3294.0,4087.0,0.252,-0.131,-0.431,-0.856
904755,4326.0,3408.0,4011.0,0.252,-0.128,-0.433,-0.856
904782,4374.0,3682.0,3759.0,0.252,-0.125,-0.438,-0.854
904799,4152.0,3530.0,3607.0,0.251,-0.12,-0.445,-0.851
904816,3390.0,4514.0,4513.0,0.251,-0.115,-0.453,-0.848
904833,1018.0,9132.0,6285.0,0.251,-0.114,-0.458,-0.845
904850,1088.0,11736.0,6551.0,0.253,-0.119,-0.459,-0.843
904867,3568.0,8402.0,6341.0,0.253,-0.125,-0.459,-0.843
904884,4022.0,6234.0,5581.0,0.251,-0.126,-0.458,-0.843
904901,3428.0,4856.0,4817.0,0.247,-0.124,-0.457,-0.846
904917,3028.0,4840.0,4137.0,0.243,-0.121,-0.455,-0.848
904934,2786.0,4230.0,3681.0,0.242,-0.119,-0.452,-0.85
904951,2488.0,4034.0,3277.0,0.243,-0.119,-0.449,-0.852
904968,2552.0,4246.0,3467.0,0.243,-0.119,-0.449,-0.852
904985,2518.0,5160.0,3881.0,0.245,-0.121,-0.45,-0.85
905012,2828.0,6712.0,4337.0,0.246,-0.123,-0.452,-0.848
905029,3252.0,7642.0,4851.0,0.247,-0.127,-0.454,-0.847
905046,3664.0,8120.0,5243.0,0.248,-0.13,-0.453,-0.846
905063,4104.0,7984.0,5459.0,0.248,-0.133,-0.451,-0.847
905080,4434.0,7360.0,5351.0,0.247,-0.135,-0.448,-0.849
905097,4612.0,6180.0,5087.0,0.246,-0.136,-0.444,-0.851
905113,4572.0,5196.0,4669.0,0.245,-0.135,-0.441,-0.853
905129,4352.0,4416.0,4159.0,0.244,-0.134,-0.438,-0.855
905145,4032.0,3904.0,3839.0,0.243,-0.132,-0.436,-0.856
905171,3750.0,3544.0,3649.0,0.243,-0.131,-0.434,-0.858
905188,3560.0,3196.0,3665.0,0.243,-0.13,-0.434,-0.858
905205,3600.0,3046.0,3753.0,0.244,-0.128,-0.436,-0.857
905222,3648.0,3014.0,3933.0,0.245,-0.125,-0.44,-0.855
905238,3552.0,3834.0,4383.0,0.246,-0.121,-0.447,-0.851
905254,2240.0,7668.0,5763.0,0.249,-0.12,-0.453,-0.847
905271,1574.0,11282.0,6271.0,0.252,-0.124,-0.456,-0.845
905288,3932.0,9238.0,6199.0,0.254,-0.129,-0.454,-0.844
905305,4714.0,6614.0,5853.0,0.254,-0.132,-0.452,-0.845
905322,4064.0,5994.0,5243.0,0.252,-0.131,-0.451,-0.846
905339,3728.0,5874.0,4537.0,0.25,-0.129,-0.449,-0.848
905365,3606.0,5304.0,4137.0,0.248,-0.128,-0.447,-0.85
905382,3378.0,4654.0,3805.0,0.248,-0.128,-0.445,-0.851
905399,3176.0,4650.0,3793.0,0.247,-0.128,-0.444,-0.852
905416,3080.0,5102.0,3995.0,0.247,-0.128,-0.446,-0.851
905433,3086.0,5702.0,4199.0,0.247,-0.128,-0.448,-0.85
905450,3156.0,6238.0,4589.0,0.246,-0.128,-0.45,-0.849
905467,3176.0,6594.0,4941.0,0.246,-0.129,-0.45,-0.849
905484,3408.0,6588.0,5139.0,0.245,-0.129,-0.45,-0.849
905501,3676.0,6304.0,5169.0,0.245,-0.13,-0.449,-0.849
905518,3700.0,6046.0,4961.0,0.244,-0.129,-0.448,-0.85
905535,3616.0,5686.0,4825.0,0.243,-0.129,-0.447,-0.851
905552,3546.0,5368.0,4539.0,0.243,-0.129,-0.446,-0.852
905569,3382.0,5284.0,4421.0,0.243,-0.128,-0.446,-0.852
905596,3306.0,5376.0,4467.0,0.242,-0.128,-0.446,-0.852
905613,3228.0,5706.0,4615.0,0.242,-0.128,-0.446,-0.852
905630,3244.0,5970.0,4593.0,0.242,-0.128,-0.446,-0.852
905647,3338.0,6042.0,4663.0,0.241,-0.128,-0.446,-0.852
905663,3438.0,6006.0,4709.0,0.241,-0.128,-0.446,-0.852
905680,3474.0,5996.0,4695.0,0.24,-0.128,-0.445,-0.853
905697,3498.0,5702.0,4621.0,0.24,-0.128,-0.445,-0.853
905714,3534.0,5478.0,4587.0,0.239,-0.128,-0.444,-0.854
905731,3582.0,5540.0,4641.0,0.239,-0.128,-0.444,-0.854
905748,3550.0,5490.0,4637.0,0.238,-0.128,-0.444,-0.854
905765,3576.0,5556.0,4711.0,0.238,-0.128,-0.444,-0.854
905782,3512.0,5616.0,4745.0,0.238,-0.128,-0.444,-0.854
905799,3492.0,5824.0,4841.0,0.237,-0.129,-0.444,-0.854
905826,3492.0,6176.0,4903.0,0.237,-0.129,-0.444,-0.854
905843,3584.0,6352.0,4971.0,0.237,-0.13,-0.443,-0.855
905860,3620.0,6454.0,4903.0,0.236,-0.131,-0.443,-0.855
905877,3752.0,6256.0,4815.0,0.236,-0.132,-0.441,-0.856
905894,3844.0,5942.0,4693.0,0.235,-0.132,-0.44,-0.857
905910,3826.0,5444.0,4557.0,0.234,-0.133,-0.438,-0.858
905927,3698.0,5262.0,4423.0,0.233,-0.133,-0.437,-0.858
905944,3712.0,4938.0,4323.0,0.233,-0.133,-0.436,-0.859
905961,3636.0,4736.0,4267.0,0.233,-0.133,-0.436,-0.859
905978,3518.0,4410.0,4373.0,0.233,-0.133,-0.437,-0.859
905995,3476.0,4440.0,4371.0,0.234,-0.132,-0.437,-0.858
906012,3342.0,4278.0,4371.0,0.235,-0.132,-0.439,-0.857
906039,3238.0,4242.0,4473.0,0.236,-0.131,-0.442,-0.856
906056,3164.0,4638.0,4597.0,0.238,-0.129,-0.446,-0.853
906073,2882.0,5584.0,4843.0,0.24,-0.128,-0.451,-0.85
906090,2560.0,7078.0,5401.0,0.242,-0.129,-0.454,-0.848
906107,2514.0,8698.0,5719.0,0.245,-0.131,-0.457,-0.845
906124,3460.0,9066.0,5561.0,0.246,-0.133,-0.457,-0.844
906141,4224.0,7956.0,5235.0,0.246,-0.135,-0.456,-0.844
906158,4060.0,7320.0,4757.0,0.245,-0.135,-0.454,-0.846
906175,3948.0,6296.0,4321.0,0.243,-0.136,-0.45,-0.848
906191,3776.0,5222.0,3943.0,0.242,-0.136,-0.446,-0.851
906208,3674.0,4236.0,3695.0,0.241,-0.137,-0.442,-0.853
906224,3572.0,3570.0,3667.0,0.24,-0.138,-0.44,-0.854
906251,3444.0,3366.0,3827.0,0.239,-0.138,-0.441,-0.854
906268,3378.0,3554.0,3965.0,0.24,-0.138,-0.442,-0.853
906285,3298.0,3684.0,4161.0,0.24,-0.137,-0.446,-0.851
906302,3308.0,4004.0,4357.0,0.242,-0.136,-0.45,-0.849
906318,3110.0,5310.0,4735.0,0.244,-0.135,-0.456,-0.845
906334,2834.0,7130.0,5321.0,0.247,-0.135,-0.462,-0.841
906351,2870.0,9032.0,5657.0,0.249,-0.137,-0.466,-0.838
906368,3778.0,8772.0,5407.0,0.25,-0.139,-0.467,-0.836
906384,4324.0,7590.0,4965.0,0.25,-0.139,-0.467,-0.836
906401,4020.0,6850.0,4335.0,0.249,-0.139,-0.465,-0.838
906428,3918.0,5752.0,3827.0,0.248,-0.139,-0.462,-0.84
906445,3820.0,4870.0,3817.0,0.246,-0.139,-0.459,-0.842
906461,3572.0,4848.0,3789.0,0.246,-0.139,-0.458,-0.843
906478,3538.0,5192.0,3895.0,0.245,-0.14,-0.458,-0.843
906495,3638.0,5590.0,4213.0,0.244,-0.14,-0.46,-0.842
906512,3658.0,6016.0,4493.0,0.244,-0.141,-0.461,-0.841
906529,3666.0,6388.0,4805.0,0.244,-0.141,-0.462,-0.841
906546,3690.0,6478.0,4843.0,0.243,-0.141,-0.462,-0.841
906563,3774.0,6284.0,4843.0,0.242,-0.141,-0.461,-0.842
906580,3852.0,6000.0,4643.0,0.242,-0.141,-0.459,-0.843
906597,3784.0,5696.0,4461.0,0.241,-0.141,-0.458,-0.844
906614,3724.0,5444.0,4279.0,0.241,-0.141,-0.457,-0.844
906631,3594.0,5308.0,4171.0,0.241,-0.141,-0.456,-0.845
906658,3496.0,5400.0,4165.0,0.241,-0.141,-0.456,-0.845
906675,3526.0,5682.0,4317.0,0.241,-0.141,-0.456,-0.845
906692,3574.0,5960.0,4365.0,0.24,-0.141,-0.457,-0.845
906708,3600.0,6176.0,4391.0,0.24,-0.142,-0.457,-0.845
906724,3614.0,6154.0,4477.0,0.24,-0.142,-0.457,-0.845
906741,3778.0,5972.0,4451.0,0.239,-0.142,-0.456,-0.846
906758,3770.0,5774.0,4441.0,0.238,-0.142,-0.455,-0.846
906774,3776.0,5604.0,4351.0,0.237,-0.142,-0.455,-0.847
906791,3732.0,5472.0,4457.0,0.237,-0.143,-0.454,-0.847
906808,3726.0,5514.0,4543.0,0.236,-0.143,-0.454,-0.847
906835,3776.0,5600.0,4595.0,0.235,-0.143,-0.454,-0.848
906852,3710.0,5712.0,4589.0,0.235,-0.143,-0.454,-0.848
906869,3714.0,5794.0,4553.0,0.234,-0.143,-0.454,-0.848
906886,3678.0,5732.0,4571.0,0.234,-0.143,-0.454,-0.848
906902,3662.0,5718.0,4469.0,0.234,-0.143,-0.453,-0.848
906919,3590.0,5682.0,4421.0,0.234,-0.143,-0.453,-0.848
906936,3626.0,5654.0,4397.0,0.233,-0.144,-0.453,-0.848
906953,3584.0,5684.0,4463.0,0.233,-0.144,-0.453,-0.848
906970,3634.0,5608.0,4607.0,0.233,-0.144,-0.454,-0.848
906987,3512.0,5992.0,4435.0,0.233,-0.144,-0.454,-0.848
907004,3658.0,5956.0,4487.0,0.233,-0.144,-0.454,-0.848
907021,3696.0,5792.0,4537.0,0.233,-0.144,-0.454,-0.848
907048,3644.0,5818.0,4447.0,0.233,-0.144,-0.454,-0.848
907065,3674.0,5826.0,4423.0,0.233,-0.144,-0.454,-0.848
907082,3676.0,5842.0,4479.0,0.233,-0.144,-0.454,-0.848
907099,3622.0,5766.0,4549.0,0.232,-0.144,-0.454,-0.848
907116,3680.0,5832.0,4545.0,0.232,-0.144,-0.453,-0.848
907132,3602.0,5818.0,4647.0,0.232,-0.144,-0.453,-0.848
907149,3570.0,5956.0,4577.0,0.233,-0.143,-0.453,-0.849
907166,3600.0,5764.0,4589.0,0.233,-0.143,-0.453,-0.849
907183,3612.0,5794.0,4531.0,0.233,-0.143,-0.452,-0.849
907200,3580.0,5890.0,4439.0,0.233,-0.142,-0.452,-0.849
907217,3580.0,5894.0,4491.0,0.233,-0.142,-0.452,-0.849
907234,3556.0,5864.0,4419.0,0.233,-0.142,-0.451,-0.85
907251,3572.0,5668.0,4389.0,0.232,-0.142,-0.45,-0.85
907278,3618.0,5654.0,4373.0,0.232,-0.142,-0.45,-0.85
907295,3534.0,5828.0,4399.0,0.232,-0.142,-0.45,-0.85
907312,3616.0,5880.0,4415.0,0.232,-0.142,-0.45,-0.85
907329,3638.0,5832.0,4365.0,0.232,-0.142,-0.45,-0.85
907346,3586.0,5826.0,4429.0,0.232,-0.143,-0.45,-0.85
907362,3626.0,5836.0,4493.0,0.232,-0.143,-0.45,-0.85
907378,3600.0,5716.0,4547.0,0.231,-0.143,-0.45,-0.851
907394,3596.0,5704.0,4595.0,0.231,-0.144,-0.45,-0.851
907410,3628.0,5696.0,4607.0,0.231,-0.144,-0.45,-0.851
907436,3614.0,5708.0,4649.0,0.231,-0.144,-0.45,-0.851
907452,3672.0,5668.0,4665.0,0.231,-0.144,-0.45,-0.851
907468,3672.0,5722.0,4581.0,0.23,-0.144,-0.45,-0.851
907489,3608.0,5694.0,4537.0,0.23,-0.145,-0.45,-0.851
907505,3674.0,5776.0,4537.0,0.23,-0.145,-0.45,-0.85
907521,3580.0,5892.0,4523.0,0.23,-0.145,-0.451,-0.85
907537,3626.0,5904.0,4515.0,0.23,-0.145,-0.451,-0.85
907553,3578.0,5898.0,4473.0,0.23,-0.144,-0.451,-0.85
907579,3622.0,5798.0,4515.0,0.23,-0.144,-0.451,-0.85
907595,3540.0,5720.0,4509.0,0.229,-0.144,-0.451,-0.85
907611,3604.0,5754.0,4509.0,0.229,-0.144,-0.451,-0.85
907627,3638.0,6054.0,4611.0,0.229,-0.144,-0.451,-0.851
907644,3748.0,5044.0,4637.0,0.229,-0.145,-0.45,-0.851
907661,3702.0,5508.0,4627.0,0.229,-0.145,-0.45,-0.851
907678,3564.0,5908.0,4539.0,0.229,-0.144,-0.451,-0.851
907695,3596.0,5974.0,4537.0,0.229,-0.144,-0.451,-0.851
907711,3688.0,5664.0,4637.0,0.229,-0.144,-0.451,-0.851
907738,3624.0,5782.0,4581.0,0.228,-0.144,-0.451,-0.851
907754,3582.0,5778.0,4521.0,0.228,-0.144,-0.451,-0.851
907771,3580.0,5774.0,4511.0,0.228,-0.144,-0.451,-0.851
907787,3618.0,5792.0,4483.0,0.228,-0.144,-0.45,-0.851
907804,3542.0,5738.0,4477.0,0.228,-0.144,-0.451,-0.851
907820,3586.0,5742.0,4517.0,0.228,-0.143,-0.451,-0.851
907837,3608.0,5812.0,4627.0,0.228,-0.143,-0.451,-0.851
907854,3694.0,5210.0,4685.0,0.228,-0.144,-0.45,-0.851
907870,3626.0,5778.0,4523.0,0.228,-0.144,-0.45,-0.851
907897,3530.0,5856.0,4515.0,0.228,-0.144,-0.451,-0.851
907913,3592.0,5902.0,4509.0,0.228,-0.144,-0.451,-0.851
907929,3560.0,5828.0,4553.0,0.228,-0.144,-0.451,-0.851
907945,3648.0,5848.0,4503.0,0.228,-0.144,-0.451,-0.851
907961,3630.0,5784.0,4527.0,0.227,-0.143,-0.451,-0.851
907978,3614.0,5900.0,4495.0,0.227,-0.143,-0.451,-0.851
907994,3564.0,5820.0,4497.0,0.227,-0.143,-0.451,-0.851
908020,3556.0,6054.0,4355.0,0.227,-0.143,-0.451,-0.851
908036,3602.0,5340.0,4625.0,0.227,-0.144,-0.45,-0.852
908052,3696.0,5826.0,4499.0,0.227,-0.144,-0.45,-0.852
908068,3594.0,5882.0,4519.0,0.226,-0.144,-0.45,-0.852
908084,3644.0,5824.0,4585.0,0.226,-0.144,-0.45,-0.852
908110,3592.0,5802.0,4555.0,0.226,-0.144,-0.45,-0.852
908126,3568.0,5728.0,4489.0,0.226,-0.144,-0.449,-0.852
908143,3598.0,5726.0,4527.0,0.225,-0.144,-0.449,-0.852
908159,3554.0,5738.0,4543.0,0.225,-0.145,-0.449,-0.853
908176,3592.0,5706.0,4549.0,0.225,-0.145,-0.448,-0.853
908192,3568.0,5726.0,4551.0,0.225,-0.145,-0.448,-0.853
908208,3620.0,5746.0,4555.0,0.225,-0.146,-0.447,-0.853
908224,3704.0,5742.0,4597.0,0.225,-0.146,-0.447,-0.853
908251,3654.0,5788.0,4659.0,0.225,-0.146,-0.446,-0.854
908267,3632.0,5806.0,4617.0,0.225,-0.146,-0.446,-0.854
908283,3652.0,5670.0,4645.0,0.225,-0.147,-0.445,-0.854
908299,3594.0,5652.0,4587.0,0.225,-0.147,-0.445,-0.854
908315,3594.0,5716.0,4627.0,0.225,-0.147,-0.444,-0.855
908331,3568.0,5758.0,4607.0,0.225,-0.147,-0.444,-0.855
908357,3634.0,5610.0,4631.0,0.225,-0.147,-0.443,-0.855
908374,3574.0,5606.0,4623.0,0.226,-0.147,-0.443,-0.855
908391,3540.0,5646.0,4575.0,0.226,-0.148,-0.442,-0.855
908408,3624.0,5548.0,4681.0,0.226,-0.148,-0.442,-0.855
908425,3560.0,5494.0,4761.0,0.227,-0.148,-0.441,-0.856
908442,3580.0,5584.0,4837.0,0.227,-0.148,-0.441,-0.856
908459,3560.0,5590.0,4723.0,0.228,-0.148,-0.441,-0.855
908476,3666.0,5704.0,4659.0,0.229,-0.148,-0.441,-0.855
908493,3746.0,5608.0,4549.0,0.23,-0.148,-0.44,-0.855
908510,3528.0,5694.0,4395.0,0.23,-0.148,-0.44,-0.855
908527,3468.0,5776.0,4359.0,0.23,-0.148,-0.441,-0.855
908543,3638.0,5912.0,4461.0,0.231,-0.148,-0.442,-0.854
908570,3644.0,6002.0,4553.0,0.231,-0.149,-0.442,-0.854
908586,3638.0,5822.0,4607.0,0.23,-0.149,-0.442,-0.854
908603,3652.0,5706.0,4615.0,0.23,-0.149,-0.442,-0.854
908619,3596.0,5788.0,4493.0,0.23,-0.149,-0.443,-0.854
908635,3630.0,5704.0,4473.0,0.229,-0.149,-0.443,-0.854
908651,3738.0,5712.0,4515.0,0.229,-0.149,-0.444,-0.853
908667,3748.0,5688.0,4595.0,0.228,-0.149,-0.445,-0.853
908693,3638.0,5664.0,4645.0,0.228,-0.149,-0.445,-0.853
908710,3740.0,5562.0,4675.0,0.227,-0.149,-0.445,-0.853
908727,3666.0,5634.0,4681.0,0.227,-0.149,-0.446,-0.853
908744,3654.0,5592.0,4639.0,0.227,-0.149,-0.446,-0.853
908760,3678.0,5640.0,4597.0,0.226,-0.149,-0.447,-0.853
908776,3640.0,5752.0,4559.0,0.226,-0.149,-0.448,-0.852
908792,3678.0,5750.0,4569.0,0.226,-0.149,-0.448,-0.852
908809,3674.0,5714.0,4525.0,0.226,-0.149,-0.449,-0.852
908835,3668.0,5714.0,4517.0,0.226,-0.149,-0.449,-0.851
908851,3666.0,5832.0,4539.0,0.225,-0.149,-0.45,-0.851
908867,3676.0,5830.0,4547.0,0.225,-0.149,-0.451,-0.851
908883,3622.0,5930.0,4211.0,0.225,-0.15,-0.45,-0.851
908899,3598.0,5658.0,4429.0,0.225,-0.15,-0.45,-0.851
908915,3734.0,5770.0,4501.0,0.225,-0.15,-0.451,-0.851
908941,3768.0,5892.0,4577.0,0.225,-0.15,-0.452,-0.85
908957,3694.0,5936.0,4513.0,0.225,-0.15,-0.452,-0.85
908973,3734.0,5752.0,4509.0,0.225,-0.15,-0.452,-0.85
908989,3716.0,5644.0,4513.0,0.225,-0.15,-0.453,-0.85
909005,3636.0,5740.0,4527.0,0.225,-0.15,-0.453,-0.85
909021,3712.0,5744.0,4567.0,0.225,-0.15,-0.453,-0.85
909047,3706.0,5744.0,4553.0,0.225,-0.15,-0.453,-0.85
909063,3680.0,5786.0,4615.0,0.225,-0.15,-0.453,-0.85
909079,3648.0,5772.0,4577.0,0.225,-0.15,-0.452,-0.85
909095,3640.0,5794.0,4567.0,0.225,-0.15,-0.452,-0.85
909111,3666.0,5716.0,4577.0,0.225,-0.15,-0.452,-0.85
909127,3692.0,5662.0,4585.0,0.225,-0.15,-0.452,-0.85
909153,3708.0,5614.0,4547.0,0.226,-0.15,-0.452,-0.85
909169,3686.0,5652.0,4467.0,0.226,-0.151,-0.452,-0.85
909185,3676.0,5620.0,4427.0,0.227,-0.151,-0.452,-0.85
909201,3754.0,5860.0,4511.0,0.227,-0.151,-0.452,-0.849
909217,3662.0,5990.0,4461.0,0.228,-0.152,-0.451,-0.849
909233,3750.0,5638.0,4527.0,0.228,-0.152,-0.451,-0.85
909259,3684.0,5838.0,4509.0,0.228,-0.152,-0.45,-0.85
909276,3496.0,5974.0,4375.0,0.229,-0.153,-0.449,-0.85
909293,3630.0,5628.0,4453.0,0.229,-0.153,-0.448,-0.851
909310,3712.0,5750.0,4331.0,0.229,-0.153,-0.447,-0.851
909326,3672.0,5774.0,4301.0,0.229,-0.153,-0.447,-0.851
909343,3590.0,5996.0,4313.0,0.229,-0.153,-0.446,-0.851
909360,3762.0,5782.0,4395.0,0.229,-0.154,-0.445,-0.852
909376,3810.0,5768.0,4441.0,0.229,-0.154,-0.445,-0.852
909393,3780.0,5774.0,4473.0,0.228,-0.154,-0.445,-0.852
909410,3720.0,5832.0,4499.0,0.228,-0.153,-0.445,-0.853
909437,3722.0,5810.0,4495.0,0.227,-0.153,-0.445,-0.853
909453,3692.0,5774.0,4433.0,0.226,-0.153,-0.444,-0.853
909469,3670.0,5718.0,4449.0,0.226,-0.153,-0.444,-0.853
909488,3676.0,5686.0,4527.0,0.225,-0.153,-0.444,-0.854
909505,3662.0,5592.0,4609.0,0.224,-0.153,-0.444,-0.854
909522,3680.0,5490.0,4641.0,0.223,-0.153,-0.443,-0.854
909539,3700.0,5594.0,4651.0,0.223,-0.153,-0.443,-0.855
909556,3640.0,5596.0,4673.0,0.223,-0.153,-0.443,-0.855
909573,3680.0,5588.0,4807.0,0.222,-0.154,-0.442,-0.855
909590,3568.0,5516.0,4849.0,0.222,-0.154,-0.441,-0.856
909607,3700.0,5304.0,4859.0,0.223,-0.155,-0.44,-0.856
909624,3856.0,5276.0,4751.0,0.223,-0.156,-0.44,-0.856
909650,3794.0,5416.0,4625.0,0.224,-0.156,-0.44,-0.856
909666,3760.0,5706.0,4537.0,0.224,-0.156,-0.44,-0.855
909682,3766.0,5932.0,4357.0,0.224,-0.156,-0.44,-0.855
909698,3820.0,5738.0,4541.0,0.224,-0.157,-0.44,-0.855
909714,3794.0,5754.0,4627.0,0.224,-0.157,-0.44,-0.855
909730,3790.0,5840.0,4669.0,0.224,-0.157,-0.44,-0.855
909756,3806.0,5634.0,4641.0,0.224,-0.157,-0.44,-0.855
909772,3774.0,5656.0,4605.0,0.224,-0.157,-0.44,-0.856
909788,3766.0,5554.0,4615.0,0.224,-0.157,-0.44,-0.856
909804,3754.0,5652.0,4553.0,0.224,-0.156,-0.44,-0.856
909820,3750.0,5678.0,4587.0,0.223,-0.156,-0.44,-0.856
909836,3752.0,5602.0,4603.0,0.223,-0.156,-0.439,-0.856
909862,3698.0,5664.0,4639.0,0.223,-0.155,-0.439,-0.856
909878,3726.0,5632.0,4613.0,0.223,-0.155,-0.439,-0.857
909894,3666.0,5554.0,4647.0,0.222,-0.155,-0.439,-0.857
909910,3688.0,5584.0,4641.0,0.222,-0.155,-0.439,-0.857
909926,3688.0,5692.0,4671.0,0.222,-0.154,-0.439,-0.857
909942,3606.0,5590.0,4637.0,0.222,-0.154,-0.439,-0.857
909959,3712.0,5580.0,4597.0,0.222,-0.154,-0.439,-0.857
909986,3610.0,5624.0,4573.0,0.221,-0.154,-0.438,-0.857
910002,3660.0,5526.0,4661.0,0.221,-0.154,-0.438,-0.857
910018,3676.0,5520.0,4637.0,0.221,-0.154,-0.439,-0.857
910035,3672.0,5580.0,4639.0,0.221,-0.155,-0.439,-0.857
910051,3636.0,5620.0,4719.0,0.221,-0.155,-0.439,-0.857
910067,3708.0,5526.0,4793.0,0.221,-0.155,-0.439,-0.857
910083,3656.0,5634.0,4777.0,0.221,-0.155,-0.438,-0.857
910109,3648.0,5572.0,4731.0,0.221,-0.156,-0.438,-0.857
910126,3674.0,5534.0,4723.0,0.221,-0.156,-0.438,-0.857
910143,3720.0,5522.0,4617.0,0.221,-0.156,-0.438,-0.857
910160,3692.0,5604.0,4591.0,0.221,-0.157,-0.438,-0.857
910176,3674.0,5634.0,4545.0,0.221,-0.157,-0.438,-0.857
910193,3696.0,5670.0,4533.0,0.221,-0.157,-0.439,-0.857
910209,3822.0,5710.0,4569.0,0.221,-0.157,-0.439,-0.857
910226,3756.0,5740.0,4585.0,0.221,-0.157,-0.439,-0.857
910243,3698.0,5744.0,4609.0,0.221,-0.157,-0.439,-0.857
910269,3790.0,5732.0,4583.0,0.221,-0.157,-0.439,-0.857
910286,3736.0,5728.0,4661.0,0.221,-0.157,-0.439,-0.857
910302,3760.0,5690.0,4629.0,0.22,-0.157,-0.438,-0.857
910318,3756.0,5594.0,4627.0,0.22,-0.157,-0.438,-0.857
910334,3748.0,5544.0,4647.0,0.22,-0.157,-0.438,-0.857
910350,3756.0,5528.0,4637.0,0.219,-0.157,-0.438,-0.858
910366,3690.0,5588.0,4625.0,0.219,-0.157,-0.438,-0.858
910392,3740.0,5544.0,4609.0,0.219,-0.157,-0.438,-0.858
910409,3726.0,5588.0,4697.0,0.219,-0.157,-0.438,-0.858
910426,3762.0,5550.0,4759.0,0.219,-0.157,-0.438,-0.858
910442,3794.0,5590.0,4749.0,0.219,-0.157,-0.438,-0.858
910459,3750.0,5568.0,4721.0,0.219,-0.157,-0.437,-0.858
910476,3724.0,5656.0,4677.0,0.219,-0.157,-0.437,-0.858
910493,3710.0,5678.0,4635.0,0.219,-0.157,-0.437,-0.858
910509,3766.0,5600.0,4661.0,0.219,-0.158,-0.437,-0.858
910526,3674.0,5556.0,4589.0,0.219,-0.158,-0.437,-0.858
910543,3702.0,5660.0,4633.0,0.218,-0.158,-0.437,-0.858
910569,3664.0,5628.0,4657.0,0.218,-0.158,-0.437,-0.858
910586,3668.0,5622.0,4669.0,0.218,-0.158,-0.437,-0.858
910603,3648.0,5698.0,4611.0,0.218,-0.158,-0.437,-0.858
910619,3722.0,5634.0,4653.0,0.218,-0.158,-0.437,-0.858
910635,3700.0,5616.0,4635.0,0.218,-0.158,-0.437,-0.858
910651,3696.0,5688.0,4603.0,0.218,-0.158,-0.437,-0.858
910667,3734.0,5648.0,4605.0,0.218,-0.158,-0.437,-0.859
910693,3724.0,5576.0,4615.0,0.218,-0.157,-0.436,-0.859
910709,3730.0,5582.0,4671.0,0.218,-0.157,-0.436,-0.859
910726,3716.0,5536.0,4665.0,0.218,-0.157,-0.436,-0.859
910742,3666.0,5594.0,4649.0,0.217,-0.157,-0.436,-0.859
910758,3732.0,5594.0,4679.0,0.217,-0.157,-0.436,-0.859
910774,3706.0,5552.0,4735.0,0.217,-0.157,-0.436,-0.859
910800,3692.0,5624.0,4681.0,0.217,-0.157,-0.436,-0.859
910816,3730.0,5612.0,4643.0,0.217,-0.157,-0.437,-0.859
910832,3704.0,5608.0,4663.0,0.217,-0.157,-0.437,-0.859
910848,3702.0,5602.0,4679.0,0.217,-0.158,-0.437,-0.859
910864,3680.0,5600.0,4609.0,0.217,-0.158,-0.437,-0.859
910880,3678.0,5536.0,4611.0,0.216,-0.158,-0.437,-0.859
910906,3686.0,5560.0,4667.0,0.216,-0.158,-0.437,-0.859
910923,3670.0,5586.0,4675.0,0.216,-0.158,-0.437,-0.859
910940,3678.0,5576.0,4641.0,0.216,-0.158,-0.437,-0.859
910957,3730.0,5596.0,4641.0,0.216,-0.158,-0.437,-0.858
910974,3716.0,5648.0,4671.0,0.216,-0.158,-0.438,-0.858
910991,3816.0,5578.0,4693.0,0.216,-0.159,-0.438,-0.858
911008,3756.0,5574.0,4671.0,0.216,-0.159,-0.438,-0.858
911025,3686.0,5664.0,4635.0,0.216,-0.159,-0.438,-0.858
911042,3694.0,5608.0,4579.0,0.216,-0.159,-0.438,-0.858
911059,3696.0,5654.0,4629.0,0.215,-0.159,-0.438,-0.858
911076,3710.0,5674.0,4611.0,0.215,-0.159,-0.438,-0.858
911092,3730.0,5634.0,4577.0,0.215,-0.16,-0.438,-0.858
911119,3754.0,5678.0,4621.0,0.215,-0.16,-0.438,-0.858
911135,3770.0,5608.0,4629.0,0.215,-0.16,-0.438,-0.858
911151,3716.0,5648.0,4651.0,0.215,-0.16,-0.439,-0.858
911168,3678.0,5626.0,4545.0,0.215,-0.16,-0.439,-0.858
911184,3796.0,5464.0,4529.0,0.215,-0.161,-0.439,-0.858
911200,3694.0,5580.0,4667.0,0.215,-0.161,-0.439,-0.857
911216,3726.0,5752.0,4629.0,0.215,-0.161,-0.439,-0.857
911242,3748.0,5668.0,4659.0,0.215,-0.161,-0.439,-0.857
911259,3744.0,5652.0,4641.0,0.215,-0.161,-0.439,-0.857
911276,3814.0,5672.0,4635.0,0.215,-0.162,-0.439,-0.857
911292,3778.0,5562.0,4577.0,0.215,-0.162,-0.439,-0.857
911309,3826.0,5654.0,4537.0,0.215,-0.162,-0.439,-0.857
911325,3804.0,5640.0,4545.0,0.215,-0.162,-0.439,-0.857
911342,3780.0,5624.0,4591.0,0.215,-0.162,-0.439,-0.857
911359,3772.0,5618.0,4553.0,0.214,-0.162,-0.439,-0.857
911375,3800.0,5622.0,4597.0,0.214,-0.162,-0.439,-0.857
911401,3742.0,5582.0,4603.0,0.214,-0.162,-0.44,-0.857
911417,3730.0,5548.0,4617.0,0.214,-0.162,-0.44,-0.857
911433,3730.0,5624.0,4631.0,0.214,-0.162,-0.44,-0.857
911449,3742.0,5606.0,4571.0,0.214,-0.162,-0.44,-0.857
911465,3706.0,5628.0,4599.0,0.214,-0.162,-0.44,-0.857
911481,3770.0,5602.0,4627.0,0.214,-0.162,-0.44,-0.857
911508,3790.0,5612.0,4585.0,0.214,-0.162,-0.44,-0.857
911524,3822.0,5670.0,4553.0,0.214,-0.162,-0.441,-0.857
911540,3776.0,5658.0,4525.0,0.214,-0.162,-0.441,-0.856
911556,3760.0,5648.0,4579.0,0.214,-0.162,-0.441,-0.856
911572,3746.0,5614.0,4559.0,0.214,-0.162,-0.441,-0.856
911588,3790.0,5612.0,4569.0,0.214,-0.162,-0.441,-0.856
911614,3756.0,5594.0,4587.0,0.214,-0.162,-0.442,-0.856
911630,3790.0,5638.0,4601.0,0.214,-0.162,-0.442,-0.856
911646,3814.0,5692.0,4591.0,0.214,-0.163,-0.442,-0.856
911662,3800.0,5680.0,4573.0,0.214,-0.163,-0.442,-0.856
911678,3748.0,5726.0,4579.0,0.214,-0.163,-0.442,-0.856
911694,3774.0,5724.0,4599.0,0.214,-0.163,-0.442,-0.856
911720,3780.0,5760.0,4575.0,0.214,-0.163,-0.442,-0.856
911736,3732.0,5716.0,4563.0,0.214,-0.163,-0.442,-0.856
911752,3786.0,5640.0,4547.0,0.214,-0.163,-0.442,-0.856
911768,3816.0,5658.0,4547.0,0.214,-0.163,-0.442,-0.856
911784,3826.0,5626.0,4561.0,0.214,-0.162,-0.442,-0.856
911800,3852.0,5646.0,4545.0,0.214,-0.162,-0.441,-0.856
911826,3778.0,5706.0,4569.0,0.214,-0.162,-0.441,-0.856
911842,3804.0,5716.0,4591.0,0.213,-0.162,-0.441,-0.856
911858,3808.0,5680.0,4577.0,0.213,-0.162,-0.441,-0.857
911875,3850.0,5612.0,4553.0,0.213,-0.162,-0.44,-0.857
911892,3792.0,5614.0,4559.0,0.213,-0.162,-0.44,-0.857
911909,3740.0,5590.0,4575.0,0.213,-0.162,-0.44,-0.857
911925,3728.0,5582.0,4547.0,0.213,-0.162,-0.439,-0.858
911951,3748.0,5574.0,4513.0,0.212,-0.162,-0.439,-0.858
911967,3764.0,5636.0,4483.0,0.212,-0.162,-0.439,-0.858
911983,3790.0,5680.0,4539.0,0.212,-0.162,-0.439,-0.858
911999,3782.0,5652.0,4551.0,0.212,-0.162,-0.439,-0.858
912015,3820.0,5668.0,4623.0,0.212,-0.162,-0.439,-0.858
912031,3790.0,5658.0,4655.0,0.212,-0.162,-0.439,-0.858
912057,3794.0,5568.0,4703.0,0.212,-0.162,-0.439,-0.858
912073,3780.0,5580.0,4639.0,0.212,-0.162,-0.439,-0.858
912089,3738.0,5560.0,4585.0,0.212,-0.162,-0.439,-0.858
912105,3786.0,5592.0,4581.0,0.211,-0.162,-0.439,-0.858
912122,3700.0,5628.0,4555.0,0.211,-0.162,-0.439,-0.858
912139,3742.0,5630.0,4553.0,0.211,-0.162,-0.439,-0.858
912156,3718.0,5628.0,4547.0,0.211,-0.162,-0.439,-0.858
912173,3742.0,5686.0,4585.0,0.211,-0.162,-0.439,-0.858
912190,3734.0,5698.0,4623.0,0.211,-0.163,-0.438,-0.858
912207,3724.0,5636.0,4623.0,0.21,-0.162,-0.438,-0.859
912234,3752.0,5628.0,4595.0,0.21,-0.162,-0.438,-0.859
912250,3730.0,5620.0,4601.0,0.21,-0.163,-0.438,-0.859
912266,3766.0,5594.0,4633.0,0.21,-0.162,-0.438,-0.859
912282,3708.0,5624.0,4627.0,0.21,-0.163,-0.438,-0.859
912298,3766.0,5580.0,4599.0,0.209,-0.163,-0.438,-0.859
912314,3766.0,5606.0,4633.0,0.209,-0.163,-0.438,-0.859
912340,3736.0,5672.0,4631.0,0.209,-0.163,-0.438,-0.859
912357,3706.0,5706.0,4601.0,0.209,-0.163,-0.438,-0.859
912374,3838.0,5466.0,4583.0,0.209,-0.163,-0.437,-0.86
912391,3726.0,5680.0,4671.0,0.209,-0.163,-0.437,-0.859
912408,3734.0,5742.0,4655.0,0.209,-0.163,-0.437,-0.86
912425,3720.0,5556.0,4637.0,0.209,-0.163,-0.437,-0.86
912442,3732.0,5572.0,4659.0,0.208,-0.163,-0.437,-0.86
912458,3668.0,5612.0,4593.0,0.208,-0.163,-0.437,-0.86
912475,3732.0,5598.0,4677.0,0.208,-0.163,-0.437,-0.86
912491,3678.0,5580.0,4603.0,0.208,-0.163,-0.437,-0.86
912508,3686.0,5642.0,4579.0,0.208,-0.163,-0.437,-0.86
912535,3750.0,5612.0,4611.0,0.208,-0.163,-0.437,-0.86
912551,3764.0,5610.0,4657.0,0.208,-0.163,-0.437,-0.86
912567,3746.0,5584.0,4689.0,0.208,-0.163,-0.437,-0.86
912584,3726.0,5592.0,4599.0,0.207,-0.163,-0.437,-0.86
912600,3696.0,5628.0,4639.0,0.207,-0.163,-0.437,-0.86
912617,3706.0,5540.0,4669.0,0.207,-0.163,-0.437,-0.86
912634,3730.0,5664.0,4653.0,0.207,-0.163,-0.437,-0.86
912650,3718.0,5720.0,4551.0,0.207,-0.163,-0.437,-0.86
912676,3732.0,5714.0,4587.0,0.207,-0.163,-0.437,-0.86
912692,3726.0,5674.0,4623.0,0.207,-0.163,-0.437,-0.86
912708,3740.0,5602.0,4575.0,0.207,-0.163,-0.437,-0.86
912725,3762.0,5626.0,4605.0,0.207,-0.163,-0.437,-0.86
912741,3780.0,5622.0,4595.0,0.207,-0.163,-0.437,-0.86
912758,3778.0,5614.0,4665.0,0.206,-0.163,-0.437,-0.86
912775,3752.0,5592.0,4619.0,0.206,-0.163,-0.437,-0.86
912792,3752.0,5638.0,4541.0,0.206,-0.163,-0.437,-0.86
912818,3718.0,5604.0,4525.0,0.206,-0.163,-0.437,-0.86
912834,3716.0,5464.0,4613.0,0.206,-0.163,-0.437,-0.86
912850,3760.0,5670.0,4711.0,0.206,-0.163,-0.437,-0.86
912866,3694.0,5728.0,4659.0,0.206,-0.163,-0.437,-0.86
912882,3710.0,5618.0,4653.0,0.206,-0.163,-0.437,-0.86
912898,3762.0,5604.0,4621.0,0.206,-0.163,-0.437,-0.86
912924,3698.0,5682.0,4509.0,0.206,-0.163,-0.437,-0.86
912940,3682.0,5622.0,4451.0,0.205,-0.163,-0.437,-0.86
912956,3784.0,5512.0,4627.0,0.205,-0.164,-0.437,-0.86
912972,3738.0,5666.0,4665.0,0.205,-0.164,-0.437,-0.86
912988,3792.0,5706.0,4733.0,0.205,-0.164,-0.437,-0.86
913004,3692.0,5692.0,4613.0,0.205,-0.164,-0.437,-0.86
913030,3704.0,5584.0,4595.0,0.205,-0.164,-0.437,-0.861
913046,3666.0,5668.0,4553.0,0.205,-0.164,-0.437,-0.861
913062,3682.0,5504.0,4529.0,0.204,-0.164,-0.436,-0.861
913078,3646.0,5512.0,4575.0,0.204,-0.164,-0.436,-0.861
913094,3652.0,5380.0,4585.0,0.205,-0.164,-0.437,-0.861
913110,3642.0,5618.0,4627.0,0.205,-0.165,-0.437,-0.86
913136,3734.0,5642.0,4639.0,0.205,-0.165,-0.437,-0.86
913152,3758.0,5682.0,4601.0,0.205,-0.165,-0.438,-0.86
913168,3778.0,5742.0,4597.0,0.205,-0.165,-0.438,-0.86
913185,3712.0,5758.0,4555.0,0.205,-0.165,-0.438,-0.859
913201,3772.0,5766.0,4549.0,0.205,-0.165,-0.438,-0.859
913217,3786.0,5636.0,4597.0,0.205,-0.165,-0.438,-0.859
913243,3782.0,5642.0,4567.0,0.205,-0.166,-0.438,-0.859
913259,3744.0,5634.0,4573.0,0.205,-0.166,-0.438,-0.86
913275,3710.0,5600.0,4527.0,0.206,-0.166,-0.438,-0.859
913291,3692.0,5568.0,4533.0,0.206,-0.166,-0.438,-0.859
913308,3726.0,5646.0,4489.0,0.206,-0.166,-0.438,-0.859
913324,3790.0,5754.0,4583.0,0.206,-0.167,-0.438,-0.859
913340,3718.0,5688.0,4595.0,0.205,-0.167,-0.438,-0.859
913366,3818.0,5622.0,4651.0,0.205,-0.167,-0.437,-0.86
913382,3880.0,5566.0,4711.0,0.205,-0.167,-0.437,-0.86
913398,3908.0,5624.0,4693.0,0.205,-0.168,-0.437,-0.86
913414,3992.0,5608.0,4649.0,0.205,-0.168,-0.436,-0.86
913430,4030.0,5514.0,4615.0,0.206,-0.168,-0.436,-0.86
913446,4026.0,5610.0,4591.0,0.206,-0.167,-0.436,-0.86
913472,4014.0,5698.0,4515.0,0.206,-0.167,-0.435,-0.86
913488,3974.0,5692.0,4507.0,0.206,-0.167,-0.435,-0.861
913505,3964.0,5556.0,4557.0,0.206,-0.167,-0.434,-0.861
913522,3876.0,5646.0,4587.0,0.206,-0.167,-0.433,-0.861
913539,3982.0,5624.0,4719.0,0.207,-0.167,-0.433,-0.861
913556,3998.0,5672.0,4699.0,0.207,-0.167,-0.432,-0.862
913573,3954.0,5626.0,4721.0,0.207,-0.167,-0.431,-0.862
913590,3978.0,5612.0,4811.0,0.207,-0.167,-0.43,-0.863
913607,3996.0,5690.0,4947.0,0.207,-0.167,-0.429,-0.863
913624,4004.0,5832.0,4901.0,0.206,-0.167,-0.428,-0.864
913641,3994.0,5960.0,4869.0,0.206,-0.166,-0.428,-0.864
913668,4070.0,6244.0,4981.0,0.205,-0.166,-0.427,-0.865
913684,4450.0,6110.0,5157.0,0.204,-0.165,-0.425,-0.866
913700,4154.0,6182.0,4925.0,0.203,-0.164,-0.424,-0.867
913716,4498.0,6096.0,5157.0,0.201,-0.163,-0.423,-0.868
913732,4470.0,6154.0,5231.0,0.198,-0.161,-0.423,-0.869
913748,4476.0,5932.0,5359.0,0.196,-0.158,-0.424,-0.87
913774,4250.0,5848.0,5483.0,0.193,-0.153,-0.426,-0.871
913791,4058.0,5872.0,5527.0,0.19,-0.148,-0.429,-0.871
913808,3892.0,5768.0,5481.0,0.187,-0.142,-0.432,-0.871
913825,3588.0,5650.0,5529.0,0.183,-0.135,-0.436,-0.871
913841,3448.0,5406.0,5415.0,0.18,-0.127,-0.44,-0.871
913858,3172.0,5304.0,5421.0,0.176,-0.12,-0.444,-0.871
913874,2920.0,5040.0,5325.0,0.172,-0.112,-0.447,-0.871
913891,2500.0,4678.0,5063.0,0.169,-0.105,-0.45,-0.87
913908,2304.0,4280.0,4815.0,0.167,-0.098,-0.454,-0.87
913925,1992.0,3970.0,4721.0,0.165,-0.092,-0.457,-0.869
913942,1644.0,4122.0,4611.0,0.165,-0.087,-0.459,-0.868
913968,1242.0,4338.0,4491.0,0.165,-0.084,-0.461,-0.868
913985,926.0,4654.0,4225.0,0.166,-0.083,-0.461,-0.868
914001,604.0,5060.0,4379.0,0.166,-0.085,-0.459,-0.869
914017,304.0,5318.0,5001.0,0.165,-0.09,-0.453,-0.871
914033,440.0,5176.0,5809.0,0.163,-0.099,-0.444,-0.876
914050,956.0,4350.0,6465.0,0.161,-0.111,-0.432,-0.88
914066,1788.0,3668.0,6779.0,0.16,-0.124,-0.421,-0.884
914083,2460.0,3792.0,6715.0,0.161,-0.136,-0.411,-0.887
914110,2604.0,4562.0,6859.0,0.163,-0.145,-0.401,-0.89
914126,2720.0,5092.0,6973.0,0.165,-0.153,-0.389,-0.893
914142,2868.0,4966.0,6587.0,0.169,-0.16,-0.373,-0.898
914158,2258.0,3740.0,6415.0,0.172,-0.167,-0.356,-0.903
914174,2088.0,3020.0,5987.0,0.177,-0.173,-0.341,-0.907
914191,2118.0,2426.0,5659.0,0.182,-0.178,-0.328,-0.91
914217,2080.0,2392.0,5375.0,0.188,-0.181,-0.32,-0.911
914233,1962.0,3142.0,5099.0,0.196,-0.183,-0.316,-0.91
914249,2538.0,4198.0,5001.0,0.205,-0.185,-0.315,-0.908
914265,2828.0,4958.0,5001.0,0.213,-0.185,-0.318,-0.905
914281,3362.0,5726.0,5211.0,0.223,-0.184,-0.325,-0.901
914297,4274.0,6812.0,5229.0,0.233,-0.18,-0.335,-0.895
914313,5008.0,8510.0,4949.0,0.242,-0.174,-0.347,-0.889
914340,5162.0,10140.0,5041.0,0.248,-0.165,-0.358,-0.885
914357,5216.0,10680.0,5125.0,0.253,-0.156,-0.366,-0.882
914374,4840.0,9786.0,5047.0,0.254,-0.147,-0.369,-0.882
914390,4392.0,8046.0,5099.0,0.253,-0.139,-0.37,-0.883
914407,4302.0,6962.0,5329.0,0.251,-0.133,-0.369,-0.885
914424,4350.0,6212.0,5979.0,0.247,-0.127,-0.365,-0.888
914440,4578.0,5584.0,6565.0,0.244,-0.123,-0.36,-0.892
914457,4444.0,4986.0,6807.0,0.24,-0.118,-0.353,-0.897
914474,4196.0,5016.0,6877.0,0.238,-0.115,-0.344,-0.901
914491,3930.0,4564.0,6945.0,0.236,-0.112,-0.334,-0.906
914517,3876.0,4374.0,7157.0,0.235,-0.11,-0.324,-0.91
914533,3838.0,4876.0,7223.0,0.235,-0.108,-0.316,-0.913
914549,3782.0,5924.0,7331.0,0.236,-0.109,-0.308,-0.915
914565,3980.0,6736.0,7229.0,0.236,-0.111,-0.298,-0.918
914581,4172.0,6714.0,6959.0,0.235,-0.114,-0.286,-0.922
914597,4258.0,5342.0,6721.0,0.233,-0.119,-0.273,-0.926
914623,4354.0,3764.0,6575.0,0.229,-0.123,-0.262,-0.929
914640,4090.0,3542.0,6601.0,0.225,-0.125,-0.255,-0.932
914657,4062.0,3878.0,6561.0,0.219,-0.126,-0.25,-0.935
914674,4084.0,3718.0,6499.0,0.213,-0.126,-0.244,-0.938
914691,4100.0,3594.0,5851.0,0.206,-0.125,-0.238,-0.941
914707,3808.0,3626.0,5255.0,0.2,-0.124,-0.229,-0.944
914724,3314.0,3656.0,4897.0,0.195,-0.123,-0.218,-0.948
914740,2864.0,2792.0,5285.0,0.189,-0.123,-0.206,-0.952
914757,2746.0,1794.0,5673.0,0.183,-0.125,-0.195,-0.955
914774,2954.0,1520.0,5775.0,0.177,-0.128,-0.187,-0.958
914800,3086.0,2000.0,5579.0,0.173,-0.13,-0.181,-0.959
914816,2876.0,2796.0,5571.0,0.17,-0.131,-0.176,-0.961
914832,2498.0,2924.0,5633.0,0.166,-0.132,-0.168,-0.963
914848,2330.0,2638.0,5563.0,0.163,-0.132,-0.159,-0.965
914864,2086.0,2402.0,5607.0,0.159,-0.133,-0.15,-0.967
914880,1886.0,2126.0,5767.0,0.156,-0.135,-0.143,-0.968
914906,2006.0,2022.0,5955.0,0.152,-0.137,-0.138,-0.969
914923,2110.0,1866.0,6149.0,0.148,-0.139,-0.134,-0.97
914940,2294.0,1974.0,6369.0,0.143,-0.141,-0.132,-0.971
914957,2474.0,2520.0,6525.0,0.139,-0.144,-0.131,-0.971
914974,2628.0,2520.0,6809.0,0.133,-0.147,-0.128,-0.972
914990,2760.0,1972.0,7127.0,0.128,-0.151,-0.125,-0.972
915007,3030.0,1668.0,7285.0,0.123,-0.154,-0.122,-0.973
915024,3082.0,1644.0,7515.0,0.117,-0.157,-0.12,-0.973
915040,3152.0,1416.0,7701.0,0.111,-0.159,-0.119,-0.974
915057,3046.0,1432.0,7613.0,0.106,-0.161,-0.118,-0.974
915084,3000.0,1646.0,7617.0,0.1,-0.163,-0.117,-0.975
915100,2948.0,1480.0,7871.0,0.094,-0.164,-0.114,-0.975
915117,2928.0,1200.0,7951.0,0.088,-0.165,-0.112,-0.976
915133,3518.0,392.0,7629.0,0.082,-0.165,-0.11,-0.977
915150,2584.0,1530.0,7749.0,0.077,-0.165,-0.11,-0.977
915167,2648.0,1792.0,7991.0,0.071,-0.166,-0.109,-0.977
915183,2698.0,1920.0,7901.0,0.066,-0.167,-0.107,-0.978
915199,2672.0,1814.0,7847.0,0.06,-0.169,-0.104,-0.978
915225,2616.0,1798.0,8051.0,0.054,-0.171,-0.099,-0.979
915241,2440.0,1452.0,8311.0,0.048,-0.173,-0.094,-0.979
915257,2700.0,998.0,8609.0,0.042,-0.176,-0.09,-0.979
915273,3082.0,798.0,8713.0,0.036,-0.178,-0.087,-0.98
915290,3168.0,884.0,8751.0,0.03,-0.178,-0.086,-0.98
915307,2950.0,1556.0,8821.0,0.024,-0.178,-0.085,-0.98
915323,2776.0,2062.0,9147.0,0.017,-0.178,-0.083,-0.98
915350,3752.0,1902.0,9055.0,0.01,-0.177,-0.079,-0.981
915367,2268.0,1064.0,8779.0,0.003,-0.174,-0.076,-0.982
915383,2590.0,1244.0,8823.0,0.004,0.17,0.074,0.983
915399,2118.0,1746.0,8771.0,0.012,0.166,0.072,0.983
915415,1986.0,2244.0,8631.0,0.02,0.162,0.07,0.984
915431,1816.0,2474.0,8489.0,0.028,0.157,0.067,0.985
915447,1516.0,2532.0,8483.0,0.038,0.153,0.063,0.986
915473,1278.0,2594.0,8451.0,0.048,0.148,0.059,0.986
915489,1216.0,2656.0,8383.0,0.059,0.143,0.055,0.986
915505,1308.0,2728.0,8321.0,0.071,0.137,0.052,0.987
915521,1286.0,3080.0,8333.0,0.083,0.132,0.049,0.987
915538,1318.0,3168.0,8373.0,0.096,0.126,0.045,0.986
915554,1372.0,3052.0,8251.0,0.11,0.12,0.042,0.986
915570,1690.0,3038.0,8039.0,0.125,0.114,0.04,0.985
915597,1872.0,2946.0,7939.0,0.141,0.107,0.038,0.983
915614,2074.0,2656.0,7897.0,0.157,0.1,0.038,0.982
915630,2294.0,2296.0,7641.0,0.174,0.093,0.038,0.98
915646,2554.0,1914.0,7319.0,0.191,0.086,0.04,0.977
915662,2600.0,1524.0,7037.0,0.209,0.079,0.043,0.974
915678,2222.0,1200.0,6867.0,0.226,0.073,0.048,0.97
915694,1934.0,1168.0,6785.0,0.244,0.067,0.054,0.966
915720,1942.0,1302.0,6823.0,0.261,0.064,0.06,0.961
915737,1728.0,1294.0,6753.0,0.276,0.061,0.065,0.957
915754,1730.0,1238.0,6755.0,0.291,0.06,0.069,0.952
915770,1668.0,934.0,6813.0,0.304,0.058,0.071,0.948
915787,1714.0,834.0,6967.0,0.315,0.058,0.072,0.945
915804,1586.0,720.0,7163.0,0.325,0.058,0.073,0.941
915820,1502.0,722.0,7269.0,0.333,0.058,0.074,0.938
915837,1382.0,908.0,7419.0,0.34,0.059,0.074,0.936
915854,1342.0,1122.0,7639.0,0.346,0.061,0.074,0.933
915880,1462.0,1206.0,7833.0,0.35,0.063,0.073,0.932
915896,1552.0,1504.0,7987.0,0.354,0.064,0.07,0.931
915913,1566.0,1622.0,8251.0,0.356,0.065,0.066,0.93
915929,1724.0,1806.0,8467.0,0.358,0.066,0.061,0.929
915945,1846.0,1682.0,8685.0,0.36,0.067,0.055,0.929
915961,1990.0,1476.0,8615.0,0.362,0.067,0.049,0.928
915977,1972.0,1314.0,8645.0,0.364,0.066,0.043,0.928
916003,1882.0,1256.0,8619.0,0.366,0.065,0.037,0.928
916020,1834.0,1226.0,8765.0,0.367,0.062,0.03,0.928
916037,1834.0,1038.0,8647.0,0.367,0.059,0.022,0.928
916053,1788.0,736.0,8447.0,0.367,0.055,0.013,0.928
916070,1640.0,380.0,8273.0,0.366,0.051,0.004,0.929
916086,1334.0,38.0,8287.0,0.364,0.046,-0.004,0.93
916103,1150.0,-172.0,8203.0,0.362,0.041,-0.013,0.931
916120,1068.0,-270.0,8047.0,0.359,0.036,-0.021,0.933
916137,1068.0,-180.0,8021.0,0.355,0.032,-0.029,0.934
916154,1168.0,38.0,8041.0,0.35,0.028,-0.036,0.936
916180,1608.0,488.0,8009.0,0.344,0.023,-0.045,0.938
916196,2042.0,1094.0,8077.0,0.337,0.017,-0.053,0.94
916212,2340.0,1422.0,8245.0,0.329,0.01,-0.063,0.942
916228,2692.0,1352.0,8427.0,0.322,0.003,-0.074,0.944
916244,2534.0,1198.0,8611.0,0.314,-0.007,-0.086,0.946
916270,2918.0,1054.0,8457.0,0.306,-0.017,-0.097,0.947
916287,2404.0,368.0,8297.0,0.299,-0.028,-0.107,0.948
916303,1940.0,-92.0,8101.0,0.292,-0.04,-0.115,0.949
916320,1494.0,-168.0,7831.0,0.286,-0.052,-0.121,0.949
916337,1256.0,-30.0,7547.0,0.281,-0.065,-0.125,0.949
916354,838.0,-62.0,7187.0,0.277,-0.079,-0.131,0.949
916371,734.0,-30.0,6887.0,0.273,-0.093,-0.137,0.948
916388,442.0,-232.0,6555.0,0.27,-0.108,-0.144,0.946
916405,274.0,-528.0,6261.0,0.267,-0.123,-0.154,0.943
916422,290.0,-876.0,5999.0,0.264,-0.139,-0.164,0.94
916439,248.0,-1132.0,6117.0,0.261,-0.155,-0.176,0.936
916456,110.0,-1348.0,6095.0,0.259,-0.171,-0.189,0.932
916473,430.0,-1526.0,6149.0,0.256,-0.187,-0.202,0.927
916499,442.0,-1640.0,6085.0,0.254,-0.204,-0.216,0.92
916516,322.0,-1930.0,6261.0,0.252,-0.223,-0.231,0.913
916533,-16.0,-2328.0,6535.0,0.25,-0.242,-0.247,0.904
916550,-422.0,-2554.0,6725.0,0.249,-0.261,-0.263,0.895
916566,-1112.0,-2958.0,6645.0,0.247,-0.282,-0.279,0.884
916583,-1530.0,-3886.0,6751.0,0.244,-0.301,-0.296,0.873
916600,292.0,-5608.0,6293.0,0.244,-0.321,-0.312,0.86
916616,2132.0,-7360.0,4619.0,0.246,-0.343,-0.323,0.847
916633,1850.0,-8370.0,2865.0,0.253,-0.369,-0.326,0.833
916659,-574.0,-9128.0,527.0,0.266,-0.397,-0.321,0.818
916676,-4518.0,-8146.0,-933.0,0.283,-0.421,-0.309,0.805
916693,-6820.0,-6380.0,-1527.0,0.302,-0.439,-0.297,0.793
916710,-8244.0,-5348.0,-1551.0,0.317,-0.452,-0.293,0.781
916726,-7434.0,-5516.0,-1291.0,0.326,-0.462,-0.301,0.768
916743,-6718.0,-7466.0,-1547.0,0.327,-0.471,-0.317,0.755
916760,-5190.0,-9846.0,-1831.0,0.326,-0.48,-0.333,0.743
916777,-5354.0,-11250.0,-1471.0,0.325,-0.489,-0.345,0.732
916794,-5520.0,-11216.0,-1159.0,0.328,-0.497,-0.353,0.722
916810,-4666.0,-10354.0,-1633.0,0.333,-0.503,-0.356,0.714
916827,-4260.0,-9996.0,-2893.0,0.341,-0.508,-0.357,0.705
916854,-5100.0,-9916.0,-4099.0,0.353,-0.512,-0.358,0.696
916871,-5934.0,-10114.0,-4127.0,0.365,-0.515,-0.359,0.687
916888,-5974.0,-9792.0,-3571.0,0.377,-0.515,-0.361,0.68
916905,-5474.0,-9546.0,-3555.0,0.384,-0.513,-0.366,0.675
916922,-5124.0,-9392.0,-3443.0,0.386,-0.511,-0.374,0.671
916939,-4488.0,-8958.0,-2813.0,0.383,-0.51,-0.384,0.667
916956,-3940.0,-8852.0,-1635.0,0.377,-0.51,-0.397,0.663
916973,-3238.0,-8348.0,-451.0,0.369,-0.512,-0.411,0.658
916989,-2442.0,-8090.0,273.0,0.36,-0.514,-0.425,0.653
917006,-2182.0,-7794.0,843.0,0.35,-0.517,-0.437,0.647
917022,-2030.0,-7506.0,1317.0,0.34,-0.52,-0.449,0.642
917039,-1518.0,-7390.0,1533.0,0.331,-0.525,-0.458,0.637
917065,-1090.0,-7352.0,1599.0,0.323,-0.53,-0.466,0.631
917081,-1250.0,-7042.0,1425.0,0.317,-0.536,-0.471,0.625
917097,-1690.0,-6502.0,1531.0,0.312,-0.542,-0.476,0.619
917113,-1542.0,-6202.0,1349.0,0.307,-0.549,-0.48,0.612
917130,-1554.0,-6818.0,871.0,0.303,-0.555,-0.486,0.604
917156,-2126.0,-7682.0,251.0,0.3,-0.56,-0.49,0.597
917172,-2582.0,-7856.0,-493.0,0.3,-0.565,-0.492,0.591
917189,-3002.0,-8042.0,-1137.0,0.302,-0.569,-0.492,0.586
917206,-3606.0,-7836.0,-1701.0,0.305,-0.572,-0.492,0.581
917222,-3582.0,-7450.0,-2057.0,0.308,-0.574,-0.492,0.578
917239,-3084.0,-7468.0,-2373.0,0.309,-0.576,-0.492,0.574
917256,-3090.0,-7720.0,-2449.0,0.309,-0.579,-0.494,0.571
917273,-2756.0,-8354.0,-2673.0,0.308,-0.58,-0.495,0.568
917289,-2714.0,-8964.0,-2597.0,0.308,-0.582,-0.495,0.566
917306,-2554.0,-9224.0,-2583.0,0.308,-0.584,-0.493,0.567
917332,-3018.0,-8858.0,-2379.0,0.309,-0.584,-0.49,0.568
917349,-3074.0,-7930.0,-2025.0,0.31,-0.585,-0.486,0.57
917366,-2978.0,-7456.0,-1279.0,0.307,-0.587,-0.483,0.572
917383,-2892.0,-7594.0,-579.0,0.303,-0.59,-0.482,0.573
917400,-2744.0,-7728.0,49.0,0.296,-0.593,-0.482,0.573
917417,-3046.0,-8038.0,573.0,0.288,-0.598,-0.483,0.572
917433,-3740.0,-8384.0,799.0,0.279,-0.604,-0.482,0.569
917450,-4234.0,-7814.0,771.0,0.269,-0.613,-0.481,0.567
917466,-4422.0,-7154.0,799.0,0.256,-0.623,-0.479,0.562
917483,-4628.0,-7166.0,485.0,0.243,-0.634,-0.478,0.557
917500,-4862.0,-7478.0,215.0,0.229,-0.646,-0.477,0.55
917526,-4786.0,-7930.0,-525.0,0.217,-0.658,-0.475,0.542
917542,-5076.0,-8616.0,-1347.0,0.206,-0.67,-0.472,0.534
917558,-5138.0,-8204.0,-1973.0,0.198,-0.682,-0.467,0.526
917574,-5554.0,-7442.0,-2545.0,0.19,-0.694,-0.461,0.519
917590,-5702.0,-6410.0,-3515.0,0.182,-0.706,-0.456,0.51
917607,-6474.0,-4976.0,-3903.0,0.17,-0.719,-0.452,0.5
917633,-6380.0,-3928.0,-4265.0,0.153,-0.732,-0.45,0.488
917650,-6078.0,-3904.0,-4571.0,0.132,-0.743,-0.452,0.475
917667,-5450.0,-3842.0,-4603.0,0.11,-0.753,-0.456,0.461
917684,-4884.0,-4064.0,-4489.0,0.091,-0.762,-0.46,0.447
917701,-4682.0,-4212.0,-4295.0,0.075,-0.77,-0.463,0.432
917718,-4586.0,-4124.0,-4481.0,0.064,-0.777,-0.466,0.418
917734,-4210.0,-2978.0,-5293.0,0.057,-0.784,-0.466,0.407
917751,-3754.0,-1470.0,-6293.0,0.051,-0.79,-0.465,0.396
917768,-3628.0,-1232.0,-7297.0,0.044,-0.796,-0.465,0.385
917784,-3936.0,-1456.0,-7827.0,0.037,-0.801,-0.466,0.374
917810,-3888.0,-1836.0,-7929.0,0.03,-0.804,-0.467,0.366
917826,-3798.0,-2434.0,-8169.0,0.024,-0.807,-0.467,0.361
917842,-3774.0,-2054.0,-8417.0,0.019,-0.808,-0.467,0.359
917859,-3722.0,-1744.0,-8233.0,0.016,-0.808,-0.466,0.359
917876,-3688.0,-1732.0,-7939.0,0.013,-0.808,-0.467,0.36
917893,-3734.0,-1678.0,-7471.0,0.009,-0.806,-0.468,0.363
917910,-3732.0,-1988.0,-6619.0,0.004,-0.803,-0.47,0.366
917927,-3740.0,-2168.0,-5845.0,0.001,0.8,0.473,-0.369
917943,-3954.0,-2404.0,-5209.0,0.006,0.797,0.476,-0.372
917960,-4228.0,-2842.0,-4647.0,0.011,0.794,0.48,-0.373
917986,-4488.0,-2784.0,-4331.0,0.016,0.791,0.485,-0.374
918002,-4460.0,-2618.0,-4629.0,0.022,0.788,0.489,-0.373
918018,-5044.0,-2482.0,-5715.0,0.026,0.787,0.492,-0.37
918034,-4972.0,-3054.0,-6727.0,0.029,0.787,0.495,-0.366
918050,-5892.0,-3394.0,-7119.0,0.03,0.787,0.499,-0.362
918066,-6404.0,-3120.0,-7325.0,0.03,0.787,0.501,-0.359
918093,-6790.0,-4198.0,-8253.0,0.03,0.787,0.503,-0.356
918109,-7706.0,-4606.0,-9155.0,0.029,0.788,0.502,-0.356
918125,-7616.0,-3792.0,-10115.0,0.03,0.789,0.499,-0.358
918142,-7460.0,-3612.0,-10129.0,0.033,0.789,0.495,-0.363
918159,-6418.0,-4284.0,-8393.0,0.036,0.788,0.491,-0.37
918176,-5802.0,-3864.0,-7049.0,0.034,0.788,0.486,-0.377
918193,-5120.0,-1278.0,-4323.0,0.034,0.788,0.482,-0.382
918209,-4362.0,-1544.0,-1929.0,0.039,0.789,0.479,-0.384
918226,-6910.0,788.0,-3957.0,0.055,0.789,0.477,-0.384
918252,-5486.0,-8248.0,-7545.0,0.078,0.787,0.474,-0.386
918269,-1310.0,-5086.0,-5181.0,0.081,0.789,0.465,-0.393
918286,-1852.0,-1924.0,-1475.0,0.084,0.791,0.458,-0.397
918302,-4314.0,3526.0,-2031.0,0.082,0.792,0.463,-0.39
918319,-7370.0,-2094.0,-3977.0,0.078,0.792,0.462,-0.391
918335,-4982.0,-226.0,-4041.0,0.075,0.794,0.456,-0.395
918351,-5814.0,-1476.0,-6075.0,0.075,0.796,0.45,-0.398
918377,-5064.0,-1738.0,-6977.0,0.074,0.797,0.445,-0.401
918393,-5298.0,-1808.0,-7227.0,0.076,0.798,0.443,-0.403
918409,-4900.0,-1966.0,-6147.0,0.079,0.798,0.442,-0.402
918426,-5122.0,-2988.0,-5049.0,0.081,0.797,0.443,-0.403
918442,-6100.0,-1948.0,-4705.0,0.081,0.797,0.442,-0.404
918459,-6668.0,-1742.0,-4743.0,0.081,0.797,0.44,-0.407
918476,-6514.0,-2122.0,-5165.0,0.081,0.796,0.438,-0.41
918493,-6352.0,-1888.0,-4977.0,0.082,0.796,0.436,-0.413
918509,-5750.0,-1942.0,-5121.0,0.083,0.794,0.435,-0.417
918526,-4634.0,-2116.0,-6019.0,0.084,0.792,0.435,-0.42
918553,-4970.0,-2062.0,-5861.0,0.084,0.79,0.435,-0.424
918569,-5998.0,-2316.0,-5593.0,0.082,0.788,0.435,-0.427
918586,-6444.0,-1784.0,-5589.0,0.082,0.787,0.436,-0.429
918602,-6414.0,-1274.0,-4713.0,0.081,0.786,0.435,-0.432
918618,-5606.0,-1212.0,-5521.0,0.081,0.785,0.435,-0.433
918635,-5682.0,-1964.0,-5921.0,0.081,0.785,0.435,-0.434
918651,-5896.0,-2142.0,-5019.0,0.081,0.784,0.434,-0.435
918668,-5726.0,-1788.0,-5797.0,0.081,0.785,0.434,-0.436
918694,-6174.0,-1300.0,-5947.0,0.081,0.785,0.433,-0.436
918710,-6514.0,-1680.0,-6183.0,0.081,0.785,0.433,-0.436
918726,-7306.0,-2360.0,-6135.0,0.081,0.784,0.434,-0.436
918742,-8068.0,-2592.0,-6131.0,0.083,0.783,0.434,-0.437
918758,-7942.0,-2622.0,-6181.0,0.085,0.782,0.434,-0.439
918775,-7530.0,-3026.0,-6473.0,0.087,0.78,0.433,-0.443
918792,-7458.0,-2626.0,-6433.0,0.089,0.778,0.432,-0.447
918809,-7196.0,-2612.0,-6011.0,0.091,0.776,0.43,-0.452
918836,-6772.0,-2560.0,-6261.0,0.093,0.774,0.428,-0.458
918852,-6734.0,-2208.0,-5735.0,0.097,0.771,0.425,-0.464
918868,-6184.0,-2040.0,-5785.0,0.1,0.769,0.422,-0.469
918885,-5616.0,-2496.0,-5661.0,0.104,0.767,0.419,-0.475
918901,-5818.0,-2502.0,-5209.0,0.107,0.765,0.416,-0.48
918917,-5880.0,-2048.0,-4961.0,0.11,0.763,0.413,-0.485
918934,-5556.0,-1738.0,-5149.0,0.113,0.761,0.41,-0.49
918960,-6060.0,-2170.0,-4269.0,0.116,0.759,0.408,-0.495
918976,-6316.0,-2802.0,-3731.0,0.12,0.756,0.405,-0.5
918992,-5946.0,-2386.0,-4273.0,0.122,0.753,0.402,-0.506
919008,-6378.0,-1242.0,-4083.0,0.126,0.751,0.4,-0.511
919025,-5978.0,-1966.0,-3915.0,0.129,0.748,0.397,-0.516
919042,-5940.0,-2390.0,-3925.0,0.132,0.746,0.394,-0.521
919059,-6194.0,-1888.0,-3849.0,0.134,0.743,0.392,-0.525
919076,-6242.0,-1604.0,-3389.0,0.135,0.741,0.391,-0.53
919102,-6178.0,-1448.0,-3455.0,0.137,0.738,0.389,-0.534
919119,-5930.0,-2490.0,-3389.0,0.138,0.736,0.387,-0.537
919135,-6254.0,-1998.0,-2881.0,0.137,0.735,0.386,-0.541
919152,-6122.0,-1528.0,-2927.0,0.136,0.733,0.385,-0.544
919169,-6462.0,-1214.0,-2871.0,0.134,0.732,0.385,-0.547
919185,-6418.0,-1758.0,-2553.0,0.132,0.731,0.384,-0.549
919202,-6348.0,-2782.0,-2389.0,0.129,0.729,0.384,-0.551
919219,-6684.0,-1016.0,-2769.0,0.127,0.729,0.384,-0.553
919235,-7014.0,-2260.0,-2213.0,0.125,0.728,0.384,-0.555
919252,-7492.0,-2084.0,-2323.0,0.123,0.727,0.384,-0.557
919278,-7698.0,-1972.0,-2241.0,0.122,0.725,0.383,-0.559
919294,-8038.0,-1890.0,-1911.0,0.122,0.723,0.383,-0.562
919311,-8136.0,-2408.0,-2099.0,0.122,0.721,0.382,-0.565
919327,-7918.0,-2146.0,-2179.0,0.122,0.719,0.382,-0.568
919343,-7980.0,-2008.0,-1715.0,0.122,0.717,0.381,-0.571
919359,-7892.0,-2078.0,-1689.0,0.123,0.715,0.38,-0.573
919385,-7602.0,-2036.0,-1557.0,0.123,0.714,0.379,-0.576
919402,-7570.0,-2844.0,-1265.0,0.123,0.712,0.379,-0.578
919418,-7632.0,-1778.0,-1565.0,0.124,0.711,0.378,-0.58
919435,-7202.0,-2262.0,-1405.0,0.125,0.71,0.378,-0.581
919452,-6888.0,-2190.0,-1863.0,0.125,0.71,0.377,-0.582
919468,-6964.0,-1732.0,-2253.0,0.124,0.711,0.377,-0.581
919484,-7012.0,-1904.0,-1843.0,0.124,0.711,0.377,-0.58
919501,-6998.0,-1860.0,-2047.0,0.124,0.712,0.376,-0.58
919518,-6776.0,-1936.0,-2267.0,0.125,0.713,0.375,-0.579
919544,-6158.0,-1634.0,-2153.0,0.125,0.713,0.375,-0.579
919560,-5840.0,-1698.0,-1713.0,0.125,0.713,0.375,-0.579
919576,-4706.0,-1084.0,-1897.0,0.125,0.712,0.375,-0.58
919592,-3790.0,-1512.0,-1559.0,0.125,0.711,0.377,-0.58
919608,-3446.0,-680.0,-1391.0,0.124,0.71,0.38,-0.58
919625,-3248.0,-1350.0,-1153.0,0.122,0.709,0.383,-0.58
919642,-3018.0,-554.0,-1347.0,0.12,0.708,0.388,-0.578
919659,-3110.0,-456.0,-1351.0,0.117,0.707,0.392,-0.576
919686,-3258.0,-1358.0,-1853.0,0.114,0.708,0.396,-0.574
919702,-4588.0,-666.0,-2273.0,0.11,0.709,0.4,-0.571
919718,-5048.0,-710.0,-2525.0,0.107,0.71,0.405,-0.566
919735,-7282.0,-1918.0,-1919.0,0.105,0.711,0.409,-0.563
919751,-8292.0,-2330.0,-2643.0,0.103,0.71,0.412,-0.561
919768,-8392.0,-2712.0,-2979.0,0.103,0.709,0.416,-0.56
919785,-8136.0,-3524.0,-3379.0,0.102,0.708,0.42,-0.559
919802,-9902.0,-3196.0,-2769.0,0.102,0.706,0.422,-0.56
919818,-8932.0,-3410.0,-3689.0,0.102,0.704,0.424,-0.56
919844,-9190.0,-3488.0,-3305.0,0.103,0.703,0.424,-0.562
919860,-8496.0,-3858.0,-3385.0,0.104,0.702,0.424,-0.563
919876,-8658.0,-3648.0,-3341.0,0.104,0.701,0.424,-0.565
919892,-8726.0,-3262.0,-3339.0,0.104,0.7,0.423,-0.566
919908,-8588.0,-2344.0,-3687.0,0.105,0.699,0.423,-0.567
919925,-8642.0,-4006.0,-2825.0,0.106,0.7,0.421,-0.567
919942,-8942.0,-3154.0,-3199.0,0.107,0.7,0.419,-0.568
919969,-8118.0,-4258.0,-3225.0,0.108,0.7,0.416,-0.57
919985,-8760.0,-3426.0,-3017.0,0.109,0.7,0.414,-0.571
920001,-8620.0,-3456.0,-3203.0,0.11,0.7,0.411,-0.574
920017,-9048.0,-3236.0,-3067.0,0.111,0.699,0.408,-0.576
920033,-9016.0,-2896.0,-2957.0,0.113,0.699,0.404,-0.579
920050,-8236.0,-3440.0,-2783.0,0.115,0.698,0.4,-0.583
920067,-8196.0,-2706.0,-2763.0,0.117,0.696,0.396,-0.587
920084,-8094.0,-2936.0,-2591.0,0.119,0.695,0.393,-0.59
920111,-7472.0,-2972.0,-2661.0,0.12,0.694,0.391,-0.593
920127,-7966.0,-2612.0,-2137.0,0.121,0.693,0.388,-0.595
920143,-8420.0,-2876.0,-1715.0,0.123,0.692,0.385,-0.598
920159,-7972.0,-2718.0,-2053.0,0.124,0.69,0.383,-0.602
920176,-7850.0,-2534.0,-1849.0,0.126,0.688,0.38,-0.605
920192,-7926.0,-2380.0,-1581.0,0.128,0.687,0.377,-0.608
920208,-7604.0,-2474.0,-1909.0,0.129,0.686,0.374,-0.611
920235,-8082.0,-2156.0,-1603.0,0.131,0.685,0.371,-0.613
920251,-8182.0,-2482.0,-1393.0,0.134,0.684,0.368,-0.616
920268,-8674.0,-2348.0,-1203.0,0.136,0.682,0.366,-0.618
920284,-8970.0,-2074.0,-1497.0,0.14,0.68,0.364,-0.621
920301,-8492.0,-3580.0,-2039.0,0.141,0.679,0.362,-0.623
920318,-10832.0,-2958.0,-1919.0,0.142,0.678,0.361,-0.624
920334,-10194.0,-3314.0,-2073.0,0.141,0.679,0.362,-0.624
920351,-11562.0,-3648.0,-1991.0,0.14,0.679,0.364,-0.622
920367,-12302.0,-3622.0,-1799.0,0.138,0.68,0.366,-0.621
920394,-10970.0,-4246.0,-2177.0,0.137,0.68,0.368,-0.619
920410,-11294.0,-3450.0,-2143.0,0.134,0.681,0.372,-0.617
920426,-11184.0,-3998.0,-1669.0,0.132,0.681,0.375,-0.614
920442,-10338.0,-3302.0,-2251.0,0.129,0.681,0.38,-0.612
920458,-10612.0,-3570.0,-2153.0,0.127,0.681,0.384,-0.611
920475,-10580.0,-3050.0,-1677.0,0.125,0.681,0.388,-0.609
920492,-9344.0,-3246.0,-2273.0,0.123,0.681,0.391,-0.607
920518,-9456.0,-3490.0,-2183.0,0.122,0.681,0.395,-0.605
920534,-9670.0,-3736.0,-1991.0,0.12,0.681,0.398,-0.603
920550,-9402.0,-2922.0,-2337.0,0.119,0.681,0.402,-0.601
920566,-8966.0,-3770.0,-1777.0,0.118,0.681,0.405,-0.599
920582,-9618.0,-3242.0,-1731.0,0.117,0.68,0.407,-0.599
920598,-8724.0,-3438.0,-2593.0,0.116,0.68,0.408,-0.598
920615,-8446.0,-2988.0,-1913.0,0.116,0.679,0.409,-0.598
920642,-8318.0,-3416.0,-1713.0,0.116,0.678,0.41,-0.598
920658,-8376.0,-2604.0,-2173.0,0.117,0.678,0.41,-0.6
920675,-7646.0,-2384.0,-2045.0,0.119,0.677,0.408,-0.601
920691,-7074.0,-2016.0,-1923.0,0.121,0.677,0.407,-0.601
920708,-6296.0,-3102.0,-2199.0,0.122,0.678,0.406,-0.601
920725,-6952.0,-1646.0,-1845.0,0.123,0.679,0.405,-0.6
920741,-7038.0,-2144.0,-1493.0,0.124,0.68,0.404,-0.599
920758,-5926.0,-2240.0,-2443.0,0.125,0.683,0.402,-0.597
920775,-7200.0,-1800.0,-1553.0,0.126,0.685,0.401,-0.595
920792,-7276.0,-2292.0,-1729.0,0.127,0.688,0.398,-0.594
920819,-7158.0,-3244.0,-2201.0,0.128,0.69,0.395,-0.592
920836,-7378.0,-1330.0,-2161.0,0.13,0.693,0.392,-0.591
920852,-7840.0,-2218.0,-1705.0,0.133,0.695,0.389,-0.59
920868,-7898.0,-2516.0,-2469.0,0.136,0.696,0.384,-0.591
920884,-6928.0,-3468.0,-2327.0,0.139,0.698,0.379,-0.591
920901,-7818.0,-420.0,-2091.0,0.144,0.699,0.373,-0.593
920917,-7672.0,-1020.0,-1977.0,0.151,0.7,0.365,-0.595
920934,-6554.0,100.0,-1787.0,0.162,0.698,0.356,-0.6
920951,-4310.0,-246.0,-1733.0,0.175,0.695,0.348,-0.604
920977,-2800.0,44.0,-1803.0,0.19,0.692,0.34,-0.608
920993,-1404.0,1158.0,-979.0,0.205,0.69,0.334,-0.609
921009,-428.0,-814.0,-1283.0,0.22,0.689,0.331,-0.607
921025,-408.0,-1644.0,-2219.0,0.228,0.691,0.328,-0.602
921041,-1498.0,-572.0,-2065.0,0.231,0.698,0.324,-0.596
921058,-2468.0,-1626.0,-2951.0,0.226,0.706,0.318,-0.591
921085,-2538.0,-3008.0,-129.0,0.216,0.716,0.313,-0.586
921101,-3762.0,-4394.0,1067.0,0.207,0.722,0.315,-0.581
921118,-3540.0,-1780.0,1205.0,0.194,0.725,0.321,-0.578
921134,-3858.0,-2076.0,623.0,0.182,0.725,0.33,-0.576
921151,-3008.0,-3260.0,-655.0,0.167,0.724,0.34,-0.577
921168,-6738.0,-522.0,-295.0,0.149,0.723,0.349,-0.577
921184,-7446.0,4134.0,-3119.0,0.14,0.72,0.359,-0.578
921201,-4724.0,146.0,-3021.0,0.136,0.715,0.37,-0.577
921227,-6094.0,-5290.0,-3433.0,0.131,0.712,0.379,-0.576
921244,-8198.0,1786.0,-2691.0,0.128,0.71,0.388,-0.574
921260,-6374.0,-1906.0,-2591.0,0.125,0.708,0.395,-0.571
921277,-8486.0,-2922.0,-3275.0,0.122,0.707,0.401,-0.57
921293,-7096.0,-2652.0,-4321.0,0.118,0.706,0.407,-0.567
921309,-7606.0,-2206.0,-2799.0,0.115,0.704,0.413,-0.566
921325,-8976.0,-3482.0,-2965.0,0.112,0.703,0.418,-0.565
921341,-9060.0,-3078.0,-3917.0,0.109,0.701,0.421,-0.566
921368,-8138.0,-3200.0,-3369.0,0.108,0.699,0.424,-0.565
921384,-8684.0,-3878.0,-2825.0,0.107,0.697,0.426,-0.566
921401,-9946.0,-2452.0,-3463.0,0.107,0.695,0.427,-0.568
921417,-8344.0,-2726.0,-3825.0,0.111,0.695,0.426,-0.569
921433,-8122.0,-4142.0,-2663.0,0.114,0.694,0.425,-0.57
921450,-8428.0,-3450.0,-3147.0,0.117,0.694,0.422,-0.572
921467,-8528.0,-3352.0,-3257.0,0.119,0.693,0.42,-0.574
921484,-7720.0,-3236.0,-2913.0,0.121,0.692,0.418,-0.575
921500,-8208.0,-2954.0,-2677.0,0.122,0.691,0.417,-0.577
921527,-8764.0,-2990.0,-2773.0,0.124,0.69,0.415,-0.58
921543,-8234.0,-2538.0,-2315.0,0.126,0.689,0.413,-0.582
921560,-7514.0,-2660.0,-2473.0,0.129,0.688,0.411,-0.584
921576,-8022.0,-3292.0,-2595.0,0.13,0.687,0.409,-0.586
921592,-8532.0,-2746.0,-2151.0,0.132,0.686,0.407,-0.588
921608,-7782.0,-2436.0,-2351.0,0.133,0.686,0.406,-0.59
921624,-8436.0,-2884.0,-2071.0,0.135,0.685,0.404,-0.591
921651,-8312.0,-2862.0,-2257.0,0.136,0.684,0.402,-0.593
921667,-8190.0,-2520.0,-2253.0,0.137,0.684,0.401,-0.594
921684,-7820.0,-3050.0,-2315.0,0.138,0.684,0.399,-0.595
921701,-8548.0,-2666.0,-1987.0,0.138,0.683,0.398,-0.596
921717,-8218.0,-2608.0,-2155.0,0.139,0.683,0.397,-0.597
921733,-8120.0,-2698.0,-1953.0,0.14,0.682,0.396,-0.599
921750,-7992.0,-2442.0,-1831.0,0.14,0.682,0.394,-0.6
921767,-7968.0,-2668.0,-1751.0,0.141,0.681,0.393,-0.601
921784,-7846.0,-2434.0,-1501.0,0.142,0.681,0.392,-0.603
921810,-7970.0,-2308.0,-1527.0,0.143,0.68,0.39,-0.604
921826,-7930.0,-2696.0,-1505.0,0.144,0.679,0.389,-0.606
921842,-7938.0,-2658.0,-1629.0,0.145,0.678,0.387,-0.608
921858,-9014.0,-2630.0,-1487.0,0.146,0.677,0.386,-0.609
921874,-9082.0,-3152.0,-1869.0,0.148,0.677,0.385,-0.61
921891,-9750.0,-3124.0,-1797.0,0.149,0.677,0.384,-0.61
921908,-11016.0,-3574.0,-2171.0,0.15,0.677,0.383,-0.61
921934,-11094.0,-3486.0,-2259.0,0.15,0.678,0.384,-0.609
921951,-11520.0,-3596.0,-2225.0,0.15,0.678,0.385,-0.607
921967,-11690.0,-4320.0,-2163.0,0.15,0.678,0.387,-0.606
921984,-11056.0,-5126.0,-2721.0,0.148,0.679,0.39,-0.604
922000,-10420.0,-3472.0,-2339.0,0.145,0.679,0.395,-0.601
922017,-10410.0,-3800.0,-2119.0,0.141,0.681,0.399,-0.598
922034,-10370.0,-3196.0,-2175.0,0.136,0.682,0.405,-0.594
922050,-10158.0,-3438.0,-2081.0,0.132,0.683,0.41,-0.59
922066,-9500.0,-3698.0,-1817.0,0.127,0.683,0.415,-0.587
922092,-10084.0,-2746.0,-2313.0,0.123,0.683,0.42,-0.585
922108,-9186.0,-2692.0,-2513.0,0.12,0.682,0.424,-0.584
922124,-8316.0,-3622.0,-2495.0,0.118,0.681,0.428,-0.583
922141,-8366.0,-2952.0,-2869.0,0.117,0.68,0.431,-0.582
922157,-8106.0,-3206.0,-2595.0,0.116,0.679,0.434,-0.581
922174,-8160.0,-3660.0,-2073.0,0.115,0.678,0.437,-0.58
922191,-8302.0,-3618.0,-2643.0,0.115,0.677,0.439,-0.579
922217,-8206.0,-3494.0,-2111.0,0.115,0.677,0.439,-0.579
922234,-7508.0,-3484.0,-2113.0,0.115,0.677,0.44,-0.579
922251,-7336.0,-3514.0,-2371.0,0.115,0.677,0.439,-0.579
922267,-7536.0,-3106.0,-1937.0,0.116,0.677,0.439,-0.58
922284,-6868.0,-3244.0,-2171.0,0.116,0.677,0.438,-0.58
922300,-6512.0,-2310.0,-2641.0,0.117,0.678,0.437,-0.58
922317,-6756.0,-3082.0,-2359.0,0.117,0.679,0.436,-0.579
922334,-7180.0,-3138.0,-2097.0,0.118,0.681,0.435,-0.578
922350,-7358.0,-2550.0,-1849.0,0.12,0.682,0.433,-0.578
922367,-6532.0,-2728.0,-2649.0,0.122,0.683,0.431,-0.577
922393,-7450.0,-2926.0,-1895.0,0.123,0.685,0.428,-0.577
922409,-7114.0,-2248.0,-2317.0,0.125,0.686,0.425,-0.577
922425,-7164.0,-3000.0,-2319.0,0.127,0.688,0.421,-0.577
922441,-7234.0,-2298.0,-2457.0,0.13,0.689,0.417,-0.578
922457,-6956.0,-1736.0,-2449.0,0.133,0.69,0.413,-0.579
922484,-6978.0,-2130.0,-2179.0,0.138,0.691,0.407,-0.581
922500,-7050.0,-3004.0,-2603.0,0.142,0.692,0.401,-0.583
922517,-7146.0,-640.0,-2363.0,0.148,0.693,0.395,-0.584
922534,-5816.0,-2254.0,-2111.0,0.155,0.694,0.389,-0.586
922550,-6018.0,-1934.0,-2179.0,0.161,0.695,0.381,-0.589
922567,-5564.0,-1470.0,-1709.0,0.167,0.696,0.373,-0.591
922583,-4522.0,-342.0,-1445.0,0.174,0.696,0.366,-0.593
922599,-3718.0,-512.0,-1375.0,0.182,0.696,0.359,-0.594
922615,-3022.0,-1146.0,-903.0,0.189,0.696,0.351,-0.596
922641,-2428.0,-350.0,-1029.0,0.195,0.696,0.346,-0.598
922657,-2272.0,-824.0,-1455.0,0.199,0.696,0.344,-0.599
922674,-1750.0,-1878.0,-1299.0,0.2,0.695,0.346,-0.598
922691,-1592.0,-2324.0,-1189.0,0.196,0.695,0.351,-0.596
922707,-1944.0,-1372.0,-1173.0,0.189,0.697,0.357,-0.593
922724,-2402.0,-496.0,-725.0,0.18,0.699,0.364,-0.589
922741,-2290.0,-1624.0,-1207.0,0.172,0.7,0.372,-0.585
922757,-3604.0,-2406.0,-1097.0,0.16,0.703,0.381,-0.579
922774,-3734.0,-1148.0,-1933.0,0.149,0.705,0.39,-0.573
922800,-5018.0,228.0,-1733.0,0.138,0.707,0.398,-0.567
922817,-6882.0,-462.0,-2249.0,0.13,0.709,0.407,-0.561
922833,-5776.0,-2372.0,-2713.0,0.125,0.709,0.415,-0.556
922850,-6424.0,-1832.0,-2613.0,0.119,0.709,0.422,-0.552
922867,-7586.0,-4318.0,-3779.0,0.112,0.709,0.431,-0.547
922884,-7654.0,-1072.0,-2993.0,0.107,0.708,0.438,-0.543
922900,-7808.0,-3154.0,-2643.0,0.104,0.706,0.445,-0.541
922917,-7770.0,-3862.0,-4843.0,0.101,0.704,0.449,-0.541
922943,-8064.0,-1882.0,-3485.0,0.097,0.703,0.454,-0.539
922959,-5952.0,-4112.0,-3925.0,0.094,0.702,0.458,-0.537
922975,-8532.0,-4106.0,-3803.0,0.091,0.701,0.461,-0.537
922991,-9248.0,-1440.0,-3951.0,0.089,0.7,0.462,-0.537
923007,-7228.0,-3590.0,-3283.0,0.09,0.699,0.462,-0.538
923024,-6626.0,-4580.0,-4805.0,0.091,0.699,0.462,-0.538
923040,-9290.0,-2924.0,-3333.0,0.091,0.698,0.463,-0.539
923067,-7592.0,-3778.0,-3353.0,0.092,0.697,0.463,-0.541
923084,-7096.0,-4112.0,-4351.0,0.092,0.695,0.462,-0.543
923100,-8576.0,-3378.0,-3791.0,0.092,0.694,0.461,-0.545
923117,-8082.0,-3174.0,-3323.0,0.094,0.693,0.461,-0.546
923134,-7428.0,-4166.0,-4077.0,0.095,0.692,0.46,-0.548
923150,-8616.0,-3712.0,-3279.0,0.096,0.691,0.459,-0.55
923167,-8376.0,-3874.0,-3197.0,0.098,0.69,0.457,-0.552
923184,-7374.0,-3524.0,-4169.0,0.099,0.69,0.455,-0.555
923200,-8138.0,-3856.0,-2985.0,0.101,0.689,0.453,-0.557
923217,-8162.0,-3600.0,-3409.0,0.102,0.688,0.451,-0.559
923243,-7392.0,-3528.0,-3429.0,0.103,0.688,0.449,-0.561
923259,-7318.0,-3630.0,-2861.0,0.104,0.687,0.447,-0.564
923275,-8104.0,-3734.0,-2653.0,0.105,0.686,0.445,-0.566
923291,-6866.0,-3424.0,-3341.0,0.106,0.685,0.442,-0.569
923307,-7730.0,-3396.0,-2463.0,0.108,0.685,0.44,-0.571
923323,-7848.0,-3636.0,-2307.0,0.109,0.684,0.437,-0.574
923350,-7600.0,-3354.0,-2497.0,0.111,0.684,0.433,-0.576
923367,-7524.0,-3504.0,-2115.0,0.114,0.683,0.43,-0.579
923383,-7766.0,-3320.0,-2087.0,0.116,0.683,0.425,-0.582
923399,-7634.0,-3284.0,-2195.0,0.118,0.683,0.422,-0.584
923416,-7818.0,-3218.0,-1871.0,0.121,0.683,0.418,-0.586
923433,-8014.0,-3268.0,-1993.0,0.123,0.683,0.415,-0.589
923449,-8196.0,-3260.0,-1935.0,0.125,0.682,0.412,-0.591
923466,-8426.0,-3082.0,-1837.0,0.127,0.681,0.409,-0.594
923483,-8836.0,-3192.0,-2095.0,0.129,0.681,0.406,-0.596
923500,-9898.0,-3670.0,-2027.0,0.131,0.68,0.404,-0.598
923526,-10372.0,-4072.0,-1879.0,0.132,0.679,0.403,-0.6
923542,-10482.0,-4426.0,-2703.0,0.132,0.678,0.403,-0.6
923558,-12018.0,-4236.0,-2179.0,0.131,0.678,0.404,-0.6
923574,-11510.0,-4412.0,-2269.0,0.13,0.678,0.406,-0.599
923590,-11142.0,-4172.0,-2989.0,0.128,0.678,0.409,-0.597
923607,-10896.0,-4268.0,-2577.0,0.127,0.678,0.413,-0.595
923624,-10478.0,-4266.0,-2393.0,0.124,0.678,0.417,-0.593
923650,-10038.0,-3718.0,-2931.0,0.121,0.677,0.422,-0.591
923666,-9816.0,-3912.0,-2415.0,0.118,0.676,0.427,-0.589
923682,-9970.0,-3592.0,-2235.0,0.115,0.675,0.432,-0.587
923698,-9012.0,-3544.0,-3079.0,0.113,0.674,0.437,-0.584
923714,-9196.0,-3708.0,-2317.0,0.11,0.673,0.442,-0.582
923730,-8976.0,-3726.0,-2437.0,0.108,0.673,0.446,-0.58
923756,-8770.0,-3506.0,-2681.0,0.106,0.672,0.45,-0.579
923772,-8532.0,-3700.0,-2403.0,0.105,0.671,0.453,-0.578
923788,-8868.0,-3360.0,-2159.0,0.104,0.67,0.455,-0.577
923804,-7748.0,-3918.0,-2797.0,0.104,0.67,0.457,-0.576
923820,-7942.0,-3606.0,-2033.0,0.104,0.669,0.458,-0.576
923846,-7656.0,-3978.0,-1899.0,0.103,0.668,0.459,-0.577
923863,-7040.0,-3094.0,-3055.0,0.103,0.668,0.459,-0.577
923880,-7042.0,-4010.0,-1699.0,0.103,0.667,0.458,-0.578
923897,-6818.0,-2876.0,-2671.0,0.103,0.668,0.457,-0.578
923914,-7154.0,-2746.0,-2577.0,0.104,0.668,0.457,-0.578
923930,-6528.0,-3530.0,-2251.0,0.106,0.669,0.457,-0.577
923947,-7208.0,-3212.0,-2121.0,0.108,0.67,0.455,-0.577
923964,-7396.0,-3152.0,-2189.0,0.111,0.671,0.452,-0.577
923981,-6274.0,-3706.0,-2393.0,0.113,0.673,0.449,-0.576
923998,-7108.0,-3358.0,-2097.0,0.116,0.675,0.446,-0.577
924014,-6856.0,-2982.0,-2185.0,0.119,0.676,0.442,-0.577
924031,-6534.0,-3542.0,-1983.0,0.123,0.678,0.438,-0.577
924057,-7436.0,-2754.0,-1969.0,0.127,0.679,0.433,-0.579
924073,-6820.0,-2770.0,-2251.0,0.132,0.68,0.428,-0.581
924090,-6494.0,-3012.0,-1885.0,0.137,0.681,0.422,-0.583
924106,-6616.0,-2640.0,-1973.0,0.143,0.681,0.414,-0.586
924123,-6852.0,-2670.0,-2415.0,0.15,0.682,0.406,-0.589
924140,-6614.0,-1996.0,-2065.0,0.157,0.683,0.398,-0.592
924156,-6048.0,-1296.0,-1707.0,0.165,0.684,0.389,-0.595
924173,-5506.0,-1938.0,-1803.0,0.175,0.683,0.379,-0.599
924190,-4668.0,-2680.0,-1705.0,0.183,0.683,0.369,-0.603
924217,-3614.0,96.0,-1537.0,0.191,0.682,0.361,-0.606
924233,-2224.0,-1356.0,-1417.0,0.199,0.681,0.355,-0.609
924250,-1990.0,-1228.0,-1337.0,0.204,0.681,0.349,-0.611
924266,-1566.0,-1296.0,-1391.0,0.207,0.681,0.346,-0.611
924283,-1890.0,-1428.0,-1267.0,0.207,0.683,0.345,-0.61
924300,-2402.0,-956.0,-643.0,0.205,0.686,0.345,-0.607
924316,-2432.0,-1400.0,-533.0,0.201,0.688,0.348,-0.605
924333,-2510.0,-1034.0,-809.0,0.195,0.689,0.352,-0.603
924359,-2836.0,-742.0,-1157.0,0.189,0.69,0.359,-0.599
924375,-4088.0,-1832.0,-905.0,0.181,0.691,0.368,-0.596
924391,-5294.0,-550.0,-1177.0,0.174,0.692,0.376,-0.591
924407,-5638.0,-712.0,-913.0,0.168,0.691,0.384,-0.589
924423,-6274.0,-2246.0,-1519.0,0.163,0.69,0.391,-0.587
924440,-7378.0,-2000.0,-2395.0,0.157,0.689,0.397,-0.586
924466,-6520.0,-904.0,-2001.0,0.152,0.687,0.405,-0.584
924483,-6194.0,-2004.0,-2091.0,0.148,0.686,0.412,-0.582
924499,-6634.0,-3956.0,-2683.0,0.143,0.685,0.418,-0.58
924516,-7190.0,-1514.0,-2421.0,0.136,0.685,0.425,-0.576
924533,-6174.0,-1310.0,-2541.0,0.132,0.686,0.432,-0.571
924549,-7244.0,-3338.0,-2363.0,0.128,0.687,0.438,-0.566
924565,-8038.0,-3168.0,-3197.0,0.124,0.689,0.442,-0.562
924582,-7536.0,-1752.0,-2929.0,0.12,0.69,0.446,-0.557
924599,-7238.0,-3000.0,-3205.0,0.118,0.692,0.451,-0.551
924616,-8516.0,-3690.0,-3199.0,0.115,0.694,0.454,-0.547
924642,-7852.0,-3562.0,-3675.0,0.114,0.696,0.455,-0.544
924658,-8784.0,-2220.0,-3265.0,0.112,0.697,0.456,-0.541
924674,-8134.0,-3874.0,-3327.0,0.112,0.698,0.456,-0.54
924690,-7940.0,-3554.0,-3613.0,0.112,0.699,0.455,-0.541
924707,-7920.0,-3106.0,-4175.0,0.111,0.699,0.453,-0.542
924723,-7880.0,-2920.0,-3711.0,0.111,0.699,0.453,-0.543
924739,-8294.0,-3192.0,-3017.0,0.111,0.698,0.452,-0.545
924766,-8850.0,-3640.0,-3347.0,0.112,0.696,0.449,-0.549
924783,-8704.0,-2366.0,-3483.0,0.114,0.695,0.445,-0.553
924800,-7844.0,-3710.0,-3081.0,0.116,0.693,0.442,-0.557
924816,-8610.0,-3032.0,-2875.0,0.118,0.691,0.438,-0.562
924832,-9034.0,-3158.0,-2599.0,0.121,0.689,0.433,-0.568
924848,-8206.0,-3224.0,-2703.0,0.124,0.687,0.428,-0.574
924865,-8356.0,-3184.0,-2501.0,0.127,0.685,0.423,-0.579
924882,-7868.0,-3416.0,-2773.0,0.129,0.684,0.418,-0.584
924908,-8352.0,-2928.0,-2383.0,0.131,0.683,0.413,-0.588
924924,-8206.0,-2806.0,-2087.0,0.132,0.682,0.409,-0.592
924940,-8608.0,-3218.0,-1867.0,0.135,0.681,0.405,-0.595
924956,-8688.0,-2880.0,-1837.0,0.137,0.681,0.4,-0.598
924973,-8472.0,-3152.0,-1615.0,0.139,0.681,0.395,-0.601
924989,-8466.0,-2636.0,-1697.0,0.141,0.681,0.39,-0.604
925006,-8344.0,-2776.0,-1567.0,0.143,0.68,0.385,-0.607
925023,-8212.0,-2706.0,-1431.0,0.145,0.68,0.38,-0.61
925049,-8300.0,-2282.0,-1269.0,0.147,0.68,0.376,-0.612
925066,-8458.0,-2572.0,-1019.0,0.148,0.679,0.371,-0.615
925082,-8906.0,-2666.0,-1121.0,0.15,0.679,0.368,-0.618
925098,-9878.0,-2972.0,-1385.0,0.15,0.679,0.364,-0.62
925115,-10182.0,-2680.0,-1555.0,0.15,0.679,0.361,-0.621
925131,-11382.0,-3756.0,-1407.0,0.149,0.68,0.36,-0.621
925148,-12152.0,-3214.0,-1503.0,0.148,0.68,0.361,-0.621
925164,-11374.0,-3834.0,-1431.0,0.146,0.68,0.362,-0.62
925191,-11312.0,-3572.0,-1433.0,0.145,0.68,0.364,-0.62
925207,-10720.0,-3502.0,-1575.0,0.143,0.68,0.367,-0.619
925223,-10316.0,-3122.0,-2007.0,0.14,0.68,0.37,-0.618
925239,-9868.0,-3196.0,-1621.0,0.137,0.679,0.374,-0.617
925256,-10190.0,-3242.0,-1965.0,0.133,0.679,0.378,-0.615
925273,-10136.0,-2972.0,-2145.0,0.13,0.679,0.382,-0.614
925289,-9478.0,-2986.0,-1851.0,0.128,0.679,0.386,-0.611
925306,-9282.0,-3608.0,-2057.0,0.125,0.679,0.39,-0.609
925323,-9504.0,-3132.0,-2239.0,0.122,0.68,0.394,-0.607
925350,-9760.0,-3130.0,-1505.0,0.119,0.68,0.398,-0.604
925366,-9248.0,-3696.0,-1487.0,0.118,0.68,0.4,-0.603
925382,-9600.0,-3176.0,-1687.0,0.118,0.679,0.402,-0.603
925399,-8402.0,-3554.0,-1685.0,0.118,0.678,0.402,-0.603
925416,-7872.0,-2562.0,-1837.0,0.117,0.678,0.403,-0.604
925432,-7844.0,-3058.0,-1585.0,0.118,0.677,0.403,-0.605
925448,-7848.0,-2902.0,-1683.0,0.118,0.676,0.402,-0.606
925465,-7330.0,-2982.0,-1769.0,0.12,0.675,0.402,-0.607
925492,-6456.0,-2884.0,-1991.0,0.12,0.675,0.401,-0.607
925508,-7260.0,-2558.0,-1665.0,0.12,0.676,0.402,-0.606
925524,-7494.0,-3018.0,-1295.0,0.121,0.676,0.402,-0.606
925540,-8070.0,-2408.0,-1309.0,0.123,0.676,0.401,-0.605
925556,-7152.0,-3214.0,-1587.0,0.125,0.677,0.4,-0.605
925572,-7166.0,-2824.0,-1361.0,0.127,0.678,0.399,-0.604
925589,-7306.0,-2882.0,-1337.0,0.128,0.679,0.397,-0.604
925615,-7694.0,-2630.0,-1533.0,0.13,0.68,0.395,-0.604
925631,-7136.0,-2666.0,-1389.0,0.133,0.681,0.392,-0.604
925647,-7070.0,-2500.0,-1505.0,0.136,0.682,0.389,-0.604
925663,-7370.0,-2840.0,-1965.0,0.138,0.683,0.386,-0.604
925680,-7406.0,-2416.0,-1763.0,0.14,0.685,0.383,-0.603
925697,-7194.0,-2516.0,-1401.0,0.143,0.687,0.38,-0.603
925714,-8628.0,-2494.0,-1737.0,0.146,0.689,0.375,-0.603
925731,-8316.0,-2796.0,-1295.0,0.151,0.69,0.369,-0.604
925748,-6760.0,-1862.0,-1395.0,0.156,0.692,0.362,-0.605
925775,-6562.0,-1520.0,-1887.0,0.161,0.692,0.353,-0.608
925792,-6626.0,-1394.0,-1153.0,0.168,0.692,0.345,-0.611
925808,-5608.0,-992.0,-1161.0,0.175,0.692,0.337,-0.613
925824,-4020.0,-600.0,-1499.0,0.184,0.692,0.329,-0.616
925840,-3100.0,-1332.0,-513.0,0.192,0.69,0.321,-0.62
925856,-2494.0,-688.0,-537.0,0.199,0.688,0.315,-0.623
925872,-1368.0,-866.0,-811.0,0.205,0.685,0.312,-0.625
925899,-1458.0,-986.0,-1299.0,0.206,0.684,0.312,-0.626
925915,-1914.0,-590.0,-549.0,0.205,0.685,0.313,-0.625
925932,-1226.0,-956.0,-467.0,0.202,0.686,0.317,-0.623
925948,-976.0,-1026.0,-973.0,0.196,0.688,0.321,-0.621
925965,-3364.0,-306.0,-1229.0,0.189,0.691,0.326,-0.617
925981,-3490.0,-500.0,-1007.0,0.181,0.693,0.334,-0.612
925998,-4574.0,-418.0,-419.0,0.173,0.695,0.343,-0.608
926014,-4926.0,-642.0,-1935.0,0.165,0.696,0.35,-0.605
926040,-6224.0,-1700.0,-2647.0,0.158,0.697,0.358,-0.601
926057,-7498.0,194.0,-1997.0,0.15,0.699,0.367,-0.595
926073,-7798.0,-2556.0,-1691.0,0.145,0.699,0.375,-0.592
926090,-8422.0,-2410.0,-2085.0,0.14,0.696,0.381,-0.592
926106,-8342.0,-3346.0,-2941.0,0.135,0.694,0.388,-0.591
926122,-7652.0,-1102.0,-2375.0,0.132,0.692,0.395,-0.59
926139,-7120.0,-4576.0,-2497.0,0.127,0.689,0.402,-0.589
926156,-10610.0,-3314.0,-2171.0,0.123,0.687,0.406,-0.59
926182,-8202.0,-1824.0,-2003.0,0.123,0.684,0.408,-0.592
926199,-7360.0,-3796.0,-2277.0,0.121,0.681,0.41,-0.595
926215,-8018.0,-3330.0,-2907.0,0.119,0.678,0.411,-0.597
926231,-7744.0,-2938.0,-2167.0,0.119,0.676,0.413,-0.599
926248,-7332.0,-3126.0,-1835.0,0.118,0.674,0.414,-0.6
926265,-8270.0,-3368.0,-2053.0,0.117,0.672,0.415,-0.603
926282,-8452.0,-2934.0,-2055.0,0.117,0.67,0.414,-0.605
926299,-6946.0,-3474.0,-2291.0,0.116,0.669,0.414,-0.606
926316,-7334.0,-3182.0,-1991.0,0.115,0.667,0.415,-0.608
926332,-9280.0,-3058.0,-1631.0,0.114,0.666,0.415,-0.609
926359,-8176.0,-3378.0,-1767.0,0.114,0.665,0.414,-0.611
926376,-7404.0,-3162.0,-1699.0,0.115,0.664,0.413,-0.613
926392,-8306.0,-3030.0,-1911.0,0.115,0.663,0.411,-0.614
926409,-7624.0,-3616.0,-1731.0,0.115,0.663,0.411,-0.615
926425,-8070.0,-3060.0,-1143.0,0.115,0.663,0.41,-0.616
926442,-7868.0,-3770.0,-1275.0,0.115,0.661,0.409,-0.618
926458,-8610.0,-3288.0,-1573.0,0.115,0.66,0.407,-0.621
926475,-8188.0,-3488.0,-1285.0,0.115,0.659,0.406,-0.623
926492,-8508.0,-3438.0,-1067.0,0.116,0.657,0.404,-0.626
926509,-8566.0,-3870.0,-1085.0,0.117,0.655,0.401,-0.629
926535,-8278.0,-3292.0,-1027.0,0.118,0.653,0.398,-0.633
926552,-8388.0,-3716.0,-847.0,0.119,0.651,0.395,-0.637
926569,-8454.0,-3454.0,-679.0,0.119,0.649,0.393,-0.64
926586,-8554.0,-3318.0,-701.0,0.12,0.647,0.39,-0.644
926603,-9114.0,-3530.0,-503.0,0.12,0.644,0.388,-0.648
926620,-8756.0,-3840.0,-665.0,0.121,0.642,0.386,-0.651
926637,-8940.0,-4164.0,-631.0,0.122,0.64,0.384,-0.654
926654,-9858.0,-4256.0,-741.0,0.122,0.639,0.383,-0.656
926671,-10356.0,-4316.0,-691.0,0.122,0.639,0.381,-0.657
926688,-10756.0,-4962.0,-771.0,0.122,0.639,0.381,-0.657
926705,-11176.0,-4958.0,-1013.0,0.121,0.64,0.381,-0.656
926722,-11588.0,-4926.0,-929.0,0.12,0.641,0.382,-0.655
926739,-11878.0,-5168.0,-673.0,0.119,0.641,0.384,-0.654
926765,-11536.0,-4420.0,-963.0,0.118,0.641,0.387,-0.652
926781,-10600.0,-7456.0,197.0,0.117,0.641,0.39,-0.651
926798,-10298.0,-3542.0,-1187.0,0.115,0.641,0.393,-0.649
926815,-9974.0,-4706.0,-975.0,0.113,0.641,0.397,-0.647
926831,-9800.0,-4316.0,-859.0,0.112,0.641,0.4,-0.645
926847,-9164.0,-4748.0,-1149.0,0.11,0.642,0.404,-0.643
926864,-9408.0,-4082.0,-1217.0,0.108,0.643,0.407,-0.64
926890,-8872.0,-4036.0,-1189.0,0.106,0.643,0.411,-0.637
926906,-9416.0,-3734.0,-837.0,0.106,0.644,0.414,-0.635
926922,-8270.0,-4146.0,-1329.0,0.106,0.644,0.416,-0.633
926938,-8020.0,-3380.0,-1425.0,0.105,0.644,0.418,-0.632
926955,-7922.0,-3572.0,-1285.0,0.104,0.644,0.42,-0.631
926972,-8230.0,-3432.0,-1171.0,0.103,0.644,0.421,-0.631
926989,-7776.0,-3242.0,-1399.0,0.104,0.643,0.423,-0.63
927005,-7194.0,-3660.0,-1175.0,0.104,0.643,0.423,-0.63
927032,-6926.0,-3498.0,-1305.0,0.105,0.642,0.423,-0.63
927048,-7114.0,-3684.0,-1375.0,0.106,0.642,0.423,-0.63
927065,-6932.0,-2768.0,-1213.0,0.107,0.642,0.424,-0.63
927082,-6534.0,-3660.0,-851.0,0.109,0.642,0.425,-0.629
927098,-6744.0,-3394.0,-1079.0,0.111,0.642,0.425,-0.629
927115,-7010.0,-3684.0,-1109.0,0.113,0.642,0.424,-0.629
927131,-6824.0,-3178.0,-835.0,0.116,0.643,0.423,-0.628
927147,-6958.0,-3294.0,-915.0,0.118,0.643,0.421,-0.629
927164,-7806.0,-3232.0,-1117.0,0.122,0.644,0.418,-0.629
927191,-7128.0,-3330.0,-993.0,0.125,0.644,0.416,-0.63
927207,-7298.0,-3114.0,-993.0,0.129,0.644,0.413,-0.631
927224,-7548.0,-2900.0,-1005.0,0.133,0.644,0.409,-0.632
927240,-6410.0,-3002.0,-951.0,0.137,0.644,0.405,-0.634
927256,-6516.0,-2264.0,-1047.0,0.14,0.645,0.401,-0.635
927273,-5742.0,-1804.0,-1229.0,0.144,0.646,0.397,-0.636
927289,-5450.0,-2252.0,-1211.0,0.149,0.648,0.392,-0.636
927315,-5502.0,-1604.0,-1245.0,0.153,0.65,0.387,-0.636
927332,-3978.0,-1978.0,-597.0,0.157,0.652,0.383,-0.636
927349,-4328.0,-3114.0,-877.0,0.159,0.654,0.38,-0.635
927366,-5210.0,-848.0,-543.0,0.162,0.655,0.376,-0.634
927383,-3820.0,-1312.0,-417.0,0.167,0.656,0.373,-0.635
927399,-3510.0,-1718.0,-1065.0,0.17,0.657,0.369,-0.635
927415,-2780.0,-1212.0,-819.0,0.171,0.657,0.368,-0.635
927431,-2156.0,-1752.0,-811.0,0.171,0.657,0.369,-0.635
927448,-2746.0,-1308.0,-727.0,0.168,0.657,0.371,-0.634
927465,-2988.0,-1210.0,-217.0,0.165,0.657,0.375,-0.633
927492,-1988.0,-1124.0,-317.0,0.162,0.657,0.38,-0.631
927509,-2054.0,-1096.0,-1041.0,0.158,0.657,0.385,-0.628
927525,-3754.0,-1370.0,-777.0,0.153,0.658,0.39,-0.626
927542,-4452.0,-2632.0,-823.0,0.149,0.659,0.396,-0.622
927559,-5172.0,-1672.0,-1139.0,0.145,0.659,0.402,-0.619
927575,-6216.0,-2754.0,-1873.0,0.14,0.659,0.407,-0.617
927591,-7740.0,-2544.0,-1785.0,0.137,0.658,0.411,-0.616
927608,-7854.0,-2632.0,-2053.0,0.134,0.657,0.416,-0.614
927624,-8140.0,-4036.0,-2141.0,0.132,0.656,0.42,-0.614
927651,-8390.0,-3280.0,-2013.0,0.13,0.654,0.423,-0.614
927667,-9372.0,-3348.0,-1749.0,0.129,0.651,0.425,-0.616
927683,-8050.0,-3604.0,-2007.0,0.128,0.649,0.426,-0.618
927699,-7664.0,-3996.0,-2543.0,0.126,0.647,0.428,-0.619
927716,-9312.0,-2300.0,-2671.0,0.125,0.644,0.429,-0.62
927732,-9376.0,-2578.0,-1767.0,0.124,0.642,0.43,-0.623
927749,-7416.0,-4760.0,-1929.0,0.124,0.639,0.43,-0.626
927775,-8596.0,-3624.0,-1695.0,0.124,0.637,0.429,-0.629
927791,-7786.0,-3192.0,-1405.0,0.124,0.634,0.428,-0.632
927807,-8540.0,-3892.0,-951.0,0.125,0.631,0.426,-0.636
927824,-8170.0,-3236.0,-1363.0,0.126,0.628,0.425,-0.639
927841,-7674.0,-3814.0,-709.0,0.127,0.626,0.423,-0.643
927857,-8104.0,-3760.0,-951.0,0.128,0.623,0.421,-0.647
927874,-7636.0,-2658.0,-1091.0,0.129,0.621,0.419,-0.65
927890,-7816.0,-3172.0,-605.0,0.13,0.619,0.417,-0.653
927916,-7528.0,-3460.0,-739.0,0.131,0.617,0.416,-0.655
927932,-8100.0,-3308.0,-291.0,0.132,0.616,0.414,-0.657
927948,-8278.0,-2934.0,-247.0,0.132,0.614,0.413,-0.66
927964,-7866.0,-2914.0,-741.0,0.134,0.613,0.411,-0.662
927981,-7846.0,-3582.0,233.0,0.135,0.611,0.409,-0.664
927997,-7766.0,-3732.0,179.0,0.136,0.61,0.406,-0.666
928014,-7590.0,-3198.0,-185.0,0.137,0.609,0.404,-0.669
928041,-7792.0,-3510.0,117.0,0.138,0.608,0.401,-0.67
928057,-8124.0,-3474.0,399.0,0.14,0.608,0.399,-0.672
928073,-7992.0,-3530.0,285.0,0.141,0.607,0.396,-0.674
928089,-8394.0,-3266.0,353.0,0.144,0.606,0.393,-0.676
928105,-8462.0,-3170.0,245.0,0.146,0.606,0.39,-0.678
928121,-8536.0,-3636.0,461.0,0.148,0.606,0.387,-0.679
928138,-8930.0,-3312.0,473.0,0.151,0.606,0.384,-0.68
928164,-9324.0,-3710.0,301.0,0.153,0.605,0.382,-0.682
928180,-11608.0,-4958.0,657.0,0.155,0.605,0.38,-0.683
928197,-10034.0,-4240.0,177.0,0.156,0.605,0.378,-0.683
928214,-12032.0,-5454.0,337.0,0.157,0.605,0.379,-0.682
928230,-12600.0,-5178.0,735.0,0.157,0.606,0.38,-0.681
928247,-11392.0,-4742.0,283.0,0.156,0.606,0.381,-0.68
928264,-10776.0,-4814.0,291.0,0.156,0.606,0.384,-0.679
928281,-10180.0,-4888.0,433.0,0.154,0.606,0.387,-0.678
928298,-9826.0,-4756.0,-51.0,0.152,0.606,0.391,-0.676
928324,-8940.0,-3958.0,111.0,0.149,0.607,0.395,-0.673
928341,-10202.0,-4318.0,485.0,0.147,0.608,0.4,-0.67
928357,-9172.0,-4870.0,-199.0,0.145,0.609,0.405,-0.667
928374,-9066.0,-3778.0,-117.0,0.143,0.61,0.41,-0.663
928390,-9284.0,-4922.0,-97.0,0.141,0.611,0.414,-0.659
928407,-9506.0,-4408.0,-425.0,0.139,0.613,0.419,-0.655
928423,-8884.0,-4078.0,-499.0,0.138,0.614,0.423,-0.651
928439,-9114.0,-4832.0,-401.0,0.137,0.616,0.427,-0.647
928465,-8998.0,-4036.0,-985.0,0.135,0.618,0.431,-0.643
928481,-8226.0,-4074.0,-1113.0,0.134,0.62,0.435,-0.639
928498,-8506.0,-4076.0,-835.0,0.134,0.622,0.438,-0.635
928514,-8506.0,-4194.0,-1241.0,0.133,0.625,0.441,-0.63
928531,-7962.0,-3814.0,-1211.0,0.133,0.627,0.443,-0.627
928547,-8238.0,-3588.0,-947.0,0.133,0.629,0.445,-0.623
928563,-7964.0,-3986.0,-1153.0,0.133,0.631,0.446,-0.621
928589,-7344.0,-3406.0,-1215.0,0.133,0.633,0.447,-0.619
928605,-7940.0,-3260.0,-1297.0,0.134,0.634,0.446,-0.617
928621,-7780.0,-3296.0,-1053.0,0.136,0.635,0.445,-0.617
928638,-6536.0,-2994.0,-1819.0,0.138,0.636,0.443,-0.617
928654,-6546.0,-2926.0,-1719.0,0.139,0.637,0.441,-0.617
928671,-6652.0,-3506.0,-1599.0,0.14,0.638,0.44,-0.617
928688,-7078.0,-3084.0,-1727.0,0.141,0.639,0.437,-0.617
928705,-8312.0,-1482.0,-1289.0,0.143,0.641,0.435,-0.617
928731,-7564.0,-2934.0,-1395.0,0.147,0.642,0.43,-0.618
928748,-7614.0,-2842.0,-1727.0,0.15,0.643,0.425,-0.619
928765,-7652.0,-2138.0,-1505.0,0.155,0.644,0.42,-0.621
928782,-7160.0,-1704.0,-1387.0,0.159,0.645,0.414,-0.622
928798,-6640.0,-2528.0,-1739.0,0.165,0.647,0.407,-0.623
928814,-6888.0,-1588.0,-1433.0,0.17,0.649,0.399,-0.625
928831,-6792.0,-2428.0,-883.0,0.177,0.651,0.391,-0.626
928848,-7300.0,234.0,-783.0,0.186,0.652,0.382,-0.628
928865,-5760.0,-634.0,-327.0,0.199,0.651,0.373,-0.631
928881,-4694.0,-2380.0,-877.0,0.211,0.65,0.363,-0.633
928907,-3530.0,-1456.0,-1273.0,0.221,0.65,0.353,-0.635
928924,-2680.0,-724.0,-973.0,0.228,0.651,0.345,-0.636
928941,-2522.0,-1504.0,-795.0,0.232,0.654,0.338,-0.636
928958,-2294.0,-1332.0,-691.0,0.234,0.657,0.333,-0.635
928974,-2254.0,-2210.0,-293.0,0.233,0.66,0.332,-0.633
928991,-2340.0,-2218.0,-37.0,0.23,0.662,0.333,-0.631
929008,-2072.0,-1788.0,-289.0,0.225,0.664,0.336,-0.629
929025,-2124.0,-2698.0,-579.0,0.217,0.666,0.342,-0.627
929042,-3150.0,-378.0,-667.0,0.206,0.668,0.349,-0.624
929058,-4214.0,-1396.0,-261.0,0.197,0.669,0.358,-0.621
929084,-5214.0,-30.0,-71.0,0.189,0.669,0.368,-0.618
929101,-4906.0,-3046.0,-1047.0,0.181,0.668,0.376,-0.616
929118,-6238.0,-710.0,-1081.0,0.174,0.667,0.383,-0.614
929135,-6326.0,-444.0,-1071.0,0.17,0.666,0.391,-0.613
929152,-4930.0,-5874.0,-2467.0,0.166,0.664,0.399,-0.61
929169,-7344.0,-548.0,-2245.0,0.157,0.665,0.406,-0.606
929186,-7636.0,-1910.0,-1247.0,0.153,0.666,0.413,-0.602
929203,-7972.0,-2914.0,-1611.0,0.15,0.666,0.418,-0.599
929220,-7418.0,-3860.0,-2815.0,0.146,0.667,0.422,-0.596
929237,-7608.0,-1962.0,-1589.0,0.145,0.668,0.427,-0.593
929254,-6928.0,-3464.0,-2013.0,0.141,0.668,0.432,-0.589
929271,-8512.0,-3260.0,-1567.0,0.139,0.668,0.435,-0.587
929297,-7874.0,-3228.0,-2177.0,0.137,0.668,0.438,-0.585
929314,-8086.0,-2106.0,-2111.0,0.136,0.669,0.441,-0.583
929331,-7080.0,-4116.0,-2395.0,0.135,0.669,0.443,-0.582
929347,-8432.0,-3132.0,-2185.0,0.134,0.669,0.444,-0.581
929364,-7808.0,-3192.0,-2307.0,0.133,0.669,0.445,-0.58
929380,-7180.0,-3484.0,-2347.0,0.133,0.669,0.447,-0.579
929396,-8462.0,-3128.0,-1831.0,0.132,0.669,0.448,-0.579
929413,-7386.0,-3666.0,-2675.0,0.131,0.668,0.448,-0.579
929430,-8324.0,-2738.0,-2579.0,0.131,0.668,0.447,-0.58
929457,-7988.0,-3526.0,-2355.0,0.131,0.668,0.447,-0.58
929474,-8782.0,-3982.0,-2071.0,0.132,0.667,0.446,-0.581
929491,-8412.0,-3198.0,-2523.0,0.133,0.667,0.444,-0.583
929508,-7932.0,-3720.0,-2457.0,0.134,0.666,0.442,-0.585
929524,-8786.0,-3174.0,-2055.0,0.134,0.666,0.44,-0.587
929540,-8142.0,-3584.0,-2455.0,0.136,0.666,0.438,-0.589
929556,-8454.0,-3644.0,-2103.0,0.137,0.665,0.435,-0.591
929572,-8694.0,-3066.0,-2043.0,0.138,0.665,0.432,-0.594
929598,-7886.0,-2690.0,-2631.0,0.141,0.665,0.428,-0.596
929614,-8212.0,-2922.0,-2191.0,0.143,0.665,0.425,-0.598
929630,-8802.0,-3504.0,-1367.0,0.146,0.664,0.422,-0.6
929647,-8210.0,-3064.0,-1877.0,0.148,0.663,0.418,-0.603
929664,-8244.0,-3084.0,-1663.0,0.15,0.662,0.416,-0.606
929681,-8398.0,-3098.0,-1251.0,0.152,0.661,0.413,-0.608
929698,-8802.0,-2932.0,-1399.0,0.153,0.659,0.411,-0.611
929714,-8752.0,-3552.0,-1231.0,0.154,0.658,0.408,-0.613
929740,-9266.0,-3084.0,-1097.0,0.155,0.657,0.406,-0.616
929756,-9642.0,-4212.0,-1405.0,0.157,0.656,0.404,-0.619
929772,-11596.0,-4888.0,-1445.0,0.158,0.655,0.401,-0.62
929788,-11054.0,-4176.0,-1369.0,0.158,0.655,0.4,-0.621
929804,-12302.0,-5688.0,-1419.0,0.159,0.654,0.4,-0.622
929820,-12820.0,-4884.0,-1139.0,0.159,0.653,0.401,-0.623
929837,-10890.0,-5072.0,-1753.0,0.158,0.652,0.402,-0.623
929864,-10628.0,-4360.0,-1635.0,0.157,0.651,0.404,-0.623
929881,-10852.0,-4656.0,-1319.0,0.156,0.65,0.406,-0.623
929897,-9624.0,-3862.0,-1449.0,0.154,0.648,0.408,-0.624
929913,-9950.0,-4080.0,-1349.0,0.153,0.646,0.411,-0.624
929929,-9684.0,-4146.0,-875.0,0.152,0.644,0.413,-0.626
929946,-8182.0,-3384.0,-1523.0,0.15,0.642,0.416,-0.626
929963,-8328.0,-3546.0,-1149.0,0.148,0.641,0.418,-0.627
929980,-8402.0,-3340.0,-913.0,0.147,0.64,0.421,-0.626
929997,-7954.0,-2970.0,-1139.0,0.146,0.639,0.423,-0.626
930014,-6848.0,-3602.0,-1281.0,0.144,0.639,0.425,-0.625
930040,-7964.0,-2982.0,-929.0,0.143,0.64,0.428,-0.623
930056,-7724.0,-2960.0,-1211.0,0.142,0.64,0.43,-0.62
930072,-7922.0,-3544.0,-999.0,0.141,0.641,0.432,-0.618
930088,-7576.0,-3010.0,-1427.0,0.14,0.643,0.434,-0.615
930105,-7734.0,-2942.0,-1471.0,0.14,0.645,0.436,-0.612
930121,-8172.0,-3154.0,-1207.0,0.139,0.647,0.437,-0.609
930147,-8328.0,-3312.0,-1441.0,0.139,0.648,0.439,-0.606
930164,-8602.0,-3062.0,-1405.0,0.14,0.65,0.44,-0.604
930181,-7584.0,-3630.0,-1555.0,0.141,0.652,0.44,-0.602
930197,-7906.0,-3606.0,-1667.0,0.14,0.653,0.44,-0.6
930214,-8130.0,-3510.0,-2009.0,0.139,0.654,0.441,-0.599
930230,-8498.0,-3024.0,-1447.0,0.139,0.654,0.441,-0.598
930247,-8700.0,-3056.0,-1609.0,0.14,0.654,0.44,-0.599
930263,-8276.0,-3726.0,-2025.0,0.142,0.654,0.438,-0.6
930289,-7838.0,-3244.0,-1677.0,0.143,0.653,0.437,-0.602
930305,-7728.0,-3186.0,-1775.0,0.144,0.652,0.434,-0.605
930321,-8158.0,-2814.0,-1977.0,0.147,0.651,0.431,-0.607
930337,-8124.0,-2580.0,-1163.0,0.151,0.65,0.427,-0.61
930353,-7958.0,-4376.0,-1171.0,0.157,0.649,0.42,-0.614
930370,-9038.0,-2948.0,-845.0,0.162,0.648,0.412,-0.62
930387,-6420.0,-2228.0,-2405.0,0.168,0.645,0.404,-0.626
930413,-6750.0,-2330.0,-2071.0,0.175,0.643,0.397,-0.631
930430,-8212.0,-1330.0,-1411.0,0.182,0.641,0.39,-0.635
930446,-7214.0,-2582.0,-953.0,0.192,0.639,0.384,-0.638
930462,-7064.0,-3220.0,-1095.0,0.201,0.637,0.378,-0.642
930479,-7104.0,-562.0,-967.0,0.209,0.635,0.37,-0.645
930496,-6424.0,-1538.0,-385.0,0.22,0.634,0.363,-0.647
930513,-5168.0,46.0,-445.0,0.232,0.633,0.355,-0.648
930530,-4314.0,-1620.0,191.0,0.244,0.633,0.346,-0.648
930547,-3564.0,-2778.0,105.0,0.253,0.634,0.338,-0.648
930563,-3362.0,-718.0,409.0,0.259,0.637,0.329,-0.647
930580,-2964.0,-448.0,523.0,0.265,0.64,0.323,-0.645
930607,-3112.0,-3596.0,369.0,0.267,0.643,0.318,-0.643
930623,-4244.0,-1704.0,497.0,0.267,0.647,0.313,-0.642
930639,-4540.0,290.0,1255.0,0.267,0.649,0.312,-0.641
930655,-4842.0,-1728.0,989.0,0.267,0.65,0.312,-0.639
930671,-5472.0,-1302.0,423.0,0.265,0.65,0.314,-0.64
930687,-6176.0,-1902.0,257.0,0.263,0.65,0.316,-0.639
930713,-8640.0,-560.0,663.0,0.26,0.65,0.319,-0.639
930730,-8970.0,204.0,285.0,0.259,0.648,0.322,-0.639
930746,-8946.0,-1466.0,43.0,0.258,0.647,0.325,-0.639
930763,-9158.0,-1666.0,-755.0,0.257,0.647,0.327,-0.639
930780,-9540.0,-376.0,-231.0,0.256,0.648,0.328,-0.638
930796,-9130.0,-1022.0,-169.0,0.255,0.649,0.329,-0.637
930813,-8448.0,-614.0,-915.0,0.254,0.65,0.33,-0.636
930830,-7716.0,-1592.0,-769.0,0.253,0.652,0.33,-0.634
930847,-7764.0,-420.0,-327.0,0.25,0.655,0.33,-0.631
930873,-6988.0,-1022.0,-783.0,0.248,0.658,0.331,-0.629
930890,-6412.0,-1266.0,-531.0,0.245,0.66,0.332,-0.627
930906,-6172.0,-1282.0,-173.0,0.242,0.662,0.335,-0.626
930922,-5546.0,-1206.0,-395.0,0.237,0.662,0.339,-0.625
930938,-4622.0,-1048.0,-271.0,0.232,0.662,0.344,-0.625
930954,-3718.0,-1220.0,-613.0,0.226,0.661,0.35,-0.624
930970,-3270.0,-3032.0,-995.0,0.216,0.662,0.356,-0.623
930996,-4530.0,760.0,-559.0,0.206,0.662,0.363,-0.622
931013,-5006.0,-344.0,-185.0,0.198,0.662,0.371,-0.62
931030,-4568.0,-1660.0,-1063.0,0.191,0.662,0.378,-0.618
931046,-4562.0,-2286.0,-1451.0,0.182,0.663,0.386,-0.615
931062,-5228.0,792.0,-1315.0,0.176,0.663,0.393,-0.612
931079,-5962.0,-2026.0,-1163.0,0.171,0.663,0.401,-0.608
931095,-6318.0,-4206.0,-2305.0,0.167,0.664,0.408,-0.604
931112,-7688.0,242.0,-1693.0,0.162,0.664,0.416,-0.6
931129,-6040.0,-4436.0,-2175.0,0.158,0.664,0.424,-0.595
931155,-9640.0,-3190.0,-1689.0,0.154,0.663,0.43,-0.593
931171,-10032.0,-2426.0,-1463.0,0.152,0.661,0.433,-0.593
931187,-8040.0,-3196.0,-2121.0,0.152,0.659,0.435,-0.594
931204,-6658.0,-4462.0,-3059.0,0.149,0.658,0.439,-0.594
931220,-9192.0,-3020.0,-1585.0,0.147,0.656,0.442,-0.594
931237,-8836.0,-3136.0,-1521.0,0.146,0.654,0.444,-0.595
931263,-8344.0,-2376.0,-2123.0,0.146,0.652,0.444,-0.597
931280,-7498.0,-3496.0,-2157.0,0.147,0.65,0.444,-0.599
931297,-7388.0,-4420.0,-2293.0,0.145,0.649,0.445,-0.6
931313,-8642.0,-2772.0,-1865.0,0.144,0.648,0.447,-0.6
931329,-8772.0,-3186.0,-1451.0,0.142,0.647,0.447,-0.601
931345,-9076.0,-3356.0,-1371.0,0.142,0.646,0.447,-0.602
931362,-8836.0,-3334.0,-1553.0,0.142,0.646,0.445,-0.604
931379,-7976.0,-4024.0,-1489.0,0.142,0.645,0.443,-0.606
931396,-7790.0,-3984.0,-1833.0,0.14,0.646,0.441,-0.607
931413,-8368.0,-3580.0,-1829.0,0.138,0.646,0.439,-0.608
931439,-9140.0,-3300.0,-1473.0,0.136,0.647,0.438,-0.609
931455,-8996.0,-3924.0,-1339.0,0.136,0.648,0.436,-0.61
931471,-8266.0,-3504.0,-1689.0,0.136,0.648,0.434,-0.611
931487,-8038.0,-4200.0,-1809.0,0.136,0.65,0.432,-0.611
931503,-8426.0,-3718.0,-1585.0,0.136,0.651,0.43,-0.611
931520,-8646.0,-4186.0,-1137.0,0.136,0.651,0.429,-0.611
931536,-8986.0,-3816.0,-1253.0,0.136,0.651,0.428,-0.612
931563,-8668.0,-3572.0,-1191.0,0.137,0.651,0.426,-0.613
931579,-8514.0,-3866.0,-985.0,0.139,0.651,0.423,-0.615
931596,-8174.0,-3984.0,-1145.0,0.141,0.651,0.419,-0.617
931613,-7908.0,-2824.0,-1497.0,0.142,0.65,0.417,-0.619
931630,-7894.0,-3328.0,-1155.0,0.143,0.65,0.415,-0.621
931646,-8324.0,-3108.0,-999.0,0.145,0.649,0.412,-0.623
931663,-8250.0,-3286.0,-875.0,0.147,0.648,0.41,-0.625
931680,-8288.0,-3462.0,-707.0,0.149,0.647,0.407,-0.627
931696,-8090.0,-3706.0,-975.0,0.15,0.646,0.405,-0.629
931713,-9144.0,-3516.0,-923.0,0.151,0.646,0.404,-0.63
931740,-9878.0,-4262.0,-513.0,0.152,0.646,0.403,-0.631
931756,-10058.0,-4512.0,-711.0,0.152,0.645,0.402,-0.632
931772,-10626.0,-4690.0,-1125.0,0.152,0.644,0.401,-0.633
931788,-10804.0,-4954.0,-1067.0,0.152,0.644,0.402,-0.632
931804,-10908.0,-4304.0,-1007.0,0.15,0.644,0.404,-0.632
931820,-10814.0,-4550.0,-895.0,0.15,0.643,0.406,-0.631
931846,-10638.0,-4284.0,-1003.0,0.149,0.642,0.409,-0.631
931863,-9778.0,-4876.0,-1427.0,0.148,0.642,0.412,-0.629
931880,-9046.0,-4064.0,-1579.0,0.146,0.642,0.416,-0.627
931897,-10064.0,-4036.0,-1359.0,0.145,0.642,0.42,-0.625
931914,-9850.0,-3984.0,-1495.0,0.143,0.643,0.424,-0.622
931931,-9612.0,-4058.0,-1223.0,0.142,0.643,0.428,-0.619
931948,-8958.0,-4594.0,-1169.0,0.141,0.643,0.431,-0.617
931965,-9144.0,-3884.0,-1161.0,0.14,0.643,0.435,-0.615
931982,-8578.0,-3756.0,-1371.0,0.138,0.642,0.437,-0.614
931999,-9016.0,-3498.0,-1059.0,0.138,0.642,0.44,-0.612
932016,-8804.0,-3174.0,-1343.0,0.139,0.643,0.441,-0.61
932033,-8292.0,-3716.0,-1313.0,0.141,0.645,0.441,-0.608
932059,-7256.0,-3340.0,-1871.0,0.141,0.646,0.441,-0.606
932076,-6868.0,-3558.0,-2007.0,0.141,0.648,0.442,-0.603
932093,-7634.0,-3212.0,-1841.0,0.141,0.651,0.444,-0.6
932110,-8288.0,-2974.0,-1409.0,0.14,0.652,0.446,-0.597
932126,-7854.0,-3004.0,-1371.0,0.141,0.654,0.447,-0.594
932143,-7718.0,-3334.0,-1413.0,0.143,0.654,0.447,-0.593
932160,-7050.0,-3560.0,-1567.0,0.143,0.655,0.447,-0.592
932177,-7172.0,-3194.0,-957.0,0.143,0.655,0.447,-0.592
932194,-7610.0,-2466.0,-1269.0,0.144,0.654,0.446,-0.594
932211,-6932.0,-3330.0,-1711.0,0.146,0.654,0.445,-0.595
932228,-6122.0,-3038.0,-1563.0,0.147,0.653,0.443,-0.596
932245,-6942.0,-2872.0,-1709.0,0.147,0.653,0.441,-0.598
932262,-7860.0,-2434.0,-1691.0,0.149,0.653,0.439,-0.598
932289,-7326.0,-3242.0,-1343.0,0.151,0.653,0.437,-0.6
932306,-7030.0,-3298.0,-1411.0,0.154,0.654,0.433,-0.601
932323,-7756.0,-2782.0,-1877.0,0.157,0.654,0.429,-0.603
932340,-7282.0,-2248.0,-1853.0,0.159,0.655,0.425,-0.604
932357,-6248.0,-2956.0,-1725.0,0.163,0.656,0.421,-0.605
932373,-7574.0,-2220.0,-1615.0,0.166,0.657,0.416,-0.606
932390,-7616.0,-2772.0,-1671.0,0.168,0.66,0.41,-0.607
932407,-7728.0,-166.0,-1725.0,0.174,0.662,0.403,-0.608
932424,-7444.0,-2320.0,-1375.0,0.182,0.662,0.396,-0.61
932441,-6690.0,-3106.0,-1919.0,0.188,0.663,0.387,-0.613
932457,-7070.0,-1414.0,-1131.0,0.195,0.662,0.379,-0.616
932483,-5726.0,-1208.0,-1099.0,0.203,0.66,0.371,-0.621
932499,-5014.0,-796.0,-943.0,0.213,0.657,0.363,-0.625
932515,-3672.0,-354.0,-397.0,0.223,0.654,0.356,-0.629
932532,-1828.0,-1548.0,-829.0,0.232,0.651,0.351,-0.632
932549,-1816.0,-3268.0,-1051.0,0.235,0.65,0.347,-0.634
932566,-1612.0,-1156.0,-631.0,0.233,0.651,0.345,-0.634
932583,-1518.0,-1364.0,-293.0,0.23,0.653,0.347,-0.633
932599,-1486.0,-3062.0,-183.0,0.223,0.655,0.35,-0.632
932616,-2014.0,-4146.0,-435.0,0.213,0.657,0.356,-0.629
932642,-3494.0,-1666.0,-219.0,0.197,0.662,0.361,-0.627
932659,-5036.0,4042.0,29.0,0.186,0.663,0.37,-0.623
932676,-4370.0,-1790.0,573.0,0.181,0.662,0.38,-0.62
932692,-4692.0,-5338.0,-829.0,0.173,0.662,0.387,-0.618
932708,-6018.0,8.0,-793.0,0.166,0.662,0.395,-0.615
932725,-5454.0,-2134.0,-479.0,0.159,0.661,0.403,-0.612
932741,-6730.0,-4440.0,-1099.0,0.154,0.661,0.41,-0.61
932758,-7440.0,-1386.0,-1223.0,0.148,0.66,0.415,-0.608
932784,-7098.0,-2558.0,-461.0,0.145,0.659,0.42,-0.607
932800,-6938.0,-3466.0,-1277.0,0.142,0.658,0.424,-0.606
932816,-6396.0,-4316.0,-2357.0,0.138,0.657,0.429,-0.605
932832,-7984.0,-2266.0,-1387.0,0.134,0.656,0.435,-0.602
932849,-8152.0,-3310.0,-1101.0,0.132,0.655,0.44,-0.6
932865,-9012.0,-4408.0,-1879.0,0.13,0.655,0.443,-0.599
932882,-8090.0,-2894.0,-2029.0,0.128,0.655,0.445,-0.597
932899,-7010.0,-3996.0,-1943.0,0.126,0.656,0.447,-0.595
932925,-9398.0,-3544.0,-1601.0,0.125,0.657,0.449,-0.593
932942,-7492.0,-4520.0,-2229.0,0.124,0.658,0.45,-0.591
932959,-8286.0,-3172.0,-1685.0,0.123,0.659,0.451,-0.59
932975,-7956.0,-3814.0,-2051.0,0.122,0.661,0.451,-0.588
932992,-8102.0,-4444.0,-1997.0,0.122,0.662,0.451,-0.586
933009,-8448.0,-3036.0,-1987.0,0.121,0.664,0.451,-0.584
933026,-7748.0,-3664.0,-2103.0,0.121,0.666,0.451,-0.582
933042,-8114.0,-3426.0,-1991.0,0.121,0.668,0.451,-0.579
933059,-8510.0,-3406.0,-2189.0,0.121,0.67,0.452,-0.576
933085,-8378.0,-3982.0,-1733.0,0.122,0.672,0.452,-0.574
933101,-8554.0,-3310.0,-2297.0,0.122,0.673,0.452,-0.573
933117,-8150.0,-3672.0,-2503.0,0.123,0.674,0.452,-0.571
933133,-7970.0,-3208.0,-2649.0,0.122,0.675,0.452,-0.569
933149,-8600.0,-3618.0,-2157.0,0.122,0.677,0.453,-0.568
933165,-8452.0,-3266.0,-1999.0,0.123,0.677,0.453,-0.567
933182,-8126.0,-3804.0,-2283.0,0.124,0.677,0.452,-0.568
933209,-8218.0,-3250.0,-2301.0,0.125,0.676,0.451,-0.568
933226,-7240.0,-3594.0,-2317.0,0.125,0.676,0.45,-0.57
933243,-8468.0,-3540.0,-2061.0,0.127,0.676,0.449,-0.571
933260,-7588.0,-3692.0,-2603.0,0.128,0.675,0.448,-0.572
933276,-8176.0,-3264.0,-2209.0,0.13,0.675,0.446,-0.573
933293,-8076.0,-3916.0,-2387.0,0.131,0.675,0.445,-0.574
933310,-8650.0,-3828.0,-2309.0,0.133,0.674,0.443,-0.575
933327,-8560.0,-4178.0,-2561.0,0.135,0.674,0.442,-0.576
933344,-8386.0,-4862.0,-2783.0,0.137,0.674,0.44,-0.577
933361,-9812.0,-4048.0,-2457.0,0.138,0.674,0.439,-0.578
933379,-10274.0,-5066.0,-2641.0,0.14,0.674,0.438,-0.578
933396,-10436.0,-4328.0,-2769.0,0.141,0.674,0.438,-0.578
933413,-9894.0,-4812.0,-3103.0,0.142,0.674,0.438,-0.578
933430,-10944.0,-4872.0,-3129.0,0.141,0.674,0.44,-0.576
933457,-11268.0,-4944.0,-3075.0,0.141,0.675,0.442,-0.574
933473,-11146.0,-4710.0,-3075.0,0.14,0.675,0.445,-0.572
933490,-11132.0,-5166.0,-3069.0,0.139,0.675,0.449,-0.569
933507,-11284.0,-5034.0,-3059.0,0.138,0.674,0.452,-0.568
933524,-11206.0,-4340.0,-2947.0,0.136,0.673,0.456,-0.567
933540,-10494.0,-4510.0,-2529.0,0.134,0.671,0.461,-0.566
933557,-10190.0,-4388.0,-2459.0,0.133,0.669,0.464,-0.565
933574,-9630.0,-4400.0,-2531.0,0.132,0.667,0.467,-0.566
933591,-8840.0,-3682.0,-2525.0,0.131,0.664,0.47,-0.566
933608,-7752.0,-3864.0,-2701.0,0.129,0.662,0.473,-0.567
933634,-8128.0,-3812.0,-2471.0,0.127,0.66,0.476,-0.566
933650,-7964.0,-3290.0,-2133.0,0.126,0.659,0.479,-0.567
933666,-8214.0,-3368.0,-1965.0,0.126,0.658,0.479,-0.567
933682,-7504.0,-3298.0,-2377.0,0.127,0.657,0.479,-0.568
933698,-6542.0,-3844.0,-2113.0,0.128,0.657,0.479,-0.569
933715,-6916.0,-3194.0,-2189.0,0.128,0.657,0.478,-0.569
933732,-7234.0,-2998.0,-2313.0,0.13,0.657,0.476,-0.57
933749,-6692.0,-3098.0,-2201.0,0.132,0.658,0.475,-0.569
933775,-6374.0,-3332.0,-1997.0,0.134,0.66,0.473,-0.569
933792,-7356.0,-2994.0,-2177.0,0.137,0.661,0.47,-0.569
933809,-7734.0,-2588.0,-2037.0,0.139,0.663,0.467,-0.569
933826,-6550.0,-2686.0,-2571.0,0.143,0.666,0.462,-0.568
933843,-6566.0,-1884.0,-2513.0,0.147,0.67,0.456,-0.567
933860,-7270.0,-2818.0,-2359.0,0.151,0.674,0.449,-0.566
933877,-6418.0,-4746.0,-2551.0,0.155,0.678,0.444,-0.565
933894,-7636.0,-306.0,-2409.0,0.158,0.681,0.439,-0.564
933911,-7262.0,-3050.0,-2013.0,0.164,0.683,0.433,-0.565
933928,-8004.0,-2208.0,-1643.0,0.17,0.685,0.425,-0.567
933946,-6918.0,-1384.0,-2005.0,0.177,0.685,0.416,-0.571
933963,-7130.0,74.0,-1995.0,0.188,0.686,0.407,-0.574
933980,-5392.0,-1592.0,-1595.0,0.2,0.686,0.397,-0.577
934007,-3992.0,-2216.0,-1867.0,0.212,0.686,0.384,-0.581
934024,-3528.0,-1594.0,-1585.0,0.221,0.687,0.372,-0.584
934041,-2954.0,-834.0,-1035.0,0.229,0.689,0.36,-0.586
934058,-2810.0,-1300.0,-621.0,0.236,0.69,0.351,-0.588
934075,-2214.0,-1164.0,-613.0,0.24,0.691,0.342,-0.589
934092,-2000.0,-1028.0,-719.0,0.242,0.693,0.337,-0.59
934108,-1754.0,-1550.0,-863.0,0.241,0.694,0.336,-0.59
934125,-1352.0,-1584.0,-977.0,0.238,0.695,0.338,-0.589
934142,-1548.0,-1574.0,-555.0,0.231,0.695,0.344,-0.587
934159,-1532.0,-2074.0,-831.0,0.223,0.696,0.353,-0.584
934176,-1862.0,-2792.0,-903.0,0.211,0.698,0.363,-0.581
934192,-3930.0,-916.0,-991.0,0.197,0.7,0.374,-0.576
934209,-4890.0,1116.0,-693.0,0.185,0.7,0.386,-0.571
934235,-4568.0,-2518.0,-1007.0,0.174,0.7,0.398,-0.567
934252,-6506.0,-562.0,-1763.0,0.165,0.7,0.406,-0.564
934268,-7022.0,-770.0,-1865.0,0.158,0.698,0.417,-0.561
934284,-6784.0,-3162.0,-2011.0,0.154,0.696,0.424,-0.559
934300,-8482.0,-1584.0,-2361.0,0.149,0.694,0.43,-0.557
934316,-6462.0,-3628.0,-3587.0,0.145,0.694,0.436,-0.555
934342,-8476.0,-2780.0,-2349.0,0.14,0.693,0.443,-0.551
934359,-8592.0,-3596.0,-2605.0,0.137,0.692,0.448,-0.549
934376,-9470.0,-3144.0,-2715.0,0.135,0.69,0.451,-0.549
934393,-8570.0,-2800.0,-2459.0,0.134,0.689,0.454,-0.549
934409,-6690.0,-4480.0,-3359.0,0.133,0.687,0.456,-0.55
934425,-9228.0,-3282.0,-2593.0,0.132,0.685,0.458,-0.551
934441,-8332.0,-3402.0,-2861.0,0.131,0.683,0.459,-0.553
934457,-8424.0,-3504.0,-2457.0,0.131,0.681,0.459,-0.555
934484,-7654.0,-3764.0,-2871.0,0.132,0.679,0.459,-0.558
934500,-8578.0,-3088.0,-2491.0,0.132,0.676,0.458,-0.562
934516,-7148.0,-3770.0,-3101.0,0.132,0.674,0.458,-0.564
934532,-7952.0,-3556.0,-2219.0,0.132,0.673,0.458,-0.566
934548,-8108.0,-3238.0,-2283.0,0.131,0.672,0.457,-0.568
934564,-8666.0,-3310.0,-2331.0,0.132,0.671,0.455,-0.571
934590,-7988.0,-2924.0,-2399.0,0.133,0.67,0.454,-0.572
934606,-7938.0,-3480.0,-2015.0,0.134,0.669,0.452,-0.574
934622,-8016.0,-3540.0,-2481.0,0.134,0.669,0.451,-0.575
934639,-8820.0,-3030.0,-1901.0,0.134,0.669,0.45,-0.576
934656,-8426.0,-3652.0,-1589.0,0.135,0.669,0.449,-0.577
934673,-8348.0,-3340.0,-1759.0,0.136,0.668,0.447,-0.579
934689,-7960.0,-3848.0,-2049.0,0.138,0.668,0.445,-0.581
934706,-7836.0,-3280.0,-1923.0,0.139,0.667,0.443,-0.582
934732,-7994.0,-3302.0,-1895.0,0.14,0.667,0.442,-0.583
934748,-7944.0,-3748.0,-1981.0,0.14,0.667,0.44,-0.584
934765,-8342.0,-3038.0,-1417.0,0.141,0.667,0.438,-0.586
934782,-7862.0,-3388.0,-1717.0,0.143,0.667,0.436,-0.587
934798,-8170.0,-3316.0,-1629.0,0.144,0.667,0.434,-0.588
934815,-8168.0,-3280.0,-1767.0,0.146,0.668,0.431,-0.589
934831,-8272.0,-3780.0,-1829.0,0.148,0.668,0.429,-0.59
934848,-8694.0,-4248.0,-2021.0,0.15,0.668,0.427,-0.59
934864,-9540.0,-4014.0,-1971.0,0.152,0.669,0.426,-0.59
934891,-10072.0,-4064.0,-2361.0,0.154,0.669,0.425,-0.59
934908,-10832.0,-4864.0,-2049.0,0.155,0.67,0.424,-0.59
934925,-10832.0,-4524.0,-2333.0,0.156,0.67,0.424,-0.589
934942,-11136.0,-4698.0,-2379.0,0.157,0.67,0.425,-0.588
934959,-11482.0,-4682.0,-2297.0,0.157,0.671,0.427,-0.586
934975,-10914.0,-5144.0,-2859.0,0.156,0.671,0.429,-0.584
934992,-11608.0,-4326.0,-2455.0,0.155,0.672,0.433,-0.581
935008,-11052.0,-4840.0,-2451.0,0.153,0.672,0.437,-0.579
935025,-11448.0,-4468.0,-2475.0,0.151,0.671,0.441,-0.576
935042,-11046.0,-3932.0,-2415.0,0.15,0.671,0.445,-0.574
935059,-10016.0,-3890.0,-2587.0,0.149,0.67,0.448,-0.572
935076,-9256.0,-3974.0,-2899.0,0.147,0.671,0.452,-0.57
935094,-9118.0,-3500.0,-2805.0,0.145,0.671,0.456,-0.566
935121,-9252.0,-3322.0,-2511.0,0.144,0.672,0.46,-0.562
935138,-8974.0,-3216.0,-2651.0,0.143,0.673,0.464,-0.558
935155,-8892.0,-3314.0,-2365.0,0.143,0.673,0.467,-0.555
935171,-8236.0,-3536.0,-2237.0,0.144,0.673,0.469,-0.554
935188,-8334.0,-3554.0,-2223.0,0.145,0.672,0.47,-0.554
935204,-7884.0,-3186.0,-2299.0,0.145,0.67,0.47,-0.555
935220,-7608.0,-3020.0,-1933.0,0.147,0.669,0.47,-0.557
935237,-7464.0,-3516.0,-1767.0,0.15,0.667,0.468,-0.56
935254,-6986.0,-3554.0,-2133.0,0.152,0.665,0.466,-0.564
935271,-7108.0,-2350.0,-1575.0,0.155,0.663,0.462,-0.568
935298,-6730.0,-2482.0,-1567.0,0.159,0.66,0.46,-0.572
935314,-6700.0,-3370.0,-1467.0,0.163,0.658,0.456,-0.576
935331,-6714.0,-2330.0,-1539.0,0.168,0.656,0.452,-0.58
935347,-7372.0,-2028.0,-973.0,0.174,0.655,0.448,-0.583
935364,-6404.0,-3490.0,-1533.0,0.18,0.654,0.443,-0.586
935381,-6822.0,-2274.0,-1361.0,0.186,0.654,0.437,-0.589
935397,-7158.0,-2178.0,-1419.0,0.193,0.654,0.431,-0.591
935414,-7242.0,-3990.0,-1147.0,0.198,0.654,0.426,-0.593
935431,-7886.0,-752.0,-1305.0,0.203,0.654,0.42,-0.596
935448,-6698.0,-2648.0,-1423.0,0.209,0.654,0.413,-0.598
935474,-7246.0,-3488.0,-1291.0,0.213,0.655,0.407,-0.6
935491,-7486.0,122.0,-1491.0,0.219,0.657,0.398,-0.602
935508,-5702.0,-664.0,-1553.0,0.227,0.658,0.391,-0.602
935525,-5338.0,-886.0,-1015.0,0.235,0.66,0.382,-0.602
935542,-4348.0,-802.0,-851.0,0.244,0.662,0.374,-0.602
935560,-3494.0,-2170.0,-803.0,0.253,0.663,0.366,-0.602
935577,-3110.0,-2020.0,-777.0,0.258,0.666,0.359,-0.601
935594,-2862.0,360.0,-405.0,0.262,0.668,0.354,-0.6
935611,-2776.0,-1332.0,-279.0,0.266,0.67,0.351,-0.598
935628,-2970.0,-1756.0,-741.0,0.267,0.672,0.349,-0.596
935645,-3140.0,-3212.0,-1095.0,0.266,0.675,0.35,-0.593
935662,-4546.0,-3286.0,-439.0,0.258,0.679,0.352,-0.59
935679,-6348.0,1490.0,11.0,0.251,0.682,0.355,-0.588
935696,-6772.0,-1182.0,-931.0,0.246,0.684,0.359,-0.586
935723,-8710.0,-1964.0,-991.0,0.239,0.686,0.362,-0.584
935740,-9618.0,1084.0,-653.0,0.236,0.686,0.366,-0.583
935757,-9734.0,-1580.0,-1247.0,0.233,0.685,0.369,-0.584
935774,-9714.0,-1154.0,-2171.0,0.231,0.684,0.371,-0.585
935791,-9642.0,-800.0,-1583.0,0.229,0.684,0.373,-0.584
935808,-9522.0,-1088.0,-1405.0,0.227,0.684,0.374,-0.584
935825,-9234.0,-1514.0,-1745.0,0.225,0.684,0.375,-0.584
935842,-8350.0,-1098.0,-1345.0,0.224,0.685,0.376,-0.583
935859,-8006.0,-1952.0,-1133.0,0.223,0.686,0.377,-0.582
935876,-7596.0,-1686.0,-1417.0,0.221,0.687,0.377,-0.581
935893,-7220.0,-1542.0,-1017.0,0.219,0.688,0.378,-0.58
935910,-7350.0,-2044.0,-819.0,0.217,0.689,0.379,-0.579
935927,-7262.0,-1940.0,-1165.0,0.214,0.689,0.38,-0.578
935945,-7390.0,-1446.0,-933.0,0.213,0.69,0.381,-0.577
935962,-7594.0,-1758.0,-1161.0,0.211,0.691,0.382,-0.577
935979,-7762.0,-2268.0,-1285.0,0.209,0.692,0.383,-0.576
936006,-8220.0,-1294.0,-1159.0,0.208,0.692,0.384,-0.575
936023,-8238.0,-2178.0,-1319.0,0.207,0.693,0.385,-0.573
936040,-8290.0,-1812.0,-1535.0,0.205,0.694,0.386,-0.572
936057,-7994.0,-2580.0,-1537.0,0.203,0.695,0.388,-0.57
936074,-8416.0,-1228.0,-1607.0,0.2,0.697,0.389,-0.568
936091,-8194.0,-2144.0,-1547.0,0.199,0.699,0.39,-0.565
936107,-7972.0,-1836.0,-1691.0,0.197,0.702,0.391,-0.562
936124,-7570.0,-2090.0,-1809.0,0.194,0.704,0.393,-0.559
936141,-7334.0,-1984.0,-1977.0,0.191,0.707,0.395,-0.555
936158,-7498.0,-1834.0,-1999.0,0.188,0.71,0.396,-0.551
936175,-7520.0,-1812.0,-2133.0,0.185,0.713,0.398,-0.547
936201,-7556.0,-1648.0,-2083.0,0.182,0.716,0.399,-0.542
936218,-7368.0,-1854.0,-2245.0,0.179,0.719,0.401,-0.538
936235,-7584.0,-1812.0,-2383.0,0.177,0.722,0.402,-0.534
936252,-7560.0,-1748.0,-2469.0,0.174,0.725,0.403,-0.53
936269,-7078.0,-1992.0,-2617.0,0.171,0.727,0.405,-0.527
936286,-7076.0,-2016.0,-2811.0,0.168,0.73,0.407,-0.523
936303,-7466.0,-1750.0,-2665.0,0.165,0.732,0.409,-0.52
936319,-7414.0,-1908.0,-2853.0,0.162,0.734,0.41,-0.516
936336,-7346.0,-1542.0,-2985.0,0.16,0.736,0.412,-0.514
936353,-7120.0,-2098.0,-3093.0,0.157,0.737,0.414,-0.51
936370,-7222.0,-1998.0,-3325.0,0.154,0.739,0.416,-0.507
936387,-7574.0,-2054.0,-3359.0,0.151,0.741,0.418,-0.504
936404,-7334.0,-1992.0,-3381.0,0.148,0.742,0.42,-0.501
936431,-7180.0,-2170.0,-3757.0,0.144,0.744,0.422,-0.497
936447,-7342.0,-2112.0,-3705.0,0.141,0.746,0.424,-0.493
936463,-7018.0,-2180.0,-3707.0,0.138,0.748,0.426,-0.489
936480,-7108.0,-2300.0,-3717.0,0.135,0.75,0.428,-0.486
936497,-7098.0,-2550.0,-3807.0,0.132,0.752,0.43,-0.482
936514,-6920.0,-2328.0,-3717.0,0.13,0.753,0.432,-0.479
936531,-6784.0,-2460.0,-4021.0,0.127,0.754,0.434,-0.476
936547,-7038.0,-2474.0,-4055.0,0.125,0.755,0.436,-0.473
936563,-7254.0,-2152.0,-3869.0,0.123,0.756,0.437,-0.471
936590,-6760.0,-2868.0,-4309.0,0.121,0.757,0.439,-0.469
936606,-6698.0,-2508.0,-4447.0,0.12,0.758,0.44,-0.466
936622,-6822.0,-2416.0,-4323.0,0.118,0.759,0.441,-0.464
936638,-6968.0,-2664.0,-4541.0,0.116,0.761,0.442,-0.461
936654,-7022.0,-2102.0,-4575.0,0.115,0.762,0.443,-0.458
936670,-6832.0,-2640.0,-4395.0,0.115,0.763,0.444,-0.455
936687,-6580.0,-2592.0,-4621.0,0.114,0.764,0.444,-0.453
936714,-6772.0,-2318.0,-4583.0,0.113,0.766,0.445,-0.451
936731,-6694.0,-2250.0,-4315.0,0.112,0.767,0.445,-0.449
936747,-6502.0,-1982.0,-4495.0,0.112,0.767,0.446,-0.447
936764,-6410.0,-2150.0,-4299.0,0.112,0.768,0.447,-0.446
936780,-6202.0,-2172.0,-4249.0,0.111,0.768,0.447,-0.444
936797,-6164.0,-2078.0,-4333.0,0.111,0.768,0.448,-0.443
936814,-5776.0,-1936.0,-4397.0,0.11,0.769,0.45,-0.441
936831,-6002.0,-1932.0,-4285.0,0.109,0.769,0.452,-0.439
936847,-6168.0,-2108.0,-4401.0,0.108,0.77,0.454,-0.436
936873,-5656.0,-2776.0,-5811.0,0.107,0.77,0.457,-0.433
936889,-4888.0,-3114.0,-6565.0,0.106,0.769,0.459,-0.432
936906,-8632.0,-2810.0,-5661.0,0.105,0.769,0.461,-0.431
936923,-5740.0,-3416.0,-4189.0,0.105,0.768,0.464,-0.429
936940,-6314.0,-3004.0,-2289.0,0.105,0.768,0.466,-0.427
936957,-7510.0,-2784.0,-5085.0,0.105,0.768,0.468,-0.425
936973,-5980.0,-2424.0,-5253.0,0.105,0.767,0.47,-0.423
936990,-6578.0,-3660.0,-3199.0,0.105,0.767,0.472,-0.421
937006,-7044.0,-2970.0,-5189.0,0.105,0.767,0.474,-0.42
937032,-5742.0,-2762.0,-4541.0,0.106,0.766,0.475,-0.419
937048,-6118.0,-2998.0,-3021.0,0.107,0.766,0.477,-0.418
937065,-10204.0,-5474.0,-11937.0,0.107,0.766,0.478,-0.417
937081,-3146.0,-6004.0,-9863.0,0.109,0.765,0.478,-0.418
937098,-7250.0,-2108.0,-6161.0,0.106,0.766,0.478,-0.417
937114,-5154.0,-1088.0,-7843.0,0.106,0.764,0.479,-0.419
937130,-4894.0,372.0,839.0,0.105,0.764,0.481,-0.417
937156,-7998.0,-3436.0,-3441.0,0.103,0.766,0.481,-0.414
937173,-6552.0,-804.0,-10937.0,0.102,0.765,0.483,-0.414
937189,-5570.0,-2636.0,-3449.0,0.102,0.765,0.484,-0.413
