timeMs,ax,ay,az,q0,q1,q2,q3
642926,4331.0,5725.0,2387.0,0.232,-0.151,-0.607,-0.745
642943,3941.0,6491.0,2197.0,0.23,-0.149,-0.61,-0.744
642960,3381.0,7217.0,1945.0,0.229,-0.147,-0.612,-0.742
642977,2947.0,7953.0,1677.0,0.229,-0.146,-0.614,-0.741
642994,3259.0,8585.0,1215.0,0.231,-0.146,-0.615,-0.739
643011,3853.0,9343.0,1145.0,0.232,-0.147,-0.615,-0.739
643037,4079.0,8279.0,1329.0,0.234,-0.149,-0.613,-0.74
643054,4287.0,7001.0,1459.0,0.234,-0.151,-0.61,-0.742
643071,4447.0,5867.0,1655.0,0.234,-0.153,-0.607,-0.744
643088,4377.0,5321.0,2055.0,0.233,-0.153,-0.605,-0.745
643105,4313.0,5373.0,2359.0,0.232,-0.153,-0.605,-0.746
643122,4161.0,5803.0,2277.0,0.231,-0.153,-0.607,-0.745
643138,3867.0,6579.0,2125.0,0.23,-0.151,-0.609,-0.744
643155,3351.0,7305.0,1887.0,0.229,-0.149,-0.611,-0.742
643172,3087.0,8095.0,1621.0,0.229,-0.148,-0.613,-0.741
643188,3515.0,8887.0,1227.0,0.231,-0.148,-0.614,-0.74
643205,4013.0,9529.0,1175.0,0.233,-0.149,-0.613,-0.74
643231,4217.0,8517.0,1345.0,0.233,-0.151,-0.61,-0.742
643247,4423.0,7303.0,1403.0,0.233,-0.153,-0.605,-0.746
643263,4495.0,6141.0,1639.0,0.231,-0.155,-0.601,-0.749
643279,4485.0,5671.0,2139.0,0.23,-0.156,-0.598,-0.752
643295,4359.0,5313.0,2421.0,0.228,-0.156,-0.596,-0.754
643311,4099.0,5139.0,2467.0,0.225,-0.155,-0.595,-0.755
643338,3643.0,5559.0,2503.0,0.224,-0.154,-0.597,-0.755
643355,3227.0,6373.0,2331.0,0.223,-0.153,-0.599,-0.754
643372,3139.0,7325.0,2053.0,0.224,-0.152,-0.601,-0.752
643389,3427.0,8405.0,1721.0,0.227,-0.152,-0.604,-0.749
643406,3839.0,9241.0,1517.0,0.229,-0.152,-0.605,-0.748
643423,4049.0,8439.0,1419.0,0.23,-0.153,-0.603,-0.748
643440,4231.0,6945.0,1555.0,0.23,-0.155,-0.6,-0.75
643456,4309.0,6035.0,1821.0,0.229,-0.156,-0.598,-0.752
643472,4257.0,5463.0,2153.0,0.228,-0.157,-0.597,-0.753
643489,4285.0,5527.0,2387.0,0.227,-0.157,-0.597,-0.753
643506,4125.0,5689.0,2357.0,0.226,-0.156,-0.599,-0.753
643532,3953.0,6081.0,2141.0,0.225,-0.154,-0.601,-0.751
643548,3359.0,6765.0,2111.0,0.224,-0.153,-0.604,-0.749
643564,2827.0,7839.0,1951.0,0.225,-0.151,-0.607,-0.748
643580,3021.0,8539.0,1613.0,0.227,-0.151,-0.608,-0.745
643596,3517.0,9363.0,1393.0,0.23,-0.152,-0.609,-0.744
643612,3919.0,8881.0,1487.0,0.232,-0.153,-0.608,-0.744
643639,4169.0,7357.0,1531.0,0.232,-0.156,-0.605,-0.746
643655,4513.0,6009.0,1587.0,0.232,-0.157,-0.602,-0.748
643671,4565.0,5141.0,1927.0,0.231,-0.158,-0.6,-0.75
643687,4551.0,5171.0,2331.0,0.231,-0.159,-0.599,-0.75
643703,4393.0,5527.0,2313.0,0.23,-0.158,-0.601,-0.749
643719,4103.0,6247.0,2235.0,0.228,-0.156,-0.604,-0.748
643745,3459.0,6999.0,2023.0,0.227,-0.154,-0.606,-0.746
643762,2905.0,7741.0,1797.0,0.227,-0.153,-0.608,-0.745
643779,3021.0,8509.0,1489.0,0.228,-0.152,-0.61,-0.743
643796,3595.0,9201.0,1275.0,0.231,-0.153,-0.61,-0.742
643813,4063.0,8703.0,1463.0,0.233,-0.154,-0.609,-0.743
643829,4243.0,7271.0,1629.0,0.233,-0.156,-0.606,-0.744
643845,4429.0,6067.0,1659.0,0.233,-0.158,-0.603,-0.747
643861,4577.0,5471.0,1915.0,0.233,-0.159,-0.601,-0.748
643887,4553.0,5127.0,2241.0,0.232,-0.159,-0.6,-0.749
643903,4405.0,5453.0,2365.0,0.231,-0.158,-0.601,-0.748
643919,4285.0,6235.0,2259.0,0.23,-0.157,-0.604,-0.747
643935,3715.0,6813.0,2057.0,0.228,-0.155,-0.606,-0.746
643951,3191.0,7537.0,1851.0,0.228,-0.153,-0.608,-0.745
643967,3169.0,8241.0,1547.0,0.228,-0.152,-0.61,-0.744
643993,3731.0,8833.0,1325.0,0.23,-0.152,-0.611,-0.742
644010,4059.0,8895.0,1461.0,0.231,-0.153,-0.61,-0.742
644027,4259.0,7303.0,1553.0,0.232,-0.155,-0.607,-0.744
644044,4505.0,6107.0,1639.0,0.232,-0.156,-0.605,-0.746
644061,4579.0,5287.0,1917.0,0.231,-0.157,-0.603,-0.747
644078,4451.0,5419.0,2163.0,0.231,-0.157,-0.604,-0.747
644095,4349.0,5809.0,2147.0,0.23,-0.156,-0.605,-0.746
644112,4237.0,6383.0,2075.0,0.228,-0.154,-0.608,-0.745
644129,4105.0,6687.0,2025.0,0.226,-0.152,-0.611,-0.744
644146,3295.0,7083.0,1977.0,0.224,-0.15,-0.613,-0.743
644163,2659.0,7797.0,1783.0,0.224,-0.148,-0.615,-0.742
644179,2851.0,8313.0,1303.0,0.226,-0.147,-0.617,-0.74
644205,3601.0,9667.0,1101.0,0.229,-0.148,-0.618,-0.738
644221,3843.0,8895.0,1231.0,0.231,-0.149,-0.616,-0.738
644237,4099.0,7363.0,1191.0,0.232,-0.151,-0.613,-0.74
644253,4329.0,6087.0,1313.0,0.232,-0.153,-0.61,-0.742
644269,4351.0,5365.0,1791.0,0.232,-0.153,-0.608,-0.744
644285,4365.0,5281.0,2235.0,0.231,-0.153,-0.607,-0.744
644311,4181.0,5515.0,2289.0,0.229,-0.152,-0.609,-0.744
644328,3871.0,6273.0,2137.0,0.228,-0.15,-0.611,-0.743
644345,3165.0,7167.0,2007.0,0.227,-0.148,-0.614,-0.741
644362,2683.0,7965.0,1703.0,0.227,-0.147,-0.616,-0.74
644379,2901.0,8595.0,1295.0,0.229,-0.147,-0.617,-0.738
644396,3633.0,9439.0,1033.0,0.232,-0.148,-0.618,-0.737
644413,4073.0,8987.0,1229.0,0.234,-0.15,-0.615,-0.738
644429,4271.0,7551.0,1267.0,0.234,-0.153,-0.612,-0.74
644447,4489.0,6227.0,1349.0,0.234,-0.155,-0.607,-0.743
644463,4545.0,5311.0,1859.0,0.233,-0.156,-0.604,-0.746
644480,4503.0,4975.0,2345.0,0.232,-0.157,-0.603,-0.747
644497,4399.0,5145.0,2431.0,0.231,-0.156,-0.604,-0.747
644523,4137.0,6039.0,2363.0,0.229,-0.155,-0.606,-0.746
644539,3705.0,6775.0,2109.0,0.228,-0.153,-0.609,-0.745
644555,3097.0,7597.0,1833.0,0.227,-0.152,-0.611,-0.743
644571,3045.0,8433.0,1423.0,0.228,-0.151,-0.613,-0.742
644587,3581.0,9235.0,1037.0,0.23,-0.152,-0.613,-0.74
644603,3959.0,9083.0,1191.0,0.232,-0.153,-0.612,-0.741
644629,4219.0,7583.0,1457.0,0.232,-0.155,-0.608,-0.743
644646,4293.0,6195.0,1611.0,0.232,-0.157,-0.604,-0.746
644663,4557.0,5385.0,1923.0,0.232,-0.158,-0.602,-0.748
644679,4461.0,4985.0,2353.0,0.231,-0.158,-0.601,-0.749
644695,4417.0,5181.0,2445.0,0.23,-0.157,-0.602,-0.748
644711,4289.0,5977.0,2331.0,0.229,-0.156,-0.604,-0.747
644727,3915.0,6675.0,2095.0,0.227,-0.153,-0.607,-0.746
644753,3183.0,7355.0,1905.0,0.226,-0.152,-0.61,-0.744
644769,2765.0,8239.0,1621.0,0.226,-0.15,-0.612,-0.742
644785,3291.0,9123.0,1161.0,0.229,-0.151,-0.614,-0.74
644801,3811.0,9549.0,1235.0,0.231,-0.152,-0.613,-0.74
644817,4075.0,8057.0,1453.0,0.232,-0.154,-0.61,-0.742
644833,4347.0,6579.0,1501.0,0.233,-0.156,-0.607,-0.744
644859,4511.0,5367.0,1737.0,0.232,-0.157,-0.604,-0.746
644875,4595.0,4987.0,2135.0,0.232,-0.158,-0.603,-0.747
644891,4431.0,5187.0,2331.0,0.231,-0.157,-0.603,-0.747
644907,4239.0,5899.0,2277.0,0.23,-0.156,-0.606,-0.746
644923,3935.0,6685.0,2037.0,0.228,-0.154,-0.609,-0.744
644949,3239.0,7429.0,1823.0,0.227,-0.152,-0.612,-0.742
644965,2837.0,8089.0,1559.0,0.227,-0.151,-0.614,-0.741
644981,3223.0,8927.0,1141.0,0.229,-0.151,-0.615,-0.739
644997,3809.0,9747.0,1173.0,0.232,-0.151,-0.615,-0.738
645013,4103.0,8305.0,1341.0,0.233,-0.153,-0.612,-0.74
645029,4337.0,6897.0,1401.0,0.234,-0.156,-0.608,-0.742
645055,4537.0,5591.0,1623.0,0.234,-0.158,-0.605,-0.745
645071,4577.0,5013.0,2009.0,0.233,-0.158,-0.603,-0.747
645087,4471.0,5135.0,2325.0,0.232,-0.158,-0.603,-0.747
645103,4341.0,5715.0,2297.0,0.231,-0.157,-0.605,-0.746
645119,4021.0,6489.0,2097.0,0.229,-0.155,-0.607,-0.745
645135,3439.0,7149.0,1881.0,0.228,-0.153,-0.61,-0.744
645161,2843.0,7895.0,1663.0,0.227,-0.152,-0.612,-0.742
645177,3047.0,8687.0,1345.0,0.228,-0.151,-0.613,-0.741
645194,3631.0,9497.0,1173.0,0.23,-0.152,-0.613,-0.74
645211,3903.0,8545.0,1413.0,0.232,-0.154,-0.61,-0.742
645228,4237.0,7207.0,1527.0,0.232,-0.156,-0.607,-0.744
645245,4489.0,5945.0,1699.0,0.232,-0.158,-0.603,-0.747
645262,4567.0,5267.0,2021.0,0.232,-0.159,-0.601,-0.748
645279,4509.0,5109.0,2333.0,0.231,-0.159,-0.601,-0.749
645295,4441.0,5467.0,2353.0,0.23,-0.158,-0.602,-0.748
645311,4299.0,6155.0,2257.0,0.228,-0.157,-0.604,-0.747
645338,3853.0,6747.0,2003.0,0.227,-0.155,-0.607,-0.746
645355,3103.0,7321.0,1835.0,0.225,-0.153,-0.61,-0.745
645371,2655.0,8195.0,1569.0,0.225,-0.151,-0.611,-0.743
645387,3113.0,9041.0,1213.0,0.228,-0.152,-0.613,-0.742
645404,3777.0,9541.0,1355.0,0.23,-0.153,-0.612,-0.741
645420,3961.0,8111.0,1627.0,0.231,-0.155,-0.609,-0.743
645436,4305.0,6673.0,1605.0,0.232,-0.157,-0.605,-0.745
645462,4553.0,5237.0,1817.0,0.231,-0.159,-0.602,-0.748
645479,4657.0,4821.0,2255.0,0.231,-0.159,-0.601,-0.749
645496,4507.0,4985.0,2411.0,0.23,-0.159,-0.602,-0.748
645512,4343.0,5773.0,2301.0,0.228,-0.157,-0.605,-0.746
645529,4013.0,6629.0,2037.0,0.227,-0.155,-0.608,-0.744
645545,3297.0,7293.0,1793.0,0.225,-0.153,-0.612,-0.743
645561,2641.0,8157.0,1563.0,0.225,-0.151,-0.614,-0.741
645578,3011.0,8939.0,1027.0,0.227,-0.151,-0.616,-0.739
645595,3721.0,9929.0,977.0,0.23,-0.152,-0.616,-0.738
645621,3983.0,8629.0,1285.0,0.231,-0.154,-0.613,-0.74
645637,4275.0,7071.0,1349.0,0.231,-0.156,-0.609,-0.742
645653,4495.0,5655.0,1537.0,0.231,-0.158,-0.605,-0.745
645669,4623.0,5011.0,2033.0,0.231,-0.159,-0.603,-0.747
645685,4519.0,5081.0,2381.0,0.23,-0.158,-0.603,-0.747
645702,4405.0,5605.0,2311.0,0.229,-0.157,-0.605,-0.746
645718,4137.0,6349.0,2147.0,0.228,-0.155,-0.608,-0.744
645745,3575.0,7103.0,1855.0,0.226,-0.153,-0.611,-0.743
645761,2917.0,7931.0,1677.0,0.226,-0.152,-0.613,-0.742
645778,2953.0,8693.0,1229.0,0.227,-0.151,-0.615,-0.74
645794,3513.0,9679.0,965.0,0.229,-0.152,-0.615,-0.739
645811,3903.0,8871.0,1207.0,0.231,-0.154,-0.613,-0.74
645828,4181.0,7429.0,1431.0,0.231,-0.156,-0.609,-0.743
645845,4429.0,6047.0,1567.0,0.231,-0.158,-0.605,-0.746
645861,4521.0,5203.0,1885.0,0.23,-0.159,-0.602,-0.748
645878,4515.0,5049.0,2325.0,0.229,-0.159,-0.602,-0.748
645904,4367.0,5481.0,2381.0,0.228,-0.159,-0.603,-0.748
645920,4265.0,6153.0,2207.0,0.227,-0.157,-0.605,-0.747
645936,4045.0,6743.0,1993.0,0.225,-0.155,-0.608,-0.745
645952,3457.0,7245.0,1761.0,0.222,-0.153,-0.611,-0.744
645968,2587.0,8003.0,1613.0,0.222,-0.151,-0.613,-0.743
645984,2609.0,8703.0,1303.0,0.223,-0.151,-0.614,-0.742
646010,3373.0,9721.0,1067.0,0.226,-0.152,-0.613,-0.741
646027,3865.0,9031.0,1387.0,0.228,-0.155,-0.611,-0.742
646044,4269.0,7711.0,1569.0,0.229,-0.157,-0.607,-0.745
646061,4551.0,6181.0,1503.0,0.229,-0.16,-0.602,-0.748
646078,4773.0,5361.0,1807.0,0.229,-0.161,-0.599,-0.75
646095,4725.0,5133.0,2255.0,0.227,-0.161,-0.598,-0.752
646111,4703.0,5509.0,2419.0,0.226,-0.161,-0.598,-0.752
646128,4301.0,6341.0,2149.0,0.223,-0.16,-0.601,-0.751
646145,3941.0,7933.0,2305.0,0.219,-0.158,-0.604,-0.75
646162,3769.0,9591.0,2851.0,0.214,-0.158,-0.605,-0.75
646188,3739.0,10361.0,3987.0,0.207,-0.158,-0.604,-0.753
646204,3115.0,11973.0,4555.0,0.201,-0.16,-0.601,-0.757
646220,3277.0,13107.0,3941.0,0.196,-0.163,-0.597,-0.76
646236,6151.0,15453.0,3173.0,0.192,-0.165,-0.59,-0.766
646252,5985.0,13263.0,3091.0,0.184,-0.161,-0.573,-0.782
646268,4763.0,9609.0,3879.0,0.172,-0.153,-0.555,-0.799
646294,4715.0,7013.0,4543.0,0.159,-0.141,-0.538,-0.816
646311,3491.0,6199.0,4791.0,0.144,-0.128,-0.524,-0.829
646328,3321.0,6397.0,4587.0,0.131,-0.115,-0.511,-0.842
646345,2623.0,6443.0,4065.0,0.12,-0.102,-0.495,-0.855
646362,1903.0,6441.0,3515.0,0.109,-0.091,-0.474,-0.869
646378,1627.0,5075.0,3189.0,0.1,-0.083,-0.448,-0.885
646395,1213.0,3485.0,2917.0,0.093,-0.078,-0.421,-0.899
646412,1037.0,2441.0,3195.0,0.087,-0.074,-0.397,-0.911
646428,1073.0,2843.0,3595.0,0.082,-0.072,-0.381,-0.918
646445,1073.0,5197.0,3591.0,0.077,-0.07,-0.368,-0.924
646462,1053.0,6017.0,3675.0,0.071,-0.071,-0.354,-0.93
646489,1209.0,6557.0,3839.0,0.066,-0.072,-0.337,-0.936
646506,727.0,6613.0,3545.0,0.061,-0.075,-0.314,-0.944
646523,1155.0,4729.0,3417.0,0.057,-0.08,-0.286,-0.953
646539,923.0,2153.0,4673.0,0.052,-0.085,-0.261,-0.96
646555,1193.0,1673.0,5361.0,0.047,-0.09,-0.245,-0.964
646571,1237.0,3215.0,5563.0,0.043,-0.095,-0.234,-0.967
646588,1453.0,4255.0,6171.0,0.039,-0.101,-0.221,-0.969
646605,1077.0,5543.0,5583.0,0.035,-0.107,-0.201,-0.973
646621,961.0,5475.0,4343.0,0.03,-0.117,-0.166,-0.979
646647,2073.0,273.0,4901.0,0.026,-0.128,-0.129,-0.983
646664,2475.0,-2995.0,6265.0,0.022,-0.139,-0.102,-0.985
646680,1967.0,-2701.0,7379.0,0.019,-0.148,-0.091,-0.985
646697,2775.0,777.0,7579.0,0.016,-0.157,-0.089,-0.983
646713,2569.0,3155.0,7749.0,0.014,-0.166,-0.087,-0.982
646729,3095.0,4491.0,7877.0,0.01,-0.175,-0.079,-0.981
646755,3299.0,3315.0,8169.0,0.006,-0.182,-0.067,-0.981
646772,3223.0,1313.0,8341.0,0.001,-0.187,-0.055,-0.981
646788,3117.0,261.0,8017.0,0.003,0.19,0.048,0.98
646804,3053.0,-235.0,7977.0,0.006,0.192,0.046,0.98
646820,2595.0,-1507.0,6507.0,0.008,0.195,0.043,0.98
646836,1651.0,1005.0,7163.0,0.013,0.198,0.043,0.979
646852,2841.0,1579.0,7149.0,0.017,0.203,0.04,0.978
646878,3313.0,-403.0,6861.0,0.02,0.209,0.035,0.977
646894,3901.0,381.0,6727.0,0.025,0.214,0.03,0.976
646910,4859.0,-1647.0,7671.0,0.029,0.218,0.025,0.975
646926,4387.0,41.0,7649.0,0.035,0.221,0.022,0.974
646943,3813.0,237.0,6283.0,0.044,0.225,0.015,0.973
646959,3599.0,4285.0,5893.0,0.056,0.229,0.007,0.972
646975,4361.0,983.0,6879.0,0.066,0.233,-0.003,0.97
647002,3989.0,245.0,7423.0,0.079,0.238,-0.011,0.968
647018,4209.0,1225.0,7437.0,0.091,0.243,-0.016,0.965
647034,4077.0,1559.0,7289.0,0.105,0.248,-0.021,0.963
647050,4231.0,423.0,6941.0,0.119,0.253,-0.027,0.96
647066,4987.0,241.0,7343.0,0.133,0.257,-0.03,0.957
647082,4625.0,-419.0,7837.0,0.148,0.258,-0.031,0.954
647108,4211.0,317.0,7989.0,0.161,0.259,-0.03,0.952
647124,4015.0,129.0,8159.0,0.173,0.259,-0.03,0.95
647141,3517.0,-423.0,8343.0,0.185,0.26,-0.033,0.947
647158,3755.0,-2201.0,8343.0,0.195,0.26,-0.036,0.945
647175,3951.0,-3433.0,8127.0,0.203,0.26,-0.036,0.943
647191,4003.0,-2433.0,8081.0,0.208,0.26,-0.031,0.942
647208,4673.0,-3175.0,8421.0,0.209,0.26,-0.021,0.942
647224,3803.0,1145.0,7851.0,0.211,0.256,-0.011,0.943
647241,3633.0,1243.0,8265.0,0.212,0.25,-0.006,0.945
647258,3821.0,331.0,8847.0,0.212,0.243,-0.003,0.947
647284,3719.0,975.0,8047.0,0.212,0.236,-0.001,0.948
647300,3539.0,493.0,7583.0,0.213,0.229,0.003,0.95
647316,2953.0,307.0,7215.0,0.212,0.222,0.011,0.952
647332,2679.0,2283.0,6673.0,0.212,0.217,0.02,0.953
647348,2151.0,1905.0,7001.0,0.212,0.211,0.026,0.954
647374,2329.0,1139.0,7195.0,0.211,0.207,0.032,0.955
647390,2537.0,483.0,7165.0,0.21,0.204,0.037,0.956
647406,2421.0,859.0,7185.0,0.209,0.202,0.043,0.956
647423,2739.0,2133.0,6797.0,0.207,0.2,0.047,0.956
647439,3283.0,-1027.0,7765.0,0.203,0.199,0.05,0.957
647455,2845.0,169.0,7897.0,0.199,0.199,0.055,0.958
647471,3445.0,981.0,8071.0,0.194,0.198,0.061,0.959
647497,2151.0,2759.0,7807.0,0.192,0.197,0.064,0.959
647513,2945.0,2387.0,7971.0,0.19,0.195,0.064,0.96
647529,3251.0,4139.0,7773.0,0.19,0.193,0.059,0.961
647545,1883.0,2937.0,7597.0,0.192,0.191,0.052,0.961
647561,2647.0,109.0,7527.0,0.193,0.189,0.048,0.962
647577,1971.0,549.0,7029.0,0.194,0.189,0.05,0.961
647603,2011.0,2799.0,6771.0,0.195,0.189,0.053,0.961
647619,2109.0,2627.0,7011.0,0.197,0.189,0.052,0.961
647635,2053.0,2337.0,7077.0,0.201,0.19,0.048,0.96
647651,2227.0,1043.0,6985.0,0.206,0.192,0.04,0.959
647667,2173.0,567.0,6763.0,0.211,0.196,0.034,0.957
647683,2303.0,745.0,7029.0,0.216,0.2,0.028,0.955
647709,2519.0,371.0,7419.0,0.222,0.204,0.022,0.953
647725,2963.0,119.0,7647.0,0.227,0.209,0.017,0.951
647741,2855.0,2085.0,7397.0,0.233,0.214,0.011,0.948
647758,3235.0,739.0,7821.0,0.239,0.219,0.002,0.946
647774,3275.0,-169.0,8065.0,0.244,0.223,-0.005,0.944
647791,3301.0,3151.0,7115.0,0.246,0.227,-0.008,0.942
647807,2633.0,2295.0,6677.0,0.247,0.233,-0.003,0.941
647834,3161.0,103.0,7605.0,0.25,0.239,0.005,0.938
647850,3555.0,4871.0,7561.0,0.251,0.243,0.011,0.937
647866,4329.0,2115.0,8695.0,0.252,0.245,0.013,0.936
647882,3833.0,1597.0,8583.0,0.252,0.245,0.014,0.936
647898,4029.0,843.0,8493.0,0.253,0.244,0.016,0.936
647914,3211.0,839.0,8005.0,0.254,0.242,0.019,0.936
647940,3489.0,1059.0,7789.0,0.256,0.24,0.024,0.936
647957,2663.0,2085.0,7141.0,0.257,0.239,0.03,0.936
647974,4517.0,541.0,7743.0,0.257,0.236,0.037,0.937
647991,3579.0,725.0,7527.0,0.257,0.232,0.046,0.937
648008,2877.0,3411.0,6765.0,0.261,0.228,0.056,0.936
648024,3557.0,1615.0,7075.0,0.263,0.222,0.063,0.937
648041,2453.0,1753.0,7031.0,0.264,0.217,0.067,0.937
648057,2539.0,3515.0,6561.0,0.266,0.213,0.068,0.938
648073,2515.0,2651.0,6655.0,0.269,0.209,0.064,0.938
648100,2669.0,763.0,6831.0,0.272,0.207,0.06,0.938
648116,3241.0,-277.0,7139.0,0.273,0.206,0.06,0.938
648132,4031.0,-307.0,7281.0,0.27,0.207,0.067,0.938
648148,3163.0,1933.0,7217.0,0.267,0.209,0.075,0.938
648164,2843.0,2127.0,7597.0,0.265,0.209,0.081,0.938
648180,799.0,1611.0,7547.0,0.266,0.208,0.083,0.938
648206,2207.0,575.0,8301.0,0.266,0.207,0.08,0.938
648222,2359.0,2733.0,7813.0,0.269,0.208,0.08,0.937
648238,2709.0,4117.0,7283.0,0.274,0.208,0.082,0.935
648254,2505.0,5075.0,5659.0,0.28,0.208,0.079,0.934
648271,1679.0,4135.0,6097.0,0.285,0.205,0.074,0.933
648287,5005.0,-1833.0,7571.0,0.285,0.203,0.068,0.934
648303,2417.0,-905.0,9209.0,0.283,0.202,0.074,0.935
648329,2679.0,683.0,7267.0,0.281,0.2,0.086,0.935
648345,1059.0,3137.0,7151.0,0.281,0.198,0.095,0.934
648361,1103.0,5349.0,7573.0,0.282,0.195,0.097,0.934
648377,2365.0,3021.0,7685.0,0.281,0.193,0.089,0.936
648393,2303.0,1449.0,7411.0,0.28,0.191,0.081,0.937
648409,3817.0,-737.0,7937.0,0.276,0.191,0.078,0.939
648435,2179.0,2835.0,7745.0,0.279,0.19,0.08,0.938
648451,5305.0,3211.0,6799.0,0.281,0.186,0.082,0.938
648467,2393.0,4773.0,8001.0,0.285,0.18,0.083,0.938
648483,3067.0,2599.0,8435.0,0.289,0.173,0.084,0.938
648499,1857.0,2145.0,8465.0,0.291,0.166,0.088,0.938
648515,1823.0,2185.0,7787.0,0.293,0.16,0.095,0.938
648541,2243.0,-143.0,10643.0,0.291,0.156,0.112,0.937
648557,7553.0,-12039.0,14759.0,0.288,0.154,0.129,0.936
648574,-4987.0,-2863.0,2265.0,0.28,0.151,0.159,0.935
648591,12617.0,-14425.0,12461.0,0.268,0.158,0.18,0.933
648607,741.0,-12771.0,14287.0,0.232,0.162,0.259,0.924
648624,835.0,-4915.0,-3283.0,0.209,0.179,0.318,0.907
648641,3229.0,-7143.0,1989.0,0.147,0.196,0.384,0.89
648667,7801.0,12327.0,1671.0,0.109,0.212,0.452,0.86
648683,9485.0,16635.0,1219.0,0.082,0.207,0.498,0.838
648699,3663.0,18439.0,447.0,0.056,0.194,0.521,0.829
648715,1757.0,16135.0,47.0,0.036,0.18,0.532,0.827
648731,-333.0,12577.0,-481.0,0.026,0.171,0.536,0.826
648747,-591.0,9765.0,-1235.0,0.022,0.168,0.542,0.823
648763,-379.0,9981.0,-1923.0,0.023,0.167,0.549,0.818
648789,127.0,10365.0,-1561.0,0.028,0.169,0.552,0.816
648805,929.0,11703.0,-1139.0,0.036,0.173,0.546,0.819
648821,1265.0,9531.0,-29.0,0.046,0.177,0.529,0.828
648837,741.0,6725.0,1243.0,0.058,0.184,0.508,0.84
648853,1295.0,4423.0,2299.0,0.07,0.194,0.487,0.849
648879,2201.0,3839.0,3325.0,0.082,0.205,0.473,0.853
648895,3111.0,5779.0,4229.0,0.095,0.216,0.463,0.855
648911,4049.0,9759.0,4713.0,0.107,0.224,0.453,0.856
648927,3587.0,11937.0,5679.0,0.12,0.227,0.433,0.864
648943,2847.0,7519.0,6339.0,0.136,0.227,0.404,0.876
648959,2931.0,3691.0,7091.0,0.151,0.23,0.376,0.885
648975,4105.0,-433.0,9401.0,0.166,0.232,0.359,0.889
649001,4703.0,4215.0,8499.0,0.178,0.233,0.352,0.889
649017,3859.0,5925.0,8529.0,0.187,0.23,0.344,0.891
649033,3425.0,5775.0,7427.0,0.196,0.224,0.327,0.897
649049,2501.0,2511.0,6667.0,0.205,0.218,0.303,0.905
649065,2061.0,1161.0,6193.0,0.21,0.215,0.285,0.91
649091,2637.0,2203.0,5425.0,0.214,0.215,0.272,0.913
649107,2219.0,4253.0,4965.0,0.219,0.216,0.261,0.915
649123,2379.0,4811.0,4997.0,0.225,0.216,0.247,0.917
649140,2149.0,2289.0,6183.0,0.23,0.218,0.236,0.919
649157,2559.0,3175.0,6167.0,0.236,0.221,0.23,0.918
649173,1739.0,3667.0,6751.0,0.24,0.224,0.227,0.917
649190,2467.0,3401.0,7225.0,0.244,0.229,0.226,0.915
649207,3537.0,5299.0,7217.0,0.247,0.232,0.224,0.914
649223,3355.0,4585.0,7489.0,0.25,0.234,0.219,0.914
649249,3089.0,3883.0,7467.0,0.254,0.233,0.213,0.914
649265,2989.0,3385.0,7153.0,0.259,0.232,0.207,0.914
649281,3075.0,3567.0,6995.0,0.265,0.231,0.202,0.914
649297,3573.0,3083.0,7323.0,0.271,0.228,0.198,0.914
649313,2469.0,2575.0,7411.0,0.277,0.224,0.197,0.914
649329,1587.0,1305.0,7529.0,0.282,0.22,0.198,0.913
649355,1623.0,3091.0,7023.0,0.287,0.218,0.201,0.911
649371,4165.0,3747.0,6707.0,0.293,0.214,0.201,0.91
649387,1565.0,-309.0,5275.0,0.299,0.209,0.197,0.91
649403,-4473.0,-205.0,3553.0,0.305,0.203,0.19,0.911
649419,-1193.0,3781.0,5805.0,0.31,0.201,0.185,0.911
649445,3137.0,5679.0,7055.0,0.317,0.202,0.18,0.909
649461,1687.0,3057.0,7261.0,0.322,0.205,0.175,0.908
649477,2921.0,247.0,7605.0,0.324,0.21,0.178,0.905
649493,2663.0,2413.0,6827.0,0.327,0.216,0.187,0.901
649510,3091.0,5861.0,7175.0,0.331,0.22,0.192,0.897
649526,2905.0,5793.0,7415.0,0.336,0.218,0.188,0.897
649542,3007.0,4239.0,7731.0,0.341,0.215,0.177,0.898
649568,2951.0,2277.0,7853.0,0.345,0.213,0.168,0.898
649584,3141.0,1781.0,7849.0,0.35,0.212,0.164,0.897
649600,3397.0,3819.0,7841.0,0.355,0.212,0.162,0.896
649616,2957.0,3713.0,7933.0,0.36,0.211,0.159,0.895
649632,3035.0,2743.0,8023.0,0.365,0.209,0.155,0.894
649648,1353.0,1571.0,8875.0,0.368,0.206,0.15,0.894
649674,3049.0,2451.0,8143.0,0.372,0.206,0.148,0.893
649690,2857.0,3791.0,8171.0,0.377,0.203,0.143,0.893
649706,1255.0,4419.0,7571.0,0.38,0.198,0.134,0.893
649723,2835.0,3073.0,7589.0,0.384,0.193,0.124,0.895
649739,2367.0,1819.0,7641.0,0.386,0.188,0.116,0.896
649756,2451.0,1989.0,7271.0,0.389,0.185,0.113,0.896
649773,1743.0,2211.0,6889.0,0.391,0.183,0.112,0.895
649790,2305.0,2341.0,6435.0,0.392,0.182,0.111,0.895
649816,2511.0,2415.0,6577.0,0.393,0.18,0.109,0.895
649832,2049.0,1369.0,6901.0,0.394,0.178,0.105,0.896
649848,2049.0,737.0,7213.0,0.395,0.176,0.1,0.896
649864,2203.0,1335.0,7397.0,0.396,0.177,0.098,0.896
649880,2267.0,1891.0,7175.0,0.397,0.177,0.095,0.896
649896,2145.0,2023.0,7095.0,0.398,0.178,0.092,0.895
649922,2453.0,2115.0,7009.0,0.399,0.177,0.087,0.895
649939,3065.0,1931.0,7347.0,0.401,0.176,0.082,0.895
649956,3251.0,2741.0,7089.0,0.405,0.172,0.076,0.895
649973,1961.0,741.0,7671.0,0.407,0.166,0.071,0.895
649990,1677.0,2213.0,7569.0,0.411,0.161,0.067,0.895
650006,2163.0,2205.0,7215.0,0.415,0.153,0.06,0.895
650022,2233.0,7259.0,7047.0,0.42,0.144,0.051,0.895
650039,2295.0,2767.0,6679.0,0.424,0.129,0.032,0.896
650056,1253.0,-163.0,6873.0,0.428,0.116,0.015,0.896
650073,535.0,-1691.0,6943.0,0.434,0.106,0.003,0.895
650090,89.0,-1111.0,6695.0,0.439,0.103,-0.004,0.893
650117,-285.0,-2253.0,7145.0,0.442,0.105,-0.009,0.891
650133,1261.0,-915.0,5913.0,0.445,0.11,-0.016,0.889
650149,1453.0,35.0,5083.0,0.448,0.115,-0.025,0.886
650165,1861.0,-597.0,5499.0,0.451,0.118,-0.04,0.884
650181,2699.0,-2099.0,6719.0,0.455,0.121,-0.054,0.881
650197,3545.0,-2589.0,7863.0,0.458,0.123,-0.066,0.878
650223,3621.0,-2241.0,8547.0,0.461,0.124,-0.073,0.875
650240,3473.0,-1335.0,9203.0,0.464,0.126,-0.077,0.874
650257,2925.0,-2173.0,9065.0,0.464,0.129,-0.077,0.873
650273,2801.0,-2227.0,8457.0,0.463,0.135,-0.074,0.873
650290,2677.0,-513.0,8111.0,0.461,0.143,-0.068,0.873
650307,2931.0,283.0,7607.0,0.458,0.151,-0.062,0.874
650323,3415.0,-175.0,7187.0,0.457,0.157,-0.059,0.874
650339,3163.0,-1103.0,7017.0,0.455,0.162,-0.056,0.874
650356,2807.0,-1639.0,6807.0,0.453,0.165,-0.054,0.874
650383,2793.0,-2615.0,7021.0,0.451,0.168,-0.052,0.875
650399,3137.0,-2865.0,7293.0,0.447,0.171,-0.05,0.877
650415,3139.0,-3755.0,7681.0,0.441,0.173,-0.047,0.879
650431,3403.0,-3947.0,7923.0,0.434,0.176,-0.04,0.883
650447,3259.0,-3081.0,8345.0,0.426,0.178,-0.03,0.887
650463,3131.0,-2267.0,8633.0,0.416,0.179,-0.019,0.892
650489,3147.0,-1583.0,8751.0,0.404,0.179,-0.008,0.897
650506,2469.0,-1513.0,8533.0,0.392,0.176,0.003,0.903
650523,1995.0,-1749.0,8149.0,0.379,0.17,0.014,0.909
650540,1769.0,-1753.0,7899.0,0.367,0.162,0.025,0.916
650557,1473.0,-1325.0,7913.0,0.355,0.152,0.036,0.922
650575,1347.0,-353.0,7875.0,0.342,0.141,0.046,0.928
650592,1005.0,567.0,8405.0,0.329,0.128,0.054,0.934
650608,1281.0,1723.0,8813.0,0.315,0.116,0.058,0.94
650624,2923.0,-85.0,8487.0,0.298,0.106,0.059,0.947
650641,1925.0,-7.0,7831.0,0.281,0.097,0.064,0.953
650658,1351.0,-755.0,7543.0,0.265,0.089,0.074,0.957
650675,1741.0,933.0,7797.0,0.251,0.086,0.087,0.96
650701,2015.0,1797.0,8329.0,0.237,0.084,0.102,0.962
650717,1813.0,3775.0,8369.0,0.226,0.083,0.115,0.964
650733,969.0,3681.0,8583.0,0.216,0.083,0.124,0.965
650749,2229.0,4391.0,9095.0,0.205,0.085,0.129,0.967
650765,1899.0,4299.0,9419.0,0.196,0.085,0.128,0.969
650781,2287.0,3613.0,9967.0,0.188,0.085,0.124,0.971
650807,2499.0,2883.0,10637.0,0.183,0.085,0.121,0.972
650823,2739.0,3461.0,11001.0,0.178,0.085,0.12,0.973
650839,3439.0,4809.0,11581.0,0.173,0.084,0.121,0.974
650855,3511.0,6511.0,11783.0,0.169,0.081,0.121,0.975
650872,3845.0,6517.0,11967.0,0.166,0.075,0.117,0.976
650889,3669.0,5177.0,11483.0,0.163,0.065,0.113,0.978
650906,3201.0,3813.0,10607.0,0.162,0.053,0.111,0.979
650923,2745.0,3285.0,9597.0,0.16,0.037,0.114,0.98
650940,1955.0,3205.0,8465.0,0.159,0.02,0.12,0.98
650967,1517.0,4039.0,7197.0,0.159,0.002,0.13,0.979
650983,971.0,4695.0,5947.0,0.159,-0.017,0.139,0.977
650999,329.0,4613.0,5183.0,0.159,-0.037,0.146,0.976
651015,-543.0,4051.0,4535.0,0.161,-0.056,0.152,0.974
651031,-1339.0,3299.0,4351.0,0.163,-0.073,0.156,0.972
651047,-2033.0,2399.0,4287.0,0.167,-0.087,0.16,0.969
651073,-2489.0,1581.0,4445.0,0.171,-0.098,0.165,0.966
651090,-2617.0,883.0,4333.0,0.177,-0.106,0.173,0.963
651107,-2723.0,865.0,4141.0,0.183,-0.112,0.183,0.959
651124,-2639.0,985.0,3955.0,0.188,-0.117,0.196,0.955
651140,-2903.0,903.0,3839.0,0.194,-0.121,0.21,0.951
651156,-3287.0,899.0,3743.0,0.198,-0.125,0.226,0.946
651172,-3607.0,733.0,3657.0,0.202,-0.127,0.242,0.94
651189,-3981.0,449.0,3693.0,0.206,-0.128,0.26,0.935
651215,-3865.0,533.0,3685.0,0.209,-0.127,0.279,0.929
651231,-3881.0,1133.0,3407.0,0.209,-0.123,0.298,0.923
651247,-3807.0,1443.0,3427.0,0.207,-0.117,0.317,0.918
651263,-3725.0,1907.0,3401.0,0.203,-0.109,0.335,0.914
651279,-3495.0,2685.0,3625.0,0.198,-0.098,0.353,0.909
651295,-2613.0,4223.0,3879.0,0.192,-0.083,0.371,0.905
651321,-2063.0,5319.0,4173.0,0.186,-0.068,0.386,0.901
651338,-1149.0,6199.0,4365.0,0.181,-0.051,0.398,0.898
651355,-471.0,6125.0,4651.0,0.176,-0.034,0.408,0.895
651373,141.0,6001.0,4881.0,0.172,-0.016,0.416,0.893
651390,807.0,6831.0,5005.0,0.168,0.001,0.423,0.89
651407,1295.0,7575.0,5283.0,0.165,0.017,0.428,0.888
651424,1371.0,7595.0,5695.0,0.161,0.032,0.431,0.887
651440,1517.0,7335.0,6055.0,0.158,0.048,0.432,0.887
651456,1737.0,7557.0,6289.0,0.155,0.064,0.432,0.886
651473,1961.0,7801.0,6765.0,0.152,0.079,0.431,0.886
651489,2447.0,8489.0,7265.0,0.15,0.095,0.429,0.886
651515,2787.0,9065.0,7483.0,0.148,0.109,0.425,0.886
651531,2779.0,9271.0,8043.0,0.146,0.121,0.42,0.888
651547,2709.0,9455.0,8853.0,0.145,0.132,0.413,0.889
651563,2957.0,9325.0,9441.0,0.145,0.141,0.406,0.891
651579,2977.0,8895.0,9529.0,0.145,0.147,0.398,0.894
651595,3133.0,8653.0,9283.0,0.145,0.151,0.39,0.896
651621,3335.0,8353.0,8841.0,0.145,0.152,0.383,0.9
651638,3235.0,8087.0,8787.0,0.145,0.149,0.376,0.903
651655,2831.0,7767.0,8825.0,0.145,0.144,0.368,0.907
651672,2665.0,7661.0,8669.0,0.144,0.139,0.36,0.911
651689,2567.0,7633.0,8287.0,0.144,0.132,0.351,0.916
651706,2613.0,7539.0,8129.0,0.144,0.125,0.341,0.921
651722,3129.0,7179.0,8029.0,0.143,0.116,0.33,0.926
651739,3405.0,6775.0,7915.0,0.143,0.107,0.318,0.931
651756,3599.0,6529.0,7889.0,0.142,0.095,0.306,0.937
651772,3977.0,6097.0,7557.0,0.141,0.081,0.294,0.942
651799,4525.0,5539.0,6957.0,0.14,0.065,0.282,0.947
651816,4961.0,5201.0,6565.0,0.138,0.046,0.273,0.951
651832,4933.0,4907.0,6199.0,0.137,0.024,0.265,0.954
651848,4253.0,4857.0,6121.0,0.137,0.001,0.259,0.956
651864,3759.0,4693.0,5875.0,0.137,-0.023,0.255,0.957
651880,2801.0,5111.0,6025.0,0.139,-0.047,0.252,0.957
651896,2297.0,5093.0,6161.0,0.143,-0.071,0.247,0.956
651922,2399.0,4467.0,5887.0,0.147,-0.095,0.239,0.955
651939,2313.0,3633.0,5565.0,0.151,-0.121,0.229,0.954
651955,1543.0,2045.0,5243.0,0.155,-0.15,0.22,0.951
651972,1291.0,1795.0,5325.0,0.158,-0.181,0.213,0.947
651989,555.0,1381.0,5317.0,0.162,-0.212,0.208,0.941
652005,391.0,1219.0,5125.0,0.167,-0.243,0.204,0.934
652022,71.0,1127.0,4865.0,0.172,-0.275,0.201,0.924
652039,125.0,1337.0,4605.0,0.178,-0.307,0.198,0.914
652055,-99.0,1731.0,4167.0,0.184,-0.339,0.195,0.902
652082,-399.0,2387.0,3759.0,0.19,-0.372,0.19,0.889
652099,-541.0,2265.0,3465.0,0.194,-0.404,0.181,0.876
652116,-853.0,1973.0,3285.0,0.198,-0.435,0.168,0.862
652133,-1023.0,1417.0,2931.0,0.201,-0.467,0.152,0.848
652149,-957.0,841.0,2047.0,0.202,-0.498,0.133,0.833
652166,-1247.0,-363.0,1643.0,0.201,-0.53,0.113,0.816
652182,-1905.0,-1345.0,1609.0,0.199,-0.561,0.092,0.798
652198,-845.0,-3565.0,2395.0,0.197,-0.59,0.072,0.779
652225,-3391.0,-4345.0,-597.0,0.198,-0.619,0.057,0.758
652242,-7025.0,-3621.0,-2815.0,0.204,-0.648,0.042,0.733
652258,-10837.0,-4521.0,-3281.0,0.216,-0.671,0.026,0.709
652275,-9091.0,-4747.0,-3259.0,0.234,-0.69,0.006,0.685
652292,-8867.0,-6389.0,-5117.0,0.251,-0.708,-0.019,0.66
652309,-10195.0,-10983.0,-6455.0,0.266,-0.725,-0.046,0.633
652326,-9553.0,-13551.0,-6963.0,0.282,-0.741,-0.07,0.605
652342,-6311.0,-16209.0,-7109.0,0.292,-0.757,-0.089,0.578
652359,-7591.0,-19503.0,-5859.0,0.292,-0.773,-0.103,0.554
652376,-8161.0,-17467.0,-4257.0,0.28,-0.789,-0.111,0.536
652393,-6467.0,-15167.0,-4809.0,0.254,-0.803,-0.113,0.526
652410,-4587.0,-11583.0,-6095.0,0.223,-0.818,-0.109,0.52
652436,-3253.0,-7535.0,-7079.0,0.189,-0.831,-0.103,0.513
652453,-3521.0,-4537.0,-6271.0,0.156,-0.843,-0.097,0.506
652470,-3855.0,-1747.0,-5333.0,0.124,-0.852,-0.089,0.5
652487,-2481.0,4137.0,-4187.0,0.095,-0.858,-0.082,0.498
652504,139.0,11801.0,-3929.0,0.072,-0.863,-0.078,0.494
652521,279.0,13579.0,-4695.0,0.055,-0.868,-0.086,0.486
652538,-2767.0,7703.0,-6485.0,0.049,-0.874,-0.098,0.473
652556,-7101.0,-159.0,-7125.0,0.053,-0.88,-0.112,0.458
652573,-8861.0,-5383.0,-6495.0,0.06,-0.884,-0.125,0.446
652592,-8495.0,-5775.0,-6631.0,0.061,-0.888,-0.133,0.437
652608,-7809.0,-7465.0,-6409.0,0.056,-0.892,-0.135,0.428
652625,-6803.0,-10155.0,-7385.0,0.052,-0.897,-0.132,0.418
652642,-6603.0,-10293.0,-7933.0,0.056,-0.904,-0.123,0.406
652658,-6529.0,-2733.0,-8309.0,0.056,-0.91,-0.111,0.395
652675,-5251.0,3661.0,-6911.0,0.045,-0.916,-0.099,0.387
652692,-1627.0,9099.0,-5739.0,0.032,-0.919,-0.092,0.382
652719,-11.0,12469.0,-4119.0,0.03,-0.921,-0.097,0.377
652736,-2801.0,12865.0,-6321.0,0.031,-0.922,-0.109,0.37
652753,-3549.0,9291.0,-6841.0,0.033,-0.922,-0.128,0.363
652770,-3715.0,6247.0,-6213.0,0.035,-0.921,-0.151,0.356
652787,-3747.0,3813.0,-5581.0,0.038,-0.919,-0.175,0.35
652804,-3719.0,1663.0,-6715.0,0.045,-0.916,-0.2,0.343
652821,-4565.0,-485.0,-8129.0,0.052,-0.912,-0.227,0.338
652838,-6005.0,-5443.0,-9089.0,0.053,-0.906,-0.255,0.335
652855,-6887.0,-9179.0,-10089.0,0.054,-0.898,-0.279,0.335
652872,-6749.0,-11951.0,-10761.0,0.055,-0.891,-0.297,0.338
652889,-8223.0,-13697.0,-10293.0,0.054,-0.885,-0.309,0.344
652906,-7617.0,-12241.0,-9407.0,0.05,-0.879,-0.315,0.354
652923,-6647.0,-9001.0,-8605.0,0.041,-0.875,-0.317,0.364
652940,-5471.0,-6077.0,-8401.0,0.028,-0.871,-0.317,0.374
652967,-4809.0,-3883.0,-6947.0,0.013,-0.868,-0.316,0.384
652984,-4385.0,-1635.0,-5919.0,0.001,0.864,0.316,-0.392
653000,-4183.0,263.0,-5355.0,0.013,0.86,0.317,-0.401
653016,-4015.0,1537.0,-5589.0,0.023,0.855,0.319,-0.409
653033,-4115.0,2125.0,-6019.0,0.031,0.849,0.323,-0.417
653050,-275.0,1939.0,-3315.0,0.036,0.843,0.331,-0.422
653067,-1901.0,-2961.0,-3515.0,0.034,0.844,0.339,-0.415
653083,-8635.0,-5283.0,-7269.0,0.021,0.842,0.34,-0.418
653109,-4579.0,23.0,-6309.0,0.008,0.839,0.342,-0.423
653125,-6051.0,-1445.0,-5261.0,0.012,0.839,0.343,-0.423
653142,-3743.0,-10979.0,-6813.0,0.023,0.84,0.344,-0.42
653158,-1563.0,-15821.0,-3413.0,0.028,0.844,0.338,-0.414
653175,3171.0,1709.0,-2615.0,0.019,0.847,0.337,-0.411
653192,-3041.0,467.0,-7723.0,0.015,0.846,0.336,-0.414
653208,-8203.0,-2345.0,-3899.0,0.014,0.845,0.335,-0.417
653225,-7575.0,-625.0,-5123.0,0.015,0.843,0.333,-0.422
653241,-4801.0,-3321.0,-5041.0,0.02,0.841,0.332,-0.427
653268,-4001.0,-3803.0,-6037.0,0.022,0.838,0.331,-0.432
653285,-4747.0,-3175.0,-6823.0,0.023,0.837,0.331,-0.436
653301,-4653.0,-2087.0,-6483.0,0.024,0.835,0.332,-0.438
653318,-5479.0,-2553.0,-5375.0,0.026,0.835,0.331,-0.439
653335,-6169.0,-3571.0,-5961.0,0.028,0.834,0.329,-0.442
653351,-6661.0,-2657.0,-6501.0,0.029,0.834,0.326,-0.444
653368,-7055.0,-2381.0,-6329.0,0.032,0.833,0.324,-0.447
653384,-6475.0,-3051.0,-6991.0,0.034,0.832,0.322,-0.45
653410,-7489.0,-2795.0,-6225.0,0.036,0.831,0.32,-0.454
653426,-7291.0,-2297.0,-6325.0,0.039,0.83,0.317,-0.458
653442,-6435.0,-1839.0,-6925.0,0.043,0.827,0.314,-0.463
653458,-7005.0,-2363.0,-6109.0,0.046,0.825,0.312,-0.468
653475,-6449.0,-3001.0,-6071.0,0.049,0.824,0.308,-0.473
653492,-6567.0,-1317.0,-6161.0,0.052,0.821,0.305,-0.479
653508,-6281.0,-2535.0,-5741.0,0.055,0.819,0.302,-0.485
653525,-6061.0,-2131.0,-5519.0,0.057,0.816,0.3,-0.491
653542,-6697.0,-1643.0,-5201.0,0.059,0.813,0.298,-0.497
653568,-6761.0,-1131.0,-4515.0,0.063,0.81,0.294,-0.504
653585,-6661.0,-1551.0,-4323.0,0.067,0.806,0.29,-0.511
653602,-6293.0,-2343.0,-4925.0,0.071,0.803,0.287,-0.518
653619,-5987.0,-1571.0,-4655.0,0.074,0.8,0.284,-0.524
653635,-6725.0,-1365.0,-3479.0,0.078,0.797,0.281,-0.53
653651,-6297.0,-1297.0,-4053.0,0.082,0.793,0.277,-0.536
653667,-6441.0,-1377.0,-3333.0,0.085,0.79,0.274,-0.541
653684,-6275.0,-1603.0,-3465.0,0.089,0.788,0.27,-0.546
653710,-5755.0,-1017.0,-3457.0,0.093,0.785,0.267,-0.551
653726,-6037.0,-1311.0,-3135.0,0.096,0.783,0.264,-0.555
653742,-5731.0,-2345.0,-3373.0,0.099,0.782,0.261,-0.558
653758,-6181.0,-827.0,-2695.0,0.1,0.78,0.259,-0.561
653774,-6217.0,-1235.0,-2497.0,0.101,0.779,0.257,-0.563
653791,-6347.0,-1307.0,-2967.0,0.104,0.777,0.255,-0.567
653808,-6159.0,-1433.0,-2891.0,0.105,0.775,0.254,-0.569
653825,-5855.0,-1513.0,-3087.0,0.105,0.773,0.254,-0.572
653852,-6273.0,-981.0,-3033.0,0.105,0.771,0.253,-0.575
653869,-6285.0,-2153.0,-2517.0,0.105,0.769,0.253,-0.578
653886,-6371.0,-1593.0,-2777.0,0.104,0.766,0.254,-0.581
653902,-6225.0,-1325.0,-2441.0,0.103,0.763,0.255,-0.585
653919,-6025.0,-1511.0,-1941.0,0.102,0.759,0.257,-0.589
653936,-5417.0,-891.0,-1947.0,0.101,0.755,0.259,-0.593
653953,-3899.0,-769.0,-2325.0,0.1,0.751,0.263,-0.598
653970,-2675.0,-1523.0,-2471.0,0.099,0.747,0.268,-0.601
653986,-2317.0,-3081.0,-2273.0,0.095,0.744,0.274,-0.602
654003,-3087.0,-2179.0,-2011.0,0.091,0.743,0.281,-0.601
654020,-4509.0,791.0,-1401.0,0.085,0.741,0.287,-0.601
654046,-4627.0,435.0,-1777.0,0.082,0.741,0.29,-0.6
654062,-4463.0,-1251.0,-1925.0,0.08,0.74,0.293,-0.6
654078,-4567.0,-3401.0,-2879.0,0.078,0.74,0.295,-0.599
654094,-5813.0,-1273.0,-1961.0,0.073,0.74,0.298,-0.598
654110,-6079.0,-2313.0,-2479.0,0.07,0.74,0.301,-0.598
654126,-7685.0,-1959.0,-2189.0,0.066,0.739,0.304,-0.598
654152,-7641.0,-2759.0,-1887.0,0.063,0.737,0.308,-0.598
654168,-7203.0,-3537.0,-2529.0,0.06,0.735,0.311,-0.599
654185,-8333.0,-2147.0,-2227.0,0.058,0.733,0.313,-0.601
654202,-8873.0,-1465.0,-1971.0,0.058,0.732,0.314,-0.602
654219,-8139.0,-4501.0,-2321.0,0.059,0.73,0.314,-0.604
654236,-7637.0,-3385.0,-2059.0,0.059,0.729,0.314,-0.605
654253,-8387.0,-2937.0,-1929.0,0.059,0.729,0.314,-0.606
654270,-9203.0,-3597.0,-1997.0,0.059,0.728,0.313,-0.608
654287,-8955.0,-2821.0,-1471.0,0.061,0.726,0.311,-0.61
654304,-8779.0,-3635.0,-1431.0,0.063,0.724,0.308,-0.614
654321,-8647.0,-3113.0,-1737.0,0.064,0.722,0.304,-0.618
654339,-8293.0,-3137.0,-1555.0,0.066,0.719,0.301,-0.623
654356,-8305.0,-3315.0,-1499.0,0.068,0.716,0.298,-0.628
654383,-8229.0,-2813.0,-1825.0,0.07,0.713,0.295,-0.632
654400,-8301.0,-2593.0,-1103.0,0.073,0.711,0.292,-0.636
654416,-8705.0,-3033.0,-1243.0,0.076,0.71,0.287,-0.639
654432,-9005.0,-3047.0,-919.0,0.079,0.709,0.283,-0.641
654448,-9053.0,-2255.0,-875.0,0.083,0.708,0.279,-0.643
654464,-9317.0,-2769.0,-913.0,0.087,0.707,0.274,-0.646
654481,-9137.0,-2863.0,-843.0,0.09,0.707,0.27,-0.648
654498,-9371.0,-2523.0,-771.0,0.093,0.706,0.267,-0.65
654524,-8963.0,-2687.0,-1091.0,0.094,0.704,0.264,-0.653
654541,-9011.0,-2177.0,-933.0,0.096,0.702,0.262,-0.655
654558,-9229.0,-2019.0,-833.0,0.097,0.7,0.26,-0.657
654575,-9181.0,-2369.0,-845.0,0.099,0.699,0.259,-0.659
654591,-9097.0,-2477.0,-905.0,0.1,0.697,0.259,-0.661
654607,-9503.0,-2037.0,-987.0,0.1,0.696,0.259,-0.662
654624,-9491.0,-2675.0,-1171.0,0.101,0.696,0.259,-0.662
654641,-10823.0,-2543.0,-1165.0,0.101,0.696,0.26,-0.661
654657,-10431.0,-3619.0,-1547.0,0.1,0.698,0.261,-0.659
654684,-10889.0,-3385.0,-1413.0,0.099,0.699,0.264,-0.657
654700,-11945.0,-3723.0,-1387.0,0.098,0.701,0.266,-0.654
654716,-11975.0,-3455.0,-1947.0,0.097,0.702,0.27,-0.651
654733,-12165.0,-3667.0,-1741.0,0.096,0.704,0.274,-0.648
654750,-11151.0,-4383.0,-2115.0,0.095,0.706,0.279,-0.645
654766,-11975.0,-3977.0,-2207.0,0.093,0.707,0.284,-0.641
654782,-11681.0,-3759.0,-2379.0,0.091,0.709,0.29,-0.636
654808,-11333.0,-3491.0,-1819.0,0.089,0.711,0.295,-0.632
654824,-10761.0,-3505.0,-1847.0,0.088,0.713,0.3,-0.628
654841,-10241.0,-3449.0,-2083.0,0.087,0.714,0.304,-0.625
654857,-9653.0,-3189.0,-2367.0,0.086,0.714,0.309,-0.622
654874,-9113.0,-2965.0,-2207.0,0.085,0.715,0.313,-0.619
654891,-8825.0,-2677.0,-1941.0,0.084,0.715,0.317,-0.617
654907,-9069.0,-2949.0,-1655.0,0.084,0.715,0.32,-0.616
654924,-8895.0,-2595.0,-1865.0,0.084,0.715,0.321,-0.616
654950,-7467.0,-3443.0,-2293.0,0.084,0.714,0.322,-0.616
654967,-7639.0,-2131.0,-2051.0,0.084,0.713,0.324,-0.617
654984,-8031.0,-2711.0,-1959.0,0.084,0.711,0.324,-0.618
655001,-7495.0,-2363.0,-2423.0,0.085,0.71,0.323,-0.62
655018,-7153.0,-2469.0,-2209.0,0.087,0.709,0.322,-0.621
655034,-7151.0,-2543.0,-2215.0,0.088,0.708,0.321,-0.623
655051,-7957.0,-2485.0,-2509.0,0.089,0.707,0.319,-0.625
655067,-7087.0,-3005.0,-2147.0,0.091,0.706,0.317,-0.626
655084,-8037.0,-2331.0,-1647.0,0.093,0.705,0.313,-0.629
655101,-8437.0,-2485.0,-2421.0,0.097,0.704,0.307,-0.633
655117,-7175.0,-2397.0,-2545.0,0.1,0.703,0.302,-0.637
655144,-7003.0,-2043.0,-1807.0,0.105,0.701,0.295,-0.64
655160,-6793.0,-2249.0,-1951.0,0.11,0.7,0.287,-0.645
655176,-5157.0,-1107.0,-1229.0,0.115,0.698,0.279,-0.65
655192,-2919.0,-1293.0,-1379.0,0.121,0.695,0.272,-0.654
655208,-2269.0,-641.0,-1313.0,0.127,0.693,0.265,-0.658
655224,-1499.0,-35.0,-259.0,0.133,0.69,0.26,-0.662
655250,-337.0,403.0,-47.0,0.14,0.688,0.256,-0.664
655267,565.0,-523.0,-697.0,0.145,0.687,0.253,-0.665
655284,963.0,-1089.0,-253.0,0.149,0.686,0.253,-0.665
655300,-415.0,-3015.0,-1065.0,0.149,0.686,0.254,-0.665
655317,-449.0,-2005.0,-373.0,0.146,0.686,0.257,-0.664
655333,-1139.0,-1199.0,297.0,0.14,0.687,0.263,-0.663
655350,-205.0,207.0,543.0,0.134,0.688,0.271,-0.66
655367,-1077.0,-313.0,-1167.0,0.128,0.689,0.279,-0.657
655383,-3013.0,-1303.0,-1257.0,0.122,0.69,0.287,-0.654
655409,-4493.0,-873.0,-1265.0,0.117,0.691,0.294,-0.65
655425,-5467.0,-1067.0,-801.0,0.112,0.692,0.3,-0.647
655441,-6551.0,-2327.0,-1829.0,0.108,0.692,0.305,-0.645
655457,-7985.0,-3707.0,-2725.0,0.105,0.692,0.309,-0.644
655474,-8985.0,-799.0,-1303.0,0.101,0.692,0.313,-0.642
655490,-8161.0,-3231.0,-2385.0,0.099,0.691,0.316,-0.642
655516,-9305.0,-3503.0,-2473.0,0.098,0.69,0.318,-0.642
655532,-9577.0,-2669.0,-1231.0,0.096,0.689,0.322,-0.642
655549,-8119.0,-3639.0,-2095.0,0.096,0.687,0.324,-0.644
655565,-9389.0,-2889.0,-1419.0,0.095,0.684,0.325,-0.646
655582,-9361.0,-2787.0,-1085.0,0.095,0.682,0.325,-0.648
655598,-8255.0,-2665.0,-2111.0,0.096,0.68,0.324,-0.651
655615,-8667.0,-2655.0,-1575.0,0.097,0.678,0.323,-0.653
655632,-8697.0,-3649.0,-1605.0,0.099,0.677,0.322,-0.655
655649,-9285.0,-2655.0,-1677.0,0.1,0.676,0.32,-0.656
655666,-9017.0,-3847.0,-1045.0,0.102,0.676,0.318,-0.657
655692,-10249.0,-3525.0,-367.0,0.104,0.675,0.315,-0.659
655708,-10493.0,-2783.0,-729.0,0.107,0.673,0.311,-0.662
655724,-9079.0,-3089.0,-591.0,0.111,0.671,0.307,-0.666
655740,-8699.0,-4307.0,-1119.0,0.113,0.669,0.304,-0.669
655756,-9623.0,-2505.0,-1083.0,0.114,0.668,0.301,-0.671
655772,-9321.0,-2205.0,-771.0,0.115,0.667,0.299,-0.673
655798,-11519.0,-3323.0,-689.0,0.117,0.665,0.298,-0.674
655815,-11803.0,-4261.0,-789.0,0.119,0.664,0.296,-0.676
655832,-12345.0,-5485.0,-959.0,0.121,0.664,0.294,-0.677
655849,-14577.0,-4001.0,-957.0,0.121,0.663,0.293,-0.678
655866,-13397.0,-5331.0,-1601.0,0.121,0.663,0.293,-0.678
655882,-14541.0,-5017.0,-841.0,0.12,0.663,0.295,-0.677
655898,-13895.0,-4717.0,-1047.0,0.119,0.663,0.297,-0.677
655914,-12827.0,-4703.0,-1463.0,0.117,0.663,0.3,-0.676
655941,-11511.0,-3983.0,-1397.0,0.115,0.663,0.303,-0.674
655957,-11815.0,-4065.0,-1275.0,0.112,0.664,0.307,-0.672
655973,-11121.0,-3339.0,-1133.0,0.109,0.665,0.311,-0.67
655989,-10219.0,-3631.0,-941.0,0.107,0.666,0.315,-0.667
656005,-9769.0,-3787.0,-1031.0,0.105,0.667,0.319,-0.665
656021,-9327.0,-3029.0,-945.0,0.103,0.668,0.322,-0.663
656047,-9191.0,-3169.0,-623.0,0.101,0.669,0.324,-0.661
656063,-9675.0,-3305.0,-475.0,0.1,0.67,0.326,-0.659
656079,-9241.0,-2947.0,-127.0,0.1,0.671,0.326,-0.659
656095,-7603.0,-3797.0,-973.0,0.1,0.67,0.326,-0.659
656111,-8923.0,-2501.0,-711.0,0.101,0.67,0.324,-0.66
656127,-7733.0,-3093.0,-567.0,0.101,0.669,0.323,-0.662
656153,-7255.0,-3065.0,-855.0,0.102,0.668,0.321,-0.663
656170,-7613.0,-2973.0,-1149.0,0.102,0.668,0.32,-0.664
656187,-7921.0,-1717.0,-875.0,0.104,0.668,0.317,-0.665
656204,-6335.0,-3343.0,-1869.0,0.105,0.669,0.315,-0.665
656221,-6693.0,-3315.0,-1669.0,0.107,0.671,0.312,-0.664
656238,-8381.0,-2879.0,-355.0,0.108,0.673,0.308,-0.663
656255,-8481.0,-3887.0,-373.0,0.111,0.676,0.301,-0.663
656272,-8351.0,-1091.0,-881.0,0.118,0.678,0.29,-0.665
656289,-6151.0,-1027.0,-2007.0,0.126,0.678,0.278,-0.668
656306,-5577.0,-2183.0,-1935.0,0.131,0.68,0.267,-0.671
656323,-5507.0,-17.0,-785.0,0.137,0.679,0.257,-0.674
656340,-3633.0,-303.0,-355.0,0.144,0.678,0.248,-0.677
656357,-2659.0,-983.0,-707.0,0.151,0.675,0.239,-0.681
656374,-985.0,-201.0,-601.0,0.157,0.673,0.232,-0.685
656401,133.0,-823.0,-377.0,0.162,0.672,0.227,-0.686
656417,217.0,-1231.0,-573.0,0.165,0.671,0.224,-0.687
656433,-167.0,-153.0,661.0,0.165,0.672,0.223,-0.687
656450,167.0,-917.0,155.0,0.165,0.672,0.225,-0.686
656467,3.0,-1843.0,585.0,0.163,0.672,0.231,-0.684
656483,-311.0,-1565.0,441.0,0.158,0.671,0.239,-0.684
656499,151.0,-1525.0,481.0,0.151,0.67,0.25,-0.682
656525,-621.0,-561.0,-973.0,0.144,0.67,0.26,-0.68
656541,-1775.0,-485.0,287.0,0.135,0.671,0.27,-0.677
656557,-4565.0,-183.0,7.0,0.128,0.673,0.279,-0.673
656573,-4257.0,-1399.0,-1439.0,0.123,0.675,0.285,-0.669
656589,-6781.0,-1719.0,115.0,0.116,0.677,0.293,-0.665
656606,-7965.0,-2835.0,-2039.0,0.112,0.679,0.298,-0.661
656623,-9631.0,-1251.0,-495.0,0.109,0.68,0.303,-0.659
656640,-8671.0,-2865.0,-1079.0,0.107,0.68,0.306,-0.657
656657,-8277.0,-3071.0,-2029.0,0.106,0.681,0.308,-0.656
656683,-8587.0,-2481.0,-1531.0,0.104,0.681,0.312,-0.654
656699,-9207.0,-2885.0,-509.0,0.104,0.681,0.314,-0.653
656716,-8611.0,-3435.0,-1183.0,0.104,0.68,0.316,-0.653
656732,-8447.0,-3135.0,-1407.0,0.104,0.679,0.317,-0.653
656749,-7631.0,-2675.0,-1811.0,0.104,0.679,0.318,-0.653
656765,-7963.0,-2573.0,-2475.0,0.104,0.68,0.32,-0.652
656781,-10653.0,-1417.0,-1419.0,0.106,0.681,0.32,-0.65
656807,-9515.0,-4307.0,-671.0,0.11,0.683,0.318,-0.649
656823,-8683.0,-2409.0,-2555.0,0.114,0.685,0.315,-0.647
656839,-10033.0,-2923.0,-1695.0,0.118,0.687,0.312,-0.646
656856,-10089.0,-2961.0,-425.0,0.121,0.689,0.308,-0.645
656873,-10045.0,-2853.0,-723.0,0.125,0.689,0.304,-0.646
656890,-9433.0,-2625.0,-899.0,0.129,0.688,0.301,-0.648
656906,-8949.0,-2971.0,-843.0,0.133,0.686,0.297,-0.651
656923,-9061.0,-2601.0,-919.0,0.136,0.683,0.293,-0.655
656950,-8785.0,-2701.0,-973.0,0.139,0.68,0.289,-0.659
656966,-9981.0,-1983.0,-847.0,0.143,0.678,0.286,-0.662
656983,-10447.0,-2105.0,-1105.0,0.147,0.675,0.282,-0.665
657000,-10869.0,-2449.0,-1169.0,0.152,0.674,0.279,-0.667
657016,-12051.0,-4079.0,-1693.0,0.156,0.674,0.276,-0.668
657033,-15339.0,-3847.0,-859.0,0.158,0.674,0.274,-0.667
657050,-12975.0,-4387.0,-1717.0,0.159,0.675,0.274,-0.667
657066,-15643.0,-4263.0,-1105.0,0.158,0.675,0.276,-0.666
657082,-14389.0,-3889.0,-923.0,0.156,0.674,0.279,-0.666
657109,-12429.0,-2999.0,-2099.0,0.154,0.674,0.282,-0.665
657125,-12153.0,-3163.0,-1629.0,0.151,0.674,0.286,-0.664
657141,-11373.0,-3247.0,-1711.0,0.148,0.674,0.291,-0.663
657157,-11391.0,-2803.0,-2009.0,0.144,0.674,0.297,-0.661
657173,-11291.0,-2511.0,-1435.0,0.141,0.675,0.303,-0.658
657189,-10853.0,-2607.0,-1359.0,0.138,0.676,0.307,-0.656
657206,-9619.0,-3401.0,-1885.0,0.136,0.676,0.312,-0.653
657233,-9559.0,-3323.0,-1315.0,0.133,0.677,0.316,-0.651
657250,-9819.0,-2481.0,-999.0,0.13,0.677,0.32,-0.65
657266,-8839.0,-2869.0,-1567.0,0.128,0.676,0.324,-0.649
657282,-8703.0,-2867.0,-597.0,0.127,0.675,0.326,-0.649
657299,-8761.0,-2685.0,-785.0,0.126,0.674,0.328,-0.65
657315,-8209.0,-2567.0,-1441.0,0.125,0.672,0.329,-0.651
657331,-7897.0,-2461.0,-413.0,0.126,0.671,0.329,-0.653
657357,-7389.0,-2659.0,-975.0,0.126,0.669,0.329,-0.655
657373,-8561.0,-2525.0,-851.0,0.126,0.667,0.328,-0.657
657390,-7637.0,-2717.0,-461.0,0.128,0.665,0.327,-0.659
657406,-6747.0,-2487.0,-909.0,0.129,0.663,0.325,-0.662
657422,-8171.0,-2483.0,-1213.0,0.13,0.661,0.323,-0.664
657439,-8405.0,-2009.0,-479.0,0.132,0.66,0.32,-0.667
657456,-6879.0,-2697.0,-741.0,0.136,0.659,0.317,-0.669
657473,-7589.0,-2891.0,-1383.0,0.138,0.658,0.312,-0.672
657490,-9221.0,-1971.0,-451.0,0.142,0.657,0.306,-0.674
657507,-7423.0,-1957.0,-163.0,0.147,0.656,0.299,-0.677
657533,-7051.0,-2019.0,-637.0,0.154,0.654,0.29,-0.681
657550,-6901.0,-119.0,-147.0,0.163,0.651,0.28,-0.686
657566,-3547.0,111.0,5.0,0.173,0.647,0.271,-0.691
657583,-891.0,-479.0,-913.0,0.183,0.645,0.262,-0.694
657599,205.0,-855.0,-265.0,0.192,0.644,0.254,-0.695
657616,-159.0,-1861.0,-857.0,0.198,0.647,0.247,-0.694
657633,-623.0,-533.0,375.0,0.202,0.65,0.241,-0.692
657650,-339.0,-1341.0,273.0,0.205,0.652,0.238,-0.69
657666,-269.0,-931.0,423.0,0.205,0.655,0.237,-0.688
657692,-67.0,-1485.0,763.0,0.203,0.656,0.24,-0.686
657708,-173.0,-939.0,295.0,0.198,0.657,0.245,-0.685
657724,-1247.0,-719.0,87.0,0.193,0.657,0.252,-0.684
657740,-389.0,-681.0,557.0,0.186,0.657,0.262,-0.682
657756,-2183.0,-249.0,87.0,0.178,0.657,0.272,-0.68
657782,-4469.0,-451.0,-369.0,0.171,0.658,0.283,-0.677
657799,-4889.0,-501.0,253.0,0.165,0.657,0.294,-0.674
657816,-5543.0,-475.0,-789.0,0.157,0.658,0.302,-0.672
657833,-7001.0,-2027.0,-553.0,0.152,0.658,0.309,-0.67
657850,-7685.0,-1803.0,-451.0,0.147,0.657,0.317,-0.668
657867,-8561.0,-2545.0,-3.0,0.141,0.657,0.324,-0.666
657884,-6915.0,-3235.0,-2143.0,0.136,0.657,0.33,-0.664
657901,-8947.0,-1419.0,-1099.0,0.133,0.657,0.336,-0.661
657918,-9695.0,-3377.0,-645.0,0.133,0.659,0.339,-0.658
657935,-9659.0,-3151.0,-1313.0,0.133,0.662,0.34,-0.655
657952,-9155.0,-3251.0,-1195.0,0.134,0.665,0.34,-0.651
657969,-9469.0,-3309.0,-1755.0,0.136,0.669,0.34,-0.646
657986,-8341.0,-3719.0,-1121.0,0.136,0.673,0.342,-0.642
658003,-9369.0,-2471.0,-1005.0,0.136,0.677,0.343,-0.637
658020,-10761.0,-3397.0,-893.0,0.137,0.679,0.343,-0.634
658047,-9577.0,-3163.0,-1041.0,0.139,0.681,0.343,-0.632
658063,-8851.0,-4095.0,-1635.0,0.141,0.681,0.342,-0.632
658080,-9847.0,-2701.0,-1931.0,0.142,0.682,0.341,-0.632
658096,-9735.0,-3367.0,-1595.0,0.144,0.681,0.338,-0.633
658112,-9591.0,-3497.0,-1219.0,0.146,0.68,0.336,-0.635
658128,-9185.0,-3365.0,-1969.0,0.148,0.678,0.333,-0.638
658144,-9733.0,-3185.0,-1409.0,0.151,0.675,0.331,-0.642
658170,-9283.0,-3029.0,-1801.0,0.154,0.671,0.328,-0.647
658187,-9947.0,-2617.0,-1733.0,0.157,0.668,0.325,-0.651
658204,-10373.0,-2945.0,-1827.0,0.16,0.665,0.323,-0.654
658221,-10765.0,-3027.0,-1749.0,0.163,0.662,0.321,-0.657
658238,-11151.0,-3535.0,-1695.0,0.165,0.661,0.32,-0.658
658255,-13111.0,-4007.0,-1411.0,0.167,0.661,0.32,-0.659
658272,-12679.0,-4087.0,-1483.0,0.167,0.661,0.32,-0.658
658289,-12973.0,-4069.0,-1377.0,0.167,0.662,0.322,-0.656
658306,-13107.0,-4811.0,-1491.0,0.166,0.663,0.325,-0.654
658322,-12717.0,-4519.0,-1379.0,0.164,0.664,0.33,-0.651
658339,-12365.0,-3759.0,-1709.0,0.16,0.665,0.336,-0.647
658366,-13563.0,-4049.0,-851.0,0.158,0.666,0.341,-0.644
658383,-12925.0,-3853.0,-1087.0,0.156,0.667,0.346,-0.641
658400,-11677.0,-4557.0,-1729.0,0.154,0.667,0.351,-0.639
658416,-12331.0,-3939.0,-1039.0,0.152,0.667,0.356,-0.636
658433,-11327.0,-3901.0,-957.0,0.151,0.667,0.359,-0.635
658449,-10273.0,-3415.0,-1387.0,0.15,0.667,0.361,-0.634
658466,-9691.0,-4025.0,-1257.0,0.151,0.667,0.362,-0.634
658483,-8673.0,-3871.0,-1173.0,0.15,0.667,0.362,-0.634
658500,-7263.0,-2617.0,-1913.0,0.149,0.667,0.363,-0.634
658517,-8209.0,-2893.0,-991.0,0.148,0.667,0.363,-0.633
658543,-7975.0,-2451.0,-595.0,0.149,0.667,0.362,-0.634
658559,-6733.0,-3289.0,-1613.0,0.151,0.667,0.359,-0.635
658575,-7001.0,-2223.0,-1345.0,0.152,0.668,0.354,-0.637
658591,-6345.0,-1701.0,-1629.0,0.154,0.668,0.351,-0.638
658608,-7127.0,-2237.0,-1407.0,0.158,0.667,0.347,-0.64
658624,-6915.0,-1743.0,-885.0,0.162,0.667,0.342,-0.642
658641,-6339.0,-2317.0,-1133.0,0.167,0.666,0.335,-0.645
658667,-6617.0,-1059.0,-2393.0,0.172,0.666,0.327,-0.648
658684,-6241.0,-685.0,-1915.0,0.178,0.665,0.321,-0.651
658701,-5703.0,-785.0,-1265.0,0.185,0.665,0.312,-0.653
658718,-6013.0,-865.0,-1271.0,0.192,0.664,0.303,-0.656
658735,-5623.0,123.0,-71.0,0.201,0.663,0.293,-0.659
658752,-3739.0,1089.0,349.0,0.212,0.66,0.284,-0.662
658769,-2341.0,-363.0,-465.0,0.224,0.656,0.277,-0.665
658786,-1505.0,-1153.0,-253.0,0.234,0.654,0.27,-0.667
658803,-619.0,-1717.0,-497.0,0.241,0.653,0.265,-0.667
658820,-313.0,-1941.0,-1331.0,0.244,0.653,0.262,-0.667
658837,-475.0,-1777.0,-115.0,0.243,0.655,0.26,-0.666
658854,-871.0,-1773.0,65.0,0.239,0.657,0.26,-0.665
658871,-1125.0,-1563.0,305.0,0.234,0.659,0.264,-0.664
658888,-1501.0,-1157.0,117.0,0.226,0.66,0.271,-0.663
658905,-463.0,-549.0,493.0,0.217,0.66,0.281,-0.662
658931,-2069.0,-659.0,683.0,0.207,0.66,0.293,-0.66
658947,-2649.0,-1049.0,-59.0,0.199,0.66,0.304,-0.657
658964,-3741.0,1425.0,-1241.0,0.189,0.661,0.314,-0.655
658981,-5319.0,913.0,-659.0,0.181,0.661,0.323,-0.652
658997,-6919.0,-4517.0,-181.0,0.175,0.661,0.333,-0.649
659013,-6125.0,-1115.0,-1189.0,0.166,0.663,0.34,-0.647
659029,-7301.0,-2467.0,-1009.0,0.158,0.664,0.347,-0.643
659055,-9885.0,-2679.0,-639.0,0.151,0.665,0.354,-0.64
659072,-10483.0,283.0,-919.0,0.145,0.665,0.359,-0.638
659089,-6879.0,-3205.0,-1773.0,0.142,0.665,0.364,-0.636
659105,-8885.0,-3411.0,-1791.0,0.137,0.666,0.369,-0.634
659122,-9035.0,-2153.0,-1745.0,0.133,0.666,0.374,-0.632
659139,-8359.0,-4349.0,-2023.0,0.13,0.666,0.378,-0.63
659155,-9423.0,-3137.0,-2039.0,0.128,0.666,0.38,-0.629
659172,-9955.0,-1931.0,-2155.0,0.127,0.666,0.383,-0.628
659189,-7619.0,-5587.0,-2477.0,0.127,0.666,0.384,-0.627
659206,-9103.0,-2943.0,-1861.0,0.127,0.667,0.385,-0.626
659232,-9495.0,-3981.0,-1929.0,0.128,0.667,0.385,-0.625
659249,-9535.0,-3111.0,-2145.0,0.13,0.667,0.383,-0.626
659266,-9401.0,-3119.0,-1323.0,0.133,0.667,0.381,-0.626
659283,-8773.0,-3841.0,-1839.0,0.136,0.666,0.379,-0.628
659300,-8357.0,-4617.0,-1977.0,0.138,0.666,0.376,-0.629
659317,-9289.0,-2637.0,-1259.0,0.14,0.666,0.374,-0.63
659334,-9335.0,-3997.0,-1291.0,0.142,0.666,0.372,-0.631
659352,-9421.0,-3001.0,-1563.0,0.144,0.666,0.369,-0.632
659369,-9109.0,-3367.0,-1333.0,0.146,0.665,0.366,-0.634
659388,-9033.0,-3041.0,-1661.0,0.149,0.665,0.363,-0.636
659406,-9099.0,-3019.0,-2095.0,0.15,0.665,0.36,-0.637
659423,-9979.0,-3471.0,-1951.0,0.153,0.666,0.358,-0.636
659439,-10821.0,-3661.0,-1827.0,0.154,0.667,0.356,-0.636
659455,-11997.0,-4001.0,-2175.0,0.156,0.668,0.354,-0.635
659472,-12853.0,-4149.0,-1927.0,0.157,0.669,0.354,-0.635
659499,-11713.0,-4673.0,-2349.0,0.157,0.67,0.354,-0.634
659516,-13051.0,-4527.0,-1769.0,0.156,0.67,0.356,-0.633
659532,-12699.0,-4985.0,-1959.0,0.154,0.669,0.359,-0.632
659549,-12675.0,-4655.0,-1693.0,0.152,0.668,0.362,-0.632
659565,-11967.0,-4511.0,-1857.0,0.15,0.667,0.366,-0.632
659581,-11557.0,-4785.0,-2145.0,0.147,0.666,0.37,-0.631
659598,-11313.0,-4751.0,-1669.0,0.144,0.665,0.374,-0.63
659624,-10791.0,-4241.0,-1649.0,0.141,0.665,0.379,-0.629
659640,-10239.0,-4033.0,-1735.0,0.138,0.664,0.383,-0.627
659656,-9415.0,-4085.0,-1621.0,0.136,0.664,0.387,-0.625
659672,-8961.0,-3985.0,-1545.0,0.134,0.664,0.39,-0.623
659688,-8807.0,-2701.0,-1847.0,0.133,0.665,0.393,-0.621
659704,-8371.0,-3771.0,-1039.0,0.132,0.665,0.395,-0.62
659720,-8397.0,-3555.0,-789.0,0.132,0.665,0.396,-0.619
659746,-8143.0,-3289.0,-1297.0,0.133,0.665,0.395,-0.62
659762,-6767.0,-2985.0,-1575.0,0.133,0.664,0.393,-0.622
659779,-7311.0,-2451.0,-1425.0,0.134,0.663,0.392,-0.623
659796,-6993.0,-3255.0,-1743.0,0.136,0.663,0.391,-0.624
659812,-7131.0,-2481.0,-1567.0,0.138,0.663,0.388,-0.625
659828,-6991.0,-3321.0,-1275.0,0.14,0.662,0.386,-0.627
659845,-7095.0,-2141.0,-1845.0,0.143,0.661,0.383,-0.629
659861,-7559.0,-2347.0,-1419.0,0.147,0.66,0.379,-0.632
659887,-7423.0,-2743.0,-1001.0,0.151,0.657,0.374,-0.636
659904,-8451.0,-1423.0,-167.0,0.156,0.654,0.368,-0.642
659920,-7441.0,-2903.0,-741.0,0.163,0.65,0.361,-0.649
659936,-5983.0,-2243.0,-1919.0,0.171,0.646,0.353,-0.656
659953,-5835.0,-1127.0,-871.0,0.178,0.641,0.345,-0.662
659969,-5127.0,-2621.0,-799.0,0.185,0.637,0.338,-0.667
659985,-3931.0,183.0,-957.0,0.193,0.634,0.33,-0.672
660011,-2411.0,-1913.0,-353.0,0.201,0.633,0.322,-0.675
660027,-1215.0,-1213.0,-1103.0,0.208,0.633,0.314,-0.676
660043,-1131.0,-1539.0,-597.0,0.213,0.635,0.307,-0.676
660060,-907.0,-1863.0,-1.0,0.215,0.638,0.302,-0.675
660076,-905.0,-1655.0,69.0,0.216,0.64,0.298,-0.674
660092,-1133.0,-1069.0,137.0,0.214,0.642,0.298,-0.673
660118,-1257.0,-1291.0,425.0,0.211,0.643,0.301,-0.672
660135,-1051.0,-565.0,181.0,0.207,0.643,0.305,-0.671
660152,-1217.0,-1093.0,-189.0,0.202,0.643,0.311,-0.67
660169,-2621.0,-947.0,295.0,0.196,0.643,0.319,-0.669
660185,-2707.0,-609.0,429.0,0.191,0.641,0.328,-0.667
660201,-3787.0,-895.0,-143.0,0.185,0.64,0.337,-0.666
660220,-5357.0,-1567.0,-633.0,0.179,0.64,0.345,-0.663
660236,-5497.0,-2009.0,-145.0,0.173,0.64,0.35,-0.661
660252,-7007.0,-1855.0,-899.0,0.167,0.64,0.356,-0.66
660271,-8959.0,-1515.0,-903.0,0.162,0.64,0.36,-0.659
660289,-7707.0,-4597.0,-1135.0,0.158,0.64,0.364,-0.658
660305,-9207.0,-2327.0,-411.0,0.154,0.64,0.368,-0.657
660321,-9387.0,-3795.0,-897.0,0.151,0.64,0.37,-0.657
660348,-9761.0,-2217.0,-511.0,0.15,0.639,0.371,-0.657
660364,-8559.0,-3165.0,-395.0,0.15,0.637,0.371,-0.659
660381,-7171.0,-5169.0,-1535.0,0.15,0.636,0.372,-0.66
660397,-9307.0,-2299.0,-707.0,0.149,0.635,0.371,-0.661
660414,-8963.0,-3369.0,-129.0,0.15,0.633,0.37,-0.663
660430,-9083.0,-3089.0,-797.0,0.151,0.631,0.369,-0.665
660456,-8451.0,-3131.0,-803.0,0.153,0.629,0.368,-0.667
660473,-8265.0,-4597.0,-491.0,0.154,0.628,0.367,-0.669
660490,-9895.0,-2849.0,-831.0,0.154,0.626,0.366,-0.671
660507,-9445.0,-3267.0,-349.0,0.156,0.625,0.364,-0.673
660524,-9567.0,-4019.0,59.0,0.158,0.623,0.362,-0.675
660541,-9485.0,-3363.0,-961.0,0.16,0.622,0.36,-0.677
660558,-8521.0,-2797.0,-491.0,0.162,0.622,0.357,-0.678
660575,-8455.0,-3565.0,235.0,0.164,0.621,0.356,-0.679
660591,-8973.0,-3829.0,-119.0,0.166,0.62,0.354,-0.68
660607,-9067.0,-2859.0,407.0,0.168,0.619,0.353,-0.681
660623,-9343.0,-3811.0,667.0,0.171,0.618,0.351,-0.682
660649,-10249.0,-3247.0,299.0,0.174,0.617,0.349,-0.684
660665,-10339.0,-3957.0,281.0,0.177,0.616,0.347,-0.685
660681,-11443.0,-4577.0,379.0,0.18,0.614,0.345,-0.686
660697,-13149.0,-5111.0,237.0,0.182,0.613,0.344,-0.687
660713,-12307.0,-4523.0,-255.0,0.183,0.613,0.343,-0.688
660730,-12793.0,-5129.0,-225.0,0.184,0.613,0.345,-0.687
660747,-13615.0,-5263.0,-163.0,0.183,0.614,0.347,-0.685
660764,-12039.0,-4629.0,-393.0,0.182,0.615,0.351,-0.682
660790,-11515.0,-4465.0,-395.0,0.18,0.617,0.356,-0.679
660806,-11073.0,-4793.0,-421.0,0.176,0.619,0.362,-0.675
660822,-10545.0,-4287.0,-415.0,0.172,0.621,0.368,-0.671
660838,-10537.0,-3691.0,167.0,0.168,0.623,0.374,-0.666
660854,-10559.0,-3579.0,45.0,0.165,0.624,0.379,-0.663
660870,-9625.0,-3625.0,-311.0,0.163,0.626,0.384,-0.659
660896,-8347.0,-3589.0,-393.0,0.161,0.627,0.387,-0.656
660912,-8667.0,-3219.0,-621.0,0.159,0.629,0.391,-0.653
660928,-9285.0,-3685.0,-253.0,0.157,0.631,0.394,-0.65
660944,-7745.0,-3119.0,-481.0,0.156,0.632,0.396,-0.647
660960,-7713.0,-3473.0,-733.0,0.155,0.633,0.399,-0.645
660976,-7929.0,-3407.0,-921.0,0.154,0.634,0.401,-0.643
661003,-7689.0,-2909.0,-781.0,0.154,0.635,0.402,-0.641
661019,-7437.0,-3333.0,-1249.0,0.154,0.636,0.404,-0.639
661035,-8213.0,-2825.0,-717.0,0.154,0.638,0.404,-0.638
661052,-8319.0,-3695.0,-533.0,0.156,0.639,0.403,-0.637
661068,-7263.0,-3101.0,-1809.0,0.158,0.639,0.401,-0.637
661085,-7337.0,-2855.0,-1429.0,0.159,0.64,0.399,-0.637
661101,-7927.0,-3171.0,-1173.0,0.161,0.64,0.397,-0.638
661118,-8335.0,-2549.0,-1659.0,0.164,0.64,0.393,-0.639
661144,-6901.0,-3941.0,-1755.0,0.167,0.64,0.39,-0.641
661161,-7435.0,-2437.0,-1261.0,0.169,0.639,0.385,-0.644
661178,-7875.0,-3081.0,-1301.0,0.172,0.639,0.379,-0.647
661194,-6917.0,-2311.0,-1115.0,0.176,0.638,0.372,-0.651
661211,-5943.0,-2387.0,-1313.0,0.18,0.638,0.365,-0.654
661228,-6507.0,-1215.0,-905.0,0.183,0.638,0.355,-0.658
661244,-5247.0,-345.0,-359.0,0.19,0.638,0.345,-0.661
661260,-3983.0,-885.0,-493.0,0.198,0.638,0.336,-0.665
661286,-2195.0,-539.0,-721.0,0.207,0.637,0.326,-0.667
661302,-625.0,-633.0,-601.0,0.214,0.638,0.319,-0.668
661318,-121.0,-1535.0,-583.0,0.218,0.64,0.313,-0.667
661335,-329.0,-1653.0,-333.0,0.219,0.643,0.309,-0.666
661351,-739.0,-881.0,367.0,0.218,0.646,0.308,-0.663
661368,-1145.0,-953.0,587.0,0.216,0.649,0.309,-0.661
661385,-1027.0,-1219.0,661.0,0.213,0.65,0.313,-0.658
661401,-485.0,-1303.0,189.0,0.208,0.651,0.32,-0.656
661428,-1093.0,-1513.0,-53.0,0.202,0.652,0.328,-0.653
661444,-2571.0,-837.0,-471.0,0.196,0.653,0.337,-0.649
661460,-4661.0,393.0,693.0,0.188,0.654,0.348,-0.645
661476,-3905.0,-665.0,-147.0,0.183,0.655,0.359,-0.64
661492,-4145.0,-2967.0,-2005.0,0.176,0.656,0.367,-0.636
661509,-7989.0,-185.0,-1439.0,0.167,0.657,0.375,-0.633
661525,-7411.0,-1857.0,-935.0,0.162,0.657,0.383,-0.629
661552,-8237.0,-3569.0,-1297.0,0.157,0.656,0.39,-0.627
661568,-10057.0,-1457.0,-1669.0,0.153,0.654,0.396,-0.626
661584,-8709.0,-3247.0,-1641.0,0.151,0.652,0.401,-0.625
661600,-9577.0,-3831.0,-1479.0,0.15,0.65,0.404,-0.626
661617,-8839.0,-3579.0,-2101.0,0.149,0.648,0.405,-0.627
661634,-8089.0,-4901.0,-2265.0,0.149,0.647,0.406,-0.628
661650,-9029.0,-3301.0,-1913.0,0.147,0.646,0.407,-0.629
661667,-8455.0,-4197.0,-1325.0,0.147,0.644,0.408,-0.63
661684,-8477.0,-3841.0,-1983.0,0.147,0.643,0.408,-0.631
661711,-8367.0,-3675.0,-1587.0,0.147,0.643,0.409,-0.631
661727,-8321.0,-4017.0,-1601.0,0.147,0.642,0.41,-0.631
661743,-9717.0,-3639.0,-1151.0,0.148,0.642,0.41,-0.63
661759,-8021.0,-4417.0,-1439.0,0.15,0.642,0.409,-0.63
661775,-9023.0,-4317.0,-1165.0,0.151,0.643,0.408,-0.631
661791,-8435.0,-3963.0,-1519.0,0.152,0.643,0.406,-0.631
661817,-9281.0,-3209.0,-837.0,0.154,0.643,0.405,-0.631
661833,-8941.0,-5029.0,-579.0,0.156,0.643,0.403,-0.632
661849,-8889.0,-3617.0,-1145.0,0.159,0.642,0.401,-0.634
661865,-8393.0,-3933.0,-1047.0,0.161,0.641,0.398,-0.637
661882,-9127.0,-3417.0,-707.0,0.164,0.639,0.396,-0.639
661899,-8589.0,-3981.0,-873.0,0.166,0.638,0.393,-0.641
661916,-9159.0,-3471.0,-499.0,0.169,0.637,0.391,-0.643
661933,-9431.0,-3751.0,-383.0,0.171,0.635,0.389,-0.644
661959,-9485.0,-4467.0,-663.0,0.174,0.634,0.388,-0.646
661976,-9937.0,-4025.0,-845.0,0.176,0.633,0.387,-0.647
661992,-12539.0,-5525.0,-997.0,0.176,0.634,0.388,-0.646
662008,-12087.0,-4483.0,-1153.0,0.177,0.634,0.389,-0.644
662025,-12795.0,-5503.0,-1255.0,0.177,0.635,0.391,-0.642
662041,-13999.0,-5671.0,-1173.0,0.177,0.636,0.394,-0.639
662058,-13487.0,-5835.0,-2205.0,0.175,0.637,0.399,-0.636
662075,-12015.0,-5545.0,-2261.0,0.171,0.638,0.405,-0.632
662092,-13153.0,-5611.0,-1893.0,0.167,0.639,0.412,-0.627
662109,-12371.0,-5377.0,-2199.0,0.163,0.641,0.419,-0.622
662135,-10889.0,-4583.0,-1829.0,0.161,0.642,0.426,-0.617
662151,-10205.0,-4633.0,-1729.0,0.159,0.644,0.431,-0.612
662168,-8749.0,-4827.0,-2043.0,0.157,0.646,0.436,-0.607
662184,-8165.0,-3921.0,-1757.0,0.154,0.648,0.441,-0.602
662201,-8383.0,-3665.0,-1655.0,0.153,0.65,0.444,-0.598
662218,-8757.0,-3267.0,-1079.0,0.153,0.651,0.446,-0.595
662234,-6635.0,-3891.0,-1699.0,0.154,0.652,0.446,-0.594
662261,-7767.0,-3023.0,-1485.0,0.156,0.652,0.445,-0.594
662277,-8297.0,-3109.0,-1975.0,0.158,0.652,0.444,-0.595
662293,-6479.0,-2789.0,-2289.0,0.16,0.651,0.442,-0.596
662309,-6737.0,-3939.0,-2399.0,0.163,0.651,0.44,-0.597
662325,-9157.0,-3157.0,-2149.0,0.165,0.651,0.437,-0.598
662341,-8215.0,-2125.0,-2211.0,0.169,0.651,0.433,-0.6
662358,-7391.0,-2261.0,-2407.0,0.174,0.651,0.428,-0.602
662375,-7205.0,-3157.0,-2719.0,0.179,0.651,0.423,-0.604
662401,-8409.0,-3437.0,-1965.0,0.185,0.651,0.416,-0.607
662418,-7771.0,807.0,-1899.0,0.192,0.652,0.409,-0.61
662434,-5043.0,-1331.0,-2319.0,0.203,0.652,0.4,-0.612
662451,-4771.0,-653.0,-1813.0,0.214,0.653,0.388,-0.615
662468,-2799.0,419.0,-1133.0,0.227,0.655,0.374,-0.616
662484,-139.0,2003.0,-1215.0,0.243,0.657,0.363,-0.614
662501,-205.0,1867.0,-1415.0,0.259,0.661,0.356,-0.608
662517,491.0,-2349.0,1795.0,0.27,0.668,0.343,-0.603
662534,2441.0,63.0,-157.0,0.274,0.673,0.337,-0.598
662561,2013.0,457.0,231.0,0.252,0.68,0.334,-0.602
662577,-1527.0,10609.0,-2705.0,0.23,0.683,0.339,-0.605
662593,-1689.0,-3863.0,-4241.0,0.226,0.676,0.36,-0.602
662609,-6877.0,-8865.0,-6479.0,0.213,0.67,0.372,-0.606
662625,-8685.0,-8337.0,-6641.0,0.208,0.664,0.377,-0.612
662642,9651.0,-1441.0,18779.0,0.2,0.667,0.388,-0.603
662658,-4515.0,-9131.0,10269.0,0.181,0.677,0.39,-0.598
662684,-8009.0,-235.0,2203.0,0.17,0.685,0.395,-0.589
662701,-5121.0,-717.0,-1421.0,0.159,0.691,0.401,-0.58
662717,7317.0,21881.0,-10861.0,0.16,0.688,0.422,-0.568
662733,9151.0,-14751.0,1263.0,0.157,0.687,0.429,-0.566
662750,-12359.0,831.0,-6835.0,0.152,0.685,0.436,-0.563
662766,-11001.0,1901.0,-3391.0,0.148,0.684,0.445,-0.558
662782,-1031.0,-3943.0,-1765.0,0.148,0.684,0.453,-0.552
662809,-8579.0,-3485.0,-4573.0,0.144,0.684,0.458,-0.549
662826,-9941.0,-2977.0,-4421.0,0.143,0.686,0.462,-0.545
662843,-8095.0,-4407.0,-4605.0,0.142,0.686,0.469,-0.538
662859,-8841.0,-5637.0,-3859.0,0.141,0.687,0.47,-0.536
662875,-10963.0,-3371.0,-3329.0,0.141,0.688,0.469,-0.536
662891,-8215.0,-2907.0,-4393.0,0.143,0.689,0.468,-0.535
662907,-8025.0,-4393.0,-3661.0,0.145,0.689,0.466,-0.535
662924,-9117.0,-4841.0,-2959.0,0.146,0.69,0.464,-0.536
662951,-10391.0,-3445.0,-2503.0,0.148,0.689,0.461,-0.538
662967,-9015.0,-3965.0,-3745.0,0.15,0.689,0.459,-0.541
662984,-9449.0,-4659.0,-2545.0,0.153,0.687,0.456,-0.544
663000,-10183.0,-4083.0,-2761.0,0.155,0.686,0.451,-0.549
663017,-8927.0,-3379.0,-4283.0,0.158,0.685,0.447,-0.554
663034,-9197.0,-3265.0,-2611.0,0.161,0.683,0.443,-0.559
663050,-9293.0,-3645.0,-2483.0,0.163,0.681,0.438,-0.564
663066,-8621.0,-3319.0,-3605.0,0.165,0.678,0.434,-0.569
663092,-8629.0,-3043.0,-2677.0,0.167,0.676,0.432,-0.573
663108,-8815.0,-3347.0,-2455.0,0.168,0.673,0.43,-0.577
663124,-8847.0,-2689.0,-3237.0,0.169,0.672,0.428,-0.58
663141,-9127.0,-3041.0,-2467.0,0.17,0.67,0.427,-0.582
663158,-9435.0,-4071.0,-2267.0,0.171,0.67,0.426,-0.584
663174,-10147.0,-3213.0,-2847.0,0.172,0.669,0.425,-0.584
663191,-10473.0,-4459.0,-2283.0,0.173,0.669,0.424,-0.585
663207,-11421.0,-4479.0,-2689.0,0.173,0.67,0.423,-0.585
663224,-10609.0,-4911.0,-3705.0,0.173,0.67,0.424,-0.584
663251,-11939.0,-4635.0,-2281.0,0.172,0.67,0.426,-0.583
663267,-11869.0,-4863.0,-2639.0,0.171,0.67,0.427,-0.582
663283,-11361.0,-4907.0,-3697.0,0.171,0.67,0.429,-0.581
663300,-10501.0,-4659.0,-3271.0,0.169,0.67,0.433,-0.579
663316,-11487.0,-4327.0,-2885.0,0.167,0.671,0.436,-0.576
663332,-10827.0,-4137.0,-3155.0,0.165,0.672,0.44,-0.572
663348,-9915.0,-3803.0,-2803.0,0.164,0.674,0.443,-0.568
663375,-9619.0,-3731.0,-2841.0,0.163,0.677,0.445,-0.563
663391,-9255.0,-3819.0,-2805.0,0.161,0.679,0.448,-0.559
663407,-8765.0,-3173.0,-2301.0,0.16,0.68,0.451,-0.556
663424,-8649.0,-3475.0,-2431.0,0.159,0.681,0.452,-0.554
663441,-8699.0,-3017.0,-2283.0,0.158,0.681,0.453,-0.553
663457,-7823.0,-3381.0,-2475.0,0.159,0.679,0.454,-0.554
663474,-8485.0,-2911.0,-2039.0,0.159,0.678,0.455,-0.556
663491,-8051.0,-3027.0,-2025.0,0.161,0.675,0.453,-0.559
663508,-7695.0,-2597.0,-2333.0,0.163,0.674,0.45,-0.563
663534,-7053.0,-2729.0,-3185.0,0.164,0.672,0.449,-0.566
663550,-6639.0,-2841.0,-2677.0,0.166,0.67,0.447,-0.569
663567,-7337.0,-2955.0,-1917.0,0.167,0.669,0.444,-0.572
663583,-7687.0,-2457.0,-2287.0,0.17,0.668,0.441,-0.574
663600,-7015.0,-3423.0,-2877.0,0.172,0.668,0.438,-0.576
663617,-7451.0,-2147.0,-2215.0,0.175,0.669,0.435,-0.577
663634,-7037.0,-4311.0,-1477.0,0.176,0.669,0.431,-0.579
663650,-8483.0,-2927.0,-1353.0,0.179,0.67,0.424,-0.582
663667,-8321.0,-1941.0,-1947.0,0.182,0.671,0.417,-0.585
663694,-6583.0,-3651.0,-1785.0,0.185,0.673,0.409,-0.588
663710,-7163.0,-2413.0,-799.0,0.187,0.674,0.399,-0.593
663726,-7173.0,-2049.0,-1165.0,0.189,0.675,0.388,-0.599
663742,-6207.0,491.0,-645.0,0.195,0.674,0.376,-0.605
663758,-3545.0,-671.0,-705.0,0.203,0.673,0.365,-0.611
663774,-1957.0,-1087.0,-1185.0,0.209,0.671,0.353,-0.617
663800,-1045.0,-345.0,-939.0,0.215,0.671,0.343,-0.622
663817,61.0,-259.0,-617.0,0.219,0.67,0.337,-0.625
663833,11.0,-853.0,-23.0,0.221,0.669,0.333,-0.626
663849,-691.0,-931.0,637.0,0.221,0.668,0.332,-0.628
663866,-607.0,-1021.0,81.0,0.22,0.667,0.334,-0.628
663882,37.0,-951.0,-315.0,0.217,0.666,0.339,-0.628
663899,139.0,-543.0,-937.0,0.213,0.666,0.346,-0.625
663916,-449.0,-1303.0,-995.0,0.207,0.666,0.357,-0.621
663933,-599.0,-475.0,183.0,0.199,0.668,0.368,-0.616
663950,-3509.0,-3015.0,795.0,0.19,0.669,0.38,-0.61
663976,-3567.0,-349.0,-1713.0,0.181,0.67,0.39,-0.605
663992,-5961.0,889.0,-617.0,0.176,0.67,0.4,-0.6
664008,-6323.0,-4411.0,-1751.0,0.171,0.67,0.409,-0.596
664024,-7195.0,-2737.0,-3039.0,0.168,0.67,0.415,-0.592
664040,-8301.0,-2533.0,-2231.0,0.164,0.67,0.423,-0.588
664057,-8695.0,-3751.0,-1965.0,0.161,0.669,0.43,-0.584
664083,-9143.0,-4359.0,-2509.0,0.159,0.669,0.433,-0.582
664100,-8053.0,-3497.0,-3363.0,0.157,0.669,0.437,-0.581
664116,-9449.0,-3801.0,-2045.0,0.156,0.669,0.44,-0.579
664133,-9165.0,-4359.0,-1965.0,0.156,0.668,0.441,-0.579
664149,-9401.0,-3997.0,-1907.0,0.156,0.667,0.44,-0.581
664166,-8149.0,-4331.0,-3399.0,0.157,0.666,0.438,-0.583
664183,-8763.0,-3491.0,-2429.0,0.157,0.666,0.437,-0.584
664199,-8045.0,-4605.0,-2025.0,0.158,0.665,0.435,-0.586
664216,-8945.0,-3835.0,-2397.0,0.159,0.665,0.432,-0.589
664233,-7831.0,-4117.0,-2931.0,0.16,0.664,0.429,-0.591
664260,-8871.0,-3269.0,-1529.0,0.161,0.664,0.427,-0.593
664276,-8497.0,-3907.0,-2257.0,0.163,0.664,0.423,-0.595
664292,-8913.0,-3005.0,-1705.0,0.165,0.664,0.419,-0.597
664309,-8259.0,-3263.0,-1515.0,0.168,0.665,0.414,-0.598
664326,-8331.0,-3479.0,-1621.0,0.171,0.666,0.409,-0.6
664342,-8203.0,-2855.0,-1729.0,0.174,0.667,0.404,-0.601
664358,-8415.0,-2981.0,-1159.0,0.178,0.667,0.401,-0.602
664384,-8621.0,-2983.0,-1133.0,0.18,0.668,0.398,-0.603
664400,-9401.0,-2997.0,-525.0,0.183,0.668,0.395,-0.604
664417,-9717.0,-2947.0,-525.0,0.186,0.667,0.391,-0.606
664433,-10277.0,-3119.0,-759.0,0.189,0.667,0.388,-0.608
664450,-10475.0,-2751.0,-1535.0,0.191,0.666,0.385,-0.61
664467,-11171.0,-3467.0,-1949.0,0.192,0.666,0.383,-0.611
664483,-12751.0,-3941.0,-2027.0,0.193,0.666,0.382,-0.61
664500,-12157.0,-3743.0,-2441.0,0.193,0.668,0.383,-0.609
664526,-13173.0,-4349.0,-2319.0,0.191,0.67,0.384,-0.606
664542,-13311.0,-3663.0,-2163.0,0.189,0.672,0.386,-0.602
664558,-12281.0,-4131.0,-2963.0,0.186,0.675,0.39,-0.598
664574,-11247.0,-3635.0,-2739.0,0.183,0.678,0.395,-0.593
664590,-11001.0,-3751.0,-2723.0,0.178,0.681,0.401,-0.587
664607,-11311.0,-3411.0,-2623.0,0.173,0.684,0.407,-0.58
664623,-10077.0,-3597.0,-2385.0,0.168,0.687,0.413,-0.574
664640,-10413.0,-2861.0,-1763.0,0.164,0.689,0.419,-0.568
664666,-9167.0,-3581.0,-2613.0,0.161,0.691,0.424,-0.563
664683,-8843.0,-3259.0,-2589.0,0.158,0.692,0.429,-0.559
664700,-8969.0,-3155.0,-1899.0,0.155,0.692,0.433,-0.556
664717,-8379.0,-3091.0,-2283.0,0.153,0.692,0.437,-0.554
664733,-8107.0,-3361.0,-1695.0,0.152,0.691,0.439,-0.553
664750,-8625.0,-2227.0,-1873.0,0.153,0.691,0.44,-0.553
664767,-6643.0,-4129.0,-3165.0,0.154,0.69,0.439,-0.554
664783,-6799.0,-3181.0,-2681.0,0.153,0.689,0.44,-0.554
664810,-7799.0,-2807.0,-1911.0,0.154,0.689,0.44,-0.555
664826,-7861.0,-3113.0,-2171.0,0.156,0.689,0.439,-0.556
664842,-6815.0,-2925.0,-2323.0,0.158,0.689,0.436,-0.558
664858,-7085.0,-3049.0,-2057.0,0.16,0.689,0.434,-0.559
664875,-7137.0,-3029.0,-2575.0,0.162,0.689,0.431,-0.56
664891,-7229.0,-2793.0,-1671.0,0.164,0.688,0.428,-0.562
664908,-7375.0,-2677.0,-1811.0,0.168,0.688,0.424,-0.565
664924,-7201.0,-3147.0,-2425.0,0.172,0.687,0.419,-0.568
664950,-8253.0,-2253.0,-1339.0,0.176,0.686,0.414,-0.572
664966,-6847.0,-3637.0,-2749.0,0.18,0.685,0.408,-0.576
664983,-8243.0,-2001.0,-1331.0,0.185,0.683,0.402,-0.581
665000,-7313.0,-2613.0,-1909.0,0.19,0.681,0.394,-0.587
665016,-7353.0,-1351.0,-1423.0,0.197,0.68,0.384,-0.593
665033,-5133.0,-1865.0,-1515.0,0.203,0.679,0.374,-0.599
665050,-4189.0,-819.0,-1245.0,0.21,0.678,0.363,-0.604
665067,-2851.0,-1813.0,-1419.0,0.216,0.677,0.353,-0.609
665093,-1719.0,-261.0,-693.0,0.221,0.676,0.344,-0.613
665109,-915.0,-551.0,-561.0,0.226,0.676,0.337,-0.615
665125,-927.0,-1163.0,-425.0,0.23,0.675,0.333,-0.617
665141,-901.0,-47.0,-335.0,0.232,0.674,0.331,-0.618
665157,-315.0,-649.0,-407.0,0.233,0.674,0.332,-0.618
665173,-279.0,-1103.0,-713.0,0.232,0.674,0.335,-0.616
665190,-191.0,-927.0,-495.0,0.229,0.675,0.34,-0.614
665207,-391.0,-597.0,-517.0,0.225,0.676,0.346,-0.61
665233,-1761.0,-1805.0,-429.0,0.219,0.678,0.354,-0.606
665249,-2637.0,-1417.0,-857.0,0.211,0.68,0.363,-0.602
665266,-3003.0,-2061.0,-319.0,0.201,0.681,0.374,-0.596
665282,-3699.0,1473.0,-1719.0,0.191,0.682,0.384,-0.591
665299,-5551.0,-507.0,-1429.0,0.184,0.685,0.394,-0.585
665316,-7437.0,-2481.0,-363.0,0.179,0.686,0.401,-0.581
665333,-7961.0,-1073.0,-1491.0,0.176,0.686,0.405,-0.578
665349,-6451.0,-3865.0,-3769.0,0.172,0.687,0.411,-0.575
665366,-9343.0,-1935.0,-1649.0,0.169,0.686,0.418,-0.571
665393,-8511.0,-3539.0,-1679.0,0.166,0.685,0.423,-0.569
665409,-9919.0,-2761.0,-2977.0,0.165,0.684,0.426,-0.569
665425,-10035.0,-1817.0,-2765.0,0.164,0.683,0.429,-0.568
665441,-8843.0,-4625.0,-2101.0,0.165,0.682,0.43,-0.568
665457,-9809.0,-3783.0,-3249.0,0.164,0.682,0.43,-0.568
665473,-9249.0,-3797.0,-3695.0,0.164,0.682,0.43,-0.569
665490,-10239.0,-3135.0,-2081.0,0.164,0.682,0.429,-0.569
665516,-9553.0,-3571.0,-2807.0,0.165,0.682,0.427,-0.57
665533,-9619.0,-3505.0,-2681.0,0.167,0.681,0.425,-0.573
665550,-9877.0,-3257.0,-2041.0,0.169,0.681,0.421,-0.575
665566,-9101.0,-3285.0,-2203.0,0.171,0.68,0.417,-0.579
665583,-8941.0,-3639.0,-2277.0,0.173,0.678,0.413,-0.583
665599,-8869.0,-3111.0,-1559.0,0.175,0.676,0.411,-0.586
665616,-9013.0,-2817.0,-1837.0,0.178,0.674,0.407,-0.59
665633,-8691.0,-2907.0,-2011.0,0.18,0.672,0.403,-0.594
665649,-8415.0,-2635.0,-1363.0,0.182,0.67,0.4,-0.598
665675,-9049.0,-2659.0,-915.0,0.185,0.669,0.396,-0.601
665691,-8859.0,-2659.0,-1325.0,0.187,0.667,0.393,-0.604
665707,-8917.0,-2555.0,-1089.0,0.19,0.666,0.391,-0.606
665724,-9149.0,-4099.0,-1293.0,0.192,0.665,0.39,-0.608
665740,-10251.0,-3735.0,-1819.0,0.193,0.664,0.389,-0.608
665756,-12575.0,-3953.0,-2139.0,0.193,0.665,0.39,-0.607
665773,-12015.0,-4061.0,-1817.0,0.193,0.667,0.392,-0.603
665799,-12841.0,-4973.0,-1969.0,0.192,0.67,0.394,-0.599
665816,-13415.0,-4963.0,-2143.0,0.19,0.673,0.396,-0.595
665832,-11959.0,-4567.0,-2387.0,0.188,0.677,0.401,-0.588
665849,-10839.0,-3985.0,-3033.0,0.184,0.68,0.408,-0.581
665866,-11053.0,-3855.0,-2321.0,0.179,0.684,0.415,-0.573
665882,-10997.0,-3645.0,-2181.0,0.175,0.687,0.422,-0.565
665898,-10389.0,-2923.0,-2275.0,0.171,0.69,0.428,-0.558
665915,-9001.0,-3253.0,-2085.0,0.167,0.692,0.435,-0.551
665942,-8975.0,-2879.0,-2015.0,0.163,0.694,0.44,-0.546
665958,-8865.0,-2765.0,-2767.0,0.161,0.694,0.446,-0.542
665974,-8553.0,-2431.0,-2439.0,0.159,0.694,0.451,-0.538
665990,-8449.0,-3309.0,-2101.0,0.158,0.693,0.455,-0.536
666006,-7577.0,-3445.0,-2581.0,0.157,0.692,0.458,-0.535
666023,-8455.0,-2965.0,-2041.0,0.157,0.691,0.46,-0.535
666039,-8169.0,-2817.0,-2863.0,0.157,0.69,0.461,-0.535
666066,-7057.0,-3163.0,-3289.0,0.158,0.69,0.462,-0.534
666083,-6913.0,-3437.0,-2949.0,0.158,0.69,0.464,-0.534
666100,-8455.0,-2807.0,-2637.0,0.158,0.69,0.464,-0.532
666116,-8299.0,-2345.0,-2891.0,0.16,0.691,0.464,-0.531
666132,-7387.0,-3541.0,-2755.0,0.161,0.692,0.463,-0.53
666149,-7841.0,-2461.0,-2393.0,0.163,0.694,0.461,-0.529
666166,-7621.0,-3005.0,-2545.0,0.165,0.695,0.459,-0.528
666183,-5867.0,-3333.0,-4153.0,0.167,0.697,0.458,-0.527
666199,-6027.0,-2921.0,-2905.0,0.167,0.698,0.458,-0.524
666225,-6661.0,-3045.0,-2047.0,0.166,0.699,0.46,-0.522
666241,-7699.0,-2589.0,-2225.0,0.166,0.699,0.461,-0.521
666258,-7597.0,-2605.0,-1149.0,0.167,0.699,0.459,-0.522
666274,-6445.0,-2753.0,-1973.0,0.169,0.699,0.455,-0.525
666290,-7623.0,-2429.0,-2665.0,0.172,0.699,0.45,-0.529
666306,-6207.0,-2591.0,-2527.0,0.177,0.698,0.444,-0.533
666332,-6983.0,-2625.0,-1931.0,0.18,0.697,0.438,-0.538
666349,-7595.0,-1241.0,-2569.0,0.185,0.697,0.43,-0.543
666366,-6165.0,-3161.0,-2345.0,0.192,0.696,0.421,-0.549
666383,-6403.0,-1605.0,-2247.0,0.197,0.696,0.412,-0.555
666400,-7087.0,361.0,-2079.0,0.205,0.695,0.402,-0.56
666416,-5741.0,-909.0,-2285.0,0.216,0.695,0.392,-0.563
666432,-4929.0,-1581.0,-1913.0,0.228,0.694,0.383,-0.566
666449,-4591.0,-1113.0,-1291.0,0.239,0.693,0.373,-0.569
666465,-4103.0,-695.0,-707.0,0.249,0.692,0.365,-0.571
666481,-4053.0,-1459.0,-995.0,0.258,0.691,0.357,-0.572
666507,-3439.0,-1317.0,45.0,0.265,0.691,0.351,-0.573
666523,-2901.0,-1737.0,-439.0,0.27,0.692,0.348,-0.573
666539,-3175.0,-2173.0,-1055.0,0.27,0.694,0.346,-0.571
666556,-3089.0,-1969.0,-969.0,0.268,0.696,0.348,-0.568
666573,-3757.0,-2437.0,-609.0,0.262,0.699,0.353,-0.564
666589,-5067.0,39.0,-1149.0,0.254,0.703,0.358,-0.56
666606,-6011.0,-153.0,-1527.0,0.248,0.706,0.364,-0.555
666623,-7449.0,-1627.0,-1517.0,0.24,0.71,0.37,-0.55
666649,-8929.0,35.0,-1383.0,0.234,0.712,0.375,-0.545
666665,-8787.0,-735.0,-2285.0,0.23,0.714,0.38,-0.542
666681,-8817.0,-2343.0,-3147.0,0.225,0.716,0.385,-0.537
666698,-9897.0,-175.0,-2423.0,0.22,0.718,0.39,-0.533
666715,-9329.0,-957.0,-2253.0,0.216,0.719,0.395,-0.53
666731,-8293.0,-1367.0,-3425.0,0.212,0.72,0.4,-0.526
666748,-8643.0,-1501.0,-2835.0,0.207,0.722,0.404,-0.522
666774,-8221.0,-1171.0,-2509.0,0.203,0.724,0.407,-0.518
666790,-7763.0,-1553.0,-2739.0,0.199,0.726,0.41,-0.515
666807,-7137.0,-2515.0,-3051.0,0.195,0.727,0.413,-0.512
666823,-7073.0,-2223.0,-2769.0,0.19,0.729,0.417,-0.508
666839,-7355.0,-1643.0,-2739.0,0.185,0.731,0.42,-0.505
666856,-7165.0,-2005.0,-2767.0,0.182,0.732,0.422,-0.503
666873,-7195.0,-1931.0,-2931.0,0.179,0.733,0.425,-0.5
666890,-7245.0,-2137.0,-3047.0,0.177,0.734,0.427,-0.497
666907,-6921.0,-2697.0,-3033.0,0.176,0.735,0.429,-0.495
666924,-6869.0,-2273.0,-3461.0,0.174,0.736,0.431,-0.493
666950,-6807.0,-2459.0,-3687.0,0.172,0.737,0.433,-0.49
666967,-6647.0,-2721.0,-3667.0,0.169,0.738,0.435,-0.486
666983,-6779.0,-2201.0,-3551.0,0.167,0.74,0.437,-0.483
667000,-6707.0,-2717.0,-3975.0,0.164,0.742,0.439,-0.479
667016,-6939.0,-2343.0,-3981.0,0.161,0.744,0.442,-0.475
667032,-6915.0,-2377.0,-4051.0,0.159,0.746,0.444,-0.471
667048,-6741.0,-2667.0,-4105.0,0.156,0.748,0.446,-0.467
667065,-6753.0,-2849.0,-4269.0,0.154,0.749,0.448,-0.463
667092,-6997.0,-2713.0,-4311.0,0.151,0.751,0.45,-0.459
667109,-7103.0,-2233.0,-4195.0,0.148,0.752,0.452,-0.456
667125,-6719.0,-2663.0,-4227.0,0.146,0.754,0.453,-0.453
667142,-6791.0,-2613.0,-4189.0,0.145,0.755,0.454,-0.45
667158,-6673.0,-2453.0,-4507.0,0.144,0.756,0.455,-0.448
667174,-6051.0,-2409.0,-4699.0,0.143,0.757,0.456,-0.446
667191,-5867.0,-2275.0,-4657.0,0.142,0.759,0.456,-0.443
667207,-5901.0,-2005.0,-4819.0,0.14,0.76,0.457,-0.44
667233,-6285.0,-1783.0,-4443.0,0.139,0.762,0.457,-0.436
667250,-5903.0,-1595.0,-4421.0,0.138,0.764,0.458,-0.433
667266,-5905.0,-1441.0,-4441.0,0.137,0.766,0.458,-0.429
667282,-5743.0,-2283.0,-4575.0,0.135,0.768,0.46,-0.426
667299,-5993.0,-1763.0,-4287.0,0.133,0.769,0.462,-0.422
667315,-5755.0,-2015.0,-4509.0,0.131,0.77,0.465,-0.418
667332,-6205.0,-1577.0,-4443.0,0.128,0.77,0.468,-0.414
667349,-6463.0,-1509.0,-4559.0,0.126,0.77,0.472,-0.41
667366,-6555.0,-1397.0,-4545.0,0.124,0.77,0.475,-0.407
667393,-5921.0,-2315.0,-4827.0,0.123,0.77,0.479,-0.403
667410,-6123.0,-2253.0,-4941.0,0.12,0.77,0.483,-0.399
667427,-6421.0,-1973.0,-4697.0,0.118,0.77,0.487,-0.396
667444,-6303.0,-2053.0,-4817.0,0.116,0.77,0.491,-0.392
667461,-6209.0,-2011.0,-4663.0,0.114,0.77,0.494,-0.388
667478,-5705.0,-2577.0,-4951.0,0.112,0.77,0.498,-0.383
667495,-5991.0,-2563.0,-4891.0,0.11,0.77,0.502,-0.379
667512,229.0,-2087.0,-14009.0,0.113,0.766,0.507,-0.38
667529,-5687.0,-5473.0,-3021.0,0.108,0.763,0.511,-0.38
667546,-9019.0,-4863.0,-13021.0,0.111,0.761,0.514,-0.379
667563,-3269.0,343.0,-5991.0,0.114,0.758,0.519,-0.378
667580,-3315.0,-1343.0,-6159.0,0.111,0.756,0.523,-0.377
667596,-5295.0,2701.0,-19135.0,0.11,0.754,0.526,-0.378
667623,-1177.0,-4379.0,-3883.0,0.111,0.753,0.529,-0.376
667639,-8381.0,-2607.0,4925.0,0.107,0.753,0.534,-0.369
667656,-6519.0,-57.0,-11649.0,0.104,0.755,0.533,-0.368
667673,-2133.0,-6781.0,-4567.0,0.104,0.754,0.536,-0.365
667689,-11243.0,-5751.0,1643.0,0.1,0.756,0.54,-0.357
667705,-7855.0,-4005.0,-11883.0,0.098,0.757,0.54,-0.355
667722,1629.0,-3905.0,4697.0,0.099,0.758,0.54,-0.352
667739,-4593.0,3765.0,-18127.0,0.094,0.755,0.543,-0.354
667765,-7501.0,-8591.0,-12967.0,0.097,0.755,0.544,-0.355
667781,-5965.0,663.0,-4815.0,0.096,0.753,0.543,-0.358
667798,-4743.0,1683.0,-4063.0,0.096,0.753,0.545,-0.356
667814,-6187.0,-3251.0,-10157.0,0.093,0.751,0.547,-0.358
667830,-4851.0,-3247.0,-4325.0,0.091,0.752,0.548,-0.356
667847,-7785.0,-211.0,-7143.0,0.09,0.752,0.55,-0.353
667864,-6251.0,-13729.0,1285.0,0.091,0.754,0.543,-0.358
667880,-15313.0,-14843.0,7691.0,0.094,0.757,0.534,-0.365
667897,-6409.0,7905.0,-3023.0,0.097,0.753,0.544,-0.358
667924,-1065.0,-6769.0,-15011.0,0.096,0.752,0.541,-0.364
667941,-1731.0,3947.0,6541.0,0.097,0.752,0.544,-0.358
667957,-4325.0,-5315.0,-12871.0,0.095,0.757,0.539,-0.358
