timeMs,ax,ay,az,q0,q1,q2,q3
7224879,-3582.0,-5736.0,436.0,0.707,-0.397,0.536,-0.236
7224896,-3616.0,-5928.0,200.0,0.693,-0.42,0.537,-0.236
7224913,-3980.0,-8186.0,-266.0,0.678,-0.443,0.537,-0.235
7224939,-3724.0,-8986.0,-1196.0,0.668,-0.46,0.535,-0.237
7224955,-4110.0,-5322.0,-8.0,0.659,-0.476,0.531,-0.239
7224971,-2658.0,-8532.0,-646.0,0.649,-0.49,0.53,-0.242
7224987,-3046.0,-7646.0,-436.0,0.638,-0.506,0.528,-0.242
7225003,-2626.0,-7784.0,-932.0,0.625,-0.522,0.528,-0.241
7225019,-2430.0,-7374.0,-1644.0,0.611,-0.54,0.527,-0.239
7225035,-2066.0,-7850.0,-1826.0,0.596,-0.558,0.527,-0.236
7225061,-2292.0,-9044.0,-2360.0,0.581,-0.575,0.526,-0.233
7225078,-1618.0,-8240.0,-2652.0,0.568,-0.591,0.524,-0.232
7225095,-1774.0,-7662.0,-2778.0,0.556,-0.606,0.52,-0.231
7225112,-1420.0,-6796.0,-2552.0,0.544,-0.62,0.517,-0.231
7225129,-1202.0,-6774.0,-2770.0,0.532,-0.634,0.511,-0.231
7225146,-1116.0,-6804.0,-2702.0,0.522,-0.647,0.505,-0.234
7225163,-364.0,-7110.0,-2088.0,0.511,-0.659,0.498,-0.238
7225179,-210.0,-7120.0,-2018.0,0.501,-0.67,0.492,-0.242
7225196,-654.0,-6816.0,-2336.0,0.492,-0.679,0.486,-0.247
7225222,-454.0,-6746.0,-2784.0,0.484,-0.687,0.48,-0.252
7225238,90.0,-8104.0,-2728.0,0.478,-0.694,0.473,-0.259
7225254,564.0,-8970.0,-3050.0,0.474,-0.698,0.466,-0.267
7225270,146.0,-8918.0,-2896.0,0.472,-0.7,0.46,-0.275
7225286,84.0,-8208.0,-1982.0,0.473,-0.699,0.456,-0.284
7225302,-336.0,-6018.0,-2794.0,0.472,-0.699,0.451,-0.291
7225318,-544.0,-5700.0,-3768.0,0.468,-0.703,0.447,-0.296
7225345,-260.0,-5432.0,-4816.0,0.46,-0.709,0.444,-0.296
7225362,786.0,-11360.0,-2780.0,0.455,-0.713,0.444,-0.297
7225379,-290.0,-8946.0,-3284.0,0.453,-0.714,0.443,-0.299
7225395,-546.0,-6424.0,-2668.0,0.45,-0.716,0.443,-0.298
7225412,-1052.0,-6742.0,-2318.0,0.445,-0.719,0.445,-0.295
7225428,-838.0,-5476.0,-2554.0,0.439,-0.722,0.448,-0.291
7225444,-560.0,-5568.0,-2898.0,0.434,-0.725,0.452,-0.287
7225461,44.0,-5772.0,-4620.0,0.426,-0.728,0.456,-0.283
7225478,-148.0,-7680.0,-5434.0,0.417,-0.733,0.46,-0.278
7225495,114.0,-8388.0,-5722.0,0.409,-0.736,0.467,-0.272
7225521,-754.0,-8980.0,-6600.0,0.401,-0.737,0.473,-0.267
7225538,-474.0,-9062.0,-6210.0,0.393,-0.739,0.479,-0.263
7225554,362.0,-8838.0,-4760.0,0.386,-0.742,0.483,-0.26
7225570,-90.0,-9376.0,-3536.0,0.38,-0.743,0.485,-0.259
7225586,-14.0,-9164.0,-4060.0,0.38,-0.743,0.486,-0.26
7225602,42.0,-9268.0,-5162.0,0.382,-0.742,0.485,-0.263
7225628,-166.0,-8074.0,-5594.0,0.384,-0.741,0.484,-0.265
7225645,-8.0,-7464.0,-5068.0,0.382,-0.741,0.483,-0.267
7225662,-750.0,-7166.0,-3970.0,0.382,-0.74,0.483,-0.27
7225678,-282.0,-6278.0,-4584.0,0.385,-0.738,0.482,-0.273
7225694,-14.0,-7720.0,-4796.0,0.388,-0.737,0.481,-0.274
7225711,216.0,-7732.0,-4898.0,0.39,-0.735,0.48,-0.276
7225728,88.0,-6988.0,-4546.0,0.39,-0.735,0.48,-0.278
7225745,114.0,-7102.0,-4302.0,0.389,-0.735,0.48,-0.279
7225761,-178.0,-7404.0,-4442.0,0.391,-0.734,0.479,-0.28
7225778,258.0,-6614.0,-4620.0,0.394,-0.733,0.478,-0.282
7225805,456.0,-6786.0,-3990.0,0.397,-0.732,0.476,-0.284
7225821,300.0,-6702.0,-3446.0,0.399,-0.731,0.473,-0.287
7225837,70.0,-7140.0,-2796.0,0.399,-0.731,0.471,-0.291
7225853,-252.0,-7044.0,-2766.0,0.401,-0.73,0.468,-0.296
7225869,58.0,-6658.0,-3362.0,0.402,-0.729,0.465,-0.301
7225885,276.0,-6296.0,-3428.0,0.403,-0.728,0.463,-0.306
7225911,574.0,-6728.0,-3804.0,0.404,-0.727,0.459,-0.311
7225928,646.0,-6780.0,-3912.0,0.405,-0.726,0.455,-0.318
7225945,452.0,-7166.0,-3820.0,0.407,-0.726,0.45,-0.324
7225961,842.0,-6120.0,-3670.0,0.408,-0.726,0.444,-0.331
7225977,1188.0,-5788.0,-3232.0,0.408,-0.725,0.44,-0.337
7225994,1132.0,-6448.0,-2906.0,0.406,-0.726,0.438,-0.342
7226010,1132.0,-7470.0,-2906.0,0.404,-0.726,0.435,-0.347
7226027,1164.0,-7094.0,-3290.0,0.4,-0.728,0.434,-0.35
7226044,1384.0,-7358.0,-3688.0,0.395,-0.73,0.433,-0.353
7226071,1814.0,-7164.0,-3784.0,0.389,-0.732,0.432,-0.356
7226088,1540.0,-7038.0,-3848.0,0.384,-0.734,0.432,-0.358
7226104,1164.0,-8166.0,-3502.0,0.379,-0.735,0.432,-0.359
7226120,1226.0,-8574.0,-3576.0,0.376,-0.736,0.432,-0.361
7226136,1430.0,-8272.0,-3684.0,0.374,-0.736,0.433,-0.362
7226153,1612.0,-8002.0,-3880.0,0.373,-0.735,0.434,-0.364
7226170,1640.0,-7948.0,-4076.0,0.372,-0.734,0.435,-0.365
7226196,1446.0,-7572.0,-4124.0,0.371,-0.733,0.437,-0.365
7226212,992.0,-7810.0,-4430.0,0.371,-0.732,0.439,-0.366
7226229,1196.0,-7814.0,-4102.0,0.37,-0.732,0.441,-0.365
7226245,1730.0,-8216.0,-4002.0,0.37,-0.731,0.443,-0.364
7226261,1470.0,-7956.0,-4352.0,0.37,-0.731,0.445,-0.362
7226277,1534.0,-7860.0,-4418.0,0.368,-0.732,0.448,-0.359
7226294,1474.0,-8122.0,-4458.0,0.365,-0.733,0.451,-0.355
7226311,1202.0,-8984.0,-4528.0,0.362,-0.735,0.454,-0.351
7226328,1734.0,-8674.0,-5004.0,0.359,-0.736,0.458,-0.345
7226345,1286.0,-8446.0,-5254.0,0.355,-0.739,0.463,-0.338
7226371,1110.0,-8930.0,-5222.0,0.352,-0.741,0.468,-0.329
7226387,1054.0,-8410.0,-5522.0,0.348,-0.744,0.474,-0.319
7226403,1044.0,-7806.0,-6184.0,0.345,-0.746,0.48,-0.307
7226419,1064.0,-7578.0,-6334.0,0.343,-0.747,0.487,-0.295
7226435,744.0,-8608.0,-6348.0,0.341,-0.749,0.494,-0.282
7226451,730.0,-7176.0,-6000.0,0.339,-0.75,0.5,-0.268
7226477,78.0,-7600.0,-6770.0,0.338,-0.751,0.507,-0.254
7226494,-98.0,-7812.0,-6122.0,0.337,-0.751,0.514,-0.241
7226511,-820.0,-7560.0,-5468.0,0.337,-0.751,0.521,-0.226
7226528,-530.0,-7278.0,-5772.0,0.336,-0.751,0.528,-0.21
7226545,-830.0,-6574.0,-5964.0,0.337,-0.751,0.534,-0.194
7226562,-716.0,-6192.0,-6306.0,0.337,-0.751,0.539,-0.178
7226578,-706.0,-6306.0,-6678.0,0.339,-0.75,0.545,-0.161
7226594,-1096.0,-5440.0,-6042.0,0.341,-0.749,0.55,-0.146
7226611,-1476.0,-5096.0,-6148.0,0.342,-0.748,0.554,-0.13
7226628,-1770.0,-5262.0,-5834.0,0.344,-0.746,0.558,-0.114
7226654,-1962.0,-5658.0,-6068.0,0.347,-0.744,0.562,-0.098
7226671,-1928.0,-4488.0,-5776.0,0.351,-0.742,0.565,-0.083
7226687,-2052.0,-5268.0,-6250.0,0.354,-0.74,0.568,-0.067
7226703,-2204.0,-4240.0,-6004.0,0.359,-0.736,0.571,-0.053
7226719,-2304.0,-4168.0,-5220.0,0.363,-0.733,0.574,-0.038
7226735,-2874.0,-5794.0,-4904.0,0.367,-0.729,0.577,-0.025
7226761,-3146.0,-3552.0,-4474.0,0.372,-0.725,0.58,-0.012
7226777,-3098.0,-3770.0,-4572.0,0.375,-0.721,0.582,0.001
7226794,-3390.0,-4322.0,-5076.0,0.378,-0.717,0.585,0.013
7226810,-4140.0,-4046.0,-4856.0,0.381,-0.713,0.588,0.024
7226826,-3656.0,-2378.0,-4090.0,0.384,-0.709,0.591,0.035
7226842,-3334.0,-2530.0,-4064.0,0.386,-0.705,0.593,0.045
7226858,-3824.0,-3430.0,-4746.0,0.389,-0.701,0.595,0.055
7226884,-5156.0,-3886.0,-5024.0,0.392,-0.697,0.597,0.063
7226900,-4170.0,-1480.0,-4320.0,0.395,-0.692,0.6,0.07
7226916,-3746.0,-2866.0,-3804.0,0.399,-0.687,0.602,0.076
7226933,-3434.0,-1942.0,-3968.0,0.402,-0.683,0.604,0.081
7226949,-3632.0,-3018.0,-4514.0,0.404,-0.68,0.606,0.085
7226966,-3974.0,-3264.0,-3814.0,0.406,-0.676,0.608,0.088
7226982,-4490.0,-3870.0,-4062.0,0.408,-0.673,0.61,0.09
7227008,-2854.0,-1692.0,-2808.0,0.409,-0.672,0.611,0.092
7227024,-2152.0,-1518.0,-2726.0,0.41,-0.671,0.611,0.092
7227040,-2500.0,-2632.0,-5084.0,0.41,-0.671,0.611,0.091
7227056,-3948.0,-3228.0,-3902.0,0.411,-0.672,0.61,0.087
7227073,-4454.0,-3758.0,-4640.0,0.409,-0.675,0.608,0.083
7227089,-3520.0,-3210.0,-3944.0,0.408,-0.679,0.606,0.077
7227115,-2748.0,-1834.0,-2884.0,0.405,-0.683,0.604,0.07
7227131,-2246.0,-2970.0,-4150.0,0.402,-0.688,0.601,0.062
7227147,-2046.0,-3798.0,-5318.0,0.401,-0.691,0.599,0.052
7227163,-4654.0,-5254.0,-5054.0,0.4,-0.694,0.597,0.04
7227179,-3208.0,-2276.0,-3518.0,0.398,-0.698,0.595,0.028
7227195,-3362.0,-3952.0,-3994.0,0.395,-0.702,0.592,0.016
7227221,-2916.0,-3854.0,-5072.0,0.394,-0.706,0.589,0.004
7227237,-3086.0,-5022.0,-4710.0,0.393,-0.708,0.586,-0.009
7227253,-3974.0,-6908.0,-5894.0,0.391,-0.71,0.585,-0.024
7227269,-3854.0,-4600.0,-3888.0,0.388,-0.713,0.583,-0.04
7227285,-3800.0,-5216.0,-4672.0,0.384,-0.716,0.581,-0.055
7227301,-3472.0,-5116.0,-5942.0,0.38,-0.719,0.578,-0.067
7227327,-3974.0,-5572.0,-5938.0,0.377,-0.721,0.576,-0.08
7227343,-2812.0,-4868.0,-6272.0,0.373,-0.723,0.574,-0.091
7227359,-2712.0,-6210.0,-6856.0,0.371,-0.724,0.573,-0.102
7227375,-3020.0,-5832.0,-6132.0,0.369,-0.724,0.572,-0.114
7227391,-3184.0,-6270.0,-6446.0,0.365,-0.726,0.57,-0.125
7227407,-2756.0,-5368.0,-6088.0,0.36,-0.728,0.568,-0.134
7227433,-2380.0,-6012.0,-6046.0,0.355,-0.73,0.566,-0.142
7227450,-1524.0,-5468.0,-6442.0,0.351,-0.731,0.565,-0.15
7227466,-1290.0,-5966.0,-5896.0,0.348,-0.732,0.564,-0.159
7227483,-1110.0,-6124.0,-6300.0,0.344,-0.733,0.562,-0.168
7227499,-1162.0,-6072.0,-5814.0,0.34,-0.734,0.56,-0.178
7227516,-1594.0,-5758.0,-6038.0,0.337,-0.735,0.559,-0.186
7227533,-952.0,-6184.0,-6332.0,0.334,-0.735,0.557,-0.194
7227549,-682.0,-5968.0,-5908.0,0.331,-0.735,0.556,-0.201
7227566,-492.0,-5760.0,-5634.0,0.329,-0.735,0.555,-0.209
7227592,-310.0,-5956.0,-5788.0,0.327,-0.735,0.554,-0.216
7227608,-216.0,-6100.0,-5866.0,0.325,-0.734,0.553,-0.223
7227624,-530.0,-6436.0,-5730.0,0.323,-0.734,0.552,-0.23
7227640,-372.0,-5852.0,-5636.0,0.322,-0.733,0.55,-0.238
7227656,-168.0,-5984.0,-5888.0,0.32,-0.733,0.549,-0.245
7227672,-178.0,-6182.0,-6074.0,0.319,-0.732,0.547,-0.252
7227699,-12.0,-6058.0,-6146.0,0.317,-0.732,0.545,-0.258
7227716,100.0,-6912.0,-5932.0,0.317,-0.731,0.544,-0.264
7227732,348.0,-7396.0,-6370.0,0.315,-0.731,0.542,-0.269
7227748,-48.0,-7496.0,-6544.0,0.312,-0.731,0.541,-0.273
7227764,-40.0,-8182.0,-7164.0,0.308,-0.732,0.541,-0.277
7227781,-32.0,-8436.0,-7910.0,0.303,-0.733,0.54,-0.28
7227798,-116.0,-9930.0,-8214.0,0.298,-0.735,0.541,-0.28
7227815,20.0,-10162.0,-8126.0,0.293,-0.736,0.543,-0.278
7227832,0.0,-9760.0,-8638.0,0.288,-0.738,0.546,-0.274
7227849,18.0,-9394.0,-8788.0,0.283,-0.739,0.55,-0.266
7227875,14.0,-9068.0,-8708.0,0.281,-0.74,0.555,-0.256
7227892,254.0,-8370.0,-8764.0,0.283,-0.74,0.559,-0.245
7227908,48.0,-7706.0,-8202.0,0.287,-0.738,0.564,-0.234
7227924,-130.0,-7398.0,-7766.0,0.294,-0.737,0.567,-0.222
7227940,-264.0,-7474.0,-7110.0,0.302,-0.734,0.57,-0.21
7227966,-472.0,-6854.0,-7058.0,0.312,-0.731,0.573,-0.198
7227982,-1032.0,-6226.0,-6412.0,0.322,-0.728,0.576,-0.185
7227998,-1222.0,-6280.0,-6392.0,0.333,-0.725,0.578,-0.172
7228014,-1412.0,-6076.0,-6084.0,0.345,-0.721,0.58,-0.159
7228030,-1406.0,-4944.0,-5990.0,0.357,-0.717,0.58,-0.146
7228047,-1590.0,-4640.0,-5492.0,0.367,-0.714,0.581,-0.133
7228064,-1590.0,-5446.0,-5606.0,0.376,-0.711,0.582,-0.12
7228080,-1720.0,-4710.0,-5392.0,0.384,-0.708,0.583,-0.107
7228097,-2344.0,-3998.0,-4638.0,0.391,-0.706,0.584,-0.093
7228124,-2582.0,-4838.0,-5044.0,0.395,-0.704,0.585,-0.079
7228140,-2686.0,-4668.0,-4850.0,0.4,-0.701,0.586,-0.064
7228157,-3238.0,-5360.0,-5082.0,0.404,-0.7,0.587,-0.05
7228173,-3338.0,-3910.0,-4772.0,0.407,-0.698,0.588,-0.036
7228189,-3664.0,-4964.0,-4846.0,0.408,-0.698,0.589,-0.021
7228205,-3730.0,-3656.0,-4472.0,0.409,-0.697,0.589,-0.006
7228222,-3734.0,-5044.0,-5058.0,0.41,-0.697,0.589,0.01
7228248,-3528.0,-3580.0,-4298.0,0.413,-0.695,0.589,0.025
7228264,-3184.0,-3512.0,-4200.0,0.416,-0.692,0.588,0.04
7228280,-3058.0,-3682.0,-4146.0,0.42,-0.69,0.587,0.053
7228296,-2708.0,-2804.0,-3252.0,0.423,-0.688,0.586,0.064
7228312,-2546.0,-2584.0,-2782.0,0.425,-0.686,0.585,0.075
7228328,-2692.0,-2892.0,-2520.0,0.427,-0.685,0.584,0.083
7228354,-1992.0,-1752.0,-2206.0,0.428,-0.685,0.583,0.089
7228370,-1512.0,-1616.0,-1910.0,0.429,-0.685,0.582,0.093
7228386,-1704.0,-2160.0,-2210.0,0.429,-0.685,0.581,0.094
7228403,-2418.0,-3050.0,-2362.0,0.43,-0.686,0.58,0.091
7228419,-2842.0,-3118.0,-2498.0,0.43,-0.687,0.579,0.085
7228435,-3118.0,-3100.0,-2652.0,0.43,-0.689,0.578,0.076
7228451,-3588.0,-2406.0,-3108.0,0.429,-0.692,0.577,0.065
7228477,-3686.0,-2366.0,-3336.0,0.426,-0.696,0.576,0.052
7228493,-3640.0,-2206.0,-3214.0,0.422,-0.701,0.574,0.036
7228509,-3650.0,-4314.0,-3878.0,0.419,-0.704,0.572,0.021
7228525,-3890.0,-5530.0,-4420.0,0.418,-0.706,0.572,0.004
7228541,-4108.0,-4714.0,-3942.0,0.415,-0.707,0.572,-0.012
7228567,-4064.0,-4760.0,-4444.0,0.41,-0.71,0.572,-0.028
7228583,-3820.0,-4330.0,-4764.0,0.405,-0.713,0.571,-0.043
7228599,-3398.0,-5980.0,-6194.0,0.399,-0.716,0.57,-0.058
7228615,-3458.0,-5210.0,-5400.0,0.395,-0.718,0.569,-0.074
7228631,-3164.0,-5978.0,-5574.0,0.39,-0.719,0.568,-0.09
7228647,-2770.0,-5900.0,-5918.0,0.384,-0.72,0.568,-0.105
7228664,-3064.0,-6240.0,-5810.0,0.379,-0.721,0.567,-0.12
7228690,-2352.0,-5044.0,-6474.0,0.374,-0.723,0.566,-0.133
7228706,-1882.0,-5840.0,-6460.0,0.369,-0.724,0.564,-0.146
7228722,-1722.0,-6208.0,-6502.0,0.364,-0.725,0.562,-0.159
7228738,-1502.0,-5044.0,-5856.0,0.36,-0.726,0.56,-0.172
7228754,-1422.0,-6224.0,-5964.0,0.355,-0.728,0.557,-0.184
7228770,-912.0,-5964.0,-6068.0,0.351,-0.729,0.554,-0.195
7228796,-720.0,-6140.0,-6288.0,0.349,-0.73,0.551,-0.205
7228813,-744.0,-6740.0,-5954.0,0.346,-0.73,0.548,-0.215
7228829,-718.0,-6644.0,-5724.0,0.344,-0.73,0.546,-0.225
7228846,-490.0,-6600.0,-5272.0,0.34,-0.731,0.544,-0.233
7228863,-122.0,-6844.0,-5514.0,0.337,-0.731,0.542,-0.241
7228880,78.0,-6360.0,-5812.0,0.334,-0.731,0.54,-0.249
7228896,234.0,-6194.0,-5788.0,0.331,-0.731,0.538,-0.257
7228912,250.0,-6238.0,-5906.0,0.329,-0.731,0.536,-0.264
7228929,182.0,-6378.0,-5636.0,0.328,-0.731,0.533,-0.271
7228955,726.0,-7312.0,-6072.0,0.326,-0.731,0.531,-0.278
7228971,342.0,-7484.0,-6342.0,0.323,-0.731,0.528,-0.286
7228987,158.0,-8060.0,-7010.0,0.32,-0.732,0.525,-0.293
7229003,158.0,-9496.0,-7722.0,0.316,-0.733,0.524,-0.298
7229019,-44.0,-10158.0,-8030.0,0.312,-0.734,0.522,-0.302
7229045,162.0,-11050.0,-8306.0,0.309,-0.734,0.523,-0.303
7229061,352.0,-11730.0,-8390.0,0.306,-0.735,0.524,-0.302
7229077,278.0,-10866.0,-7906.0,0.303,-0.736,0.528,-0.297
7229093,596.0,-9572.0,-7898.0,0.303,-0.736,0.533,-0.288
7229109,868.0,-9126.0,-8098.0,0.305,-0.736,0.538,-0.277
7229125,908.0,-8492.0,-7978.0,0.309,-0.734,0.544,-0.264
7229141,542.0,-7854.0,-7572.0,0.315,-0.732,0.549,-0.251
7229168,260.0,-7730.0,-7278.0,0.323,-0.729,0.555,-0.238
7229184,10.0,-6938.0,-6916.0,0.332,-0.725,0.559,-0.226
7229200,-452.0,-6602.0,-6148.0,0.342,-0.722,0.563,-0.213
7229216,-656.0,-5996.0,-5922.0,0.352,-0.718,0.566,-0.2
7229232,-1178.0,-5458.0,-5518.0,0.362,-0.715,0.569,-0.187
7229258,-1326.0,-5598.0,-5436.0,0.372,-0.711,0.571,-0.173
7229274,-1562.0,-5268.0,-5078.0,0.382,-0.707,0.574,-0.159
7229290,-1898.0,-5210.0,-4682.0,0.391,-0.704,0.576,-0.144
7229307,-2138.0,-5322.0,-4520.0,0.398,-0.701,0.578,-0.13
7229324,-2558.0,-4702.0,-4782.0,0.405,-0.698,0.579,-0.116
7229341,-2552.0,-4788.0,-4368.0,0.411,-0.696,0.58,-0.102
7229357,-2564.0,-5426.0,-4844.0,0.415,-0.694,0.582,-0.088
7229374,-3464.0,-5258.0,-4550.0,0.417,-0.692,0.584,-0.075
7229390,-3870.0,-4458.0,-4334.0,0.418,-0.693,0.585,-0.061
7229416,-3896.0,-5322.0,-4964.0,0.417,-0.694,0.585,-0.046
7229432,-4116.0,-4784.0,-4544.0,0.416,-0.696,0.585,-0.03
7229448,-3830.0,-5318.0,-4968.0,0.415,-0.697,0.585,-0.014
7229464,-3748.0,-4500.0,-4968.0,0.415,-0.697,0.585,0.001
7229480,-3510.0,-4584.0,-4946.0,0.415,-0.697,0.585,0.016
7229496,-3706.0,-3824.0,-4640.0,0.416,-0.696,0.584,0.029
7229522,-3664.0,-2966.0,-4444.0,0.417,-0.695,0.584,0.043
7229539,-3748.0,-3496.0,-4712.0,0.418,-0.694,0.583,0.057
7229556,-3514.0,-3218.0,-4162.0,0.419,-0.693,0.583,0.069
7229573,-2912.0,-2898.0,-3876.0,0.421,-0.691,0.582,0.08
7229590,-2454.0,-2752.0,-3372.0,0.423,-0.689,0.581,0.09
7229606,-1798.0,-2276.0,-2842.0,0.426,-0.687,0.581,0.098
7229623,-1254.0,-2140.0,-2464.0,0.428,-0.685,0.581,0.103
7229640,-1850.0,-2854.0,-2500.0,0.429,-0.684,0.581,0.104
7229656,-1796.0,-2556.0,-2202.0,0.43,-0.684,0.581,0.102
7229673,-2434.0,-2862.0,-2692.0,0.431,-0.683,0.581,0.097
7229699,-3634.0,-3234.0,-3868.0,0.432,-0.683,0.582,0.088
7229715,-3954.0,-2226.0,-3034.0,0.435,-0.683,0.582,0.076
7229731,-2888.0,-964.0,-2002.0,0.435,-0.685,0.582,0.061
7229747,-3866.0,-2452.0,-2940.0,0.433,-0.687,0.581,0.046
7229763,-4362.0,-3280.0,-3844.0,0.433,-0.689,0.58,0.03
7229779,-4162.0,-4096.0,-3814.0,0.431,-0.691,0.58,0.014
7229805,-3530.0,-5708.0,-4104.0,0.429,-0.693,0.58,-0.003
7229822,-3512.0,-5898.0,-3758.0,0.425,-0.693,0.582,-0.02
7229839,-4246.0,-5456.0,-4074.0,0.419,-0.695,0.583,-0.037
7229856,-4094.0,-4030.0,-5034.0,0.411,-0.698,0.584,-0.051
7229873,-3708.0,-5252.0,-5806.0,0.403,-0.701,0.584,-0.065
7229890,-3140.0,-5626.0,-5944.0,0.397,-0.703,0.585,-0.079
7229907,-2548.0,-5720.0,-5994.0,0.392,-0.704,0.585,-0.094
7229923,-3098.0,-5294.0,-5150.0,0.385,-0.706,0.584,-0.109
7229940,-2840.0,-5822.0,-5926.0,0.378,-0.709,0.583,-0.122
7229957,-2500.0,-5822.0,-6784.0,0.372,-0.711,0.581,-0.134
7229974,-2288.0,-6298.0,-6624.0,0.369,-0.713,0.579,-0.145
7230000,-1998.0,-6152.0,-6636.0,0.366,-0.714,0.576,-0.156
7230016,-2002.0,-5798.0,-6046.0,0.364,-0.715,0.574,-0.166
7230032,-1436.0,-6122.0,-5986.0,0.362,-0.716,0.571,-0.175
7230048,-1228.0,-5900.0,-6112.0,0.36,-0.717,0.568,-0.183
7230064,-1218.0,-6618.0,-5884.0,0.358,-0.718,0.565,-0.191
7230080,-1192.0,-7082.0,-6008.0,0.356,-0.719,0.563,-0.199
7230106,-1110.0,-6868.0,-5814.0,0.354,-0.72,0.56,-0.206
7230123,-858.0,-6578.0,-5480.0,0.353,-0.72,0.558,-0.213
7230140,-580.0,-6518.0,-5642.0,0.352,-0.72,0.557,-0.219
7230157,-258.0,-6802.0,-5848.0,0.35,-0.72,0.555,-0.226
7230174,-506.0,-6668.0,-5802.0,0.349,-0.719,0.553,-0.234
7230190,-844.0,-6996.0,-5746.0,0.348,-0.719,0.551,-0.243
7230207,-716.0,-6568.0,-5696.0,0.347,-0.718,0.548,-0.251
7230224,-618.0,-6660.0,-5514.0,0.348,-0.717,0.546,-0.259
7230242,-210.0,-7118.0,-5702.0,0.35,-0.715,0.543,-0.266
7230259,8.0,-6882.0,-5864.0,0.351,-0.713,0.541,-0.274
7230276,36.0,-7266.0,-5914.0,0.351,-0.712,0.54,-0.281
7230293,-176.0,-7642.0,-5656.0,0.351,-0.71,0.539,-0.287
7230310,528.0,-7494.0,-6244.0,0.351,-0.708,0.538,-0.293
7230336,572.0,-8056.0,-6532.0,0.349,-0.707,0.538,-0.298
7230353,-2.0,-9286.0,-7106.0,0.344,-0.706,0.54,-0.302
7230369,-718.0,-11416.0,-7310.0,0.339,-0.706,0.542,-0.304
7230385,-1204.0,-11016.0,-7772.0,0.334,-0.707,0.546,-0.301
7230401,-596.0,-11130.0,-8176.0,0.33,-0.708,0.55,-0.295
7230417,52.0,-10134.0,-8084.0,0.328,-0.709,0.555,-0.284
7230443,42.0,-9480.0,-7958.0,0.328,-0.71,0.561,-0.272
7230459,-356.0,-8914.0,-7748.0,0.328,-0.71,0.567,-0.258
7230475,-660.0,-8266.0,-7236.0,0.331,-0.71,0.572,-0.242
7230492,-618.0,-7756.0,-6914.0,0.336,-0.709,0.577,-0.227
7230509,-258.0,-7060.0,-6544.0,0.341,-0.709,0.58,-0.212
7230526,-750.0,-7040.0,-6232.0,0.347,-0.707,0.584,-0.197
7230543,-1348.0,-5610.0,-5716.0,0.354,-0.705,0.587,-0.181
7230559,-1778.0,-5368.0,-5346.0,0.362,-0.704,0.589,-0.165
7230576,-1776.0,-5308.0,-5614.0,0.371,-0.702,0.59,-0.148
7230602,-1918.0,-4772.0,-5358.0,0.379,-0.699,0.591,-0.131
7230618,-2126.0,-4732.0,-5190.0,0.387,-0.697,0.592,-0.115
7230634,-2398.0,-4648.0,-4588.0,0.394,-0.695,0.593,-0.099
7230650,-2786.0,-4632.0,-4668.0,0.4,-0.693,0.593,-0.083
7230666,-2998.0,-4570.0,-4830.0,0.405,-0.692,0.594,-0.067
7230682,-3606.0,-4796.0,-4774.0,0.408,-0.691,0.594,-0.051
7230708,-3764.0,-3724.0,-4244.0,0.41,-0.691,0.594,-0.035
7230725,-3616.0,-4330.0,-4326.0,0.412,-0.691,0.594,-0.017
7230742,-3784.0,-4886.0,-4880.0,0.414,-0.69,0.593,-0.001
7230759,-3646.0,-3778.0,-4530.0,0.416,-0.689,0.593,0.014
7230776,-3840.0,-4256.0,-4516.0,0.418,-0.688,0.592,0.029
7230792,-4094.0,-3498.0,-3740.0,0.42,-0.687,0.592,0.042
7230808,-3334.0,-3456.0,-4064.0,0.422,-0.686,0.59,0.056
7230824,-4320.0,-4112.0,-4120.0,0.424,-0.685,0.589,0.068
7230841,-3564.0,-2368.0,-3216.0,0.425,-0.684,0.587,0.079
7230858,-2892.0,-2746.0,-3132.0,0.427,-0.683,0.586,0.09
7230885,-2742.0,-3116.0,-2922.0,0.428,-0.683,0.584,0.099
7230901,-1884.0,-2386.0,-2270.0,0.429,-0.683,0.582,0.106
7230917,-1714.0,-2748.0,-1926.0,0.428,-0.684,0.58,0.11
7230933,-1724.0,-2554.0,-1964.0,0.427,-0.686,0.578,0.11
7230949,-2182.0,-2116.0,-2444.0,0.426,-0.689,0.576,0.108
7230966,-2096.0,-2228.0,-2322.0,0.425,-0.692,0.575,0.102
7230982,-2682.0,-3392.0,-3560.0,0.423,-0.695,0.574,0.094
7231008,-4534.0,-3834.0,-4204.0,0.422,-0.698,0.573,0.083
7231025,-3564.0,-2568.0,-2650.0,0.419,-0.702,0.572,0.07
7231042,-2282.0,-2354.0,-2182.0,0.414,-0.706,0.572,0.055
7231059,-3380.0,-4520.0,-4604.0,0.409,-0.709,0.573,0.039
7231075,-4276.0,-3660.0,-4594.0,0.407,-0.711,0.573,0.022
7231091,-4400.0,-4852.0,-5622.0,0.404,-0.712,0.575,0.005
7231108,-3866.0,-4874.0,-5652.0,0.4,-0.713,0.576,-0.011
7231125,-4000.0,-5526.0,-4872.0,0.396,-0.713,0.578,-0.028
7231142,-3404.0,-5546.0,-5880.0,0.391,-0.714,0.58,-0.043
7231159,-3232.0,-4506.0,-5546.0,0.385,-0.715,0.581,-0.057
7231186,-3080.0,-5804.0,-6412.0,0.379,-0.716,0.582,-0.072
7231202,-2726.0,-5534.0,-6912.0,0.374,-0.716,0.583,-0.086
7231218,-2914.0,-5974.0,-6476.0,0.371,-0.715,0.583,-0.1
7231234,-2944.0,-5926.0,-6250.0,0.37,-0.714,0.583,-0.114
7231250,-2588.0,-5926.0,-6152.0,0.369,-0.713,0.583,-0.127
7231266,-2372.0,-5606.0,-5948.0,0.369,-0.712,0.581,-0.14
7231292,-1790.0,-5942.0,-6358.0,0.368,-0.711,0.58,-0.151
7231309,-1826.0,-5450.0,-5784.0,0.366,-0.711,0.578,-0.162
7231326,-1800.0,-5838.0,-5508.0,0.364,-0.711,0.576,-0.172
7231343,-1460.0,-5752.0,-5402.0,0.362,-0.712,0.575,-0.179
7231359,-1140.0,-6214.0,-5522.0,0.361,-0.712,0.573,-0.187
7231376,-694.0,-6686.0,-5894.0,0.36,-0.712,0.571,-0.195
7231393,-1180.0,-5952.0,-5480.0,0.358,-0.712,0.569,-0.203
7231410,-1098.0,-5890.0,-5374.0,0.355,-0.713,0.566,-0.211
7231426,-690.0,-6088.0,-5652.0,0.353,-0.714,0.565,-0.218
7231452,-550.0,-5994.0,-5412.0,0.351,-0.714,0.563,-0.225
7231468,-360.0,-5894.0,-5584.0,0.348,-0.714,0.561,-0.232
7231484,-392.0,-5640.0,-5162.0,0.345,-0.714,0.56,-0.239
7231501,-158.0,-5694.0,-5426.0,0.343,-0.714,0.558,-0.246
7231517,14.0,-6010.0,-5480.0,0.341,-0.715,0.556,-0.252
7231533,96.0,-6304.0,-5494.0,0.337,-0.715,0.555,-0.259
7231559,-84.0,-6988.0,-5510.0,0.333,-0.716,0.554,-0.265
7231576,-94.0,-6756.0,-5492.0,0.328,-0.716,0.553,-0.271
7231593,2.0,-7058.0,-5660.0,0.324,-0.717,0.553,-0.276
7231609,456.0,-7668.0,-6978.0,0.32,-0.716,0.555,-0.279
7231626,74.0,-9628.0,-8116.0,0.318,-0.715,0.554,-0.284
7231642,-240.0,-8830.0,-8420.0,0.316,-0.715,0.552,-0.289
7231659,-426.0,-10840.0,-8690.0,0.314,-0.715,0.552,-0.292
7231676,-932.0,-11664.0,-8694.0,0.313,-0.715,0.553,-0.292
7231692,-370.0,-11528.0,-9478.0,0.311,-0.715,0.556,-0.29
7231709,-130.0,-10410.0,-9064.0,0.309,-0.714,0.56,-0.284
7231735,-260.0,-9916.0,-8374.0,0.309,-0.714,0.565,-0.274
7231751,-280.0,-9756.0,-7982.0,0.311,-0.713,0.571,-0.263
7231767,-216.0,-8502.0,-7858.0,0.315,-0.711,0.576,-0.251
7231784,-252.0,-8058.0,-7592.0,0.322,-0.71,0.58,-0.239
7231800,-452.0,-7678.0,-7102.0,0.33,-0.707,0.582,-0.228
7231816,-562.0,-6852.0,-6280.0,0.34,-0.705,0.584,-0.217
7231842,-672.0,-5982.0,-5552.0,0.349,-0.702,0.586,-0.206
7231859,-1386.0,-5484.0,-5144.0,0.357,-0.7,0.588,-0.193
7231876,-1906.0,-5756.0,-5216.0,0.365,-0.697,0.591,-0.178
7231892,-2158.0,-5836.0,-5472.0,0.374,-0.695,0.592,-0.164
7231908,-2296.0,-5148.0,-5076.0,0.384,-0.692,0.593,-0.149
7231925,-2336.0,-5542.0,-5206.0,0.393,-0.69,0.592,-0.135
7231942,-2192.0,-4388.0,-4846.0,0.402,-0.688,0.592,-0.121
7231958,-2448.0,-5042.0,-4744.0,0.408,-0.687,0.592,-0.106
7231975,-2670.0,-4684.0,-4616.0,0.414,-0.686,0.591,-0.091
7231992,-3390.0,-4804.0,-4324.0,0.417,-0.687,0.59,-0.076
7232019,-3718.0,-4912.0,-4156.0,0.419,-0.689,0.589,-0.059
7232035,-3578.0,-4590.0,-4028.0,0.42,-0.691,0.587,-0.042
7232051,-3226.0,-4504.0,-3952.0,0.42,-0.694,0.584,-0.025
7232067,-3528.0,-4206.0,-4652.0,0.421,-0.696,0.581,-0.008
7232083,-3514.0,-3884.0,-4248.0,0.422,-0.698,0.579,0.007
7232099,-4022.0,-4504.0,-4410.0,0.422,-0.7,0.576,0.022
7232115,-3728.0,-2808.0,-4036.0,0.421,-0.701,0.574,0.037
7232141,-3452.0,-3678.0,-4354.0,0.42,-0.703,0.571,0.051
7232158,-3672.0,-4274.0,-4322.0,0.421,-0.703,0.57,0.064
7232174,-3462.0,-3794.0,-4272.0,0.42,-0.703,0.568,0.076
7232191,-3148.0,-2518.0,-3018.0,0.419,-0.704,0.567,0.086
7232208,-2676.0,-3562.0,-3890.0,0.417,-0.705,0.566,0.096
7232225,-2304.0,-2884.0,-3536.0,0.415,-0.705,0.565,0.104
7232244,-2202.0,-2546.0,-3530.0,0.414,-0.706,0.565,0.108
7232260,-1736.0,-3086.0,-3612.0,0.413,-0.706,0.565,0.11
7232276,-1840.0,-2496.0,-2926.0,0.413,-0.706,0.566,0.108
7232293,-2098.0,-2802.0,-3018.0,0.412,-0.706,0.567,0.103
7232319,-1856.0,-1306.0,-2296.0,0.411,-0.707,0.568,0.096
7232335,-1686.0,-1440.0,-2522.0,0.408,-0.709,0.569,0.087
7232351,-2768.0,-4058.0,-4532.0,0.406,-0.711,0.57,0.074
7232367,-4026.0,-3176.0,-4358.0,0.405,-0.711,0.571,0.057
7232383,-2978.0,-394.0,-3064.0,0.402,-0.713,0.573,0.038
7232399,-4084.0,-1726.0,-3578.0,0.398,-0.716,0.573,0.019
7232425,-4546.0,-4756.0,-6228.0,0.396,-0.718,0.573,0.0
7232442,-4090.0,-2584.0,-6388.0,0.395,-0.719,0.572,-0.02
7232459,-3762.0,-5716.0,-6054.0,0.393,-0.719,0.572,-0.039
7232476,-3076.0,-7254.0,-6000.0,0.393,-0.717,0.573,-0.057
7232492,-3752.0,-7316.0,-5338.0,0.394,-0.713,0.575,-0.074
7232509,-4236.0,-5912.0,-4776.0,0.392,-0.711,0.577,-0.089
7232525,-3512.0,-5384.0,-5254.0,0.387,-0.711,0.578,-0.102
7232542,-2864.0,-5866.0,-5782.0,0.381,-0.712,0.578,-0.115
7232559,-1884.0,-5352.0,-6180.0,0.375,-0.714,0.578,-0.127
7232576,-1532.0,-5180.0,-5710.0,0.37,-0.714,0.577,-0.14
7232602,-1494.0,-6170.0,-6210.0,0.365,-0.715,0.576,-0.152
7232619,-2040.0,-5676.0,-5512.0,0.362,-0.715,0.575,-0.164
7232635,-1808.0,-6344.0,-6202.0,0.357,-0.716,0.574,-0.174
7232652,-1652.0,-6036.0,-6034.0,0.352,-0.717,0.573,-0.184
7232668,-1604.0,-6494.0,-5920.0,0.347,-0.718,0.572,-0.192
7232684,-1212.0,-6384.0,-6012.0,0.342,-0.719,0.572,-0.199
7232700,-1140.0,-7074.0,-6272.0,0.337,-0.72,0.57,-0.206
7232726,-1050.0,-6198.0,-6232.0,0.333,-0.721,0.569,-0.213
7232742,-878.0,-6586.0,-5940.0,0.329,-0.722,0.568,-0.219
7232758,-660.0,-6504.0,-5652.0,0.327,-0.722,0.566,-0.226
7232775,-342.0,-6270.0,-6076.0,0.324,-0.722,0.565,-0.232
7232791,-440.0,-6326.0,-6066.0,0.322,-0.723,0.563,-0.239
7232808,-308.0,-6616.0,-6214.0,0.32,-0.723,0.561,-0.247
7232825,-208.0,-6376.0,-5840.0,0.319,-0.722,0.558,-0.254
7232842,70.0,-6416.0,-5624.0,0.319,-0.722,0.556,-0.261
7232868,346.0,-6142.0,-5590.0,0.319,-0.721,0.554,-0.267
7232884,478.0,-6584.0,-5674.0,0.318,-0.72,0.553,-0.274
7232900,224.0,-7042.0,-5704.0,0.316,-0.719,0.552,-0.28
7232916,-2.0,-7118.0,-5578.0,0.314,-0.719,0.55,-0.286
7232933,228.0,-7808.0,-5988.0,0.312,-0.719,0.549,-0.291
7232949,720.0,-7778.0,-6562.0,0.31,-0.718,0.548,-0.297
7232965,604.0,-8470.0,-6888.0,0.308,-0.718,0.547,-0.301
7232991,414.0,-9026.0,-7330.0,0.304,-0.718,0.547,-0.304
7233007,-112.0,-9634.0,-7914.0,0.301,-0.718,0.548,-0.305
7233024,104.0,-9890.0,-8658.0,0.297,-0.719,0.55,-0.304
7233040,-16.0,-9844.0,-8590.0,0.294,-0.719,0.553,-0.3
7233057,206.0,-9448.0,-8166.0,0.293,-0.72,0.557,-0.293
7233074,336.0,-9174.0,-7804.0,0.293,-0.72,0.562,-0.283
7233091,304.0,-8756.0,-7970.0,0.296,-0.719,0.567,-0.271
7233108,394.0,-8316.0,-7780.0,0.3,-0.718,0.573,-0.258
7233125,342.0,-7740.0,-7542.0,0.307,-0.715,0.578,-0.245
7233142,278.0,-7374.0,-7276.0,0.315,-0.712,0.583,-0.232
7233169,-220.0,-6450.0,-6788.0,0.323,-0.709,0.587,-0.22
7233185,-856.0,-5894.0,-6110.0,0.333,-0.705,0.591,-0.207
7233201,-1182.0,-6182.0,-5830.0,0.343,-0.701,0.595,-0.193
7233218,-1260.0,-5568.0,-5722.0,0.352,-0.697,0.599,-0.179
7233234,-1690.0,-5376.0,-5328.0,0.361,-0.693,0.602,-0.164
7233250,-1924.0,-5518.0,-5288.0,0.368,-0.69,0.606,-0.148
7233266,-1920.0,-4712.0,-5454.0,0.374,-0.687,0.609,-0.132
7233292,-2438.0,-5036.0,-4920.0,0.378,-0.685,0.612,-0.116
7233309,-2552.0,-5088.0,-5216.0,0.382,-0.683,0.614,-0.101
7233325,-2928.0,-4494.0,-4912.0,0.384,-0.682,0.616,-0.086
7233341,-3370.0,-4584.0,-4998.0,0.386,-0.682,0.617,-0.071
7233358,-3374.0,-4638.0,-5726.0,0.387,-0.682,0.618,-0.055
7233375,-3818.0,-4110.0,-5210.0,0.388,-0.681,0.619,-0.04
7233392,-3586.0,-4142.0,-4818.0,0.39,-0.681,0.619,-0.024
7233409,-3666.0,-4462.0,-4374.0,0.393,-0.681,0.618,-0.009
7233425,-3622.0,-4098.0,-5380.0,0.394,-0.682,0.617,0.005
7233451,-3844.0,-3392.0,-5338.0,0.394,-0.682,0.615,0.018
7233467,-3584.0,-2720.0,-4316.0,0.393,-0.684,0.614,0.032
7233483,-3056.0,-3106.0,-4526.0,0.392,-0.685,0.612,0.047
7233499,-2450.0,-2614.0,-4374.0,0.394,-0.685,0.61,0.061
7233515,-2372.0,-2432.0,-3812.0,0.395,-0.686,0.607,0.074
7233531,-2622.0,-2600.0,-3410.0,0.396,-0.686,0.604,0.085
7233557,-2604.0,-2848.0,-3460.0,0.396,-0.688,0.601,0.095
7233574,-1944.0,-2388.0,-2856.0,0.395,-0.69,0.598,0.103
7233590,-934.0,-2250.0,-2822.0,0.393,-0.693,0.594,0.109
7233606,-2318.0,-2798.0,-3746.0,0.392,-0.696,0.591,0.111
7233623,-2588.0,-2456.0,-3886.0,0.391,-0.699,0.588,0.111
7233639,-3176.0,-2676.0,-4002.0,0.391,-0.701,0.586,0.107
7233656,-3004.0,-2354.0,-3592.0,0.39,-0.704,0.585,0.101
7233673,-3518.0,-2398.0,-3418.0,0.39,-0.706,0.584,0.092
7233690,-2308.0,-1620.0,-2854.0,0.389,-0.709,0.583,0.08
7233716,-3462.0,-1610.0,-2948.0,0.387,-0.713,0.582,0.067
7233732,-4026.0,-3682.0,-5182.0,0.386,-0.715,0.58,0.053
7233748,-4488.0,-3854.0,-5292.0,0.386,-0.716,0.58,0.037
7233764,-3982.0,-3564.0,-4746.0,0.386,-0.717,0.579,0.019
7233780,-3604.0,-4126.0,-4970.0,0.387,-0.718,0.579,0.002
7233806,-3236.0,-6498.0,-5712.0,0.387,-0.717,0.579,-0.016
7233823,-3318.0,-5692.0,-5020.0,0.388,-0.716,0.58,-0.036
7233840,-3700.0,-5340.0,-4484.0,0.385,-0.715,0.581,-0.054
7233857,-3426.0,-5310.0,-5400.0,0.381,-0.714,0.583,-0.069
7233874,-3114.0,-5856.0,-6738.0,0.378,-0.714,0.583,-0.084
7233891,-3166.0,-4654.0,-6224.0,0.375,-0.713,0.583,-0.1
7233908,-2946.0,-5160.0,-6018.0,0.372,-0.713,0.583,-0.115
7233925,-2446.0,-5000.0,-5832.0,0.371,-0.713,0.581,-0.128
7233942,-1896.0,-5768.0,-5928.0,0.369,-0.713,0.579,-0.14
7233958,-1656.0,-5958.0,-5794.0,0.368,-0.713,0.577,-0.152
7233975,-1428.0,-5880.0,-5322.0,0.365,-0.714,0.575,-0.164
7233992,-1478.0,-5750.0,-4768.0,0.362,-0.714,0.573,-0.175
7234018,-1032.0,-5866.0,-5280.0,0.358,-0.715,0.571,-0.184
7234035,-1086.0,-6198.0,-5534.0,0.354,-0.716,0.569,-0.194
7234052,-978.0,-6210.0,-6114.0,0.349,-0.718,0.567,-0.203
7234068,-1062.0,-5878.0,-5976.0,0.345,-0.719,0.564,-0.213
7234084,-816.0,-6022.0,-5944.0,0.342,-0.72,0.561,-0.222
7234100,-506.0,-6614.0,-5970.0,0.339,-0.721,0.559,-0.23
7234116,-208.0,-6532.0,-5700.0,0.337,-0.721,0.557,-0.238
7234142,-508.0,-6570.0,-5382.0,0.334,-0.721,0.555,-0.246
7234159,-378.0,-6732.0,-5502.0,0.331,-0.721,0.553,-0.253
7234175,-34.0,-6938.0,-5758.0,0.328,-0.721,0.551,-0.26
7234191,6.0,-7134.0,-5722.0,0.326,-0.721,0.549,-0.268
7234208,186.0,-6490.0,-5818.0,0.323,-0.721,0.547,-0.277
7234224,110.0,-6580.0,-5510.0,0.322,-0.72,0.545,-0.284
7234241,554.0,-6296.0,-5374.0,0.322,-0.719,0.543,-0.291
7234258,914.0,-6206.0,-5364.0,0.323,-0.717,0.541,-0.298
7234275,1290.0,-7694.0,-6302.0,0.324,-0.716,0.538,-0.305
7234301,442.0,-8248.0,-6090.0,0.324,-0.714,0.536,-0.313
7234317,392.0,-8946.0,-6504.0,0.323,-0.713,0.534,-0.32
7234333,400.0,-9950.0,-6896.0,0.322,-0.712,0.532,-0.326
7234349,788.0,-10118.0,-7580.0,0.322,-0.711,0.531,-0.329
7234365,876.0,-10190.0,-7732.0,0.321,-0.711,0.532,-0.33
7234381,908.0,-10646.0,-7552.0,0.319,-0.71,0.535,-0.328
7234407,906.0,-10310.0,-7256.0,0.318,-0.709,0.54,-0.323
7234424,818.0,-9644.0,-7144.0,0.318,-0.709,0.544,-0.316
7234440,774.0,-9224.0,-7180.0,0.319,-0.708,0.55,-0.307
7234457,858.0,-9004.0,-7282.0,0.322,-0.707,0.556,-0.297
7234474,748.0,-8700.0,-7380.0,0.325,-0.705,0.562,-0.286
7234491,510.0,-8196.0,-7174.0,0.329,-0.703,0.567,-0.275
7234507,68.0,-7800.0,-6554.0,0.333,-0.701,0.573,-0.264
7234523,-556.0,-7166.0,-5908.0,0.339,-0.698,0.578,-0.252
7234540,-754.0,-6538.0,-5810.0,0.345,-0.696,0.583,-0.239
7234567,-848.0,-5888.0,-5626.0,0.353,-0.693,0.587,-0.224
7234583,-926.0,-5552.0,-5548.0,0.36,-0.691,0.591,-0.208
7234599,-1030.0,-5452.0,-5416.0,0.368,-0.688,0.595,-0.192
7234615,-1342.0,-5204.0,-5176.0,0.375,-0.686,0.598,-0.177
7234631,-1772.0,-5500.0,-5052.0,0.381,-0.684,0.6,-0.162
7234647,-2056.0,-5276.0,-4874.0,0.387,-0.682,0.603,-0.147
7234673,-2226.0,-5290.0,-4814.0,0.392,-0.681,0.605,-0.132
7234690,-2438.0,-5006.0,-5014.0,0.396,-0.679,0.607,-0.116
7234707,-2694.0,-4786.0,-5128.0,0.4,-0.677,0.609,-0.1
7234724,-2528.0,-4432.0,-5116.0,0.404,-0.675,0.611,-0.084
7234741,-3262.0,-5112.0,-5020.0,0.408,-0.674,0.612,-0.069
7234758,-3390.0,-4116.0,-4756.0,0.411,-0.672,0.613,-0.055
7234775,-3238.0,-4700.0,-5170.0,0.414,-0.672,0.613,-0.04
7234791,-3646.0,-4290.0,-5300.0,0.416,-0.671,0.613,-0.025
7234808,-4192.0,-4192.0,-4912.0,0.419,-0.67,0.613,-0.011
7234824,-3998.0,-4172.0,-4852.0,0.421,-0.669,0.612,0.003
7234851,-4304.0,-4932.0,-5186.0,0.424,-0.668,0.611,0.017
7234867,-4342.0,-4650.0,-4966.0,0.428,-0.666,0.61,0.029
7234883,-4420.0,-3088.0,-3726.0,0.432,-0.664,0.609,0.041
7234899,-3608.0,-3140.0,-3536.0,0.434,-0.663,0.608,0.054
7234915,-2906.0,-2540.0,-3584.0,0.437,-0.661,0.607,0.067
7234931,-2968.0,-2452.0,-4160.0,0.44,-0.658,0.606,0.078
7234957,-1758.0,-2682.0,-2474.0,0.446,-0.653,0.607,0.084
7234974,-2000.0,-3264.0,-1822.0,0.452,-0.647,0.607,0.086
7234991,-1208.0,-3286.0,-1832.0,0.459,-0.643,0.608,0.084
7235007,-2176.0,-2568.0,-1582.0,0.464,-0.638,0.609,0.078
7235024,-2656.0,-2376.0,-1934.0,0.469,-0.635,0.61,0.069
7235040,-3524.0,-3140.0,-2792.0,0.473,-0.632,0.611,0.058
7235057,-3582.0,-1852.0,-2048.0,0.476,-0.631,0.611,0.045
7235074,-2044.0,-938.0,-76.0,0.474,-0.632,0.612,0.03
7235091,-3624.0,-2048.0,-1968.0,0.469,-0.637,0.612,0.016
7235108,-4806.0,-4394.0,-3792.0,0.465,-0.64,0.612,0.001
7235124,-4808.0,-5726.0,-4362.0,0.461,-0.642,0.613,-0.016
7235151,-4718.0,-4658.0,-3100.0,0.457,-0.643,0.614,-0.033
7235167,-4672.0,-5152.0,-3248.0,0.451,-0.645,0.615,-0.047
7235183,-4016.0,-5036.0,-4686.0,0.444,-0.648,0.616,-0.061
7235199,-4308.0,-5592.0,-4712.0,0.436,-0.651,0.617,-0.074
7235215,-3584.0,-6154.0,-5654.0,0.427,-0.654,0.618,-0.088
7235231,-4034.0,-6202.0,-5240.0,0.418,-0.657,0.619,-0.103
7235257,-4010.0,-5668.0,-5056.0,0.408,-0.661,0.619,-0.116
7235274,-3178.0,-5354.0,-5426.0,0.398,-0.665,0.619,-0.128
7235291,-2968.0,-6878.0,-6042.0,0.389,-0.669,0.618,-0.138
7235307,-2588.0,-6256.0,-6660.0,0.381,-0.673,0.617,-0.149
7235324,-2320.0,-6276.0,-6412.0,0.374,-0.676,0.615,-0.16
7235341,-2468.0,-6340.0,-6274.0,0.368,-0.678,0.613,-0.169
7235357,-2308.0,-6130.0,-6100.0,0.364,-0.68,0.611,-0.178
7235374,-1444.0,-6700.0,-6368.0,0.361,-0.682,0.608,-0.187
7235391,-1338.0,-6352.0,-5924.0,0.359,-0.683,0.605,-0.196
7235407,-1326.0,-6658.0,-5666.0,0.357,-0.684,0.602,-0.206
7235434,-1120.0,-5852.0,-5442.0,0.356,-0.685,0.598,-0.215
7235450,-938.0,-5964.0,-5226.0,0.355,-0.685,0.595,-0.224
7235466,-934.0,-7134.0,-5608.0,0.354,-0.685,0.592,-0.233
7235482,-808.0,-6486.0,-5666.0,0.353,-0.685,0.589,-0.243
7235498,-910.0,-6754.0,-5366.0,0.351,-0.685,0.586,-0.253
7235514,-710.0,-6444.0,-5196.0,0.349,-0.685,0.583,-0.262
7235540,-250.0,-6508.0,-5256.0,0.348,-0.685,0.581,-0.27
7235557,240.0,-6662.0,-5456.0,0.347,-0.684,0.578,-0.278
7235574,184.0,-6648.0,-5310.0,0.345,-0.684,0.576,-0.286
7235591,-32.0,-7110.0,-5116.0,0.342,-0.684,0.574,-0.293
7235608,534.0,-7068.0,-5410.0,0.339,-0.685,0.571,-0.3
7235624,942.0,-7126.0,-5342.0,0.335,-0.686,0.569,-0.307
7235641,1700.0,-6998.0,-6096.0,0.331,-0.686,0.567,-0.312
7235657,1130.0,-7286.0,-6394.0,0.326,-0.687,0.567,-0.317
7235673,458.0,-9006.0,-6832.0,0.321,-0.688,0.567,-0.32
7235699,40.0,-9856.0,-6912.0,0.317,-0.688,0.567,-0.322
7235715,48.0,-10356.0,-7268.0,0.313,-0.689,0.568,-0.323
7235731,372.0,-10590.0,-7902.0,0.309,-0.69,0.571,-0.321
7235747,44.0,-10552.0,-8072.0,0.307,-0.69,0.574,-0.317
7235763,134.0,-10124.0,-7860.0,0.307,-0.69,0.578,-0.31
7235779,328.0,-9628.0,-7792.0,0.309,-0.689,0.583,-0.301
7235805,148.0,-9024.0,-7526.0,0.312,-0.688,0.587,-0.291
7235821,44.0,-8714.0,-7300.0,0.317,-0.686,0.592,-0.28
7235837,-60.0,-8202.0,-6908.0,0.325,-0.683,0.597,-0.27
7235853,-364.0,-8132.0,-6654.0,0.334,-0.679,0.6,-0.259
7235869,-694.0,-6790.0,-6316.0,0.345,-0.674,0.604,-0.247
7235885,-872.0,-6676.0,-6144.0,0.356,-0.669,0.609,-0.234
7235911,-1132.0,-6090.0,-5776.0,0.368,-0.664,0.612,-0.22
7235927,-1334.0,-5938.0,-5570.0,0.378,-0.66,0.616,-0.206
7235943,-1468.0,-5568.0,-5362.0,0.388,-0.655,0.619,-0.191
7235959,-1864.0,-5368.0,-4956.0,0.398,-0.651,0.623,-0.175
7235975,-2428.0,-5428.0,-4664.0,0.407,-0.647,0.625,-0.159
7235991,-2516.0,-4940.0,-4488.0,0.415,-0.643,0.627,-0.143
7236018,-2526.0,-5378.0,-4434.0,0.422,-0.64,0.629,-0.126
7236034,-2732.0,-5182.0,-4352.0,0.429,-0.638,0.63,-0.111
7236050,-3040.0,-5330.0,-4044.0,0.433,-0.637,0.631,-0.096
7236066,-3532.0,-4702.0,-4216.0,0.436,-0.636,0.631,-0.08
7236082,-3846.0,-5196.0,-4790.0,0.438,-0.637,0.631,-0.065
7236098,-3968.0,-4332.0,-5180.0,0.439,-0.638,0.631,-0.049
7236124,-4264.0,-3766.0,-4618.0,0.44,-0.639,0.63,-0.032
7236140,-4148.0,-4346.0,-4904.0,0.441,-0.64,0.629,-0.015
7236156,-4340.0,-3694.0,-4778.0,0.442,-0.641,0.627,0.003
7236173,-4374.0,-3320.0,-4282.0,0.441,-0.643,0.625,0.02
7236190,-4084.0,-2960.0,-4008.0,0.44,-0.646,0.622,0.039
7236206,-3990.0,-4526.0,-4730.0,0.438,-0.649,0.619,0.057
7236223,-3324.0,-2754.0,-3526.0,0.437,-0.651,0.616,0.073
7236240,-2770.0,-3378.0,-3446.0,0.437,-0.652,0.613,0.087
7236267,-2726.0,-3148.0,-3024.0,0.438,-0.653,0.61,0.099
7236283,-2432.0,-2322.0,-2496.0,0.437,-0.654,0.608,0.108
7236299,-1994.0,-2316.0,-2234.0,0.436,-0.656,0.606,0.115
7236315,-2292.0,-3010.0,-2644.0,0.434,-0.658,0.604,0.119
7236331,-2412.0,-1816.0,-2038.0,0.433,-0.66,0.602,0.119
7236348,-3492.0,-4086.0,-3620.0,0.432,-0.661,0.602,0.116
7236364,-3292.0,-2348.0,-2888.0,0.431,-0.662,0.603,0.111
7236390,-3250.0,-724.0,-1746.0,0.429,-0.664,0.604,0.103
7236406,-3020.0,-302.0,-932.0,0.424,-0.667,0.605,0.092
7236422,-4218.0,-2628.0,-1260.0,0.42,-0.669,0.608,0.078
7236438,-4664.0,-6714.0,-4024.0,0.419,-0.667,0.614,0.06
7236455,-4590.0,-5476.0,-5180.0,0.417,-0.664,0.619,0.041
7236471,-4838.0,-2624.0,-4506.0,0.412,-0.665,0.623,0.025
7236487,-4440.0,-3438.0,-5722.0,0.409,-0.664,0.626,0.01
7236514,-4204.0,-4476.0,-5760.0,0.41,-0.66,0.63,-0.006
7236530,-5114.0,-6000.0,-6158.0,0.411,-0.655,0.634,-0.024
7236546,-4604.0,-3076.0,-5002.0,0.409,-0.652,0.638,-0.041
7236562,-4992.0,-4352.0,-5052.0,0.406,-0.65,0.64,-0.055
7236578,-4526.0,-5520.0,-6458.0,0.401,-0.65,0.642,-0.067
7236594,-3900.0,-4702.0,-5796.0,0.399,-0.648,0.643,-0.081
7236620,-4066.0,-6024.0,-6092.0,0.397,-0.646,0.645,-0.095
7236636,-3700.0,-5474.0,-6416.0,0.394,-0.645,0.645,-0.108
7236652,-4442.0,-6868.0,-5768.0,0.394,-0.644,0.645,-0.121
7236668,-3556.0,-5234.0,-5564.0,0.392,-0.644,0.644,-0.132
7236684,-2842.0,-5684.0,-5258.0,0.39,-0.643,0.643,-0.142
7236700,-2198.0,-5696.0,-5596.0,0.388,-0.643,0.642,-0.152
7236726,-2132.0,-5778.0,-5140.0,0.385,-0.644,0.641,-0.162
7236742,-1878.0,-4998.0,-5136.0,0.382,-0.644,0.64,-0.17
7236758,-1996.0,-5588.0,-4768.0,0.379,-0.645,0.639,-0.179
7236774,-1620.0,-6350.0,-5210.0,0.374,-0.647,0.638,-0.187
7236790,-1684.0,-5632.0,-4782.0,0.369,-0.649,0.636,-0.196
7236806,-1642.0,-5846.0,-5450.0,0.363,-0.651,0.635,-0.203
7236832,-1548.0,-5912.0,-5650.0,0.358,-0.653,0.633,-0.211
7236848,-1516.0,-6160.0,-5498.0,0.353,-0.655,0.632,-0.219
7236864,-1228.0,-6058.0,-5712.0,0.348,-0.656,0.63,-0.226
7236880,-1354.0,-6796.0,-5866.0,0.342,-0.658,0.629,-0.234
7236896,-1528.0,-6848.0,-5766.0,0.336,-0.66,0.627,-0.242
7236912,-1394.0,-5646.0,-5562.0,0.332,-0.662,0.624,-0.249
7236938,-856.0,-5854.0,-5840.0,0.327,-0.664,0.621,-0.256
7236954,-366.0,-6272.0,-6182.0,0.323,-0.667,0.619,-0.262
7236970,-32.0,-6230.0,-5986.0,0.318,-0.669,0.616,-0.268
7236987,-276.0,-6468.0,-5444.0,0.314,-0.671,0.613,-0.274
7237003,60.0,-6398.0,-5674.0,0.31,-0.673,0.61,-0.28
7237019,466.0,-7418.0,-6348.0,0.305,-0.675,0.607,-0.286
7237045,256.0,-7036.0,-6416.0,0.302,-0.677,0.604,-0.292
7237061,-36.0,-7778.0,-6544.0,0.298,-0.679,0.602,-0.298
7237078,268.0,-8194.0,-7464.0,0.295,-0.68,0.6,-0.302
7237094,144.0,-9064.0,-7764.0,0.292,-0.681,0.598,-0.305
7237110,68.0,-9700.0,-7948.0,0.289,-0.682,0.598,-0.307
7237126,-152.0,-9566.0,-7826.0,0.288,-0.682,0.599,-0.306
7237142,96.0,-9338.0,-8032.0,0.286,-0.681,0.602,-0.303
7237168,368.0,-9320.0,-8166.0,0.287,-0.681,0.605,-0.297
7237184,456.0,-8900.0,-7798.0,0.29,-0.679,0.609,-0.29
7237200,528.0,-8812.0,-7802.0,0.294,-0.677,0.614,-0.281
7237216,460.0,-8642.0,-7826.0,0.301,-0.674,0.618,-0.273
7237232,78.0,-7232.0,-7380.0,0.309,-0.67,0.621,-0.264
7237258,16.0,-6772.0,-7376.0,0.319,-0.666,0.625,-0.255
7237274,-538.0,-6596.0,-6536.0,0.33,-0.661,0.628,-0.245
7237290,-1090.0,-7176.0,-6078.0,0.341,-0.656,0.632,-0.233
7237306,-1070.0,-5892.0,-6210.0,0.352,-0.651,0.635,-0.221
7237322,-1542.0,-6366.0,-5562.0,0.363,-0.646,0.638,-0.209
7237338,-1548.0,-5926.0,-5368.0,0.373,-0.642,0.641,-0.196
7237354,-1516.0,-5234.0,-5084.0,0.384,-0.637,0.643,-0.184
7237380,-1666.0,-5736.0,-4916.0,0.394,-0.632,0.645,-0.171
7237396,-1784.0,-5172.0,-4994.0,0.401,-0.629,0.647,-0.159
7237412,-2522.0,-5164.0,-4618.0,0.405,-0.627,0.649,-0.146
7237428,-2922.0,-5012.0,-4686.0,0.409,-0.627,0.65,-0.132
7237444,-3282.0,-5362.0,-4506.0,0.413,-0.626,0.651,-0.118
7237470,-3002.0,-4060.0,-4740.0,0.416,-0.626,0.651,-0.105
7237486,-2818.0,-3842.0,-5174.0,0.419,-0.626,0.651,-0.09
7237502,-3454.0,-4588.0,-4572.0,0.422,-0.627,0.651,-0.076
7237518,-3470.0,-4590.0,-4870.0,0.424,-0.629,0.649,-0.062
7237534,-3922.0,-3934.0,-4436.0,0.424,-0.631,0.647,-0.047
7237550,-4532.0,-4114.0,-4548.0,0.423,-0.635,0.645,-0.031
7237576,-4264.0,-3100.0,-4438.0,0.422,-0.639,0.643,-0.016
7237592,-4340.0,-4074.0,-4682.0,0.422,-0.642,0.64,0.0
7237608,-3916.0,-4152.0,-4706.0,0.421,-0.645,0.638,0.015
7237624,-3832.0,-2840.0,-3462.0,0.42,-0.647,0.636,0.029
7237640,-3364.0,-3272.0,-3096.0,0.418,-0.649,0.634,0.042
7237656,-3168.0,-3360.0,-4210.0,0.416,-0.652,0.631,0.055
7237673,-2888.0,-3174.0,-4046.0,0.415,-0.654,0.629,0.066
7237699,-2562.0,-2970.0,-3938.0,0.415,-0.655,0.627,0.073
7237715,-2536.0,-2922.0,-3096.0,0.415,-0.656,0.625,0.079
7237731,-1890.0,-2520.0,-2664.0,0.416,-0.657,0.623,0.082
7237747,-1912.0,-2734.0,-2978.0,0.416,-0.659,0.621,0.082
7237763,-2216.0,-2908.0,-3432.0,0.416,-0.661,0.62,0.08
7237779,-2268.0,-2376.0,-2892.0,0.416,-0.663,0.618,0.076
7237805,-2822.0,-2580.0,-3348.0,0.415,-0.665,0.617,0.068
7237821,-2976.0,-2440.0,-2950.0,0.413,-0.667,0.617,0.059
7237837,-3294.0,-2370.0,-3196.0,0.411,-0.67,0.616,0.047
7237853,-3952.0,-3844.0,-4320.0,0.41,-0.671,0.616,0.034
7237869,-4026.0,-3222.0,-4244.0,0.409,-0.672,0.617,0.019
7237895,-4506.0,-3962.0,-4186.0,0.407,-0.672,0.618,0.003
7237911,-4358.0,-3236.0,-4046.0,0.404,-0.673,0.62,-0.012
7237927,-4196.0,-4586.0,-4770.0,0.4,-0.673,0.622,-0.027
7237943,-3754.0,-5084.0,-5662.0,0.395,-0.673,0.623,-0.042
7237959,-4060.0,-5208.0,-5246.0,0.39,-0.674,0.625,-0.058
7237975,-4034.0,-4638.0,-5084.0,0.382,-0.675,0.627,-0.073
7238001,-3668.0,-5314.0,-5502.0,0.375,-0.676,0.628,-0.087
7238017,-3208.0,-5668.0,-5924.0,0.368,-0.677,0.629,-0.101
7238034,-2484.0,-4952.0,-6042.0,0.361,-0.678,0.63,-0.115
7238050,-2788.0,-6048.0,-6122.0,0.354,-0.678,0.631,-0.129
7238067,-2544.0,-4882.0,-6078.0,0.347,-0.679,0.631,-0.142
7238083,-2400.0,-5296.0,-5948.0,0.341,-0.68,0.63,-0.154
7238099,-1934.0,-5202.0,-6172.0,0.335,-0.681,0.63,-0.166
7238125,-1310.0,-5508.0,-6632.0,0.33,-0.682,0.629,-0.176
7238141,-1206.0,-5506.0,-6436.0,0.325,-0.682,0.627,-0.188
7238157,-1474.0,-7200.0,-6012.0,0.32,-0.683,0.626,-0.199
7238173,-1614.0,-5708.0,-6104.0,0.315,-0.683,0.624,-0.21
7238189,-1538.0,-5904.0,-6394.0,0.311,-0.684,0.622,-0.22
7238205,-896.0,-5996.0,-6908.0,0.307,-0.685,0.62,-0.229
7238231,-568.0,-6070.0,-6694.0,0.304,-0.685,0.618,-0.238
7238247,-766.0,-6634.0,-6446.0,0.3,-0.685,0.616,-0.246
7238263,-712.0,-5962.0,-6056.0,0.296,-0.686,0.614,-0.254
7238279,-304.0,-6188.0,-5896.0,0.293,-0.686,0.612,-0.261
7238295,298.0,-6898.0,-6612.0,0.288,-0.687,0.61,-0.268
7238311,74.0,-5884.0,-6320.0,0.284,-0.689,0.608,-0.275
7238337,66.0,-6154.0,-6174.0,0.28,-0.69,0.606,-0.281
7238353,396.0,-6304.0,-6096.0,0.277,-0.691,0.603,-0.287
7238369,512.0,-6388.0,-6482.0,0.275,-0.692,0.6,-0.292
7238385,1252.0,-6882.0,-6902.0,0.273,-0.693,0.597,-0.298
7238401,870.0,-7038.0,-6472.0,0.271,-0.694,0.594,-0.303
7238417,666.0,-7472.0,-6624.0,0.269,-0.695,0.592,-0.308
7238443,1078.0,-7938.0,-7184.0,0.266,-0.696,0.59,-0.311
7238460,966.0,-8180.0,-7430.0,0.264,-0.697,0.588,-0.314
7238476,1122.0,-8386.0,-7586.0,0.261,-0.698,0.588,-0.315
7238493,972.0,-8878.0,-7854.0,0.259,-0.699,0.588,-0.314
7238510,958.0,-8752.0,-7726.0,0.257,-0.7,0.59,-0.311
7238526,1338.0,-8694.0,-7872.0,0.256,-0.7,0.592,-0.307
7238543,1300.0,-8108.0,-7940.0,0.255,-0.7,0.595,-0.301
7238559,1190.0,-8058.0,-7846.0,0.256,-0.7,0.599,-0.293
7238585,1172.0,-8002.0,-7796.0,0.259,-0.699,0.603,-0.284
7238601,994.0,-7886.0,-7660.0,0.264,-0.697,0.607,-0.276
7238617,558.0,-7154.0,-7378.0,0.27,-0.695,0.611,-0.267
7238633,180.0,-6774.0,-7218.0,0.279,-0.692,0.614,-0.257
7238649,332.0,-6400.0,-7132.0,0.289,-0.688,0.618,-0.247
7238665,144.0,-6502.0,-6616.0,0.299,-0.683,0.622,-0.236
7238691,-194.0,-6228.0,-6418.0,0.31,-0.679,0.627,-0.225
7238708,-556.0,-5658.0,-6112.0,0.32,-0.674,0.631,-0.214
7238724,-828.0,-6354.0,-6024.0,0.33,-0.669,0.635,-0.201
7238740,-1118.0,-5500.0,-5776.0,0.339,-0.664,0.639,-0.189
7238757,-1500.0,-5636.0,-5616.0,0.347,-0.66,0.643,-0.176
7238774,-1706.0,-5730.0,-6030.0,0.355,-0.656,0.646,-0.162
7238790,-2064.0,-4878.0,-5594.0,0.363,-0.652,0.649,-0.149
7238806,-2214.0,-4874.0,-5594.0,0.371,-0.648,0.651,-0.135
7238832,-2246.0,-5094.0,-5642.0,0.379,-0.644,0.653,-0.121
7238848,-2690.0,-4890.0,-5410.0,0.387,-0.64,0.654,-0.108
7238864,-2986.0,-4552.0,-5408.0,0.395,-0.637,0.655,-0.096
7238880,-3158.0,-3646.0,-5324.0,0.402,-0.634,0.656,-0.084
7238897,-3360.0,-3592.0,-5304.0,0.409,-0.631,0.655,-0.07
7238913,-3390.0,-3736.0,-6128.0,0.414,-0.629,0.655,-0.056
7238939,-3944.0,-3646.0,-4832.0,0.419,-0.628,0.655,-0.042
7238955,-3868.0,-3578.0,-5472.0,0.423,-0.627,0.653,-0.026
7238971,-4146.0,-3892.0,-6006.0,0.427,-0.627,0.652,-0.01
7238987,-4288.0,-3288.0,-5276.0,0.431,-0.626,0.65,0.008
7239003,-4444.0,-5896.0,-5278.0,0.435,-0.624,0.648,0.027
7239019,-4124.0,-2234.0,-4782.0,0.439,-0.622,0.647,0.045
7239045,-4680.0,-4818.0,-4076.0,0.443,-0.619,0.646,0.063
7239061,-3954.0,-2300.0,-4000.0,0.446,-0.617,0.644,0.081
7239077,-3642.0,-2976.0,-3684.0,0.449,-0.614,0.642,0.098
7239093,-3934.0,-3992.0,-3410.0,0.452,-0.612,0.639,0.113
7239109,-3816.0,-3024.0,-2728.0,0.454,-0.611,0.637,0.125
7239125,-3768.0,-2832.0,-2268.0,0.455,-0.611,0.633,0.136
7239151,-3372.0,-1974.0,-2604.0,0.455,-0.613,0.629,0.144
7239168,-3548.0,-3824.0,-1836.0,0.455,-0.616,0.626,0.151
7239184,-4236.0,-2378.0,-2824.0,0.454,-0.618,0.622,0.156
7239200,-4882.0,-2706.0,-2950.0,0.454,-0.621,0.619,0.158
7239216,-4824.0,-2530.0,-3102.0,0.454,-0.623,0.617,0.158
7239232,-5668.0,-3584.0,-3878.0,0.454,-0.624,0.616,0.157
7239258,-6044.0,-3044.0,-3398.0,0.455,-0.625,0.615,0.155
7239275,-6300.0,-3776.0,-3690.0,0.455,-0.626,0.615,0.153
7239292,-6764.0,-3530.0,-3980.0,0.455,-0.626,0.615,0.151
7239309,-7090.0,-3258.0,-4410.0,0.454,-0.626,0.616,0.149
7239326,-7174.0,-3314.0,-4574.0,0.454,-0.626,0.616,0.149
7239343,-7028.0,-3162.0,-4584.0,0.454,-0.626,0.617,0.149
7239359,-7002.0,-3414.0,-4834.0,0.455,-0.625,0.617,0.149
7239375,-6738.0,-3082.0,-4768.0,0.455,-0.624,0.618,0.149
7239392,-6592.0,-2826.0,-4550.0,0.456,-0.622,0.618,0.15
7239408,-6228.0,-2942.0,-5008.0,0.457,-0.621,0.618,0.151
7239434,-6208.0,-2878.0,-4920.0,0.459,-0.62,0.618,0.152
7239450,-6028.0,-2940.0,-4774.0,0.46,-0.619,0.618,0.152
7239466,-6180.0,-3140.0,-4488.0,0.462,-0.618,0.618,0.152
7239482,-5858.0,-3116.0,-5010.0,0.464,-0.617,0.617,0.152
7239498,-6058.0,-2618.0,-5178.0,0.465,-0.617,0.616,0.153
7239514,-5656.0,-2834.0,-4932.0,0.466,-0.617,0.615,0.154
7239540,-5762.0,-2950.0,-4806.0,0.468,-0.618,0.613,0.157
7239556,-5924.0,-3390.0,-5156.0,0.469,-0.618,0.61,0.16
7239572,-6132.0,-3146.0,-4904.0,0.47,-0.618,0.608,0.163
7239588,-6044.0,-2862.0,-4732.0,0.471,-0.619,0.606,0.167
7239604,-5706.0,-2624.0,-5094.0,0.473,-0.619,0.603,0.172
7239620,-5848.0,-2616.0,-5168.0,0.476,-0.617,0.601,0.176
7239646,-6044.0,-2388.0,-4518.0,0.48,-0.615,0.599,0.18
7239662,-6012.0,-2626.0,-4340.0,0.484,-0.612,0.598,0.183
7239678,-6142.0,-2586.0,-4090.0,0.488,-0.61,0.596,0.188
7239694,-6080.0,-2494.0,-3986.0,0.491,-0.607,0.594,0.192
