timestamp,ax,ay,az,q0,q1,q2,q3
3192965,2189.0,4057.0,6513.0,0.932,0.308,-0.137,0.136
3192981,2141.0,4121.0,6547.0,0.931,0.309,-0.136,0.137
3192997,2179.0,4137.0,6501.0,0.931,0.31,-0.136,0.137
3193023,2223.0,4245.0,6443.0,0.93,0.311,-0.135,0.138
3193039,2259.0,4283.0,6515.0,0.93,0.312,-0.135,0.139
3193056,2131.0,4225.0,6437.0,0.93,0.314,-0.135,0.139
3193073,2169.0,4315.0,6425.0,0.929,0.315,-0.134,0.14
3193090,2229.0,4425.0,6373.0,0.929,0.316,-0.134,0.14
3193106,2225.0,4461.0,6397.0,0.928,0.317,-0.134,0.141
3193122,2153.0,4435.0,6383.0,0.928,0.318,-0.134,0.141
3193148,2241.0,4485.0,6295.0,0.927,0.319,-0.134,0.141
3193164,2349.0,4507.0,6295.0,0.927,0.32,-0.134,0.141
3193180,2353.0,4575.0,6243.0,0.927,0.321,-0.134,0.141
3193196,2331.0,4385.0,6289.0,0.927,0.321,-0.134,0.142
3193212,2329.0,4447.0,6243.0,0.927,0.322,-0.134,0.142
3193228,2333.0,4409.0,6333.0,0.926,0.322,-0.133,0.142
3193254,2195.0,4437.0,6365.0,0.926,0.322,-0.133,0.143
3193270,2255.0,4535.0,6361.0,0.926,0.323,-0.133,0.143
3193286,2253.0,4573.0,6301.0,0.926,0.323,-0.133,0.143
3193302,2227.0,4489.0,6289.0,0.926,0.323,-0.133,0.144
3193318,2249.0,4419.0,6337.0,0.926,0.322,-0.132,0.144
3193334,2181.0,4441.0,6365.0,0.926,0.322,-0.132,0.144
3193351,2203.0,4427.0,6317.0,0.926,0.322,-0.132,0.144
3193377,2181.0,4497.0,6315.0,0.926,0.322,-0.132,0.145
3193393,2213.0,4357.0,6391.0,0.926,0.322,-0.132,0.145
3193409,2223.0,4259.0,6385.0,0.926,0.321,-0.132,0.145
3193426,2223.0,4307.0,6343.0,0.927,0.321,-0.132,0.145
3193443,2223.0,4329.0,6363.0,0.927,0.321,-0.132,0.145
3193459,2259.0,4315.0,6365.0,0.927,0.321,-0.132,0.145
3193475,2237.0,4307.0,6361.0,0.927,0.321,-0.132,0.145
3193501,2315.0,4305.0,6311.0,0.927,0.321,-0.132,0.146
3193518,2273.0,4303.0,6385.0,0.927,0.321,-0.132,0.146
3193534,2285.0,4299.0,6355.0,0.927,0.321,-0.131,0.146
3193550,2255.0,4343.0,6327.0,0.927,0.321,-0.131,0.146
3193567,2321.0,4333.0,6347.0,0.927,0.321,-0.131,0.146
3193583,2275.0,4351.0,6431.0,0.927,0.321,-0.131,0.146
3193599,2235.0,4331.0,6399.0,0.927,0.321,-0.13,0.146
3193625,2263.0,4357.0,6395.0,0.927,0.321,-0.13,0.146
3193641,2191.0,4347.0,6341.0,0.927,0.321,-0.13,0.146
3193658,2203.0,4369.0,6327.0,0.927,0.321,-0.129,0.147
3193674,2197.0,4391.0,6365.0,0.926,0.322,-0.129,0.147
3193690,2237.0,4409.0,6327.0,0.926,0.322,-0.129,0.147
3193707,2257.0,4389.0,6319.0,0.926,0.322,-0.129,0.147
3193723,2245.0,4323.0,6363.0,0.926,0.322,-0.129,0.148
3193750,2251.0,4393.0,6311.0,0.926,0.322,-0.128,0.148
3193766,2237.0,4391.0,6345.0,0.926,0.322,-0.128,0.148
3193782,2275.0,4353.0,6331.0,0.926,0.322,-0.128,0.148
3193798,2215.0,4413.0,6319.0,0.926,0.322,-0.128,0.148
3193814,2245.0,4405.0,6321.0,0.926,0.322,-0.128,0.149
3193831,2247.0,4333.0,6365.0,0.926,0.322,-0.127,0.149
3193847,2179.0,4351.0,6325.0,0.926,0.322,-0.127,0.149
3193874,2267.0,4391.0,6365.0,0.926,0.322,-0.127,0.149
3193890,2211.0,4389.0,6365.0,0.926,0.322,-0.127,0.149
3193906,2207.0,4399.0,6351.0,0.926,0.322,-0.127,0.149
3193922,2259.0,4425.0,6315.0,0.926,0.322,-0.127,0.149
3193938,2241.0,4363.0,6327.0,0.926,0.322,-0.126,0.149
3193955,2251.0,4411.0,6353.0,0.926,0.322,-0.126,0.149
3193972,2265.0,4427.0,6327.0,0.926,0.322,-0.126,0.149
3193998,2271.0,4363.0,6367.0,0.926,0.322,-0.126,0.149
3194014,2245.0,4347.0,6359.0,0.926,0.322,-0.126,0.15
3194030,2245.0,4365.0,6311.0,0.926,0.322,-0.126,0.15
3194046,2229.0,4343.0,6307.0,0.926,0.322,-0.125,0.15
3194062,2203.0,4361.0,6335.0,0.926,0.322,-0.125,0.15
3194079,2211.0,4367.0,6323.0,0.926,0.322,-0.125,0.15
3194095,2223.0,4367.0,6351.0,0.926,0.322,-0.125,0.151
3194121,2271.0,4429.0,6297.0,0.926,0.322,-0.124,0.151
3194137,2215.0,4445.0,6327.0,0.926,0.322,-0.124,0.151
3194153,2229.0,4423.0,6337.0,0.926,0.322,-0.124,0.151
3194169,2235.0,4387.0,6281.0,0.926,0.322,-0.124,0.151
3194186,2201.0,4411.0,6323.0,0.926,0.322,-0.124,0.151
3194203,2155.0,4379.0,6291.0,0.926,0.322,-0.124,0.151
3194219,2199.0,4429.0,6339.0,0.926,0.322,-0.123,0.152
3194245,2179.0,4393.0,6323.0,0.926,0.322,-0.123,0.152
3194261,2177.0,4405.0,6349.0,0.926,0.322,-0.123,0.152
3194277,2195.0,4369.0,6343.0,0.926,0.322,-0.123,0.152
3194293,2213.0,4415.0,6313.0,0.926,0.322,-0.123,0.152
3194309,2177.0,4449.0,6343.0,0.926,0.322,-0.123,0.152
3194325,2169.0,4413.0,6345.0,0.926,0.322,-0.122,0.152
3194351,2233.0,4415.0,6333.0,0.926,0.322,-0.122,0.152
3194367,2207.0,4375.0,6371.0,0.926,0.322,-0.122,0.152
3194383,2181.0,4399.0,6315.0,0.926,0.322,-0.122,0.152
3194399,2223.0,4381.0,6357.0,0.926,0.322,-0.122,0.153
3194415,2239.0,4373.0,6337.0,0.926,0.322,-0.122,0.153
3194431,2201.0,4459.0,6363.0,0.926,0.322,-0.122,0.153
3194457,2223.0,4389.0,6339.0,0.926,0.322,-0.121,0.153
3194474,2201.0,4421.0,6343.0,0.926,0.322,-0.121,0.153
3194490,2217.0,4399.0,6293.0,0.926,0.322,-0.121,0.154
3194506,2201.0,4369.0,6307.0,0.926,0.322,-0.121,0.154
3194522,2207.0,4393.0,6325.0,0.926,0.322,-0.121,0.154
3194538,2221.0,4439.0,6347.0,0.926,0.322,-0.121,0.154
3194564,2147.0,4395.0,6315.0,0.926,0.322,-0.121,0.154
3194581,2225.0,4421.0,6315.0,0.926,0.322,-0.12,0.154
3194597,2221.0,4417.0,6377.0,0.926,0.322,-0.12,0.154
3194613,2239.0,4425.0,6375.0,0.926,0.322,-0.12,0.154
3194629,2219.0,4405.0,6299.0,0.926,0.322,-0.12,0.154
3194646,2209.0,4377.0,6275.0,0.926,0.322,-0.12,0.154
3194662,2227.0,4397.0,6291.0,0.926,0.322,-0.12,0.154
3194688,2187.0,4397.0,6319.0,0.926,0.322,-0.12,0.154
3194705,2235.0,4387.0,6303.0,0.926,0.322,-0.12,0.154
3194721,2219.0,4423.0,6293.0,0.926,0.322,-0.12,0.155
3194738,2245.0,4397.0,6333.0,0.926,0.322,-0.119,0.155
3194754,2217.0,4383.0,6303.0,0.926,0.322,-0.119,0.155
3194773,2219.0,4409.0,6349.0,0.926,0.322,-0.119,0.155
3194789,2217.0,4351.0,6315.0,0.926,0.322,-0.119,0.155
3194806,2199.0,4391.0,6369.0,0.927,0.322,-0.119,0.155
3194822,2327.0,4333.0,6377.0,0.926,0.322,-0.119,0.155
3194839,2185.0,4401.0,6319.0,0.926,0.322,-0.119,0.155
3194856,2187.0,4465.0,6343.0,0.926,0.322,-0.118,0.155
3194883,2141.0,4339.0,6401.0,0.926,0.323,-0.118,0.155
3194899,2125.0,4371.0,6311.0,0.926,0.323,-0.118,0.155
3194915,2187.0,4447.0,6259.0,0.926,0.323,-0.118,0.155
3194931,2215.0,4443.0,6335.0,0.926,0.324,-0.118,0.154
3194947,2219.0,4487.0,6273.0,0.926,0.324,-0.118,0.154
3194963,2251.0,4543.0,6223.0,0.926,0.324,-0.118,0.154
3194980,2281.0,4507.0,6265.0,0.926,0.324,-0.118,0.155
3195006,2293.0,4495.0,6247.0,0.926,0.324,-0.118,0.155
3195022,2291.0,4521.0,6291.0,0.926,0.324,-0.118,0.155
3195038,2283.0,4457.0,6325.0,0.926,0.323,-0.118,0.155
3195054,2239.0,4435.0,6333.0,0.926,0.323,-0.118,0.155
3195070,2241.0,4373.0,6343.0,0.926,0.323,-0.118,0.155
3195087,2169.0,4413.0,6341.0,0.926,0.323,-0.118,0.155
3195113,2183.0,4435.0,6343.0,0.926,0.323,-0.117,0.155
3195129,2195.0,4377.0,6295.0,0.926,0.323,-0.117,0.155
3195145,2167.0,4483.0,6273.0,0.926,0.323,-0.117,0.155
3195161,2221.0,4463.0,6295.0,0.926,0.323,-0.117,0.156
3195177,2247.0,4475.0,6325.0,0.926,0.323,-0.117,0.156
3195194,2181.0,4413.0,6309.0,0.926,0.323,-0.117,0.156
3195210,2249.0,4433.0,6361.0,0.926,0.323,-0.117,0.156
3195236,2219.0,4379.0,6337.0,0.926,0.323,-0.117,0.156
3195252,2223.0,4427.0,6321.0,0.926,0.323,-0.117,0.156
3195268,2241.0,4403.0,6279.0,0.926,0.323,-0.117,0.156
3195284,2249.0,4349.0,6261.0,0.926,0.323,-0.117,0.156
3195301,2253.0,4367.0,6329.0,0.926,0.323,-0.117,0.156
3195317,2247.0,4427.0,6283.0,0.926,0.322,-0.117,0.156
3195343,2163.0,4417.0,6291.0,0.926,0.323,-0.117,0.156
3195359,2253.0,4431.0,6291.0,0.926,0.323,-0.117,0.156
3195375,2269.0,4431.0,6331.0,0.926,0.323,-0.117,0.156
3195391,2207.0,4441.0,6255.0,0.926,0.323,-0.117,0.156
3195407,2217.0,4389.0,6251.0,0.926,0.323,-0.117,0.157
3195423,2217.0,4423.0,6317.0,0.926,0.322,-0.117,0.157
3195449,2241.0,4455.0,6305.0,0.926,0.323,-0.118,0.157
3195465,2273.0,4391.0,6285.0,0.926,0.323,-0.118,0.157
3195481,2255.0,4397.0,6307.0,0.926,0.323,-0.118,0.157
3195497,2233.0,4423.0,6319.0,0.926,0.323,-0.118,0.157
3195513,2245.0,4393.0,6287.0,0.926,0.323,-0.118,0.157
3195530,2255.0,4397.0,6277.0,0.926,0.323,-0.118,0.157
3195546,2293.0,4423.0,6247.0,0.926,0.323,-0.118,0.157
3195573,2299.0,4381.0,6287.0,0.926,0.323,-0.118,0.157
3195590,2237.0,4389.0,6271.0,0.926,0.323,-0.119,0.157
3195607,2267.0,4491.0,6305.0,0.926,0.323,-0.119,0.157
3195626,2239.0,4413.0,6273.0,0.926,0.323,-0.119,0.157
3195642,2301.0,4453.0,6315.0,0.926,0.323,-0.119,0.157
3195658,2301.0,4411.0,6277.0,0.926,0.323,-0.119,0.157
3195674,2253.0,4481.0,6265.0,0.926,0.323,-0.119,0.157
3195690,2295.0,4375.0,6295.0,0.926,0.323,-0.119,0.157
3195706,2257.0,4403.0,6257.0,0.926,0.322,-0.12,0.157
3195732,2319.0,4413.0,6297.0,0.926,0.322,-0.12,0.157
3195748,2255.0,4409.0,6267.0,0.926,0.322,-0.12,0.157
3195764,2301.0,4525.0,6237.0,0.926,0.322,-0.12,0.157
3195780,2305.0,4443.0,6255.0,0.926,0.322,-0.12,0.157
3195796,2335.0,4457.0,6323.0,0.926,0.322,-0.12,0.157
3195813,2313.0,4425.0,6299.0,0.926,0.322,-0.121,0.157
3195829,2317.0,4365.0,6257.0,0.926,0.322,-0.121,0.156
3195855,2305.0,4407.0,6343.0,0.926,0.321,-0.121,0.156
3195872,2343.0,4339.0,6345.0,0.926,0.321,-0.121,0.156
3195888,2325.0,4379.0,6323.0,0.926,0.321,-0.122,0.156
3195904,2395.0,4341.0,6269.0,0.926,0.321,-0.122,0.156
3195921,2341.0,4371.0,6311.0,0.926,0.321,-0.122,0.155
3195937,2343.0,4397.0,6245.0,0.926,0.321,-0.122,0.155
3195954,2409.0,4369.0,6235.0,0.926,0.321,-0.122,0.155
3195980,2347.0,4433.0,6235.0,0.926,0.321,-0.122,0.156
3195996,2339.0,4413.0,6259.0,0.926,0.321,-0.122,0.156
3196012,2377.0,4407.0,6285.0,0.926,0.321,-0.121,0.156
3196028,2357.0,4461.0,6273.0,0.926,0.321,-0.121,0.156
3196044,2353.0,4393.0,6227.0,0.926,0.321,-0.121,0.156
3196060,2341.0,4427.0,6283.0,0.926,0.321,-0.121,0.156
3196086,2297.0,4381.0,6267.0,0.926,0.321,-0.121,0.156
3196103,2315.0,4313.0,6315.0,0.926,0.321,-0.12,0.156
3196120,2333.0,4377.0,6313.0,0.926,0.321,-0.12,0.156
3196136,2301.0,4433.0,6317.0,0.926,0.321,-0.12,0.156
3196152,2295.0,4453.0,6295.0,0.927,0.321,-0.12,0.156
3196168,2315.0,4397.0,6281.0,0.927,0.321,-0.12,0.156
3196185,2319.0,4385.0,6269.0,0.927,0.32,-0.119,0.156
3196201,2361.0,4423.0,6269.0,0.927,0.32,-0.119,0.156
3196227,2349.0,4381.0,6325.0,0.927,0.32,-0.119,0.156
3196243,2383.0,4393.0,6251.0,0.927,0.32,-0.119,0.156
3196260,2359.0,4387.0,6273.0,0.927,0.32,-0.119,0.156
3196276,2335.0,4367.0,6261.0,0.927,0.32,-0.119,0.155
3196292,2309.0,4347.0,6317.0,0.927,0.32,-0.119,0.155
3196308,2293.0,4439.0,6299.0,0.927,0.32,-0.119,0.155
3196334,2287.0,4361.0,6249.0,0.927,0.32,-0.119,0.155
3196350,2265.0,4351.0,6321.0,0.927,0.32,-0.119,0.155
3196366,2311.0,4385.0,6309.0,0.927,0.32,-0.118,0.155
3196382,2299.0,4403.0,6265.0,0.927,0.32,-0.118,0.155
3196398,2309.0,4399.0,6277.0,0.927,0.32,-0.118,0.155
3196414,2287.0,4415.0,6279.0,0.927,0.32,-0.118,0.155
3196440,2283.0,4439.0,6315.0,0.927,0.32,-0.117,0.156
3196456,2233.0,4439.0,6323.0,0.927,0.32,-0.117,0.155
3196472,2309.0,4401.0,6319.0,0.927,0.32,-0.117,0.156
3196488,2325.0,4397.0,6343.0,0.927,0.32,-0.117,0.156
3196504,2257.0,4363.0,6325.0,0.927,0.32,-0.116,0.155
3196520,2287.0,4415.0,6265.0,0.927,0.32,-0.116,0.155
3196546,2227.0,4369.0,6271.0,0.927,0.32,-0.116,0.155
3196562,2271.0,4363.0,6269.0,0.927,0.32,-0.116,0.155
3196578,2265.0,4411.0,6247.0,0.927,0.32,-0.116,0.156
3196594,2297.0,4409.0,6331.0,0.927,0.32,-0.116,0.156
3196610,2293.0,4397.0,6303.0,0.927,0.32,-0.115,0.156
3196626,2303.0,4463.0,6291.0,0.927,0.32,-0.115,0.156
3196653,2273.0,4433.0,6327.0,0.927,0.32,-0.115,0.156
3196669,2273.0,4381.0,6287.0,0.927,0.32,-0.115,0.156
3196685,2275.0,4401.0,6259.0,0.927,0.32,-0.115,0.156
3196701,2225.0,4409.0,6261.0,0.927,0.32,-0.115,0.156
3196717,2269.0,4403.0,6293.0,0.927,0.32,-0.114,0.156
3196733,2251.0,4403.0,6315.0,0.927,0.32,-0.114,0.156
3196759,2223.0,4481.0,6275.0,0.927,0.32,-0.114,0.156
3196775,2239.0,4431.0,6279.0,0.927,0.32,-0.114,0.156
3196791,2261.0,4411.0,6333.0,0.928,0.32,-0.114,0.156
3196807,2263.0,4465.0,6307.0,0.928,0.32,-0.114,0.156
3196823,2263.0,4453.0,6259.0,0.928,0.32,-0.114,0.156
3196839,2269.0,4391.0,6283.0,0.928,0.32,-0.114,0.156
3196865,2269.0,4425.0,6313.0,0.928,0.32,-0.114,0.156
3196881,2283.0,4403.0,6265.0,0.928,0.32,-0.113,0.157
3196897,2265.0,4381.0,6253.0,0.928,0.32,-0.113,0.157
3196913,2285.0,4399.0,6277.0,0.928,0.32,-0.113,0.157
3196929,2253.0,4399.0,6335.0,0.928,0.32,-0.113,0.157
3196945,2257.0,4429.0,6295.0,0.928,0.32,-0.113,0.157
3196971,2299.0,4387.0,6259.0,0.928,0.32,-0.113,0.157
3196987,2219.0,4449.0,6311.0,0.928,0.32,-0.113,0.157
3197003,2221.0,4427.0,6347.0,0.928,0.32,-0.113,0.157
3197019,2253.0,4415.0,6317.0,0.928,0.32,-0.113,0.157
3197035,2253.0,4441.0,6269.0,0.928,0.32,-0.113,0.157
3197051,2267.0,4423.0,6267.0,0.928,0.32,-0.113,0.157
3197077,2299.0,4433.0,6315.0,0.928,0.319,-0.113,0.157
3197093,2273.0,4417.0,6355.0,0.928,0.319,-0.113,0.157
3197109,2299.0,4401.0,6305.0,0.928,0.319,-0.113,0.157
3197125,2289.0,4385.0,6319.0,0.928,0.319,-0.113,0.157
3197141,2285.0,4441.0,6279.0,0.928,0.319,-0.113,0.157
3197157,2231.0,4399.0,6279.0,0.928,0.319,-0.112,0.157
3197183,2247.0,4377.0,6263.0,0.928,0.319,-0.112,0.157
3197199,2269.0,4379.0,6285.0,0.928,0.319,-0.112,0.157
3197215,2269.0,4419.0,6335.0,0.928,0.319,-0.112,0.158
3197231,2263.0,4429.0,6289.0,0.928,0.319,-0.112,0.158
3197247,2267.0,4437.0,6309.0,0.928,0.319,-0.112,0.158
3197263,2255.0,4453.0,6317.0,0.928,0.319,-0.112,0.158
3197289,2319.0,4407.0,6285.0,0.928,0.319,-0.112,0.158
3197305,2229.0,4417.0,6315.0,0.928,0.319,-0.112,0.158
3197321,2267.0,4379.0,6297.0,0.928,0.319,-0.112,0.159
3197337,2247.0,4411.0,6325.0,0.928,0.319,-0.112,0.159
3197353,2279.0,4425.0,6327.0,0.928,0.319,-0.111,0.159
3197369,2217.0,4439.0,6325.0,0.928,0.319,-0.111,0.159
3197395,2283.0,4477.0,6283.0,0.928,0.319,-0.111,0.159
3197411,2307.0,4425.0,6293.0,0.928,0.319,-0.111,0.159
3197427,2293.0,4409.0,6313.0,0.928,0.319,-0.111,0.159
3197443,2281.0,4423.0,6277.0,0.928,0.319,-0.111,0.159
3197459,2293.0,4423.0,6281.0,0.928,0.319,-0.111,0.159
3197485,2313.0,4365.0,6303.0,0.928,0.319,-0.111,0.159
3197501,2255.0,4407.0,6319.0,0.928,0.319,-0.111,0.159
3197517,2239.0,4411.0,6275.0,0.928,0.319,-0.111,0.159
3197533,2259.0,4407.0,6309.0,0.928,0.319,-0.111,0.159
3197549,2319.0,4409.0,6287.0,0.928,0.319,-0.111,0.159
3197565,2231.0,4411.0,6317.0,0.928,0.319,-0.111,0.159
3197591,2247.0,4401.0,6267.0,0.928,0.319,-0.111,0.159
3197607,2225.0,4417.0,6325.0,0.928,0.319,-0.11,0.159
3197623,2245.0,4407.0,6329.0,0.928,0.319,-0.11,0.159
3197639,2267.0,4383.0,6351.0,0.928,0.319,-0.11,0.159
3197655,2277.0,4419.0,6263.0,0.928,0.318,-0.11,0.159
3197671,2271.0,4413.0,6285.0,0.928,0.318,-0.11,0.159
3197697,2277.0,4441.0,6295.0,0.928,0.318,-0.11,0.159
3197713,2289.0,4435.0,6333.0,0.928,0.318,-0.11,0.159
3197729,2261.0,4405.0,6347.0,0.928,0.318,-0.11,0.159
3197745,2285.0,4385.0,6329.0,0.928,0.318,-0.11,0.159
3197761,2277.0,4367.0,6285.0,0.928,0.318,-0.11,0.159
3197777,2311.0,4461.0,6299.0,0.928,0.318,-0.11,0.159
3197803,2303.0,4439.0,6265.0,0.928,0.318,-0.11,0.159
3197819,2317.0,4371.0,6255.0,0.928,0.318,-0.111,0.159
3197835,2287.0,4393.0,6253.0,0.928,0.318,-0.111,0.159
3197851,2255.0,4379.0,6261.0,0.928,0.318,-0.111,0.159
3197867,2273.0,4429.0,6299.0,0.928,0.318,-0.111,0.159
3197883,2329.0,4503.0,6317.0,0.928,0.318,-0.111,0.16
3197909,2405.0,4641.0,6313.0,0.928,0.317,-0.111,0.16
3197925,2375.0,4631.0,6279.0,0.929,0.316,-0.111,0.16
3197941,2427.0,4805.0,6377.0,0.929,0.315,-0.112,0.16
3197957,2619.0,5427.0,6181.0,0.929,0.313,-0.112,0.16
3197973,2699.0,5757.0,6195.0,0.93,0.31,-0.113,0.161
3197989,2893.0,5707.0,6637.0,0.931,0.306,-0.115,0.161
3198015,2961.0,5029.0,7115.0,0.932,0.303,-0.117,0.163
3198031,2477.0,6007.0,6729.0,0.932,0.3,-0.12,0.165
3198047,2055.0,4983.0,6529.0,0.932,0.297,-0.123,0.166
3198063,2177.0,4717.0,6905.0,0.933,0.293,-0.128,0.168
3198079,2283.0,4005.0,6551.0,0.933,0.289,-0.133,0.169
3198095,3665.0,2191.0,7193.0,0.933,0.285,-0.139,0.17
3198121,3479.0,2675.0,6765.0,0.932,0.284,-0.144,0.171
3198137,4299.0,2785.0,6551.0,0.931,0.286,-0.148,0.169
3198153,4905.0,1031.0,7259.0,0.929,0.294,-0.15,0.165
3198169,4017.0,1487.0,7213.0,0.925,0.31,-0.15,0.161
3198185,1927.0,4297.0,4193.0,0.919,0.328,-0.15,0.156
3198201,2615.0,8117.0,3043.0,0.916,0.339,-0.153,0.15
3198227,3315.0,7567.0,3431.0,0.916,0.341,-0.156,0.146
3198243,3775.0,6231.0,4273.0,0.917,0.338,-0.157,0.141
3198260,3381.0,4485.0,5995.0,0.92,0.332,-0.158,0.137
3198277,3287.0,2589.0,7151.0,0.922,0.328,-0.155,0.135
3198293,3389.0,3749.0,7731.0,0.922,0.33,-0.151,0.132
3198309,2647.0,4031.0,7383.0,0.922,0.333,-0.146,0.13
3198325,2897.0,4529.0,6887.0,0.922,0.338,-0.14,0.129
3198351,4163.0,5233.0,6705.0,0.921,0.345,-0.129,0.125
3198367,1237.0,2883.0,7757.0,0.921,0.351,-0.119,0.121
3198384,3219.0,5351.0,7701.0,0.918,0.363,-0.109,0.118
3198400,3523.0,9859.0,8071.0,0.917,0.372,-0.094,0.109
3198416,1823.0,6869.0,7455.0,0.916,0.378,-0.082,0.105
3198432,2271.0,6297.0,6363.0,0.915,0.383,-0.071,0.103
3198458,1355.0,6195.0,6063.0,0.918,0.38,-0.061,0.098
3198474,1037.0,2949.0,5745.0,0.92,0.377,-0.054,0.093
3198490,1115.0,1805.0,5179.0,0.919,0.38,-0.049,0.088
3198506,1567.0,3509.0,4979.0,0.916,0.39,-0.046,0.083
3198522,1905.0,5041.0,4901.0,0.912,0.4,-0.044,0.078
3198538,2403.0,6193.0,5063.0,0.909,0.408,-0.043,0.075
3198564,2493.0,6583.0,5207.0,0.908,0.41,-0.042,0.073
3198580,2527.0,6473.0,5349.0,0.909,0.409,-0.039,0.073
3198596,2149.0,5943.0,5593.0,0.911,0.404,-0.034,0.074
3198612,1733.0,5863.0,5807.0,0.914,0.398,-0.029,0.077
3198628,1713.0,5635.0,5905.0,0.916,0.392,-0.024,0.081
3198644,1259.0,5671.0,5685.0,0.917,0.389,-0.018,0.085
3198661,1213.0,6131.0,5553.0,0.918,0.386,-0.012,0.088
3198687,1429.0,7953.0,5429.0,0.918,0.385,-0.006,0.091
3198703,1501.0,9191.0,5583.0,0.919,0.383,0.001,0.094
3198720,967.0,9351.0,5353.0,0.921,0.377,0.009,0.095
3198736,287.0,7323.0,4927.0,0.924,0.371,0.017,0.095
3198753,-521.0,4555.0,4445.0,0.926,0.364,0.028,0.092
3198769,-1143.0,3235.0,4647.0,0.927,0.363,0.039,0.086
3198795,-1487.0,2817.0,5047.0,0.926,0.366,0.049,0.08
3198811,-1753.0,3349.0,5181.0,0.922,0.375,0.057,0.072
3198827,-1645.0,3893.0,5133.0,0.918,0.387,0.064,0.065
3198844,-1759.0,4011.0,4687.0,0.912,0.4,0.069,0.057
3198861,-1511.0,4839.0,4363.0,0.906,0.413,0.074,0.049
3198877,-1537.0,5367.0,4193.0,0.901,0.425,0.079,0.043
3198894,-1623.0,5847.0,4259.0,0.895,0.435,0.085,0.038
3198911,-1939.0,6347.0,4175.0,0.891,0.444,0.091,0.034
3198937,-2145.0,6449.0,4203.0,0.886,0.452,0.098,0.03
3198953,-2209.0,6151.0,4365.0,0.882,0.458,0.104,0.027
3198969,-2137.0,6089.0,4393.0,0.878,0.465,0.11,0.023
3198986,-2367.0,5935.0,4487.0,0.874,0.471,0.116,0.018
3199002,-2673.0,4765.0,4547.0,0.87,0.477,0.123,0.013
3199018,-3025.0,4295.0,4403.0,0.865,0.484,0.129,0.008
3199034,-3109.0,4291.0,4355.0,0.861,0.491,0.136,0.004
3199051,-3223.0,4925.0,4227.0,0.857,0.496,0.143,0.002
3199077,-3267.0,5825.0,3657.0,0.854,0.498,0.148,0.002
3199093,-3479.0,6237.0,3041.0,0.854,0.497,0.154,0.005
3199109,-3711.0,5825.0,2829.0,0.856,0.492,0.158,0.011
3199126,-3647.0,5637.0,2589.0,0.859,0.486,0.161,0.018
3199142,-3709.0,5481.0,2409.0,0.862,0.479,0.163,0.025
3199158,-3823.0,5051.0,2307.0,0.865,0.473,0.164,0.032
3199184,-3767.0,5515.0,2457.0,0.868,0.468,0.163,0.038
3199200,-3527.0,6209.0,2585.0,0.87,0.463,0.161,0.043
3199216,-3293.0,6501.0,2763.0,0.874,0.458,0.157,0.047
3199232,-3259.0,5767.0,2989.0,0.878,0.451,0.151,0.05
3199248,-3109.0,4565.0,3425.0,0.882,0.445,0.145,0.054
3199264,-2555.0,4967.0,3871.0,0.887,0.438,0.137,0.057
3199290,-2053.0,5177.0,4479.0,0.891,0.431,0.127,0.062
3199306,-1669.0,5497.0,4723.0,0.897,0.422,0.116,0.068
3199322,-1443.0,5161.0,4933.0,0.903,0.41,0.105,0.075
3199338,-1311.0,4939.0,5211.0,0.909,0.396,0.093,0.084
3199354,-965.0,5567.0,5491.0,0.916,0.381,0.082,0.094
3199371,-801.0,5137.0,5899.0,0.922,0.365,0.07,0.106
3199387,-269.0,5539.0,5917.0,0.928,0.348,0.06,0.118
3199413,-353.0,4229.0,5933.0,0.933,0.331,0.05,0.13
3199429,-375.0,3683.0,6227.0,0.937,0.318,0.043,0.141
3199445,-967.0,3931.0,6615.0,0.938,0.31,0.037,0.15
3199461,-541.0,5281.0,6557.0,0.938,0.308,0.031,0.156
3199477,101.0,6271.0,6513.0,0.937,0.309,0.025,0.16
3199494,51.0,5275.0,6235.0,0.936,0.311,0.02,0.161
3199520,-415.0,4517.0,5795.0,0.935,0.316,0.016,0.16
3199536,-787.0,4127.0,5915.0,0.933,0.324,0.011,0.158
3199553,83.0,6245.0,6133.0,0.93,0.333,0.006,0.154
3199570,213.0,6327.0,6289.0,0.928,0.339,-0.0,0.151
3199587,319.0,6203.0,6113.0,0.927,0.343,-0.007,0.148
3199604,459.0,4589.0,6179.0,0.927,0.345,-0.015,0.146
3199620,529.0,4111.0,6197.0,0.927,0.346,-0.021,0.144
3199637,1219.0,4623.0,6591.0,0.926,0.349,-0.028,0.142
3199654,1483.0,5099.0,6703.0,0.925,0.351,-0.034,0.141
3199670,2199.0,6127.0,6893.0,0.924,0.353,-0.041,0.141
3199696,2733.0,6457.0,7107.0,0.924,0.352,-0.049,0.141
3199712,2693.0,5165.0,6995.0,0.925,0.349,-0.055,0.14
3199728,2731.0,4377.0,6991.0,0.926,0.346,-0.061,0.14
3199744,3093.0,4925.0,7317.0,0.926,0.344,-0.066,0.14
3199760,3555.0,5005.0,7595.0,0.926,0.343,-0.07,0.14
3199776,3349.0,4429.0,7433.0,0.926,0.341,-0.073,0.141
3199803,3605.0,3497.0,7165.0,0.927,0.34,-0.075,0.142
3199819,3385.0,2021.0,7029.0,0.927,0.339,-0.074,0.143
3199836,3185.0,405.0,7063.0,0.926,0.342,-0.07,0.144
3199853,3277.0,1263.0,7703.0,0.923,0.349,-0.065,0.146
3199869,4737.0,3831.0,7947.0,0.919,0.36,-0.06,0.151
3199885,4655.0,4151.0,7691.0,0.915,0.367,-0.055,0.16
3199901,4373.0,3987.0,7037.0,0.912,0.37,-0.051,0.172
3199918,4413.0,3095.0,6317.0,0.909,0.37,-0.048,0.187
3199944,4135.0,2257.0,5921.0,0.906,0.369,-0.044,0.204
3199960,4653.0,3563.0,5935.0,0.901,0.369,-0.042,0.224
3199976,4581.0,4119.0,5707.0,0.896,0.367,-0.041,0.244
3199993,4353.0,3949.0,5101.0,0.891,0.365,-0.042,0.266
3200009,3995.0,3365.0,4233.0,0.885,0.364,-0.044,0.288
3200025,3435.0,2985.0,3347.0,0.877,0.364,-0.047,0.31
3200051,2771.0,2537.0,2621.0,0.868,0.367,-0.049,0.331
3200068,2257.0,2033.0,2275.0,0.858,0.372,-0.053,0.351
3200085,3203.0,3783.0,2071.0,0.846,0.38,-0.058,0.37
3200102,4363.0,5279.0,2051.0,0.833,0.388,-0.065,0.388
3200119,4409.0,5513.0,1857.0,0.821,0.393,-0.074,0.407
3200135,4095.0,4667.0,1707.0,0.809,0.397,-0.085,0.425
3200151,4067.0,3549.0,1879.0,0.797,0.401,-0.098,0.441
3200168,4169.0,2413.0,1933.0,0.784,0.407,-0.112,0.456
3200184,4833.0,1849.0,2005.0,0.768,0.416,-0.125,0.471
3200210,5827.0,1809.0,1751.0,0.749,0.429,-0.137,0.486
3200227,6469.0,1667.0,1477.0,0.728,0.444,-0.148,0.502
3200243,7041.0,1815.0,1105.0,0.703,0.461,-0.156,0.518
3200259,7821.0,2365.0,519.0,0.675,0.48,-0.164,0.535
3200276,8545.0,3099.0,85.0,0.646,0.499,-0.171,0.552
3200293,9307.0,4103.0,503.0,0.615,0.515,-0.179,0.569
3200309,10455.0,5017.0,1073.0,0.585,0.529,-0.191,0.584
3200326,11319.0,5821.0,1551.0,0.557,0.538,-0.206,0.598
3200353,11723.0,6181.0,1625.0,0.531,0.542,-0.225,0.611
3200369,11759.0,6267.0,1731.0,0.508,0.542,-0.248,0.622
3200386,11245.0,6195.0,1887.0,0.488,0.538,-0.272,0.631
3200403,10743.0,5839.0,2155.0,0.47,0.534,-0.295,0.638
3200420,10281.0,5427.0,2525.0,0.456,0.529,-0.317,0.641
3200436,10015.0,4825.0,2939.0,0.444,0.527,-0.334,0.643
3200452,9731.0,4329.0,3389.0,0.434,0.528,-0.347,0.643
3200468,9715.0,4159.0,3687.0,0.426,0.531,-0.353,0.642
3200484,9565.0,4433.0,3787.0,0.42,0.536,-0.354,0.642
3200511,9437.0,4599.0,3745.0,0.416,0.541,-0.351,0.641
3200527,9187.0,4659.0,3617.0,0.416,0.546,-0.346,0.64
3200543,8863.0,4717.0,3463.0,0.417,0.55,-0.34,0.638
3200560,8615.0,4623.0,3323.0,0.422,0.553,-0.335,0.636
3200577,8409.0,4327.0,3165.0,0.428,0.555,-0.33,0.633
3200593,8329.0,4057.0,3185.0,0.435,0.556,-0.325,0.628
3200610,8325.0,3425.0,3125.0,0.444,0.557,-0.322,0.624
3200626,8285.0,2913.0,3025.0,0.453,0.558,-0.317,0.619
3200653,8183.0,2681.0,2923.0,0.463,0.558,-0.313,0.614
3200669,8169.0,2473.0,2773.0,0.472,0.558,-0.306,0.61
3200685,8111.0,2359.0,2571.0,0.481,0.558,-0.299,0.606
3200701,7969.0,2391.0,2375.0,0.49,0.558,-0.291,0.603
3200717,7763.0,2451.0,2079.0,0.498,0.558,-0.283,0.6
3200733,7661.0,2659.0,1823.0,0.507,0.558,-0.275,0.596
3200750,7595.0,2651.0,1665.0,0.515,0.558,-0.268,0.593
3200776,7541.0,2651.0,1525.0,0.523,0.558,-0.262,0.589
3200795,7439.0,2631.0,1369.0,0.532,0.557,-0.256,0.585
3200812,7509.0,2529.0,1289.0,0.54,0.556,-0.252,0.58
3200829,7503.0,2369.0,1207.0,0.548,0.554,-0.248,0.575
3200845,7545.0,2333.0,1123.0,0.557,0.552,-0.245,0.57
3200861,7537.0,2205.0,1061.0,0.564,0.551,-0.242,0.565
3200878,7567.0,2127.0,1029.0,0.572,0.549,-0.24,0.56
3200894,7517.0,2133.0,979.0,0.579,0.548,-0.238,0.555
3200911,7421.0,2171.0,1023.0,0.585,0.547,-0.236,0.55
3200928,7375.0,2153.0,953.0,0.592,0.546,-0.235,0.545
3200954,7323.0,2111.0,979.0,0.598,0.545,-0.234,0.539
3200970,7285.0,2071.0,1099.0,0.603,0.544,-0.234,0.533
3200987,7253.0,1961.0,1187.0,0.609,0.544,-0.235,0.528
3201003,7205.0,1849.0,1311.0,0.614,0.543,-0.236,0.523
3201020,7189.0,1721.0,1445.0,0.618,0.542,-0.237,0.518
3201036,7117.0,1637.0,1521.0,0.622,0.541,-0.238,0.513
3201052,6977.0,1611.0,1555.0,0.626,0.541,-0.24,0.509
3201078,6935.0,1555.0,1595.0,0.628,0.54,-0.241,0.505
3201094,6815.0,1547.0,1641.0,0.63,0.54,-0.243,0.502
3201111,6843.0,1547.0,1745.0,0.631,0.54,-0.246,0.5
3201128,6819.0,1645.0,1811.0,0.631,0.539,-0.249,0.498
3201144,6937.0,1803.0,1905.0,0.631,0.538,-0.254,0.497
3201161,7099.0,1789.0,1951.0,0.63,0.537,-0.259,0.497
3201177,7485.0,1899.0,2123.0,0.628,0.536,-0.265,0.498
3201194,7141.0,2133.0,2207.0,0.626,0.534,-0.272,0.499
3201210,6773.0,1947.0,2239.0,0.623,0.532,-0.28,0.5
3201236,6213.0,2201.0,1969.0,0.62,0.53,-0.29,0.5
3201252,6629.0,1985.0,1945.0,0.616,0.529,-0.303,0.499
3201268,7083.0,1559.0,1847.0,0.611,0.528,-0.317,0.498
3201284,7059.0,2049.0,2013.0,0.605,0.527,-0.331,0.496
3201300,7397.0,1977.0,2121.0,0.599,0.526,-0.347,0.493
3201316,7905.0,1465.0,2323.0,0.593,0.525,-0.362,0.491
3201342,8343.0,1313.0,2221.0,0.587,0.524,-0.374,0.491
3201358,8665.0,1863.0,2263.0,0.581,0.523,-0.383,0.492
3201374,8643.0,2351.0,2459.0,0.575,0.522,-0.389,0.495
3201390,8541.0,2179.0,2367.0,0.57,0.521,-0.394,0.498
3201406,8495.0,2575.0,2231.0,0.566,0.521,-0.396,0.501
3201432,8583.0,2645.0,2111.0,0.564,0.52,-0.397,0.505
3201448,8275.0,2645.0,2267.0,0.563,0.52,-0.395,0.508
3201464,8397.0,2755.0,2285.0,0.563,0.52,-0.391,0.51
3201480,8273.0,3339.0,2301.0,0.564,0.52,-0.385,0.513
3201496,8357.0,4005.0,2597.0,0.567,0.521,-0.377,0.515
3201512,8375.0,4323.0,2831.0,0.57,0.522,-0.369,0.516
3201538,8319.0,4553.0,3003.0,0.574,0.522,-0.36,0.517
3201554,8441.0,4565.0,3005.0,0.58,0.522,-0.35,0.518
3201570,8259.0,4069.0,2743.0,0.586,0.523,-0.338,0.519
3201586,7999.0,4423.0,2499.0,0.591,0.525,-0.325,0.519
3201603,8083.0,4615.0,2485.0,0.597,0.528,-0.312,0.518
3201620,8089.0,4887.0,2383.0,0.603,0.532,-0.298,0.515
3201636,7959.0,5143.0,2537.0,0.61,0.534,-0.285,0.511
3201662,7855.0,5193.0,2645.0,0.62,0.534,-0.273,0.506
3201678,7679.0,4935.0,2567.0,0.631,0.532,-0.263,0.5
3201694,7735.0,4609.0,2495.0,0.642,0.529,-0.253,0.494
3201710,7745.0,4469.0,2585.0,0.654,0.525,-0.245,0.486
3201726,7781.0,4027.0,2741.0,0.666,0.521,-0.237,0.479
3201742,7803.0,3575.0,2799.0,0.679,0.515,-0.229,0.471
3201768,7445.0,3079.0,2791.0,0.691,0.509,-0.222,0.463
3201784,7129.0,2881.0,2679.0,0.702,0.504,-0.216,0.455
3201800,6985.0,2927.0,2565.0,0.712,0.499,-0.21,0.448
3201816,6871.0,3321.0,2421.0,0.721,0.494,-0.204,0.441
3201832,6875.0,3447.0,2371.0,0.729,0.489,-0.2,0.434
3201848,6603.0,3567.0,2321.0,0.737,0.484,-0.196,0.428
3201874,6363.0,3395.0,2423.0,0.744,0.48,-0.192,0.423
3201890,6103.0,3485.0,2525.0,0.75,0.477,-0.187,0.418
3201906,6557.0,3949.0,2533.0,0.754,0.477,-0.182,0.413
3201922,6357.0,4465.0,2397.0,0.758,0.477,-0.175,0.409
3201938,5727.0,4497.0,2411.0,0.763,0.477,-0.168,0.403
3201955,5037.0,5075.0,2411.0,0.768,0.476,-0.161,0.397
3201971,4123.0,4473.0,2585.0,0.775,0.473,-0.155,0.39
3201997,3025.0,3721.0,2723.0,0.781,0.47,-0.149,0.383
3202013,2271.0,3529.0,2999.0,0.787,0.467,-0.144,0.376
3202029,1911.0,4207.0,3279.0,0.792,0.465,-0.139,0.371
3202045,1583.0,5117.0,3539.0,0.796,0.464,-0.134,0.365
3202061,1235.0,6151.0,3763.0,0.8,0.462,-0.13,0.36
3202087,1301.0,7195.0,4191.0,0.805,0.459,-0.125,0.354
3202103,1663.0,7579.0,4529.0,0.812,0.453,-0.122,0.347
3202119,1753.0,7373.0,4871.0,0.82,0.446,-0.12,0.34
3202135,2179.0,7249.0,5111.0,0.828,0.437,-0.118,0.331
3202152,2305.0,6731.0,5231.0,0.836,0.429,-0.115,0.322
3202169,1925.0,6415.0,5439.0,0.844,0.422,-0.111,0.311
3202186,1845.0,6345.0,5511.0,0.852,0.416,-0.106,0.299
3202203,1891.0,6671.0,5585.0,0.86,0.41,-0.101,0.286
3202219,1993.0,6415.0,5315.0,0.868,0.403,-0.096,0.274
3202245,2283.0,5357.0,5389.0,0.876,0.395,-0.092,0.26
3202261,2045.0,5187.0,5599.0,0.884,0.389,-0.087,0.245
3202277,2391.0,4669.0,5517.0,0.89,0.384,-0.082,0.23
3202294,2195.0,4487.0,5489.0,0.896,0.38,-0.077,0.215
3202310,1919.0,3843.0,5151.0,0.901,0.377,-0.072,0.2
3202326,1407.0,3137.0,4841.0,0.905,0.376,-0.067,0.185
3202352,1319.0,3057.0,4735.0,0.908,0.377,-0.063,0.172
3202368,1279.0,3699.0,4931.0,0.91,0.378,-0.061,0.16
3202384,1441.0,4295.0,4957.0,0.912,0.377,-0.062,0.15
3202400,2037.0,5051.0,4863.0,0.915,0.373,-0.064,0.142
3202416,2511.0,5151.0,5045.0,0.918,0.365,-0.069,0.135
3202432,2373.0,4077.0,5019.0,0.923,0.355,-0.075,0.131
3202458,2365.0,2801.0,5153.0,0.926,0.345,-0.081,0.127
3202474,2545.0,2261.0,5223.0,0.929,0.336,-0.088,0.125
3202490,2865.0,1651.0,5227.0,0.931,0.329,-0.095,0.123
3202506,2891.0,1807.0,5395.0,0.932,0.327,-0.101,0.122
3202522,3381.0,4111.0,5589.0,0.931,0.326,-0.109,0.121
3202538,3687.0,4589.0,5639.0,0.931,0.323,-0.116,0.121
3202564,3591.0,3663.0,5485.0,0.932,0.319,-0.123,0.122
3202580,3445.0,3441.0,5673.0,0.932,0.316,-0.131,0.123
3202596,3561.0,3429.0,5593.0,0.931,0.314,-0.138,0.123
3202612,3359.0,2945.0,5199.0,0.93,0.314,-0.145,0.124
3202628,4955.0,5399.0,6189.0,0.929,0.315,-0.152,0.125
3202644,4731.0,4263.0,7079.0,0.929,0.313,-0.153,0.126
3202670,3903.0,4305.0,7305.0,0.929,0.313,-0.153,0.127
3202687,3773.0,4695.0,7031.0,0.929,0.311,-0.152,0.129
3202703,2325.0,4959.0,6341.0,0.93,0.309,-0.152,0.13
3202719,2669.0,4131.0,6541.0,0.93,0.308,-0.154,0.131
3202736,2471.0,3815.0,6675.0,0.929,0.309,-0.156,0.132
3202753,2179.0,3851.0,6689.0,0.927,0.312,-0.158,0.134
3202769,2265.0,3491.0,7185.0,0.925,0.317,-0.159,0.136
3202785,2125.0,3667.0,8025.0,0.922,0.323,-0.16,0.139
3202804,2053.0,5405.0,7751.0,0.92,0.329,-0.161,0.142
3202830,1883.0,5953.0,6705.0,0.919,0.331,-0.161,0.144
3202846,2167.0,6223.0,6339.0,0.918,0.33,-0.163,0.146
3202862,2315.0,5911.0,6071.0,0.919,0.326,-0.165,0.146
3202878,2683.0,5243.0,5763.0,0.921,0.32,-0.168,0.146
3202894,4091.0,3601.0,6637.0,0.923,0.312,-0.172,0.146
3202910,4481.0,1955.0,6395.0,0.924,0.308,-0.176,0.146
3202936,3197.0,2299.0,5629.0,0.923,0.307,-0.179,0.147
3202952,2475.0,3821.0,5475.0,0.922,0.308,-0.181,0.148
3202968,3107.0,4339.0,5965.0,0.922,0.309,-0.183,0.148
3202984,2995.0,4123.0,6197.0,0.921,0.309,-0.184,0.148
3203000,2207.0,7361.0,4427.0,0.921,0.307,-0.188,0.148
3203016,3757.0,3269.0,5729.0,0.921,0.305,-0.189,0.148
3203042,3455.0,5425.0,6017.0,0.921,0.305,-0.191,0.148
3203058,3337.0,5737.0,6027.0,0.921,0.304,-0.194,0.148
3203074,3643.0,4087.0,6353.0,0.921,0.302,-0.196,0.148
3203090,3413.0,3475.0,5763.0,0.921,0.302,-0.197,0.148
3203106,3517.0,3463.0,5335.0,0.92,0.304,-0.198,0.149
3203122,3717.0,3785.0,5433.0,0.919,0.306,-0.199,0.15
3203148,3593.0,4301.0,5217.0,0.918,0.308,-0.2,0.151
3203164,3769.0,4885.0,5717.0,0.917,0.309,-0.202,0.151
3203180,4477.0,5161.0,6401.0,0.917,0.307,-0.204,0.151
3203196,4559.0,3931.0,6621.0,0.917,0.306,-0.206,0.151
3203213,4003.0,2915.0,6147.0,0.917,0.306,-0.206,0.153
3203229,3505.0,2337.0,5841.0,0.916,0.308,-0.207,0.154
3203255,3721.0,2609.0,5911.0,0.914,0.311,-0.208,0.156
3203271,4281.0,3537.0,6355.0,0.912,0.315,-0.21,0.158
3203287,3885.0,4501.0,6427.0,0.91,0.318,-0.212,0.159
3203303,4097.0,5975.0,5929.0,0.909,0.32,-0.214,0.16
3203319,3991.0,7191.0,5319.0,0.909,0.316,-0.217,0.161
3203335,3365.0,5983.0,5243.0,0.911,0.309,-0.222,0.16
3203361,3539.0,4689.0,5887.0,0.913,0.297,-0.228,0.16
3203377,3627.0,3451.0,6237.0,0.916,0.284,-0.234,0.159
3203393,4019.0,2057.0,6691.0,0.918,0.273,-0.238,0.159
3203409,4193.0,1695.0,6607.0,0.92,0.265,-0.241,0.161
3203425,4275.0,2373.0,6167.0,0.92,0.26,-0.243,0.162
3203441,4091.0,2953.0,6181.0,0.921,0.255,-0.245,0.164
3203467,3933.0,2543.0,6241.0,0.921,0.251,-0.246,0.166
3203483,3775.0,2223.0,6713.0,0.922,0.247,-0.247,0.168
3203499,3673.0,2373.0,6495.0,0.922,0.245,-0.248,0.17
3203515,4055.0,1897.0,6253.0,0.921,0.244,-0.249,0.174
3203531,4203.0,2079.0,5845.0,0.92,0.244,-0.249,0.178
3203547,4593.0,1971.0,5685.0,0.919,0.245,-0.249,0.182
3203573,4885.0,2919.0,5749.0,0.918,0.247,-0.248,0.187
3203589,4765.0,3743.0,6167.0,0.917,0.248,-0.248,0.192
3203606,4151.0,3519.0,6301.0,0.916,0.247,-0.247,0.197
3203622,4427.0,2501.0,6483.0,0.915,0.246,-0.247,0.202
3203638,4675.0,1927.0,6867.0,0.914,0.246,-0.248,0.206
3203654,5051.0,1387.0,6475.0,0.912,0.25,-0.249,0.21
3203680,5473.0,1647.0,6071.0,0.91,0.255,-0.249,0.212
3203696,5557.0,2217.0,5927.0,0.908,0.262,-0.248,0.213
3203712,5301.0,3007.0,5803.0,0.906,0.269,-0.247,0.214
3203728,5279.0,2779.0,5979.0,0.904,0.276,-0.246,0.215
3203744,5417.0,2295.0,6129.0,0.902,0.282,-0.245,0.217
3203760,5421.0,1955.0,6041.0,0.899,0.291,-0.244,0.219
3203786,5289.0,2593.0,5663.0,0.896,0.3,-0.242,0.221
3203802,5361.0,2647.0,5271.0,0.893,0.31,-0.239,0.224
3203818,5247.0,2913.0,5403.0,0.889,0.32,-0.236,0.227
3203835,5309.0,2493.0,5645.0,0.885,0.33,-0.233,0.232
3203852,5367.0,2317.0,5531.0,0.88,0.342,-0.229,0.236
3203868,5383.0,2531.0,5321.0,0.875,0.355,-0.224,0.241
3203884,5201.0,3437.0,5019.0,0.87,0.369,-0.218,0.245
3203901,4903.0,3891.0,4997.0,0.864,0.383,-0.211,0.249
3203927,4977.0,3153.0,5159.0,0.858,0.396,-0.205,0.254
3203943,4937.0,3605.0,4823.0,0.852,0.411,-0.197,0.259
3203959,5085.0,3915.0,4325.0,0.845,0.426,-0.189,0.263
3203975,4977.0,3789.0,4133.0,0.837,0.442,-0.18,0.268
3203991,4647.0,4235.0,3695.0,0.828,0.459,-0.17,0.273
3204017,4491.0,4881.0,3167.0,0.819,0.476,-0.161,0.278
3204034,4643.0,4509.0,2983.0,0.81,0.491,-0.151,0.283
3204051,4115.0,4017.0,2533.0,0.8,0.506,-0.143,0.289
3204067,4519.0,3237.0,2201.0,0.79,0.52,-0.135,0.295
3204083,4799.0,3055.0,1965.0,0.779,0.535,-0.127,0.303
3204099,4959.0,3591.0,1851.0,0.767,0.549,-0.119,0.31
3204118,5059.0,3367.0,1501.0,0.754,0.563,-0.111,0.319
3204134,5383.0,3371.0,1011.0,0.74,0.579,-0.102,0.328
3204150,5275.0,4213.0,899.0,0.724,0.594,-0.092,0.338
3204166,5649.0,4345.0,493.0,0.708,0.608,-0.082,0.349
3204193,5555.0,5139.0,39.0,0.691,0.623,-0.072,0.359
3204209,5383.0,5713.0,-561.0,0.674,0.636,-0.062,0.37
3204225,5323.0,6381.0,-763.0,0.657,0.649,-0.052,0.38
3204241,5181.0,5437.0,-963.0,0.641,0.66,-0.042,0.39
3204257,5333.0,5243.0,-805.0,0.623,0.671,-0.032,0.4
3204273,5009.0,5211.0,-901.0,0.605,0.682,-0.022,0.411
3204290,5575.0,5657.0,-1533.0,0.585,0.693,-0.012,0.422
3204316,5437.0,5705.0,-1637.0,0.564,0.703,-0.003,0.433
3204332,5697.0,6393.0,-2267.0,0.545,0.711,0.005,0.444
3204348,5687.0,6315.0,-2011.0,0.526,0.717,0.011,0.457
3204364,5769.0,6157.0,-1591.0,0.508,0.722,0.016,0.47
3204380,6045.0,6347.0,-1873.0,0.491,0.725,0.018,0.482
3204406,6303.0,6295.0,-2297.0,0.476,0.727,0.018,0.495
3204422,6351.0,6401.0,-2133.0,0.462,0.727,0.018,0.507
3204438,6267.0,6505.0,-2013.0,0.45,0.726,0.015,0.52
3204454,6183.0,6493.0,-1961.0,0.439,0.724,0.01,0.532
3204470,6257.0,6671.0,-1615.0,0.429,0.721,0.003,0.543
3204486,6355.0,6281.0,-1725.0,0.422,0.718,-0.006,0.554
3204502,6589.0,6497.0,-1777.0,0.415,0.713,-0.017,0.564
3204528,6675.0,6229.0,-1739.0,0.409,0.709,-0.029,0.574
3204544,6575.0,6279.0,-1243.0,0.405,0.703,-0.043,0.583
3204560,6661.0,6197.0,-1175.0,0.401,0.697,-0.059,0.591
3204576,6901.0,5499.0,-1059.0,0.399,0.691,-0.076,0.598
3204592,7125.0,5465.0,-895.0,0.397,0.685,-0.094,0.604
3204618,7237.0,5323.0,-929.0,0.396,0.678,-0.113,0.609
3204634,7371.0,5071.0,-719.0,0.395,0.671,-0.132,0.614
3204651,7059.0,4713.0,-69.0,0.394,0.663,-0.152,0.617
3204668,7159.0,4591.0,151.0,0.394,0.656,-0.173,0.62
3204685,7265.0,4415.0,163.0,0.394,0.649,-0.194,0.621
3204701,7361.0,4401.0,219.0,0.394,0.641,-0.218,0.621
3204718,7533.0,3829.0,243.0,0.395,0.633,-0.243,0.62
3204735,7689.0,2599.0,277.0,0.395,0.624,-0.269,0.618
3204751,7899.0,2267.0,465.0,0.395,0.615,-0.293,0.616
3204777,7931.0,2231.0,645.0,0.393,0.607,-0.316,0.614
3204793,8113.0,2107.0,655.0,0.391,0.6,-0.338,0.611
3204809,8193.0,1781.0,447.0,0.39,0.592,-0.358,0.607
3204825,8525.0,1459.0,493.0,0.39,0.585,-0.378,0.602
3204841,8681.0,1417.0,609.0,0.391,0.578,-0.395,0.597
3204857,8699.0,1661.0,291.0,0.393,0.572,-0.412,0.591
3204883,8683.0,1421.0,347.0,0.396,0.565,-0.427,0.584
3204899,8845.0,819.0,329.0,0.4,0.559,-0.441,0.577
3204915,8707.0,519.0,335.0,0.406,0.553,-0.454,0.569
3204931,8661.0,667.0,351.0,0.411,0.547,-0.465,0.562
3204948,8489.0,565.0,419.0,0.418,0.542,-0.474,0.554
3204966,8365.0,687.0,323.0,0.424,0.538,-0.482,0.547
3204983,8343.0,731.0,295.0,0.431,0.533,-0.489,0.54
3205000,8245.0,559.0,419.0,0.438,0.528,-0.495,0.533
3205017,8095.0,515.0,525.0,0.446,0.524,-0.501,0.526
3205034,8211.0,269.0,615.0,0.452,0.52,-0.505,0.52
3205060,8117.0,623.0,597.0,0.459,0.517,-0.508,0.514
3205076,8335.0,921.0,587.0,0.465,0.514,-0.511,0.509
3205092,7957.0,925.0,101.0,0.472,0.511,-0.513,0.503
3205108,8245.0,483.0,153.0,0.479,0.508,-0.516,0.497
3205124,8331.0,583.0,237.0,0.486,0.504,-0.517,0.492
3205140,8511.0,529.0,-55.0,0.493,0.501,-0.518,0.487
3205166,8489.0,691.0,-27.0,0.501,0.498,-0.518,0.482
3205182,8223.0,647.0,3.0,0.509,0.494,-0.518,0.478
3205198,8209.0,605.0,49.0,0.517,0.49,-0.518,0.473
3205215,8319.0,383.0,329.0,0.525,0.487,-0.517,0.469
3205231,8391.0,225.0,349.0,0.532,0.483,-0.516,0.465
3205248,8301.0,79.0,281.0,0.539,0.48,-0.515,0.462
3205265,8217.0,285.0,259.0,0.545,0.478,-0.512,0.46
3205281,8343.0,271.0,315.0,0.551,0.476,-0.51,0.457
3205307,8287.0,209.0,107.0,0.557,0.475,-0.507,0.455
3205323,8281.0,293.0,77.0,0.562,0.474,-0.504,0.453
3205339,8253.0,17.0,193.0,0.568,0.473,-0.5,0.452
3205355,8223.0,229.0,135.0,0.572,0.473,-0.496,0.451
3205371,8235.0,689.0,85.0,0.576,0.473,-0.491,0.45
3205387,8177.0,517.0,87.0,0.581,0.473,-0.487,0.449
3205414,8229.0,139.0,153.0,0.585,0.473,-0.483,0.448
3205430,8211.0,29.0,133.0,0.588,0.474,-0.478,0.447
3205446,8037.0,-25.0,115.0,0.591,0.476,-0.473,0.447
3205463,8013.0,237.0,141.0,0.594,0.478,-0.468,0.447
3205479,7761.0,481.0,151.0,0.596,0.481,-0.462,0.447
3205496,7831.0,513.0,159.0,0.597,0.484,-0.457,0.447
3205512,7839.0,609.0,73.0,0.598,0.487,-0.453,0.448
3205538,7763.0,635.0,37.0,0.598,0.49,-0.448,0.448
3205554,7719.0,575.0,25.0,0.598,0.493,-0.444,0.449
3205570,7683.0,665.0,47.0,0.598,0.496,-0.44,0.45
3205586,7519.0,573.0,103.0,0.597,0.499,-0.437,0.451
3205602,7571.0,585.0,245.0,0.596,0.502,-0.434,0.452
3205618,7703.0,521.0,265.0,0.595,0.505,-0.432,0.453
3205644,7823.0,573.0,177.0,0.593,0.508,-0.429,0.454
3205660,7751.0,727.0,57.0,0.59,0.511,-0.427,0.456
3205676,7847.0,655.0,133.0,0.588,0.514,-0.426,0.457
3205692,7915.0,607.0,103.0,0.585,0.517,-0.425,0.459
3205708,7891.0,803.0,233.0,0.581,0.52,-0.424,0.46
3205724,8005.0,1087.0,353.0,0.578,0.523,-0.423,0.461
3205750,7931.0,817.0,179.0,0.575,0.526,-0.424,0.463
3205767,8173.0,977.0,141.0,0.571,0.528,-0.424,0.464
3205784,8263.0,841.0,169.0,0.567,0.53,-0.425,0.465
3205801,8143.0,1105.0,67.0,0.563,0.532,-0.426,0.467
3205817,7839.0,1035.0,-187.0,0.558,0.534,-0.427,0.47
3205833,8471.0,2027.0,127.0,0.553,0.535,-0.429,0.473
3205849,7679.0,1091.0,471.0,0.549,0.534,-0.433,0.476
3205865,7901.0,309.0,625.0,0.545,0.532,-0.437,0.478
3205891,8107.0,415.0,449.0,0.541,0.53,-0.442,0.481
3205907,7893.0,295.0,401.0,0.536,0.528,-0.448,0.483
3205923,8167.0,447.0,171.0,0.532,0.526,-0.453,0.485
3205939,8199.0,49.0,57.0,0.527,0.523,-0.459,0.486
3205955,7985.0,-353.0,213.0,0.523,0.521,-0.466,0.488
3205981,7957.0,-521.0,163.0,0.518,0.519,-0.472,0.489
3205997,7907.0,-347.0,-123.0,0.513,0.517,-0.478,0.491
3206013,7819.0,397.0,117.0,0.507,0.515,-0.485,0.493
3206029,7773.0,-95.0,231.0,0.501,0.512,-0.493,0.494
3206046,7983.0,-713.0,-193.0,0.494,0.51,-0.5,0.495
3206063,8149.0,-453.0,-575.0,0.488,0.509,-0.507,0.496
3206079,8303.0,-37.0,-825.0,0.481,0.507,-0.514,0.498
3206095,8243.0,-15.0,-1197.0,0.475,0.505,-0.521,0.499
3206122,8353.0,-67.0,-935.0,0.469,0.502,-0.527,0.5
3206138,8403.0,-925.0,-665.0,0.464,0.499,-0.534,0.501
3206155,8529.0,-1077.0,-481.0,0.458,0.496,-0.54,0.502
3206171,8263.0,-413.0,-513.0,0.452,0.495,-0.545,0.504
3206187,8239.0,-215.0,-629.0,0.445,0.493,-0.55,0.506
3206204,8403.0,-253.0,-631.0,0.44,0.492,-0.555,0.507
3206220,8353.0,-309.0,-899.0,0.434,0.49,-0.56,0.508
3206246,8349.0,-231.0,-1029.0,0.429,0.488,-0.565,0.509
3206262,8173.0,-343.0,-863.0,0.424,0.486,-0.569,0.51
3206278,8031.0,-303.0,-585.0,0.42,0.484,-0.573,0.511
3206294,7875.0,-225.0,-619.0,0.416,0.482,-0.577,0.511
3206310,7845.0,-433.0,-615.0,0.412,0.48,-0.581,0.511
3206326,7903.0,-417.0,-551.0,0.409,0.479,-0.585,0.512
3206352,7913.0,-589.0,-649.0,0.406,0.477,-0.588,0.512
3206368,8065.0,-339.0,-541.0,0.403,0.476,-0.589,0.513
3206384,7949.0,257.0,-645.0,0.4,0.476,-0.591,0.514
3206400,7831.0,353.0,-375.0,0.398,0.475,-0.593,0.514
3206416,8167.0,381.0,87.0,0.398,0.474,-0.594,0.513
3206432,8201.0,287.0,-231.0,0.398,0.474,-0.596,0.512
3206449,8701.0,267.0,-131.0,0.4,0.472,-0.597,0.51
3206476,9253.0,521.0,-57.0,0.402,0.471,-0.599,0.508
3206492,9353.0,1035.0,831.0,0.405,0.47,-0.599,0.505
3206508,9367.0,803.0,1505.0,0.409,0.469,-0.6,0.502
3206524,9467.0,181.0,1881.0,0.414,0.469,-0.601,0.498
3206540,9835.0,1189.0,2203.0,0.419,0.469,-0.6,0.495
3206556,9539.0,2199.0,2957.0,0.426,0.469,-0.599,0.49
3206582,9247.0,1773.0,3821.0,0.434,0.468,-0.599,0.483
3206599,10129.0,1477.0,3303.0,0.441,0.468,-0.599,0.477
3206616,10299.0,2481.0,1747.0,0.449,0.468,-0.598,0.471
3206632,11013.0,3197.0,1335.0,0.459,0.467,-0.596,0.466
3206649,11857.0,3329.0,1331.0,0.473,0.462,-0.593,0.459
3206666,11851.0,609.0,2177.0,0.49,0.455,-0.589,0.453
3206682,11771.0,-881.0,2533.0,0.507,0.45,-0.582,0.449
3206698,11801.0,241.0,2225.0,0.524,0.445,-0.573,0.446
3206724,11679.0,1013.0,1879.0,0.541,0.44,-0.562,0.445
3206740,11311.0,1753.0,1171.0,0.56,0.434,-0.549,0.443
3206756,11719.0,2417.0,1401.0,0.58,0.426,-0.536,0.442
3206772,12003.0,1357.0,2487.0,0.601,0.415,-0.521,0.441
3206788,12485.0,747.0,2985.0,0.623,0.404,-0.504,0.441
3206814,12437.0,2435.0,2725.0,0.644,0.393,-0.486,0.441
3206830,13211.0,1719.0,3655.0,0.665,0.381,-0.469,0.44
3206846,13177.0,-157.0,3345.0,0.684,0.37,-0.45,0.438
3206863,12981.0,2529.0,2543.0,0.703,0.361,-0.43,0.437
3206879,13283.0,2667.0,2801.0,0.721,0.35,-0.412,0.433
3206895,12911.0,721.0,2815.0,0.74,0.339,-0.393,0.429
3206911,12683.0,895.0,2357.0,0.757,0.329,-0.372,0.425
3206928,11937.0,1737.0,2277.0,0.774,0.319,-0.35,0.42
3206954,11633.0,1877.0,2023.0,0.79,0.309,-0.329,0.415
3206970,10801.0,1071.0,2023.0,0.806,0.298,-0.307,0.409
3206986,9973.0,1385.0,2889.0,0.821,0.287,-0.285,0.403
3207002,9239.0,2131.0,2753.0,0.834,0.276,-0.263,0.398
3207018,8357.0,1605.0,2713.0,0.847,0.266,-0.243,0.392
3207044,7951.0,1487.0,1941.0,0.858,0.255,-0.225,0.385
3207060,6213.0,1067.0,2961.0,0.869,0.243,-0.207,0.379
3207077,5411.0,789.0,4541.0,0.877,0.233,-0.19,0.374
3207094,5809.0,933.0,3839.0,0.883,0.228,-0.177,0.37
3207111,5867.0,1273.0,2091.0,0.889,0.222,-0.163,0.366
3207127,5851.0,1571.0,1653.0,0.895,0.214,-0.15,0.362
3207143,5403.0,109.0,2099.0,0.901,0.203,-0.136,0.357
3207160,4029.0,-1803.0,2505.0,0.907,0.194,-0.121,0.353
3207177,2975.0,-1003.0,2513.0,0.913,0.187,-0.105,0.347
3207194,3135.0,-537.0,2629.0,0.917,0.182,-0.09,0.342
3207220,2523.0,-137.0,1875.0,0.922,0.178,-0.075,0.337
3207236,1709.0,539.0,1393.0,0.925,0.174,-0.06,0.332
3207253,1637.0,-11.0,1483.0,0.928,0.168,-0.046,0.328
3207270,677.0,-1063.0,1757.0,0.931,0.162,-0.033,0.324
3207287,203.0,-2319.0,2133.0,0.934,0.157,-0.021,0.321
3207304,-283.0,-2225.0,1395.0,0.936,0.156,-0.01,0.317
3207320,-459.0,-1209.0,911.0,0.937,0.156,-0.0,0.313
3207336,-751.0,-289.0,811.0,0.938,0.156,0.007,0.31
3207352,-693.0,-1021.0,1279.0,0.939,0.155,0.012,0.308
3207378,-1247.0,-2311.0,1377.0,0.939,0.156,0.014,0.307
3207394,-1447.0,-1829.0,885.0,0.938,0.161,0.013,0.306
3207410,-1059.0,-1321.0,1427.0,0.937,0.167,0.009,0.306
3207426,-593.0,-1233.0,1319.0,0.935,0.174,0.001,0.307
3207442,29.0,-1063.0,1387.0,0.933,0.183,-0.009,0.309
3207468,1043.0,-595.0,1289.0,0.93,0.192,-0.022,0.312
3207485,1627.0,-2229.0,1585.0,0.927,0.203,-0.035,0.314
3207502,2315.0,-381.0,1405.0,0.922,0.217,-0.048,0.317
3207518,3217.0,949.0,1667.0,0.916,0.231,-0.062,0.321
3207534,4051.0,355.0,1941.0,0.91,0.245,-0.078,0.325
3207550,4863.0,565.0,2019.0,0.902,0.261,-0.093,0.33
3207566,6069.0,1285.0,2205.0,0.894,0.277,-0.11,0.335
3207582,6601.0,1223.0,2501.0,0.884,0.295,-0.126,0.34
3207608,7623.0,705.0,2833.0,0.871,0.316,-0.144,0.347
3207624,7657.0,2851.0,2545.0,0.857,0.339,-0.16,0.355
3207641,8565.0,5513.0,3075.0,0.841,0.359,-0.177,0.363
3207658,9879.0,1355.0,3977.0,0.825,0.379,-0.195,0.372
3207674,11141.0,977.0,2813.0,0.805,0.403,-0.208,0.382
3207691,10401.0,4645.0,1259.0,0.784,0.428,-0.217,0.394
3207708,10563.0,8017.0,1941.0,0.763,0.448,-0.228,0.406
3207724,11529.0,5797.0,3171.0,0.743,0.463,-0.242,0.418
3207751,12091.0,4629.0,2867.0,0.722,0.479,-0.253,0.43
3207767,11899.0,6459.0,3079.0,0.701,0.493,-0.263,0.443
3207783,11981.0,3635.0,2265.0,0.68,0.506,-0.274,0.454
3207799,12567.0,5211.0,1855.0,0.658,0.521,-0.282,0.466
3207815,12675.0,6505.0,1935.0,0.636,0.534,-0.288,0.477
3207831,12033.0,6139.0,1221.0,0.615,0.546,-0.294,0.488
3207857,11239.0,6463.0,1119.0,0.593,0.555,-0.3,0.5
3207873,10983.0,7015.0,1149.0,0.573,0.563,-0.307,0.511
3207889,10223.0,5461.0,2513.0,0.553,0.569,-0.316,0.52
3207905,10163.0,5539.0,1495.0,0.533,0.577,-0.323,0.528
3207921,10349.0,5621.0,751.0,0.512,0.584,-0.33,0.536
3207937,10239.0,4987.0,751.0,0.493,0.59,-0.336,0.544
3207963,10223.0,5217.0,1529.0,0.474,0.597,-0.34,0.551
