timestamp,ax,ay,az,q0,q1,q2,q3
7091481,3637.0,3172.0,6751.0,0.918,0.268,-0.213,0.2
7091497,3785.0,3160.0,6847.0,0.917,0.268,-0.214,0.202
7091513,3683.0,3530.0,6901.0,0.917,0.269,-0.213,0.204
7091529,3683.0,3426.0,6853.0,0.917,0.269,-0.213,0.205
7091555,3655.0,3460.0,6817.0,0.916,0.27,-0.212,0.206
7091572,3671.0,3452.0,6709.0,0.916,0.271,-0.21,0.207
7091588,3515.0,3542.0,6593.0,0.916,0.272,-0.209,0.208
7091604,3451.0,3500.0,6527.0,0.916,0.273,-0.207,0.208
7091620,3433.0,3530.0,6579.0,0.916,0.274,-0.205,0.209
7091636,3465.0,3500.0,6523.0,0.916,0.275,-0.204,0.209
7091662,3489.0,3530.0,6531.0,0.916,0.275,-0.202,0.209
7091678,3557.0,3444.0,6595.0,0.917,0.275,-0.201,0.209
7091694,3635.0,3410.0,6699.0,0.917,0.276,-0.199,0.209
7091710,3627.0,3464.0,6779.0,0.917,0.276,-0.198,0.209
7091727,3723.0,3402.0,6829.0,0.918,0.275,-0.197,0.209
7091743,3665.0,3422.0,6813.0,0.918,0.275,-0.195,0.208
7091759,3545.0,3166.0,6681.0,0.919,0.274,-0.194,0.207
7091786,3161.0,2742.0,6381.0,0.919,0.275,-0.193,0.206
7091802,3221.0,2844.0,6353.0,0.92,0.275,-0.192,0.205
7091818,3507.0,3536.0,6783.0,0.92,0.276,-0.19,0.204
7091834,3525.0,3662.0,6987.0,0.92,0.276,-0.189,0.202
7091850,3485.0,3044.0,6977.0,0.921,0.276,-0.189,0.202
7091866,3455.0,2688.0,6677.0,0.921,0.276,-0.189,0.201
7091892,3571.0,2660.0,6405.0,0.921,0.276,-0.189,0.201
7091908,3543.0,2828.0,6321.0,0.921,0.276,-0.189,0.201
7091924,3351.0,2984.0,6427.0,0.921,0.276,-0.189,0.201
7091940,3333.0,3022.0,6561.0,0.921,0.276,-0.189,0.202
7091956,3327.0,3084.0,6761.0,0.921,0.276,-0.188,0.202
7091973,3531.0,3152.0,6901.0,0.921,0.276,-0.188,0.203
7091999,3641.0,3088.0,6961.0,0.92,0.276,-0.189,0.204
7092015,3621.0,2930.0,6757.0,0.92,0.277,-0.189,0.205
7092032,3541.0,2792.0,6553.0,0.919,0.277,-0.189,0.206
7092048,3547.0,2868.0,6503.0,0.919,0.277,-0.19,0.208
7092064,3645.0,3146.0,6711.0,0.918,0.277,-0.19,0.209
7092080,3663.0,3496.0,6967.0,0.918,0.278,-0.19,0.211
7092097,3701.0,3586.0,7005.0,0.917,0.278,-0.19,0.212
7092114,3549.0,3596.0,6839.0,0.917,0.279,-0.19,0.213
7092140,3423.0,3452.0,6617.0,0.916,0.28,-0.189,0.214
7092156,3383.0,3554.0,6401.0,0.916,0.281,-0.189,0.215
7092172,3403.0,3480.0,6347.0,0.916,0.281,-0.188,0.216
7092189,3415.0,3506.0,6465.0,0.915,0.282,-0.188,0.217
7092205,3437.0,3438.0,6701.0,0.915,0.282,-0.188,0.218
7092221,3457.0,3514.0,6713.0,0.915,0.282,-0.188,0.218
7092238,3473.0,3486.0,6681.0,0.915,0.282,-0.188,0.218
7092255,3441.0,3378.0,6689.0,0.915,0.282,-0.187,0.219
7092281,3489.0,3432.0,6669.0,0.915,0.282,-0.187,0.219
7092297,3451.0,3380.0,6651.0,0.915,0.282,-0.187,0.219
7092313,3461.0,3320.0,6671.0,0.915,0.282,-0.187,0.219
7092329,3429.0,3342.0,6719.0,0.916,0.281,-0.186,0.219
7092345,3377.0,3354.0,6663.0,0.916,0.281,-0.186,0.218
7092371,3483.0,3332.0,6611.0,0.916,0.281,-0.186,0.218
7092388,3493.0,3308.0,6553.0,0.916,0.281,-0.185,0.218
7092404,3551.0,3284.0,6549.0,0.916,0.28,-0.185,0.218
7092420,3543.0,3184.0,6601.0,0.916,0.28,-0.185,0.218
7092436,3553.0,3186.0,6651.0,0.916,0.28,-0.185,0.218
7092452,3547.0,3156.0,6641.0,0.916,0.28,-0.185,0.218
7092468,3559.0,3238.0,6689.0,0.916,0.279,-0.185,0.218
7092494,3543.0,3180.0,6723.0,0.916,0.279,-0.185,0.219
7092510,3555.0,3290.0,6671.0,0.916,0.279,-0.185,0.219
7092526,3493.0,3272.0,6663.0,0.916,0.279,-0.185,0.219
7092542,3463.0,3278.0,6653.0,0.916,0.279,-0.185,0.219
7092558,3403.0,3234.0,6623.0,0.916,0.279,-0.185,0.22
7092574,3431.0,3274.0,6617.0,0.916,0.279,-0.185,0.22
7092600,3485.0,3268.0,6647.0,0.916,0.279,-0.185,0.221
7092616,3479.0,3284.0,6649.0,0.916,0.279,-0.185,0.221
7092632,3511.0,3262.0,6677.0,0.916,0.279,-0.185,0.222
7092648,3543.0,3312.0,6665.0,0.916,0.279,-0.185,0.222
7092664,3483.0,3326.0,6657.0,0.916,0.279,-0.185,0.222
7092680,3541.0,3228.0,6621.0,0.916,0.279,-0.185,0.223
7092706,3525.0,3266.0,6655.0,0.916,0.279,-0.185,0.223
7092722,3541.0,3362.0,6611.0,0.915,0.279,-0.185,0.223
7092738,3529.0,3296.0,6629.0,0.915,0.279,-0.185,0.224
7092754,3495.0,3282.0,6593.0,0.915,0.279,-0.185,0.224
7092770,3503.0,3306.0,6661.0,0.915,0.279,-0.184,0.224
7092796,3505.0,3306.0,6713.0,0.915,0.279,-0.184,0.224
7092812,3523.0,3314.0,6695.0,0.915,0.279,-0.184,0.224
7092828,3457.0,3278.0,6731.0,0.915,0.279,-0.184,0.224
7092844,3475.0,3276.0,6715.0,0.915,0.278,-0.184,0.224
7092860,3469.0,3288.0,6699.0,0.916,0.278,-0.184,0.225
7092876,3505.0,3268.0,6625.0,0.916,0.278,-0.184,0.225
7092892,3517.0,3212.0,6601.0,0.916,0.278,-0.184,0.225
7092918,3473.0,3290.0,6637.0,0.916,0.278,-0.184,0.225
7092934,3427.0,3152.0,6695.0,0.915,0.278,-0.184,0.225
7092950,3175.0,3266.0,6683.0,0.915,0.278,-0.184,0.226
7092966,2989.0,3312.0,6721.0,0.915,0.279,-0.184,0.227
7092982,3185.0,3254.0,6789.0,0.914,0.279,-0.185,0.228
7093008,3305.0,3306.0,6741.0,0.913,0.28,-0.186,0.23
7093024,3607.0,3290.0,6689.0,0.913,0.28,-0.187,0.231
7093040,3903.0,3316.0,6607.0,0.912,0.281,-0.189,0.232
7093056,4165.0,3306.0,6591.0,0.912,0.281,-0.19,0.232
7093072,4265.0,3288.0,6361.0,0.912,0.281,-0.191,0.232
7093088,4369.0,3226.0,6293.0,0.912,0.28,-0.192,0.232
7093114,4235.0,2996.0,6347.0,0.912,0.28,-0.191,0.232
7093130,4011.0,2922.0,6435.0,0.912,0.279,-0.191,0.232
7093147,3883.0,2998.0,6431.0,0.912,0.28,-0.19,0.232
7093163,3731.0,3146.0,6457.0,0.912,0.28,-0.188,0.232
7093180,3601.0,3312.0,6513.0,0.912,0.281,-0.187,0.232
7093196,3431.0,3396.0,6671.0,0.912,0.281,-0.185,0.233
7093213,3351.0,3488.0,6695.0,0.912,0.282,-0.184,0.233
7093229,3297.0,3612.0,6747.0,0.913,0.282,-0.182,0.233
7093247,3273.0,3562.0,6879.0,0.913,0.282,-0.181,0.233
7093273,3181.0,3300.0,6879.0,0.913,0.283,-0.179,0.234
7093295,3191.0,3372.0,6773.0,0.913,0.283,-0.178,0.234
7093311,3173.0,3560.0,6599.0,0.913,0.284,-0.178,0.234
7093327,3265.0,3602.0,6511.0,0.912,0.284,-0.178,0.234
7093343,3337.0,3488.0,6557.0,0.912,0.284,-0.178,0.235
7093359,3463.0,3426.0,6533.0,0.912,0.284,-0.178,0.235
7093375,3585.0,3386.0,6509.0,0.912,0.284,-0.179,0.235
7093391,3703.0,3426.0,6531.0,0.912,0.284,-0.179,0.235
7093407,3717.0,3326.0,6593.0,0.912,0.283,-0.18,0.235
7093423,3755.0,3120.0,6719.0,0.912,0.283,-0.18,0.236
7093449,3715.0,3168.0,6607.0,0.912,0.283,-0.18,0.236
7093465,3595.0,3298.0,6575.0,0.912,0.283,-0.179,0.236
7093481,3513.0,3342.0,6589.0,0.912,0.283,-0.179,0.236
7093497,3441.0,3344.0,6575.0,0.912,0.283,-0.178,0.237
7093513,3413.0,3444.0,6527.0,0.912,0.283,-0.178,0.237
7093539,3405.0,3424.0,6535.0,0.912,0.283,-0.178,0.237
7093555,3387.0,3472.0,6537.0,0.912,0.283,-0.178,0.237
7093571,3387.0,3534.0,6657.0,0.912,0.283,-0.178,0.238
7093587,3389.0,3470.0,6671.0,0.912,0.283,-0.178,0.238
7093603,3417.0,3434.0,6699.0,0.912,0.283,-0.178,0.238
7093620,3357.0,3494.0,6663.0,0.912,0.283,-0.179,0.239
7093636,3397.0,3410.0,6723.0,0.912,0.283,-0.179,0.239
7093662,3393.0,3168.0,6623.0,0.911,0.283,-0.18,0.239
7093678,3425.0,3328.0,6569.0,0.911,0.283,-0.181,0.24
7093694,3489.0,3324.0,6549.0,0.911,0.283,-0.182,0.24
7093710,3551.0,3324.0,6545.0,0.91,0.282,-0.183,0.241
7093726,3637.0,3224.0,6579.0,0.91,0.282,-0.184,0.241
7093742,3663.0,3220.0,6529.0,0.91,0.282,-0.185,0.241
7093768,3781.0,3162.0,6477.0,0.91,0.282,-0.186,0.242
7093784,3687.0,3328.0,6457.0,0.909,0.282,-0.186,0.242
7093800,3713.0,3356.0,6499.0,0.909,0.282,-0.186,0.242
7093816,3767.0,3252.0,6553.0,0.909,0.282,-0.187,0.243
7093832,3883.0,3190.0,6631.0,0.909,0.282,-0.187,0.243
7093848,3903.0,3212.0,6519.0,0.909,0.282,-0.187,0.244
7093874,3957.0,3274.0,6449.0,0.909,0.283,-0.187,0.244
7093890,3837.0,3370.0,6481.0,0.909,0.283,-0.186,0.244
7093906,3853.0,3334.0,6543.0,0.908,0.283,-0.186,0.245
7093922,3773.0,3224.0,6581.0,0.908,0.284,-0.185,0.245
7093938,3771.0,3252.0,6499.0,0.908,0.284,-0.184,0.246
7093954,3769.0,3336.0,6535.0,0.908,0.285,-0.183,0.246
7093980,3717.0,3368.0,6507.0,0.908,0.285,-0.182,0.247
7093996,3599.0,3512.0,6563.0,0.908,0.286,-0.181,0.247
7094012,3529.0,3416.0,6557.0,0.908,0.286,-0.18,0.247
7094028,3445.0,3394.0,6609.0,0.908,0.286,-0.179,0.247
7094044,3413.0,3416.0,6597.0,0.908,0.286,-0.178,0.247
7094070,3389.0,3478.0,6533.0,0.908,0.287,-0.177,0.248
7094086,3459.0,3476.0,6503.0,0.908,0.287,-0.176,0.248
7094102,3435.0,3422.0,6507.0,0.909,0.287,-0.176,0.248
7094118,3403.0,3546.0,6523.0,0.909,0.287,-0.175,0.248
7094134,3487.0,3476.0,6545.0,0.909,0.287,-0.174,0.248
7094150,3535.0,3472.0,6625.0,0.909,0.287,-0.174,0.248
7094176,3613.0,3504.0,6625.0,0.909,0.288,-0.173,0.249
7094192,3639.0,3490.0,6581.0,0.909,0.288,-0.173,0.249
7094208,3645.0,3464.0,6543.0,0.909,0.288,-0.172,0.249
7094224,3541.0,3448.0,6477.0,0.909,0.288,-0.172,0.249
7094240,3533.0,3468.0,6511.0,0.909,0.288,-0.171,0.249
7094256,3477.0,3438.0,6513.0,0.909,0.288,-0.171,0.249
7094282,3501.0,3386.0,6595.0,0.909,0.288,-0.171,0.25
7094298,3515.0,3402.0,6467.0,0.909,0.288,-0.171,0.25
7094314,3479.0,3516.0,6543.0,0.909,0.288,-0.17,0.25
7094330,3585.0,3440.0,6603.0,0.909,0.288,-0.17,0.25
7094346,3529.0,3390.0,6549.0,0.908,0.288,-0.17,0.251
7094362,3537.0,3444.0,6503.0,0.908,0.288,-0.17,0.251
7094388,3553.0,3504.0,6511.0,0.908,0.288,-0.169,0.251
7094404,3545.0,3442.0,6579.0,0.908,0.289,-0.169,0.252
7094420,3561.0,3524.0,6561.0,0.908,0.289,-0.168,0.252
7094436,3557.0,3570.0,6579.0,0.908,0.289,-0.168,0.253
7094453,3503.0,3538.0,6569.0,0.908,0.289,-0.168,0.253
7094469,3443.0,3506.0,6629.0,0.908,0.289,-0.167,0.253
7094485,3401.0,3504.0,6601.0,0.908,0.289,-0.167,0.254
7094511,3387.0,3512.0,6569.0,0.908,0.289,-0.167,0.254
7094527,3417.0,3544.0,6561.0,0.908,0.289,-0.167,0.254
7094543,3435.0,3504.0,6589.0,0.908,0.289,-0.167,0.254
7094560,3489.0,3526.0,6603.0,0.908,0.289,-0.167,0.254
7094576,3483.0,3526.0,6583.0,0.908,0.289,-0.166,0.255
7094593,3435.0,3504.0,6641.0,0.908,0.289,-0.166,0.255
7094610,3427.0,3550.0,6663.0,0.908,0.289,-0.166,0.255
7094636,3441.0,3492.0,6621.0,0.908,0.288,-0.166,0.255
7094653,3503.0,3508.0,6539.0,0.908,0.288,-0.166,0.255
7094669,3517.0,3464.0,6529.0,0.908,0.288,-0.166,0.255
7094685,3501.0,3456.0,6529.0,0.908,0.288,-0.166,0.255
7094701,3447.0,3510.0,6543.0,0.908,0.288,-0.166,0.256
7094718,3469.0,3466.0,6565.0,0.908,0.288,-0.166,0.256
7094734,3517.0,3474.0,6599.0,0.908,0.288,-0.166,0.256
7094760,3527.0,3464.0,6573.0,0.908,0.288,-0.166,0.256
7094776,3515.0,3440.0,6573.0,0.908,0.288,-0.166,0.257
7094792,3471.0,3430.0,6567.0,0.908,0.288,-0.166,0.257
7094808,3487.0,3434.0,6573.0,0.907,0.288,-0.166,0.257
7094824,3417.0,3530.0,6581.0,0.907,0.288,-0.166,0.257
7094840,3475.0,3464.0,6611.0,0.907,0.288,-0.166,0.258
7094866,3427.0,3452.0,6613.0,0.907,0.288,-0.166,0.258
7094882,3443.0,3480.0,6615.0,0.907,0.288,-0.166,0.258
7094899,3461.0,3460.0,6617.0,0.907,0.288,-0.166,0.258
7094915,3469.0,3510.0,6553.0,0.907,0.288,-0.166,0.258
7094931,3439.0,3454.0,6547.0,0.907,0.288,-0.166,0.259
7094948,3467.0,3450.0,6537.0,0.907,0.288,-0.166,0.259
7094965,3507.0,3476.0,6547.0,0.907,0.288,-0.166,0.259
7094981,3545.0,3468.0,6535.0,0.907,0.288,-0.166,0.259
7095007,3545.0,3504.0,6495.0,0.907,0.288,-0.166,0.259
7095023,3541.0,3498.0,6503.0,0.907,0.288,-0.165,0.26
7095040,3511.0,3444.0,6565.0,0.907,0.288,-0.165,0.26
7095057,3459.0,3500.0,6567.0,0.907,0.288,-0.165,0.26
7095073,3477.0,3490.0,6607.0,0.907,0.288,-0.165,0.26
7095089,3433.0,3520.0,6593.0,0.907,0.288,-0.165,0.26
7095105,3423.0,3496.0,6593.0,0.907,0.288,-0.165,0.261
7095131,3523.0,3488.0,6549.0,0.907,0.288,-0.164,0.261
7095147,3467.0,3422.0,6581.0,0.907,0.288,-0.164,0.261
7095163,3537.0,3458.0,6541.0,0.907,0.288,-0.164,0.261
7095179,3475.0,3470.0,6555.0,0.907,0.288,-0.164,0.261
7095196,3497.0,3532.0,6589.0,0.907,0.288,-0.164,0.262
7095212,3445.0,3474.0,6597.0,0.907,0.288,-0.163,0.262
7095238,3405.0,3492.0,6585.0,0.907,0.288,-0.163,0.262
7095254,3411.0,3518.0,6621.0,0.907,0.288,-0.163,0.263
7095271,3455.0,3526.0,6587.0,0.906,0.288,-0.163,0.263
7095287,3503.0,3484.0,6505.0,0.906,0.287,-0.163,0.263
7095303,3549.0,3506.0,6507.0,0.906,0.287,-0.163,0.263
7095319,3485.0,3498.0,6557.0,0.906,0.287,-0.163,0.263
7095336,3467.0,3446.0,6503.0,0.907,0.287,-0.163,0.263
7095362,3465.0,3442.0,6511.0,0.906,0.287,-0.163,0.264
7095378,3489.0,3474.0,6541.0,0.906,0.287,-0.163,0.264
7095395,3531.0,3482.0,6577.0,0.906,0.287,-0.163,0.264
7095412,3515.0,3458.0,6587.0,0.906,0.287,-0.162,0.264
7095429,3467.0,3470.0,6603.0,0.906,0.287,-0.162,0.264
7095445,3451.0,3488.0,6605.0,0.906,0.287,-0.162,0.265
7095461,3471.0,3470.0,6641.0,0.906,0.287,-0.162,0.265
7095477,3489.0,3464.0,6621.0,0.906,0.286,-0.162,0.265
7095503,3471.0,3522.0,6587.0,0.906,0.286,-0.162,0.265
7095519,3437.0,3516.0,6547.0,0.906,0.286,-0.162,0.265
7095535,3471.0,3484.0,6521.0,0.906,0.286,-0.162,0.265
7095551,3431.0,3514.0,6531.0,0.906,0.286,-0.162,0.266
7095567,3441.0,3522.0,6587.0,0.906,0.286,-0.162,0.266
7095583,3493.0,3472.0,6627.0,0.906,0.286,-0.162,0.266
7095609,3389.0,3492.0,6621.0,0.906,0.286,-0.162,0.266
7095626,3413.0,3500.0,6587.0,0.906,0.286,-0.161,0.266
7095642,3399.0,3486.0,6535.0,0.906,0.286,-0.161,0.266
7095658,3437.0,3506.0,6587.0,0.906,0.286,-0.161,0.266
7095674,3447.0,3484.0,6601.0,0.906,0.286,-0.161,0.266
7095690,3449.0,3478.0,6575.0,0.906,0.285,-0.162,0.266
7095716,3447.0,3454.0,6575.0,0.906,0.285,-0.162,0.266
7095732,3525.0,3476.0,6563.0,0.906,0.285,-0.162,0.267
7095748,3481.0,3466.0,6559.0,0.906,0.285,-0.162,0.267
7095764,3519.0,3374.0,6657.0,0.906,0.285,-0.162,0.267
7095780,3521.0,3366.0,6539.0,0.906,0.284,-0.163,0.267
7095796,3511.0,3404.0,6603.0,0.906,0.284,-0.163,0.267
7095822,3511.0,3450.0,6591.0,0.906,0.284,-0.163,0.267
7095839,3501.0,3400.0,6633.0,0.906,0.284,-0.163,0.268
7095855,3507.0,3416.0,6605.0,0.906,0.284,-0.163,0.268
7095871,3459.0,3422.0,6587.0,0.906,0.284,-0.163,0.268
7095887,3461.0,3416.0,6605.0,0.906,0.284,-0.163,0.268
7095903,3475.0,3398.0,6557.0,0.906,0.284,-0.164,0.268
7095919,3471.0,3380.0,6527.0,0.906,0.284,-0.164,0.268
7095945,3495.0,3448.0,6555.0,0.906,0.283,-0.164,0.269
7095961,3529.0,3450.0,6585.0,0.906,0.283,-0.164,0.269
7095977,3523.0,3408.0,6581.0,0.906,0.283,-0.164,0.269
7095993,3549.0,3382.0,6537.0,0.906,0.283,-0.165,0.269
7096009,3565.0,3380.0,6583.0,0.906,0.283,-0.165,0.27
7096025,3539.0,3372.0,6617.0,0.906,0.283,-0.165,0.27
7096051,3517.0,3372.0,6629.0,0.906,0.283,-0.165,0.27
7096067,3521.0,3392.0,6565.0,0.906,0.283,-0.165,0.27
7096083,3487.0,3354.0,6615.0,0.905,0.283,-0.164,0.27
7096099,3537.0,3384.0,6583.0,0.905,0.283,-0.164,0.271
7096115,3539.0,3396.0,6601.0,0.905,0.283,-0.164,0.271
7096131,3549.0,3428.0,6539.0,0.905,0.283,-0.164,0.271
7096158,3541.0,3450.0,6597.0,0.905,0.283,-0.164,0.271
7096174,3657.0,3340.0,6593.0,0.905,0.283,-0.164,0.271
7096190,3665.0,3384.0,6585.0,0.905,0.283,-0.164,0.271
7096206,3683.0,3362.0,6613.0,0.905,0.283,-0.164,0.271
7096222,3743.0,3370.0,6557.0,0.905,0.283,-0.163,0.271
7096238,3735.0,3224.0,6581.0,0.905,0.283,-0.163,0.271
7096264,3719.0,3266.0,6553.0,0.905,0.284,-0.162,0.271
7096280,3615.0,3316.0,6483.0,0.905,0.284,-0.161,0.271
7096296,3411.0,3440.0,6501.0,0.905,0.285,-0.16,0.271
7096312,3271.0,3586.0,6561.0,0.905,0.286,-0.159,0.271
7096328,3149.0,3648.0,6609.0,0.905,0.286,-0.158,0.272
7096344,3191.0,3818.0,6617.0,0.905,0.287,-0.158,0.272
7096370,3317.0,3840.0,6599.0,0.905,0.288,-0.157,0.272
7096386,3317.0,3816.0,6569.0,0.904,0.288,-0.157,0.272
7096402,3307.0,3712.0,6521.0,0.904,0.289,-0.156,0.272
7096418,3363.0,3608.0,6509.0,0.904,0.29,-0.155,0.273
7096434,3351.0,3564.0,6587.0,0.904,0.29,-0.155,0.273
7096450,3367.0,3524.0,6633.0,0.904,0.291,-0.154,0.273
7096476,3375.0,3520.0,6651.0,0.904,0.291,-0.154,0.273
7096492,3417.0,3406.0,6541.0,0.904,0.291,-0.154,0.273
7096508,3415.0,3394.0,6487.0,0.904,0.29,-0.154,0.273
7096524,3385.0,3510.0,6547.0,0.904,0.29,-0.154,0.273
7096541,3447.0,3508.0,6489.0,0.904,0.29,-0.154,0.274
7096557,3479.0,3480.0,6521.0,0.904,0.289,-0.154,0.274
7096583,3467.0,3520.0,6457.0,0.904,0.289,-0.154,0.274
7096599,3483.0,3516.0,6439.0,0.904,0.289,-0.154,0.274
7096615,3527.0,3512.0,6621.0,0.904,0.289,-0.154,0.274
7096631,3559.0,3608.0,6729.0,0.904,0.289,-0.154,0.274
7096647,3411.0,3622.0,6759.0,0.904,0.289,-0.154,0.274
7096663,3309.0,3496.0,6727.0,0.904,0.288,-0.154,0.274
7096689,3311.0,3512.0,6595.0,0.904,0.288,-0.154,0.274
7096705,3357.0,3528.0,6489.0,0.904,0.288,-0.154,0.275
7096721,3343.0,3496.0,6455.0,0.904,0.288,-0.154,0.275
7096737,3423.0,3582.0,6477.0,0.904,0.288,-0.154,0.275
7096753,3447.0,3676.0,6503.0,0.904,0.288,-0.154,0.275
7096769,3505.0,3684.0,6475.0,0.904,0.288,-0.154,0.275
7096795,3397.0,3578.0,6441.0,0.904,0.288,-0.154,0.275
7096811,3481.0,3588.0,6487.0,0.904,0.287,-0.155,0.275
7096827,3543.0,3576.0,6625.0,0.904,0.287,-0.155,0.275
7096843,3467.0,3478.0,6519.0,0.905,0.286,-0.156,0.275
7096859,3455.0,3292.0,6501.0,0.905,0.285,-0.157,0.275
7096875,3507.0,3256.0,6447.0,0.905,0.284,-0.158,0.275
7096901,3501.0,3228.0,6485.0,0.905,0.282,-0.16,0.275
7096917,3451.0,3300.0,6559.0,0.906,0.279,-0.162,0.275
7096933,3675.0,3028.0,6923.0,0.906,0.276,-0.165,0.275
7096949,3963.0,2904.0,7141.0,0.906,0.273,-0.167,0.276
7096965,3875.0,2744.0,6945.0,0.907,0.271,-0.167,0.277
7096981,3661.0,2622.0,6691.0,0.906,0.272,-0.166,0.278
7097007,3369.0,2944.0,6253.0,0.906,0.274,-0.164,0.279
7097023,3425.0,3346.0,6297.0,0.905,0.278,-0.162,0.279
7097039,3369.0,3960.0,6381.0,0.904,0.282,-0.159,0.28
7097055,3393.0,4392.0,6569.0,0.903,0.286,-0.157,0.28
7097071,3531.0,4392.0,6713.0,0.902,0.288,-0.156,0.28
7097087,3549.0,3944.0,6741.0,0.902,0.289,-0.155,0.281
7097113,3481.0,3734.0,6493.0,0.902,0.289,-0.154,0.281
7097129,3435.0,3816.0,6269.0,0.902,0.289,-0.153,0.281
7097145,3213.0,4004.0,6233.0,0.903,0.288,-0.152,0.281
7097161,3065.0,3828.0,6345.0,0.903,0.287,-0.152,0.28
7097177,2963.0,3290.0,6587.0,0.904,0.287,-0.151,0.28
7097193,3007.0,3184.0,6767.0,0.904,0.287,-0.151,0.28
7097219,3185.0,3172.0,6921.0,0.904,0.287,-0.152,0.28
7097235,3353.0,3406.0,6873.0,0.904,0.287,-0.153,0.279
7097251,3455.0,3412.0,6711.0,0.904,0.286,-0.154,0.279
7097267,3515.0,3450.0,6481.0,0.904,0.285,-0.156,0.279
7097283,3609.0,3520.0,6389.0,0.904,0.283,-0.158,0.279
7097309,3951.0,3272.0,6529.0,0.905,0.28,-0.16,0.278
7097325,4119.0,3000.0,6521.0,0.905,0.278,-0.161,0.278
7097341,4063.0,2860.0,6501.0,0.905,0.277,-0.162,0.278
7097357,3929.0,2478.0,6623.0,0.905,0.277,-0.162,0.278
7097373,3743.0,2594.0,6641.0,0.905,0.278,-0.16,0.279
7097389,3583.0,3122.0,6679.0,0.905,0.28,-0.159,0.279
7097406,3453.0,3594.0,6653.0,0.904,0.282,-0.157,0.28
7097432,3369.0,3892.0,6607.0,0.903,0.284,-0.156,0.281
7097448,3305.0,4040.0,6473.0,0.903,0.285,-0.155,0.282
7097464,3265.0,4090.0,6517.0,0.903,0.285,-0.154,0.283
7097480,3407.0,4184.0,6509.0,0.902,0.285,-0.154,0.284
7097496,3457.0,3986.0,6489.0,0.903,0.285,-0.153,0.284
7097512,3367.0,3678.0,6413.0,0.903,0.285,-0.152,0.284
7097538,3357.0,3286.0,6555.0,0.903,0.286,-0.151,0.284
7097554,3353.0,3274.0,6597.0,0.902,0.288,-0.149,0.284
7097570,3369.0,3454.0,6763.0,0.902,0.289,-0.148,0.284
7097586,3337.0,3572.0,6817.0,0.902,0.29,-0.147,0.284
7097602,3281.0,3630.0,6755.0,0.902,0.291,-0.146,0.284
7097618,3223.0,3626.0,6505.0,0.902,0.291,-0.146,0.284
7097644,3247.0,3722.0,6465.0,0.902,0.29,-0.146,0.284
7097660,3345.0,3772.0,6419.0,0.902,0.29,-0.146,0.284
7097676,3345.0,3692.0,6491.0,0.902,0.289,-0.146,0.284
7097692,3453.0,3516.0,6503.0,0.903,0.289,-0.146,0.284
7097708,3513.0,3272.0,6621.0,0.903,0.289,-0.146,0.284
7097724,3441.0,3238.0,6773.0,0.903,0.289,-0.145,0.283
7097751,3395.0,3384.0,6783.0,0.903,0.29,-0.144,0.283
7097768,3339.0,3422.0,6685.0,0.903,0.29,-0.144,0.283
7097784,3223.0,3592.0,6497.0,0.903,0.29,-0.144,0.283
7097800,3129.0,3710.0,6325.0,0.903,0.289,-0.144,0.283
7097816,3167.0,3792.0,6365.0,0.903,0.288,-0.145,0.283
7097833,3325.0,3750.0,6433.0,0.904,0.286,-0.146,0.283
7097849,3715.0,3592.0,6607.0,0.904,0.284,-0.148,0.283
7097875,3897.0,3290.0,6613.0,0.904,0.282,-0.149,0.283
7097891,3865.0,2846.0,6741.0,0.905,0.281,-0.15,0.284
7097907,3757.0,2622.0,6799.0,0.905,0.28,-0.15,0.284
7097923,3479.0,2884.0,6763.0,0.905,0.281,-0.15,0.284
7097939,3281.0,3210.0,6859.0,0.904,0.282,-0.149,0.284
7097955,3095.0,3784.0,6665.0,0.904,0.284,-0.148,0.285
7097981,3015.0,4086.0,6513.0,0.903,0.285,-0.147,0.286
7097997,3073.0,4116.0,6553.0,0.903,0.285,-0.147,0.286
7098013,3043.0,4194.0,6493.0,0.902,0.286,-0.147,0.287
7098029,3161.0,4264.0,6415.0,0.902,0.286,-0.147,0.288
7098045,3303.0,4202.0,6407.0,0.902,0.286,-0.147,0.288
7098061,3459.0,3830.0,6403.0,0.902,0.286,-0.147,0.288
7098087,3463.0,3512.0,6463.0,0.902,0.285,-0.147,0.288
7098103,3361.0,3336.0,6573.0,0.902,0.286,-0.146,0.288
7098119,3421.0,3284.0,6715.0,0.903,0.286,-0.145,0.287
7098135,3419.0,3318.0,6777.0,0.903,0.286,-0.145,0.287
7098151,3453.0,3340.0,6767.0,0.903,0.286,-0.145,0.287
7098167,3457.0,3370.0,6709.0,0.903,0.286,-0.145,0.287
7098193,3425.0,3358.0,6571.0,0.903,0.285,-0.145,0.287
7098209,3393.0,3428.0,6437.0,0.903,0.285,-0.145,0.287
7098225,3317.0,3440.0,6489.0,0.903,0.285,-0.145,0.287
7098241,3359.0,3464.0,6601.0,0.903,0.286,-0.145,0.287
7098257,3361.0,3484.0,6659.0,0.903,0.286,-0.145,0.287
7098273,3249.0,3520.0,6733.0,0.902,0.287,-0.144,0.288
7098299,3281.0,3690.0,6641.0,0.902,0.287,-0.144,0.288
7098315,3259.0,3632.0,6613.0,0.902,0.286,-0.144,0.288
7098331,3207.0,3636.0,6499.0,0.903,0.285,-0.145,0.288
7098347,3179.0,3624.0,6497.0,0.903,0.284,-0.145,0.287
7098363,3233.0,3572.0,6539.0,0.903,0.283,-0.146,0.287
7098379,3357.0,3498.0,6583.0,0.903,0.282,-0.147,0.288
7098405,3535.0,3454.0,6683.0,0.903,0.281,-0.148,0.288
7098421,3607.0,3250.0,6679.0,0.903,0.28,-0.149,0.288
7098437,3637.0,3034.0,6653.0,0.903,0.28,-0.149,0.288
7098453,3567.0,3032.0,6661.0,0.903,0.28,-0.15,0.289
7098469,3569.0,3212.0,6655.0,0.903,0.281,-0.149,0.29
7098495,3589.0,3470.0,6661.0,0.902,0.282,-0.149,0.29
7098511,3505.0,3678.0,6607.0,0.902,0.283,-0.149,0.291
7098527,3431.0,3726.0,6591.0,0.902,0.283,-0.149,0.291
7098543,3373.0,3680.0,6533.0,0.902,0.283,-0.148,0.291
7098559,3273.0,3712.0,6539.0,0.902,0.283,-0.148,0.292
7098575,3287.0,3612.0,6583.0,0.901,0.284,-0.147,0.292
7098601,3287.0,3666.0,6549.0,0.901,0.284,-0.147,0.292
7098617,3325.0,3632.0,6601.0,0.901,0.284,-0.147,0.292
7098633,3369.0,3612.0,6623.0,0.901,0.284,-0.146,0.292
7098649,3409.0,3486.0,6619.0,0.902,0.284,-0.146,0.292
7098665,3399.0,3398.0,6647.0,0.902,0.283,-0.146,0.292
7098681,3379.0,3346.0,6651.0,0.902,0.283,-0.146,0.292
7098707,3369.0,3316.0,6657.0,0.902,0.283,-0.146,0.292
7098723,3437.0,3400.0,6609.0,0.902,0.283,-0.146,0.292
7098739,3457.0,3370.0,6577.0,0.902,0.283,-0.146,0.292
7098755,3483.0,3390.0,6595.0,0.902,0.283,-0.145,0.292
7098771,3491.0,3506.0,6601.0,0.902,0.283,-0.145,0.292
7098787,3413.0,3516.0,6625.0,0.902,0.283,-0.145,0.292
7098813,3379.0,3510.0,6601.0,0.902,0.283,-0.145,0.293
7098829,3349.0,3496.0,6589.0,0.902,0.283,-0.144,0.293
7098845,3289.0,3534.0,6555.0,0.902,0.283,-0.144,0.293
7098861,3297.0,3542.0,6583.0,0.902,0.284,-0.144,0.293
7098877,3313.0,3538.0,6615.0,0.902,0.284,-0.143,0.293
7098893,3335.0,3514.0,6671.0,0.902,0.284,-0.143,0.293
7098919,3325.0,3582.0,6693.0,0.902,0.284,-0.143,0.294
7098935,3237.0,3518.0,6643.0,0.902,0.284,-0.143,0.294
7098951,3309.0,3498.0,6629.0,0.902,0.284,-0.142,0.294
7098967,3291.0,3462.0,6601.0,0.902,0.284,-0.142,0.294
7098983,3343.0,3534.0,6567.0,0.902,0.284,-0.142,0.294
7098999,3355.0,3538.0,6569.0,0.901,0.284,-0.142,0.294
7099025,3385.0,3516.0,6571.0,0.901,0.284,-0.142,0.294
7099041,3349.0,3486.0,6543.0,0.901,0.284,-0.142,0.294
7099057,3349.0,3510.0,6633.0,0.901,0.284,-0.142,0.295
7099073,3277.0,3460.0,6647.0,0.901,0.284,-0.141,0.295
7099089,3281.0,3482.0,6641.0,0.901,0.284,-0.141,0.295
7099105,3265.0,3520.0,6629.0,0.901,0.284,-0.141,0.295
7099131,3285.0,3554.0,6625.0,0.901,0.284,-0.141,0.295
7099147,3315.0,3510.0,6621.0,0.901,0.284,-0.141,0.295
7099163,3347.0,3572.0,6621.0,0.901,0.284,-0.141,0.296
7099179,3421.0,3524.0,6571.0,0.901,0.284,-0.141,0.296
7099195,3359.0,3498.0,6567.0,0.901,0.284,-0.141,0.296
7099211,3347.0,3508.0,6607.0,0.901,0.284,-0.141,0.296
7099237,3381.0,3532.0,6653.0,0.901,0.284,-0.141,0.296
7099253,3409.0,3544.0,6583.0,0.901,0.284,-0.141,0.297
7099269,3387.0,3502.0,6631.0,0.901,0.284,-0.141,0.297
7099285,3343.0,3560.0,6605.0,0.901,0.284,-0.141,0.297
7099301,3393.0,3586.0,6593.0,0.901,0.284,-0.141,0.297
7099327,3349.0,3538.0,6605.0,0.901,0.284,-0.141,0.297
7099343,3317.0,3510.0,6621.0,0.901,0.284,-0.141,0.297
7099359,3331.0,3538.0,6611.0,0.901,0.284,-0.141,0.297
7099375,3331.0,3500.0,6627.0,0.901,0.284,-0.141,0.297
7099391,3401.0,3564.0,6543.0,0.901,0.284,-0.141,0.297
7099407,3353.0,3482.0,6605.0,0.901,0.284,-0.141,0.298
7099433,3395.0,3514.0,6601.0,0.9,0.284,-0.141,0.298
7099449,3349.0,3492.0,6631.0,0.9,0.284,-0.141,0.298
7099466,3343.0,3536.0,6619.0,0.9,0.284,-0.141,0.298
7099483,3307.0,3532.0,6669.0,0.9,0.284,-0.141,0.298
7099500,3275.0,3520.0,6691.0,0.9,0.284,-0.141,0.298
7099516,3213.0,3546.0,6665.0,0.9,0.284,-0.141,0.298
7099532,3279.0,3562.0,6633.0,0.9,0.283,-0.141,0.298
7099548,3329.0,3536.0,6571.0,0.9,0.283,-0.142,0.298
7099565,3405.0,3530.0,6599.0,0.9,0.283,-0.142,0.298
7099591,3397.0,3504.0,6567.0,0.9,0.283,-0.142,0.298
7099607,3483.0,3510.0,6523.0,0.9,0.283,-0.142,0.298
7099623,3425.0,3446.0,6585.0,0.9,0.283,-0.142,0.299
7099639,3429.0,3470.0,6583.0,0.9,0.283,-0.142,0.299
7099655,3445.0,3426.0,6615.0,0.9,0.283,-0.142,0.299
7099681,3465.0,3410.0,6593.0,0.9,0.283,-0.142,0.299
7099697,3409.0,3452.0,6607.0,0.9,0.283,-0.142,0.299
7099714,3359.0,3468.0,6619.0,0.9,0.283,-0.142,0.299
7099731,3341.0,3460.0,6631.0,0.9,0.283,-0.142,0.3
7099747,3385.0,3570.0,6631.0,0.9,0.283,-0.142,0.3
7099763,3319.0,3498.0,6621.0,0.9,0.283,-0.142,0.3
7099780,3365.0,3534.0,6605.0,0.9,0.283,-0.142,0.3
7099797,3395.0,3528.0,6593.0,0.9,0.283,-0.142,0.301
7099814,3365.0,3542.0,6593.0,0.9,0.283,-0.142,0.301
7099840,3397.0,3518.0,6617.0,0.899,0.283,-0.142,0.301
7099857,3431.0,3528.0,6643.0,0.899,0.283,-0.142,0.301
7099873,3453.0,3476.0,6625.0,0.899,0.283,-0.142,0.301
7099889,3401.0,3496.0,6589.0,0.899,0.283,-0.142,0.301
7099906,3389.0,3488.0,6587.0,0.899,0.283,-0.142,0.301
7099922,3361.0,3574.0,6613.0,0.899,0.283,-0.141,0.302
7099938,3353.0,3452.0,6611.0,0.899,0.283,-0.141,0.302
7099964,3341.0,3516.0,6619.0,0.899,0.283,-0.141,0.302
7099980,3393.0,3528.0,6621.0,0.899,0.283,-0.141,0.302
7099997,3389.0,3514.0,6617.0,0.899,0.283,-0.141,0.302
7100013,3379.0,3456.0,6613.0,0.899,0.283,-0.141,0.302
7100029,3419.0,3512.0,6621.0,0.899,0.283,-0.141,0.302
7100046,3411.0,3492.0,6609.0,0.899,0.283,-0.141,0.303
7100063,3411.0,3494.0,6613.0,0.899,0.283,-0.141,0.303
7100079,3329.0,3522.0,6647.0,0.899,0.283,-0.141,0.303
7100105,3317.0,3508.0,6619.0,0.899,0.283,-0.141,0.303
7100122,3353.0,3506.0,6651.0,0.899,0.283,-0.141,0.303
7100139,3347.0,3534.0,6579.0,0.899,0.283,-0.141,0.303
7100155,3371.0,3530.0,6605.0,0.899,0.283,-0.141,0.303
7100172,3385.0,3554.0,6565.0,0.899,0.283,-0.141,0.303
7100188,3377.0,3512.0,6559.0,0.899,0.283,-0.141,0.303
7100205,3397.0,3512.0,6577.0,0.899,0.283,-0.141,0.303
7100221,3339.0,3470.0,6633.0,0.899,0.283,-0.141,0.303
7100247,3395.0,3426.0,6621.0,0.899,0.283,-0.141,0.304
7100264,3389.0,3490.0,6599.0,0.899,0.283,-0.141,0.304
7100280,3419.0,3448.0,6607.0,0.899,0.283,-0.141,0.304
7100297,3349.0,3450.0,6619.0,0.899,0.283,-0.141,0.304
7100314,3327.0,3502.0,6597.0,0.899,0.283,-0.141,0.304
7100330,3407.0,3478.0,6613.0,0.899,0.283,-0.141,0.304
7100346,3381.0,3440.0,6651.0,0.899,0.283,-0.141,0.304
7100362,3395.0,3464.0,6565.0,0.899,0.283,-0.141,0.304
7100389,3387.0,3528.0,6589.0,0.899,0.283,-0.142,0.304
7100406,3411.0,3508.0,6589.0,0.899,0.283,-0.142,0.305
7100423,3431.0,3464.0,6619.0,0.899,0.282,-0.142,0.305
7100439,3445.0,3512.0,6623.0,0.898,0.282,-0.142,0.305
7100455,3401.0,3458.0,6615.0,0.898,0.282,-0.142,0.305
7100471,3399.0,3526.0,6601.0,0.898,0.282,-0.142,0.305
7100487,3391.0,3454.0,6643.0,0.898,0.282,-0.141,0.305
7100503,3351.0,3500.0,6623.0,0.898,0.282,-0.141,0.305
7100530,3379.0,3476.0,6595.0,0.898,0.282,-0.141,0.305
7100547,3381.0,3496.0,6599.0,0.898,0.282,-0.141,0.306
7100563,3405.0,3500.0,6617.0,0.898,0.282,-0.141,0.306
7100580,3355.0,3488.0,6611.0,0.898,0.282,-0.141,0.306
7100596,3387.0,3468.0,6599.0,0.898,0.282,-0.141,0.306
7100612,3375.0,3522.0,6627.0,0.898,0.282,-0.141,0.306
7100628,3383.0,3470.0,6629.0,0.898,0.282,-0.141,0.306
7100654,3435.0,3462.0,6567.0,0.898,0.282,-0.141,0.306
7100671,3397.0,3438.0,6605.0,0.898,0.282,-0.141,0.306
7100687,3441.0,3458.0,6671.0,0.898,0.282,-0.141,0.306
7100704,3381.0,3474.0,6693.0,0.898,0.282,-0.141,0.306
7100721,3397.0,3460.0,6627.0,0.898,0.282,-0.141,0.306
7100737,3347.0,3504.0,6597.0,0.898,0.282,-0.141,0.306
7100753,3361.0,3448.0,6597.0,0.898,0.282,-0.141,0.307
7100769,3429.0,3524.0,6577.0,0.898,0.282,-0.141,0.307
7100796,3361.0,3514.0,6573.0,0.898,0.282,-0.141,0.307
7100813,3379.0,3496.0,6545.0,0.898,0.282,-0.141,0.307
7100829,3467.0,3476.0,6585.0,0.898,0.282,-0.141,0.307
7100845,3439.0,3454.0,6597.0,0.898,0.282,-0.142,0.307
7100861,3429.0,3390.0,6615.0,0.898,0.281,-0.142,0.307
7100877,3413.0,3404.0,6631.0,0.898,0.281,-0.142,0.307
7100893,3399.0,3450.0,6681.0,0.898,0.281,-0.142,0.307
7100919,3397.0,3450.0,6623.0,0.898,0.281,-0.142,0.307
7100935,3371.0,3460.0,6633.0,0.898,0.282,-0.142,0.307
7100951,3403.0,3488.0,6629.0,0.898,0.281,-0.142,0.307
7100967,3389.0,3448.0,6591.0,0.898,0.282,-0.142,0.308
7100984,3401.0,3512.0,6645.0,0.898,0.282,-0.142,0.308
7101000,3423.0,3486.0,6603.0,0.898,0.282,-0.142,0.308
7101026,3445.0,3504.0,6551.0,0.898,0.282,-0.142,0.308
7101042,3457.0,3468.0,6617.0,0.898,0.281,-0.142,0.308
7101058,3441.0,3458.0,6621.0,0.898,0.281,-0.142,0.308
7101074,3415.0,3418.0,6607.0,0.898,0.281,-0.142,0.308
7101090,3457.0,3476.0,6567.0,0.898,0.281,-0.142,0.308
7101106,3435.0,3440.0,6595.0,0.898,0.281,-0.142,0.308
7101132,3379.0,3454.0,6637.0,0.898,0.281,-0.141,0.309
7101148,3391.0,3474.0,6607.0,0.897,0.281,-0.141,0.309
7101164,3395.0,3476.0,6599.0,0.897,0.281,-0.141,0.309
7101180,3421.0,3508.0,6595.0,0.897,0.282,-0.141,0.309
7101196,3449.0,3424.0,6637.0,0.897,0.282,-0.141,0.309
7101212,3413.0,3468.0,6615.0,0.897,0.282,-0.141,0.309
7101238,3417.0,3448.0,6595.0,0.897,0.282,-0.14,0.31
7101254,3391.0,3502.0,6575.0,0.897,0.282,-0.14,0.31
7101270,3435.0,3444.0,6603.0,0.897,0.282,-0.14,0.31
7101286,3349.0,3430.0,6639.0,0.897,0.282,-0.139,0.31
7101302,3359.0,3520.0,6653.0,0.897,0.282,-0.139,0.31
7101320,3383.0,3486.0,6709.0,0.897,0.282,-0.139,0.31
7101336,3373.0,3502.0,6673.0,0.897,0.282,-0.139,0.31
7101362,3335.0,3478.0,6627.0,0.897,0.282,-0.138,0.311
7101378,3353.0,3516.0,6581.0,0.897,0.282,-0.138,0.311
7101394,3321.0,3514.0,6569.0,0.897,0.282,-0.138,0.311
7101410,3395.0,3546.0,6595.0,0.897,0.282,-0.138,0.311
7101426,3393.0,3484.0,6565.0,0.897,0.282,-0.138,0.311
7101442,3399.0,3496.0,6553.0,0.897,0.282,-0.138,0.311
7101468,3393.0,3426.0,6575.0,0.897,0.282,-0.138,0.311
7101484,3431.0,3382.0,6617.0,0.897,0.282,-0.138,0.311
7101500,3353.0,3450.0,6633.0,0.897,0.282,-0.138,0.311
7101516,3323.0,3420.0,6601.0,0.897,0.282,-0.137,0.312
7101532,3331.0,3528.0,6677.0,0.897,0.282,-0.137,0.312
7101548,3321.0,3462.0,6669.0,0.897,0.282,-0.137,0.312
7101574,3375.0,3488.0,6639.0,0.897,0.282,-0.137,0.312
7101590,3339.0,3530.0,6637.0,0.897,0.282,-0.137,0.312
7101606,3337.0,3500.0,6613.0,0.897,0.282,-0.137,0.312
7101622,3341.0,3544.0,6613.0,0.897,0.282,-0.137,0.312
7101638,3371.0,3480.0,6645.0,0.897,0.282,-0.137,0.313
7101654,3349.0,3454.0,6615.0,0.897,0.282,-0.137,0.313
7101680,3393.0,3482.0,6667.0,0.897,0.282,-0.137,0.313
7101696,3413.0,3530.0,6677.0,0.897,0.282,-0.136,0.313
7101712,3383.0,3502.0,6641.0,0.897,0.282,-0.136,0.313
7101728,3405.0,3476.0,6605.0,0.897,0.282,-0.136,0.313
7101744,3345.0,3496.0,6607.0,0.897,0.282,-0.136,0.313
7101760,3357.0,3488.0,6649.0,0.897,0.282,-0.136,0.313
7101787,3335.0,3478.0,6625.0,0.897,0.282,-0.136,0.313
7101805,3363.0,3450.0,6625.0,0.897,0.282,-0.136,0.314
7101823,3321.0,3492.0,6595.0,0.897,0.282,-0.136,0.314
7101839,3365.0,3460.0,6659.0,0.897,0.282,-0.135,0.314
7101856,3345.0,3538.0,6627.0,0.897,0.282,-0.135,0.314
7101872,3401.0,3518.0,6619.0,0.897,0.282,-0.135,0.314
7101889,3403.0,3464.0,6615.0,0.897,0.282,-0.135,0.314
7101906,3389.0,3536.0,6631.0,0.897,0.282,-0.135,0.314
7101922,3341.0,3468.0,6655.0,0.897,0.282,-0.135,0.314
7101938,3351.0,3468.0,6709.0,0.897,0.282,-0.134,0.314
7101955,3285.0,3402.0,6735.0,0.896,0.282,-0.134,0.314
7101981,3327.0,3482.0,6741.0,0.896,0.282,-0.134,0.314
7101997,3241.0,3478.0,6617.0,0.896,0.282,-0.134,0.315
7102013,3325.0,3516.0,6617.0,0.896,0.282,-0.134,0.315
7102029,3371.0,3582.0,6585.0,0.896,0.282,-0.134,0.315
7102045,3359.0,3538.0,6565.0,0.896,0.282,-0.134,0.315
7102061,3399.0,3506.0,6551.0,0.896,0.282,-0.134,0.315
7102087,3375.0,3518.0,6595.0,0.896,0.282,-0.134,0.315
7102103,3359.0,3460.0,6573.0,0.896,0.282,-0.134,0.315
7102119,3383.0,3456.0,6623.0,0.896,0.282,-0.134,0.315
7102135,3341.0,3514.0,6655.0,0.896,0.282,-0.134,0.315
7102151,3323.0,3500.0,6689.0,0.896,0.282,-0.133,0.316
7102167,3363.0,3498.0,6719.0,0.896,0.282,-0.133,0.316
7102193,3323.0,3470.0,6665.0,0.896,0.282,-0.133,0.316
7102209,3287.0,3500.0,6651.0,0.896,0.282,-0.133,0.316
7102225,3275.0,3520.0,6645.0,0.896,0.282,-0.133,0.316
7102241,3365.0,3558.0,6659.0,0.896,0.282,-0.133,0.316
7102257,3327.0,3512.0,6615.0,0.896,0.282,-0.133,0.316
7102283,3383.0,3530.0,6599.0,0.896,0.282,-0.133,0.316
7102299,3347.0,3482.0,6583.0,0.896,0.282,-0.133,0.316
7102315,3349.0,3490.0,6627.0,0.896,0.282,-0.133,0.317
7102331,3303.0,3520.0,6629.0,0.896,0.282,-0.133,0.317
7102347,3327.0,3484.0,6643.0,0.896,0.282,-0.133,0.317
7102363,3333.0,3508.0,6615.0,0.896,0.282,-0.133,0.317
7102389,3309.0,3492.0,6671.0,0.896,0.282,-0.133,0.317
7102405,3357.0,3500.0,6637.0,0.896,0.282,-0.133,0.317
7102421,3317.0,3490.0,6625.0,0.896,0.282,-0.133,0.317
7102437,3343.0,3530.0,6587.0,0.896,0.282,-0.133,0.317
7102453,3307.0,3494.0,6663.0,0.896,0.282,-0.133,0.317
7102469,3337.0,3468.0,6647.0,0.896,0.282,-0.133,0.317
7102486,3361.0,3494.0,6659.0,0.896,0.282,-0.133,0.318
7102512,3349.0,3482.0,6561.0,0.896,0.282,-0.133,0.318
7102528,3331.0,3548.0,6633.0,0.896,0.282,-0.132,0.318
7102544,3357.0,3476.0,6667.0,0.895,0.282,-0.132,0.318
7102560,3357.0,3522.0,6633.0,0.895,0.282,-0.132,0.318
7102576,3399.0,3594.0,6651.0,0.895,0.282,-0.132,0.318
7102592,3311.0,3598.0,6725.0,0.895,0.282,-0.132,0.318
7102618,3255.0,3548.0,6713.0,0.895,0.282,-0.132,0.318
7102634,3295.0,3498.0,6645.0,0.895,0.282,-0.132,0.318
7102650,3299.0,3546.0,6651.0,0.895,0.282,-0.132,0.318
7102666,3307.0,3494.0,6637.0,0.895,0.282,-0.132,0.318
7102683,3391.0,3584.0,6617.0,0.895,0.282,-0.132,0.318
7102699,3401.0,3476.0,6613.0,0.895,0.282,-0.132,0.318
7102725,3363.0,3520.0,6557.0,0.895,0.282,-0.132,0.318
7102741,3311.0,3432.0,6629.0,0.895,0.282,-0.132,0.318
7102757,3343.0,3448.0,6637.0,0.895,0.282,-0.132,0.319
7102773,3377.0,3478.0,6643.0,0.895,0.282,-0.132,0.319
7102789,3393.0,3496.0,6689.0,0.895,0.282,-0.132,0.319
7102805,3315.0,3486.0,6641.0,0.895,0.282,-0.132,0.319
7102831,3349.0,3522.0,6685.0,0.895,0.282,-0.132,0.319
7102847,3255.0,3534.0,6615.0,0.895,0.282,-0.132,0.319
7102863,3229.0,3486.0,6631.0,0.895,0.282,-0.132,0.319
7102879,3273.0,3478.0,6621.0,0.895,0.282,-0.132,0.319
7102895,3269.0,3544.0,6685.0,0.895,0.282,-0.132,0.319
7102911,3333.0,3474.0,6723.0,0.895,0.282,-0.132,0.32
7102937,3391.0,3534.0,6663.0,0.895,0.282,-0.132,0.32
7102953,3437.0,3514.0,6625.0,0.895,0.282,-0.132,0.32
7102969,3407.0,3480.0,6611.0,0.895,0.282,-0.132,0.32
7102985,3329.0,3474.0,6579.0,0.895,0.282,-0.132,0.32
7103001,3319.0,3516.0,6613.0,0.895,0.282,-0.132,0.32
7103017,3303.0,3512.0,6605.0,0.895,0.282,-0.132,0.32
7103043,3329.0,3518.0,6669.0,0.895,0.282,-0.132,0.32
7103059,3379.0,3472.0,6665.0,0.895,0.282,-0.132,0.32
7103075,3361.0,3500.0,6623.0,0.895,0.282,-0.132,0.32
7103091,3299.0,3520.0,6637.0,0.895,0.282,-0.132,0.32
7103107,3349.0,3490.0,6671.0,0.895,0.282,-0.132,0.32
7103123,3291.0,3484.0,6647.0,0.895,0.282,-0.132,0.32
7103149,3335.0,3452.0,6631.0,0.895,0.282,-0.132,0.32
7103165,3381.0,3466.0,6673.0,0.895,0.282,-0.132,0.32
7103181,3327.0,3446.0,6665.0,0.895,0.282,-0.133,0.32
7103197,3377.0,3526.0,6621.0,0.895,0.282,-0.133,0.32
7103213,3339.0,3474.0,6565.0,0.895,0.282,-0.133,0.321
7103229,3311.0,3440.0,6613.0,0.894,0.282,-0.133,0.321
7103255,3355.0,3504.0,6639.0,0.894,0.282,-0.133,0.321
7103271,3337.0,3570.0,6609.0,0.894,0.282,-0.133,0.321
7103287,3295.0,3550.0,6721.0,0.894,0.282,-0.133,0.321
7103303,3311.0,3490.0,6609.0,0.894,0.282,-0.133,0.321
7103319,3307.0,3502.0,6623.0,0.894,0.282,-0.133,0.321
7103345,3247.0,3494.0,6589.0,0.894,0.282,-0.133,0.321
7103361,3315.0,3500.0,6603.0,0.894,0.282,-0.133,0.321
7103377,3409.0,3502.0,6541.0,0.894,0.282,-0.134,0.321
7103393,3401.0,3480.0,6595.0,0.894,0.282,-0.134,0.321
7103409,3385.0,3482.0,6629.0,0.894,0.282,-0.134,0.321
7103425,3349.0,3428.0,6589.0,0.894,0.282,-0.134,0.321
7103451,3441.0,3388.0,6643.0,0.894,0.282,-0.134,0.321
7103467,3441.0,3452.0,6649.0,0.894,0.281,-0.134,0.321
7103483,3383.0,3366.0,6663.0,0.894,0.281,-0.134,0.321
7103499,3387.0,3404.0,6633.0,0.894,0.281,-0.134,0.321
7103515,3327.0,3512.0,6621.0,0.894,0.282,-0.134,0.321
7103531,3315.0,3454.0,6659.0,0.894,0.282,-0.134,0.321
7103557,3275.0,3442.0,6597.0,0.894,0.282,-0.135,0.322
7103573,3301.0,3558.0,6601.0,0.894,0.282,-0.135,0.322
7103589,3343.0,3490.0,6697.0,0.894,0.282,-0.135,0.322
7103605,3387.0,3490.0,6639.0,0.894,0.282,-0.135,0.322
7103621,3411.0,3530.0,6599.0,0.893,0.282,-0.136,0.322
7103637,3459.0,3484.0,6595.0,0.893,0.282,-0.136,0.322
7103663,3439.0,3466.0,6587.0,0.893,0.282,-0.136,0.322
7103679,3463.0,3522.0,6691.0,0.893,0.282,-0.136,0.322
7103695,3439.0,3468.0,6583.0,0.893,0.282,-0.137,0.322
7103711,3463.0,3508.0,6597.0,0.893,0.282,-0.137,0.322
7103727,3455.0,3500.0,6539.0,0.893,0.282,-0.137,0.323
7103743,3475.0,3542.0,6637.0,0.893,0.282,-0.136,0.323
7103769,3415.0,3480.0,6617.0,0.893,0.282,-0.136,0.323
7103785,3479.0,3468.0,6615.0,0.893,0.282,-0.136,0.323
7103801,3423.0,3438.0,6621.0,0.893,0.282,-0.136,0.323
7103818,3421.0,3450.0,6615.0,0.893,0.282,-0.136,0.323
7103834,3425.0,3494.0,6601.0,0.893,0.282,-0.136,0.323
7103850,3341.0,3460.0,6621.0,0.893,0.282,-0.136,0.323
7103867,3329.0,3524.0,6629.0,0.893,0.282,-0.136,0.323
7103893,3399.0,3446.0,6669.0,0.893,0.282,-0.136,0.323
7103909,3431.0,3434.0,6615.0,0.893,0.282,-0.136,0.323
7103925,3349.0,3474.0,6581.0,0.893,0.282,-0.136,0.323
7103941,3361.0,3500.0,6717.0,0.893,0.282,-0.136,0.324
7103957,3271.0,3560.0,6707.0,0.893,0.282,-0.136,0.324
7103973,3315.0,3426.0,6723.0,0.893,0.282,-0.137,0.324
7103999,3423.0,3456.0,6611.0,0.893,0.282,-0.137,0.324
7104015,3497.0,3456.0,6533.0,0.892,0.282,-0.137,0.324
7104031,3571.0,3422.0,6501.0,0.892,0.282,-0.138,0.324
7104047,3577.0,3478.0,6489.0,0.892,0.282,-0.138,0.324
7104063,3481.0,3392.0,6549.0,0.892,0.282,-0.137,0.324
7104079,3451.0,3386.0,6599.0,0.892,0.282,-0.137,0.325
7104105,3413.0,3422.0,6613.0,0.892,0.282,-0.137,0.325
7104121,3399.0,3434.0,6571.0,0.892,0.282,-0.136,0.325
7104137,3333.0,3472.0,6631.0,0.892,0.282,-0.136,0.325
7104153,3361.0,3490.0,6675.0,0.892,0.282,-0.136,0.325
7104169,3387.0,3536.0,6711.0,0.892,0.282,-0.136,0.326
7104185,3357.0,3512.0,6649.0,0.892,0.282,-0.136,0.326
7104211,3319.0,3504.0,6623.0,0.892,0.282,-0.136,0.326
7104227,3367.0,3520.0,6639.0,0.892,0.282,-0.136,0.326
7104243,3403.0,3468.0,6619.0,0.892,0.282,-0.136,0.326
7104259,3459.0,3430.0,6603.0,0.892,0.282,-0.136,0.326
7104275,3505.0,3444.0,6559.0,0.892,0.282,-0.137,0.326
7104291,3467.0,3422.0,6557.0,0.892,0.282,-0.137,0.326
7104317,3491.0,3366.0,6665.0,0.892,0.282,-0.137,0.326
7104334,3455.0,3410.0,6669.0,0.892,0.282,-0.137,0.326
7104351,3505.0,3438.0,6561.0,0.892,0.282,-0.137,0.326
7104368,3471.0,3460.0,6559.0,0.892,0.282,-0.137,0.326
7104384,3455.0,3394.0,6625.0,0.892,0.282,-0.137,0.326
7104400,3383.0,3394.0,6595.0,0.892,0.282,-0.137,0.326
7104417,3433.0,3478.0,6571.0,0.892,0.282,-0.137,0.327
7104434,3403.0,3456.0,6615.0,0.892,0.282,-0.137,0.327
7104451,3455.0,3452.0,6661.0,0.892,0.282,-0.137,0.327
7104468,3407.0,3438.0,6609.0,0.892,0.282,-0.136,0.327
7104494,3393.0,3484.0,6601.0,0.892,0.282,-0.136,0.327
7104510,3357.0,3414.0,6587.0,0.892,0.282,-0.136,0.327
7104526,3445.0,3466.0,6635.0,0.892,0.282,-0.136,0.327
7104542,3473.0,3524.0,6617.0,0.892,0.282,-0.136,0.327
7104558,3429.0,3446.0,6585.0,0.892,0.282,-0.136,0.327
7104584,3423.0,3442.0,6635.0,0.892,0.282,-0.136,0.327
7104601,3439.0,3458.0,6621.0,0.892,0.282,-0.136,0.327
7104618,3437.0,3414.0,6661.0,0.892,0.282,-0.135,0.328
7104634,3387.0,3422.0,6619.0,0.892,0.282,-0.135,0.328
7104651,3385.0,3502.0,6617.0,0.892,0.282,-0.135,0.328
7104668,3401.0,3422.0,6639.0,0.892,0.282,-0.135,0.328
7104684,3421.0,3468.0,6571.0,0.892,0.282,-0.135,0.328
7104701,3393.0,3496.0,6545.0,0.892,0.282,-0.135,0.328
7104718,3411.0,3490.0,6583.0,0.892,0.282,-0.135,0.328
7104734,3445.0,3490.0,6605.0,0.892,0.282,-0.135,0.328
7104760,3417.0,3462.0,6561.0,0.892,0.282,-0.135,0.328
7104776,3471.0,3438.0,6587.0,0.892,0.282,-0.135,0.328
7104792,3465.0,3400.0,6599.0,0.892,0.282,-0.135,0.328
7104808,3461.0,3402.0,6617.0,0.891,0.282,-0.135,0.328
7104824,3455.0,3424.0,6637.0,0.891,0.282,-0.135,0.328
7104840,3441.0,3428.0,6621.0,0.891,0.282,-0.135,0.328
7104866,3441.0,3474.0,6675.0,0.891,0.282,-0.135,0.328
7104883,3383.0,3476.0,6663.0,0.891,0.282,-0.135,0.329
7104900,3367.0,3480.0,6635.0,0.891,0.282,-0.135,0.329
7104917,3369.0,3480.0,6579.0,0.891,0.282,-0.135,0.329
7104934,3381.0,3508.0,6597.0,0.891,0.282,-0.135,0.329
7104950,3409.0,3500.0,6615.0,0.891,0.282,-0.135,0.329
7104967,3401.0,3462.0,6611.0,0.891,0.282,-0.135,0.329
7104984,3475.0,3424.0,6589.0,0.891,0.282,-0.135,0.329
7105001,3403.0,3454.0,6631.0,0.891,0.282,-0.135,0.329
7105018,3427.0,3468.0,6585.0,0.891,0.282,-0.135,0.329
7105044,3385.0,3450.0,6639.0,0.891,0.282,-0.135,0.329
7105060,3425.0,3434.0,6633.0,0.891,0.282,-0.134,0.329
7105076,3457.0,3430.0,6627.0,0.891,0.282,-0.134,0.329
7105092,3455.0,3478.0,6639.0,0.891,0.282,-0.134,0.329
7105108,3449.0,3396.0,6611.0,0.891,0.282,-0.134,0.329
7105124,3379.0,3454.0,6605.0,0.891,0.282,-0.134,0.329
7105150,3381.0,3448.0,6615.0,0.891,0.282,-0.134,0.329
7105166,3393.0,3448.0,6607.0,0.891,0.282,-0.134,0.329
7105183,3433.0,3452.0,6591.0,0.891,0.282,-0.134,0.329
7105200,3433.0,3446.0,6581.0,0.891,0.282,-0.134,0.33
7105217,3397.0,3436.0,6603.0,0.891,0.282,-0.134,0.33
7105234,3379.0,3538.0,6621.0,0.891,0.282,-0.134,0.33
7105251,3409.0,3470.0,6599.0,0.891,0.282,-0.134,0.33
7105268,3411.0,3404.0,6595.0,0.891,0.282,-0.134,0.33
7105284,3405.0,3454.0,6611.0,0.891,0.282,-0.134,0.33
7105301,3389.0,3504.0,6645.0,0.891,0.282,-0.134,0.33
7105327,3445.0,3492.0,6675.0,0.891,0.282,-0.134,0.33
7105343,3341.0,3418.0,6657.0,0.891,0.282,-0.134,0.33
7105359,3401.0,3436.0,6599.0,0.891,0.282,-0.134,0.33
7105376,3419.0,3474.0,6627.0,0.891,0.282,-0.134,0.33
7105392,3341.0,3458.0,6565.0,0.891,0.282,-0.134,0.33
7105408,3429.0,3496.0,6565.0,0.891,0.282,-0.134,0.33
7105424,3399.0,3486.0,6563.0,0.891,0.282,-0.134,0.331
7105450,3409.0,3484.0,6605.0,0.891,0.282,-0.133,0.331
7105467,3443.0,3416.0,6591.0,0.891,0.282,-0.134,0.331
7105484,3413.0,3416.0,6595.0,0.891,0.282,-0.133,0.331
7105501,3361.0,3446.0,6617.0,0.891,0.282,-0.133,0.331
7105517,3385.0,3486.0,6653.0,0.891,0.282,-0.133,0.331
7105534,3413.0,3466.0,6689.0,0.891,0.282,-0.133,0.331
7105551,3457.0,3416.0,6613.0,0.891,0.282,-0.133,0.331
7105567,3349.0,3464.0,6613.0,0.891,0.282,-0.133,0.331
7105584,3361.0,3488.0,6677.0,0.89,0.282,-0.133,0.331
7105601,3351.0,3476.0,6627.0,0.89,0.282,-0.133,0.331
7105627,3383.0,3458.0,6595.0,0.89,0.282,-0.133,0.331
7105643,3431.0,3462.0,6585.0,0.89,0.282,-0.133,0.332
7105659,3415.0,3498.0,6629.0,0.89,0.282,-0.133,0.332
7105675,3447.0,3426.0,6635.0,0.89,0.282,-0.133,0.332
7105691,3419.0,3416.0,6623.0,0.89,0.282,-0.133,0.332
7105707,3361.0,3460.0,6639.0,0.89,0.282,-0.133,0.332
7105734,3379.0,3456.0,6635.0,0.89,0.282,-0.133,0.332
7105750,3415.0,3456.0,6627.0,0.89,0.282,-0.133,0.332
7105767,3423.0,3506.0,6591.0,0.89,0.282,-0.133,0.332
7105783,3381.0,3424.0,6617.0,0.89,0.282,-0.133,0.332
7105799,3389.0,3480.0,6593.0,0.89,0.282,-0.133,0.332
7105815,3371.0,3416.0,6617.0,0.89,0.282,-0.133,0.332
7105831,3379.0,3426.0,6601.0,0.89,0.282,-0.133,0.332
7105857,3451.0,3450.0,6583.0,0.89,0.282,-0.133,0.332
7105873,3417.0,3500.0,6613.0,0.89,0.282,-0.133,0.332
7105889,3431.0,3432.0,6677.0,0.89,0.282,-0.133,0.332
7105905,3391.0,3486.0,6623.0,0.89,0.282,-0.133,0.332
7105921,3401.0,3476.0,6613.0,0.89,0.282,-0.133,0.332
7105937,3437.0,3500.0,6661.0,0.89,0.282,-0.133,0.332
7105964,3381.0,3464.0,6625.0,0.89,0.282,-0.132,0.332
7105980,3381.0,3466.0,6585.0,0.89,0.282,-0.132,0.332
7105996,3381.0,3464.0,6645.0,0.89,0.282,-0.132,0.332
7106012,3357.0,3526.0,6719.0,0.89,0.282,-0.132,0.333
7106028,3349.0,3470.0,6663.0,0.89,0.282,-0.132,0.333
7106044,3331.0,3494.0,6577.0,0.89,0.282,-0.132,0.333
7106070,3341.0,3472.0,6563.0,0.89,0.282,-0.132,0.333
7106086,3423.0,3434.0,6617.0,0.89,0.282,-0.132,0.333
7106102,3375.0,3458.0,6613.0,0.89,0.282,-0.132,0.333
7106118,3369.0,3484.0,6551.0,0.89,0.282,-0.132,0.333
7106134,3403.0,3468.0,6603.0,0.89,0.282,-0.132,0.333
7106150,3367.0,3454.0,6571.0,0.89,0.282,-0.132,0.333
7106177,3367.0,3454.0,6607.0,0.89,0.282,-0.132,0.333
7106193,3385.0,3434.0,6635.0,0.89,0.282,-0.132,0.333
7106209,3399.0,3402.0,6623.0,0.89,0.282,-0.132,0.333
7106225,3385.0,3464.0,6675.0,0.89,0.282,-0.132,0.333
7106241,3377.0,3434.0,6623.0,0.89,0.282,-0.132,0.333
7106257,3395.0,3454.0,6639.0,0.89,0.282,-0.132,0.333
7106283,3325.0,3444.0,6599.0,0.89,0.282,-0.132,0.333
7106299,3293.0,3446.0,6585.0,0.89,0.282,-0.132,0.333
7106315,3369.0,3472.0,6611.0,0.89,0.282,-0.132,0.333
7106332,3379.0,3494.0,6603.0,0.89,0.282,-0.132,0.333
7106349,3435.0,3486.0,6643.0,0.89,0.282,-0.133,0.333
7106365,3417.0,3460.0,6643.0,0.89,0.282,-0.133,0.333
7106381,3449.0,3444.0,6607.0,0.89,0.282,-0.133,0.333
7106407,3373.0,3402.0,6579.0,0.89,0.282,-0.133,0.333
7106423,3409.0,3502.0,6637.0,0.89,0.282,-0.133,0.333
7106439,3403.0,3444.0,6641.0,0.89,0.282,-0.133,0.333
7106455,3379.0,3480.0,6615.0,0.89,0.282,-0.133,0.333
7106471,3393.0,3444.0,6587.0,0.89,0.282,-0.133,0.334
