timestamp,ax,ay,az,q0,q1,q2,q3
4616132,8041.0,1486.0,-583.0,0.486,0.588,-0.445,0.468
4616148,8001.0,1520.0,-403.0,0.487,0.588,-0.446,0.468
4616164,7841.0,1356.0,-473.0,0.487,0.587,-0.446,0.467
4616181,8083.0,1556.0,-581.0,0.488,0.587,-0.447,0.467
4616198,8011.0,1470.0,-631.0,0.489,0.586,-0.447,0.466
4616215,8007.0,1490.0,-583.0,0.489,0.586,-0.448,0.466
4616232,8017.0,1420.0,-541.0,0.49,0.585,-0.449,0.465
4616249,8133.0,1418.0,-585.0,0.491,0.584,-0.45,0.464
4616266,8105.0,1434.0,-643.0,0.492,0.583,-0.451,0.464
4616282,8075.0,1432.0,-625.0,0.493,0.582,-0.452,0.463
4616309,8059.0,1322.0,-581.0,0.495,0.581,-0.452,0.462
4616325,8101.0,1358.0,-591.0,0.496,0.579,-0.453,0.462
4616341,8121.0,1310.0,-623.0,0.497,0.578,-0.454,0.461
4616357,8063.0,1414.0,-577.0,0.499,0.577,-0.454,0.461
4616373,7935.0,1350.0,-553.0,0.5,0.576,-0.455,0.46
4616389,7773.0,1280.0,-883.0,0.501,0.574,-0.456,0.459
4616415,8095.0,1334.0,-707.0,0.503,0.573,-0.457,0.459
4616433,8203.0,1446.0,-639.0,0.505,0.571,-0.458,0.458
4616450,8039.0,1394.0,-623.0,0.506,0.57,-0.459,0.457
4616466,8051.0,1286.0,-497.0,0.508,0.568,-0.46,0.457
4616482,8067.0,1364.0,-469.0,0.509,0.566,-0.46,0.456
4616498,8133.0,1400.0,-579.0,0.511,0.565,-0.461,0.455
4616514,8025.0,1424.0,-559.0,0.512,0.564,-0.462,0.455
4616531,8089.0,1338.0,-561.0,0.513,0.562,-0.463,0.454
4616557,8045.0,1368.0,-575.0,0.514,0.561,-0.464,0.454
4616574,8055.0,1374.0,-603.0,0.515,0.56,-0.464,0.453
4616591,8007.0,1334.0,-477.0,0.516,0.559,-0.465,0.453
4616608,8003.0,1346.0,-583.0,0.517,0.558,-0.466,0.452
4616625,8031.0,1340.0,-585.0,0.517,0.557,-0.466,0.452
4616642,8011.0,1318.0,-567.0,0.518,0.557,-0.467,0.452
4616658,8029.0,1338.0,-571.0,0.519,0.556,-0.467,0.452
4616675,7999.0,1286.0,-495.0,0.519,0.555,-0.467,0.452
4616691,8061.0,1294.0,-591.0,0.519,0.555,-0.467,0.452
4616708,8005.0,1310.0,-539.0,0.519,0.555,-0.467,0.452
4616725,8089.0,1290.0,-565.0,0.519,0.555,-0.467,0.452
4616742,8047.0,1256.0,-595.0,0.519,0.555,-0.467,0.452
4616769,8061.0,1274.0,-577.0,0.519,0.555,-0.467,0.452
4616785,7985.0,1440.0,-467.0,0.519,0.555,-0.467,0.452
4616801,8105.0,1288.0,-567.0,0.519,0.556,-0.466,0.453
4616817,8051.0,1314.0,-655.0,0.518,0.556,-0.466,0.453
4616833,8025.0,1330.0,-681.0,0.518,0.556,-0.466,0.453
4616849,8049.0,1336.0,-631.0,0.517,0.557,-0.466,0.453
4616875,7985.0,1480.0,-519.0,0.517,0.557,-0.466,0.453
4616891,8003.0,1318.0,-589.0,0.516,0.558,-0.466,0.453
4616907,7971.0,1300.0,-553.0,0.516,0.558,-0.465,0.453
4616923,8063.0,1340.0,-527.0,0.515,0.559,-0.465,0.454
4616939,8003.0,1384.0,-535.0,0.515,0.56,-0.465,0.454
4616955,8009.0,1338.0,-569.0,0.514,0.56,-0.464,0.454
4616981,7907.0,1022.0,-303.0,0.514,0.561,-0.464,0.454
4616997,8109.0,1298.0,-509.0,0.513,0.562,-0.464,0.454
4617014,8037.0,1316.0,-599.0,0.512,0.562,-0.464,0.455
4617030,8073.0,1390.0,-557.0,0.511,0.563,-0.463,0.455
4617046,8057.0,1370.0,-547.0,0.511,0.564,-0.463,0.455
4617063,7985.0,1394.0,-467.0,0.51,0.565,-0.462,0.455
4617080,8013.0,1304.0,-491.0,0.509,0.566,-0.462,0.455
4617097,8177.0,1372.0,-641.0,0.508,0.567,-0.462,0.455
4617123,8121.0,1516.0,-591.0,0.508,0.567,-0.462,0.455
4617139,8091.0,1318.0,-529.0,0.507,0.568,-0.461,0.455
4617155,8133.0,1276.0,-591.0,0.507,0.569,-0.461,0.455
4617172,8073.0,1392.0,-599.0,0.506,0.569,-0.461,0.456
4617188,8005.0,1382.0,-533.0,0.505,0.57,-0.46,0.456
4617204,8011.0,1340.0,-513.0,0.505,0.57,-0.46,0.456
4617220,8037.0,1320.0,-599.0,0.504,0.571,-0.46,0.456
4617246,7871.0,1072.0,-341.0,0.504,0.571,-0.46,0.456
4617263,8099.0,1442.0,-479.0,0.504,0.572,-0.459,0.457
4617280,8033.0,1460.0,-521.0,0.503,0.572,-0.459,0.457
4617297,7969.0,1352.0,-507.0,0.503,0.572,-0.459,0.457
4617313,8065.0,1432.0,-545.0,0.503,0.573,-0.459,0.457
4617330,8031.0,1420.0,-515.0,0.502,0.573,-0.459,0.457
4617347,8071.0,1386.0,-485.0,0.502,0.573,-0.459,0.457
4617363,8147.0,1444.0,-557.0,0.502,0.573,-0.459,0.457
4617380,8171.0,1446.0,-601.0,0.502,0.572,-0.46,0.457
4617406,8105.0,1394.0,-583.0,0.502,0.572,-0.46,0.457
4617423,8105.0,1416.0,-509.0,0.503,0.572,-0.46,0.457
4617439,8039.0,1388.0,-483.0,0.503,0.572,-0.461,0.456
4617455,8091.0,1370.0,-571.0,0.503,0.571,-0.461,0.456
4617472,8111.0,1334.0,-605.0,0.503,0.571,-0.461,0.456
4617488,8015.0,1378.0,-561.0,0.503,0.571,-0.462,0.456
4617504,8033.0,1366.0,-529.0,0.504,0.57,-0.462,0.455
4617521,7999.0,1152.0,-413.0,0.504,0.57,-0.463,0.455
4617547,8103.0,1352.0,-645.0,0.504,0.57,-0.463,0.455
4617564,8053.0,1396.0,-537.0,0.505,0.569,-0.463,0.455
4617581,8035.0,1384.0,-633.0,0.505,0.569,-0.464,0.455
4617597,8061.0,1324.0,-631.0,0.505,0.568,-0.464,0.455
4617613,8135.0,1306.0,-647.0,0.505,0.568,-0.464,0.455
4617629,8061.0,1362.0,-589.0,0.506,0.567,-0.464,0.455
4617645,8049.0,1346.0,-533.0,0.506,0.567,-0.464,0.455
4617671,8041.0,1310.0,-679.0,0.506,0.566,-0.464,0.455
4617688,8077.0,1274.0,-641.0,0.507,0.566,-0.464,0.456
4617705,8105.0,1338.0,-617.0,0.507,0.566,-0.464,0.456
4617721,8005.0,1422.0,-533.0,0.507,0.566,-0.464,0.456
4617737,8059.0,1286.0,-607.0,0.507,0.565,-0.464,0.456
4617754,8075.0,1336.0,-661.0,0.508,0.565,-0.464,0.456
4617770,8025.0,1350.0,-613.0,0.508,0.565,-0.463,0.456
4617787,8119.0,1312.0,-627.0,0.508,0.565,-0.463,0.456
4617813,8005.0,1382.0,-619.0,0.508,0.565,-0.463,0.456
4617830,8039.0,1338.0,-557.0,0.509,0.565,-0.463,0.456
4617846,8045.0,1352.0,-665.0,0.509,0.565,-0.463,0.457
4617863,8055.0,1376.0,-563.0,0.509,0.565,-0.462,0.457
4617879,8039.0,1326.0,-617.0,0.509,0.565,-0.462,0.457
4617896,8013.0,1364.0,-625.0,0.509,0.564,-0.462,0.457
4617912,8157.0,1336.0,-645.0,0.51,0.564,-0.462,0.457
4617928,8009.0,1454.0,-633.0,0.51,0.564,-0.461,0.457
4617955,8035.0,1386.0,-589.0,0.51,0.564,-0.461,0.457
4617972,7963.0,1422.0,-589.0,0.51,0.564,-0.461,0.457
4617989,8021.0,1378.0,-517.0,0.51,0.564,-0.462,0.456
4618006,8069.0,1306.0,-603.0,0.511,0.564,-0.462,0.456
4618022,8075.0,1228.0,-573.0,0.511,0.564,-0.462,0.456
4618039,8111.0,1364.0,-623.0,0.511,0.564,-0.462,0.456
4618056,8087.0,1312.0,-595.0,0.511,0.564,-0.462,0.456
4618072,8023.0,1282.0,-565.0,0.511,0.563,-0.462,0.456
4618089,8045.0,1206.0,-569.0,0.511,0.563,-0.462,0.456
4618106,8009.0,1282.0,-573.0,0.511,0.564,-0.462,0.456
4618123,8001.0,1214.0,-553.0,0.511,0.564,-0.462,0.456
4618150,7975.0,1242.0,-593.0,0.511,0.564,-0.462,0.456
4618166,8063.0,1252.0,-563.0,0.511,0.564,-0.462,0.456
4618183,8079.0,1314.0,-487.0,0.511,0.564,-0.462,0.456
4618200,8025.0,1262.0,-519.0,0.51,0.565,-0.461,0.456
4618217,8033.0,1176.0,-549.0,0.51,0.565,-0.461,0.456
4618234,8111.0,1354.0,-555.0,0.51,0.565,-0.461,0.456
4618250,8115.0,1354.0,-591.0,0.51,0.565,-0.461,0.456
4618266,8081.0,1312.0,-561.0,0.509,0.566,-0.461,0.456
4618283,8073.0,1392.0,-561.0,0.509,0.566,-0.461,0.456
4618300,7993.0,1326.0,-549.0,0.509,0.566,-0.461,0.455
4618327,8103.0,1366.0,-537.0,0.509,0.566,-0.462,0.455
4618343,8107.0,1412.0,-557.0,0.508,0.567,-0.462,0.455
4618360,8107.0,1398.0,-553.0,0.508,0.567,-0.462,0.455
4618377,8053.0,1330.0,-625.0,0.508,0.567,-0.463,0.454
4618393,8097.0,1348.0,-653.0,0.508,0.567,-0.463,0.454
4618410,8113.0,1308.0,-629.0,0.507,0.567,-0.464,0.454
4618428,8075.0,1290.0,-613.0,0.507,0.567,-0.464,0.454
4618446,8055.0,1310.0,-561.0,0.507,0.566,-0.464,0.454
4618463,8015.0,1240.0,-551.0,0.507,0.566,-0.465,0.455
4618479,8045.0,1268.0,-587.0,0.507,0.566,-0.465,0.455
4618495,7995.0,1296.0,-467.0,0.507,0.566,-0.465,0.455
4618522,8051.0,1244.0,-529.0,0.506,0.566,-0.465,0.455
4618539,8011.0,1320.0,-483.0,0.506,0.566,-0.465,0.455
4618556,8087.0,1282.0,-487.0,0.506,0.566,-0.466,0.455
4618573,8067.0,1356.0,-579.0,0.506,0.566,-0.466,0.455
4618589,8091.0,1340.0,-575.0,0.506,0.566,-0.466,0.455
4618606,8125.0,1316.0,-531.0,0.506,0.565,-0.466,0.455
4618623,8085.0,1308.0,-491.0,0.506,0.565,-0.467,0.455
4618640,8213.0,1386.0,-513.0,0.506,0.565,-0.467,0.455
4618657,8071.0,1254.0,-545.0,0.506,0.564,-0.467,0.454
4618673,8175.0,1234.0,-559.0,0.506,0.564,-0.468,0.454
4618690,8093.0,1314.0,-605.0,0.507,0.564,-0.468,0.454
4618707,8145.0,1368.0,-635.0,0.507,0.564,-0.468,0.454
4618734,8037.0,1372.0,-609.0,0.507,0.564,-0.468,0.454
4618751,8049.0,1284.0,-559.0,0.507,0.563,-0.468,0.454
4618768,7929.0,1252.0,-465.0,0.508,0.563,-0.468,0.454
4618784,8071.0,1238.0,-571.0,0.508,0.562,-0.468,0.454
4618801,7999.0,1280.0,-609.0,0.508,0.562,-0.468,0.454
4618818,8035.0,1250.0,-563.0,0.509,0.562,-0.469,0.454
4618835,8055.0,1356.0,-589.0,0.509,0.562,-0.469,0.454
4618852,8055.0,1304.0,-535.0,0.509,0.561,-0.469,0.454
4618869,7991.0,1284.0,-561.0,0.51,0.561,-0.469,0.454
4618886,8061.0,1306.0,-575.0,0.51,0.56,-0.469,0.454
4618903,8053.0,1218.0,-615.0,0.511,0.56,-0.469,0.454
4618920,8069.0,1276.0,-657.0,0.511,0.56,-0.469,0.454
4618937,8023.0,1388.0,-621.0,0.511,0.559,-0.469,0.454
4618963,8009.0,1308.0,-535.0,0.512,0.559,-0.469,0.453
4618980,8043.0,1270.0,-509.0,0.512,0.558,-0.469,0.453
4618996,8059.0,1178.0,-603.0,0.513,0.558,-0.47,0.453
4619013,8005.0,1286.0,-609.0,0.513,0.558,-0.47,0.453
4619029,7945.0,1260.0,-597.0,0.513,0.558,-0.47,0.453
4619045,8049.0,1314.0,-493.0,0.514,0.557,-0.47,0.452
4619061,8001.0,1178.0,-583.0,0.514,0.557,-0.47,0.452
4619088,7997.0,1266.0,-645.0,0.515,0.557,-0.47,0.452
4619104,8035.0,1228.0,-555.0,0.515,0.557,-0.47,0.452
4619120,7985.0,1192.0,-457.0,0.515,0.557,-0.47,0.452
4619136,7983.0,1200.0,-549.0,0.515,0.556,-0.47,0.452
4619153,8025.0,1262.0,-495.0,0.516,0.556,-0.47,0.452
4619169,8007.0,1266.0,-611.0,0.516,0.557,-0.47,0.452
4619186,8053.0,1278.0,-559.0,0.516,0.557,-0.469,0.451
4619212,8071.0,1168.0,-495.0,0.516,0.557,-0.469,0.451
4619228,8061.0,1292.0,-549.0,0.516,0.557,-0.469,0.451
4619244,8067.0,1372.0,-529.0,0.516,0.557,-0.469,0.451
4619260,8003.0,1246.0,-485.0,0.516,0.557,-0.469,0.451
4619276,8071.0,1320.0,-525.0,0.516,0.557,-0.469,0.451
4619292,8111.0,1234.0,-589.0,0.516,0.557,-0.469,0.451
4619318,8131.0,1296.0,-561.0,0.515,0.558,-0.469,0.451
4619334,8093.0,1348.0,-569.0,0.515,0.558,-0.469,0.451
4619350,8055.0,1336.0,-507.0,0.515,0.558,-0.469,0.451
4619366,8047.0,1284.0,-547.0,0.515,0.558,-0.469,0.451
4619382,8063.0,1358.0,-565.0,0.515,0.558,-0.469,0.451
4619398,8023.0,1406.0,-545.0,0.515,0.559,-0.469,0.45
4619424,8029.0,1360.0,-553.0,0.514,0.559,-0.47,0.45
4619440,8045.0,1252.0,-507.0,0.514,0.559,-0.47,0.45
4619456,8067.0,1262.0,-577.0,0.514,0.559,-0.47,0.45
4619472,8105.0,1334.0,-561.0,0.514,0.559,-0.471,0.45
4619488,8097.0,1180.0,-569.0,0.513,0.559,-0.471,0.45
4619504,8185.0,1198.0,-623.0,0.513,0.559,-0.471,0.45
4619530,8103.0,1482.0,-543.0,0.513,0.559,-0.471,0.45
4619546,8053.0,1264.0,-461.0,0.513,0.559,-0.471,0.45
4619563,8097.0,1286.0,-531.0,0.513,0.559,-0.47,0.45
4619579,8091.0,1260.0,-473.0,0.513,0.559,-0.47,0.45
4619595,8133.0,1258.0,-531.0,0.513,0.559,-0.47,0.45
4619611,8139.0,1306.0,-529.0,0.513,0.56,-0.47,0.45
4619637,8129.0,1292.0,-559.0,0.513,0.56,-0.47,0.449
4619653,8119.0,1338.0,-487.0,0.514,0.56,-0.47,0.449
4619669,8139.0,1342.0,-525.0,0.514,0.56,-0.47,0.449
4619686,8091.0,1314.0,-519.0,0.514,0.56,-0.47,0.448
4619702,8027.0,1304.0,-475.0,0.514,0.561,-0.47,0.448
4619718,8077.0,1306.0,-567.0,0.514,0.561,-0.47,0.448
4619734,8029.0,1362.0,-525.0,0.515,0.561,-0.47,0.447
4619760,8077.0,1236.0,-487.0,0.515,0.561,-0.47,0.447
4619776,8069.0,1292.0,-549.0,0.515,0.561,-0.47,0.447
4619793,8085.0,1316.0,-571.0,0.515,0.561,-0.47,0.447
4619810,8061.0,1356.0,-507.0,0.515,0.56,-0.47,0.447
4619827,8015.0,1370.0,-481.0,0.515,0.56,-0.47,0.447
4619843,8023.0,1292.0,-497.0,0.516,0.56,-0.47,0.447
4619859,8135.0,1234.0,-545.0,0.516,0.56,-0.47,0.447
4619876,8121.0,1204.0,-563.0,0.516,0.559,-0.47,0.447
4619902,8093.0,1284.0,-509.0,0.516,0.559,-0.47,0.447
4619919,8033.0,1326.0,-521.0,0.516,0.559,-0.47,0.447
4619936,8023.0,1260.0,-451.0,0.516,0.559,-0.47,0.447
4619953,8091.0,1232.0,-511.0,0.516,0.558,-0.47,0.447
4619970,8043.0,1268.0,-481.0,0.517,0.558,-0.471,0.448
4619986,8083.0,1280.0,-517.0,0.517,0.558,-0.471,0.448
4620003,8081.0,1282.0,-561.0,0.517,0.558,-0.471,0.448
4620019,8077.0,1320.0,-543.0,0.517,0.557,-0.471,0.448
4620036,8065.0,1312.0,-517.0,0.517,0.557,-0.471,0.448
4620052,8065.0,1296.0,-491.0,0.517,0.557,-0.471,0.448
4620079,8067.0,1280.0,-553.0,0.517,0.557,-0.471,0.448
4620095,8075.0,1256.0,-531.0,0.517,0.556,-0.471,0.448
4620111,8113.0,1288.0,-495.0,0.517,0.556,-0.471,0.448
4620127,8105.0,1300.0,-531.0,0.517,0.556,-0.471,0.449
4620143,8075.0,1356.0,-571.0,0.517,0.556,-0.472,0.449
4620159,8059.0,1304.0,-561.0,0.517,0.555,-0.472,0.449
4620185,8037.0,1262.0,-521.0,0.517,0.555,-0.472,0.449
4620201,8103.0,1208.0,-571.0,0.517,0.555,-0.472,0.449
4620217,8071.0,1250.0,-541.0,0.517,0.555,-0.472,0.449
4620233,8017.0,1226.0,-553.0,0.517,0.555,-0.472,0.45
4620249,8007.0,1280.0,-549.0,0.517,0.554,-0.472,0.45
4620265,8017.0,1284.0,-545.0,0.517,0.554,-0.472,0.45
4620291,7993.0,1246.0,-541.0,0.517,0.554,-0.472,0.45
4620307,8035.0,1276.0,-535.0,0.517,0.554,-0.472,0.45
4620323,8001.0,1252.0,-481.0,0.517,0.554,-0.472,0.45
4620339,8043.0,1286.0,-513.0,0.517,0.554,-0.471,0.45
4620355,8057.0,1232.0,-583.0,0.517,0.555,-0.471,0.45
4620372,8007.0,1312.0,-533.0,0.517,0.555,-0.471,0.45
4620398,8029.0,1254.0,-481.0,0.517,0.555,-0.471,0.45
4620414,8003.0,1292.0,-503.0,0.517,0.555,-0.471,0.45
4620430,8079.0,1256.0,-537.0,0.517,0.555,-0.471,0.45
4620446,8029.0,1306.0,-533.0,0.517,0.555,-0.471,0.45
4620462,8121.0,1344.0,-533.0,0.516,0.555,-0.471,0.45
4620479,8047.0,1342.0,-587.0,0.516,0.556,-0.471,0.45
4620495,8087.0,1324.0,-575.0,0.516,0.556,-0.471,0.45
4620521,8115.0,1294.0,-575.0,0.516,0.556,-0.472,0.45
4620537,8059.0,1334.0,-501.0,0.516,0.556,-0.472,0.45
4620553,8051.0,1302.0,-537.0,0.516,0.556,-0.472,0.45
4620569,8069.0,1248.0,-539.0,0.516,0.556,-0.472,0.45
4620585,8075.0,1284.0,-537.0,0.516,0.556,-0.472,0.45
4620601,8093.0,1302.0,-547.0,0.515,0.557,-0.471,0.45
4620627,8027.0,1294.0,-497.0,0.515,0.557,-0.471,0.45
4620643,8037.0,1290.0,-521.0,0.515,0.557,-0.471,0.45
4620660,8015.0,1220.0,-511.0,0.515,0.557,-0.471,0.45
4620676,8049.0,1272.0,-463.0,0.515,0.557,-0.471,0.449
4620692,8053.0,1256.0,-517.0,0.515,0.557,-0.471,0.449
4620708,8039.0,1282.0,-607.0,0.515,0.558,-0.471,0.449
4620734,8067.0,1300.0,-575.0,0.515,0.558,-0.471,0.449
4620750,8067.0,1344.0,-525.0,0.515,0.558,-0.471,0.448
4620766,8051.0,1304.0,-513.0,0.515,0.558,-0.472,0.448
4620782,8039.0,1322.0,-495.0,0.515,0.558,-0.472,0.448
4620798,8051.0,1190.0,-501.0,0.515,0.558,-0.472,0.448
4620814,8039.0,1290.0,-543.0,0.515,0.558,-0.472,0.448
4620840,8095.0,1270.0,-575.0,0.515,0.558,-0.472,0.448
4620856,8079.0,1334.0,-525.0,0.515,0.559,-0.472,0.448
4620872,8137.0,1308.0,-529.0,0.515,0.559,-0.472,0.447
4620888,8113.0,1324.0,-497.0,0.515,0.559,-0.472,0.447
4620904,8049.0,1246.0,-515.0,0.516,0.559,-0.472,0.447
4620920,8069.0,1266.0,-565.0,0.516,0.559,-0.472,0.447
4620946,8063.0,1250.0,-597.0,0.516,0.559,-0.472,0.447
4620963,8013.0,1284.0,-505.0,0.516,0.559,-0.472,0.447
4620980,8113.0,1260.0,-525.0,0.516,0.558,-0.472,0.447
4620997,8083.0,1250.0,-555.0,0.516,0.558,-0.472,0.447
4621013,8061.0,1256.0,-525.0,0.516,0.558,-0.472,0.447
4621029,8113.0,1296.0,-575.0,0.516,0.558,-0.471,0.447
4621045,8079.0,1362.0,-509.0,0.516,0.558,-0.471,0.447
4621061,8097.0,1242.0,-523.0,0.516,0.558,-0.471,0.447
4621088,8113.0,1238.0,-565.0,0.516,0.558,-0.471,0.447
4621104,8149.0,1284.0,-509.0,0.516,0.558,-0.471,0.447
4621120,8029.0,1322.0,-457.0,0.516,0.558,-0.471,0.447
4621136,8105.0,1280.0,-531.0,0.516,0.558,-0.471,0.447
4621152,8137.0,1260.0,-575.0,0.516,0.558,-0.471,0.448
4621168,8115.0,1296.0,-559.0,0.516,0.558,-0.471,0.448
4621194,8075.0,1288.0,-503.0,0.516,0.558,-0.471,0.448
4621211,8101.0,1254.0,-587.0,0.516,0.558,-0.471,0.448
4621228,8083.0,1272.0,-571.0,0.516,0.558,-0.471,0.448
4621245,8157.0,1280.0,-543.0,0.516,0.558,-0.471,0.448
4621262,8049.0,1306.0,-533.0,0.516,0.558,-0.471,0.448
4621279,8045.0,1272.0,-599.0,0.516,0.558,-0.471,0.448
4621297,8101.0,1236.0,-587.0,0.516,0.558,-0.471,0.449
4621314,8151.0,1242.0,-547.0,0.516,0.557,-0.471,0.449
4621331,8059.0,1344.0,-579.0,0.516,0.557,-0.471,0.449
4621348,8069.0,1304.0,-529.0,0.516,0.557,-0.471,0.449
4621365,8051.0,1232.0,-523.0,0.516,0.557,-0.471,0.449
4621381,8051.0,1200.0,-523.0,0.516,0.557,-0.471,0.449
4621398,8075.0,1302.0,-555.0,0.516,0.557,-0.471,0.449
4621424,8003.0,1320.0,-643.0,0.516,0.557,-0.471,0.449
4621440,8075.0,1254.0,-535.0,0.516,0.557,-0.471,0.449
4621456,8101.0,1290.0,-515.0,0.516,0.557,-0.471,0.449
4621472,8099.0,1266.0,-553.0,0.516,0.556,-0.471,0.449
4621488,8059.0,1306.0,-587.0,0.516,0.556,-0.472,0.449
4621504,8093.0,1246.0,-565.0,0.516,0.556,-0.472,0.449
4621530,8093.0,1284.0,-535.0,0.517,0.556,-0.472,0.449
4621546,8119.0,1300.0,-525.0,0.517,0.556,-0.472,0.449
4621562,8083.0,1322.0,-531.0,0.517,0.556,-0.472,0.449
4621578,8065.0,1292.0,-525.0,0.517,0.556,-0.472,0.449
4621594,8061.0,1286.0,-529.0,0.517,0.556,-0.472,0.449
4621610,8047.0,1274.0,-565.0,0.517,0.555,-0.472,0.449
4621636,8055.0,1262.0,-493.0,0.517,0.555,-0.472,0.449
4621652,8099.0,1304.0,-533.0,0.517,0.555,-0.472,0.448
4621668,8035.0,1200.0,-533.0,0.518,0.555,-0.472,0.448
4621684,8049.0,1256.0,-539.0,0.518,0.555,-0.472,0.448
4621700,8045.0,1324.0,-549.0,0.518,0.555,-0.472,0.448
4621717,8073.0,1224.0,-493.0,0.518,0.554,-0.473,0.448
4621743,8019.0,1188.0,-451.0,0.518,0.554,-0.473,0.448
4621759,7997.0,1278.0,-521.0,0.518,0.554,-0.473,0.448
4621775,8039.0,1256.0,-551.0,0.518,0.554,-0.473,0.448
4621791,8051.0,1240.0,-565.0,0.518,0.554,-0.473,0.448
4621808,8105.0,1264.0,-505.0,0.519,0.554,-0.473,0.448
4621824,8017.0,1246.0,-483.0,0.519,0.554,-0.473,0.448
4621840,8051.0,1300.0,-533.0,0.519,0.554,-0.473,0.448
4621866,8093.0,1248.0,-551.0,0.519,0.554,-0.473,0.448
4621882,8059.0,1278.0,-531.0,0.519,0.554,-0.473,0.448
4621898,8001.0,1240.0,-491.0,0.519,0.554,-0.473,0.448
4621914,8101.0,1182.0,-515.0,0.519,0.553,-0.473,0.447
4621931,8035.0,1254.0,-521.0,0.519,0.553,-0.473,0.447
4621947,8113.0,1274.0,-487.0,0.519,0.553,-0.473,0.447
4621973,8055.0,1290.0,-489.0,0.519,0.553,-0.473,0.447
4621989,8069.0,1224.0,-491.0,0.519,0.553,-0.473,0.447
4622005,8117.0,1214.0,-521.0,0.519,0.553,-0.473,0.447
4622021,8071.0,1176.0,-519.0,0.519,0.554,-0.473,0.447
4622037,8093.0,1250.0,-597.0,0.519,0.554,-0.473,0.447
4622054,8037.0,1188.0,-515.0,0.519,0.554,-0.473,0.447
4622070,8037.0,1236.0,-507.0,0.519,0.554,-0.473,0.447
4622096,8047.0,1234.0,-517.0,0.519,0.554,-0.473,0.447
4622112,8037.0,1206.0,-519.0,0.519,0.554,-0.473,0.447
4622128,8029.0,1238.0,-595.0,0.519,0.555,-0.473,0.447
4622144,8109.0,1228.0,-507.0,0.519,0.555,-0.473,0.447
4622160,8091.0,1264.0,-541.0,0.518,0.555,-0.472,0.447
4622176,8057.0,1256.0,-527.0,0.518,0.555,-0.472,0.448
4622203,8117.0,1192.0,-509.0,0.518,0.555,-0.472,0.448
4622220,8065.0,1204.0,-485.0,0.518,0.556,-0.472,0.448
4622237,8065.0,1204.0,-533.0,0.518,0.556,-0.472,0.448
4622254,8083.0,1242.0,-563.0,0.517,0.556,-0.472,0.448
4622270,8059.0,1250.0,-589.0,0.517,0.556,-0.471,0.448
4622286,7985.0,1332.0,-471.0,0.517,0.556,-0.471,0.448
4622302,7989.0,1206.0,-511.0,0.517,0.557,-0.471,0.449
4622318,8035.0,1208.0,-495.0,0.516,0.557,-0.471,0.449
4622344,8045.0,1246.0,-553.0,0.516,0.557,-0.471,0.449
4622360,8039.0,1228.0,-497.0,0.515,0.557,-0.471,0.449
4622376,8057.0,1202.0,-493.0,0.515,0.557,-0.471,0.45
4622392,8049.0,1156.0,-533.0,0.514,0.558,-0.471,0.45
4622408,8063.0,1200.0,-613.0,0.514,0.558,-0.471,0.45
4622424,8143.0,1252.0,-537.0,0.513,0.558,-0.471,0.45
4622450,8067.0,1380.0,-517.0,0.513,0.559,-0.471,0.451
4622466,8059.0,1548.0,-511.0,0.513,0.559,-0.47,0.451
4622482,8113.0,1548.0,-521.0,0.513,0.558,-0.471,0.451
4622498,8079.0,1250.0,-571.0,0.514,0.558,-0.471,0.451
4622514,8121.0,1204.0,-495.0,0.514,0.558,-0.471,0.451
4622530,8115.0,1260.0,-641.0,0.514,0.557,-0.471,0.451
4622557,8195.0,1514.0,-623.0,0.514,0.557,-0.471,0.451
4622573,8067.0,1272.0,-489.0,0.514,0.557,-0.471,0.451
4622589,8061.0,1204.0,-409.0,0.514,0.557,-0.471,0.452
4622605,8121.0,1234.0,-471.0,0.514,0.556,-0.471,0.452
4622621,8059.0,1154.0,-525.0,0.513,0.556,-0.471,0.453
4622637,8103.0,1102.0,-459.0,0.513,0.556,-0.471,0.453
4622663,8059.0,1118.0,-451.0,0.513,0.556,-0.471,0.453
4622679,8039.0,1170.0,-429.0,0.512,0.556,-0.471,0.454
4622695,8029.0,1158.0,-587.0,0.512,0.556,-0.471,0.454
4622711,8151.0,1066.0,-489.0,0.511,0.557,-0.471,0.455
4622734,8123.0,1184.0,-557.0,0.511,0.557,-0.471,0.455
4622750,8163.0,1158.0,-485.0,0.51,0.557,-0.471,0.456
4622766,8079.0,1248.0,-633.0,0.51,0.558,-0.47,0.456
4622782,7951.0,1352.0,-457.0,0.51,0.558,-0.47,0.457
4622798,8029.0,1228.0,-405.0,0.51,0.558,-0.469,0.457
4622814,8133.0,1164.0,-471.0,0.509,0.558,-0.469,0.458
4622831,8061.0,1116.0,-477.0,0.509,0.558,-0.469,0.458
4622857,8175.0,1130.0,-457.0,0.509,0.558,-0.469,0.458
4622873,8113.0,1118.0,-469.0,0.509,0.558,-0.469,0.458
4622889,8135.0,1210.0,-511.0,0.509,0.558,-0.468,0.459
4622905,8113.0,1360.0,-495.0,0.509,0.557,-0.468,0.459
4622921,8095.0,1242.0,-483.0,0.51,0.557,-0.468,0.459
4622947,8087.0,1154.0,-491.0,0.51,0.557,-0.468,0.459
4622963,8089.0,1138.0,-479.0,0.51,0.557,-0.468,0.459
4622979,8059.0,1198.0,-513.0,0.51,0.557,-0.468,0.459
4622995,8125.0,1154.0,-495.0,0.51,0.557,-0.468,0.459
4623011,8053.0,1112.0,-499.0,0.51,0.557,-0.467,0.459
4623027,8095.0,1144.0,-503.0,0.51,0.557,-0.467,0.46
4623053,8033.0,1210.0,-543.0,0.51,0.557,-0.467,0.46
4623069,8071.0,1136.0,-479.0,0.51,0.557,-0.467,0.46
4623085,8095.0,1154.0,-473.0,0.51,0.556,-0.467,0.46
4623102,8019.0,1224.0,-485.0,0.511,0.556,-0.467,0.46
4623118,8159.0,1148.0,-473.0,0.511,0.556,-0.467,0.46
4623134,8145.0,1172.0,-439.0,0.511,0.556,-0.467,0.46
4623151,8017.0,1112.0,-559.0,0.511,0.556,-0.467,0.461
4623177,8077.0,1292.0,-473.0,0.511,0.556,-0.467,0.461
4623193,8083.0,1412.0,-401.0,0.512,0.555,-0.467,0.461
4623209,8113.0,1568.0,-479.0,0.513,0.554,-0.467,0.461
4623225,8101.0,1378.0,-453.0,0.514,0.553,-0.467,0.46
4623242,8143.0,1302.0,-535.0,0.516,0.551,-0.468,0.46
4623258,8089.0,1052.0,-465.0,0.518,0.549,-0.468,0.46
4623274,8051.0,830.0,-353.0,0.519,0.547,-0.468,0.46
4623300,8067.0,854.0,-255.0,0.52,0.546,-0.468,0.46
4623316,8097.0,996.0,-291.0,0.52,0.545,-0.468,0.461
4623332,8269.0,1142.0,-349.0,0.52,0.545,-0.468,0.461
4623348,7953.0,718.0,-43.0,0.52,0.545,-0.468,0.462
4623364,8091.0,966.0,-43.0,0.519,0.546,-0.468,0.463
4623380,8171.0,1082.0,-251.0,0.517,0.547,-0.467,0.464
4623406,8141.0,1140.0,-425.0,0.516,0.547,-0.466,0.466
4623422,8145.0,1088.0,-421.0,0.514,0.548,-0.466,0.467
4623438,8133.0,888.0,-333.0,0.513,0.548,-0.465,0.468
4623454,8101.0,836.0,-253.0,0.512,0.549,-0.465,0.469
4623470,8069.0,916.0,-289.0,0.511,0.549,-0.465,0.47
4623486,8047.0,950.0,-207.0,0.511,0.55,-0.464,0.471
4623512,8147.0,1048.0,-281.0,0.51,0.551,-0.464,0.471
4623528,8145.0,988.0,-351.0,0.509,0.551,-0.463,0.471
4623544,8201.0,998.0,-391.0,0.509,0.552,-0.463,0.472
4623560,8171.0,1012.0,-387.0,0.508,0.553,-0.462,0.472
4623576,8115.0,1038.0,-337.0,0.508,0.553,-0.461,0.473
4623602,8151.0,1130.0,-269.0,0.508,0.553,-0.461,0.473
4623618,8037.0,1228.0,-291.0,0.508,0.554,-0.46,0.473
4623634,8183.0,1118.0,-277.0,0.507,0.554,-0.46,0.473
4623650,8139.0,1040.0,-287.0,0.507,0.554,-0.46,0.473
4623666,8173.0,1040.0,-331.0,0.507,0.555,-0.46,0.474
4623682,8089.0,1118.0,-395.0,0.506,0.555,-0.459,0.474
4623708,8133.0,1214.0,-357.0,0.506,0.555,-0.459,0.474
4623724,8069.0,1174.0,-317.0,0.506,0.555,-0.459,0.474
4623740,8119.0,1126.0,-329.0,0.506,0.555,-0.46,0.474
4623756,8063.0,1128.0,-345.0,0.506,0.555,-0.46,0.474
4623772,8037.0,1038.0,-391.0,0.506,0.555,-0.46,0.474
4623788,8047.0,1062.0,-369.0,0.505,0.555,-0.46,0.474
4623814,8033.0,1018.0,-343.0,0.505,0.555,-0.461,0.474
4623830,8117.0,1104.0,-347.0,0.505,0.554,-0.461,0.474
4623846,8105.0,1060.0,-337.0,0.505,0.554,-0.462,0.474
4623862,8129.0,1092.0,-341.0,0.505,0.554,-0.462,0.474
4623879,8123.0,984.0,-339.0,0.505,0.554,-0.462,0.474
4623895,8167.0,972.0,-339.0,0.505,0.554,-0.463,0.473
4623911,8139.0,1066.0,-355.0,0.505,0.553,-0.463,0.473
4623937,8133.0,1102.0,-325.0,0.505,0.553,-0.464,0.473
4623953,8109.0,1092.0,-335.0,0.506,0.553,-0.464,0.473
4623969,8111.0,1040.0,-347.0,0.506,0.553,-0.464,0.472
4623985,8127.0,1006.0,-419.0,0.506,0.553,-0.464,0.472
4624001,8191.0,1144.0,-331.0,0.506,0.552,-0.465,0.472
4624017,8089.0,1092.0,-359.0,0.507,0.552,-0.465,0.472
4624043,8121.0,1104.0,-323.0,0.507,0.552,-0.465,0.471
4624059,8103.0,1078.0,-327.0,0.507,0.552,-0.466,0.471
4624075,8177.0,1082.0,-341.0,0.507,0.551,-0.466,0.47
4624091,8137.0,1066.0,-385.0,0.508,0.551,-0.466,0.47
4624107,8091.0,1146.0,-409.0,0.508,0.551,-0.466,0.47
4624133,8093.0,1154.0,-283.0,0.508,0.551,-0.467,0.47
4624149,8087.0,908.0,-279.0,0.509,0.55,-0.467,0.47
4624165,8115.0,1060.0,-347.0,0.509,0.55,-0.467,0.47
4624181,8081.0,966.0,-323.0,0.509,0.549,-0.467,0.47
4624197,8097.0,934.0,-269.0,0.51,0.549,-0.467,0.47
4624213,8103.0,970.0,-215.0,0.51,0.548,-0.467,0.47
4624239,8135.0,930.0,-187.0,0.51,0.548,-0.467,0.471
4624255,8125.0,944.0,-263.0,0.51,0.548,-0.467,0.471
4624271,8183.0,876.0,-245.0,0.51,0.548,-0.467,0.47
4624287,8145.0,920.0,-281.0,0.51,0.547,-0.467,0.47
4624303,8151.0,958.0,-297.0,0.511,0.547,-0.467,0.47
4624319,8067.0,1004.0,-267.0,0.511,0.547,-0.467,0.47
4624345,8119.0,944.0,-323.0,0.511,0.547,-0.467,0.47
4624362,8071.0,948.0,-185.0,0.511,0.547,-0.467,0.47
4624379,8127.0,1012.0,-275.0,0.512,0.547,-0.467,0.47
4624395,8055.0,1060.0,-291.0,0.512,0.547,-0.467,0.47
4624412,8073.0,1008.0,-321.0,0.512,0.547,-0.467,0.47
4624428,8079.0,1016.0,-309.0,0.513,0.546,-0.467,0.469
4624445,8049.0,990.0,-293.0,0.513,0.546,-0.467,0.469
4624461,8059.0,1024.0,-311.0,0.513,0.546,-0.467,0.469
4624487,8047.0,950.0,-301.0,0.514,0.545,-0.467,0.469
4624503,8073.0,958.0,-271.0,0.514,0.545,-0.467,0.469
4624519,7993.0,988.0,-267.0,0.514,0.545,-0.467,0.469
4624535,8077.0,922.0,-343.0,0.514,0.545,-0.468,0.469
4624551,8075.0,958.0,-369.0,0.514,0.545,-0.467,0.469
4624567,8057.0,900.0,-359.0,0.515,0.545,-0.467,0.469
4624593,8093.0,986.0,-301.0,0.514,0.545,-0.467,0.469
4624609,8089.0,980.0,-281.0,0.514,0.545,-0.467,0.469
4624625,8085.0,980.0,-305.0,0.514,0.545,-0.467,0.47
4624641,8169.0,952.0,-337.0,0.514,0.545,-0.467,0.47
4624657,8147.0,876.0,-323.0,0.514,0.546,-0.466,0.47
4624673,8123.0,996.0,-337.0,0.513,0.546,-0.466,0.47
4624699,8109.0,926.0,-353.0,0.513,0.547,-0.466,0.47
4624715,8113.0,960.0,-355.0,0.512,0.547,-0.466,0.47
4624731,8193.0,1036.0,-331.0,0.512,0.548,-0.465,0.47
4624747,8193.0,940.0,-375.0,0.511,0.549,-0.465,0.471
4624763,8129.0,946.0,-339.0,0.511,0.549,-0.465,0.471
4624779,8145.0,1046.0,-339.0,0.51,0.55,-0.464,0.471
4624805,8007.0,1038.0,-267.0,0.51,0.55,-0.464,0.471
4624821,8085.0,974.0,-291.0,0.509,0.551,-0.463,0.471
4624837,8071.0,1044.0,-305.0,0.509,0.552,-0.463,0.471
4624853,8131.0,1064.0,-353.0,0.508,0.552,-0.463,0.472
4624869,8135.0,1042.0,-397.0,0.507,0.553,-0.463,0.472
4624885,8153.0,1036.0,-369.0,0.507,0.554,-0.462,0.472
4624911,8057.0,1048.0,-341.0,0.506,0.554,-0.462,0.472
4624927,8157.0,1064.0,-267.0,0.506,0.554,-0.462,0.473
4624943,8139.0,1044.0,-339.0,0.505,0.555,-0.462,0.473
4624959,8131.0,1090.0,-357.0,0.505,0.555,-0.462,0.473
4624975,8163.0,1046.0,-407.0,0.504,0.556,-0.462,0.473
4624991,8153.0,1016.0,-359.0,0.503,0.556,-0.462,0.473
4625018,8129.0,1050.0,-387.0,0.503,0.556,-0.462,0.473
4625034,8085.0,1054.0,-337.0,0.502,0.557,-0.462,0.473
4625050,8133.0,1030.0,-329.0,0.502,0.557,-0.462,0.474
4625066,8111.0,1018.0,-373.0,0.501,0.557,-0.462,0.474
4625082,8165.0,938.0,-307.0,0.501,0.557,-0.462,0.474
4625098,8139.0,1026.0,-403.0,0.5,0.558,-0.462,0.474
4625124,8117.0,976.0,-355.0,0.5,0.558,-0.462,0.474
4625140,8127.0,1014.0,-405.0,0.5,0.558,-0.462,0.474
4625157,8103.0,1130.0,-341.0,0.5,0.558,-0.462,0.475
4625173,8131.0,1052.0,-371.0,0.499,0.559,-0.462,0.475
4625189,8129.0,930.0,-347.0,0.499,0.559,-0.462,0.475
4625205,8177.0,988.0,-323.0,0.499,0.559,-0.462,0.475
4625222,8137.0,1032.0,-345.0,0.499,0.559,-0.462,0.475
4625248,8113.0,1002.0,-363.0,0.498,0.559,-0.461,0.475
4625264,8137.0,1030.0,-451.0,0.498,0.56,-0.461,0.475
4625280,8151.0,1028.0,-423.0,0.498,0.56,-0.461,0.475
4625296,8097.0,1090.0,-361.0,0.498,0.56,-0.461,0.475
4625312,8095.0,1026.0,-315.0,0.498,0.56,-0.461,0.475
4625328,8141.0,992.0,-289.0,0.499,0.56,-0.461,0.475
4625354,8105.0,934.0,-347.0,0.499,0.56,-0.46,0.475
4625370,8173.0,986.0,-423.0,0.499,0.56,-0.46,0.475
4625387,8137.0,1080.0,-399.0,0.499,0.56,-0.46,0.476
4625403,8133.0,1010.0,-385.0,0.499,0.56,-0.46,0.476
4625419,8105.0,1080.0,-311.0,0.499,0.56,-0.46,0.476
4625435,8089.0,1080.0,-307.0,0.499,0.56,-0.46,0.476
4625451,8133.0,990.0,-391.0,0.499,0.559,-0.46,0.476
4625477,8115.0,1036.0,-319.0,0.499,0.559,-0.459,0.476
4625494,8121.0,982.0,-449.0,0.5,0.559,-0.459,0.476
4625510,8143.0,1002.0,-385.0,0.5,0.559,-0.459,0.476
4625526,8083.0,1032.0,-415.0,0.5,0.559,-0.459,0.477
4625542,8135.0,1106.0,-353.0,0.5,0.559,-0.459,0.477
4625558,8137.0,1008.0,-327.0,0.5,0.558,-0.459,0.477
4625584,8111.0,1014.0,-329.0,0.5,0.558,-0.459,0.477
4625600,8143.0,976.0,-373.0,0.5,0.558,-0.458,0.478
4625616,8145.0,1050.0,-375.0,0.5,0.558,-0.458,0.478
4625632,8093.0,1062.0,-341.0,0.5,0.558,-0.458,0.478
4625648,8151.0,1056.0,-405.0,0.5,0.558,-0.458,0.478
4625664,8113.0,1058.0,-405.0,0.5,0.558,-0.458,0.478
4625690,8127.0,1018.0,-417.0,0.5,0.558,-0.458,0.478
4625706,8061.0,992.0,-377.0,0.5,0.558,-0.457,0.479
4625722,8157.0,1012.0,-361.0,0.5,0.558,-0.457,0.479
4625738,8069.0,1058.0,-413.0,0.5,0.558,-0.457,0.479
4625754,8061.0,956.0,-421.0,0.5,0.559,-0.457,0.479
4625770,8097.0,1028.0,-455.0,0.5,0.559,-0.456,0.479
4625796,8039.0,1062.0,-395.0,0.5,0.559,-0.456,0.479
4625812,8089.0,1002.0,-423.0,0.5,0.559,-0.456,0.48
4625828,8039.0,1054.0,-397.0,0.5,0.559,-0.456,0.48
4625844,8079.0,1098.0,-399.0,0.5,0.559,-0.456,0.48
4625860,8103.0,1054.0,-393.0,0.5,0.559,-0.456,0.48
4625876,8097.0,944.0,-387.0,0.5,0.559,-0.456,0.48
4625903,8101.0,1026.0,-401.0,0.499,0.56,-0.455,0.48
4625919,8103.0,1074.0,-367.0,0.499,0.56,-0.455,0.48
4625935,8165.0,1070.0,-403.0,0.499,0.56,-0.455,0.48
4625951,8067.0,1002.0,-337.0,0.499,0.56,-0.455,0.48
4625967,8135.0,968.0,-391.0,0.499,0.56,-0.455,0.479
4625983,8123.0,950.0,-397.0,0.499,0.561,-0.455,0.479
4626009,8151.0,1068.0,-377.0,0.499,0.561,-0.455,0.479
4626025,8129.0,1048.0,-437.0,0.499,0.561,-0.455,0.479
4626041,8097.0,1032.0,-341.0,0.499,0.561,-0.455,0.479
4626057,8135.0,986.0,-373.0,0.498,0.562,-0.455,0.479
4626073,8067.0,1032.0,-375.0,0.498,0.562,-0.455,0.479
4626089,8105.0,996.0,-387.0,0.498,0.562,-0.455,0.478
4626115,8039.0,988.0,-423.0,0.498,0.562,-0.455,0.478
4626131,8063.0,1018.0,-377.0,0.498,0.563,-0.455,0.478
4626147,8099.0,1076.0,-345.0,0.498,0.563,-0.455,0.478
4626163,8109.0,984.0,-371.0,0.498,0.563,-0.455,0.478
4626179,8163.0,1032.0,-411.0,0.498,0.563,-0.455,0.478
4626195,8193.0,966.0,-333.0,0.498,0.563,-0.455,0.478
4626221,8203.0,1056.0,-325.0,0.498,0.563,-0.455,0.478
4626237,8219.0,1006.0,-405.0,0.497,0.563,-0.455,0.478
4626253,8167.0,976.0,-359.0,0.497,0.563,-0.455,0.478
4626269,8177.0,1018.0,-413.0,0.497,0.563,-0.455,0.478
4626285,8135.0,980.0,-357.0,0.497,0.564,-0.455,0.478
4626301,8157.0,968.0,-409.0,0.497,0.564,-0.455,0.478
4626318,8085.0,1010.0,-353.0,0.497,0.564,-0.455,0.478
4626344,8087.0,1002.0,-367.0,0.497,0.564,-0.455,0.478
4626361,8037.0,1064.0,-367.0,0.497,0.564,-0.455,0.478
4626378,8073.0,1026.0,-341.0,0.497,0.564,-0.455,0.478
4626395,8139.0,1012.0,-381.0,0.496,0.563,-0.456,0.478
4626412,8123.0,946.0,-395.0,0.496,0.563,-0.456,0.478
4626429,8121.0,1038.0,-381.0,0.496,0.563,-0.456,0.478
4626446,8143.0,1096.0,-423.0,0.496,0.563,-0.456,0.478
4626462,8111.0,1016.0,-311.0,0.496,0.563,-0.456,0.479
4626479,8175.0,1040.0,-401.0,0.496,0.563,-0.456,0.479
4626496,8109.0,1050.0,-353.0,0.496,0.563,-0.456,0.479
4626522,8097.0,990.0,-349.0,0.496,0.562,-0.456,0.479
4626538,8083.0,1022.0,-337.0,0.496,0.562,-0.456,0.479
4626554,8099.0,1026.0,-337.0,0.496,0.562,-0.457,0.479
4626570,8129.0,1052.0,-387.0,0.496,0.562,-0.457,0.479
4626586,8093.0,1038.0,-383.0,0.496,0.561,-0.457,0.479
4626602,8135.0,944.0,-377.0,0.497,0.561,-0.457,0.479
4626628,8125.0,1066.0,-321.0,0.497,0.561,-0.457,0.479
4626644,8155.0,1012.0,-381.0,0.497,0.561,-0.457,0.479
4626661,8157.0,986.0,-413.0,0.497,0.561,-0.457,0.479
4626677,8083.0,996.0,-371.0,0.497,0.56,-0.457,0.479
4626694,8093.0,1026.0,-357.0,0.497,0.56,-0.457,0.479
4626711,8117.0,1026.0,-363.0,0.498,0.56,-0.457,0.48
4626728,8073.0,962.0,-409.0,0.498,0.56,-0.457,0.48
4626745,8085.0,988.0,-389.0,0.498,0.56,-0.457,0.479
4626762,8049.0,1000.0,-373.0,0.498,0.56,-0.457,0.479
4626788,8099.0,992.0,-369.0,0.499,0.56,-0.456,0.479
4626804,8103.0,1056.0,-415.0,0.499,0.559,-0.456,0.479
4626821,8105.0,968.0,-365.0,0.5,0.559,-0.456,0.479
4626837,8121.0,896.0,-315.0,0.5,0.559,-0.456,0.479
4626853,8071.0,1036.0,-403.0,0.5,0.559,-0.456,0.479
4626869,8079.0,962.0,-337.0,0.5,0.559,-0.456,0.479
4626885,8171.0,1078.0,-319.0,0.5,0.559,-0.456,0.479
4626911,8165.0,1010.0,-363.0,0.5,0.559,-0.456,0.479
4626927,8147.0,964.0,-345.0,0.5,0.559,-0.456,0.479
4626943,8125.0,958.0,-381.0,0.5,0.559,-0.456,0.479
4626959,8123.0,954.0,-385.0,0.5,0.559,-0.456,0.479
4626975,8113.0,1026.0,-385.0,0.5,0.559,-0.456,0.479
4626991,8159.0,1046.0,-387.0,0.5,0.559,-0.456,0.479
4627017,8077.0,1000.0,-403.0,0.5,0.559,-0.456,0.479
4627033,8111.0,1002.0,-421.0,0.5,0.559,-0.456,0.479
4627049,8095.0,958.0,-397.0,0.501,0.559,-0.456,0.479
4627065,8035.0,966.0,-367.0,0.501,0.559,-0.456,0.479
4627081,8071.0,1020.0,-379.0,0.501,0.559,-0.455,0.48
4627098,8077.0,1060.0,-361.0,0.501,0.559,-0.455,0.48
4627115,8099.0,1032.0,-379.0,0.501,0.559,-0.455,0.48
4627142,8005.0,1010.0,-375.0,0.501,0.559,-0.455,0.48
4627158,8083.0,968.0,-327.0,0.5,0.559,-0.455,0.48
4627175,8057.0,938.0,-367.0,0.5,0.559,-0.455,0.48
4627191,8081.0,984.0,-397.0,0.5,0.559,-0.455,0.48
4627207,8095.0,1044.0,-393.0,0.5,0.559,-0.455,0.48
4627223,8069.0,1042.0,-379.0,0.5,0.56,-0.455,0.48
4627239,8111.0,960.0,-359.0,0.499,0.56,-0.455,0.48
4627265,8109.0,980.0,-345.0,0.499,0.56,-0.455,0.48
4627281,8165.0,964.0,-427.0,0.499,0.56,-0.455,0.48
4627297,8137.0,1036.0,-413.0,0.499,0.561,-0.454,0.48
4627313,8155.0,1040.0,-375.0,0.498,0.561,-0.454,0.48
4627330,8159.0,996.0,-335.0,0.498,0.561,-0.454,0.48
4627346,8133.0,960.0,-327.0,0.498,0.561,-0.454,0.48
4627363,8087.0,998.0,-345.0,0.498,0.562,-0.454,0.48
4627380,8113.0,988.0,-375.0,0.497,0.562,-0.453,0.48
4627407,8101.0,998.0,-381.0,0.497,0.563,-0.453,0.481
4627424,8173.0,978.0,-421.0,0.497,0.563,-0.453,0.481
4627441,8169.0,1016.0,-447.0,0.496,0.564,-0.453,0.481
4627457,8133.0,1000.0,-417.0,0.496,0.564,-0.453,0.481
4627473,8143.0,1012.0,-343.0,0.496,0.564,-0.452,0.481
4627490,8091.0,994.0,-339.0,0.496,0.565,-0.452,0.481
4627507,8127.0,1022.0,-347.0,0.495,0.565,-0.452,0.481
4627523,8135.0,1022.0,-365.0,0.495,0.565,-0.452,0.481
4627540,8163.0,1018.0,-427.0,0.494,0.566,-0.452,0.481
4627566,8159.0,1030.0,-381.0,0.494,0.566,-0.452,0.481
4627583,8147.0,1010.0,-379.0,0.494,0.566,-0.452,0.481
4627599,8151.0,1048.0,-323.0,0.493,0.567,-0.452,0.481
4627615,8149.0,1044.0,-341.0,0.493,0.567,-0.452,0.481
4627631,8159.0,1018.0,-321.0,0.493,0.567,-0.452,0.481
4627648,8135.0,982.0,-403.0,0.492,0.567,-0.452,0.482
4627664,8133.0,996.0,-385.0,0.492,0.567,-0.452,0.482
4627690,8119.0,1066.0,-391.0,0.492,0.568,-0.452,0.482
4627706,8157.0,1016.0,-405.0,0.491,0.568,-0.452,0.482
4627722,8117.0,1020.0,-421.0,0.491,0.568,-0.451,0.482
4627739,8139.0,1026.0,-391.0,0.491,0.568,-0.451,0.482
4627755,8089.0,1026.0,-351.0,0.491,0.568,-0.451,0.482
4627771,8103.0,1060.0,-359.0,0.491,0.568,-0.451,0.483
4627787,8131.0,1040.0,-355.0,0.491,0.568,-0.451,0.483
4627814,8081.0,1004.0,-355.0,0.49,0.568,-0.451,0.483
4627830,8095.0,998.0,-429.0,0.49,0.568,-0.451,0.483
4627846,8131.0,1060.0,-411.0,0.49,0.568,-0.451,0.483
4627862,8151.0,1046.0,-379.0,0.49,0.568,-0.451,0.483
4627878,8097.0,1050.0,-395.0,0.49,0.568,-0.451,0.483
4627894,8137.0,984.0,-339.0,0.49,0.568,-0.451,0.484
4627920,8149.0,950.0,-445.0,0.49,0.568,-0.451,0.484
4627936,8163.0,1030.0,-391.0,0.49,0.568,-0.451,0.484
4627953,8195.0,1074.0,-461.0,0.49,0.568,-0.451,0.484
4627969,8179.0,1038.0,-387.0,0.49,0.568,-0.451,0.484
4627985,8103.0,1010.0,-389.0,0.49,0.568,-0.451,0.484
4628002,8161.0,1034.0,-459.0,0.49,0.567,-0.451,0.484
4628018,8131.0,996.0,-361.0,0.49,0.567,-0.451,0.484
4628044,8105.0,1050.0,-397.0,0.49,0.567,-0.451,0.484
4628060,8109.0,986.0,-389.0,0.49,0.567,-0.45,0.485
4628077,8087.0,1024.0,-457.0,0.49,0.567,-0.45,0.485
4628093,8069.0,1106.0,-467.0,0.491,0.567,-0.45,0.485
4628109,8101.0,1092.0,-377.0,0.491,0.567,-0.45,0.485
4628125,8081.0,984.0,-391.0,0.491,0.567,-0.45,0.485
4628141,8077.0,984.0,-413.0,0.491,0.567,-0.449,0.485
4628168,8081.0,984.0,-425.0,0.491,0.567,-0.449,0.485
4628184,8101.0,1038.0,-429.0,0.491,0.567,-0.449,0.485
4628201,8073.0,1056.0,-419.0,0.491,0.567,-0.449,0.485
4628218,8129.0,1054.0,-437.0,0.491,0.567,-0.449,0.485
4628234,8127.0,1018.0,-423.0,0.491,0.567,-0.449,0.485
4628250,8151.0,1036.0,-431.0,0.492,0.567,-0.449,0.485
4628266,8077.0,1006.0,-419.0,0.492,0.567,-0.448,0.485
4628292,8167.0,980.0,-407.0,0.492,0.567,-0.448,0.485
4628308,8119.0,1090.0,-387.0,0.492,0.567,-0.448,0.485
4628324,8117.0,962.0,-413.0,0.492,0.568,-0.448,0.485
4628340,8055.0,992.0,-449.0,0.492,0.568,-0.448,0.485
4628357,8101.0,1002.0,-429.0,0.492,0.568,-0.448,0.485
4628373,8075.0,1028.0,-395.0,0.492,0.568,-0.447,0.485
4628389,8075.0,958.0,-431.0,0.492,0.568,-0.447,0.485
4628416,8083.0,1000.0,-417.0,0.492,0.568,-0.447,0.485
4628432,8085.0,1024.0,-409.0,0.492,0.569,-0.446,0.485
4628448,8121.0,1020.0,-433.0,0.492,0.569,-0.446,0.485
4628465,8095.0,982.0,-385.0,0.492,0.569,-0.446,0.485
4628481,8037.0,982.0,-417.0,0.492,0.569,-0.446,0.485
4628497,8079.0,996.0,-455.0,0.492,0.569,-0.445,0.485
4628513,8157.0,1050.0,-405.0,0.492,0.57,-0.445,0.485
4628539,8087.0,1076.0,-429.0,0.492,0.57,-0.445,0.485
4628555,8087.0,1044.0,-355.0,0.492,0.57,-0.444,0.485
4628571,8089.0,978.0,-411.0,0.492,0.57,-0.444,0.485
4628587,8099.0,942.0,-419.0,0.492,0.57,-0.444,0.485
4628603,8091.0,930.0,-371.0,0.492,0.571,-0.444,0.485
4628619,8101.0,962.0,-469.0,0.492,0.571,-0.444,0.485
4628645,8131.0,1052.0,-459.0,0.492,0.571,-0.444,0.485
4628661,8127.0,986.0,-391.0,0.491,0.572,-0.444,0.485
4628677,8107.0,1030.0,-365.0,0.491,0.572,-0.444,0.485
4628693,8213.0,976.0,-497.0,0.491,0.572,-0.443,0.485
4628709,8327.0,940.0,-565.0,0.491,0.573,-0.443,0.484
4628735,8241.0,998.0,-559.0,0.491,0.573,-0.443,0.484
4628751,8173.0,972.0,-469.0,0.492,0.573,-0.443,0.483
4628767,8169.0,890.0,-417.0,0.492,0.574,-0.443,0.483
4628783,8229.0,890.0,-449.0,0.492,0.574,-0.442,0.482
4628799,8267.0,886.0,-627.0,0.492,0.575,-0.442,0.481
4628815,8199.0,1004.0,-599.0,0.492,0.576,-0.441,0.481
4628841,8203.0,1042.0,-605.0,0.492,0.577,-0.441,0.48
4628857,8119.0,928.0,-653.0,0.493,0.578,-0.441,0.479
4628873,8085.0,950.0,-569.0,0.493,0.578,-0.44,0.479
4628890,8191.0,1102.0,-567.0,0.493,0.579,-0.439,0.478
4628906,8209.0,1032.0,-679.0,0.493,0.58,-0.439,0.478
4628922,8277.0,1116.0,-789.0,0.493,0.58,-0.438,0.478
4628938,8255.0,1126.0,-735.0,0.493,0.581,-0.438,0.478
4628965,8279.0,1000.0,-773.0,0.493,0.581,-0.437,0.477
4628981,8251.0,1150.0,-691.0,0.494,0.582,-0.436,0.477
4628997,8205.0,1138.0,-723.0,0.494,0.582,-0.436,0.476
4629013,8273.0,1094.0,-779.0,0.495,0.583,-0.436,0.476
4629030,8051.0,1056.0,-753.0,0.495,0.583,-0.435,0.475
4629047,8027.0,1116.0,-665.0,0.495,0.583,-0.435,0.474
4629063,7969.0,1080.0,-721.0,0.496,0.584,-0.435,0.473
4629080,7937.0,992.0,-743.0,0.495,0.584,-0.436,0.472
4629106,7893.0,1026.0,-735.0,0.495,0.585,-0.436,0.472
4629122,7821.0,1036.0,-775.0,0.494,0.585,-0.437,0.472
4629138,7667.0,1022.0,-669.0,0.493,0.585,-0.438,0.471
4629154,7493.0,1114.0,-621.0,0.492,0.585,-0.44,0.472
4629170,7533.0,1168.0,-559.0,0.489,0.586,-0.442,0.472
4629186,7423.0,1110.0,-565.0,0.487,0.586,-0.444,0.472
4629212,7389.0,1204.0,-521.0,0.484,0.586,-0.447,0.472
4629229,7409.0,1042.0,-485.0,0.48,0.585,-0.451,0.473
4629245,7579.0,1240.0,-581.0,0.476,0.585,-0.455,0.474
4629261,7639.0,1584.0,-741.0,0.472,0.584,-0.459,0.475
4629277,7913.0,2176.0,-469.0,0.467,0.583,-0.465,0.476
4629293,8081.0,2584.0,-99.0,0.462,0.581,-0.472,0.476
4629310,8749.0,2140.0,267.0,0.457,0.578,-0.482,0.474
4629336,10071.0,2114.0,719.0,0.452,0.574,-0.492,0.473
4629352,10711.0,1914.0,287.0,0.447,0.571,-0.503,0.471
4629368,10515.0,1282.0,385.0,0.442,0.568,-0.511,0.47
4629384,9899.0,992.0,929.0,0.437,0.566,-0.517,0.471
4629400,9491.0,1312.0,1405.0,0.433,0.565,-0.521,0.472
4629426,9611.0,2176.0,2185.0,0.431,0.564,-0.524,0.471
4629442,9519.0,2212.0,2301.0,0.431,0.563,-0.526,0.469
4629458,9415.0,2646.0,2089.0,0.432,0.563,-0.527,0.467
4629474,9827.0,3254.0,1767.0,0.434,0.563,-0.528,0.464
4629490,9693.0,3394.0,1707.0,0.44,0.561,-0.527,0.462
4629507,10413.0,2980.0,1963.0,0.448,0.558,-0.525,0.46
4629524,10771.0,4152.0,1941.0,0.457,0.555,-0.521,0.46
4629540,11005.0,3910.0,1923.0,0.468,0.55,-0.517,0.459
4629566,11381.0,3090.0,1535.0,0.482,0.545,-0.51,0.459
4629582,12611.0,2354.0,2387.0,0.498,0.539,-0.501,0.459
4629599,12515.0,1424.0,1315.0,0.517,0.533,-0.487,0.46
4629615,13073.0,4528.0,2043.0,0.537,0.526,-0.471,0.461
4629631,12777.0,4192.0,2487.0,0.559,0.519,-0.454,0.461
4629647,13801.0,3746.0,2577.0,0.581,0.511,-0.435,0.46
4629664,14147.0,3668.0,2095.0,0.603,0.503,-0.416,0.458
4629690,14239.0,3452.0,2269.0,0.626,0.495,-0.394,0.456
4629706,13609.0,4412.0,2291.0,0.648,0.486,-0.372,0.454
4629722,13681.0,4970.0,2317.0,0.669,0.476,-0.35,0.451
4629738,13165.0,4128.0,1757.0,0.69,0.465,-0.329,0.446
4629755,12885.0,3300.0,2093.0,0.711,0.454,-0.307,0.441
4629771,12063.0,3448.0,1937.0,0.731,0.443,-0.285,0.435
4629797,11027.0,3654.0,2167.0,0.749,0.432,-0.263,0.428
4629813,10483.0,3564.0,2279.0,0.766,0.421,-0.242,0.422
4629829,9939.0,3938.0,2191.0,0.782,0.41,-0.221,0.415
4629845,9505.0,3370.0,1853.0,0.797,0.398,-0.202,0.408
4629861,8633.0,3120.0,1725.0,0.811,0.385,-0.182,0.401
4629877,7603.0,3518.0,1709.0,0.823,0.374,-0.164,0.395
4629903,7045.0,2418.0,2091.0,0.835,0.362,-0.147,0.388
4629919,6285.0,2926.0,2067.0,0.845,0.351,-0.13,0.382
4629935,6199.0,3612.0,1651.0,0.854,0.34,-0.115,0.376
4629951,5869.0,3006.0,1343.0,0.863,0.328,-0.1,0.371
4629967,5389.0,2538.0,1441.0,0.871,0.315,-0.086,0.366
4629983,4891.0,1992.0,1495.0,0.879,0.303,-0.072,0.361
4630000,3657.0,2308.0,2005.0,0.886,0.292,-0.059,0.356
4630026,3135.0,2868.0,2115.0,0.892,0.282,-0.048,0.351
4630043,3011.0,2614.0,2261.0,0.898,0.271,-0.041,0.345
4630060,3161.0,1758.0,1911.0,0.903,0.262,-0.034,0.34
4630076,2883.0,580.0,2291.0,0.907,0.253,-0.028,0.334
4630092,2359.0,2.0,2355.0,0.911,0.248,-0.02,0.328
4630109,1769.0,-44.0,2423.0,0.915,0.244,-0.011,0.322
4630126,1021.0,1274.0,1459.0,0.917,0.242,-0.002,0.316
4630143,767.0,1826.0,939.0,0.92,0.237,0.008,0.311
4630159,-153.0,-1266.0,1627.0,0.923,0.231,0.017,0.307
4630186,-1795.0,-2868.0,1711.0,0.925,0.23,0.026,0.302
4630202,-1909.0,596.0,1241.0,0.926,0.232,0.034,0.297
4630218,-1841.0,808.0,1101.0,0.927,0.231,0.038,0.294
4630234,-2091.0,-1052.0,1075.0,0.927,0.232,0.04,0.292
4630251,-2371.0,-1340.0,845.0,0.927,0.234,0.04,0.291
4630267,-1607.0,-2.0,1257.0,0.926,0.238,0.038,0.29
4630283,-1379.0,-684.0,1649.0,0.925,0.243,0.033,0.29
4630310,-943.0,-126.0,1505.0,0.923,0.249,0.027,0.291
4630326,-659.0,-100.0,1369.0,0.921,0.256,0.019,0.292
4630343,85.0,970.0,1419.0,0.918,0.264,0.009,0.294
4630359,1165.0,1366.0,2133.0,0.915,0.271,-0.003,0.298
4630375,1347.0,-212.0,2257.0,0.912,0.279,-0.016,0.301
4630392,1877.0,852.0,2001.0,0.907,0.289,-0.029,0.305
4630409,2743.0,1536.0,2059.0,0.901,0.301,-0.042,0.309
4630426,3601.0,2952.0,2153.0,0.894,0.314,-0.057,0.313
4630453,4169.0,2832.0,2165.0,0.887,0.325,-0.073,0.319
4630469,4645.0,2574.0,2451.0,0.879,0.336,-0.091,0.325
4630485,5907.0,3298.0,2671.0,0.87,0.348,-0.109,0.332
4630501,6537.0,3420.0,2407.0,0.86,0.361,-0.128,0.339
4630517,7093.0,3118.0,2573.0,0.848,0.373,-0.147,0.346
4630533,7893.0,4170.0,2769.0,0.836,0.387,-0.165,0.353
4630549,8221.0,4556.0,2755.0,0.822,0.399,-0.184,0.361
4630575,8821.0,4372.0,2613.0,0.808,0.412,-0.204,0.368
4630591,9839.0,3684.0,2483.0,0.794,0.424,-0.223,0.375
4630607,10245.0,3724.0,2659.0,0.778,0.437,-0.24,0.382
4630624,10207.0,3552.0,2729.0,0.761,0.45,-0.257,0.389
4630640,10393.0,3758.0,2615.0,0.744,0.464,-0.273,0.396
4630657,11441.0,3396.0,4125.0,0.725,0.479,-0.289,0.403
4630674,11175.0,2720.0,1815.0,0.705,0.493,-0.303,0.411
4630700,12111.0,2890.0,847.0,0.683,0.508,-0.314,0.42
4630717,12149.0,5672.0,977.0,0.661,0.521,-0.324,0.432
4630733,11775.0,5040.0,791.0,0.64,0.531,-0.335,0.444
4630749,12069.0,3626.0,1355.0,0.618,0.54,-0.347,0.455
4630766,12845.0,2592.0,615.0,0.593,0.55,-0.359,0.466
4630782,13823.0,4638.0,47.0,0.568,0.559,-0.37,0.477
4630799,13251.0,4754.0,-147.0,0.544,0.566,-0.381,0.488
4630816,12597.0,3780.0,263.0,0.52,0.572,-0.394,0.498
4630832,12739.0,3482.0,-247.0,0.495,0.578,-0.405,0.506
4630859,13019.0,3494.0,-689.0,0.471,0.584,-0.416,0.513
4630877,12887.0,3166.0,-493.0,0.449,0.589,-0.426,0.52
4630893,12895.0,2916.0,-397.0,0.427,0.592,-0.435,0.527
4630909,12651.0,2768.0,-91.0,0.406,0.595,-0.443,0.534
4630926,12057.0,3226.0,-41.0,0.384,0.598,-0.451,0.54
4630942,11785.0,2676.0,-117.0,0.364,0.6,-0.458,0.546
4630959,11015.0,2544.0,203.0,0.345,0.601,-0.465,0.551
4630975,11129.0,3150.0,39.0,0.326,0.603,-0.471,0.555
4630992,10937.0,3168.0,-53.0,0.309,0.604,-0.478,0.558
4631019,10507.0,2660.0,59.0,0.294,0.605,-0.484,0.559
4631035,9963.0,2136.0,65.0,0.28,0.606,-0.49,0.56
4631051,9801.0,1656.0,65.0,0.268,0.607,-0.495,0.561
4631067,9269.0,2254.0,231.0,0.257,0.608,-0.498,0.562
4631083,9087.0,2978.0,539.0,0.247,0.61,-0.501,0.562
4631099,8541.0,2802.0,625.0,0.24,0.611,-0.504,0.562
4631115,8337.0,2736.0,705.0,0.235,0.612,-0.506,0.56
