timestamp,ax,ay,az,q0,q1,q2,q3
5521422,3786.0,4724.0,5114.0,0.864,0.393,-0.254,0.186
5521438,3286.0,4298.0,3884.0,0.863,0.394,-0.256,0.188
5521464,3778.0,4942.0,3912.0,0.863,0.392,-0.257,0.189
5521480,4050.0,5926.0,4368.0,0.864,0.388,-0.258,0.189
5521496,3968.0,5910.0,4592.0,0.867,0.382,-0.259,0.189
5521513,3962.0,5362.0,4588.0,0.87,0.374,-0.26,0.187
5521529,4402.0,4926.0,4150.0,0.874,0.366,-0.261,0.184
5521545,4826.0,4866.0,4146.0,0.878,0.358,-0.261,0.181
5521561,5230.0,4654.0,4484.0,0.883,0.349,-0.26,0.177
5521588,5732.0,5260.0,4768.0,0.888,0.338,-0.257,0.173
5521604,5764.0,5620.0,5278.0,0.895,0.326,-0.254,0.168
5521621,6410.0,4580.0,5820.0,0.901,0.314,-0.251,0.165
5521637,6604.0,5318.0,5620.0,0.907,0.301,-0.247,0.162
5521654,5706.0,6244.0,5606.0,0.912,0.287,-0.245,0.16
5521670,4912.0,4950.0,5754.0,0.917,0.272,-0.246,0.157
5521686,4954.0,3952.0,5714.0,0.92,0.259,-0.25,0.154
5521703,5050.0,3510.0,5296.0,0.923,0.246,-0.254,0.15
5521730,5048.0,2562.0,5488.0,0.926,0.233,-0.258,0.145
5521747,4896.0,2684.0,5532.0,0.929,0.222,-0.261,0.139
5521763,4450.0,2650.0,5596.0,0.933,0.211,-0.261,0.132
5521779,4172.0,2772.0,5660.0,0.936,0.199,-0.261,0.124
5521795,3866.0,2616.0,6076.0,0.94,0.187,-0.26,0.117
5521811,3298.0,1712.0,6754.0,0.944,0.174,-0.258,0.11
5521828,3648.0,1120.0,7242.0,0.947,0.162,-0.256,0.105
5521845,3776.0,1138.0,7224.0,0.95,0.153,-0.253,0.1
5521862,3316.0,1352.0,7180.0,0.953,0.144,-0.249,0.095
5521888,3302.0,1330.0,6890.0,0.956,0.136,-0.244,0.091
5521904,3220.0,620.0,7210.0,0.959,0.128,-0.239,0.087
5521920,3062.0,648.0,7256.0,0.961,0.121,-0.234,0.083
5521936,2614.0,624.0,7582.0,0.963,0.115,-0.229,0.081
5521953,2540.0,334.0,7770.0,0.965,0.111,-0.224,0.079
5521969,2226.0,728.0,7412.0,0.967,0.11,-0.219,0.077
5521995,1998.0,740.0,7354.0,0.968,0.109,-0.215,0.076
5522011,1922.0,478.0,7228.0,0.968,0.109,-0.211,0.075
5522027,2228.0,128.0,7428.0,0.969,0.109,-0.209,0.074
5522043,2646.0,102.0,8104.0,0.969,0.109,-0.208,0.073
5522059,3452.0,-94.0,9292.0,0.97,0.108,-0.207,0.074
5522075,4068.0,-1544.0,10002.0,0.97,0.106,-0.207,0.076
5522101,4022.0,-896.0,9094.0,0.97,0.105,-0.206,0.078
5522117,3540.0,164.0,7978.0,0.97,0.106,-0.205,0.079
5522133,3168.0,834.0,7050.0,0.97,0.106,-0.203,0.08
5522149,2982.0,1088.0,6788.0,0.97,0.106,-0.202,0.082
5522165,2814.0,1224.0,6816.0,0.97,0.107,-0.2,0.083
5522181,2676.0,1316.0,7092.0,0.97,0.108,-0.199,0.084
5522207,2832.0,1670.0,7320.0,0.97,0.11,-0.198,0.085
5522223,2864.0,1986.0,7734.0,0.97,0.112,-0.196,0.087
5522239,2972.0,1888.0,8182.0,0.971,0.114,-0.193,0.088
5522255,2990.0,1696.0,8296.0,0.971,0.115,-0.191,0.091
5522271,3038.0,1862.0,8040.0,0.971,0.116,-0.188,0.093
5522287,2902.0,2006.0,7526.0,0.971,0.116,-0.186,0.096
5522313,2848.0,1896.0,7202.0,0.971,0.116,-0.184,0.099
5522329,2810.0,1970.0,6922.0,0.971,0.115,-0.182,0.101
5522345,2562.0,2196.0,6730.0,0.972,0.113,-0.181,0.103
5522361,2514.0,1914.0,7048.0,0.972,0.11,-0.179,0.105
5522377,2322.0,1766.0,7470.0,0.972,0.107,-0.179,0.108
5522403,2482.0,1636.0,7722.0,0.972,0.104,-0.178,0.109
5522419,2552.0,1760.0,7774.0,0.972,0.101,-0.179,0.111
5522435,2666.0,1750.0,7760.0,0.973,0.098,-0.179,0.112
5522451,2798.0,1292.0,7782.0,0.973,0.095,-0.179,0.113
5522467,2746.0,1106.0,7776.0,0.973,0.092,-0.18,0.114
5522483,2874.0,694.0,7702.0,0.973,0.089,-0.18,0.114
5522509,2774.0,440.0,7598.0,0.973,0.087,-0.179,0.115
5522525,2728.0,478.0,7822.0,0.973,0.086,-0.178,0.116
5522541,2466.0,376.0,8060.0,0.974,0.086,-0.176,0.117
5522557,2314.0,766.0,8262.0,0.974,0.088,-0.173,0.117
5522574,2188.0,1156.0,8354.0,0.974,0.092,-0.17,0.118
5522590,2088.0,1416.0,8226.0,0.974,0.096,-0.167,0.119
5522606,2002.0,1520.0,8002.0,0.974,0.099,-0.164,0.12
5522632,1916.0,1676.0,7746.0,0.974,0.103,-0.162,0.121
5522648,1820.0,1732.0,7616.0,0.974,0.106,-0.159,0.121
5522664,1800.0,1780.0,7620.0,0.974,0.108,-0.157,0.122
5522680,1886.0,1978.0,7698.0,0.974,0.11,-0.155,0.122
5522696,1896.0,1988.0,7768.0,0.974,0.112,-0.154,0.122
5522712,1948.0,2036.0,7802.0,0.974,0.112,-0.153,0.122
5522738,1960.0,1948.0,7874.0,0.974,0.113,-0.151,0.121
5522754,1964.0,1852.0,7840.0,0.975,0.113,-0.151,0.12
5522770,1980.0,1642.0,7732.0,0.975,0.112,-0.15,0.119
5522786,2018.0,1580.0,7716.0,0.975,0.112,-0.15,0.118
5522802,2252.0,1382.0,7830.0,0.975,0.111,-0.15,0.117
5522818,2226.0,1410.0,7718.0,0.976,0.11,-0.151,0.115
5522844,2398.0,1192.0,7744.0,0.976,0.109,-0.152,0.114
5522860,2534.0,892.0,7808.0,0.976,0.107,-0.152,0.112
5522876,2628.0,736.0,7870.0,0.976,0.106,-0.153,0.111
5522892,2616.0,642.0,7794.0,0.976,0.106,-0.153,0.11
5522908,3148.0,300.0,8416.0,0.976,0.107,-0.153,0.11
5522924,2396.0,664.0,7476.0,0.976,0.109,-0.153,0.109
5522951,2448.0,1144.0,7462.0,0.976,0.111,-0.153,0.108
5522967,2524.0,1022.0,7624.0,0.976,0.113,-0.153,0.108
5522983,2730.0,1272.0,7864.0,0.976,0.115,-0.153,0.108
5522999,2734.0,1416.0,8018.0,0.975,0.117,-0.153,0.108
5523015,2782.0,1430.0,8114.0,0.975,0.118,-0.153,0.109
5523031,2854.0,1502.0,8050.0,0.975,0.12,-0.153,0.11
5523057,2772.0,1610.0,7844.0,0.975,0.121,-0.152,0.112
5523073,2698.0,1698.0,7700.0,0.974,0.122,-0.151,0.113
5523089,2642.0,1638.0,7552.0,0.974,0.123,-0.15,0.114
5523105,2368.0,1980.0,7540.0,0.974,0.124,-0.149,0.115
5523121,2324.0,1800.0,7638.0,0.974,0.125,-0.148,0.116
5523137,2298.0,1698.0,7734.0,0.974,0.125,-0.147,0.117
5523163,2224.0,1736.0,7698.0,0.974,0.126,-0.147,0.118
5523179,2270.0,1712.0,7752.0,0.974,0.126,-0.146,0.118
5523195,2220.0,1732.0,7710.0,0.974,0.126,-0.146,0.119
5523211,2200.0,1706.0,7638.0,0.974,0.126,-0.146,0.12
5523227,2256.0,1662.0,7546.0,0.974,0.126,-0.147,0.121
5523243,2320.0,1586.0,7654.0,0.974,0.125,-0.147,0.122
5523269,2352.0,1622.0,7712.0,0.973,0.124,-0.148,0.123
5523285,2356.0,1508.0,7744.0,0.973,0.123,-0.149,0.124
5523301,2204.0,1470.0,7710.0,0.973,0.122,-0.15,0.124
5523317,2136.0,1382.0,7692.0,0.973,0.121,-0.151,0.126
5523333,2192.0,1350.0,7680.0,0.973,0.12,-0.153,0.127
5523349,2150.0,1494.0,7650.0,0.972,0.12,-0.154,0.128
5523375,2108.0,1572.0,7596.0,0.972,0.119,-0.156,0.129
5523391,2120.0,1696.0,7684.0,0.972,0.118,-0.157,0.13
5523407,2086.0,1714.0,7630.0,0.972,0.117,-0.159,0.13
5523423,2234.0,1560.0,7698.0,0.971,0.115,-0.161,0.131
5523439,2186.0,1526.0,7622.0,0.971,0.114,-0.163,0.131
5523455,2326.0,1692.0,7654.0,0.971,0.113,-0.166,0.131
5523481,2450.0,1700.0,7780.0,0.971,0.112,-0.169,0.131
5523497,2368.0,1458.0,7778.0,0.97,0.11,-0.171,0.13
5523513,2364.0,1346.0,7618.0,0.97,0.109,-0.175,0.13
5523529,2616.0,1188.0,7658.0,0.97,0.107,-0.178,0.129
5523545,2766.0,960.0,7848.0,0.969,0.107,-0.181,0.129
5523571,2884.0,1168.0,7982.0,0.969,0.107,-0.184,0.128
5523587,2880.0,784.0,8136.0,0.968,0.107,-0.187,0.127
5523603,2934.0,678.0,8238.0,0.967,0.11,-0.19,0.127
5523619,3104.0,740.0,8100.0,0.966,0.114,-0.193,0.127
5523636,3094.0,628.0,7924.0,0.965,0.118,-0.195,0.127
5523652,3204.0,1228.0,7694.0,0.964,0.124,-0.197,0.127
5523668,3200.0,1378.0,7728.0,0.963,0.131,-0.199,0.128
5523694,3448.0,1468.0,7752.0,0.961,0.137,-0.201,0.128
5523711,3840.0,896.0,7876.0,0.96,0.144,-0.204,0.129
5523728,3524.0,1928.0,7506.0,0.958,0.153,-0.205,0.13
5523745,3534.0,1666.0,7602.0,0.956,0.162,-0.206,0.132
5523762,3610.0,1448.0,7596.0,0.954,0.173,-0.206,0.135
5523778,3678.0,1488.0,7916.0,0.951,0.184,-0.206,0.138
5523795,3792.0,1968.0,7584.0,0.949,0.196,-0.206,0.14
5523811,3534.0,2420.0,7326.0,0.946,0.207,-0.205,0.143
5523827,3468.0,2438.0,7432.0,0.944,0.217,-0.204,0.145
5523853,3454.0,3294.0,7000.0,0.941,0.227,-0.202,0.149
5523869,3252.0,3412.0,6944.0,0.938,0.237,-0.201,0.154
5523885,3444.0,3724.0,6646.0,0.935,0.245,-0.2,0.161
5523901,3390.0,3686.0,6218.0,0.932,0.253,-0.199,0.168
5523917,3430.0,3970.0,5872.0,0.928,0.261,-0.198,0.177
5523933,3362.0,3966.0,5866.0,0.924,0.269,-0.197,0.185
5523959,3460.0,4328.0,5806.0,0.92,0.277,-0.195,0.195
5523976,3474.0,4102.0,5886.0,0.916,0.284,-0.194,0.204
5523992,3474.0,4424.0,5986.0,0.912,0.291,-0.192,0.214
5524008,3474.0,4848.0,5918.0,0.909,0.298,-0.191,0.223
5524025,3722.0,4232.0,5940.0,0.905,0.303,-0.19,0.231
5524043,3570.0,4380.0,6148.0,0.902,0.307,-0.189,0.239
5524059,3290.0,4472.0,6214.0,0.899,0.311,-0.188,0.246
5524085,3288.0,4672.0,6018.0,0.896,0.313,-0.188,0.252
5524101,3514.0,4660.0,5942.0,0.894,0.315,-0.188,0.258
5524117,3804.0,4156.0,6294.0,0.892,0.317,-0.189,0.261
5524133,4446.0,3204.0,6380.0,0.891,0.319,-0.188,0.264
5524149,4372.0,4132.0,6274.0,0.89,0.322,-0.186,0.265
5524165,3912.0,5586.0,5522.0,0.889,0.325,-0.183,0.266
5524181,4290.0,4780.0,5940.0,0.888,0.327,-0.181,0.268
5524207,4480.0,4400.0,6308.0,0.887,0.328,-0.179,0.27
5524223,4432.0,4220.0,6180.0,0.887,0.33,-0.176,0.271
5524240,4500.0,4606.0,6314.0,0.886,0.333,-0.174,0.273
5524256,4262.0,4870.0,6012.0,0.885,0.336,-0.171,0.275
5524272,3968.0,4660.0,5974.0,0.883,0.338,-0.169,0.276
5524288,4470.0,4108.0,5408.0,0.882,0.342,-0.167,0.277
5524314,4208.0,4374.0,5196.0,0.881,0.346,-0.164,0.279
5524330,3698.0,5110.0,5274.0,0.879,0.351,-0.162,0.28
5524346,4094.0,3990.0,5242.0,0.877,0.355,-0.16,0.281
5524362,4084.0,4448.0,5096.0,0.875,0.36,-0.159,0.281
5524378,4160.0,4182.0,4820.0,0.874,0.362,-0.16,0.28
5524394,4000.0,3970.0,4738.0,0.874,0.364,-0.161,0.279
5524421,3840.0,3740.0,4932.0,0.874,0.365,-0.163,0.278
5524437,3698.0,3650.0,4952.0,0.873,0.366,-0.164,0.277
5524453,3526.0,3852.0,5032.0,0.873,0.366,-0.166,0.276
5524469,3260.0,3586.0,5270.0,0.873,0.366,-0.167,0.276
5524486,2988.0,3858.0,5360.0,0.873,0.366,-0.169,0.276
5524503,3088.0,3992.0,5322.0,0.873,0.365,-0.17,0.277
5524519,2962.0,4210.0,5548.0,0.873,0.363,-0.171,0.277
5524535,3120.0,4210.0,5680.0,0.873,0.362,-0.172,0.278
5524561,3254.0,4240.0,5702.0,0.874,0.359,-0.173,0.279
5524577,3268.0,4454.0,5592.0,0.874,0.356,-0.175,0.28
5524593,3332.0,3890.0,5840.0,0.875,0.352,-0.177,0.28
5524609,3320.0,4018.0,5900.0,0.876,0.348,-0.179,0.281
5524625,3292.0,3900.0,5522.0,0.877,0.345,-0.181,0.282
5524641,3470.0,3706.0,5446.0,0.877,0.342,-0.185,0.283
5524667,3548.0,3832.0,6028.0,0.877,0.338,-0.189,0.284
5524683,3732.0,4160.0,6442.0,0.877,0.335,-0.193,0.285
5524699,3994.0,3778.0,6936.0,0.877,0.333,-0.197,0.285
5524715,4148.0,4748.0,7098.0,0.877,0.33,-0.201,0.286
5524731,4194.0,4654.0,7004.0,0.877,0.327,-0.204,0.286
5524747,4246.0,3870.0,6898.0,0.878,0.324,-0.208,0.285
5524773,4254.0,3490.0,6768.0,0.879,0.32,-0.211,0.283
5524790,4146.0,3430.0,6476.0,0.88,0.317,-0.214,0.281
5524806,3974.0,3112.0,6288.0,0.881,0.314,-0.216,0.279
5524822,3760.0,3012.0,6130.0,0.882,0.312,-0.218,0.277
5524838,3710.0,3032.0,5974.0,0.883,0.311,-0.221,0.275
5524854,3672.0,3006.0,5788.0,0.882,0.312,-0.223,0.273
5524871,3954.0,2896.0,5592.0,0.882,0.313,-0.227,0.271
5524897,4096.0,2928.0,5878.0,0.88,0.316,-0.23,0.268
5524913,4158.0,3544.0,6204.0,0.879,0.319,-0.233,0.266
5524929,4736.0,3608.0,6314.0,0.878,0.322,-0.236,0.264
5524945,4756.0,4010.0,6200.0,0.877,0.326,-0.238,0.262
5524961,4646.0,3834.0,5756.0,0.875,0.329,-0.241,0.26
5524987,4508.0,3770.0,5342.0,0.873,0.333,-0.244,0.258
5525003,4580.0,3850.0,5084.0,0.871,0.337,-0.249,0.255
5525020,4800.0,3722.0,5012.0,0.87,0.34,-0.254,0.251
5525036,5198.0,2942.0,4836.0,0.868,0.344,-0.259,0.247
5525052,5416.0,3120.0,4876.0,0.866,0.349,-0.263,0.243
5525068,5606.0,4140.0,4970.0,0.864,0.355,-0.266,0.239
5525084,5524.0,5060.0,5328.0,0.862,0.36,-0.268,0.235
5525110,5490.0,5464.0,5186.0,0.862,0.362,-0.27,0.23
5525126,5516.0,5100.0,4940.0,0.863,0.363,-0.271,0.225
5525142,5538.0,4894.0,4674.0,0.865,0.361,-0.271,0.22
5525158,5574.0,5318.0,4354.0,0.867,0.358,-0.27,0.215
5525174,5346.0,5252.0,4532.0,0.872,0.352,-0.27,0.208
5525190,5198.0,3786.0,5288.0,0.876,0.346,-0.269,0.202
5525216,4716.0,3312.0,5194.0,0.88,0.34,-0.267,0.196
5525232,4492.0,4304.0,4426.0,0.883,0.336,-0.265,0.191
5525248,4326.0,6010.0,3934.0,0.888,0.329,-0.263,0.185
5525264,4202.0,5648.0,4214.0,0.894,0.318,-0.261,0.178
5525281,4022.0,5316.0,4884.0,0.901,0.305,-0.258,0.171
5525297,3904.0,2632.0,5328.0,0.907,0.293,-0.255,0.165
5525323,3824.0,2174.0,5506.0,0.911,0.284,-0.251,0.161
5525339,3554.0,2238.0,5630.0,0.915,0.279,-0.246,0.158
5525355,3318.0,2602.0,5862.0,0.917,0.275,-0.241,0.157
5525371,3198.0,2854.0,6068.0,0.919,0.273,-0.237,0.157
5525387,3006.0,3090.0,5828.0,0.92,0.272,-0.232,0.158
5525403,3078.0,3236.0,5838.0,0.921,0.272,-0.228,0.16
5525429,3330.0,3306.0,5832.0,0.921,0.273,-0.224,0.162
5525446,3118.0,3232.0,6048.0,0.922,0.274,-0.221,0.165
5525462,3110.0,2938.0,6626.0,0.921,0.276,-0.217,0.167
5525479,3054.0,2976.0,7054.0,0.92,0.279,-0.215,0.171
5525495,3424.0,3540.0,7202.0,0.918,0.285,-0.212,0.173
5525511,3910.0,4108.0,7168.0,0.916,0.292,-0.21,0.176
5525527,4312.0,5496.0,7408.0,0.915,0.297,-0.208,0.177
5525553,4314.0,5746.0,7772.0,0.915,0.3,-0.206,0.176
5525569,4712.0,5396.0,8028.0,0.915,0.301,-0.204,0.174
5525585,4708.0,5072.0,7940.0,0.916,0.3,-0.202,0.171
5525601,4454.0,5124.0,7422.0,0.918,0.298,-0.2,0.168
5525617,4128.0,4856.0,6806.0,0.92,0.294,-0.198,0.165
5525633,3976.0,4440.0,6238.0,0.923,0.289,-0.197,0.161
5525659,3896.0,3774.0,5682.0,0.925,0.283,-0.197,0.157
5525675,4004.0,3166.0,5264.0,0.928,0.278,-0.196,0.152
5525691,3706.0,2846.0,5338.0,0.93,0.272,-0.196,0.148
5525707,3694.0,2378.0,5528.0,0.933,0.266,-0.197,0.144
5525723,3568.0,1828.0,5876.0,0.934,0.262,-0.197,0.141
5525739,3368.0,1828.0,6074.0,0.935,0.26,-0.196,0.139
5525765,3224.0,2530.0,6262.0,0.936,0.26,-0.195,0.137
5525781,3202.0,3724.0,6614.0,0.936,0.261,-0.194,0.136
5525797,3280.0,4158.0,6888.0,0.936,0.263,-0.192,0.136
5525813,3556.0,4152.0,6864.0,0.935,0.265,-0.19,0.137
5525829,3838.0,4170.0,6840.0,0.935,0.268,-0.187,0.138
5525845,3888.0,4250.0,6868.0,0.935,0.27,-0.182,0.139
5525871,3660.0,4220.0,6878.0,0.936,0.271,-0.177,0.141
5525887,3476.0,4212.0,6974.0,0.936,0.271,-0.17,0.143
5525903,3052.0,4098.0,7142.0,0.937,0.271,-0.164,0.146
5525919,2768.0,4012.0,6996.0,0.938,0.271,-0.159,0.149
5525935,2608.0,3926.0,6656.0,0.938,0.271,-0.154,0.153
5525951,2684.0,3806.0,6342.0,0.938,0.271,-0.15,0.157
5525977,2826.0,3574.0,6288.0,0.938,0.27,-0.146,0.161
5525993,2818.0,3464.0,6360.0,0.938,0.268,-0.143,0.164
5526009,2856.0,3446.0,6488.0,0.939,0.267,-0.139,0.167
5526025,2716.0,3504.0,6882.0,0.939,0.265,-0.136,0.17
5526041,2618.0,3358.0,7192.0,0.94,0.264,-0.134,0.172
5526057,2530.0,3444.0,7144.0,0.94,0.263,-0.131,0.174
5526083,2446.0,3764.0,7028.0,0.94,0.263,-0.129,0.176
5526099,2588.0,3692.0,7090.0,0.94,0.263,-0.127,0.177
5526115,2510.0,3558.0,7140.0,0.94,0.264,-0.125,0.178
5526131,2490.0,3560.0,7236.0,0.94,0.264,-0.123,0.178
5526147,2372.0,3648.0,7296.0,0.94,0.265,-0.121,0.178
5526163,2238.0,3746.0,7138.0,0.94,0.267,-0.118,0.177
5526189,1972.0,4002.0,6748.0,0.94,0.27,-0.116,0.177
5526205,1780.0,4226.0,6578.0,0.939,0.272,-0.113,0.176
5526221,1844.0,3752.0,6502.0,0.939,0.274,-0.111,0.176
5526237,1812.0,3502.0,6438.0,0.939,0.276,-0.109,0.175
5526253,1884.0,3644.0,6598.0,0.939,0.277,-0.107,0.175
5526279,1912.0,3788.0,6888.0,0.939,0.277,-0.106,0.175
5526295,1954.0,3872.0,7158.0,0.939,0.277,-0.104,0.175
5526311,2168.0,4044.0,7266.0,0.939,0.277,-0.103,0.176
5526327,2296.0,4100.0,7370.0,0.939,0.277,-0.101,0.177
5526343,2268.0,4370.0,7290.0,0.939,0.276,-0.099,0.178
5526359,2374.0,4302.0,7180.0,0.94,0.274,-0.097,0.18
5526385,2466.0,4246.0,7092.0,0.94,0.272,-0.095,0.181
5526401,2370.0,4184.0,6902.0,0.941,0.269,-0.092,0.183
5526417,2252.0,3978.0,6870.0,0.942,0.266,-0.09,0.184
5526433,2094.0,3694.0,6822.0,0.943,0.263,-0.087,0.186
5526449,2024.0,3558.0,6846.0,0.943,0.261,-0.085,0.187
5526465,1926.0,3608.0,6828.0,0.944,0.259,-0.083,0.189
5526491,1846.0,3494.0,6864.0,0.944,0.257,-0.082,0.191
5526508,1796.0,3452.0,6852.0,0.944,0.257,-0.081,0.192
5526524,1786.0,3604.0,6768.0,0.944,0.257,-0.08,0.193
5526540,1726.0,3770.0,6710.0,0.943,0.258,-0.079,0.194
5526556,1674.0,3702.0,6734.0,0.943,0.259,-0.079,0.194
5526573,1704.0,3708.0,6820.0,0.942,0.26,-0.078,0.195
5526590,1688.0,3614.0,6744.0,0.942,0.262,-0.077,0.195
5526606,1672.0,3610.0,6674.0,0.941,0.265,-0.077,0.195
5526632,1634.0,3816.0,6708.0,0.94,0.268,-0.076,0.195
5526648,1592.0,3872.0,6756.0,0.939,0.272,-0.075,0.195
5526664,1604.0,4032.0,6826.0,0.938,0.276,-0.073,0.195
5526680,1596.0,4286.0,7010.0,0.937,0.281,-0.071,0.196
5526697,1634.0,4606.0,7202.0,0.936,0.286,-0.069,0.196
5526713,1764.0,4852.0,7530.0,0.934,0.29,-0.068,0.196
5526739,1812.0,5098.0,7482.0,0.933,0.294,-0.066,0.197
5526755,1750.0,4972.0,7282.0,0.932,0.297,-0.065,0.198
5526771,1692.0,4624.0,7096.0,0.931,0.298,-0.063,0.199
5526788,1572.0,4778.0,6916.0,0.931,0.3,-0.062,0.2
5526804,1576.0,4764.0,6720.0,0.931,0.3,-0.062,0.201
5526820,1634.0,4508.0,6530.0,0.93,0.3,-0.062,0.201
5526836,1678.0,4374.0,6366.0,0.931,0.299,-0.063,0.202
5526863,1698.0,4238.0,6344.0,0.931,0.298,-0.064,0.202
5526879,1734.0,4186.0,6354.0,0.931,0.296,-0.066,0.202
5526895,1816.0,4220.0,6516.0,0.932,0.294,-0.068,0.202
5526912,1908.0,4196.0,6662.0,0.932,0.292,-0.07,0.202
5526928,2000.0,4274.0,6846.0,0.933,0.29,-0.073,0.202
5526945,2062.0,4280.0,6950.0,0.933,0.287,-0.075,0.202
5526962,2126.0,4174.0,7034.0,0.934,0.285,-0.078,0.201
5526979,2174.0,4068.0,7086.0,0.935,0.283,-0.079,0.201
5526995,2120.0,4052.0,7070.0,0.935,0.281,-0.081,0.2
5527021,2124.0,4028.0,7048.0,0.935,0.28,-0.082,0.2
5527037,2138.0,3920.0,6938.0,0.936,0.279,-0.082,0.2
5527054,2062.0,3910.0,6930.0,0.936,0.278,-0.083,0.2
5527070,2112.0,3926.0,6902.0,0.936,0.279,-0.082,0.2
5527086,2052.0,4034.0,6858.0,0.936,0.279,-0.082,0.2
5527102,2056.0,4084.0,6780.0,0.935,0.28,-0.081,0.201
5527128,2024.0,4134.0,6802.0,0.935,0.281,-0.08,0.201
5527145,1950.0,4230.0,6804.0,0.934,0.283,-0.08,0.201
5527162,1942.0,4312.0,6860.0,0.934,0.284,-0.079,0.202
5527178,1896.0,4302.0,6870.0,0.934,0.285,-0.078,0.203
5527195,1914.0,4260.0,6836.0,0.933,0.287,-0.077,0.203
5527212,1908.0,4346.0,6772.0,0.933,0.287,-0.076,0.204
5527229,1786.0,4360.0,6746.0,0.933,0.288,-0.075,0.204
5527245,1792.0,4326.0,6724.0,0.932,0.289,-0.074,0.205
5527262,1782.0,4344.0,6670.0,0.932,0.289,-0.074,0.205
5527279,1830.0,4286.0,6698.0,0.932,0.289,-0.074,0.206
5527305,1850.0,4310.0,6722.0,0.932,0.289,-0.074,0.206
5527321,1910.0,4264.0,6734.0,0.932,0.288,-0.075,0.206
5527337,1920.0,4224.0,6776.0,0.932,0.288,-0.075,0.206
5527353,1950.0,4206.0,6852.0,0.932,0.288,-0.075,0.207
5527369,2032.0,4262.0,6866.0,0.932,0.287,-0.076,0.207
5527385,1982.0,4168.0,6862.0,0.932,0.287,-0.076,0.206
5527411,1972.0,4134.0,6888.0,0.933,0.286,-0.077,0.206
5527428,1992.0,4112.0,6870.0,0.933,0.286,-0.077,0.206
5527445,2020.0,4112.0,6832.0,0.933,0.286,-0.077,0.206
5527461,2004.0,4034.0,6766.0,0.933,0.286,-0.077,0.206
5527478,2004.0,4014.0,6808.0,0.933,0.286,-0.077,0.206
5527495,2024.0,4074.0,6812.0,0.933,0.286,-0.077,0.206
5527511,2014.0,4112.0,6778.0,0.933,0.286,-0.077,0.207
5527528,2038.0,4156.0,6778.0,0.932,0.286,-0.077,0.207
5527545,2008.0,4184.0,6784.0,0.932,0.286,-0.077,0.207
5527571,1982.0,4162.0,6830.0,0.932,0.286,-0.076,0.207
5527587,1986.0,4238.0,6796.0,0.932,0.287,-0.076,0.208
5527603,1962.0,4134.0,6822.0,0.932,0.287,-0.076,0.208
5527619,1900.0,4242.0,6806.0,0.932,0.287,-0.076,0.208
5527635,1912.0,4230.0,6844.0,0.932,0.287,-0.075,0.209
5527651,1898.0,4240.0,6760.0,0.932,0.287,-0.075,0.209
5527677,1890.0,4226.0,6740.0,0.932,0.287,-0.075,0.209
5527694,1914.0,4248.0,6824.0,0.932,0.287,-0.075,0.21
5527711,1880.0,4182.0,6786.0,0.932,0.287,-0.075,0.21
5527728,1922.0,4264.0,6796.0,0.932,0.288,-0.074,0.21
5527745,1952.0,4234.0,6818.0,0.931,0.288,-0.074,0.21
5527761,1934.0,4276.0,6792.0,0.931,0.287,-0.074,0.21
5527777,1956.0,4206.0,6868.0,0.932,0.287,-0.074,0.21
5527793,1954.0,4202.0,6806.0,0.932,0.287,-0.074,0.21
5527810,1906.0,4170.0,6800.0,0.932,0.287,-0.074,0.21
5527827,1942.0,4138.0,6806.0,0.932,0.287,-0.074,0.21
5527854,1974.0,4188.0,6758.0,0.932,0.287,-0.074,0.211
5527870,1908.0,4160.0,6784.0,0.932,0.287,-0.074,0.211
5527886,1924.0,4130.0,6748.0,0.932,0.287,-0.074,0.211
5527902,2018.0,4220.0,6776.0,0.931,0.287,-0.074,0.211
5527918,2038.0,4216.0,6808.0,0.931,0.287,-0.074,0.211
5527934,2004.0,4174.0,6814.0,0.931,0.287,-0.074,0.211
5527960,1996.0,4194.0,6782.0,0.931,0.287,-0.074,0.211
5527977,1976.0,4170.0,6834.0,0.931,0.287,-0.074,0.212
5527994,1936.0,4160.0,6828.0,0.931,0.287,-0.074,0.212
5528011,1916.0,4188.0,6808.0,0.931,0.287,-0.074,0.212
5528027,1944.0,4188.0,6778.0,0.931,0.287,-0.074,0.212
5528043,1932.0,4138.0,6810.0,0.931,0.287,-0.074,0.212
5528060,1954.0,4172.0,6822.0,0.931,0.287,-0.074,0.212
5528077,1964.0,4184.0,6786.0,0.931,0.287,-0.074,0.212
5528094,1978.0,4194.0,6788.0,0.931,0.287,-0.074,0.212
5528111,2030.0,4146.0,6776.0,0.931,0.287,-0.074,0.212
5528128,1938.0,4208.0,6824.0,0.931,0.287,-0.074,0.212
5528155,1968.0,4182.0,6832.0,0.931,0.287,-0.074,0.212
5528171,1968.0,4164.0,6776.0,0.931,0.287,-0.074,0.213
5528187,1960.0,4188.0,6804.0,0.931,0.287,-0.073,0.213
5528203,1972.0,4160.0,6812.0,0.931,0.287,-0.073,0.213
5528219,1980.0,4224.0,6784.0,0.931,0.287,-0.073,0.213
5528235,1980.0,4204.0,6828.0,0.931,0.287,-0.073,0.213
5528261,1954.0,4190.0,6792.0,0.931,0.287,-0.073,0.213
5528278,1944.0,4174.0,6806.0,0.931,0.287,-0.073,0.213
5528295,1950.0,4206.0,6794.0,0.931,0.287,-0.073,0.213
5528311,1984.0,4190.0,6770.0,0.931,0.287,-0.073,0.214
5528328,1908.0,4184.0,6808.0,0.931,0.287,-0.073,0.214
5528345,1956.0,4176.0,6804.0,0.931,0.287,-0.072,0.214
5528361,1950.0,4218.0,6830.0,0.931,0.287,-0.072,0.214
5528378,1942.0,4188.0,6816.0,0.931,0.287,-0.072,0.214
5528394,1958.0,4250.0,6822.0,0.931,0.287,-0.072,0.214
5528411,1920.0,4286.0,6868.0,0.931,0.287,-0.072,0.214
5528438,1956.0,4266.0,6876.0,0.931,0.287,-0.072,0.214
5528454,1968.0,4230.0,6816.0,0.931,0.287,-0.072,0.214
5528470,1948.0,4238.0,6824.0,0.931,0.288,-0.072,0.214
5528487,1956.0,4174.0,6808.0,0.931,0.288,-0.072,0.214
5528503,1938.0,4148.0,6776.0,0.931,0.288,-0.072,0.214
5528519,1934.0,4170.0,6742.0,0.931,0.288,-0.072,0.214
5528535,1904.0,4172.0,6720.0,0.931,0.288,-0.073,0.214
5528561,1928.0,4228.0,6690.0,0.931,0.288,-0.073,0.214
5528578,1988.0,4186.0,6736.0,0.931,0.288,-0.073,0.214
5528594,2010.0,4168.0,6760.0,0.931,0.288,-0.073,0.214
5528611,2026.0,4220.0,6804.0,0.931,0.288,-0.073,0.214
5528627,1994.0,4190.0,6842.0,0.931,0.288,-0.073,0.215
5528643,2002.0,4208.0,6816.0,0.931,0.287,-0.073,0.215
5528660,2002.0,4200.0,6796.0,0.931,0.287,-0.073,0.215
5528686,1972.0,4162.0,6812.0,0.931,0.287,-0.073,0.215
5528702,1940.0,4148.0,6872.0,0.931,0.287,-0.073,0.216
5528718,1942.0,4142.0,6828.0,0.93,0.287,-0.073,0.216
5528734,1954.0,4160.0,6768.0,0.93,0.287,-0.073,0.216
5528750,1976.0,4204.0,6820.0,0.93,0.287,-0.073,0.216
5528766,1946.0,4186.0,6826.0,0.93,0.287,-0.073,0.216
5528792,2004.0,4144.0,6792.0,0.93,0.287,-0.073,0.216
5528808,1992.0,4222.0,6728.0,0.93,0.287,-0.073,0.216
5528824,2112.0,4410.0,6484.0,0.93,0.287,-0.074,0.216
5528841,2170.0,3538.0,7092.0,0.931,0.286,-0.074,0.214
5528857,2466.0,3584.0,7344.0,0.931,0.288,-0.074,0.212
5528873,1868.0,4250.0,7224.0,0.93,0.292,-0.073,0.21
5528889,1154.0,5420.0,5522.0,0.93,0.295,-0.072,0.207
5528915,1950.0,5302.0,6134.0,0.931,0.294,-0.074,0.204
5528931,1764.0,3798.0,6938.0,0.932,0.29,-0.077,0.201
5528947,2124.0,3850.0,7256.0,0.934,0.288,-0.08,0.197
5528963,2012.0,3924.0,7422.0,0.935,0.286,-0.083,0.192
5528979,1926.0,4088.0,7124.0,0.936,0.285,-0.086,0.187
5529005,2006.0,4170.0,6840.0,0.937,0.283,-0.09,0.183
5529021,2144.0,4212.0,6618.0,0.938,0.282,-0.093,0.179
5529037,2294.0,4148.0,6628.0,0.939,0.28,-0.095,0.176
5529053,2284.0,3668.0,7004.0,0.939,0.279,-0.098,0.174
5529069,2340.0,3678.0,6852.0,0.94,0.279,-0.099,0.172
5529086,2188.0,3944.0,6690.0,0.94,0.279,-0.1,0.17
5529102,2248.0,4150.0,6538.0,0.94,0.28,-0.099,0.17
5529128,2104.0,4314.0,6718.0,0.939,0.281,-0.098,0.17
5529144,2136.0,4294.0,6780.0,0.939,0.282,-0.098,0.171
5529161,2240.0,4166.0,6790.0,0.939,0.283,-0.096,0.172
5529177,1992.0,4410.0,6702.0,0.938,0.284,-0.095,0.173
5529194,2094.0,4426.0,6776.0,0.938,0.285,-0.094,0.174
5529211,2024.0,4258.0,6874.0,0.938,0.285,-0.093,0.175
5529227,2076.0,4200.0,6840.0,0.937,0.286,-0.093,0.176
5529244,2110.0,4500.0,6634.0,0.937,0.287,-0.093,0.176
5529270,2166.0,4742.0,6424.0,0.937,0.288,-0.093,0.176
5529286,2090.0,4390.0,6578.0,0.937,0.287,-0.095,0.176
5529302,2250.0,4002.0,6808.0,0.937,0.285,-0.096,0.176
5529318,2208.0,3940.0,6874.0,0.937,0.284,-0.097,0.176
5529334,2256.0,3824.0,7002.0,0.937,0.284,-0.098,0.177
5529350,2322.0,3826.0,7130.0,0.937,0.284,-0.099,0.177
5529376,2320.0,3922.0,7064.0,0.936,0.285,-0.1,0.179
5529393,2346.0,4226.0,6818.0,0.935,0.287,-0.1,0.18
5529410,2474.0,4222.0,6562.0,0.934,0.289,-0.1,0.182
5529427,2440.0,4338.0,6468.0,0.934,0.291,-0.1,0.184
5529443,2412.0,4360.0,6420.0,0.933,0.293,-0.099,0.187
5529459,2532.0,4364.0,6390.0,0.932,0.294,-0.098,0.189
5529476,2610.0,4288.0,6484.0,0.931,0.295,-0.097,0.192
5529493,2516.0,4198.0,6542.0,0.93,0.297,-0.096,0.195
5529510,2440.0,4150.0,6464.0,0.929,0.299,-0.094,0.198
5529527,2404.0,4288.0,6462.0,0.928,0.301,-0.092,0.201
5529544,2336.0,4368.0,6496.0,0.927,0.302,-0.091,0.204
5529571,2366.0,4346.0,6584.0,0.926,0.304,-0.089,0.207
5529587,2286.0,4336.0,6650.0,0.925,0.305,-0.087,0.21
5529603,2166.0,4330.0,6668.0,0.924,0.307,-0.086,0.213
5529619,2122.0,4520.0,6698.0,0.923,0.308,-0.085,0.216
5529635,2170.0,4452.0,6848.0,0.922,0.31,-0.084,0.218
5529651,2022.0,4420.0,6966.0,0.921,0.311,-0.084,0.221
5529677,2142.0,4392.0,6840.0,0.919,0.313,-0.084,0.223
5529694,2290.0,4360.0,6608.0,0.918,0.315,-0.085,0.225
5529710,2396.0,4488.0,6394.0,0.917,0.317,-0.085,0.226
5529727,2382.0,4550.0,6300.0,0.916,0.319,-0.086,0.228
5529744,2242.0,4556.0,6300.0,0.915,0.321,-0.086,0.229
5529760,2108.0,4536.0,6426.0,0.914,0.323,-0.087,0.23
5529776,2188.0,4572.0,6508.0,0.913,0.324,-0.088,0.23
5529793,2290.0,4424.0,6480.0,0.913,0.326,-0.09,0.23
5529810,2352.0,4450.0,6408.0,0.912,0.327,-0.091,0.229
5529836,2364.0,4574.0,6362.0,0.912,0.329,-0.092,0.229
5529852,2332.0,4684.0,6288.0,0.911,0.33,-0.094,0.229
5529868,2352.0,4610.0,6248.0,0.911,0.331,-0.095,0.228
5529884,2358.0,4602.0,6232.0,0.911,0.332,-0.096,0.227
5529900,2310.0,4612.0,6142.0,0.91,0.333,-0.097,0.227
5529916,2348.0,4738.0,6164.0,0.91,0.333,-0.097,0.227
5529942,2356.0,4760.0,6160.0,0.91,0.334,-0.098,0.226
5529959,2396.0,4784.0,6242.0,0.91,0.334,-0.099,0.226
5529976,2386.0,4862.0,6218.0,0.909,0.335,-0.1,0.226
5529993,2520.0,4844.0,6166.0,0.909,0.335,-0.101,0.226
5530009,2590.0,4908.0,6200.0,0.909,0.335,-0.102,0.227
5530026,2602.0,4846.0,6192.0,0.909,0.335,-0.104,0.227
5530043,2664.0,4856.0,6196.0,0.909,0.334,-0.105,0.227
5530059,2774.0,4810.0,6134.0,0.909,0.334,-0.106,0.227
5530077,2834.0,4822.0,6076.0,0.909,0.334,-0.107,0.227
5530094,2904.0,4766.0,6060.0,0.908,0.333,-0.109,0.228
5530120,2876.0,4706.0,6154.0,0.908,0.333,-0.11,0.228
5530136,2876.0,4636.0,6190.0,0.908,0.332,-0.112,0.228
5530152,2872.0,4592.0,6292.0,0.908,0.332,-0.113,0.228
5530168,2962.0,4590.0,6216.0,0.908,0.332,-0.115,0.227
5530184,2900.0,4504.0,6222.0,0.908,0.331,-0.116,0.227
5530200,2956.0,4484.0,6154.0,0.908,0.331,-0.118,0.227
5530226,2954.0,4518.0,6170.0,0.909,0.33,-0.119,0.226
5530243,2934.0,4476.0,6254.0,0.909,0.33,-0.121,0.226
5530260,2974.0,4366.0,6300.0,0.909,0.329,-0.122,0.226
5530277,2912.0,4312.0,6212.0,0.909,0.329,-0.123,0.225
5530293,2902.0,4348.0,6168.0,0.909,0.329,-0.125,0.225
5530310,2926.0,4360.0,6172.0,0.909,0.328,-0.126,0.225
5530327,2928.0,4366.0,6208.0,0.909,0.328,-0.127,0.225
5530343,2952.0,4340.0,6212.0,0.909,0.328,-0.128,0.225
5530360,2956.0,4390.0,6184.0,0.909,0.327,-0.128,0.226
5530377,2962.0,4426.0,6226.0,0.908,0.327,-0.129,0.226
5530403,2972.0,4456.0,6256.0,0.908,0.327,-0.129,0.226
5530419,2928.0,4424.0,6192.0,0.908,0.327,-0.129,0.227
5530435,2982.0,4478.0,6232.0,0.908,0.327,-0.129,0.227
5530451,2940.0,4522.0,6252.0,0.908,0.327,-0.129,0.227
5530467,2940.0,4514.0,6258.0,0.908,0.327,-0.13,0.228
5530483,2918.0,4568.0,6234.0,0.908,0.327,-0.13,0.228
5530509,2920.0,4516.0,6204.0,0.908,0.327,-0.13,0.228
5530526,2902.0,4518.0,6214.0,0.908,0.327,-0.13,0.228
5530543,2940.0,4512.0,6184.0,0.908,0.327,-0.13,0.228
5530559,3058.0,4568.0,6134.0,0.908,0.326,-0.131,0.228
5530576,3046.0,4618.0,6166.0,0.908,0.326,-0.131,0.228
5530593,3068.0,4654.0,6254.0,0.908,0.325,-0.132,0.228
5530610,3138.0,4622.0,6344.0,0.908,0.325,-0.134,0.228
5530627,3194.0,4398.0,6300.0,0.908,0.324,-0.135,0.228
5530643,3250.0,4364.0,6182.0,0.908,0.324,-0.137,0.228
5530660,3326.0,4374.0,6124.0,0.908,0.324,-0.139,0.228
5530677,3402.0,4368.0,6042.0,0.908,0.323,-0.141,0.227
5530704,3468.0,4236.0,6022.0,0.908,0.322,-0.142,0.227
5530720,3526.0,4206.0,5974.0,0.908,0.322,-0.144,0.226
5530736,3490.0,4108.0,5912.0,0.908,0.321,-0.145,0.226
5530752,3470.0,4108.0,5998.0,0.909,0.319,-0.145,0.226
5530768,3394.0,4146.0,6056.0,0.909,0.318,-0.145,0.226
5530784,3378.0,4196.0,6158.0,0.91,0.317,-0.145,0.226
5530810,3362.0,4184.0,6350.0,0.91,0.316,-0.145,0.226
5530827,3332.0,4194.0,6436.0,0.91,0.315,-0.145,0.226
5530844,3258.0,4194.0,6560.0,0.911,0.314,-0.145,0.227
5530861,3252.0,4198.0,6528.0,0.911,0.313,-0.145,0.227
5530878,3190.0,4120.0,6500.0,0.911,0.313,-0.145,0.227
5530894,3202.0,4154.0,6378.0,0.911,0.312,-0.145,0.228
5530910,3164.0,4164.0,6310.0,0.911,0.313,-0.144,0.228
5530926,3134.0,4188.0,6226.0,0.911,0.313,-0.144,0.228
5530943,3148.0,4204.0,6236.0,0.911,0.313,-0.143,0.228
5530960,3140.0,4202.0,6290.0,0.911,0.314,-0.142,0.228
5530986,3128.0,4258.0,6274.0,0.91,0.315,-0.142,0.228
5531002,3136.0,4262.0,6268.0,0.91,0.316,-0.141,0.227
5531018,3160.0,4402.0,6288.0,0.91,0.316,-0.14,0.227
5531034,3096.0,4394.0,6350.0,0.91,0.317,-0.139,0.227
5531050,3128.0,4384.0,6318.0,0.911,0.317,-0.138,0.227
5531067,3090.0,4410.0,6208.0,0.911,0.317,-0.137,0.227
5531093,3120.0,4446.0,6208.0,0.911,0.318,-0.136,0.226
5531110,3090.0,4472.0,6176.0,0.911,0.317,-0.135,0.226
5531127,3076.0,4378.0,6180.0,0.911,0.317,-0.135,0.226
5531144,3164.0,4342.0,6192.0,0.912,0.317,-0.134,0.225
5531160,3138.0,4332.0,6222.0,0.912,0.316,-0.134,0.225
5531177,3152.0,4358.0,6258.0,0.912,0.316,-0.134,0.225
5531193,3150.0,4318.0,6282.0,0.913,0.315,-0.133,0.224
5531210,3126.0,4280.0,6294.0,0.913,0.315,-0.133,0.224
5531226,3102.0,4270.0,6300.0,0.913,0.314,-0.132,0.223
5531243,3110.0,4270.0,6314.0,0.914,0.314,-0.131,0.222
5531270,3084.0,4242.0,6304.0,0.914,0.314,-0.13,0.222
5531286,3056.0,4184.0,6306.0,0.914,0.314,-0.13,0.222
5531302,3068.0,4232.0,6296.0,0.914,0.314,-0.129,0.221
5531318,2972.0,4232.0,6310.0,0.915,0.314,-0.128,0.221
5531334,2976.0,4278.0,6394.0,0.915,0.314,-0.127,0.221
5531350,2950.0,4280.0,6394.0,0.915,0.313,-0.126,0.221
5531376,2962.0,4172.0,6484.0,0.915,0.313,-0.125,0.221
5531393,2936.0,4174.0,6454.0,0.915,0.313,-0.124,0.221
5531409,2946.0,4204.0,6366.0,0.915,0.314,-0.124,0.221
5531425,2888.0,4050.0,6534.0,0.915,0.314,-0.123,0.221
5531441,2960.0,3618.0,6994.0,0.915,0.314,-0.121,0.222
5531457,2644.0,3504.0,7466.0,0.914,0.316,-0.12,0.223
5531474,2522.0,3978.0,7316.0,0.913,0.32,-0.119,0.225
5531500,2354.0,4000.0,6938.0,0.91,0.325,-0.117,0.229
5531516,2790.0,4004.0,6634.0,0.907,0.333,-0.114,0.234
5531532,2944.0,3910.0,6002.0,0.902,0.341,-0.111,0.239
5531548,2916.0,3860.0,5554.0,0.899,0.349,-0.106,0.244
5531564,2890.0,4176.0,5666.0,0.895,0.356,-0.1,0.249
5531580,2832.0,4814.0,6014.0,0.891,0.363,-0.095,0.254
5531606,2866.0,4726.0,6232.0,0.888,0.369,-0.09,0.259
5531622,3000.0,4530.0,6004.0,0.884,0.376,-0.086,0.262
5531638,3050.0,4774.0,5482.0,0.88,0.384,-0.082,0.266
5531654,2742.0,5176.0,5040.0,0.877,0.392,-0.079,0.268
5531670,2874.0,5554.0,4990.0,0.873,0.399,-0.076,0.27
5531686,3000.0,5634.0,4958.0,0.869,0.406,-0.074,0.272
5531712,2932.0,5828.0,5014.0,0.866,0.413,-0.071,0.274
5531728,2844.0,5982.0,4970.0,0.862,0.42,-0.069,0.275
5531744,2902.0,6292.0,4830.0,0.859,0.426,-0.068,0.276
5531760,2948.0,6400.0,4662.0,0.856,0.431,-0.066,0.277
5531776,2910.0,6352.0,4602.0,0.854,0.435,-0.065,0.278
5531793,2890.0,6382.0,4590.0,0.852,0.439,-0.064,0.28
5531819,2942.0,6262.0,4632.0,0.85,0.441,-0.064,0.281
5531835,2910.0,6494.0,4508.0,0.848,0.444,-0.063,0.282
5531851,2834.0,6782.0,4332.0,0.847,0.446,-0.063,0.282
5531868,2946.0,6622.0,4424.0,0.846,0.447,-0.064,0.283
5531884,2976.0,6414.0,4518.0,0.846,0.447,-0.064,0.284
5531900,2968.0,6386.0,4484.0,0.846,0.447,-0.064,0.285
5531916,2890.0,6442.0,4510.0,0.846,0.446,-0.063,0.285
5531942,2832.0,6552.0,4490.0,0.846,0.445,-0.063,0.285
5531959,2760.0,6392.0,4652.0,0.847,0.443,-0.063,0.285
5531976,2644.0,6356.0,4732.0,0.849,0.441,-0.062,0.285
5531992,2580.0,6246.0,4858.0,0.85,0.439,-0.062,0.284
5532009,2592.0,6104.0,4926.0,0.852,0.436,-0.063,0.283
5532026,2564.0,6116.0,5030.0,0.854,0.433,-0.063,0.282
5532043,2530.0,6054.0,5068.0,0.855,0.431,-0.064,0.28
5532059,2534.0,5852.0,5194.0,0.857,0.428,-0.065,0.279
5532076,2482.0,5838.0,5252.0,0.859,0.425,-0.067,0.277
5532103,2548.0,5764.0,5310.0,0.861,0.422,-0.068,0.275
5532119,2612.0,5632.0,5352.0,0.863,0.419,-0.069,0.274
5532135,2688.0,5552.0,5330.0,0.865,0.416,-0.071,0.272
5532151,2618.0,5542.0,5380.0,0.866,0.414,-0.072,0.27
5532167,2770.0,5462.0,5420.0,0.868,0.411,-0.074,0.269
5532183,2820.0,5354.0,5432.0,0.869,0.409,-0.075,0.268
5532199,2822.0,5366.0,5416.0,0.871,0.406,-0.077,0.267
5532225,2860.0,5394.0,5444.0,0.872,0.404,-0.078,0.266
5532242,2944.0,5306.0,5408.0,0.873,0.402,-0.079,0.265
5532259,2972.0,5286.0,5442.0,0.874,0.399,-0.079,0.264
5532276,2936.0,5318.0,5444.0,0.875,0.397,-0.08,0.263
5532293,3000.0,5284.0,5554.0,0.876,0.396,-0.081,0.263
5532309,2990.0,5144.0,5608.0,0.877,0.394,-0.081,0.262
5532326,2974.0,5176.0,5654.0,0.878,0.393,-0.081,0.262
5532342,2994.0,5220.0,5668.0,0.878,0.392,-0.081,0.262
5532368,2952.0,5240.0,5642.0,0.879,0.391,-0.081,0.262
5532384,2884.0,5166.0,5702.0,0.879,0.39,-0.081,0.261
5532400,2864.0,5228.0,5728.0,0.879,0.39,-0.08,0.261
5532417,2824.0,5130.0,5722.0,0.879,0.39,-0.08,0.261
5532433,2794.0,5120.0,5668.0,0.879,0.39,-0.079,0.261
5532449,2714.0,5156.0,5708.0,0.879,0.391,-0.079,0.261
5532465,2740.0,5180.0,5668.0,0.879,0.392,-0.078,0.261
5532491,2662.0,5298.0,5614.0,0.878,0.392,-0.077,0.262
5532508,2708.0,5254.0,5630.0,0.878,0.393,-0.076,0.262
5532525,2698.0,5390.0,5600.0,0.878,0.394,-0.075,0.262
5532542,2696.0,5366.0,5582.0,0.877,0.395,-0.075,0.262
5532558,2686.0,5480.0,5534.0,0.877,0.397,-0.074,0.263
5532574,2648.0,5514.0,5514.0,0.876,0.398,-0.073,0.263
5532591,2644.0,5490.0,5534.0,0.876,0.399,-0.072,0.263
5532608,2646.0,5520.0,5530.0,0.875,0.4,-0.071,0.264
5532624,2612.0,5518.0,5512.0,0.874,0.401,-0.07,0.264
5532651,2720.0,5456.0,5598.0,0.874,0.402,-0.07,0.264
5532667,2684.0,5340.0,5602.0,0.873,0.404,-0.069,0.264
5532683,2646.0,5128.0,5466.0,0.872,0.406,-0.068,0.264
5532699,2858.0,4970.0,5710.0,0.871,0.41,-0.066,0.265
5532715,2554.0,4858.0,5708.0,0.869,0.413,-0.064,0.265
5532731,2502.0,5342.0,5820.0,0.867,0.418,-0.06,0.266
5532757,2590.0,5554.0,5782.0,0.864,0.424,-0.057,0.267
5532774,2830.0,6050.0,5274.0,0.86,0.43,-0.053,0.268
5532791,3110.0,5770.0,4950.0,0.856,0.438,-0.049,0.269
5532808,3052.0,5634.0,4888.0,0.852,0.445,-0.044,0.271
5532825,3050.0,5886.0,5056.0,0.848,0.453,-0.039,0.272
5532842,2912.0,5860.0,4806.0,0.844,0.461,-0.034,0.273
5532859,3104.0,5644.0,4764.0,0.839,0.47,-0.028,0.274
5532876,3182.0,6064.0,4418.0,0.833,0.48,-0.022,0.274
5532893,2978.0,6688.0,4062.0,0.827,0.49,-0.017,0.275
5532909,2944.0,6392.0,3962.0,0.821,0.499,-0.012,0.277
5532925,2830.0,6394.0,4006.0,0.815,0.508,-0.007,0.278
5532952,2968.0,6908.0,3676.0,0.81,0.516,-0.004,0.28
5532968,3264.0,5886.0,3988.0,0.804,0.523,-0.002,0.283
5532984,3562.0,5720.0,3904.0,0.798,0.53,-0.001,0.286
5533000,3982.0,5166.0,3474.0,0.792,0.537,0.0,0.29
5533016,4134.0,4620.0,3550.0,0.785,0.545,0.002,0.296
5533032,4140.0,5030.0,3096.0,0.777,0.553,0.005,0.302
5533058,4254.0,5166.0,2416.0,0.768,0.561,0.006,0.309
5533075,4188.0,5374.0,2096.0,0.76,0.568,0.008,0.317
5533092,4004.0,5056.0,2310.0,0.752,0.574,0.009,0.325
5533109,4098.0,5254.0,2224.0,0.743,0.58,0.009,0.334
5533125,4192.0,5082.0,2160.0,0.734,0.586,0.009,0.344
5533142,4476.0,5686.0,2198.0,0.723,0.594,0.01,0.354
5533159,4818.0,6554.0,2344.0,0.709,0.604,0.015,0.364
5533175,4520.0,7380.0,1522.0,0.694,0.614,0.021,0.375
5533192,4576.0,6554.0,1188.0,0.679,0.624,0.028,0.386
5533208,4464.0,6068.0,876.0,0.663,0.634,0.036,0.397
5533234,4474.0,6658.0,404.0,0.648,0.642,0.043,0.409
5533250,4510.0,6766.0,0.0,0.633,0.648,0.048,0.421
5533266,4682.0,6834.0,-88.0,0.62,0.652,0.052,0.433
5533282,4664.0,6814.0,-142.0,0.608,0.655,0.055,0.445
5533298,4704.0,6780.0,-178.0,0.598,0.656,0.057,0.458
5533324,4636.0,6866.0,-46.0,0.588,0.656,0.057,0.47
5533341,4488.0,6900.0,-622.0,0.579,0.655,0.055,0.482
5533358,4708.0,6884.0,-220.0,0.571,0.654,0.051,0.494
5533375,4754.0,6902.0,-128.0,0.563,0.652,0.046,0.506
5533392,4864.0,6682.0,-60.0,0.556,0.65,0.039,0.516
5533409,4988.0,6878.0,-122.0,0.55,0.648,0.031,0.526
5533425,4952.0,7014.0,-72.0,0.543,0.646,0.021,0.536
5533442,5228.0,6730.0,8.0,0.538,0.644,0.009,0.544
5533458,5520.0,6332.0,92.0,0.533,0.641,-0.003,0.552
5533474,5718.0,6542.0,154.0,0.528,0.639,-0.016,0.558
5533491,5882.0,6584.0,308.0,0.524,0.637,-0.03,0.564
5533518,5964.0,6064.0,424.0,0.52,0.635,-0.044,0.57
5533534,6146.0,6098.0,600.0,0.516,0.633,-0.058,0.574
5533550,6302.0,5918.0,752.0,0.512,0.63,-0.072,0.579
5533566,6390.0,6168.0,890.0,0.508,0.628,-0.086,0.583
5533582,6504.0,5594.0,1048.0,0.505,0.626,-0.101,0.586
5533608,6762.0,5346.0,1204.0,0.501,0.624,-0.116,0.588
5533625,6818.0,5362.0,1060.0,0.497,0.623,-0.131,0.59
5533642,6922.0,4780.0,1104.0,0.493,0.621,-0.146,0.592
5533659,7132.0,4788.0,1086.0,0.489,0.619,-0.161,0.592
5533675,7118.0,4398.0,1154.0,0.486,0.618,-0.177,0.593
5533692,7134.0,4120.0,1152.0,0.483,0.615,-0.192,0.592
5533709,7440.0,3772.0,1188.0,0.481,0.613,-0.207,0.592
5533726,7248.0,3412.0,1500.0,0.478,0.611,-0.223,0.591
5533742,7432.0,3356.0,1238.0,0.475,0.609,-0.238,0.589
5533759,7372.0,3010.0,1090.0,0.472,0.606,-0.254,0.587
5533775,7394.0,2768.0,934.0,0.469,0.604,-0.27,0.585
5533792,7468.0,2264.0,1228.0,0.466,0.601,-0.286,0.583
5533818,7410.0,2038.0,1198.0,0.462,0.599,-0.302,0.581
5533834,7842.0,2312.0,1096.0,0.458,0.597,-0.318,0.577
5533850,8258.0,2260.0,828.0,0.453,0.595,-0.334,0.573
5533866,8728.0,2034.0,822.0,0.448,0.594,-0.351,0.568
5533882,8646.0,1612.0,486.0,0.444,0.593,-0.367,0.563
5533908,9146.0,1408.0,418.0,0.44,0.591,-0.382,0.559
5533924,9196.0,1256.0,328.0,0.436,0.589,-0.395,0.554
5533941,9294.0,1310.0,346.0,0.433,0.587,-0.408,0.549
5533957,9398.0,1210.0,172.0,0.431,0.585,-0.419,0.544
5533973,9346.0,1038.0,298.0,0.43,0.583,-0.429,0.539
5533989,9228.0,1106.0,252.0,0.43,0.582,-0.437,0.534
5534015,9046.0,1104.0,110.0,0.432,0.58,-0.444,0.529
5534031,8880.0,964.0,360.0,0.434,0.578,-0.45,0.524
5534047,8834.0,756.0,352.0,0.438,0.577,-0.455,0.519
5534063,8532.0,814.0,446.0,0.441,0.575,-0.459,0.514
5534079,8614.0,754.0,332.0,0.445,0.574,-0.461,0.509
5534095,8602.0,478.0,282.0,0.449,0.573,-0.463,0.505
5534111,8454.0,376.0,256.0,0.453,0.572,-0.464,0.502
5534137,8446.0,946.0,274.0,0.456,0.572,-0.464,0.499
5534153,8244.0,842.0,254.0,0.46,0.571,-0.465,0.497
5534169,8416.0,588.0,50.0,0.463,0.57,-0.465,0.495
5534185,8300.0,80.0,-128.0,0.465,0.569,-0.465,0.494
5534201,8168.0,362.0,-50.0,0.468,0.568,-0.463,0.494
5534217,8400.0,716.0,-346.0,0.47,0.568,-0.462,0.494
5534243,8746.0,598.0,-594.0,0.472,0.568,-0.46,0.494
5534259,8710.0,550.0,-872.0,0.474,0.567,-0.457,0.495
5534275,8050.0,784.0,-626.0,0.476,0.567,-0.455,0.495
5534291,7824.0,230.0,-132.0,0.477,0.567,-0.454,0.494
5534308,7786.0,360.0,-382.0,0.478,0.568,-0.453,0.494
5534325,7922.0,516.0,-796.0,0.478,0.569,-0.452,0.493
5534342,7878.0,106.0,-986.0,0.478,0.57,-0.451,0.493
5534368,7784.0,418.0,-762.0,0.477,0.571,-0.45,0.493
5534384,7642.0,200.0,-614.0,0.476,0.571,-0.45,0.494
5534400,7760.0,520.0,-802.0,0.475,0.572,-0.45,0.495
5534416,8012.0,82.0,-906.0,0.474,0.572,-0.45,0.496
5534432,8124.0,152.0,-998.0,0.472,0.573,-0.449,0.497
5534448,8060.0,354.0,-904.0,0.471,0.573,-0.449,0.498
5534474,8110.0,502.0,-956.0,0.47,0.574,-0.448,0.499
5534491,8116.0,346.0,-1010.0,0.469,0.574,-0.448,0.499
5534508,8288.0,260.0,-966.0,0.468,0.574,-0.448,0.5
5534525,8184.0,362.0,-952.0,0.467,0.575,-0.448,0.501
5534541,8122.0,316.0,-952.0,0.465,0.575,-0.448,0.502
5534558,8070.0,500.0,-1036.0,0.463,0.576,-0.449,0.502
5534575,8206.0,268.0,-1168.0,0.461,0.577,-0.45,0.502
5534592,8162.0,284.0,-1222.0,0.459,0.577,-0.451,0.502
5534608,8076.0,412.0,-1184.0,0.457,0.578,-0.452,0.502
5534625,7944.0,260.0,-1214.0,0.455,0.579,-0.453,0.502
5534642,8056.0,356.0,-1300.0,0.453,0.58,-0.455,0.501
5534668,7794.0,364.0,-1302.0,0.451,0.581,-0.457,0.5
5534684,7800.0,104.0,-1312.0,0.449,0.582,-0.459,0.499
5534701,7792.0,404.0,-1202.0,0.447,0.582,-0.461,0.499
5534717,7826.0,388.0,-1368.0,0.444,0.583,-0.464,0.497
5534733,7940.0,226.0,-1336.0,0.442,0.584,-0.467,0.496
5534749,7970.0,498.0,-1334.0,0.439,0.584,-0.47,0.495
5534775,7968.0,378.0,-1322.0,0.436,0.585,-0.473,0.494
5534791,8024.0,474.0,-1248.0,0.433,0.586,-0.476,0.492
5534808,8050.0,304.0,-1214.0,0.43,0.586,-0.48,0.491
5534825,8102.0,514.0,-1194.0,0.427,0.587,-0.483,0.489
5534842,8066.0,464.0,-1132.0,0.423,0.588,-0.487,0.488
5534859,8022.0,440.0,-1292.0,0.42,0.589,-0.491,0.486
5534876,8111.0,544.0,-1061.0,0.416,0.59,-0.494,0.484
5534892,7989.0,384.0,-913.0,0.413,0.59,-0.498,0.482
5534909,7745.0,568.0,-713.0,0.41,0.591,-0.501,0.48
5534925,7823.0,580.0,-595.0,0.407,0.592,-0.505,0.478
5534952,7851.0,596.0,-691.0,0.404,0.593,-0.508,0.476
5534968,7927.0,754.0,-599.0,0.401,0.594,-0.511,0.474
5534984,8049.0,732.0,-481.0,0.399,0.594,-0.513,0.473
5535000,8067.0,660.0,-181.0,0.398,0.595,-0.515,0.472
5535016,7863.0,1314.0,213.0,0.397,0.595,-0.517,0.47
5535032,7905.0,1358.0,371.0,0.397,0.595,-0.519,0.469
5535058,8269.0,1462.0,461.0,0.397,0.595,-0.52,0.467
5535074,8679.0,1692.0,739.0,0.398,0.594,-0.522,0.464
5535091,8873.0,1668.0,1187.0,0.4,0.594,-0.524,0.461
5535108,9173.0,2008.0,1543.0,0.402,0.594,-0.525,0.457
5535125,9529.0,1440.0,2247.0,0.404,0.595,-0.527,0.453
5535141,10089.0,1244.0,1999.0,0.407,0.595,-0.527,0.451
5535158,10485.0,3088.0,1575.0,0.41,0.595,-0.526,0.449
5535175,10565.0,3046.0,2291.0,0.417,0.592,-0.526,0.447
5535191,10661.0,1598.0,2913.0,0.425,0.589,-0.524,0.445
5535208,11299.0,1960.0,2817.0,0.433,0.586,-0.52,0.445
5535235,11835.0,3012.0,3043.0,0.444,0.583,-0.515,0.445
5535251,13153.0,2768.0,3077.0,0.456,0.579,-0.509,0.444
5535267,13537.0,2088.0,3149.0,0.471,0.574,-0.501,0.445
5535284,13815.0,3252.0,2589.0,0.487,0.568,-0.49,0.447
5535300,14007.0,4290.0,2577.0,0.505,0.56,-0.479,0.45
5535316,14049.0,3610.0,2715.0,0.525,0.548,-0.467,0.453
5535332,14297.0,2974.0,2645.0,0.546,0.535,-0.454,0.458
5535358,14859.0,4122.0,2063.0,0.567,0.521,-0.438,0.462
5535374,14867.0,4314.0,2053.0,0.59,0.506,-0.422,0.467
5535391,14807.0,4154.0,1937.0,0.613,0.488,-0.404,0.471
5535408,14925.0,4168.0,1551.0,0.636,0.47,-0.386,0.475
5535425,14669.0,4246.0,1139.0,0.66,0.449,-0.366,0.478
5535441,13835.0,4120.0,1537.0,0.684,0.427,-0.346,0.48
5535458,13127.0,3454.0,1983.0,0.706,0.405,-0.325,0.481
5535474,12825.0,3608.0,1541.0,0.727,0.382,-0.305,0.482
5535500,12143.0,3906.0,627.0,0.747,0.359,-0.285,0.482
5535516,11323.0,3694.0,1539.0,0.766,0.333,-0.267,0.481
5535532,9715.0,2902.0,1511.0,0.782,0.308,-0.248,0.481
5535548,9217.0,3116.0,2485.0,0.796,0.285,-0.232,0.481
5535564,8761.0,2030.0,2219.0,0.808,0.263,-0.216,0.481
5535590,8869.0,2342.0,1611.0,0.818,0.243,-0.2,0.482
5535607,8461.0,2278.0,1189.0,0.826,0.225,-0.184,0.483
5535624,6749.0,2552.0,1641.0,0.834,0.205,-0.168,0.484
5535641,6579.0,1062.0,2163.0,0.841,0.186,-0.153,0.485
5535658,5955.0,320.0,2457.0,0.846,0.169,-0.138,0.486
5535675,5521.0,1304.0,1997.0,0.851,0.155,-0.124,0.487
5535692,4785.0,2106.0,1781.0,0.854,0.14,-0.11,0.488
5535708,4887.0,510.0,2249.0,0.857,0.125,-0.099,0.489
5535724,4117.0,-746.0,2793.0,0.86,0.112,-0.087,0.489
5535741,3033.0,144.0,2333.0,0.863,0.102,-0.074,0.489
5535758,2461.0,480.0,2115.0,0.865,0.092,-0.063,0.489
5535785,1901.0,-88.0,1953.0,0.867,0.082,-0.054,0.489
5535801,1725.0,-774.0,2239.0,0.869,0.074,-0.045,0.488
5535817,503.0,-792.0,1395.0,0.87,0.067,-0.036,0.487
5535833,-73.0,-418.0,1663.0,0.871,0.06,-0.029,0.486
5535849,-509.0,-3230.0,1873.0,0.873,0.054,-0.022,0.485
5535865,-1317.0,-2208.0,1057.0,0.874,0.053,-0.014,0.483
5535881,-1029.0,-88.0,-147.0,0.875,0.052,-0.007,0.481
5535907,-1501.0,-584.0,-273.0,0.875,0.048,-0.002,0.481
5535924,-1891.0,-2954.0,305.0,0.876,0.047,0.002,0.48
5535941,-1923.0,-2362.0,419.0,0.877,0.049,0.005,0.477
5535958,-1943.0,-2230.0,267.0,0.878,0.056,0.006,0.475
5535975,-1389.0,-1130.0,329.0,0.879,0.064,0.004,0.472
5535991,-993.0,-860.0,611.0,0.88,0.075,-0.0,0.469
5536008,-299.0,-1380.0,1007.0,0.88,0.087,-0.007,0.467
5536024,561.0,-890.0,1171.0,0.88,0.102,-0.015,0.465
5536041,1583.0,228.0,1331.0,0.878,0.118,-0.025,0.463
5536058,2493.0,464.0,1605.0,0.876,0.134,-0.036,0.461
5536084,2963.0,46.0,2249.0,0.874,0.152,-0.048,0.459
5536100,3563.0,910.0,2253.0,0.87,0.172,-0.061,0.458
5536116,4323.0,1388.0,2437.0,0.866,0.193,-0.075,0.456
5536132,4883.0,1502.0,2605.0,0.86,0.214,-0.089,0.455
5536148,4903.0,2500.0,2709.0,0.852,0.237,-0.104,0.455
5536174,5679.0,3698.0,3093.0,0.843,0.261,-0.121,0.455
5536191,6603.0,2922.0,3185.0,0.832,0.284,-0.14,0.456
5536208,7211.0,2706.0,3855.0,0.82,0.308,-0.159,0.456
5536224,8243.0,2900.0,3597.0,0.806,0.332,-0.176,0.457
5536241,8923.0,3448.0,3165.0,0.792,0.356,-0.191,0.457
5536257,9735.0,4058.0,3127.0,0.777,0.38,-0.205,0.458
5536274,10557.0,3998.0,3533.0,0.762,0.401,-0.219,0.459
5536292,10429.0,4242.0,3369.0,0.747,0.42,-0.232,0.461
5536308,10999.0,4736.0,3821.0,0.731,0.438,-0.245,0.463
5536324,11569.0,2116.0,4209.0,0.714,0.456,-0.256,0.466
5536341,12243.0,2824.0,3765.0,0.695,0.476,-0.265,0.469
5536367,12323.0,3436.0,3183.0,0.675,0.496,-0.271,0.474
5536383,12567.0,4822.0,1991.0,0.655,0.514,-0.276,0.481
5536399,13029.0,6338.0,1685.0,0.634,0.529,-0.281,0.489
5536415,11815.0,6622.0,1451.0,0.614,0.539,-0.289,0.499
