timestamp,ax,ay,az,q0,q1,q2,q3
6666178,4665.0,4872.0,5770.0,0.872,0.402,-0.21,0.184
6666194,4961.0,4254.0,5990.0,0.873,0.401,-0.209,0.184
6666210,4627.0,4126.0,5276.0,0.873,0.4,-0.208,0.185
6666236,4377.0,4548.0,4826.0,0.874,0.399,-0.207,0.186
6666252,4393.0,5026.0,4742.0,0.875,0.395,-0.206,0.186
6666268,4375.0,4916.0,4838.0,0.877,0.392,-0.206,0.186
6666285,4321.0,4754.0,4952.0,0.879,0.387,-0.206,0.186
6666301,4331.0,4584.0,5140.0,0.881,0.382,-0.207,0.186
6666317,4371.0,4642.0,5336.0,0.883,0.378,-0.208,0.185
6666343,4373.0,4548.0,5574.0,0.885,0.373,-0.208,0.185
6666359,4429.0,4166.0,6008.0,0.887,0.367,-0.209,0.184
6666375,4473.0,3112.0,6592.0,0.89,0.362,-0.21,0.184
6666391,4319.0,2320.0,6910.0,0.891,0.358,-0.21,0.184
6666407,4261.0,1624.0,6860.0,0.892,0.357,-0.209,0.185
6666423,3699.0,2746.0,6412.0,0.891,0.357,-0.207,0.187
6666449,3561.0,3038.0,6192.0,0.89,0.359,-0.206,0.189
6666465,3405.0,3544.0,5914.0,0.889,0.363,-0.204,0.191
6666481,3329.0,3944.0,5738.0,0.887,0.368,-0.202,0.193
6666497,3217.0,4558.0,5520.0,0.884,0.374,-0.199,0.195
6666513,3257.0,5002.0,5374.0,0.881,0.381,-0.197,0.198
6666529,3461.0,5192.0,5376.0,0.879,0.387,-0.195,0.201
6666555,3545.0,5468.0,5274.0,0.876,0.393,-0.193,0.203
6666572,3633.0,5642.0,5292.0,0.874,0.398,-0.19,0.206
6666588,3687.0,5644.0,5344.0,0.871,0.402,-0.188,0.208
6666604,3813.0,5634.0,5318.0,0.87,0.406,-0.186,0.21
6666620,3709.0,5680.0,5286.0,0.868,0.409,-0.184,0.212
6666636,3813.0,5460.0,5248.0,0.867,0.411,-0.182,0.214
6666662,3711.0,5422.0,5076.0,0.867,0.412,-0.181,0.216
6666678,3751.0,5334.0,5006.0,0.866,0.412,-0.18,0.217
6666695,3737.0,5218.0,5060.0,0.867,0.412,-0.179,0.218
6666711,3691.0,5212.0,5146.0,0.867,0.41,-0.179,0.218
6666728,3733.0,4972.0,5244.0,0.868,0.409,-0.179,0.218
6666745,3757.0,4902.0,5372.0,0.869,0.407,-0.179,0.218
6666761,3719.0,4840.0,5470.0,0.869,0.406,-0.18,0.218
6666777,3703.0,4716.0,5594.0,0.87,0.404,-0.179,0.219
6666803,3629.0,4478.0,5686.0,0.87,0.403,-0.179,0.219
6666820,3583.0,4318.0,5748.0,0.87,0.403,-0.179,0.219
6666837,3573.0,4478.0,5630.0,0.87,0.404,-0.178,0.22
6666853,3559.0,4658.0,5472.0,0.869,0.406,-0.178,0.221
6666870,3651.0,4786.0,5368.0,0.868,0.407,-0.177,0.222
6666887,3669.0,4848.0,5346.0,0.867,0.409,-0.176,0.223
6666903,3671.0,4978.0,5334.0,0.867,0.41,-0.176,0.223
6666919,3645.0,5108.0,5362.0,0.866,0.411,-0.176,0.224
6666936,3765.0,5098.0,5352.0,0.865,0.412,-0.176,0.224
6666962,3757.0,5208.0,5282.0,0.865,0.413,-0.176,0.225
6666979,3737.0,5254.0,5234.0,0.865,0.413,-0.177,0.225
6666995,3769.0,5112.0,5152.0,0.864,0.413,-0.177,0.226
6667012,3779.0,5022.0,5178.0,0.864,0.413,-0.178,0.226
6667028,3799.0,4858.0,5204.0,0.864,0.413,-0.178,0.226
6667044,3737.0,4662.0,5272.0,0.864,0.412,-0.178,0.227
6667060,3689.0,4618.0,5320.0,0.864,0.413,-0.178,0.227
6667077,3605.0,4902.0,5338.0,0.864,0.413,-0.178,0.228
6667104,3597.0,4908.0,5420.0,0.863,0.413,-0.179,0.228
6667120,3727.0,4572.0,5484.0,0.863,0.414,-0.179,0.229
6667136,3833.0,4548.0,5512.0,0.862,0.415,-0.18,0.229
6667153,3881.0,4966.0,5364.0,0.861,0.416,-0.181,0.23
6667169,3997.0,5008.0,5296.0,0.86,0.418,-0.181,0.23
6667185,4077.0,4990.0,5208.0,0.859,0.42,-0.182,0.231
6667202,4125.0,5072.0,5052.0,0.858,0.421,-0.182,0.231
6667228,4121.0,5102.0,5016.0,0.857,0.422,-0.182,0.232
6667245,4083.0,5260.0,4924.0,0.857,0.423,-0.181,0.232
6667261,4129.0,5354.0,4924.0,0.856,0.424,-0.181,0.233
6667278,4067.0,5330.0,4910.0,0.856,0.425,-0.18,0.233
6667295,3985.0,5308.0,4948.0,0.856,0.425,-0.18,0.233
6667311,3969.0,5328.0,4954.0,0.856,0.425,-0.179,0.233
6667328,3949.0,5304.0,5008.0,0.856,0.425,-0.179,0.234
6667345,3891.0,5256.0,5034.0,0.857,0.424,-0.178,0.234
6667361,3837.0,5162.0,5052.0,0.857,0.423,-0.177,0.234
6667387,3825.0,5148.0,5068.0,0.858,0.423,-0.177,0.234
6667403,3769.0,5042.0,5200.0,0.858,0.422,-0.176,0.234
6667419,3695.0,5048.0,5214.0,0.859,0.421,-0.176,0.234
6667436,3707.0,4892.0,5280.0,0.859,0.42,-0.175,0.234
6667452,3701.0,4778.0,5290.0,0.859,0.419,-0.175,0.234
6667469,3725.0,4848.0,5338.0,0.86,0.419,-0.175,0.235
6667485,3647.0,4858.0,5330.0,0.86,0.419,-0.175,0.235
6667511,3765.0,4916.0,5272.0,0.859,0.419,-0.175,0.235
6667527,3771.0,4932.0,5264.0,0.859,0.419,-0.175,0.236
6667544,3929.0,4874.0,5272.0,0.859,0.419,-0.175,0.236
6667561,3939.0,4954.0,5242.0,0.859,0.419,-0.176,0.236
6667578,3927.0,5044.0,5160.0,0.859,0.419,-0.176,0.237
6667594,3893.0,5124.0,5106.0,0.858,0.42,-0.176,0.237
6667610,3973.0,5162.0,5096.0,0.858,0.42,-0.176,0.237
6667626,3921.0,5066.0,5120.0,0.858,0.42,-0.176,0.238
6667652,3947.0,5070.0,5112.0,0.858,0.42,-0.175,0.238
6667668,3867.0,5116.0,5128.0,0.858,0.42,-0.175,0.238
6667684,3789.0,5076.0,5196.0,0.858,0.42,-0.174,0.238
6667701,3768.0,5139.0,5193.0,0.858,0.42,-0.174,0.239
6667721,3750.0,5084.0,5173.0,0.858,0.42,-0.174,0.239
6667737,3764.0,4993.0,5212.0,0.858,0.419,-0.173,0.239
6667753,3778.0,4950.0,5216.0,0.858,0.419,-0.173,0.239
6667769,3752.0,5025.0,5195.0,0.858,0.419,-0.173,0.239
6667786,3699.0,4964.0,5149.0,0.858,0.419,-0.173,0.24
6667812,3675.0,5020.0,5210.0,0.858,0.42,-0.172,0.24
6667828,3776.0,5090.0,5204.0,0.858,0.42,-0.173,0.24
6667844,3810.0,5025.0,5191.0,0.858,0.42,-0.173,0.241
6667860,3843.0,4995.0,5174.0,0.858,0.42,-0.173,0.241
6667876,3863.0,5001.0,5156.0,0.858,0.42,-0.174,0.241
6667892,3925.0,5015.0,5174.0,0.857,0.42,-0.174,0.241
6667918,3939.0,5045.0,5138.0,0.857,0.42,-0.174,0.241
6667935,4005.0,5059.0,5056.0,0.857,0.421,-0.174,0.242
6667951,3985.0,5023.0,5106.0,0.857,0.421,-0.175,0.242
6667968,3997.0,4995.0,5126.0,0.857,0.421,-0.175,0.242
6667984,4067.0,5061.0,5078.0,0.857,0.421,-0.174,0.242
6668001,3995.0,4967.0,5080.0,0.857,0.421,-0.174,0.243
6668017,3983.0,4967.0,5088.0,0.857,0.421,-0.173,0.243
6668034,3947.0,5047.0,5136.0,0.857,0.421,-0.173,0.243
6668060,3917.0,5101.0,5136.0,0.856,0.422,-0.172,0.243
6668077,3827.0,5135.0,5056.0,0.856,0.422,-0.171,0.244
6668093,3745.0,5195.0,5134.0,0.857,0.422,-0.17,0.244
6668109,3719.0,5107.0,5200.0,0.857,0.422,-0.169,0.244
6668125,3707.0,5053.0,5188.0,0.857,0.422,-0.169,0.245
6668141,3757.0,5097.0,5136.0,0.857,0.422,-0.168,0.245
6668157,3715.0,5045.0,5178.0,0.857,0.422,-0.168,0.245
6668184,3715.0,5177.0,5148.0,0.857,0.422,-0.168,0.245
6668200,3775.0,5095.0,5144.0,0.857,0.422,-0.168,0.245
6668216,3753.0,4943.0,5158.0,0.857,0.422,-0.168,0.245
6668233,3801.0,5067.0,5150.0,0.857,0.422,-0.168,0.245
6668250,3819.0,5141.0,5138.0,0.856,0.422,-0.168,0.246
6668267,3843.0,5049.0,5132.0,0.856,0.422,-0.168,0.246
6668283,3859.0,5061.0,5110.0,0.856,0.422,-0.168,0.246
6668300,3897.0,5101.0,5092.0,0.856,0.422,-0.168,0.246
6668317,3905.0,5165.0,5108.0,0.856,0.422,-0.168,0.246
6668343,3883.0,5099.0,5108.0,0.856,0.423,-0.168,0.246
6668359,3895.0,5159.0,5096.0,0.856,0.423,-0.168,0.247
6668375,3905.0,5191.0,5094.0,0.856,0.423,-0.168,0.247
6668391,3891.0,5063.0,5126.0,0.856,0.423,-0.168,0.247
6668407,3863.0,5161.0,5114.0,0.856,0.422,-0.167,0.247
6668423,3809.0,5189.0,5102.0,0.856,0.422,-0.167,0.247
6668449,3755.0,5149.0,5080.0,0.856,0.422,-0.167,0.248
6668466,3739.0,5103.0,5160.0,0.856,0.422,-0.168,0.248
6668483,3777.0,5007.0,5176.0,0.856,0.422,-0.168,0.248
6668499,3767.0,5059.0,5150.0,0.856,0.422,-0.168,0.248
6668515,3757.0,5141.0,5136.0,0.856,0.422,-0.168,0.248
6668531,3859.0,5119.0,5198.0,0.856,0.422,-0.168,0.249
6668548,3861.0,5049.0,5172.0,0.856,0.422,-0.169,0.249
6668564,3963.0,4967.0,5118.0,0.855,0.421,-0.169,0.249
6668591,4011.0,4999.0,5086.0,0.855,0.422,-0.169,0.249
6668608,4017.0,4979.0,5086.0,0.855,0.422,-0.169,0.25
6668624,4107.0,4945.0,5060.0,0.855,0.422,-0.168,0.25
6668641,4055.0,4943.0,5110.0,0.855,0.422,-0.168,0.25
6668658,4013.0,5027.0,5098.0,0.855,0.422,-0.167,0.25
6668674,4023.0,5029.0,5144.0,0.855,0.422,-0.166,0.25
6668691,4095.0,4995.0,5116.0,0.855,0.423,-0.164,0.251
6668708,3945.0,4989.0,4986.0,0.855,0.423,-0.162,0.251
6668724,3549.0,5625.0,4846.0,0.855,0.424,-0.16,0.251
6668741,3573.0,5293.0,5120.0,0.856,0.423,-0.16,0.251
6668767,3541.0,4977.0,5338.0,0.856,0.423,-0.159,0.251
6668784,3453.0,5175.0,5230.0,0.856,0.423,-0.158,0.252
6668800,3487.0,5355.0,5170.0,0.856,0.424,-0.158,0.252
6668817,3555.0,5273.0,5202.0,0.856,0.424,-0.158,0.252
6668833,3659.0,5219.0,5174.0,0.856,0.424,-0.158,0.252
6668850,3713.0,5163.0,5102.0,0.856,0.424,-0.158,0.252
6668866,3775.0,5147.0,5116.0,0.856,0.423,-0.159,0.252
6668883,3893.0,5109.0,5082.0,0.855,0.423,-0.159,0.252
6668909,3923.0,5047.0,5132.0,0.855,0.423,-0.159,0.253
6668926,3945.0,5129.0,5028.0,0.855,0.423,-0.159,0.253
6668943,3883.0,5121.0,5004.0,0.855,0.423,-0.159,0.253
6668959,3823.0,5131.0,5096.0,0.855,0.423,-0.158,0.254
6668975,3841.0,5027.0,5164.0,0.855,0.423,-0.158,0.254
6668992,3767.0,5129.0,5108.0,0.855,0.424,-0.158,0.254
6669008,3653.0,5199.0,5110.0,0.855,0.424,-0.158,0.255
6669024,3549.0,5345.0,5142.0,0.855,0.424,-0.157,0.255
6669050,3453.0,5293.0,5146.0,0.855,0.424,-0.158,0.256
6669067,3367.0,5107.0,5226.0,0.854,0.424,-0.159,0.256
6669084,3319.0,5131.0,5300.0,0.854,0.424,-0.16,0.257
6669101,3383.0,5149.0,5358.0,0.853,0.425,-0.161,0.258
6669117,3531.0,5187.0,5286.0,0.851,0.426,-0.163,0.259
6669133,3851.0,5105.0,5136.0,0.85,0.427,-0.165,0.26
6669149,4039.0,4963.0,5048.0,0.849,0.428,-0.168,0.261
6669175,4199.0,4843.0,4976.0,0.847,0.43,-0.169,0.262
6669192,4349.0,4903.0,4856.0,0.846,0.431,-0.171,0.263
6669208,4469.0,4815.0,4732.0,0.845,0.432,-0.172,0.263
6669224,4577.0,5015.0,4658.0,0.844,0.433,-0.173,0.263
6669241,4601.0,5175.0,4610.0,0.844,0.434,-0.173,0.264
6669257,4497.0,5171.0,4660.0,0.844,0.434,-0.172,0.264
6669274,4335.0,5153.0,4676.0,0.844,0.434,-0.172,0.264
6669290,4215.0,5167.0,4744.0,0.844,0.435,-0.171,0.264
6669317,4115.0,5243.0,4804.0,0.844,0.435,-0.17,0.264
6669334,4069.0,5421.0,4776.0,0.844,0.435,-0.169,0.264
6669351,3957.0,5397.0,4832.0,0.844,0.435,-0.169,0.264
6669367,3869.0,5363.0,4916.0,0.844,0.435,-0.168,0.264
6669383,3911.0,5357.0,5006.0,0.845,0.435,-0.168,0.264
6669400,3869.0,5245.0,5000.0,0.845,0.434,-0.168,0.264
6669416,3955.0,5201.0,4958.0,0.845,0.434,-0.168,0.264
6669433,3981.0,5181.0,4902.0,0.845,0.433,-0.168,0.264
6669449,4039.0,5079.0,4918.0,0.845,0.433,-0.168,0.264
6669475,3997.0,5033.0,4934.0,0.846,0.433,-0.168,0.264
6669491,4101.0,5017.0,4902.0,0.846,0.433,-0.167,0.264
6669507,4035.0,5033.0,4932.0,0.846,0.433,-0.167,0.264
6669523,4033.0,5113.0,4952.0,0.846,0.433,-0.167,0.264
6669539,4017.0,5131.0,4908.0,0.845,0.433,-0.166,0.265
6669555,3939.0,5157.0,4956.0,0.845,0.433,-0.166,0.265
6669581,3927.0,5219.0,4996.0,0.845,0.433,-0.166,0.265
6669597,3949.0,5251.0,4956.0,0.845,0.433,-0.166,0.266
6669614,3927.0,5307.0,4930.0,0.845,0.434,-0.166,0.266
6669631,3965.0,5263.0,4892.0,0.845,0.434,-0.166,0.266
6669648,4053.0,5297.0,4880.0,0.845,0.434,-0.166,0.267
6669665,4097.0,5179.0,4822.0,0.844,0.434,-0.166,0.267
6669681,4163.0,5203.0,4814.0,0.844,0.434,-0.166,0.267
6669697,4241.0,5113.0,4782.0,0.845,0.433,-0.166,0.267
6669724,4239.0,5067.0,4850.0,0.845,0.433,-0.166,0.267
6669741,4109.0,5153.0,4840.0,0.845,0.433,-0.165,0.267
6669757,3943.0,5113.0,4836.0,0.845,0.433,-0.164,0.267
6669774,3879.0,5085.0,4994.0,0.846,0.432,-0.164,0.267
6669790,3833.0,4993.0,5018.0,0.846,0.432,-0.163,0.267
6669806,3815.0,5217.0,5034.0,0.846,0.433,-0.163,0.268
6669822,3865.0,5285.0,5006.0,0.845,0.433,-0.162,0.268
6669848,3849.0,5211.0,5002.0,0.845,0.433,-0.162,0.268
6669864,3889.0,5249.0,4970.0,0.845,0.433,-0.162,0.268
6669880,3955.0,5285.0,4920.0,0.845,0.433,-0.162,0.268
6669897,3953.0,5297.0,4896.0,0.845,0.433,-0.162,0.268
6669914,4005.0,5133.0,4816.0,0.845,0.433,-0.162,0.269
6669931,3981.0,5283.0,4842.0,0.845,0.433,-0.162,0.269
6669947,4041.0,5185.0,4850.0,0.845,0.433,-0.162,0.269
6669963,4113.0,5141.0,4870.0,0.845,0.433,-0.162,0.269
6669989,4163.0,5113.0,4888.0,0.845,0.433,-0.162,0.269
6670005,4149.0,5197.0,4864.0,0.845,0.434,-0.161,0.269
6670022,4103.0,5197.0,4872.0,0.845,0.434,-0.16,0.269
6670039,4095.0,5171.0,4892.0,0.845,0.434,-0.16,0.269
6670056,4101.0,5225.0,4902.0,0.845,0.434,-0.158,0.269
6670073,4039.0,5219.0,4796.0,0.846,0.434,-0.157,0.269
6670089,3719.0,5321.0,4774.0,0.846,0.433,-0.156,0.269
6670105,3703.0,5337.0,4930.0,0.846,0.433,-0.154,0.269
6670122,3637.0,5269.0,5046.0,0.847,0.432,-0.154,0.269
6670148,3605.0,5231.0,5126.0,0.847,0.432,-0.153,0.269
6670164,3615.0,5223.0,5150.0,0.847,0.432,-0.153,0.269
6670180,3743.0,5327.0,5080.0,0.847,0.433,-0.153,0.269
6670196,3819.0,5363.0,4942.0,0.847,0.433,-0.153,0.269
6670212,3855.0,5227.0,4912.0,0.847,0.433,-0.153,0.269
6670228,3881.0,5197.0,4922.0,0.847,0.433,-0.153,0.269
6670254,3909.0,5229.0,4972.0,0.847,0.433,-0.153,0.269
6670270,3907.0,5161.0,4930.0,0.847,0.433,-0.153,0.27
6670286,3971.0,5129.0,4944.0,0.846,0.433,-0.152,0.27
6670302,3957.0,5213.0,4918.0,0.846,0.433,-0.152,0.27
6670318,3973.0,5223.0,4926.0,0.846,0.433,-0.152,0.27
6670334,3883.0,5227.0,4864.0,0.846,0.434,-0.152,0.271
6670360,3847.0,5237.0,4950.0,0.846,0.434,-0.151,0.271
6670376,3851.0,5261.0,4962.0,0.846,0.434,-0.151,0.271
6670392,3829.0,5391.0,4900.0,0.846,0.434,-0.151,0.271
6670408,3787.0,5319.0,4926.0,0.846,0.434,-0.15,0.272
6670424,3803.0,5351.0,4862.0,0.845,0.435,-0.15,0.272
6670440,3813.0,5303.0,4894.0,0.845,0.435,-0.15,0.272
6670466,3869.0,5301.0,4886.0,0.845,0.435,-0.15,0.272
6670482,3871.0,5335.0,4930.0,0.845,0.435,-0.15,0.272
6670498,3905.0,5307.0,4916.0,0.845,0.435,-0.15,0.273
6670514,3849.0,5441.0,4920.0,0.845,0.435,-0.15,0.273
6670530,3891.0,5277.0,4902.0,0.845,0.435,-0.15,0.273
6670556,3837.0,5251.0,4916.0,0.845,0.435,-0.15,0.273
6670573,3851.0,5301.0,4870.0,0.845,0.435,-0.15,0.273
6670589,3857.0,5287.0,4888.0,0.845,0.435,-0.15,0.273
6670605,3831.0,5291.0,4892.0,0.845,0.435,-0.15,0.273
6670621,3901.0,5277.0,4902.0,0.845,0.435,-0.15,0.274
6670637,3859.0,5267.0,4824.0,0.845,0.435,-0.15,0.274
6670653,3849.0,5313.0,4886.0,0.844,0.435,-0.15,0.274
6670679,3885.0,5265.0,4930.0,0.844,0.435,-0.151,0.274
6670695,3909.0,5235.0,4906.0,0.844,0.435,-0.151,0.274
6670711,3947.0,5209.0,4916.0,0.844,0.435,-0.151,0.274
6670727,3935.0,5243.0,4898.0,0.844,0.435,-0.151,0.275
6670743,3899.0,5257.0,4902.0,0.844,0.435,-0.151,0.275
6670759,3859.0,5307.0,4902.0,0.844,0.435,-0.151,0.275
6670785,3923.0,5223.0,4910.0,0.844,0.434,-0.151,0.275
6670801,3893.0,5255.0,4914.0,0.844,0.434,-0.151,0.276
6670817,3903.0,5291.0,4878.0,0.844,0.434,-0.151,0.276
6670833,3919.0,5301.0,4872.0,0.844,0.434,-0.151,0.276
6670849,3955.0,5255.0,4882.0,0.844,0.434,-0.151,0.276
6670865,3939.0,5271.0,4938.0,0.844,0.434,-0.151,0.276
6670891,3923.0,5235.0,4880.0,0.844,0.434,-0.151,0.276
6670907,3875.0,5211.0,4876.0,0.844,0.434,-0.151,0.277
6670923,3905.0,5235.0,4896.0,0.844,0.434,-0.151,0.277
6670939,3921.0,5243.0,4942.0,0.844,0.434,-0.151,0.277
6670955,3899.0,5263.0,4914.0,0.844,0.433,-0.151,0.277
6670971,3927.0,5285.0,4932.0,0.844,0.433,-0.151,0.277
6670997,3933.0,5215.0,4900.0,0.844,0.433,-0.151,0.277
6671013,3895.0,5217.0,4910.0,0.844,0.433,-0.151,0.278
6671029,3905.0,5257.0,4962.0,0.844,0.433,-0.151,0.278
6671046,3915.0,5249.0,4924.0,0.844,0.433,-0.151,0.278
6671062,3935.0,5209.0,4896.0,0.844,0.433,-0.151,0.278
6671078,3993.0,5201.0,4896.0,0.844,0.433,-0.15,0.278
6671104,3905.0,5151.0,4858.0,0.844,0.433,-0.15,0.278
6671120,3879.0,5201.0,4876.0,0.844,0.433,-0.15,0.279
6671136,3913.0,5221.0,4928.0,0.844,0.433,-0.15,0.279
6671152,3913.0,5259.0,5004.0,0.844,0.433,-0.15,0.279
6671168,3861.0,5299.0,4938.0,0.844,0.433,-0.149,0.279
6671184,3873.0,5243.0,4930.0,0.844,0.433,-0.149,0.279
6671210,3899.0,5255.0,4864.0,0.844,0.433,-0.149,0.279
6671226,3857.0,5245.0,4874.0,0.844,0.433,-0.149,0.28
6671242,3903.0,5289.0,4874.0,0.844,0.433,-0.149,0.28
6671258,3913.0,5231.0,4872.0,0.844,0.433,-0.149,0.28
6671274,3879.0,5275.0,4882.0,0.844,0.433,-0.148,0.28
6671290,3877.0,5241.0,4898.0,0.844,0.433,-0.148,0.28
6671316,3929.0,5243.0,4894.0,0.844,0.433,-0.148,0.28
6671332,3923.0,5259.0,4890.0,0.844,0.433,-0.148,0.281
6671348,3863.0,5191.0,4922.0,0.843,0.433,-0.148,0.281
6671364,3957.0,5291.0,4934.0,0.843,0.433,-0.148,0.281
6671380,3937.0,5263.0,4876.0,0.843,0.433,-0.147,0.281
6671396,3899.0,5209.0,4886.0,0.843,0.433,-0.147,0.281
6671422,3903.0,5229.0,4926.0,0.843,0.433,-0.147,0.281
6671438,3865.0,5253.0,4904.0,0.843,0.433,-0.147,0.282
6671454,3851.0,5285.0,4898.0,0.843,0.434,-0.147,0.282
6671470,3853.0,5299.0,4924.0,0.843,0.434,-0.147,0.282
6671486,3919.0,5289.0,4888.0,0.843,0.434,-0.147,0.282
6671502,3937.0,5271.0,4902.0,0.843,0.434,-0.147,0.282
6671529,3937.0,5209.0,4854.0,0.843,0.434,-0.146,0.282
6671546,3883.0,5239.0,4888.0,0.843,0.434,-0.146,0.283
6671562,3843.0,5233.0,4928.0,0.843,0.434,-0.146,0.283
6671578,3839.0,5227.0,4936.0,0.843,0.434,-0.146,0.283
6671594,3835.0,5205.0,4930.0,0.843,0.434,-0.146,0.283
6671610,3901.0,5277.0,4914.0,0.843,0.434,-0.146,0.283
6671626,3891.0,5263.0,4876.0,0.843,0.434,-0.146,0.283
6671652,3921.0,5263.0,4916.0,0.843,0.434,-0.146,0.283
6671668,3887.0,5323.0,4864.0,0.843,0.434,-0.145,0.284
6671684,3901.0,5279.0,4838.0,0.843,0.434,-0.145,0.284
6671700,3893.0,5251.0,4868.0,0.843,0.434,-0.145,0.284
6671717,3925.0,5231.0,4896.0,0.843,0.433,-0.145,0.284
6671735,3891.0,5197.0,4894.0,0.843,0.433,-0.145,0.284
6671751,3843.0,5291.0,4902.0,0.843,0.433,-0.145,0.284
6671777,3913.0,5235.0,4946.0,0.843,0.433,-0.145,0.285
6671793,3871.0,5269.0,4914.0,0.843,0.433,-0.144,0.285
6671809,3867.0,5271.0,4970.0,0.843,0.433,-0.144,0.285
6671825,3879.0,5283.0,4952.0,0.843,0.433,-0.144,0.285
6671841,3911.0,5359.0,4884.0,0.843,0.433,-0.144,0.285
6671857,3871.0,5219.0,4936.0,0.843,0.433,-0.145,0.285
6671883,3889.0,5251.0,4848.0,0.843,0.433,-0.145,0.285
6671900,3891.0,5305.0,4860.0,0.843,0.433,-0.145,0.285
6671917,3947.0,5247.0,4860.0,0.843,0.433,-0.145,0.285
6671934,3925.0,5331.0,4952.0,0.843,0.433,-0.145,0.285
6671950,3911.0,5313.0,4894.0,0.843,0.433,-0.145,0.285
6671967,3843.0,5177.0,4872.0,0.843,0.433,-0.145,0.286
6671984,3895.0,5211.0,4870.0,0.843,0.433,-0.145,0.286
6672000,3885.0,5221.0,4874.0,0.843,0.433,-0.145,0.286
6672017,3925.0,5185.0,4908.0,0.843,0.433,-0.144,0.286
6672033,3859.0,5263.0,4890.0,0.843,0.433,-0.144,0.286
6672060,3871.0,5269.0,4970.0,0.843,0.433,-0.144,0.286
6672076,3801.0,5279.0,4996.0,0.843,0.433,-0.144,0.286
6672092,3835.0,5315.0,4920.0,0.842,0.433,-0.144,0.286
6672108,3829.0,5369.0,4894.0,0.842,0.433,-0.144,0.287
6672124,3877.0,5335.0,4900.0,0.842,0.433,-0.144,0.287
6672140,3865.0,5371.0,4880.0,0.842,0.433,-0.144,0.287
6672166,3923.0,5295.0,4878.0,0.842,0.433,-0.144,0.287
6672183,3871.0,5267.0,4920.0,0.842,0.433,-0.145,0.287
6672200,3907.0,5215.0,4908.0,0.842,0.433,-0.145,0.287
6672217,3897.0,5209.0,4852.0,0.842,0.433,-0.145,0.287
6672234,3883.0,5287.0,4904.0,0.842,0.433,-0.145,0.287
6672250,3959.0,5263.0,4920.0,0.842,0.433,-0.145,0.287
6672267,3951.0,5271.0,4916.0,0.842,0.433,-0.145,0.287
6672283,3927.0,5303.0,4930.0,0.842,0.433,-0.145,0.287
6672300,3949.0,5245.0,4866.0,0.842,0.433,-0.145,0.288
6672326,3895.0,5253.0,4840.0,0.842,0.433,-0.145,0.288
6672342,3919.0,5255.0,4874.0,0.842,0.433,-0.145,0.288
6672358,3885.0,5329.0,4722.0,0.842,0.433,-0.145,0.288
6672374,3963.0,5267.0,4928.0,0.842,0.433,-0.146,0.288
6672390,4017.0,5293.0,4862.0,0.842,0.433,-0.146,0.288
6672406,4019.0,5191.0,4874.0,0.842,0.432,-0.146,0.288
6672432,4101.0,5181.0,4866.0,0.842,0.432,-0.146,0.288
6672449,4109.0,5153.0,4862.0,0.842,0.432,-0.146,0.288
6672466,4139.0,5145.0,4882.0,0.842,0.432,-0.146,0.289
6672482,4019.0,5047.0,4912.0,0.842,0.431,-0.146,0.289
6672499,3927.0,5025.0,4916.0,0.842,0.431,-0.145,0.289
6672516,3811.0,5133.0,4910.0,0.842,0.432,-0.145,0.289
6672533,3771.0,5221.0,4958.0,0.842,0.432,-0.144,0.29
6672550,3735.0,5341.0,4992.0,0.842,0.432,-0.144,0.29
6672567,3681.0,5365.0,4988.0,0.842,0.433,-0.143,0.29
6672584,3773.0,5477.0,4998.0,0.841,0.433,-0.143,0.29
6672600,3825.0,5437.0,4894.0,0.841,0.433,-0.143,0.29
6672627,3865.0,5469.0,4856.0,0.841,0.433,-0.143,0.29
6672643,3965.0,5411.0,4784.0,0.841,0.433,-0.144,0.29
6672659,4059.0,5335.0,4782.0,0.841,0.433,-0.144,0.29
6672675,4053.0,5231.0,4770.0,0.841,0.433,-0.144,0.29
6672691,3985.0,5191.0,4840.0,0.841,0.432,-0.145,0.29
6672707,4007.0,5125.0,4928.0,0.842,0.432,-0.145,0.29
6672733,3977.0,5165.0,4996.0,0.842,0.432,-0.145,0.29
6672750,4011.0,5095.0,4944.0,0.842,0.432,-0.145,0.29
6672767,3975.0,5179.0,4960.0,0.842,0.432,-0.145,0.29
6672783,3917.0,5193.0,4952.0,0.842,0.432,-0.144,0.29
6672800,3911.0,5213.0,4924.0,0.842,0.432,-0.144,0.29
6672816,3941.0,5233.0,4844.0,0.842,0.432,-0.144,0.29
6672833,3933.0,5287.0,4866.0,0.842,0.432,-0.144,0.291
6672850,3901.0,5317.0,4878.0,0.841,0.432,-0.144,0.291
6672867,3943.0,5325.0,4886.0,0.841,0.432,-0.144,0.291
6672883,3935.0,5283.0,4820.0,0.841,0.432,-0.144,0.291
6672910,3957.0,5279.0,4900.0,0.841,0.432,-0.144,0.291
6672926,3943.0,5263.0,4928.0,0.842,0.431,-0.144,0.291
6672942,3895.0,5187.0,4960.0,0.842,0.431,-0.145,0.291
6672958,3897.0,5157.0,4900.0,0.842,0.431,-0.145,0.292
6672974,3911.0,5201.0,4904.0,0.841,0.431,-0.145,0.292
6672990,3915.0,5203.0,4850.0,0.841,0.431,-0.146,0.292
6673016,3999.0,5215.0,4846.0,0.841,0.431,-0.146,0.292
6673033,4027.0,5231.0,4806.0,0.841,0.431,-0.146,0.292
6673050,4015.0,5167.0,4816.0,0.841,0.431,-0.145,0.292
6673066,3969.0,5219.0,4924.0,0.841,0.432,-0.145,0.292
6673083,4037.0,5285.0,4964.0,0.841,0.432,-0.144,0.293
6673100,4001.0,5271.0,4864.0,0.841,0.432,-0.144,0.293
6673117,3943.0,5193.0,4944.0,0.841,0.432,-0.143,0.293
6673133,3861.0,5205.0,4932.0,0.841,0.432,-0.143,0.293
6673149,3875.0,5193.0,4974.0,0.841,0.432,-0.142,0.293
6673175,3899.0,5197.0,4924.0,0.841,0.432,-0.142,0.293
6673191,3901.0,5145.0,4880.0,0.841,0.432,-0.142,0.293
6673207,3955.0,5283.0,4900.0,0.841,0.432,-0.142,0.293
6673223,3973.0,5223.0,4928.0,0.841,0.432,-0.141,0.293
6673239,3917.0,5209.0,4874.0,0.841,0.433,-0.141,0.293
6673255,3971.0,5185.0,4852.0,0.841,0.433,-0.141,0.293
6673281,4021.0,5309.0,4810.0,0.84,0.434,-0.14,0.293
6673298,3997.0,5309.0,4802.0,0.84,0.434,-0.14,0.293
6673315,3971.0,5433.0,4768.0,0.84,0.435,-0.139,0.293
6673331,3897.0,5371.0,4802.0,0.84,0.435,-0.138,0.293
6673347,3905.0,5485.0,4792.0,0.84,0.436,-0.137,0.293
6673363,3865.0,5515.0,4808.0,0.84,0.435,-0.137,0.293
6673379,3865.0,5539.0,4770.0,0.841,0.435,-0.136,0.293
6673405,3839.0,5597.0,4782.0,0.841,0.434,-0.136,0.293
6673421,3735.0,5519.0,4794.0,0.842,0.433,-0.136,0.293
6673437,3739.0,5419.0,4856.0,0.842,0.432,-0.136,0.292
6673453,3709.0,5395.0,4902.0,0.843,0.431,-0.136,0.292
6673469,3691.0,5349.0,4920.0,0.843,0.43,-0.136,0.292
6673485,3735.0,5271.0,5000.0,0.844,0.428,-0.136,0.292
6673511,3743.0,5283.0,4998.0,0.845,0.427,-0.137,0.292
6673527,3801.0,5197.0,4918.0,0.845,0.426,-0.137,0.292
6673543,3857.0,5131.0,5014.0,0.846,0.425,-0.138,0.291
6673559,3895.0,5091.0,5070.0,0.846,0.424,-0.138,0.291
6673575,3913.0,5101.0,5088.0,0.847,0.423,-0.138,0.291
6673591,3917.0,5205.0,5002.0,0.848,0.422,-0.138,0.291
6673617,3951.0,5143.0,5034.0,0.848,0.421,-0.138,0.291
6673633,3875.0,5091.0,5100.0,0.849,0.42,-0.138,0.291
6673650,3811.0,4989.0,5118.0,0.849,0.419,-0.139,0.291
6673666,3833.0,4905.0,5144.0,0.849,0.418,-0.139,0.291
6673683,3765.0,4971.0,5146.0,0.85,0.418,-0.139,0.291
6673699,3749.0,4991.0,5210.0,0.85,0.417,-0.139,0.291
6673716,3817.0,5041.0,5214.0,0.85,0.417,-0.139,0.291
6673733,3809.0,5085.0,5154.0,0.85,0.417,-0.139,0.291
6673755,3909.0,5021.0,5242.0,0.85,0.417,-0.14,0.291
6673771,4035.0,5059.0,5130.0,0.85,0.417,-0.14,0.292
6673787,4139.0,5087.0,5048.0,0.85,0.417,-0.14,0.292
6673813,4137.0,5073.0,4978.0,0.849,0.417,-0.14,0.292
6673829,4165.0,5087.0,4986.0,0.849,0.417,-0.139,0.292
6673845,4049.0,4929.0,4826.0,0.849,0.417,-0.138,0.292
6673861,4015.0,5011.0,4806.0,0.85,0.418,-0.137,0.292
6673877,3767.0,5391.0,4886.0,0.85,0.418,-0.135,0.291
6673893,3659.0,5269.0,5104.0,0.85,0.418,-0.133,0.291
6673919,3587.0,5157.0,5214.0,0.85,0.418,-0.132,0.291
6673935,3483.0,5253.0,5220.0,0.851,0.418,-0.13,0.291
6673951,3341.0,5393.0,5170.0,0.851,0.418,-0.13,0.291
6673968,3325.0,5399.0,5210.0,0.851,0.418,-0.129,0.291
6673985,3371.0,5263.0,5226.0,0.851,0.418,-0.13,0.291
6674001,3357.0,5275.0,5196.0,0.851,0.418,-0.13,0.291
6674017,3405.0,5413.0,5156.0,0.851,0.418,-0.131,0.291
6674043,3509.0,5289.0,5146.0,0.851,0.418,-0.132,0.291
6674059,3593.0,5251.0,5142.0,0.851,0.417,-0.133,0.29
6674075,3747.0,5229.0,5096.0,0.851,0.417,-0.135,0.291
6674091,3765.0,5255.0,5034.0,0.851,0.416,-0.136,0.291
6674107,3929.0,5151.0,5032.0,0.851,0.415,-0.138,0.291
6674123,3963.0,5067.0,5084.0,0.851,0.414,-0.139,0.291
6674149,4029.0,4949.0,5082.0,0.851,0.413,-0.14,0.291
6674166,4049.0,4901.0,5088.0,0.852,0.413,-0.141,0.291
6674183,4037.0,4867.0,5168.0,0.852,0.412,-0.141,0.291
6674199,4033.0,4805.0,5228.0,0.852,0.411,-0.141,0.292
6674216,4053.0,4735.0,5238.0,0.852,0.411,-0.141,0.292
6674232,3935.0,4677.0,5154.0,0.852,0.411,-0.141,0.293
6674248,3865.0,4789.0,5192.0,0.852,0.411,-0.14,0.293
6674264,3805.0,4813.0,5282.0,0.851,0.412,-0.14,0.294
6674281,3817.0,4845.0,5246.0,0.851,0.412,-0.139,0.295
6674307,3743.0,4947.0,5210.0,0.85,0.413,-0.138,0.296
6674323,3761.0,4967.0,5172.0,0.849,0.414,-0.138,0.296
6674339,3783.0,5085.0,5222.0,0.849,0.416,-0.137,0.297
6674355,3765.0,5255.0,5038.0,0.848,0.417,-0.137,0.297
6674371,3863.0,5311.0,5136.0,0.847,0.418,-0.136,0.298
6674397,3899.0,5327.0,5112.0,0.847,0.419,-0.136,0.299
6674413,3939.0,5275.0,5060.0,0.846,0.42,-0.136,0.299
6674429,3967.0,5261.0,4954.0,0.846,0.42,-0.135,0.299
6674446,3909.0,5301.0,4888.0,0.845,0.421,-0.135,0.3
6674462,3845.0,5293.0,4886.0,0.845,0.421,-0.134,0.3
6674478,3797.0,5231.0,4944.0,0.845,0.421,-0.134,0.3
6674495,3815.0,5185.0,4986.0,0.845,0.421,-0.133,0.3
6674512,3749.0,5283.0,4980.0,0.845,0.421,-0.133,0.301
6674529,3791.0,5273.0,5086.0,0.845,0.421,-0.132,0.301
6674555,3753.0,5129.0,5118.0,0.846,0.421,-0.132,0.301
6674571,3773.0,5219.0,5132.0,0.846,0.421,-0.132,0.301
6674587,3721.0,5271.0,5120.0,0.846,0.421,-0.131,0.301
6674603,3749.0,5161.0,5132.0,0.846,0.42,-0.131,0.301
6674619,3823.0,5105.0,5120.0,0.846,0.42,-0.131,0.301
6674635,3799.0,5145.0,5076.0,0.846,0.42,-0.13,0.301
6674661,3819.0,5181.0,5032.0,0.846,0.421,-0.13,0.301
6674677,3805.0,5211.0,5058.0,0.846,0.421,-0.13,0.301
6674693,3813.0,5155.0,5078.0,0.846,0.421,-0.129,0.301
6674709,3823.0,5189.0,5038.0,0.846,0.421,-0.129,0.301
6674725,3749.0,5233.0,5002.0,0.846,0.421,-0.129,0.301
6674751,3763.0,5177.0,5092.0,0.846,0.421,-0.128,0.301
6674767,3815.0,5157.0,5054.0,0.846,0.422,-0.128,0.301
6674784,3773.0,5235.0,5048.0,0.846,0.422,-0.128,0.301
6674800,3703.0,5277.0,5006.0,0.846,0.422,-0.127,0.301
6674816,3747.0,5267.0,5050.0,0.846,0.422,-0.127,0.301
6674833,3741.0,5249.0,5092.0,0.846,0.422,-0.127,0.301
6674850,3715.0,5265.0,5004.0,0.846,0.422,-0.127,0.301
6674866,3695.0,5233.0,5002.0,0.846,0.422,-0.127,0.301
6674892,3769.0,5229.0,5062.0,0.845,0.422,-0.127,0.301
6674908,3709.0,5257.0,5074.0,0.845,0.422,-0.127,0.301
6674924,3719.0,5291.0,5018.0,0.845,0.422,-0.127,0.301
6674940,3727.0,5249.0,5050.0,0.845,0.422,-0.127,0.302
6674957,3625.0,5335.0,5064.0,0.845,0.422,-0.127,0.302
6674973,3581.0,5283.0,5156.0,0.845,0.422,-0.128,0.302
6674989,3579.0,5149.0,5170.0,0.845,0.422,-0.129,0.303
6675015,3651.0,5135.0,5054.0,0.844,0.422,-0.129,0.303
6675032,3673.0,5235.0,5014.0,0.844,0.423,-0.13,0.304
6675049,3713.0,5031.0,5070.0,0.843,0.423,-0.132,0.304
6675066,3825.0,5259.0,5004.0,0.843,0.424,-0.133,0.304
6675082,4007.0,5219.0,4996.0,0.842,0.424,-0.134,0.304
6675099,4167.0,5179.0,4966.0,0.842,0.424,-0.135,0.305
6675116,4239.0,5149.0,4908.0,0.842,0.425,-0.136,0.305
6675133,4261.0,5107.0,4836.0,0.841,0.425,-0.136,0.305
6675149,4171.0,5173.0,4770.0,0.841,0.425,-0.136,0.305
6675166,4059.0,5115.0,4886.0,0.841,0.425,-0.136,0.305
6675192,3905.0,5019.0,5000.0,0.841,0.425,-0.135,0.306
6675208,3903.0,5189.0,4996.0,0.841,0.425,-0.135,0.306
6675224,3841.0,5173.0,5034.0,0.841,0.425,-0.134,0.306
6675240,3837.0,5287.0,5026.0,0.841,0.425,-0.134,0.306
6675256,3811.0,5269.0,5040.0,0.841,0.425,-0.134,0.306
6675282,3845.0,5221.0,5018.0,0.841,0.425,-0.133,0.307
6675299,3831.0,5265.0,4910.0,0.841,0.425,-0.134,0.307
6675316,3841.0,5305.0,4916.0,0.841,0.426,-0.134,0.307
6675332,3851.0,5249.0,4898.0,0.841,0.425,-0.134,0.307
6675349,3833.0,5295.0,4930.0,0.841,0.425,-0.134,0.307
6675365,3891.0,5275.0,4902.0,0.841,0.425,-0.134,0.307
6675382,3893.0,5239.0,4936.0,0.841,0.425,-0.134,0.307
6675399,3865.0,5167.0,5028.0,0.841,0.425,-0.134,0.307
6675415,3847.0,5157.0,4974.0,0.841,0.425,-0.135,0.307
6675432,3875.0,5123.0,5018.0,0.841,0.424,-0.135,0.307
6675459,3813.0,5107.0,5054.0,0.841,0.424,-0.135,0.307
6675475,3813.0,5181.0,5040.0,0.841,0.424,-0.135,0.307
6675492,3885.0,5075.0,5036.0,0.841,0.424,-0.136,0.308
6675508,3931.0,5059.0,4996.0,0.841,0.424,-0.136,0.308
6675525,3899.0,5105.0,4980.0,0.84,0.424,-0.137,0.308
6675541,3937.0,5161.0,4938.0,0.84,0.425,-0.137,0.308
6675558,3983.0,5097.0,4888.0,0.84,0.425,-0.137,0.308
6675574,4039.0,5171.0,4934.0,0.84,0.425,-0.138,0.309
6675600,4103.0,5285.0,4920.0,0.839,0.426,-0.138,0.309
6675616,4115.0,5209.0,4954.0,0.839,0.426,-0.138,0.309
6675632,4097.0,5203.0,4964.0,0.839,0.425,-0.138,0.309
6675649,4013.0,5151.0,4858.0,0.839,0.425,-0.138,0.309
6675666,3935.0,5219.0,4892.0,0.839,0.425,-0.138,0.309
6675682,3951.0,5161.0,4892.0,0.84,0.425,-0.138,0.309
6675698,3959.0,5187.0,4948.0,0.84,0.425,-0.138,0.309
6675724,3959.0,5169.0,4952.0,0.84,0.425,-0.138,0.309
6675740,3941.0,5127.0,4952.0,0.84,0.425,-0.138,0.309
6675756,3897.0,5161.0,4960.0,0.84,0.425,-0.138,0.309
6675772,3923.0,5167.0,4972.0,0.84,0.425,-0.137,0.309
6675788,3925.0,5157.0,4942.0,0.84,0.425,-0.137,0.309
6675804,4005.0,5163.0,4990.0,0.84,0.425,-0.137,0.309
6675830,4033.0,5163.0,5018.0,0.84,0.424,-0.137,0.309
6675847,3977.0,5165.0,5024.0,0.84,0.424,-0.137,0.309
6675863,3997.0,5151.0,5008.0,0.84,0.424,-0.137,0.309
6675879,3943.0,5131.0,5000.0,0.84,0.424,-0.137,0.309
6675895,3945.0,5107.0,4986.0,0.84,0.424,-0.137,0.31
6675911,3939.0,5155.0,5018.0,0.84,0.424,-0.137,0.31
6675937,3945.0,5153.0,4968.0,0.84,0.424,-0.137,0.31
6675953,4021.0,5159.0,4966.0,0.84,0.424,-0.137,0.31
6675969,3933.0,5195.0,4920.0,0.84,0.424,-0.136,0.31
6675985,3951.0,5133.0,4936.0,0.84,0.424,-0.136,0.31
6676001,3961.0,5125.0,4950.0,0.84,0.424,-0.136,0.31
6676017,3957.0,5167.0,4944.0,0.84,0.424,-0.136,0.31
6676043,3911.0,5161.0,5006.0,0.84,0.424,-0.136,0.31
6676059,3901.0,5195.0,4972.0,0.84,0.424,-0.135,0.31
6676075,3875.0,5193.0,4960.0,0.84,0.424,-0.135,0.31
6676091,3873.0,5127.0,4984.0,0.84,0.424,-0.135,0.31
6676107,3885.0,5187.0,5020.0,0.84,0.424,-0.135,0.311
6676123,3853.0,5143.0,4976.0,0.84,0.424,-0.135,0.311
6676149,3901.0,5151.0,5018.0,0.84,0.424,-0.134,0.311
6676166,3927.0,5123.0,5012.0,0.84,0.424,-0.134,0.311
6676182,3915.0,5135.0,4984.0,0.84,0.424,-0.134,0.311
6676198,3929.0,5135.0,5002.0,0.84,0.424,-0.134,0.311
6676215,3945.0,5171.0,5006.0,0.84,0.424,-0.134,0.312
6676231,3993.0,5193.0,4996.0,0.84,0.424,-0.133,0.312
6676247,3971.0,5239.0,4980.0,0.84,0.424,-0.133,0.312
6676264,3937.0,5111.0,5020.0,0.84,0.424,-0.133,0.312
6676291,3927.0,5135.0,4924.0,0.84,0.424,-0.133,0.312
6676307,3931.0,5185.0,4954.0,0.84,0.424,-0.133,0.312
6676323,3853.0,5203.0,4956.0,0.84,0.424,-0.132,0.312
6676339,3949.0,5201.0,4966.0,0.84,0.424,-0.132,0.312
6676355,3895.0,5133.0,4978.0,0.84,0.424,-0.132,0.312
6676371,3921.0,5183.0,4958.0,0.839,0.425,-0.132,0.313
6676397,3905.0,4931.0,4856.0,0.839,0.425,-0.132,0.313
6676414,3893.0,5175.0,4930.0,0.839,0.425,-0.131,0.313
6676431,3901.0,5187.0,4942.0,0.839,0.425,-0.131,0.313
6676448,3923.0,5199.0,5000.0,0.839,0.424,-0.131,0.313
6676465,3929.0,5175.0,5006.0,0.84,0.424,-0.131,0.313
6676482,3957.0,5165.0,5006.0,0.84,0.424,-0.131,0.313
6676498,3949.0,5141.0,4968.0,0.839,0.424,-0.131,0.313
6676514,3859.0,5179.0,5000.0,0.839,0.424,-0.131,0.314
6676531,3903.0,5209.0,4996.0,0.839,0.424,-0.131,0.314
6676549,3879.0,5175.0,4984.0,0.839,0.424,-0.131,0.314
6676565,3887.0,5191.0,4970.0,0.839,0.424,-0.13,0.314
6676591,3879.0,5167.0,4972.0,0.839,0.424,-0.13,0.314
6676607,3919.0,5169.0,5000.0,0.839,0.424,-0.13,0.314
6676623,3855.0,5189.0,4986.0,0.839,0.424,-0.13,0.314
6676639,3821.0,5225.0,4972.0,0.839,0.424,-0.13,0.314
6676655,3851.0,5149.0,5006.0,0.839,0.424,-0.13,0.314
6676671,3853.0,5221.0,4984.0,0.839,0.424,-0.13,0.314
6676697,3909.0,5223.0,5004.0,0.839,0.424,-0.13,0.315
6676714,3937.0,5171.0,5032.0,0.839,0.424,-0.13,0.315
6676731,3957.0,5137.0,4958.0,0.839,0.424,-0.13,0.315
6676748,3995.0,5147.0,4992.0,0.839,0.424,-0.13,0.315
6676765,3893.0,5151.0,4954.0,0.839,0.424,-0.13,0.315
6676782,3925.0,5157.0,4948.0,0.839,0.424,-0.13,0.315
6676798,3921.0,5157.0,4946.0,0.839,0.424,-0.13,0.315
6676815,3941.0,5129.0,4958.0,0.839,0.424,-0.13,0.315
6676832,3883.0,5241.0,5032.0,0.839,0.424,-0.13,0.315
6676848,3867.0,5193.0,5068.0,0.839,0.424,-0.13,0.315
6676875,3879.0,5219.0,5032.0,0.839,0.424,-0.129,0.315
6676891,3805.0,5251.0,5058.0,0.839,0.424,-0.129,0.315
6676907,3815.0,5223.0,5022.0,0.839,0.424,-0.13,0.315
6676923,3853.0,5161.0,4984.0,0.839,0.424,-0.13,0.315
6676939,3871.0,5171.0,4972.0,0.839,0.424,-0.13,0.315
6676955,3905.0,5179.0,4972.0,0.839,0.424,-0.13,0.315
6676981,3959.0,5187.0,4948.0,0.839,0.424,-0.13,0.316
6676998,3959.0,5135.0,4894.0,0.839,0.424,-0.13,0.316
6677014,3963.0,5141.0,4932.0,0.839,0.424,-0.13,0.316
6677031,3929.0,5137.0,4972.0,0.839,0.424,-0.13,0.316
6677047,3875.0,5187.0,4998.0,0.839,0.424,-0.13,0.316
6677064,3917.0,5111.0,4998.0,0.839,0.424,-0.13,0.316
6677081,3901.0,5159.0,5012.0,0.839,0.424,-0.13,0.316
6677097,3897.0,5209.0,5034.0,0.839,0.424,-0.13,0.316
6677113,3885.0,5159.0,5018.0,0.839,0.424,-0.13,0.317
6677140,3831.0,5139.0,4984.0,0.839,0.424,-0.129,0.317
6677156,3865.0,5197.0,5004.0,0.839,0.424,-0.129,0.317
6677172,3879.0,5211.0,4978.0,0.838,0.424,-0.129,0.317
6677188,3833.0,5195.0,4966.0,0.838,0.424,-0.129,0.317
6677204,3847.0,5193.0,4992.0,0.838,0.424,-0.129,0.317
6677220,3923.0,5229.0,4964.0,0.838,0.424,-0.129,0.317
6677246,3905.0,5267.0,4998.0,0.838,0.424,-0.129,0.317
6677263,3889.0,5193.0,4988.0,0.838,0.424,-0.129,0.317
6677280,3873.0,5181.0,4968.0,0.838,0.424,-0.129,0.317
6677296,3925.0,5191.0,4940.0,0.838,0.424,-0.129,0.317
6677313,3957.0,5171.0,4994.0,0.838,0.424,-0.129,0.317
6677330,3947.0,5089.0,5022.0,0.838,0.424,-0.129,0.317
6677347,3949.0,5111.0,4928.0,0.838,0.424,-0.129,0.317
6677364,3879.0,5183.0,4958.0,0.838,0.424,-0.129,0.317
6677381,3873.0,5177.0,4988.0,0.838,0.424,-0.129,0.317
6677398,3865.0,5163.0,4988.0,0.838,0.424,-0.129,0.317
6677415,3865.0,5109.0,5030.0,0.838,0.424,-0.129,0.317
6677441,3861.0,5265.0,5018.0,0.838,0.424,-0.128,0.317
6677457,3889.0,5257.0,5044.0,0.838,0.424,-0.128,0.318
6677473,3869.0,5195.0,5022.0,0.838,0.424,-0.128,0.318
6677489,3909.0,5163.0,4946.0,0.838,0.424,-0.129,0.318
6677505,3967.0,5213.0,4932.0,0.838,0.424,-0.129,0.318
6677521,3967.0,5229.0,4990.0,0.838,0.424,-0.129,0.318
6677547,3983.0,5237.0,5010.0,0.838,0.424,-0.129,0.318
6677564,3951.0,5157.0,5026.0,0.838,0.424,-0.129,0.318
6677581,3949.0,5147.0,5034.0,0.838,0.424,-0.128,0.318
6677598,3885.0,5045.0,4974.0,0.838,0.424,-0.128,0.318
6677614,3881.0,5121.0,4960.0,0.838,0.424,-0.128,0.318
6677631,3893.0,5167.0,4952.0,0.838,0.424,-0.128,0.318
6677648,3901.0,5207.0,4960.0,0.838,0.424,-0.128,0.319
6677664,3903.0,5153.0,5016.0,0.838,0.424,-0.128,0.319
6677681,3887.0,5239.0,5000.0,0.838,0.425,-0.128,0.319
6677698,3909.0,5215.0,4928.0,0.838,0.425,-0.127,0.319
6677724,3923.0,5185.0,4982.0,0.838,0.425,-0.127,0.319
6677740,3899.0,5155.0,4986.0,0.838,0.425,-0.127,0.319
6677756,3865.0,5141.0,4992.0,0.838,0.425,-0.127,0.319
6677772,3861.0,5253.0,4964.0,0.838,0.425,-0.127,0.319
6677788,3855.0,5197.0,4988.0,0.838,0.425,-0.127,0.32
6677805,3865.0,5227.0,5024.0,0.838,0.424,-0.127,0.32
6677821,3911.0,5179.0,5016.0,0.838,0.424,-0.127,0.32
6677848,3907.0,5191.0,4932.0,0.838,0.424,-0.127,0.32
6677864,3899.0,5173.0,4958.0,0.838,0.425,-0.127,0.32
6677881,3911.0,5235.0,4970.0,0.837,0.424,-0.127,0.32
6677897,3883.0,5137.0,4968.0,0.837,0.424,-0.127,0.32
6677913,3917.0,5207.0,4948.0,0.837,0.425,-0.127,0.32
6677929,3947.0,5177.0,4972.0,0.837,0.425,-0.127,0.32
6677945,3915.0,5197.0,5020.0,0.837,0.424,-0.126,0.32
6677971,3871.0,5167.0,5010.0,0.837,0.424,-0.126,0.32
6677987,3879.0,5073.0,4978.0,0.837,0.424,-0.126,0.32
6678003,3921.0,5151.0,4982.0,0.837,0.424,-0.126,0.321
6678019,3861.0,5241.0,5034.0,0.837,0.425,-0.126,0.321
6678035,3859.0,5185.0,5028.0,0.837,0.425,-0.126,0.321
6678061,3861.0,5201.0,4998.0,0.837,0.425,-0.125,0.321
6678078,3915.0,5197.0,4976.0,0.837,0.425,-0.125,0.321
6678095,3901.0,5233.0,4996.0,0.837,0.425,-0.125,0.321
6678112,3901.0,5233.0,4976.0,0.837,0.425,-0.125,0.321
6678129,3891.0,5259.0,4944.0,0.837,0.425,-0.125,0.321
6678146,3861.0,5165.0,4940.0,0.837,0.425,-0.124,0.321
6678163,3891.0,5235.0,5034.0,0.837,0.425,-0.124,0.321
6678180,3897.0,5225.0,4998.0,0.837,0.425,-0.124,0.321
6678197,3881.0,5227.0,5048.0,0.837,0.425,-0.124,0.322
6678214,3853.0,5235.0,5026.0,0.837,0.425,-0.124,0.322
6678231,3851.0,5213.0,4990.0,0.837,0.425,-0.124,0.322
6678247,3831.0,5201.0,5012.0,0.837,0.425,-0.124,0.322
6678264,3863.0,5239.0,4968.0,0.837,0.425,-0.124,0.322
6678290,3819.0,5193.0,4984.0,0.837,0.425,-0.124,0.322
6678306,3841.0,5203.0,5010.0,0.837,0.425,-0.124,0.322
6678322,3809.0,5183.0,4950.0,0.837,0.425,-0.123,0.322
6678338,3829.0,5229.0,4934.0,0.837,0.425,-0.124,0.322
6678354,3903.0,5179.0,4950.0,0.837,0.425,-0.124,0.322
6678370,3939.0,5177.0,4906.0,0.837,0.425,-0.124,0.322
6678396,3963.0,5171.0,4934.0,0.837,0.425,-0.124,0.322
6678413,3921.0,5179.0,4924.0,0.837,0.425,-0.124,0.323
6678430,3949.0,5197.0,5012.0,0.837,0.425,-0.123,0.323
6678447,3909.0,5157.0,5010.0,0.837,0.425,-0.123,0.323
6678464,3819.0,5129.0,5048.0,0.837,0.425,-0.123,0.323
6678481,3837.0,5135.0,5032.0,0.837,0.425,-0.123,0.323
6678497,3825.0,5173.0,5022.0,0.837,0.425,-0.122,0.323
6678514,3841.0,5169.0,5038.0,0.836,0.426,-0.122,0.323
6678531,3823.0,5145.0,4986.0,0.836,0.426,-0.122,0.323
6678547,3827.0,5179.0,4942.0,0.836,0.426,-0.122,0.323
6678573,3791.0,5263.0,4974.0,0.836,0.426,-0.121,0.324
6678589,3815.0,5229.0,5034.0,0.836,0.427,-0.121,0.324
6678605,3853.0,5279.0,5018.0,0.836,0.427,-0.121,0.324
6678621,3889.0,5291.0,4972.0,0.836,0.427,-0.121,0.324
6678637,3861.0,5319.0,4972.0,0.836,0.427,-0.121,0.324
6678653,3909.0,5165.0,5000.0,0.836,0.427,-0.121,0.324
6678679,3937.0,5097.0,4958.0,0.836,0.427,-0.121,0.324
6678695,4077.0,5253.0,5102.0,0.835,0.428,-0.12,0.324
6678711,4203.0,4855.0,5038.0,0.835,0.428,-0.119,0.323
6678727,4095.0,4919.0,5112.0,0.835,0.43,-0.118,0.323
6678743,4237.0,4421.0,5368.0,0.834,0.432,-0.117,0.323
6678769,4431.0,4315.0,5490.0,0.832,0.437,-0.116,0.323
6678785,5067.0,3979.0,5362.0,0.829,0.443,-0.113,0.323
6678801,5299.0,4311.0,5012.0,0.825,0.45,-0.108,0.324
6678817,4907.0,4997.0,4750.0,0.822,0.456,-0.103,0.324
6678833,5033.0,4491.0,4998.0,0.819,0.463,-0.096,0.325
6678849,4927.0,4971.0,4576.0,0.815,0.47,-0.089,0.327
6678875,4707.0,4473.0,4838.0,0.81,0.477,-0.08,0.33
6678891,4901.0,4037.0,4780.0,0.805,0.486,-0.071,0.334
6678907,4817.0,4199.0,4142.0,0.797,0.496,-0.06,0.338
6678923,4531.0,5207.0,3362.0,0.789,0.507,-0.048,0.343
6678939,4477.0,5343.0,3160.0,0.78,0.517,-0.035,0.35
6678955,4699.0,4679.0,3046.0,0.771,0.526,-0.021,0.357
6678981,4913.0,3285.0,3092.0,0.761,0.536,-0.006,0.366
6678997,4015.0,3317.0,2428.0,0.749,0.547,0.01,0.375
6679014,3597.0,3581.0,2338.0,0.734,0.558,0.027,0.386
6679031,3855.0,3449.0,1880.0,0.717,0.571,0.043,0.397
6679047,3683.0,2979.0,1302.0,0.698,0.585,0.059,0.41
6679064,4727.0,5861.0,812.0,0.677,0.597,0.072,0.424
6679080,4671.0,3841.0,802.0,0.656,0.609,0.085,0.437
6679097,4801.0,3575.0,722.0,0.632,0.623,0.098,0.451
6679124,4837.0,5055.0,126.0,0.607,0.636,0.11,0.464
6679140,5323.0,5527.0,-560.0,0.581,0.648,0.119,0.478
6679156,5761.0,5525.0,-884.0,0.557,0.657,0.126,0.492
6679172,5969.0,5109.0,-1234.0,0.532,0.666,0.133,0.506
6679188,6275.0,5741.0,-1438.0,0.507,0.674,0.138,0.52
6679204,6453.0,6235.0,-1760.0,0.482,0.679,0.143,0.534
6679220,6515.0,6169.0,-1806.0,0.459,0.684,0.146,0.548
6679246,6663.0,6885.0,-1898.0,0.436,0.687,0.146,0.563
6679263,6747.0,6531.0,-2062.0,0.415,0.689,0.144,0.577
6679280,6669.0,6065.0,-1686.0,0.395,0.689,0.139,0.591
6679297,6715.0,5965.0,-2130.0,0.376,0.689,0.132,0.605
6679314,7061.0,5219.0,-1418.0,0.358,0.689,0.124,0.618
6679330,7193.0,5123.0,-1530.0,0.341,0.688,0.114,0.63
6679347,7297.0,4855.0,-1392.0,0.324,0.687,0.103,0.642
6679363,7219.0,4733.0,-1138.0,0.308,0.686,0.09,0.653
6679380,7357.0,4251.0,-894.0,0.292,0.684,0.075,0.664
6679406,7805.0,4131.0,-924.0,0.277,0.683,0.057,0.674
6679422,8397.0,3911.0,-916.0,0.262,0.68,0.038,0.683
6679438,9079.0,3281.0,-800.0,0.246,0.678,0.017,0.692
6679454,9719.0,3669.0,-686.0,0.23,0.675,-0.005,0.701
6679470,10135.0,3253.0,-1038.0,0.214,0.672,-0.027,0.708
6679486,10447.0,2821.0,-692.0,0.199,0.668,-0.049,0.715
6679512,10505.0,2957.0,-344.0,0.184,0.664,-0.07,0.721
6679529,10361.0,3031.0,-250.0,0.171,0.661,-0.092,0.725
6679547,10273.0,2459.0,88.0,0.161,0.659,-0.113,0.726
6679564,10457.0,1817.0,102.0,0.152,0.658,-0.133,0.725
6679580,10613.0,1521.0,90.0,0.145,0.658,-0.152,0.724
6679597,10601.0,1417.0,-200.0,0.139,0.658,-0.169,0.721
6679613,10385.0,787.0,-414.0,0.134,0.657,-0.185,0.718
6679630,10041.0,875.0,-142.0,0.131,0.657,-0.198,0.715
6679647,9721.0,843.0,-248.0,0.128,0.657,-0.21,0.712
6679664,9265.0,853.0,-32.0,0.127,0.658,-0.221,0.709
6679680,9193.0,779.0,-312.0,0.126,0.658,-0.23,0.706
6679707,8785.0,767.0,-144.0,0.127,0.658,-0.238,0.703
6679723,8551.0,579.0,-278.0,0.127,0.659,-0.245,0.7
6679739,8313.0,429.0,-408.0,0.128,0.66,-0.251,0.697
6679755,7859.0,1603.0,-48.0,0.129,0.66,-0.257,0.694
6679771,7433.0,2213.0,-524.0,0.131,0.661,-0.266,0.689
6679787,7015.0,1779.0,-516.0,0.134,0.661,-0.278,0.684
6679813,6877.0,1077.0,246.0,0.137,0.661,-0.292,0.677
6679830,6615.0,359.0,528.0,0.138,0.663,-0.306,0.67
6679847,6633.0,1305.0,172.0,0.137,0.665,-0.318,0.662
6679864,6375.0,439.0,404.0,0.136,0.667,-0.331,0.653
6679880,6729.0,167.0,726.0,0.135,0.67,-0.343,0.645
6679897,6751.0,563.0,696.0,0.133,0.672,-0.355,0.636
6679913,7107.0,607.0,572.0,0.132,0.675,-0.366,0.627
6679929,7937.0,241.0,260.0,0.131,0.677,-0.376,0.618
6679946,8317.0,469.0,-374.0,0.132,0.68,-0.385,0.61
6679963,8365.0,825.0,-416.0,0.135,0.681,-0.393,0.602
6679990,8643.0,799.0,-62.0,0.14,0.682,-0.401,0.595
6680006,9287.0,471.0,588.0,0.146,0.683,-0.409,0.588
6680022,9713.0,937.0,1084.0,0.153,0.683,-0.415,0.581
6680038,9549.0,1325.0,1112.0,0.161,0.683,-0.421,0.576
6680054,9693.0,991.0,1126.0,0.171,0.682,-0.425,0.57
6680070,9849.0,487.0,1046.0,0.182,0.682,-0.427,0.565
6680096,10355.0,733.0,1230.0,0.195,0.681,-0.428,0.561
6680112,10407.0,1475.0,1086.0,0.209,0.68,-0.427,0.558
6680128,11085.0,2487.0,1310.0,0.224,0.678,-0.425,0.557
6680144,11561.0,3551.0,616.0,0.243,0.674,-0.422,0.556
6680161,11977.0,2815.0,1390.0,0.266,0.668,-0.419,0.555
6680177,12715.0,-1315.0,2442.0,0.29,0.661,-0.415,0.554
6680193,13187.0,-377.0,1972.0,0.312,0.655,-0.405,0.557
6680220,13497.0,2569.0,1436.0,0.335,0.648,-0.393,0.56
6680236,13967.0,2737.0,1282.0,0.36,0.639,-0.382,0.562
6680252,14653.0,2479.0,1420.0,0.387,0.628,-0.369,0.565
6680268,14911.0,2471.0,1784.0,0.414,0.615,-0.355,0.57
6680284,15171.0,3127.0,1822.0,0.441,0.6,-0.34,0.574
6680300,15773.0,2007.0,1192.0,0.469,0.583,-0.324,0.579
6680326,15515.0,1919.0,1196.0,0.496,0.565,-0.307,0.584
6680343,15555.0,2835.0,1228.0,0.522,0.546,-0.287,0.589
6680360,15571.0,3227.0,1568.0,0.548,0.525,-0.266,0.594
6680377,15655.0,3501.0,1866.0,0.574,0.504,-0.245,0.598
6680393,14699.0,3279.0,2398.0,0.598,0.482,-0.223,0.601
6680409,14723.0,3833.0,2378.0,0.62,0.46,-0.201,0.603
6680425,13663.0,3983.0,2210.0,0.642,0.438,-0.18,0.603
6680441,13253.0,4725.0,1918.0,0.663,0.415,-0.16,0.602
6680467,12285.0,3831.0,1578.0,0.684,0.392,-0.143,0.599
6680483,11073.0,4337.0,1480.0,0.703,0.367,-0.126,0.596
6680499,9761.0,4033.0,1204.0,0.722,0.341,-0.112,0.591
6680515,8881.0,1563.0,1572.0,0.74,0.316,-0.1,0.585
6680531,8257.0,-71.0,2622.0,0.756,0.294,-0.088,0.579
6680547,7381.0,545.0,2306.0,0.768,0.276,-0.074,0.573
6680573,6233.0,2727.0,1364.0,0.779,0.259,-0.058,0.568
6680589,5535.0,3789.0,1212.0,0.79,0.24,-0.045,0.563
6680605,4575.0,1015.0,1930.0,0.8,0.219,-0.034,0.558
6680621,3601.0,-1265.0,2412.0,0.807,0.202,-0.023,0.554
6680637,3327.0,-269.0,2186.0,0.813,0.19,-0.01,0.55
6680653,2947.0,3441.0,1086.0,0.818,0.177,0.001,0.547
6680680,2205.0,2189.0,506.0,0.823,0.16,0.008,0.545
6680696,1559.0,-591.0,1042.0,0.827,0.143,0.014,0.544
6680713,987.0,-1609.0,430.0,0.83,0.127,0.021,0.543
6680730,773.0,-1377.0,572.0,0.832,0.113,0.029,0.543
6680746,-237.0,-51.0,124.0,0.833,0.099,0.037,0.543
6680763,83.0,2349.0,492.0,0.834,0.084,0.042,0.544
6680779,-1307.0,-1265.0,-124.0,0.834,0.068,0.042,0.546
6680796,-1377.0,-4283.0,8.0,0.834,0.058,0.042,0.547
6680813,-843.0,-2901.0,-432.0,0.834,0.056,0.042,0.548
6680830,-863.0,-1155.0,-542.0,0.834,0.058,0.041,0.548
6680857,-717.0,-837.0,-832.0,0.833,0.062,0.037,0.549
6680874,-547.0,-1327.0,-830.0,0.832,0.067,0.031,0.55
6680890,-279.0,-1235.0,-666.0,0.83,0.074,0.023,0.552
6680906,95.0,-1761.0,-264.0,0.828,0.084,0.014,0.554
6680922,433.0,-1109.0,214.0,0.825,0.096,0.005,0.556
6680938,975.0,-825.0,470.0,0.822,0.112,-0.007,0.558
6680954,1615.0,-267.0,502.0,0.817,0.131,-0.019,0.561
6680980,2829.0,-37.0,856.0,0.812,0.151,-0.033,0.563
6680996,3523.0,-285.0,1464.0,0.805,0.174,-0.047,0.566
6681013,4739.0,265.0,1330.0,0.796,0.2,-0.061,0.568
6681029,5249.0,2671.0,1218.0,0.786,0.226,-0.075,0.57
6681045,6169.0,2783.0,1924.0,0.775,0.252,-0.091,0.572
6681061,7511.0,1229.0,2390.0,0.763,0.279,-0.11,0.573
6681079,8373.0,2567.0,2178.0,0.748,0.307,-0.125,0.575
6681106,8953.0,5325.0,1634.0,0.732,0.335,-0.142,0.576
6681122,10405.0,4993.0,2352.0,0.716,0.358,-0.162,0.577
6681138,11237.0,2101.0,3086.0,0.699,0.382,-0.181,0.576
6681154,11689.0,2957.0,2750.0,0.681,0.408,-0.197,0.576
6681170,11917.0,5643.0,3052.0,0.661,0.433,-0.212,0.576
