timestamp,ax,ay,az,q0,q1,q2,q3
3411173,-970.0,8372.0,639.0,0.656,0.65,0.282,0.259
3411189,-1156.0,8436.0,465.0,0.653,0.653,0.282,0.26
3411215,-1466.0,8368.0,533.0,0.652,0.655,0.28,0.26
3411231,-1390.0,8238.0,655.0,0.65,0.658,0.277,0.26
3411247,-1384.0,8268.0,865.0,0.649,0.661,0.272,0.261
3411263,-1110.0,8744.0,773.0,0.649,0.663,0.266,0.261
3411279,-672.0,9138.0,223.0,0.649,0.666,0.259,0.261
3411295,-84.0,9122.0,-321.0,0.65,0.667,0.252,0.263
3411321,-102.0,8530.0,-41.0,0.652,0.666,0.245,0.265
3411337,-572.0,7532.0,137.0,0.654,0.666,0.239,0.267
3411353,-338.0,7220.0,267.0,0.655,0.666,0.235,0.269
3411369,-28.0,6876.0,329.0,0.656,0.666,0.231,0.27
3411385,122.0,7216.0,243.0,0.656,0.667,0.23,0.27
3411401,256.0,7436.0,81.0,0.655,0.667,0.231,0.27
3411427,222.0,7254.0,-175.0,0.653,0.668,0.234,0.27
3411443,220.0,7302.0,-211.0,0.651,0.669,0.238,0.27
3411459,226.0,7694.0,-75.0,0.648,0.669,0.245,0.269
3411476,244.0,8126.0,87.0,0.645,0.67,0.253,0.269
3411492,42.0,8316.0,-15.0,0.642,0.669,0.262,0.268
3411508,-68.0,8028.0,35.0,0.639,0.668,0.271,0.268
3411524,-336.0,7872.0,45.0,0.636,0.666,0.282,0.268
3411551,-508.0,8096.0,-149.0,0.633,0.665,0.293,0.268
3411568,-674.0,8330.0,-51.0,0.629,0.663,0.303,0.269
3411585,-868.0,8290.0,-65.0,0.626,0.662,0.314,0.269
3411602,-1204.0,8108.0,187.0,0.622,0.661,0.323,0.269
3411619,-1172.0,8012.0,133.0,0.618,0.66,0.332,0.269
3411636,-1366.0,8014.0,-75.0,0.613,0.66,0.341,0.268
3411653,-1462.0,8068.0,-413.0,0.609,0.661,0.348,0.268
3411670,-1758.0,8308.0,-279.0,0.604,0.662,0.355,0.267
3411686,-1426.0,8564.0,-839.0,0.6,0.663,0.359,0.267
3411703,-1730.0,9332.0,-621.0,0.596,0.665,0.362,0.267
3411720,-1830.0,8232.0,-841.0,0.594,0.666,0.363,0.268
3411746,-1676.0,9264.0,-689.0,0.591,0.669,0.363,0.269
3411763,-1612.0,8420.0,-263.0,0.588,0.671,0.361,0.27
3411779,-1126.0,8790.0,-765.0,0.587,0.674,0.358,0.271
3411795,-1142.0,9266.0,-1061.0,0.586,0.676,0.353,0.273
3411811,-1010.0,9522.0,-865.0,0.588,0.677,0.346,0.275
3411828,-1108.0,8414.0,-971.0,0.592,0.677,0.338,0.278
3411845,-1058.0,6914.0,-1033.0,0.597,0.676,0.329,0.28
3411862,-856.0,6760.0,-1045.0,0.602,0.676,0.321,0.279
3411879,-576.0,7664.0,-1247.0,0.606,0.677,0.314,0.277
3411906,-414.0,7966.0,-1427.0,0.611,0.677,0.307,0.274
3411922,-434.0,8554.0,-1503.0,0.615,0.676,0.3,0.271
3411938,-584.0,8360.0,-1055.0,0.62,0.676,0.293,0.269
3411955,-908.0,8444.0,-485.0,0.626,0.675,0.285,0.268
3411971,-820.0,8354.0,-507.0,0.631,0.674,0.278,0.266
3411988,-718.0,8050.0,-427.0,0.637,0.672,0.27,0.264
3412005,-688.0,7896.0,-239.0,0.642,0.67,0.264,0.262
3412021,-788.0,7974.0,173.0,0.647,0.668,0.258,0.261
3412047,-702.0,7696.0,211.0,0.652,0.666,0.253,0.26
3412064,-342.0,7212.0,-33.0,0.656,0.663,0.25,0.259
3412080,-444.0,6366.0,-67.0,0.659,0.661,0.249,0.259
3412096,-392.0,6278.0,217.0,0.659,0.66,0.251,0.258
3412112,-440.0,6584.0,467.0,0.657,0.661,0.256,0.257
3412128,-554.0,6736.0,103.0,0.654,0.662,0.263,0.257
3412144,-706.0,6594.0,33.0,0.649,0.663,0.271,0.256
3412170,-680.0,7274.0,153.0,0.642,0.666,0.282,0.255
3412187,-1066.0,9282.0,-107.0,0.635,0.668,0.293,0.254
3412204,-1020.0,10100.0,291.0,0.63,0.669,0.303,0.255
3412221,-1250.0,9448.0,3.0,0.626,0.667,0.312,0.256
3412237,-1210.0,8896.0,-59.0,0.623,0.666,0.319,0.259
3412254,-1564.0,8582.0,-59.0,0.62,0.664,0.325,0.262
3412271,-1238.0,8670.0,-405.0,0.618,0.663,0.33,0.264
3412287,-1156.0,8680.0,-195.0,0.616,0.662,0.333,0.267
3412303,-1184.0,8058.0,-41.0,0.614,0.661,0.335,0.27
3412329,-1088.0,8000.0,-73.0,0.613,0.662,0.336,0.272
3412345,-884.0,8072.0,-263.0,0.611,0.662,0.337,0.274
3412361,-746.0,8138.0,-203.0,0.61,0.663,0.337,0.275
3412377,-546.0,8004.0,-447.0,0.609,0.663,0.336,0.276
3412393,-546.0,8146.0,-425.0,0.608,0.664,0.337,0.276
3412419,-552.0,8590.0,-601.0,0.607,0.665,0.336,0.277
3412436,-560.0,8628.0,-681.0,0.607,0.664,0.336,0.278
3412452,-654.0,8144.0,-387.0,0.608,0.663,0.335,0.28
3412468,-470.0,7692.0,-711.0,0.608,0.663,0.335,0.28
3412484,-328.0,8522.0,-1227.0,0.608,0.663,0.335,0.281
3412500,-510.0,8744.0,-1181.0,0.609,0.661,0.335,0.282
3412516,-830.0,8132.0,-635.0,0.61,0.66,0.334,0.284
3412533,-804.0,8284.0,-513.0,0.612,0.659,0.333,0.285
3412559,-674.0,8634.0,-593.0,0.613,0.658,0.331,0.285
3412575,-634.0,8398.0,-561.0,0.616,0.656,0.329,0.286
3412592,-584.0,7700.0,-559.0,0.619,0.654,0.327,0.287
3412613,-532.0,7414.0,-571.0,0.622,0.652,0.326,0.287
3412629,-668.0,7318.0,-271.0,0.624,0.65,0.325,0.287
3412645,-824.0,7474.0,-121.0,0.626,0.648,0.326,0.286
3412661,-758.0,7662.0,-53.0,0.628,0.645,0.328,0.285
3412677,-874.0,7856.0,227.0,0.63,0.643,0.33,0.283
3412693,-1138.0,7730.0,357.0,0.631,0.641,0.333,0.282
3412710,-1196.0,8044.0,289.0,0.633,0.639,0.336,0.28
3412736,-1214.0,8134.0,113.0,0.634,0.637,0.339,0.279
3412752,-1318.0,8076.0,-111.0,0.635,0.635,0.342,0.278
3412768,-1386.0,8150.0,119.0,0.635,0.633,0.345,0.278
3412784,-1474.0,8064.0,339.0,0.636,0.631,0.348,0.277
3412800,-1474.0,7966.0,511.0,0.636,0.63,0.35,0.277
3412826,-1510.0,7972.0,167.0,0.635,0.628,0.353,0.277
3412842,-1652.0,8084.0,235.0,0.635,0.628,0.355,0.278
3412858,-1584.0,7834.0,407.0,0.634,0.627,0.357,0.278
3412874,-1604.0,7878.0,435.0,0.633,0.627,0.359,0.279
3412890,-1616.0,8090.0,429.0,0.631,0.628,0.361,0.279
3412906,-1390.0,7994.0,-117.0,0.629,0.628,0.362,0.279
3412932,-1434.0,8428.0,-141.0,0.628,0.629,0.363,0.28
3412949,-1424.0,8294.0,97.0,0.626,0.63,0.364,0.282
3412965,-1268.0,7868.0,35.0,0.625,0.63,0.364,0.283
3412981,-1414.0,7960.0,31.0,0.623,0.631,0.364,0.284
3412998,-1498.0,8160.0,-85.0,0.622,0.632,0.364,0.285
3413015,-1192.0,8416.0,-365.0,0.621,0.633,0.364,0.286
3413031,-1096.0,7990.0,-299.0,0.62,0.633,0.363,0.287
3413047,-1010.0,7914.0,-429.0,0.62,0.634,0.363,0.288
3413073,-1122.0,8190.0,-383.0,0.619,0.634,0.362,0.289
3413089,-1162.0,7900.0,-511.0,0.619,0.634,0.362,0.289
3413105,-1094.0,7828.0,-529.0,0.619,0.634,0.362,0.29
3413121,-1142.0,8098.0,-433.0,0.619,0.634,0.362,0.29
3413137,-1136.0,8180.0,-487.0,0.619,0.634,0.362,0.29
3413154,-1154.0,8042.0,-697.0,0.62,0.633,0.362,0.289
3413171,-1190.0,8244.0,-537.0,0.62,0.633,0.362,0.289
3413188,-1226.0,8440.0,-571.0,0.621,0.632,0.362,0.289
3413214,-1176.0,8236.0,-575.0,0.622,0.631,0.362,0.29
3413231,-1260.0,7860.0,-541.0,0.624,0.629,0.362,0.29
3413248,-1304.0,7918.0,-359.0,0.625,0.628,0.363,0.29
3413264,-1318.0,8018.0,-425.0,0.626,0.627,0.363,0.289
3413281,-1330.0,8074.0,-335.0,0.628,0.625,0.363,0.289
3413297,-1392.0,8152.0,-195.0,0.629,0.624,0.363,0.289
3413313,-1378.0,8060.0,-99.0,0.631,0.622,0.363,0.288
3413339,-1352.0,7958.0,-119.0,0.633,0.62,0.363,0.288
3413355,-1358.0,7934.0,-179.0,0.635,0.619,0.363,0.287
3413371,-1366.0,8038.0,-61.0,0.636,0.617,0.363,0.286
3413387,-1466.0,8378.0,-119.0,0.639,0.615,0.363,0.286
3413403,-1558.0,8176.0,205.0,0.641,0.613,0.363,0.286
3413419,-1574.0,8046.0,321.0,0.643,0.611,0.362,0.286
3413445,-1446.0,8074.0,363.0,0.646,0.609,0.361,0.286
3413461,-1416.0,7924.0,433.0,0.648,0.607,0.36,0.286
3413477,-1418.0,7844.0,289.0,0.65,0.605,0.36,0.286
3413493,-1408.0,7946.0,507.0,0.652,0.603,0.36,0.287
3413509,-1464.0,7966.0,561.0,0.653,0.601,0.359,0.287
3413526,-1454.0,7906.0,689.0,0.655,0.6,0.359,0.288
3413542,-1462.0,8120.0,797.0,0.656,0.598,0.359,0.288
3413568,-1472.0,8102.0,613.0,0.657,0.597,0.359,0.289
3413584,-1408.0,7822.0,449.0,0.658,0.595,0.359,0.289
3413600,-1452.0,7758.0,605.0,0.66,0.593,0.359,0.29
3413617,-1522.0,7826.0,601.0,0.66,0.592,0.359,0.291
3413633,-1554.0,8128.0,683.0,0.661,0.591,0.359,0.291
3413649,-1582.0,7992.0,871.0,0.662,0.59,0.359,0.292
3413675,-1488.0,7838.0,881.0,0.663,0.589,0.359,0.292
3413691,-1366.0,7948.0,589.0,0.663,0.588,0.359,0.292
3413707,-1454.0,8006.0,623.0,0.664,0.587,0.359,0.293
3413723,-1602.0,7750.0,879.0,0.665,0.586,0.359,0.294
3413739,-1688.0,7898.0,1029.0,0.665,0.585,0.359,0.294
3413755,-1784.0,8064.0,1093.0,0.666,0.585,0.358,0.295
3413781,-1654.0,7966.0,1035.0,0.666,0.585,0.357,0.295
3413797,-1538.0,8028.0,781.0,0.666,0.585,0.355,0.295
3413813,-1456.0,8046.0,673.0,0.667,0.585,0.354,0.296
3413830,-1378.0,7946.0,709.0,0.667,0.585,0.353,0.296
3413846,-1346.0,8000.0,729.0,0.668,0.585,0.352,0.297
3413862,-1458.0,7866.0,881.0,0.668,0.585,0.35,0.298
3413888,-1354.0,7944.0,865.0,0.669,0.585,0.349,0.298
3413904,-1320.0,7990.0,733.0,0.67,0.585,0.347,0.299
3413920,-1112.0,7876.0,603.0,0.67,0.584,0.346,0.299
3413937,-1112.0,8014.0,591.0,0.671,0.584,0.345,0.299
3413953,-1084.0,8176.0,649.0,0.672,0.583,0.344,0.299
3413969,-1260.0,8054.0,825.0,0.674,0.582,0.342,0.3
3413985,-1200.0,7912.0,881.0,0.675,0.581,0.341,0.3
3414011,-1176.0,7992.0,971.0,0.677,0.58,0.34,0.3
3414027,-1164.0,7984.0,987.0,0.678,0.579,0.339,0.3
3414043,-1228.0,7920.0,1043.0,0.68,0.577,0.339,0.299
3414059,-1286.0,7944.0,1135.0,0.681,0.576,0.339,0.299
3414075,-1462.0,7584.0,1421.0,0.682,0.576,0.338,0.299
3414091,-1530.0,7782.0,1429.0,0.682,0.575,0.338,0.298
3414117,-1292.0,8158.0,1127.0,0.683,0.575,0.338,0.297
3414133,-1434.0,7722.0,1209.0,0.684,0.574,0.338,0.297
3414150,-1458.0,8008.0,1163.0,0.685,0.574,0.338,0.296
3414166,-1314.0,7780.0,1455.0,0.686,0.574,0.337,0.295
3414182,-1464.0,7940.0,1359.0,0.686,0.574,0.337,0.294
3414198,-1404.0,8258.0,1199.0,0.687,0.574,0.337,0.293
3414215,-1308.0,7926.0,1291.0,0.687,0.574,0.337,0.292
3414241,-1272.0,7826.0,1255.0,0.687,0.574,0.337,0.291
3414257,-1284.0,7774.0,1269.0,0.687,0.574,0.337,0.29
3414273,-1640.0,7874.0,1525.0,0.687,0.574,0.337,0.29
3414289,-1420.0,7868.0,1555.0,0.687,0.575,0.337,0.289
3414305,-1246.0,7754.0,1443.0,0.687,0.576,0.337,0.289
3414321,-1296.0,7776.0,1365.0,0.686,0.577,0.337,0.288
3414348,-1338.0,7926.0,1277.0,0.685,0.577,0.337,0.288
3414364,-1274.0,7722.0,1299.0,0.684,0.578,0.338,0.288
3414380,-1262.0,7800.0,1225.0,0.683,0.579,0.339,0.288
3414396,-1450.0,7918.0,1179.0,0.681,0.58,0.34,0.289
3414412,-1570.0,8068.0,1215.0,0.68,0.581,0.341,0.29
3414428,-1450.0,7968.0,1133.0,0.678,0.582,0.342,0.291
3414445,-1372.0,8144.0,897.0,0.676,0.582,0.343,0.292
3414471,-1204.0,8174.0,725.0,0.675,0.583,0.345,0.294
3414487,-1430.0,8018.0,825.0,0.673,0.583,0.345,0.295
3414503,-1394.0,7844.0,853.0,0.672,0.584,0.346,0.296
3414519,-1376.0,7926.0,843.0,0.67,0.584,0.347,0.298
3414535,-1418.0,7942.0,813.0,0.669,0.585,0.348,0.298
3414551,-1368.0,7880.0,745.0,0.667,0.586,0.349,0.299
3414577,-1308.0,7910.0,659.0,0.666,0.587,0.35,0.299
3414593,-1302.0,8040.0,583.0,0.665,0.588,0.351,0.3
3414609,-1318.0,8210.0,527.0,0.664,0.588,0.352,0.3
3414625,-1256.0,8178.0,577.0,0.663,0.589,0.353,0.3
3414641,-1262.0,7970.0,551.0,0.662,0.59,0.353,0.3
3414667,-1260.0,8050.0,537.0,0.661,0.59,0.354,0.3
3414684,-1270.0,8094.0,469.0,0.66,0.591,0.354,0.299
3414701,-1232.0,8048.0,481.0,0.66,0.591,0.354,0.299
3414717,-1222.0,8102.0,519.0,0.659,0.592,0.355,0.299
3414733,-1312.0,8144.0,495.0,0.659,0.592,0.355,0.298
3414749,-1204.0,8206.0,487.0,0.659,0.592,0.355,0.298
3414765,-1258.0,8112.0,535.0,0.66,0.592,0.355,0.298
3414791,-1230.0,8136.0,511.0,0.66,0.592,0.355,0.298
3414807,-1264.0,8114.0,549.0,0.661,0.591,0.355,0.298
3414823,-1220.0,8040.0,523.0,0.661,0.591,0.355,0.297
3414839,-1278.0,7988.0,547.0,0.662,0.59,0.355,0.297
3414855,-1376.0,8036.0,621.0,0.662,0.589,0.355,0.297
3414871,-1238.0,7992.0,585.0,0.663,0.589,0.354,0.297
3414897,-1322.0,7916.0,675.0,0.664,0.588,0.354,0.297
3414913,-1440.0,8018.0,715.0,0.664,0.588,0.355,0.297
3414930,-1224.0,8016.0,677.0,0.665,0.587,0.355,0.297
3414946,-1282.0,7718.0,799.0,0.665,0.587,0.355,0.296
3414962,-1298.0,7944.0,819.0,0.665,0.586,0.355,0.296
3414979,-1202.0,8042.0,619.0,0.665,0.586,0.355,0.296
3414996,-1262.0,7918.0,697.0,0.665,0.586,0.356,0.296
3415012,-1328.0,7890.0,801.0,0.665,0.586,0.357,0.295
3415038,-1296.0,7898.0,811.0,0.665,0.585,0.358,0.295
3415054,-1452.0,7960.0,883.0,0.665,0.585,0.359,0.295
3415070,-1516.0,8020.0,733.0,0.664,0.585,0.359,0.295
3415086,-1410.0,8012.0,763.0,0.664,0.585,0.36,0.296
3415103,-1380.0,7924.0,743.0,0.663,0.585,0.361,0.296
3415119,-1430.0,8024.0,787.0,0.663,0.585,0.362,0.296
3415135,-1476.0,7978.0,779.0,0.662,0.586,0.362,0.296
3415161,-1408.0,7918.0,767.0,0.661,0.586,0.363,0.296
3415177,-1438.0,7924.0,673.0,0.661,0.586,0.363,0.296
3415193,-1398.0,7944.0,641.0,0.66,0.587,0.363,0.297
3415209,-1446.0,8002.0,683.0,0.659,0.588,0.364,0.297
3415225,-1378.0,8008.0,625.0,0.658,0.588,0.364,0.297
3415251,-1352.0,8136.0,501.0,0.657,0.589,0.365,0.297
3415267,-1328.0,8066.0,485.0,0.656,0.589,0.365,0.298
3415284,-1412.0,8086.0,485.0,0.655,0.59,0.365,0.298
3415300,-1336.0,8104.0,407.0,0.654,0.591,0.365,0.299
3415317,-1232.0,8386.0,147.0,0.654,0.591,0.365,0.299
3415333,-1432.0,8304.0,547.0,0.654,0.591,0.365,0.3
3415349,-1392.0,7950.0,645.0,0.654,0.591,0.365,0.301
3415366,-1224.0,7696.0,499.0,0.653,0.591,0.364,0.302
3415392,-1176.0,7710.0,393.0,0.653,0.592,0.364,0.301
3415408,-1180.0,7882.0,281.0,0.652,0.593,0.365,0.301
3415424,-1074.0,7996.0,229.0,0.651,0.594,0.365,0.301
3415440,-1124.0,8000.0,323.0,0.651,0.594,0.366,0.301
3415457,-1148.0,8136.0,221.0,0.65,0.594,0.366,0.3
3415473,-1314.0,8236.0,323.0,0.65,0.594,0.367,0.3
3415489,-1334.0,8124.0,375.0,0.649,0.594,0.368,0.3
3415515,-1348.0,8094.0,385.0,0.649,0.594,0.368,0.3
3415531,-1310.0,7994.0,297.0,0.649,0.594,0.369,0.3
3415547,-1372.0,8156.0,301.0,0.649,0.593,0.369,0.3
3415563,-1340.0,8110.0,345.0,0.649,0.593,0.37,0.3
3415579,-1384.0,8046.0,385.0,0.65,0.593,0.369,0.299
3415605,-1402.0,8088.0,357.0,0.65,0.593,0.369,0.299
3415623,-1402.0,8078.0,355.0,0.65,0.592,0.369,0.299
3415639,-1334.0,7968.0,359.0,0.651,0.592,0.369,0.299
3415655,-1310.0,8034.0,371.0,0.651,0.592,0.369,0.299
3415671,-1360.0,8060.0,393.0,0.652,0.592,0.368,0.299
3415687,-1326.0,8012.0,447.0,0.652,0.591,0.368,0.299
3415704,-1244.0,8010.0,379.0,0.653,0.591,0.368,0.299
3415721,-1270.0,8008.0,357.0,0.653,0.591,0.368,0.299
3415737,-1346.0,8020.0,417.0,0.653,0.59,0.368,0.299
3415764,-1364.0,7954.0,423.0,0.654,0.59,0.368,0.299
3415780,-1342.0,7994.0,465.0,0.654,0.59,0.367,0.299
3415796,-1334.0,8088.0,439.0,0.654,0.589,0.367,0.299
3415813,-1314.0,8000.0,537.0,0.655,0.589,0.367,0.299
3415830,-1304.0,8010.0,519.0,0.655,0.589,0.367,0.299
3415846,-1292.0,8022.0,495.0,0.655,0.589,0.367,0.299
3415862,-1280.0,7934.0,489.0,0.656,0.589,0.367,0.299
3415888,-1290.0,8014.0,517.0,0.656,0.588,0.367,0.299
3415904,-1334.0,8026.0,603.0,0.656,0.588,0.367,0.299
3415920,-1344.0,8006.0,587.0,0.656,0.588,0.366,0.299
3415936,-1246.0,7988.0,581.0,0.656,0.588,0.366,0.299
3415952,-1252.0,7960.0,539.0,0.656,0.588,0.366,0.3
3415968,-1262.0,8044.0,581.0,0.656,0.588,0.366,0.3
3415994,-1364.0,8072.0,653.0,0.656,0.588,0.366,0.3
3416010,-1404.0,8488.0,603.0,0.656,0.588,0.366,0.301
3416026,-1310.0,7940.0,641.0,0.656,0.588,0.365,0.302
3416042,-1392.0,8174.0,573.0,0.656,0.587,0.365,0.303
3416058,-1204.0,7760.0,727.0,0.656,0.587,0.364,0.304
3416074,-1158.0,7798.0,569.0,0.656,0.587,0.364,0.304
3416100,-996.0,7982.0,399.0,0.656,0.587,0.364,0.304
3416116,-912.0,8036.0,329.0,0.655,0.587,0.365,0.305
3416132,-960.0,7862.0,455.0,0.655,0.587,0.365,0.305
3416149,-1062.0,7906.0,499.0,0.655,0.586,0.366,0.305
3416165,-1166.0,7888.0,579.0,0.654,0.586,0.367,0.306
3416182,-1292.0,8162.0,585.0,0.654,0.586,0.368,0.305
3416199,-1120.0,8076.0,479.0,0.654,0.586,0.369,0.305
3416216,-1288.0,8062.0,515.0,0.654,0.586,0.37,0.305
3416242,-1198.0,7966.0,517.0,0.654,0.585,0.371,0.305
3416259,-1324.0,8054.0,489.0,0.653,0.585,0.371,0.305
3416275,-1292.0,8238.0,327.0,0.653,0.585,0.372,0.304
3416292,-1312.0,8220.0,483.0,0.653,0.585,0.373,0.305
3416309,-1350.0,8134.0,457.0,0.653,0.584,0.373,0.305
3416326,-1334.0,8338.0,323.0,0.653,0.584,0.374,0.305
3416342,-1346.0,8176.0,449.0,0.653,0.583,0.374,0.306
3416359,-1400.0,7920.0,533.0,0.653,0.583,0.374,0.306
3416375,-1324.0,8086.0,407.0,0.653,0.582,0.374,0.306
3416392,-1304.0,8006.0,445.0,0.654,0.582,0.374,0.307
3416418,-1398.0,7938.0,475.0,0.654,0.581,0.374,0.307
3416434,-1492.0,8190.0,401.0,0.655,0.581,0.374,0.307
3416450,-1402.0,8080.0,477.0,0.655,0.58,0.374,0.307
3416466,-1402.0,8166.0,425.0,0.656,0.579,0.374,0.307
3416483,-1414.0,8196.0,489.0,0.657,0.579,0.373,0.307
3416499,-1404.0,8034.0,257.0,0.657,0.578,0.373,0.307
3416516,-1266.0,8290.0,313.0,0.657,0.578,0.373,0.308
3416542,-1260.0,7828.0,501.0,0.657,0.577,0.373,0.309
3416558,-1350.0,7702.0,681.0,0.658,0.577,0.373,0.309
3416574,-1442.0,7798.0,699.0,0.658,0.576,0.373,0.309
3416591,-1536.0,7990.0,737.0,0.659,0.575,0.373,0.309
3416608,-1548.0,7926.0,657.0,0.66,0.574,0.373,0.309
3416626,-1440.0,7916.0,711.0,0.661,0.574,0.373,0.309
3416642,-1406.0,7956.0,721.0,0.662,0.573,0.372,0.308
3416658,-1448.0,7994.0,729.0,0.663,0.572,0.372,0.308
3416675,-1418.0,8052.0,703.0,0.663,0.572,0.371,0.308
3416702,-1368.0,7982.0,731.0,0.664,0.571,0.371,0.308
3416718,-1378.0,7952.0,771.0,0.665,0.571,0.37,0.308
3416734,-1412.0,7972.0,849.0,0.666,0.571,0.37,0.308
3416750,-1410.0,7988.0,861.0,0.666,0.571,0.369,0.307
3416766,-1284.0,7954.0,817.0,0.667,0.57,0.368,0.307
3416782,-1250.0,7980.0,763.0,0.667,0.57,0.368,0.307
3416808,-1252.0,7976.0,775.0,0.668,0.57,0.367,0.307
3416824,-1296.0,7924.0,811.0,0.668,0.57,0.367,0.307
3416840,-1262.0,7906.0,853.0,0.668,0.57,0.367,0.307
3416856,-1282.0,7942.0,911.0,0.668,0.569,0.367,0.307
3416872,-1418.0,7962.0,955.0,0.669,0.569,0.367,0.307
3416888,-1358.0,8010.0,997.0,0.669,0.569,0.367,0.307
3416905,-1194.0,8006.0,811.0,0.669,0.569,0.367,0.307
3416931,-1152.0,7888.0,903.0,0.669,0.569,0.367,0.307
3416947,-1248.0,7874.0,861.0,0.668,0.57,0.367,0.307
3416963,-1164.0,7996.0,881.0,0.668,0.57,0.367,0.307
3416979,-1176.0,7946.0,891.0,0.668,0.57,0.368,0.307
3416995,-1264.0,7988.0,869.0,0.667,0.57,0.369,0.307
3417021,-1352.0,8052.0,835.0,0.667,0.57,0.369,0.307
3417037,-1266.0,7858.0,875.0,0.666,0.57,0.37,0.307
3417053,-1310.0,7914.0,811.0,0.666,0.571,0.371,0.306
3417069,-1432.0,8038.0,881.0,0.665,0.571,0.372,0.306
3417085,-1466.0,7984.0,869.0,0.664,0.571,0.372,0.306
3417101,-1344.0,7926.0,807.0,0.664,0.571,0.373,0.306
3417127,-1426.0,8012.0,801.0,0.663,0.572,0.374,0.306
3417143,-1336.0,7910.0,705.0,0.662,0.572,0.374,0.306
3417159,-1406.0,8070.0,501.0,0.662,0.573,0.375,0.306
3417175,-1574.0,8478.0,559.0,0.661,0.573,0.376,0.306
3417191,-1458.0,7918.0,765.0,0.66,0.573,0.376,0.308
3417207,-1466.0,7732.0,851.0,0.66,0.573,0.376,0.308
3417233,-1560.0,8010.0,717.0,0.659,0.574,0.377,0.309
3417249,-1412.0,7974.0,565.0,0.658,0.574,0.377,0.309
3417265,-1390.0,7842.0,567.0,0.657,0.574,0.377,0.31
3417281,-1372.0,7952.0,509.0,0.656,0.575,0.378,0.31
3417297,-1322.0,8030.0,447.0,0.656,0.575,0.378,0.31
3417313,-1428.0,8042.0,561.0,0.655,0.576,0.378,0.31
3417339,-1434.0,8030.0,649.0,0.654,0.577,0.378,0.31
3417355,-1324.0,7998.0,495.0,0.654,0.577,0.379,0.31
3417371,-1208.0,8106.0,227.0,0.653,0.578,0.379,0.31
3417387,-1186.0,8180.0,145.0,0.653,0.578,0.379,0.31
3417403,-1278.0,8216.0,305.0,0.653,0.578,0.379,0.31
3417419,-1262.0,8096.0,431.0,0.652,0.578,0.379,0.31
3417436,-1296.0,8014.0,483.0,0.652,0.578,0.38,0.31
3417462,-1252.0,8112.0,341.0,0.652,0.578,0.38,0.311
3417478,-1208.0,8110.0,393.0,0.652,0.578,0.38,0.311
3417494,-1258.0,7974.0,423.0,0.653,0.577,0.38,0.311
3417510,-1232.0,8030.0,441.0,0.653,0.577,0.38,0.311
3417526,-1180.0,8070.0,455.0,0.653,0.576,0.381,0.311
3417552,-1182.0,8058.0,423.0,0.653,0.576,0.381,0.311
3417568,-1234.0,7974.0,523.0,0.654,0.575,0.381,0.311
3417584,-1244.0,7998.0,551.0,0.654,0.574,0.382,0.311
3417600,-1334.0,7964.0,619.0,0.654,0.573,0.382,0.311
3417616,-1374.0,7936.0,603.0,0.655,0.573,0.383,0.311
3417632,-1416.0,7978.0,555.0,0.655,0.572,0.383,0.31
3417658,-1326.0,8062.0,547.0,0.655,0.572,0.384,0.31
3417674,-1464.0,8148.0,503.0,0.656,0.571,0.384,0.309
3417690,-1436.0,8114.0,693.0,0.656,0.571,0.384,0.309
3417706,-1484.0,7986.0,705.0,0.657,0.57,0.384,0.309
3417722,-1486.0,7976.0,631.0,0.657,0.57,0.385,0.309
3417738,-1454.0,7996.0,599.0,0.657,0.57,0.385,0.309
3417764,-1436.0,7952.0,585.0,0.657,0.57,0.385,0.309
3417780,-1446.0,8004.0,639.0,0.657,0.569,0.385,0.309
3417796,-1502.0,8008.0,665.0,0.657,0.569,0.385,0.309
3417812,-1430.0,8002.0,591.0,0.657,0.569,0.385,0.309
3417828,-1522.0,7986.0,651.0,0.657,0.569,0.385,0.309
3417844,-1508.0,7980.0,669.0,0.657,0.569,0.386,0.31
3417870,-1444.0,7878.0,607.0,0.657,0.569,0.386,0.31
3417886,-1512.0,7916.0,593.0,0.657,0.569,0.386,0.31
3417902,-1468.0,8000.0,629.0,0.656,0.569,0.386,0.31
3417918,-1522.0,7942.0,603.0,0.656,0.569,0.386,0.31
3417934,-1528.0,7924.0,575.0,0.655,0.57,0.387,0.31
3417950,-1502.0,7916.0,551.0,0.655,0.57,0.387,0.31
3417976,-1518.0,7928.0,545.0,0.654,0.571,0.388,0.31
3417992,-1376.0,7830.0,443.0,0.653,0.571,0.388,0.31
3418008,-1368.0,7996.0,409.0,0.652,0.572,0.389,0.311
3418024,-1400.0,7964.0,521.0,0.651,0.572,0.39,0.311
3418040,-1352.0,7964.0,553.0,0.651,0.573,0.39,0.311
3418056,-1470.0,8000.0,547.0,0.65,0.573,0.391,0.311
3418082,-1342.0,8030.0,493.0,0.649,0.574,0.391,0.311
3418098,-1318.0,8002.0,437.0,0.648,0.574,0.392,0.311
3418114,-1274.0,7944.0,405.0,0.647,0.574,0.392,0.312
3418130,-1360.0,7956.0,501.0,0.647,0.575,0.393,0.312
3418146,-1306.0,8010.0,451.0,0.646,0.575,0.393,0.312
3418162,-1282.0,8168.0,335.0,0.645,0.576,0.393,0.312
3418188,-1306.0,8044.0,395.0,0.644,0.576,0.394,0.312
3418204,-1280.0,7948.0,351.0,0.644,0.577,0.394,0.312
3418220,-1258.0,8026.0,307.0,0.643,0.577,0.395,0.312
3418237,-1252.0,7994.0,249.0,0.642,0.577,0.396,0.313
3418253,-1264.0,8054.0,247.0,0.641,0.578,0.396,0.313
3418269,-1330.0,7990.0,299.0,0.641,0.578,0.397,0.313
3418295,-1324.0,8016.0,219.0,0.64,0.578,0.398,0.313
3418311,-1292.0,7992.0,191.0,0.639,0.579,0.398,0.313
3418327,-1238.0,7888.0,207.0,0.638,0.579,0.399,0.313
3418343,-1360.0,7950.0,179.0,0.637,0.58,0.401,0.313
3418359,-1380.0,8042.0,173.0,0.636,0.581,0.402,0.313
3418385,-1332.0,8126.0,99.0,0.635,0.581,0.403,0.312
3418402,-1364.0,8168.0,117.0,0.634,0.581,0.404,0.312
3418418,-1406.0,8052.0,21.0,0.633,0.581,0.405,0.312
3418434,-1408.0,8070.0,5.0,0.632,0.581,0.406,0.312
3418450,-1394.0,7928.0,99.0,0.632,0.582,0.407,0.312
3418466,-1438.0,8132.0,-67.0,0.631,0.582,0.408,0.312
3418482,-1510.0,8204.0,9.0,0.631,0.582,0.408,0.312
3418498,-1472.0,8022.0,25.0,0.63,0.581,0.409,0.313
3418524,-1406.0,8084.0,-91.0,0.629,0.582,0.409,0.313
3418541,-1424.0,8128.0,-29.0,0.629,0.582,0.409,0.314
3418557,-1548.0,7924.0,-45.0,0.628,0.582,0.41,0.315
3418573,-1434.0,7962.0,-63.0,0.628,0.582,0.41,0.315
3418589,-1454.0,8090.0,-137.0,0.627,0.582,0.41,0.315
3418605,-1434.0,8286.0,-161.0,0.627,0.582,0.41,0.316
3418631,-1390.0,8074.0,-187.0,0.627,0.582,0.41,0.316
3418647,-1326.0,8056.0,-233.0,0.627,0.582,0.41,0.317
3418663,-1374.0,8120.0,-155.0,0.627,0.582,0.41,0.318
3418679,-1360.0,7956.0,-27.0,0.627,0.582,0.41,0.318
3418695,-1400.0,8038.0,-55.0,0.627,0.582,0.41,0.318
3418711,-1410.0,8130.0,-87.0,0.627,0.582,0.41,0.318
3418737,-1412.0,8228.0,-177.0,0.627,0.582,0.409,0.318
3418753,-1398.0,8220.0,1.0,0.628,0.581,0.409,0.318
3418769,-1342.0,8182.0,-241.0,0.629,0.581,0.408,0.318
3418785,-1380.0,8220.0,-173.0,0.629,0.58,0.407,0.319
3418801,-1272.0,8230.0,-195.0,0.63,0.579,0.407,0.319
3418817,-1378.0,8164.0,-11.0,0.632,0.578,0.406,0.32
3418843,-1360.0,7902.0,17.0,0.633,0.577,0.404,0.321
3418859,-1234.0,7822.0,31.0,0.634,0.576,0.403,0.322
3418875,-1260.0,8006.0,-15.0,0.636,0.575,0.402,0.322
3418891,-1194.0,8098.0,73.0,0.637,0.573,0.402,0.323
3418907,-1358.0,8078.0,225.0,0.639,0.572,0.401,0.324
3418923,-1332.0,8012.0,327.0,0.64,0.57,0.4,0.324
3418949,-1374.0,8098.0,431.0,0.642,0.568,0.4,0.325
3418965,-1396.0,7946.0,441.0,0.644,0.566,0.399,0.325
3418981,-1296.0,7956.0,385.0,0.646,0.564,0.398,0.326
3418997,-1188.0,7888.0,287.0,0.647,0.562,0.398,0.326
3419013,-1268.0,7878.0,593.0,0.649,0.56,0.397,0.327
3419029,-1546.0,7880.0,803.0,0.651,0.558,0.397,0.327
3419055,-1442.0,8004.0,723.0,0.653,0.557,0.396,0.327
3419071,-1416.0,8124.0,761.0,0.654,0.556,0.396,0.327
3419087,-1382.0,8012.0,811.0,0.656,0.554,0.395,0.326
3419103,-1358.0,7968.0,765.0,0.657,0.553,0.394,0.326
3419119,-1364.0,7936.0,697.0,0.659,0.552,0.393,0.326
3419145,-1360.0,7934.0,831.0,0.66,0.551,0.392,0.326
3419161,-1392.0,7940.0,939.0,0.661,0.551,0.392,0.326
3419177,-1364.0,7982.0,989.0,0.662,0.55,0.391,0.326
3419193,-1352.0,8012.0,1051.0,0.663,0.549,0.39,0.326
3419209,-1292.0,7942.0,995.0,0.664,0.549,0.39,0.326
3419225,-1382.0,7934.0,963.0,0.664,0.548,0.39,0.326
3419251,-1286.0,7866.0,1051.0,0.665,0.548,0.389,0.326
3419268,-1258.0,7826.0,963.0,0.665,0.547,0.389,0.326
3419285,-1322.0,7868.0,991.0,0.666,0.547,0.389,0.326
3419301,-1342.0,7862.0,1001.0,0.666,0.546,0.39,0.326
3419317,-1384.0,7882.0,1005.0,0.666,0.546,0.39,0.325
3419333,-1440.0,7982.0,1027.0,0.666,0.546,0.39,0.325
3419350,-1512.0,7978.0,955.0,0.666,0.546,0.391,0.325
3419366,-1484.0,7950.0,983.0,0.666,0.546,0.391,0.325
3419392,-1482.0,7848.0,1053.0,0.666,0.545,0.391,0.325
3419408,-1482.0,7866.0,1005.0,0.666,0.546,0.392,0.325
3419424,-1538.0,8008.0,981.0,0.665,0.546,0.393,0.325
3419440,-1566.0,7938.0,951.0,0.665,0.546,0.393,0.324
3419456,-1464.0,7928.0,917.0,0.664,0.546,0.393,0.324
3419473,-1542.0,8016.0,879.0,0.664,0.547,0.394,0.324
3419499,-1584.0,7996.0,913.0,0.663,0.548,0.394,0.325
3419515,-1662.0,7922.0,813.0,0.662,0.548,0.394,0.325
3419532,-1572.0,8020.0,939.0,0.661,0.549,0.395,0.325
3419548,-1678.0,7872.0,883.0,0.66,0.55,0.394,0.325
3419565,-1626.0,7992.0,817.0,0.66,0.551,0.394,0.325
3419582,-1518.0,7914.0,819.0,0.659,0.553,0.394,0.325
3419598,-1512.0,7894.0,833.0,0.658,0.554,0.393,0.325
3419615,-1470.0,7984.0,629.0,0.657,0.555,0.393,0.324
3419632,-1520.0,8050.0,553.0,0.657,0.556,0.393,0.325
3419658,-1350.0,8004.0,687.0,0.656,0.557,0.392,0.325
3419674,-1338.0,7856.0,541.0,0.655,0.558,0.392,0.325
3419690,-1380.0,7944.0,363.0,0.654,0.559,0.392,0.325
3419707,-1410.0,8082.0,275.0,0.653,0.56,0.392,0.325
3419723,-1478.0,8148.0,523.0,0.652,0.561,0.391,0.326
3419739,-1484.0,8034.0,889.0,0.651,0.563,0.39,0.326
3419755,-1350.0,7954.0,763.0,0.65,0.565,0.389,0.326
3419782,-1290.0,8002.0,589.0,0.649,0.568,0.388,0.325
3419798,-1220.0,8150.0,533.0,0.648,0.571,0.387,0.324
3419814,-1186.0,8098.0,499.0,0.647,0.573,0.385,0.323
3419831,-1152.0,7976.0,501.0,0.646,0.576,0.383,0.322
3419847,-1146.0,8018.0,385.0,0.645,0.578,0.382,0.321
3419863,-1098.0,7952.0,239.0,0.645,0.581,0.38,0.321
3419879,-1042.0,8194.0,339.0,0.644,0.582,0.379,0.32
3419905,-982.0,8048.0,459.0,0.644,0.583,0.378,0.319
3419922,-932.0,7992.0,427.0,0.644,0.584,0.377,0.319
3419939,-876.0,8002.0,333.0,0.644,0.585,0.376,0.319
3419955,-848.0,7958.0,263.0,0.644,0.585,0.376,0.318
3419971,-766.0,8024.0,199.0,0.643,0.585,0.377,0.318
3419987,-712.0,8082.0,211.0,0.643,0.585,0.378,0.319
3420004,-786.0,8042.0,345.0,0.642,0.584,0.38,0.319
3420021,-824.0,8068.0,401.0,0.641,0.584,0.382,0.32
3420038,-724.0,7954.0,461.0,0.64,0.583,0.385,0.321
3420065,-676.0,7912.0,295.0,0.639,0.581,0.388,0.321
3420081,-626.0,7912.0,97.0,0.637,0.58,0.392,0.322
3420097,-690.0,8318.0,-287.0,0.635,0.578,0.397,0.323
3420113,-842.0,8416.0,-3.0,0.634,0.576,0.402,0.325
3420129,-980.0,8406.0,33.0,0.632,0.573,0.406,0.327
3420145,-1350.0,8364.0,235.0,0.631,0.57,0.41,0.33
3420171,-1302.0,8094.0,287.0,0.63,0.568,0.413,0.332
3420187,-1416.0,7958.0,223.0,0.628,0.566,0.417,0.333
3420203,-1452.0,8026.0,253.0,0.627,0.565,0.419,0.334
3420219,-1378.0,7884.0,325.0,0.626,0.565,0.421,0.334
3420235,-1348.0,8054.0,175.0,0.625,0.565,0.423,0.333
3420252,-1286.0,8190.0,57.0,0.625,0.565,0.424,0.332
3420268,-1308.0,8148.0,-75.0,0.626,0.565,0.424,0.331
3420295,-1400.0,8106.0,-67.0,0.627,0.564,0.425,0.329
3420311,-1420.0,8090.0,55.0,0.628,0.564,0.425,0.328
3420327,-1434.0,8080.0,-27.0,0.629,0.563,0.425,0.327
3420343,-1410.0,8184.0,-37.0,0.631,0.562,0.425,0.326
3420359,-1454.0,8192.0,-109.0,0.632,0.56,0.425,0.325
3420375,-1434.0,8234.0,-47.0,0.634,0.559,0.425,0.325
3420401,-1592.0,8064.0,-33.0,0.636,0.557,0.425,0.324
3420417,-1518.0,8016.0,61.0,0.637,0.555,0.425,0.324
3420433,-1824.0,7954.0,265.0,0.639,0.553,0.425,0.324
3420449,-1780.0,8118.0,279.0,0.641,0.552,0.424,0.324
3420465,-1678.0,7940.0,149.0,0.642,0.55,0.424,0.324
3420482,-1742.0,7652.0,233.0,0.644,0.549,0.424,0.323
3420508,-1786.0,7544.0,387.0,0.646,0.548,0.424,0.322
3420524,-1768.0,7626.0,487.0,0.647,0.546,0.424,0.321
3420540,-1794.0,7636.0,547.0,0.648,0.545,0.425,0.32
3420557,-1862.0,7694.0,491.0,0.649,0.544,0.426,0.318
3420573,-1810.0,7660.0,511.0,0.65,0.544,0.427,0.316
3420590,-1876.0,7680.0,289.0,0.65,0.543,0.429,0.314
3420607,-1922.0,8024.0,307.0,0.65,0.542,0.431,0.313
3420624,-2062.0,8180.0,483.0,0.65,0.542,0.432,0.312
3420641,-2180.0,7996.0,651.0,0.65,0.541,0.433,0.311
3420667,-2298.0,7880.0,683.0,0.651,0.54,0.434,0.311
3420683,-2232.0,8244.0,335.0,0.651,0.539,0.435,0.311
3420699,-2134.0,8336.0,445.0,0.651,0.539,0.435,0.311
3420715,-2278.0,8140.0,403.0,0.651,0.539,0.435,0.312
3420731,-2088.0,7910.0,649.0,0.651,0.538,0.434,0.313
3420747,-2176.0,7740.0,731.0,0.652,0.539,0.432,0.314
3420773,-1962.0,7898.0,465.0,0.652,0.539,0.43,0.315
3420789,-1858.0,8154.0,413.0,0.652,0.54,0.428,0.316
3420805,-1958.0,8072.0,467.0,0.653,0.54,0.426,0.317
3420821,-1944.0,8020.0,281.0,0.654,0.539,0.423,0.319
3420837,-1962.0,7926.0,529.0,0.656,0.538,0.421,0.32
3420853,-1922.0,7956.0,561.0,0.658,0.538,0.418,0.321
3420879,-1724.0,7732.0,551.0,0.66,0.537,0.416,0.322
3420896,-1672.0,7526.0,455.0,0.661,0.536,0.414,0.323
3420912,-1680.0,7668.0,399.0,0.663,0.535,0.413,0.323
3420928,-1722.0,7844.0,565.0,0.664,0.535,0.412,0.323
3420944,-1790.0,7752.0,743.0,0.665,0.534,0.411,0.322
3420960,-1824.0,7722.0,813.0,0.666,0.533,0.41,0.322
3420976,-1752.0,7744.0,803.0,0.667,0.533,0.409,0.322
3421002,-1680.0,7808.0,865.0,0.668,0.532,0.409,0.321
3421018,-1798.0,7992.0,579.0,0.669,0.532,0.409,0.32
3421034,-1898.0,8034.0,873.0,0.669,0.531,0.409,0.32
3421050,-1928.0,7964.0,991.0,0.67,0.53,0.409,0.32
3421066,-1852.0,7916.0,1067.0,0.671,0.53,0.408,0.32
3421092,-1810.0,7932.0,1109.0,0.672,0.529,0.408,0.321
3421108,-1840.0,7922.0,1217.0,0.672,0.528,0.407,0.321
3421124,-1726.0,7840.0,1093.0,0.673,0.528,0.406,0.321
3421140,-1714.0,7804.0,1109.0,0.673,0.528,0.406,0.322
3421156,-1736.0,7730.0,1087.0,0.674,0.528,0.405,0.322
3421172,-1680.0,7902.0,1157.0,0.674,0.527,0.405,0.322
3421198,-1706.0,8060.0,1077.0,0.674,0.527,0.404,0.323
3421214,-1714.0,8076.0,1071.0,0.675,0.526,0.403,0.324
3421230,-1752.0,8010.0,1107.0,0.676,0.526,0.402,0.325
3421246,-1710.0,7896.0,1179.0,0.676,0.525,0.401,0.326
3421262,-1748.0,7932.0,1177.0,0.677,0.524,0.4,0.327
3421278,-1772.0,7804.0,1249.0,0.678,0.524,0.399,0.327
3421304,-1730.0,7746.0,1259.0,0.678,0.523,0.398,0.328
3421320,-1628.0,7802.0,1231.0,0.679,0.523,0.397,0.328
3421336,-1556.0,7778.0,1149.0,0.679,0.523,0.396,0.328
3421352,-1544.0,7828.0,1153.0,0.68,0.523,0.395,0.329
3421368,-1508.0,7808.0,1199.0,0.68,0.524,0.394,0.329
3421384,-1530.0,7824.0,1199.0,0.68,0.524,0.394,0.329
3421410,-1544.0,7830.0,1189.0,0.68,0.524,0.394,0.329
3421426,-1514.0,7814.0,1201.0,0.68,0.524,0.394,0.329
3421442,-1512.0,7780.0,1273.0,0.679,0.525,0.394,0.329
3421458,-1566.0,7868.0,1297.0,0.679,0.525,0.394,0.329
3421474,-1556.0,7924.0,1241.0,0.678,0.525,0.395,0.329
3421491,-1462.0,7894.0,1221.0,0.678,0.525,0.395,0.329
3421508,-1484.0,7906.0,1183.0,0.677,0.525,0.396,0.33
3421534,-1604.0,7884.0,1169.0,0.676,0.525,0.397,0.33
3421550,-1616.0,7882.0,1195.0,0.676,0.525,0.398,0.33
3421566,-1636.0,7844.0,1267.0,0.675,0.525,0.399,0.331
3421582,-1512.0,7778.0,1301.0,0.674,0.526,0.4,0.331
3421599,-1574.0,7746.0,1193.0,0.673,0.526,0.401,0.331
3421616,-1522.0,7836.0,1115.0,0.672,0.527,0.402,0.33
3421632,-1512.0,7886.0,1123.0,0.671,0.527,0.403,0.33
3421649,-1574.0,7842.0,1157.0,0.67,0.528,0.404,0.33
3421675,-1650.0,8008.0,1097.0,0.669,0.528,0.405,0.33
3421692,-1684.0,7878.0,1131.0,0.668,0.529,0.406,0.329
3421708,-1574.0,7792.0,1027.0,0.667,0.53,0.407,0.329
3421725,-1742.0,8018.0,929.0,0.666,0.53,0.409,0.329
3421741,-1816.0,7930.0,1011.0,0.665,0.531,0.409,0.329
3421758,-1730.0,7848.0,1027.0,0.664,0.532,0.41,0.329
3421775,-1788.0,8070.0,861.0,0.663,0.533,0.411,0.328
3421801,-1694.0,8072.0,911.0,0.661,0.534,0.411,0.328
3421818,-1792.0,7836.0,915.0,0.66,0.536,0.412,0.328
3421834,-1810.0,7910.0,939.0,0.658,0.537,0.412,0.328
3421850,-1682.0,7828.0,891.0,0.657,0.539,0.413,0.329
3421866,-1628.0,7952.0,821.0,0.655,0.54,0.413,0.329
3421883,-1434.0,7960.0,523.0,0.654,0.542,0.414,0.329
3421900,-1824.0,7898.0,347.0,0.652,0.543,0.414,0.329
3421916,-1516.0,8232.0,421.0,0.651,0.544,0.415,0.33
3421932,-1730.0,8196.0,557.0,0.649,0.545,0.416,0.33
3421958,-1528.0,8058.0,545.0,0.648,0.545,0.416,0.331
3421975,-1412.0,7882.0,353.0,0.646,0.546,0.417,0.332
3421991,-1312.0,7786.0,187.0,0.645,0.547,0.418,0.332
3422008,-1416.0,8016.0,191.0,0.643,0.548,0.419,0.332
3422025,-1556.0,7934.0,329.0,0.642,0.549,0.42,0.333
3422042,-1774.0,8006.0,505.0,0.641,0.55,0.42,0.333
3422059,-1644.0,8362.0,335.0,0.64,0.55,0.42,0.333
3422075,-1432.0,8286.0,107.0,0.639,0.551,0.42,0.334
3422101,-1464.0,8188.0,85.0,0.639,0.552,0.42,0.334
3422118,-1464.0,8182.0,125.0,0.638,0.552,0.42,0.334
3422134,-1416.0,7934.0,147.0,0.638,0.552,0.419,0.335
3422150,-1398.0,7924.0,217.0,0.639,0.552,0.419,0.335
3422166,-1332.0,7984.0,209.0,0.639,0.552,0.418,0.335
3422182,-1436.0,8074.0,253.0,0.639,0.552,0.418,0.335
3422198,-1302.0,8074.0,241.0,0.64,0.551,0.418,0.335
3422215,-1262.0,7896.0,185.0,0.64,0.551,0.417,0.335
3422241,-1386.0,7870.0,255.0,0.641,0.55,0.418,0.335
3422257,-1328.0,7926.0,355.0,0.641,0.55,0.418,0.334
3422274,-1434.0,7974.0,447.0,0.642,0.55,0.418,0.334
3422291,-1482.0,8018.0,509.0,0.642,0.549,0.419,0.333
3422307,-1494.0,8096.0,357.0,0.643,0.549,0.419,0.332
3422324,-1512.0,8012.0,475.0,0.643,0.548,0.419,0.331
3422341,-1458.0,8004.0,575.0,0.644,0.548,0.419,0.331
3422357,-1638.0,7936.0,655.0,0.644,0.547,0.419,0.33
3422383,-1576.0,8014.0,601.0,0.645,0.547,0.419,0.33
3422400,-1488.0,7978.0,529.0,0.645,0.547,0.419,0.33
3422417,-1456.0,7814.0,491.0,0.645,0.547,0.42,0.33
3422434,-1454.0,7904.0,559.0,0.645,0.547,0.42,0.33
3422451,-1606.0,8104.0,617.0,0.645,0.547,0.421,0.33
3422467,-1706.0,7982.0,681.0,0.644,0.546,0.421,0.33
3422484,-1698.0,7956.0,601.0,0.644,0.546,0.422,0.33
3422500,-1570.0,7938.0,543.0,0.643,0.546,0.422,0.331
3422516,-1452.0,7970.0,503.0,0.643,0.546,0.423,0.331
3422543,-1592.0,8072.0,499.0,0.642,0.547,0.423,0.332
3422560,-1562.0,8012.0,403.0,0.641,0.547,0.424,0.332
3422577,-1586.0,7950.0,425.0,0.64,0.547,0.424,0.333
3422593,-1608.0,7940.0,489.0,0.639,0.548,0.424,0.333
3422609,-1592.0,7944.0,415.0,0.639,0.549,0.424,0.333
3422625,-1508.0,7964.0,411.0,0.638,0.55,0.424,0.333
3422642,-1552.0,8072.0,393.0,0.637,0.551,0.424,0.333
3422658,-1528.0,8192.0,267.0,0.636,0.551,0.424,0.334
3422685,-1490.0,7954.0,107.0,0.635,0.552,0.424,0.334
3422701,-1482.0,8134.0,325.0,0.634,0.553,0.425,0.335
3422718,-1406.0,8138.0,241.0,0.633,0.554,0.425,0.335
3422734,-1304.0,8234.0,31.0,0.632,0.554,0.425,0.336
3422751,-1310.0,8082.0,159.0,0.632,0.554,0.425,0.337
3422768,-1236.0,7810.0,127.0,0.631,0.554,0.425,0.338
3422784,-1208.0,7720.0,89.0,0.631,0.554,0.425,0.338
3422801,-1336.0,7982.0,83.0,0.631,0.554,0.425,0.338
3422818,-1340.0,8012.0,51.0,0.63,0.554,0.426,0.338
3422844,-1324.0,8188.0,43.0,0.63,0.554,0.426,0.339
3422861,-1386.0,8110.0,147.0,0.631,0.553,0.426,0.339
3422878,-1506.0,8066.0,287.0,0.631,0.553,0.426,0.339
3422894,-1396.0,8012.0,89.0,0.632,0.552,0.426,0.339
3422910,-1344.0,8056.0,67.0,0.632,0.552,0.426,0.339
3422926,-1364.0,7958.0,115.0,0.633,0.551,0.426,0.338
3422942,-1358.0,8036.0,223.0,0.634,0.55,0.426,0.338
3422968,-1598.0,7978.0,395.0,0.635,0.55,0.425,0.338
3422984,-1512.0,8180.0,243.0,0.635,0.549,0.425,0.338
3423000,-1414.0,8008.0,261.0,0.636,0.548,0.425,0.338
3423016,-1464.0,7904.0,353.0,0.637,0.548,0.424,0.338
3423032,-1364.0,7960.0,257.0,0.638,0.547,0.424,0.338
3423048,-1570.0,7906.0,455.0,0.639,0.546,0.424,0.338
3423074,-1624.0,8234.0,437.0,0.64,0.546,0.423,0.338
3423090,-1486.0,8188.0,389.0,0.641,0.545,0.423,0.338
3423106,-1458.0,7944.0,381.0,0.642,0.544,0.422,0.338
3423122,-1534.0,7968.0,385.0,0.643,0.543,0.422,0.338
3423138,-1628.0,7974.0,573.0,0.644,0.542,0.421,0.339
3423154,-1566.0,8080.0,523.0,0.645,0.541,0.42,0.339
3423180,-1572.0,8006.0,549.0,0.646,0.54,0.419,0.339
3423197,-1556.0,7918.0,607.0,0.647,0.539,0.418,0.34
3423213,-1466.0,8024.0,601.0,0.648,0.539,0.417,0.34
3423229,-1452.0,7888.0,625.0,0.649,0.538,0.417,0.34
3423245,-1538.0,7954.0,513.0,0.65,0.537,0.416,0.34
3423261,-1496.0,7962.0,733.0,0.651,0.537,0.415,0.34
3423277,-1476.0,7866.0,787.0,0.652,0.536,0.415,0.34
3423304,-1514.0,7966.0,823.0,0.653,0.536,0.414,0.34
3423321,-1442.0,7932.0,835.0,0.653,0.536,0.413,0.34
3423338,-1412.0,7884.0,799.0,0.654,0.535,0.413,0.34
3423354,-1390.0,7884.0,797.0,0.655,0.535,0.412,0.339
3423370,-1332.0,7810.0,829.0,0.655,0.535,0.412,0.339
3423386,-1396.0,7924.0,805.0,0.655,0.535,0.412,0.338
3423402,-1312.0,8022.0,653.0,0.656,0.535,0.412,0.338
3423428,-1508.0,8074.0,793.0,0.656,0.535,0.412,0.338
3423444,-1534.0,8014.0,823.0,0.656,0.534,0.412,0.338
3423460,-1530.0,7970.0,875.0,0.657,0.534,0.412,0.338
3423476,-1502.0,7950.0,877.0,0.657,0.533,0.412,0.339
3423492,-1520.0,7958.0,911.0,0.657,0.533,0.411,0.339
3423508,-1540.0,7918.0,875.0,0.657,0.533,0.411,0.339
3423534,-1488.0,7862.0,897.0,0.657,0.532,0.411,0.34
3423550,-1514.0,7864.0,945.0,0.658,0.532,0.411,0.34
3423566,-1486.0,7902.0,923.0,0.658,0.532,0.411,0.34
3423583,-1464.0,7952.0,935.0,0.658,0.532,0.411,0.34
3423600,-1454.0,7906.0,883.0,0.658,0.532,0.411,0.34
3423616,-1414.0,7900.0,853.0,0.658,0.532,0.411,0.34
3423632,-1402.0,7868.0,793.0,0.657,0.532,0.411,0.34
3423658,-1574.0,7980.0,837.0,0.657,0.532,0.412,0.34
3423674,-1580.0,7912.0,863.0,0.657,0.532,0.412,0.341
3423690,-1546.0,7952.0,923.0,0.656,0.532,0.412,0.341
3423706,-1674.0,7928.0,923.0,0.656,0.532,0.413,0.341
3423722,-1740.0,7970.0,995.0,0.655,0.532,0.413,0.341
3423738,-1702.0,8176.0,857.0,0.655,0.533,0.413,0.341
3423764,-1550.0,8186.0,709.0,0.654,0.534,0.413,0.341
3423780,-1392.0,8196.0,637.0,0.654,0.534,0.413,0.341
3423796,-1318.0,8022.0,681.0,0.654,0.534,0.413,0.342
3423812,-1278.0,7836.0,747.0,0.653,0.535,0.413,0.342
3423828,-1296.0,7840.0,693.0,0.653,0.535,0.412,0.342
3423844,-1262.0,7984.0,609.0,0.653,0.535,0.413,0.342
3423870,-1338.0,7946.0,615.0,0.653,0.535,0.413,0.342
3423886,-1332.0,7962.0,611.0,0.653,0.535,0.413,0.342
3423902,-1434.0,8050.0,651.0,0.653,0.535,0.413,0.342
3423918,-1484.0,8004.0,713.0,0.653,0.534,0.414,0.342
3423934,-1568.0,7970.0,775.0,0.653,0.534,0.414,0.342
3423950,-1440.0,8002.0,689.0,0.653,0.534,0.415,0.342
3423977,-1402.0,7944.0,657.0,0.653,0.534,0.415,0.341
3423993,-1584.0,7972.0,759.0,0.653,0.533,0.415,0.341
3424010,-1546.0,8044.0,765.0,0.653,0.533,0.416,0.341
3424026,-1524.0,7926.0,803.0,0.654,0.533,0.416,0.341
3424043,-1592.0,7992.0,817.0,0.654,0.532,0.416,0.341
3424060,-1638.0,8050.0,805.0,0.654,0.532,0.416,0.341
3424076,-1566.0,7990.0,737.0,0.654,0.532,0.416,0.341
3424093,-1540.0,7934.0,685.0,0.654,0.532,0.416,0.341
3424110,-1600.0,7914.0,823.0,0.654,0.532,0.416,0.341
3424127,-1604.0,7944.0,847.0,0.655,0.531,0.416,0.341
3424153,-1566.0,7972.0,801.0,0.655,0.531,0.415,0.341
3424169,-1514.0,7982.0,705.0,0.655,0.531,0.415,0.341
3424185,-1562.0,7936.0,701.0,0.655,0.531,0.415,0.341
3424202,-1578.0,7930.0,847.0,0.656,0.53,0.415,0.341
3424219,-1546.0,7926.0,787.0,0.656,0.53,0.415,0.342
3424236,-1496.0,7960.0,775.0,0.656,0.53,0.415,0.342
3424253,-1612.0,7982.0,857.0,0.656,0.53,0.414,0.342
3424269,-1540.0,7946.0,813.0,0.656,0.53,0.414,0.342
3424295,-1508.0,8014.0,765.0,0.656,0.53,0.414,0.342
3424311,-1512.0,7946.0,913.0,0.657,0.53,0.414,0.342
3424327,-1502.0,7972.0,845.0,0.657,0.53,0.414,0.342
3424343,-1434.0,7956.0,827.0,0.657,0.53,0.413,0.342
3424359,-1464.0,7958.0,935.0,0.657,0.529,0.413,0.342
3424375,-1486.0,7942.0,821.0,0.657,0.529,0.413,0.342
3424402,-1448.0,8036.0,849.0,0.657,0.529,0.413,0.342
3424418,-1404.0,7912.0,841.0,0.658,0.529,0.413,0.342
3424434,-1406.0,7932.0,905.0,0.658,0.529,0.413,0.343
3424450,-1520.0,7978.0,873.0,0.658,0.529,0.413,0.343
3424466,-1478.0,7964.0,813.0,0.658,0.529,0.413,0.343
3424482,-1436.0,7910.0,891.0,0.658,0.529,0.413,0.343
3424499,-1492.0,7904.0,891.0,0.658,0.528,0.413,0.343
3424525,-1478.0,7910.0,917.0,0.658,0.528,0.413,0.343
3424541,-1454.0,7942.0,865.0,0.658,0.528,0.413,0.343
3424557,-1498.0,8016.0,851.0,0.658,0.528,0.413,0.343
3424573,-1514.0,7906.0,909.0,0.658,0.528,0.414,0.343
3424589,-1518.0,7952.0,919.0,0.658,0.528,0.414,0.343
3424606,-1576.0,7914.0,971.0,0.657,0.528,0.414,0.343
3424632,-1574.0,7972.0,875.0,0.657,0.528,0.414,0.343
3424648,-1532.0,7946.0,857.0,0.657,0.529,0.414,0.342
3424665,-1558.0,7992.0,885.0,0.657,0.529,0.414,0.342
3424681,-1514.0,7976.0,853.0,0.657,0.529,0.414,0.342
3424697,-1588.0,7916.0,897.0,0.657,0.529,0.415,0.342
3424713,-1554.0,7980.0,859.0,0.656,0.529,0.415,0.342
3424729,-1524.0,7956.0,841.0,0.656,0.529,0.415,0.342
3424755,-1556.0,7946.0,857.0,0.656,0.529,0.415,0.342
3424771,-1476.0,7912.0,833.0,0.656,0.53,0.415,0.342
3424788,-1530.0,7982.0,801.0,0.655,0.53,0.416,0.342
3424804,-1534.0,7984.0,791.0,0.655,0.53,0.416,0.342
3424821,-1474.0,8022.0,791.0,0.655,0.53,0.416,0.342
3424838,-1582.0,7958.0,827.0,0.654,0.53,0.416,0.342
3424854,-1532.0,7986.0,783.0,0.654,0.531,0.416,0.342
3424880,-1468.0,7948.0,745.0,0.654,0.531,0.417,0.342
3424896,-1550.0,7946.0,729.0,0.654,0.531,0.417,0.342
3424912,-1526.0,7982.0,763.0,0.653,0.531,0.417,0.342
3424928,-1512.0,7974.0,723.0,0.653,0.531,0.417,0.342
3424945,-1510.0,7980.0,743.0,0.653,0.532,0.417,0.342
3424961,-1536.0,7986.0,729.0,0.653,0.532,0.418,0.342
3424977,-1534.0,8038.0,743.0,0.652,0.532,0.418,0.342
3425003,-1530.0,7964.0,729.0,0.652,0.532,0.418,0.342
3425020,-1498.0,8002.0,727.0,0.652,0.532,0.418,0.342
3425036,-1484.0,8032.0,665.0,0.652,0.533,0.418,0.342
3425052,-1478.0,7956.0,709.0,0.652,0.533,0.418,0.342
3425069,-1592.0,8010.0,735.0,0.651,0.533,0.418,0.342
3425086,-1524.0,8006.0,677.0,0.651,0.533,0.418,0.342
3425103,-1450.0,7976.0,641.0,0.651,0.533,0.418,0.342
3425120,-1424.0,7934.0,679.0,0.651,0.534,0.418,0.342
3425137,-1462.0,7992.0,679.0,0.651,0.534,0.418,0.342
3425154,-1490.0,7952.0,639.0,0.651,0.534,0.418,0.342
3425171,-1528.0,7944.0,733.0,0.651,0.534,0.418,0.342
3425197,-1584.0,8000.0,705.0,0.65,0.534,0.418,0.342
3425213,-1456.0,7994.0,667.0,0.65,0.534,0.418,0.342
3425229,-1496.0,7954.0,669.0,0.65,0.534,0.418,0.342
3425246,-1498.0,7996.0,647.0,0.65,0.534,0.418,0.342
3425262,-1462.0,7968.0,729.0,0.65,0.534,0.418,0.342
3425279,-1568.0,7944.0,731.0,0.65,0.534,0.418,0.342
3425296,-1480.0,8042.0,611.0,0.65,0.535,0.418,0.342
3425322,-1472.0,8004.0,639.0,0.65,0.535,0.418,0.342
3425338,-1474.0,7966.0,681.0,0.65,0.535,0.418,0.342
3425354,-1500.0,7988.0,691.0,0.649,0.535,0.418,0.342
3425370,-1456.0,7986.0,679.0,0.649,0.535,0.418,0.342
3425387,-1478.0,7964.0,673.0,0.649,0.535,0.418,0.343
3425404,-1496.0,7996.0,691.0,0.649,0.535,0.418,0.343
3425420,-1444.0,8006.0,663.0,0.649,0.535,0.418,0.343
3425446,-1388.0,8042.0,653.0,0.649,0.535,0.418,0.343
3425462,-1454.0,7928.0,651.0,0.649,0.535,0.418,0.343
3425478,-1468.0,7904.0,667.0,0.649,0.535,0.418,0.343
3425494,-1458.0,8004.0,697.0,0.649,0.536,0.418,0.343
3425510,-1436.0,8002.0,685.0,0.649,0.536,0.418,0.343
3425526,-1422.0,8016.0,651.0,0.649,0.536,0.418,0.343
3425552,-1378.0,7996.0,677.0,0.649,0.536,0.418,0.343
3425568,-1468.0,7930.0,657.0,0.649,0.536,0.418,0.343
3425585,-1446.0,7956.0,651.0,0.648,0.536,0.418,0.343
3425602,-1428.0,7970.0,631.0,0.648,0.536,0.418,0.343
3425619,-1430.0,7982.0,705.0,0.648,0.536,0.418,0.343
3425636,-1440.0,8048.0,645.0,0.648,0.536,0.418,0.343
3425653,-1438.0,7954.0,671.0,0.648,0.536,0.418,0.343
3425669,-1446.0,8014.0,689.0,0.648,0.536,0.419,0.343
3425686,-1358.0,7996.0,657.0,0.648,0.536,0.419,0.343
3425703,-1382.0,7986.0,649.0,0.647,0.537,0.419,0.343
3425720,-1420.0,7976.0,603.0,0.647,0.537,0.419,0.343
3425746,-1416.0,7960.0,653.0,0.647,0.537,0.419,0.343
3425763,-1420.0,7978.0,679.0,0.647,0.537,0.42,0.343
3425779,-1432.0,8016.0,673.0,0.646,0.537,0.42,0.343
3425795,-1370.0,8002.0,579.0,0.646,0.537,0.421,0.343
3425812,-1402.0,7984.0,609.0,0.646,0.537,0.421,0.342
3425828,-1390.0,7938.0,653.0,0.645,0.537,0.422,0.342
3425845,-1396.0,7904.0,589.0,0.645,0.538,0.422,0.342
3425862,-1370.0,7926.0,569.0,0.644,0.538,0.423,0.342
3425888,-1422.0,7912.0,517.0,0.644,0.538,0.424,0.342
3425905,-1396.0,8076.0,513.0,0.643,0.538,0.425,0.341
3425921,-1518.0,8098.0,653.0,0.643,0.538,0.426,0.341
3425937,-1682.0,8004.0,657.0,0.642,0.538,0.426,0.341
3425953,-1536.0,8068.0,469.0,0.642,0.538,0.427,0.341
3425970,-1482.0,8042.0,413.0,0.642,0.538,0.428,0.341
3425987,-1484.0,8074.0,453.0,0.641,0.538,0.428,0.341
3426003,-1448.0,7974.0,463.0,0.641,0.538,0.428,0.341
3426030,-1466.0,7866.0,389.0,0.641,0.538,0.429,0.341
3426047,-1514.0,7970.0,545.0,0.64,0.538,0.429,0.341
3426064,-1540.0,7932.0,483.0,0.64,0.538,0.43,0.341
3426081,-1526.0,8012.0,379.0,0.64,0.538,0.43,0.341
3426097,-1484.0,7958.0,309.0,0.64,0.538,0.431,0.341
3426114,-1494.0,7860.0,389.0,0.639,0.538,0.431,0.341
3426130,-1570.0,7976.0,343.0,0.639,0.538,0.432,0.341
3426147,-1506.0,7886.0,351.0,0.638,0.538,0.433,0.341
3426163,-1570.0,7954.0,345.0,0.638,0.537,0.434,0.34
