timestamp,ax,ay,az,q0,q1,q2,q3
3945176,384.0,5588.0,-1233.0,0.62,0.635,0.358,0.29
3945192,-128.0,5542.0,-1781.0,0.614,0.628,0.379,0.292
3945208,-750.0,6714.0,-1617.0,0.604,0.622,0.403,0.294
3945224,-1592.0,10434.0,-735.0,0.593,0.615,0.428,0.295
3945250,-3578.0,13124.0,-1079.0,0.585,0.604,0.45,0.3
3945266,-4776.0,10600.0,-753.0,0.58,0.595,0.463,0.309
3945282,-4818.0,7624.0,47.0,0.576,0.59,0.47,0.316
3945298,-5290.0,7130.0,1375.0,0.574,0.59,0.471,0.317
3945315,-4724.0,7040.0,757.0,0.574,0.597,0.466,0.312
3945331,-3624.0,8538.0,-175.0,0.575,0.607,0.456,0.305
3945347,-2514.0,10544.0,-801.0,0.579,0.617,0.441,0.299
3945373,-1660.0,10576.0,-1097.0,0.586,0.625,0.422,0.296
3945389,-878.0,9368.0,-813.0,0.595,0.631,0.401,0.294
3945405,-286.0,8442.0,-1031.0,0.603,0.638,0.379,0.293
3945421,-268.0,7788.0,-517.0,0.609,0.643,0.36,0.293
3945437,-638.0,7584.0,-1217.0,0.616,0.646,0.342,0.293
3945463,6.0,6624.0,-931.0,0.621,0.649,0.327,0.294
3945479,710.0,6734.0,-579.0,0.624,0.652,0.316,0.293
3945495,654.0,7784.0,-969.0,0.625,0.655,0.308,0.293
3945511,508.0,7812.0,-1107.0,0.626,0.656,0.302,0.294
3945527,216.0,6762.0,-1409.0,0.628,0.654,0.3,0.296
3945543,162.0,6894.0,-1035.0,0.63,0.651,0.3,0.298
3945569,-66.0,7060.0,-1155.0,0.632,0.648,0.302,0.3
3945585,-166.0,7782.0,-787.0,0.632,0.645,0.307,0.301
3945601,-290.0,7916.0,-973.0,0.632,0.641,0.313,0.302
3945617,-382.0,7726.0,-1073.0,0.632,0.637,0.322,0.302
3945633,-444.0,8190.0,-735.0,0.632,0.633,0.331,0.302
3945649,-764.0,7964.0,-693.0,0.632,0.628,0.34,0.302
3945675,-794.0,8106.0,-357.0,0.632,0.623,0.35,0.302
3945691,-820.0,8856.0,149.0,0.632,0.617,0.359,0.302
3945707,-1044.0,9028.0,-43.0,0.633,0.611,0.367,0.302
3945723,-1170.0,7690.0,-21.0,0.635,0.604,0.375,0.304
3945739,-1438.0,8180.0,189.0,0.636,0.597,0.383,0.304
3945755,-1526.0,8266.0,611.0,0.637,0.59,0.39,0.305
3945781,-1616.0,8226.0,891.0,0.638,0.584,0.397,0.307
3945797,-1834.0,8102.0,897.0,0.64,0.577,0.402,0.308
3945813,-2048.0,7596.0,327.0,0.641,0.572,0.408,0.31
3945829,-2646.0,7846.0,645.0,0.642,0.567,0.413,0.311
3945845,-2866.0,8060.0,1037.0,0.643,0.563,0.415,0.312
3945861,-2900.0,7908.0,1363.0,0.645,0.56,0.416,0.312
3945887,-2712.0,7640.0,1379.0,0.646,0.559,0.415,0.312
3945903,-2556.0,7790.0,931.0,0.648,0.56,0.413,0.31
3945919,-2416.0,7802.0,1127.0,0.649,0.562,0.41,0.309
3945935,-2090.0,7900.0,1063.0,0.65,0.565,0.405,0.307
3945952,-1682.0,8364.0,649.0,0.651,0.568,0.4,0.306
3945968,-1640.0,8276.0,881.0,0.652,0.571,0.394,0.305
3945984,-1540.0,7928.0,675.0,0.653,0.575,0.388,0.304
3946010,-1238.0,8398.0,547.0,0.654,0.578,0.382,0.304
3946026,-1214.0,8426.0,463.0,0.655,0.58,0.377,0.305
3946042,-956.0,8056.0,463.0,0.656,0.581,0.371,0.306
3946058,-782.0,7636.0,453.0,0.658,0.582,0.367,0.307
3946074,-868.0,7458.0,347.0,0.658,0.583,0.363,0.308
3946100,-858.0,7902.0,317.0,0.659,0.584,0.36,0.309
3946116,-806.0,7960.0,365.0,0.659,0.584,0.358,0.31
3946132,-934.0,7866.0,413.0,0.66,0.584,0.356,0.311
3946148,-968.0,7984.0,403.0,0.661,0.583,0.355,0.312
3946164,-886.0,8014.0,321.0,0.662,0.582,0.355,0.312
3946180,-888.0,7844.0,149.0,0.663,0.58,0.355,0.313
3946206,-1024.0,7944.0,457.0,0.663,0.579,0.356,0.314
3946222,-1170.0,8008.0,661.0,0.664,0.577,0.357,0.315
3946238,-1226.0,8086.0,761.0,0.665,0.575,0.358,0.315
3946254,-1208.0,8082.0,907.0,0.665,0.574,0.359,0.316
3946270,-1222.0,7846.0,561.0,0.665,0.573,0.36,0.317
3946286,-1202.0,8102.0,475.0,0.665,0.571,0.362,0.317
3946312,-1290.0,8194.0,703.0,0.665,0.569,0.364,0.318
3946328,-1348.0,8012.0,1089.0,0.665,0.567,0.366,0.32
3946344,-1474.0,8044.0,1219.0,0.666,0.565,0.367,0.321
3946361,-1372.0,8028.0,1157.0,0.666,0.564,0.368,0.322
3946377,-1560.0,7994.0,1031.0,0.666,0.562,0.369,0.323
3946393,-1730.0,8030.0,1061.0,0.666,0.561,0.369,0.324
3946409,-1362.0,7762.0,1169.0,0.667,0.56,0.369,0.325
3946435,-1242.0,7760.0,1271.0,0.668,0.559,0.369,0.325
3946451,-1074.0,7992.0,1179.0,0.668,0.559,0.368,0.325
3946467,-1002.0,8046.0,719.0,0.669,0.559,0.368,0.324
3946483,-1018.0,8358.0,635.0,0.669,0.558,0.368,0.325
3946499,-1116.0,7918.0,1021.0,0.67,0.557,0.368,0.325
3946515,-1346.0,7820.0,1301.0,0.67,0.557,0.368,0.325
3946541,-1468.0,7976.0,1441.0,0.671,0.556,0.367,0.325
3946557,-1430.0,7884.0,1225.0,0.672,0.556,0.366,0.325
3946573,-1358.0,7936.0,945.0,0.672,0.556,0.365,0.325
3946589,-1332.0,7962.0,1121.0,0.673,0.556,0.364,0.325
3946606,-1380.0,7886.0,1283.0,0.673,0.556,0.364,0.326
3946623,-1562.0,7860.0,1433.0,0.673,0.556,0.363,0.326
3946639,-1298.0,7954.0,1243.0,0.673,0.556,0.362,0.326
3946665,-1216.0,8026.0,1035.0,0.673,0.557,0.361,0.326
3946682,-1276.0,7918.0,1111.0,0.673,0.557,0.36,0.327
3946698,-1248.0,7820.0,1223.0,0.673,0.557,0.359,0.328
3946715,-1140.0,7814.0,1143.0,0.673,0.557,0.359,0.328
3946732,-1204.0,7974.0,1105.0,0.673,0.557,0.359,0.329
3946749,-1400.0,7722.0,1245.0,0.672,0.557,0.36,0.329
3946765,-1120.0,7766.0,1089.0,0.671,0.557,0.36,0.33
3946781,-1132.0,7920.0,1083.0,0.671,0.558,0.361,0.33
3946807,-1056.0,7962.0,1105.0,0.67,0.558,0.362,0.33
3946823,-1086.0,7572.0,1285.0,0.668,0.559,0.364,0.33
3946839,-1208.0,7764.0,1181.0,0.666,0.561,0.365,0.329
3946855,-1040.0,8188.0,933.0,0.665,0.562,0.367,0.328
3946871,-896.0,8264.0,823.0,0.663,0.564,0.368,0.327
3946887,-832.0,8000.0,823.0,0.662,0.565,0.37,0.326
3946913,-998.0,8020.0,907.0,0.661,0.566,0.371,0.325
3946929,-990.0,7954.0,893.0,0.66,0.567,0.372,0.324
3946945,-1116.0,8168.0,859.0,0.659,0.568,0.373,0.324
3946961,-1074.0,8182.0,839.0,0.658,0.569,0.374,0.323
3946977,-1026.0,7930.0,735.0,0.657,0.569,0.375,0.323
3947003,-1182.0,8132.0,833.0,0.656,0.57,0.376,0.322
3947019,-1266.0,7884.0,823.0,0.655,0.571,0.377,0.322
3947035,-1084.0,8086.0,591.0,0.654,0.571,0.378,0.322
3947051,-1030.0,8234.0,459.0,0.653,0.571,0.379,0.322
3947067,-1278.0,8164.0,521.0,0.652,0.571,0.38,0.322
3947083,-1206.0,7920.0,583.0,0.651,0.571,0.382,0.323
3947099,-1328.0,7894.0,585.0,0.65,0.571,0.383,0.323
3947126,-1324.0,7938.0,555.0,0.649,0.571,0.385,0.323
3947142,-1364.0,8014.0,431.0,0.648,0.571,0.386,0.323
3947159,-1444.0,8104.0,341.0,0.647,0.571,0.388,0.323
3947176,-1374.0,8400.0,211.0,0.646,0.571,0.39,0.323
3947193,-1588.0,8246.0,297.0,0.645,0.571,0.391,0.325
3947210,-1422.0,7998.0,277.0,0.644,0.57,0.392,0.326
3947227,-1428.0,7946.0,281.0,0.643,0.569,0.394,0.327
3947244,-1450.0,7744.0,389.0,0.643,0.569,0.395,0.327
3947261,-1526.0,7776.0,411.0,0.642,0.569,0.397,0.328
3947277,-1640.0,7906.0,479.0,0.641,0.568,0.398,0.328
3947303,-1482.0,7980.0,459.0,0.64,0.568,0.4,0.328
3947319,-1566.0,8304.0,325.0,0.64,0.568,0.401,0.327
3947336,-1500.0,8138.0,441.0,0.64,0.568,0.402,0.327
3947352,-1386.0,7996.0,303.0,0.639,0.568,0.402,0.326
3947368,-1346.0,8346.0,197.0,0.64,0.568,0.402,0.326
3947384,-1358.0,8098.0,271.0,0.64,0.568,0.402,0.326
3947401,-1484.0,7890.0,305.0,0.64,0.567,0.402,0.326
3947427,-1404.0,8080.0,229.0,0.64,0.567,0.403,0.326
3947443,-1510.0,7970.0,331.0,0.64,0.567,0.403,0.326
3947460,-1526.0,7926.0,421.0,0.641,0.566,0.403,0.326
3947476,-1500.0,7944.0,387.0,0.641,0.566,0.403,0.326
3947492,-1466.0,7970.0,465.0,0.641,0.566,0.403,0.326
3947508,-1418.0,7908.0,383.0,0.641,0.566,0.404,0.326
3947524,-1410.0,7968.0,473.0,0.641,0.565,0.404,0.325
3947550,-1466.0,7908.0,497.0,0.642,0.565,0.404,0.325
3947566,-1428.0,7928.0,481.0,0.642,0.565,0.405,0.324
3947583,-1402.0,7996.0,425.0,0.642,0.565,0.405,0.324
3947599,-1442.0,8028.0,431.0,0.642,0.564,0.406,0.324
3947615,-1414.0,8028.0,439.0,0.642,0.564,0.406,0.324
3947632,-1466.0,8104.0,409.0,0.641,0.564,0.407,0.324
3947648,-1508.0,7906.0,545.0,0.641,0.564,0.407,0.324
3947674,-1486.0,7900.0,515.0,0.641,0.563,0.408,0.325
3947691,-1452.0,7926.0,459.0,0.641,0.564,0.408,0.325
3947708,-1320.0,7976.0,403.0,0.64,0.564,0.409,0.325
3947724,-1414.0,7888.0,329.0,0.64,0.564,0.409,0.325
3947744,-1346.0,8052.0,227.0,0.639,0.564,0.41,0.324
3947760,-1474.0,7998.0,343.0,0.639,0.564,0.411,0.324
3947777,-1420.0,7920.0,373.0,0.638,0.564,0.412,0.324
3947793,-1416.0,8024.0,227.0,0.637,0.564,0.413,0.324
3947809,-1426.0,8000.0,207.0,0.636,0.565,0.414,0.324
3947825,-1378.0,8098.0,79.0,0.635,0.565,0.415,0.324
3947852,-1516.0,8146.0,221.0,0.635,0.565,0.417,0.324
3947869,-1502.0,8018.0,267.0,0.634,0.565,0.418,0.324
3947885,-1506.0,8142.0,191.0,0.633,0.565,0.418,0.324
3947902,-1558.0,8086.0,169.0,0.633,0.565,0.419,0.324
3947918,-1478.0,7936.0,113.0,0.632,0.565,0.42,0.323
3947935,-1634.0,8084.0,133.0,0.632,0.565,0.421,0.323
3947951,-1820.0,8124.0,247.0,0.632,0.565,0.422,0.323
3947968,-2194.0,8364.0,393.0,0.631,0.565,0.422,0.323
3947994,-2230.0,8630.0,605.0,0.632,0.565,0.421,0.324
3948010,-1844.0,8156.0,403.0,0.632,0.565,0.42,0.324
3948026,-1368.0,7666.0,-105.0,0.633,0.565,0.418,0.324
3948042,-1230.0,7538.0,-459.0,0.634,0.564,0.418,0.324
3948059,-1212.0,7852.0,-461.0,0.635,0.564,0.417,0.323
3948075,-990.0,7874.0,-535.0,0.636,0.564,0.417,0.322
3948091,-1266.0,8106.0,-335.0,0.637,0.563,0.417,0.322
3948117,-1710.0,8100.0,211.0,0.638,0.562,0.417,0.322
3948133,-1892.0,8002.0,479.0,0.639,0.561,0.416,0.321
3948149,-1810.0,7840.0,433.0,0.641,0.56,0.416,0.321
3948165,-1776.0,8032.0,311.0,0.642,0.558,0.416,0.321
3948182,-1718.0,7810.0,421.0,0.644,0.557,0.415,0.32
3948198,-1758.0,7756.0,431.0,0.645,0.556,0.415,0.32
3948224,-1678.0,7792.0,457.0,0.646,0.555,0.415,0.32
3948240,-1866.0,7824.0,569.0,0.647,0.554,0.414,0.319
3948256,-1846.0,7760.0,683.0,0.648,0.554,0.414,0.319
3948272,-1918.0,7862.0,675.0,0.648,0.553,0.414,0.319
3948288,-1868.0,7762.0,683.0,0.648,0.553,0.414,0.319
3948304,-1934.0,7686.0,781.0,0.648,0.553,0.415,0.319
3948330,-1738.0,7830.0,617.0,0.648,0.554,0.415,0.319
3948346,-1698.0,7806.0,613.0,0.647,0.554,0.415,0.32
3948362,-1718.0,7808.0,577.0,0.646,0.555,0.416,0.32
3948378,-1782.0,8046.0,499.0,0.644,0.556,0.416,0.32
3948394,-1640.0,7978.0,441.0,0.643,0.557,0.416,0.321
3948410,-1784.0,8044.0,449.0,0.641,0.558,0.417,0.322
3948436,-1942.0,7896.0,425.0,0.639,0.56,0.416,0.322
3948452,-1998.0,8014.0,223.0,0.638,0.562,0.416,0.323
3948468,-2118.0,8330.0,509.0,0.637,0.564,0.414,0.323
3948484,-1904.0,8156.0,573.0,0.637,0.567,0.411,0.323
3948500,-1646.0,8258.0,571.0,0.637,0.571,0.406,0.322
3948516,-1430.0,8170.0,361.0,0.637,0.575,0.401,0.322
3948542,-1188.0,8246.0,223.0,0.637,0.578,0.396,0.321
3948558,-1050.0,7988.0,185.0,0.637,0.582,0.391,0.321
3948574,-814.0,8156.0,29.0,0.637,0.584,0.387,0.321
3948590,-772.0,7892.0,-89.0,0.638,0.586,0.383,0.321
3948606,-814.0,8096.0,47.0,0.638,0.588,0.38,0.321
3948622,-544.0,7990.0,15.0,0.638,0.588,0.378,0.322
3948648,-406.0,8190.0,-331.0,0.638,0.589,0.377,0.323
3948664,-516.0,8166.0,-275.0,0.639,0.588,0.376,0.324
3948680,-770.0,7688.0,-155.0,0.639,0.586,0.377,0.325
3948697,-872.0,7812.0,-43.0,0.639,0.585,0.378,0.326
3948713,-1036.0,8148.0,113.0,0.64,0.583,0.38,0.327
3948729,-1052.0,8210.0,153.0,0.64,0.581,0.382,0.328
3948746,-1282.0,8294.0,275.0,0.641,0.579,0.383,0.328
3948772,-1136.0,8176.0,165.0,0.642,0.576,0.384,0.329
3948788,-1184.0,8006.0,351.0,0.643,0.574,0.385,0.33
3948804,-1226.0,7982.0,427.0,0.644,0.572,0.386,0.33
3948820,-1208.0,8004.0,605.0,0.645,0.571,0.387,0.33
3948836,-1182.0,8050.0,425.0,0.646,0.57,0.387,0.33
3948852,-1184.0,8156.0,467.0,0.647,0.568,0.388,0.329
3948878,-1206.0,8250.0,487.0,0.648,0.567,0.388,0.33
3948895,-1196.0,8166.0,619.0,0.649,0.565,0.387,0.33
3948911,-1260.0,8148.0,839.0,0.651,0.563,0.387,0.331
3948927,-1326.0,8030.0,907.0,0.653,0.562,0.386,0.331
3948944,-1326.0,8032.0,753.0,0.654,0.56,0.385,0.332
3948960,-1280.0,8094.0,871.0,0.656,0.558,0.384,0.332
3948976,-1356.0,7904.0,989.0,0.658,0.557,0.382,0.333
3948993,-1272.0,8024.0,971.0,0.66,0.555,0.381,0.334
3949020,-1046.0,8024.0,971.0,0.662,0.553,0.379,0.334
3949037,-1218.0,7836.0,1083.0,0.664,0.552,0.378,0.335
3949053,-1096.0,7976.0,637.0,0.665,0.551,0.377,0.335
3949069,-1080.0,7780.0,971.0,0.667,0.55,0.376,0.335
3949085,-1206.0,7858.0,1101.0,0.668,0.549,0.375,0.335
3949101,-1226.0,7874.0,1297.0,0.669,0.549,0.374,0.335
3949117,-1256.0,7628.0,1437.0,0.669,0.549,0.373,0.334
3949143,-1108.0,7678.0,1179.0,0.67,0.549,0.373,0.333
3949160,-1102.0,8072.0,863.0,0.67,0.549,0.373,0.332
3949177,-1014.0,8126.0,975.0,0.67,0.55,0.373,0.331
3949194,-1196.0,8094.0,1189.0,0.671,0.55,0.372,0.331
3949211,-1112.0,8102.0,1059.0,0.671,0.55,0.372,0.331
3949228,-1178.0,7970.0,1149.0,0.671,0.55,0.371,0.331
3949245,-1082.0,7872.0,1113.0,0.671,0.55,0.371,0.331
3949262,-1144.0,7968.0,1179.0,0.672,0.549,0.37,0.332
3949279,-1112.0,7954.0,1163.0,0.672,0.549,0.37,0.332
3949296,-1182.0,7798.0,1255.0,0.672,0.549,0.37,0.333
3949313,-1122.0,7948.0,1205.0,0.672,0.548,0.37,0.333
3949339,-1114.0,8012.0,1109.0,0.672,0.548,0.371,0.334
3949356,-1208.0,7960.0,1167.0,0.672,0.547,0.371,0.334
3949372,-1090.0,7982.0,1057.0,0.672,0.546,0.371,0.335
3949388,-1172.0,8094.0,1055.0,0.672,0.545,0.372,0.336
3949404,-1366.0,7746.0,1299.0,0.671,0.545,0.373,0.337
3949420,-1196.0,7934.0,1193.0,0.671,0.544,0.373,0.338
3949436,-1096.0,7990.0,1211.0,0.671,0.544,0.374,0.338
3949462,-1202.0,7708.0,1313.0,0.671,0.544,0.375,0.338
3949478,-1196.0,7882.0,1087.0,0.67,0.544,0.376,0.337
3949494,-1152.0,8090.0,1023.0,0.67,0.545,0.377,0.336
3949510,-1168.0,7818.0,1213.0,0.669,0.545,0.377,0.336
3949526,-1172.0,7862.0,1257.0,0.668,0.546,0.379,0.335
3949542,-1178.0,8010.0,1155.0,0.668,0.547,0.38,0.334
3949568,-1114.0,8054.0,1019.0,0.667,0.547,0.381,0.333
3949584,-1130.0,8050.0,1061.0,0.666,0.548,0.382,0.332
3949600,-1206.0,7876.0,1073.0,0.666,0.548,0.383,0.331
3949616,-1278.0,7942.0,1099.0,0.665,0.549,0.384,0.331
3949632,-1324.0,8070.0,955.0,0.664,0.549,0.385,0.331
3949648,-1294.0,7992.0,921.0,0.663,0.549,0.386,0.33
3949674,-1422.0,7998.0,925.0,0.663,0.55,0.387,0.331
3949690,-1290.0,8152.0,757.0,0.662,0.55,0.388,0.331
3949706,-1194.0,8282.0,493.0,0.661,0.55,0.389,0.332
3949723,-1706.0,8446.0,755.0,0.66,0.549,0.39,0.333
3949739,-1478.0,8022.0,837.0,0.66,0.548,0.39,0.334
3949755,-1318.0,7892.0,739.0,0.66,0.548,0.39,0.335
3949781,-1344.0,7814.0,721.0,0.659,0.547,0.391,0.336
3949797,-1446.0,7912.0,689.0,0.659,0.546,0.392,0.336
3949813,-1414.0,7982.0,685.0,0.659,0.546,0.393,0.337
3949829,-1610.0,8034.0,807.0,0.659,0.545,0.393,0.337
3949845,-1634.0,8038.0,851.0,0.66,0.545,0.393,0.336
3949861,-1554.0,8020.0,715.0,0.66,0.544,0.394,0.336
3949887,-1516.0,7944.0,727.0,0.661,0.544,0.394,0.336
3949903,-1548.0,7872.0,807.0,0.662,0.543,0.394,0.335
3949919,-1558.0,7794.0,825.0,0.662,0.543,0.394,0.334
3949935,-1500.0,7916.0,927.0,0.663,0.543,0.394,0.333
3949951,-1352.0,7974.0,901.0,0.663,0.543,0.393,0.332
3949967,-1420.0,7878.0,827.0,0.664,0.543,0.394,0.331
3949993,-1528.0,8006.0,873.0,0.664,0.544,0.394,0.329
3950009,-1468.0,7930.0,1039.0,0.665,0.544,0.393,0.329
3950025,-1384.0,8002.0,1057.0,0.665,0.544,0.393,0.328
3950041,-1388.0,7938.0,1027.0,0.665,0.544,0.393,0.327
3950057,-1412.0,7854.0,961.0,0.665,0.545,0.393,0.326
3950073,-1272.0,7946.0,811.0,0.665,0.545,0.394,0.326
3950099,-1410.0,7928.0,937.0,0.664,0.545,0.394,0.326
3950115,-1384.0,7926.0,1019.0,0.664,0.545,0.394,0.326
3950131,-1458.0,8000.0,957.0,0.664,0.546,0.395,0.326
3950147,-1636.0,8026.0,1015.0,0.663,0.546,0.395,0.326
3950163,-1404.0,7882.0,939.0,0.663,0.546,0.395,0.326
3950179,-1398.0,7938.0,869.0,0.662,0.546,0.396,0.327
3950205,-1456.0,8114.0,745.0,0.662,0.547,0.396,0.327
3950221,-1430.0,8038.0,747.0,0.661,0.547,0.396,0.328
3950237,-1374.0,8050.0,801.0,0.66,0.547,0.396,0.329
3950254,-1398.0,8002.0,815.0,0.66,0.547,0.396,0.33
3950270,-1542.0,8102.0,749.0,0.659,0.547,0.397,0.33
3950286,-1596.0,7828.0,843.0,0.659,0.546,0.396,0.331
3950312,-1410.0,7920.0,807.0,0.659,0.547,0.396,0.332
3950328,-1312.0,8074.0,649.0,0.659,0.547,0.396,0.332
3950344,-1280.0,8078.0,625.0,0.659,0.547,0.396,0.333
3950361,-1366.0,7948.0,681.0,0.659,0.546,0.396,0.333
3950378,-1458.0,7904.0,773.0,0.659,0.546,0.396,0.333
3950395,-1418.0,7978.0,773.0,0.659,0.546,0.396,0.334
3950411,-1340.0,8028.0,705.0,0.659,0.546,0.396,0.333
3950427,-1440.0,7982.0,705.0,0.659,0.546,0.397,0.333
3950453,-1374.0,7930.0,717.0,0.659,0.546,0.397,0.333
3950469,-1396.0,8008.0,713.0,0.659,0.546,0.397,0.333
3950486,-1460.0,7982.0,781.0,0.659,0.546,0.397,0.332
3950502,-1442.0,7908.0,867.0,0.659,0.546,0.397,0.332
3950519,-1418.0,7866.0,753.0,0.659,0.546,0.398,0.331
3950536,-1418.0,7990.0,783.0,0.659,0.546,0.398,0.331
3950552,-1416.0,7954.0,831.0,0.659,0.545,0.398,0.331
3950569,-1424.0,8010.0,887.0,0.659,0.545,0.399,0.331
3950595,-1442.0,8010.0,815.0,0.659,0.545,0.399,0.331
3950611,-1520.0,8014.0,937.0,0.659,0.544,0.399,0.331
3950627,-1394.0,7992.0,853.0,0.659,0.544,0.4,0.331
3950643,-1470.0,8002.0,837.0,0.659,0.544,0.4,0.331
3950659,-1494.0,7992.0,895.0,0.659,0.544,0.4,0.332
3950675,-1502.0,8042.0,897.0,0.659,0.543,0.399,0.332
3950701,-1488.0,7884.0,841.0,0.659,0.543,0.399,0.333
3950717,-1408.0,7912.0,797.0,0.659,0.543,0.399,0.333
3950733,-1444.0,8050.0,883.0,0.659,0.543,0.399,0.334
3950749,-1512.0,8070.0,885.0,0.659,0.543,0.398,0.334
3950765,-1454.0,7926.0,745.0,0.659,0.543,0.398,0.335
3950781,-1296.0,7938.0,777.0,0.659,0.543,0.397,0.335
3950807,-1340.0,7762.0,905.0,0.659,0.543,0.397,0.335
3950823,-1490.0,7870.0,947.0,0.659,0.544,0.397,0.335
3950839,-1398.0,8010.0,805.0,0.659,0.544,0.397,0.335
3950855,-1320.0,7926.0,793.0,0.658,0.545,0.397,0.335
3950871,-1282.0,7962.0,703.0,0.657,0.545,0.398,0.336
3950887,-1330.0,7962.0,731.0,0.657,0.545,0.398,0.336
3950913,-1342.0,7964.0,755.0,0.656,0.545,0.399,0.336
3950929,-1396.0,8232.0,669.0,0.655,0.546,0.399,0.337
3950945,-1290.0,8084.0,719.0,0.655,0.546,0.4,0.337
3950961,-1316.0,7972.0,821.0,0.654,0.546,0.4,0.338
3950978,-1392.0,7974.0,751.0,0.654,0.546,0.4,0.338
3950994,-1210.0,7978.0,689.0,0.653,0.546,0.401,0.339
3951020,-1212.0,8164.0,639.0,0.653,0.546,0.401,0.339
3951037,-1356.0,8120.0,671.0,0.653,0.545,0.402,0.339
3951054,-1332.0,7940.0,723.0,0.653,0.545,0.402,0.34
3951070,-1374.0,8040.0,733.0,0.653,0.544,0.402,0.34
3951086,-1428.0,8058.0,733.0,0.653,0.544,0.402,0.34
3951103,-1336.0,7986.0,731.0,0.654,0.543,0.403,0.34
3951120,-1334.0,7994.0,699.0,0.654,0.543,0.403,0.34
3951136,-1460.0,7964.0,681.0,0.654,0.542,0.403,0.339
3951153,-1424.0,7962.0,805.0,0.655,0.542,0.403,0.339
3951179,-1624.0,7996.0,1059.0,0.655,0.541,0.403,0.339
3951196,-1706.0,8074.0,1021.0,0.655,0.541,0.403,0.339
3951213,-1536.0,8062.0,813.0,0.656,0.541,0.403,0.339
3951230,-1232.0,7854.0,641.0,0.656,0.541,0.402,0.339
3951246,-1080.0,7926.0,661.0,0.656,0.541,0.402,0.339
3951262,-1364.0,7966.0,703.0,0.657,0.541,0.402,0.339
3951278,-1450.0,7922.0,883.0,0.656,0.541,0.402,0.339
3951294,-1586.0,7984.0,965.0,0.656,0.541,0.402,0.339
3951321,-1502.0,7902.0,947.0,0.656,0.541,0.402,0.339
3951337,-1480.0,7884.0,897.0,0.656,0.542,0.402,0.339
3951354,-1372.0,7932.0,773.0,0.655,0.542,0.402,0.339
3951370,-1352.0,8042.0,771.0,0.655,0.543,0.403,0.339
3951387,-1388.0,8082.0,793.0,0.654,0.543,0.403,0.339
3951403,-1454.0,8064.0,791.0,0.654,0.543,0.403,0.34
3951419,-1496.0,7954.0,913.0,0.653,0.543,0.403,0.34
3951436,-1470.0,7978.0,807.0,0.652,0.544,0.403,0.341
3951462,-1426.0,8026.0,811.0,0.652,0.544,0.403,0.342
3951478,-1394.0,8010.0,807.0,0.651,0.545,0.403,0.342
3951494,-1440.0,8040.0,807.0,0.651,0.545,0.402,0.343
3951510,-1336.0,7982.0,733.0,0.65,0.546,0.402,0.343
3951527,-1284.0,7978.0,761.0,0.65,0.547,0.401,0.344
3951543,-1308.0,8046.0,709.0,0.649,0.547,0.401,0.344
3951560,-1282.0,7942.0,651.0,0.649,0.548,0.4,0.345
3951586,-1332.0,8148.0,719.0,0.648,0.549,0.4,0.345
3951603,-1258.0,8118.0,617.0,0.648,0.549,0.399,0.346
3951619,-1082.0,8010.0,601.0,0.647,0.55,0.398,0.346
3951636,-1008.0,7990.0,565.0,0.647,0.55,0.398,0.347
3951653,-1030.0,7956.0,513.0,0.647,0.55,0.398,0.347
3951670,-988.0,7992.0,627.0,0.646,0.55,0.398,0.348
3951686,-1120.0,8164.0,765.0,0.646,0.55,0.398,0.349
3951703,-1146.0,7918.0,797.0,0.646,0.55,0.399,0.349
3951720,-1120.0,8300.0,679.0,0.646,0.549,0.399,0.35
3951746,-1056.0,7968.0,637.0,0.646,0.549,0.399,0.35
3951762,-1318.0,8278.0,611.0,0.646,0.548,0.399,0.351
3951778,-1082.0,7998.0,671.0,0.646,0.547,0.399,0.351
3951794,-1004.0,7928.0,707.0,0.646,0.547,0.399,0.352
3951810,-1050.0,8066.0,779.0,0.647,0.547,0.399,0.352
3951826,-1078.0,8056.0,775.0,0.647,0.546,0.398,0.353
3951852,-1222.0,7912.0,803.0,0.648,0.546,0.398,0.353
3951868,-1230.0,7992.0,847.0,0.648,0.545,0.397,0.353
3951884,-1064.0,8000.0,815.0,0.649,0.545,0.397,0.353
3951900,-1060.0,7870.0,773.0,0.649,0.545,0.396,0.353
3951916,-1062.0,7866.0,717.0,0.649,0.545,0.396,0.353
3951932,-1178.0,7980.0,839.0,0.65,0.545,0.396,0.353
3951958,-1178.0,7972.0,821.0,0.65,0.545,0.396,0.353
3951975,-1158.0,8040.0,763.0,0.65,0.545,0.396,0.352
3951992,-1188.0,7966.0,777.0,0.65,0.545,0.396,0.352
3952009,-1188.0,7858.0,863.0,0.65,0.545,0.396,0.352
3952026,-1258.0,7990.0,867.0,0.65,0.545,0.397,0.352
3952042,-1166.0,7982.0,913.0,0.65,0.545,0.397,0.352
3952059,-1204.0,7926.0,833.0,0.649,0.545,0.397,0.352
3952076,-1222.0,7938.0,857.0,0.649,0.545,0.398,0.352
3952092,-1260.0,8028.0,845.0,0.649,0.545,0.398,0.352
3952118,-1204.0,8016.0,883.0,0.648,0.545,0.399,0.352
3952134,-1258.0,7948.0,909.0,0.648,0.545,0.399,0.352
3952150,-1262.0,8052.0,821.0,0.647,0.546,0.4,0.352
3952166,-1244.0,8178.0,775.0,0.647,0.546,0.4,0.352
3952182,-1194.0,8092.0,851.0,0.646,0.546,0.4,0.352
3952198,-1130.0,7854.0,753.0,0.645,0.547,0.401,0.352
3952224,-1158.0,8014.0,749.0,0.645,0.548,0.401,0.352
3952240,-1084.0,8000.0,731.0,0.644,0.548,0.401,0.352
3952256,-1070.0,7986.0,767.0,0.643,0.549,0.402,0.352
3952273,-1294.0,7862.0,897.0,0.642,0.55,0.402,0.352
3952290,-1860.0,7956.0,985.0,0.64,0.552,0.402,0.352
3952307,-1298.0,8220.0,807.0,0.639,0.554,0.401,0.352
3952324,-850.0,8160.0,547.0,0.638,0.556,0.4,0.351
3952340,-726.0,8088.0,337.0,0.638,0.557,0.399,0.351
3952357,-586.0,7986.0,245.0,0.637,0.559,0.399,0.351
3952376,-462.0,8008.0,151.0,0.636,0.56,0.399,0.351
3952393,-574.0,8158.0,169.0,0.635,0.561,0.399,0.35
3952419,-722.0,8200.0,255.0,0.635,0.561,0.4,0.351
3952435,-938.0,8040.0,491.0,0.634,0.561,0.4,0.351
3952452,-860.0,8054.0,491.0,0.633,0.561,0.401,0.351
3952469,-970.0,8004.0,485.0,0.633,0.562,0.402,0.351
3952486,-856.0,8126.0,301.0,0.632,0.562,0.403,0.351
3952503,-706.0,8258.0,225.0,0.631,0.562,0.404,0.351
3952519,-868.0,8124.0,387.0,0.631,0.561,0.405,0.351
3952536,-908.0,8026.0,377.0,0.63,0.561,0.406,0.351
3952553,-844.0,8166.0,219.0,0.63,0.56,0.407,0.352
3952569,-1062.0,8102.0,445.0,0.63,0.56,0.408,0.352
3952596,-1292.0,7876.0,583.0,0.63,0.559,0.409,0.352
3952612,-960.0,8092.0,341.0,0.629,0.559,0.41,0.352
3952629,-932.0,8234.0,249.0,0.629,0.558,0.411,0.351
3952646,-986.0,8052.0,265.0,0.629,0.558,0.412,0.351
3952663,-994.0,7994.0,237.0,0.629,0.557,0.413,0.35
3952679,-1062.0,8168.0,255.0,0.629,0.557,0.414,0.35
3952696,-1172.0,8088.0,409.0,0.629,0.556,0.415,0.35
3952712,-1320.0,7944.0,477.0,0.629,0.555,0.416,0.35
3952728,-1254.0,8000.0,395.0,0.629,0.555,0.417,0.349
3952754,-1148.0,8078.0,355.0,0.629,0.555,0.418,0.349
3952770,-1242.0,8078.0,239.0,0.629,0.554,0.419,0.348
3952786,-1244.0,8076.0,255.0,0.629,0.554,0.42,0.348
3952802,-1258.0,7946.0,403.0,0.629,0.553,0.421,0.348
3952818,-1534.0,7924.0,469.0,0.629,0.553,0.422,0.348
3952834,-1346.0,7988.0,369.0,0.629,0.553,0.423,0.347
3952860,-1344.0,8026.0,333.0,0.628,0.552,0.423,0.347
3952876,-1286.0,8000.0,313.0,0.628,0.552,0.424,0.347
3952892,-1326.0,7968.0,351.0,0.628,0.552,0.425,0.346
3952908,-1438.0,7964.0,277.0,0.628,0.552,0.426,0.346
3952924,-1396.0,7984.0,301.0,0.627,0.552,0.427,0.346
3952950,-1330.0,8058.0,253.0,0.626,0.552,0.428,0.346
3952966,-1380.0,8032.0,211.0,0.626,0.552,0.429,0.346
3952982,-1338.0,7894.0,197.0,0.625,0.552,0.43,0.346
3952998,-1296.0,8004.0,215.0,0.625,0.552,0.431,0.346
3953014,-1454.0,8100.0,283.0,0.624,0.552,0.432,0.346
3953030,-1452.0,7990.0,295.0,0.623,0.552,0.433,0.346
3953056,-1290.0,8096.0,43.0,0.622,0.553,0.433,0.346
3953072,-1404.0,8262.0,41.0,0.622,0.553,0.434,0.346
3953089,-1350.0,8000.0,105.0,0.621,0.553,0.435,0.346
3953105,-1294.0,7900.0,103.0,0.62,0.553,0.436,0.346
3953121,-1428.0,8052.0,45.0,0.62,0.553,0.437,0.346
3953138,-1510.0,8052.0,35.0,0.619,0.553,0.437,0.346
3953154,-1324.0,8052.0,67.0,0.618,0.553,0.438,0.346
3953180,-1342.0,8078.0,13.0,0.618,0.553,0.439,0.346
3953196,-1404.0,8086.0,-33.0,0.618,0.553,0.439,0.345
3953212,-1330.0,8070.0,-25.0,0.618,0.553,0.44,0.345
3953228,-1394.0,8052.0,21.0,0.617,0.553,0.44,0.345
3953244,-1452.0,8066.0,13.0,0.617,0.553,0.44,0.345
3953260,-1422.0,8088.0,-39.0,0.617,0.553,0.441,0.344
3953286,-1428.0,8040.0,43.0,0.617,0.553,0.441,0.344
3953302,-1458.0,8064.0,73.0,0.617,0.553,0.441,0.344
3953318,-1832.0,8108.0,249.0,0.617,0.553,0.441,0.344
3953335,-1866.0,8152.0,339.0,0.617,0.554,0.441,0.344
3953351,-1804.0,8036.0,293.0,0.617,0.554,0.44,0.344
3953367,-1170.0,7962.0,-57.0,0.617,0.555,0.439,0.343
3953384,-1232.0,8086.0,-219.0,0.618,0.556,0.438,0.343
3953401,-1118.0,8006.0,-289.0,0.618,0.556,0.438,0.342
3953428,-1082.0,8062.0,-349.0,0.619,0.557,0.437,0.341
3953445,-1080.0,8222.0,-219.0,0.619,0.557,0.436,0.341
3953462,-1274.0,8208.0,-55.0,0.62,0.557,0.435,0.34
3953478,-1362.0,8084.0,-39.0,0.62,0.557,0.434,0.34
3953494,-1304.0,8018.0,-11.0,0.621,0.557,0.434,0.34
3953510,-1388.0,8026.0,35.0,0.622,0.557,0.433,0.34
3953526,-1174.0,8102.0,-39.0,0.623,0.557,0.432,0.34
3953542,-1322.0,8114.0,51.0,0.623,0.557,0.431,0.34
3953569,-1368.0,7994.0,115.0,0.624,0.556,0.431,0.34
3953585,-1400.0,7966.0,159.0,0.625,0.556,0.431,0.34
3953602,-1190.0,8022.0,7.0,0.625,0.555,0.43,0.341
3953619,-1396.0,8098.0,103.0,0.625,0.554,0.431,0.342
3953636,-1634.0,7832.0,379.0,0.625,0.553,0.431,0.344
3953653,-1738.0,7494.0,491.0,0.625,0.552,0.431,0.345
3953669,-1754.0,7666.0,299.0,0.623,0.552,0.432,0.346
3953685,-1954.0,8194.0,45.0,0.622,0.553,0.432,0.346
3953711,-1844.0,8150.0,145.0,0.621,0.554,0.432,0.346
3953727,-1628.0,8300.0,17.0,0.621,0.557,0.43,0.346
3953743,-1868.0,8190.0,309.0,0.621,0.56,0.426,0.345
3953759,-1986.0,7946.0,477.0,0.621,0.566,0.421,0.343
3953776,-1378.0,8176.0,137.0,0.621,0.572,0.414,0.34
3953793,-1310.0,8288.0,327.0,0.622,0.579,0.406,0.337
3953810,-1120.0,8390.0,65.0,0.623,0.586,0.397,0.333
3953836,-804.0,8494.0,-29.0,0.624,0.593,0.387,0.33
3953853,-612.0,8932.0,145.0,0.626,0.6,0.375,0.327
3953870,-210.0,8298.0,55.0,0.629,0.607,0.363,0.324
3953887,-130.0,8476.0,-213.0,0.631,0.613,0.35,0.322
3953904,-342.0,9154.0,109.0,0.634,0.618,0.337,0.321
3953920,270.0,7990.0,29.0,0.637,0.622,0.324,0.321
3953937,-96.0,7370.0,-367.0,0.64,0.625,0.313,0.321
3953953,410.0,7918.0,11.0,0.642,0.627,0.303,0.32
3953969,296.0,8292.0,509.0,0.645,0.628,0.296,0.32
3953987,60.0,8004.0,433.0,0.649,0.626,0.29,0.32
3954003,452.0,6430.0,-133.0,0.653,0.623,0.287,0.321
3954020,732.0,5606.0,-397.0,0.656,0.619,0.289,0.321
3954047,518.0,5154.0,-399.0,0.656,0.616,0.295,0.32
3954063,694.0,5970.0,13.0,0.654,0.613,0.307,0.319
3954079,886.0,8944.0,29.0,0.651,0.61,0.321,0.318
3954095,136.0,10098.0,-63.0,0.65,0.603,0.336,0.319
3954112,42.0,10060.0,-115.0,0.649,0.593,0.351,0.323
3954128,-430.0,9074.0,-159.0,0.648,0.582,0.364,0.329
3954144,-854.0,8742.0,439.0,0.647,0.571,0.376,0.337
3954170,-950.0,7944.0,953.0,0.646,0.561,0.387,0.344
3954186,-894.0,7554.0,1117.0,0.644,0.551,0.398,0.351
3954202,-1238.0,7924.0,1061.0,0.642,0.542,0.408,0.357
3954218,-1552.0,8094.0,1193.0,0.641,0.534,0.417,0.361
3954234,-1768.0,8114.0,1423.0,0.64,0.527,0.424,0.366
3954251,-2068.0,7676.0,1597.0,0.639,0.521,0.429,0.368
3954277,-2202.0,7556.0,1513.0,0.638,0.518,0.434,0.369
3954293,-2162.0,7172.0,1581.0,0.638,0.516,0.437,0.369
3954309,-1946.0,7160.0,1395.0,0.637,0.517,0.439,0.366
3954325,-1726.0,7770.0,1063.0,0.637,0.519,0.44,0.362
3954341,-1682.0,8002.0,805.0,0.637,0.522,0.44,0.358
3954357,-1458.0,8980.0,515.0,0.637,0.524,0.44,0.355
3954383,-1336.0,8066.0,721.0,0.637,0.526,0.439,0.353
3954399,-1398.0,7668.0,835.0,0.637,0.529,0.438,0.351
3954415,-1278.0,7612.0,647.0,0.636,0.532,0.437,0.35
3954432,-1110.0,8992.0,-143.0,0.634,0.534,0.437,0.348
3954448,-830.0,8890.0,223.0,0.634,0.535,0.436,0.349
3954465,-1144.0,7592.0,507.0,0.633,0.536,0.435,0.35
3954482,-1130.0,7280.0,475.0,0.631,0.538,0.436,0.35
3954498,-1120.0,7876.0,247.0,0.63,0.539,0.437,0.349
3954524,-1094.0,8158.0,-19.0,0.628,0.54,0.438,0.349
3954541,-1108.0,7964.0,-115.0,0.627,0.541,0.439,0.348
3954557,-1312.0,7994.0,-97.0,0.626,0.541,0.441,0.348
3954574,-1498.0,8034.0,-55.0,0.625,0.541,0.443,0.347
3954591,-1352.0,7862.0,-161.0,0.625,0.54,0.444,0.346
3954608,-1564.0,8252.0,-237.0,0.624,0.54,0.447,0.345
3954625,-1824.0,7950.0,-17.0,0.624,0.54,0.448,0.345
3954642,-1748.0,7768.0,-239.0,0.623,0.539,0.45,0.344
3954659,-2062.0,8012.0,15.0,0.622,0.539,0.453,0.343
3954675,-1808.0,7870.0,-211.0,0.621,0.539,0.455,0.341
3954702,-1870.0,8148.0,-297.0,0.621,0.539,0.457,0.34
3954719,-1932.0,8076.0,-249.0,0.62,0.538,0.459,0.339
3954736,-1970.0,7986.0,-225.0,0.619,0.538,0.461,0.339
3954752,-2100.0,7840.0,-99.0,0.619,0.537,0.463,0.338
3954768,-2018.0,7866.0,-115.0,0.618,0.537,0.465,0.338
3954784,-1980.0,8006.0,-157.0,0.618,0.536,0.466,0.337
3954800,-1958.0,8066.0,-111.0,0.617,0.536,0.468,0.336
3954826,-2008.0,7864.0,47.0,0.617,0.535,0.469,0.336
3954842,-2124.0,7940.0,151.0,0.617,0.534,0.471,0.336
3954858,-1826.0,8014.0,-231.0,0.617,0.534,0.472,0.335
3954875,-2146.0,7992.0,185.0,0.617,0.533,0.473,0.335
3954891,-2228.0,7818.0,145.0,0.617,0.533,0.473,0.335
3954907,-2078.0,8108.0,127.0,0.617,0.532,0.473,0.334
3954923,-2276.0,8016.0,133.0,0.617,0.533,0.473,0.333
3954949,-1924.0,7940.0,-209.0,0.618,0.533,0.473,0.333
3954965,-1904.0,7916.0,-189.0,0.619,0.533,0.472,0.332
3954981,-1842.0,8076.0,-181.0,0.619,0.533,0.471,0.332
3954997,-1854.0,8010.0,-165.0,0.62,0.533,0.47,0.332
3955013,-1824.0,7996.0,-137.0,0.621,0.533,0.47,0.332
3955029,-1980.0,7850.0,-99.0,0.621,0.533,0.469,0.333
3955056,-1762.0,7948.0,-169.0,0.622,0.533,0.468,0.333
3955072,-1774.0,7884.0,-133.0,0.622,0.533,0.467,0.333
3955088,-1826.0,7842.0,-35.0,0.623,0.532,0.467,0.333
3955104,-1916.0,7758.0,85.0,0.624,0.532,0.466,0.333
3955120,-1768.0,7988.0,21.0,0.624,0.532,0.465,0.332
3955137,-1812.0,7882.0,31.0,0.625,0.532,0.465,0.332
3955153,-1752.0,8030.0,9.0,0.625,0.532,0.464,0.332
3955179,-1868.0,7922.0,-121.0,0.626,0.531,0.464,0.333
3955196,-1736.0,8036.0,-11.0,0.626,0.53,0.464,0.333
3955213,-1932.0,7854.0,161.0,0.627,0.529,0.465,0.333
3955229,-1814.0,8042.0,17.0,0.627,0.529,0.465,0.334
3955245,-2004.0,8006.0,103.0,0.627,0.528,0.465,0.334
3955262,-1756.0,8006.0,-43.0,0.628,0.527,0.465,0.334
3955279,-1810.0,8032.0,1.0,0.628,0.526,0.465,0.335
3955295,-1934.0,7942.0,99.0,0.629,0.525,0.465,0.336
3955321,-1914.0,7978.0,133.0,0.63,0.524,0.465,0.336
3955337,-1992.0,7962.0,235.0,0.63,0.523,0.464,0.336
3955353,-2014.0,7972.0,271.0,0.631,0.522,0.464,0.337
3955369,-1900.0,8048.0,145.0,0.632,0.521,0.464,0.337
3955385,-1926.0,8012.0,133.0,0.633,0.52,0.463,0.337
3955402,-1978.0,7858.0,225.0,0.635,0.519,0.463,0.338
3955419,-2136.0,7858.0,367.0,0.636,0.518,0.462,0.338
3955436,-1996.0,7938.0,287.0,0.637,0.517,0.461,0.338
3955463,-2004.0,7886.0,361.0,0.638,0.516,0.46,0.339
3955479,-1920.0,7850.0,405.0,0.639,0.515,0.46,0.339
3955495,-1934.0,7980.0,339.0,0.64,0.514,0.459,0.339
3955511,-2194.0,7796.0,541.0,0.641,0.514,0.458,0.34
3955527,-2026.0,7758.0,509.0,0.642,0.513,0.457,0.34
3955543,-2020.0,7848.0,563.0,0.643,0.512,0.456,0.34
3955570,-1970.0,7884.0,523.0,0.644,0.512,0.455,0.34
3955586,-1830.0,7718.0,555.0,0.645,0.511,0.454,0.341
3955602,-1808.0,7850.0,445.0,0.646,0.511,0.454,0.341
3955618,-1838.0,7770.0,549.0,0.647,0.51,0.454,0.341
3955634,-1698.0,7860.0,473.0,0.647,0.509,0.454,0.34
3955650,-1830.0,8038.0,715.0,0.648,0.508,0.455,0.34
3955666,-2056.0,7380.0,747.0,0.649,0.507,0.455,0.339
3955692,-1754.0,8048.0,427.0,0.65,0.507,0.456,0.336
3955708,-1862.0,8296.0,403.0,0.65,0.507,0.457,0.334
3955724,-1656.0,7936.0,497.0,0.651,0.506,0.457,0.333
3955740,-1674.0,7854.0,575.0,0.652,0.506,0.458,0.331
3955756,-1866.0,7946.0,653.0,0.652,0.506,0.458,0.33
3955782,-1934.0,7980.0,701.0,0.653,0.506,0.459,0.329
3955798,-2004.0,7880.0,703.0,0.653,0.505,0.459,0.328
3955814,-2176.0,8002.0,685.0,0.654,0.504,0.46,0.328
3955830,-2218.0,7754.0,775.0,0.654,0.503,0.46,0.328
3955846,-2164.0,7716.0,907.0,0.654,0.501,0.461,0.329
3955863,-2330.0,7700.0,983.0,0.655,0.5,0.461,0.329
3955879,-2400.0,7622.0,1045.0,0.655,0.499,0.461,0.33
3955905,-2422.0,7812.0,895.0,0.656,0.498,0.461,0.33
3955921,-2322.0,7850.0,893.0,0.656,0.498,0.46,0.331
3955938,-2328.0,7578.0,739.0,0.657,0.498,0.46,0.331
3955954,-2336.0,7984.0,661.0,0.657,0.498,0.459,0.33
3955970,-2266.0,7604.0,781.0,0.657,0.498,0.459,0.33
3955986,-2264.0,7616.0,665.0,0.657,0.499,0.459,0.329
3956012,-2146.0,7652.0,635.0,0.657,0.5,0.458,0.328
3956028,-2214.0,7876.0,561.0,0.657,0.501,0.459,0.328
3956044,-2230.0,7750.0,659.0,0.657,0.501,0.459,0.327
3956061,-2238.0,7946.0,487.0,0.656,0.502,0.459,0.326
3956078,-2208.0,7582.0,507.0,0.656,0.503,0.459,0.326
3956094,-2226.0,7672.0,421.0,0.655,0.504,0.46,0.325
3956110,-2168.0,7984.0,367.0,0.654,0.504,0.461,0.325
3956136,-2256.0,8078.0,395.0,0.652,0.506,0.463,0.325
3956152,-2402.0,7820.0,567.0,0.65,0.506,0.464,0.325
3956168,-2464.0,7666.0,607.0,0.649,0.507,0.465,0.325
3956185,-2432.0,7918.0,449.0,0.647,0.508,0.466,0.325
3956201,-2370.0,7978.0,325.0,0.645,0.509,0.468,0.325
3956217,-1960.0,8100.0,21.0,0.643,0.51,0.47,0.325
3956233,-2016.0,8000.0,365.0,0.642,0.51,0.472,0.325
3956259,-1836.0,8304.0,513.0,0.639,0.512,0.474,0.324
3956275,-1612.0,8660.0,713.0,0.637,0.514,0.475,0.324
3956291,-1834.0,8874.0,1139.0,0.635,0.517,0.475,0.324
3956307,-1842.0,9200.0,1377.0,0.635,0.519,0.473,0.323
3956323,-1684.0,8522.0,1141.0,0.637,0.519,0.469,0.324
3956339,-1230.0,7944.0,1195.0,0.639,0.52,0.465,0.325
3956365,-1226.0,7632.0,755.0,0.641,0.52,0.461,0.326
3956381,-420.0,6912.0,813.0,0.642,0.521,0.459,0.326
3956397,178.0,7232.0,1079.0,0.641,0.522,0.457,0.327
3956413,-66.0,7590.0,1211.0,0.64,0.523,0.457,0.329
3956429,-142.0,8506.0,1655.0,0.638,0.523,0.456,0.334
3956455,440.0,7372.0,1189.0,0.637,0.522,0.454,0.341
3956471,686.0,6794.0,901.0,0.634,0.521,0.453,0.349
3956487,590.0,6816.0,1357.0,0.631,0.52,0.452,0.358
3956504,278.0,6722.0,1487.0,0.628,0.518,0.448,0.369
3956521,366.0,6534.0,1157.0,0.625,0.516,0.443,0.384
3956537,504.0,6020.0,459.0,0.623,0.513,0.435,0.4
3956553,616.0,5658.0,399.0,0.62,0.51,0.427,0.417
3956570,134.0,7216.0,505.0,0.616,0.506,0.417,0.436
3956596,-424.0,8500.0,351.0,0.614,0.501,0.403,0.458
3956612,-184.0,6698.0,79.0,0.612,0.495,0.386,0.481
3956629,28.0,5838.0,359.0,0.61,0.488,0.368,0.504
3956645,-198.0,6690.0,657.0,0.607,0.482,0.349,0.526
3956661,-420.0,6694.0,983.0,0.604,0.477,0.329,0.547
3956677,238.0,6650.0,1069.0,0.601,0.473,0.307,0.567
3956693,544.0,6630.0,1717.0,0.596,0.471,0.285,0.584
3956719,488.0,7124.0,1949.0,0.591,0.47,0.263,0.6
3956735,1088.0,6410.0,1851.0,0.586,0.47,0.239,0.615
3956751,1758.0,6136.0,2549.0,0.579,0.473,0.216,0.628
3956767,2250.0,6944.0,2843.0,0.572,0.476,0.194,0.639
3956784,2236.0,6440.0,3557.0,0.566,0.481,0.171,0.648
3956800,2172.0,7186.0,3363.0,0.558,0.487,0.147,0.656
3956817,3870.0,5184.0,2457.0,0.55,0.494,0.123,0.662
3956844,3744.0,5398.0,3173.0,0.541,0.502,0.102,0.667
3956860,4240.0,7568.0,3607.0,0.533,0.511,0.08,0.67
3956876,4844.0,7624.0,3197.0,0.526,0.519,0.056,0.672
3956892,5738.0,4906.0,2577.0,0.519,0.526,0.032,0.673
3956908,5966.0,3162.0,2203.0,0.51,0.534,0.011,0.674
3956924,6626.0,3754.0,2955.0,0.502,0.543,-0.005,0.673
3956950,6504.0,7072.0,3105.0,0.492,0.553,-0.019,0.672
3956966,7254.0,7676.0,3225.0,0.484,0.559,-0.037,0.672
3956983,7074.0,4450.0,2921.0,0.478,0.564,-0.056,0.671
3957000,7580.0,3276.0,2685.0,0.472,0.568,-0.072,0.67
3957017,8072.0,4756.0,2927.0,0.466,0.574,-0.086,0.668
3957033,8148.0,5118.0,3225.0,0.46,0.578,-0.099,0.667
3957050,7944.0,4722.0,3273.0,0.456,0.581,-0.112,0.665
3957067,8076.0,4506.0,3301.0,0.454,0.584,-0.125,0.662
3957084,7984.0,3790.0,2955.0,0.452,0.586,-0.139,0.658
3957110,7800.0,3038.0,2983.0,0.451,0.587,-0.152,0.655
3957126,8090.0,3530.0,2999.0,0.45,0.589,-0.164,0.651
3957142,8134.0,3148.0,2861.0,0.449,0.591,-0.176,0.647
3957158,7940.0,3132.0,2787.0,0.449,0.592,-0.187,0.643
3957174,7932.0,3004.0,2689.0,0.449,0.592,-0.199,0.639
3957190,8038.0,2676.0,2417.0,0.449,0.591,-0.211,0.635
3957206,8068.0,2094.0,2343.0,0.449,0.591,-0.223,0.632
3957232,8082.0,1998.0,2101.0,0.449,0.59,-0.233,0.629
3957248,8268.0,2048.0,2131.0,0.449,0.589,-0.243,0.627
3957264,8262.0,2116.0,2073.0,0.449,0.587,-0.252,0.624
3957280,8232.0,2034.0,2023.0,0.449,0.586,-0.262,0.622
3957296,8322.0,1874.0,1589.0,0.45,0.584,-0.271,0.619
3957322,8368.0,1404.0,1663.0,0.451,0.582,-0.28,0.616
3957338,8494.0,1630.0,1719.0,0.453,0.58,-0.288,0.613
3957354,8396.0,1506.0,1857.0,0.454,0.579,-0.296,0.609
3957370,8704.0,1500.0,1603.0,0.457,0.577,-0.304,0.606
3957386,8744.0,1230.0,1417.0,0.459,0.575,-0.311,0.602
3957403,8652.0,796.0,1495.0,0.463,0.573,-0.317,0.598
3957419,8668.0,1038.0,1479.0,0.467,0.571,-0.323,0.593
3957436,8612.0,1298.0,1413.0,0.471,0.569,-0.327,0.589
3957462,8456.0,1052.0,1399.0,0.475,0.567,-0.332,0.586
3957478,8376.0,800.0,1409.0,0.479,0.565,-0.336,0.582
3957494,8442.0,1024.0,1285.0,0.483,0.563,-0.339,0.578
3957511,8310.0,1134.0,1293.0,0.488,0.561,-0.342,0.574
3957528,8320.0,764.0,1231.0,0.492,0.559,-0.345,0.571
3957544,8276.0,726.0,1295.0,0.496,0.557,-0.348,0.567
3957560,8274.0,1068.0,1191.0,0.5,0.556,-0.35,0.564
3957587,8130.0,1014.0,1079.0,0.504,0.554,-0.353,0.561
3957604,8214.0,986.0,1291.0,0.508,0.552,-0.355,0.558
3957621,8164.0,1270.0,1255.0,0.512,0.55,-0.357,0.555
3957637,8080.0,828.0,1117.0,0.516,0.548,-0.36,0.552
3957654,8098.0,962.0,1039.0,0.519,0.545,-0.362,0.549
3957670,8048.0,758.0,1183.0,0.523,0.543,-0.365,0.546
3957687,8066.0,734.0,1081.0,0.526,0.541,-0.368,0.543
3957703,8164.0,830.0,983.0,0.528,0.54,-0.37,0.541
3957729,7964.0,1114.0,1057.0,0.531,0.538,-0.372,0.539
3957745,7798.0,2032.0,1487.0,0.533,0.537,-0.373,0.537
3957761,7792.0,1016.0,1011.0,0.535,0.535,-0.376,0.536
3957778,7972.0,854.0,1115.0,0.536,0.533,-0.378,0.534
3957794,7788.0,792.0,1045.0,0.538,0.532,-0.38,0.532
3957811,7860.0,1100.0,979.0,0.539,0.53,-0.383,0.531
3957828,7822.0,876.0,961.0,0.54,0.529,-0.385,0.529
3957845,7948.0,538.0,1089.0,0.541,0.528,-0.387,0.529
3957861,7972.0,994.0,1051.0,0.541,0.526,-0.388,0.528
3957888,7940.0,1024.0,1087.0,0.542,0.525,-0.389,0.528
3957904,7878.0,706.0,1165.0,0.542,0.523,-0.391,0.529
3957920,7980.0,458.0,1287.0,0.542,0.522,-0.391,0.529
3957936,8010.0,696.0,1363.0,0.542,0.522,-0.391,0.53
3957952,7706.0,1270.0,1369.0,0.542,0.521,-0.391,0.531
3957969,7872.0,1164.0,1387.0,0.542,0.52,-0.392,0.532
3957985,7900.0,508.0,1321.0,0.542,0.518,-0.392,0.533
3958012,7988.0,574.0,1437.0,0.541,0.518,-0.392,0.534
3958028,7966.0,1104.0,1533.0,0.541,0.517,-0.391,0.536
3958045,8340.0,734.0,1427.0,0.541,0.516,-0.391,0.537
3958061,8156.0,744.0,1467.0,0.54,0.515,-0.391,0.539
3958077,8048.0,734.0,1657.0,0.539,0.515,-0.39,0.54
3958094,7942.0,762.0,1639.0,0.539,0.514,-0.39,0.542
3958110,7846.0,686.0,1667.0,0.538,0.514,-0.389,0.543
3958127,7682.0,910.0,1635.0,0.538,0.514,-0.388,0.544
3958153,7776.0,712.0,1441.0,0.537,0.514,-0.387,0.546
3958170,7746.0,744.0,1429.0,0.537,0.514,-0.386,0.547
3958187,7714.0,890.0,1461.0,0.536,0.514,-0.384,0.549
3958203,7474.0,934.0,1653.0,0.535,0.514,-0.383,0.551
3958219,7596.0,1540.0,1565.0,0.534,0.514,-0.382,0.552
3958235,7666.0,1046.0,1535.0,0.533,0.515,-0.382,0.552
3958251,7834.0,864.0,1475.0,0.532,0.515,-0.382,0.553
3958277,7952.0,832.0,1377.0,0.531,0.515,-0.382,0.554
3958293,7906.0,1130.0,1359.0,0.53,0.516,-0.381,0.555
3958309,7908.0,1268.0,1493.0,0.529,0.516,-0.381,0.556
3958325,7980.0,964.0,1445.0,0.528,0.517,-0.38,0.556
3958341,8078.0,1108.0,1311.0,0.528,0.517,-0.38,0.556
3958357,8156.0,748.0,1237.0,0.527,0.518,-0.38,0.557
3958383,8224.0,1116.0,1171.0,0.527,0.518,-0.379,0.557
3958399,8202.0,1146.0,1285.0,0.526,0.519,-0.379,0.557
3958415,8040.0,1184.0,1373.0,0.526,0.519,-0.378,0.557
3958432,7954.0,920.0,1311.0,0.527,0.52,-0.378,0.556
3958449,7932.0,834.0,1219.0,0.527,0.521,-0.378,0.556
3958465,7914.0,1152.0,1155.0,0.527,0.522,-0.377,0.555
3958481,7736.0,1234.0,1271.0,0.527,0.523,-0.377,0.554
3958508,7752.0,1182.0,1327.0,0.527,0.523,-0.378,0.553
3958525,7786.0,914.0,1219.0,0.527,0.524,-0.378,0.552
3958541,7840.0,1030.0,1157.0,0.527,0.525,-0.379,0.551
3958557,7904.0,1162.0,1113.0,0.526,0.526,-0.379,0.55
3958573,7958.0,1466.0,1197.0,0.526,0.527,-0.38,0.549
3958589,8024.0,1166.0,1259.0,0.526,0.527,-0.382,0.548
3958605,8038.0,900.0,1217.0,0.525,0.527,-0.383,0.547
3958631,8018.0,1216.0,1179.0,0.525,0.528,-0.383,0.546
3958647,8164.0,1266.0,1255.0,0.525,0.529,-0.384,0.545
3958663,8242.0,1110.0,1307.0,0.525,0.529,-0.385,0.544
3958679,8226.0,998.0,1321.0,0.525,0.53,-0.386,0.543
3958695,8202.0,1096.0,1185.0,0.525,0.53,-0.387,0.542
3958711,8130.0,1078.0,1225.0,0.525,0.53,-0.387,0.541
3958737,8112.0,988.0,1211.0,0.525,0.531,-0.388,0.54
3958753,8070.0,918.0,1187.0,0.526,0.531,-0.388,0.539
3958769,7924.0,864.0,1273.0,0.526,0.531,-0.388,0.539
3958785,7948.0,654.0,1267.0,0.526,0.532,-0.388,0.539
3958802,8134.0,130.0,1233.0,0.526,0.532,-0.387,0.539
3958818,8280.0,-100.0,1651.0,0.525,0.534,-0.385,0.54
3958844,8544.0,432.0,1991.0,0.524,0.536,-0.381,0.541
3958860,8304.0,1346.0,2857.0,0.522,0.538,-0.377,0.543
3958876,8730.0,1012.0,3799.0,0.52,0.541,-0.374,0.544
3958892,9042.0,1686.0,4633.0,0.518,0.544,-0.372,0.545
3958908,9202.0,1906.0,5441.0,0.517,0.545,-0.371,0.546
3958924,9084.0,826.0,5717.0,0.516,0.546,-0.37,0.547
3958950,9336.0,1028.0,6301.0,0.516,0.546,-0.367,0.548
3958966,9792.0,922.0,6281.0,0.518,0.545,-0.364,0.55
3958982,9924.0,756.0,7043.0,0.52,0.542,-0.36,0.554
3958998,9986.0,1790.0,7561.0,0.523,0.538,-0.354,0.559
3959015,10442.0,2586.0,7461.0,0.527,0.531,-0.349,0.565
3959031,10888.0,1514.0,7929.0,0.533,0.521,-0.344,0.571
3959047,11590.0,1862.0,8061.0,0.541,0.509,-0.337,0.578
3959073,12396.0,2948.0,8049.0,0.55,0.495,-0.33,0.586
3959089,12842.0,2494.0,7581.0,0.561,0.478,-0.32,0.595
3959105,13618.0,2402.0,7607.0,0.574,0.458,-0.307,0.605
3959121,13006.0,2908.0,8381.0,0.587,0.437,-0.291,0.616
3959138,12846.0,5850.0,8229.0,0.601,0.413,-0.275,0.626
3959155,13114.0,4022.0,7191.0,0.617,0.384,-0.261,0.635
3959181,12530.0,2198.0,7181.0,0.633,0.355,-0.244,0.644
3959197,12390.0,4446.0,7043.0,0.648,0.325,-0.225,0.651
3959213,12324.0,4538.0,6917.0,0.663,0.293,-0.206,0.658
3959229,11780.0,3872.0,6403.0,0.678,0.259,-0.187,0.662
3959246,10452.0,3686.0,6515.0,0.692,0.224,-0.169,0.665
3959262,9730.0,4598.0,7015.0,0.706,0.19,-0.152,0.665
3959278,9452.0,3128.0,6239.0,0.718,0.156,-0.136,0.665
3959295,9280.0,1462.0,5745.0,0.729,0.122,-0.119,0.663
3959321,8316.0,938.0,5099.0,0.74,0.09,-0.099,0.659
3959337,6730.0,3180.0,5493.0,0.75,0.061,-0.078,0.654
3959354,6276.0,4188.0,5323.0,0.758,0.03,-0.06,0.648
3959370,6076.0,1732.0,4465.0,0.765,-0.001,-0.046,0.642
3959387,5664.0,-188.0,3483.0,0.771,-0.031,-0.029,0.635
3959404,4602.0,648.0,3587.0,0.776,-0.06,-0.011,0.628
3959421,4048.0,2026.0,3983.0,0.78,-0.087,0.006,0.62
3959438,3840.0,1704.0,3377.0,0.782,-0.116,0.021,0.612
3959455,3622.0,280.0,2229.0,0.783,-0.146,0.034,0.604
3959482,2692.0,-1888.0,1601.0,0.783,-0.174,0.048,0.595
3959499,1352.0,-3446.0,1149.0,0.784,-0.197,0.065,0.585
3959515,-78.0,-1764.0,1025.0,0.786,-0.216,0.082,0.574
3959531,-1010.0,10.0,937.0,0.788,-0.234,0.096,0.562
3959547,-1712.0,-922.0,295.0,0.788,-0.251,0.105,0.553
3959563,-2536.0,-3872.0,-257.0,0.788,-0.265,0.112,0.545
3959579,-2590.0,-3154.0,-1389.0,0.789,-0.275,0.117,0.537
3959605,-2884.0,-2306.0,-1895.0,0.79,-0.282,0.119,0.531
3959622,-3264.0,-2898.0,-1947.0,0.79,-0.288,0.119,0.528
3959639,-3154.0,-4002.0,-1413.0,0.791,-0.291,0.115,0.526
3959656,-3040.0,-3360.0,-1739.0,0.792,-0.29,0.11,0.526
3959673,-2944.0,-3108.0,-1613.0,0.793,-0.287,0.103,0.528
3959689,-2674.0,-3694.0,-1047.0,0.794,-0.282,0.095,0.531
3959705,-2730.0,-3058.0,-435.0,0.795,-0.274,0.085,0.535
3959721,-2134.0,-2544.0,553.0,0.796,-0.265,0.075,0.54
3959737,-2068.0,-2284.0,1783.0,0.796,-0.255,0.062,0.545
3959764,-1806.0,-1404.0,2689.0,0.796,-0.245,0.048,0.551
3959781,-828.0,64.0,3095.0,0.796,-0.236,0.03,0.557
3959797,-1072.0,-4968.0,4265.0,0.794,-0.228,0.01,0.564
3959813,-1416.0,-4572.0,5039.0,0.795,-0.213,-0.008,0.568
3959830,250.0,-2424.0,5149.0,0.798,-0.195,-0.026,0.57
3959847,398.0,-4308.0,6209.0,0.799,-0.177,-0.045,0.572
3959863,620.0,-2016.0,6955.0,0.8,-0.156,-0.063,0.575
3959880,1974.0,-2010.0,6339.0,0.799,-0.137,-0.082,0.58
3959907,2866.0,-2184.0,6723.0,0.796,-0.118,-0.099,0.585
3959924,3784.0,-3098.0,6489.0,0.793,-0.1,-0.113,0.59
3959940,4556.0,-2818.0,5991.0,0.789,-0.082,-0.123,0.596
3959957,3968.0,-1698.0,6591.0,0.786,-0.063,-0.13,0.601
3959974,3386.0,-2.0,7227.0,0.783,-0.045,-0.137,0.606
3959990,4142.0,72.0,7667.0,0.778,-0.028,-0.147,0.61
3960007,3606.0,-886.0,6835.0,0.774,-0.009,-0.157,0.613
3960023,4214.0,-32.0,6405.0,0.77,0.011,-0.168,0.615
3960049,4702.0,564.0,6145.0,0.766,0.032,-0.18,0.616
3960065,5526.0,212.0,5993.0,0.762,0.053,-0.191,0.617
3960081,5294.0,532.0,6415.0,0.757,0.075,-0.203,0.617
3960097,5178.0,222.0,6275.0,0.751,0.099,-0.214,0.617
3960113,5720.0,186.0,5861.0,0.745,0.123,-0.224,0.616
3960129,6248.0,1788.0,6351.0,0.738,0.149,-0.234,0.615
3960146,6654.0,2050.0,6147.0,0.731,0.172,-0.245,0.613
3960162,6866.0,1344.0,6085.0,0.723,0.194,-0.255,0.612
