timestamp,ax,ay,az,q0,q1,q2,q3
4113201,-1444.0,8282.0,-937.0,0.603,0.611,0.401,0.319
4113217,-1460.0,7500.0,-759.0,0.604,0.61,0.401,0.32
4113243,-1378.0,7980.0,-911.0,0.605,0.609,0.4,0.32
4113259,-1380.0,8104.0,-829.0,0.607,0.608,0.4,0.32
4113275,-1568.0,8062.0,-721.0,0.608,0.607,0.399,0.32
4113291,-1514.0,8206.0,-645.0,0.61,0.606,0.398,0.319
4113307,-1594.0,8098.0,-415.0,0.613,0.605,0.396,0.318
4113323,-1450.0,7866.0,-179.0,0.615,0.605,0.394,0.317
4113349,-1420.0,7930.0,-171.0,0.618,0.604,0.392,0.315
4113366,-1264.0,8014.0,-223.0,0.621,0.603,0.39,0.314
4113382,-1414.0,7902.0,-243.0,0.623,0.602,0.389,0.312
4113398,-1056.0,7962.0,-227.0,0.626,0.601,0.387,0.311
4113415,-1244.0,7672.0,-59.0,0.629,0.6,0.387,0.309
4113431,-1132.0,8262.0,-123.0,0.631,0.599,0.386,0.308
4113448,-1210.0,8322.0,-109.0,0.633,0.597,0.385,0.306
4113465,-1070.0,8194.0,-29.0,0.635,0.596,0.384,0.305
4113491,-1020.0,7732.0,137.0,0.637,0.595,0.384,0.304
4113507,-1146.0,7766.0,235.0,0.638,0.595,0.383,0.303
4113523,-1064.0,7716.0,381.0,0.639,0.595,0.382,0.301
4113539,-1066.0,7894.0,379.0,0.64,0.596,0.382,0.299
4113555,-982.0,7894.0,407.0,0.641,0.597,0.381,0.296
4113571,-1042.0,8058.0,295.0,0.641,0.598,0.381,0.294
4113597,-1098.0,7908.0,341.0,0.64,0.6,0.381,0.292
4113613,-964.0,7916.0,255.0,0.64,0.601,0.381,0.29
4113629,-1128.0,7960.0,123.0,0.639,0.602,0.381,0.288
4113645,-1150.0,8016.0,-5.0,0.638,0.603,0.382,0.287
4113661,-1282.0,8084.0,41.0,0.637,0.604,0.384,0.286
4113677,-1508.0,8196.0,119.0,0.636,0.604,0.385,0.286
4113703,-1706.0,8270.0,109.0,0.635,0.604,0.386,0.286
4113719,-1932.0,7996.0,107.0,0.635,0.604,0.387,0.287
4113735,-1760.0,7984.0,-107.0,0.634,0.604,0.388,0.288
4113751,-1428.0,8652.0,-603.0,0.633,0.604,0.388,0.29
4113767,-1318.0,8178.0,-453.0,0.633,0.602,0.389,0.293
4113783,-1236.0,7606.0,-291.0,0.632,0.602,0.389,0.296
4113810,-1164.0,7714.0,-241.0,0.631,0.602,0.389,0.298
4113826,-1222.0,7674.0,-201.0,0.629,0.603,0.39,0.299
4113842,-1334.0,8024.0,-87.0,0.627,0.604,0.39,0.299
4113858,-1220.0,8354.0,-233.0,0.626,0.605,0.39,0.299
4113875,-866.0,8268.0,-255.0,0.625,0.606,0.39,0.299
4113891,-770.0,7882.0,-183.0,0.624,0.608,0.39,0.299
4113908,-670.0,8244.0,-603.0,0.623,0.609,0.39,0.298
4113935,-716.0,8346.0,-603.0,0.622,0.61,0.39,0.297
4113951,-678.0,8312.0,-391.0,0.622,0.61,0.39,0.297
4113967,-866.0,8002.0,-269.0,0.622,0.61,0.39,0.298
4113983,-1000.0,7966.0,-273.0,0.622,0.61,0.39,0.297
4114000,-974.0,8116.0,-391.0,0.622,0.611,0.391,0.297
4114016,-1016.0,8040.0,-395.0,0.621,0.61,0.391,0.298
4114033,-1008.0,8232.0,-601.0,0.621,0.61,0.392,0.298
4114049,-1310.0,8246.0,-549.0,0.621,0.609,0.392,0.299
4114076,-1338.0,7914.0,-347.0,0.621,0.608,0.393,0.3
4114092,-1338.0,7982.0,-393.0,0.621,0.607,0.394,0.301
4114109,-1494.0,8046.0,-395.0,0.62,0.607,0.395,0.302
4114125,-1640.0,8070.0,-411.0,0.62,0.606,0.396,0.303
4114142,-1646.0,7920.0,-343.0,0.62,0.605,0.396,0.303
4114158,-1678.0,8036.0,-417.0,0.62,0.604,0.397,0.304
4114174,-1646.0,8078.0,-529.0,0.62,0.604,0.397,0.305
4114200,-1700.0,8034.0,-509.0,0.62,0.603,0.397,0.306
4114216,-1920.0,7984.0,-307.0,0.62,0.603,0.397,0.306
4114232,-2200.0,8118.0,-197.0,0.62,0.604,0.396,0.307
4114248,-1784.0,8090.0,-341.0,0.62,0.605,0.394,0.307
4114264,-1374.0,8542.0,-717.0,0.62,0.607,0.391,0.308
4114281,-794.0,8256.0,-655.0,0.62,0.608,0.388,0.308
4114297,-562.0,7650.0,-297.0,0.621,0.609,0.385,0.309
4114314,-722.0,7610.0,-137.0,0.621,0.61,0.383,0.309
4114341,-838.0,7924.0,13.0,0.621,0.611,0.381,0.308
4114357,-578.0,8372.0,-105.0,0.622,0.612,0.379,0.307
4114373,-194.0,8590.0,-249.0,0.623,0.612,0.378,0.307
4114389,6.0,8430.0,-367.0,0.624,0.611,0.377,0.307
4114405,16.0,8098.0,-441.0,0.626,0.61,0.376,0.308
4114421,-128.0,7752.0,-315.0,0.627,0.608,0.376,0.308
4114447,-422.0,7712.0,-45.0,0.628,0.607,0.377,0.309
4114463,-760.0,7924.0,125.0,0.628,0.606,0.379,0.309
4114479,-788.0,8064.0,47.0,0.629,0.604,0.38,0.308
4114495,-1032.0,8056.0,61.0,0.629,0.603,0.382,0.308
4114511,-1124.0,7726.0,121.0,0.629,0.602,0.385,0.307
4114527,-1296.0,7712.0,63.0,0.628,0.601,0.388,0.307
4114553,-1602.0,7676.0,61.0,0.627,0.6,0.391,0.306
4114569,-1858.0,7876.0,-23.0,0.625,0.6,0.394,0.306
4114585,-1804.0,8158.0,-215.0,0.623,0.6,0.398,0.306
4114601,-1792.0,8482.0,-483.0,0.62,0.599,0.402,0.308
4114617,-1630.0,8346.0,-639.0,0.618,0.598,0.406,0.31
4114633,-1636.0,7998.0,-501.0,0.615,0.598,0.409,0.313
4114659,-1790.0,7542.0,-229.0,0.612,0.597,0.412,0.315
4114675,-1712.0,7534.0,-135.0,0.608,0.598,0.414,0.317
4114691,-1450.0,7836.0,-277.0,0.605,0.6,0.415,0.318
4114707,-996.0,8188.0,-219.0,0.602,0.603,0.416,0.319
4114723,-690.0,8084.0,-209.0,0.599,0.606,0.416,0.319
4114739,-362.0,8272.0,-391.0,0.596,0.608,0.416,0.319
4114765,64.0,8416.0,-605.0,0.593,0.611,0.416,0.32
4114781,290.0,8338.0,-607.0,0.591,0.612,0.417,0.32
4114798,278.0,8612.0,-739.0,0.589,0.612,0.418,0.321
4114814,22.0,8366.0,-667.0,0.588,0.612,0.419,0.323
4114830,-352.0,8298.0,-795.0,0.587,0.61,0.421,0.325
4114846,-616.0,8280.0,-833.0,0.586,0.608,0.424,0.327
4114872,-706.0,8996.0,-1413.0,0.587,0.605,0.426,0.329
4114888,-1126.0,8434.0,-1175.0,0.588,0.601,0.427,0.332
4114904,-1492.0,7532.0,-953.0,0.589,0.597,0.429,0.336
4114920,-1592.0,7606.0,-1053.0,0.59,0.594,0.43,0.338
4114936,-1760.0,7854.0,-981.0,0.591,0.591,0.432,0.339
4114952,-2006.0,7846.0,-1065.0,0.592,0.588,0.433,0.34
4114970,-1916.0,7986.0,-1195.0,0.593,0.586,0.434,0.341
4114996,-1962.0,7888.0,-1081.0,0.594,0.584,0.435,0.342
4115012,-1860.0,7846.0,-991.0,0.595,0.582,0.436,0.343
4115028,-1818.0,7842.0,-657.0,0.596,0.582,0.436,0.342
4115044,-1670.0,7988.0,-601.0,0.597,0.582,0.435,0.341
4115060,-1608.0,8078.0,-449.0,0.598,0.582,0.433,0.34
4115076,-1608.0,8226.0,-321.0,0.6,0.583,0.431,0.339
4115102,-1208.0,8726.0,-523.0,0.602,0.583,0.428,0.337
4115119,-1056.0,8664.0,-389.0,0.606,0.583,0.424,0.337
4115135,-1012.0,8274.0,-239.0,0.609,0.582,0.42,0.338
4115151,-764.0,7948.0,-71.0,0.612,0.581,0.416,0.338
4115167,-784.0,8090.0,-75.0,0.615,0.58,0.413,0.339
4115183,-798.0,8126.0,13.0,0.619,0.579,0.409,0.339
4115199,-746.0,7940.0,237.0,0.622,0.578,0.406,0.339
4115225,-838.0,8130.0,347.0,0.625,0.577,0.402,0.338
4115241,-470.0,7684.0,491.0,0.629,0.576,0.399,0.338
4115257,-572.0,7826.0,467.0,0.632,0.574,0.397,0.337
4115273,-524.0,8010.0,345.0,0.634,0.573,0.395,0.337
4115289,-754.0,7718.0,547.0,0.637,0.571,0.394,0.336
4115315,-876.0,7730.0,573.0,0.639,0.569,0.394,0.336
4115331,-1014.0,7888.0,683.0,0.641,0.568,0.394,0.335
4115347,-1082.0,7728.0,849.0,0.642,0.567,0.394,0.334
4115363,-1280.0,7824.0,825.0,0.643,0.567,0.395,0.332
4115379,-1302.0,7780.0,709.0,0.643,0.567,0.395,0.331
4115395,-1300.0,7732.0,779.0,0.643,0.567,0.397,0.329
4115421,-1360.0,7662.0,883.0,0.642,0.568,0.398,0.327
4115437,-1312.0,7728.0,809.0,0.64,0.569,0.4,0.326
4115453,-1374.0,7970.0,647.0,0.639,0.57,0.403,0.325
4115469,-1342.0,7916.0,459.0,0.636,0.571,0.405,0.324
4115485,-1134.0,8336.0,67.0,0.634,0.571,0.408,0.324
4115501,-1046.0,8784.0,-251.0,0.632,0.571,0.411,0.325
4115527,-1224.0,9108.0,-355.0,0.631,0.569,0.413,0.329
4115543,-1236.0,8296.0,-75.0,0.63,0.566,0.414,0.333
4115559,-1288.0,8824.0,-223.0,0.63,0.562,0.416,0.338
4115575,-1426.0,8272.0,227.0,0.63,0.558,0.416,0.344
4115591,-1454.0,7436.0,467.0,0.629,0.555,0.416,0.35
4115607,-1144.0,7272.0,377.0,0.629,0.553,0.417,0.353
4115633,-1150.0,7400.0,359.0,0.628,0.552,0.417,0.356
4115649,-1214.0,7832.0,253.0,0.627,0.552,0.419,0.357
4115665,-1262.0,8310.0,119.0,0.627,0.551,0.419,0.358
4115686,-1252.0,8324.0,121.0,0.628,0.55,0.419,0.358
4115702,-1420.0,8208.0,241.0,0.629,0.549,0.419,0.357
4115718,-1388.0,7916.0,471.0,0.631,0.548,0.418,0.356
4115734,-1432.0,7876.0,289.0,0.633,0.547,0.417,0.355
4115750,-1294.0,8014.0,239.0,0.635,0.547,0.416,0.353
4115766,-1322.0,8160.0,163.0,0.637,0.547,0.415,0.351
4115792,-1376.0,8134.0,215.0,0.638,0.546,0.415,0.349
4115808,-1538.0,8076.0,253.0,0.64,0.546,0.414,0.348
4115824,-1618.0,8224.0,249.0,0.642,0.545,0.413,0.347
4115840,-1590.0,7388.0,491.0,0.644,0.544,0.413,0.346
4115856,-1832.0,7348.0,705.0,0.645,0.543,0.413,0.345
4115872,-1908.0,7954.0,789.0,0.646,0.543,0.413,0.343
4115898,-1996.0,8480.0,715.0,0.647,0.543,0.413,0.341
4115914,-1908.0,8460.0,749.0,0.648,0.543,0.411,0.34
4115930,-1614.0,7770.0,933.0,0.649,0.544,0.41,0.339
4115947,-1746.0,7700.0,889.0,0.65,0.544,0.408,0.338
4115963,-1600.0,7826.0,771.0,0.651,0.546,0.406,0.337
4115979,-1362.0,7746.0,865.0,0.652,0.547,0.403,0.336
4116005,-1152.0,8212.0,593.0,0.653,0.548,0.401,0.335
4116021,-672.0,8452.0,435.0,0.654,0.548,0.4,0.335
4116037,-660.0,8500.0,521.0,0.655,0.548,0.398,0.335
4116053,-650.0,7888.0,845.0,0.656,0.548,0.396,0.335
4116069,-886.0,7654.0,1013.0,0.657,0.548,0.395,0.335
4116085,-1172.0,7728.0,899.0,0.657,0.548,0.394,0.335
4116111,-1262.0,7542.0,933.0,0.658,0.548,0.394,0.334
4116127,-1462.0,7788.0,865.0,0.658,0.549,0.394,0.332
4116143,-1270.0,8146.0,667.0,0.658,0.549,0.395,0.331
4116159,-1170.0,8406.0,507.0,0.658,0.549,0.396,0.33
4116175,-994.0,8114.0,517.0,0.657,0.55,0.396,0.33
4116191,-1306.0,7848.0,655.0,0.656,0.55,0.397,0.331
4116217,-1234.0,7676.0,673.0,0.655,0.551,0.398,0.331
4116234,-1314.0,7778.0,779.0,0.653,0.551,0.4,0.332
4116250,-1668.0,7892.0,893.0,0.651,0.552,0.402,0.333
4116266,-1680.0,8076.0,895.0,0.649,0.553,0.403,0.333
4116282,-1412.0,8238.0,845.0,0.647,0.554,0.404,0.334
4116298,-1396.0,8008.0,767.0,0.645,0.554,0.405,0.335
4116324,-1710.0,7796.0,801.0,0.644,0.555,0.406,0.336
4116340,-1596.0,7750.0,767.0,0.642,0.556,0.406,0.336
4116356,-1502.0,7914.0,685.0,0.641,0.557,0.407,0.336
4116372,-1398.0,8042.0,489.0,0.64,0.559,0.407,0.335
4116388,-1192.0,8168.0,309.0,0.639,0.56,0.408,0.334
4116404,-1238.0,7960.0,289.0,0.638,0.561,0.408,0.334
4116430,-1278.0,7692.0,275.0,0.637,0.562,0.409,0.334
4116446,-1334.0,7822.0,255.0,0.635,0.564,0.41,0.333
4116462,-1312.0,8408.0,69.0,0.633,0.566,0.411,0.333
4116478,-1254.0,8840.0,85.0,0.631,0.567,0.411,0.334
4116494,-1264.0,8248.0,117.0,0.629,0.567,0.412,0.336
4116513,-1036.0,7468.0,7.0,0.628,0.568,0.413,0.337
4116529,-848.0,7324.0,-19.0,0.626,0.568,0.415,0.338
4116545,-1064.0,7450.0,-27.0,0.623,0.568,0.417,0.338
4116571,-1122.0,8032.0,-27.0,0.621,0.569,0.42,0.338
4116587,-1168.0,8260.0,-69.0,0.618,0.569,0.423,0.339
4116603,-1090.0,8354.0,-131.0,0.616,0.568,0.427,0.339
4116619,-1086.0,8528.0,-259.0,0.614,0.568,0.43,0.34
4116636,-1098.0,8112.0,-201.0,0.613,0.567,0.432,0.342
4116652,-1300.0,7774.0,-147.0,0.611,0.566,0.435,0.343
4116678,-1354.0,7984.0,-175.0,0.609,0.565,0.438,0.344
4116694,-1588.0,8160.0,-131.0,0.607,0.565,0.441,0.344
4116710,-1388.0,7908.0,-169.0,0.605,0.565,0.443,0.345
4116726,-1356.0,8820.0,-543.0,0.604,0.565,0.445,0.345
4116742,-1246.0,8626.0,-479.0,0.603,0.564,0.446,0.346
4116758,-1138.0,7902.0,-505.0,0.603,0.563,0.447,0.347
4116784,-1160.0,7800.0,-531.0,0.602,0.562,0.448,0.348
4116800,-1212.0,7658.0,-399.0,0.601,0.562,0.45,0.348
4116816,-1472.0,7854.0,-343.0,0.6,0.561,0.451,0.348
4116832,-1518.0,8198.0,-365.0,0.599,0.561,0.453,0.348
4116848,-1376.0,8518.0,-479.0,0.599,0.56,0.454,0.349
4116864,-1434.0,8350.0,-385.0,0.599,0.559,0.455,0.349
4116890,-1582.0,7960.0,-211.0,0.599,0.558,0.455,0.35
4116906,-1674.0,7874.0,-113.0,0.6,0.557,0.455,0.35
4116922,-1608.0,8078.0,-63.0,0.601,0.557,0.454,0.349
4116938,-1506.0,8074.0,-111.0,0.602,0.557,0.453,0.349
4116954,-1408.0,8012.0,-127.0,0.603,0.558,0.452,0.349
4116970,-1414.0,7788.0,-121.0,0.603,0.559,0.451,0.348
4116996,-1414.0,7664.0,-103.0,0.603,0.56,0.45,0.347
4117012,-1432.0,8032.0,-217.0,0.603,0.562,0.449,0.346
4117028,-1456.0,8480.0,-371.0,0.603,0.563,0.448,0.345
4117044,-1358.0,8312.0,-351.0,0.604,0.564,0.446,0.344
4117060,-1516.0,8008.0,-561.0,0.604,0.564,0.445,0.344
4117076,-1618.0,7916.0,-219.0,0.605,0.565,0.444,0.344
4117102,-1694.0,8462.0,-323.0,0.605,0.567,0.441,0.342
4117118,-1576.0,9090.0,-421.0,0.607,0.569,0.438,0.341
4117134,-1534.0,8924.0,-235.0,0.61,0.57,0.433,0.34
4117150,-1464.0,8438.0,-331.0,0.613,0.571,0.427,0.34
4117166,-1300.0,7484.0,-829.0,0.617,0.572,0.421,0.339
4117182,-1154.0,6952.0,-989.0,0.62,0.572,0.416,0.338
4117208,-1254.0,7004.0,-781.0,0.623,0.573,0.413,0.336
4117224,-1340.0,7276.0,-543.0,0.625,0.574,0.411,0.334
4117240,-1486.0,7444.0,-395.0,0.626,0.574,0.41,0.331
4117257,-1432.0,7926.0,-143.0,0.628,0.574,0.41,0.329
4117273,-1416.0,8160.0,15.0,0.629,0.572,0.411,0.327
4117289,-1406.0,8262.0,11.0,0.63,0.57,0.413,0.327
4117306,-1384.0,8274.0,-23.0,0.631,0.568,0.415,0.327
4117332,-1268.0,8450.0,141.0,0.632,0.565,0.417,0.328
4117349,-1734.0,8406.0,51.0,0.632,0.562,0.42,0.33
4117365,-1658.0,8994.0,199.0,0.632,0.559,0.421,0.333
4117381,-1702.0,8226.0,479.0,0.633,0.556,0.421,0.336
4117397,-1480.0,7730.0,563.0,0.633,0.554,0.421,0.338
4117413,-1368.0,7564.0,801.0,0.634,0.554,0.42,0.34
4117439,-1304.0,7746.0,773.0,0.634,0.554,0.419,0.34
4117455,-1076.0,8138.0,811.0,0.635,0.555,0.416,0.34
4117472,-952.0,8246.0,821.0,0.637,0.556,0.412,0.34
4117488,-454.0,8046.0,893.0,0.638,0.557,0.408,0.34
4117504,-330.0,8092.0,733.0,0.64,0.559,0.404,0.339
4117520,-286.0,8158.0,637.0,0.642,0.56,0.4,0.338
4117536,-310.0,8102.0,685.0,0.644,0.561,0.397,0.338
4117562,-490.0,8180.0,659.0,0.645,0.561,0.394,0.337
4117578,-428.0,8292.0,581.0,0.646,0.56,0.393,0.338
4117594,-488.0,8220.0,497.0,0.648,0.559,0.391,0.339
4117610,-502.0,8288.0,425.0,0.649,0.558,0.39,0.34
4117626,-608.0,8224.0,355.0,0.65,0.556,0.39,0.342
4117642,-628.0,7944.0,347.0,0.651,0.554,0.39,0.344
4117668,-964.0,7734.0,477.0,0.651,0.551,0.391,0.346
4117684,-1180.0,7636.0,647.0,0.651,0.549,0.392,0.348
4117700,-1480.0,7692.0,771.0,0.652,0.547,0.393,0.349
4117716,-1604.0,7594.0,879.0,0.652,0.545,0.395,0.35
4117732,-1642.0,7708.0,845.0,0.653,0.543,0.396,0.349
4117748,-1642.0,7836.0,853.0,0.653,0.542,0.398,0.349
4117774,-1650.0,7874.0,845.0,0.654,0.541,0.399,0.348
4117790,-1686.0,7980.0,819.0,0.654,0.541,0.4,0.347
4117806,-1794.0,8056.0,885.0,0.654,0.54,0.401,0.346
4117822,-1800.0,8050.0,875.0,0.654,0.54,0.401,0.345
4117838,-1774.0,7922.0,831.0,0.654,0.54,0.402,0.344
4117864,-1632.0,7884.0,821.0,0.654,0.541,0.402,0.343
4117880,-1690.0,7890.0,785.0,0.654,0.541,0.402,0.343
4117896,-1660.0,7944.0,819.0,0.654,0.542,0.403,0.342
4117912,-1702.0,7954.0,875.0,0.653,0.543,0.403,0.342
4117928,-1688.0,7882.0,969.0,0.652,0.543,0.403,0.342
4117944,-1688.0,8032.0,867.0,0.651,0.544,0.403,0.342
4117970,-1356.0,8200.0,745.0,0.651,0.545,0.404,0.343
4117986,-1306.0,8102.0,787.0,0.65,0.545,0.404,0.343
4118002,-1118.0,7950.0,849.0,0.649,0.545,0.403,0.344
4118018,-986.0,7930.0,631.0,0.648,0.546,0.404,0.346
4118034,-1032.0,7964.0,761.0,0.647,0.546,0.404,0.347
4118050,-1022.0,8056.0,849.0,0.646,0.547,0.404,0.348
4118076,-1010.0,8032.0,893.0,0.645,0.547,0.404,0.349
4118093,-1002.0,8068.0,841.0,0.644,0.547,0.404,0.351
4118109,-1130.0,8440.0,663.0,0.644,0.547,0.403,0.352
4118125,-934.0,8340.0,533.0,0.644,0.546,0.403,0.353
4118141,-822.0,7882.0,607.0,0.644,0.545,0.402,0.354
4118157,-888.0,7734.0,647.0,0.644,0.545,0.402,0.355
4118173,-882.0,7870.0,553.0,0.644,0.544,0.403,0.356
4118199,-1028.0,7958.0,435.0,0.644,0.544,0.403,0.356
4118215,-1082.0,8108.0,517.0,0.643,0.544,0.404,0.356
4118232,-1204.0,8182.0,499.0,0.643,0.544,0.405,0.356
4118249,-1150.0,8226.0,547.0,0.642,0.545,0.405,0.356
4118266,-1214.0,8218.0,431.0,0.642,0.545,0.406,0.356
4118282,-1182.0,8114.0,411.0,0.642,0.545,0.406,0.356
4118299,-1142.0,8112.0,471.0,0.641,0.545,0.406,0.356
4118316,-1056.0,8050.0,561.0,0.641,0.545,0.406,0.356
4118333,-1054.0,8216.0,593.0,0.641,0.545,0.406,0.356
4118350,-1026.0,8254.0,645.0,0.641,0.545,0.406,0.356
4118377,-986.0,8054.0,605.0,0.641,0.545,0.405,0.356
4118393,-886.0,7848.0,651.0,0.642,0.545,0.405,0.356
4118409,-1002.0,7784.0,755.0,0.642,0.545,0.405,0.356
4118425,-1024.0,7942.0,775.0,0.643,0.545,0.404,0.355
4118441,-982.0,7808.0,841.0,0.644,0.545,0.404,0.354
4118457,-1146.0,7954.0,723.0,0.644,0.545,0.405,0.353
4118483,-1168.0,8160.0,673.0,0.645,0.545,0.405,0.351
4118500,-1144.0,8294.0,585.0,0.645,0.544,0.405,0.351
4118517,-1162.0,8248.0,545.0,0.646,0.544,0.405,0.35
4118533,-1202.0,8154.0,665.0,0.647,0.543,0.405,0.35
4118549,-1216.0,8006.0,855.0,0.647,0.542,0.405,0.35
4118565,-1362.0,7860.0,829.0,0.648,0.542,0.405,0.35
4118581,-1444.0,7730.0,865.0,0.649,0.541,0.405,0.349
4118607,-1640.0,7726.0,847.0,0.649,0.541,0.405,0.349
4118623,-1620.0,7744.0,821.0,0.65,0.541,0.405,0.347
4118639,-1668.0,7932.0,761.0,0.65,0.541,0.405,0.346
4118655,-1798.0,8006.0,709.0,0.651,0.542,0.405,0.345
4118671,-1790.0,7908.0,845.0,0.651,0.543,0.405,0.344
4118687,-1592.0,7662.0,847.0,0.651,0.544,0.404,0.342
4118713,-1550.0,7628.0,757.0,0.651,0.546,0.404,0.34
4118729,-1584.0,7548.0,751.0,0.65,0.549,0.404,0.337
4118745,-1784.0,7652.0,617.0,0.648,0.552,0.405,0.334
4118761,-1912.0,7866.0,617.0,0.647,0.555,0.405,0.331
4118777,-1920.0,8070.0,595.0,0.645,0.559,0.405,0.328
4118803,-1924.0,8200.0,435.0,0.643,0.563,0.404,0.326
4118819,-1672.0,8336.0,317.0,0.641,0.567,0.403,0.324
4118835,-1498.0,8086.0,339.0,0.64,0.57,0.402,0.322
4118851,-1542.0,8094.0,473.0,0.638,0.573,0.402,0.321
4118867,-1458.0,8332.0,195.0,0.636,0.576,0.401,0.321
4118883,-1392.0,7690.0,363.0,0.634,0.58,0.399,0.321
4118899,-1078.0,7416.0,187.0,0.63,0.584,0.399,0.321
4118925,-1072.0,8166.0,-61.0,0.626,0.589,0.399,0.32
4118941,-674.0,8382.0,-453.0,0.622,0.593,0.399,0.319
4118958,-102.0,8310.0,-743.0,0.619,0.596,0.4,0.32
4118974,106.0,8644.0,-947.0,0.615,0.598,0.401,0.321
4118990,114.0,8426.0,-595.0,0.613,0.597,0.403,0.324
4119006,-92.0,7986.0,-313.0,0.612,0.596,0.405,0.327
4119032,30.0,8050.0,-375.0,0.61,0.594,0.408,0.33
4119048,82.0,8204.0,-515.0,0.609,0.591,0.411,0.333
4119064,38.0,8182.0,-507.0,0.608,0.588,0.415,0.337
4119080,-212.0,8106.0,-505.0,0.607,0.584,0.419,0.34
4119096,-310.0,8160.0,-555.0,0.606,0.58,0.423,0.343
4119112,-572.0,8148.0,-411.0,0.605,0.576,0.428,0.345
4119138,-832.0,8010.0,-225.0,0.604,0.573,0.432,0.347
4119154,-1124.0,7840.0,105.0,0.604,0.57,0.435,0.349
4119170,-1464.0,7714.0,399.0,0.603,0.567,0.438,0.349
4119186,-1388.0,7746.0,139.0,0.603,0.566,0.441,0.349
4119202,-1042.0,8148.0,-263.0,0.603,0.566,0.443,0.348
4119218,-892.0,8228.0,-605.0,0.603,0.565,0.444,0.346
4119244,-1054.0,8512.0,-983.0,0.603,0.564,0.445,0.345
4119261,-1502.0,8234.0,-339.0,0.604,0.563,0.446,0.345
4119278,-1670.0,7622.0,147.0,0.604,0.563,0.447,0.344
4119294,-1790.0,7896.0,-243.0,0.604,0.564,0.447,0.343
4119310,-1814.0,8596.0,-351.0,0.604,0.565,0.447,0.341
4119326,-1794.0,8200.0,-215.0,0.604,0.565,0.447,0.34
4119342,-1694.0,8142.0,-527.0,0.605,0.565,0.446,0.34
4119368,-1666.0,8408.0,-565.0,0.606,0.565,0.445,0.339
4119384,-1708.0,7994.0,-333.0,0.607,0.565,0.443,0.34
4119400,-1470.0,8344.0,-287.0,0.608,0.565,0.442,0.34
4119416,-1440.0,8536.0,-89.0,0.609,0.565,0.44,0.341
4119432,-1480.0,7760.0,187.0,0.61,0.564,0.439,0.342
4119448,-1480.0,7610.0,-115.0,0.611,0.564,0.438,0.342
4119474,-1328.0,7588.0,-609.0,0.612,0.564,0.437,0.342
4119490,-1510.0,8302.0,-549.0,0.612,0.564,0.436,0.343
4119507,-1582.0,8200.0,-429.0,0.613,0.564,0.434,0.343
4119523,-1734.0,7704.0,-113.0,0.614,0.565,0.432,0.343
4119539,-1684.0,7394.0,219.0,0.614,0.567,0.429,0.342
4119555,-1562.0,7314.0,363.0,0.614,0.57,0.427,0.34
4119571,-1146.0,7992.0,17.0,0.614,0.574,0.424,0.338
4119598,-550.0,7826.0,-295.0,0.613,0.578,0.421,0.336
4119614,-584.0,7830.0,-137.0,0.612,0.582,0.418,0.334
4119630,-1030.0,8530.0,-243.0,0.611,0.586,0.417,0.332
4119646,-990.0,8630.0,-581.0,0.61,0.588,0.415,0.331
4119662,-664.0,8574.0,-565.0,0.61,0.59,0.413,0.331
4119688,-514.0,8266.0,-593.0,0.609,0.591,0.412,0.331
4119708,-442.0,8476.0,-553.0,0.608,0.592,0.412,0.331
4119724,-850.0,8304.0,-407.0,0.608,0.592,0.412,0.332
4119740,-590.0,8344.0,-493.0,0.607,0.591,0.413,0.333
4119756,-894.0,8032.0,-133.0,0.607,0.589,0.414,0.335
4119772,-1240.0,7786.0,175.0,0.608,0.587,0.416,0.337
4119788,-1046.0,7260.0,171.0,0.608,0.584,0.418,0.338
4119804,-758.0,7244.0,109.0,0.608,0.581,0.422,0.339
4119820,-994.0,7650.0,-31.0,0.607,0.578,0.426,0.34
4119846,-1150.0,7974.0,-377.0,0.606,0.574,0.431,0.342
4119862,-976.0,8272.0,-795.0,0.605,0.57,0.437,0.344
4119878,-1020.0,8386.0,-869.0,0.603,0.566,0.443,0.347
4119894,-1402.0,8474.0,-459.0,0.601,0.561,0.449,0.35
4119910,-2020.0,8212.0,261.0,0.6,0.556,0.453,0.354
4119926,-2354.0,7924.0,623.0,0.599,0.553,0.456,0.357
4119952,-2288.0,8026.0,367.0,0.598,0.552,0.457,0.359
4119968,-1870.0,7960.0,157.0,0.597,0.552,0.457,0.36
4119984,-1744.0,7896.0,-119.0,0.597,0.554,0.456,0.359
4120000,-1416.0,8086.0,-297.0,0.597,0.556,0.454,0.359
4120016,-1264.0,8168.0,-317.0,0.597,0.558,0.452,0.358
4120032,-1098.0,8064.0,-183.0,0.598,0.56,0.449,0.357
4120058,-842.0,8142.0,-591.0,0.598,0.562,0.447,0.357
4120074,-1256.0,8280.0,-113.0,0.598,0.563,0.445,0.356
4120090,-984.0,8058.0,-179.0,0.599,0.565,0.442,0.356
4120106,-686.0,7946.0,-605.0,0.599,0.566,0.44,0.356
4120122,-606.0,8412.0,-687.0,0.6,0.567,0.438,0.356
4120138,-1102.0,8314.0,-405.0,0.601,0.566,0.436,0.356
4120164,-738.0,7942.0,-485.0,0.603,0.566,0.434,0.357
4120181,-630.0,7902.0,-543.0,0.604,0.566,0.433,0.358
4120197,-1044.0,8032.0,-257.0,0.605,0.565,0.432,0.358
4120213,-962.0,7952.0,-269.0,0.606,0.565,0.431,0.358
4120229,-992.0,8012.0,-217.0,0.607,0.564,0.43,0.358
4120245,-1202.0,8024.0,25.0,0.608,0.563,0.43,0.358
4120271,-1004.0,8158.0,-65.0,0.609,0.563,0.429,0.358
4120287,-1004.0,8504.0,-281.0,0.61,0.562,0.429,0.358
4120303,-1038.0,8182.0,-97.0,0.611,0.561,0.428,0.359
4120319,-960.0,7902.0,-25.0,0.612,0.56,0.427,0.359
4120335,-1156.0,7894.0,227.0,0.614,0.559,0.426,0.36
4120351,-1328.0,7882.0,379.0,0.615,0.558,0.425,0.359
4120377,-1128.0,8026.0,285.0,0.616,0.558,0.424,0.359
4120393,-1064.0,8088.0,195.0,0.618,0.558,0.423,0.358
4120409,-972.0,8052.0,131.0,0.619,0.558,0.422,0.357
4120426,-942.0,8180.0,35.0,0.62,0.557,0.421,0.357
4120442,-994.0,8154.0,137.0,0.622,0.557,0.42,0.357
4120458,-990.0,8114.0,407.0,0.623,0.556,0.418,0.356
4120474,-1118.0,8058.0,503.0,0.625,0.556,0.417,0.357
4120501,-1106.0,8020.0,501.0,0.626,0.556,0.415,0.357
4120518,-1050.0,7948.0,521.0,0.627,0.555,0.414,0.356
4120535,-1048.0,7886.0,491.0,0.628,0.555,0.413,0.356
4120551,-904.0,7938.0,495.0,0.629,0.555,0.412,0.356
4120567,-944.0,8132.0,455.0,0.629,0.555,0.411,0.357
4120584,-1008.0,8074.0,537.0,0.63,0.555,0.41,0.357
4120601,-1022.0,7982.0,655.0,0.63,0.555,0.409,0.357
4120618,-968.0,8012.0,639.0,0.63,0.555,0.408,0.358
4120635,-922.0,8004.0,597.0,0.631,0.555,0.408,0.358
4120651,-884.0,8012.0,523.0,0.63,0.555,0.407,0.359
4120677,-886.0,8076.0,515.0,0.63,0.555,0.407,0.359
4120693,-946.0,7942.0,611.0,0.63,0.555,0.407,0.36
4120710,-912.0,7930.0,625.0,0.63,0.555,0.407,0.36
4120726,-1004.0,8020.0,573.0,0.629,0.555,0.407,0.36
4120742,-956.0,7954.0,527.0,0.629,0.556,0.407,0.361
4120758,-950.0,7976.0,509.0,0.628,0.556,0.407,0.361
4120784,-1018.0,8060.0,491.0,0.627,0.557,0.407,0.361
4120801,-1096.0,8054.0,553.0,0.627,0.557,0.407,0.361
4120818,-1268.0,8468.0,529.0,0.626,0.558,0.407,0.362
4120834,-770.0,7870.0,569.0,0.626,0.559,0.406,0.361
4120851,-736.0,8084.0,287.0,0.625,0.56,0.406,0.361
4120868,-546.0,8264.0,147.0,0.625,0.561,0.406,0.361
4120884,-596.0,8156.0,161.0,0.624,0.562,0.406,0.361
4120901,-586.0,8108.0,257.0,0.623,0.563,0.406,0.361
4120917,-736.0,8180.0,183.0,0.623,0.564,0.406,0.361
4120943,-892.0,8096.0,311.0,0.622,0.564,0.406,0.361
4120959,-704.0,8068.0,271.0,0.622,0.565,0.405,0.36
4120975,-690.0,8268.0,191.0,0.621,0.566,0.405,0.36
4120992,-640.0,8196.0,95.0,0.621,0.566,0.405,0.36
4121009,-678.0,8220.0,77.0,0.621,0.566,0.405,0.36
4121025,-884.0,8212.0,99.0,0.621,0.566,0.405,0.36
4121042,-710.0,8174.0,183.0,0.622,0.566,0.405,0.36
4121058,-780.0,8096.0,177.0,0.622,0.566,0.404,0.36
4121085,-762.0,8126.0,117.0,0.622,0.565,0.404,0.36
4121101,-780.0,8082.0,195.0,0.623,0.565,0.404,0.36
4121117,-948.0,8096.0,273.0,0.623,0.564,0.404,0.36
4121133,-838.0,8110.0,171.0,0.624,0.564,0.404,0.36
4121149,-710.0,8142.0,229.0,0.625,0.563,0.404,0.36
4121165,-1090.0,8162.0,383.0,0.625,0.563,0.404,0.36
4121191,-880.0,8104.0,309.0,0.626,0.562,0.404,0.36
4121207,-844.0,8114.0,241.0,0.626,0.561,0.403,0.36
4121223,-872.0,8124.0,283.0,0.627,0.561,0.403,0.36
4121239,-964.0,8066.0,399.0,0.628,0.56,0.404,0.36
4121255,-1000.0,8046.0,449.0,0.629,0.559,0.403,0.36
4121271,-930.0,8038.0,441.0,0.629,0.558,0.403,0.36
4121297,-936.0,8172.0,615.0,0.63,0.557,0.403,0.36
4121313,-1060.0,8124.0,617.0,0.631,0.557,0.403,0.361
4121329,-994.0,8098.0,589.0,0.632,0.556,0.403,0.361
4121345,-984.0,8020.0,627.0,0.632,0.555,0.402,0.361
4121361,-906.0,7970.0,599.0,0.633,0.554,0.402,0.361
4121378,-934.0,8012.0,613.0,0.634,0.553,0.402,0.361
4121404,-1064.0,8030.0,581.0,0.635,0.552,0.401,0.362
4121420,-1066.0,7978.0,739.0,0.635,0.552,0.401,0.362
4121436,-1076.0,8016.0,721.0,0.635,0.551,0.401,0.362
4121452,-1070.0,7958.0,777.0,0.636,0.551,0.401,0.362
4121468,-986.0,7936.0,685.0,0.636,0.551,0.4,0.363
4121485,-992.0,8004.0,667.0,0.636,0.551,0.4,0.363
4121502,-818.0,8032.0,655.0,0.636,0.552,0.4,0.363
4121528,-908.0,7958.0,731.0,0.636,0.552,0.4,0.363
4121544,-804.0,8050.0,677.0,0.635,0.552,0.399,0.363
4121561,-852.0,7964.0,707.0,0.635,0.553,0.399,0.363
4121578,-710.0,8100.0,641.0,0.635,0.553,0.399,0.363
4121594,-770.0,8114.0,743.0,0.634,0.554,0.399,0.363
4121611,-696.0,7958.0,771.0,0.634,0.554,0.399,0.363
4121628,-548.0,8098.0,561.0,0.634,0.555,0.399,0.362
4121645,-624.0,8104.0,479.0,0.633,0.555,0.399,0.362
4121662,-512.0,8150.0,447.0,0.633,0.556,0.4,0.362
4121678,-490.0,8138.0,481.0,0.632,0.556,0.4,0.362
4121704,-540.0,8242.0,383.0,0.632,0.556,0.401,0.362
4121720,-766.0,8292.0,379.0,0.631,0.555,0.402,0.363
4121736,-878.0,8130.0,549.0,0.631,0.555,0.403,0.364
4121752,-846.0,7958.0,581.0,0.63,0.554,0.403,0.365
4121768,-922.0,8000.0,515.0,0.63,0.554,0.404,0.365
4121785,-762.0,8140.0,391.0,0.629,0.553,0.405,0.366
4121811,-800.0,8222.0,373.0,0.629,0.553,0.406,0.366
4121828,-896.0,8280.0,397.0,0.629,0.552,0.406,0.367
4121844,-790.0,8216.0,405.0,0.628,0.551,0.407,0.368
4121861,-826.0,7994.0,475.0,0.628,0.551,0.407,0.369
4121878,-958.0,8000.0,517.0,0.628,0.55,0.408,0.37
4121894,-910.0,8022.0,505.0,0.628,0.55,0.408,0.37
4121911,-1018.0,8036.0,457.0,0.628,0.549,0.408,0.371
4121928,-936.0,8056.0,459.0,0.628,0.549,0.409,0.371
4121944,-988.0,8078.0,585.0,0.628,0.549,0.409,0.371
4121970,-916.0,7978.0,477.0,0.627,0.548,0.41,0.371
4121986,-898.0,8010.0,419.0,0.627,0.548,0.411,0.371
4122002,-880.0,7962.0,493.0,0.627,0.548,0.411,0.371
4122019,-1118.0,8170.0,495.0,0.627,0.548,0.412,0.37
4122036,-1012.0,8206.0,457.0,0.626,0.548,0.413,0.37
4122053,-1002.0,8096.0,577.0,0.626,0.547,0.413,0.37
4122070,-1026.0,8040.0,595.0,0.626,0.547,0.414,0.37
4122086,-1002.0,8020.0,521.0,0.626,0.547,0.414,0.37
4122103,-976.0,8092.0,463.0,0.626,0.547,0.415,0.37
4122129,-1146.0,8362.0,445.0,0.626,0.546,0.416,0.37
4122145,-1040.0,8328.0,499.0,0.627,0.545,0.415,0.371
4122161,-950.0,8242.0,409.0,0.628,0.544,0.415,0.372
4122177,-1050.0,8012.0,609.0,0.628,0.543,0.415,0.373
4122193,-1046.0,7804.0,665.0,0.629,0.542,0.414,0.373
4122209,-1072.0,7816.0,699.0,0.629,0.541,0.414,0.374
4122235,-1034.0,7858.0,667.0,0.63,0.541,0.414,0.374
4122251,-1020.0,8054.0,639.0,0.63,0.54,0.415,0.374
4122267,-1018.0,8082.0,547.0,0.63,0.54,0.415,0.374
4122283,-1076.0,8034.0,635.0,0.63,0.54,0.415,0.374
4122300,-1012.0,8020.0,575.0,0.63,0.54,0.415,0.374
4122316,-1020.0,8062.0,609.0,0.63,0.54,0.415,0.374
4122333,-1074.0,8020.0,589.0,0.63,0.539,0.416,0.374
4122359,-1068.0,7984.0,637.0,0.63,0.539,0.416,0.374
4122376,-1130.0,8004.0,699.0,0.63,0.539,0.416,0.373
4122392,-1298.0,7984.0,813.0,0.63,0.539,0.416,0.373
4122409,-992.0,7926.0,705.0,0.63,0.54,0.416,0.373
4122425,-954.0,8038.0,545.0,0.63,0.54,0.416,0.373
4122441,-928.0,8158.0,543.0,0.629,0.54,0.416,0.372
4122457,-980.0,8054.0,605.0,0.629,0.541,0.416,0.372
4122483,-974.0,8038.0,613.0,0.629,0.541,0.417,0.372
4122500,-1066.0,8052.0,745.0,0.628,0.541,0.417,0.372
4122517,-1142.0,7948.0,729.0,0.628,0.542,0.417,0.372
4122534,-956.0,8028.0,607.0,0.627,0.542,0.417,0.372
4122550,-838.0,8050.0,501.0,0.627,0.542,0.417,0.372
4122567,-924.0,8090.0,513.0,0.627,0.543,0.418,0.372
4122584,-902.0,7996.0,565.0,0.626,0.543,0.418,0.372
4122601,-906.0,7970.0,465.0,0.625,0.544,0.419,0.371
4122617,-958.0,8084.0,437.0,0.625,0.544,0.419,0.371
4122643,-898.0,8094.0,505.0,0.624,0.544,0.42,0.371
4122659,-888.0,8172.0,453.0,0.623,0.545,0.42,0.371
4122676,-910.0,8226.0,363.0,0.622,0.545,0.421,0.372
4122692,-952.0,8018.0,481.0,0.621,0.546,0.421,0.372
4122708,-1016.0,7920.0,463.0,0.621,0.546,0.422,0.372
4122724,-1018.0,7932.0,437.0,0.62,0.547,0.422,0.372
4122740,-952.0,8160.0,283.0,0.619,0.548,0.423,0.371
4122766,-1076.0,8288.0,313.0,0.618,0.549,0.423,0.371
4122782,-1052.0,8244.0,355.0,0.617,0.55,0.423,0.371
4122798,-1022.0,8266.0,243.0,0.617,0.551,0.422,0.371
4122815,-1000.0,8016.0,365.0,0.617,0.552,0.422,0.371
4122832,-996.0,7886.0,345.0,0.616,0.553,0.421,0.37
4122848,-976.0,7966.0,213.0,0.616,0.554,0.421,0.369
4122864,-1068.0,7992.0,259.0,0.615,0.555,0.421,0.369
4122890,-928.0,8034.0,141.0,0.614,0.557,0.42,0.368
4122907,-846.0,8098.0,55.0,0.613,0.559,0.42,0.368
4122923,-760.0,8132.0,43.0,0.613,0.56,0.42,0.367
4122940,-728.0,8234.0,37.0,0.612,0.562,0.419,0.367
4122957,-668.0,8218.0,-11.0,0.611,0.563,0.419,0.366
4122973,-778.0,8132.0,23.0,0.61,0.564,0.419,0.366
4122990,-838.0,8090.0,91.0,0.61,0.564,0.419,0.366
4123007,-780.0,7992.0,53.0,0.61,0.565,0.419,0.366
4123024,-804.0,7994.0,65.0,0.609,0.565,0.42,0.365
4123050,-784.0,7992.0,65.0,0.609,0.565,0.42,0.365
4123066,-766.0,8072.0,13.0,0.609,0.564,0.421,0.365
4123083,-732.0,8162.0,3.0,0.609,0.564,0.422,0.365
4123100,-746.0,8058.0,19.0,0.608,0.563,0.423,0.366
4123117,-872.0,8060.0,65.0,0.608,0.562,0.425,0.366
4123133,-946.0,8046.0,143.0,0.608,0.561,0.426,0.366
4123149,-1052.0,7992.0,237.0,0.607,0.561,0.427,0.367
4123165,-1054.0,8008.0,307.0,0.607,0.56,0.429,0.367
4123191,-1108.0,7984.0,297.0,0.606,0.56,0.43,0.367
4123207,-1226.0,8034.0,395.0,0.606,0.56,0.431,0.367
4123223,-1134.0,7962.0,289.0,0.605,0.56,0.432,0.366
4123239,-1052.0,8024.0,269.0,0.604,0.56,0.433,0.366
4123256,-1070.0,7948.0,211.0,0.603,0.561,0.433,0.365
4123272,-960.0,8010.0,103.0,0.602,0.562,0.434,0.365
4123298,-956.0,8130.0,-29.0,0.601,0.563,0.435,0.364
4123314,-932.0,8172.0,-49.0,0.6,0.564,0.436,0.364
4123330,-888.0,8252.0,-209.0,0.598,0.565,0.437,0.364
4123347,-908.0,8166.0,-99.0,0.596,0.566,0.437,0.365
4123363,-884.0,7924.0,-35.0,0.594,0.567,0.438,0.365
4123379,-740.0,8020.0,-137.0,0.593,0.569,0.439,0.365
4123405,-734.0,8076.0,-261.0,0.59,0.57,0.44,0.365
4123421,-736.0,8212.0,-391.0,0.589,0.571,0.44,0.365
4123437,-638.0,8284.0,-395.0,0.587,0.572,0.441,0.365
4123453,-746.0,8160.0,-365.0,0.585,0.573,0.442,0.366
4123469,-754.0,7988.0,-337.0,0.584,0.574,0.443,0.366
4123485,-694.0,7792.0,-329.0,0.582,0.576,0.443,0.366
4123502,-738.0,8152.0,-485.0,0.58,0.577,0.444,0.365
4123528,-670.0,8252.0,-657.0,0.579,0.578,0.445,0.364
4123544,-422.0,8226.0,-825.0,0.578,0.579,0.445,0.364
4123560,-584.0,8320.0,-761.0,0.577,0.58,0.446,0.364
4123577,-636.0,8208.0,-717.0,0.576,0.58,0.446,0.363
4123594,-608.0,8008.0,-821.0,0.576,0.58,0.447,0.363
4123610,-558.0,8032.0,-865.0,0.575,0.58,0.448,0.363
4123627,-678.0,8164.0,-839.0,0.575,0.58,0.448,0.362
4123643,-644.0,8330.0,-847.0,0.575,0.58,0.449,0.362
4123669,-780.0,8354.0,-861.0,0.575,0.579,0.449,0.362
4123685,-776.0,8156.0,-845.0,0.576,0.579,0.45,0.362
4123701,-904.0,8130.0,-747.0,0.576,0.578,0.45,0.363
4123717,-912.0,8104.0,-733.0,0.577,0.577,0.451,0.363
4123734,-992.0,8072.0,-753.0,0.578,0.575,0.451,0.362
4123750,-968.0,8052.0,-653.0,0.579,0.574,0.451,0.362
4123776,-996.0,8078.0,-597.0,0.58,0.573,0.452,0.362
4123793,-1070.0,8090.0,-557.0,0.581,0.572,0.452,0.362
4123810,-1138.0,8184.0,-525.0,0.582,0.571,0.452,0.362
4123826,-1092.0,8096.0,-567.0,0.583,0.57,0.452,0.362
4123842,-1130.0,8098.0,-523.0,0.584,0.569,0.452,0.362
4123858,-1266.0,7994.0,-373.0,0.586,0.568,0.451,0.362
4123875,-1310.0,8026.0,-295.0,0.587,0.567,0.451,0.362
4123891,-1206.0,8182.0,-361.0,0.588,0.566,0.45,0.363
4123917,-1180.0,8052.0,-333.0,0.59,0.565,0.449,0.363
4123933,-1220.0,7988.0,-251.0,0.591,0.564,0.448,0.363
4123950,-1204.0,8190.0,-319.0,0.592,0.563,0.448,0.363
4123967,-1198.0,8080.0,-297.0,0.593,0.563,0.446,0.364
4123983,-1202.0,8156.0,-181.0,0.594,0.562,0.445,0.364
4124000,-1242.0,8104.0,-147.0,0.596,0.562,0.444,0.365
4124017,-1156.0,8012.0,-173.0,0.597,0.561,0.442,0.365
4124034,-1094.0,7934.0,-203.0,0.598,0.561,0.441,0.366
4124050,-1090.0,8028.0,-121.0,0.599,0.56,0.439,0.366
4124067,-1046.0,8002.0,-51.0,0.6,0.56,0.438,0.366
4124094,-954.0,7972.0,-65.0,0.601,0.56,0.436,0.366
4124110,-948.0,8112.0,-43.0,0.602,0.56,0.435,0.367
4124126,-910.0,8024.0,-17.0,0.603,0.56,0.434,0.367
4124142,-922.0,8142.0,-25.0,0.604,0.559,0.433,0.368
4124158,-834.0,8086.0,5.0,0.605,0.559,0.431,0.368
4124175,-928.0,7992.0,77.0,0.606,0.559,0.43,0.369
4124191,-888.0,7954.0,181.0,0.606,0.558,0.429,0.369
4124217,-898.0,8056.0,245.0,0.607,0.558,0.428,0.37
4124233,-888.0,8026.0,261.0,0.608,0.558,0.427,0.37
4124250,-700.0,7994.0,199.0,0.608,0.558,0.426,0.37
4124267,-716.0,8034.0,47.0,0.609,0.558,0.426,0.37
4124283,-734.0,8040.0,149.0,0.609,0.557,0.425,0.371
4124300,-776.0,7982.0,289.0,0.609,0.557,0.425,0.371
4124316,-702.0,8050.0,251.0,0.609,0.558,0.425,0.371
4124343,-744.0,8164.0,241.0,0.609,0.558,0.425,0.371
4124359,-702.0,8102.0,269.0,0.609,0.558,0.424,0.371
4124375,-680.0,8250.0,189.0,0.609,0.558,0.424,0.371
4124392,-694.0,8102.0,189.0,0.609,0.558,0.424,0.372
4124409,-634.0,8138.0,171.0,0.609,0.558,0.423,0.372
4124426,-714.0,8084.0,295.0,0.61,0.558,0.423,0.373
4124442,-830.0,7982.0,339.0,0.61,0.558,0.422,0.373
4124458,-640.0,8136.0,175.0,0.61,0.558,0.422,0.373
4124475,-662.0,8142.0,139.0,0.609,0.558,0.422,0.373
4124492,-678.0,8008.0,199.0,0.61,0.558,0.422,0.374
4124519,-688.0,8038.0,155.0,0.61,0.558,0.422,0.374
4124536,-686.0,8142.0,157.0,0.61,0.558,0.422,0.374
4124553,-688.0,8044.0,191.0,0.609,0.558,0.422,0.374
4124569,-714.0,8060.0,127.0,0.609,0.557,0.422,0.374
4124585,-718.0,8120.0,141.0,0.609,0.557,0.422,0.374
4124601,-696.0,8054.0,113.0,0.609,0.557,0.422,0.375
4124617,-780.0,8100.0,241.0,0.609,0.556,0.423,0.375
4124634,-764.0,8070.0,245.0,0.609,0.556,0.423,0.375
4124660,-868.0,8130.0,169.0,0.609,0.556,0.423,0.375
4124677,-760.0,8064.0,183.0,0.609,0.555,0.424,0.375
4124693,-846.0,8024.0,265.0,0.609,0.555,0.424,0.375
4124709,-902.0,8172.0,199.0,0.609,0.554,0.425,0.375
4124725,-768.0,8134.0,133.0,0.61,0.554,0.425,0.375
4124742,-812.0,8112.0,121.0,0.61,0.554,0.425,0.375
4124759,-940.0,8126.0,189.0,0.61,0.553,0.425,0.375
4124775,-886.0,8074.0,273.0,0.61,0.553,0.426,0.376
4124802,-930.0,8086.0,223.0,0.61,0.552,0.426,0.376
4124818,-896.0,8104.0,251.0,0.611,0.552,0.426,0.376
4124835,-940.0,8068.0,307.0,0.611,0.551,0.427,0.376
4124851,-966.0,8050.0,267.0,0.611,0.55,0.427,0.376
4124867,-974.0,8032.0,303.0,0.611,0.55,0.427,0.376
4124883,-968.0,8012.0,269.0,0.611,0.549,0.428,0.377
4124900,-1022.0,8088.0,249.0,0.611,0.549,0.428,0.377
4124926,-1002.0,8058.0,349.0,0.611,0.548,0.428,0.377
4124942,-972.0,8116.0,347.0,0.611,0.548,0.428,0.377
4124958,-954.0,8078.0,343.0,0.611,0.548,0.429,0.378
4124974,-1018.0,8020.0,341.0,0.611,0.548,0.429,0.378
4124990,-1096.0,8002.0,383.0,0.611,0.548,0.429,0.378
4125006,-964.0,8072.0,285.0,0.611,0.547,0.429,0.378
4125032,-946.0,8106.0,257.0,0.611,0.547,0.429,0.378
4125048,-870.0,7998.0,247.0,0.611,0.548,0.429,0.378
4125064,-896.0,8164.0,237.0,0.611,0.547,0.429,0.378
4125080,-1022.0,8058.0,289.0,0.611,0.547,0.429,0.378
4125096,-882.0,8018.0,209.0,0.611,0.548,0.429,0.378
4125112,-908.0,8122.0,221.0,0.611,0.548,0.429,0.378
4125138,-954.0,8066.0,263.0,0.611,0.548,0.429,0.378
4125154,-904.0,8056.0,201.0,0.611,0.548,0.429,0.378
4125170,-892.0,8140.0,225.0,0.611,0.548,0.429,0.378
4125186,-890.0,8054.0,265.0,0.611,0.548,0.429,0.378
4125202,-924.0,8104.0,287.0,0.611,0.547,0.43,0.378
4125218,-930.0,8028.0,299.0,0.611,0.547,0.43,0.378
4125244,-904.0,8098.0,279.0,0.611,0.547,0.43,0.378
4125260,-864.0,8024.0,267.0,0.611,0.547,0.43,0.378
4125276,-908.0,8140.0,295.0,0.611,0.547,0.43,0.378
4125292,-932.0,8122.0,291.0,0.611,0.547,0.43,0.378
4125308,-960.0,8034.0,317.0,0.611,0.547,0.43,0.378
4125324,-916.0,8048.0,251.0,0.611,0.547,0.43,0.377
4125350,-906.0,8090.0,285.0,0.611,0.547,0.43,0.377
4125367,-908.0,8000.0,289.0,0.611,0.547,0.43,0.377
4125383,-904.0,8128.0,227.0,0.611,0.547,0.431,0.377
4125399,-846.0,8164.0,287.0,0.611,0.547,0.431,0.377
4125415,-942.0,8068.0,271.0,0.611,0.547,0.431,0.377
4125432,-1052.0,8042.0,369.0,0.611,0.547,0.431,0.377
4125449,-920.0,8020.0,295.0,0.611,0.547,0.431,0.377
4125475,-902.0,8050.0,283.0,0.61,0.547,0.432,0.377
4125491,-888.0,8056.0,271.0,0.61,0.547,0.432,0.376
4125507,-900.0,8044.0,303.0,0.61,0.547,0.432,0.376
4125523,-994.0,7982.0,231.0,0.61,0.547,0.433,0.376
4125539,-1020.0,8050.0,275.0,0.61,0.547,0.433,0.376
4125555,-948.0,8104.0,241.0,0.609,0.547,0.434,0.376
4125572,-950.0,8008.0,229.0,0.609,0.547,0.434,0.376
4125598,-904.0,8054.0,201.0,0.609,0.547,0.435,0.375
4125615,-972.0,8106.0,215.0,0.608,0.547,0.436,0.375
4125631,-1018.0,8110.0,303.0,0.608,0.547,0.436,0.375
4125647,-990.0,8116.0,257.0,0.607,0.548,0.437,0.375
4125663,-932.0,7996.0,221.0,0.607,0.548,0.438,0.375
4125679,-994.0,8056.0,209.0,0.606,0.548,0.438,0.375
4125706,-976.0,7998.0,137.0,0.606,0.548,0.439,0.375
4125722,-1002.0,8040.0,183.0,0.605,0.548,0.44,0.375
4125739,-994.0,8138.0,107.0,0.604,0.548,0.441,0.375
4125756,-1018.0,8176.0,133.0,0.604,0.548,0.441,0.375
4125772,-1082.0,8164.0,125.0,0.603,0.548,0.442,0.375
4125788,-962.0,8160.0,85.0,0.603,0.549,0.442,0.375
4125804,-932.0,8100.0,65.0,0.602,0.549,0.443,0.375
4125820,-962.0,8166.0,23.0,0.601,0.549,0.443,0.375
4125846,-1040.0,8166.0,163.0,0.601,0.549,0.444,0.375
4125862,-962.0,8186.0,145.0,0.6,0.549,0.444,0.375
4125878,-996.0,8468.0,55.0,0.6,0.55,0.444,0.376
4125894,-1004.0,8470.0,157.0,0.599,0.55,0.444,0.376
4125910,-768.0,8714.0,507.0,0.599,0.549,0.444,0.378
4125926,-962.0,8268.0,259.0,0.6,0.548,0.443,0.379
4125952,-1008.0,8738.0,339.0,0.6,0.547,0.443,0.381
4125969,-662.0,8550.0,-7.0,0.6,0.545,0.443,0.383
4125985,24.0,7846.0,-261.0,0.6,0.542,0.444,0.386
4126001,322.0,7120.0,-205.0,0.599,0.541,0.446,0.387
4126017,-458.0,7706.0,-221.0,0.597,0.54,0.45,0.387
4126033,-608.0,7768.0,57.0,0.594,0.541,0.454,0.386
4126059,-930.0,7876.0,265.0,0.592,0.542,0.457,0.384
4126076,-1196.0,8158.0,165.0,0.59,0.544,0.459,0.382
4126093,-922.0,7594.0,-61.0,0.588,0.545,0.46,0.381
4126109,-636.0,7602.0,-441.0,0.586,0.547,0.463,0.378
4126126,-814.0,7342.0,-421.0,0.583,0.549,0.466,0.377
4126143,-914.0,7504.0,-505.0,0.579,0.551,0.471,0.374
4126159,-940.0,7678.0,-533.0,0.575,0.552,0.476,0.372
4126176,-1112.0,8044.0,-689.0,0.571,0.553,0.481,0.37
4126193,-1152.0,7520.0,-689.0,0.567,0.554,0.486,0.368
4126209,-1472.0,7710.0,-591.0,0.563,0.555,0.491,0.366
4126236,-1400.0,7980.0,-645.0,0.56,0.555,0.495,0.365
4126253,-1546.0,8372.0,-649.0,0.557,0.555,0.499,0.365
4126269,-1442.0,8460.0,-879.0,0.555,0.554,0.501,0.365
4126285,-1106.0,7742.0,-1351.0,0.552,0.554,0.505,0.365
4126301,-1448.0,8508.0,-1245.0,0.548,0.555,0.509,0.364
4126317,-1594.0,9166.0,-1067.0,0.545,0.555,0.513,0.364
4126333,-1702.0,9056.0,-1065.0,0.543,0.555,0.515,0.364
4126360,-1340.0,8712.0,-1261.0,0.542,0.554,0.517,0.364
4126376,-934.0,7808.0,-1431.0,0.54,0.553,0.518,0.365
4126392,-1158.0,8100.0,-1045.0,0.539,0.553,0.519,0.366
4126408,-1068.0,8074.0,-899.0,0.538,0.553,0.519,0.368
4126425,-1088.0,7728.0,-811.0,0.538,0.552,0.518,0.371
4126441,-814.0,7612.0,-1017.0,0.538,0.552,0.516,0.374
4126460,-750.0,7000.0,-1079.0,0.537,0.552,0.514,0.377
4126476,-1000.0,7792.0,-1153.0,0.536,0.552,0.513,0.38
4126492,-942.0,7858.0,-1193.0,0.535,0.552,0.511,0.384
4126519,-1036.0,7520.0,-1125.0,0.534,0.553,0.51,0.387
4126535,-1284.0,8536.0,-1131.0,0.532,0.554,0.509,0.389
4126551,-1148.0,8336.0,-1303.0,0.531,0.555,0.507,0.391
4126567,-1148.0,8168.0,-1117.0,0.53,0.556,0.507,0.392
4126583,-952.0,7884.0,-1055.0,0.528,0.558,0.507,0.393
4126599,-852.0,8180.0,-585.0,0.525,0.56,0.507,0.392
4126625,-732.0,8626.0,-285.0,0.524,0.563,0.506,0.391
4126642,180.0,8358.0,-565.0,0.522,0.565,0.505,0.391
4126659,212.0,8206.0,-247.0,0.521,0.568,0.503,0.391
4126676,604.0,8110.0,-323.0,0.52,0.569,0.5,0.394
4126692,874.0,7846.0,-381.0,0.519,0.571,0.497,0.398
4126708,1078.0,7078.0,-413.0,0.517,0.571,0.493,0.404
4126724,1242.0,6804.0,-479.0,0.514,0.571,0.491,0.411
4126740,1214.0,6916.0,-355.0,0.511,0.571,0.488,0.419
4126767,1052.0,7268.0,-383.0,0.508,0.57,0.484,0.428
4126783,1156.0,7006.0,-475.0,0.505,0.568,0.479,0.44
4126799,1064.0,6518.0,-641.0,0.502,0.566,0.472,0.453
4126816,1144.0,6902.0,-805.0,0.499,0.563,0.465,0.467
4126832,828.0,7078.0,-681.0,0.496,0.56,0.456,0.482
4126849,812.0,7212.0,-497.0,0.493,0.557,0.445,0.498
4126865,692.0,6696.0,-339.0,0.491,0.555,0.432,0.514
4126882,998.0,6360.0,-437.0,0.489,0.553,0.418,0.53
4126909,1558.0,6820.0,-641.0,0.486,0.551,0.404,0.545
4126926,1432.0,6970.0,187.0,0.483,0.55,0.388,0.56
4126942,1470.0,7356.0,267.0,0.479,0.55,0.371,0.574
4126959,2094.0,6730.0,77.0,0.476,0.55,0.353,0.589
4126975,2248.0,6400.0,379.0,0.471,0.55,0.335,0.602
4126991,2712.0,7080.0,577.0,0.466,0.552,0.318,0.614
4127007,2898.0,6988.0,1007.0,0.46,0.554,0.3,0.626
4127024,2852.0,7458.0,1199.0,0.455,0.556,0.281,0.636
4127041,3274.0,7244.0,939.0,0.45,0.558,0.262,0.646
4127068,3888.0,5550.0,1293.0,0.443,0.561,0.243,0.655
4127084,4344.0,6552.0,1651.0,0.436,0.565,0.226,0.663
4127100,4300.0,6680.0,1851.0,0.43,0.569,0.208,0.669
4127116,4504.0,7114.0,1769.0,0.423,0.574,0.191,0.675
4127132,5252.0,7502.0,1721.0,0.417,0.577,0.173,0.681
4127148,5186.0,5640.0,2041.0,0.411,0.581,0.154,0.686
4127174,5480.0,4888.0,2171.0,0.405,0.585,0.138,0.689
4127191,5818.0,6092.0,2179.0,0.399,0.59,0.123,0.692
4127207,5836.0,5760.0,2169.0,0.392,0.594,0.107,0.694
4127223,6040.0,5530.0,2365.0,0.386,0.598,0.092,0.696
4127239,6176.0,5218.0,2165.0,0.38,0.602,0.076,0.698
4127255,6974.0,5430.0,1973.0,0.374,0.606,0.06,0.7
4127272,6974.0,4506.0,1975.0,0.368,0.609,0.044,0.701
4127298,6970.0,3144.0,1905.0,0.36,0.612,0.03,0.703
4127314,7618.0,3834.0,2019.0,0.352,0.616,0.018,0.704
4127331,7854.0,3942.0,2193.0,0.344,0.62,0.007,0.705
4127348,7958.0,3984.0,2025.0,0.336,0.623,-0.002,0.707
4127365,8182.0,4252.0,2003.0,0.326,0.626,-0.011,0.708
4127381,8320.0,4112.0,2055.0,0.318,0.628,-0.02,0.71
4127398,8418.0,2774.0,2131.0,0.309,0.63,-0.027,0.712
4127414,8668.0,3040.0,1961.0,0.301,0.632,-0.032,0.713
4127430,8704.0,3830.0,2009.0,0.293,0.635,-0.036,0.714
4127457,8482.0,3250.0,1979.0,0.286,0.637,-0.04,0.715
4127474,8504.0,3018.0,1847.0,0.28,0.639,-0.043,0.715
4127491,8404.0,3282.0,1923.0,0.273,0.641,-0.044,0.716
4127508,8330.0,3366.0,1855.0,0.268,0.643,-0.046,0.716
4127525,8146.0,2816.0,1777.0,0.264,0.645,-0.047,0.716
4127541,8200.0,2640.0,1617.0,0.26,0.647,-0.047,0.716
4127558,8068.0,3114.0,1665.0,0.256,0.648,-0.046,0.716
4127575,7992.0,3084.0,1505.0,0.253,0.649,-0.046,0.716
4127592,7990.0,2816.0,1439.0,0.251,0.65,-0.046,0.716
4127609,7890.0,2482.0,1433.0,0.249,0.65,-0.045,0.716
4127625,7892.0,2274.0,1443.0,0.247,0.651,-0.044,0.717
4127651,7926.0,2862.0,1563.0,0.246,0.651,-0.042,0.717
4127667,7764.0,2676.0,1615.0,0.245,0.651,-0.04,0.717
4127683,7712.0,2480.0,1625.0,0.244,0.651,-0.039,0.717
4127699,7812.0,2356.0,1485.0,0.244,0.652,-0.037,0.717
4127715,7724.0,2238.0,1477.0,0.244,0.652,-0.036,0.717
4127732,7926.0,2936.0,1393.0,0.244,0.652,-0.034,0.716
4127749,7860.0,2746.0,1459.0,0.245,0.653,-0.034,0.716
4127776,7778.0,2214.0,1495.0,0.247,0.653,-0.034,0.715
4127792,7786.0,2424.0,1465.0,0.248,0.653,-0.035,0.715
4127808,7822.0,2572.0,1387.0,0.25,0.653,-0.036,0.714
4127824,7808.0,2314.0,1353.0,0.253,0.653,-0.037,0.713
4127840,7794.0,2186.0,1281.0,0.255,0.653,-0.038,0.712
4127856,7876.0,2300.0,1217.0,0.258,0.653,-0.04,0.711
4127882,7674.0,2280.0,1285.0,0.26,0.653,-0.041,0.71
4127898,7612.0,2118.0,1303.0,0.263,0.652,-0.043,0.71
4127914,7676.0,2360.0,1285.0,0.266,0.652,-0.045,0.709
4127930,7604.0,2316.0,1239.0,0.269,0.651,-0.047,0.708
4127946,7754.0,2202.0,1153.0,0.272,0.651,-0.05,0.707
4127962,7698.0,1978.0,1201.0,0.275,0.65,-0.053,0.707
4127988,7740.0,1994.0,1191.0,0.278,0.649,-0.056,0.706
4128004,7720.0,2062.0,1193.0,0.281,0.649,-0.059,0.705
4128020,7850.0,2058.0,1183.0,0.283,0.648,-0.061,0.704
4128036,7826.0,2490.0,1191.0,0.286,0.647,-0.064,0.704
4128052,7694.0,2902.0,1077.0,0.289,0.646,-0.068,0.703
4128068,7584.0,1748.0,1033.0,0.293,0.645,-0.073,0.702
4128094,7778.0,2176.0,1029.0,0.297,0.644,-0.078,0.701
4128110,7614.0,2186.0,1277.0,0.302,0.642,-0.085,0.7
4128126,7684.0,1606.0,1195.0,0.307,0.64,-0.092,0.698
4128142,7598.0,1100.0,1263.0,0.311,0.639,-0.098,0.697
4128158,7746.0,1402.0,1103.0,0.314,0.638,-0.104,0.696
4128174,7602.0,1352.0,1339.0,0.317,0.636,-0.109,0.695
4128200,7442.0,1364.0,1335.0,0.32,0.635,-0.114,0.694
