timestamp,ax,ay,az,q0,q1,q2,q3
5677220,2824.0,5937.0,4895.0,0.669,0.425,0.123,0.597
5677236,2812.0,5903.0,4929.0,0.669,0.426,0.123,0.597
5677252,2796.0,5865.0,4829.0,0.669,0.426,0.123,0.597
5677278,2776.0,5813.0,4851.0,0.668,0.426,0.123,0.597
5677294,2908.0,6019.0,4803.0,0.668,0.427,0.123,0.597
5677310,2750.0,6259.0,4905.0,0.668,0.427,0.123,0.597
5677326,2772.0,5945.0,5013.0,0.668,0.427,0.123,0.597
5677342,2744.0,6211.0,4867.0,0.668,0.427,0.124,0.597
5677358,2624.0,6083.0,4815.0,0.668,0.427,0.124,0.597
5677384,2668.0,5907.0,5059.0,0.668,0.427,0.124,0.597
5677400,2702.0,5931.0,4939.0,0.668,0.427,0.123,0.597
5677416,2722.0,6025.0,4895.0,0.668,0.427,0.123,0.596
5677432,2834.0,5943.0,5039.0,0.669,0.426,0.123,0.596
5677448,2878.0,5835.0,5013.0,0.669,0.426,0.123,0.597
5677474,2882.0,5853.0,4973.0,0.669,0.426,0.123,0.597
5677490,2816.0,5823.0,4877.0,0.669,0.425,0.123,0.597
5677507,2818.0,5863.0,4873.0,0.669,0.425,0.123,0.597
5677523,2814.0,5947.0,4823.0,0.668,0.426,0.123,0.598
5677539,2792.0,5933.0,4841.0,0.668,0.426,0.123,0.598
5677556,2842.0,6059.0,4853.0,0.668,0.426,0.123,0.598
5677572,2846.0,6037.0,4833.0,0.668,0.426,0.123,0.598
5677598,2790.0,6119.0,4761.0,0.667,0.426,0.123,0.598
5677614,2684.0,5949.0,4929.0,0.668,0.426,0.124,0.598
5677630,2800.0,5891.0,4959.0,0.667,0.427,0.124,0.598
5677646,2772.0,6253.0,4807.0,0.668,0.427,0.124,0.597
5677662,2704.0,6127.0,4947.0,0.668,0.427,0.124,0.597
5677678,2754.0,5877.0,5103.0,0.668,0.427,0.124,0.597
5677704,2704.0,5893.0,5001.0,0.669,0.427,0.124,0.596
5677720,2712.0,5813.0,5011.0,0.669,0.427,0.123,0.596
5677737,2760.0,5761.0,5017.0,0.669,0.426,0.123,0.596
5677753,2834.0,5803.0,5005.0,0.669,0.426,0.123,0.596
5677769,2864.0,5777.0,4943.0,0.669,0.426,0.123,0.597
5677785,2908.0,5849.0,4979.0,0.669,0.426,0.123,0.597
5677801,2908.0,5887.0,4991.0,0.669,0.425,0.123,0.597
5677827,2800.0,5855.0,4857.0,0.668,0.425,0.123,0.598
5677843,2794.0,5959.0,4805.0,0.668,0.426,0.123,0.598
5677859,2786.0,6047.0,4769.0,0.667,0.426,0.123,0.598
5677875,2748.0,6045.0,4757.0,0.667,0.426,0.124,0.599
5677892,2756.0,6097.0,4771.0,0.667,0.426,0.124,0.599
5677908,2764.0,6255.0,4705.0,0.667,0.426,0.124,0.599
5677934,2756.0,5975.0,4935.0,0.667,0.427,0.124,0.598
5677950,2788.0,5979.0,4895.0,0.667,0.427,0.124,0.598
5677966,2684.0,6161.0,4843.0,0.667,0.427,0.124,0.598
5677982,2726.0,5851.0,5051.0,0.667,0.427,0.124,0.598
5677998,2676.0,5859.0,5085.0,0.668,0.427,0.124,0.597
5678014,2740.0,5969.0,4957.0,0.668,0.427,0.124,0.597
5678040,2764.0,5889.0,4985.0,0.668,0.426,0.124,0.597
5678056,2846.0,5793.0,5051.0,0.668,0.426,0.123,0.597
5678073,2882.0,5851.0,4963.0,0.668,0.426,0.123,0.598
5678090,2858.0,5887.0,4907.0,0.668,0.426,0.123,0.598
5678106,2858.0,5911.0,4903.0,0.668,0.426,0.123,0.598
5678123,2788.0,5933.0,4839.0,0.667,0.426,0.124,0.598
5678139,2808.0,5999.0,4785.0,0.667,0.426,0.124,0.599
5678155,2814.0,6083.0,4723.0,0.667,0.426,0.124,0.599
5678181,2770.0,6121.0,4777.0,0.667,0.426,0.124,0.599
5678197,2816.0,6005.0,4761.0,0.666,0.426,0.124,0.599
5678213,2710.0,6219.0,4767.0,0.666,0.427,0.124,0.599
5678229,2756.0,5919.0,5013.0,0.667,0.427,0.124,0.599
5678245,2792.0,5983.0,4945.0,0.667,0.427,0.124,0.598
5678261,2700.0,6087.0,4951.0,0.667,0.427,0.124,0.598
5678287,2720.0,5743.0,5129.0,0.667,0.427,0.124,0.598
5678303,2792.0,5851.0,5089.0,0.667,0.427,0.124,0.598
5678319,2810.0,5925.0,4963.0,0.667,0.426,0.123,0.598
5678336,2858.0,5851.0,5015.0,0.668,0.426,0.123,0.598
5678352,2930.0,5847.0,4989.0,0.667,0.426,0.123,0.598
5678372,2884.0,5879.0,4895.0,0.667,0.426,0.123,0.599
5678388,2854.0,5913.0,4829.0,0.667,0.426,0.123,0.599
5678404,2784.0,5939.0,4819.0,0.667,0.426,0.123,0.599
5678420,2780.0,6033.0,4829.0,0.666,0.426,0.123,0.599
5678447,2880.0,6047.0,4773.0,0.666,0.426,0.123,0.6
5678463,2722.0,6249.0,4771.0,0.666,0.426,0.123,0.6
5678479,2786.0,5947.0,4985.0,0.666,0.426,0.123,0.599
5678495,2820.0,6001.0,4943.0,0.666,0.426,0.123,0.599
5678511,2732.0,6081.0,4961.0,0.667,0.426,0.123,0.599
5678527,2770.0,5835.0,5073.0,0.667,0.426,0.123,0.599
5678553,2752.0,5815.0,4993.0,0.667,0.426,0.123,0.599
5678569,2790.0,5799.0,4903.0,0.667,0.426,0.123,0.599
5678585,2822.0,5757.0,4991.0,0.667,0.426,0.123,0.599
5678601,2914.0,5807.0,4977.0,0.668,0.425,0.122,0.599
5678617,2864.0,5839.0,4881.0,0.667,0.425,0.122,0.599
5678633,2788.0,5877.0,4843.0,0.667,0.425,0.122,0.599
5678659,2838.0,5961.0,4891.0,0.667,0.425,0.121,0.6
5678675,2856.0,5945.0,4839.0,0.667,0.425,0.121,0.6
5678691,2886.0,6049.0,4791.0,0.667,0.425,0.121,0.6
5678707,2840.0,6087.0,4927.0,0.667,0.425,0.121,0.6
5678723,2864.0,5945.0,4973.0,0.667,0.425,0.121,0.6
5678739,2788.0,6211.0,4867.0,0.667,0.425,0.121,0.6
5678765,2778.0,5969.0,4981.0,0.667,0.425,0.121,0.599
5678781,2778.0,5829.0,5015.0,0.667,0.425,0.121,0.599
5678797,2748.0,5851.0,5057.0,0.668,0.425,0.121,0.599
5678814,2764.0,5779.0,5059.0,0.668,0.425,0.121,0.599
5678830,2838.0,5805.0,5015.0,0.668,0.425,0.121,0.598
5678846,2888.0,5773.0,5087.0,0.668,0.425,0.121,0.598
5678872,2904.0,5811.0,5117.0,0.668,0.425,0.121,0.599
5678888,2950.0,5833.0,5029.0,0.668,0.425,0.122,0.599
5678905,2900.0,5845.0,4947.0,0.668,0.425,0.122,0.599
5678922,2902.0,5853.0,4905.0,0.667,0.425,0.122,0.6
5678939,2824.0,5937.0,4843.0,0.667,0.425,0.122,0.6
5678955,2780.0,6009.0,4827.0,0.666,0.426,0.123,0.6
5678971,2794.0,6131.0,4791.0,0.666,0.426,0.123,0.6
5678987,2760.0,6129.0,4677.0,0.665,0.426,0.124,0.6
5679013,2756.0,6015.0,4899.0,0.665,0.427,0.124,0.6
5679029,2802.0,5971.0,4867.0,0.665,0.427,0.125,0.6
5679045,2818.0,6275.0,4791.0,0.665,0.427,0.125,0.6
5679062,2742.0,5889.0,4949.0,0.665,0.427,0.125,0.599
5679078,2766.0,5921.0,4949.0,0.666,0.427,0.125,0.599
5679094,2742.0,6031.0,4905.0,0.666,0.427,0.125,0.599
5679111,2736.0,5827.0,4929.0,0.666,0.427,0.125,0.599
5679137,2818.0,5891.0,5015.0,0.666,0.427,0.124,0.599
5679153,2850.0,5897.0,4985.0,0.666,0.427,0.124,0.599
5679169,2892.0,5943.0,4977.0,0.666,0.426,0.124,0.599
5679185,2936.0,5911.0,5001.0,0.666,0.426,0.124,0.599
5679201,2836.0,5819.0,4953.0,0.666,0.426,0.124,0.599
5679217,2840.0,5901.0,4945.0,0.666,0.426,0.124,0.6
5679243,2820.0,5943.0,4861.0,0.666,0.426,0.124,0.6
5679259,2758.0,5945.0,4803.0,0.666,0.426,0.125,0.6
5679275,2774.0,6031.0,4809.0,0.665,0.426,0.125,0.6
5679291,2780.0,6057.0,4835.0,0.665,0.426,0.125,0.6
5679308,2786.0,6053.0,4781.0,0.665,0.427,0.125,0.6
5679324,2770.0,6045.0,4819.0,0.665,0.427,0.125,0.6
5679350,2762.0,6089.0,4741.0,0.665,0.427,0.125,0.6
5679366,2758.0,5987.0,4967.0,0.665,0.427,0.125,0.6
5679382,2866.0,5967.0,4923.0,0.665,0.426,0.125,0.6
5679398,2810.0,6085.0,4963.0,0.666,0.426,0.124,0.6
5679414,2784.0,5835.0,4997.0,0.666,0.426,0.124,0.6
5679430,2810.0,5925.0,4957.0,0.666,0.426,0.124,0.599
5679447,2832.0,5981.0,4933.0,0.666,0.426,0.124,0.599
5679474,2848.0,5897.0,4913.0,0.667,0.426,0.124,0.599
5679490,2866.0,5903.0,4945.0,0.667,0.426,0.124,0.599
5679506,2860.0,5969.0,5015.0,0.667,0.426,0.124,0.599
5679522,2822.0,5919.0,5003.0,0.667,0.426,0.124,0.599
5679538,2794.0,5911.0,4933.0,0.667,0.426,0.124,0.599
5679555,2798.0,5885.0,4917.0,0.667,0.426,0.124,0.599
5679571,2784.0,5895.0,4969.0,0.667,0.426,0.124,0.599
5679598,2834.0,5961.0,4941.0,0.667,0.426,0.124,0.599
5679614,2762.0,5989.0,4919.0,0.667,0.426,0.124,0.599
5679630,2830.0,5955.0,4953.0,0.667,0.426,0.124,0.599
5679646,2764.0,5945.0,4949.0,0.666,0.426,0.124,0.599
5679662,2780.0,5913.0,4949.0,0.666,0.426,0.124,0.599
5679678,2756.0,5889.0,4895.0,0.666,0.426,0.124,0.599
5679704,2806.0,5981.0,4933.0,0.666,0.426,0.125,0.6
5679720,2802.0,5971.0,4901.0,0.666,0.426,0.125,0.6
5679736,2798.0,5913.0,4893.0,0.666,0.426,0.125,0.6
5679752,2810.0,5997.0,4907.0,0.666,0.426,0.125,0.6
5679768,2790.0,5955.0,4839.0,0.666,0.426,0.125,0.6
5679784,2774.0,5927.0,4875.0,0.666,0.426,0.125,0.6
5679810,2776.0,5973.0,4939.0,0.666,0.426,0.125,0.6
5679827,2780.0,5977.0,4917.0,0.666,0.426,0.125,0.6
5679843,2770.0,6019.0,4913.0,0.666,0.426,0.125,0.6
5679859,2812.0,6005.0,4949.0,0.666,0.426,0.125,0.6
5679875,2796.0,5969.0,4971.0,0.666,0.426,0.125,0.6
5679891,2824.0,5885.0,4903.0,0.666,0.426,0.125,0.6
5679907,2746.0,5919.0,4881.0,0.666,0.426,0.125,0.6
5679933,2760.0,5865.0,4869.0,0.666,0.426,0.125,0.6
5679949,2802.0,5975.0,4923.0,0.666,0.426,0.125,0.6
5679967,2790.0,5951.0,4893.0,0.666,0.426,0.125,0.6
5679983,2794.0,5961.0,4895.0,0.666,0.426,0.125,0.6
5679999,2792.0,5993.0,4933.0,0.666,0.426,0.125,0.6
5680015,2814.0,5935.0,4941.0,0.666,0.426,0.125,0.6
5680032,2730.0,5913.0,4905.0,0.666,0.426,0.125,0.6
5680058,2780.0,5943.0,4889.0,0.666,0.426,0.125,0.6
5680074,2786.0,5923.0,4905.0,0.666,0.426,0.125,0.6
5680091,2806.0,5981.0,4875.0,0.666,0.426,0.125,0.6
5680107,2808.0,5981.0,4929.0,0.666,0.426,0.125,0.6
5680124,2784.0,5941.0,4923.0,0.666,0.426,0.125,0.6
5680141,2772.0,5915.0,4935.0,0.666,0.426,0.125,0.6
5680157,2840.0,5943.0,4885.0,0.666,0.426,0.125,0.6
5680173,2812.0,5963.0,4909.0,0.666,0.426,0.125,0.6
5680199,2758.0,5901.0,4903.0,0.666,0.426,0.125,0.6
5680216,2812.0,5971.0,4925.0,0.666,0.426,0.125,0.6
5680232,2788.0,5961.0,4921.0,0.666,0.426,0.125,0.6
5680248,2786.0,5945.0,4877.0,0.666,0.426,0.125,0.6
5680264,2744.0,5965.0,4891.0,0.666,0.426,0.125,0.6
5680280,2730.0,5901.0,4873.0,0.666,0.426,0.125,0.6
5680306,2792.0,5995.0,4887.0,0.666,0.426,0.126,0.6
5680322,2710.0,5967.0,4861.0,0.666,0.426,0.126,0.6
5680339,2730.0,5997.0,4877.0,0.666,0.426,0.126,0.6
5680355,2646.0,5809.0,4927.0,0.665,0.426,0.126,0.6
5680375,2804.0,5991.0,4919.0,0.665,0.426,0.126,0.6
5680391,2898.0,5963.0,4963.0,0.665,0.426,0.126,0.6
5680407,2858.0,5953.0,5021.0,0.665,0.427,0.127,0.6
5680423,2828.0,6043.0,4887.0,0.665,0.427,0.127,0.599
5680440,2854.0,6089.0,4777.0,0.665,0.428,0.127,0.599
5680456,2792.0,5933.0,4881.0,0.664,0.428,0.127,0.6
5680482,2732.0,6017.0,4883.0,0.664,0.427,0.128,0.6
5680498,2734.0,6035.0,4957.0,0.664,0.427,0.127,0.6
5680514,2788.0,5973.0,4941.0,0.664,0.427,0.127,0.6
5680530,2792.0,6005.0,4929.0,0.664,0.427,0.127,0.6
5680546,2826.0,6017.0,4907.0,0.664,0.427,0.127,0.6
5680562,2836.0,5985.0,4923.0,0.664,0.426,0.127,0.601
5680589,2828.0,5901.0,4897.0,0.664,0.426,0.127,0.601
5680605,2820.0,5967.0,4863.0,0.664,0.426,0.127,0.601
5680623,2788.0,5887.0,4887.0,0.664,0.426,0.127,0.601
5680639,2776.0,5887.0,4935.0,0.664,0.426,0.127,0.602
5680655,2814.0,6043.0,4863.0,0.664,0.426,0.127,0.602
5680671,2708.0,6091.0,4839.0,0.664,0.426,0.127,0.602
5680687,2736.0,6081.0,4889.0,0.663,0.426,0.127,0.602
5680713,2706.0,6107.0,4845.0,0.663,0.426,0.127,0.602
5680730,2726.0,6015.0,4791.0,0.664,0.426,0.127,0.602
5680747,2768.0,5939.0,4869.0,0.664,0.426,0.127,0.602
5680763,2766.0,6015.0,4893.0,0.664,0.426,0.127,0.602
5680779,2818.0,6007.0,4895.0,0.664,0.425,0.127,0.601
5680795,2846.0,5925.0,4917.0,0.664,0.425,0.127,0.601
5680811,2842.0,6049.0,4905.0,0.665,0.425,0.127,0.601
5680837,2854.0,5947.0,5047.0,0.665,0.425,0.127,0.601
5680853,2906.0,6133.0,5157.0,0.665,0.425,0.127,0.601
5680869,2912.0,6141.0,5219.0,0.665,0.424,0.127,0.601
5680885,2848.0,5957.0,5119.0,0.666,0.424,0.127,0.601
5680901,2712.0,5897.0,4959.0,0.666,0.423,0.128,0.601
5680917,2594.0,5915.0,4837.0,0.666,0.422,0.129,0.601
5680943,2542.0,5895.0,4815.0,0.666,0.422,0.13,0.601
5680959,2580.0,5933.0,4765.0,0.667,0.422,0.131,0.601
5680975,2622.0,5949.0,4749.0,0.667,0.422,0.132,0.6
5680991,2692.0,6003.0,4861.0,0.667,0.422,0.133,0.599
5681007,2702.0,6075.0,4913.0,0.667,0.422,0.135,0.599
5681023,2718.0,5997.0,4933.0,0.667,0.422,0.135,0.598
5681049,2744.0,5975.0,5023.0,0.668,0.422,0.136,0.598
5681065,2720.0,6093.0,5011.0,0.668,0.422,0.136,0.598
5681081,2688.0,6037.0,4969.0,0.668,0.421,0.136,0.598
5681097,2652.0,6025.0,4933.0,0.668,0.42,0.135,0.599
5681113,2662.0,5915.0,4927.0,0.669,0.419,0.135,0.599
5681129,2536.0,5833.0,4895.0,0.669,0.419,0.134,0.599
5681155,2478.0,5675.0,4877.0,0.669,0.418,0.134,0.6
5681171,2350.0,5687.0,4785.0,0.669,0.419,0.133,0.6
5681187,2408.0,5749.0,4817.0,0.668,0.419,0.133,0.6
5681203,2442.0,5839.0,4807.0,0.668,0.42,0.132,0.6
5681219,2554.0,6013.0,4875.0,0.667,0.421,0.132,0.6
5681235,2658.0,6105.0,4915.0,0.667,0.422,0.132,0.6
5681261,2742.0,6105.0,4979.0,0.666,0.423,0.132,0.599
5681277,2772.0,6063.0,5063.0,0.666,0.424,0.132,0.599
5681294,2824.0,6015.0,5085.0,0.666,0.425,0.131,0.599
5681310,2850.0,5929.0,5019.0,0.666,0.425,0.131,0.599
5681326,2856.0,5969.0,5029.0,0.665,0.425,0.13,0.6
5681342,2764.0,6039.0,4979.0,0.665,0.425,0.129,0.6
5681368,2764.0,6025.0,4931.0,0.665,0.425,0.128,0.601
5681384,2802.0,6159.0,4885.0,0.665,0.425,0.128,0.601
5681400,2728.0,6197.0,4853.0,0.664,0.425,0.128,0.601
5681417,2748.0,6145.0,4877.0,0.665,0.425,0.127,0.601
5681433,2718.0,6039.0,4827.0,0.665,0.425,0.128,0.601
5681449,2720.0,5951.0,4847.0,0.665,0.425,0.128,0.601
5681465,2756.0,5813.0,4863.0,0.665,0.425,0.128,0.601
5681491,2730.0,5923.0,4919.0,0.665,0.426,0.129,0.6
5681507,2812.0,5915.0,4909.0,0.665,0.426,0.129,0.6
5681523,2834.0,5963.0,4917.0,0.665,0.426,0.129,0.6
5681539,2836.0,6029.0,4913.0,0.665,0.426,0.129,0.6
5681555,2746.0,6073.0,4887.0,0.664,0.426,0.129,0.6
5681571,2758.0,6047.0,4913.0,0.664,0.426,0.129,0.6
5681597,2746.0,5977.0,4839.0,0.664,0.426,0.129,0.6
5681613,2680.0,5991.0,4813.0,0.664,0.426,0.129,0.6
5681629,2756.0,5995.0,4855.0,0.665,0.426,0.129,0.6
5681645,2742.0,5943.0,4853.0,0.664,0.426,0.128,0.6
5681661,2794.0,5997.0,4851.0,0.665,0.426,0.128,0.6
5681677,2778.0,5977.0,4941.0,0.664,0.426,0.128,0.6
5681703,2786.0,5999.0,4927.0,0.664,0.426,0.128,0.601
5681720,2750.0,5921.0,4889.0,0.664,0.426,0.128,0.6
5681736,2752.0,5991.0,4947.0,0.664,0.426,0.128,0.601
5681752,2742.0,5945.0,4851.0,0.664,0.426,0.129,0.601
5681768,2714.0,5877.0,4861.0,0.664,0.426,0.129,0.601
5681784,2700.0,5955.0,4903.0,0.664,0.426,0.129,0.601
5681810,2768.0,6015.0,4917.0,0.664,0.426,0.129,0.601
5681826,2784.0,6049.0,5007.0,0.664,0.426,0.129,0.601
5681842,2834.0,6121.0,4963.0,0.664,0.426,0.129,0.601
5681858,2812.0,6043.0,4903.0,0.664,0.426,0.129,0.601
5681874,2802.0,6003.0,4931.0,0.664,0.426,0.129,0.601
5681890,2780.0,5983.0,4895.0,0.664,0.426,0.129,0.601
5681916,2790.0,5945.0,4861.0,0.664,0.426,0.129,0.601
5681932,2760.0,5947.0,4871.0,0.664,0.426,0.129,0.601
5681949,2794.0,5953.0,4843.0,0.664,0.426,0.129,0.601
5681965,2810.0,5983.0,4893.0,0.664,0.426,0.129,0.601
5681981,2766.0,5963.0,4877.0,0.664,0.426,0.129,0.601
5681997,2758.0,5971.0,4897.0,0.664,0.426,0.129,0.601
5682014,2792.0,6031.0,4885.0,0.664,0.426,0.129,0.601
5682040,2726.0,5983.0,4887.0,0.664,0.426,0.128,0.601
5682056,2802.0,5995.0,4959.0,0.664,0.426,0.128,0.601
5682072,2754.0,5987.0,4889.0,0.664,0.426,0.128,0.601
5682088,2782.0,5961.0,4867.0,0.664,0.426,0.128,0.601
5682104,2816.0,5949.0,4865.0,0.664,0.426,0.128,0.601
5682120,2792.0,5987.0,4965.0,0.664,0.426,0.128,0.601
5682146,2770.0,6003.0,4917.0,0.664,0.426,0.128,0.601
5682162,2816.0,5943.0,4913.0,0.664,0.426,0.128,0.601
5682178,2782.0,5983.0,4927.0,0.664,0.426,0.128,0.601
5682194,2804.0,5945.0,4957.0,0.664,0.426,0.128,0.601
5682210,2778.0,5921.0,4899.0,0.664,0.426,0.128,0.601
5682226,2776.0,5955.0,4939.0,0.664,0.426,0.128,0.601
5682252,2752.0,5961.0,4875.0,0.664,0.426,0.128,0.601
5682268,2738.0,6015.0,4887.0,0.664,0.426,0.128,0.601
5682284,2734.0,5973.0,4899.0,0.663,0.426,0.129,0.601
5682300,2804.0,5937.0,4941.0,0.663,0.426,0.129,0.602
5682316,2786.0,6009.0,4883.0,0.663,0.426,0.129,0.602
5682332,2766.0,6037.0,4873.0,0.663,0.426,0.129,0.602
5682358,2788.0,5949.0,4893.0,0.663,0.426,0.129,0.602
5682374,2796.0,6047.0,4893.0,0.663,0.426,0.129,0.602
5682391,2802.0,5995.0,4887.0,0.663,0.426,0.129,0.602
5682407,2824.0,5969.0,4859.0,0.663,0.426,0.129,0.602
5682424,2766.0,6017.0,4889.0,0.663,0.426,0.129,0.602
5682440,2794.0,5977.0,4907.0,0.663,0.426,0.129,0.602
5682456,2850.0,5879.0,4945.0,0.663,0.426,0.129,0.602
5682482,2796.0,6023.0,4919.0,0.663,0.426,0.129,0.602
5682498,2776.0,6021.0,4889.0,0.663,0.426,0.129,0.602
5682514,2794.0,5963.0,4895.0,0.663,0.426,0.129,0.602
5682530,2744.0,5929.0,4925.0,0.663,0.426,0.129,0.602
5682546,2732.0,5951.0,4871.0,0.663,0.426,0.129,0.602
5682562,2764.0,5951.0,4893.0,0.663,0.426,0.129,0.602
5682588,2784.0,5963.0,4863.0,0.663,0.426,0.129,0.602
5682604,2792.0,5961.0,4869.0,0.663,0.426,0.129,0.602
5682620,2792.0,5959.0,4885.0,0.663,0.426,0.129,0.602
5682636,2762.0,5963.0,4921.0,0.663,0.426,0.129,0.602
5682652,2728.0,5935.0,4895.0,0.663,0.426,0.129,0.602
5682678,2760.0,6011.0,4865.0,0.663,0.426,0.129,0.602
5682694,2776.0,5981.0,4865.0,0.663,0.426,0.129,0.602
5682710,2768.0,5977.0,4951.0,0.663,0.426,0.129,0.602
5682727,2764.0,6019.0,4925.0,0.663,0.426,0.129,0.602
5682743,2758.0,5921.0,4935.0,0.663,0.426,0.129,0.602
5682759,2762.0,6015.0,4859.0,0.663,0.426,0.129,0.602
5682775,2750.0,5971.0,4897.0,0.663,0.426,0.129,0.602
5682801,2808.0,5971.0,4921.0,0.663,0.426,0.129,0.602
5682817,2786.0,5941.0,4887.0,0.663,0.426,0.129,0.602
5682833,2826.0,5999.0,4945.0,0.663,0.426,0.129,0.602
5682849,2782.0,5959.0,4889.0,0.663,0.426,0.129,0.602
5682865,2788.0,5983.0,4861.0,0.663,0.426,0.129,0.602
5682881,2756.0,6003.0,4889.0,0.663,0.426,0.129,0.602
5682907,2802.0,6003.0,4939.0,0.663,0.426,0.129,0.602
5682923,2750.0,5983.0,4861.0,0.663,0.426,0.129,0.602
5682939,2786.0,5979.0,4873.0,0.663,0.426,0.129,0.602
5682956,2772.0,5991.0,4823.0,0.663,0.426,0.129,0.602
5682972,2780.0,5919.0,4881.0,0.663,0.426,0.129,0.602
5682988,2774.0,5965.0,4903.0,0.663,0.426,0.129,0.602
5683014,2798.0,5983.0,4879.0,0.663,0.426,0.129,0.602
5683030,2784.0,5967.0,4907.0,0.663,0.426,0.129,0.602
5683046,2750.0,5989.0,4897.0,0.663,0.426,0.129,0.602
5683062,2730.0,6003.0,4883.0,0.663,0.426,0.129,0.602
5683078,2744.0,5981.0,4881.0,0.663,0.426,0.129,0.602
5683094,2754.0,5955.0,4889.0,0.663,0.426,0.129,0.602
5683120,2756.0,6059.0,4931.0,0.663,0.426,0.129,0.602
5683136,2712.0,5999.0,4881.0,0.663,0.426,0.13,0.602
5683152,2830.0,5995.0,4945.0,0.663,0.426,0.13,0.602
5683168,2790.0,5903.0,4887.0,0.663,0.426,0.13,0.602
5683184,2770.0,6043.0,4927.0,0.662,0.426,0.13,0.602
5683200,2780.0,6019.0,4793.0,0.662,0.426,0.13,0.603
5683226,2738.0,5999.0,4831.0,0.662,0.426,0.13,0.603
5683242,2790.0,5999.0,4819.0,0.662,0.426,0.13,0.603
5683258,2766.0,5993.0,4835.0,0.662,0.426,0.13,0.603
5683274,2776.0,5969.0,4853.0,0.662,0.426,0.13,0.603
5683290,2774.0,5965.0,4749.0,0.662,0.426,0.129,0.603
5683306,2726.0,6057.0,4855.0,0.663,0.425,0.129,0.603
5683332,2700.0,5965.0,4827.0,0.663,0.425,0.129,0.603
5683348,2778.0,6023.0,4897.0,0.663,0.425,0.128,0.603
5683364,2752.0,5993.0,4885.0,0.663,0.424,0.127,0.603
5683380,2816.0,5927.0,4925.0,0.664,0.424,0.127,0.603
5683396,2816.0,6015.0,4955.0,0.664,0.423,0.126,0.603
5683412,2714.0,5925.0,4883.0,0.665,0.422,0.125,0.604
5683438,2770.0,5931.0,4875.0,0.665,0.421,0.124,0.604
5683454,2768.0,5947.0,4923.0,0.666,0.421,0.123,0.604
5683470,2852.0,5927.0,4905.0,0.666,0.42,0.121,0.604
5683486,2760.0,5931.0,4871.0,0.667,0.419,0.12,0.604
5683502,2838.0,5943.0,4887.0,0.668,0.418,0.118,0.604
5683518,2858.0,5883.0,5047.0,0.669,0.418,0.116,0.604
5683544,2810.0,5867.0,5073.0,0.67,0.417,0.114,0.604
5683560,2688.0,5783.0,5025.0,0.67,0.416,0.112,0.604
5683576,2794.0,5811.0,5023.0,0.671,0.415,0.11,0.604
5683592,2884.0,5803.0,5143.0,0.672,0.414,0.108,0.604
5683608,2892.0,5717.0,5215.0,0.673,0.412,0.105,0.605
5683624,2900.0,5595.0,5171.0,0.674,0.411,0.102,0.605
5683650,2932.0,5695.0,5119.0,0.675,0.41,0.1,0.605
5683666,2932.0,5661.0,5097.0,0.676,0.408,0.096,0.605
5683682,2978.0,5551.0,5243.0,0.678,0.406,0.093,0.606
5683701,3040.0,5553.0,5295.0,0.679,0.405,0.09,0.606
5683717,2908.0,5485.0,5231.0,0.68,0.403,0.086,0.606
5683733,2908.0,5601.0,5267.0,0.681,0.402,0.082,0.607
5683749,3048.0,5591.0,5425.0,0.682,0.4,0.078,0.607
5683775,3088.0,5391.0,5437.0,0.684,0.398,0.073,0.607
5683791,3186.0,5229.0,5513.0,0.686,0.396,0.068,0.607
5683807,3160.0,5195.0,5511.0,0.687,0.394,0.063,0.607
5683823,3162.0,5123.0,5369.0,0.689,0.392,0.058,0.607
5683839,3100.0,5207.0,5281.0,0.691,0.39,0.053,0.607
5683856,3252.0,4925.0,5603.0,0.693,0.387,0.047,0.607
5683872,3214.0,4841.0,5715.0,0.695,0.384,0.04,0.607
5683898,3300.0,4673.0,5727.0,0.697,0.381,0.034,0.607
5683914,3290.0,4771.0,5785.0,0.698,0.379,0.028,0.607
5683930,3166.0,4965.0,5763.0,0.7,0.376,0.022,0.606
5683946,3166.0,4837.0,5761.0,0.703,0.373,0.015,0.606
5683962,2902.0,5089.0,5881.0,0.705,0.369,0.006,0.605
5683978,3334.0,4501.0,5925.0,0.708,0.364,-0.004,0.605
5684004,3482.0,4173.0,6065.0,0.711,0.359,-0.014,0.605
5684020,3604.0,3895.0,6179.0,0.714,0.354,-0.024,0.604
5684036,3784.0,3397.0,6275.0,0.716,0.35,-0.033,0.603
5684052,3864.0,3197.0,6427.0,0.718,0.347,-0.042,0.602
5684068,3518.0,3161.0,6291.0,0.72,0.344,-0.05,0.601
5684094,4068.0,2727.0,6407.0,0.721,0.342,-0.057,0.6
5684110,3870.0,3451.0,6349.0,0.722,0.34,-0.064,0.599
5684126,4102.0,3009.0,6375.0,0.723,0.338,-0.071,0.599
5684142,4070.0,3341.0,6555.0,0.724,0.337,-0.078,0.598
5684158,3952.0,3003.0,6267.0,0.724,0.335,-0.084,0.597
5684174,3650.0,3399.0,6629.0,0.725,0.334,-0.09,0.596
5684200,3702.0,3349.0,6677.0,0.725,0.333,-0.096,0.595
5684216,3686.0,3127.0,6437.0,0.725,0.333,-0.104,0.594
5684232,3970.0,2747.0,6551.0,0.725,0.333,-0.111,0.593
5684248,3956.0,2969.0,6541.0,0.724,0.333,-0.12,0.592
5684264,4120.0,2717.0,6851.0,0.724,0.334,-0.128,0.59
5684280,4118.0,2699.0,6909.0,0.723,0.337,-0.137,0.587
5684306,4428.0,2445.0,6831.0,0.722,0.341,-0.147,0.584
5684322,4810.0,2567.0,6261.0,0.72,0.346,-0.157,0.581
5684338,5018.0,2609.0,5881.0,0.718,0.352,-0.167,0.577
5684354,5550.0,2391.0,5543.0,0.716,0.357,-0.178,0.572
5684370,5720.0,2853.0,5481.0,0.715,0.363,-0.188,0.568
5684386,6012.0,2725.0,5199.0,0.713,0.368,-0.199,0.562
5684412,6442.0,2289.0,4697.0,0.712,0.373,-0.21,0.556
5684428,6706.0,2321.0,4359.0,0.712,0.378,-0.221,0.549
5684444,6968.0,2183.0,4307.0,0.711,0.383,-0.231,0.542
5684460,7260.0,1777.0,4627.0,0.711,0.388,-0.241,0.535
5684476,5442.0,555.0,6541.0,0.711,0.393,-0.248,0.528
5684492,10258.0,5471.0,3487.0,0.71,0.399,-0.256,0.521
5684509,7608.0,1475.0,3803.0,0.712,0.402,-0.262,0.513
5684535,7930.0,1419.0,4359.0,0.715,0.405,-0.265,0.505
5684551,7672.0,1677.0,3919.0,0.718,0.408,-0.266,0.497
5684567,7946.0,1647.0,3965.0,0.723,0.412,-0.265,0.488
5684583,7674.0,2199.0,3877.0,0.727,0.416,-0.262,0.48
5684599,7640.0,2337.0,3273.0,0.731,0.421,-0.257,0.472
5684625,6948.0,3043.0,3129.0,0.735,0.425,-0.251,0.465
5684641,6580.0,3129.0,3475.0,0.74,0.428,-0.245,0.458
5684657,6732.0,2775.0,3571.0,0.743,0.432,-0.238,0.452
5684674,6660.0,2433.0,3721.0,0.746,0.437,-0.229,0.447
5684690,6164.0,3271.0,3725.0,0.749,0.443,-0.219,0.442
5684706,5718.0,3821.0,3463.0,0.751,0.448,-0.207,0.438
5684732,5734.0,3875.0,3397.0,0.754,0.453,-0.195,0.434
5684748,5808.0,3443.0,3067.0,0.756,0.457,-0.181,0.432
5684764,5674.0,4213.0,3007.0,0.757,0.461,-0.167,0.432
5684780,4932.0,3839.0,3427.0,0.759,0.463,-0.152,0.432
5684796,5130.0,4057.0,3667.0,0.76,0.463,-0.138,0.434
5684812,5350.0,4019.0,4697.0,0.76,0.464,-0.123,0.438
5684828,4778.0,4163.0,4475.0,0.759,0.466,-0.107,0.443
5684854,5524.0,3323.0,4737.0,0.755,0.468,-0.091,0.45
5684871,4816.0,4465.0,4533.0,0.75,0.472,-0.074,0.458
5684888,5074.0,3327.0,4937.0,0.743,0.476,-0.057,0.467
5684905,4264.0,3893.0,4465.0,0.735,0.482,-0.039,0.476
5684922,4264.0,2649.0,4185.0,0.724,0.491,-0.021,0.484
5684938,4308.0,2495.0,3815.0,0.711,0.501,-0.003,0.493
5684955,4470.0,1825.0,3245.0,0.696,0.514,0.015,0.5
5684971,4584.0,2907.0,2019.0,0.678,0.53,0.034,0.508
5684987,5118.0,2683.0,1693.0,0.659,0.544,0.051,0.516
5685014,5330.0,2695.0,1175.0,0.639,0.559,0.068,0.523
5685030,5764.0,4321.0,429.0,0.618,0.574,0.084,0.531
5685046,5754.0,4733.0,149.0,0.595,0.586,0.099,0.541
5685062,6282.0,4999.0,17.0,0.571,0.598,0.114,0.551
5685078,6292.0,6315.0,-633.0,0.546,0.609,0.129,0.561
5685094,6670.0,5941.0,-835.0,0.519,0.619,0.144,0.571
5685120,6682.0,5835.0,-1139.0,0.493,0.628,0.158,0.582
5685136,6498.0,5551.0,-1627.0,0.467,0.635,0.171,0.592
5685152,6362.0,6269.0,-1729.0,0.441,0.64,0.183,0.602
5685168,6324.0,6263.0,-1771.0,0.416,0.644,0.194,0.612
5685185,6118.0,6117.0,-1873.0,0.392,0.648,0.203,0.621
5685201,5904.0,6377.0,-1943.0,0.368,0.652,0.21,0.629
5685217,6130.0,6511.0,-2373.0,0.344,0.655,0.216,0.637
5685243,6300.0,6783.0,-2413.0,0.322,0.658,0.221,0.644
5685259,6378.0,6803.0,-2421.0,0.301,0.661,0.223,0.65
5685275,6254.0,6301.0,-2531.0,0.282,0.663,0.225,0.656
5685291,6378.0,6371.0,-2445.0,0.263,0.666,0.226,0.661
5685307,6614.0,6853.0,-2649.0,0.246,0.668,0.225,0.665
5685333,6522.0,6261.0,-2151.0,0.23,0.671,0.223,0.668
5685349,6496.0,6247.0,-1793.0,0.215,0.674,0.221,0.671
5685365,6144.0,5155.0,-2567.0,0.201,0.677,0.218,0.673
5685381,6348.0,6021.0,-2163.0,0.189,0.68,0.214,0.675
5685397,6594.0,5567.0,-1991.0,0.178,0.684,0.21,0.676
5685413,6792.0,5687.0,-1999.0,0.167,0.686,0.205,0.677
5685439,6756.0,5543.0,-1807.0,0.158,0.689,0.199,0.679
5685455,6982.0,5435.0,-1741.0,0.148,0.691,0.194,0.68
5685472,6826.0,5183.0,-1535.0,0.14,0.693,0.188,0.682
5685489,6742.0,5171.0,-1449.0,0.133,0.694,0.183,0.683
5685505,6584.0,5575.0,-1337.0,0.127,0.696,0.177,0.684
5685522,6596.0,4923.0,-1071.0,0.121,0.698,0.172,0.685
5685538,6836.0,4899.0,-1021.0,0.116,0.7,0.166,0.685
5685554,6784.0,4905.0,-991.0,0.112,0.702,0.159,0.685
5685571,7052.0,4847.0,-727.0,0.108,0.704,0.152,0.685
5685597,7364.0,4867.0,-917.0,0.104,0.707,0.145,0.685
5685613,7666.0,4845.0,-491.0,0.1,0.709,0.137,0.684
5685629,7734.0,4567.0,-559.0,0.096,0.712,0.128,0.684
5685645,7824.0,4945.0,-509.0,0.093,0.715,0.12,0.683
5685661,7610.0,4725.0,-501.0,0.091,0.718,0.11,0.681
5685687,7786.0,3961.0,-349.0,0.09,0.721,0.1,0.68
5685703,7812.0,3847.0,-379.0,0.089,0.724,0.09,0.679
5685720,7704.0,3933.0,-305.0,0.09,0.726,0.079,0.677
5685736,7778.0,3479.0,-207.0,0.09,0.728,0.068,0.676
5685752,7842.0,3363.0,-387.0,0.091,0.729,0.057,0.676
5685768,7922.0,3063.0,-351.0,0.092,0.73,0.046,0.675
5685794,7866.0,2967.0,-223.0,0.094,0.731,0.035,0.675
5685810,7922.0,2749.0,-35.0,0.096,0.731,0.022,0.675
5685826,8196.0,2407.0,-211.0,0.099,0.731,0.01,0.675
5685842,8344.0,2203.0,-73.0,0.102,0.731,-0.003,0.675
5685858,8442.0,2241.0,-55.0,0.106,0.73,-0.015,0.675
5685874,8526.0,1995.0,197.0,0.11,0.729,-0.027,0.675
5685890,8526.0,1775.0,209.0,0.114,0.728,-0.039,0.675
5685916,8042.0,2125.0,-297.0,0.119,0.727,-0.05,0.675
5685933,8778.0,1251.0,103.0,0.125,0.726,-0.061,0.674
5685949,8720.0,1511.0,137.0,0.131,0.725,-0.071,0.673
5685965,8746.0,1389.0,109.0,0.138,0.724,-0.08,0.671
5685981,8790.0,1245.0,-39.0,0.146,0.722,-0.088,0.67
5685997,8760.0,1237.0,-119.0,0.155,0.721,-0.096,0.669
5686023,8660.0,1217.0,7.0,0.164,0.718,-0.102,0.668
5686039,8626.0,1197.0,-29.0,0.174,0.716,-0.108,0.667
5686055,8584.0,1201.0,11.0,0.183,0.714,-0.113,0.667
5686071,8384.0,1095.0,-113.0,0.192,0.711,-0.117,0.666
5686087,8702.0,1221.0,41.0,0.201,0.708,-0.122,0.666
5686103,8708.0,927.0,-99.0,0.21,0.705,-0.125,0.666
5686120,8782.0,1079.0,-173.0,0.219,0.701,-0.128,0.666
5686146,8766.0,1005.0,-51.0,0.227,0.697,-0.131,0.667
5686162,8638.0,1113.0,49.0,0.235,0.694,-0.132,0.668
5686178,8442.0,1155.0,93.0,0.243,0.69,-0.134,0.668
5686194,8248.0,1061.0,105.0,0.25,0.687,-0.134,0.669
5686210,7998.0,1249.0,97.0,0.257,0.684,-0.134,0.669
5686236,7894.0,985.0,149.0,0.264,0.682,-0.134,0.669
5686252,7658.0,1219.0,65.0,0.271,0.68,-0.135,0.668
5686268,7818.0,1347.0,5.0,0.276,0.678,-0.135,0.667
5686284,7736.0,1483.0,1.0,0.282,0.677,-0.136,0.666
5686300,7668.0,1553.0,-105.0,0.286,0.676,-0.137,0.666
5686316,7692.0,1545.0,-121.0,0.289,0.674,-0.138,0.665
5686332,7548.0,1485.0,-151.0,0.292,0.673,-0.14,0.665
5686359,7674.0,1661.0,-79.0,0.294,0.672,-0.142,0.664
5686375,7692.0,1491.0,-185.0,0.296,0.671,-0.145,0.664
5686391,7632.0,1523.0,-133.0,0.297,0.67,-0.148,0.664
5686407,7758.0,1695.0,-113.0,0.298,0.669,-0.15,0.664
5686423,8000.0,1723.0,-217.0,0.298,0.668,-0.153,0.664
5686439,8104.0,1561.0,-249.0,0.299,0.668,-0.157,0.664
5686465,8234.0,1453.0,-255.0,0.299,0.666,-0.16,0.664
5686481,8270.0,1395.0,-325.0,0.299,0.665,-0.163,0.664
5686497,8194.0,1401.0,-255.0,0.299,0.664,-0.166,0.665
5686513,8146.0,1393.0,-241.0,0.299,0.663,-0.168,0.665
5686529,8250.0,1327.0,-265.0,0.3,0.662,-0.17,0.666
5686545,8248.0,1293.0,-233.0,0.3,0.661,-0.172,0.666
5686571,8150.0,1193.0,-215.0,0.301,0.66,-0.174,0.666
5686588,8126.0,1183.0,-151.0,0.302,0.659,-0.175,0.666
5686604,8192.0,1165.0,-207.0,0.303,0.659,-0.176,0.665
5686621,8188.0,1095.0,-259.0,0.304,0.659,-0.176,0.665
5686638,8228.0,1227.0,-281.0,0.304,0.66,-0.176,0.664
5686655,8122.0,1295.0,-149.0,0.305,0.66,-0.176,0.663
5686671,8046.0,1203.0,-177.0,0.306,0.661,-0.176,0.662
5686687,7972.0,1315.0,-269.0,0.306,0.663,-0.176,0.66
5686704,8008.0,1319.0,-307.0,0.308,0.664,-0.176,0.658
5686731,8038.0,1353.0,-299.0,0.309,0.666,-0.176,0.656
5686748,8114.0,1497.0,-403.0,0.31,0.669,-0.176,0.653
5686765,8084.0,1403.0,-347.0,0.312,0.671,-0.176,0.649
5686781,7998.0,1333.0,-345.0,0.314,0.673,-0.177,0.646
5686797,8034.0,1401.0,-409.0,0.315,0.676,-0.177,0.642
5686813,8956.0,-6251.0,1146.0,0.318,0.673,-0.183,0.642
5686829,7298.0,-3855.0,880.0,0.312,0.676,-0.182,0.643
5686855,7554.0,3893.0,-450.0,0.305,0.679,-0.178,0.643
5686872,7188.0,3731.0,-90.0,0.302,0.682,-0.18,0.642
5686888,7292.0,-3.0,-24.0,0.299,0.684,-0.183,0.64
5686904,7520.0,1003.0,-296.0,0.294,0.688,-0.185,0.638
5686921,7666.0,1795.0,-392.0,0.289,0.691,-0.187,0.636
5686938,7680.0,1415.0,-352.0,0.285,0.694,-0.191,0.633
5686955,7652.0,1389.0,-484.0,0.281,0.696,-0.194,0.631
5686971,7676.0,1471.0,-604.0,0.278,0.698,-0.197,0.63
5686987,7622.0,1355.0,-646.0,0.276,0.699,-0.2,0.629
5687005,7546.0,1235.0,-516.0,0.274,0.7,-0.202,0.628
5687031,7712.0,1395.0,-446.0,0.273,0.7,-0.204,0.628
5687048,7840.0,1457.0,-448.0,0.273,0.7,-0.205,0.627
5687064,8128.0,1233.0,-464.0,0.273,0.699,-0.206,0.628
5687080,8254.0,1169.0,-442.0,0.274,0.698,-0.207,0.628
5687096,8354.0,1299.0,-324.0,0.276,0.697,-0.207,0.628
5687112,8420.0,1353.0,-240.0,0.278,0.697,-0.206,0.629
5687138,8572.0,1445.0,-218.0,0.28,0.696,-0.206,0.628
5687154,8568.0,1301.0,-218.0,0.283,0.695,-0.206,0.628
5687171,8592.0,1303.0,-174.0,0.285,0.695,-0.206,0.627
5687187,8520.0,1393.0,-154.0,0.288,0.695,-0.206,0.626
5687203,8434.0,1349.0,-158.0,0.291,0.695,-0.205,0.625
5687220,8350.0,1365.0,-164.0,0.295,0.695,-0.205,0.623
5687238,8180.0,1387.0,-160.0,0.298,0.695,-0.205,0.621
5687254,8070.0,1469.0,-160.0,0.301,0.696,-0.205,0.619
5687280,8044.0,1467.0,-190.0,0.305,0.696,-0.205,0.617
5687296,7930.0,1433.0,-246.0,0.308,0.696,-0.205,0.615
5687313,7872.0,1373.0,-244.0,0.311,0.697,-0.206,0.613
5687330,7794.0,1475.0,-204.0,0.314,0.697,-0.206,0.611
5687346,7872.0,1469.0,-160.0,0.317,0.697,-0.207,0.61
5687362,7910.0,1565.0,-224.0,0.319,0.696,-0.207,0.609
5687378,8000.0,1439.0,-250.0,0.321,0.696,-0.208,0.608
5687394,8156.0,1533.0,-294.0,0.323,0.695,-0.209,0.607
5687420,8230.0,1555.0,-294.0,0.324,0.695,-0.21,0.607
5687437,8276.0,1485.0,-296.0,0.325,0.694,-0.211,0.607
5687454,8360.0,1653.0,-246.0,0.327,0.693,-0.212,0.607
5687471,8418.0,1631.0,-186.0,0.327,0.692,-0.213,0.607
5687488,8438.0,1633.0,-238.0,0.328,0.691,-0.214,0.608
5687504,8422.0,1593.0,-222.0,0.329,0.689,-0.215,0.608
5687520,8478.0,1451.0,-208.0,0.33,0.688,-0.216,0.609
5687537,8388.0,1431.0,-154.0,0.33,0.687,-0.217,0.609
5687554,8624.0,1129.0,448.0,0.33,0.686,-0.217,0.61
5687571,8140.0,1075.0,-162.0,0.33,0.685,-0.217,0.612
5687598,8176.0,1147.0,-2.0,0.329,0.685,-0.217,0.613
5687616,8090.0,1497.0,-152.0,0.329,0.684,-0.217,0.614
5687633,7936.0,1561.0,-150.0,0.328,0.683,-0.216,0.615
5687649,7960.0,2055.0,-210.0,0.328,0.683,-0.216,0.616
5687665,7878.0,1277.0,-204.0,0.328,0.682,-0.217,0.617
5687681,7774.0,1139.0,-222.0,0.328,0.681,-0.217,0.618
5687697,7782.0,1791.0,-324.0,0.328,0.68,-0.217,0.619
5687713,8174.0,1875.0,38.0,0.329,0.679,-0.218,0.619
5687740,7984.0,1273.0,-344.0,0.33,0.677,-0.219,0.62
5687756,8052.0,1649.0,-338.0,0.331,0.676,-0.219,0.621
5687772,8036.0,1857.0,-176.0,0.332,0.674,-0.22,0.622
5687788,8128.0,1511.0,-44.0,0.334,0.672,-0.221,0.623
5687804,8070.0,1153.0,-100.0,0.335,0.67,-0.221,0.625
5687821,8112.0,1287.0,10.0,0.335,0.669,-0.222,0.626
5687837,8070.0,1531.0,-130.0,0.335,0.667,-0.222,0.627
5687863,8278.0,1365.0,-38.0,0.335,0.666,-0.222,0.628
5687879,8148.0,1275.0,-126.0,0.335,0.665,-0.221,0.63
5687895,8102.0,1365.0,-106.0,0.335,0.664,-0.221,0.631
5687912,8140.0,1261.0,-134.0,0.335,0.664,-0.22,0.632
5687928,8158.0,1157.0,-54.0,0.334,0.663,-0.219,0.633
5687944,7976.0,1203.0,-128.0,0.333,0.663,-0.218,0.634
5687970,7898.0,1265.0,-228.0,0.331,0.663,-0.217,0.635
5687987,7904.0,1199.0,-160.0,0.33,0.663,-0.216,0.636
5688003,7860.0,1237.0,-176.0,0.329,0.663,-0.215,0.637
5688019,7866.0,1127.0,-24.0,0.327,0.663,-0.214,0.638
5688036,7960.0,1199.0,-154.0,0.326,0.664,-0.212,0.639
5688053,7854.0,1125.0,-134.0,0.324,0.664,-0.211,0.64
5688069,7892.0,1153.0,-80.0,0.321,0.665,-0.21,0.64
5688086,7948.0,1133.0,-154.0,0.319,0.666,-0.209,0.641
5688103,7938.0,1131.0,-188.0,0.317,0.667,-0.207,0.642
5688130,7960.0,1149.0,-148.0,0.314,0.668,-0.206,0.643
5688147,8019.0,1103.0,-141.0,0.311,0.669,-0.205,0.644
5688163,8066.0,1147.0,-194.0,0.309,0.669,-0.203,0.644
5688179,8180.0,1227.0,-197.0,0.306,0.67,-0.202,0.645
5688195,8228.0,1199.0,-145.0,0.304,0.671,-0.2,0.646
5688211,8222.0,1145.0,-191.0,0.301,0.672,-0.199,0.646
5688227,8188.0,1193.0,-197.0,0.299,0.673,-0.197,0.647
5688253,8252.0,1213.0,-167.0,0.297,0.674,-0.195,0.647
5688270,8168.0,1369.0,-237.0,0.295,0.676,-0.193,0.648
5688287,8190.0,1229.0,-129.0,0.293,0.677,-0.191,0.648
5688304,8090.0,1339.0,-199.0,0.292,0.678,-0.189,0.648
5688321,8037.0,1369.0,-157.0,0.291,0.679,-0.187,0.647
5688337,8008.0,1434.0,-116.0,0.29,0.68,-0.186,0.647
5688353,7930.0,1424.0,-54.0,0.289,0.682,-0.184,0.646
5688370,7840.0,1314.0,-74.0,0.289,0.683,-0.184,0.646
5688387,7876.0,1352.0,-118.0,0.288,0.684,-0.183,0.645
5688406,7904.0,1390.0,-174.0,0.287,0.685,-0.183,0.644
5688422,7904.0,1270.0,-92.0,0.287,0.686,-0.183,0.643
5688448,7954.0,1280.0,-80.0,0.286,0.687,-0.184,0.642
5688465,7988.0,1264.0,-208.0,0.286,0.688,-0.184,0.641
5688482,7890.0,1321.0,-169.0,0.286,0.689,-0.184,0.64
5688498,7951.0,1281.0,-132.0,0.286,0.689,-0.185,0.639
5688514,7952.0,1438.0,-145.0,0.286,0.69,-0.186,0.638
5688531,8056.0,1351.0,-178.0,0.287,0.69,-0.187,0.637
5688547,8138.0,1313.0,-156.0,0.287,0.691,-0.188,0.636
5688564,8134.0,1441.0,-198.0,0.288,0.691,-0.189,0.635
5688581,8144.0,1437.0,-178.0,0.289,0.691,-0.191,0.634
5688607,8074.0,1301.0,-180.0,0.291,0.691,-0.192,0.633
5688623,8148.0,1387.0,-246.0,0.292,0.692,-0.194,0.632
5688639,8130.0,1401.0,-198.0,0.293,0.692,-0.195,0.63
5688655,8196.0,1375.0,-170.0,0.295,0.692,-0.197,0.629
5688671,8184.0,1397.0,-168.0,0.297,0.691,-0.199,0.628
5688687,8128.0,1477.0,-180.0,0.299,0.691,-0.201,0.627
5688713,8094.0,1393.0,-134.0,0.3,0.691,-0.203,0.625
5688729,8098.0,1387.0,-138.0,0.302,0.691,-0.206,0.624
5688745,8170.0,1381.0,-180.0,0.305,0.69,-0.208,0.622
5688761,8026.0,1267.0,-114.0,0.307,0.69,-0.21,0.621
5688777,8130.0,1327.0,-84.0,0.309,0.69,-0.213,0.619
5688793,8148.0,1449.0,-222.0,0.311,0.689,-0.215,0.618
5688819,8166.0,1343.0,-266.0,0.313,0.689,-0.218,0.616
5688835,8166.0,1313.0,-196.0,0.315,0.689,-0.22,0.615
5688851,8260.0,1351.0,-282.0,0.317,0.688,-0.223,0.613
5688868,8248.0,1349.0,-396.0,0.319,0.688,-0.225,0.612
5688884,8174.0,1255.0,-438.0,0.321,0.687,-0.227,0.61
5688900,8078.0,1215.0,-368.0,0.323,0.687,-0.229,0.61
5688926,8134.0,1203.0,-404.0,0.325,0.686,-0.231,0.609
5688942,8060.0,1291.0,-388.0,0.327,0.685,-0.232,0.608
5688958,8018.0,1217.0,-354.0,0.33,0.684,-0.234,0.608
5688974,8018.0,1215.0,-396.0,0.332,0.682,-0.235,0.608
5688990,8018.0,1237.0,-280.0,0.334,0.681,-0.236,0.608
5689006,8000.0,1343.0,-256.0,0.335,0.68,-0.237,0.608
5689032,8026.0,1275.0,-190.0,0.337,0.679,-0.238,0.607
5689049,8058.0,1359.0,-260.0,0.339,0.678,-0.239,0.607
5689066,8084.0,1299.0,-252.0,0.34,0.677,-0.24,0.607
5689082,8136.0,1247.0,-256.0,0.341,0.676,-0.241,0.607
5689098,8110.0,1295.0,-304.0,0.342,0.675,-0.242,0.607
5689114,8174.0,1277.0,-250.0,0.343,0.674,-0.242,0.608
5689130,8162.0,1243.0,-286.0,0.344,0.673,-0.243,0.608
5689156,8098.0,1213.0,-294.0,0.345,0.673,-0.243,0.608
5689173,8114.0,1167.0,-388.0,0.345,0.672,-0.243,0.608
5689189,8158.0,1213.0,-306.0,0.346,0.671,-0.243,0.609
5689205,8078.0,1227.0,-252.0,0.346,0.671,-0.243,0.609
5689221,8072.0,1237.0,-264.0,0.347,0.671,-0.242,0.609
5689237,8018.0,1233.0,-280.0,0.347,0.67,-0.242,0.61
5689254,8044.0,1207.0,-278.0,0.347,0.67,-0.241,0.61
5689280,8052.0,1253.0,-274.0,0.347,0.67,-0.241,0.61
5689296,8022.0,1281.0,-260.0,0.347,0.67,-0.24,0.611
5689312,7996.0,1229.0,-280.0,0.346,0.67,-0.24,0.611
5689328,8000.0,1283.0,-340.0,0.346,0.67,-0.239,0.612
5689344,8060.0,1295.0,-312.0,0.345,0.671,-0.238,0.612
5689360,8102.0,1353.0,-296.0,0.344,0.671,-0.237,0.612
5689386,8096.0,1151.0,-330.0,0.344,0.671,-0.236,0.613
5689402,8156.0,1303.0,-310.0,0.343,0.671,-0.235,0.614
5689419,8258.0,1333.0,-288.0,0.342,0.671,-0.234,0.615
5689436,8202.0,1257.0,-336.0,0.34,0.672,-0.233,0.616
5689452,8132.0,1231.0,-224.0,0.339,0.672,-0.232,0.617
5689468,8254.0,1081.0,-178.0,0.337,0.672,-0.23,0.618
5689484,8342.0,1009.0,-202.0,0.334,0.673,-0.227,0.62
5689510,8418.0,1135.0,-202.0,0.332,0.674,-0.224,0.621
5689526,8406.0,969.0,-196.0,0.329,0.674,-0.221,0.624
5689542,8344.0,977.0,-186.0,0.325,0.675,-0.217,0.626
5689558,8324.0,899.0,-114.0,0.322,0.675,-0.212,0.629
5689574,8186.0,1167.0,-124.0,0.318,0.676,-0.207,0.632
5689590,8132.0,1183.0,-102.0,0.314,0.677,-0.201,0.635
5689616,8194.0,1187.0,-160.0,0.309,0.678,-0.195,0.638
5689633,8156.0,1029.0,-32.0,0.304,0.679,-0.188,0.641
5689650,8082.0,1237.0,60.0,0.298,0.681,-0.182,0.644
5689666,8400.0,1745.0,-130.0,0.292,0.683,-0.174,0.647
5689682,8692.0,2071.0,-680.0,0.286,0.685,-0.167,0.649
5689698,8670.0,773.0,-198.0,0.281,0.687,-0.16,0.651
5689714,8832.0,1523.0,-70.0,0.275,0.689,-0.151,0.653
5689740,8806.0,1431.0,-126.0,0.27,0.692,-0.141,0.654
5689756,8992.0,1831.0,-520.0,0.266,0.695,-0.13,0.655
5689772,8436.0,821.0,-470.0,0.263,0.699,-0.118,0.654
5689788,8750.0,1829.0,-494.0,0.26,0.704,-0.103,0.653
5689804,8602.0,1755.0,-476.0,0.257,0.709,-0.088,0.651
5689820,8410.0,2585.0,-356.0,0.255,0.714,-0.072,0.648
5689846,8062.0,2621.0,-630.0,0.253,0.72,-0.056,0.644
5689862,8080.0,2673.0,-628.0,0.251,0.725,-0.04,0.641
5689878,7936.0,3113.0,-710.0,0.249,0.729,-0.024,0.637
5689894,7764.0,3401.0,-744.0,0.247,0.734,-0.008,0.633
5689910,7336.0,2767.0,-1072.0,0.245,0.738,0.007,0.629
5689926,7012.0,4227.0,-1008.0,0.244,0.742,0.022,0.624
5689952,6852.0,4593.0,-1394.0,0.244,0.745,0.036,0.62
5689969,7028.0,5259.0,-2482.0,0.246,0.748,0.047,0.615
5689986,7188.0,10621.0,-2922.0,0.255,0.749,0.051,0.61
5690002,8764.0,-171.0,898.0,0.267,0.746,0.049,0.608
5690019,6316.0,935.0,1310.0,0.267,0.747,0.056,0.606
5690035,6698.0,2195.0,188.0,0.263,0.75,0.066,0.603
5690052,6692.0,5243.0,-1656.0,0.259,0.753,0.076,0.6
5690069,6792.0,6001.0,-1964.0,0.259,0.755,0.081,0.598
5690086,6824.0,5093.0,-1596.0,0.262,0.754,0.082,0.596
5690103,6980.0,2081.0,-322.0,0.265,0.754,0.084,0.595
5690120,7008.0,2985.0,-732.0,0.264,0.755,0.089,0.593
5690146,6954.0,4569.0,-1418.0,0.263,0.757,0.094,0.591
5690162,6954.0,4799.0,-1566.0,0.263,0.758,0.099,0.589
5690178,6786.0,4891.0,-1518.0,0.262,0.758,0.103,0.589
5690194,6568.0,5453.0,-1366.0,0.262,0.757,0.105,0.59
5690210,6816.0,4521.0,-710.0,0.263,0.755,0.105,0.591
5690236,6596.0,3661.0,-822.0,0.264,0.753,0.105,0.593
5690252,6548.0,3779.0,-820.0,0.264,0.752,0.105,0.595
5690269,6450.0,4015.0,-854.0,0.265,0.751,0.105,0.596
5690286,6552.0,4123.0,-1110.0,0.266,0.75,0.105,0.596
5690303,6532.0,4197.0,-1256.0,0.267,0.749,0.104,0.597
5690319,6472.0,4141.0,-970.0,0.268,0.748,0.101,0.598
5690336,6436.0,4049.0,-872.0,0.269,0.747,0.099,0.6
5690352,6202.0,3669.0,-966.0,0.272,0.746,0.095,0.601
5690369,6178.0,3557.0,-750.0,0.274,0.744,0.092,0.602
5690386,5944.0,3145.0,-594.0,0.277,0.743,0.089,0.603
5690412,5714.0,3283.0,-800.0,0.279,0.742,0.086,0.604
5690431,5252.0,3535.0,-748.0,0.281,0.741,0.082,0.605
5690447,5248.0,3473.0,-726.0,0.283,0.74,0.078,0.605
5690463,5206.0,3589.0,-774.0,0.286,0.739,0.074,0.605
5690479,5500.0,3537.0,-706.0,0.288,0.738,0.068,0.606
5690495,5664.0,3293.0,-796.0,0.29,0.738,0.063,0.607
5690512,5724.0,3205.0,-850.0,0.291,0.737,0.057,0.607
5690528,6136.0,3503.0,-722.0,0.292,0.736,0.051,0.609
5690554,6088.0,3331.0,-520.0,0.294,0.735,0.045,0.61
5690570,6406.0,3667.0,-606.0,0.295,0.733,0.038,0.611
5690586,6554.0,3283.0,-598.0,0.297,0.732,0.031,0.612
5690603,7048.0,3411.0,-678.0,0.298,0.73,0.024,0.614
5690619,7206.0,3787.0,-622.0,0.3,0.728,0.017,0.616
5690636,7502.0,3835.0,-652.0,0.302,0.726,0.01,0.618
5690653,7990.0,3387.0,-524.0,0.304,0.724,0.002,0.62
5690669,8290.0,3491.0,-490.0,0.305,0.721,-0.005,0.622
5690695,8508.0,3951.0,-370.0,0.307,0.719,-0.012,0.624
5690711,8518.0,3855.0,-342.0,0.308,0.716,-0.02,0.626
5690728,8592.0,3433.0,-322.0,0.31,0.714,-0.028,0.627
5690744,8378.0,3161.0,-290.0,0.311,0.712,-0.035,0.628
5690760,8364.0,3401.0,-284.0,0.312,0.711,-0.041,0.629
5690776,8108.0,3361.0,-268.0,0.313,0.709,-0.048,0.63
5690802,7830.0,3165.0,-238.0,0.314,0.708,-0.054,0.63
5690819,7886.0,2915.0,-202.0,0.315,0.707,-0.06,0.63
5690836,8042.0,2843.0,-338.0,0.316,0.706,-0.066,0.631
5690853,7920.0,2807.0,-426.0,0.316,0.705,-0.072,0.631
5690869,7708.0,2787.0,-256.0,0.317,0.704,-0.077,0.631
5690886,7548.0,2481.0,-154.0,0.318,0.702,-0.082,0.632
5690903,7536.0,2571.0,-164.0,0.318,0.701,-0.087,0.632
5690920,7452.0,2791.0,-162.0,0.319,0.7,-0.092,0.632
5690937,7510.0,2507.0,-106.0,0.32,0.699,-0.098,0.632
5690953,7802.0,2531.0,-232.0,0.32,0.699,-0.103,0.632
5690979,7812.0,2491.0,-214.0,0.319,0.698,-0.109,0.632
5690995,7704.0,2305.0,-62.0,0.319,0.697,-0.115,0.632
5691012,7554.0,2439.0,38.0,0.319,0.696,-0.121,0.631
5691028,7882.0,2165.0,-72.0,0.318,0.696,-0.128,0.631
5691044,8350.0,2317.0,-222.0,0.316,0.696,-0.134,0.631
5691060,8756.0,2427.0,-264.0,0.314,0.695,-0.14,0.631
5691076,8676.0,2453.0,-120.0,0.312,0.694,-0.145,0.632
5691102,8904.0,2403.0,-112.0,0.311,0.694,-0.151,0.632
5691119,9066.0,2235.0,-144.0,0.309,0.693,-0.157,0.633
5691136,9104.0,1981.0,-120.0,0.308,0.692,-0.162,0.633
5691153,9092.0,2239.0,-72.0,0.307,0.691,-0.166,0.632
5691170,8946.0,2165.0,24.0,0.307,0.691,-0.17,0.632
5691186,8916.0,1905.0,68.0,0.307,0.691,-0.175,0.631
5691202,8810.0,1757.0,-44.0,0.307,0.691,-0.179,0.629
5691218,8710.0,1697.0,-86.0,0.306,0.692,-0.182,0.628
5691235,8416.0,1725.0,-40.0,0.306,0.692,-0.186,0.627
5691262,8228.0,1755.0,-14.0,0.306,0.692,-0.189,0.626
5691278,8060.0,1545.0,-116.0,0.306,0.692,-0.192,0.625
5691294,7844.0,1475.0,-100.0,0.306,0.692,-0.195,0.624
5691311,7758.0,1659.0,-148.0,0.306,0.693,-0.197,0.623
5691328,7854.0,1749.0,-188.0,0.306,0.692,-0.2,0.622
5691344,7982.0,1647.0,-190.0,0.307,0.692,-0.203,0.621
5691360,7946.0,1601.0,-318.0,0.307,0.691,-0.206,0.621
5691386,8034.0,1485.0,-198.0,0.308,0.69,-0.208,0.621
5691402,8086.0,1555.0,-348.0,0.309,0.689,-0.211,0.621
5691419,8254.0,1539.0,-368.0,0.31,0.687,-0.213,0.622
5691436,8210.0,1483.0,-384.0,0.312,0.685,-0.215,0.622
5691452,8080.0,1507.0,-368.0,0.314,0.684,-0.218,0.622
5691469,7800.0,1405.0,-120.0,0.316,0.682,-0.22,0.621
5691486,7350.0,1301.0,-108.0,0.318,0.682,-0.223,0.62
5691503,7096.0,1179.0,-42.0,0.321,0.681,-0.226,0.618
5691520,6950.0,1047.0,-98.0,0.323,0.682,-0.229,0.616
5691537,7012.0,1079.0,-174.0,0.325,0.682,-0.231,0.613
5691563,6964.0,1375.0,-198.0,0.326,0.683,-0.234,0.61
5691580,6842.0,1287.0,-120.0,0.328,0.683,-0.238,0.608
5691596,6838.0,1261.0,-160.0,0.329,0.683,-0.241,0.605
5691612,7102.0,1191.0,-252.0,0.33,0.683,-0.244,0.603
5691628,7486.0,1361.0,-388.0,0.331,0.683,-0.248,0.602
5691644,7898.0,1591.0,-552.0,0.333,0.681,-0.251,0.601
5691660,7948.0,1567.0,-398.0,0.335,0.679,-0.255,0.601
5691686,8048.0,1413.0,-170.0,0.337,0.677,-0.258,0.601
5691702,7968.0,1301.0,-200.0,0.339,0.675,-0.261,0.601
5691719,8234.0,943.0,-28.0,0.342,0.673,-0.264,0.601
5691735,8232.0,917.0,38.0,0.345,0.671,-0.266,0.6
5691752,8474.0,985.0,-50.0,0.347,0.67,-0.267,0.599
5691769,8668.0,1231.0,-192.0,0.35,0.67,-0.267,0.598
5691786,8652.0,1045.0,-154.0,0.352,0.67,-0.267,0.597
5691803,8794.0,953.0,-68.0,0.355,0.669,-0.266,0.596
5691829,8586.0,1083.0,-144.0,0.357,0.67,-0.265,0.595
5691846,8452.0,877.0,-114.0,0.359,0.67,-0.263,0.594
5691863,8336.0,705.0,-350.0,0.36,0.672,-0.26,0.593
5691879,8062.0,977.0,-364.0,0.361,0.673,-0.256,0.593
5691895,7812.0,1367.0,-174.0,0.362,0.675,-0.251,0.592
5691911,7860.0,1295.0,-306.0,0.363,0.677,-0.247,0.591
5691927,7932.0,745.0,-328.0,0.364,0.679,-0.241,0.59
5691943,8212.0,941.0,-628.0,0.363,0.681,-0.235,0.59
5691970,7738.0,1041.0,-488.0,0.362,0.684,-0.228,0.59
5691986,7816.0,1273.0,-100.0,0.36,0.687,-0.22,0.591
5692002,6972.0,651.0,-1030.0,0.355,0.691,-0.211,0.594
5692018,8082.0,2153.0,-800.0,0.353,0.693,-0.204,0.594
5692035,8340.0,1269.0,-804.0,0.35,0.695,-0.198,0.596
5692052,8782.0,2759.0,-454.0,0.351,0.695,-0.195,0.596
5692069,8674.0,-1323.0,1036.0,0.344,0.697,-0.186,0.601
5692086,8802.0,2489.0,-102.0,0.34,0.7,-0.18,0.602
5692112,8364.0,801.0,-846.0,0.333,0.703,-0.173,0.604
5692128,8204.0,1817.0,-1390.0,0.327,0.706,-0.166,0.606
5692145,8598.0,1367.0,-1172.0,0.321,0.709,-0.16,0.607
5692161,8592.0,995.0,-574.0,0.314,0.712,-0.153,0.609
5692177,8556.0,43.0,198.0,0.304,0.715,-0.147,0.612
5692193,7352.0,637.0,-676.0,0.291,0.719,-0.139,0.616
5692219,7106.0,3963.0,-1558.0,0.277,0.722,-0.134,0.62
