timeMs,ax,ay,az,q0,q1,q2,q3
278381,-8166.0,1031.0,623.0,0.401,-0.528,0.462,0.589
278393,-8346.0,935.0,583.0,0.4,-0.529,0.463,0.589
278415,-8054.0,1057.0,609.0,0.4,-0.529,0.463,0.588
278427,-8316.0,963.0,551.0,0.4,-0.529,0.463,0.588
278449,-8536.0,841.0,635.0,0.399,-0.53,0.464,0.587
278461,-8490.0,783.0,797.0,0.399,-0.53,0.465,0.586
278483,-8508.0,797.0,709.0,0.398,-0.531,0.466,0.586
278495,-8662.0,739.0,663.0,0.398,-0.531,0.467,0.585
278517,-8628.0,757.0,713.0,0.397,-0.531,0.469,0.584
278529,-8688.0,853.0,573.0,0.395,-0.531,0.471,0.583
278551,-8498.0,1027.0,427.0,0.394,-0.53,0.474,0.582
278573,-8096.0,1193.0,285.0,0.392,-0.53,0.477,0.581
278585,-8030.0,1323.0,277.0,0.391,-0.529,0.479,0.581
278607,-7918.0,1471.0,131.0,0.39,-0.529,0.481,0.58
278619,-7960.0,1535.0,-73.0,0.388,-0.529,0.483,0.58
278641,-7790.0,1701.0,-107.0,0.387,-0.529,0.485,0.579
278653,-7726.0,1791.0,-153.0,0.385,-0.53,0.486,0.579
278670,-7634.0,1807.0,-145.0,0.383,-0.53,0.487,0.579
278692,-7446.0,1761.0,75.0,0.382,-0.531,0.487,0.579
278704,-7814.0,1605.0,103.0,0.381,-0.532,0.487,0.579
278726,-8144.0,1521.0,-123.0,0.38,-0.533,0.486,0.579
278738,-8036.0,1519.0,-129.0,0.379,-0.534,0.486,0.579
278760,-7990.0,1509.0,-185.0,0.379,-0.535,0.486,0.579
278782,-8416.0,1437.0,-109.0,0.378,-0.535,0.485,0.579
278794,-8310.0,1463.0,61.0,0.378,-0.536,0.484,0.58
278816,-8422.0,1315.0,271.0,0.377,-0.537,0.483,0.58
278828,-8048.0,1273.0,225.0,0.377,-0.537,0.482,0.58
278850,-8266.0,929.0,195.0,0.377,-0.538,0.482,0.58
278862,-8168.0,855.0,381.0,0.377,-0.538,0.481,0.58
278884,-8020.0,765.0,279.0,0.377,-0.539,0.481,0.58
278896,-8136.0,677.0,463.0,0.377,-0.539,0.481,0.58
278918,-7824.0,891.0,589.0,0.377,-0.539,0.481,0.58
278930,-7714.0,1143.0,503.0,0.377,-0.539,0.481,0.579
278952,-7896.0,1311.0,421.0,0.377,-0.54,0.481,0.578
278974,-8014.0,1387.0,189.0,0.378,-0.54,0.482,0.577
278986,-8188.0,1375.0,93.0,0.378,-0.541,0.482,0.576
279008,-8034.0,1365.0,-63.0,0.378,-0.542,0.483,0.575
279020,-7948.0,1357.0,-143.0,0.378,-0.543,0.483,0.574
279042,-8306.0,1221.0,-85.0,0.378,-0.544,0.483,0.572
279054,-8342.0,1149.0,-147.0,0.379,-0.545,0.483,0.572
279076,-8242.0,1287.0,-297.0,0.379,-0.545,0.483,0.571
279088,-8392.0,1233.0,-279.0,0.379,-0.546,0.483,0.57
279110,-8460.0,1287.0,-213.0,0.379,-0.546,0.483,0.57
279122,-8404.0,1267.0,-117.0,0.379,-0.547,0.483,0.569
279144,-8384.0,1241.0,-131.0,0.379,-0.547,0.483,0.569
279166,-8430.0,1193.0,-75.0,0.379,-0.547,0.483,0.569
279178,-8224.0,1213.0,-65.0,0.379,-0.547,0.483,0.569
279200,-8086.0,1175.0,-31.0,0.379,-0.547,0.483,0.569
279212,-8320.0,1123.0,-25.0,0.378,-0.547,0.483,0.57
279234,-8398.0,1113.0,-41.0,0.378,-0.547,0.483,0.57
279246,-8280.0,1017.0,1.0,0.378,-0.547,0.483,0.57
279268,-8232.0,1061.0,1.0,0.378,-0.547,0.483,0.57
279280,-8116.0,967.0,125.0,0.377,-0.547,0.483,0.57
279302,-8034.0,997.0,169.0,0.377,-0.547,0.483,0.57
279314,-8100.0,1127.0,-57.0,0.377,-0.547,0.483,0.57
279336,-8044.0,1101.0,75.0,0.377,-0.547,0.483,0.57
279358,-8154.0,1189.0,33.0,0.377,-0.547,0.484,0.57
279370,-8304.0,1173.0,-123.0,0.377,-0.547,0.484,0.569
279392,-8094.0,1215.0,-125.0,0.377,-0.547,0.484,0.569
279404,-8220.0,1217.0,-175.0,0.377,-0.547,0.485,0.569
279426,-8208.0,1167.0,-251.0,0.377,-0.547,0.485,0.569
279438,-8164.0,1317.0,-175.0,0.377,-0.547,0.485,0.569
279460,-8154.0,1299.0,-181.0,0.376,-0.547,0.485,0.569
279472,-8174.0,1307.0,-267.0,0.376,-0.548,0.485,0.569
279494,-8330.0,1273.0,-187.0,0.376,-0.548,0.485,0.569
279506,-8324.0,1193.0,-35.0,0.375,-0.548,0.485,0.569
279528,-8262.0,1157.0,-35.0,0.375,-0.548,0.485,0.569
279550,-8198.0,1205.0,-139.0,0.375,-0.548,0.485,0.569
279562,-8240.0,1185.0,-101.0,0.374,-0.548,0.485,0.57
279584,-8108.0,1205.0,7.0,0.374,-0.548,0.485,0.57
279596,-8258.0,1157.0,25.0,0.373,-0.549,0.485,0.57
279618,-8748.0,1001.0,131.0,0.372,-0.549,0.486,0.569
279630,-9334.0,1043.0,157.0,0.372,-0.549,0.487,0.569
279652,-11058.0,839.0,-41.0,0.37,-0.549,0.49,0.568
279664,-11272.0,873.0,243.0,0.364,-0.548,0.496,0.567
279686,-11082.0,825.0,613.0,0.353,-0.547,0.505,0.567
279698,-10426.0,1709.0,-43.0,0.341,-0.545,0.517,0.566
279720,-10034.0,2131.0,-1855.0,0.329,-0.542,0.529,0.565
279742,-10612.0,2139.0,-2849.0,0.315,-0.541,0.538,0.565
279754,-13842.0,2789.0,655.0,0.298,-0.545,0.539,0.569
279776,-13670.0,983.0,169.0,0.277,-0.543,0.544,0.577
279788,-11030.0,2847.0,1549.0,0.25,-0.543,0.552,0.582
279810,-8218.0,4295.0,2021.0,0.227,-0.538,0.562,0.587
279822,-5868.0,5009.0,1779.0,0.206,-0.535,0.571,0.587
279844,-5240.0,5303.0,1465.0,0.189,-0.54,0.577,0.583
279856,-5706.0,4511.0,1141.0,0.176,-0.55,0.58,0.575
279878,-8204.0,8067.0,-1565.0,0.162,-0.562,0.583,0.564
279900,-6980.0,3783.0,345.0,0.151,-0.569,0.587,0.556
279912,-7246.0,6949.0,-1143.0,0.14,-0.574,0.591,0.549
279934,-5402.0,4961.0,-97.0,0.125,-0.582,0.593,0.543
279946,-4420.0,5117.0,1479.0,0.107,-0.592,0.591,0.537
279968,-5510.0,5249.0,1543.0,0.092,-0.605,0.588,0.528
279980,-7036.0,3581.0,1325.0,0.087,-0.614,0.588,0.519
280002,-6124.0,3859.0,903.0,0.082,-0.621,0.592,0.507
280014,-4496.0,3453.0,519.0,0.076,-0.625,0.601,0.492
280036,-3502.0,3369.0,-533.0,0.073,-0.628,0.612,0.476
280048,-3732.0,3609.0,-3353.0,0.074,-0.63,0.623,0.457
280070,-2900.0,3337.0,-5149.0,0.075,-0.632,0.633,0.441
280082,-1382.0,2973.0,-6557.0,0.067,-0.637,0.639,0.426
280104,-3862.0,669.0,-841.0,0.037,-0.659,0.64,0.394
280126,-5848.0,2519.0,-2297.0,0.026,-0.665,0.649,0.368
280138,-2658.0,1483.0,-2165.0,0.022,-0.665,0.664,0.341
280160,-1288.0,687.0,-6047.0,0.022,-0.664,0.677,0.315
280172,-1386.0,665.0,-7833.0,0.019,-0.668,0.685,0.289
280194,-2404.0,27.0,-8599.0,0.016,-0.673,0.689,0.269
280206,-4012.0,-659.0,-7457.0,0.009,-0.678,0.691,0.25
280228,-5156.0,-1755.0,-5571.0,0.003,0.68,-0.697,-0.227
280240,-2712.0,-655.0,-7119.0,0.01,0.674,-0.71,-0.203
280262,1050.0,317.0,-9853.0,0.014,0.666,-0.724,-0.179
280274,2952.0,1123.0,-11733.0,0.021,0.661,-0.733,-0.16
280296,3642.0,1621.0,-11641.0,0.03,0.658,-0.738,-0.147
280318,3996.0,2023.0,-10487.0,0.04,0.659,-0.738,-0.14
280330,3356.0,2083.0,-10239.0,0.043,0.663,-0.735,-0.136
280352,410.0,1821.0,-11935.0,0.038,0.67,-0.729,-0.132
280364,-1748.0,2151.0,-14061.0,0.032,0.674,-0.726,-0.129
280386,-378.0,2607.0,-13383.0,0.034,0.673,-0.727,-0.133
280398,2156.0,2799.0,-8037.0,0.049,0.672,-0.725,-0.141
280420,2182.0,3275.0,-3637.0,0.063,0.676,-0.719,-0.148
280432,670.0,2725.0,-2005.0,0.069,0.684,-0.71,-0.15
280454,-1706.0,1861.0,-3773.0,0.061,0.694,-0.702,-0.148
280466,-4410.0,1637.0,-7999.0,0.05,0.701,-0.698,-0.14
280488,-3636.0,1453.0,-10657.0,0.04,0.703,-0.698,-0.135
280510,-2270.0,1647.0,-11577.0,0.035,0.703,-0.698,-0.133
280522,-1570.0,2001.0,-9587.0,0.037,0.704,-0.697,-0.134
280544,-2172.0,1879.0,-7315.0,0.041,0.705,-0.695,-0.135
280556,-2510.0,2011.0,-6307.0,0.044,0.706,-0.694,-0.135
280578,-2298.0,2227.0,-5985.0,0.045,0.705,-0.695,-0.133
280590,-1962.0,2273.0,-7029.0,0.042,0.703,-0.698,-0.129
280612,-1024.0,2373.0,-8565.0,0.039,0.701,-0.701,-0.125
280624,146.0,2299.0,-9223.0,0.037,0.7,-0.702,-0.121
280646,-698.0,1981.0,-8929.0,0.038,0.702,-0.701,-0.12
280658,-2120.0,1553.0,-8343.0,0.038,0.703,-0.7,-0.118
280685,-1740.0,1589.0,-7933.0,0.038,0.703,-0.7,-0.117
280697,-1174.0,1741.0,-8229.0,0.038,0.703,-0.7,-0.116
280719,-1742.0,1653.0,-8443.0,0.037,0.704,-0.7,-0.116
280731,-2222.0,1597.0,-8399.0,0.037,0.703,-0.701,-0.115
280753,-1638.0,1809.0,-8349.0,0.037,0.702,-0.702,-0.116
280765,-1290.0,1935.0,-8677.0,0.036,0.7,-0.704,-0.117
280787,-1248.0,2081.0,-8445.0,0.037,0.698,-0.705,-0.118
280799,-322.0,2433.0,-7149.0,0.039,0.697,-0.706,-0.12
280821,-84.0,2499.0,-6669.0,0.039,0.697,-0.706,-0.121
280833,-1236.0,2265.0,-7207.0,0.037,0.698,-0.705,-0.121
280855,-1362.0,2245.0,-7631.0,0.034,0.699,-0.704,-0.121
280877,-1340.0,2089.0,-7723.0,0.032,0.7,-0.703,-0.12
280889,-1898.0,1823.0,-7927.0,0.03,0.701,-0.703,-0.119
280911,-1456.0,1877.0,-7529.0,0.03,0.702,-0.702,-0.118
280923,-1226.0,1815.0,-6453.0,0.03,0.703,-0.701,-0.115
280945,-2070.0,1513.0,-5487.0,0.028,0.705,-0.7,-0.111
280957,-2608.0,1367.0,-6833.0,0.019,0.705,-0.701,-0.105
280979,-2744.0,1057.0,-11819.0,0.007,0.702,-0.705,-0.095
280991,-80.0,1001.0,-13445.0,0.001,0.698,-0.71,-0.092
281013,868.0,1005.0,-13279.0,0.002,0.697,-0.711,-0.095
281025,448.0,-507.0,-12925.0,0.005,0.697,-0.71,-0.103
281047,-784.0,-45.0,-13863.0,0.005,0.695,-0.709,-0.117
281069,-808.0,-865.0,-14651.0,0.009,0.692,-0.71,-0.131
281081,168.0,-697.0,-15279.0,0.021,0.685,-0.713,-0.151
281103,2272.0,165.0,-10575.0,0.046,0.673,-0.717,-0.175
281115,5170.0,1165.0,-6521.0,0.068,0.659,-0.722,-0.2
281137,6872.0,1765.0,-5779.0,0.08,0.647,-0.725,-0.224
281149,7390.0,2687.0,-6293.0,0.081,0.636,-0.726,-0.25
281171,6846.0,2271.0,-7659.0,0.07,0.628,-0.723,-0.279
281183,3408.0,1145.0,-8077.0,0.057,0.628,-0.711,-0.311
281205,-142.0,583.0,-6935.0,0.034,0.623,-0.694,-0.359
281217,-3496.0,17.0,-4055.0,0.023,0.618,-0.671,-0.409
281239,-5184.0,803.0,247.0,0.021,0.61,-0.65,-0.453
281261,-5566.0,2415.0,3173.0,0.019,0.596,-0.637,-0.489
281273,-4840.0,3497.0,4423.0,0.007,0.573,-0.632,-0.522
281295,-4850.0,3603.0,3799.0,0.009,-0.55,0.634,0.544
281307,-6118.0,2851.0,2469.0,0.03,-0.531,0.634,0.561
281329,-8800.0,2703.0,1249.0,0.047,-0.52,0.632,0.573
281341,-10330.0,2497.0,2319.0,0.05,-0.513,0.631,0.581
281363,-9484.0,2471.0,3549.0,0.044,-0.504,0.635,0.584
281375,-6924.0,2667.0,3433.0,0.039,-0.491,0.644,0.586
281397,-4290.0,2751.0,3025.0,0.033,-0.479,0.655,0.583
281409,-3034.0,2993.0,2901.0,0.026,-0.472,0.666,0.576
281431,-3226.0,3565.0,2669.0,0.018,-0.473,0.677,0.563
281453,-4714.0,3761.0,1725.0,0.008,-0.479,0.69,0.543
281465,-8324.0,2369.0,285.0,0.003,0.483,-0.7,-0.526
281487,-10364.0,4711.0,2295.0,0.026,0.489,-0.711,-0.504
281499,-6242.0,5189.0,1591.0,0.056,0.485,-0.731,-0.478
281521,-252.0,9199.0,-1839.0,0.07,0.469,-0.761,-0.444
281533,2420.0,9371.0,-10403.0,0.066,0.458,-0.789,-0.404
281555,4326.0,10441.0,-13683.0,0.044,0.456,-0.8,-0.386
281567,-3614.0,8315.0,-13905.0,0.029,0.473,-0.795,-0.379
281589,-11938.0,15435.0,-11689.0,0.026,0.478,-0.796,-0.371
281601,-9016.0,13269.0,-24087.0,0.006,0.438,-0.822,-0.364
281623,5202.0,4299.0,-15585.0,0.022,-0.367,0.848,0.381
281645,10900.0,5945.0,-13077.0,0.011,-0.326,0.858,0.396
281657,15686.0,3923.0,-4105.0,0.002,-0.31,0.847,0.431
281679,9398.0,4341.0,5689.0,0.007,0.36,-0.81,-0.463
281691,-3436.0,1803.0,5359.0,0.016,-0.428,0.767,0.478
281713,-15448.0,4923.0,891.0,0.052,-0.475,0.734,0.483
281725,-21920.0,1419.0,483.0,0.083,-0.484,0.724,0.484
281747,-13326.0,4951.0,-2023.0,0.099,-0.468,0.737,0.478
281759,-6878.0,5207.0,-6843.0,0.104,-0.449,0.755,0.466
281781,-3160.0,5573.0,-6979.0,0.104,-0.439,0.764,0.462
281793,-2326.0,5253.0,-5715.0,0.1,-0.44,0.765,0.459
281815,-3794.0,3971.0,-4683.0,0.099,-0.443,0.763,0.46
281837,-1694.0,4963.0,-5005.0,0.101,-0.448,0.756,0.466
281849,-2670.0,4395.0,-3855.0,0.108,-0.457,0.746,0.471
281871,-5484.0,4537.0,-5187.0,0.118,-0.466,0.736,0.476
281883,-8944.0,4401.0,-4631.0,0.124,-0.474,0.727,0.482
281905,-8542.0,4403.0,-2919.0,0.126,-0.477,0.719,0.489
281917,-7458.0,4467.0,-2127.0,0.127,-0.479,0.712,0.497
281939,-7886.0,4467.0,-1421.0,0.13,-0.478,0.707,0.504
281951,-6550.0,4831.0,-1975.0,0.134,-0.475,0.706,0.508
281973,-6636.0,5217.0,-3431.0,0.139,-0.471,0.706,0.511
281985,-6206.0,4997.0,-3755.0,0.141,-0.467,0.705,0.515
282007,-5266.0,4959.0,-2369.0,0.143,-0.463,0.703,0.521
282029,-5656.0,5477.0,-2597.0,0.143,-0.462,0.701,0.525
282041,-6216.0,5369.0,-3429.0,0.144,-0.461,0.698,0.529
282063,-5912.0,5049.0,-3679.0,0.143,-0.459,0.696,0.534
282075,-5114.0,4757.0,-2517.0,0.137,-0.461,0.692,0.539
282097,-7246.0,4585.0,-4309.0,0.126,-0.467,0.686,0.543
282109,-8600.0,4429.0,-1865.0,0.11,-0.468,0.681,0.553
282131,-7980.0,4875.0,-2351.0,0.092,-0.462,0.679,0.563
282143,-4774.0,7021.0,-2747.0,0.072,-0.454,0.679,0.572
282165,-2764.0,7091.0,-2049.0,0.062,-0.447,0.679,0.579
282187,-3000.0,6455.0,-1801.0,0.057,-0.445,0.676,0.584
282199,-4974.0,6475.0,-1883.0,0.052,-0.447,0.672,0.588
282221,-6226.0,6255.0,-2027.0,0.047,-0.447,0.668,0.594
282233,-5952.0,6251.0,-1467.0,0.039,-0.443,0.665,0.6
282255,-5126.0,7201.0,-3361.0,0.028,-0.442,0.663,0.604
282267,-4954.0,6973.0,-3921.0,0.014,-0.441,0.657,0.611
282289,-4526.0,7791.0,-1073.0,0.009,0.445,-0.647,-0.618
282301,-3960.0,7093.0,-355.0,0.034,0.449,-0.638,-0.625
282323,-5848.0,5609.0,-1473.0,0.049,0.446,-0.63,-0.634
282335,-6578.0,5317.0,-687.0,0.073,0.446,-0.62,-0.641
282357,-5574.0,4675.0,-987.0,0.103,0.446,-0.61,-0.647
282379,-4136.0,6059.0,-167.0,0.122,0.435,-0.601,-0.659
282391,-2752.0,6883.0,2919.0,0.132,0.422,-0.594,-0.672
282413,-3360.0,8055.0,4071.0,0.132,0.412,-0.592,-0.68
282425,-6968.0,4867.0,2295.0,0.134,0.414,-0.594,-0.677
282447,-6226.0,6629.0,-73.0,0.141,0.407,-0.602,-0.672
282459,-4440.0,8045.0,589.0,0.152,0.401,-0.612,-0.664
282481,-2700.0,6157.0,635.0,0.158,0.39,-0.624,-0.659
282493,-2456.0,7361.0,313.0,0.163,0.379,-0.636,-0.652
282515,-1950.0,8009.0,487.0,0.164,0.366,-0.651,-0.645
282527,-1558.0,7023.0,-181.0,0.158,0.352,-0.668,-0.636
282549,-1464.0,7169.0,-1729.0,0.147,0.333,-0.687,-0.629
282561,-1344.0,8025.0,-3063.0,0.137,0.318,-0.702,-0.622
282583,-2122.0,7251.0,-3227.0,0.136,0.308,-0.711,-0.617
282605,-2236.0,10025.0,-2293.0,0.142,0.298,-0.715,-0.617
282617,-2644.0,8301.0,-1735.0,0.155,0.286,-0.716,-0.617
282639,-1128.0,8283.0,-1503.0,0.172,0.272,-0.717,-0.618
282651,180.0,7841.0,-1829.0,0.191,0.257,-0.716,-0.62
282678,322.0,7639.0,-1693.0,0.208,0.241,-0.712,-0.626
282690,728.0,7771.0,1663.0,0.223,0.219,-0.705,-0.636
282702,1224.0,6481.0,399.0,0.24,0.202,-0.696,-0.645
282724,2334.0,7589.0,2235.0,0.257,0.189,-0.687,-0.653
282736,2888.0,8609.0,3965.0,0.265,0.182,-0.682,-0.657
282758,2536.0,8933.0,4447.0,0.266,0.182,-0.682,-0.657
282780,652.0,8789.0,2531.0,0.26,0.187,-0.687,-0.652
282792,-1334.0,8645.0,-181.0,0.255,0.195,-0.691,-0.647
282814,-2360.0,8301.0,-1763.0,0.254,0.201,-0.694,-0.643
282826,-1752.0,8257.0,-1719.0,0.257,0.202,-0.695,-0.641
282848,-526.0,8291.0,-1067.0,0.262,0.201,-0.692,-0.642
282860,-440.0,7983.0,133.0,0.267,0.199,-0.689,-0.644
282882,8.0,7635.0,859.0,0.271,0.195,-0.687,-0.645
282894,578.0,7599.0,755.0,0.276,0.192,-0.687,-0.645
282916,1460.0,7619.0,539.0,0.279,0.189,-0.687,-0.644
282928,1966.0,7915.0,189.0,0.28,0.187,-0.687,-0.644
282950,1104.0,8421.0,647.0,0.278,0.186,-0.687,-0.645
282972,148.0,8673.0,759.0,0.278,0.186,-0.687,-0.645
282984,140.0,9033.0,371.0,0.28,0.183,-0.688,-0.644
283006,832.0,9077.0,347.0,0.283,0.179,-0.689,-0.643
283018,1108.0,8625.0,191.0,0.288,0.172,-0.689,-0.642
283040,1716.0,7971.0,99.0,0.295,0.164,-0.689,-0.641
283052,2834.0,7547.0,27.0,0.302,0.156,-0.688,-0.642
283074,3592.0,7277.0,627.0,0.309,0.15,-0.684,-0.644
283086,3448.0,7633.0,2003.0,0.313,0.148,-0.678,-0.648
283108,2422.0,8105.0,2921.0,0.313,0.149,-0.674,-0.652
283120,724.0,8475.0,2897.0,0.31,0.153,-0.673,-0.653
283142,-610.0,8351.0,1851.0,0.306,0.156,-0.675,-0.652
283164,-362.0,8601.0,793.0,0.307,0.16,-0.677,-0.649
283176,816.0,8497.0,-293.0,0.309,0.161,-0.679,-0.647
283198,1398.0,8209.0,185.0,0.309,0.161,-0.68,-0.646
283210,1132.0,7865.0,493.0,0.307,0.16,-0.681,-0.646
283232,646.0,7569.0,535.0,0.305,0.159,-0.681,-0.646
283244,716.0,7697.0,421.0,0.306,0.158,-0.681,-0.646
283266,1228.0,7909.0,695.0,0.309,0.157,-0.681,-0.645
283278,1550.0,8081.0,903.0,0.312,0.155,-0.682,-0.644
283300,1890.0,8315.0,687.0,0.315,0.154,-0.682,-0.642
283312,2234.0,8399.0,657.0,0.317,0.153,-0.682,-0.641
283334,2250.0,8357.0,911.0,0.319,0.152,-0.681,-0.641
283356,1986.0,8289.0,1355.0,0.319,0.152,-0.681,-0.642
283368,1478.0,8073.0,1371.0,0.318,0.152,-0.681,-0.642
283390,1284.0,8003.0,1079.0,0.318,0.153,-0.681,-0.641
283402,1294.0,7891.0,1025.0,0.317,0.154,-0.682,-0.641
283424,1222.0,7979.0,943.0,0.317,0.154,-0.682,-0.64
283436,1074.0,8031.0,699.0,0.316,0.155,-0.683,-0.64
283458,1152.0,8187.0,625.0,0.316,0.154,-0.684,-0.639
283470,1746.0,8293.0,463.0,0.316,0.154,-0.684,-0.639
283492,1772.0,8093.0,533.0,0.316,0.153,-0.685,-0.639
283504,1698.0,8015.0,561.0,0.316,0.152,-0.685,-0.639
283526,1734.0,8005.0,925.0,0.316,0.151,-0.685,-0.639
283548,1696.0,7961.0,811.0,0.315,0.151,-0.686,-0.639
283560,1626.0,8031.0,665.0,0.315,0.15,-0.686,-0.638
283582,1812.0,8157.0,901.0,0.316,0.15,-0.686,-0.638
283594,1658.0,8115.0,975.0,0.316,0.15,-0.686,-0.638
283616,1600.0,8161.0,629.0,0.317,0.15,-0.686,-0.637
283628,1806.0,8165.0,697.0,0.318,0.15,-0.685,-0.637
283650,1606.0,8097.0,989.0,0.318,0.15,-0.685,-0.638
283662,1352.0,8077.0,1107.0,0.319,0.151,-0.685,-0.638
283684,1392.0,8007.0,825.0,0.319,0.151,-0.685,-0.637
283696,1574.0,8023.0,633.0,0.32,0.152,-0.685,-0.637
283718,1604.0,8063.0,609.0,0.32,0.152,-0.685,-0.636
283740,1598.0,8029.0,615.0,0.32,0.152,-0.686,-0.636
283752,1344.0,8061.0,741.0,0.32,0.153,-0.686,-0.636
283774,1584.0,8167.0,753.0,0.32,0.152,-0.686,-0.636
283786,1950.0,8161.0,529.0,0.321,0.153,-0.686,-0.635
283808,1728.0,8213.0,693.0,0.32,0.153,-0.686,-0.635
283820,1746.0,8115.0,805.0,0.321,0.153,-0.686,-0.635
283842,1646.0,8105.0,743.0,0.321,0.153,-0.686,-0.635
283854,1600.0,8151.0,935.0,0.321,0.153,-0.686,-0.635
283876,1764.0,8041.0,741.0,0.321,0.153,-0.686,-0.635
283888,1644.0,7977.0,603.0,0.321,0.153,-0.686,-0.635
283910,1694.0,8123.0,843.0,0.321,0.153,-0.686,-0.635
283932,1700.0,8085.0,723.0,0.322,0.154,-0.686,-0.635
283944,1706.0,8145.0,805.0,0.321,0.154,-0.686,-0.635
283966,1680.0,8162.0,665.0,0.322,0.154,-0.686,-0.635
283978,1698.0,8079.0,490.0,0.322,0.154,-0.686,-0.635
284000,1635.0,8106.0,698.0,0.322,0.154,-0.685,-0.635
284012,1485.0,8093.0,864.0,0.321,0.155,-0.685,-0.635
284034,1473.0,8029.0,681.0,0.322,0.155,-0.685,-0.635
284046,1605.0,8151.0,731.0,0.322,0.155,-0.685,-0.635
284068,1635.0,8135.0,673.0,0.322,0.155,-0.685,-0.635
284080,1775.0,8112.0,653.0,0.323,0.155,-0.685,-0.635
284102,1547.0,8098.0,767.0,0.322,0.155,-0.685,-0.635
284124,1595.0,8100.0,813.0,0.323,0.155,-0.685,-0.635
284136,1685.0,8093.0,640.0,0.323,0.156,-0.685,-0.634
284158,1435.0,8061.0,786.0,0.323,0.156,-0.685,-0.634
284170,1677.0,8093.0,820.0,0.324,0.156,-0.685,-0.634
284192,1755.0,8051.0,566.0,0.324,0.156,-0.685,-0.634
284204,1639.0,8089.0,562.0,0.324,0.156,-0.685,-0.634
284226,1713.0,8121.0,696.0,0.325,0.156,-0.684,-0.634
284238,1673.0,8151.0,650.0,0.325,0.157,-0.684,-0.634
284260,1617.0,8087.0,662.0,0.325,0.157,-0.684,-0.634
284272,1639.0,8079.0,684.0,0.326,0.157,-0.684,-0.634
284294,1695.0,8041.0,750.0,0.326,0.157,-0.683,-0.634
284316,1777.0,7991.0,858.0,0.326,0.157,-0.683,-0.634
284328,1613.0,8075.0,866.0,0.326,0.157,-0.683,-0.634
284350,1537.0,8053.0,604.0,0.326,0.157,-0.683,-0.634
284362,1621.0,8107.0,474.0,0.327,0.157,-0.683,-0.634
284384,1659.0,8199.0,722.0,0.327,0.157,-0.683,-0.635
284396,1701.0,8155.0,776.0,0.327,0.157,-0.682,-0.635
284418,1697.0,8077.0,902.0,0.327,0.157,-0.682,-0.635
284430,1753.0,8055.0,786.0,0.328,0.157,-0.682,-0.635
284452,1693.0,8049.0,708.0,0.328,0.157,-0.682,-0.635
284464,1635.0,8005.0,780.0,0.328,0.157,-0.681,-0.635
284486,1735.0,8097.0,862.0,0.329,0.157,-0.681,-0.635
284508,1757.0,8091.0,906.0,0.329,0.157,-0.681,-0.635
284520,1725.0,8081.0,692.0,0.329,0.157,-0.681,-0.635
284542,1773.0,8099.0,656.0,0.329,0.157,-0.681,-0.635
284554,1709.0,8097.0,764.0,0.329,0.157,-0.681,-0.635
284576,1595.0,7997.0,868.0,0.329,0.157,-0.681,-0.635
284588,1715.0,7997.0,756.0,0.329,0.157,-0.681,-0.635
284610,1779.0,8055.0,672.0,0.329,0.157,-0.681,-0.635
284622,1647.0,8023.0,798.0,0.329,0.157,-0.681,-0.635
284644,1633.0,8069.0,816.0,0.33,0.157,-0.681,-0.635
284656,1697.0,8033.0,748.0,0.33,0.157,-0.68,-0.635
284683,1739.0,8071.0,814.0,0.33,0.157,-0.68,-0.635
284695,1753.0,8181.0,648.0,0.33,0.157,-0.681,-0.635
284717,1787.0,8049.0,642.0,0.33,0.157,-0.68,-0.635
284729,1695.0,8075.0,888.0,0.33,0.157,-0.68,-0.635
284751,1603.0,8013.0,798.0,0.33,0.157,-0.68,-0.635
284763,1703.0,8065.0,782.0,0.331,0.157,-0.68,-0.635
284785,1673.0,8085.0,868.0,0.331,0.157,-0.68,-0.635
284797,1705.0,8117.0,762.0,0.331,0.158,-0.68,-0.635
284819,1665.0,8071.0,760.0,0.331,0.158,-0.68,-0.635
284831,1711.0,8079.0,746.0,0.331,0.158,-0.68,-0.635
284853,1643.0,8053.0,748.0,0.331,0.158,-0.68,-0.635
284865,1731.0,8011.0,734.0,0.332,0.158,-0.679,-0.635
284887,1731.0,8079.0,840.0,0.332,0.158,-0.679,-0.635
284909,1761.0,8071.0,880.0,0.332,0.158,-0.679,-0.635
284921,1827.0,8005.0,730.0,0.332,0.158,-0.679,-0.635
284943,1641.0,8085.0,780.0,0.332,0.158,-0.679,-0.635
284955,1723.0,8101.0,708.0,0.332,0.158,-0.679,-0.635
284977,1743.0,8047.0,716.0,0.333,0.158,-0.679,-0.635
284989,1775.0,8111.0,784.0,0.333,0.159,-0.679,-0.635
285011,1745.0,8073.0,706.0,0.333,0.159,-0.679,-0.635
285023,1663.0,8111.0,898.0,0.333,0.159,-0.679,-0.635
285045,1697.0,8041.0,728.0,0.333,0.159,-0.679,-0.635
285057,1807.0,8069.0,682.0,0.334,0.159,-0.678,-0.635
285079,1839.0,8111.0,718.0,0.334,0.159,-0.678,-0.635
285101,1581.0,8051.0,856.0,0.334,0.159,-0.678,-0.635
285113,1777.0,8061.0,756.0,0.334,0.159,-0.678,-0.635
285135,1865.0,7999.0,784.0,0.335,0.159,-0.678,-0.635
285147,1673.0,8001.0,818.0,0.335,0.159,-0.677,-0.635
285169,1671.0,8035.0,760.0,0.335,0.159,-0.677,-0.635
285181,1729.0,8065.0,826.0,0.335,0.159,-0.677,-0.635
285203,1705.0,8057.0,716.0,0.335,0.159,-0.677,-0.635
285215,1789.0,8081.0,788.0,0.335,0.159,-0.677,-0.636
285237,1759.0,8093.0,826.0,0.336,0.159,-0.677,-0.636
285249,1811.0,8073.0,798.0,0.336,0.159,-0.677,-0.636
285271,1741.0,8067.0,918.0,0.336,0.159,-0.677,-0.636
285293,1705.0,7999.0,872.0,0.336,0.159,-0.676,-0.636
285305,1751.0,7947.0,778.0,0.336,0.159,-0.677,-0.636
285327,1839.0,8027.0,824.0,0.336,0.159,-0.677,-0.636
285339,1745.0,8055.0,802.0,0.336,0.159,-0.677,-0.636
285361,1785.0,8067.0,678.0,0.336,0.159,-0.677,-0.636
285373,1751.0,8065.0,814.0,0.336,0.159,-0.676,-0.636
285395,1765.0,8041.0,830.0,0.336,0.159,-0.676,-0.636
285407,1711.0,8079.0,946.0,0.336,0.159,-0.676,-0.636
285429,1735.0,8025.0,762.0,0.336,0.159,-0.676,-0.636
285441,1795.0,7937.0,712.0,0.337,0.159,-0.676,-0.636
285463,1789.0,8021.0,718.0,0.337,0.16,-0.676,-0.636
285485,1765.0,8035.0,800.0,0.337,0.16,-0.676,-0.636
285497,1803.0,8089.0,884.0,0.337,0.16,-0.676,-0.636
285519,1743.0,8131.0,772.0,0.337,0.16,-0.676,-0.636
285531,1813.0,8033.0,752.0,0.337,0.16,-0.675,-0.636
285553,1707.0,8051.0,972.0,0.337,0.16,-0.675,-0.636
285565,1733.0,8027.0,724.0,0.338,0.16,-0.675,-0.636
285587,1831.0,8035.0,752.0,0.338,0.16,-0.675,-0.636
285599,1817.0,8021.0,792.0,0.338,0.16,-0.675,-0.636
285621,1757.0,8061.0,958.0,0.338,0.16,-0.675,-0.636
285633,1641.0,8033.0,824.0,0.338,0.16,-0.675,-0.636
285655,1737.0,8111.0,804.0,0.338,0.16,-0.675,-0.636
285677,1835.0,8107.0,782.0,0.338,0.16,-0.675,-0.636
285689,1843.0,8089.0,674.0,0.339,0.16,-0.675,-0.636
285711,1801.0,8007.0,914.0,0.339,0.16,-0.675,-0.636
285723,1719.0,8027.0,804.0,0.339,0.16,-0.675,-0.636
285745,1753.0,7979.0,822.0,0.339,0.16,-0.674,-0.636
285757,1715.0,8049.0,828.0,0.339,0.161,-0.674,-0.636
285779,1749.0,8119.0,670.0,0.339,0.161,-0.674,-0.636
285791,1773.0,8131.0,792.0,0.339,0.161,-0.674,-0.636
285813,1877.0,8073.0,802.0,0.339,0.161,-0.674,-0.636
285825,1839.0,8011.0,864.0,0.339,0.161,-0.674,-0.636
285847,1749.0,8027.0,952.0,0.339,0.161,-0.674,-0.636
285869,1751.0,8035.0,774.0,0.339,0.161,-0.674,-0.636
285881,1767.0,8045.0,794.0,0.34,0.161,-0.674,-0.636
285903,1781.0,8055.0,876.0,0.34,0.161,-0.674,-0.636
285915,1791.0,8037.0,870.0,0.34,0.161,-0.673,-0.636
285937,1771.0,8021.0,840.0,0.34,0.161,-0.673,-0.636
285949,1831.0,8065.0,778.0,0.34,0.161,-0.673,-0.636
285971,1777.0,8057.0,842.0,0.34,0.161,-0.673,-0.637
285983,1813.0,8043.0,852.0,0.341,0.161,-0.673,-0.637
286005,1783.0,8013.0,820.0,0.341,0.161,-0.673,-0.637
286017,1771.0,8073.0,836.0,0.341,0.161,-0.673,-0.637
286039,1835.0,8037.0,724.0,0.341,0.162,-0.673,-0.636
286061,1823.0,8037.0,830.0,0.341,0.162,-0.672,-0.637
286073,1717.0,8031.0,918.0,0.341,0.162,-0.672,-0.637
286095,1775.0,8031.0,894.0,0.342,0.162,-0.672,-0.637
286107,1887.0,8089.0,850.0,0.342,0.161,-0.672,-0.637
286129,1733.0,8039.0,896.0,0.342,0.161,-0.672,-0.637
286141,1747.0,7975.0,830.0,0.342,0.161,-0.672,-0.637
286163,1889.0,8049.0,838.0,0.343,0.161,-0.672,-0.637
286175,1837.0,7989.0,948.0,0.343,0.161,-0.672,-0.637
286197,1791.0,7997.0,914.0,0.343,0.162,-0.671,-0.637
286209,1751.0,7959.0,928.0,0.343,0.162,-0.672,-0.637
286231,1797.0,8071.0,808.0,0.343,0.162,-0.672,-0.636
286253,1827.0,8053.0,778.0,0.343,0.162,-0.672,-0.636
286265,1913.0,8143.0,778.0,0.343,0.162,-0.672,-0.636
286287,1855.0,8031.0,898.0,0.343,0.162,-0.671,-0.637
286299,1727.0,8027.0,946.0,0.343,0.162,-0.671,-0.637
286321,1739.0,7959.0,974.0,0.343,0.162,-0.671,-0.637
286333,1885.0,8031.0,784.0,0.343,0.162,-0.671,-0.637
286355,1867.0,8001.0,870.0,0.344,0.162,-0.671,-0.637
286367,1907.0,8025.0,984.0,0.343,0.162,-0.671,-0.637
286389,1739.0,7997.0,820.0,0.343,0.162,-0.671,-0.637
286401,1741.0,8077.0,818.0,0.344,0.163,-0.671,-0.637
286423,1891.0,8031.0,874.0,0.344,0.163,-0.671,-0.637
286445,1965.0,8111.0,814.0,0.344,0.163,-0.671,-0.637
286457,1817.0,8009.0,910.0,0.344,0.163,-0.671,-0.637
286479,1773.0,8031.0,874.0,0.344,0.163,-0.671,-0.637
286491,1827.0,7999.0,794.0,0.344,0.163,-0.671,-0.637
286513,1757.0,8005.0,896.0,0.344,0.163,-0.671,-0.637
286525,1737.0,7993.0,902.0,0.344,0.163,-0.671,-0.637
286547,1845.0,8043.0,868.0,0.344,0.163,-0.67,-0.637
286559,1803.0,8021.0,870.0,0.344,0.163,-0.671,-0.636
286581,1821.0,8061.0,796.0,0.345,0.164,-0.67,-0.636
286603,1839.0,8077.0,756.0,0.345,0.164,-0.67,-0.636
286615,1791.0,8059.0,926.0,0.345,0.164,-0.67,-0.637
286637,1743.0,8039.0,904.0,0.345,0.164,-0.67,-0.637
286649,1779.0,8023.0,944.0,0.345,0.164,-0.67,-0.637
286671,1881.0,8083.0,864.0,0.345,0.164,-0.67,-0.636
286688,1911.0,8071.0,732.0,0.345,0.164,-0.67,-0.636
286700,1823.0,8049.0,866.0,0.345,0.164,-0.67,-0.637
286722,1775.0,7983.0,944.0,0.345,0.164,-0.67,-0.637
286734,1837.0,8069.0,750.0,0.345,0.164,-0.67,-0.636
286756,1891.0,8055.0,866.0,0.345,0.164,-0.67,-0.637
286768,1805.0,7983.0,904.0,0.345,0.165,-0.67,-0.637
286790,1781.0,7983.0,826.0,0.345,0.165,-0.67,-0.637
286812,1785.0,8013.0,870.0,0.346,0.165,-0.67,-0.637
286824,1899.0,8057.0,802.0,0.346,0.165,-0.67,-0.636
286846,1873.0,8057.0,746.0,0.346,0.165,-0.67,-0.636
286858,1793.0,8071.0,846.0,0.346,0.165,-0.669,-0.636
286880,1829.0,8041.0,928.0,0.346,0.165,-0.669,-0.637
286892,1795.0,8005.0,882.0,0.346,0.165,-0.669,-0.637
286914,1809.0,7999.0,788.0,0.346,0.165,-0.669,-0.637
286926,1797.0,7993.0,878.0,0.346,0.165,-0.669,-0.637
286948,1823.0,8085.0,872.0,0.346,0.165,-0.669,-0.637
286960,1877.0,8065.0,868.0,0.346,0.165,-0.669,-0.637
286982,1725.0,8025.0,842.0,0.346,0.166,-0.669,-0.637
287004,1755.0,8005.0,806.0,0.346,0.166,-0.669,-0.637
287016,1831.0,8045.0,856.0,0.347,0.166,-0.669,-0.637
287038,1869.0,8041.0,780.0,0.347,0.166,-0.668,-0.637
287050,1745.0,8031.0,910.0,0.347,0.166,-0.668,-0.637
287072,1767.0,8017.0,1036.0,0.347,0.166,-0.668,-0.637
287084,1919.0,7977.0,938.0,0.348,0.166,-0.668,-0.637
287106,1959.0,7989.0,834.0,0.348,0.166,-0.668,-0.637
287118,1799.0,8035.0,900.0,0.348,0.166,-0.668,-0.637
287140,1693.0,8039.0,916.0,0.348,0.166,-0.668,-0.637
287152,1857.0,8043.0,810.0,0.348,0.166,-0.668,-0.637
287174,1881.0,7989.0,800.0,0.348,0.166,-0.668,-0.637
287196,1827.0,8029.0,918.0,0.348,0.166,-0.668,-0.637
287208,1787.0,7961.0,878.0,0.348,0.166,-0.668,-0.637
287230,1875.0,7995.0,908.0,0.348,0.166,-0.668,-0.637
287242,1807.0,8051.0,848.0,0.348,0.166,-0.668,-0.637
287264,1817.0,8015.0,804.0,0.348,0.166,-0.667,-0.637
287276,1819.0,8031.0,970.0,0.348,0.166,-0.667,-0.637
287298,1839.0,8039.0,938.0,0.348,0.167,-0.667,-0.637
287310,1831.0,8083.0,872.0,0.348,0.167,-0.667,-0.637
287332,1791.0,8017.0,856.0,0.348,0.167,-0.667,-0.637
287344,1877.0,8021.0,872.0,0.348,0.167,-0.667,-0.637
287366,1855.0,8001.0,860.0,0.348,0.167,-0.667,-0.637
287388,1797.0,8009.0,894.0,0.348,0.167,-0.667,-0.637
287400,1829.0,8041.0,972.0,0.348,0.168,-0.667,-0.637
287422,1839.0,8035.0,782.0,0.348,0.168,-0.667,-0.637
287434,1841.0,8025.0,858.0,0.348,0.168,-0.667,-0.637
287456,1777.0,8003.0,868.0,0.348,0.168,-0.667,-0.637
287468,1841.0,7961.0,902.0,0.348,0.168,-0.667,-0.637
287490,1913.0,8075.0,924.0,0.348,0.169,-0.667,-0.637
287502,1715.0,8013.0,836.0,0.348,0.169,-0.667,-0.637
287524,1779.0,8031.0,922.0,0.348,0.169,-0.667,-0.637
287536,1851.0,8023.0,842.0,0.348,0.169,-0.667,-0.637
287558,1749.0,8063.0,856.0,0.348,0.17,-0.667,-0.637
287580,1783.0,8031.0,844.0,0.348,0.17,-0.667,-0.637
287592,1849.0,8033.0,806.0,0.348,0.17,-0.667,-0.637
287614,1849.0,8001.0,828.0,0.348,0.171,-0.667,-0.637
287626,1773.0,7995.0,860.0,0.348,0.171,-0.667,-0.636
287648,1727.0,8061.0,876.0,0.348,0.172,-0.667,-0.636
287660,1755.0,7993.0,878.0,0.348,0.172,-0.667,-0.636
287682,1821.0,8047.0,836.0,0.348,0.172,-0.667,-0.636
287694,1835.0,8051.0,862.0,0.348,0.173,-0.667,-0.636
287716,1893.0,8111.0,918.0,0.348,0.173,-0.667,-0.636
287728,1821.0,8043.0,866.0,0.348,0.174,-0.667,-0.636
287750,1829.0,8027.0,742.0,0.347,0.174,-0.667,-0.636
287772,1709.0,8039.0,876.0,0.347,0.174,-0.667,-0.636
287784,1627.0,7999.0,816.0,0.346,0.175,-0.668,-0.636
287806,1679.0,8051.0,706.0,0.346,0.175,-0.668,-0.636
287818,1843.0,8115.0,800.0,0.346,0.175,-0.668,-0.636
287840,1781.0,8059.0,796.0,0.345,0.176,-0.668,-0.636
287852,1677.0,8045.0,768.0,0.345,0.176,-0.667,-0.636
287874,1657.0,8039.0,882.0,0.344,0.176,-0.667,-0.637
287886,1663.0,8083.0,964.0,0.344,0.176,-0.667,-0.636
287908,1721.0,8035.0,726.0,0.344,0.176,-0.668,-0.636
287920,1859.0,8103.0,710.0,0.344,0.177,-0.668,-0.636
287942,1601.0,8037.0,778.0,0.344,0.177,-0.667,-0.636
287964,1475.0,8041.0,820.0,0.344,0.177,-0.667,-0.636
287976,1821.0,8127.0,778.0,0.344,0.177,-0.667,-0.636
287998,1867.0,8121.0,758.0,0.345,0.178,-0.667,-0.636
288010,1729.0,8039.0,724.0,0.344,0.178,-0.667,-0.636
288032,1641.0,8029.0,820.0,0.344,0.178,-0.667,-0.636
288044,1707.0,8051.0,836.0,0.344,0.178,-0.667,-0.636
288066,1597.0,7969.0,826.0,0.344,0.178,-0.667,-0.636
288078,1675.0,8037.0,708.0,0.344,0.179,-0.667,-0.636
288100,1743.0,8057.0,728.0,0.344,0.179,-0.667,-0.636
288112,1781.0,8095.0,782.0,0.345,0.179,-0.667,-0.636
288134,1699.0,8075.0,720.0,0.345,0.179,-0.667,-0.636
288156,1605.0,8079.0,788.0,0.345,0.179,-0.667,-0.636
288168,1597.0,8051.0,886.0,0.345,0.179,-0.666,-0.636
288190,1693.0,8073.0,808.0,0.345,0.179,-0.667,-0.636
288202,1785.0,8045.0,634.0,0.345,0.179,-0.667,-0.636
288224,1745.0,8087.0,798.0,0.345,0.18,-0.666,-0.636
288236,1693.0,8113.0,846.0,0.345,0.18,-0.666,-0.636
288258,1679.0,8071.0,746.0,0.345,0.18,-0.666,-0.636
288270,1679.0,8043.0,748.0,0.345,0.18,-0.666,-0.636
288292,1635.0,8035.0,876.0,0.345,0.18,-0.666,-0.636
288304,1599.0,8093.0,872.0,0.345,0.18,-0.666,-0.636
288326,1711.0,8063.0,764.0,0.346,0.18,-0.666,-0.636
288348,1763.0,8093.0,708.0,0.346,0.18,-0.666,-0.636
288360,1731.0,8163.0,666.0,0.346,0.181,-0.666,-0.636
288382,1683.0,8109.0,716.0,0.346,0.181,-0.666,-0.636
288394,1629.0,8035.0,910.0,0.346,0.181,-0.666,-0.636
288416,1619.0,8043.0,770.0,0.346,0.181,-0.666,-0.636
288428,1675.0,8041.0,774.0,0.346,0.181,-0.665,-0.636
288450,1689.0,8001.0,852.0,0.346,0.181,-0.665,-0.636
288462,1773.0,8163.0,828.0,0.347,0.18,-0.665,-0.636
288484,1707.0,8031.0,696.0,0.347,0.181,-0.665,-0.636
288496,1591.0,8055.0,768.0,0.347,0.181,-0.665,-0.636
288518,1721.0,8067.0,844.0,0.347,0.181,-0.665,-0.636
288540,1715.0,7979.0,770.0,0.347,0.181,-0.665,-0.636
288552,1659.0,8017.0,864.0,0.347,0.181,-0.665,-0.636
288574,1715.0,8013.0,794.0,0.348,0.181,-0.664,-0.636
288586,1751.0,8067.0,744.0,0.348,0.181,-0.664,-0.636
288608,1709.0,8111.0,762.0,0.348,0.181,-0.664,-0.636
288620,1721.0,8079.0,734.0,0.348,0.181,-0.664,-0.637
288642,1705.0,8109.0,936.0,0.348,0.181,-0.664,-0.637
288654,1647.0,8083.0,900.0,0.348,0.181,-0.664,-0.637
288676,1699.0,8097.0,730.0,0.348,0.181,-0.664,-0.637
288693,1717.0,8075.0,854.0,0.348,0.181,-0.663,-0.637
288715,1639.0,8067.0,910.0,0.349,0.181,-0.663,-0.637
288727,1663.0,8067.0,848.0,0.349,0.181,-0.663,-0.637
288749,1733.0,7997.0,828.0,0.349,0.181,-0.663,-0.637
288761,1765.0,8063.0,790.0,0.349,0.181,-0.663,-0.637
288783,1705.0,8051.0,788.0,0.349,0.181,-0.663,-0.637
288795,1713.0,8061.0,838.0,0.349,0.181,-0.663,-0.637
288817,1723.0,8039.0,880.0,0.349,0.181,-0.663,-0.637
288829,1643.0,8087.0,824.0,0.349,0.181,-0.663,-0.637
288851,1687.0,8073.0,734.0,0.349,0.181,-0.663,-0.637
288863,1779.0,8103.0,886.0,0.35,0.181,-0.663,-0.637
288885,1827.0,8137.0,888.0,0.35,0.181,-0.662,-0.637
288907,1699.0,8015.0,862.0,0.35,0.181,-0.662,-0.637
288919,1667.0,8049.0,882.0,0.35,0.181,-0.662,-0.638
288941,1731.0,7967.0,858.0,0.35,0.181,-0.662,-0.638
288953,1697.0,7999.0,830.0,0.35,0.181,-0.662,-0.638
288975,1577.0,8011.0,1010.0,0.35,0.181,-0.662,-0.638
288987,1715.0,8069.0,724.0,0.35,0.181,-0.662,-0.637
289009,1801.0,8109.0,806.0,0.35,0.181,-0.662,-0.637
289021,1719.0,8041.0,826.0,0.35,0.182,-0.662,-0.637
289043,1765.0,8055.0,846.0,0.35,0.182,-0.662,-0.637
289055,1725.0,8011.0,890.0,0.35,0.182,-0.662,-0.637
289077,1745.0,8025.0,838.0,0.35,0.182,-0.662,-0.637
289099,1727.0,8017.0,788.0,0.35,0.182,-0.662,-0.638
289111,1699.0,8067.0,880.0,0.351,0.182,-0.661,-0.638
289133,1707.0,8095.0,874.0,0.351,0.182,-0.661,-0.638
289145,1757.0,8061.0,782.0,0.35,0.182,-0.661,-0.638
289167,1675.0,8047.0,868.0,0.351,0.182,-0.661,-0.638
289179,1647.0,8063.0,824.0,0.351,0.182,-0.661,-0.638
289201,1615.0,8013.0,938.0,0.351,0.182,-0.661,-0.638
289213,1779.0,8005.0,868.0,0.351,0.182,-0.661,-0.638
289235,1749.0,7995.0,884.0,0.351,0.182,-0.661,-0.638
289247,1685.0,8067.0,778.0,0.351,0.182,-0.661,-0.638
289269,1661.0,8013.0,870.0,0.351,0.182,-0.661,-0.638
289291,1637.0,8107.0,892.0,0.351,0.183,-0.66,-0.638
289303,1659.0,8033.0,874.0,0.351,0.183,-0.66,-0.638
289325,1707.0,8035.0,944.0,0.351,0.183,-0.66,-0.638
289337,1713.0,8053.0,840.0,0.351,0.183,-0.66,-0.638
289359,1813.0,8091.0,802.0,0.351,0.183,-0.66,-0.638
289371,1695.0,8097.0,934.0,0.351,0.183,-0.66,-0.638
289393,1657.0,8075.0,852.0,0.351,0.183,-0.66,-0.638
289405,1709.0,8105.0,914.0,0.351,0.183,-0.66,-0.638
289427,1739.0,8009.0,830.0,0.351,0.183,-0.66,-0.638
289439,1705.0,8033.0,892.0,0.351,0.183,-0.66,-0.638
289461,1749.0,8035.0,808.0,0.351,0.183,-0.66,-0.638
289483,1781.0,8017.0,796.0,0.351,0.183,-0.66,-0.638
289495,1727.0,8015.0,804.0,0.351,0.183,-0.66,-0.638
289517,1639.0,8061.0,928.0,0.351,0.183,-0.66,-0.638
289529,1723.0,8027.0,874.0,0.351,0.183,-0.66,-0.638
289551,1693.0,8077.0,816.0,0.351,0.183,-0.66,-0.638
289563,1677.0,8051.0,888.0,0.351,0.183,-0.66,-0.638
289585,1703.0,8095.0,812.0,0.351,0.183,-0.66,-0.638
289597,1811.0,8043.0,810.0,0.351,0.183,-0.66,-0.638
289619,1745.0,8055.0,900.0,0.351,0.183,-0.66,-0.638
289631,1605.0,8055.0,842.0,0.351,0.183,-0.66,-0.638
289653,1711.0,8093.0,846.0,0.351,0.184,-0.66,-0.638
289675,1803.0,8093.0,798.0,0.351,0.184,-0.66,-0.638
289687,1711.0,8049.0,814.0,0.351,0.184,-0.66,-0.638
289709,1689.0,8043.0,960.0,0.351,0.184,-0.66,-0.638
289721,1757.0,8039.0,906.0,0.351,0.184,-0.66,-0.638
289743,1649.0,8029.0,836.0,0.351,0.184,-0.66,-0.638
289755,1737.0,8077.0,768.0,0.351,0.184,-0.66,-0.638
289777,1751.0,8069.0,796.0,0.351,0.184,-0.66,-0.638
289789,1765.0,8099.0,896.0,0.352,0.184,-0.66,-0.638
289811,1673.0,8113.0,890.0,0.351,0.184,-0.66,-0.638
289823,1589.0,8023.0,894.0,0.351,0.184,-0.659,-0.639
289845,1657.0,8057.0,920.0,0.352,0.184,-0.659,-0.639
289867,1717.0,8027.0,852.0,0.352,0.184,-0.659,-0.638
289879,1703.0,8015.0,828.0,0.352,0.184,-0.659,-0.638
289901,1743.0,8035.0,890.0,0.352,0.184,-0.659,-0.639
289913,1699.0,8045.0,890.0,0.351,0.184,-0.659,-0.639
289935,1599.0,8049.0,928.0,0.351,0.185,-0.659,-0.639
289947,1707.0,8051.0,740.0,0.352,0.185,-0.659,-0.638
289969,1749.0,8073.0,912.0,0.352,0.185,-0.659,-0.638
289981,1659.0,7989.0,876.0,0.352,0.185,-0.659,-0.638
290003,1697.0,8061.0,844.0,0.352,0.185,-0.659,-0.639
290015,1579.0,8035.0,962.0,0.352,0.185,-0.659,-0.639
290037,1617.0,8009.0,854.0,0.352,0.185,-0.659,-0.638
290059,1801.0,8015.0,774.0,0.352,0.185,-0.659,-0.638
290071,1867.0,8135.0,914.0,0.352,0.185,-0.659,-0.639
290093,1609.0,8101.0,868.0,0.352,0.185,-0.659,-0.639
290105,1629.0,8093.0,738.0,0.352,0.185,-0.659,-0.639
290127,1711.0,8013.0,972.0,0.352,0.185,-0.658,-0.639
290139,1715.0,7991.0,1068.0,0.352,0.185,-0.658,-0.639
290161,1693.0,8047.0,932.0,0.352,0.185,-0.658,-0.639
290173,1755.0,8009.0,782.0,0.352,0.185,-0.658,-0.639
290195,1719.0,8083.0,830.0,0.352,0.186,-0.658,-0.639
290207,1549.0,8009.0,974.0,0.352,0.186,-0.658,-0.639
290229,1595.0,8029.0,920.0,0.352,0.186,-0.658,-0.639
290251,1757.0,8039.0,920.0,0.352,0.186,-0.658,-0.639
290263,1695.0,7971.0,764.0,0.352,0.186,-0.658,-0.639
290285,1669.0,8031.0,886.0,0.352,0.186,-0.658,-0.639
290297,1693.0,8037.0,968.0,0.353,0.186,-0.658,-0.639
290319,1647.0,8033.0,938.0,0.353,0.186,-0.658,-0.639
290331,1587.0,8021.0,858.0,0.353,0.186,-0.658,-0.639
290353,1735.0,8023.0,764.0,0.353,0.186,-0.658,-0.639
290365,1767.0,8083.0,868.0,0.353,0.186,-0.658,-0.639
290387,1697.0,8047.0,918.0,0.352,0.186,-0.658,-0.639
290399,1695.0,8065.0,938.0,0.353,0.186,-0.658,-0.639
290421,1721.0,8057.0,956.0,0.353,0.186,-0.658,-0.639
290443,1683.0,8069.0,832.0,0.352,0.186,-0.658,-0.639
290455,1661.0,8115.0,782.0,0.352,0.186,-0.658,-0.639
290477,1691.0,8057.0,1018.0,0.353,0.186,-0.657,-0.639
290489,1775.0,8051.0,1012.0,0.353,0.187,-0.657,-0.639
290511,1637.0,8071.0,918.0,0.353,0.187,-0.657,-0.639
290523,1633.0,8071.0,908.0,0.353,0.187,-0.657,-0.639
290545,1705.0,8103.0,808.0,0.353,0.187,-0.657,-0.639
290557,1777.0,8111.0,836.0,0.353,0.187,-0.657,-0.639
290579,1713.0,8077.0,932.0,0.353,0.187,-0.657,-0.639
290591,1595.0,8029.0,966.0,0.353,0.187,-0.657,-0.639
290613,1671.0,8031.0,908.0,0.353,0.187,-0.657,-0.639
290635,1725.0,8029.0,866.0,0.353,0.187,-0.657,-0.639
290647,1691.0,8037.0,776.0,0.354,0.187,-0.657,-0.639
290669,1757.0,8031.0,912.0,0.354,0.187,-0.656,-0.64
290681,1629.0,8033.0,972.0,0.354,0.188,-0.656,-0.64
290698,1679.0,8015.0,876.0,0.354,0.188,-0.655,-0.64
290720,1767.0,8107.0,812.0,0.354,0.188,-0.655,-0.64
290732,1667.0,8115.0,764.0,0.355,0.188,-0.654,-0.641
290754,1675.0,8045.0,872.0,0.355,0.189,-0.653,-0.641
290766,1691.0,8123.0,838.0,0.356,0.189,-0.652,-0.642
290788,1687.0,8079.0,858.0,0.357,0.189,-0.651,-0.643
290810,1835.0,8071.0,858.0,0.358,0.19,-0.649,-0.644
290822,1807.0,7929.0,894.0,0.359,0.191,-0.646,-0.646
290844,1497.0,7819.0,1250.0,0.36,0.191,-0.644,-0.648
290856,1507.0,8141.0,1340.0,0.362,0.194,-0.641,-0.649
290878,1949.0,8091.0,1348.0,0.363,0.196,-0.639,-0.65
290890,1735.0,8449.0,1100.0,0.364,0.199,-0.636,-0.651
290912,1197.0,8009.0,948.0,0.365,0.201,-0.632,-0.653
290924,1347.0,8071.0,1014.0,0.367,0.204,-0.628,-0.655
290946,1393.0,7951.0,1330.0,0.369,0.206,-0.623,-0.658
290968,1379.0,7943.0,1438.0,0.372,0.209,-0.618,-0.661
290980,1285.0,7951.0,1674.0,0.374,0.211,-0.613,-0.663
291002,1237.0,7963.0,1804.0,0.377,0.213,-0.607,-0.666
291014,1305.0,8061.0,1402.0,0.38,0.215,-0.601,-0.669
291036,1303.0,8063.0,1304.0,0.383,0.218,-0.595,-0.673
291048,1477.0,7465.0,1058.0,0.385,0.219,-0.588,-0.677
291070,1179.0,7673.0,1202.0,0.387,0.22,-0.579,-0.683
291082,1927.0,8147.0,744.0,0.39,0.223,-0.567,-0.69
291104,899.0,7357.0,1100.0,0.393,0.224,-0.551,-0.701
291116,281.0,7619.0,1824.0,0.398,0.226,-0.531,-0.714
291138,355.0,6939.0,2194.0,0.404,0.225,-0.508,-0.726
291150,523.0,7285.0,3876.0,0.408,0.222,-0.487,-0.74
291172,667.0,6811.0,5156.0,0.41,0.218,-0.468,-0.752
291184,-63.0,6731.0,6270.0,0.409,0.215,-0.452,-0.763
291206,-685.0,6811.0,6274.0,0.408,0.214,-0.44,-0.77
291228,-479.0,6779.0,5424.0,0.408,0.214,-0.432,-0.775
291240,-243.0,6941.0,4408.0,0.409,0.213,-0.424,-0.78
291262,-391.0,6709.0,4496.0,0.409,0.211,-0.416,-0.784
291274,-335.0,6405.0,5254.0,0.41,0.208,-0.408,-0.789
291296,-219.0,6507.0,4990.0,0.411,0.205,-0.4,-0.793
291308,-221.0,6381.0,4032.0,0.412,0.202,-0.392,-0.797
291330,-129.0,6105.0,4726.0,0.414,0.197,-0.381,-0.803
291342,-199.0,5943.0,5336.0,0.415,0.19,-0.37,-0.809
291364,251.0,5927.0,5654.0,0.416,0.182,-0.359,-0.816
291386,87.0,5545.0,6496.0,0.415,0.173,-0.347,-0.823
291398,-269.0,5263.0,7652.0,0.414,0.165,-0.338,-0.829
291420,-917.0,7143.0,5182.0,0.411,0.158,-0.333,-0.834
291432,-409.0,4625.0,5418.0,0.412,0.151,-0.324,-0.838
291454,-15.0,4459.0,5954.0,0.414,0.142,-0.312,-0.843
291466,-291.0,4951.0,5590.0,0.416,0.133,-0.299,-0.849
291488,-253.0,4775.0,6482.0,0.418,0.122,-0.284,-0.854
291500,-137.0,4267.0,7008.0,0.422,0.113,-0.268,-0.858
291522,-535.0,3789.0,8174.0,0.427,0.104,-0.253,-0.862
291534,-207.0,3303.0,6960.0,0.432,0.094,-0.238,-0.865
291556,809.0,3595.0,8698.0,0.437,0.085,-0.223,-0.867
291578,353.0,3045.0,9926.0,0.441,0.077,-0.212,-0.869
291590,1173.0,3227.0,10446.0,0.444,0.072,-0.207,-0.869
291612,1419.0,3361.0,8692.0,0.443,0.07,-0.207,-0.869
291624,413.0,3147.0,6798.0,0.441,0.067,-0.207,-0.871
291646,-249.0,2979.0,7518.0,0.439,0.064,-0.205,-0.872
291658,-273.0,2941.0,8458.0,0.439,0.062,-0.203,-0.873
291680,381.0,3011.0,8122.0,0.44,0.061,-0.203,-0.873
291692,743.0,3071.0,7996.0,0.441,0.06,-0.203,-0.872
291714,535.0,2945.0,7948.0,0.441,0.06,-0.203,-0.872
291726,317.0,2983.0,7604.0,0.441,0.06,-0.204,-0.872
291748,553.0,3153.0,7504.0,0.442,0.06,-0.204,-0.872
291770,717.0,3245.0,7326.0,0.441,0.06,-0.204,-0.872
291782,43.0,3075.0,7938.0,0.441,0.059,-0.204,-0.872
291804,193.0,3017.0,7974.0,0.441,0.059,-0.204,-0.872
291816,731.0,3071.0,7718.0,0.442,0.059,-0.203,-0.872
291838,705.0,3031.0,7940.0,0.442,0.059,-0.204,-0.872
291850,359.0,3003.0,7568.0,0.442,0.059,-0.204,-0.872
291872,339.0,3081.0,7524.0,0.442,0.06,-0.204,-0.871
291884,621.0,3089.0,7762.0,0.442,0.06,-0.204,-0.871
291906,375.0,3147.0,7850.0,0.442,0.06,-0.204,-0.871
291918,401.0,3071.0,7592.0,0.442,0.06,-0.205,-0.871
291940,513.0,3135.0,7816.0,0.442,0.06,-0.205,-0.871
291962,613.0,3111.0,7498.0,0.442,0.06,-0.205,-0.871
291974,349.0,3051.0,8078.0,0.442,0.06,-0.205,-0.871
291996,411.0,3081.0,7844.0,0.442,0.061,-0.205,-0.871
292008,505.0,3069.0,7570.0,0.442,0.061,-0.206,-0.871
292030,331.0,3085.0,7810.0,0.442,0.062,-0.206,-0.871
292042,345.0,3055.0,7568.0,0.443,0.062,-0.207,-0.87
292064,575.0,3157.0,7738.0,0.443,0.062,-0.207,-0.87
292076,847.0,3219.0,7650.0,0.443,0.062,-0.207,-0.87
292098,583.0,3135.0,7704.0,0.443,0.063,-0.207,-0.87
292110,341.0,3113.0,7718.0,0.443,0.063,-0.207,-0.87
292132,283.0,3095.0,7816.0,0.443,0.064,-0.207,-0.87
292154,461.0,3161.0,7590.0,0.443,0.064,-0.207,-0.87
292166,611.0,3187.0,7560.0,0.443,0.065,-0.207,-0.87
292188,485.0,3161.0,7930.0,0.442,0.065,-0.207,-0.87
292200,147.0,3127.0,7782.0,0.442,0.065,-0.207,-0.87
292222,627.0,3195.0,7378.0,0.443,0.065,-0.207,-0.87
292234,521.0,3177.0,7614.0,0.442,0.065,-0.207,-0.87
292256,303.0,3101.0,7648.0,0.442,0.065,-0.207,-0.87
292268,407.0,3119.0,7922.0,0.442,0.065,-0.206,-0.87
292290,557.0,3159.0,7704.0,0.442,0.064,-0.206,-0.87
292302,597.0,3147.0,7716.0,0.442,0.064,-0.206,-0.871
292324,489.0,3143.0,7992.0,0.442,0.064,-0.206,-0.871
292346,281.0,3159.0,7746.0,0.442,0.065,-0.206,-0.871
292358,425.0,3125.0,7646.0,0.442,0.065,-0.206,-0.871
292380,499.0,3159.0,7730.0,0.442,0.066,-0.207,-0.87
292392,629.0,3105.0,7364.0,0.442,0.066,-0.207,-0.87
292414,425.0,3087.0,7968.0,0.442,0.066,-0.206,-0.87
292426,375.0,3169.0,7798.0,0.442,0.067,-0.206,-0.87
292448,471.0,3173.0,7504.0,0.442,0.068,-0.206,-0.87
292460,581.0,3231.0,7958.0,0.442,0.068,-0.206,-0.87
292482,321.0,3129.0,7578.0,0.442,0.069,-0.206,-0.87
292494,417.0,3219.0,7466.0,0.442,0.069,-0.206,-0.87
292516,465.0,3131.0,7540.0,0.442,0.069,-0.206,-0.87
292538,415.0,3109.0,7798.0,0.442,0.068,-0.206,-0.871
292550,341.0,3151.0,7724.0,0.441,0.068,-0.206,-0.871
292572,417.0,3143.0,7678.0,0.441,0.068,-0.205,-0.871
292584,357.0,3121.0,7668.0,0.441,0.068,-0.205,-0.871
292606,361.0,3167.0,7628.0,0.441,0.068,-0.205,-0.871
292618,386.0,3125.0,8023.0,0.441,0.067,-0.205,-0.871
292640,384.0,3179.0,7705.0,0.442,0.068,-0.205,-0.871
292652,454.0,3141.0,7617.0,0.442,0.068,-0.205,-0.871
292674,432.0,3121.0,7751.0,0.442,0.068,-0.205,-0.871
292701,542.0,3162.0,7714.0,0.442,0.068,-0.205,-0.87
292713,360.0,3167.0,7776.0,0.442,0.068,-0.206,-0.87
292725,423.0,3158.0,7308.0,0.442,0.068,-0.206,-0.87
292747,403.0,3164.0,7844.0,0.443,0.068,-0.205,-0.87
292759,355.0,3130.0,7926.0,0.443,0.068,-0.206,-0.87
292781,481.0,3192.0,7704.0,0.444,0.068,-0.206,-0.869
292793,691.0,3234.0,7612.0,0.444,0.068,-0.206,-0.869
292815,435.0,3074.0,7794.0,0.445,0.068,-0.206,-0.869
292827,331.0,3148.0,7686.0,0.445,0.069,-0.207,-0.869
292849,545.0,3134.0,7522.0,0.445,0.069,-0.207,-0.868
292861,637.0,3218.0,7642.0,0.446,0.069,-0.207,-0.868
292883,331.0,3148.0,7784.0,0.445,0.069,-0.207,-0.868
292895,267.0,3178.0,7696.0,0.446,0.07,-0.207,-0.868
292917,519.0,3308.0,7576.0,0.446,0.07,-0.208,-0.868
292939,483.0,3234.0,7510.0,0.446,0.069,-0.208,-0.868
292951,421.0,3152.0,7886.0,0.447,0.069,-0.208,-0.867
292973,535.0,3164.0,7694.0,0.447,0.069,-0.208,-0.867
292985,595.0,3164.0,7590.0,0.447,0.07,-0.209,-0.867
293007,497.0,3226.0,7618.0,0.447,0.07,-0.209,-0.867
293019,445.0,3189.0,7644.0,0.447,0.07,-0.209,-0.867
293041,361.0,3229.0,7873.0,0.448,0.07,-0.209,-0.867
293053,544.0,3212.0,7466.0,0.448,0.07,-0.209,-0.866
293075,582.0,3220.0,7627.0,0.448,0.07,-0.209,-0.866
293087,340.0,3188.0,7767.0,0.448,0.07,-0.209,-0.866
293109,514.0,3244.0,7613.0,0.449,0.07,-0.21,-0.866
293131,550.0,3248.0,7711.0,0.449,0.07,-0.21,-0.866
293143,644.0,3282.0,7571.0,0.449,0.07,-0.21,-0.866
293165,550.0,3232.0,7681.0,0.449,0.07,-0.21,-0.865
293177,584.0,3278.0,7673.0,0.449,0.07,-0.21,-0.865
293199,352.0,3226.0,7629.0,0.45,0.07,-0.211,-0.865
293211,532.0,3208.0,7551.0,0.45,0.07,-0.211,-0.865
293233,652.0,3258.0,7599.0,0.45,0.07,-0.211,-0.865
293245,488.0,3180.0,7579.0,0.45,0.07,-0.211,-0.865
293267,494.0,3266.0,7775.0,0.45,0.07,-0.211,-0.865
293279,526.0,3298.0,7617.0,0.45,0.07,-0.211,-0.865
293301,588.0,3254.0,7555.0,0.451,0.07,-0.211,-0.865
293323,504.0,3202.0,7807.0,0.451,0.07,-0.211,-0.865
293335,522.0,3194.0,7501.0,0.451,0.071,-0.211,-0.864
293357,684.0,3290.0,7425.0,0.451,0.071,-0.211,-0.864
293369,496.0,3218.0,7705.0,0.451,0.071,-0.211,-0.864
293391,472.0,3186.0,7695.0,0.451,0.07,-0.211,-0.864
293403,512.0,3288.0,7561.0,0.451,0.07,-0.211,-0.864
293425,658.0,3248.0,7623.0,0.451,0.07,-0.211,-0.864
293437,608.0,3294.0,7759.0,0.451,0.07,-0.211,-0.864
293459,560.0,3238.0,7627.0,0.452,0.071,-0.211,-0.864
293471,586.0,3280.0,7741.0,0.452,0.071,-0.212,-0.864
293493,580.0,3262.0,7533.0,0.452,0.071,-0.212,-0.864
293515,520.0,3268.0,7647.0,0.452,0.071,-0.212,-0.864
293527,498.0,3254.0,7687.0,0.452,0.071,-0.212,-0.864
293549,554.0,3262.0,7535.0,0.452,0.071,-0.212,-0.864
293561,584.0,3264.0,7719.0,0.452,0.071,-0.212,-0.863
293583,486.0,3266.0,7697.0,0.452,0.072,-0.212,-0.863
293595,576.0,3246.0,7653.0,0.452,0.072,-0.212,-0.863
293617,588.0,3312.0,7465.0,0.453,0.072,-0.212,-0.863
293629,622.0,3272.0,7591.0,0.452,0.072,-0.212,-0.863
293651,528.0,3244.0,7799.0,0.452,0.072,-0.212,-0.863
293663,650.0,3294.0,7539.0,0.453,0.072,-0.212,-0.863
293685,550.0,3230.0,7709.0,0.452,0.072,-0.212,-0.863
293707,510.0,3218.0,7517.0,0.452,0.072,-0.212,-0.863
293719,608.0,3322.0,7655.0,0.453,0.072,-0.212,-0.863
293741,698.0,3280.0,7797.0,0.453,0.072,-0.212,-0.863
293753,608.0,3258.0,7603.0,0.453,0.072,-0.212,-0.863
293775,592.0,3248.0,7537.0,0.453,0.072,-0.211,-0.863
293787,676.0,3290.0,7605.0,0.453,0.072,-0.211,-0.863
293809,452.0,3178.0,7593.0,0.453,0.072,-0.211,-0.863
293821,470.0,3164.0,7727.0,0.453,0.072,-0.211,-0.863
293843,522.0,3278.0,7565.0,0.453,0.073,-0.211,-0.863
293855,608.0,3308.0,7615.0,0.453,0.073,-0.212,-0.863
293877,600.0,3292.0,7571.0,0.453,0.073,-0.212,-0.863
293899,688.0,3370.0,7601.0,0.453,0.072,-0.212,-0.863
293911,638.0,3262.0,7645.0,0.453,0.073,-0.211,-0.863
293933,596.0,3244.0,7715.0,0.453,0.073,-0.212,-0.863
293945,492.0,3212.0,7485.0,0.453,0.073,-0.212,-0.863
293967,502.0,3234.0,7617.0,0.453,0.073,-0.212,-0.863
293979,534.0,3212.0,7695.0,0.454,0.073,-0.212,-0.863
294001,674.0,3288.0,7645.0,0.454,0.073,-0.212,-0.862
294013,592.0,3288.0,7575.0,0.454,0.073,-0.212,-0.862
294035,638.0,3278.0,7439.0,0.454,0.073,-0.212,-0.862
294047,626.0,3254.0,7725.0,0.454,0.073,-0.212,-0.862
294069,526.0,3188.0,7583.0,0.454,0.073,-0.212,-0.862
294091,634.0,3256.0,7689.0,0.454,0.073,-0.212,-0.862
294103,608.0,3218.0,7669.0,0.455,0.073,-0.212,-0.862
294125,534.0,3218.0,7649.0,0.455,0.073,-0.212,-0.862
294137,542.0,3234.0,7361.0,0.455,0.074,-0.213,-0.862
294159,628.0,3336.0,7425.0,0.455,0.074,-0.212,-0.862
294171,710.0,3304.0,7707.0,0.455,0.073,-0.212,-0.862
294193,640.0,3280.0,7505.0,0.455,0.073,-0.212,-0.862
294205,516.0,3312.0,7673.0,0.455,0.073,-0.212,-0.862
294227,570.0,3200.0,7709.0,0.455,0.074,-0.212,-0.862
294239,620.0,3240.0,7471.0,0.455,0.074,-0.212,-0.862
294261,678.0,3276.0,7515.0,0.455,0.074,-0.212,-0.862
294283,622.0,3280.0,7741.0,0.455,0.074,-0.212,-0.862
294295,596.0,3274.0,7507.0,0.455,0.074,-0.212,-0.862
294317,658.0,3306.0,7697.0,0.455,0.074,-0.212,-0.862
294329,588.0,3276.0,7557.0,0.455,0.074,-0.212,-0.862
294351,512.0,3242.0,7609.0,0.455,0.074,-0.212,-0.862
294363,580.0,3266.0,7695.0,0.455,0.073,-0.212,-0.862
294385,676.0,3260.0,7645.0,0.455,0.074,-0.212,-0.862
294397,652.0,3244.0,7505.0,0.455,0.074,-0.212,-0.862
294419,602.0,3306.0,7607.0,0.455,0.074,-0.212,-0.862
294431,572.0,3286.0,7545.0,0.455,0.074,-0.212,-0.862
294453,482.0,3242.0,7687.0,0.455,0.074,-0.212,-0.862
294475,572.0,3216.0,7713.0,0.455,0.074,-0.212,-0.862
294487,648.0,3328.0,7621.0,0.455,0.074,-0.212,-0.862
294509,660.0,3310.0,7595.0,0.455,0.074,-0.212,-0.861
294521,546.0,3268.0,7687.0,0.455,0.074,-0.213,-0.861
294543,678.0,3278.0,7429.0,0.456,0.074,-0.213,-0.861
294555,754.0,3332.0,7605.0,0.456,0.074,-0.213,-0.861
294577,596.0,3264.0,7617.0,0.456,0.074,-0.213,-0.861
294589,510.0,3222.0,7563.0,0.456,0.075,-0.213,-0.861
294611,548.0,3242.0,7605.0,0.456,0.075,-0.213,-0.861
294623,748.0,3300.0,7651.0,0.456,0.075,-0.213,-0.861
294645,636.0,3326.0,7573.0,0.456,0.075,-0.213,-0.861
294667,694.0,3306.0,7567.0,0.456,0.075,-0.213,-0.861
294679,516.0,3298.0,7679.0,0.456,0.075,-0.213,-0.861
294706,558.0,3272.0,7507.0,0.457,0.075,-0.213,-0.86
294718,594.0,3274.0,7671.0,0.457,0.075,-0.213,-0.86
294730,644.0,3316.0,7661.0,0.457,0.075,-0.214,-0.86
294752,734.0,3344.0,7447.0,0.457,0.075,-0.214,-0.86
294764,724.0,3280.0,7675.0,0.457,0.075,-0.214,-0.86
294786,602.0,3302.0,7639.0,0.457,0.075,-0.214,-0.86
294798,572.0,3302.0,7519.0,0.457,0.076,-0.214,-0.86
294820,726.0,3326.0,7623.0,0.457,0.076,-0.214,-0.86
294842,744.0,3382.0,7537.0,0.457,0.076,-0.214,-0.86
294854,466.0,3314.0,7639.0,0.457,0.076,-0.214,-0.86
294876,598.0,3272.0,7613.0,0.457,0.076,-0.213,-0.86
294888,664.0,3310.0,7631.0,0.457,0.076,-0.213,-0.86
294910,580.0,3324.0,7675.0,0.457,0.076,-0.213,-0.86
294922,620.0,3280.0,7581.0,0.457,0.076,-0.214,-0.86
294944,720.0,3320.0,7551.0,0.457,0.077,-0.214,-0.86
294956,668.0,3340.0,7539.0,0.457,0.077,-0.214,-0.86
294978,572.0,3310.0,7665.0,0.457,0.077,-0.213,-0.86
294990,666.0,3330.0,7505.0,0.457,0.077,-0.214,-0.86
295012,654.0,3348.0,7583.0,0.457,0.077,-0.214,-0.86
295034,484.0,3278.0,7701.0,0.457,0.077,-0.214,-0.86
295046,550.0,3312.0,7493.0,0.457,0.077,-0.214,-0.86
295068,670.0,3284.0,7627.0,0.458,0.078,-0.214,-0.859
295080,622.0,3332.0,7813.0,0.458,0.078,-0.215,-0.859
295102,700.0,3326.0,7529.0,0.458,0.078,-0.215,-0.859
295114,640.0,3346.0,7529.0,0.458,0.079,-0.216,-0.859
295136,498.0,3368.0,7319.0,0.458,0.079,-0.217,-0.859
295148,624.0,3378.0,7529.0,0.458,0.079,-0.217,-0.859
295170,678.0,3342.0,7621.0,0.458,0.079,-0.217,-0.858
295182,686.0,3354.0,7655.0,0.458,0.079,-0.217,-0.858
295204,636.0,3404.0,7521.0,0.458,0.079,-0.217,-0.858
295226,608.0,3406.0,7519.0,0.458,0.079,-0.218,-0.858
295238,622.0,3380.0,7577.0,0.458,0.08,-0.218,-0.858
295260,650.0,3390.0,7543.0,0.458,0.08,-0.218,-0.858
295272,616.0,3380.0,7587.0,0.458,0.08,-0.218,-0.858
295294,666.0,3368.0,7495.0,0.458,0.08,-0.218,-0.858
295306,660.0,3310.0,7487.0,0.458,0.08,-0.218,-0.858
295328,642.0,3400.0,7591.0,0.458,0.08,-0.218,-0.858
295340,608.0,3394.0,7573.0,0.458,0.08,-0.218,-0.858
295362,644.0,3432.0,7523.0,0.458,0.08,-0.218,-0.858
295374,636.0,3438.0,7587.0,0.458,0.081,-0.218,-0.858
295396,616.0,3364.0,7541.0,0.458,0.081,-0.219,-0.858
295418,572.0,3380.0,7569.0,0.458,0.081,-0.219,-0.858
295430,700.0,3394.0,7543.0,0.458,0.081,-0.219,-0.858
295452,616.0,3428.0,7551.0,0.458,0.081,-0.219,-0.858
295464,664.0,3362.0,7631.0,0.458,0.081,-0.22,-0.858
295486,616.0,3448.0,7417.0,0.458,0.081,-0.22,-0.857
295498,690.0,3496.0,7381.0,0.458,0.081,-0.22,-0.857
295520,624.0,3442.0,7569.0,0.458,0.081,-0.221,-0.857
295532,688.0,3456.0,7593.0,0.458,0.082,-0.221,-0.857
295554,828.0,3488.0,7581.0,0.459,0.082,-0.221,-0.857
295566,696.0,3446.0,7445.0,0.458,0.082,-0.221,-0.857
295588,532.0,3432.0,7463.0,0.458,0.082,-0.221,-0.857
295610,588.0,3466.0,7623.0,0.458,0.082,-0.221,-0.857
295622,672.0,3440.0,7571.0,0.459,0.082,-0.221,-0.857
295644,744.0,3456.0,7469.0,0.459,0.082,-0.221,-0.857
295656,806.0,3468.0,7591.0,0.458,0.082,-0.221,-0.857
295678,660.0,3438.0,7465.0,0.458,0.082,-0.221,-0.857
295690,500.0,3446.0,7537.0,0.458,0.082,-0.221,-0.857
295712,498.0,3422.0,7559.0,0.458,0.082,-0.221,-0.857
295724,650.0,3476.0,7659.0,0.458,0.082,-0.221,-0.857
295746,786.0,3494.0,7493.0,0.459,0.082,-0.221,-0.857
295758,692.0,3430.0,7535.0,0.458,0.082,-0.221,-0.857
295780,606.0,3354.0,7623.0,0.458,0.082,-0.221,-0.857
295802,528.0,3392.0,7511.0,0.459,0.082,-0.221,-0.857
295814,608.0,3478.0,7525.0,0.459,0.083,-0.221,-0.857
295836,690.0,3456.0,7489.0,0.459,0.083,-0.221,-0.857
295848,752.0,3492.0,7537.0,0.459,0.083,-0.221,-0.856
295870,664.0,3468.0,7561.0,0.459,0.083,-0.221,-0.856
295882,672.0,3496.0,7525.0,0.459,0.083,-0.221,-0.856
295904,732.0,3444.0,7603.0,0.459,0.083,-0.221,-0.856
295916,708.0,3418.0,7491.0,0.459,0.083,-0.221,-0.856
295938,594.0,3442.0,7593.0,0.459,0.083,-0.221,-0.856
295950,644.0,3434.0,7557.0,0.459,0.084,-0.222,-0.856
295972,698.0,3406.0,7435.0,0.459,0.084,-0.222,-0.856
295994,654.0,3446.0,7463.0,0.46,0.084,-0.222,-0.856
296006,654.0,3464.0,7655.0,0.459,0.084,-0.222,-0.856
296028,578.0,3470.0,7591.0,0.459,0.084,-0.222,-0.856
296040,650.0,3462.0,7401.0,0.46,0.084,-0.222,-0.856
296062,684.0,3452.0,7479.0,0.46,0.085,-0.222,-0.856
296074,610.0,3478.0,7587.0,0.459,0.085,-0.222,-0.856
296096,582.0,3540.0,7497.0,0.46,0.085,-0.222,-0.856
296108,728.0,3516.0,7417.0,0.46,0.085,-0.222,-0.856
296130,582.0,3474.0,7549.0,0.46,0.085,-0.222,-0.856
296142,566.0,3432.0,7491.0,0.46,0.085,-0.222,-0.856
296164,684.0,3488.0,7487.0,0.46,0.085,-0.222,-0.855
296186,686.0,3466.0,7585.0,0.46,0.086,-0.222,-0.855
296198,754.0,3510.0,7349.0,0.46,0.086,-0.223,-0.855
296220,650.0,3540.0,7475.0,0.46,0.086,-0.222,-0.855
296232,572.0,3500.0,7695.0,0.46,0.086,-0.222,-0.855
296254,570.0,3504.0,7423.0,0.46,0.086,-0.223,-0.855
296266,740.0,3504.0,7527.0,0.46,0.086,-0.223,-0.855
296288,604.0,3440.0,7519.0,0.461,0.086,-0.223,-0.855
296300,660.0,3518.0,7451.0,0.461,0.086,-0.223,-0.855
296322,772.0,3530.0,7505.0,0.461,0.087,-0.223,-0.855
296334,664.0,3512.0,7471.0,0.461,0.087,-0.223,-0.855
296356,616.0,3452.0,7551.0,0.461,0.087,-0.223,-0.855
296378,574.0,3482.0,7559.0,0.461,0.087,-0.223,-0.855
296390,674.0,3490.0,7505.0,0.461,0.087,-0.223,-0.854
296412,664.0,3474.0,7517.0,0.461,0.087,-0.224,-0.854
296424,624.0,3496.0,7369.0,0.461,0.087,-0.224,-0.854
296446,756.0,3506.0,7357.0,0.462,0.087,-0.224,-0.854
296458,674.0,3538.0,7563.0,0.462,0.087,-0.224,-0.854
296480,598.0,3506.0,7537.0,0.462,0.087,-0.224,-0.854
296492,680.0,3572.0,7545.0,0.462,0.087,-0.224,-0.854
296514,728.0,3572.0,7513.0,0.462,0.088,-0.224,-0.854
296526,578.0,3514.0,7483.0,0.462,0.088,-0.224,-0.854
296548,642.0,3566.0,7437.0,0.462,0.088,-0.224,-0.854
296570,772.0,3566.0,7561.0,0.462,0.088,-0.224,-0.853
296582,690.0,3486.0,7367.0,0.463,0.088,-0.224,-0.853
296604,714.0,3574.0,7657.0,0.462,0.088,-0.224,-0.854
296616,546.0,3448.0,7487.0,0.462,0.088,-0.224,-0.854
296638,526.0,3504.0,7499.0,0.462,0.088,-0.224,-0.853
296650,720.0,3550.0,7555.0,0.463,0.088,-0.224,-0.853
296672,840.0,3544.0,7447.0,0.463,0.087,-0.224,-0.853
296684,790.0,3500.0,7529.0,0.463,0.087,-0.224,-0.853
296711,590.0,3466.0,7579.0,0.463,0.087,-0.224,-0.853
296723,462.0,3414.0,7463.0,0.463,0.087,-0.223,-0.853
296745,636.0,3444.0,7477.0,0.464,0.088,-0.223,-0.853
296757,662.0,3496.0,7515.0,0.464,0.088,-0.224,-0.853
296779,630.0,3540.0,7497.0,0.464,0.088,-0.224,-0.853
296791,738.0,3630.0,7425.0,0.464,0.088,-0.224,-0.853
296813,718.0,3618.0,7333.0,0.464,0.088,-0.224,-0.853
296825,696.0,3592.0,7535.0,0.464,0.088,-0.224,-0.853
296847,652.0,3506.0,7573.0,0.464,0.088,-0.224,-0.853
296859,644.0,3476.0,7417.0,0.464,0.088,-0.224,-0.853
296881,618.0,3470.0,7513.0,0.464,0.088,-0.224,-0.853
296893,722.0,3458.0,7509.0,0.464,0.088,-0.224,-0.852
296915,750.0,3550.0,7605.0,0.465,0.088,-0.224,-0.852
296937,884.0,3562.0,7395.0,0.464,0.088,-0.224,-0.852
296949,626.0,3588.0,7605.0,0.464,0.088,-0.224,-0.853
296971,524.0,3450.0,7537.0,0.464,0.088,-0.224,-0.853
296983,676.0,3436.0,7501.0,0.464,0.088,-0.224,-0.852
297005,674.0,3508.0,7607.0,0.465,0.088,-0.224,-0.852
297017,754.0,3564.0,7477.0,0.465,0.088,-0.224,-0.852
297039,662.0,3560.0,7591.0,0.465,0.088,-0.224,-0.852
297051,718.0,3580.0,7363.0,0.465,0.088,-0.224,-0.852
297073,692.0,3516.0,7561.0,0.465,0.089,-0.224,-0.852
297085,656.0,3500.0,7555.0,0.465,0.089,-0.225,-0.852
297107,666.0,3532.0,7433.0,0.465,0.089,-0.225,-0.852
297129,698.0,3512.0,7463.0,0.465,0.089,-0.225,-0.852
297141,672.0,3510.0,7535.0,0.465,0.089,-0.225,-0.851
297163,808.0,3612.0,7357.0,0.465,0.089,-0.225,-0.852
297175,636.0,3556.0,7473.0,0.465,0.089,-0.225,-0.852
297197,574.0,3522.0,7501.0,0.465,0.089,-0.225,-0.852
297209,822.0,3540.0,7559.0,0.465,0.089,-0.225,-0.851
297231,704.0,3506.0,7491.0,0.465,0.089,-0.225,-0.851
297243,704.0,3516.0,7407.0,0.465,0.089,-0.225,-0.851
297265,704.0,3550.0,7487.0,0.465,0.089,-0.225,-0.851
297277,646.0,3548.0,7483.0,0.465,0.09,-0.226,-0.851
297299,724.0,3560.0,7497.0,0.465,0.09,-0.226,-0.851
297321,608.0,3560.0,7637.0,0.465,0.09,-0.226,-0.851
297333,684.0,3484.0,7557.0,0.465,0.09,-0.226,-0.851
297355,680.0,3492.0,7333.0,0.466,0.09,-0.227,-0.851
297367,994.0,3586.0,7241.0,0.466,0.09,-0.227,-0.85
297389,716.0,3584.0,7647.0,0.465,0.09,-0.227,-0.851
297401,394.0,3536.0,7333.0,0.465,0.09,-0.228,-0.851
297423,704.0,3594.0,7463.0,0.466,0.09,-0.228,-0.85
297435,962.0,3634.0,7351.0,0.466,0.09,-0.228,-0.85
297457,614.0,3636.0,7631.0,0.465,0.09,-0.228,-0.851
297469,642.0,3630.0,7351.0,0.465,0.09,-0.228,-0.85
297491,780.0,3554.0,7441.0,0.465,0.09,-0.228,-0.851
297513,652.0,3648.0,7397.0,0.465,0.09,-0.228,-0.851
297525,634.0,3544.0,7401.0,0.465,0.09,-0.228,-0.851
297547,614.0,3624.0,7499.0,0.465,0.09,-0.227,-0.851
297559,810.0,3614.0,7425.0,0.466,0.09,-0.227,-0.851
297581,692.0,3582.0,7517.0,0.466,0.09,-0.227,-0.851
297593,678.0,3566.0,7429.0,0.466,0.09,-0.228,-0.85
297615,814.0,3544.0,7329.0,0.466,0.09,-0.227,-0.85
297627,768.0,3598.0,7623.0,0.465,0.09,-0.227,-0.851
297649,544.0,3546.0,7585.0,0.465,0.09,-0.227,-0.851
297661,624.0,3568.0,7491.0,0.465,0.09,-0.227,-0.851
297683,698.0,3560.0,7459.0,0.466,0.09,-0.227,-0.851
297705,786.0,3560.0,7535.0,0.466,0.09,-0.227,-0.85
297717,812.0,3526.0,7203.0,0.466,0.09,-0.227,-0.85
297739,730.0,3628.0,7485.0,0.465,0.09,-0.227,-0.851
297751,508.0,3570.0,7577.0,0.465,0.09,-0.227,-0.851
297773,700.0,3614.0,7335.0,0.466,0.09,-0.227,-0.851
297785,864.0,3636.0,7481.0,0.466,0.09,-0.227,-0.851
297807,582.0,3596.0,7561.0,0.465,0.09,-0.227,-0.851
297819,646.0,3552.0,7419.0,0.465,0.09,-0.227,-0.851
297841,908.0,3534.0,7379.0,0.465,0.09,-0.227,-0.851
297853,708.0,3586.0,7535.0,0.465,0.09,-0.227,-0.851
297875,550.0,3512.0,7547.0,0.465,0.09,-0.227,-0.851
297897,614.0,3570.0,7557.0,0.465,0.091,-0.227,-0.851
297909,724.0,3596.0,7535.0,0.466,0.091,-0.227,-0.851
297931,780.0,3592.0,7403.0,0.466,0.091,-0.227,-0.85
297943,696.0,3606.0,7295.0,0.466,0.091,-0.227,-0.85
297965,682.0,3538.0,7719.0,0.466,0.091,-0.227,-0.85
297977,736.0,3630.0,7303.0,0.466,0.092,-0.227,-0.85
297999,800.0,3634.0,7531.0,0.466,0.092,-0.227,-0.85
298011,724.0,3662.0,7413.0,0.466,0.092,-0.227,-0.85
298033,584.0,3600.0,7537.0,0.465,0.092,-0.227,-0.851
298045,612.0,3652.0,7475.0,0.465,0.092,-0.227,-0.85
298067,714.0,3616.0,7427.0,0.466,0.092,-0.227,-0.85
298089,724.0,3602.0,7469.0,0.466,0.092,-0.227,-0.85
298101,702.0,3556.0,7537.0,0.466,0.092,-0.227,-0.85
298123,676.0,3546.0,7447.0,0.466,0.092,-0.227,-0.85
298135,716.0,3584.0,7391.0,0.466,0.092,-0.227,-0.85
298157,668.0,3578.0,7527.0,0.466,0.092,-0.227,-0.85
298169,718.0,3588.0,7507.0,0.466,0.092,-0.227,-0.85
298191,688.0,3560.0,7525.0,0.466,0.092,-0.227,-0.85
298203,692.0,3624.0,7315.0,0.466,0.092,-0.227,-0.85
298225,662.0,3540.0,7495.0,0.466,0.092,-0.227,-0.85
298237,670.0,3592.0,7605.0,0.466,0.092,-0.227,-0.85
298259,732.0,3590.0,7253.0,0.466,0.092,-0.227,-0.85
298281,746.0,3622.0,7621.0,0.466,0.092,-0.227,-0.85
298293,696.0,3662.0,7449.0,0.466,0.092,-0.227,-0.85
298315,650.0,3562.0,7361.0,0.466,0.092,-0.227,-0.85
298327,634.0,3534.0,7611.0,0.466,0.092,-0.227,-0.85
298349,700.0,3570.0,7349.0,0.466,0.092,-0.227,-0.85
298361,680.0,3574.0,7513.0,0.467,0.092,-0.227,-0.85
298383,740.0,3582.0,7447.0,0.467,0.092,-0.227,-0.85
298395,642.0,3580.0,7435.0,0.467,0.093,-0.227,-0.85
298417,790.0,3584.0,7297.0,0.467,0.093,-0.227,-0.85
298429,688.0,3572.0,7583.0,0.467,0.092,-0.227,-0.85
298451,630.0,3604.0,7429.0,0.467,0.093,-0.227,-0.85
298473,716.0,3566.0,7445.0,0.467,0.093,-0.227,-0.85
298485,676.0,3572.0,7439.0,0.467,0.093,-0.227,-0.85
298507,706.0,3592.0,7479.0,0.467,0.093,-0.227,-0.85
298519,670.0,3622.0,7583.0,0.467,0.093,-0.227,-0.85
298541,708.0,3586.0,7453.0,0.467,0.093,-0.227,-0.85
298553,762.0,3602.0,7429.0,0.467,0.093,-0.227,-0.85
298575,718.0,3580.0,7621.0,0.467,0.093,-0.227,-0.85
298587,652.0,3638.0,7273.0,0.467,0.093,-0.227,-0.85
298609,810.0,3604.0,7445.0,0.467,0.093,-0.227,-0.85
298621,674.0,3630.0,7459.0,0.467,0.093,-0.227,-0.85
298643,656.0,3608.0,7523.0,0.467,0.093,-0.227,-0.85
298665,684.0,3646.0,7479.0,0.467,0.093,-0.227,-0.85
298677,702.0,3578.0,7609.0,0.467,0.093,-0.227,-0.849
298699,688.0,3548.0,7315.0,0.467,0.093,-0.227,-0.849
298716,636.0,3546.0,7427.0,0.467,0.093,-0.227,-0.849
298728,664.0,3590.0,7389.0,0.467,0.093,-0.227,-0.849
298750,750.0,3576.0,7579.0,0.467,0.093,-0.227,-0.849
298762,680.0,3650.0,7483.0,0.467,0.093,-0.227,-0.849
298784,708.0,3592.0,7445.0,0.467,0.093,-0.227,-0.849
298796,720.0,3566.0,7285.0,0.467,0.093,-0.227,-0.849
298818,658.0,3576.0,7531.0,0.467,0.093,-0.227,-0.849
298830,702.0,3520.0,7441.0,0.468,0.093,-0.227,-0.849
298852,802.0,3536.0,7521.0,0.468,0.093,-0.227,-0.849
298874,698.0,3522.0,7541.0,0.468,0.093,-0.227,-0.849
298886,688.0,3584.0,7473.0,0.468,0.094,-0.227,-0.849
298908,712.0,3618.0,7423.0,0.468,0.094,-0.228,-0.849
298920,820.0,3654.0,7385.0,0.468,0.094,-0.228,-0.849
298942,674.0,3524.0,7491.0,0.468,0.094,-0.228,-0.849
298954,626.0,3572.0,7421.0,0.468,0.094,-0.228,-0.849
298976,702.0,3624.0,7365.0,0.468,0.094,-0.228,-0.849
298988,634.0,3602.0,7529.0,0.468,0.094,-0.228,-0.849
299010,720.0,3582.0,7375.0,0.468,0.095,-0.228,-0.848
299022,858.0,3676.0,7397.0,0.468,0.095,-0.228,-0.848
299044,690.0,3614.0,7531.0,0.468,0.095,-0.228,-0.848
299066,694.0,3702.0,7279.0,0.468,0.095,-0.229,-0.848
299078,690.0,3586.0,7523.0,0.468,0.095,-0.228,-0.849
299100,510.0,3602.0,7535.0,0.468,0.095,-0.229,-0.849
299112,862.0,3218.0,7463.0,0.468,0.095,-0.229,-0.848
299134,684.0,3728.0,7363.0,0.468,0.096,-0.229,-0.848
299146,678.0,3602.0,7377.0,0.468,0.096,-0.229,-0.848
299168,718.0,3714.0,7355.0,0.468,0.096,-0.23,-0.848
299180,740.0,3662.0,7361.0,0.468,0.096,-0.23,-0.848
299202,706.0,3712.0,7533.0,0.467,0.096,-0.23,-0.848
299224,558.0,3638.0,7413.0,0.467,0.097,-0.23,-0.848
299236,722.0,3676.0,7401.0,0.467,0.097,-0.23,-0.848
299258,750.0,3700.0,7485.0,0.467,0.097,-0.23,-0.848
299270,682.0,3666.0,7303.0,0.467,0.098,-0.231,-0.848
299292,638.0,3634.0,7407.0,0.467,0.098,-0.231,-0.848
299304,672.0,3708.0,7359.0,0.467,0.098,-0.231,-0.848
299326,676.0,3672.0,7469.0,0.467,0.098,-0.231,-0.848
299338,660.0,3672.0,7371.0,0.467,0.098,-0.231,-0.848
299360,682.0,3718.0,7473.0,0.467,0.098,-0.231,-0.848
299372,712.0,3690.0,7485.0,0.467,0.098,-0.231,-0.848
299394,710.0,3696.0,7451.0,0.467,0.099,-0.232,-0.848
299416,696.0,3718.0,7377.0,0.467,0.099,-0.232,-0.848
299428,800.0,3720.0,7283.0,0.467,0.099,-0.232,-0.848
299450,626.0,3720.0,7375.0,0.467,0.099,-0.233,-0.847
299462,690.0,3702.0,7471.0,0.467,0.099,-0.233,-0.847
299484,668.0,3714.0,7457.0,0.467,0.1,-0.233,-0.847
299496,630.0,3690.0,7475.0,0.467,0.1,-0.234,-0.847
299518,756.0,3754.0,7295.0,0.466,0.1,-0.235,-0.847
299530,812.0,3756.0,7327.0,0.466,0.1,-0.235,-0.847
299552,836.0,3784.0,7235.0,0.466,0.1,-0.235,-0.847
299564,580.0,3738.0,7443.0,0.466,0.1,-0.235,-0.847
299586,504.0,3828.0,7479.0,0.466,0.1,-0.236,-0.847
299608,842.0,3780.0,7355.0,0.466,0.1,-0.236,-0.847
299620,978.0,3840.0,7247.0,0.466,0.1,-0.236,-0.847
299642,606.0,3776.0,7379.0,0.466,0.1,-0.236,-0.847
299654,578.0,3798.0,7401.0,0.466,0.1,-0.236,-0.847
299676,832.0,3760.0,7397.0,0.466,0.1,-0.236,-0.847
299688,802.0,3838.0,7263.0,0.466,0.1,-0.237,-0.847
299710,694.0,3738.0,7483.0,0.466,0.1,-0.237,-0.847
299722,716.0,3784.0,7363.0,0.466,0.1,-0.237,-0.847
299744,834.0,3710.0,7281.0,0.466,0.1,-0.237,-0.847
299756,686.0,3760.0,7379.0,0.466,0.1,-0.237,-0.847
299778,634.0,3776.0,7449.0,0.466,0.1,-0.237,-0.847
299800,674.0,3812.0,7361.0,0.466,0.101,-0.238,-0.847
299812,728.0,3852.0,7233.0,0.466,0.101,-0.238,-0.846
299834,702.0,3780.0,7275.0,0.466,0.101,-0.238,-0.846
299846,712.0,3808.0,7439.0,0.466,0.101,-0.238,-0.846
299868,734.0,3820.0,7455.0,0.466,0.101,-0.238,-0.846
299880,702.0,3802.0,7453.0,0.466,0.101,-0.239,-0.846
299902,740.0,3820.0,7293.0,0.466,0.101,-0.239,-0.846
299914,762.0,3826.0,7275.0,0.466,0.101,-0.239,-0.846
299936,714.0,3806.0,7291.0,0.466,0.102,-0.239,-0.846
299948,700.0,3816.0,7293.0,0.466,0.102,-0.239,-0.846
299970,660.0,3828.0,7349.0,0.466,0.102,-0.239,-0.846
299992,700.0,3838.0,7437.0,0.466,0.102,-0.239,-0.846
300004,716.0,3812.0,7307.0,0.466,0.102,-0.24,-0.846
300026,830.0,3808.0,7305.0,0.466,0.102,-0.24,-0.845
300038,648.0,3834.0,7349.0,0.466,0.102,-0.24,-0.845
300060,612.0,3802.0,7327.0,0.466,0.102,-0.24,-0.845
300072,700.0,3828.0,7425.0,0.466,0.102,-0.24,-0.845
300094,740.0,3832.0,7323.0,0.467,0.102,-0.241,-0.845
300106,824.0,3828.0,7261.0,0.467,0.102,-0.241,-0.845
300128,728.0,3860.0,7265.0,0.467,0.103,-0.241,-0.845
300140,672.0,3798.0,7355.0,0.467,0.103,-0.241,-0.844
300162,808.0,3854.0,7337.0,0.467,0.103,-0.241,-0.844
300184,778.0,3914.0,7267.0,0.467,0.103,-0.242,-0.844
300196,720.0,3858.0,7277.0,0.468,0.103,-0.242,-0.844
300218,780.0,3902.0,7351.0,0.468,0.103,-0.242,-0.844
300230,670.0,3844.0,7443.0,0.468,0.103,-0.242,-0.844
300252,702.0,3906.0,7231.0,0.468,0.103,-0.242,-0.844
300264,660.0,3788.0,7429.0,0.468,0.103,-0.242,-0.844
300286,818.0,3840.0,7379.0,0.468,0.103,-0.242,-0.844
300298,836.0,3872.0,7223.0,0.468,0.103,-0.242,-0.844
300320,638.0,3838.0,7447.0,0.468,0.103,-0.242,-0.844
300332,822.0,3870.0,7411.0,0.468,0.104,-0.242,-0.843
300354,700.0,3806.0,7405.0,0.468,0.104,-0.242,-0.843
300376,626.0,3940.0,7311.0,0.468,0.105,-0.243,-0.843
300388,668.0,3920.0,7099.0,0.468,0.105,-0.243,-0.843
300410,766.0,3958.0,7265.0,0.469,0.105,-0.243,-0.843
300422,896.0,3842.0,7549.0,0.469,0.106,-0.243,-0.843
300444,732.0,3934.0,7349.0,0.468,0.106,-0.243,-0.843
300456,504.0,3886.0,7329.0,0.468,0.107,-0.243,-0.843
300478,588.0,3884.0,7335.0,0.468,0.108,-0.244,-0.842
300490,752.0,3976.0,7399.0,0.469,0.109,-0.244,-0.842
300512,726.0,3970.0,7311.0,0.469,0.109,-0.244,-0.842
300524,634.0,3944.0,7041.0,0.469,0.11,-0.245,-0.842
300546,726.0,3936.0,7205.0,0.469,0.11,-0.245,-0.842
300568,696.0,3998.0,7399.0,0.469,0.111,-0.245,-0.842
300580,662.0,3942.0,7259.0,0.469,0.111,-0.245,-0.841
300602,532.0,4010.0,7315.0,0.469,0.112,-0.245,-0.841
300614,522.0,3888.0,7507.0,0.469,0.112,-0.245,-0.841
300636,634.0,3986.0,7607.0,0.47,0.114,-0.246,-0.84
300648,680.0,3968.0,7543.0,0.47,0.115,-0.247,-0.839
300670,600.0,3978.0,7653.0,0.471,0.117,-0.248,-0.839
300682,784.0,3976.0,7681.0,0.471,0.12,-0.25,-0.837
300704,1004.0,4048.0,7563.0,0.47,0.125,-0.254,-0.836
300721,360.0,4356.0,7515.0,0.468,0.129,-0.26,-0.835
300733,148.0,4306.0,6083.0,0.466,0.133,-0.266,-0.833
300755,274.0,4366.0,5661.0,0.466,0.134,-0.27,-0.832
300777,452.0,4518.0,6613.0,0.466,0.135,-0.271,-0.831
300789,612.0,4456.0,7571.0,0.466,0.135,-0.273,-0.831
300811,916.0,4378.0,7929.0,0.465,0.136,-0.277,-0.83
300823,996.0,5158.0,7441.0,0.463,0.138,-0.283,-0.829
300845,612.0,5064.0,6863.0,0.46,0.141,-0.289,-0.828
300857,636.0,4796.0,7039.0,0.458,0.144,-0.294,-0.826
300879,1214.0,4758.0,7575.0,0.456,0.148,-0.299,-0.825
300891,2980.0,7400.0,10907.0,0.454,0.153,-0.307,-0.822
300913,1916.0,4974.0,7621.0,0.443,0.163,-0.324,-0.82
300925,326.0,5176.0,5871.0,0.429,0.17,-0.342,-0.819
300947,-856.0,5270.0,5085.0,0.416,0.177,-0.359,-0.817
300969,-1354.0,5726.0,4923.0,0.406,0.183,-0.373,-0.814
300981,-808.0,5850.0,4927.0,0.401,0.189,-0.385,-0.809
301003,156.0,6074.0,5141.0,0.398,0.195,-0.396,-0.804
301015,1014.0,6158.0,5429.0,0.395,0.2,-0.407,-0.799
301037,1378.0,6398.0,5487.0,0.391,0.206,-0.418,-0.794
301049,2180.0,6890.0,5857.0,0.383,0.214,-0.429,-0.789
301071,2864.0,6872.0,5075.0,0.369,0.223,-0.443,-0.786
301083,2344.0,6632.0,4943.0,0.347,0.231,-0.459,-0.785
301105,1478.0,6998.0,3237.0,0.325,0.249,-0.477,-0.778
301127,-48.0,6832.0,4203.0,0.291,0.26,-0.498,-0.774
301139,-1066.0,6104.0,3113.0,0.255,0.271,-0.518,-0.77
301161,-1510.0,5578.0,2399.0,0.221,0.282,-0.535,-0.765
301173,-2024.0,8062.0,1745.0,0.191,0.295,-0.549,-0.758
301195,-2950.0,7302.0,905.0,0.162,0.307,-0.561,-0.751
301207,-3304.0,6656.0,539.0,0.135,0.317,-0.571,-0.745
301229,-3072.0,5334.0,421.0,0.113,0.327,-0.581,-0.737
301241,-3718.0,8368.0,-675.0,0.095,0.339,-0.586,-0.729
301263,-3822.0,7124.0,-483.0,0.081,0.349,-0.59,-0.723
301275,-4038.0,7432.0,-351.0,0.07,0.357,-0.593,-0.718
301297,-4266.0,7310.0,-1063.0,0.061,0.363,-0.595,-0.715
301319,-4178.0,7566.0,-705.0,0.056,0.368,-0.595,-0.713
301331,-3832.0,7526.0,-23.0,0.054,0.374,-0.593,-0.711
301353,-2982.0,7262.0,1235.0,0.052,0.378,-0.59,-0.711
301365,-3184.0,8038.0,383.0,0.048,0.382,-0.587,-0.712
301387,-3656.0,7342.0,569.0,0.044,0.386,-0.585,-0.712
301399,-3756.0,7456.0,345.0,0.041,0.392,-0.583,-0.711
301421,-3944.0,8140.0,825.0,0.04,0.401,-0.581,-0.707
301433,-4096.0,6792.0,-345.0,0.035,0.406,-0.58,-0.706
301455,-4936.0,6930.0,-121.0,0.032,0.412,-0.577,-0.704
301467,-5342.0,6866.0,99.0,0.03,0.414,-0.576,-0.704
301489,-5006.0,6992.0,37.0,0.03,0.414,-0.576,-0.704
301501,-4528.0,7140.0,33.0,0.032,0.415,-0.576,-0.704
301523,-3936.0,7388.0,293.0,0.035,0.415,-0.576,-0.704
301545,-3690.0,7328.0,735.0,0.037,0.415,-0.576,-0.704
301557,-3766.0,7348.0,617.0,0.037,0.415,-0.576,-0.703
301579,-4208.0,7230.0,243.0,0.036,0.414,-0.577,-0.703
301591,-4250.0,7166.0,73.0,0.036,0.414,-0.577,-0.703
301613,-4060.0,7160.0,147.0,0.037,0.414,-0.578,-0.702
301625,-3612.0,7338.0,-325.0,0.039,0.416,-0.577,-0.701
301647,-4120.0,7230.0,445.0,0.039,0.417,-0.577,-0.702
301659,-4476.0,7168.0,301.0,0.039,0.417,-0.577,-0.702
301681,-4240.0,7168.0,229.0,0.04,0.416,-0.577,-0.701
301693,-3890.0,7196.0,189.0,0.041,0.416,-0.578,-0.701
301715,-3942.0,7246.0,303.0,0.041,0.416,-0.578,-0.701
301737,-4132.0,7190.0,289.0,0.041,0.416,-0.578,-0.701
301749,-4088.0,7286.0,223.0,0.041,0.416,-0.578,-0.701
301771,-4016.0,7324.0,155.0,0.041,0.416,-0.579,-0.7
301783,-4052.0,7324.0,103.0,0.041,0.415,-0.579,-0.7
301805,-4108.0,7254.0,121.0,0.041,0.415,-0.58,-0.7
301817,-4052.0,7292.0,175.0,0.041,0.415,-0.58,-0.7
301839,-4002.0,7220.0,295.0,0.042,0.415,-0.58,-0.7
301851,-4044.0,7190.0,259.0,0.042,0.415,-0.58,-0.7
301873,-4196.0,7238.0,143.0,0.042,0.415,-0.58,-0.7
301885,-4016.0,7232.0,223.0,0.043,0.414,-0.58,-0.7
301907,-3944.0,7274.0,215.0,0.043,0.414,-0.58,-0.7
301929,-4022.0,7296.0,301.0,0.043,0.414,-0.58,-0.7
301941,-4006.0,7272.0,321.0,0.044,0.414,-0.58,-0.7
301963,-3998.0,7306.0,279.0,0.044,0.414,-0.581,-0.7
301975,-3916.0,7240.0,251.0,0.044,0.413,-0.581,-0.7
301997,-3940.0,7230.0,219.0,0.044,0.413,-0.581,-0.699
302009,-4058.0,7282.0,195.0,0.043,0.413,-0.582,-0.699
302031,-4171.0,7276.0,139.0,0.043,0.413,-0.582,-0.699
302043,-4111.0,7284.0,181.0,0.044,0.413,-0.582,-0.699
302065,-4071.0,7263.0,269.0,0.044,0.413,-0.582,-0.699
302087,-4006.0,7273.0,194.0,0.044,0.413,-0.582,-0.699
302099,-4038.0,7267.0,190.0,0.044,0.413,-0.582,-0.699
302121,-4062.0,7167.0,250.0,0.044,0.413,-0.583,-0.699
302133,-3944.0,7243.0,314.0,0.044,0.412,-0.583,-0.699
302155,-3849.0,7243.0,350.0,0.044,0.412,-0.583,-0.699
302167,-4016.0,7288.0,206.0,0.044,0.412,-0.583,-0.699
302189,-4148.0,7274.0,144.0,0.044,0.412,-0.584,-0.698
302201,-4086.0,7286.0,60.0,0.044,0.412,-0.584,-0.698
302223,-4046.0,7300.0,132.0,0.045,0.412,-0.584,-0.698
302235,-3864.0,7280.0,218.0,0.045,0.412,-0.584,-0.698
302257,-3996.0,7236.0,240.0,0.045,0.412,-0.584,-0.698
302269,-4010.0,7252.0,214.0,0.045,0.412,-0.584,-0.698
302291,-4032.0,7222.0,136.0,0.045,0.412,-0.584,-0.698
302313,-4056.0,7348.0,190.0,0.046,0.412,-0.584,-0.698
302325,-4026.0,7258.0,310.0,0.046,0.411,-0.584,-0.698
302347,-4050.0,7380.0,196.0,0.046,0.411,-0.584,-0.698
302359,-3920.0,7350.0,86.0,0.046,0.411,-0.585,-0.698
302381,-3990.0,7120.0,492.0,0.045,0.411,-0.585,-0.698
302393,-4934.0,6834.0,60.0,0.045,0.411,-0.584,-0.699
302415,-3670.0,7490.0,256.0,0.048,0.411,-0.584,-0.698
302427,-3344.0,7286.0,196.0,0.049,0.411,-0.583,-0.699
302449,-3970.0,7348.0,664.0,0.05,0.411,-0.583,-0.699
302461,-3764.0,7272.0,666.0,0.05,0.411,-0.583,-0.699
302483,-3982.0,7300.0,544.0,0.049,0.411,-0.583,-0.699
302505,-4012.0,7186.0,172.0,0.049,0.411,-0.584,-0.699
302517,-4002.0,7294.0,126.0,0.049,0.411,-0.584,-0.698
302539,-3900.0,7268.0,228.0,0.049,0.411,-0.584,-0.698
302551,-3878.0,7320.0,138.0,0.049,0.41,-0.585,-0.698
302573,-4066.0,7290.0,260.0,0.048,0.41,-0.585,-0.698
302585,-4044.0,7200.0,256.0,0.048,0.41,-0.585,-0.698
302607,-4032.0,7150.0,156.0,0.048,0.41,-0.585,-0.698
302619,-4016.0,7244.0,198.0,0.048,0.41,-0.585,-0.698
302641,-3988.0,7350.0,306.0,0.049,0.41,-0.585,-0.698
302653,-3934.0,7238.0,306.0,0.049,0.41,-0.585,-0.698
302675,-4076.0,7336.0,264.0,0.048,0.41,-0.586,-0.698
302697,-4116.0,7266.0,226.0,0.048,0.41,-0.586,-0.697
302709,-4036.0,7266.0,276.0,0.048,0.409,-0.587,-0.697
302726,-3960.0,7220.0,176.0,0.048,0.409,-0.587,-0.697
302748,-4052.0,7196.0,94.0,0.048,0.409,-0.587,-0.697
302760,-4040.0,7170.0,94.0,0.049,0.409,-0.587,-0.697
302782,-4136.0,7204.0,38.0,0.05,0.408,-0.588,-0.697
302794,-4318.0,7166.0,94.0,0.05,0.408,-0.588,-0.697
302816,-4306.0,7284.0,80.0,0.052,0.407,-0.588,-0.697
302828,-3888.0,7308.0,62.0,0.054,0.406,-0.588,-0.697
302850,-3510.0,7360.0,64.0,0.056,0.406,-0.588,-0.697
302872,-3692.0,7440.0,284.0,0.058,0.405,-0.588,-0.698
302884,-3892.0,7336.0,470.0,0.059,0.405,-0.587,-0.699
302906,-3690.0,7482.0,398.0,0.06,0.404,-0.587,-0.699
302918,-3762.0,7416.0,144.0,0.061,0.404,-0.587,-0.7
302940,-4016.0,7390.0,340.0,0.062,0.403,-0.586,-0.7
302952,-3782.0,7406.0,474.0,0.064,0.403,-0.586,-0.701
302974,-3698.0,7366.0,598.0,0.065,0.402,-0.586,-0.701
302986,-3756.0,7346.0,448.0,0.065,0.401,-0.586,-0.701
303008,-3848.0,7442.0,290.0,0.066,0.4,-0.586,-0.701
303020,-3770.0,7392.0,244.0,0.067,0.399,-0.586,-0.702
303042,-3518.0,7426.0,418.0,0.068,0.399,-0.586,-0.702
303064,-3568.0,7400.0,486.0,0.069,0.398,-0.586,-0.702
303076,-3688.0,7416.0,730.0,0.069,0.398,-0.586,-0.702
303098,-3664.0,7394.0,556.0,0.069,0.397,-0.586,-0.702
303110,-3554.0,7388.0,420.0,0.069,0.397,-0.587,-0.702
303132,-3514.0,7452.0,372.0,0.069,0.397,-0.587,-0.702
303144,-3760.0,7376.0,396.0,0.069,0.397,-0.587,-0.702
303166,-3858.0,7334.0,442.0,0.069,0.396,-0.587,-0.702
303178,-3674.0,7478.0,440.0,0.069,0.396,-0.588,-0.702
303200,-3652.0,7430.0,466.0,0.069,0.396,-0.588,-0.702
303212,-3714.0,7480.0,238.0,0.068,0.396,-0.588,-0.702
303234,-3914.0,7394.0,238.0,0.068,0.395,-0.588,-0.702
303256,-3708.0,7418.0,290.0,0.069,0.395,-0.588,-0.702
303268,-3710.0,7352.0,318.0,0.069,0.395,-0.589,-0.702
303290,-4132.0,7234.0,218.0,0.069,0.394,-0.589,-0.702
303302,-4210.0,7184.0,264.0,0.07,0.394,-0.589,-0.702
303324,-3756.0,7326.0,380.0,0.072,0.393,-0.589,-0.702
303336,-3104.0,7598.0,730.0,0.074,0.393,-0.589,-0.702
303358,-2998.0,7620.0,640.0,0.074,0.392,-0.589,-0.703
303370,-3620.0,7620.0,410.0,0.073,0.392,-0.59,-0.703
303392,-3790.0,7628.0,276.0,0.073,0.392,-0.589,-0.703
303404,-3758.0,7454.0,624.0,0.074,0.391,-0.589,-0.703
303426,-3624.0,7382.0,354.0,0.074,0.39,-0.589,-0.703
303448,-3744.0,7374.0,418.0,0.075,0.39,-0.589,-0.704
303460,-3638.0,7400.0,494.0,0.077,0.389,-0.589,-0.704
303482,-3306.0,7504.0,510.0,0.078,0.388,-0.59,-0.704
303494,-3304.0,7544.0,656.0,0.079,0.388,-0.59,-0.704
303516,-3560.0,7508.0,626.0,0.079,0.387,-0.59,-0.705
303528,-3652.0,7520.0,598.0,0.08,0.386,-0.59,-0.705
303550,-3448.0,7672.0,392.0,0.081,0.385,-0.59,-0.705
303562,-3570.0,7416.0,238.0,0.081,0.384,-0.59,-0.705
303584,-3830.0,7352.0,218.0,0.083,0.383,-0.59,-0.706
303596,-3488.0,7492.0,490.0,0.085,0.382,-0.589,-0.707
303618,-3324.0,7516.0,514.0,0.087,0.38,-0.589,-0.708
303640,-3462.0,7644.0,548.0,0.09,0.379,-0.588,-0.709
303652,-3180.0,7666.0,766.0,0.093,0.378,-0.587,-0.71
303674,-2830.0,7660.0,936.0,0.095,0.377,-0.586,-0.711
303686,-3178.0,7622.0,1216.0,0.095,0.377,-0.586,-0.712
303708,-3298.0,7720.0,858.0,0.095,0.376,-0.586,-0.712
303720,-3380.0,7494.0,560.0,0.095,0.375,-0.586,-0.712
303742,-3106.0,7564.0,696.0,0.096,0.374,-0.586,-0.712
303754,-3080.0,7542.0,916.0,0.096,0.374,-0.586,-0.712
303776,-3070.0,7610.0,840.0,0.096,0.374,-0.586,-0.712
303788,-3340.0,7592.0,786.0,0.095,0.373,-0.587,-0.712
303810,-3370.0,7686.0,724.0,0.095,0.373,-0.587,-0.712
303832,-3276.0,7626.0,530.0,0.095,0.373,-0.587,-0.712
303844,-3264.0,7542.0,694.0,0.096,0.372,-0.587,-0.712
303866,-3232.0,7554.0,736.0,0.096,0.372,-0.587,-0.712
303878,-3134.0,7476.0,780.0,0.096,0.372,-0.587,-0.712
303900,-3410.0,7608.0,788.0,0.096,0.372,-0.587,-0.713
303912,-3262.0,7622.0,714.0,0.097,0.372,-0.587,-0.713
303934,-3244.0,7634.0,788.0,0.097,0.372,-0.587,-0.713
303946,-3330.0,7694.0,756.0,0.097,0.371,-0.587,-0.713
303968,-3228.0,7588.0,656.0,0.098,0.371,-0.587,-0.713
303980,-3164.0,7612.0,802.0,0.098,0.371,-0.587,-0.713
304002,-3122.0,7612.0,856.0,0.099,0.37,-0.587,-0.713
304024,-3224.0,7636.0,688.0,0.099,0.37,-0.587,-0.713
304036,-3334.0,7628.0,590.0,0.099,0.37,-0.587,-0.713
304058,-3162.0,7574.0,684.0,0.099,0.37,-0.587,-0.713
304070,-3322.0,7594.0,876.0,0.099,0.37,-0.587,-0.713
304092,-3256.0,7688.0,682.0,0.1,0.37,-0.587,-0.714
304104,-3214.0,7620.0,542.0,0.101,0.37,-0.586,-0.714
304126,-3310.0,7684.0,816.0,0.101,0.37,-0.586,-0.714
304138,-3310.0,7576.0,1054.0,0.102,0.37,-0.585,-0.714
304160,-3134.0,7618.0,770.0,0.102,0.37,-0.585,-0.714
304172,-3186.0,7680.0,832.0,0.102,0.37,-0.585,-0.714
304194,-2984.0,7658.0,406.0,0.104,0.372,-0.584,-0.714
304216,-3092.0,7664.0,1046.0,0.105,0.373,-0.583,-0.714
304228,-3000.0,8542.0,1534.0,0.107,0.378,-0.582,-0.712
304250,-2206.0,7408.0,110.0,0.105,0.381,-0.58,-0.712
304262,-4124.0,7670.0,1600.0,0.102,0.384,-0.577,-0.713
304284,-4138.0,7358.0,1414.0,0.099,0.387,-0.578,-0.712
304296,-3422.0,7496.0,834.0,0.096,0.388,-0.579,-0.71
304318,-3366.0,7486.0,408.0,0.094,0.389,-0.581,-0.709
304330,-3406.0,7418.0,332.0,0.091,0.389,-0.581,-0.709
304352,-3612.0,7388.0,528.0,0.089,0.389,-0.581,-0.709
304364,-3554.0,7466.0,638.0,0.087,0.39,-0.581,-0.709
304386,-3550.0,7608.0,666.0,0.085,0.39,-0.58,-0.71
304408,-4018.0,8568.0,116.0,0.082,0.39,-0.58,-0.711
304420,-4022.0,7078.0,476.0,0.081,0.391,-0.58,-0.71
304442,-4248.0,7362.0,1102.0,0.079,0.39,-0.58,-0.711
304454,-3810.0,7434.0,1194.0,0.078,0.389,-0.581,-0.711
304476,-3560.0,7604.0,1198.0,0.076,0.387,-0.584,-0.709
304488,-4046.0,7198.0,572.0,0.07,0.385,-0.588,-0.708
304510,-3876.0,7318.0,-538.0,0.065,0.38,-0.593,-0.707
304522,-3532.0,7326.0,-876.0,0.06,0.374,-0.596,-0.708
304544,-3152.0,7052.0,-686.0,0.058,0.369,-0.595,-0.712
304556,-3156.0,7112.0,446.0,0.058,0.365,-0.592,-0.716
304578,-3664.0,7240.0,1658.0,0.058,0.363,-0.588,-0.721
304600,-3892.0,7512.0,2422.0,0.059,0.361,-0.586,-0.723
304612,-3620.0,7656.0,2078.0,0.06,0.36,-0.586,-0.724
304634,-3300.0,7744.0,1136.0,0.06,0.358,-0.588,-0.723
304646,-2978.0,7546.0,486.0,0.06,0.357,-0.589,-0.723
304668,-3214.0,7532.0,434.0,0.06,0.356,-0.589,-0.723
304680,-3826.0,7206.0,802.0,0.059,0.355,-0.588,-0.724
304702,-3800.0,7366.0,1430.0,0.061,0.355,-0.587,-0.725
304714,-3274.0,7476.0,1308.0,0.062,0.355,-0.588,-0.725
304731,-3276.0,7536.0,748.0,0.061,0.354,-0.588,-0.724
304753,-3476.0,7418.0,616.0,0.061,0.354,-0.588,-0.724
304775,-3706.0,7470.0,944.0,0.062,0.354,-0.588,-0.725
304787,-3674.0,7516.0,1114.0,0.063,0.354,-0.588,-0.725
304809,-3400.0,7388.0,1114.0,0.064,0.353,-0.588,-0.725
304821,-3322.0,7600.0,1114.0,0.065,0.353,-0.588,-0.725
304843,-3034.0,7616.0,1048.0,0.065,0.352,-0.588,-0.725
304855,-2986.0,7484.0,1108.0,0.065,0.353,-0.588,-0.725
304877,-3556.0,7376.0,1164.0,0.064,0.353,-0.588,-0.725
304889,-3834.0,7346.0,1090.0,0.064,0.353,-0.588,-0.725
304911,-3496.0,7500.0,794.0,0.064,0.352,-0.589,-0.725
304923,-3478.0,7468.0,724.0,0.064,0.352,-0.589,-0.725
304945,-3524.0,7556.0,946.0,0.064,0.352,-0.589,-0.725
304967,-3248.0,7638.0,1128.0,0.065,0.352,-0.589,-0.725
304979,-2988.0,7534.0,1278.0,0.065,0.352,-0.589,-0.725
305001,-3482.0,7600.0,1094.0,0.064,0.352,-0.589,-0.725
305013,-3676.0,7542.0,910.0,0.063,0.352,-0.589,-0.725
305035,-3428.0,7372.0,784.0,0.063,0.352,-0.589,-0.725
305047,-3444.0,7474.0,916.0,0.063,0.352,-0.589,-0.725
305069,-3310.0,7420.0,1034.0,0.063,0.352,-0.589,-0.725
305081,-3264.0,7528.0,940.0,0.062,0.352,-0.589,-0.725
305103,-3346.0,7564.0,906.0,0.061,0.352,-0.589,-0.725
305115,-3492.0,7554.0,998.0,0.06,0.352,-0.588,-0.725
305137,-3702.0,7570.0,962.0,0.06,0.353,-0.588,-0.725
305159,-3702.0,7342.0,1128.0,0.06,0.353,-0.588,-0.725
305171,-3680.0,7192.0,1338.0,0.061,0.354,-0.588,-0.725
305193,-3956.0,7326.0,750.0,0.061,0.354,-0.589,-0.724
305205,-2888.0,7904.0,738.0,0.062,0.354,-0.59,-0.723
305227,-2560.0,7636.0,964.0,0.062,0.355,-0.589,-0.723
305239,-3454.0,7612.0,1138.0,0.061,0.356,-0.589,-0.723
305261,-4032.0,7084.0,1226.0,0.062,0.357,-0.589,-0.723
305273,-3798.0,7240.0,654.0,0.063,0.357,-0.588,-0.723
305295,-3374.0,7428.0,1192.0,0.064,0.357,-0.587,-0.724
305307,-3256.0,7494.0,1460.0,0.065,0.358,-0.587,-0.724
305329,-3310.0,7570.0,992.0,0.064,0.358,-0.587,-0.724
305351,-3418.0,7598.0,788.0,0.063,0.359,-0.587,-0.723
305363,-3652.0,7302.0,1086.0,0.063,0.36,-0.586,-0.723
305385,-3858.0,7208.0,1140.0,0.062,0.361,-0.586,-0.723
305397,-3816.0,7376.0,898.0,0.062,0.361,-0.586,-0.722
305419,-3632.0,7324.0,660.0,0.062,0.362,-0.587,-0.722
305431,-3680.0,7452.0,672.0,0.062,0.362,-0.586,-0.722
305453,-3468.0,7342.0,878.0,0.062,0.362,-0.586,-0.722
305465,-3318.0,7432.0,1120.0,0.062,0.362,-0.586,-0.723
305487,-3550.0,7506.0,1184.0,0.061,0.363,-0.585,-0.723
305499,-3878.0,7314.0,858.0,0.06,0.363,-0.585,-0.722
305521,-3746.0,7370.0,1172.0,0.06,0.363,-0.586,-0.722
305543,-3546.0,7300.0,1244.0,0.06,0.364,-0.586,-0.721
305555,-3580.0,7064.0,1236.0,0.059,0.365,-0.587,-0.72
305577,-4090.0,6742.0,1084.0,0.059,0.366,-0.589,-0.718
305589,-3778.0,7250.0,1048.0,0.058,0.365,-0.59,-0.718
305611,-2684.0,7770.0,558.0,0.058,0.365,-0.59,-0.718
305623,-3334.0,7492.0,568.0,0.055,0.365,-0.59,-0.718
305645,-2508.0,6596.0,-1220.0,0.053,0.37,-0.588,-0.717
305657,-4478.0,7814.0,918.0,0.048,0.372,-0.585,-0.719
305679,-3878.0,5762.0,542.0,0.046,0.378,-0.583,-0.718
305691,-1648.0,7474.0,1326.0,0.034,0.379,-0.58,-0.72
305713,-3208.0,6494.0,570.0,0.022,0.39,-0.574,-0.72
305735,-4934.0,7116.0,942.0,0.01,0.4,-0.566,-0.72
305747,-4476.0,6712.0,-1104.0,0.005,0.419,-0.558,-0.717
305769,-3622.0,6628.0,520.0,0.003,0.443,-0.544,-0.713
305803,-6396.0,5706.0,-252.0,0.002,-0.503,0.515,0.694
305815,-6330.0,5570.0,952.0,0.003,-0.527,0.502,0.686
305837,-5162.0,5484.0,-280.0,0.002,-0.554,0.489,0.674
305849,-4384.0,5148.0,-592.0,0.008,-0.578,0.475,0.663
305871,-6498.0,4580.0,-412.0,0.019,-0.601,0.459,0.654
305893,-8290.0,4108.0,-128.0,0.029,-0.621,0.446,0.644
305905,-8142.0,4184.0,-374.0,0.039,-0.638,0.436,0.633
305927,-8810.0,3622.0,-1218.0,0.046,-0.649,0.428,0.627
305939,-6862.0,3886.0,-1126.0,0.054,-0.656,0.422,0.623
305961,-6556.0,4022.0,-1536.0,0.064,-0.662,0.416,0.62
305973,-6916.0,3334.0,-1476.0,0.075,-0.669,0.407,0.617
305995,-7572.0,2716.0,-650.0,0.084,-0.679,0.398,0.611
306007,-6964.0,2900.0,-614.0,0.095,-0.688,0.391,0.604
306029,-6638.0,2656.0,-1508.0,0.11,-0.697,0.384,0.596
306041,-6984.0,2112.0,-2006.0,0.124,-0.707,0.375,0.587
306063,-8288.0,1782.0,-1478.0,0.14,-0.716,0.366,0.578
306085,-10096.0,1018.0,-2848.0,0.152,-0.725,0.359,0.568
306097,-9996.0,1062.0,-2742.0,0.159,-0.731,0.356,0.561
306119,-8624.0,1154.0,-2038.0,0.165,-0.735,0.355,0.554
306131,-7538.0,2388.0,-1448.0,0.173,-0.737,0.355,0.549
306153,3570.0,-250.0,-1372.0,0.189,-0.736,0.355,0.544
306165,-8998.0,-90.0,-1930.0,0.213,-0.746,0.34,0.532
306187,-11504.0,-1322.0,-4396.0,0.229,-0.752,0.328,0.523
306199,-7698.0,-250.0,-1536.0,0.24,-0.756,0.32,0.518
306221,-10754.0,-1094.0,-2112.0,0.25,-0.76,0.315,0.511
306233,-10374.0,-868.0,-3138.0,0.254,-0.76,0.315,0.509
306255,-6730.0,-212.0,-1972.0,0.256,-0.759,0.315,0.508
306267,-6594.0,-178.0,-2318.0,0.263,-0.759,0.312,0.507
306289,-6700.0,486.0,-3224.0,0.27,-0.76,0.309,0.505
306311,-8924.0,-1108.0,-2320.0,0.277,-0.761,0.302,0.503
306323,-9360.0,-1486.0,-2004.0,0.282,-0.76,0.299,0.504
306345,-7764.0,-1062.0,-2182.0,0.286,-0.759,0.298,0.504
306357,-8204.0,-1184.0,-1490.0,0.29,-0.758,0.296,0.503
306379,-8088.0,-1382.0,-2060.0,0.295,-0.758,0.295,0.502
306391,-7620.0,-1018.0,-2002.0,0.299,-0.757,0.295,0.501
306413,-7744.0,-1424.0,-2054.0,0.305,-0.755,0.294,0.501
306425,-8446.0,-1376.0,-2790.0,0.309,-0.754,0.293,0.501
306447,-7830.0,-1454.0,-1972.0,0.31,-0.753,0.292,0.501
306459,-7502.0,-1308.0,-1658.0,0.312,-0.752,0.292,0.501
306481,-8058.0,-1490.0,-2118.0,0.314,-0.752,0.292,0.5
306503,-7866.0,-1230.0,-2048.0,0.315,-0.752,0.292,0.5
306515,-7984.0,-1338.0,-2094.0,0.316,-0.752,0.292,0.5
306537,-8086.0,-1468.0,-1840.0,0.317,-0.752,0.292,0.5
306549,-7714.0,-1136.0,-1772.0,0.317,-0.751,0.292,0.5
306571,-7922.0,-1374.0,-1656.0,0.318,-0.75,0.292,0.501
306583,-8206.0,-1530.0,-2046.0,0.319,-0.75,0.291,0.501
306605,-7888.0,-1434.0,-1682.0,0.319,-0.75,0.292,0.501
306617,-8002.0,-1418.0,-1888.0,0.318,-0.75,0.292,0.501
306639,-7858.0,-1320.0,-1770.0,0.318,-0.75,0.292,0.501
306651,-7932.0,-1380.0,-1852.0,0.318,-0.75,0.292,0.501
306673,-7964.0,-1382.0,-1722.0,0.318,-0.75,0.293,0.501
306695,-7860.0,-1346.0,-1856.0,0.318,-0.75,0.293,0.501
306707,-7900.0,-1434.0,-1858.0,0.318,-0.75,0.293,0.501
306734,-8018.0,-1430.0,-1850.0,0.317,-0.75,0.294,0.501
306746,-8000.0,-1398.0,-1746.0,0.317,-0.75,0.294,0.5
306758,-7810.0,-1322.0,-1854.0,0.316,-0.75,0.295,0.5
306780,-7858.0,-1314.0,-1914.0,0.316,-0.75,0.295,0.5
306792,-7872.0,-1266.0,-1774.0,0.316,-0.75,0.295,0.5
306814,-7976.0,-1352.0,-1916.0,0.317,-0.75,0.295,0.5
306826,-7834.0,-1356.0,-1768.0,0.317,-0.75,0.295,0.5
306848,-8022.0,-1430.0,-1918.0,0.317,-0.75,0.296,0.5
306860,-8074.0,-1464.0,-1996.0,0.317,-0.75,0.296,0.5
306882,-7962.0,-1360.0,-1598.0,0.317,-0.75,0.296,0.499
306904,-7976.0,-1352.0,-2146.0,0.317,-0.75,0.297,0.499
306916,-7686.0,-1218.0,-1738.0,0.316,-0.75,0.297,0.499
306938,-7960.0,-1304.0,-1954.0,0.317,-0.75,0.297,0.499
306950,-8046.0,-1362.0,-1852.0,0.317,-0.75,0.298,0.499
306972,-8130.0,-1370.0,-1990.0,0.317,-0.75,0.298,0.499
306984,-8178.0,-1460.0,-1778.0,0.316,-0.749,0.299,0.499
307006,-7708.0,-1274.0,-1920.0,0.315,-0.749,0.299,0.499
307018,-8016.0,-1362.0,-2004.0,0.314,-0.749,0.3,0.5
307040,-7620.0,-1154.0,-1748.0,0.314,-0.749,0.3,0.5
307052,-7824.0,-1178.0,-1874.0,0.314,-0.749,0.3,0.499
307074,-8034.0,-1352.0,-1856.0,0.315,-0.749,0.3,0.499
307096,-7844.0,-1314.0,-1904.0,0.315,-0.749,0.301,0.499
307108,-7978.0,-1380.0,-1798.0,0.314,-0.749,0.301,0.499
307130,-7936.0,-1294.0,-1914.0,0.314,-0.749,0.302,0.499
307142,-7952.0,-1292.0,-2060.0,0.314,-0.75,0.302,0.498
307164,-7914.0,-1318.0,-1910.0,0.314,-0.75,0.302,0.498
307176,-7838.0,-1282.0,-1888.0,0.314,-0.75,0.302,0.498
307198,-7738.0,-1228.0,-1730.0,0.314,-0.75,0.302,0.498
307210,-7922.0,-1288.0,-2024.0,0.315,-0.75,0.302,0.497
307232,-7932.0,-1296.0,-1912.0,0.315,-0.75,0.302,0.497
307254,-7898.0,-1336.0,-1956.0,0.315,-0.75,0.303,0.497
307266,-7897.0,-1327.0,-1825.0,0.315,-0.75,0.303,0.496
307288,-7895.0,-1230.0,-1987.0,0.316,-0.75,0.303,0.496
307300,-7914.0,-1274.0,-2162.0,0.316,-0.75,0.303,0.496
307322,-7925.0,-1316.0,-1874.0,0.316,-0.75,0.303,0.496
307334,-7852.0,-1343.0,-1984.0,0.316,-0.75,0.304,0.495
307356,-8092.0,-1366.0,-1958.0,0.316,-0.75,0.304,0.495
307368,-7942.0,-1394.0,-1884.0,0.316,-0.75,0.304,0.495
307390,-7821.0,-1268.0,-1908.0,0.316,-0.75,0.304,0.495
307402,-7832.0,-1335.0,-1950.0,0.316,-0.75,0.305,0.495
307424,-7948.0,-1357.0,-2126.0,0.317,-0.75,0.305,0.494
307446,-7940.0,-1407.0,-1968.0,0.317,-0.75,0.305,0.494
307458,-7980.0,-1373.0,-2072.0,0.317,-0.75,0.305,0.494
307480,-7890.0,-1381.0,-1884.0,0.316,-0.75,0.306,0.494
307492,-7860.0,-1335.0,-2034.0,0.316,-0.75,0.306,0.493
307514,-7946.0,-1327.0,-2102.0,0.316,-0.75,0.307,0.493
307526,-7942.0,-1357.0,-1894.0,0.316,-0.751,0.307,0.493
307548,-7986.0,-1337.0,-2072.0,0.316,-0.75,0.307,0.492
307560,-7858.0,-1317.0,-1996.0,0.316,-0.751,0.308,0.492
307582,-8036.0,-1391.0,-1814.0,0.316,-0.75,0.308,0.492
307594,-7914.0,-1315.0,-1994.0,0.316,-0.75,0.309,0.492
307616,-7970.0,-1337.0,-2018.0,0.315,-0.75,0.309,0.492
307628,-7582.0,-1235.0,-1838.0,0.315,-0.75,0.31,0.491
307650,-8062.0,-1329.0,-2090.0,0.316,-0.75,0.311,0.491
307672,-8630.0,-1577.0,-2326.0,0.315,-0.75,0.312,0.491
307684,-8560.0,-1863.0,-1468.0,0.314,-0.749,0.315,0.491
307706,-8040.0,-1467.0,-1662.0,0.313,-0.748,0.319,0.49
307718,-7892.0,-1017.0,-1840.0,0.313,-0.747,0.324,0.49
307740,-7368.0,-1025.0,-3150.0,0.311,-0.746,0.327,0.489
307752,-7228.0,-471.0,-1810.0,0.309,-0.745,0.33,0.49
307774,-6866.0,-513.0,-2494.0,0.309,-0.745,0.33,0.49
307786,-7342.0,-767.0,-2366.0,0.309,-0.745,0.33,0.491
307808,-8000.0,-1045.0,-2010.0,0.31,-0.744,0.328,0.492
307820,-8582.0,-1211.0,-2104.0,0.311,-0.743,0.328,0.494
307842,-8028.0,-1291.0,-1614.0,0.312,-0.74,0.328,0.497
307864,-7380.0,-1315.0,-1316.0,0.313,-0.739,0.328,0.499
307876,-8362.0,-1591.0,-1470.0,0.314,-0.737,0.329,0.5
307898,-8624.0,-1263.0,-1432.0,0.315,-0.737,0.331,0.499
307910,-9332.0,-957.0,-2734.0,0.314,-0.737,0.335,0.495
307932,-5366.0,-5.0,-2272.0,0.313,-0.739,0.339,0.491
307944,-7898.0,-877.0,-2816.0,0.314,-0.74,0.339,0.488
307966,-8444.0,-1067.0,-2864.0,0.315,-0.74,0.339,0.488
307978,-7316.0,-895.0,-1682.0,0.316,-0.739,0.338,0.489
308000,-8390.0,-1153.0,-2644.0,0.317,-0.739,0.338,0.489
308022,-7812.0,-1141.0,-1376.0,0.316,-0.74,0.338,0.488
308034,-8232.0,-1213.0,-2450.0,0.317,-0.74,0.339,0.487
308056,-8296.0,-1195.0,-2112.0,0.316,-0.74,0.34,0.487
308068,-7740.0,-1003.0,-1772.0,0.316,-0.74,0.34,0.486
308090,-8078.0,-1095.0,-2452.0,0.316,-0.74,0.341,0.485
308102,-7986.0,-991.0,-2260.0,0.316,-0.741,0.342,0.485
308124,-7654.0,-871.0,-2174.0,0.315,-0.74,0.343,0.484
308136,-7946.0,-879.0,-2368.0,0.315,-0.74,0.344,0.484
308158,-7860.0,-927.0,-2234.0,0.314,-0.74,0.344,0.484
308170,-7970.0,-915.0,-2224.0,0.314,-0.74,0.345,0.484
308192,-7854.0,-833.0,-2458.0,0.313,-0.741,0.346,0.483
308214,-7942.0,-897.0,-2314.0,0.313,-0.741,0.346,0.483
308226,-7828.0,-901.0,-2430.0,0.312,-0.741,0.347,0.482
308248,-7648.0,-863.0,-2270.0,0.311,-0.742,0.347,0.482
308260,-8380.0,-961.0,-2338.0,0.311,-0.742,0.348,0.482
308282,-7692.0,-811.0,-2344.0,0.31,-0.742,0.348,0.482
308294,-7784.0,-787.0,-2348.0,0.31,-0.742,0.349,0.481
308316,-7502.0,-737.0,-2330.0,0.31,-0.742,0.349,0.481
308328,-7680.0,-871.0,-2478.0,0.31,-0.742,0.349,0.481
308350,-8152.0,-1125.0,-2478.0,0.31,-0.743,0.349,0.48
308362,-7938.0,-1205.0,-2250.0,0.31,-0.743,0.349,0.48
308384,-7772.0,-1177.0,-2298.0,0.31,-0.743,0.349,0.48
308406,-7496.0,-1069.0,-2086.0,0.31,-0.743,0.35,0.479
308418,-7744.0,-1083.0,-2188.0,0.31,-0.743,0.35,0.479
308440,-7922.0,-1083.0,-2484.0,0.31,-0.743,0.351,0.478
308452,-7820.0,-953.0,-2408.0,0.31,-0.743,0.351,0.477
308474,-7950.0,-913.0,-2604.0,0.311,-0.743,0.352,0.477
308486,-7978.0,-867.0,-2674.0,0.31,-0.743,0.353,0.476
308508,-7788.0,-791.0,-2304.0,0.31,-0.743,0.353,0.476
308520,-7968.0,-807.0,-2488.0,0.311,-0.743,0.353,0.476
308542,-7766.0,-763.0,-2478.0,0.311,-0.743,0.354,0.476
308554,-7952.0,-885.0,-2484.0,0.311,-0.743,0.354,0.476
308576,-8094.0,-915.0,-2340.0,0.311,-0.742,0.354,0.476
308598,-7946.0,-929.0,-2390.0,0.31,-0.742,0.355,0.476
308610,-8112.0,-925.0,-2656.0,0.31,-0.742,0.356,0.476
308632,-7946.0,-947.0,-2680.0,0.309,-0.742,0.357,0.476
308644,-7470.0,-803.0,-2208.0,0.308,-0.742,0.357,0.477
308666,-7668.0,-859.0,-2276.0,0.309,-0.742,0.357,0.477
308678,-8406.0,-969.0,-2846.0,0.308,-0.742,0.358,0.477
308700,-7452.0,-691.0,-2366.0,0.307,-0.742,0.358,0.477
308712,-7424.0,-605.0,-2248.0,0.306,-0.742,0.358,0.477
308739,-7856.0,-799.0,-2658.0,0.306,-0.742,0.358,0.477
308751,-7444.0,-683.0,-2286.0,0.305,-0.742,0.358,0.477
308763,-7732.0,-715.0,-2618.0,0.306,-0.743,0.358,0.477
308785,-7618.0,-865.0,-2668.0,0.306,-0.743,0.357,0.477
308807,-8116.0,-917.0,-2436.0,0.306,-0.743,0.356,0.477
308819,-7920.0,-821.0,-2654.0,0.306,-0.743,0.355,0.477
308841,-7652.0,-777.0,-2458.0,0.307,-0.743,0.355,0.478
308853,-7846.0,-817.0,-2232.0,0.307,-0.743,0.354,0.478
308875,-7848.0,-907.0,-2196.0,0.307,-0.743,0.353,0.478
308887,-8040.0,-1045.0,-2414.0,0.308,-0.744,0.353,0.478
308909,-7918.0,-933.0,-2350.0,0.308,-0.744,0.352,0.478
308921,-8004.0,-911.0,-2636.0,0.308,-0.744,0.352,0.478
308943,-7824.0,-811.0,-2498.0,0.308,-0.744,0.351,0.478
308955,-8198.0,-805.0,-2422.0,0.308,-0.744,0.351,0.478
308977,-7852.0,-741.0,-2504.0,0.307,-0.744,0.35,0.479
308999,-7470.0,-669.0,-2194.0,0.307,-0.744,0.35,0.479
309011,-8014.0,-897.0,-2384.0,0.308,-0.745,0.349,0.479
309033,-7780.0,-905.0,-2290.0,0.308,-0.745,0.348,0.479
309045,-7796.0,-961.0,-2462.0,0.308,-0.745,0.347,0.479
309067,-7650.0,-937.0,-2416.0,0.309,-0.745,0.346,0.479
309079,-7902.0,-1091.0,-2280.0,0.309,-0.746,0.345,0.479
309101,-7932.0,-1155.0,-2288.0,0.309,-0.746,0.345,0.479
309113,-8320.0,-1267.0,-2306.0,0.308,-0.746,0.345,0.478
309135,-7262.0,-997.0,-2200.0,0.308,-0.747,0.346,0.478
309147,-7744.0,-1233.0,-2336.0,0.308,-0.747,0.346,0.477
309169,-8008.0,-1171.0,-2398.0,0.309,-0.747,0.345,0.477
309191,-8062.0,-1209.0,-2294.0,0.308,-0.747,0.346,0.477
309203,-7674.0,-941.0,-2400.0,0.308,-0.747,0.347,0.476
309225,-8106.0,-1001.0,-2466.0,0.308,-0.747,0.348,0.476
309237,-7174.0,-873.0,-2310.0,0.308,-0.747,0.348,0.475
309259,-8146.0,-929.0,-2762.0,0.308,-0.747,0.348,0.475
309271,-7696.0,-875.0,-2454.0,0.308,-0.748,0.348,0.474
309293,-8090.0,-983.0,-2686.0,0.308,-0.748,0.349,0.473
309305,-7652.0,-945.0,-2636.0,0.307,-0.748,0.349,0.473
309327,-7816.0,-923.0,-2622.0,0.307,-0.748,0.349,0.473
309339,-7896.0,-993.0,-2582.0,0.308,-0.748,0.349,0.473
309361,-7708.0,-1033.0,-2564.0,0.308,-0.749,0.349,0.472
309383,-7822.0,-1055.0,-2524.0,0.308,-0.749,0.349,0.472
309395,-7840.0,-1103.0,-2526.0,0.308,-0.749,0.349,0.472
309417,-7638.0,-1015.0,-2328.0,0.308,-0.749,0.349,0.472
309429,-7782.0,-1063.0,-2578.0,0.308,-0.749,0.348,0.471
309451,-8002.0,-1057.0,-2596.0,0.308,-0.75,0.348,0.471
309463,-8136.0,-1119.0,-2574.0,0.307,-0.75,0.349,0.471
309485,-7572.0,-967.0,-2550.0,0.307,-0.75,0.349,0.471
309497,-7818.0,-1009.0,-2566.0,0.307,-0.75,0.349,0.471
309519,-7998.0,-1101.0,-2802.0,0.307,-0.75,0.349,0.471
309531,-8040.0,-1087.0,-2526.0,0.307,-0.75,0.349,0.471
309553,-7914.0,-1107.0,-2488.0,0.306,-0.75,0.349,0.471
309575,-7970.0,-1065.0,-2586.0,0.306,-0.75,0.35,0.471
309587,-7536.0,-913.0,-2402.0,0.305,-0.75,0.35,0.471
309609,-7646.0,-849.0,-2582.0,0.305,-0.75,0.35,0.471
309621,-7696.0,-865.0,-2734.0,0.305,-0.75,0.35,0.471
309643,-7830.0,-923.0,-2714.0,0.304,-0.75,0.35,0.471
309655,-8022.0,-1091.0,-2638.0,0.304,-0.751,0.35,0.471
309677,-7800.0,-975.0,-2620.0,0.303,-0.75,0.351,0.471
309689,-7460.0,-865.0,-2612.0,0.303,-0.751,0.351,0.471
309711,-7660.0,-831.0,-2448.0,0.303,-0.751,0.351,0.471
309723,-7798.0,-879.0,-2602.0,0.303,-0.751,0.351,0.47
309745,-7602.0,-911.0,-2696.0,0.303,-0.751,0.351,0.47
309767,-7930.0,-997.0,-2424.0,0.303,-0.751,0.35,0.47
309779,-8126.0,-1093.0,-2690.0,0.303,-0.752,0.35,0.47
309801,-7808.0,-1055.0,-2660.0,0.303,-0.752,0.351,0.469
309813,-7742.0,-1009.0,-2502.0,0.303,-0.751,0.351,0.469
309835,-7642.0,-995.0,-2556.0,0.303,-0.751,0.351,0.469
309847,-7892.0,-1047.0,-2660.0,0.303,-0.751,0.351,0.469
309869,-7858.0,-1059.0,-2594.0,0.303,-0.752,0.351,0.469
309881,-7856.0,-959.0,-2574.0,0.303,-0.752,0.352,0.468
309903,-7846.0,-1033.0,-2626.0,0.303,-0.752,0.352,0.468
309915,-7924.0,-977.0,-2656.0,0.303,-0.751,0.353,0.468
309937,-7718.0,-975.0,-2686.0,0.302,-0.752,0.353,0.468
309959,-7714.0,-845.0,-2596.0,0.302,-0.752,0.354,0.468
309971,-7672.0,-899.0,-2700.0,0.302,-0.752,0.354,0.468
309993,-7606.0,-809.0,-2664.0,0.301,-0.752,0.354,0.467
310005,-7836.0,-987.0,-2730.0,0.301,-0.752,0.354,0.467
310027,-7608.0,-907.0,-2628.0,0.301,-0.752,0.354,0.467
310039,-7802.0,-943.0,-2650.0,0.302,-0.752,0.354,0.467
310061,-7864.0,-955.0,-2792.0,0.302,-0.752,0.354,0.467
310073,-7888.0,-1043.0,-2798.0,0.302,-0.752,0.354,0.467
310095,-7808.0,-1035.0,-2778.0,0.302,-0.752,0.354,0.467
310107,-7756.0,-987.0,-2584.0,0.302,-0.752,0.354,0.467
310129,-7834.0,-949.0,-2636.0,0.302,-0.752,0.354,0.467
310151,-7738.0,-849.0,-2534.0,0.302,-0.752,0.354,0.467
310163,-7958.0,-979.0,-2752.0,0.302,-0.752,0.354,0.467
310185,-7884.0,-967.0,-2602.0,0.302,-0.752,0.354,0.467
310197,-7802.0,-927.0,-2690.0,0.302,-0.752,0.355,0.467
310219,-7838.0,-951.0,-2862.0,0.301,-0.752,0.355,0.467
310231,-7364.0,-773.0,-2410.0,0.301,-0.752,0.355,0.467
310253,-7936.0,-929.0,-2818.0,0.301,-0.752,0.355,0.467
310265,-7762.0,-877.0,-2744.0,0.301,-0.752,0.355,0.467
310287,-7620.0,-847.0,-2572.0,0.301,-0.752,0.355,0.466
310299,-7718.0,-847.0,-2784.0,0.301,-0.752,0.355,0.466
310321,-7708.0,-903.0,-2698.0,0.301,-0.752,0.355,0.466
310343,-7780.0,-951.0,-2592.0,0.301,-0.752,0.355,0.466
310355,-7634.0,-981.0,-2636.0,0.301,-0.752,0.355,0.466
310377,-7746.0,-865.0,-2856.0,0.301,-0.752,0.354,0.466
310389,-7814.0,-985.0,-2758.0,0.301,-0.753,0.354,0.466
310411,-7976.0,-1059.0,-2398.0,0.301,-0.753,0.354,0.466
310423,-7594.0,-949.0,-2768.0,0.301,-0.753,0.354,0.466
310445,-7802.0,-941.0,-2588.0,0.301,-0.753,0.353,0.466
310457,-7996.0,-1085.0,-2882.0,0.301,-0.753,0.353,0.466
310479,-7662.0,-1005.0,-2644.0,0.301,-0.753,0.353,0.466
310491,-7806.0,-1029.0,-2560.0,0.301,-0.753,0.353,0.466
310513,-7646.0,-983.0,-2670.0,0.301,-0.753,0.353,0.466
310535,-7812.0,-935.0,-2618.0,0.301,-0.753,0.353,0.466
310547,-7862.0,-999.0,-2760.0,0.301,-0.753,0.353,0.466
310569,-8018.0,-1029.0,-2786.0,0.301,-0.753,0.353,0.466
310581,-7712.0,-985.0,-2850.0,0.301,-0.753,0.353,0.466
310603,-7750.0,-939.0,-2734.0,0.301,-0.753,0.354,0.466
310615,-7542.0,-875.0,-2528.0,0.3,-0.753,0.354,0.466
310637,-7588.0,-899.0,-2638.0,0.3,-0.753,0.354,0.466
310649,-7800.0,-967.0,-2824.0,0.3,-0.753,0.353,0.466
310671,-7966.0,-969.0,-2644.0,0.3,-0.753,0.353,0.466
310683,-7822.0,-989.0,-2756.0,0.3,-0.753,0.354,0.466
310705,-7422.0,-893.0,-2592.0,0.3,-0.753,0.354,0.466
310727,-7892.0,-971.0,-2722.0,0.3,-0.753,0.354,0.466
310744,-7760.0,-985.0,-2908.0,0.3,-0.754,0.354,0.466
310756,-7882.0,-953.0,-2622.0,0.3,-0.754,0.354,0.466
310778,-7620.0,-937.0,-2722.0,0.3,-0.753,0.354,0.466
310790,-7852.0,-973.0,-2622.0,0.3,-0.754,0.354,0.466
310812,-7732.0,-951.0,-2556.0,0.301,-0.753,0.354,0.466
310824,-7838.0,-993.0,-2756.0,0.301,-0.753,0.354,0.465
310846,-7712.0,-981.0,-2650.0,0.301,-0.753,0.354,0.465
310858,-7848.0,-961.0,-2772.0,0.301,-0.753,0.354,0.465
310880,-7682.0,-891.0,-2842.0,0.301,-0.753,0.354,0.465
310902,-7828.0,-1011.0,-2760.0,0.301,-0.753,0.354,0.465
310914,-7622.0,-949.0,-2754.0,0.301,-0.753,0.354,0.465
310936,-7806.0,-973.0,-2752.0,0.301,-0.753,0.354,0.465
310948,-7668.0,-1001.0,-2646.0,0.301,-0.753,0.354,0.465
310970,-7860.0,-989.0,-2684.0,0.301,-0.753,0.354,0.465
310982,-7734.0,-1013.0,-2670.0,0.301,-0.753,0.354,0.465
311004,-7764.0,-955.0,-2788.0,0.301,-0.753,0.355,0.465
311016,-7490.0,-833.0,-2594.0,0.301,-0.753,0.355,0.465
311038,-7918.0,-981.0,-2826.0,0.301,-0.753,0.355,0.465
311050,-7624.0,-951.0,-2726.0,0.301,-0.753,0.355,0.465
311072,-7762.0,-935.0,-2746.0,0.301,-0.753,0.355,0.465
311094,-7608.0,-949.0,-2706.0,0.301,-0.753,0.355,0.465
311106,-7938.0,-1065.0,-2742.0,0.301,-0.753,0.355,0.465
311128,-7802.0,-1005.0,-2586.0,0.301,-0.753,0.355,0.465
311140,-7690.0,-921.0,-2702.0,0.301,-0.753,0.355,0.465
311162,-7782.0,-985.0,-2842.0,0.301,-0.753,0.356,0.465
311174,-7774.0,-927.0,-2600.0,0.301,-0.752,0.356,0.465
311196,-7692.0,-919.0,-2818.0,0.301,-0.752,0.356,0.465
311208,-7680.0,-915.0,-2678.0,0.302,-0.752,0.356,0.465
311230,-7804.0,-973.0,-2812.0,0.302,-0.752,0.356,0.465
311242,-7802.0,-987.0,-2716.0,0.302,-0.752,0.356,0.465
311264,-7702.0,-949.0,-2668.0,0.301,-0.752,0.357,0.465
311286,-7712.0,-1003.0,-2704.0,0.302,-0.752,0.357,0.465
311298,-7706.0,-913.0,-2670.0,0.302,-0.752,0.357,0.465
311320,-7766.0,-883.0,-2760.0,0.302,-0.752,0.357,0.465
311332,-7748.0,-873.0,-2764.0,0.302,-0.752,0.357,0.465
311354,-7706.0,-955.0,-2746.0,0.302,-0.752,0.357,0.465
311366,-7732.0,-961.0,-2706.0,0.301,-0.752,0.357,0.465
311388,-7680.0,-937.0,-2512.0,0.302,-0.752,0.357,0.465
311400,-7704.0,-931.0,-2770.0,0.302,-0.752,0.358,0.465
311422,-7890.0,-1003.0,-2688.0,0.302,-0.752,0.358,0.465
311434,-7914.0,-985.0,-2772.0,0.302,-0.752,0.358,0.465
