timeMs,ax,ay,az,q0,q1,q2,q3
245257,-7710.0,844.0,-3022.0,0.205,0.8,0.221,-0.519
245279,-7606.0,854.0,-2814.0,0.205,0.8,0.221,-0.519
245301,-7784.0,804.0,-2552.0,0.205,0.8,0.221,-0.519
245313,-8030.0,726.0,-2750.0,0.204,0.8,0.22,-0.52
245335,-8012.0,790.0,-3094.0,0.203,0.8,0.218,-0.521
245347,-7774.0,724.0,-3328.0,0.202,0.8,0.216,-0.521
245369,-7734.0,686.0,-3220.0,0.201,0.801,0.215,-0.522
245381,-7876.0,576.0,-2732.0,0.201,0.801,0.213,-0.523
245403,-7766.0,740.0,-2580.0,0.201,0.801,0.211,-0.523
245415,-7674.0,786.0,-2580.0,0.201,0.801,0.209,-0.524
245437,-7810.0,966.0,-2612.0,0.2,0.801,0.206,-0.525
245449,-7932.0,1082.0,-2574.0,0.2,0.801,0.204,-0.526
245471,-7756.0,1132.0,-2420.0,0.201,0.801,0.202,-0.527
245493,-7614.0,1124.0,-2270.0,0.201,0.8,0.202,-0.528
245505,-7618.0,1014.0,-2040.0,0.202,0.8,0.201,-0.528
245527,-7896.0,824.0,-1902.0,0.202,0.799,0.202,-0.528
245539,-7942.0,778.0,-1994.0,0.203,0.799,0.201,-0.529
245561,-7830.0,892.0,-2418.0,0.203,0.799,0.2,-0.529
245573,-7802.0,1070.0,-2796.0,0.204,0.799,0.2,-0.529
245595,-7690.0,1126.0,-2632.0,0.205,0.799,0.2,-0.529
245607,-7878.0,1060.0,-2438.0,0.207,0.798,0.201,-0.529
245629,-7960.0,1124.0,-2396.0,0.208,0.798,0.202,-0.529
245641,-7826.0,1136.0,-2040.0,0.209,0.798,0.202,-0.528
245663,-7690.0,1148.0,-1910.0,0.21,0.798,0.202,-0.528
245685,-7818.0,1046.0,-2348.0,0.209,0.798,0.201,-0.529
245697,-8018.0,900.0,-2844.0,0.208,0.798,0.2,-0.529
245719,-7850.0,874.0,-3060.0,0.208,0.798,0.199,-0.529
245731,-7696.0,872.0,-2958.0,0.208,0.799,0.197,-0.529
245753,-7504.0,1004.0,-2694.0,0.209,0.799,0.196,-0.529
245765,-7630.0,848.0,-2478.0,0.209,0.799,0.195,-0.529
245787,-7806.0,868.0,-2458.0,0.208,0.8,0.194,-0.529
245799,-7932.0,934.0,-2466.0,0.208,0.8,0.192,-0.529
245821,-7738.0,1128.0,-2456.0,0.209,0.8,0.19,-0.529
245833,-7758.0,1130.0,-2278.0,0.209,0.801,0.188,-0.528
245855,-8116.0,1222.0,-2438.0,0.209,0.801,0.187,-0.529
245877,-8198.0,992.0,-2758.0,0.209,0.802,0.185,-0.528
245889,-8164.0,882.0,-2838.0,0.21,0.803,0.183,-0.528
245911,-8128.0,674.0,-2566.0,0.212,0.803,0.18,-0.527
245923,-8060.0,600.0,-2602.0,0.214,0.804,0.177,-0.526
245945,-7634.0,1252.0,-2538.0,0.216,0.805,0.173,-0.524
245957,-7420.0,1280.0,-2514.0,0.218,0.807,0.169,-0.523
245979,-8012.0,720.0,-2830.0,0.219,0.808,0.166,-0.522
245991,-8660.0,224.0,-3168.0,0.221,0.809,0.162,-0.52
246013,-9062.0,366.0,-3318.0,0.224,0.81,0.157,-0.518
246025,-8404.0,682.0,-2302.0,0.23,0.812,0.149,-0.515
246047,-7672.0,2126.0,-1764.0,0.237,0.814,0.141,-0.511
246069,-6928.0,1810.0,-1318.0,0.241,0.813,0.131,-0.514
246081,-6396.0,3834.0,-1258.0,0.235,0.813,0.117,-0.52
246103,-8070.0,2968.0,-1694.0,0.225,0.811,0.102,-0.53
246115,-7818.0,2072.0,-3410.0,0.216,0.811,0.089,-0.536
246137,-7770.0,2334.0,-4352.0,0.209,0.812,0.077,-0.54
246149,-7680.0,2360.0,-4798.0,0.206,0.812,0.068,-0.542
246171,-8044.0,2824.0,-4186.0,0.207,0.81,0.062,-0.545
246183,-7204.0,3222.0,-2994.0,0.213,0.809,0.06,-0.544
246205,-6640.0,3198.0,-1858.0,0.218,0.808,0.061,-0.543
246217,-6726.0,3546.0,-996.0,0.221,0.807,0.063,-0.544
246239,-7402.0,3152.0,-862.0,0.22,0.806,0.065,-0.545
246261,-8564.0,2528.0,-1446.0,0.216,0.805,0.066,-0.548
246273,-9356.0,2078.0,-2616.0,0.212,0.804,0.065,-0.552
246295,-9482.0,1768.0,-3340.0,0.211,0.803,0.061,-0.555
246307,-9070.0,1932.0,-3834.0,0.213,0.801,0.055,-0.557
246329,-8352.0,2580.0,-3506.0,0.219,0.798,0.05,-0.559
246341,-7574.0,2130.0,-2632.0,0.227,0.796,0.045,-0.559
246363,-7376.0,1984.0,-2170.0,0.237,0.793,0.042,-0.559
246375,-7724.0,2668.0,-1772.0,0.246,0.79,0.038,-0.56
246397,-7846.0,3580.0,-1240.0,0.255,0.788,0.035,-0.559
246409,-7524.0,2870.0,-680.0,0.262,0.786,0.034,-0.558
246431,-7960.0,2838.0,-418.0,0.268,0.785,0.033,-0.557
246453,-8346.0,4556.0,-180.0,0.27,0.786,0.033,-0.556
246465,-8034.0,3300.0,42.0,0.27,0.786,0.033,-0.555
246487,-8760.0,2882.0,-360.0,0.262,0.787,0.033,-0.558
246499,-9894.0,2126.0,-1018.0,0.251,0.787,0.031,-0.562
246521,-10636.0,2072.0,-1688.0,0.237,0.788,0.028,-0.567
246533,-10800.0,1426.0,-2218.0,0.224,0.789,0.024,-0.571
246555,-10548.0,552.0,-2572.0,0.212,0.79,0.019,-0.575
246567,-10500.0,924.0,-2830.0,0.202,0.791,0.014,-0.577
246594,-9396.0,1392.0,-2744.0,0.196,0.791,0.007,-0.58
246606,-7544.0,1994.0,-1206.0,0.194,0.789,0.003,-0.583
246618,-6762.0,1914.0,-682.0,0.194,0.791,0.006,-0.58
246640,-5992.0,1600.0,540.0,0.196,0.797,0.016,-0.571
246662,-5480.0,-280.0,1606.0,0.197,0.806,0.029,-0.558
246674,-5928.0,-1600.0,1518.0,0.191,0.815,0.04,-0.546
246696,-7798.0,-2308.0,-194.0,0.18,0.82,0.045,-0.541
246708,-9086.0,-1354.0,-1708.0,0.175,0.824,0.043,-0.537
246730,-8492.0,962.0,-1866.0,0.18,0.829,0.038,-0.527
246742,-6736.0,2632.0,-410.0,0.191,0.835,0.031,-0.515
246764,-5758.0,3368.0,-286.0,0.199,0.84,0.018,-0.505
246776,-4930.0,2844.0,-1858.0,0.198,0.84,-0.005,-0.506
246798,-4992.0,3028.0,-2374.0,0.196,0.837,-0.031,-0.51
246820,-4744.0,5388.0,-2764.0,0.202,0.838,-0.048,-0.505
246832,-4026.0,7890.0,-2084.0,0.211,0.843,-0.06,-0.491
246854,-2854.0,3496.0,152.0,0.216,0.85,-0.07,-0.475
246866,-3028.0,2274.0,-1530.0,0.217,0.856,-0.082,-0.463
246888,-2592.0,-2382.0,-1552.0,0.208,0.859,-0.097,-0.457
246900,-7024.0,8592.0,-3908.0,0.191,0.864,-0.11,-0.452
246922,-7342.0,8262.0,-2774.0,0.187,0.87,-0.122,-0.439
246934,-4946.0,8378.0,1690.0,0.191,0.876,-0.137,-0.42
246956,-2908.0,4170.0,3838.0,0.182,0.883,-0.161,-0.401
246968,-774.0,1496.0,2928.0,0.144,0.892,-0.193,-0.382
246990,-800.0,-216.0,-476.0,0.082,0.902,-0.226,-0.359
247002,-2504.0,1128.0,-5648.0,0.008,-0.912,0.253,0.323
247024,-2804.0,-7816.0,-12074.0,0.109,-0.911,0.281,0.283
247046,-3708.0,-7576.0,-18586.0,0.202,-0.899,0.296,0.251
247058,-4626.0,-5112.0,-21192.0,0.251,-0.892,0.299,0.228
247080,-5106.0,-3926.0,-21534.0,0.259,-0.895,0.294,0.214
247092,-3044.0,-7314.0,-14722.0,0.233,-0.907,0.283,0.209
247114,-2826.0,-6912.0,-11182.0,0.189,-0.923,0.265,0.207
247126,-4180.0,-5026.0,-8168.0,0.135,-0.94,0.24,0.203
247148,-5452.0,-3268.0,-3922.0,0.092,-0.951,0.216,0.201
247170,-7930.0,-40.0,-3394.0,0.066,-0.958,0.199,0.197
247182,-9328.0,2120.0,-5046.0,0.052,-0.96,0.197,0.192
247194,-7472.0,1500.0,-4652.0,0.043,-0.958,0.208,0.191
247216,-4198.0,934.0,-5590.0,0.033,-0.955,0.226,0.188
247238,-2014.0,48.0,-5350.0,0.025,-0.951,0.245,0.185
247250,-1022.0,758.0,-5550.0,0.022,-0.949,0.26,0.179
247272,-1266.0,968.0,-6388.0,0.021,-0.947,0.27,0.17
247284,-1250.0,1768.0,-6638.0,0.023,-0.947,0.278,0.16
247306,-1160.0,2386.0,-6870.0,0.028,-0.946,0.286,0.153
247318,-1178.0,2372.0,-7594.0,0.035,-0.945,0.292,0.145
247340,-1324.0,1658.0,-8172.0,0.044,-0.945,0.296,0.136
247352,-1074.0,372.0,-8126.0,0.051,-0.945,0.298,0.126
247374,-1104.0,-892.0,-8004.0,0.062,-0.945,0.298,0.118
247386,-1780.0,-1246.0,-8840.0,0.074,-0.945,0.298,0.111
247408,-2444.0,-1652.0,-9486.0,0.087,-0.945,0.297,0.105
247430,-2966.0,-926.0,-10336.0,0.097,-0.944,0.298,0.101
247442,-3050.0,-346.0,-10514.0,0.102,-0.944,0.299,0.099
247464,-2272.0,-302.0,-9744.0,0.101,-0.943,0.302,0.099
247476,-1526.0,-182.0,-8578.0,0.098,-0.943,0.303,0.099
247498,-1416.0,-448.0,-8024.0,0.097,-0.943,0.302,0.099
247510,-1562.0,-692.0,-7540.0,0.096,-0.944,0.299,0.099
247532,-2462.0,-348.0,-7928.0,0.096,-0.945,0.296,0.098
247544,-2688.0,-508.0,-7348.0,0.096,-0.946,0.293,0.098
247566,-3024.0,-496.0,-7308.0,0.098,-0.947,0.291,0.098
247588,-3282.0,-376.0,-7966.0,0.101,-0.946,0.29,0.098
247600,-3100.0,-686.0,-8548.0,0.105,-0.946,0.292,0.098
247622,-2458.0,-1132.0,-8516.0,0.106,-0.945,0.294,0.099
247634,-2112.0,-1108.0,-8338.0,0.105,-0.945,0.295,0.098
247656,-2068.0,-976.0,-8150.0,0.103,-0.945,0.295,0.097
247668,-2602.0,-1008.0,-8448.0,0.102,-0.945,0.295,0.096
247690,-2998.0,-644.0,-8680.0,0.099,-0.945,0.295,0.096
247702,-2532.0,-258.0,-8186.0,0.096,-0.945,0.297,0.097
247724,-2006.0,-378.0,-7594.0,0.092,-0.945,0.299,0.097
247736,-1840.0,336.0,-6970.0,0.09,-0.945,0.3,0.097
247758,-1914.0,222.0,-6912.0,0.09,-0.945,0.3,0.096
247770,-2000.0,14.0,-6972.0,0.092,-0.945,0.3,0.095
247792,-2200.0,-420.0,-7190.0,0.095,-0.945,0.299,0.094
247814,-2928.0,202.0,-8282.0,0.096,-0.945,0.298,0.089
247826,-2694.0,-156.0,-7282.0,0.097,-0.946,0.298,0.086
247848,-2822.0,-1946.0,-7772.0,0.1,-0.946,0.299,0.081
247860,-2674.0,-2918.0,-7098.0,0.107,-0.944,0.302,0.079
247882,-2686.0,-2340.0,-7868.0,0.116,-0.942,0.307,0.076
247894,-2802.0,-1412.0,-9696.0,0.123,-0.938,0.314,0.075
247916,-2074.0,-652.0,-10098.0,0.129,-0.934,0.323,0.077
247928,-1014.0,138.0,-9764.0,0.134,-0.93,0.333,0.079
247950,-222.0,-852.0,-8672.0,0.143,-0.925,0.341,0.083
247972,-484.0,-1382.0,-9450.0,0.165,-0.918,0.349,0.092
247984,-1062.0,-3336.0,-10452.0,0.193,-0.909,0.356,0.102
248006,-1690.0,-3384.0,-11668.0,0.216,-0.901,0.361,0.108
248018,-2612.0,-2058.0,-13618.0,0.225,-0.896,0.366,0.115
248040,-2524.0,-1122.0,-13612.0,0.218,-0.892,0.374,0.129
248052,-1034.0,-572.0,-11136.0,0.204,-0.889,0.383,0.147
248074,-8.0,-896.0,-8976.0,0.189,-0.884,0.394,0.167
248086,710.0,-336.0,-7950.0,0.177,-0.878,0.405,0.186
248108,894.0,-668.0,-6892.0,0.17,-0.87,0.413,0.206
248120,656.0,-712.0,-6624.0,0.164,-0.865,0.419,0.223
248142,-174.0,-494.0,-6064.0,0.158,-0.862,0.421,0.235
248164,-1826.0,108.0,-6100.0,0.148,-0.862,0.42,0.241
248176,-3158.0,594.0,-5822.0,0.137,-0.863,0.419,0.248
248198,-3886.0,686.0,-4484.0,0.126,-0.862,0.418,0.257
248210,-4334.0,470.0,-3402.0,0.115,-0.861,0.418,0.266
248232,-4954.0,884.0,-2822.0,0.105,-0.859,0.421,0.273
248244,-5098.0,758.0,-2210.0,0.098,-0.855,0.426,0.279
248266,-5650.0,1268.0,-1938.0,0.091,-0.852,0.432,0.282
248278,-5832.0,1050.0,-1916.0,0.087,-0.848,0.441,0.282
248300,-6264.0,922.0,-2466.0,0.088,-0.842,0.452,0.28
248312,-6604.0,-604.0,-3208.0,0.093,-0.836,0.465,0.276
248334,-6970.0,-250.0,-4656.0,0.103,-0.828,0.479,0.271
248356,-6650.0,1298.0,-5378.0,0.109,-0.818,0.496,0.269
248368,-5296.0,1440.0,-4850.0,0.113,-0.808,0.512,0.268
248390,-4566.0,876.0,-4644.0,0.116,-0.8,0.526,0.265
248402,-4632.0,794.0,-5114.0,0.118,-0.793,0.537,0.261
248424,-4870.0,1820.0,-5888.0,0.119,-0.788,0.547,0.256
248436,-4322.0,1774.0,-5800.0,0.121,-0.782,0.556,0.253
248458,-4020.0,2098.0,-5948.0,0.124,-0.776,0.564,0.253
248470,-4360.0,318.0,-6440.0,0.137,-0.771,0.566,0.256
248492,-6500.0,-7984.0,-4624.0,0.152,-0.778,0.551,0.261
248504,-10578.0,-1032.0,-7352.0,0.159,-0.788,0.536,0.258
248526,-13180.0,-1444.0,-4988.0,0.156,-0.797,0.525,0.252
248548,-12542.0,1230.0,-7374.0,0.146,-0.801,0.526,0.247
248560,-8658.0,2410.0,-7548.0,0.134,-0.795,0.538,0.246
248582,-5416.0,5210.0,-7014.0,0.117,-0.783,0.558,0.247
248599,-2202.0,5782.0,-5594.0,0.099,-0.766,0.583,0.252
248611,226.0,3308.0,-4264.0,0.085,-0.748,0.604,0.261
248633,146.0,8636.0,-1652.0,0.071,-0.736,0.618,0.265
248645,1876.0,7244.0,-5956.0,0.051,-0.728,0.633,0.26
248667,5068.0,-12988.0,5928.0,0.07,-0.736,0.635,0.225
248679,-6544.0,4600.0,-25076.0,0.064,-0.738,0.637,0.216
248701,-5620.0,2064.0,-22572.0,0.042,-0.725,0.643,0.241
248713,-2712.0,662.0,-14604.0,0.004,0.706,-0.648,-0.285
248735,-764.0,244.0,-8862.0,0.049,0.682,-0.649,-0.333
248757,552.0,1476.0,-1846.0,0.078,0.65,-0.651,-0.383
248769,456.0,4220.0,-1830.0,0.115,0.628,-0.644,-0.421
248791,-74.0,5604.0,682.0,0.155,0.618,-0.63,-0.445
248803,-200.0,7264.0,-142.0,0.187,0.61,-0.614,-0.465
248825,86.0,6870.0,-1034.0,0.208,0.606,-0.601,-0.478
248837,-478.0,8704.0,-1220.0,0.208,0.599,-0.597,-0.491
248859,-2496.0,13438.0,-6360.0,0.211,0.608,-0.586,-0.492
248871,-3176.0,6978.0,-5418.0,0.203,0.607,-0.578,-0.506
248893,-4006.0,5582.0,-5846.0,0.209,0.61,-0.562,-0.518
248905,-4252.0,5374.0,-4158.0,0.217,0.607,-0.544,-0.536
248927,-4036.0,5022.0,-1256.0,0.239,0.613,-0.52,-0.545
248949,-3992.0,5880.0,-1340.0,0.261,0.614,-0.497,-0.555
248961,-3468.0,7780.0,944.0,0.275,0.6,-0.482,-0.576
248983,-2602.0,8216.0,1676.0,0.3,0.597,-0.461,-0.584
248995,-1990.0,9848.0,2954.0,0.328,0.603,-0.435,-0.583
249017,-1608.0,9364.0,2810.0,0.354,0.617,-0.405,-0.575
249029,-2366.0,8870.0,2672.0,0.37,0.633,-0.377,-0.566
249051,-3516.0,7624.0,1622.0,0.378,0.649,-0.356,-0.556
249063,-4088.0,6196.0,2844.0,0.381,0.659,-0.34,-0.551
249085,-5198.0,7116.0,-1582.0,0.393,0.679,-0.32,-0.531
249107,-4624.0,6708.0,1230.0,0.403,0.689,-0.308,-0.518
249119,-2988.0,7188.0,1974.0,0.413,0.7,-0.298,-0.501
249141,-2548.0,7144.0,902.0,0.416,0.711,-0.292,-0.486
249153,-2464.0,7306.0,-1326.0,0.418,0.73,-0.282,-0.462
249175,-1796.0,7138.0,-3114.0,0.42,0.75,-0.268,-0.435
249187,-3226.0,6876.0,-1042.0,0.406,0.755,-0.27,-0.439
249209,-5178.0,7514.0,-5368.0,0.402,0.763,-0.263,-0.433
249221,-5126.0,7730.0,-5502.0,0.408,0.771,-0.252,-0.418
249243,-3090.0,8390.0,-2774.0,0.42,0.78,-0.239,-0.399
249255,-2410.0,7156.0,-3130.0,0.432,0.786,-0.225,-0.381
249277,-1688.0,6834.0,-2120.0,0.443,0.79,-0.212,-0.366
249289,-2146.0,6660.0,-2404.0,0.454,0.795,-0.195,-0.352
249311,-3106.0,6220.0,-2134.0,0.465,0.798,-0.18,-0.34
249333,-3422.0,6488.0,-1134.0,0.474,0.798,-0.168,-0.331
249345,-3342.0,7576.0,-616.0,0.483,0.799,-0.158,-0.322
249367,-3742.0,8428.0,-568.0,0.49,0.801,-0.148,-0.312
249379,-4120.0,8550.0,-240.0,0.495,0.803,-0.139,-0.302
249401,-4458.0,8544.0,-786.0,0.501,0.806,-0.13,-0.288
249413,-4164.0,8432.0,-1674.0,0.507,0.809,-0.12,-0.273
249435,-3496.0,8018.0,-1510.0,0.516,0.81,-0.112,-0.257
249447,-2770.0,7262.0,-910.0,0.524,0.809,-0.106,-0.244
249469,-2236.0,6444.0,-982.0,0.53,0.809,-0.101,-0.232
249481,-2232.0,6390.0,-1228.0,0.534,0.809,-0.099,-0.224
249503,-2688.0,6738.0,-1828.0,0.537,0.809,-0.1,-0.219
249525,-2590.0,7618.0,-2316.0,0.537,0.808,-0.106,-0.216
249537,-1486.0,8802.0,-2700.0,0.536,0.808,-0.117,-0.214
249559,-454.0,8824.0,-3038.0,0.534,0.809,-0.127,-0.212
249571,-384.0,8640.0,-3312.0,0.532,0.809,-0.134,-0.213
249593,-1836.0,8466.0,-2676.0,0.529,0.809,-0.139,-0.217
249605,-3628.0,7918.0,486.0,0.518,0.805,-0.164,-0.24
249627,-3712.0,7242.0,-2192.0,0.51,0.802,-0.185,-0.251
249639,-3102.0,7140.0,-1998.0,0.504,0.797,-0.209,-0.261
249661,-1520.0,7540.0,-3208.0,0.502,0.791,-0.229,-0.265
249673,-1036.0,7698.0,-1826.0,0.498,0.783,-0.252,-0.275
249695,-938.0,7896.0,-818.0,0.494,0.774,-0.274,-0.285
249717,-224.0,7848.0,-972.0,0.488,0.768,-0.296,-0.293
249729,292.0,8574.0,-2076.0,0.479,0.763,-0.314,-0.299
249751,366.0,8168.0,-2810.0,0.472,0.761,-0.326,-0.303
249763,-30.0,9224.0,-3896.0,0.469,0.76,-0.33,-0.306
249785,-482.0,8266.0,-3244.0,0.469,0.758,-0.331,-0.311
249797,-1352.0,7774.0,-1532.0,0.471,0.756,-0.328,-0.314
249819,-1622.0,7536.0,-914.0,0.473,0.754,-0.327,-0.317
249831,-1474.0,7226.0,-20.0,0.473,0.754,-0.328,-0.318
249853,-1600.0,7314.0,-1754.0,0.469,0.754,-0.331,-0.319
249865,-1628.0,7872.0,-3356.0,0.466,0.754,-0.336,-0.32
249887,-1084.0,7614.0,-3874.0,0.465,0.753,-0.339,-0.319
249909,-716.0,8112.0,-3990.0,0.467,0.752,-0.339,-0.318
249921,-142.0,8212.0,-2826.0,0.471,0.751,-0.337,-0.317
249943,-638.0,8276.0,-2044.0,0.474,0.751,-0.332,-0.317
249955,-1346.0,7980.0,-1700.0,0.476,0.751,-0.328,-0.318
249977,-1884.0,7928.0,-1594.0,0.478,0.752,-0.325,-0.318
249989,-1792.0,8036.0,-1434.0,0.48,0.751,-0.323,-0.317
250011,-1284.0,8010.0,-1354.0,0.482,0.751,-0.322,-0.316
250023,-810.0,8316.0,-1610.0,0.484,0.751,-0.32,-0.315
250045,-1272.0,7518.0,-1714.0,0.487,0.752,-0.316,-0.313
250057,-2146.0,7960.0,-1728.0,0.49,0.752,-0.313,-0.31
250079,-1928.0,7534.0,-1790.0,0.494,0.752,-0.311,-0.306
250101,-1284.0,8108.0,-1398.0,0.501,0.753,-0.306,-0.298
250113,-908.0,8124.0,-2272.0,0.509,0.753,-0.3,-0.288
250135,-756.0,8174.0,-2124.0,0.517,0.754,-0.294,-0.278
250147,-598.0,8124.0,-1860.0,0.524,0.754,-0.29,-0.27
250169,-526.0,8262.0,-1988.0,0.529,0.754,-0.287,-0.264
250181,-488.0,8368.0,-2564.0,0.531,0.753,-0.288,-0.262
250203,-1124.0,7916.0,-2042.0,0.533,0.75,-0.291,-0.261
250215,-308.0,8254.0,-638.0,0.537,0.747,-0.293,-0.259
250237,-122.0,8352.0,-398.0,0.539,0.745,-0.295,-0.258
250249,-20.0,8374.0,-818.0,0.538,0.745,-0.299,-0.258
250271,-308.0,8354.0,-1456.0,0.537,0.745,-0.301,-0.258
250293,-378.0,8188.0,-1406.0,0.536,0.745,-0.303,-0.258
250305,-164.0,8230.0,-1682.0,0.534,0.745,-0.305,-0.258
250327,-624.0,8032.0,-1678.0,0.533,0.745,-0.306,-0.258
250339,-710.0,7986.0,-1836.0,0.532,0.745,-0.307,-0.258
250361,-608.0,8126.0,-1822.0,0.531,0.745,-0.31,-0.258
250373,-568.0,8094.0,-1980.0,0.531,0.745,-0.311,-0.258
250395,-468.0,8066.0,-1854.0,0.53,0.744,-0.314,-0.257
250407,-490.0,7908.0,-2138.0,0.53,0.744,-0.316,-0.257
250429,-458.0,7928.0,-2294.0,0.53,0.744,-0.317,-0.255
250441,-424.0,7888.0,-2032.0,0.534,0.743,-0.316,-0.252
250463,-106.0,8082.0,-1358.0,0.538,0.742,-0.314,-0.248
250485,-462.0,8040.0,-1448.0,0.542,0.742,-0.311,-0.242
250497,-706.0,7958.0,-1630.0,0.548,0.742,-0.307,-0.235
250519,-1666.0,7130.0,-902.0,0.547,0.74,-0.313,-0.235
250531,-1282.0,8022.0,-2136.0,0.56,0.733,-0.312,-0.227
250553,194.0,7966.0,-896.0,0.574,0.727,-0.31,-0.215
250565,902.0,8278.0,-598.0,0.586,0.72,-0.31,-0.205
250587,1054.0,8248.0,766.0,0.59,0.712,-0.32,-0.206
250604,1474.0,8698.0,390.0,0.598,0.706,-0.323,-0.201
250616,1858.0,8676.0,806.0,0.602,0.702,-0.326,-0.196
250638,2130.0,8562.0,20.0,0.602,0.702,-0.328,-0.192
250660,1830.0,8312.0,-1512.0,0.601,0.703,-0.33,-0.19
250672,1426.0,8174.0,-1966.0,0.6,0.704,-0.329,-0.188
250694,1008.0,8166.0,-1200.0,0.603,0.704,-0.327,-0.187
250706,894.0,8152.0,-366.0,0.606,0.703,-0.323,-0.184
250728,932.0,8166.0,-638.0,0.608,0.704,-0.321,-0.18
250740,1140.0,8202.0,-980.0,0.609,0.704,-0.32,-0.178
250762,1370.0,8186.0,-946.0,0.611,0.703,-0.318,-0.175
250774,1142.0,8218.0,-1022.0,0.613,0.703,-0.316,-0.173
250796,984.0,8142.0,-854.0,0.615,0.703,-0.314,-0.171
250808,804.0,8188.0,-568.0,0.618,0.702,-0.313,-0.168
250830,788.0,7982.0,-260.0,0.62,0.7,-0.312,-0.166
250852,1398.0,8258.0,-722.0,0.623,0.699,-0.312,-0.163
250864,1624.0,8294.0,-356.0,0.626,0.697,-0.311,-0.161
250886,1600.0,8318.0,-208.0,0.628,0.696,-0.31,-0.159
250898,1478.0,8236.0,-418.0,0.629,0.696,-0.309,-0.157
250920,1324.0,8050.0,-8.0,0.631,0.696,-0.307,-0.155
250932,1640.0,8278.0,-438.0,0.633,0.695,-0.306,-0.154
250954,1572.0,8232.0,-236.0,0.634,0.695,-0.304,-0.152
250966,1232.0,8236.0,-416.0,0.635,0.695,-0.302,-0.152
250988,1152.0,8262.0,-256.0,0.636,0.694,-0.301,-0.151
251000,1452.0,8254.0,-120.0,0.636,0.695,-0.301,-0.15
251022,1324.0,8190.0,-516.0,0.636,0.695,-0.3,-0.149
251044,1222.0,8154.0,-626.0,0.636,0.695,-0.299,-0.149
251056,1062.0,8110.0,-586.0,0.636,0.695,-0.299,-0.149
251078,1118.0,8214.0,-168.0,0.637,0.695,-0.299,-0.148
251090,1478.0,8238.0,-34.0,0.636,0.695,-0.301,-0.148
251112,1562.0,8228.0,-562.0,0.635,0.695,-0.302,-0.148
251124,1518.0,8202.0,-618.0,0.633,0.696,-0.304,-0.15
251146,1438.0,8114.0,-482.0,0.632,0.696,-0.305,-0.151
251158,1068.0,8084.0,-710.0,0.632,0.696,-0.306,-0.151
251180,1054.0,8074.0,-576.0,0.631,0.696,-0.307,-0.151
251192,1140.0,8084.0,-604.0,0.631,0.696,-0.308,-0.151
251214,1440.0,8140.0,-590.0,0.63,0.695,-0.31,-0.151
251236,1304.0,8166.0,-568.0,0.63,0.695,-0.311,-0.151
251248,1562.0,8242.0,-422.0,0.63,0.695,-0.313,-0.151
251270,1798.0,8294.0,-564.0,0.629,0.694,-0.314,-0.151
251282,1528.0,8328.0,-606.0,0.629,0.694,-0.315,-0.152
251304,1374.0,8168.0,-408.0,0.628,0.694,-0.316,-0.153
251316,1194.0,8084.0,-716.0,0.627,0.694,-0.318,-0.153
251338,1286.0,8154.0,-642.0,0.626,0.694,-0.32,-0.154
251350,1336.0,8022.0,-598.0,0.626,0.694,-0.321,-0.154
251372,1604.0,8172.0,-540.0,0.625,0.694,-0.323,-0.154
251394,1936.0,8288.0,-668.0,0.624,0.694,-0.324,-0.154
251406,1590.0,8176.0,-884.0,0.623,0.694,-0.326,-0.154
251428,1416.0,8190.0,-792.0,0.622,0.694,-0.327,-0.155
251440,1434.0,8100.0,-668.0,0.621,0.694,-0.328,-0.156
251462,1252.0,8068.0,-570.0,0.62,0.694,-0.33,-0.157
251474,1254.0,8046.0,-652.0,0.619,0.694,-0.333,-0.158
251496,1408.0,8044.0,-872.0,0.617,0.693,-0.337,-0.159
251508,1740.0,8114.0,-864.0,0.616,0.693,-0.34,-0.159
251530,1738.0,8272.0,-950.0,0.614,0.693,-0.342,-0.16
251542,1816.0,8202.0,-998.0,0.612,0.693,-0.345,-0.161
251564,1720.0,8184.0,-1108.0,0.612,0.693,-0.346,-0.162
251576,1434.0,8084.0,-914.0,0.611,0.693,-0.347,-0.162
251598,1358.0,7970.0,-734.0,0.611,0.692,-0.348,-0.163
251620,1434.0,8066.0,-1022.0,0.61,0.692,-0.35,-0.163
251632,1854.0,8156.0,-1046.0,0.609,0.692,-0.352,-0.163
251654,1736.0,8092.0,-1048.0,0.608,0.692,-0.353,-0.163
251666,1576.0,8094.0,-942.0,0.608,0.691,-0.355,-0.163
251688,1734.0,8172.0,-1032.0,0.607,0.691,-0.356,-0.164
251700,1676.0,8106.0,-1060.0,0.607,0.691,-0.358,-0.164
251722,1870.0,8124.0,-1078.0,0.606,0.691,-0.359,-0.164
251734,1838.0,8084.0,-1110.0,0.606,0.69,-0.359,-0.165
251756,1422.0,7960.0,-1040.0,0.606,0.69,-0.359,-0.165
251768,1294.0,7940.0,-1060.0,0.606,0.69,-0.36,-0.165
251790,1672.0,8080.0,-1048.0,0.605,0.69,-0.362,-0.165
251812,2024.0,8072.0,-1122.0,0.605,0.69,-0.363,-0.165
251824,2016.0,8222.0,-1254.0,0.605,0.689,-0.363,-0.165
251846,1672.0,8094.0,-942.0,0.605,0.689,-0.363,-0.165
251858,1444.0,7954.0,-982.0,0.604,0.689,-0.364,-0.165
251880,1686.0,8012.0,-1294.0,0.604,0.689,-0.365,-0.165
251892,1814.0,8084.0,-1250.0,0.604,0.689,-0.366,-0.165
251914,1758.0,8134.0,-984.0,0.604,0.689,-0.366,-0.165
251926,1796.0,8080.0,-998.0,0.604,0.689,-0.366,-0.165
251948,1718.0,8088.0,-1120.0,0.604,0.689,-0.366,-0.165
251960,1844.0,8064.0,-1154.0,0.603,0.689,-0.367,-0.165
251982,1694.0,7980.0,-1162.0,0.603,0.689,-0.367,-0.165
252004,1544.0,7994.0,-1114.0,0.603,0.688,-0.368,-0.165
252016,1866.0,8046.0,-1012.0,0.603,0.688,-0.368,-0.165
252038,1894.0,8090.0,-1208.0,0.603,0.688,-0.368,-0.166
252050,1692.0,8066.0,-1098.0,0.603,0.688,-0.368,-0.166
252072,1610.0,8056.0,-1038.0,0.602,0.688,-0.369,-0.166
252084,1808.0,8072.0,-1086.0,0.602,0.688,-0.37,-0.166
252106,1660.0,7978.0,-1122.0,0.602,0.688,-0.37,-0.166
252118,1740.0,8062.0,-1140.0,0.601,0.688,-0.371,-0.166
252140,1976.0,8104.0,-1222.0,0.601,0.688,-0.372,-0.166
252152,1886.0,7960.0,-1122.0,0.601,0.688,-0.372,-0.166
252174,1412.0,7984.0,-1154.0,0.601,0.687,-0.372,-0.166
252196,1528.0,8040.0,-966.0,0.601,0.687,-0.373,-0.166
252208,1952.0,8082.0,-1082.0,0.601,0.687,-0.375,-0.166
252230,2084.0,8146.0,-1236.0,0.6,0.687,-0.375,-0.166
252242,1920.0,8026.0,-1314.0,0.6,0.687,-0.376,-0.166
252264,1772.0,8028.0,-1250.0,0.6,0.686,-0.375,-0.165
252276,1706.0,8080.0,-1040.0,0.6,0.686,-0.376,-0.166
252298,1842.0,7994.0,-1038.0,0.6,0.686,-0.376,-0.165
252310,1844.0,8038.0,-1424.0,0.6,0.686,-0.377,-0.165
252332,1832.0,8014.0,-1266.0,0.6,0.686,-0.377,-0.165
252344,1786.0,8028.0,-1112.0,0.6,0.686,-0.378,-0.165
252366,1830.0,8068.0,-1296.0,0.599,0.686,-0.379,-0.166
252388,1874.0,8038.0,-1284.0,0.599,0.685,-0.38,-0.166
252400,1982.0,8154.0,-1212.0,0.598,0.685,-0.381,-0.166
252422,1748.0,8006.0,-1218.0,0.597,0.685,-0.381,-0.167
252434,1644.0,7940.0,-1310.0,0.597,0.685,-0.382,-0.167
252456,1742.0,8000.0,-1248.0,0.596,0.685,-0.384,-0.167
252468,1886.0,7960.0,-1346.0,0.595,0.685,-0.385,-0.167
252490,2060.0,8008.0,-1256.0,0.595,0.685,-0.387,-0.168
252502,1924.0,8032.0,-1324.0,0.594,0.684,-0.388,-0.168
252524,1832.0,8044.0,-1370.0,0.593,0.684,-0.389,-0.169
252536,2078.0,8016.0,-1248.0,0.593,0.684,-0.39,-0.169
252558,1840.0,7930.0,-1300.0,0.592,0.684,-0.391,-0.17
252580,1784.0,7996.0,-1424.0,0.592,0.684,-0.392,-0.17
252592,2052.0,7994.0,-1398.0,0.592,0.683,-0.392,-0.17
252609,1818.0,7988.0,-1440.0,0.592,0.683,-0.392,-0.17
252631,1778.0,7974.0,-1314.0,0.592,0.683,-0.392,-0.17
252643,1976.0,8024.0,-1338.0,0.592,0.683,-0.392,-0.17
252665,2092.0,8070.0,-1424.0,0.592,0.683,-0.393,-0.17
252677,1880.0,7906.0,-1486.0,0.592,0.683,-0.392,-0.17
252699,1560.0,7942.0,-1382.0,0.592,0.683,-0.392,-0.17
252711,1756.0,7966.0,-1216.0,0.592,0.683,-0.392,-0.17
252733,2086.0,8052.0,-1436.0,0.592,0.683,-0.393,-0.169
252755,2166.0,8012.0,-1456.0,0.592,0.683,-0.393,-0.169
252767,2064.0,8030.0,-1430.0,0.592,0.683,-0.393,-0.169
252789,1890.0,8014.0,-1348.0,0.592,0.683,-0.393,-0.17
252801,1712.0,7936.0,-1146.0,0.592,0.683,-0.392,-0.17
252823,1702.0,7894.0,-1350.0,0.592,0.683,-0.393,-0.17
252835,1898.0,7920.0,-1484.0,0.592,0.683,-0.394,-0.17
252857,2066.0,7990.0,-1412.0,0.592,0.682,-0.394,-0.17
252869,2124.0,8052.0,-1416.0,0.592,0.682,-0.394,-0.17
252891,1936.0,8160.0,-1498.0,0.592,0.682,-0.394,-0.17
252903,1726.0,7958.0,-1258.0,0.592,0.682,-0.394,-0.17
252925,1718.0,7930.0,-1510.0,0.592,0.682,-0.394,-0.17
252947,1962.0,7962.0,-1510.0,0.592,0.682,-0.394,-0.169
252959,1916.0,7900.0,-1330.0,0.592,0.682,-0.394,-0.169
252981,1930.0,7958.0,-1310.0,0.592,0.682,-0.394,-0.169
252993,1916.0,7990.0,-1448.0,0.592,0.682,-0.394,-0.169
253015,1958.0,7968.0,-1436.0,0.592,0.682,-0.395,-0.17
253027,1824.0,7942.0,-1446.0,0.592,0.682,-0.395,-0.17
253049,1902.0,8012.0,-1326.0,0.592,0.682,-0.395,-0.17
253061,2014.0,7950.0,-1286.0,0.592,0.682,-0.394,-0.169
253083,1966.0,7922.0,-1515.0,0.592,0.682,-0.395,-0.169
253105,1890.0,7962.0,-1571.0,0.592,0.682,-0.395,-0.17
253117,1768.0,7916.0,-1331.0,0.592,0.682,-0.394,-0.17
253139,1791.0,7979.0,-1229.0,0.593,0.682,-0.394,-0.17
253151,1936.0,7960.0,-1354.0,0.592,0.681,-0.395,-0.17
253173,2128.0,8024.0,-1492.0,0.592,0.681,-0.395,-0.17
253185,2082.0,8012.0,-1458.0,0.592,0.681,-0.395,-0.17
253207,1706.0,7914.0,-1384.0,0.593,0.681,-0.394,-0.17
253219,1772.0,7964.0,-1252.0,0.593,0.681,-0.394,-0.17
253241,1824.0,7964.0,-1282.0,0.593,0.681,-0.395,-0.169
253253,2140.0,8042.0,-1432.0,0.593,0.681,-0.395,-0.169
253275,2146.0,8034.0,-1462.0,0.593,0.681,-0.396,-0.169
253287,2004.0,7964.0,-1478.0,0.593,0.681,-0.395,-0.169
253309,1790.0,7934.0,-1476.0,0.593,0.681,-0.395,-0.169
253331,1778.0,7948.0,-1370.0,0.593,0.681,-0.395,-0.17
253343,1946.0,7990.0,-1230.0,0.593,0.681,-0.395,-0.17
253365,1914.0,8000.0,-1346.0,0.593,0.681,-0.396,-0.17
253377,1914.0,7962.0,-1482.0,0.593,0.68,-0.396,-0.17
253399,1990.0,7940.0,-1440.0,0.593,0.68,-0.396,-0.17
253411,2020.0,7988.0,-1420.0,0.593,0.68,-0.396,-0.17
253433,1916.0,7976.0,-1338.0,0.593,0.68,-0.396,-0.17
253445,1846.0,7948.0,-1499.0,0.593,0.68,-0.396,-0.17
253467,1728.0,7950.0,-1363.0,0.593,0.68,-0.396,-0.17
253479,1772.0,7920.0,-1199.0,0.593,0.68,-0.396,-0.17
253501,2092.0,7946.0,-1391.0,0.593,0.68,-0.397,-0.17
253523,2084.0,7984.0,-1677.0,0.593,0.68,-0.397,-0.17
253535,1908.0,7996.0,-1413.0,0.593,0.68,-0.397,-0.17
253557,1740.0,7926.0,-1155.0,0.593,0.68,-0.397,-0.17
253569,1914.0,8012.0,-1325.0,0.593,0.68,-0.397,-0.17
253591,2086.0,7940.0,-1497.0,0.593,0.679,-0.398,-0.17
253603,2090.0,7974.0,-1469.0,0.593,0.679,-0.398,-0.17
253625,1834.0,7906.0,-1393.0,0.593,0.679,-0.397,-0.17
253637,1768.0,7936.0,-1295.0,0.593,0.679,-0.398,-0.17
253659,1890.0,7946.0,-1349.0,0.593,0.679,-0.398,-0.17
253671,2130.0,8000.0,-1509.0,0.593,0.679,-0.399,-0.17
253693,2150.0,8042.0,-1493.0,0.593,0.679,-0.398,-0.17
253715,1824.0,7932.0,-1379.0,0.593,0.679,-0.398,-0.17
253727,1760.0,7910.0,-1449.0,0.593,0.678,-0.398,-0.17
253749,1924.0,7956.0,-1439.0,0.593,0.678,-0.399,-0.17
253761,2020.0,7942.0,-1443.0,0.594,0.678,-0.399,-0.17
253783,2036.0,7996.0,-1353.0,0.594,0.678,-0.399,-0.17
253795,1898.0,8010.0,-1337.0,0.594,0.678,-0.398,-0.17
253817,1826.0,7904.0,-1403.0,0.594,0.678,-0.399,-0.17
253829,1970.0,7980.0,-1531.0,0.593,0.678,-0.399,-0.17
253851,2130.0,7922.0,-1475.0,0.594,0.678,-0.399,-0.17
253863,1892.0,7984.0,-1521.0,0.594,0.678,-0.399,-0.17
253885,1834.0,7994.0,-1267.0,0.594,0.677,-0.399,-0.17
253907,1902.0,8000.0,-1217.0,0.594,0.677,-0.399,-0.17
253919,2042.0,7978.0,-1587.0,0.595,0.677,-0.398,-0.17
253941,1996.0,7922.0,-1561.0,0.595,0.677,-0.398,-0.17
253953,1860.0,7922.0,-1347.0,0.595,0.677,-0.398,-0.17
253975,1742.0,7888.0,-1297.0,0.595,0.677,-0.398,-0.17
253987,1940.0,7924.0,-1261.0,0.595,0.677,-0.399,-0.17
254009,2184.0,7950.0,-1461.0,0.595,0.677,-0.399,-0.17
254021,1996.0,7986.0,-1565.0,0.595,0.677,-0.399,-0.171
254043,2008.0,8042.0,-1337.0,0.594,0.676,-0.4,-0.171
254055,2236.0,8060.0,-1225.0,0.594,0.676,-0.4,-0.172
254077,2150.0,8098.0,-1429.0,0.593,0.677,-0.4,-0.172
254099,1720.0,7626.0,-925.0,0.591,0.677,-0.403,-0.175
254111,1580.0,7896.0,-1669.0,0.591,0.676,-0.403,-0.177
254133,1916.0,8028.0,-1173.0,0.591,0.675,-0.405,-0.179
254145,1978.0,8028.0,-859.0,0.589,0.674,-0.407,-0.182
254167,1926.0,8032.0,-1189.0,0.587,0.674,-0.41,-0.184
254179,1664.0,7948.0,-1575.0,0.585,0.673,-0.412,-0.187
254201,1668.0,7924.0,-1767.0,0.583,0.672,-0.415,-0.189
254213,1760.0,7942.0,-1565.0,0.581,0.671,-0.418,-0.192
254235,1806.0,7912.0,-947.0,0.576,0.668,-0.426,-0.198
254247,1620.0,7956.0,-1479.0,0.575,0.668,-0.429,-0.199
254269,1812.0,7924.0,-1653.0,0.574,0.667,-0.431,-0.199
254291,2022.0,7972.0,-1593.0,0.573,0.667,-0.433,-0.2
254303,2000.0,7990.0,-1571.0,0.572,0.666,-0.435,-0.2
254325,1858.0,7922.0,-1637.0,0.571,0.666,-0.436,-0.201
254337,1948.0,7964.0,-1751.0,0.57,0.666,-0.437,-0.201
254359,2098.0,7940.0,-1899.0,0.57,0.665,-0.438,-0.202
254371,1920.0,7926.0,-1689.0,0.57,0.665,-0.438,-0.202
254393,1722.0,7866.0,-1639.0,0.57,0.665,-0.438,-0.203
254405,1818.0,7862.0,-1693.0,0.569,0.665,-0.439,-0.203
254427,1968.0,7916.0,-1623.0,0.569,0.665,-0.44,-0.204
254439,1860.0,7922.0,-1701.0,0.568,0.664,-0.44,-0.204
254461,1878.0,7908.0,-1737.0,0.568,0.664,-0.441,-0.204
254483,1882.0,7928.0,-1653.0,0.568,0.664,-0.441,-0.205
254495,1850.0,7886.0,-1677.0,0.567,0.664,-0.442,-0.206
254517,1894.0,7900.0,-1795.0,0.567,0.663,-0.443,-0.206
254529,1884.0,7944.0,-1769.0,0.566,0.663,-0.444,-0.207
254551,1772.0,7916.0,-1655.0,0.565,0.663,-0.445,-0.208
254563,1884.0,7918.0,-1757.0,0.565,0.662,-0.446,-0.209
254585,1934.0,7976.0,-1797.0,0.564,0.662,-0.447,-0.209
254597,1964.0,7958.0,-1697.0,0.563,0.661,-0.448,-0.21
254614,1912.0,7942.0,-1647.0,0.563,0.661,-0.449,-0.211
254636,1894.0,7908.0,-1749.0,0.561,0.661,-0.451,-0.211
254658,1986.0,7960.0,-1993.0,0.559,0.661,-0.453,-0.213
254670,2016.0,7854.0,-2397.0,0.556,0.659,-0.458,-0.217
254692,2010.0,8242.0,-1039.0,0.551,0.657,-0.464,-0.222
254704,1708.0,7994.0,-2439.0,0.547,0.657,-0.467,-0.225
254726,2088.0,8186.0,-853.0,0.54,0.654,-0.476,-0.233
254738,1646.0,8056.0,-1459.0,0.536,0.654,-0.479,-0.235
254760,1460.0,7786.0,-2417.0,0.53,0.655,-0.483,-0.238
254772,1672.0,7724.0,-2305.0,0.523,0.653,-0.491,-0.244
254794,1762.0,7880.0,-2289.0,0.515,0.651,-0.498,-0.249
254806,1484.0,7772.0,-2685.0,0.509,0.651,-0.503,-0.253
254828,1526.0,7796.0,-2539.0,0.503,0.649,-0.509,-0.258
254850,1480.0,7846.0,-2075.0,0.498,0.648,-0.514,-0.263
254862,1364.0,7832.0,-2713.0,0.493,0.647,-0.517,-0.266
254884,1466.0,7732.0,-2987.0,0.489,0.646,-0.521,-0.268
254896,1678.0,7794.0,-2923.0,0.485,0.645,-0.524,-0.272
254918,1912.0,7718.0,-3023.0,0.478,0.642,-0.531,-0.279
254930,2044.0,8120.0,-2111.0,0.47,0.639,-0.537,-0.287
254952,1402.0,7790.0,-2691.0,0.464,0.639,-0.539,-0.293
254964,916.0,7604.0,-2499.0,0.456,0.639,-0.542,-0.299
254986,380.0,7676.0,-2613.0,0.45,0.639,-0.545,-0.304
254998,234.0,7612.0,-2815.0,0.443,0.639,-0.548,-0.308
255020,556.0,7700.0,-2997.0,0.437,0.638,-0.553,-0.311
255032,940.0,7606.0,-3325.0,0.43,0.637,-0.557,-0.314
255054,1164.0,7570.0,-3619.0,0.422,0.634,-0.563,-0.32
255076,968.0,7704.0,-3549.0,0.415,0.633,-0.567,-0.325
255088,810.0,7714.0,-3193.0,0.407,0.63,-0.572,-0.332
255110,496.0,7680.0,-3369.0,0.399,0.627,-0.576,-0.339
255122,374.0,7680.0,-2739.0,0.39,0.624,-0.581,-0.347
255144,188.0,7540.0,-3051.0,0.381,0.622,-0.586,-0.353
255156,-52.0,7508.0,-3045.0,0.372,0.619,-0.591,-0.359
255178,-318.0,7488.0,-3247.0,0.365,0.618,-0.595,-0.363
255190,-508.0,7408.0,-3413.0,0.357,0.616,-0.599,-0.367
255212,-292.0,7418.0,-3683.0,0.349,0.613,-0.604,-0.371
255234,110.0,7446.0,-3777.0,0.341,0.611,-0.609,-0.374
255246,136.0,7676.0,-4219.0,0.333,0.608,-0.614,-0.377
255268,-242.0,7400.0,-4527.0,0.326,0.605,-0.617,-0.382
255280,-282.0,7334.0,-4177.0,0.32,0.602,-0.621,-0.387
255302,-294.0,7390.0,-4063.0,0.316,0.598,-0.623,-0.392
255314,-134.0,7564.0,-3631.0,0.312,0.595,-0.625,-0.397
255336,-26.0,7466.0,-3627.0,0.308,0.592,-0.627,-0.402
255348,-68.0,7684.0,-3847.0,0.304,0.59,-0.627,-0.407
255370,-150.0,7592.0,-4079.0,0.301,0.589,-0.627,-0.412
255392,-246.0,7596.0,-4005.0,0.298,0.588,-0.626,-0.417
255404,-482.0,7548.0,-4415.0,0.296,0.587,-0.624,-0.422
255416,-428.0,7912.0,-3439.0,0.296,0.585,-0.622,-0.43
255438,-716.0,7430.0,-3597.0,0.295,0.585,-0.618,-0.435
255460,-1010.0,7760.0,-3915.0,0.295,0.585,-0.613,-0.441
255472,-1014.0,7484.0,-3759.0,0.296,0.585,-0.608,-0.447
255494,-1058.0,7714.0,-2883.0,0.298,0.586,-0.602,-0.453
255506,-1120.0,7664.0,-2671.0,0.3,0.587,-0.596,-0.459
255528,-1356.0,7518.0,-1927.0,0.301,0.589,-0.588,-0.465
255540,-1796.0,7662.0,-1993.0,0.301,0.592,-0.582,-0.47
255562,-2284.0,7660.0,-2317.0,0.299,0.594,-0.577,-0.474
255574,-2030.0,7804.0,-3309.0,0.298,0.597,-0.573,-0.477
255596,-2252.0,7784.0,-4419.0,0.296,0.597,-0.569,-0.482
255608,-1954.0,7642.0,-4203.0,0.297,0.596,-0.564,-0.488
255630,-1872.0,7538.0,-3897.0,0.3,0.596,-0.557,-0.495
255652,-896.0,7778.0,-487.0,0.306,0.597,-0.545,-0.503
255664,-2410.0,6878.0,-2533.0,0.314,0.599,-0.533,-0.508
255686,-1870.0,7218.0,-1775.0,0.322,0.603,-0.52,-0.512
255698,-1864.0,6826.0,-1683.0,0.325,0.601,-0.511,-0.521
255720,-2202.0,7452.0,-2161.0,0.329,0.601,-0.501,-0.529
255732,-2536.0,7772.0,-2201.0,0.333,0.6,-0.489,-0.538
255754,-2512.0,7992.0,-1147.0,0.337,0.598,-0.478,-0.548
255766,-2624.0,7618.0,-975.0,0.341,0.594,-0.467,-0.558
255788,-2876.0,7660.0,-647.0,0.345,0.591,-0.457,-0.568
255810,-3186.0,7802.0,1225.0,0.352,0.591,-0.442,-0.575
255822,-3660.0,7232.0,-99.0,0.362,0.592,-0.426,-0.58
255844,-4522.0,7190.0,-231.0,0.372,0.594,-0.409,-0.585
255856,-4526.0,7286.0,-365.0,0.385,0.596,-0.392,-0.586
255878,-3258.0,7646.0,139.0,0.4,0.597,-0.375,-0.585
255890,-2070.0,7740.0,893.0,0.418,0.6,-0.355,-0.583
255912,-1340.0,7406.0,617.0,0.436,0.61,-0.326,-0.576
255924,-1796.0,5422.0,-2771.0,0.451,0.62,-0.292,-0.572
255946,-2854.0,6924.0,-493.0,0.468,0.632,-0.25,-0.565
255968,-3824.0,7038.0,417.0,0.484,0.641,-0.206,-0.559
255980,-3774.0,5978.0,-159.0,0.496,0.642,-0.17,-0.56
255992,-4044.0,6032.0,-1051.0,0.508,0.639,-0.131,-0.563
256014,-4172.0,5058.0,-727.0,0.52,0.632,-0.09,-0.568
256036,-5122.0,3830.0,-181.0,0.531,0.62,-0.043,-0.576
256048,-6254.0,3156.0,299.0,0.542,0.606,0.005,-0.583
256070,-6874.0,2578.0,1017.0,0.553,0.587,0.055,-0.588
256082,-7070.0,2022.0,2099.0,0.565,0.565,0.106,-0.592
256104,-6716.0,1248.0,3341.0,0.577,0.539,0.156,-0.594
256116,-6678.0,252.0,4589.0,0.586,0.511,0.205,-0.595
256138,-7516.0,-110.0,5181.0,0.591,0.483,0.252,-0.596
256150,-8332.0,256.0,5331.0,0.593,0.455,0.296,-0.595
256172,-15536.0,-2754.0,6577.0,0.599,0.414,0.324,-0.604
256184,-17148.0,-1136.0,17447.0,0.601,0.426,0.325,-0.593
256206,-3200.0,1198.0,1023.0,0.606,0.443,0.314,-0.582
256228,-1638.0,1996.0,-519.0,0.608,0.445,0.311,-0.579
256240,-2842.0,1594.0,-291.0,0.608,0.435,0.319,-0.583
256262,-11288.0,-492.0,7625.0,0.61,0.413,0.327,-0.592
256274,-9934.0,-544.0,7323.0,0.612,0.412,0.322,-0.594
256296,-5134.0,552.0,205.0,0.614,0.41,0.32,-0.593
256308,-7496.0,-36.0,2781.0,0.618,0.401,0.323,-0.594
256330,-9026.0,-92.0,4435.0,0.623,0.394,0.324,-0.593
256342,-8110.0,-336.0,1891.0,0.63,0.389,0.326,-0.588
256364,-8190.0,136.0,2023.0,0.639,0.38,0.334,-0.579
256386,-7754.0,-662.0,3557.0,0.652,0.369,0.34,-0.569
256398,-8026.0,-404.0,5435.0,0.666,0.357,0.344,-0.558
256420,-7656.0,-618.0,6149.0,0.681,0.347,0.343,-0.547
256432,-7684.0,-454.0,6109.0,0.695,0.34,0.339,-0.535
256454,-6704.0,-358.0,6221.0,0.711,0.335,0.331,-0.523
256466,-5866.0,382.0,5629.0,0.725,0.332,0.319,-0.512
256488,-4808.0,798.0,5427.0,0.739,0.33,0.307,-0.501
256500,-4062.0,1240.0,5289.0,0.75,0.327,0.296,-0.493
256522,-3760.0,1344.0,5275.0,0.759,0.323,0.287,-0.487
256534,-3558.0,1344.0,5209.0,0.765,0.318,0.282,-0.484
256556,-3902.0,1798.0,5271.0,0.769,0.311,0.278,-0.484
256578,-4938.0,1440.0,5497.0,0.772,0.302,0.274,-0.487
256590,-5442.0,884.0,5551.0,0.775,0.293,0.272,-0.49
256617,-5850.0,268.0,5833.0,0.777,0.283,0.273,-0.491
256629,-5874.0,290.0,6103.0,0.781,0.273,0.273,-0.491
256641,-5722.0,588.0,6185.0,0.784,0.265,0.275,-0.489
256663,-5224.0,46.0,6027.0,0.787,0.257,0.278,-0.487
256675,-4952.0,-368.0,5995.0,0.79,0.25,0.281,-0.484
256697,-5138.0,-416.0,6323.0,0.793,0.242,0.287,-0.48
256709,-5640.0,-514.0,6547.0,0.796,0.234,0.295,-0.474
256731,-5942.0,418.0,6277.0,0.799,0.227,0.299,-0.469
256743,-5804.0,-192.0,6593.0,0.803,0.22,0.304,-0.464
256765,-6068.0,414.0,7337.0,0.806,0.212,0.31,-0.458
256787,-5960.0,748.0,7711.0,0.809,0.207,0.315,-0.452
256799,-6046.0,944.0,7357.0,0.81,0.205,0.316,-0.449
256821,-6086.0,430.0,6455.0,0.812,0.206,0.312,-0.448
256833,-6382.0,192.0,5521.0,0.813,0.209,0.311,-0.447
256855,-7140.0,1938.0,4187.0,0.812,0.212,0.31,-0.446
256867,-6224.0,-218.0,3809.0,0.816,0.213,0.312,-0.438
256889,-5296.0,-336.0,4689.0,0.819,0.209,0.319,-0.428
256901,-5240.0,-592.0,6847.0,0.823,0.201,0.324,-0.421
256923,-5434.0,-216.0,8129.0,0.826,0.196,0.329,-0.414
256935,-5226.0,-710.0,8883.0,0.827,0.193,0.333,-0.41
256957,-5092.0,222.0,9469.0,0.827,0.194,0.332,-0.41
256979,-4276.0,-54.0,9019.0,0.826,0.2,0.326,-0.414
256991,-4224.0,402.0,8255.0,0.823,0.209,0.313,-0.425
257013,-4376.0,128.0,6793.0,0.819,0.218,0.298,-0.439
257025,-4910.0,354.0,5907.0,0.814,0.227,0.282,-0.455
257047,-4920.0,568.0,5977.0,0.808,0.233,0.264,-0.472
257059,-5294.0,-394.0,5579.0,0.803,0.236,0.25,-0.487
257081,-4972.0,458.0,5627.0,0.796,0.24,0.24,-0.501
257093,-4992.0,984.0,6689.0,0.79,0.242,0.23,-0.514
257115,-5620.0,426.0,6851.0,0.784,0.244,0.218,-0.527
257127,-7832.0,-2336.0,8405.0,0.779,0.251,0.21,-0.534
257149,-6358.0,1650.0,5661.0,0.779,0.255,0.198,-0.538
257171,-4524.0,888.0,5445.0,0.779,0.257,0.189,-0.539
257183,-4122.0,1372.0,5919.0,0.78,0.256,0.184,-0.54
257205,-4220.0,1344.0,6803.0,0.782,0.254,0.18,-0.54
257217,-4110.0,1602.0,7421.0,0.784,0.249,0.171,-0.542
257239,-3678.0,1112.0,7977.0,0.786,0.244,0.157,-0.546
257251,-4116.0,-318.0,7735.0,0.786,0.25,0.153,-0.545
257273,-6046.0,550.0,5455.0,0.789,0.249,0.135,-0.545
257285,-4608.0,826.0,4051.0,0.796,0.247,0.118,-0.54
257307,-3490.0,1682.0,5843.0,0.805,0.242,0.104,-0.532
257319,-1908.0,2840.0,5011.0,0.813,0.239,0.1,-0.521
257341,-1146.0,2666.0,7807.0,0.82,0.229,0.095,-0.516
257363,-804.0,2096.0,6771.0,0.825,0.222,0.103,-0.51
257375,-1606.0,2008.0,8853.0,0.827,0.212,0.107,-0.51
257397,-2808.0,1592.0,8991.0,0.828,0.203,0.108,-0.512
257409,-3670.0,1338.0,7939.0,0.827,0.199,0.107,-0.515
257431,-4012.0,1280.0,8939.0,0.827,0.196,0.098,-0.518
257443,-3408.0,1284.0,7993.0,0.828,0.195,0.091,-0.518
257465,-2596.0,1396.0,7357.0,0.83,0.193,0.083,-0.517
257477,-2144.0,1402.0,8189.0,0.833,0.187,0.07,-0.516
257499,-386.0,2018.0,6337.0,0.837,0.187,0.063,-0.51
257511,-384.0,2234.0,8509.0,0.839,0.183,0.054,-0.509
257533,-110.0,1162.0,7943.0,0.839,0.179,0.048,-0.512
257555,-530.0,1746.0,8673.0,0.836,0.177,0.04,-0.517
257567,-1454.0,2362.0,8287.0,0.832,0.17,0.021,-0.527
257589,-1888.0,1572.0,7209.0,0.828,0.161,-0.005,-0.537
257601,-1606.0,1608.0,7433.0,0.824,0.147,-0.038,-0.546
257623,-480.0,1858.0,8133.0,0.821,0.127,-0.08,-0.551
257635,478.0,1854.0,8937.0,0.816,0.105,-0.125,-0.554
257657,810.0,1870.0,7091.0,0.81,0.085,-0.169,-0.555
257669,1504.0,1754.0,8637.0,0.802,0.064,-0.216,-0.553
257691,1940.0,892.0,8745.0,0.793,0.05,-0.262,-0.547
257703,1784.0,2448.0,7329.0,0.791,0.05,-0.287,-0.537
257725,2544.0,2570.0,10345.0,0.79,0.053,-0.311,-0.526
257747,3814.0,2756.0,6271.0,0.786,0.047,-0.345,-0.511
257759,4386.0,2584.0,5275.0,0.787,0.045,-0.367,-0.494
257781,4104.0,4190.0,5105.0,0.787,0.043,-0.383,-0.481
257793,5984.0,3224.0,3851.0,0.789,0.038,-0.395,-0.469
257815,6572.0,2416.0,4237.0,0.791,0.033,-0.402,-0.46
257827,6732.0,3418.0,5105.0,0.793,0.028,-0.404,-0.455
257849,6682.0,2960.0,5399.0,0.795,0.025,-0.402,-0.453
257861,6258.0,2916.0,6015.0,0.797,0.024,-0.4,-0.453
257883,5648.0,2716.0,6267.0,0.798,0.025,-0.397,-0.453
257895,4894.0,2674.0,5859.0,0.798,0.026,-0.396,-0.453
257917,4470.0,2572.0,5367.0,0.8,0.027,-0.393,-0.453
257939,5008.0,2564.0,5349.0,0.802,0.028,-0.39,-0.451
257951,5638.0,2630.0,5767.0,0.805,0.028,-0.387,-0.449
257973,5880.0,2626.0,6049.0,0.808,0.028,-0.383,-0.447
257985,5754.0,2672.0,6187.0,0.809,0.028,-0.381,-0.447
258007,5282.0,2628.0,6005.0,0.811,0.03,-0.378,-0.446
258019,4870.0,2556.0,5807.0,0.813,0.032,-0.374,-0.446
258041,4852.0,2448.0,5999.0,0.815,0.033,-0.369,-0.445
258053,4794.0,2544.0,6167.0,0.818,0.035,-0.365,-0.443
258075,4762.0,2608.0,6119.0,0.821,0.037,-0.36,-0.442
258097,4086.0,2504.0,5473.0,0.825,0.04,-0.353,-0.44
258109,4706.0,2490.0,6027.0,0.829,0.042,-0.345,-0.438
258131,4940.0,2286.0,6453.0,0.833,0.043,-0.338,-0.435
258143,5256.0,2376.0,6695.0,0.837,0.044,-0.332,-0.433
258165,5176.0,2390.0,6641.0,0.84,0.045,-0.327,-0.431
258177,4954.0,2352.0,6687.0,0.842,0.047,-0.321,-0.431
258199,4560.0,2216.0,6789.0,0.844,0.05,-0.316,-0.431
258211,4080.0,2208.0,6617.0,0.845,0.053,-0.311,-0.432
258233,3936.0,2304.0,6487.0,0.847,0.055,-0.306,-0.431
258245,3958.0,2216.0,6569.0,0.848,0.056,-0.303,-0.431
258267,3998.0,2222.0,6745.0,0.85,0.058,-0.299,-0.43
258279,4206.0,2246.0,6917.0,0.852,0.058,-0.295,-0.429
258301,4276.0,2432.0,7035.0,0.853,0.059,-0.292,-0.428
258323,4292.0,2348.0,6707.0,0.855,0.06,-0.288,-0.427
258335,4230.0,2346.0,6645.0,0.856,0.061,-0.286,-0.426
258357,3936.0,2168.0,6821.0,0.856,0.06,-0.285,-0.426
258369,3710.0,2094.0,7045.0,0.856,0.06,-0.285,-0.427
258391,3534.0,2106.0,6943.0,0.857,0.06,-0.285,-0.426
258403,3718.0,2192.0,6747.0,0.857,0.06,-0.284,-0.425
258425,4150.0,2202.0,6863.0,0.858,0.059,-0.284,-0.424
258437,4514.0,2350.0,7117.0,0.859,0.059,-0.283,-0.423
258459,4404.0,2308.0,7305.0,0.859,0.058,-0.282,-0.423
258471,3906.0,2216.0,7117.0,0.859,0.059,-0.283,-0.423
258493,3560.0,2078.0,6627.0,0.859,0.059,-0.283,-0.423
258515,3536.0,2148.0,6709.0,0.859,0.059,-0.283,-0.423
258527,3748.0,2154.0,6975.0,0.859,0.058,-0.282,-0.423
258549,4052.0,2228.0,6971.0,0.86,0.058,-0.282,-0.422
258561,4128.0,2228.0,7071.0,0.86,0.058,-0.282,-0.422
258583,4132.0,2238.0,7033.0,0.86,0.058,-0.282,-0.421
258595,4148.0,2228.0,6921.0,0.86,0.058,-0.283,-0.421
258622,3866.0,2150.0,6881.0,0.86,0.058,-0.283,-0.421
258634,3772.0,2156.0,6989.0,0.86,0.058,-0.282,-0.421
258646,3748.0,2132.0,6959.0,0.86,0.058,-0.282,-0.42
258668,3894.0,2156.0,6865.0,0.861,0.057,-0.282,-0.419
258690,4070.0,2198.0,6815.0,0.861,0.057,-0.282,-0.419
258702,4184.0,2186.0,7005.0,0.861,0.057,-0.282,-0.418
258724,3986.0,2178.0,7109.0,0.862,0.057,-0.282,-0.418
258736,3814.0,2132.0,6861.0,0.862,0.057,-0.283,-0.418
258758,3744.0,2084.0,6815.0,0.862,0.057,-0.282,-0.417
258770,4026.0,2112.0,7145.0,0.862,0.056,-0.282,-0.417
258792,4172.0,2212.0,7125.0,0.863,0.056,-0.282,-0.416
258804,4078.0,2220.0,6933.0,0.863,0.057,-0.282,-0.416
258826,3910.0,2140.0,6785.0,0.863,0.056,-0.282,-0.415
258838,3766.0,2182.0,7031.0,0.863,0.056,-0.282,-0.415
258860,3786.0,2166.0,6965.0,0.863,0.057,-0.282,-0.414
258882,3932.0,2174.0,6647.0,0.864,0.057,-0.282,-0.414
258894,4038.0,2120.0,6845.0,0.864,0.056,-0.282,-0.413
258916,4010.0,2154.0,7185.0,0.864,0.056,-0.281,-0.413
258928,4108.0,2196.0,7039.0,0.865,0.057,-0.281,-0.412
258950,4044.0,2182.0,6809.0,0.865,0.057,-0.281,-0.412
258962,3866.0,2152.0,6855.0,0.865,0.057,-0.281,-0.412
258984,3960.0,2126.0,7073.0,0.865,0.056,-0.281,-0.411
258996,3968.0,2084.0,7083.0,0.866,0.056,-0.281,-0.411
259018,4015.0,2100.0,6906.0,0.866,0.057,-0.281,-0.411
259040,3884.0,2169.0,6893.0,0.866,0.057,-0.281,-0.41
259052,3847.0,2100.0,7069.0,0.866,0.057,-0.281,-0.41
259074,3824.0,2105.0,7034.0,0.866,0.057,-0.28,-0.41
259086,3971.0,2162.0,6843.0,0.867,0.057,-0.28,-0.409
259108,4045.0,2069.0,6987.0,0.867,0.057,-0.28,-0.408
259120,4140.0,2150.0,7084.0,0.867,0.057,-0.279,-0.408
259142,4132.0,2096.0,6978.0,0.868,0.057,-0.28,-0.407
259154,3838.0,2140.0,6802.0,0.867,0.057,-0.28,-0.407
259176,3878.0,2154.0,6904.0,0.868,0.057,-0.28,-0.407
259188,4026.0,2180.0,7012.0,0.868,0.056,-0.28,-0.407
259210,4136.0,2188.0,7014.0,0.868,0.056,-0.28,-0.407
259222,3866.0,2042.0,6816.0,0.868,0.056,-0.28,-0.407
259244,3762.0,2066.0,6860.0,0.868,0.056,-0.281,-0.406
259266,3960.0,2120.0,7052.0,0.868,0.055,-0.28,-0.406
259278,4144.0,2038.0,7162.0,0.868,0.055,-0.28,-0.406
259300,4138.0,2118.0,7048.0,0.868,0.055,-0.28,-0.406
259312,3824.0,2084.0,6798.0,0.868,0.056,-0.281,-0.405
259334,3858.0,2066.0,6770.0,0.868,0.055,-0.28,-0.405
259346,3922.0,2104.0,7244.0,0.869,0.055,-0.28,-0.405
259368,4052.0,2046.0,7170.0,0.869,0.055,-0.28,-0.404
259380,4126.0,2054.0,6978.0,0.869,0.056,-0.28,-0.403
259402,4018.0,2090.0,6840.0,0.869,0.056,-0.28,-0.403
259414,3806.0,2168.0,6680.0,0.869,0.056,-0.281,-0.402
259436,3846.0,2102.0,6786.0,0.87,0.056,-0.281,-0.402
259458,3958.0,2136.0,7086.0,0.87,0.056,-0.281,-0.401
259470,4102.0,2158.0,7078.0,0.87,0.056,-0.281,-0.401
259492,4072.0,2086.0,6930.0,0.871,0.056,-0.281,-0.4
259504,4004.0,2136.0,6978.0,0.871,0.056,-0.281,-0.4
259526,3982.0,2096.0,6864.0,0.871,0.056,-0.281,-0.4
259538,4003.0,2126.0,6907.0,0.871,0.056,-0.281,-0.399
259560,4026.0,2107.0,7006.0,0.871,0.056,-0.281,-0.399
259572,4012.0,2047.0,6950.0,0.871,0.056,-0.281,-0.399
259594,3908.0,2125.0,6874.0,0.871,0.056,-0.281,-0.398
259606,4026.0,2091.0,6808.0,0.872,0.055,-0.281,-0.398
259628,4108.0,2089.0,7120.0,0.872,0.055,-0.281,-0.397
259650,4100.0,2123.0,7150.0,0.872,0.055,-0.281,-0.397
259662,3938.0,2121.0,6900.0,0.872,0.056,-0.281,-0.396
259684,3910.0,2125.0,6816.0,0.873,0.056,-0.281,-0.395
259696,4066.0,2181.0,6924.0,0.873,0.056,-0.281,-0.395
259718,4080.0,2103.0,6982.0,0.873,0.056,-0.28,-0.394
259730,4098.0,2053.0,7074.0,0.874,0.055,-0.28,-0.394
259752,4048.0,2085.0,7178.0,0.874,0.056,-0.28,-0.393
259764,3948.0,2079.0,7002.0,0.874,0.056,-0.28,-0.393
259786,4000.0,2139.0,6840.0,0.874,0.056,-0.28,-0.392
259798,4052.0,2167.0,6972.0,0.875,0.056,-0.28,-0.392
259820,3984.0,2067.0,6938.0,0.875,0.056,-0.28,-0.391
259842,3882.0,1977.0,7010.0,0.875,0.056,-0.28,-0.391
259854,3936.0,2033.0,6922.0,0.875,0.056,-0.28,-0.39
259876,4078.0,2173.0,6910.0,0.876,0.056,-0.279,-0.39
259888,4146.0,2065.0,6960.0,0.876,0.056,-0.279,-0.389
259910,4164.0,2123.0,7158.0,0.876,0.056,-0.279,-0.389
259922,3986.0,2071.0,6940.0,0.876,0.056,-0.279,-0.389
259944,3824.0,2045.0,6838.0,0.876,0.057,-0.279,-0.388
259956,3830.0,2065.0,6932.0,0.877,0.057,-0.279,-0.388
259978,4124.0,2081.0,6880.0,0.877,0.057,-0.279,-0.387
259990,4222.0,2123.0,7068.0,0.877,0.057,-0.278,-0.387
260012,4110.0,2043.0,7140.0,0.877,0.057,-0.279,-0.387
260034,3900.0,2073.0,6912.0,0.877,0.057,-0.279,-0.386
260046,3788.0,2029.0,6896.0,0.878,0.057,-0.279,-0.386
260068,3874.0,2105.0,6920.0,0.878,0.057,-0.279,-0.385
260080,4078.0,2047.0,6916.0,0.878,0.057,-0.278,-0.385
260102,4214.0,2079.0,7004.0,0.879,0.057,-0.278,-0.384
260114,4082.0,2075.0,7070.0,0.879,0.057,-0.278,-0.384
260136,3908.0,2029.0,7000.0,0.879,0.057,-0.278,-0.384
260148,3924.0,2065.0,6970.0,0.879,0.057,-0.278,-0.383
260170,3914.0,2083.0,6940.0,0.879,0.057,-0.278,-0.382
260182,4082.0,2039.0,6920.0,0.88,0.057,-0.278,-0.382
260204,4128.0,2101.0,7006.0,0.88,0.057,-0.278,-0.381
260226,4114.0,2061.0,6936.0,0.88,0.057,-0.278,-0.381
260238,3908.0,2021.0,6970.0,0.88,0.057,-0.278,-0.381
260260,3866.0,1975.0,6914.0,0.88,0.057,-0.278,-0.38
260272,4006.0,2065.0,6980.0,0.881,0.058,-0.278,-0.379
260294,4096.0,2099.0,6906.0,0.881,0.058,-0.278,-0.379
260306,4182.0,2045.0,6908.0,0.881,0.057,-0.278,-0.378
260328,3970.0,2047.0,7118.0,0.881,0.057,-0.278,-0.378
260340,3858.0,2001.0,6930.0,0.881,0.058,-0.278,-0.378
260362,3888.0,2009.0,6806.0,0.882,0.058,-0.278,-0.377
260374,4012.0,2059.0,6922.0,0.882,0.057,-0.278,-0.376
260396,4154.0,2059.0,6940.0,0.882,0.057,-0.278,-0.376
260418,4144.0,2097.0,7090.0,0.882,0.057,-0.278,-0.375
260430,3978.0,2061.0,6946.0,0.882,0.057,-0.278,-0.375
260452,3950.0,2047.0,6870.0,0.882,0.057,-0.278,-0.375
260464,4024.0,2087.0,7112.0,0.883,0.057,-0.278,-0.374
260486,4156.0,2049.0,7000.0,0.883,0.057,-0.278,-0.374
260498,4178.0,2029.0,6884.0,0.883,0.058,-0.278,-0.374
260520,4092.0,2103.0,7000.0,0.883,0.058,-0.278,-0.374
260532,3920.0,2091.0,6828.0,0.883,0.058,-0.278,-0.374
260554,3904.0,2023.0,6890.0,0.883,0.057,-0.278,-0.373
260566,3914.0,2039.0,7014.0,0.883,0.057,-0.278,-0.373
260588,4054.0,2053.0,7076.0,0.884,0.057,-0.278,-0.373
260610,4186.0,2085.0,6998.0,0.884,0.057,-0.278,-0.372
260627,4210.0,2023.0,7068.0,0.884,0.057,-0.278,-0.372
260639,4080.0,1993.0,6940.0,0.884,0.057,-0.278,-0.372
260661,3928.0,2081.0,6828.0,0.884,0.057,-0.278,-0.373
260673,3960.0,2065.0,6810.0,0.884,0.057,-0.278,-0.373
260695,3908.0,2051.0,6890.0,0.884,0.057,-0.278,-0.372
260707,4022.0,2001.0,7106.0,0.884,0.057,-0.278,-0.372
260729,4046.0,1985.0,7058.0,0.884,0.056,-0.278,-0.372
260741,4190.0,2117.0,7012.0,0.884,0.057,-0.278,-0.371
260763,4248.0,2087.0,6840.0,0.884,0.057,-0.278,-0.371
260785,4120.0,2127.0,6836.0,0.884,0.056,-0.278,-0.371
260797,3916.0,1985.0,7054.0,0.884,0.056,-0.278,-0.371
260819,3864.0,1987.0,6996.0,0.884,0.056,-0.278,-0.371
260831,3924.0,2003.0,6772.0,0.884,0.056,-0.278,-0.371
260853,4096.0,2117.0,6836.0,0.884,0.056,-0.278,-0.37
260865,4326.0,2087.0,7002.0,0.885,0.056,-0.278,-0.37
260887,4364.0,2095.0,7142.0,0.885,0.056,-0.278,-0.37
260899,4142.0,2025.0,7112.0,0.884,0.056,-0.278,-0.37
260921,3888.0,1989.0,6848.0,0.884,0.056,-0.279,-0.371
260933,3776.0,2035.0,6684.0,0.884,0.056,-0.279,-0.371
260955,3974.0,2043.0,6954.0,0.884,0.056,-0.278,-0.371
260977,4044.0,1955.0,7110.0,0.884,0.056,-0.278,-0.37
260989,4118.0,2047.0,6958.0,0.884,0.056,-0.278,-0.37
261011,4086.0,2007.0,6776.0,0.885,0.056,-0.278,-0.37
261023,4208.0,2033.0,6988.0,0.885,0.056,-0.278,-0.37
261045,4152.0,2005.0,7090.0,0.885,0.056,-0.278,-0.37
261057,4076.0,1921.0,6832.0,0.884,0.056,-0.278,-0.37
261079,3822.0,1947.0,6806.0,0.884,0.056,-0.278,-0.37
261091,3878.0,2041.0,6888.0,0.885,0.056,-0.278,-0.37
261113,4018.0,1991.0,6976.0,0.885,0.055,-0.278,-0.37
261125,4098.0,2035.0,7048.0,0.885,0.055,-0.278,-0.37
261147,4268.0,2061.0,6908.0,0.885,0.055,-0.278,-0.37
261169,4230.0,2043.0,6928.0,0.885,0.055,-0.278,-0.37
261181,4086.0,2041.0,7108.0,0.885,0.055,-0.278,-0.37
261203,3952.0,2013.0,6948.0,0.885,0.055,-0.278,-0.37
261215,3962.0,2059.0,6678.0,0.885,0.056,-0.278,-0.37
261237,4010.0,2017.0,6778.0,0.885,0.055,-0.278,-0.37
261249,4070.0,2045.0,7004.0,0.885,0.055,-0.278,-0.37
261271,4156.0,2021.0,7142.0,0.885,0.055,-0.278,-0.369
261283,4096.0,2035.0,6908.0,0.885,0.055,-0.278,-0.369
261305,4120.0,2057.0,6834.0,0.885,0.055,-0.278,-0.369
261317,4124.0,2075.0,7054.0,0.885,0.055,-0.278,-0.369
261339,3984.0,2017.0,6946.0,0.885,0.056,-0.278,-0.37
261361,3794.0,2009.0,6672.0,0.885,0.056,-0.278,-0.37
261373,3876.0,2075.0,6880.0,0.885,0.055,-0.278,-0.369
261395,4204.0,2075.0,6986.0,0.885,0.055,-0.278,-0.369
261407,4352.0,2083.0,7006.0,0.885,0.055,-0.278,-0.369
261429,4242.0,2041.0,6958.0,0.885,0.055,-0.278,-0.369
261441,3938.0,2029.0,6870.0,0.885,0.055,-0.279,-0.369
261463,3860.0,1981.0,6820.0,0.885,0.055,-0.279,-0.369
261475,3960.0,2027.0,6940.0,0.885,0.055,-0.279,-0.369
261497,4082.0,2035.0,6890.0,0.885,0.055,-0.278,-0.369
261509,4112.0,2031.0,6846.0,0.885,0.055,-0.278,-0.369
261531,4118.0,1993.0,6932.0,0.885,0.054,-0.278,-0.369
261553,4180.0,1997.0,6998.0,0.885,0.054,-0.278,-0.369
261565,4170.0,1997.0,7048.0,0.885,0.054,-0.278,-0.369
261587,4082.0,2061.0,6922.0,0.885,0.055,-0.279,-0.369
261599,3874.0,2027.0,6662.0,0.885,0.055,-0.279,-0.369
261621,3902.0,1975.0,6698.0,0.885,0.054,-0.279,-0.369
261633,4110.0,2049.0,7044.0,0.885,0.054,-0.278,-0.368
261655,4330.0,2061.0,6990.0,0.885,0.054,-0.278,-0.368
261667,4222.0,2029.0,7006.0,0.885,0.054,-0.278,-0.368
261689,4018.0,2023.0,7162.0,0.885,0.054,-0.279,-0.369
261701,3904.0,2029.0,6818.0,0.885,0.054,-0.279,-0.368
261723,4044.0,2075.0,6670.0,0.885,0.054,-0.279,-0.368
261745,4120.0,2071.0,6966.0,0.886,0.054,-0.279,-0.368
261757,4020.0,2065.0,6928.0,0.885,0.054,-0.279,-0.368
261779,4012.0,1981.0,6680.0,0.885,0.054,-0.279,-0.368
261791,4092.0,2045.0,7006.0,0.886,0.053,-0.279,-0.368
261813,4274.0,2031.0,7008.0,0.886,0.053,-0.279,-0.368
261825,4214.0,2041.0,6874.0,0.886,0.053,-0.279,-0.368
261847,4120.0,2027.0,6836.0,0.886,0.053,-0.279,-0.368
261859,3986.0,2065.0,6886.0,0.885,0.053,-0.279,-0.368
261881,3932.0,2017.0,6906.0,0.885,0.053,-0.279,-0.368
261893,4026.0,2025.0,6874.0,0.886,0.053,-0.279,-0.368
261915,4178.0,2025.0,6908.0,0.886,0.053,-0.279,-0.367
261937,4232.0,2019.0,7012.0,0.886,0.053,-0.279,-0.367
261949,4136.0,1975.0,7012.0,0.886,0.053,-0.279,-0.368
261971,3990.0,2023.0,6914.0,0.886,0.053,-0.279,-0.368
261983,4018.0,2087.0,6794.0,0.886,0.053,-0.279,-0.367
262005,4092.0,1985.0,6784.0,0.886,0.053,-0.279,-0.367
262017,4098.0,1967.0,6914.0,0.886,0.053,-0.279,-0.367
262039,4128.0,2033.0,6904.0,0.886,0.053,-0.279,-0.367
262051,4174.0,2027.0,6946.0,0.886,0.053,-0.279,-0.367
262073,4212.0,2001.0,7076.0,0.886,0.053,-0.279,-0.367
262085,4136.0,2073.0,6922.0,0.886,0.053,-0.279,-0.367
262107,4052.0,2037.0,6772.0,0.886,0.053,-0.279,-0.367
262129,4002.0,2011.0,6880.0,0.886,0.053,-0.279,-0.367
262141,4016.0,2077.0,6880.0,0.886,0.053,-0.278,-0.367
262163,4170.0,1981.0,6838.0,0.886,0.053,-0.278,-0.367
262175,4206.0,2059.0,7042.0,0.886,0.053,-0.278,-0.367
262197,4150.0,2049.0,6944.0,0.886,0.053,-0.278,-0.367
262209,4088.0,2025.0,6804.0,0.886,0.053,-0.279,-0.367
262231,4090.0,2047.0,6932.0,0.886,0.053,-0.278,-0.367
262243,4150.0,1993.0,6946.0,0.886,0.053,-0.278,-0.367
262265,4168.0,2011.0,6938.0,0.886,0.053,-0.278,-0.366
262277,4090.0,1973.0,6878.0,0.886,0.053,-0.278,-0.367
262299,4056.0,2029.0,6984.0,0.886,0.053,-0.278,-0.367
262321,4048.0,1949.0,6928.0,0.886,0.053,-0.278,-0.366
262333,4112.0,2059.0,6858.0,0.886,0.053,-0.278,-0.366
262355,4140.0,2021.0,6874.0,0.887,0.053,-0.278,-0.366
262367,4190.0,2059.0,6912.0,0.887,0.053,-0.278,-0.366
262389,4194.0,2075.0,6864.0,0.887,0.053,-0.278,-0.366
262401,3978.0,1991.0,6904.0,0.886,0.053,-0.278,-0.366
262423,3912.0,1999.0,6942.0,0.886,0.053,-0.278,-0.366
262435,3996.0,1995.0,6874.0,0.887,0.053,-0.278,-0.366
262457,4282.0,2025.0,6946.0,0.887,0.053,-0.278,-0.365
262469,4342.0,2027.0,6834.0,0.887,0.053,-0.278,-0.365
262491,4162.0,2027.0,6898.0,0.887,0.053,-0.278,-0.365
262513,4008.0,1979.0,6916.0,0.887,0.052,-0.278,-0.366
262525,3922.0,1993.0,6930.0,0.887,0.052,-0.278,-0.366
262547,4000.0,1975.0,6810.0,0.887,0.052,-0.278,-0.365
262559,4160.0,1991.0,7042.0,0.887,0.052,-0.278,-0.365
262581,4208.0,2067.0,7012.0,0.887,0.052,-0.278,-0.365
262593,4178.0,2057.0,6876.0,0.887,0.052,-0.278,-0.365
262615,4132.0,2061.0,6902.0,0.887,0.052,-0.278,-0.365
262632,4080.0,1991.0,6934.0,0.887,0.052,-0.279,-0.365
262644,4072.0,2013.0,6890.0,0.887,0.052,-0.279,-0.365
262666,4088.0,2061.0,6794.0,0.887,0.052,-0.279,-0.365
262678,4172.0,1993.0,6748.0,0.887,0.052,-0.279,-0.365
262700,4184.0,2021.0,6946.0,0.887,0.051,-0.279,-0.365
262722,4140.0,2031.0,7092.0,0.887,0.051,-0.279,-0.365
262734,4108.0,2043.0,6976.0,0.887,0.051,-0.279,-0.365
262756,4118.0,2009.0,6796.0,0.887,0.052,-0.279,-0.364
262768,4158.0,2087.0,6874.0,0.887,0.052,-0.279,-0.365
262790,4114.0,2009.0,7010.0,0.887,0.052,-0.279,-0.365
262802,4080.0,1999.0,6824.0,0.887,0.052,-0.279,-0.365
262824,4070.0,2011.0,6886.0,0.887,0.051,-0.279,-0.365
262836,4102.0,2035.0,7024.0,0.887,0.051,-0.279,-0.365
262858,4140.0,2095.0,6920.0,0.887,0.052,-0.279,-0.364
262870,4140.0,2005.0,6776.0,0.887,0.052,-0.279,-0.364
262892,4146.0,2005.0,6946.0,0.887,0.051,-0.278,-0.364
262914,4122.0,1993.0,7056.0,0.887,0.051,-0.278,-0.364
262926,4080.0,2017.0,6890.0,0.887,0.052,-0.278,-0.364
262948,4150.0,2053.0,6760.0,0.887,0.052,-0.278,-0.364
262960,4178.0,2045.0,6920.0,0.887,0.051,-0.278,-0.364
262982,4142.0,2023.0,6834.0,0.887,0.051,-0.278,-0.364
262994,4170.0,1997.0,6970.0,0.887,0.051,-0.278,-0.364
263016,4116.0,2057.0,6962.0,0.887,0.051,-0.278,-0.364
263028,4118.0,2041.0,6818.0,0.887,0.051,-0.278,-0.364
263050,4072.0,1989.0,6936.0,0.887,0.051,-0.278,-0.364
263062,4186.0,2051.0,6916.0,0.887,0.051,-0.278,-0.364
263084,4236.0,2009.0,6892.0,0.888,0.051,-0.278,-0.364
263106,4136.0,2009.0,6894.0,0.887,0.051,-0.278,-0.364
263118,4020.0,1979.0,6842.0,0.887,0.051,-0.279,-0.364
263140,3988.0,1977.0,6818.0,0.887,0.051,-0.279,-0.364
263152,4052.0,1993.0,6922.0,0.888,0.051,-0.278,-0.363
263174,4196.0,2045.0,7072.0,0.888,0.051,-0.278,-0.363
263186,4290.0,2029.0,6822.0,0.888,0.051,-0.278,-0.363
263208,4236.0,2009.0,6864.0,0.888,0.051,-0.278,-0.363
263220,4104.0,1987.0,7010.0,0.888,0.051,-0.278,-0.363
263242,4088.0,2049.0,6914.0,0.888,0.051,-0.278,-0.363
263254,4062.0,2035.0,6836.0,0.888,0.051,-0.278,-0.363
263276,4076.0,2063.0,6816.0,0.888,0.051,-0.278,-0.363
263298,4174.0,2037.0,6848.0,0.888,0.051,-0.278,-0.363
263310,4208.0,2027.0,7038.0,0.888,0.051,-0.278,-0.363
263332,4208.0,1993.0,6972.0,0.888,0.051,-0.278,-0.363
263344,4106.0,1999.0,6910.0,0.888,0.051,-0.278,-0.363
263366,4072.0,2023.0,6852.0,0.888,0.051,-0.278,-0.363
263378,4050.0,2005.0,6834.0,0.888,0.051,-0.278,-0.363
263400,4140.0,2053.0,6856.0,0.888,0.051,-0.278,-0.363
263412,4180.0,2029.0,6826.0,0.888,0.051,-0.278,-0.363
263434,4124.0,2001.0,6924.0,0.888,0.051,-0.278,-0.363
263446,4076.0,1977.0,6982.0,0.888,0.051,-0.278,-0.363
263468,3984.0,1941.0,7020.0,0.888,0.051,-0.278,-0.363
263490,4184.0,1981.0,6752.0,0.888,0.051,-0.278,-0.362
263502,4270.0,2049.0,6894.0,0.888,0.051,-0.278,-0.362
263524,4292.0,2027.0,6912.0,0.888,0.051,-0.278,-0.362
263536,4184.0,2015.0,6842.0,0.888,0.051,-0.278,-0.362
263558,3934.0,1971.0,6850.0,0.888,0.051,-0.278,-0.362
263570,3896.0,1993.0,6846.0,0.888,0.051,-0.278,-0.362
263592,4080.0,2055.0,6816.0,0.888,0.051,-0.278,-0.362
263604,4280.0,2067.0,7036.0,0.888,0.051,-0.278,-0.362
263626,4320.0,2037.0,6908.0,0.889,0.051,-0.278,-0.362
263638,4214.0,2007.0,6880.0,0.888,0.051,-0.278,-0.362
263660,4054.0,2003.0,6868.0,0.888,0.051,-0.278,-0.362
263682,4018.0,1973.0,6850.0,0.889,0.051,-0.278,-0.362
263694,4126.0,2023.0,6890.0,0.889,0.051,-0.277,-0.362
263716,4182.0,2047.0,6930.0,0.888,0.051,-0.278,-0.362
263728,4062.0,1975.0,6932.0,0.888,0.051,-0.278,-0.362
263750,4042.0,1983.0,6920.0,0.888,0.051,-0.278,-0.362
263762,4156.0,2011.0,6904.0,0.889,0.051,-0.278,-0.362
263784,4266.0,2009.0,6914.0,0.889,0.051,-0.277,-0.362
263796,4294.0,2057.0,6904.0,0.889,0.051,-0.278,-0.361
263818,4140.0,1999.0,6730.0,0.889,0.051,-0.278,-0.362
263830,3950.0,2017.0,6788.0,0.888,0.051,-0.278,-0.362
263852,4036.0,1961.0,6904.0,0.888,0.05,-0.278,-0.362
263874,4216.0,2037.0,6984.0,0.889,0.05,-0.278,-0.361
263886,4306.0,2073.0,6922.0,0.889,0.05,-0.278,-0.361
263908,4226.0,2011.0,6900.0,0.889,0.05,-0.278,-0.362
263920,3968.0,2027.0,6850.0,0.888,0.051,-0.278,-0.362
263942,3986.0,1999.0,6738.0,0.888,0.051,-0.278,-0.362
263954,4086.0,2039.0,6876.0,0.888,0.05,-0.278,-0.362
263976,4114.0,2017.0,7028.0,0.889,0.05,-0.277,-0.362
263988,4184.0,1983.0,6982.0,0.889,0.05,-0.277,-0.362
264010,4270.0,2053.0,6810.0,0.889,0.05,-0.277,-0.362
264022,4184.0,1997.0,6886.0,0.888,0.05,-0.278,-0.362
264044,4024.0,2025.0,6920.0,0.888,0.05,-0.278,-0.362
264066,4004.0,2005.0,6836.0,0.888,0.05,-0.278,-0.362
264078,4164.0,2075.0,6802.0,0.889,0.05,-0.277,-0.362
264100,4218.0,2059.0,6918.0,0.889,0.05,-0.277,-0.362
264112,4174.0,2011.0,6920.0,0.889,0.05,-0.277,-0.362
264134,4064.0,2027.0,6900.0,0.889,0.05,-0.277,-0.362
264146,4102.0,2005.0,6850.0,0.889,0.05,-0.277,-0.362
264168,4132.0,1993.0,6842.0,0.889,0.05,-0.277,-0.362
264180,4158.0,1999.0,6948.0,0.889,0.05,-0.277,-0.362
264202,4132.0,2023.0,6968.0,0.889,0.05,-0.277,-0.362
264214,4128.0,2089.0,6788.0,0.889,0.05,-0.277,-0.362
264236,4078.0,2063.0,6838.0,0.889,0.05,-0.277,-0.362
264258,4112.0,2011.0,6878.0,0.889,0.05,-0.277,-0.362
264270,4186.0,2001.0,6952.0,0.889,0.05,-0.277,-0.362
264292,4206.0,1983.0,6876.0,0.889,0.05,-0.277,-0.362
264304,4156.0,2049.0,6904.0,0.889,0.05,-0.277,-0.362
264326,4026.0,1977.0,6862.0,0.889,0.05,-0.277,-0.362
264338,4000.0,1999.0,6922.0,0.889,0.05,-0.277,-0.362
264360,4164.0,2017.0,6922.0,0.889,0.05,-0.277,-0.362
264372,4272.0,1997.0,6894.0,0.889,0.05,-0.277,-0.361
264394,4222.0,2035.0,6958.0,0.889,0.05,-0.277,-0.362
264406,4078.0,2029.0,7044.0,0.889,0.051,-0.277,-0.362
264428,4048.0,1965.0,6878.0,0.889,0.051,-0.277,-0.362
264450,4252.0,2125.0,6932.0,0.889,0.051,-0.277,-0.362
264462,4508.0,2097.0,6868.0,0.889,0.052,-0.276,-0.362
264484,4596.0,2163.0,7122.0,0.888,0.053,-0.276,-0.364
264496,4618.0,2197.0,7348.0,0.887,0.054,-0.276,-0.366
264518,4180.0,2017.0,6940.0,0.886,0.057,-0.277,-0.368
264530,3718.0,2107.0,6906.0,0.884,0.06,-0.278,-0.371
264552,3518.0,2357.0,6524.0,0.884,0.063,-0.278,-0.372
264564,3908.0,2301.0,6710.0,0.883,0.064,-0.277,-0.372
264586,3928.0,2711.0,6636.0,0.883,0.066,-0.277,-0.373
264598,4752.0,3379.0,5572.0,0.882,0.067,-0.278,-0.374
264620,5632.0,2629.0,6758.0,0.881,0.068,-0.278,-0.377
264637,5248.0,2063.0,6792.0,0.878,0.069,-0.278,-0.384
264659,4048.0,2065.0,7644.0,0.875,0.072,-0.278,-0.391
264671,3394.0,2189.0,6770.0,0.871,0.075,-0.279,-0.398
264693,3340.0,1735.0,6530.0,0.869,0.078,-0.277,-0.403
264705,3748.0,2973.0,6976.0,0.867,0.081,-0.273,-0.409
264727,3322.0,2413.0,7288.0,0.865,0.085,-0.27,-0.414
264739,3090.0,2819.0,7860.0,0.863,0.091,-0.268,-0.418
264761,2568.0,2899.0,7392.0,0.862,0.097,-0.266,-0.42
264773,2294.0,2545.0,6588.0,0.862,0.103,-0.264,-0.42
264795,2592.0,2953.0,6594.0,0.863,0.108,-0.262,-0.418
264817,3206.0,3153.0,6238.0,0.864,0.111,-0.262,-0.415
264829,3464.0,3127.0,6148.0,0.865,0.112,-0.262,-0.413
264851,3786.0,2883.0,5926.0,0.867,0.113,-0.26,-0.411
264863,3936.0,3347.0,6692.0,0.867,0.113,-0.259,-0.411
264885,3568.0,3431.0,7248.0,0.867,0.113,-0.258,-0.412
264897,3540.0,3111.0,7674.0,0.867,0.114,-0.255,-0.412
264919,3114.0,3085.0,7602.0,0.868,0.116,-0.253,-0.412
264931,3040.0,2695.0,7016.0,0.868,0.118,-0.25,-0.412
264953,2976.0,3169.0,6756.0,0.869,0.12,-0.248,-0.412
264965,2828.0,3003.0,6982.0,0.869,0.121,-0.247,-0.412
264987,3028.0,2829.0,6946.0,0.87,0.122,-0.245,-0.411
265009,3084.0,2935.0,7562.0,0.87,0.123,-0.243,-0.41
265021,3184.0,3141.0,7444.0,0.871,0.125,-0.242,-0.41
265043,3178.0,3105.0,7322.0,0.871,0.127,-0.241,-0.409
265055,3000.0,3183.0,6976.0,0.871,0.128,-0.24,-0.408
265077,2838.0,3011.0,7378.0,0.872,0.129,-0.24,-0.407
265089,2896.0,2927.0,7260.0,0.872,0.13,-0.239,-0.406
265111,2846.0,3971.0,6664.0,0.872,0.131,-0.243,-0.405
265123,3108.0,3505.0,6508.0,0.873,0.131,-0.243,-0.403
265145,3436.0,3639.0,6712.0,0.873,0.131,-0.243,-0.402
265157,3416.0,3575.0,6864.0,0.873,0.131,-0.243,-0.403
265179,3172.0,3017.0,7124.0,0.872,0.13,-0.243,-0.403
265201,3014.0,3175.0,7478.0,0.872,0.13,-0.243,-0.404
265213,2716.0,3385.0,7566.0,0.872,0.131,-0.243,-0.405
265235,2556.0,3203.0,6992.0,0.872,0.132,-0.243,-0.404
265247,2642.0,3105.0,6502.0,0.872,0.133,-0.243,-0.403
265269,2950.0,3251.0,6238.0,0.872,0.134,-0.244,-0.403
265281,3242.0,3407.0,6516.0,0.872,0.133,-0.244,-0.402
265303,3270.0,3381.0,7104.0,0.872,0.133,-0.244,-0.402
265315,3264.0,3247.0,7500.0,0.872,0.133,-0.243,-0.403
265337,3084.0,3269.0,7488.0,0.872,0.133,-0.243,-0.403
265349,3060.0,3273.0,7424.0,0.872,0.134,-0.243,-0.404
265371,3488.0,3261.0,7452.0,0.871,0.135,-0.244,-0.404
265393,3452.0,3437.0,6902.0,0.87,0.137,-0.245,-0.406
265405,3230.0,3383.0,6340.0,0.868,0.139,-0.245,-0.409
265427,2848.0,3239.0,6904.0,0.866,0.14,-0.245,-0.412
265439,2658.0,3363.0,7046.0,0.865,0.141,-0.244,-0.416
265461,2544.0,3461.0,7116.0,0.864,0.143,-0.243,-0.418
265473,2362.0,3405.0,6858.0,0.863,0.145,-0.242,-0.42
265495,2242.0,3373.0,6718.0,0.862,0.146,-0.242,-0.421
265507,2236.0,3363.0,6558.0,0.862,0.147,-0.241,-0.421
265529,2356.0,3463.0,6684.0,0.862,0.146,-0.241,-0.42
265541,2732.0,3475.0,7222.0,0.863,0.145,-0.24,-0.42
265563,3174.0,3467.0,7332.0,0.864,0.145,-0.24,-0.419
265585,3522.0,3525.0,7124.0,0.864,0.145,-0.239,-0.419
265597,3332.0,3445.0,7034.0,0.863,0.145,-0.239,-0.42
265619,2322.0,3297.0,7736.0,0.862,0.146,-0.238,-0.422
265631,1432.0,3191.0,7460.0,0.863,0.147,-0.237,-0.422
265653,2328.0,3399.0,7244.0,0.864,0.148,-0.237,-0.419
265665,3088.0,3469.0,6966.0,0.865,0.149,-0.236,-0.417
265687,3242.0,3449.0,6808.0,0.866,0.15,-0.236,-0.415
265699,3220.0,3653.0,6924.0,0.866,0.151,-0.237,-0.415
265721,3048.0,3569.0,6958.0,0.865,0.152,-0.237,-0.416
265733,2660.0,3541.0,7056.0,0.864,0.153,-0.238,-0.417
265755,2320.0,3449.0,6882.0,0.863,0.154,-0.238,-0.418
265777,2462.0,3589.0,6924.0,0.863,0.154,-0.238,-0.418
265789,2448.0,3505.0,6870.0,0.863,0.154,-0.238,-0.417
265811,2672.0,3569.0,7042.0,0.864,0.155,-0.237,-0.417
265823,2774.0,3541.0,7236.0,0.864,0.155,-0.237,-0.416
265845,2986.0,3573.0,6990.0,0.864,0.157,-0.237,-0.415
265857,2832.0,3707.0,6892.0,0.864,0.158,-0.237,-0.415
265879,2638.0,3597.0,6848.0,0.864,0.159,-0.237,-0.415
265891,2710.0,3585.0,6866.0,0.864,0.16,-0.237,-0.415
265913,2724.0,3627.0,6976.0,0.863,0.16,-0.237,-0.416
265925,2456.0,3633.0,6996.0,0.863,0.161,-0.237,-0.417
265947,2158.0,3601.0,6888.0,0.863,0.161,-0.237,-0.417
265969,2290.0,3623.0,6812.0,0.863,0.161,-0.236,-0.416
265981,2768.0,3645.0,7314.0,0.864,0.161,-0.236,-0.414
266003,3300.0,3701.0,7264.0,0.864,0.161,-0.235,-0.414
266015,2838.0,3699.0,6856.0,0.864,0.162,-0.236,-0.415
266037,2626.0,3637.0,6986.0,0.863,0.162,-0.236,-0.416
266049,2620.0,3655.0,7024.0,0.863,0.162,-0.237,-0.417
266071,2550.0,3635.0,7058.0,0.862,0.162,-0.237,-0.418
266083,2422.0,3663.0,7080.0,0.861,0.162,-0.237,-0.419
266105,2246.0,3625.0,6994.0,0.861,0.163,-0.236,-0.419
266117,2234.0,3591.0,6956.0,0.862,0.163,-0.236,-0.418
266139,2534.0,3779.0,7158.0,0.863,0.163,-0.235,-0.417
266161,2956.0,3801.0,6916.0,0.863,0.164,-0.235,-0.416
266173,3176.0,3747.0,6934.0,0.862,0.164,-0.236,-0.417
266195,2608.0,3699.0,6998.0,0.862,0.164,-0.236,-0.418
266207,1988.0,3609.0,7036.0,0.861,0.165,-0.236,-0.419
266229,2346.0,3677.0,6890.0,0.861,0.165,-0.236,-0.418
266241,2768.0,3715.0,6954.0,0.862,0.165,-0.236,-0.418
266263,2820.0,3705.0,7006.0,0.861,0.165,-0.236,-0.418
266275,2554.0,3665.0,6832.0,0.861,0.165,-0.237,-0.418
266297,2566.0,3683.0,6846.0,0.861,0.166,-0.237,-0.419
266309,2240.0,3711.0,7162.0,0.861,0.166,-0.236,-0.419
266331,2300.0,3693.0,7102.0,0.861,0.166,-0.236,-0.418
266353,2656.0,3757.0,6960.0,0.862,0.166,-0.236,-0.417
266365,2940.0,3671.0,7008.0,0.862,0.166,-0.236,-0.417
266387,2912.0,3793.0,6970.0,0.862,0.167,-0.236,-0.417
266399,2524.0,3759.0,6992.0,0.861,0.167,-0.236,-0.418
266421,2400.0,3687.0,6862.0,0.861,0.167,-0.236,-0.418
266433,2446.0,3719.0,6854.0,0.861,0.168,-0.236,-0.418
266455,2394.0,3707.0,6902.0,0.861,0.168,-0.236,-0.418
266467,2310.0,3725.0,7022.0,0.861,0.168,-0.236,-0.418
266489,2646.0,3803.0,6988.0,0.861,0.168,-0.236,-0.417
266501,2770.0,3745.0,7040.0,0.861,0.168,-0.236,-0.417
266523,2882.0,3743.0,7006.0,0.861,0.169,-0.236,-0.417
266545,2512.0,3773.0,6918.0,0.861,0.169,-0.236,-0.418
266557,2268.0,3735.0,6972.0,0.861,0.169,-0.235,-0.418
266579,2524.0,3745.0,6896.0,0.861,0.169,-0.235,-0.417
266591,2716.0,3725.0,6986.0,0.861,0.17,-0.235,-0.417
266613,2684.0,3767.0,7082.0,0.861,0.17,-0.235,-0.417
266625,2532.0,3751.0,7038.0,0.861,0.17,-0.236,-0.418
266642,2372.0,3803.0,7060.0,0.861,0.171,-0.236,-0.418
266664,2520.0,3827.0,7028.0,0.861,0.171,-0.236,-0.418
266676,2604.0,3819.0,6968.0,0.861,0.172,-0.236,-0.418
266698,2576.0,3835.0,6968.0,0.86,0.172,-0.236,-0.418
266720,2568.0,3755.0,6862.0,0.86,0.172,-0.236,-0.418
266732,2462.0,3797.0,6936.0,0.86,0.172,-0.236,-0.418
266754,2516.0,3779.0,6892.0,0.86,0.173,-0.236,-0.418
266766,2696.0,3879.0,6944.0,0.86,0.173,-0.236,-0.418
266788,2792.0,3923.0,6902.0,0.86,0.173,-0.236,-0.419
266800,2470.0,3851.0,6952.0,0.859,0.173,-0.237,-0.42
266822,2208.0,3829.0,6888.0,0.859,0.173,-0.237,-0.421
266834,2300.0,3845.0,6650.0,0.859,0.172,-0.236,-0.421
266856,2602.0,3787.0,7012.0,0.859,0.172,-0.236,-0.421
266868,2756.0,3845.0,6882.0,0.859,0.171,-0.236,-0.421
266890,2840.0,3857.0,6954.0,0.858,0.171,-0.236,-0.423
266912,2344.0,3785.0,7266.0,0.858,0.17,-0.236,-0.424
266924,2288.0,3701.0,6936.0,0.857,0.17,-0.236,-0.425
266946,2408.0,3727.0,6928.0,0.857,0.17,-0.235,-0.425
266958,2444.0,3621.0,7238.0,0.857,0.169,-0.235,-0.426
266980,2642.0,3829.0,7250.0,0.857,0.169,-0.235,-0.427
266992,2484.0,3771.0,7028.0,0.856,0.169,-0.236,-0.427
267014,2358.0,3711.0,6914.0,0.856,0.169,-0.236,-0.428
267026,2336.0,3751.0,7006.0,0.856,0.169,-0.236,-0.428
267048,2360.0,3827.0,7056.0,0.856,0.169,-0.236,-0.428
267060,2442.0,3853.0,6976.0,0.856,0.169,-0.236,-0.428
267082,2464.0,3861.0,6896.0,0.856,0.169,-0.235,-0.428
267104,2404.0,3749.0,6966.0,0.856,0.169,-0.235,-0.427
267116,2390.0,3797.0,6956.0,0.857,0.169,-0.235,-0.427
267138,2306.0,3813.0,6832.0,0.857,0.169,-0.235,-0.426
267150,2446.0,3775.0,6854.0,0.858,0.169,-0.234,-0.425
267172,2452.0,3825.0,7114.0,0.859,0.169,-0.234,-0.424
267184,2262.0,3713.0,7112.0,0.859,0.169,-0.234,-0.422
267206,2554.0,3653.0,7066.0,0.86,0.169,-0.235,-0.421
267218,2534.0,3701.0,6994.0,0.861,0.169,-0.235,-0.419
267240,2598.0,3813.0,7108.0,0.861,0.168,-0.235,-0.418
267252,2538.0,3911.0,7126.0,0.862,0.168,-0.235,-0.417
267274,2626.0,3797.0,7132.0,0.863,0.168,-0.234,-0.415
267296,2728.0,3801.0,7138.0,0.863,0.168,-0.234,-0.414
267308,2888.0,3769.0,6858.0,0.863,0.169,-0.234,-0.414
267330,2860.0,3813.0,7024.0,0.863,0.169,-0.234,-0.414
267342,2640.0,3773.0,6898.0,0.863,0.169,-0.235,-0.414
267364,2378.0,3697.0,6878.0,0.862,0.169,-0.235,-0.415
267376,2362.0,3685.0,7052.0,0.862,0.169,-0.235,-0.415
267398,2406.0,3675.0,7276.0,0.862,0.169,-0.235,-0.416
267410,2446.0,3841.0,7248.0,0.862,0.17,-0.234,-0.415
267432,2580.0,3749.0,7016.0,0.862,0.17,-0.235,-0.415
267444,2774.0,3937.0,6802.0,0.862,0.171,-0.235,-0.415
267466,3554.0,3985.0,6790.0,0.861,0.171,-0.236,-0.416
267488,3782.0,3831.0,7162.0,0.859,0.171,-0.238,-0.42
267500,2446.0,3923.0,7300.0,0.856,0.174,-0.239,-0.425
267522,548.0,3221.0,7162.0,0.853,0.175,-0.241,-0.429
267534,1646.0,4287.0,6606.0,0.853,0.176,-0.239,-0.429
267556,962.0,4355.0,6272.0,0.854,0.178,-0.237,-0.427
267568,3246.0,4177.0,7212.0,0.856,0.178,-0.237,-0.424
267590,5268.0,6061.0,8832.0,0.855,0.179,-0.237,-0.425
267602,10674.0,5311.0,9838.0,0.849,0.186,-0.241,-0.432
267624,3844.0,3669.0,9198.0,0.833,0.204,-0.247,-0.451
267636,-1302.0,3305.0,6400.0,0.819,0.226,-0.251,-0.464
267658,-892.0,4133.0,4724.0,0.811,0.246,-0.25,-0.468
267680,546.0,4841.0,3800.0,0.809,0.26,-0.245,-0.468
267692,1830.0,5055.0,5206.0,0.806,0.269,-0.24,-0.469
267714,878.0,5285.0,6714.0,0.803,0.277,-0.235,-0.472
267726,-948.0,4877.0,5258.0,0.803,0.288,-0.226,-0.47
267748,-1204.0,4857.0,6232.0,0.807,0.295,-0.217,-0.464
267760,2438.0,5491.0,9350.0,0.807,0.301,-0.221,-0.457
267782,2288.0,5549.0,8342.0,0.804,0.311,-0.228,-0.453
267794,1324.0,5343.0,6506.0,0.8,0.326,-0.231,-0.448
267816,1070.0,5671.0,6504.0,0.796,0.337,-0.239,-0.443
267838,5986.0,6879.0,8946.0,0.783,0.351,-0.257,-0.444
267850,5544.0,6579.0,3896.0,0.764,0.371,-0.268,-0.454
267872,2664.0,6259.0,4670.0,0.741,0.394,-0.272,-0.471
267884,-304.0,6193.0,5160.0,0.717,0.42,-0.271,-0.486
267906,-1756.0,5981.0,4154.0,0.693,0.447,-0.272,-0.496
267918,-2274.0,5807.0,2736.0,0.673,0.476,-0.27,-0.499
267940,-1996.0,6543.0,770.0,0.654,0.498,-0.273,-0.501
267952,-2118.0,7437.0,-484.0,0.64,0.515,-0.271,-0.501
267974,-2446.0,8143.0,2660.0,0.63,0.523,-0.273,-0.505
267986,-3504.0,7373.0,5534.0,0.616,0.526,-0.296,-0.506
268008,1590.0,8149.0,4886.0,0.589,0.525,-0.336,-0.514
268030,-622.0,6837.0,3100.0,0.548,0.529,-0.379,-0.525
268042,-2254.0,6527.0,1768.0,0.492,0.524,-0.437,-0.54
268064,-880.0,7707.0,-2902.0,0.432,0.509,-0.491,-0.559
268076,696.0,8133.0,-754.0,0.379,0.495,-0.526,-0.578
268098,-364.0,8379.0,36.0,0.334,0.49,-0.545,-0.593
268110,-676.0,8815.0,830.0,0.29,0.487,-0.558,-0.606
268132,-2384.0,7857.0,1224.0,0.251,0.493,-0.566,-0.612
268144,-1168.0,6147.0,3226.0,0.205,0.501,-0.576,-0.613
268166,-22.0,6227.0,1704.0,0.159,0.522,-0.583,-0.602
268178,1310.0,4515.0,-4174.0,0.1,0.546,-0.586,-0.59
268200,-3208.0,5429.0,-4694.0,0.048,0.581,-0.574,-0.575
268222,-4122.0,3271.0,-4906.0,0.005,0.616,-0.56,-0.554
268234,-3380.0,4247.0,-4528.0,0.037,-0.651,0.545,0.527
268256,-3884.0,305.0,-7282.0,0.072,-0.688,0.526,0.494
268268,-8270.0,-173.0,-8432.0,0.097,-0.722,0.5,0.468
268290,-9418.0,293.0,-7132.0,0.117,-0.745,0.474,0.455
268302,-12840.0,-437.0,-5014.0,0.126,-0.762,0.453,0.445
268324,-13110.0,123.0,-2700.0,0.127,-0.77,0.445,0.439
268336,-6676.0,1273.0,-2854.0,0.127,-0.772,0.449,0.432
268358,-3586.0,1929.0,-2662.0,0.132,-0.775,0.449,0.425
268370,-4622.0,1619.0,-4358.0,0.142,-0.779,0.447,0.416
268392,-5454.0,1307.0,-4888.0,0.156,-0.783,0.443,0.407
268404,-5538.0,979.0,-3780.0,0.177,-0.785,0.439,0.399
268426,-5806.0,687.0,-4188.0,0.202,-0.787,0.437,0.385
268448,-5982.0,139.0,-5336.0,0.229,-0.79,0.434,0.369
268460,-6732.0,-753.0,-3312.0,0.258,-0.79,0.429,0.352
268482,-7148.0,-2921.0,-3590.0,0.293,-0.788,0.427,0.333
268494,-8898.0,-1963.0,-5754.0,0.326,-0.783,0.427,0.313
268516,-9224.0,-4429.0,-6838.0,0.349,-0.778,0.433,0.292
268528,-8940.0,-3611.0,-8648.0,0.354,-0.777,0.444,0.271
268550,-6392.0,-1923.0,-11324.0,0.352,-0.776,0.451,0.267
268562,-4394.0,-1701.0,-7446.0,0.341,-0.778,0.454,0.268
268584,-4032.0,-1683.0,-4442.0,0.332,-0.782,0.454,0.269
268596,-4358.0,-1695.0,-3744.0,0.331,-0.784,0.452,0.267
268618,-6586.0,-2189.0,-5684.0,0.332,-0.786,0.449,0.265
268645,-7092.0,-2165.0,-6326.0,0.332,-0.787,0.449,0.265
268657,-6166.0,-2101.0,-5130.0,0.328,-0.788,0.449,0.264
268669,-6116.0,-1941.0,-5230.0,0.326,-0.788,0.451,0.263
268691,-5934.0,-1955.0,-5876.0,0.324,-0.788,0.453,0.263
268703,-5532.0,-1961.0,-5514.0,0.321,-0.788,0.455,0.263
268725,-5294.0,-1777.0,-5096.0,0.32,-0.788,0.456,0.264
268737,-5578.0,-1873.0,-5422.0,0.321,-0.787,0.456,0.264
268759,-5818.0,-1869.0,-5830.0,0.322,-0.786,0.457,0.264
268771,-5534.0,-1837.0,-5516.0,0.322,-0.786,0.457,0.264
268793,-5656.0,-1839.0,-5294.0,0.323,-0.786,0.457,0.264
268805,-5928.0,-1943.0,-5522.0,0.324,-0.786,0.457,0.263
268827,-5992.0,-1973.0,-5576.0,0.324,-0.786,0.457,0.263
268849,-5544.0,-1701.0,-5494.0,0.324,-0.785,0.457,0.263
268861,-6042.0,-1899.0,-5350.0,0.324,-0.786,0.457,0.263
268883,-6020.0,-1937.0,-5678.0,0.323,-0.785,0.458,0.262
268895,-5740.0,-1849.0,-5536.0,0.323,-0.785,0.459,0.262
268917,-5738.0,-1823.0,-5498.0,0.323,-0.785,0.459,0.263
268929,-5860.0,-1835.0,-5512.0,0.323,-0.785,0.46,0.262
268951,-5816.0,-1873.0,-5414.0,0.323,-0.784,0.46,0.263
268963,-5730.0,-1855.0,-5702.0,0.323,-0.784,0.461,0.263
268985,-5902.0,-2001.0,-5596.0,0.323,-0.784,0.461,0.263
268997,-5570.0,-1803.0,-5544.0,0.322,-0.784,0.461,0.262
269019,-5866.0,-1921.0,-5438.0,0.322,-0.784,0.461,0.262
269041,-5744.0,-1771.0,-5574.0,0.322,-0.784,0.461,0.262
269053,-5860.0,-1847.0,-5692.0,0.322,-0.784,0.462,0.261
269075,-5602.0,-1853.0,-5556.0,0.322,-0.784,0.462,0.261
269087,-5810.0,-1897.0,-5634.0,0.321,-0.784,0.462,0.261
269109,-5902.0,-1883.0,-5638.0,0.32,-0.785,0.462,0.261
269121,-5974.0,-1851.0,-5306.0,0.319,-0.785,0.462,0.261
269143,-5790.0,-1811.0,-5220.0,0.318,-0.785,0.463,0.262
269155,-5680.0,-1809.0,-5462.0,0.318,-0.785,0.463,0.261
269177,-5796.0,-1763.0,-5716.0,0.318,-0.785,0.464,0.261
269189,-5822.0,-1763.0,-5634.0,0.318,-0.784,0.465,0.261
269211,-5650.0,-1849.0,-5430.0,0.318,-0.784,0.465,0.261
269233,-5970.0,-1843.0,-5318.0,0.318,-0.784,0.465,0.26
269245,-5720.0,-1815.0,-6008.0,0.319,-0.783,0.466,0.26
269267,-5482.0,-1815.0,-6106.0,0.319,-0.783,0.467,0.26
269279,-5778.0,-1817.0,-5524.0,0.318,-0.783,0.466,0.26
269301,-6120.0,-1899.0,-5342.0,0.318,-0.784,0.466,0.261
269313,-5992.0,-1771.0,-5482.0,0.318,-0.783,0.466,0.261
269335,-5810.0,-1735.0,-5466.0,0.317,-0.783,0.467,0.262
269347,-5706.0,-1701.0,-5376.0,0.317,-0.783,0.468,0.262
269369,-5698.0,-1679.0,-5516.0,0.317,-0.782,0.468,0.262
269391,-5652.0,-1827.0,-5686.0,0.318,-0.782,0.469,0.262
269403,-5828.0,-1797.0,-5830.0,0.318,-0.781,0.469,0.262
269425,-5830.0,-1749.0,-5728.0,0.317,-0.782,0.469,0.262
269437,-5842.0,-1825.0,-5420.0,0.317,-0.782,0.469,0.262
269459,-5762.0,-1699.0,-5438.0,0.317,-0.782,0.469,0.262
269471,-5814.0,-1741.0,-5764.0,0.316,-0.782,0.47,0.262
269493,-6326.0,-1777.0,-5364.0,0.313,-0.783,0.47,0.261
269505,-6456.0,-1811.0,-5484.0,0.312,-0.782,0.473,0.261
269527,-5434.0,-1679.0,-6126.0,0.31,-0.781,0.475,0.262
269539,-5296.0,-1563.0,-5886.0,0.308,-0.781,0.476,0.263
269561,-5352.0,-1417.0,-5182.0,0.307,-0.781,0.476,0.263
269583,-5890.0,-1617.0,-5388.0,0.308,-0.781,0.476,0.263
269595,-5966.0,-1585.0,-5612.0,0.308,-0.78,0.476,0.263
269617,-5488.0,-1485.0,-5546.0,0.309,-0.78,0.476,0.264
269629,-5566.0,-1579.0,-5616.0,0.309,-0.78,0.476,0.264
269651,-5906.0,-1677.0,-5596.0,0.309,-0.78,0.475,0.264
269663,-6042.0,-1721.0,-5524.0,0.31,-0.78,0.475,0.264
269685,-5958.0,-1643.0,-5698.0,0.31,-0.78,0.476,0.264
269697,-5798.0,-1573.0,-5768.0,0.31,-0.78,0.476,0.263
269719,-5846.0,-1535.0,-5580.0,0.309,-0.78,0.476,0.264
269731,-5808.0,-1567.0,-5446.0,0.309,-0.78,0.476,0.264
269753,-5756.0,-1523.0,-5458.0,0.309,-0.78,0.476,0.264
269775,-5780.0,-1529.0,-5618.0,0.309,-0.78,0.476,0.263
269787,-5910.0,-1619.0,-5502.0,0.309,-0.78,0.476,0.263
269809,-6002.0,-1677.0,-5706.0,0.31,-0.779,0.477,0.264
269821,-5616.0,-1577.0,-5700.0,0.31,-0.779,0.477,0.264
269843,-5780.0,-1635.0,-5648.0,0.31,-0.779,0.477,0.264
269855,-6000.0,-1669.0,-5620.0,0.31,-0.779,0.478,0.264
269877,-5756.0,-1605.0,-5524.0,0.309,-0.779,0.478,0.264
269889,-5720.0,-1573.0,-5584.0,0.309,-0.779,0.478,0.263
269911,-6010.0,-1617.0,-5526.0,0.309,-0.779,0.479,0.263
269923,-5752.0,-1561.0,-5508.0,0.309,-0.779,0.479,0.263
269945,-5754.0,-1549.0,-5724.0,0.309,-0.778,0.48,0.262
269967,-5878.0,-1643.0,-5738.0,0.308,-0.778,0.48,0.262
269979,-5856.0,-1587.0,-5602.0,0.308,-0.778,0.48,0.262
270001,-5880.0,-1641.0,-5596.0,0.309,-0.778,0.48,0.262
270013,-5723.0,-1623.0,-5636.0,0.309,-0.778,0.48,0.262
270035,-5779.0,-1587.0,-5574.0,0.309,-0.778,0.48,0.262
270047,-5816.0,-1636.0,-5441.0,0.309,-0.778,0.481,0.262
270069,-6028.0,-1648.0,-5555.0,0.309,-0.778,0.481,0.262
270081,-5888.0,-1546.0,-5631.0,0.309,-0.777,0.481,0.262
270103,-5668.0,-1566.0,-5751.0,0.309,-0.777,0.482,0.262
270115,-5902.0,-1652.0,-5575.0,0.309,-0.777,0.482,0.262
270137,-5932.0,-1618.0,-5493.0,0.309,-0.777,0.482,0.262
270159,-5790.0,-1612.0,-5647.0,0.309,-0.777,0.482,0.262
270171,-5889.0,-1558.0,-5568.0,0.309,-0.777,0.482,0.262
270193,-5863.0,-1581.0,-5521.0,0.309,-0.777,0.482,0.262
270205,-5864.0,-1609.0,-5562.0,0.309,-0.776,0.483,0.262
270227,-5905.0,-1573.0,-5557.0,0.31,-0.776,0.483,0.262
270239,-5923.0,-1636.0,-5624.0,0.31,-0.776,0.483,0.262
270261,-5912.0,-1638.0,-5504.0,0.31,-0.776,0.483,0.262
270273,-5862.0,-1612.0,-5464.0,0.31,-0.776,0.484,0.262
270295,-5864.0,-1616.0,-5606.0,0.31,-0.776,0.484,0.261
270307,-5876.0,-1608.0,-5674.0,0.31,-0.776,0.484,0.261
270329,-5942.0,-1638.0,-5500.0,0.31,-0.776,0.484,0.261
270351,-5966.0,-1624.0,-5536.0,0.31,-0.775,0.484,0.261
270363,-5844.0,-1654.0,-5568.0,0.31,-0.775,0.485,0.261
270385,-5900.0,-1726.0,-5590.0,0.31,-0.775,0.485,0.261
270397,-5892.0,-1606.0,-5572.0,0.309,-0.775,0.485,0.261
270419,-5956.0,-1576.0,-5522.0,0.309,-0.775,0.486,0.261
270431,-5888.0,-1576.0,-5656.0,0.309,-0.775,0.486,0.261
270453,-5794.0,-1616.0,-5552.0,0.309,-0.775,0.486,0.261
270465,-5924.0,-1594.0,-5512.0,0.309,-0.775,0.486,0.261
270487,-5942.0,-1604.0,-5590.0,0.309,-0.774,0.487,0.261
270499,-5784.0,-1656.0,-5586.0,0.309,-0.774,0.487,0.261
270521,-5816.0,-1552.0,-5454.0,0.309,-0.774,0.487,0.261
270543,-5836.0,-1616.0,-5654.0,0.309,-0.774,0.488,0.26
270555,-5952.0,-1606.0,-5660.0,0.309,-0.774,0.488,0.26
270577,-5824.0,-1618.0,-5590.0,0.309,-0.774,0.488,0.26
270589,-5918.0,-1590.0,-5634.0,0.309,-0.774,0.488,0.26
270611,-5978.0,-1598.0,-5624.0,0.309,-0.774,0.489,0.26
270623,-5772.0,-1592.0,-5582.0,0.309,-0.773,0.489,0.26
270650,-5912.0,-1620.0,-5508.0,0.309,-0.773,0.489,0.26
270662,-5964.0,-1566.0,-5470.0,0.309,-0.773,0.489,0.26
270674,-5838.0,-1556.0,-5646.0,0.309,-0.773,0.49,0.26
270696,-5842.0,-1568.0,-5662.0,0.309,-0.773,0.49,0.259
270708,-5808.0,-1636.0,-5524.0,0.309,-0.773,0.49,0.259
270730,-6008.0,-1636.0,-5522.0,0.309,-0.773,0.49,0.259
270752,-5932.0,-1662.0,-5490.0,0.309,-0.773,0.49,0.259
270764,-5822.0,-1584.0,-5600.0,0.309,-0.772,0.491,0.259
270786,-5888.0,-1580.0,-5624.0,0.309,-0.772,0.491,0.259
270798,-5790.0,-1526.0,-5588.0,0.309,-0.772,0.491,0.259
270820,-5882.0,-1600.0,-5576.0,0.309,-0.772,0.491,0.259
270832,-5964.0,-1640.0,-5504.0,0.309,-0.772,0.492,0.259
270854,-5792.0,-1592.0,-5496.0,0.309,-0.772,0.492,0.259
270866,-5932.0,-1632.0,-5562.0,0.309,-0.772,0.492,0.258
270888,-5958.0,-1630.0,-5550.0,0.309,-0.772,0.492,0.258
270900,-5912.0,-1586.0,-5566.0,0.309,-0.772,0.492,0.258
270922,-5926.0,-1608.0,-5580.0,0.309,-0.771,0.493,0.258
270944,-5886.0,-1620.0,-5528.0,0.309,-0.771,0.493,0.258
270956,-5822.0,-1584.0,-5514.0,0.309,-0.771,0.493,0.258
270978,-5830.0,-1672.0,-5554.0,0.309,-0.771,0.493,0.258
270990,-5870.0,-1572.0,-5538.0,0.309,-0.771,0.494,0.258
271012,-5894.0,-1624.0,-5572.0,0.309,-0.771,0.494,0.258
271024,-5874.0,-1582.0,-5562.0,0.309,-0.771,0.494,0.258
271046,-5854.0,-1542.0,-5572.0,0.309,-0.771,0.494,0.257
271058,-6004.0,-1600.0,-5526.0,0.309,-0.771,0.494,0.257
271080,-5856.0,-1546.0,-5500.0,0.309,-0.77,0.495,0.257
271092,-5836.0,-1594.0,-5584.0,0.309,-0.77,0.495,0.257
271114,-5906.0,-1584.0,-5610.0,0.309,-0.77,0.495,0.257
271136,-5958.0,-1662.0,-5564.0,0.309,-0.77,0.495,0.257
271148,-5974.0,-1586.0,-5610.0,0.309,-0.77,0.495,0.257
271170,-5852.0,-1572.0,-5558.0,0.309,-0.77,0.496,0.257
271182,-5928.0,-1628.0,-5470.0,0.309,-0.77,0.496,0.256
271204,-5924.0,-1604.0,-5610.0,0.309,-0.77,0.496,0.256
271216,-5820.0,-1546.0,-5620.0,0.309,-0.77,0.497,0.256
271238,-5778.0,-1558.0,-5522.0,0.309,-0.77,0.497,0.256
271250,-5966.0,-1616.0,-5566.0,0.309,-0.77,0.497,0.256
271272,-5966.0,-1598.0,-5632.0,0.309,-0.769,0.497,0.256
271284,-5822.0,-1602.0,-5638.0,0.309,-0.769,0.497,0.256
271306,-5986.0,-1600.0,-5634.0,0.309,-0.769,0.497,0.256
271328,-5942.0,-1618.0,-5498.0,0.308,-0.769,0.497,0.256
271340,-5850.0,-1570.0,-5508.0,0.308,-0.769,0.498,0.256
271362,-5870.0,-1508.0,-5624.0,0.308,-0.769,0.498,0.256
271374,-5860.0,-1528.0,-5524.0,0.308,-0.769,0.498,0.256
271396,-5896.0,-1538.0,-5564.0,0.308,-0.769,0.498,0.256
271408,-5962.0,-1548.0,-5570.0,0.308,-0.769,0.498,0.256
271430,-5992.0,-1648.0,-5554.0,0.308,-0.769,0.499,0.256
271442,-5996.0,-1656.0,-5572.0,0.308,-0.768,0.499,0.256
271464,-5888.0,-1568.0,-5470.0,0.308,-0.768,0.499,0.256
271476,-5822.0,-1568.0,-5554.0,0.308,-0.768,0.5,0.256
271498,-5778.0,-1544.0,-5570.0,0.308,-0.768,0.5,0.256
271520,-5830.0,-1554.0,-5520.0,0.308,-0.768,0.5,0.256
271532,-5950.0,-1570.0,-5474.0,0.308,-0.768,0.5,0.256
271554,-5904.0,-1632.0,-5618.0,0.308,-0.768,0.5,0.255
271566,-5922.0,-1554.0,-5650.0,0.308,-0.767,0.501,0.255
271588,-5814.0,-1488.0,-5610.0,0.308,-0.767,0.501,0.255
271600,-5844.0,-1614.0,-5506.0,0.308,-0.767,0.501,0.255
271622,-5932.0,-1528.0,-5448.0,0.308,-0.767,0.501,0.255
271634,-5904.0,-1478.0,-5462.0,0.308,-0.767,0.501,0.255
271656,-5750.0,-1554.0,-5642.0,0.308,-0.767,0.501,0.255
271668,-6000.0,-1626.0,-5658.0,0.308,-0.767,0.502,0.255
271690,-5970.0,-1544.0,-5550.0,0.308,-0.767,0.502,0.255
271712,-5870.0,-1574.0,-5558.0,0.308,-0.767,0.502,0.255
271724,-5880.0,-1576.0,-5636.0,0.308,-0.767,0.502,0.254
271746,-5964.0,-1522.0,-5524.0,0.308,-0.767,0.502,0.254
271758,-5794.0,-1504.0,-5488.0,0.308,-0.767,0.503,0.254
271780,-5876.0,-1514.0,-5584.0,0.308,-0.767,0.503,0.254
271792,-5858.0,-1562.0,-5522.0,0.308,-0.767,0.503,0.254
271814,-5924.0,-1564.0,-5652.0,0.308,-0.767,0.503,0.254
271826,-5962.0,-1608.0,-5614.0,0.308,-0.767,0.503,0.254
271848,-5876.0,-1560.0,-5542.0,0.308,-0.767,0.503,0.253
271860,-5882.0,-1574.0,-5598.0,0.308,-0.767,0.503,0.253
271882,-5804.0,-1544.0,-5544.0,0.308,-0.767,0.503,0.253
271904,-5918.0,-1530.0,-5566.0,0.308,-0.767,0.503,0.253
271916,-5880.0,-1540.0,-5464.0,0.308,-0.767,0.504,0.253
271938,-5890.0,-1588.0,-5566.0,0.308,-0.767,0.504,0.253
271950,-5902.0,-1562.0,-5670.0,0.308,-0.766,0.504,0.252
271972,-5890.0,-1600.0,-5574.0,0.308,-0.766,0.504,0.252
271984,-5828.0,-1544.0,-5602.0,0.308,-0.766,0.504,0.252
272006,-5860.0,-1558.0,-5612.0,0.308,-0.766,0.504,0.252
272018,-5858.0,-1580.0,-5556.0,0.308,-0.766,0.504,0.252
272040,-5924.0,-1578.0,-5536.0,0.308,-0.766,0.505,0.252
272052,-5892.0,-1552.0,-5626.0,0.308,-0.766,0.505,0.252
272074,-5880.0,-1538.0,-5566.0,0.308,-0.766,0.505,0.252
272096,-5946.0,-1526.0,-5534.0,0.308,-0.766,0.505,0.251
272108,-5848.0,-1566.0,-5534.0,0.308,-0.766,0.505,0.251
272130,-5958.0,-1588.0,-5614.0,0.308,-0.766,0.505,0.251
272142,-5908.0,-1550.0,-5576.0,0.308,-0.766,0.505,0.251
272164,-5852.0,-1606.0,-5558.0,0.308,-0.766,0.506,0.251
272176,-5824.0,-1584.0,-5496.0,0.308,-0.766,0.506,0.251
272198,-5904.0,-1556.0,-5554.0,0.308,-0.766,0.506,0.251
272210,-5902.0,-1560.0,-5648.0,0.308,-0.765,0.506,0.25
272232,-5916.0,-1564.0,-5606.0,0.308,-0.765,0.506,0.25
272244,-5864.0,-1558.0,-5612.0,0.308,-0.765,0.507,0.25
272266,-5800.0,-1594.0,-5568.0,0.308,-0.765,0.507,0.25
272288,-5922.0,-1586.0,-5454.0,0.308,-0.765,0.507,0.25
272300,-5922.0,-1580.0,-5580.0,0.308,-0.765,0.507,0.25
272322,-5818.0,-1574.0,-5594.0,0.309,-0.765,0.507,0.25
272334,-5976.0,-1568.0,-5520.0,0.309,-0.765,0.507,0.25
272356,-5976.0,-1594.0,-5622.0,0.309,-0.765,0.508,0.249
272368,-5856.0,-1612.0,-5632.0,0.309,-0.765,0.508,0.249
272390,-5884.0,-1584.0,-5530.0,0.308,-0.765,0.508,0.249
272402,-5952.0,-1594.0,-5434.0,0.308,-0.764,0.508,0.249
272424,-5870.0,-1636.0,-5508.0,0.308,-0.764,0.509,0.249
272436,-5754.0,-1522.0,-5578.0,0.308,-0.764,0.509,0.249
272458,-5846.0,-1558.0,-5640.0,0.308,-0.764,0.509,0.249
272480,-5916.0,-1596.0,-5562.0,0.308,-0.764,0.509,0.248
272492,-5970.0,-1636.0,-5526.0,0.309,-0.764,0.509,0.248
272514,-5850.0,-1582.0,-5698.0,0.309,-0.764,0.509,0.248
272526,-5820.0,-1544.0,-5602.0,0.309,-0.764,0.51,0.248
272548,-5868.0,-1598.0,-5544.0,0.309,-0.764,0.51,0.248
272560,-5930.0,-1602.0,-5492.0,0.309,-0.764,0.51,0.248
272582,-5910.0,-1528.0,-5544.0,0.309,-0.764,0.51,0.248
272594,-5884.0,-1542.0,-5610.0,0.309,-0.764,0.51,0.247
272616,-5910.0,-1618.0,-5610.0,0.309,-0.764,0.51,0.247
272628,-5968.0,-1608.0,-5570.0,0.309,-0.763,0.51,0.248
272655,-5814.0,-1550.0,-5604.0,0.309,-0.763,0.51,0.247
272667,-5928.0,-1674.0,-5712.0,0.309,-0.763,0.511,0.247
272689,-5858.0,-1624.0,-5514.0,0.309,-0.763,0.511,0.248
272701,-5846.0,-1546.0,-5450.0,0.309,-0.763,0.511,0.248
272723,-5908.0,-1600.0,-5558.0,0.309,-0.763,0.511,0.248
272735,-5832.0,-1572.0,-5562.0,0.309,-0.763,0.511,0.248
272757,-5898.0,-1606.0,-5604.0,0.309,-0.763,0.511,0.248
272769,-5904.0,-1590.0,-5586.0,0.309,-0.763,0.511,0.247
272791,-5924.0,-1566.0,-5638.0,0.309,-0.763,0.512,0.247
272803,-5906.0,-1622.0,-5526.0,0.309,-0.763,0.512,0.248
272825,-5922.0,-1610.0,-5570.0,0.309,-0.763,0.512,0.248
272847,-5964.0,-1556.0,-5496.0,0.309,-0.762,0.512,0.248
272859,-5884.0,-1594.0,-5582.0,0.309,-0.762,0.512,0.248
272881,-5848.0,-1518.0,-5684.0,0.309,-0.762,0.512,0.248
272893,-5938.0,-1534.0,-5436.0,0.309,-0.762,0.513,0.248
272915,-5962.0,-1602.0,-5600.0,0.309,-0.762,0.513,0.248
272927,-5882.0,-1566.0,-5550.0,0.309,-0.762,0.513,0.248
272949,-5934.0,-1536.0,-5596.0,0.309,-0.762,0.513,0.248
272961,-5946.0,-1532.0,-5582.0,0.309,-0.761,0.513,0.248
272983,-5908.0,-1546.0,-5558.0,0.309,-0.761,0.513,0.248
272995,-5902.0,-1554.0,-5584.0,0.309,-0.761,0.514,0.248
273017,-5856.0,-1550.0,-5568.0,0.309,-0.761,0.514,0.248
273039,-5966.0,-1632.0,-5454.0,0.309,-0.761,0.514,0.248
273051,-5922.0,-1528.0,-5510.0,0.309,-0.761,0.514,0.248
273073,-5900.0,-1612.0,-5664.0,0.309,-0.761,0.514,0.247
273085,-5976.0,-1578.0,-5540.0,0.309,-0.761,0.514,0.247
273107,-5924.0,-1540.0,-5552.0,0.309,-0.761,0.514,0.248
273119,-5894.0,-1532.0,-5586.0,0.309,-0.76,0.515,0.248
273141,-5914.0,-1534.0,-5506.0,0.309,-0.76,0.515,0.248
273153,-5940.0,-1604.0,-5500.0,0.309,-0.76,0.515,0.248
273175,-5954.0,-1518.0,-5502.0,0.309,-0.76,0.515,0.248
273187,-6046.0,-1590.0,-5578.0,0.309,-0.76,0.515,0.248
273209,-5902.0,-1494.0,-5478.0,0.309,-0.76,0.516,0.248
273231,-5928.0,-1544.0,-5610.0,0.309,-0.76,0.516,0.248
273243,-5990.0,-1526.0,-5584.0,0.309,-0.759,0.516,0.248
273265,-5954.0,-1540.0,-5504.0,0.309,-0.759,0.516,0.248
273277,-5954.0,-1426.0,-5464.0,0.309,-0.759,0.516,0.248
273299,-5950.0,-1592.0,-5638.0,0.309,-0.759,0.517,0.248
273311,-5972.0,-1546.0,-5466.0,0.309,-0.759,0.517,0.249
273333,-5942.0,-1484.0,-5362.0,0.309,-0.758,0.517,0.249
273345,-5788.0,-1528.0,-5550.0,0.309,-0.758,0.517,0.249
273367,-5862.0,-1522.0,-5582.0,0.309,-0.758,0.518,0.249
273379,-5868.0,-1566.0,-5476.0,0.309,-0.758,0.518,0.249
273401,-6016.0,-1546.0,-5524.0,0.31,-0.758,0.518,0.248
273423,-6116.0,-1584.0,-5552.0,0.31,-0.758,0.518,0.249
273435,-5950.0,-1486.0,-5428.0,0.31,-0.757,0.518,0.249
273457,-5862.0,-1494.0,-5488.0,0.31,-0.757,0.518,0.249
273469,-5880.0,-1510.0,-5452.0,0.31,-0.757,0.519,0.249
273491,-6048.0,-1542.0,-5466.0,0.31,-0.757,0.519,0.249
273503,-5942.0,-1522.0,-5558.0,0.31,-0.757,0.519,0.249
273525,-5942.0,-1492.0,-5542.0,0.31,-0.757,0.519,0.249
273537,-6018.0,-1528.0,-5490.0,0.31,-0.757,0.519,0.25
273559,-6056.0,-1548.0,-5436.0,0.31,-0.757,0.519,0.25
273571,-5914.0,-1512.0,-5510.0,0.31,-0.756,0.519,0.25
273593,-5886.0,-1456.0,-5556.0,0.31,-0.756,0.52,0.25
273615,-5998.0,-1480.0,-5504.0,0.31,-0.756,0.52,0.25
273627,-6046.0,-1528.0,-5490.0,0.31,-0.756,0.52,0.25
273649,-5858.0,-1510.0,-5528.0,0.31,-0.756,0.52,0.25
273661,-5942.0,-1510.0,-5514.0,0.31,-0.756,0.52,0.25
273683,-5948.0,-1532.0,-5390.0,0.31,-0.756,0.52,0.25
273695,-5998.0,-1502.0,-5480.0,0.31,-0.756,0.52,0.25
273717,-5964.0,-1472.0,-5598.0,0.31,-0.755,0.52,0.25
273729,-6034.0,-1518.0,-5488.0,0.31,-0.755,0.52,0.25
273751,-6026.0,-1504.0,-5400.0,0.31,-0.755,0.521,0.25
273763,-5910.0,-1490.0,-5508.0,0.31,-0.755,0.521,0.25
273785,-5982.0,-1512.0,-5572.0,0.31,-0.755,0.521,0.25
273807,-5936.0,-1472.0,-5416.0,0.31,-0.755,0.521,0.25
273819,-5996.0,-1516.0,-5340.0,0.31,-0.755,0.521,0.25
273841,-5964.0,-1512.0,-5516.0,0.31,-0.755,0.521,0.25
273853,-6010.0,-1542.0,-5502.0,0.31,-0.755,0.521,0.25
273875,-6078.0,-1542.0,-5516.0,0.31,-0.755,0.521,0.25
273887,-5978.0,-1498.0,-5372.0,0.31,-0.754,0.522,0.25
273909,-5956.0,-1546.0,-5528.0,0.31,-0.754,0.522,0.25
273921,-6008.0,-1510.0,-5496.0,0.31,-0.754,0.522,0.25
273943,-5942.0,-1482.0,-5472.0,0.31,-0.754,0.522,0.25
273955,-6046.0,-1488.0,-5398.0,0.31,-0.754,0.522,0.25
273977,-6082.0,-1520.0,-5518.0,0.311,-0.754,0.522,0.25
273999,-5990.0,-1490.0,-5386.0,0.31,-0.754,0.522,0.25
274011,-5968.0,-1494.0,-5488.0,0.311,-0.754,0.523,0.25
274033,-6012.0,-1490.0,-5648.0,0.311,-0.754,0.523,0.249
274045,-5990.0,-1502.0,-5478.0,0.311,-0.753,0.523,0.249
274067,-5998.0,-1494.0,-5454.0,0.311,-0.753,0.523,0.249
274079,-5992.0,-1492.0,-5446.0,0.311,-0.753,0.523,0.249
274101,-5968.0,-1564.0,-5320.0,0.311,-0.753,0.523,0.249
274113,-6042.0,-1468.0,-5518.0,0.311,-0.753,0.523,0.249
274135,-5988.0,-1494.0,-5640.0,0.311,-0.753,0.524,0.249
274147,-5984.0,-1482.0,-5426.0,0.311,-0.753,0.524,0.249
274169,-6062.0,-1494.0,-5478.0,0.311,-0.753,0.524,0.249
274191,-5972.0,-1474.0,-5526.0,0.311,-0.753,0.524,0.249
274203,-5996.0,-1534.0,-5476.0,0.311,-0.753,0.524,0.249
274225,-6126.0,-1478.0,-5342.0,0.311,-0.753,0.524,0.249
274237,-5990.0,-1480.0,-5440.0,0.311,-0.752,0.524,0.249
274259,-5876.0,-1466.0,-5504.0,0.311,-0.752,0.525,0.249
274271,-5936.0,-1424.0,-5516.0,0.311,-0.752,0.525,0.249
274293,-6024.0,-1510.0,-5548.0,0.311,-0.752,0.525,0.249
274305,-5976.0,-1458.0,-5412.0,0.311,-0.752,0.525,0.249
274327,-6006.0,-1508.0,-5482.0,0.311,-0.752,0.525,0.249
274339,-6028.0,-1496.0,-5578.0,0.311,-0.752,0.525,0.249
274361,-5996.0,-1476.0,-5446.0,0.311,-0.752,0.525,0.249
274383,-6000.0,-1520.0,-5468.0,0.311,-0.752,0.525,0.249
274395,-6048.0,-1482.0,-5428.0,0.311,-0.752,0.526,0.249
274417,-6026.0,-1482.0,-5474.0,0.311,-0.751,0.526,0.249
274429,-5974.0,-1442.0,-5470.0,0.311,-0.751,0.526,0.249
274451,-6048.0,-1514.0,-5492.0,0.311,-0.751,0.526,0.249
274463,-6088.0,-1514.0,-5518.0,0.311,-0.751,0.526,0.25
274485,-5910.0,-1482.0,-5464.0,0.312,-0.751,0.526,0.25
274497,-5948.0,-1540.0,-5480.0,0.312,-0.75,0.526,0.25
274519,-6080.0,-1814.0,-5498.0,0.312,-0.75,0.527,0.251
274531,-6238.0,-1680.0,-5496.0,0.312,-0.749,0.527,0.253
274553,-6216.0,-1404.0,-5626.0,0.312,-0.748,0.528,0.255
274575,-5752.0,-1492.0,-5156.0,0.312,-0.747,0.528,0.257
274587,-6214.0,-1446.0,-5334.0,0.312,-0.747,0.528,0.259
274609,-6340.0,-1406.0,-5542.0,0.312,-0.745,0.528,0.261
274621,-5844.0,-1268.0,-5026.0,0.312,-0.745,0.528,0.263
274643,-5774.0,-1224.0,-4894.0,0.312,-0.745,0.528,0.264
274660,-6252.0,-1270.0,-5328.0,0.312,-0.745,0.528,0.263
274672,-6180.0,-1334.0,-5454.0,0.312,-0.745,0.528,0.263
274694,-6350.0,-1358.0,-5256.0,0.311,-0.745,0.528,0.263
274706,-6300.0,-1304.0,-5282.0,0.311,-0.745,0.529,0.264
274728,-6150.0,-1326.0,-5388.0,0.31,-0.745,0.529,0.264
274750,-6060.0,-1314.0,-5280.0,0.309,-0.745,0.529,0.264
274762,-6370.0,-1422.0,-5252.0,0.309,-0.745,0.529,0.264
274784,-6616.0,-1398.0,-5400.0,0.308,-0.744,0.53,0.265
274796,-6184.0,-1322.0,-5482.0,0.307,-0.743,0.532,0.266
274818,-5864.0,-1152.0,-5352.0,0.305,-0.743,0.533,0.266
274830,-6266.0,-1270.0,-5536.0,0.304,-0.743,0.533,0.267
274852,-6170.0,-1136.0,-5162.0,0.301,-0.743,0.534,0.268
274864,-6082.0,-1110.0,-5108.0,0.3,-0.743,0.534,0.269
274886,-6532.0,-1330.0,-5470.0,0.298,-0.743,0.535,0.27
274898,-6704.0,-1118.0,-5820.0,0.296,-0.742,0.537,0.273
274920,-6122.0,-1244.0,-4686.0,0.293,-0.74,0.54,0.274
274942,-6856.0,-1068.0,-7280.0,0.294,-0.737,0.541,0.278
274954,-6378.0,-1132.0,-6740.0,0.289,-0.735,0.542,0.285
274976,-6434.0,-1218.0,-4704.0,0.283,-0.735,0.543,0.293
274988,-7050.0,-914.0,-3880.0,0.279,-0.733,0.545,0.298
275010,-6494.0,-532.0,-4152.0,0.279,-0.729,0.548,0.3
275022,-6758.0,-112.0,-5366.0,0.279,-0.726,0.553,0.299
275044,-6676.0,-122.0,-6944.0,0.279,-0.721,0.558,0.3
275056,-4588.0,82.0,-5842.0,0.275,-0.718,0.563,0.302
275078,-3316.0,650.0,-4498.0,0.271,-0.717,0.565,0.305
275090,-4786.0,752.0,-4738.0,0.272,-0.718,0.564,0.304
275112,-6292.0,-362.0,-6134.0,0.273,-0.719,0.562,0.304
275134,-8580.0,-1140.0,-5932.0,0.273,-0.721,0.56,0.303
275146,-8956.0,-1392.0,-6676.0,0.273,-0.719,0.561,0.306
275168,-6614.0,-594.0,-5294.0,0.271,-0.717,0.562,0.31
275180,-5684.0,-42.0,-4048.0,0.269,-0.716,0.563,0.313
275202,-5852.0,54.0,-3878.0,0.268,-0.715,0.565,0.314
275214,-6126.0,136.0,-4590.0,0.268,-0.714,0.566,0.314
275236,-5680.0,356.0,-5364.0,0.269,-0.713,0.567,0.313
275248,-6050.0,282.0,-5950.0,0.268,-0.713,0.567,0.312
275270,-6714.0,208.0,-5736.0,0.267,-0.714,0.566,0.313
275282,-6496.0,424.0,-5312.0,0.265,-0.715,0.566,0.313
275304,-5836.0,488.0,-5216.0,0.265,-0.714,0.566,0.314
275326,-5672.0,496.0,-5524.0,0.266,-0.714,0.566,0.316
275338,-5764.0,436.0,-5564.0,0.266,-0.714,0.564,0.317
275360,-5952.0,280.0,-5438.0,0.267,-0.715,0.563,0.319
275372,-5772.0,158.0,-5298.0,0.268,-0.715,0.56,0.321
275394,-6588.0,-144.0,-5056.0,0.269,-0.716,0.557,0.323
275406,-6736.0,-226.0,-4634.0,0.27,-0.717,0.554,0.325
275428,-6070.0,-174.0,-4468.0,0.273,-0.717,0.552,0.326
275440,-6730.0,-348.0,-4898.0,0.275,-0.718,0.549,0.327
275462,-6988.0,-506.0,-4884.0,0.277,-0.719,0.546,0.328
275474,-6874.0,-524.0,-4452.0,0.279,-0.72,0.544,0.329
275496,-6986.0,-404.0,-4556.0,0.28,-0.72,0.543,0.329
275518,-6540.0,-426.0,-4342.0,0.281,-0.72,0.542,0.33
275530,-6768.0,-334.0,-4468.0,0.282,-0.721,0.541,0.328
275552,-7010.0,-384.0,-5382.0,0.284,-0.72,0.541,0.329
275564,-6754.0,-288.0,-5276.0,0.285,-0.72,0.54,0.329
275586,-6810.0,-136.0,-5058.0,0.286,-0.72,0.54,0.33
275598,-6612.0,-258.0,-4940.0,0.286,-0.719,0.54,0.33
275620,-6602.0,-6.0,-5044.0,0.288,-0.719,0.539,0.33
275632,-6524.0,-200.0,-5034.0,0.289,-0.719,0.539,0.331
275654,-7344.0,-382.0,-5416.0,0.29,-0.719,0.538,0.331
275666,-6574.0,-238.0,-4870.0,0.29,-0.718,0.538,0.333
275688,-6226.0,-128.0,-4620.0,0.289,-0.718,0.538,0.334
275710,-6840.0,-228.0,-4718.0,0.289,-0.718,0.538,0.334
275722,-7194.0,-186.0,-5036.0,0.29,-0.717,0.538,0.335
275744,-6658.0,-178.0,-4958.0,0.29,-0.716,0.539,0.336
275756,-6970.0,-256.0,-5028.0,0.289,-0.716,0.538,0.338
275778,-6688.0,-114.0,-4540.0,0.289,-0.715,0.539,0.34
275790,-6880.0,-26.0,-4640.0,0.289,-0.714,0.539,0.342
275812,-6408.0,62.0,-4558.0,0.289,-0.713,0.539,0.344
275824,-6608.0,62.0,-4840.0,0.289,-0.711,0.539,0.346
275846,-6810.0,82.0,-4950.0,0.29,-0.71,0.539,0.349
275858,-7176.0,-8.0,-4514.0,0.289,-0.709,0.539,0.352
275880,-7050.0,42.0,-4390.0,0.29,-0.707,0.539,0.355
275902,-6856.0,36.0,-4622.0,0.29,-0.704,0.54,0.359
275914,-6680.0,76.0,-4594.0,0.291,-0.702,0.54,0.363
275936,-7138.0,74.0,-4476.0,0.291,-0.699,0.54,0.367
275948,-7314.0,-4.0,-4638.0,0.292,-0.697,0.54,0.372
275970,-7046.0,-58.0,-4410.0,0.292,-0.694,0.539,0.376
275982,-7236.0,96.0,-3862.0,0.293,-0.692,0.539,0.381
276004,-7314.0,136.0,-3638.0,0.293,-0.689,0.539,0.385
276016,-6942.0,250.0,-3784.0,0.295,-0.687,0.539,0.388
276038,-7310.0,162.0,-3968.0,0.296,-0.684,0.54,0.391
276050,-7040.0,192.0,-3960.0,0.297,-0.682,0.54,0.395
276072,-6870.0,310.0,-3976.0,0.298,-0.68,0.539,0.398
276094,-7040.0,398.0,-3816.0,0.3,-0.678,0.538,0.401
276106,-7372.0,436.0,-3470.0,0.302,-0.677,0.536,0.403
276128,-7408.0,402.0,-3664.0,0.305,-0.675,0.535,0.407
276140,-7370.0,388.0,-3698.0,0.308,-0.672,0.534,0.41
276162,-7542.0,516.0,-3562.0,0.31,-0.67,0.533,0.413
276174,-7504.0,440.0,-3584.0,0.312,-0.668,0.532,0.417
276196,-7386.0,394.0,-3498.0,0.312,-0.666,0.532,0.419
276208,-7024.0,558.0,-3198.0,0.313,-0.665,0.531,0.421
276230,-7802.0,430.0,-3528.0,0.316,-0.664,0.529,0.424
276242,-8010.0,370.0,-3656.0,0.319,-0.661,0.527,0.427
276264,-7790.0,260.0,-3206.0,0.322,-0.659,0.526,0.432
276286,-7568.0,384.0,-3098.0,0.324,-0.656,0.524,0.435
276298,-7456.0,480.0,-2974.0,0.326,-0.654,0.523,0.438
276320,-7536.0,486.0,-2838.0,0.329,-0.652,0.521,0.442
276332,-8148.0,368.0,-2772.0,0.331,-0.649,0.52,0.445
276354,-8196.0,378.0,-2674.0,0.334,-0.646,0.519,0.449
276366,-7694.0,456.0,-2838.0,0.337,-0.641,0.519,0.454
276388,-7372.0,576.0,-2980.0,0.34,-0.637,0.518,0.459
276400,-7424.0,624.0,-2658.0,0.343,-0.634,0.515,0.463
276422,-8154.0,498.0,-2250.0,0.347,-0.631,0.512,0.469
276434,-8812.0,424.0,-2066.0,0.351,-0.626,0.509,0.474
276456,-8096.0,614.0,-1956.0,0.355,-0.62,0.508,0.481
276478,-7944.0,788.0,-1960.0,0.362,-0.61,0.505,0.491
276490,-8754.0,516.0,-1840.0,0.37,-0.6,0.502,0.502
276512,-8588.0,380.0,-1404.0,0.374,-0.59,0.5,0.511
276524,-7410.0,852.0,-1236.0,0.379,-0.581,0.498,0.52
276546,-7620.0,978.0,-1270.0,0.385,-0.572,0.495,0.529
276558,-8024.0,930.0,-888.0,0.391,-0.562,0.491,0.539
276580,-8238.0,1030.0,-550.0,0.397,-0.552,0.486,0.548
276592,-8198.0,930.0,-236.0,0.403,-0.542,0.483,0.557
276614,-7948.0,930.0,98.0,0.408,-0.534,0.479,0.565
276626,-7994.0,1172.0,296.0,0.412,-0.526,0.476,0.572
276648,-8072.0,1132.0,512.0,0.416,-0.519,0.473,0.578
276665,-8164.0,1046.0,690.0,0.419,-0.512,0.47,0.584
276687,-7814.0,1082.0,756.0,0.421,-0.508,0.468,0.588
276699,-7886.0,1136.0,854.0,0.425,-0.502,0.465,0.593
276721,-8068.0,1122.0,1010.0,0.43,-0.495,0.46,0.599
276733,-8294.0,1076.0,1460.0,0.436,-0.487,0.454,0.606
276755,-8248.0,1146.0,1748.0,0.44,-0.479,0.45,0.612
276767,-8152.0,980.0,1998.0,0.443,-0.474,0.447,0.616
276789,-7732.0,1212.0,1768.0,0.445,-0.47,0.446,0.618
276801,-7984.0,1266.0,1736.0,0.446,-0.468,0.445,0.62
276823,-7996.0,1284.0,1778.0,0.447,-0.465,0.444,0.622
276835,-7922.0,1270.0,2014.0,0.448,-0.464,0.442,0.623
276857,-7980.0,1268.0,2122.0,0.449,-0.463,0.442,0.624
276879,-7932.0,1268.0,1992.0,0.449,-0.463,0.442,0.624
276891,-7864.0,1368.0,1864.0,0.448,-0.464,0.443,0.623
276913,-7820.0,1344.0,1640.0,0.447,-0.465,0.444,0.622
276925,-7896.0,1250.0,1552.0,0.446,-0.466,0.444,0.621
276947,-8072.0,1258.0,1982.0,0.445,-0.468,0.445,0.621
276959,-7888.0,1216.0,1832.0,0.444,-0.469,0.445,0.62
276981,-7818.0,1224.0,1638.0,0.443,-0.471,0.446,0.619
276993,-8226.0,1180.0,1886.0,0.442,-0.472,0.446,0.619
277015,-7916.0,1222.0,1670.0,0.441,-0.473,0.447,0.618
277027,-7924.0,1284.0,1650.0,0.44,-0.475,0.447,0.618
277049,-8036.0,1258.0,1514.0,0.439,-0.476,0.447,0.617
277071,-7886.0,1218.0,1502.0,0.438,-0.477,0.447,0.617
277083,-7792.0,1270.0,1918.0,0.437,-0.479,0.447,0.616
277105,-8240.0,1188.0,1630.0,0.437,-0.48,0.447,0.615
277117,-7830.0,1158.0,1246.0,0.436,-0.482,0.448,0.614
277139,-8116.0,1172.0,1816.0,0.435,-0.484,0.447,0.614
277151,-7974.0,1132.0,1398.0,0.435,-0.484,0.448,0.614
277173,-8014.0,1096.0,1520.0,0.434,-0.486,0.447,0.613
277185,-8004.0,1122.0,1726.0,0.434,-0.487,0.447,0.613
277207,-8170.0,1118.0,1392.0,0.433,-0.488,0.447,0.612
277219,-8002.0,1080.0,1462.0,0.433,-0.488,0.447,0.612
277241,-7952.0,1172.0,1616.0,0.432,-0.49,0.447,0.611
277263,-8400.0,994.0,1496.0,0.432,-0.49,0.448,0.611
277275,-7860.0,1194.0,1442.0,0.431,-0.491,0.448,0.61
277297,-8158.0,1098.0,1410.0,0.43,-0.492,0.449,0.609
277309,-7876.0,1156.0,1308.0,0.429,-0.493,0.449,0.609
277331,-8026.0,1116.0,1294.0,0.429,-0.493,0.449,0.609
277343,-7974.0,1128.0,1196.0,0.429,-0.493,0.449,0.609
277365,-8146.0,1102.0,1284.0,0.429,-0.494,0.449,0.609
277377,-8092.0,1106.0,1424.0,0.428,-0.494,0.449,0.609
277399,-8108.0,1162.0,1416.0,0.428,-0.494,0.449,0.609
277411,-8252.0,1100.0,1424.0,0.427,-0.494,0.45,0.609
277433,-7834.0,1188.0,1250.0,0.427,-0.495,0.45,0.609
277455,-8188.0,1038.0,1220.0,0.426,-0.496,0.451,0.608
277467,-8020.0,1124.0,1316.0,0.425,-0.496,0.451,0.608
277489,-7762.0,1136.0,1280.0,0.425,-0.497,0.451,0.608
277501,-8198.0,1092.0,1224.0,0.425,-0.497,0.451,0.607
277523,-7996.0,1098.0,1190.0,0.424,-0.497,0.452,0.607
277535,-8014.0,1128.0,1300.0,0.424,-0.498,0.452,0.607
277557,-8276.0,1092.0,1194.0,0.423,-0.498,0.452,0.607
277569,-8124.0,1118.0,1242.0,0.422,-0.499,0.452,0.607
277591,-7914.0,1146.0,1280.0,0.422,-0.5,0.453,0.606
277603,-8024.0,1128.0,976.0,0.422,-0.501,0.453,0.605
277625,-8250.0,1080.0,1254.0,0.421,-0.502,0.453,0.605
277647,-7868.0,1144.0,1466.0,0.42,-0.502,0.453,0.605
277659,-8098.0,1088.0,1086.0,0.42,-0.503,0.453,0.604
277681,-8184.0,1086.0,1012.0,0.42,-0.503,0.454,0.604
277693,-8200.0,1090.0,1214.0,0.419,-0.503,0.454,0.604
277715,-8098.0,1088.0,1080.0,0.419,-0.504,0.454,0.604
277727,-8134.0,1126.0,948.0,0.418,-0.504,0.455,0.603
277749,-8108.0,1082.0,1018.0,0.418,-0.505,0.455,0.603
277761,-7908.0,1092.0,1194.0,0.417,-0.506,0.455,0.603
277783,-8114.0,1100.0,1002.0,0.417,-0.506,0.455,0.603
277805,-8080.0,1110.0,968.0,0.416,-0.506,0.455,0.603
277817,-8136.0,1098.0,1032.0,0.416,-0.507,0.455,0.602
277839,-8066.0,1140.0,1106.0,0.416,-0.507,0.455,0.602
277851,-8085.0,1059.0,1079.0,0.415,-0.508,0.455,0.602
277873,-8225.0,1112.0,1101.0,0.415,-0.508,0.455,0.602
277885,-8148.0,1119.0,988.0,0.415,-0.508,0.455,0.602
277907,-8143.0,1133.0,937.0,0.415,-0.509,0.455,0.601
277919,-8211.0,1063.0,1029.0,0.414,-0.509,0.455,0.601
277941,-8069.0,1075.0,1041.0,0.414,-0.51,0.455,0.601
277953,-8424.0,1034.0,1008.0,0.414,-0.511,0.455,0.601
277975,-8098.0,1076.0,1086.0,0.413,-0.511,0.456,0.6
277997,-8088.0,1060.0,970.0,0.413,-0.511,0.456,0.6
278009,-8198.0,1144.0,928.0,0.413,-0.512,0.456,0.6
278031,-8218.0,1090.0,844.0,0.412,-0.512,0.457,0.599
278043,-8124.0,1105.0,873.0,0.411,-0.513,0.457,0.599
278065,-8054.0,1107.0,849.0,0.411,-0.514,0.457,0.598
278077,-8058.0,1055.0,891.0,0.41,-0.516,0.457,0.597
278099,-8152.0,971.0,1001.0,0.41,-0.517,0.457,0.596
278111,-8362.0,979.0,981.0,0.409,-0.518,0.457,0.596
278133,-7970.0,1085.0,807.0,0.408,-0.519,0.458,0.596
278145,-8222.0,1019.0,797.0,0.408,-0.519,0.458,0.595
278167,-8098.0,1053.0,681.0,0.407,-0.52,0.458,0.595
278189,-8222.0,1029.0,697.0,0.407,-0.521,0.458,0.594
278201,-7908.0,1067.0,775.0,0.406,-0.522,0.458,0.594
278223,-8170.0,1057.0,723.0,0.406,-0.523,0.458,0.593
278235,-8282.0,1061.0,837.0,0.405,-0.523,0.458,0.593
278257,-8148.0,1063.0,775.0,0.405,-0.524,0.458,0.593
278269,-8148.0,1041.0,673.0,0.405,-0.525,0.459,0.592
278291,-8378.0,985.0,795.0,0.404,-0.525,0.459,0.592
278303,-8332.0,991.0,817.0,0.403,-0.526,0.459,0.591
278325,-8164.0,967.0,767.0,0.403,-0.526,0.46,0.591
278337,-8262.0,921.0,657.0,0.402,-0.527,0.461,0.59
