timeMs,ax,ay,az,q0,q1,q2,q3
483598,6980.0,8853.0,5678.0,0.422,0.528,0.216,0.705
483610,3352.0,4813.0,1768.0,0.408,0.499,0.249,0.723
483632,4210.0,6333.0,1076.0,0.393,0.473,0.278,0.738
483644,4016.0,6515.0,958.0,0.384,0.449,0.301,0.748
483666,3574.0,6605.0,2806.0,0.378,0.426,0.319,0.758
483678,3630.0,6617.0,4412.0,0.372,0.402,0.335,0.767
483700,2968.0,6513.0,4350.0,0.366,0.382,0.35,0.773
483712,2972.0,6591.0,3898.0,0.36,0.364,0.364,0.778
483734,2626.0,6561.0,4100.0,0.355,0.347,0.377,0.782
483746,3090.0,6697.0,4558.0,0.352,0.328,0.393,0.784
483768,1972.0,6877.0,4808.0,0.348,0.307,0.411,0.785
483780,1522.0,6841.0,4756.0,0.342,0.285,0.43,0.785
483802,1476.0,7081.0,4332.0,0.334,0.263,0.451,0.785
483824,1066.0,6677.0,4052.0,0.324,0.238,0.473,0.784
483836,2304.0,8285.0,1064.0,0.314,0.213,0.494,0.782
483858,-530.0,7065.0,4408.0,0.314,0.206,0.509,0.775
483870,1320.0,7393.0,3328.0,0.31,0.197,0.528,0.766
483892,1732.0,7503.0,2414.0,0.308,0.183,0.547,0.757
483904,244.0,8011.0,2562.0,0.309,0.168,0.566,0.745
483926,-934.0,7707.0,1890.0,0.307,0.15,0.587,0.734
483938,-1068.0,7709.0,1434.0,0.304,0.133,0.607,0.723
483960,-1622.0,7689.0,64.0,0.302,0.119,0.624,0.711
483982,-1756.0,7999.0,-612.0,0.302,0.109,0.638,0.7
483994,-1886.0,8207.0,-204.0,0.307,0.103,0.646,0.691
484006,-2244.0,8201.0,838.0,0.316,0.098,0.651,0.683
484028,-3110.0,4773.0,2166.0,0.318,0.087,0.658,0.677
484050,-4216.0,9617.0,48.0,0.323,0.081,0.66,0.673
484062,-3788.0,8215.0,712.0,0.326,0.078,0.66,0.672
484084,-4358.0,6953.0,1370.0,0.324,0.073,0.658,0.676
484096,-3014.0,8909.0,3280.0,0.314,0.07,0.66,0.679
484118,-1272.0,8175.0,4016.0,0.305,0.073,0.665,0.678
484130,-918.0,7931.0,1262.0,0.3,0.074,0.674,0.671
484152,-2930.0,7485.0,-1854.0,0.296,0.075,0.681,0.666
484164,-3182.0,7961.0,-616.0,0.293,0.076,0.68,0.668
484186,-884.0,8625.0,4608.0,0.29,0.077,0.678,0.671
484198,-1150.0,9001.0,4690.0,0.287,0.076,0.682,0.669
484220,-1688.0,8993.0,1726.0,0.28,0.074,0.689,0.664
484242,-1590.0,9315.0,-1482.0,0.274,0.072,0.697,0.659
484254,-2228.0,9803.0,-1836.0,0.27,0.07,0.7,0.658
484276,-2164.0,10511.0,416.0,0.265,0.067,0.699,0.661
484288,-972.0,10129.0,1844.0,0.257,0.061,0.7,0.664
484310,-728.0,10211.0,2650.0,0.244,0.048,0.703,0.666
484322,-1420.0,10207.0,2872.0,0.226,0.029,0.709,0.667
484344,-1144.0,9765.0,1772.0,0.205,0.008,0.718,0.665
484356,-1136.0,9739.0,320.0,0.183,-0.012,0.727,0.661
484378,-1424.0,9777.0,-2040.0,0.167,-0.026,0.734,0.658
484390,-708.0,9273.0,-3828.0,0.155,-0.035,0.735,0.659
484412,336.0,8763.0,-2860.0,0.147,-0.041,0.732,0.664
484434,-566.0,8119.0,-616.0,0.141,-0.05,0.726,0.672
484446,-1490.0,7413.0,816.0,0.134,-0.06,0.72,0.678
484468,-1224.0,7189.0,1006.0,0.125,-0.072,0.715,0.684
484480,-1350.0,7033.0,1926.0,0.119,-0.083,0.711,0.688
484502,-2138.0,6671.0,2512.0,0.114,-0.09,0.709,0.69
484514,-1302.0,6305.0,1920.0,0.107,-0.099,0.709,0.69
484536,-356.0,6345.0,940.0,0.102,-0.106,0.71,0.689
484558,-816.0,6053.0,268.0,0.102,-0.113,0.711,0.686
484570,-1746.0,5919.0,-268.0,0.106,-0.117,0.713,0.683
484582,-2998.0,5751.0,-390.0,0.111,-0.121,0.714,0.681
484604,-3448.0,5719.0,832.0,0.116,-0.122,0.715,0.679
484626,-2814.0,5463.0,1590.0,0.12,-0.124,0.718,0.675
484638,-1580.0,5673.0,-1456.0,0.126,-0.124,0.722,0.669
484660,-2472.0,5663.0,-2832.0,0.138,-0.123,0.724,0.665
484672,-4216.0,5591.0,-1640.0,0.153,-0.122,0.722,0.664
484694,-1204.0,7395.0,4862.0,0.169,-0.122,0.722,0.659
484706,-5978.0,5177.0,144.0,0.183,-0.126,0.729,0.647
484728,-4558.0,5573.0,-2520.0,0.188,-0.13,0.737,0.636
484740,-3522.0,5739.0,-3212.0,0.193,-0.134,0.741,0.629
484762,-3692.0,6839.0,-2364.0,0.2,-0.138,0.743,0.623
484784,-5090.0,6647.0,-1744.0,0.202,-0.146,0.745,0.618
484796,-5390.0,7027.0,-392.0,0.201,-0.154,0.748,0.614
484818,-3862.0,7149.0,102.0,0.195,-0.162,0.754,0.606
484830,-2664.0,7407.0,-1958.0,0.19,-0.173,0.762,0.595
484852,-3158.0,7653.0,-2960.0,0.187,-0.184,0.768,0.585
484864,-5052.0,7545.0,-1766.0,0.187,-0.194,0.772,0.576
484886,-6782.0,6437.0,-3098.0,0.179,-0.206,0.777,0.567
484898,-5220.0,7237.0,-3262.0,0.166,-0.215,0.781,0.562
484920,-3032.0,7343.0,-2114.0,0.157,-0.224,0.782,0.56
484932,-3786.0,6921.0,-1580.0,0.152,-0.233,0.783,0.556
484954,-4154.0,6863.0,-1456.0,0.146,-0.243,0.786,0.55
484966,-3710.0,6937.0,-1774.0,0.137,-0.254,0.79,0.541
484988,-3418.0,6381.0,-3444.0,0.128,-0.265,0.795,0.531
485010,-4856.0,6037.0,-5290.0,0.124,-0.277,0.797,0.523
485022,-5510.0,5541.0,-5244.0,0.119,-0.286,0.796,0.519
485044,-3882.0,6043.0,-3586.0,0.112,-0.294,0.795,0.518
485056,-3240.0,5057.0,-2604.0,0.107,-0.303,0.795,0.515
485078,-3624.0,5109.0,-2584.0,0.104,-0.31,0.795,0.511
485090,-3596.0,5261.0,-3456.0,0.102,-0.317,0.797,0.504
485112,-3936.0,5011.0,-4860.0,0.1,-0.323,0.799,0.497
485124,-4652.0,5313.0,-5396.0,0.097,-0.33,0.8,0.492
485151,-5190.0,5211.0,-4830.0,0.093,-0.336,0.8,0.489
485163,-4908.0,5471.0,-3302.0,0.091,-0.339,0.801,0.486
485185,-5206.0,5587.0,-3508.0,0.089,-0.34,0.804,0.48
485197,-5556.0,5685.0,-4440.0,0.086,-0.34,0.807,0.474
485219,-5356.0,6355.0,-4646.0,0.083,-0.338,0.813,0.467
485231,-5798.0,6899.0,-7208.0,0.08,-0.336,0.818,0.46
485253,-4978.0,6459.0,-7348.0,0.072,-0.333,0.823,0.455
485265,-1370.0,5461.0,-6132.0,0.062,-0.33,0.827,0.452
485287,672.0,5909.0,-4652.0,0.056,-0.328,0.828,0.452
485299,-824.0,5663.0,-4418.0,0.058,-0.331,0.825,0.454
485321,-2420.0,5695.0,-4438.0,0.061,-0.334,0.822,0.456
485333,-4132.0,6417.0,-4992.0,0.066,-0.339,0.819,0.458
485355,-5632.0,5917.0,-4624.0,0.066,-0.344,0.816,0.46
485377,-4426.0,5943.0,-3792.0,0.063,-0.347,0.814,0.461
485389,-3364.0,6137.0,-4214.0,0.062,-0.349,0.813,0.461
485411,-3886.0,5953.0,-3956.0,0.062,-0.351,0.812,0.462
485423,-4190.0,5939.0,-3418.0,0.062,-0.353,0.812,0.462
485445,-4254.0,5883.0,-4150.0,0.061,-0.355,0.812,0.46
485457,-4034.0,5937.0,-4658.0,0.059,-0.357,0.812,0.458
485479,-4088.0,5851.0,-4350.0,0.055,-0.359,0.813,0.455
485491,-3536.0,5845.0,-4290.0,0.051,-0.361,0.814,0.453
485513,-2642.0,6155.0,-4240.0,0.046,-0.364,0.814,0.449
485525,-2954.0,6123.0,-5350.0,0.04,-0.371,0.815,0.444
485547,-3474.0,5771.0,-5134.0,0.035,-0.377,0.814,0.441
485569,-3298.0,5587.0,-4968.0,0.03,-0.382,0.813,0.439
485581,-2944.0,6005.0,-3916.0,0.026,-0.386,0.812,0.437
485603,-1972.0,5767.0,-4968.0,0.025,-0.39,0.812,0.434
485615,-2390.0,6027.0,-5810.0,0.026,-0.395,0.81,0.433
485637,-3698.0,6127.0,-5734.0,0.029,-0.399,0.808,0.433
485649,-4632.0,5589.0,-4928.0,0.03,-0.403,0.805,0.434
485671,-3624.0,5595.0,-4054.0,0.028,-0.406,0.803,0.434
485683,-2286.0,5867.0,-4556.0,0.028,-0.409,0.803,0.433
485705,-2968.0,5865.0,-5582.0,0.03,-0.414,0.801,0.431
485717,-2450.0,5467.0,-6130.0,0.028,-0.419,0.799,0.43
485739,-2240.0,5677.0,-4192.0,0.028,-0.425,0.795,0.432
485761,-2770.0,5239.0,-4426.0,0.03,-0.432,0.791,0.433
485773,-3626.0,5567.0,-5054.0,0.032,-0.44,0.787,0.432
485795,-4130.0,5451.0,-5330.0,0.034,-0.448,0.782,0.433
485807,-4812.0,5377.0,-4690.0,0.036,-0.457,0.776,0.434
485829,-5792.0,5095.0,-3800.0,0.038,-0.463,0.771,0.434
485841,-4422.0,5051.0,-4304.0,0.038,-0.468,0.769,0.433
485863,-3664.0,5225.0,-4746.0,0.038,-0.474,0.767,0.431
485875,-4684.0,5013.0,-4526.0,0.04,-0.481,0.763,0.429
485897,-5354.0,4683.0,-3966.0,0.041,-0.486,0.761,0.427
485909,-3920.0,5275.0,-5106.0,0.042,-0.491,0.76,0.424
485931,-3502.0,5299.0,-5992.0,0.04,-0.497,0.758,0.421
485953,-4846.0,4783.0,-4330.0,0.038,-0.505,0.754,0.418
485965,-4370.0,4927.0,-4278.0,0.037,-0.51,0.754,0.413
485987,-4468.0,4983.0,-5562.0,0.043,-0.515,0.752,0.409
485999,-5766.0,4375.0,-6120.0,0.045,-0.52,0.75,0.407
486021,-5336.0,4475.0,-5266.0,0.045,-0.523,0.748,0.405
486033,-5070.0,4371.0,-4288.0,0.046,-0.524,0.748,0.405
486055,-4860.0,4469.0,-5656.0,0.048,-0.525,0.749,0.402
486067,-4376.0,4709.0,-5916.0,0.047,-0.526,0.749,0.401
486089,-4576.0,4707.0,-6050.0,0.047,-0.526,0.749,0.4
486101,-4618.0,4573.0,-5694.0,0.046,-0.526,0.749,0.4
486123,-3892.0,4611.0,-5566.0,0.044,-0.527,0.749,0.4
486145,-3984.0,4619.0,-4730.0,0.042,-0.528,0.748,0.401
486157,-3808.0,4755.0,-4888.0,0.042,-0.529,0.747,0.4
486179,-4344.0,4641.0,-5504.0,0.043,-0.53,0.746,0.4
486191,-4444.0,4563.0,-4786.0,0.044,-0.531,0.746,0.4
486213,-4298.0,4645.0,-5104.0,0.045,-0.531,0.746,0.399
486225,-4090.0,4653.0,-5208.0,0.047,-0.532,0.746,0.398
486247,-4778.0,4453.0,-5478.0,0.049,-0.533,0.746,0.398
486259,-4616.0,4487.0,-5206.0,0.049,-0.533,0.746,0.397
486281,-4174.0,4505.0,-5098.0,0.05,-0.533,0.746,0.396
486293,-3894.0,4667.0,-5830.0,0.052,-0.533,0.746,0.395
486315,-4112.0,4507.0,-5974.0,0.053,-0.534,0.746,0.395
486337,-4486.0,4535.0,-5418.0,0.055,-0.535,0.744,0.395
486349,-5286.0,4203.0,-5732.0,0.057,-0.535,0.744,0.396
486371,-4190.0,4427.0,-4504.0,0.058,-0.534,0.744,0.396
486383,-4278.0,4395.0,-5444.0,0.061,-0.534,0.744,0.396
486405,-5074.0,4165.0,-4352.0,0.061,-0.535,0.744,0.396
486417,-3966.0,4395.0,-3840.0,0.061,-0.536,0.745,0.393
486439,-3204.0,4337.0,-5852.0,0.062,-0.537,0.746,0.389
486451,-3718.0,4117.0,-5592.0,0.064,-0.54,0.745,0.386
486473,-3234.0,4239.0,-5664.0,0.065,-0.545,0.743,0.383
486485,-7770.0,3327.0,-5652.0,0.07,-0.551,0.74,0.381
486507,-9366.0,3063.0,-6294.0,0.072,-0.551,0.741,0.376
486529,-5090.0,4303.0,-7464.0,0.066,-0.547,0.746,0.374
486541,-3262.0,4501.0,-7090.0,0.062,-0.543,0.749,0.375
486563,-3152.0,3755.0,-9276.0,0.06,-0.54,0.749,0.379
486575,-5436.0,4357.0,-8564.0,0.053,-0.541,0.745,0.387
486597,-7950.0,4319.0,-8980.0,0.044,-0.54,0.741,0.396
486609,-7596.0,3685.0,-11174.0,0.027,-0.538,0.738,0.406
486631,-6090.0,3711.0,-7076.0,0.004,-0.53,0.737,0.42
486643,-5722.0,4213.0,-5674.0,0.01,0.514,-0.742,-0.43
486665,-4814.0,3715.0,-8916.0,0.021,0.489,-0.752,-0.44
486677,-402.0,3671.0,-9000.0,0.031,0.46,-0.763,-0.452
486699,3226.0,4399.0,-9764.0,0.038,0.439,-0.768,-0.464
486721,1912.0,3481.0,-9326.0,0.04,0.429,-0.764,-0.48
486733,-1052.0,3049.0,-7116.0,0.044,0.424,-0.756,-0.496
486755,-2470.0,3151.0,-5942.0,0.054,0.42,-0.748,-0.511
486767,-1506.0,3223.0,-4062.0,0.063,0.413,-0.741,-0.525
486789,-1914.0,3471.0,-3226.0,0.069,0.404,-0.736,-0.538
486801,-2550.0,3985.0,-2992.0,0.068,0.388,-0.734,-0.554
486823,-1722.0,4001.0,-2266.0,0.055,0.36,-0.734,-0.573
486835,288.0,4427.0,-1460.0,0.029,0.321,-0.735,-0.597
486857,904.0,4893.0,1360.0,0.007,-0.275,0.732,0.623
486869,-798.0,5487.0,3824.0,0.036,-0.239,0.73,0.639
486891,-2424.0,6015.0,4276.0,0.061,-0.21,0.728,0.649
486913,-4038.0,6567.0,5032.0,0.086,-0.182,0.729,0.655
486925,-2490.0,6591.0,4302.0,0.104,-0.153,0.732,0.656
486947,680.0,7195.0,2238.0,0.121,-0.124,0.736,0.654
486959,-110.0,7735.0,3218.0,0.142,-0.099,0.736,0.655
486981,-4456.0,8369.0,4930.0,0.159,-0.081,0.735,0.654
486993,-5706.0,7859.0,5884.0,0.163,-0.067,0.738,0.651
487015,-2152.0,7433.0,2968.0,0.158,-0.051,0.744,0.647
487027,-610.0,8243.0,1298.0,0.157,-0.034,0.75,0.641
487049,578.0,8283.0,-990.0,0.165,-0.014,0.757,0.632
487061,-2362.0,7839.0,1958.0,0.188,0.011,0.758,0.624
487083,-3122.0,7481.0,4768.0,0.202,0.038,0.762,0.614
487105,1120.0,11503.0,3710.0,0.217,0.069,0.771,0.595
487117,3156.0,8525.0,4488.0,0.228,0.076,0.786,0.57
487139,-238.0,7755.0,1468.0,0.23,0.067,0.813,0.53
487156,-3794.0,6267.0,-5684.0,0.23,0.059,0.843,0.483
487168,-6392.0,5467.0,-11626.0,0.227,0.058,0.862,0.45
487190,-4372.0,6131.0,-7110.0,0.218,0.064,0.872,0.434
487202,268.0,6141.0,-1838.0,0.218,0.079,0.881,0.412
487224,-5224.0,3335.0,-5690.0,0.202,0.092,0.897,0.382
487236,-2092.0,2053.0,-12862.0,0.186,0.118,0.906,0.361
487258,3816.0,2259.0,-10976.0,0.192,0.147,0.909,0.339
487280,-144.0,6775.0,-14246.0,0.191,0.156,0.915,0.319
487292,-8056.0,8473.0,-22176.0,0.171,0.159,0.921,0.313
487314,-7550.0,6199.0,-21892.0,0.142,0.171,0.915,0.337
487326,1264.0,4673.0,-7558.0,0.129,0.196,0.899,0.37
487348,4834.0,2499.0,-702.0,0.124,0.219,0.883,0.396
487360,2764.0,6725.0,2070.0,0.115,0.233,0.876,0.407
487382,-132.0,6553.0,996.0,0.109,0.251,0.876,0.398
487394,1022.0,7745.0,-128.0,0.112,0.279,0.879,0.371
487416,-434.0,7837.0,-4872.0,0.098,0.295,0.889,0.335
487428,-2016.0,709.0,-7596.0,0.108,0.329,0.89,0.296
487450,-1476.0,4245.0,-10356.0,0.102,0.351,0.889,0.277
487472,-1194.0,4823.0,-10066.0,0.105,0.376,0.88,0.27
487484,792.0,4597.0,-8476.0,0.114,0.405,0.866,0.269
487506,2366.0,5037.0,-6830.0,0.125,0.431,0.85,0.274
487518,3126.0,3773.0,-5254.0,0.145,0.459,0.833,0.272
487540,3694.0,7395.0,-4942.0,0.15,0.475,0.819,0.284
487552,4186.0,7263.0,-3974.0,0.166,0.49,0.806,0.287
487574,3910.0,7623.0,-2592.0,0.187,0.503,0.797,0.277
487586,2946.0,6089.0,-2400.0,0.197,0.508,0.797,0.261
487608,2014.0,6601.0,-3976.0,0.202,0.51,0.801,0.242
487630,1222.0,5137.0,-4964.0,0.203,0.508,0.809,0.217
487642,810.0,4643.0,-5856.0,0.202,0.504,0.818,0.189
487664,160.0,4503.0,-7066.0,0.204,0.498,0.828,0.157
487676,-94.0,3035.0,-6978.0,0.215,0.492,0.835,0.12
487698,-1048.0,2655.0,-7352.0,0.232,0.483,0.841,0.08
487710,-1942.0,2135.0,-6780.0,0.253,0.472,0.844,0.04
487732,-2298.0,1435.0,-5914.0,0.269,0.457,0.848,0.004
487744,-3042.0,1203.0,-6040.0,0.275,0.438,0.855,-0.028
487766,-3712.0,263.0,-5992.0,0.279,0.416,0.863,-0.062
487778,-4746.0,-681.0,-6160.0,0.279,0.392,0.872,-0.092
487800,-8154.0,-5383.0,-6454.0,0.264,0.353,0.888,-0.131
487822,-13180.0,-1343.0,-10704.0,0.26,0.334,0.893,-0.153
487834,-10564.0,-1079.0,-9420.0,0.266,0.336,0.89,-0.158
487856,-6654.0,-625.0,-7014.0,0.273,0.343,0.885,-0.157
487868,-4902.0,-437.0,-6138.0,0.279,0.351,0.88,-0.157
487890,-4964.0,-283.0,-6970.0,0.281,0.356,0.877,-0.157
487902,-4988.0,65.0,-8076.0,0.283,0.362,0.875,-0.155
487924,-3882.0,1515.0,-7104.0,0.284,0.368,0.873,-0.148
487936,-2474.0,829.0,-5756.0,0.282,0.371,0.874,-0.14
487958,-2162.0,725.0,-6014.0,0.276,0.37,0.877,-0.136
487970,-2572.0,669.0,-6134.0,0.27,0.365,0.88,-0.137
487992,-2082.0,273.0,-5982.0,0.268,0.361,0.882,-0.142
488004,-2668.0,463.0,-7462.0,0.263,0.353,0.886,-0.147
488026,-3136.0,-267.0,-7570.0,0.257,0.341,0.892,-0.15
488048,-3650.0,-327.0,-7078.0,0.241,0.328,0.902,-0.146
488060,-4410.0,-3061.0,-6906.0,0.23,0.311,0.91,-0.148
488082,-9662.0,-2039.0,-9350.0,0.221,0.299,0.916,-0.149
488094,-8090.0,-1153.0,-9180.0,0.22,0.299,0.918,-0.141
488116,-3632.0,-169.0,-7328.0,0.218,0.304,0.918,-0.128
488128,-1814.0,-195.0,-5910.0,0.215,0.306,0.92,-0.117
488150,-1792.0,683.0,-6106.0,0.212,0.304,0.922,-0.11
488162,-1652.0,783.0,-6106.0,0.209,0.3,0.925,-0.104
488184,-1604.0,921.0,-6068.0,0.204,0.294,0.928,-0.1
488196,-2476.0,529.0,-6918.0,0.196,0.285,0.933,-0.098
488218,-2998.0,-35.0,-7052.0,0.189,0.275,0.938,-0.097
488240,-3410.0,-589.0,-7472.0,0.182,0.265,0.942,-0.099
488252,-2490.0,-193.0,-8574.0,0.176,0.257,0.945,-0.104
488274,-4342.0,-475.0,-9154.0,0.158,0.243,0.951,-0.104
488286,-4236.0,-1169.0,-9912.0,0.152,0.235,0.954,-0.105
488308,-3574.0,-1629.0,-11084.0,0.15,0.228,0.956,-0.108
488320,-3184.0,-373.0,-11202.0,0.151,0.222,0.958,-0.099
488342,-2066.0,553.0,-8812.0,0.145,0.215,0.963,-0.077
488354,-1494.0,-5.0,-6508.0,0.12,0.202,0.971,-0.046
488376,-1244.0,63.0,-5268.0,0.112,0.191,0.975,-0.027
488388,-1546.0,499.0,-5688.0,0.103,0.178,0.978,-0.016
488410,-2060.0,311.0,-6334.0,0.094,0.164,0.982,-0.011
488432,-3074.0,225.0,-7808.0,0.084,0.151,0.985,-0.009
488444,-3674.0,-107.0,-8400.0,0.077,0.141,0.987,-0.009
488466,-3592.0,-671.0,-8624.0,0.073,0.137,0.988,-0.012
488478,-2654.0,-683.0,-8630.0,0.068,0.139,0.988,-0.015
488500,-1792.0,31.0,-9176.0,0.063,0.145,0.987,-0.017
488512,-900.0,227.0,-9180.0,0.057,0.151,0.987,-0.015
488534,-394.0,355.0,-8828.0,0.049,0.156,0.987,-0.01
488546,-910.0,143.0,-9548.0,0.033,0.155,0.987,0.0
488568,-144.0,1159.0,-8916.0,0.02,0.156,0.987,0.013
488580,160.0,1227.0,-8452.0,0.008,0.154,0.988,0.028
488602,230.0,1737.0,-7868.0,0.003,-0.151,-0.988,-0.043
488624,-46.0,1867.0,-7348.0,0.013,-0.145,-0.988,-0.058
488636,-292.0,1997.0,-6736.0,0.021,-0.14,-0.988,-0.07
488658,-646.0,1937.0,-6194.0,0.026,-0.135,-0.987,-0.079
488670,-1060.0,2039.0,-5994.0,0.028,-0.133,-0.987,-0.082
488692,-1724.0,1811.0,-6448.0,0.028,-0.133,-0.987,-0.08
488704,-2348.0,1281.0,-7252.0,0.025,-0.138,-0.987,-0.073
488726,-2708.0,883.0,-7792.0,0.019,-0.148,-0.987,-0.061
488738,-2736.0,439.0,-8122.0,0.011,-0.164,-0.985,-0.047
488760,-2710.0,-291.0,-7814.0,0.001,-0.185,-0.982,-0.03
488772,-1934.0,-151.0,-7460.0,0.009,0.211,0.977,0.012
488794,-836.0,-673.0,-7550.0,0.017,0.239,0.971,-0.011
488816,278.0,-805.0,-7686.0,0.024,0.267,0.963,-0.033
488828,1200.0,1745.0,-8054.0,0.028,0.294,0.954,-0.055
488850,798.0,-2041.0,-8446.0,0.037,0.315,0.945,-0.077
488862,1014.0,-799.0,-9238.0,0.041,0.334,0.937,-0.096
488884,1282.0,-709.0,-9352.0,0.043,0.347,0.93,-0.114
488896,1002.0,-367.0,-9840.0,0.044,0.355,0.925,-0.129
488918,900.0,-1667.0,-9714.0,0.047,0.36,0.921,-0.141
488930,616.0,-1855.0,-9670.0,0.051,0.361,0.919,-0.151
488952,322.0,707.0,-9584.0,0.053,0.357,0.919,-0.156
488974,-592.0,-2351.0,-9142.0,0.052,0.349,0.922,-0.158
488986,-1420.0,-1493.0,-8958.0,0.053,0.34,0.926,-0.159
489008,-2196.0,-1313.0,-7896.0,0.052,0.33,0.93,-0.156
489020,-1192.0,-731.0,-6682.0,0.052,0.322,0.933,-0.15
489042,-716.0,-1181.0,-6336.0,0.05,0.314,0.937,-0.145
489054,-1282.0,-1431.0,-6114.0,0.046,0.306,0.94,-0.144
489076,-1674.0,-1197.0,-6374.0,0.043,0.299,0.942,-0.145
489088,-1928.0,-1175.0,-6682.0,0.039,0.294,0.944,-0.148
489110,-2054.0,-1567.0,-7310.0,0.036,0.29,0.944,-0.153
489122,-1916.0,-1915.0,-7856.0,0.034,0.287,0.944,-0.16
489144,-1722.0,-2045.0,-8562.0,0.034,0.286,0.943,-0.169
489161,-758.0,-1057.0,-9932.0,0.043,0.286,0.94,-0.181
489173,-224.0,-1059.0,-10038.0,0.045,0.281,0.94,-0.188
489195,-1016.0,-1931.0,-10528.0,0.044,0.273,0.942,-0.188
489217,-512.0,-4015.0,-8932.0,0.043,0.261,0.946,-0.189
489229,-3008.0,-1339.0,-10976.0,0.043,0.252,0.95,-0.18
489251,-460.0,-1363.0,-7318.0,0.042,0.245,0.955,-0.162
489263,-248.0,-2029.0,-7320.0,0.039,0.232,0.961,-0.147
489285,-1038.0,-1629.0,-5306.0,0.03,0.218,0.966,-0.138
489297,-1750.0,-1989.0,-6954.0,0.022,0.203,0.97,-0.135
489319,-2036.0,-4961.0,-8902.0,0.013,0.191,0.972,-0.138
489331,-2930.0,-3547.0,-13558.0,0.01,0.183,0.973,-0.142
489353,-1634.0,-2339.0,-14278.0,0.007,0.182,0.975,-0.131
489375,402.0,-1299.0,-7890.0,0.001,0.182,0.977,-0.111
489387,442.0,-1799.0,-6000.0,0.001,0.182,0.979,-0.095
489409,494.0,-1637.0,-4608.0,0.002,0.181,0.979,-0.092
489421,24.0,-1195.0,-5572.0,0.003,0.18,0.979,-0.097
489443,-1056.0,-1589.0,-8192.0,0.002,-0.178,-0.978,0.106
489455,-842.0,-1589.0,-8860.0,0.005,-0.179,-0.977,0.116
489477,-570.0,-1809.0,-9196.0,0.008,-0.18,-0.976,0.125
489489,-500.0,-1481.0,-9996.0,0.011,-0.182,-0.974,0.132
489511,-436.0,-1481.0,-10304.0,0.012,-0.183,-0.974,0.135
489523,-634.0,-1005.0,-10230.0,0.013,-0.183,-0.974,0.133
489545,-1126.0,-1581.0,-8342.0,0.014,-0.183,-0.975,0.128
489567,-1692.0,-1683.0,-7628.0,0.012,-0.183,-0.975,0.123
489579,-1708.0,-675.0,-6716.0,0.008,-0.187,-0.975,0.119
489601,-776.0,563.0,-5506.0,0.005,-0.195,-0.974,0.115
489613,24.0,93.0,-4730.0,0.003,-0.202,-0.973,0.115
489635,346.0,-377.0,-3898.0,0.003,-0.208,-0.971,0.12
489647,562.0,-861.0,-3682.0,0.006,-0.213,-0.968,0.132
489669,1136.0,155.0,-3868.0,0.01,-0.217,-0.964,0.153
489681,2382.0,-2931.0,-1914.0,0.007,-0.22,-0.958,0.182
489703,556.0,-11283.0,-5438.0,0.03,-0.207,-0.945,0.252
489715,-2084.0,-8117.0,-16348.0,0.055,-0.196,-0.931,0.302
489737,-2848.0,-7143.0,-21582.0,0.079,-0.192,-0.924,0.321
489749,-1918.0,-5977.0,-22862.0,0.094,-0.198,-0.929,0.297
489771,-288.0,-5957.0,-16814.0,0.104,-0.211,-0.942,0.237
489793,1000.0,-3377.0,-9196.0,0.114,-0.225,-0.955,0.155
489805,1216.0,-2297.0,-7088.0,0.126,-0.235,-0.962,0.067
489827,1944.0,-1411.0,-3260.0,0.137,-0.242,-0.96,-0.02
489839,1838.0,-633.0,208.0,0.145,-0.244,-0.954,-0.093
489861,1270.0,783.0,1996.0,0.15,-0.243,-0.948,-0.14
489873,890.0,1181.0,2814.0,0.152,-0.244,-0.945,-0.157
489895,1144.0,1649.0,1048.0,0.153,-0.247,-0.945,-0.149
489907,1528.0,2011.0,-1800.0,0.155,-0.252,-0.947,-0.124
489929,1940.0,869.0,-3796.0,0.158,-0.258,-0.949,-0.085
489951,2378.0,-1611.0,-5670.0,0.165,-0.262,-0.95,-0.03
489963,2872.0,-6405.0,-9464.0,0.183,-0.26,-0.947,0.036
489985,3038.0,-7201.0,-14284.0,0.201,-0.257,-0.941,0.095
489997,2924.0,-4805.0,-18062.0,0.213,-0.256,-0.934,0.128
490019,3156.0,-1261.0,-19548.0,0.215,-0.262,-0.933,0.126
490031,3682.0,85.0,-13058.0,0.211,-0.271,-0.934,0.094
490053,3386.0,-1029.0,-7170.0,0.204,-0.28,-0.937,0.055
490065,2930.0,-475.0,-4244.0,0.202,-0.285,-0.936,0.026
490087,2832.0,-529.0,-3696.0,0.208,-0.288,-0.935,0.014
490109,3408.0,-1651.0,-5224.0,0.216,-0.289,-0.933,0.017
490121,3848.0,-1687.0,-8394.0,0.221,-0.289,-0.931,0.022
490143,3858.0,-1541.0,-8132.0,0.223,-0.289,-0.931,0.024
490155,3514.0,-1065.0,-7724.0,0.224,-0.289,-0.931,0.021
490177,2912.0,-193.0,-7056.0,0.223,-0.288,-0.931,0.017
490189,2348.0,-205.0,-6394.0,0.224,-0.289,-0.931,0.012
490211,2780.0,283.0,-6878.0,0.223,-0.293,-0.93,0.01
490223,3460.0,395.0,-7594.0,0.223,-0.298,-0.928,0.009
490245,4194.0,3.0,-8064.0,0.223,-0.305,-0.926,0.006
490257,4668.0,-11.0,-7488.0,0.224,-0.31,-0.924,-0.002
490279,4790.0,25.0,-6444.0,0.223,-0.315,-0.922,-0.01
490291,4456.0,79.0,-5286.0,0.222,-0.317,-0.922,-0.016
490313,3880.0,-225.0,-5220.0,0.222,-0.316,-0.922,-0.02
490335,3194.0,-315.0,-5796.0,0.22,-0.314,-0.923,-0.02
490347,2690.0,115.0,-6696.0,0.217,-0.313,-0.924,-0.018
490369,2894.0,877.0,-6066.0,0.214,-0.314,-0.925,-0.013
490381,3956.0,-223.0,-6964.0,0.214,-0.314,-0.925,-0.003
490403,3920.0,-1307.0,-7328.0,0.218,-0.311,-0.925,0.01
490415,3486.0,-1565.0,-8844.0,0.225,-0.305,-0.925,0.024
490437,3200.0,-929.0,-8866.0,0.224,-0.301,-0.926,0.037
490449,2644.0,-289.0,-6528.0,0.211,-0.298,-0.93,0.051
490471,2700.0,-479.0,-5822.0,0.207,-0.295,-0.931,0.059
490483,3044.0,-959.0,-4420.0,0.211,-0.292,-0.931,0.067
490505,3114.0,-1121.0,-4962.0,0.188,-0.29,-0.934,0.094
490527,3378.0,-2385.0,-5924.0,0.199,-0.283,-0.931,0.115
490539,4018.0,-2949.0,-7420.0,0.229,-0.271,-0.925,0.132
490561,4068.0,-3749.0,-10548.0,0.246,-0.262,-0.921,0.152
490573,3958.0,-3491.0,-11806.0,0.259,-0.253,-0.918,0.162
490595,3986.0,-3491.0,-12316.0,0.273,-0.247,-0.916,0.16
490607,4144.0,-2999.0,-10412.0,0.282,-0.244,-0.916,0.146
490629,4022.0,-2633.0,-7580.0,0.29,-0.242,-0.917,0.126
490641,3710.0,-2427.0,-6084.0,0.295,-0.242,-0.918,0.109
490663,3622.0,-681.0,-4368.0,0.299,-0.242,-0.918,0.094
490675,3564.0,-807.0,-3692.0,0.306,-0.241,-0.917,0.084
490697,3734.0,-1029.0,-3606.0,0.313,-0.24,-0.915,0.079
490719,3494.0,-1369.0,-4304.0,0.319,-0.238,-0.914,0.083
490731,3584.0,-1835.0,-5598.0,0.319,-0.236,-0.913,0.094
490753,4236.0,-1527.0,-6312.0,0.321,-0.237,-0.911,0.104
490765,4830.0,-1521.0,-7738.0,0.318,-0.238,-0.911,0.113
490787,5570.0,-1763.0,-5314.0,0.319,-0.239,-0.91,0.116
490799,5688.0,-1619.0,-5134.0,0.328,-0.236,-0.907,0.117
490821,4778.0,-2603.0,-5228.0,0.341,-0.229,-0.904,0.121
490833,4898.0,-2855.0,-5612.0,0.347,-0.223,-0.901,0.133
490855,5274.0,-2851.0,-6542.0,0.352,-0.217,-0.899,0.146
490867,5636.0,-2025.0,-6738.0,0.358,-0.211,-0.896,0.157
490889,5542.0,-2423.0,-5946.0,0.369,-0.203,-0.893,0.162
490901,5588.0,-3151.0,-6266.0,0.38,-0.195,-0.889,0.166
490923,5558.0,-3345.0,-5742.0,0.388,-0.186,-0.886,0.172
490945,5446.0,-4387.0,-6120.0,0.398,-0.177,-0.883,0.177
490957,5678.0,-5885.0,-7048.0,0.404,-0.168,-0.88,0.185
490979,5454.0,-4303.0,-9284.0,0.401,-0.161,-0.881,0.192
490991,5494.0,-2985.0,-9930.0,0.398,-0.158,-0.883,0.191
491013,5318.0,-3625.0,-8464.0,0.397,-0.158,-0.887,0.177
491025,4556.0,-2415.0,-5986.0,0.394,-0.16,-0.891,0.158
491047,4036.0,-2439.0,-4772.0,0.39,-0.166,-0.895,0.14
491059,4004.0,-2331.0,-3466.0,0.385,-0.174,-0.898,0.124
491081,4190.0,-1677.0,-2950.0,0.381,-0.183,-0.899,0.114
491093,4444.0,-839.0,-2844.0,0.378,-0.191,-0.899,0.11
491115,4414.0,-1395.0,-2612.0,0.377,-0.199,-0.898,0.109
491137,5014.0,-1595.0,-3616.0,0.372,-0.208,-0.897,0.115
491149,5156.0,-1119.0,-3704.0,0.366,-0.213,-0.897,0.127
491166,5746.0,-2091.0,-4476.0,0.361,-0.216,-0.896,0.14
491188,5642.0,-2297.0,-5496.0,0.359,-0.218,-0.895,0.152
491200,5610.0,-5023.0,-7282.0,0.355,-0.216,-0.894,0.166
491222,5864.0,-4833.0,-9860.0,0.345,-0.215,-0.895,0.182
491234,5622.0,-4403.0,-10692.0,0.334,-0.211,-0.898,0.196
491256,6354.0,-4621.0,-13456.0,0.322,-0.212,-0.902,0.193
491268,6180.0,-3461.0,-10596.0,0.312,-0.212,-0.91,0.171
491290,5094.0,-2443.0,-7300.0,0.305,-0.211,-0.919,0.138
491312,4024.0,-2573.0,-4340.0,0.303,-0.208,-0.925,0.1
491324,3456.0,-1871.0,-2684.0,0.304,-0.204,-0.928,0.067
491346,2840.0,-1295.0,-1694.0,0.308,-0.2,-0.929,0.048
491358,2398.0,-997.0,-3252.0,0.319,-0.196,-0.926,0.041
491380,2440.0,-979.0,-4868.0,0.322,-0.195,-0.925,0.047
491392,2880.0,-1447.0,-6652.0,0.321,-0.197,-0.925,0.058
491414,3288.0,-2063.0,-7566.0,0.317,-0.204,-0.924,0.07
491426,3872.0,-2395.0,-8484.0,0.312,-0.213,-0.922,0.08
491448,4834.0,-1947.0,-8792.0,0.308,-0.225,-0.92,0.085
491460,5824.0,-1727.0,-8556.0,0.307,-0.237,-0.918,0.082
491482,6270.0,-1245.0,-7282.0,0.306,-0.246,-0.916,0.075
491504,6222.0,-941.0,-6168.0,0.307,-0.253,-0.915,0.064
491516,5634.0,-527.0,-5454.0,0.308,-0.256,-0.915,0.052
491538,4906.0,-45.0,-4272.0,0.307,-0.257,-0.915,0.045
491550,4364.0,-603.0,-4322.0,0.305,-0.258,-0.916,0.044
491572,3800.0,-841.0,-5896.0,0.301,-0.258,-0.917,0.048
491584,3246.0,-1205.0,-6938.0,0.292,-0.26,-0.919,0.056
491606,2516.0,-843.0,-6542.0,0.278,-0.265,-0.921,0.065
491618,2472.0,-1187.0,-7028.0,0.265,-0.272,-0.922,0.075
491640,2950.0,-1733.0,-6960.0,0.251,-0.282,-0.922,0.087
491652,3476.0,-1933.0,-7422.0,0.238,-0.292,-0.921,0.099
491674,3954.0,-2445.0,-7882.0,0.226,-0.301,-0.919,0.113
491696,3978.0,-3051.0,-8432.0,0.216,-0.308,-0.918,0.127
491708,3326.0,-3131.0,-9522.0,0.204,-0.311,-0.917,0.141
491730,2524.0,-2653.0,-9786.0,0.193,-0.314,-0.918,0.15
491742,2034.0,-2131.0,-9036.0,0.184,-0.318,-0.917,0.151
491764,2370.0,-1669.0,-7120.0,0.178,-0.323,-0.917,0.149
491776,2754.0,-1551.0,-6070.0,0.172,-0.328,-0.917,0.147
491798,2972.0,-1837.0,-5972.0,0.17,-0.33,-0.917,0.147
491810,2760.0,-2043.0,-6664.0,0.168,-0.331,-0.916,0.15
491832,2382.0,-2011.0,-7634.0,0.166,-0.333,-0.916,0.152
491844,2316.0,-2159.0,-7238.0,0.161,-0.334,-0.916,0.155
491866,2322.0,-2189.0,-6990.0,0.155,-0.336,-0.915,0.159
491888,2114.0,-2357.0,-7310.0,0.149,-0.338,-0.915,0.164
491900,2004.0,-2381.0,-7066.0,0.143,-0.339,-0.914,0.17
491922,2042.0,-2527.0,-7190.0,0.139,-0.339,-0.914,0.176
491934,1794.0,-2563.0,-7756.0,0.136,-0.337,-0.914,0.182
491956,1398.0,-2747.0,-8052.0,0.133,-0.334,-0.914,0.186
491968,998.0,-2707.0,-8112.0,0.13,-0.331,-0.915,0.191
491990,666.0,-3017.0,-8244.0,0.128,-0.329,-0.915,0.195
492002,370.0,-3727.0,-8788.0,0.128,-0.326,-0.915,0.2
492024,-130.0,-4137.0,-9460.0,0.129,-0.323,-0.915,0.205
492036,-718.0,-3445.0,-10084.0,0.13,-0.323,-0.915,0.204
492058,-1000.0,-3141.0,-10036.0,0.13,-0.328,-0.915,0.196
492080,-1224.0,-2801.0,-8784.0,0.119,-0.338,-0.914,0.187
492092,-262.0,-2329.0,-6218.0,0.107,-0.353,-0.912,0.179
492114,684.0,-2349.0,-5032.0,0.096,-0.369,-0.907,0.177
492126,1502.0,-2783.0,-5052.0,0.086,-0.385,-0.901,0.182
492148,1884.0,-2655.0,-6416.0,0.083,-0.397,-0.894,0.19
492160,1936.0,-2959.0,-8782.0,0.084,-0.404,-0.889,0.198
492182,1802.0,-2783.0,-9798.0,0.085,-0.41,-0.886,0.202
492194,1600.0,-2827.0,-10116.0,0.085,-0.413,-0.884,0.199
492216,1510.0,-2731.0,-8964.0,0.086,-0.416,-0.885,0.192
492228,1278.0,-2827.0,-7436.0,0.087,-0.416,-0.886,0.184
492250,772.0,-2321.0,-6450.0,0.087,-0.416,-0.888,0.178
492272,378.0,-3083.0,-7068.0,0.092,-0.414,-0.889,0.173
492284,22.0,-2949.0,-8188.0,0.097,-0.412,-0.89,0.17
492306,-218.0,-2977.0,-8894.0,0.102,-0.41,-0.891,0.167
492318,-470.0,-2255.0,-8900.0,0.106,-0.409,-0.892,0.161
492340,-308.0,-1971.0,-8180.0,0.108,-0.411,-0.892,0.155
492352,210.0,-1545.0,-7100.0,0.107,-0.415,-0.891,0.15
492374,1036.0,-1323.0,-6724.0,0.105,-0.421,-0.889,0.147
492386,1796.0,-1159.0,-7052.0,0.105,-0.426,-0.887,0.145
492408,2234.0,-1579.0,-8224.0,0.106,-0.43,-0.885,0.141
492420,2470.0,-1817.0,-8662.0,0.107,-0.434,-0.884,0.136
492442,2408.0,-1767.0,-8650.0,0.11,-0.435,-0.885,0.127
492464,2078.0,-1507.0,-8526.0,0.116,-0.433,-0.886,0.115
492476,1918.0,-1757.0,-8418.0,0.123,-0.431,-0.889,0.099
492498,1926.0,-1581.0,-7898.0,0.132,-0.427,-0.891,0.082
492510,1592.0,-1217.0,-8342.0,0.144,-0.421,-0.894,0.063
492532,1480.0,-835.0,-8528.0,0.154,-0.415,-0.895,0.044
492544,1670.0,-461.0,-7904.0,0.162,-0.412,-0.896,0.024
492566,2176.0,-477.0,-6764.0,0.17,-0.409,-0.896,0.007
492578,2648.0,-413.0,-6518.0,0.177,-0.407,-0.896,-0.006
492600,2978.0,-477.0,-6806.0,0.185,-0.403,-0.896,-0.012
492622,2748.0,-427.0,-7922.0,0.192,-0.398,-0.897,-0.016
492634,2576.0,-133.0,-8534.0,0.198,-0.395,-0.897,-0.022
492656,2812.0,-73.0,-7876.0,0.202,-0.393,-0.896,-0.03
492668,3120.0,115.0,-6758.0,0.203,-0.394,-0.896,-0.037
492690,3336.0,-25.0,-5850.0,0.203,-0.394,-0.895,-0.039
492702,3600.0,-179.0,-6530.0,0.204,-0.394,-0.896,-0.036
492724,3372.0,-419.0,-8156.0,0.207,-0.393,-0.896,-0.033
492736,3296.0,-211.0,-8826.0,0.208,-0.393,-0.895,-0.032
492758,3504.0,-165.0,-8280.0,0.207,-0.393,-0.895,-0.033
492770,3678.0,99.0,-6864.0,0.205,-0.395,-0.895,-0.035
492792,3744.0,63.0,-6294.0,0.204,-0.395,-0.895,-0.035
492804,3708.0,17.0,-6974.0,0.204,-0.395,-0.895,-0.034
492826,3514.0,-229.0,-8020.0,0.205,-0.394,-0.895,-0.033
492848,3304.0,-99.0,-8298.0,0.204,-0.394,-0.896,-0.033
492860,3346.0,-105.0,-7820.0,0.203,-0.394,-0.896,-0.034
492882,3320.0,183.0,-7344.0,0.202,-0.394,-0.896,-0.035
492894,3270.0,323.0,-6994.0,0.201,-0.394,-0.896,-0.036
492916,3360.0,197.0,-7104.0,0.2,-0.394,-0.896,-0.036
492928,3324.0,-19.0,-7762.0,0.198,-0.394,-0.897,-0.034
492950,3168.0,-95.0,-8306.0,0.197,-0.395,-0.897,-0.035
492962,3228.0,-7.0,-7978.0,0.194,-0.395,-0.897,-0.036
492984,3368.0,369.0,-7188.0,0.192,-0.396,-0.897,-0.037
492996,3412.0,357.0,-6818.0,0.19,-0.396,-0.897,-0.037
493018,3124.0,85.0,-7478.0,0.188,-0.396,-0.898,-0.036
493040,2968.0,25.0,-8046.0,0.186,-0.397,-0.898,-0.036
493052,3118.0,-133.0,-7766.0,0.184,-0.397,-0.898,-0.036
493074,3190.0,-151.0,-7818.0,0.183,-0.398,-0.898,-0.036
493086,3236.0,-21.0,-8016.0,0.182,-0.398,-0.898,-0.038
493108,3162.0,213.0,-7824.0,0.181,-0.398,-0.899,-0.041
493120,3144.0,351.0,-7444.0,0.18,-0.398,-0.899,-0.043
493142,2982.0,243.0,-7470.0,0.18,-0.397,-0.899,-0.045
493154,2940.0,241.0,-7746.0,0.179,-0.398,-0.899,-0.047
493171,3074.0,341.0,-7626.0,0.178,-0.398,-0.899,-0.049
493193,3236.0,447.0,-7370.0,0.177,-0.399,-0.898,-0.05
493215,3380.0,507.0,-7332.0,0.176,-0.399,-0.898,-0.052
493227,3266.0,535.0,-7806.0,0.176,-0.399,-0.898,-0.053
493249,3136.0,557.0,-8046.0,0.176,-0.399,-0.898,-0.056
493261,3046.0,563.0,-7844.0,0.177,-0.398,-0.898,-0.058
493283,2964.0,631.0,-7600.0,0.176,-0.398,-0.898,-0.06
493295,3042.0,631.0,-7380.0,0.175,-0.398,-0.898,-0.062
493317,3124.0,793.0,-7162.0,0.174,-0.399,-0.898,-0.063
493329,3314.0,897.0,-7156.0,0.174,-0.399,-0.898,-0.064
493351,3220.0,681.0,-7632.0,0.174,-0.399,-0.898,-0.064
493363,3076.0,551.0,-7916.0,0.174,-0.399,-0.898,-0.065
493385,3044.0,619.0,-7692.0,0.174,-0.4,-0.898,-0.067
493407,3090.0,651.0,-7484.0,0.173,-0.4,-0.897,-0.068
493419,3220.0,635.0,-7442.0,0.173,-0.4,-0.897,-0.068
493441,3278.0,701.0,-7452.0,0.173,-0.4,-0.897,-0.069
493453,3224.0,665.0,-7522.0,0.173,-0.4,-0.897,-0.07
493475,3046.0,649.0,-7738.0,0.173,-0.4,-0.897,-0.07
493487,2966.0,653.0,-7762.0,0.173,-0.4,-0.897,-0.07
493509,3112.0,725.0,-7564.0,0.173,-0.4,-0.897,-0.071
493521,3304.0,701.0,-7244.0,0.173,-0.4,-0.897,-0.071
493543,3214.0,581.0,-7608.0,0.173,-0.399,-0.897,-0.071
493555,3062.0,673.0,-7980.0,0.173,-0.399,-0.898,-0.071
493577,3090.0,749.0,-7552.0,0.173,-0.399,-0.898,-0.071
493599,3056.0,695.0,-7458.0,0.173,-0.398,-0.898,-0.072
493611,3062.0,715.0,-7764.0,0.173,-0.398,-0.898,-0.072
493633,3132.0,715.0,-7718.0,0.173,-0.398,-0.898,-0.073
493645,3148.0,803.0,-7374.0,0.173,-0.398,-0.898,-0.073
493667,3160.0,759.0,-7316.0,0.173,-0.398,-0.898,-0.073
493679,3126.0,733.0,-7696.0,0.173,-0.398,-0.898,-0.073
493701,3158.0,799.0,-7698.0,0.173,-0.398,-0.898,-0.073
493713,3290.0,731.0,-7456.0,0.173,-0.398,-0.898,-0.073
493735,3078.0,685.0,-7752.0,0.173,-0.397,-0.898,-0.073
493747,3008.0,643.0,-7786.0,0.173,-0.397,-0.898,-0.073
493769,3118.0,715.0,-7486.0,0.173,-0.397,-0.899,-0.073
493791,3184.0,763.0,-7442.0,0.173,-0.397,-0.899,-0.073
493803,3266.0,741.0,-7446.0,0.173,-0.396,-0.899,-0.072
493825,3210.0,709.0,-7274.0,0.174,-0.395,-0.899,-0.072
493837,3256.0,811.0,-7156.0,0.174,-0.395,-0.9,-0.07
493859,3262.0,723.0,-7122.0,0.174,-0.393,-0.9,-0.068
493871,3018.0,555.0,-7662.0,0.175,-0.391,-0.901,-0.065
493893,2732.0,525.0,-8326.0,0.175,-0.39,-0.902,-0.062
493905,2684.0,265.0,-8478.0,0.175,-0.389,-0.902,-0.06
493927,2688.0,315.0,-8478.0,0.175,-0.39,-0.902,-0.06
493939,2970.0,631.0,-7540.0,0.174,-0.391,-0.902,-0.061
493961,3250.0,749.0,-6954.0,0.173,-0.391,-0.902,-0.062
493983,3282.0,727.0,-7108.0,0.174,-0.391,-0.902,-0.061
493995,3092.0,577.0,-7796.0,0.174,-0.391,-0.902,-0.061
494017,2850.0,413.0,-8264.0,0.174,-0.39,-0.902,-0.06
494029,2826.0,401.0,-8084.0,0.174,-0.39,-0.902,-0.061
494051,2838.0,507.0,-7580.0,0.174,-0.39,-0.902,-0.061
494063,3068.0,611.0,-7298.0,0.174,-0.391,-0.902,-0.062
494085,3126.0,585.0,-7224.0,0.174,-0.391,-0.902,-0.061
494097,3006.0,609.0,-7918.0,0.174,-0.39,-0.902,-0.061
494119,2978.0,511.0,-7976.0,0.174,-0.391,-0.902,-0.061
494131,3032.0,533.0,-7584.0,0.174,-0.391,-0.902,-0.061
494153,3086.0,507.0,-7602.0,0.175,-0.391,-0.902,-0.061
494175,2980.0,465.0,-7794.0,0.175,-0.391,-0.902,-0.061
494187,2980.0,575.0,-7954.0,0.175,-0.391,-0.902,-0.061
494209,3098.0,581.0,-7482.0,0.175,-0.391,-0.902,-0.061
494221,3168.0,619.0,-7202.0,0.175,-0.391,-0.902,-0.061
494243,3028.0,693.0,-7632.0,0.176,-0.39,-0.902,-0.061
494255,2944.0,491.0,-7852.0,0.177,-0.39,-0.902,-0.06
494277,2940.0,625.0,-7840.0,0.178,-0.39,-0.902,-0.06
494289,2926.0,385.0,-7566.0,0.179,-0.39,-0.901,-0.06
494311,2944.0,259.0,-7930.0,0.18,-0.39,-0.901,-0.059
494323,3058.0,363.0,-8034.0,0.18,-0.39,-0.901,-0.06
494345,3174.0,441.0,-7724.0,0.179,-0.391,-0.901,-0.06
494367,3210.0,607.0,-7404.0,0.179,-0.391,-0.901,-0.061
494379,3126.0,587.0,-7298.0,0.179,-0.391,-0.901,-0.061
494401,3050.0,537.0,-7692.0,0.179,-0.391,-0.901,-0.06
494413,2988.0,457.0,-7918.0,0.179,-0.39,-0.901,-0.06
494435,3014.0,395.0,-7634.0,0.179,-0.39,-0.901,-0.06
494447,2924.0,357.0,-7664.0,0.179,-0.39,-0.901,-0.06
494469,2874.0,429.0,-7892.0,0.179,-0.391,-0.901,-0.061
494481,3084.0,449.0,-7426.0,0.179,-0.391,-0.901,-0.061
494503,3178.0,621.0,-7416.0,0.179,-0.391,-0.901,-0.062
494515,3186.0,591.0,-7578.0,0.18,-0.391,-0.901,-0.061
494537,3016.0,339.0,-7874.0,0.18,-0.39,-0.901,-0.061
494559,2930.0,317.0,-8086.0,0.18,-0.39,-0.901,-0.061
494571,2882.0,375.0,-7770.0,0.18,-0.39,-0.901,-0.062
494593,2946.0,473.0,-7372.0,0.18,-0.391,-0.901,-0.063
494605,3158.0,557.0,-7344.0,0.18,-0.391,-0.9,-0.063
494627,3156.0,527.0,-7646.0,0.181,-0.391,-0.9,-0.063
494639,3094.0,521.0,-7848.0,0.181,-0.391,-0.9,-0.063
494661,3076.0,515.0,-7720.0,0.181,-0.391,-0.9,-0.063
494673,3042.0,407.0,-7470.0,0.181,-0.391,-0.9,-0.064
494695,2992.0,459.0,-7588.0,0.181,-0.39,-0.9,-0.064
494707,3046.0,463.0,-7758.0,0.182,-0.39,-0.9,-0.064
494729,3086.0,485.0,-7678.0,0.182,-0.39,-0.9,-0.064
494751,3118.0,533.0,-7528.0,0.182,-0.39,-0.9,-0.064
494763,3118.0,469.0,-7432.0,0.182,-0.39,-0.9,-0.064
494785,3060.0,473.0,-7756.0,0.183,-0.39,-0.901,-0.063
494797,3004.0,431.0,-8052.0,0.183,-0.389,-0.901,-0.063
494819,2990.0,427.0,-7716.0,0.182,-0.39,-0.901,-0.063
494831,3100.0,445.0,-7452.0,0.182,-0.39,-0.901,-0.064
494853,2988.0,459.0,-7650.0,0.182,-0.39,-0.9,-0.064
494865,3008.0,523.0,-7766.0,0.182,-0.39,-0.9,-0.064
494887,3132.0,569.0,-7648.0,0.182,-0.39,-0.9,-0.064
494899,3172.0,501.0,-7532.0,0.182,-0.39,-0.9,-0.064
494921,3026.0,463.0,-7712.0,0.182,-0.39,-0.9,-0.064
494943,2999.0,406.0,-7686.0,0.182,-0.39,-0.9,-0.065
494955,3007.0,495.0,-7566.0,0.182,-0.39,-0.9,-0.065
494977,3009.0,483.0,-7646.0,0.182,-0.39,-0.9,-0.065
494989,3094.0,449.0,-7752.0,0.182,-0.391,-0.9,-0.065
495011,3095.0,526.0,-7773.0,0.182,-0.391,-0.9,-0.065
495023,3105.0,533.0,-7512.0,0.182,-0.391,-0.9,-0.065
495045,3021.0,567.0,-7504.0,0.183,-0.391,-0.9,-0.065
495057,3033.0,415.0,-7654.0,0.183,-0.391,-0.9,-0.065
495079,3029.0,455.0,-7825.0,0.183,-0.391,-0.9,-0.065
495091,3065.0,557.0,-7642.0,0.183,-0.391,-0.9,-0.065
495113,3105.0,555.0,-7512.0,0.183,-0.391,-0.9,-0.065
495135,3067.0,497.0,-7712.0,0.183,-0.391,-0.9,-0.065
495147,3047.0,455.0,-7728.0,0.183,-0.391,-0.9,-0.064
495174,3011.0,417.0,-7536.0,0.183,-0.39,-0.9,-0.064
495186,2963.0,435.0,-7488.0,0.183,-0.39,-0.9,-0.064
495198,2987.0,435.0,-7628.0,0.183,-0.39,-0.9,-0.063
495220,3023.0,437.0,-7822.0,0.183,-0.391,-0.9,-0.062
495232,3061.0,399.0,-7948.0,0.183,-0.391,-0.9,-0.062
495254,3085.0,483.0,-7748.0,0.183,-0.391,-0.9,-0.062
495266,3091.0,517.0,-7430.0,0.183,-0.391,-0.9,-0.062
495288,3021.0,441.0,-7456.0,0.183,-0.391,-0.9,-0.062
495310,2979.0,391.0,-7650.0,0.184,-0.39,-0.9,-0.061
495322,2985.0,369.0,-7740.0,0.184,-0.39,-0.9,-0.061
495344,2973.0,357.0,-7818.0,0.184,-0.39,-0.9,-0.06
495356,2977.0,365.0,-7796.0,0.184,-0.39,-0.9,-0.06
495378,3005.0,345.0,-7650.0,0.184,-0.391,-0.9,-0.061
495390,2991.0,407.0,-7586.0,0.184,-0.391,-0.9,-0.06
495412,3035.0,433.0,-7698.0,0.184,-0.391,-0.9,-0.06
495424,3051.0,365.0,-7756.0,0.184,-0.391,-0.9,-0.06
495446,3127.0,379.0,-7656.0,0.184,-0.391,-0.9,-0.06
495458,3087.0,331.0,-7704.0,0.184,-0.391,-0.9,-0.06
495480,2991.0,327.0,-7810.0,0.184,-0.391,-0.9,-0.06
495502,2913.0,375.0,-7630.0,0.184,-0.391,-0.9,-0.06
495514,3037.0,467.0,-7446.0,0.184,-0.391,-0.9,-0.06
495536,3045.0,323.0,-7620.0,0.184,-0.391,-0.9,-0.06
495548,2969.0,339.0,-7824.0,0.184,-0.391,-0.9,-0.059
495570,3001.0,321.0,-7816.0,0.184,-0.391,-0.9,-0.059
495582,2901.0,239.0,-7748.0,0.184,-0.391,-0.9,-0.059
495604,3069.0,347.0,-7588.0,0.184,-0.392,-0.9,-0.059
495616,3057.0,357.0,-7606.0,0.184,-0.392,-0.9,-0.059
495638,3065.0,483.0,-7694.0,0.184,-0.392,-0.9,-0.059
495650,3005.0,319.0,-7736.0,0.185,-0.391,-0.9,-0.059
495672,2899.0,325.0,-7748.0,0.185,-0.391,-0.9,-0.059
495694,2887.0,339.0,-7680.0,0.185,-0.392,-0.9,-0.059
495706,2953.0,385.0,-7638.0,0.185,-0.392,-0.899,-0.059
495728,3051.0,333.0,-7680.0,0.185,-0.392,-0.899,-0.059
495740,3101.0,361.0,-7588.0,0.185,-0.392,-0.899,-0.059
495762,2989.0,243.0,-7910.0,0.185,-0.392,-0.899,-0.059
495774,2959.0,307.0,-7682.0,0.185,-0.392,-0.899,-0.059
495796,3085.0,361.0,-7384.0,0.185,-0.392,-0.899,-0.059
495808,3007.0,275.0,-7566.0,0.186,-0.391,-0.899,-0.059
495830,3049.0,339.0,-7720.0,0.186,-0.391,-0.899,-0.058
495842,3045.0,283.0,-7596.0,0.186,-0.391,-0.9,-0.058
495864,2999.0,237.0,-7624.0,0.186,-0.391,-0.9,-0.057
495886,2905.0,239.0,-7910.0,0.186,-0.391,-0.9,-0.056
495898,2845.0,203.0,-7888.0,0.186,-0.391,-0.9,-0.056
495920,2931.0,273.0,-7802.0,0.186,-0.391,-0.9,-0.057
495932,3027.0,327.0,-7502.0,0.186,-0.391,-0.9,-0.057
495954,3009.0,253.0,-7614.0,0.186,-0.391,-0.9,-0.057
495966,2985.0,261.0,-7844.0,0.186,-0.391,-0.9,-0.057
495988,2963.0,261.0,-7696.0,0.187,-0.391,-0.899,-0.057
496000,2803.0,311.0,-7676.0,0.186,-0.391,-0.899,-0.057
496022,2951.0,307.0,-7650.0,0.186,-0.391,-0.899,-0.057
496034,3085.0,333.0,-7536.0,0.186,-0.392,-0.899,-0.057
496056,3139.0,307.0,-7624.0,0.186,-0.391,-0.899,-0.056
496078,2991.0,185.0,-7990.0,0.187,-0.391,-0.9,-0.056
496090,2811.0,147.0,-8002.0,0.187,-0.391,-0.9,-0.056
496112,2773.0,241.0,-7640.0,0.186,-0.391,-0.899,-0.057
496124,2977.0,323.0,-7334.0,0.186,-0.392,-0.899,-0.057
496146,3127.0,345.0,-7512.0,0.186,-0.392,-0.899,-0.057
496158,3167.0,325.0,-7834.0,0.187,-0.392,-0.899,-0.057
496180,3109.0,299.0,-7824.0,0.187,-0.392,-0.899,-0.057
496192,2935.0,121.0,-7674.0,0.187,-0.392,-0.899,-0.057
496214,2771.0,207.0,-7694.0,0.187,-0.391,-0.899,-0.057
496226,2797.0,303.0,-7584.0,0.187,-0.392,-0.899,-0.058
496248,2907.0,395.0,-7490.0,0.187,-0.392,-0.899,-0.057
496270,3089.0,301.0,-7662.0,0.187,-0.392,-0.899,-0.057
496282,3105.0,279.0,-7906.0,0.187,-0.392,-0.899,-0.057
496304,3039.0,183.0,-7932.0,0.187,-0.392,-0.899,-0.057
496316,2935.0,221.0,-7592.0,0.187,-0.392,-0.899,-0.057
496338,2885.0,255.0,-7460.0,0.187,-0.392,-0.899,-0.057
496350,2937.0,253.0,-7598.0,0.187,-0.392,-0.899,-0.057
496372,2981.0,263.0,-7792.0,0.187,-0.392,-0.899,-0.057
496384,3017.0,331.0,-7972.0,0.187,-0.392,-0.899,-0.057
496406,2991.0,197.0,-7828.0,0.187,-0.392,-0.899,-0.057
496418,2925.0,285.0,-7576.0,0.187,-0.392,-0.899,-0.057
496440,2883.0,267.0,-7488.0,0.187,-0.392,-0.899,-0.057
496462,2815.0,191.0,-7770.0,0.187,-0.392,-0.899,-0.057
496474,2871.0,169.0,-7818.0,0.187,-0.392,-0.899,-0.057
496496,2945.0,301.0,-7790.0,0.187,-0.392,-0.899,-0.058
496508,3077.0,385.0,-7696.0,0.187,-0.392,-0.899,-0.058
496530,3055.0,341.0,-7630.0,0.187,-0.392,-0.899,-0.058
496542,2979.0,297.0,-7610.0,0.187,-0.392,-0.899,-0.058
496564,2861.0,225.0,-7680.0,0.187,-0.392,-0.899,-0.058
496576,2763.0,175.0,-7802.0,0.187,-0.392,-0.899,-0.058
496598,2825.0,271.0,-7762.0,0.187,-0.392,-0.899,-0.058
496610,3063.0,261.0,-7698.0,0.187,-0.392,-0.899,-0.058
496632,3099.0,329.0,-7572.0,0.187,-0.392,-0.899,-0.058
496654,2997.0,285.0,-7686.0,0.187,-0.392,-0.899,-0.058
496666,2893.0,269.0,-7806.0,0.187,-0.392,-0.899,-0.059
496688,2887.0,213.0,-7668.0,0.188,-0.392,-0.899,-0.059
496700,2807.0,247.0,-7720.0,0.187,-0.392,-0.899,-0.058
496722,2889.0,273.0,-7586.0,0.187,-0.392,-0.899,-0.058
496734,2943.0,305.0,-7518.0,0.187,-0.392,-0.899,-0.057
496756,2913.0,247.0,-7460.0,0.187,-0.393,-0.899,-0.056
496768,2783.0,295.0,-7400.0,0.186,-0.393,-0.899,-0.054
496790,2673.0,105.0,-7280.0,0.185,-0.393,-0.899,-0.049
496802,2603.0,105.0,-7360.0,0.183,-0.394,-0.9,-0.044
496824,2453.0,-49.0,-7704.0,0.182,-0.394,-0.9,-0.037
496846,2379.0,-105.0,-7954.0,0.181,-0.395,-0.9,-0.03
496858,2331.0,-131.0,-8108.0,0.179,-0.397,-0.9,-0.023
496880,2465.0,-289.0,-8156.0,0.178,-0.399,-0.899,-0.017
496892,2361.0,-229.0,-8362.0,0.178,-0.401,-0.899,-0.012
496914,2223.0,-647.0,-8448.0,0.177,-0.403,-0.898,-0.007
496926,2053.0,-479.0,-8352.0,0.176,-0.406,-0.897,-0.004
496948,1975.0,-303.0,-8370.0,0.175,-0.41,-0.895,0.0
496960,1937.0,-613.0,-8156.0,0.172,-0.415,-0.893,0.004
496982,1047.0,-8217.0,-6502.0,0.153,-0.423,-0.893,0.014
497004,2441.0,1503.0,-9344.0,0.108,-0.445,-0.887,0.053
497016,991.0,-1289.0,-12802.0,0.083,-0.461,-0.881,0.063
497038,1369.0,-211.0,-13580.0,0.056,-0.478,-0.874,0.061
497050,1999.0,1011.0,-14576.0,0.03,-0.491,-0.869,0.044
497072,85.0,1659.0,-15066.0,0.016,0.497,0.867,-0.024
497084,-579.0,-6313.0,-11766.0,0.064,0.503,0.862,0.022
497106,-1303.0,-1435.0,-10634.0,0.091,0.499,0.858,0.084
497118,-1609.0,-1153.0,-3372.0,0.114,0.49,0.851,0.152
497140,-1237.0,3267.0,-2114.0,0.117,0.475,0.842,0.227
497152,-805.0,1715.0,-1806.0,0.111,0.457,0.832,0.293
497179,601.0,155.0,-5618.0,0.141,0.462,0.817,0.315
497191,1501.0,1767.0,-11968.0,0.152,0.46,0.798,0.357
497203,1965.0,2705.0,-7754.0,0.166,0.452,0.781,0.398
497225,1789.0,4347.0,-6310.0,0.184,0.437,0.761,0.443
497247,2621.0,6707.0,-4660.0,0.199,0.415,0.737,0.495
497259,2793.0,5673.0,2750.0,0.219,0.386,0.711,0.545
497281,2961.0,6073.0,6068.0,0.235,0.357,0.689,0.585
497293,3589.0,5099.0,8574.0,0.236,0.321,0.682,0.614
497315,4729.0,10067.0,3218.0,0.243,0.304,0.687,0.614
497327,6983.0,10555.0,3410.0,0.267,0.29,0.675,0.623
497349,7571.0,7285.0,4656.0,0.303,0.269,0.665,0.627
497361,3801.0,3589.0,1758.0,0.331,0.208,0.666,0.636
497383,-1905.0,3721.0,-1190.0,0.374,0.147,0.666,0.628
497405,-8365.0,2539.0,-4464.0,0.419,0.088,0.659,0.619
497417,-12965.0,3101.0,-5266.0,0.459,0.036,0.639,0.617
497439,-16003.0,1529.0,-2488.0,0.483,-0.003,0.604,0.633
497451,-13619.0,-2493.0,394.0,0.486,-0.03,0.556,0.674
497473,-8901.0,-5185.0,3514.0,0.468,-0.045,0.5,0.727
497485,-2909.0,-6939.0,6034.0,0.438,-0.034,0.435,0.786
497507,1209.0,1433.0,9052.0,0.398,-0.046,0.369,0.838
497519,1875.0,7963.0,12320.0,0.376,-0.046,0.315,0.87
497541,1941.0,277.0,10102.0,0.35,-0.065,0.27,0.895
497553,3721.0,2381.0,9792.0,0.325,-0.096,0.229,0.912
497575,5149.0,-3027.0,2774.0,0.313,-0.142,0.194,0.919
497587,3597.0,-1879.0,8188.0,0.322,-0.162,0.143,0.922
497609,357.0,-4329.0,10376.0,0.34,-0.182,0.086,0.919
497631,-10613.0,-7327.0,19992.0,0.362,-0.188,0.018,0.913
497643,-18809.0,-5707.0,29706.0,0.353,-0.192,0.008,0.916
497665,-8153.0,-4533.0,13402.0,0.317,-0.19,0.047,0.928
497677,1915.0,-3145.0,4268.0,0.276,-0.173,0.09,0.941
497699,6581.0,569.0,1824.0,0.253,-0.149,0.113,0.949
497711,5307.0,1235.0,5516.0,0.253,-0.117,0.115,0.953
497733,-1359.0,-525.0,11170.0,0.265,-0.092,0.116,0.953
497745,-6095.0,463.0,12458.0,0.271,-0.073,0.128,0.951
497767,-4753.0,-775.0,9414.0,0.263,-0.055,0.149,0.951
497779,-253.0,617.0,6658.0,0.252,-0.033,0.17,0.952
497801,3003.0,1777.0,4918.0,0.247,-0.009,0.184,0.951
497823,3439.0,2439.0,5380.0,0.254,0.018,0.188,0.949
497835,779.0,2499.0,8402.0,0.267,0.041,0.19,0.944
497857,-2661.0,1829.0,7886.0,0.276,0.049,0.196,0.94
497869,-2719.0,1995.0,6344.0,0.273,0.049,0.202,0.939
497891,1407.0,2639.0,6494.0,0.268,0.049,0.205,0.94
497903,2205.0,2839.0,7044.0,0.268,0.048,0.205,0.94
497925,-547.0,2291.0,8336.0,0.269,0.046,0.204,0.94
497937,-55.0,2569.0,8402.0,0.268,0.045,0.203,0.941
497959,579.0,2465.0,8198.0,0.267,0.045,0.203,0.941
497971,375.0,2369.0,7628.0,0.267,0.045,0.202,0.941
497993,773.0,2325.0,8336.0,0.267,0.046,0.201,0.941
498015,715.0,2351.0,8382.0,0.268,0.047,0.201,0.941
498027,621.0,2495.0,8402.0,0.269,0.047,0.202,0.941
498049,527.0,2411.0,7680.0,0.271,0.048,0.202,0.94
498061,669.0,2367.0,7684.0,0.273,0.049,0.201,0.94
498083,595.0,2399.0,8206.0,0.275,0.049,0.2,0.939
498095,279.0,2085.0,8276.0,0.278,0.049,0.2,0.938
498117,375.0,2301.0,7884.0,0.279,0.047,0.2,0.938
498129,331.0,2247.0,7612.0,0.28,0.047,0.201,0.938
498151,511.0,2633.0,12842.0,0.279,0.041,0.201,0.938
498163,4113.0,935.0,10754.0,0.28,0.042,0.2,0.938
498185,-69.0,833.0,8460.0,0.289,0.038,0.21,0.933
498207,-3335.0,1893.0,6416.0,0.293,0.03,0.219,0.93
498219,-1421.0,2587.0,6610.0,0.291,0.026,0.225,0.93
498241,1051.0,3171.0,7474.0,0.29,0.021,0.226,0.93
498253,807.0,3433.0,8756.0,0.293,0.014,0.228,0.928
498275,313.0,3205.0,9216.0,0.3,0.01,0.23,0.926
498287,-447.0,2921.0,7898.0,0.309,0.007,0.236,0.921
498309,-875.0,2615.0,7260.0,0.318,0.004,0.241,0.917
498321,-1583.0,2281.0,6786.0,0.326,-0.002,0.245,0.913
498343,-2007.0,2297.0,7540.0,0.332,-0.01,0.246,0.911
498355,-1639.0,2951.0,6830.0,0.335,-0.016,0.247,0.909
498377,-1629.0,2565.0,6608.0,0.337,-0.024,0.249,0.908
498399,-2809.0,2293.0,5984.0,0.34,-0.025,0.249,0.906
498411,-2295.0,3065.0,6320.0,0.34,-0.021,0.246,0.907
498433,-1209.0,2999.0,7108.0,0.34,-0.017,0.241,0.909
498445,-1429.0,2339.0,7170.0,0.339,-0.02,0.236,0.91
498467,-533.0,2303.0,7992.0,0.338,-0.019,0.23,0.913
498479,-455.0,2423.0,7734.0,0.337,-0.023,0.224,0.914
498501,-1755.0,1907.0,8550.0,0.339,-0.025,0.217,0.915
498513,-2161.0,1889.0,9406.0,0.337,-0.028,0.214,0.916
498535,-749.0,2089.0,7918.0,0.334,-0.027,0.213,0.918
498547,-261.0,2225.0,7296.0,0.333,-0.025,0.211,0.919
498569,-1265.0,2009.0,8062.0,0.332,-0.022,0.207,0.92
498591,-1163.0,1887.0,8172.0,0.331,-0.022,0.204,0.921
498603,-569.0,2087.0,7258.0,0.33,-0.018,0.2,0.923
498625,-1227.0,1901.0,8026.0,0.329,-0.015,0.193,0.924
498637,-725.0,1829.0,8584.0,0.326,-0.011,0.187,0.926
498659,361.0,1735.0,6722.0,0.325,-0.005,0.182,0.928
498671,413.0,1717.0,6690.0,0.326,-0.002,0.174,0.929
498693,-453.0,1577.0,8990.0,0.329,-0.002,0.165,0.93
498705,-1555.0,1545.0,10750.0,0.331,-0.003,0.16,0.93
498727,-921.0,1433.0,8418.0,0.33,-0.004,0.16,0.931
498739,107.0,1449.0,8188.0,0.33,-0.004,0.157,0.931
498761,-251.0,1243.0,8094.0,0.331,-0.003,0.154,0.931
498783,-291.0,1293.0,7844.0,0.332,-0.003,0.15,0.931
498795,-79.0,1353.0,7588.0,0.334,-0.003,0.145,0.931
498817,-665.0,1325.0,8224.0,0.336,-0.004,0.14,0.931
498829,-717.0,1069.0,9396.0,0.338,-0.005,0.136,0.931
498851,-221.0,1147.0,8800.0,0.339,-0.005,0.134,0.931
498863,-287.0,1083.0,8710.0,0.34,-0.004,0.132,0.931
498885,-267.0,963.0,8700.0,0.342,-0.004,0.129,0.931
498897,-137.0,887.0,8650.0,0.343,-0.005,0.128,0.931
498919,-531.0,1029.0,7854.0,0.344,-0.006,0.127,0.93
498931,-333.0,987.0,7666.0,0.345,-0.006,0.124,0.93
498953,-157.0,1093.0,8230.0,0.346,-0.006,0.122,0.93
498975,-491.0,903.0,8738.0,0.347,-0.007,0.12,0.93
498987,-317.0,863.0,8774.0,0.348,-0.007,0.119,0.93
499009,-323.0,769.0,8944.0,0.349,-0.009,0.119,0.93
499021,-87.0,781.0,8714.0,0.349,-0.01,0.119,0.929
499043,-355.0,817.0,8326.0,0.35,-0.011,0.12,0.929
499055,-375.0,933.0,7520.0,0.35,-0.012,0.121,0.929
499077,-305.0,925.0,8014.0,0.351,-0.013,0.12,0.929
499089,-323.0,931.0,8328.0,0.351,-0.014,0.119,0.928
499111,-423.0,863.0,8036.0,0.352,-0.014,0.118,0.928
499123,-273.0,845.0,8336.0,0.353,-0.014,0.116,0.928
499145,-587.0,785.0,9132.0,0.355,-0.015,0.116,0.928
499167,-447.0,755.0,8444.0,0.355,-0.015,0.116,0.927
499184,-419.0,789.0,8278.0,0.356,-0.016,0.116,0.927
499196,-475.0,835.0,8434.0,0.356,-0.016,0.116,0.927
499218,-507.0,781.0,8208.0,0.357,-0.017,0.117,0.927
499230,-487.0,825.0,7882.0,0.357,-0.018,0.116,0.927
499252,-503.0,799.0,7892.0,0.357,-0.018,0.116,0.927
499264,-359.0,761.0,8400.0,0.358,-0.018,0.114,0.927
499286,-465.0,747.0,8820.0,0.358,-0.018,0.113,0.927
499298,-487.0,657.0,8106.0,0.359,-0.018,0.113,0.926
499320,-339.0,673.0,8702.0,0.359,-0.019,0.112,0.926
499342,-377.0,639.0,8624.0,0.36,-0.02,0.112,0.926
499354,-353.0,699.0,8266.0,0.36,-0.02,0.113,0.926
499376,-519.0,747.0,8016.0,0.361,-0.021,0.113,0.925
499388,-703.0,793.0,8514.0,0.361,-0.022,0.113,0.925
499410,-531.0,777.0,7930.0,0.362,-0.022,0.113,0.925
499422,-701.0,747.0,8168.0,0.362,-0.022,0.112,0.925
499444,-557.0,741.0,8620.0,0.362,-0.022,0.112,0.925
499456,-439.0,647.0,8364.0,0.363,-0.023,0.111,0.925
499478,-265.0,621.0,8228.0,0.363,-0.023,0.111,0.925
499490,-451.0,681.0,8060.0,0.363,-0.023,0.11,0.925
499512,-469.0,709.0,8748.0,0.364,-0.024,0.11,0.925
499534,-545.0,629.0,8250.0,0.364,-0.024,0.11,0.924
499546,-601.0,617.0,8412.0,0.365,-0.024,0.11,0.924
499568,-513.0,671.0,8340.0,0.365,-0.024,0.109,0.924
499580,-605.0,623.0,8424.0,0.365,-0.024,0.11,0.924
499602,-535.0,695.0,8114.0,0.366,-0.025,0.11,0.924
499614,-585.0,721.0,8286.0,0.366,-0.025,0.11,0.924
499636,-491.0,715.0,8476.0,0.366,-0.026,0.109,0.924
499648,-523.0,645.0,8490.0,0.367,-0.027,0.11,0.923
499670,-419.0,687.0,8012.0,0.367,-0.027,0.11,0.923
499682,-591.0,729.0,8084.0,0.368,-0.027,0.109,0.923
499704,-657.0,679.0,8484.0,0.368,-0.027,0.109,0.923
499726,-467.0,617.0,8470.0,0.368,-0.027,0.108,0.923
499738,-635.0,649.0,8406.0,0.368,-0.027,0.108,0.923
499760,-435.0,627.0,8596.0,0.369,-0.027,0.108,0.923
499772,-507.0,621.0,8134.0,0.369,-0.027,0.108,0.923
499794,-647.0,641.0,8082.0,0.37,-0.027,0.108,0.923
499806,-613.0,677.0,8046.0,0.37,-0.027,0.107,0.922
499828,-595.0,723.0,8340.0,0.37,-0.026,0.106,0.923
499840,-545.0,581.0,8634.0,0.37,-0.026,0.105,0.923
499862,-401.0,541.0,8542.0,0.371,-0.026,0.105,0.922
499874,-403.0,595.0,8372.0,0.371,-0.027,0.105,0.922
499896,-519.0,627.0,8318.0,0.371,-0.027,0.106,0.922
499918,-393.0,719.0,8180.0,0.371,-0.027,0.105,0.922
499930,-687.0,677.0,8106.0,0.372,-0.027,0.105,0.922
499952,-563.0,707.0,8342.0,0.372,-0.027,0.104,0.922
499964,-481.0,557.0,8460.0,0.372,-0.027,0.104,0.922
499986,-561.0,557.0,8508.0,0.372,-0.027,0.104,0.922
499998,-361.0,577.0,8180.0,0.373,-0.027,0.104,0.922
500020,-593.0,657.0,8510.0,0.373,-0.027,0.104,0.922
500032,-519.0,631.0,8200.0,0.373,-0.028,0.104,0.921
500054,-509.0,743.0,8238.0,0.374,-0.028,0.104,0.921
500066,-757.0,591.0,8526.0,0.374,-0.028,0.103,0.921
500088,-453.0,547.0,8244.0,0.374,-0.028,0.104,0.921
500110,-427.0,575.0,8058.0,0.374,-0.028,0.103,0.921
500122,-611.0,565.0,8698.0,0.374,-0.028,0.103,0.921
500144,-505.0,577.0,8308.0,0.375,-0.029,0.103,0.921
500156,-459.0,559.0,8042.0,0.375,-0.028,0.103,0.921
500178,-645.0,599.0,8590.0,0.375,-0.028,0.102,0.921
500190,-577.0,617.0,8430.0,0.375,-0.028,0.103,0.921
500212,-469.0,689.0,8054.0,0.376,-0.028,0.103,0.921
500224,-549.0,565.0,8312.0,0.376,-0.029,0.102,0.921
500246,-529.0,555.0,8534.0,0.376,-0.029,0.102,0.921
500258,-423.0,611.0,8248.0,0.376,-0.029,0.102,0.921
500280,-667.0,571.0,8536.0,0.376,-0.03,0.102,0.92
500302,-549.0,539.0,8424.0,0.376,-0.03,0.103,0.92
500314,-489.0,565.0,8028.0,0.377,-0.029,0.103,0.92
500336,-557.0,635.0,8312.0,0.377,-0.03,0.102,0.92
500348,-625.0,587.0,8402.0,0.377,-0.03,0.102,0.92
500370,-541.0,577.0,8142.0,0.377,-0.03,0.102,0.92
500382,-387.0,593.0,8334.0,0.378,-0.029,0.101,0.92
500404,-667.0,545.0,8716.0,0.378,-0.029,0.101,0.92
500416,-501.0,613.0,8466.0,0.378,-0.029,0.101,0.92
500438,-615.0,493.0,8074.0,0.378,-0.03,0.101,0.92
500450,-421.0,613.0,8076.0,0.379,-0.03,0.101,0.92
500472,-693.0,565.0,8642.0,0.379,-0.03,0.101,0.919
500494,-513.0,601.0,8134.0,0.379,-0.03,0.101,0.919
500506,-613.0,611.0,8172.0,0.379,-0.031,0.101,0.919
500528,-607.0,575.0,8388.0,0.379,-0.031,0.1,0.919
500540,-591.0,539.0,8412.0,0.379,-0.032,0.1,0.919
500562,-579.0,597.0,8342.0,0.379,-0.032,0.101,0.919
500574,-609.0,567.0,8452.0,0.379,-0.033,0.101,0.919
500596,-471.0,515.0,8392.0,0.379,-0.034,0.101,0.919
500608,-477.0,597.0,8100.0,0.38,-0.034,0.101,0.919
500630,-863.0,643.0,8516.0,0.38,-0.034,0.101,0.919
500642,-595.0,531.0,8300.0,0.38,-0.034,0.101,0.919
500664,-625.0,543.0,8180.0,0.38,-0.034,0.101,0.919
500686,-659.0,585.0,8242.0,0.381,-0.035,0.101,0.919
500698,-633.0,523.0,8406.0,0.381,-0.035,0.1,0.919
500720,-736.0,527.0,8517.0,0.381,-0.035,0.1,0.918
500732,-624.0,555.0,8209.0,0.381,-0.035,0.1,0.918
500754,-720.0,554.0,8449.0,0.381,-0.035,0.1,0.918
500766,-641.0,581.0,8333.0,0.381,-0.035,0.1,0.918
500788,-581.0,547.0,8209.0,0.382,-0.036,0.1,0.918
500800,-660.0,559.0,8358.0,0.382,-0.036,0.1,0.918
500822,-548.0,627.0,8131.0,0.382,-0.036,0.1,0.918
500844,-749.0,577.0,8431.0,0.382,-0.036,0.1,0.918
500856,-725.0,651.0,8227.0,0.383,-0.036,0.1,0.918
500878,-734.0,651.0,8189.0,0.383,-0.036,0.1,0.918
500890,-647.0,616.0,8341.0,0.383,-0.036,0.101,0.918
500912,-685.0,588.0,8193.0,0.383,-0.037,0.101,0.918
500924,-637.0,610.0,8289.0,0.383,-0.037,0.101,0.918
500946,-801.0,640.0,8391.0,0.383,-0.038,0.101,0.917
500958,-723.0,610.0,8323.0,0.383,-0.038,0.102,0.917
500980,-751.0,620.0,7799.0,0.384,-0.038,0.101,0.917
500992,-927.0,646.0,8509.0,0.384,-0.038,0.101,0.917
501014,-759.0,656.0,8257.0,0.384,-0.038,0.101,0.917
501026,-765.0,612.0,8163.0,0.384,-0.038,0.101,0.917
501048,-689.0,562.0,8323.0,0.384,-0.038,0.101,0.917
501070,-633.0,550.0,8333.0,0.384,-0.038,0.101,0.917
501082,-747.0,588.0,8409.0,0.384,-0.038,0.101,0.917
501104,-637.0,590.0,8143.0,0.384,-0.038,0.101,0.917
501116,-797.0,686.0,8341.0,0.385,-0.038,0.101,0.917
501138,-803.0,692.0,8171.0,0.385,-0.038,0.101,0.917
501150,-737.0,654.0,8339.0,0.385,-0.038,0.101,0.917
501172,-779.0,630.0,8353.0,0.385,-0.038,0.102,0.916
501189,-627.0,616.0,7959.0,0.385,-0.038,0.102,0.916
501201,-803.0,604.0,8341.0,0.385,-0.038,0.101,0.916
501223,-743.0,632.0,8413.0,0.386,-0.039,0.102,0.916
501245,-713.0,630.0,8187.0,0.386,-0.039,0.102,0.916
501257,-851.0,664.0,8359.0,0.386,-0.039,0.102,0.916
501279,-779.0,606.0,8361.0,0.386,-0.039,0.102,0.916
501291,-839.0,662.0,8125.0,0.386,-0.039,0.103,0.916
501313,-739.0,644.0,8205.0,0.386,-0.04,0.103,0.916
501325,-787.0,674.0,8325.0,0.386,-0.04,0.103,0.916
501347,-653.0,662.0,8271.0,0.386,-0.04,0.104,0.916
501359,-893.0,738.0,8323.0,0.386,-0.04,0.104,0.916
501381,-787.0,720.0,8243.0,0.386,-0.041,0.104,0.916
501393,-751.0,688.0,7999.0,0.386,-0.041,0.105,0.915
501415,-753.0,712.0,8119.0,0.386,-0.041,0.105,0.915
501437,-789.0,692.0,8131.0,0.387,-0.041,0.104,0.915
501449,-897.0,720.0,8681.0,0.387,-0.042,0.104,0.915
501471,-935.0,702.0,8807.0,0.387,-0.043,0.104,0.915
501483,-1293.0,966.0,8375.0,0.387,-0.043,0.104,0.915
501505,-1213.0,1050.0,8765.0,0.387,-0.044,0.104,0.915
501517,-1031.0,846.0,8159.0,0.387,-0.044,0.105,0.915
501539,-957.0,720.0,8083.0,0.387,-0.044,0.104,0.915
501551,-865.0,532.0,8207.0,0.387,-0.043,0.103,0.915
501573,-555.0,572.0,8317.0,0.387,-0.043,0.103,0.915
501585,-39.0,384.0,7477.0,0.387,-0.042,0.102,0.915
501607,-251.0,428.0,7741.0,0.387,-0.041,0.101,0.915
501629,-295.0,538.0,7911.0,0.387,-0.041,0.1,0.916
501641,-387.0,584.0,8107.0,0.388,-0.041,0.1,0.915
501663,-929.0,650.0,8597.0,0.388,-0.041,0.099,0.915
501675,-987.0,572.0,8507.0,0.388,-0.042,0.098,0.915
501697,-917.0,484.0,8403.0,0.388,-0.042,0.098,0.915
501709,-843.0,410.0,7945.0,0.389,-0.043,0.098,0.915
501731,-817.0,328.0,8227.0,0.389,-0.043,0.098,0.915
501743,-793.0,294.0,8313.0,0.389,-0.044,0.098,0.915
501765,-659.0,358.0,8065.0,0.389,-0.043,0.098,0.915
501777,-689.0,432.0,7835.0,0.39,-0.043,0.097,0.915
501799,-647.0,410.0,7983.0,0.39,-0.043,0.097,0.915
501821,-397.0,514.0,7829.0,0.39,-0.043,0.096,0.915
501833,-309.0,608.0,7547.0,0.391,-0.044,0.096,0.914
501855,-1019.0,586.0,8955.0,0.392,-0.045,0.093,0.914
501867,-1597.0,1040.0,11121.0,0.392,-0.047,0.092,0.914
501889,-1961.0,1120.0,10583.0,0.392,-0.046,0.094,0.914
501901,-1255.0,610.0,7029.0,0.391,-0.045,0.097,0.914
501923,-379.0,332.0,5915.0,0.391,-0.044,0.097,0.914
501935,-87.0,26.0,5985.0,0.391,-0.043,0.095,0.915
501957,-345.0,198.0,8251.0,0.391,-0.044,0.092,0.915
501969,-1217.0,318.0,9503.0,0.392,-0.044,0.09,0.915
501991,-1007.0,690.0,10605.0,0.392,-0.044,0.091,0.914
502013,-1097.0,692.0,9281.0,0.392,-0.044,0.093,0.914
502025,-603.0,654.0,7469.0,0.392,-0.043,0.095,0.914
502047,-333.0,632.0,6679.0,0.392,-0.043,0.095,0.914
502059,-601.0,486.0,7723.0,0.392,-0.042,0.094,0.914
502081,-485.0,570.0,8137.0,0.392,-0.042,0.093,0.914
502093,-787.0,534.0,9005.0,0.392,-0.043,0.092,0.914
502115,-865.0,482.0,9267.0,0.392,-0.042,0.092,0.914
502127,-859.0,490.0,8139.0,0.392,-0.043,0.093,0.914
502149,-729.0,484.0,7437.0,0.392,-0.043,0.094,0.914
502161,-805.0,426.0,7825.0,0.392,-0.043,0.093,0.914
502183,-831.0,348.0,8203.0,0.392,-0.043,0.092,0.914
502205,-759.0,372.0,8499.0,0.392,-0.043,0.091,0.914
502217,-797.0,424.0,8789.0,0.392,-0.043,0.091,0.914
502239,-677.0,374.0,8691.0,0.392,-0.043,0.092,0.914
502251,-561.0,486.0,8081.0,0.393,-0.042,0.092,0.914
502273,-647.0,522.0,8171.0,0.393,-0.042,0.092,0.914
502285,-701.0,626.0,7987.0,0.393,-0.041,0.093,0.914
502307,-769.0,668.0,8105.0,0.393,-0.041,0.092,0.914
502319,-697.0,598.0,8427.0,0.393,-0.04,0.092,0.914
502341,-763.0,560.0,8667.0,0.394,-0.04,0.092,0.914
502353,-649.0,514.0,8293.0,0.394,-0.039,0.092,0.914
502375,-565.0,504.0,8043.0,0.394,-0.038,0.092,0.914
502397,-793.0,552.0,8063.0,0.394,-0.038,0.092,0.914
502409,-725.0,616.0,8177.0,0.394,-0.038,0.092,0.914
502431,-987.0,648.0,8545.0,0.394,-0.038,0.091,0.914
502443,-869.0,628.0,8693.0,0.394,-0.038,0.091,0.914
502465,-925.0,582.0,8767.0,0.394,-0.038,0.091,0.914
502477,-769.0,488.0,8317.0,0.393,-0.038,0.092,0.914
502499,-535.0,414.0,7803.0,0.393,-0.037,0.092,0.914
502511,-475.0,464.0,7827.0,0.393,-0.036,0.092,0.914
502533,-419.0,458.0,8199.0,0.393,-0.036,0.091,0.914
502545,-367.0,506.0,8081.0,0.393,-0.035,0.091,0.914
502567,-409.0,514.0,8097.0,0.393,-0.035,0.091,0.914
502589,-533.0,540.0,8469.0,0.393,-0.035,0.091,0.914
502601,-455.0,506.0,7893.0,0.393,-0.035,0.091,0.914
502623,-557.0,454.0,8145.0,0.393,-0.036,0.091,0.914
502635,-625.0,398.0,8113.0,0.393,-0.036,0.09,0.914
502657,-609.0,396.0,7857.0,0.393,-0.036,0.09,0.914
502669,-811.0,318.0,7969.0,0.394,-0.037,0.089,0.914
502691,-677.0,378.0,8445.0,0.394,-0.037,0.088,0.914
502703,-613.0,272.0,8297.0,0.394,-0.037,0.088,0.914
502725,-639.0,376.0,8597.0,0.394,-0.037,0.087,0.914
502737,-721.0,430.0,8841.0,0.395,-0.037,0.087,0.914
502759,-833.0,626.0,9043.0,0.395,-0.037,0.087,0.914
502781,-923.0,642.0,8383.0,0.395,-0.037,0.087,0.914
502793,-527.0,570.0,7685.0,0.395,-0.036,0.087,0.914
502815,-599.0,450.0,7745.0,0.396,-0.036,0.087,0.914
502827,-391.0,424.0,7577.0,0.396,-0.036,0.086,0.914
502849,-663.0,450.0,8557.0,0.396,-0.036,0.085,0.914
502861,-791.0,556.0,8831.0,0.396,-0.036,0.085,0.914
502883,-807.0,588.0,9139.0,0.396,-0.036,0.085,0.913
502895,-633.0,628.0,8245.0,0.396,-0.036,0.086,0.913
502917,-443.0,502.0,7757.0,0.396,-0.036,0.087,0.913
502929,-379.0,456.0,7931.0,0.396,-0.036,0.086,0.913
502951,-529.0,452.0,8475.0,0.396,-0.036,0.086,0.913
502973,-403.0,488.0,8245.0,0.396,-0.036,0.086,0.913
502985,-745.0,568.0,8637.0,0.396,-0.035,0.086,0.913
503007,-653.0,566.0,8355.0,0.396,-0.035,0.087,0.913
503019,-661.0,588.0,7901.0,0.396,-0.035,0.087,0.913
503041,-721.0,422.0,8233.0,0.396,-0.036,0.087,0.913
503053,-461.0,384.0,7907.0,0.396,-0.035,0.086,0.914
503075,-653.0,318.0,8699.0,0.396,-0.035,0.086,0.914
503087,-521.0,350.0,8195.0,0.396,-0.035,0.086,0.914
503109,-529.0,392.0,8675.0,0.396,-0.035,0.086,0.913
503121,-611.0,374.0,8227.0,0.396,-0.035,0.086,0.913
503143,-507.0,430.0,8237.0,0.397,-0.036,0.086,0.913
503165,-749.0,462.0,8169.0,0.397,-0.036,0.087,0.913
503177,-581.0,538.0,8117.0,0.397,-0.036,0.087,0.913
503194,-715.0,522.0,8241.0,0.397,-0.036,0.087,0.913
503216,-623.0,518.0,8477.0,0.397,-0.036,0.087,0.913
503228,-535.0,502.0,8131.0,0.397,-0.036,0.087,0.913
503250,-691.0,564.0,8349.0,0.397,-0.036,0.087,0.913
503262,-585.0,556.0,8235.0,0.397,-0.036,0.087,0.913
503284,-669.0,604.0,8153.0,0.397,-0.036,0.087,0.913
503296,-701.0,530.0,8393.0,0.397,-0.036,0.087,0.913
503318,-591.0,520.0,8153.0,0.397,-0.036,0.087,0.913
503330,-537.0,464.0,8295.0,0.397,-0.036,0.087,0.913
503352,-617.0,436.0,8487.0,0.397,-0.036,0.087,0.913
503374,-609.0,404.0,8189.0,0.397,-0.036,0.087,0.913
503386,-607.0,538.0,8217.0,0.397,-0.036,0.087,0.913
503408,-689.0,508.0,8157.0,0.397,-0.036,0.087,0.913
503420,-655.0,458.0,8181.0,0.398,-0.036,0.087,0.913
503442,-729.0,452.0,8171.0,0.398,-0.036,0.087,0.913
503454,-529.0,450.0,8461.0,0.398,-0.036,0.086,0.913
503476,-661.0,464.0,8265.0,0.398,-0.036,0.087,0.913
503488,-595.0,412.0,8419.0,0.398,-0.036,0.087,0.913
503510,-629.0,426.0,8231.0,0.398,-0.036,0.087,0.913
503522,-583.0,564.0,7983.0,0.398,-0.036,0.087,0.912
503544,-685.0,496.0,8407.0,0.398,-0.036,0.087,0.912
503566,-605.0,544.0,7917.0,0.398,-0.036,0.087,0.912
503578,-653.0,506.0,8473.0,0.398,-0.037,0.086,0.913
503600,-603.0,452.0,8345.0,0.398,-0.037,0.086,0.913
503612,-591.0,486.0,8307.0,0.398,-0.037,0.087,0.913
503634,-659.0,492.0,8305.0,0.398,-0.037,0.087,0.913
503646,-583.0,516.0,8235.0,0.398,-0.037,0.087,0.913
503668,-709.0,496.0,8005.0,0.398,-0.037,0.087,0.913
503680,-625.0,516.0,8499.0,0.398,-0.037,0.087,0.913
503702,-523.0,466.0,8153.0,0.398,-0.037,0.087,0.913
503714,-677.0,450.0,8401.0,0.398,-0.037,0.086,0.913
503736,-591.0,476.0,8419.0,0.398,-0.037,0.087,0.913
503758,-579.0,478.0,8331.0,0.398,-0.037,0.087,0.913
503770,-533.0,510.0,8069.0,0.398,-0.037,0.087,0.913
503792,-685.0,538.0,8061.0,0.398,-0.037,0.087,0.913
503804,-689.0,510.0,8329.0,0.398,-0.037,0.087,0.913
503826,-633.0,474.0,8351.0,0.398,-0.037,0.087,0.913
503838,-531.0,468.0,8291.0,0.398,-0.037,0.086,0.913
503860,-601.0,440.0,8485.0,0.398,-0.037,0.086,0.913
503872,-507.0,472.0,8153.0,0.398,-0.037,0.086,0.913
503894,-617.0,546.0,8391.0,0.398,-0.037,0.086,0.913
503906,-649.0,526.0,8059.0,0.398,-0.037,0.087,0.913
503928,-717.0,560.0,8165.0,0.398,-0.037,0.086,0.913
503950,-665.0,464.0,8185.0,0.398,-0.037,0.086,0.913
503962,-501.0,530.0,8469.0,0.398,-0.037,0.085,0.913
503984,-593.0,418.0,8381.0,0.398,-0.037,0.085,0.913
503996,-581.0,446.0,8461.0,0.398,-0.037,0.085,0.913
504018,-641.0,534.0,8175.0,0.398,-0.037,0.086,0.913
504030,-727.0,514.0,8321.0,0.398,-0.036,0.086,0.913
504052,-595.0,498.0,8121.0,0.398,-0.036,0.086,0.913
504064,-671.0,466.0,8391.0,0.398,-0.036,0.085,0.913
504086,-531.0,460.0,8295.0,0.398,-0.036,0.085,0.913
504108,-595.0,436.0,8347.0,0.398,-0.036,0.086,0.913
504120,-579.0,500.0,8231.0,0.398,-0.036,0.086,0.912
504142,-639.0,538.0,8189.0,0.399,-0.036,0.086,0.912
504154,-765.0,504.0,8101.0,0.399,-0.036,0.086,0.912
504176,-639.0,466.0,8405.0,0.399,-0.036,0.086,0.912
504188,-655.0,464.0,8219.0,0.399,-0.036,0.086,0.912
504210,-569.0,442.0,8397.0,0.399,-0.036,0.086,0.912
504222,-585.0,458.0,8355.0,0.399,-0.036,0.086,0.912
504244,-573.0,512.0,8223.0,0.399,-0.035,0.086,0.912
504256,-667.0,624.0,8115.0,0.399,-0.035,0.086,0.912
504278,-545.0,556.0,8251.0,0.399,-0.035,0.086,0.912
504300,-655.0,494.0,8313.0,0.399,-0.035,0.086,0.912
504312,-481.0,480.0,8507.0,0.399,-0.035,0.086,0.912
504334,-561.0,470.0,8327.0,0.399,-0.035,0.087,0.912
504346,-545.0,530.0,8245.0,0.399,-0.035,0.087,0.912
504368,-617.0,582.0,8071.0,0.399,-0.035,0.087,0.912
504380,-747.0,580.0,7969.0,0.399,-0.035,0.087,0.912
504402,-579.0,560.0,8473.0,0.399,-0.035,0.087,0.912
504414,-589.0,480.0,8227.0,0.399,-0.035,0.087,0.912
504436,-551.0,484.0,8431.0,0.4,-0.034,0.087,0.912
504448,-619.0,544.0,8087.0,0.399,-0.034,0.087,0.912
504470,-545.0,542.0,8339.0,0.4,-0.034,0.087,0.912
504492,-621.0,512.0,8361.0,0.4,-0.034,0.087,0.912
504504,-613.0,584.0,8231.0,0.4,-0.034,0.087,0.912
504526,-515.0,486.0,8269.0,0.4,-0.034,0.087,0.912
504538,-567.0,538.0,8009.0,0.4,-0.034,0.087,0.912
504560,-607.0,530.0,8477.0,0.4,-0.034,0.087,0.912
504572,-557.0,510.0,8255.0,0.4,-0.034,0.087,0.912
504594,-563.0,598.0,8165.0,0.4,-0.034,0.087,0.912
504606,-637.0,542.0,8381.0,0.4,-0.034,0.087,0.912
504628,-643.0,618.0,8071.0,0.4,-0.034,0.087,0.912
504640,-607.0,540.0,8359.0,0.4,-0.034,0.087,0.912
504662,-555.0,554.0,8491.0,0.4,-0.033,0.087,0.912
504684,-497.0,502.0,8195.0,0.4,-0.033,0.087,0.912
504696,-617.0,534.0,8291.0,0.4,-0.033,0.087,0.912
504718,-511.0,596.0,8243.0,0.4,-0.033,0.087,0.912
504730,-591.0,540.0,8579.0,0.4,-0.033,0.087,0.912
504752,-539.0,574.0,7849.0,0.4,-0.033,0.087,0.912
504764,-539.0,536.0,8429.0,0.4,-0.032,0.087,0.912
504786,-535.0,514.0,8435.0,0.401,-0.033,0.087,0.912
504798,-505.0,614.0,8099.0,0.401,-0.033,0.088,0.911
504820,-593.0,570.0,8435.0,0.401,-0.033,0.088,0.911
504832,-711.0,624.0,8417.0,0.401,-0.033,0.088,0.911
504854,-419.0,588.0,8103.0,0.401,-0.033,0.089,0.911
504876,-623.0,552.0,8609.0,0.401,-0.033,0.089,0.911
504888,-519.0,544.0,8107.0,0.401,-0.033,0.09,0.911
504910,-589.0,634.0,8275.0,0.401,-0.032,0.09,0.911
504922,-741.0,616.0,8307.0,0.401,-0.032,0.09,0.911
504944,-577.0,610.0,8403.0,0.401,-0.032,0.091,0.911
504956,-651.0,598.0,8251.0,0.401,-0.032,0.092,0.911
504978,-641.0,626.0,8337.0,0.4,-0.032,0.093,0.911
504990,-335.0,678.0,7751.0,0.4,-0.031,0.093,0.911
505012,-669.0,694.0,8429.0,0.4,-0.031,0.093,0.911
505024,-621.0,674.0,8215.0,0.399,-0.031,0.093,0.912
505046,-425.0,670.0,8235.0,0.399,-0.03,0.093,0.912
505068,-551.0,630.0,8501.0,0.399,-0.029,0.093,0.912
505080,-617.0,622.0,8609.0,0.399,-0.028,0.093,0.912
505102,-595.0,674.0,8449.0,0.399,-0.027,0.094,0.912
505114,-671.0,656.0,8199.0,0.398,-0.026,0.095,0.912
505136,-585.0,750.0,8239.0,0.397,-0.026,0.097,0.912
505148,-563.0,822.0,7881.0,0.397,-0.026,0.098,0.912
505170,-659.0,836.0,8233.0,0.396,-0.027,0.099,0.912
505182,-691.0,780.0,8509.0,0.395,-0.028,0.101,0.913
505199,-571.0,692.0,8593.0,0.394,-0.028,0.102,0.913
505221,-1035.0,774.0,9261.0,0.392,-0.029,0.105,0.913
505233,-611.0,814.0,8313.0,0.389,-0.03,0.11,0.914
505255,-539.0,978.0,8269.0,0.387,-0.03,0.114,0.914
505277,-1011.0,1172.0,8295.0,0.385,-0.03,0.118,0.915
505289,-1543.0,1064.0,8331.0,0.382,-0.03,0.122,0.916
505311,-1023.0,1102.0,8735.0,0.378,-0.03,0.126,0.917
505323,-979.0,1166.0,9135.0,0.373,-0.033,0.133,0.918
505345,-955.0,1188.0,8997.0,0.367,-0.036,0.142,0.918
505357,-95.0,1690.0,8441.0,0.362,-0.044,0.152,0.919
505379,357.0,1892.0,4437.0,0.358,-0.07,0.167,0.916
505391,-235.0,-1962.0,7423.0,0.362,-0.084,0.177,0.911
505413,-2671.0,3082.0,7883.0,0.368,-0.089,0.182,0.908
505425,-2823.0,1144.0,7903.0,0.37,-0.093,0.186,0.905
505447,-3147.0,2208.0,8319.0,0.368,-0.097,0.192,0.905
505469,-2819.0,2400.0,7001.0,0.364,-0.101,0.2,0.904
505481,-2279.0,1476.0,6053.0,0.36,-0.103,0.204,0.904
505503,-1769.0,1646.0,8293.0,0.357,-0.105,0.205,0.906
505515,-2381.0,1928.0,8243.0,0.354,-0.107,0.209,0.905
505537,-2369.0,1614.0,6853.0,0.351,-0.107,0.214,0.906
505549,-1395.0,2412.0,7273.0,0.347,-0.107,0.218,0.906
505571,-1575.0,2172.0,7965.0,0.348,-0.107,0.221,0.905
505583,-2379.0,2070.0,7397.0,0.35,-0.107,0.224,0.903
505605,-2965.0,2386.0,7157.0,0.351,-0.108,0.227,0.902
505617,-2815.0,2170.0,6911.0,0.351,-0.11,0.23,0.901
505639,-2471.0,2198.0,7169.0,0.349,-0.113,0.232,0.901
505661,-2329.0,2182.0,7423.0,0.348,-0.119,0.235,0.9
505673,-2571.0,2210.0,7663.0,0.347,-0.132,0.239,0.897
505695,-3131.0,2334.0,8895.0,0.345,-0.149,0.248,0.893
505707,-3713.0,2112.0,9571.0,0.343,-0.167,0.259,0.887
505729,-4695.0,1218.0,9687.0,0.338,-0.187,0.275,0.88
505741,-4233.0,1838.0,9987.0,0.33,-0.205,0.3,0.871
505763,-3773.0,2592.0,8065.0,0.325,-0.217,0.331,0.859
505775,-3465.0,3254.0,4781.0,0.324,-0.223,0.36,0.846
505797,-4321.0,3426.0,3013.0,0.325,-0.227,0.383,0.834
505819,-5497.0,3470.0,3183.0,0.321,-0.236,0.403,0.824
505831,-4693.0,3964.0,2105.0,0.319,-0.235,0.412,0.82
505853,-2737.0,4576.0,1519.0,0.319,-0.234,0.414,0.82
505865,-5015.0,4188.0,5411.0,0.322,-0.235,0.411,0.82
505887,-6285.0,4030.0,6211.0,0.325,-0.233,0.41,0.82
505899,-6233.0,3862.0,6037.0,0.326,-0.23,0.412,0.819
505921,-5341.0,3784.0,5965.0,0.326,-0.227,0.416,0.819
505933,-4273.0,3938.0,5477.0,0.325,-0.223,0.421,0.817
505955,-4349.0,3916.0,5005.0,0.326,-0.22,0.426,0.815
505967,-4809.0,4020.0,5065.0,0.327,-0.218,0.429,0.813
505989,-5059.0,4038.0,5195.0,0.328,-0.217,0.433,0.811
506001,-5069.0,4366.0,5157.0,0.328,-0.215,0.437,0.809
506023,-5125.0,4334.0,5307.0,0.33,-0.213,0.441,0.807
506045,-4875.0,4456.0,5097.0,0.332,-0.211,0.444,0.805
506057,-5319.0,4284.0,4867.0,0.333,-0.209,0.448,0.803
506079,-6213.0,3844.0,4511.0,0.332,-0.209,0.452,0.801
506091,-4219.0,4844.0,4543.0,0.332,-0.205,0.456,0.8
506113,-3993.0,4938.0,4049.0,0.334,-0.201,0.459,0.798
506125,-4563.0,4644.0,4239.0,0.34,-0.196,0.459,0.797
506147,-5451.0,5028.0,4179.0,0.343,-0.195,0.459,0.796
506159,-5073.0,4780.0,5091.0,0.346,-0.192,0.458,0.796
506181,-5019.0,4922.0,5041.0,0.348,-0.191,0.458,0.795
506193,-5087.0,4672.0,4277.0,0.35,-0.193,0.457,0.795
506215,-5061.0,4326.0,4693.0,0.35,-0.196,0.456,0.795
506237,-4789.0,4234.0,5123.0,0.35,-0.197,0.455,0.795
506249,-4763.0,4478.0,5085.0,0.351,-0.199,0.455,0.794
506271,-5049.0,4466.0,5123.0,0.352,-0.199,0.455,0.794
506283,-5349.0,4636.0,5433.0,0.353,-0.199,0.455,0.793
506305,-5387.0,4384.0,5289.0,0.353,-0.199,0.457,0.792
506317,-5057.0,4434.0,4507.0,0.353,-0.2,0.459,0.79
506339,-5065.0,4356.0,4411.0,0.353,-0.202,0.46,0.789
506351,-5227.0,4548.0,4643.0,0.351,-0.205,0.461,0.789
506373,-4889.0,4510.0,4285.0,0.35,-0.207,0.462,0.788
506385,-4883.0,4518.0,4735.0,0.349,-0.209,0.462,0.788
506407,-5191.0,4672.0,4617.0,0.347,-0.214,0.464,0.787
506429,-5347.0,4512.0,4221.0,0.345,-0.218,0.465,0.786
506441,-5247.0,4528.0,4531.0,0.343,-0.222,0.465,0.785
506463,-5119.0,4780.0,4355.0,0.342,-0.226,0.465,0.785
506475,-5207.0,4500.0,4403.0,0.341,-0.23,0.464,0.784
506497,-5419.0,4240.0,4553.0,0.34,-0.234,0.463,0.784
506509,-5483.0,4444.0,4459.0,0.339,-0.239,0.463,0.783
506531,-5537.0,4718.0,4293.0,0.337,-0.244,0.463,0.783
506543,-5299.0,4630.0,4107.0,0.336,-0.247,0.462,0.783
506565,-5331.0,4320.0,4235.0,0.335,-0.252,0.461,0.782
506577,-5627.0,3950.0,4355.0,0.336,-0.256,0.459,0.782
506599,-5909.0,4154.0,4475.0,0.336,-0.261,0.457,0.781
506621,-6039.0,3966.0,4503.0,0.335,-0.267,0.455,0.781
506633,-6023.0,3608.0,4565.0,0.335,-0.272,0.453,0.78
506655,-5959.0,3944.0,4931.0,0.334,-0.275,0.453,0.78
506667,-5833.0,3890.0,4787.0,0.332,-0.279,0.453,0.779
506689,-5717.0,3846.0,4801.0,0.332,-0.281,0.454,0.778
506701,-5887.0,3560.0,4669.0,0.333,-0.283,0.455,0.776
506723,-6161.0,3712.0,4427.0,0.335,-0.284,0.457,0.773
506735,-6257.0,3874.0,4135.0,0.337,-0.285,0.459,0.771
506757,-6079.0,3922.0,3619.0,0.338,-0.285,0.462,0.769
506769,-5705.0,4000.0,3343.0,0.338,-0.286,0.464,0.767
506791,-5755.0,4134.0,3427.0,0.339,-0.287,0.465,0.766
506813,-5961.0,4146.0,3683.0,0.34,-0.288,0.465,0.765
506825,-6161.0,4030.0,4015.0,0.341,-0.289,0.465,0.764
506847,-6287.0,3942.0,3867.0,0.342,-0.291,0.464,0.763
506859,-6299.0,3802.0,3619.0,0.343,-0.292,0.464,0.763
506881,-6359.0,3708.0,3763.0,0.344,-0.294,0.463,0.762
506893,-6327.0,3722.0,4057.0,0.344,-0.295,0.462,0.762
506915,-6295.0,3730.0,4245.0,0.343,-0.297,0.462,0.762
506927,-6299.0,3694.0,4329.0,0.343,-0.298,0.462,0.762
506949,-6267.0,3830.0,4307.0,0.343,-0.298,0.462,0.762
506961,-6023.0,3810.0,3899.0,0.343,-0.298,0.463,0.761
506983,-5899.0,3984.0,3711.0,0.343,-0.299,0.464,0.76
507005,-5957.0,3894.0,3727.0,0.344,-0.299,0.464,0.759
507017,-6343.0,3738.0,3935.0,0.345,-0.301,0.463,0.759
507039,-6509.0,3724.0,3947.0,0.345,-0.302,0.463,0.758
507051,-6451.0,3704.0,3821.0,0.345,-0.302,0.464,0.758
507073,-6299.0,3776.0,3781.0,0.345,-0.303,0.464,0.758
507085,-6099.0,3796.0,3755.0,0.344,-0.303,0.464,0.757
507107,-5963.0,4060.0,3823.0,0.344,-0.304,0.465,0.757
507119,-5805.0,4046.0,3919.0,0.345,-0.305,0.464,0.756
507141,-5875.0,3826.0,4067.0,0.346,-0.308,0.464,0.755
507153,-6107.0,3710.0,4145.0,0.348,-0.31,0.463,0.754
507175,-6217.0,3742.0,3945.0,0.35,-0.312,0.463,0.752
507202,-6459.0,3452.0,3825.0,0.353,-0.315,0.463,0.75
507214,-6693.0,3438.0,3563.0,0.356,-0.317,0.463,0.748
507226,-6841.0,3466.0,3493.0,0.359,-0.319,0.463,0.746
507248,-6807.0,3500.0,3443.0,0.36,-0.321,0.462,0.744
507260,-6681.0,3370.0,3559.0,0.361,-0.323,0.462,0.743
507282,-6601.0,3396.0,3633.0,0.362,-0.325,0.462,0.742
507294,-6571.0,3350.0,3695.0,0.363,-0.327,0.461,0.741
507316,-6581.0,3378.0,3633.0,0.364,-0.329,0.46,0.74
507328,-6717.0,3352.0,3817.0,0.365,-0.331,0.46,0.739
507350,-6715.0,3306.0,3839.0,0.366,-0.332,0.459,0.738
507372,-6669.0,3308.0,3863.0,0.368,-0.334,0.459,0.737
507384,-6629.0,3198.0,3853.0,0.37,-0.334,0.459,0.736
507406,-6649.0,3134.0,3701.0,0.372,-0.334,0.459,0.734
507418,-6701.0,3202.0,3667.0,0.374,-0.335,0.46,0.732
507440,-6831.0,3302.0,3737.0,0.376,-0.337,0.46,0.73
507452,-6825.0,3272.0,3773.0,0.377,-0.338,0.461,0.729
507474,-6455.0,3122.0,3647.0,0.378,-0.339,0.462,0.727
507486,-6209.0,3242.0,3357.0,0.381,-0.34,0.463,0.724
507508,-6399.0,3498.0,3341.0,0.384,-0.343,0.464,0.721
507520,-6479.0,3114.0,3325.0,0.387,-0.345,0.464,0.718
507542,-6883.0,2828.0,3451.0,0.392,-0.347,0.463,0.715
507564,-7327.0,2814.0,3383.0,0.398,-0.349,0.462,0.712
507576,-7573.0,2806.0,3369.0,0.402,-0.351,0.462,0.709
507598,-7595.0,2758.0,3361.0,0.405,-0.351,0.461,0.707
507610,-6947.0,2674.0,3191.0,0.407,-0.353,0.461,0.705
507632,-6741.0,2582.0,3235.0,0.409,-0.355,0.461,0.703
507644,-6833.0,2332.0,3239.0,0.411,-0.357,0.461,0.701
507666,-7199.0,2474.0,3145.0,0.415,-0.358,0.461,0.698
507678,-7411.0,2500.0,3075.0,0.418,-0.36,0.461,0.696
507700,-7625.0,2566.0,3163.0,0.42,-0.362,0.46,0.694
507712,-7463.0,2312.0,3299.0,0.42,-0.363,0.46,0.693
507734,-7179.0,1920.0,3407.0,0.422,-0.363,0.459,0.692
507756,-7501.0,2666.0,3361.0,0.425,-0.363,0.459,0.691
507768,-7795.0,3106.0,3439.0,0.428,-0.362,0.458,0.69
507790,-7735.0,2902.0,3463.0,0.428,-0.363,0.458,0.689
507802,-7305.0,2212.0,3275.0,0.427,-0.363,0.459,0.689
507824,-7305.0,2418.0,3139.0,0.426,-0.363,0.459,0.689
507836,-7309.0,2288.0,3185.0,0.427,-0.362,0.459,0.69
507858,-7421.0,2230.0,3245.0,0.427,-0.36,0.459,0.691
507870,-7521.0,2596.0,3267.0,0.427,-0.358,0.46,0.692
507892,-7447.0,2700.0,3169.0,0.425,-0.357,0.46,0.693
507904,-7161.0,2856.0,3195.0,0.422,-0.357,0.46,0.694
507926,-6641.0,2426.0,3001.0,0.42,-0.357,0.461,0.696
507948,-6447.0,2226.0,2963.0,0.418,-0.357,0.46,0.698
507960,-7021.0,2700.0,3367.0,0.417,-0.356,0.459,0.699
507982,-7121.0,2466.0,3583.0,0.415,-0.356,0.458,0.701
507994,-7173.0,2946.0,3743.0,0.413,-0.356,0.457,0.702
508016,-6817.0,2898.0,3687.0,0.411,-0.357,0.457,0.703
508028,-6569.0,2918.0,3573.0,0.41,-0.357,0.457,0.704
508050,-6467.0,2854.0,3481.0,0.409,-0.358,0.457,0.704
508062,-6853.0,2922.0,3621.0,0.41,-0.359,0.456,0.704
508084,-7089.0,2526.0,3783.0,0.411,-0.36,0.455,0.703
508096,-7223.0,2444.0,3727.0,0.412,-0.362,0.455,0.702
508118,-7313.0,2330.0,3667.0,0.413,-0.362,0.455,0.701
508140,-7277.0,2328.0,3473.0,0.414,-0.362,0.456,0.7
508152,-7305.0,2602.0,3289.0,0.415,-0.362,0.457,0.699
508174,-7097.0,2496.0,3105.0,0.415,-0.363,0.458,0.697
508186,-7161.0,2650.0,3095.0,0.415,-0.363,0.459,0.697
508208,-7241.0,2712.0,3129.0,0.416,-0.364,0.459,0.696
508220,-7281.0,2586.0,3133.0,0.416,-0.364,0.459,0.695
508242,-7247.0,2514.0,3163.0,0.416,-0.365,0.459,0.695
508254,-7183.0,2466.0,3169.0,0.416,-0.366,0.459,0.695
508276,-7103.0,2316.0,3187.0,0.415,-0.367,0.459,0.695
508288,-7279.0,2522.0,3265.0,0.416,-0.367,0.458,0.695
508310,-7337.0,2554.0,3337.0,0.416,-0.367,0.458,0.695
508332,-7327.0,2500.0,3277.0,0.416,-0.367,0.458,0.695
508344,-7367.0,2544.0,3331.0,0.416,-0.367,0.458,0.695
508366,-7237.0,2524.0,3281.0,0.416,-0.367,0.458,0.695
508378,-6969.0,2208.0,3229.0,0.415,-0.367,0.458,0.695
508400,-7037.0,2518.0,3195.0,0.415,-0.367,0.458,0.695
508412,-7151.0,2534.0,3333.0,0.415,-0.367,0.458,0.695
508434,-7223.0,2466.0,3389.0,0.416,-0.367,0.458,0.695
508446,-7265.0,2574.0,3347.0,0.415,-0.368,0.458,0.695
508468,-7157.0,2588.0,3273.0,0.415,-0.368,0.458,0.695
508480,-7069.0,2538.0,3271.0,0.415,-0.368,0.459,0.694
508502,-7099.0,2618.0,3183.0,0.415,-0.368,0.459,0.694
508524,-7119.0,2504.0,3187.0,0.416,-0.369,0.458,0.694
508536,-7230.0,2395.0,3199.0,0.416,-0.369,0.458,0.693
508558,-7332.0,2482.0,3221.0,0.417,-0.37,0.458,0.692
508570,-7348.0,2508.0,3211.0,0.417,-0.37,0.458,0.692
508592,-7270.0,2306.0,3159.0,0.417,-0.371,0.458,0.692
508604,-7346.0,2406.0,3211.0,0.417,-0.371,0.458,0.691
508626,-7296.0,2326.0,3227.0,0.418,-0.371,0.459,0.691
508638,-7336.0,2494.0,3231.0,0.418,-0.371,0.459,0.691
508660,-7313.0,2418.0,3232.0,0.418,-0.371,0.459,0.691
508672,-7408.0,2741.0,3208.0,0.418,-0.371,0.459,0.69
508694,-7186.0,2519.0,3082.0,0.418,-0.372,0.459,0.69
508716,-7240.0,2513.0,3024.0,0.418,-0.372,0.459,0.69
508728,-7348.0,2289.0,3030.0,0.418,-0.373,0.458,0.69
508750,-7352.0,2239.0,3074.0,0.418,-0.374,0.458,0.69
508762,-7380.0,2187.0,3062.0,0.417,-0.374,0.458,0.69
508784,-7290.0,2175.0,3106.0,0.417,-0.374,0.457,0.691
508796,-7296.0,2177.0,3046.0,0.416,-0.374,0.457,0.691
508818,-7356.0,2435.0,3110.0,0.414,-0.374,0.457,0.692
508830,-7184.0,2543.0,3176.0,0.413,-0.374,0.457,0.693
508852,-7148.0,2633.0,3174.0,0.412,-0.374,0.457,0.694
508864,-7120.0,2651.0,3184.0,0.411,-0.374,0.457,0.695
508886,-7182.0,2413.0,3318.0,0.411,-0.374,0.456,0.695
508908,-7198.0,2439.0,3384.0,0.41,-0.374,0.456,0.696
508920,-7160.0,2373.0,3408.0,0.409,-0.373,0.456,0.697
508942,-7036.0,2535.0,3306.0,0.409,-0.373,0.456,0.697
508954,-7086.0,2501.0,3294.0,0.409,-0.373,0.456,0.697
508976,-7028.0,2595.0,3236.0,0.409,-0.374,0.456,0.697
508988,-7202.0,2555.0,3296.0,0.409,-0.374,0.456,0.697
509010,-7278.0,2617.0,3268.0,0.41,-0.374,0.455,0.696
509022,-7278.0,2471.0,3228.0,0.41,-0.374,0.455,0.696
509044,-7450.0,2445.0,3184.0,0.41,-0.374,0.455,0.696
509056,-7330.0,2283.0,3160.0,0.41,-0.374,0.455,0.696
509078,-7264.0,2769.0,3116.0,0.41,-0.375,0.456,0.696
509100,-7336.0,2453.0,3128.0,0.41,-0.374,0.456,0.696
509112,-7402.0,2531.0,3072.0,0.41,-0.374,0.455,0.696
509134,-7416.0,2731.0,3052.0,0.409,-0.374,0.455,0.697
509146,-7050.0,2383.0,3024.0,0.407,-0.375,0.456,0.697
509168,-6926.0,2381.0,3024.0,0.406,-0.375,0.455,0.698
509180,-6894.0,2379.0,3098.0,0.404,-0.376,0.455,0.699
509207,-6954.0,2111.0,3224.0,0.404,-0.376,0.454,0.699
509219,-7188.0,2173.0,3382.0,0.404,-0.377,0.454,0.699
509231,-7176.0,1931.0,3400.0,0.404,-0.377,0.454,0.699
509253,-7412.0,2203.0,3462.0,0.403,-0.378,0.454,0.699
509275,-7554.0,2501.0,3414.0,0.403,-0.378,0.455,0.699
509287,-7394.0,2363.0,3296.0,0.402,-0.378,0.456,0.698
509309,-7498.0,2403.0,3258.0,0.402,-0.378,0.457,0.698
509321,-7572.0,2577.0,3200.0,0.401,-0.378,0.458,0.698
509343,-7426.0,2547.0,3088.0,0.4,-0.378,0.459,0.697
509355,-7310.0,2481.0,2952.0,0.398,-0.378,0.461,0.697
509377,-7216.0,2595.0,2910.0,0.397,-0.377,0.462,0.697
509389,-7070.0,2705.0,2850.0,0.395,-0.377,0.463,0.698
509411,-7028.0,2683.0,2770.0,0.394,-0.377,0.464,0.698
509423,-7074.0,2893.0,2862.0,0.392,-0.377,0.465,0.699
509445,-7140.0,2741.0,2956.0,0.392,-0.377,0.465,0.699
509467,-7294.0,2951.0,3010.0,0.391,-0.376,0.465,0.7
509479,-7300.0,2689.0,3074.0,0.39,-0.376,0.465,0.7
509501,-7350.0,2953.0,3024.0,0.389,-0.376,0.465,0.701
509513,-7036.0,2551.0,2952.0,0.388,-0.376,0.465,0.701
509535,-7160.0,2963.0,2990.0,0.386,-0.376,0.466,0.702
509547,-7078.0,2755.0,2958.0,0.385,-0.376,0.466,0.702
509569,-7056.0,2789.0,2912.0,0.384,-0.377,0.467,0.702
509581,-7200.0,2757.0,2960.0,0.384,-0.377,0.467,0.702
509603,-7138.0,2651.0,2932.0,0.383,-0.377,0.467,0.702
509615,-7256.0,2761.0,2976.0,0.383,-0.377,0.467,0.702
509637,-7242.0,2587.0,3024.0,0.383,-0.377,0.467,0.702
509659,-7212.0,2673.0,3030.0,0.383,-0.377,0.467,0.702
509671,-7258.0,2729.0,3070.0,0.382,-0.378,0.467,0.702
509693,-7324.0,2853.0,3014.0,0.382,-0.377,0.467,0.702
509705,-7294.0,2769.0,3004.0,0.383,-0.377,0.467,0.702
509727,-7378.0,2765.0,2972.0,0.383,-0.377,0.467,0.702
509739,-7382.0,2852.0,2950.0,0.382,-0.377,0.467,0.703
509761,-7244.0,2943.0,2915.0,0.381,-0.377,0.467,0.703
509773,-7058.0,2829.0,2787.0,0.381,-0.377,0.467,0.703
509795,-6896.0,2767.0,2797.0,0.38,-0.377,0.467,0.703
509807,-6956.0,2701.0,2849.0,0.38,-0.378,0.467,0.704
509829,-7132.0,2513.0,2967.0,0.38,-0.378,0.466,0.704
509851,-7380.0,2671.0,3063.0,0.381,-0.377,0.466,0.704
509863,-7344.0,2701.0,3069.0,0.381,-0.377,0.466,0.704
509885,-7320.0,2873.0,3113.0,0.38,-0.377,0.467,0.704
509897,-7176.0,2975.0,3071.0,0.379,-0.377,0.467,0.704
509919,-7008.0,2857.0,2933.0,0.379,-0.377,0.467,0.704
509931,-7144.0,2737.0,2953.0,0.379,-0.378,0.467,0.704
509953,-7252.0,2633.0,3055.0,0.379,-0.378,0.467,0.704
509965,-7322.0,2503.0,3123.0,0.38,-0.378,0.467,0.703
509987,-7308.0,2507.0,3091.0,0.38,-0.378,0.467,0.703
509999,-7366.0,2957.0,2995.0,0.38,-0.378,0.468,0.703
510021,-7180.0,3065.0,2879.0,0.379,-0.377,0.469,0.703
510043,-7172.0,3133.0,2805.0,0.38,-0.377,0.469,0.703
510055,-7266.0,3057.0,2863.0,0.38,-0.377,0.469,0.703
510077,-7264.0,2739.0,2847.0,0.381,-0.377,0.468,0.702
510089,-7284.0,2613.0,2891.0,0.381,-0.377,0.468,0.702
510111,-7182.0,2487.0,2891.0,0.381,-0.377,0.468,0.702
510123,-7084.0,2617.0,2803.0,0.381,-0.377,0.469,0.702
510145,-6976.0,2803.0,2853.0,0.381,-0.377,0.469,0.702
510157,-7166.0,3011.0,2851.0,0.381,-0.377,0.469,0.702
510179,-7376.0,3003.0,2967.0,0.381,-0.377,0.469,0.702
510191,-7476.0,2897.0,3009.0,0.381,-0.377,0.469,0.702
510213,-7430.0,2783.0,3041.0,0.381,-0.377,0.469,0.702
510235,-7322.0,2809.0,2985.0,0.381,-0.378,0.469,0.702
510247,-7116.0,2659.0,2955.0,0.38,-0.378,0.469,0.703
510269,-7032.0,2777.0,2981.0,0.379,-0.377,0.469,0.703
510281,-7122.0,2823.0,2985.0,0.379,-0.377,0.469,0.703
510303,-7172.0,2725.0,2987.0,0.379,-0.377,0.469,0.703
510315,-7288.0,2733.0,2985.0,0.38,-0.377,0.469,0.702
510337,-7292.0,2669.0,2907.0,0.38,-0.377,0.47,0.702
510349,-7314.0,2933.0,2917.0,0.38,-0.377,0.47,0.702
510371,-7230.0,2883.0,2859.0,0.379,-0.377,0.47,0.702
510383,-7140.0,2861.0,2873.0,0.379,-0.376,0.47,0.702
510405,-7158.0,2855.0,2841.0,0.379,-0.376,0.471,0.702
510427,-7133.0,2791.0,2863.0,0.379,-0.377,0.471,0.702
510439,-7191.0,2964.0,2875.0,0.378,-0.377,0.471,0.702
510461,-7212.0,3063.0,2937.0,0.378,-0.377,0.471,0.703
510473,-7138.0,2961.0,2973.0,0.377,-0.377,0.471,0.703
510495,-7120.0,2735.0,3005.0,0.377,-0.376,0.471,0.703
510507,-7296.0,2815.0,3087.0,0.377,-0.376,0.47,0.704
510529,-7322.0,2809.0,3151.0,0.376,-0.376,0.47,0.704
510541,-7130.0,2493.0,3023.0,0.376,-0.376,0.471,0.704
510563,-7352.0,2993.0,3045.0,0.376,-0.375,0.471,0.704
510575,-7078.0,2851.0,2869.0,0.375,-0.375,0.472,0.704
510597,-6962.0,2955.0,2811.0,0.375,-0.375,0.473,0.704
510619,-6964.0,3189.0,2783.0,0.374,-0.375,0.473,0.704
510631,-7042.0,3055.0,2733.0,0.375,-0.375,0.474,0.704
510653,-7190.0,2947.0,2775.0,0.376,-0.375,0.474,0.703
510665,-7292.0,2809.0,2779.0,0.377,-0.376,0.474,0.702
510687,-7414.0,2681.0,2769.0,0.378,-0.376,0.474,0.701
510699,-7356.0,2671.0,2701.0,0.378,-0.377,0.474,0.7
510721,-7340.0,2649.0,2661.0,0.378,-0.378,0.474,0.7
510733,-7272.0,2469.0,2669.0,0.378,-0.377,0.474,0.7
510755,-7376.0,2859.0,2775.0,0.378,-0.377,0.475,0.699
510767,-7328.0,2765.0,2729.0,0.378,-0.377,0.475,0.699
510789,-7342.0,2861.0,2791.0,0.378,-0.377,0.475,0.699
510811,-7380.0,2983.0,2831.0,0.377,-0.377,0.476,0.7
510823,-7260.0,2989.0,2797.0,0.376,-0.376,0.476,0.7
510845,-7124.0,3097.0,2847.0,0.375,-0.376,0.476,0.701
510857,-7198.0,3235.0,2909.0,0.374,-0.376,0.476,0.702
510879,-7124.0,3161.0,3009.0,0.373,-0.375,0.476,0.702
510891,-7134.0,3189.0,3049.0,0.372,-0.375,0.476,0.703
510913,-7228.0,3137.0,3039.0,0.372,-0.375,0.475,0.703
510925,-7204.0,2999.0,2979.0,0.372,-0.375,0.475,0.703
510947,-7140.0,2923.0,2973.0,0.372,-0.375,0.475,0.704
510959,-7072.0,2871.0,2985.0,0.372,-0.375,0.475,0.704
510981,-7094.0,2877.0,2907.0,0.372,-0.375,0.475,0.704
511003,-7074.0,2737.0,2929.0,0.372,-0.375,0.475,0.704
511015,-7192.0,2821.0,2965.0,0.373,-0.375,0.475,0.704
511037,-7236.0,2783.0,2835.0,0.374,-0.374,0.475,0.703
511049,-7332.0,2833.0,2847.0,0.374,-0.374,0.476,0.703
511071,-7284.0,3007.0,2829.0,0.374,-0.374,0.476,0.703
511083,-7152.0,3073.0,2767.0,0.373,-0.373,0.477,0.703
511105,-7062.0,3209.0,2715.0,0.373,-0.373,0.477,0.703
511117,-7182.0,3127.0,2739.0,0.373,-0.373,0.477,0.703
511139,-7322.0,2949.0,2787.0,0.374,-0.373,0.477,0.703
511151,-7342.0,2879.0,2811.0,0.374,-0.373,0.476,0.703
511173,-7288.0,2959.0,2777.0,0.373,-0.373,0.476,0.704
511195,-6978.0,2963.0,2759.0,0.372,-0.373,0.476,0.704
511212,-6820.0,3137.0,2703.0,0.37,-0.373,0.476,0.705
511224,-6804.0,3215.0,2837.0,0.369,-0.373,0.476,0.706
511246,-7040.0,3141.0,3007.0,0.369,-0.374,0.475,0.706
511258,-7272.0,2849.0,3107.0,0.37,-0.374,0.474,0.706
511280,-7474.0,2853.0,3163.0,0.37,-0.375,0.474,0.706
511292,-7410.0,2831.0,3147.0,0.37,-0.375,0.474,0.706
511314,-7264.0,2837.0,3017.0,0.37,-0.375,0.474,0.706
511326,-7122.0,3011.0,2857.0,0.37,-0.374,0.475,0.706
511348,-7032.0,2889.0,2761.0,0.37,-0.374,0.475,0.705
511360,-7158.0,2963.0,2763.0,0.371,-0.374,0.476,0.705
511382,-7256.0,2891.0,2771.0,0.371,-0.374,0.476,0.704
511404,-7312.0,2941.0,2765.0,0.371,-0.374,0.476,0.704
511416,-7262.0,2965.0,2743.0,0.371,-0.374,0.476,0.704
511438,-7136.0,3043.0,2711.0,0.37,-0.374,0.476,0.704
511450,-7054.0,3119.0,2709.0,0.369,-0.374,0.476,0.705
511472,-7082.0,3233.0,2777.0,0.369,-0.375,0.476,0.705
511484,-7138.0,3137.0,2843.0,0.369,-0.375,0.475,0.705
511506,-7250.0,3121.0,2861.0,0.369,-0.376,0.475,0.705
511518,-7266.0,3163.0,2853.0,0.368,-0.377,0.474,0.706
511540,-7046.0,3015.0,2821.0,0.367,-0.377,0.474,0.706
511552,-7196.0,3369.0,2919.0,0.366,-0.378,0.473,0.707
511574,-9768.0,6859.0,3251.0,0.356,-0.4,0.469,0.702
511596,-10748.0,4247.0,6867.0,0.356,-0.4,0.473,0.7
511608,-9776.0,2081.0,4527.0,0.352,-0.395,0.486,0.696
511630,-8264.0,2781.0,3097.0,0.346,-0.386,0.504,0.691
511642,-6428.0,2581.0,1827.0,0.339,-0.376,0.522,0.686
511664,-5704.0,3145.0,1225.0,0.332,-0.369,0.538,0.681
511676,-6660.0,3287.0,1687.0,0.323,-0.369,0.549,0.677
511698,-7802.0,3565.0,2581.0,0.313,-0.369,0.561,0.672
511710,-8372.0,3609.0,2997.0,0.3,-0.369,0.574,0.666
511732,-7658.0,3947.0,2691.0,0.288,-0.364,0.591,0.66
511744,-6660.0,4295.0,1849.0,0.278,-0.355,0.61,0.652
511766,-6220.0,4573.0,1131.0,0.269,-0.345,0.63,0.642
511788,-6104.0,4367.0,499.0,0.26,-0.335,0.651,0.63
511800,-6002.0,4393.0,221.0,0.25,-0.326,0.67,0.618
511822,-5930.0,4669.0,215.0,0.241,-0.317,0.689,0.606
511834,-6062.0,4889.0,429.0,0.23,-0.308,0.708,0.593
511856,-6160.0,5331.0,275.0,0.22,-0.296,0.729,0.577
511868,-5456.0,4495.0,-463.0,0.208,-0.284,0.752,0.557
511890,-5062.0,4909.0,-975.0,0.197,-0.27,0.775,0.536
511902,-4714.0,4627.0,-1721.0,0.186,-0.255,0.799,0.513
511924,-4770.0,4525.0,-2161.0,0.173,-0.24,0.821,0.488
511946,-4668.0,4439.0,-2427.0,0.157,-0.225,0.843,0.462
511958,-4144.0,4241.0,-2723.0,0.138,-0.207,0.865,0.435
511980,-3536.0,3951.0,-3103.0,0.118,-0.188,0.887,0.404
511992,-2858.0,3299.0,-3623.0,0.098,-0.165,0.909,0.37
512014,-1968.0,2899.0,-4497.0,0.078,-0.138,0.931,0.33
512026,-1034.0,2189.0,-5603.0,0.061,-0.108,0.95,0.286
512048,-84.0,1785.0,-6907.0,0.043,-0.079,0.967,0.239
512060,828.0,1777.0,-8163.0,0.026,-0.052,0.979,0.194
512082,1602.0,1811.0,-9297.0,0.011,-0.028,0.988,0.154
512094,2104.0,1443.0,-9933.0,0.003,0.007,-0.993,-0.118
512116,2630.0,1235.0,-10699.0,0.014,-0.009,-0.996,-0.087
512128,2858.0,1031.0,-11377.0,0.022,-0.02,-0.998,-0.061
512150,2950.0,795.0,-11915.0,0.027,-0.027,-0.998,-0.041
512172,2778.0,729.0,-12309.0,0.03,-0.029,-0.999,-0.029
512184,2384.0,869.0,-12465.0,0.033,-0.028,-0.999,-0.025
512206,1542.0,1023.0,-11525.0,0.035,-0.023,-0.999,-0.03
512218,868.0,1331.0,-9309.0,0.037,-0.016,-0.998,-0.04
512240,318.0,1595.0,-7547.0,0.039,-0.009,-0.998,-0.052
512252,-232.0,1911.0,-6487.0,0.04,-0.002,-0.997,-0.06
512274,-758.0,1761.0,-5987.0,0.041,0.003,-0.997,-0.064
512286,-1036.0,1689.0,-6343.0,0.042,0.005,-0.997,-0.063
512308,-852.0,1727.0,-7555.0,0.041,0.004,-0.997,-0.059
512320,-134.0,1597.0,-8387.0,0.04,0.001,-0.998,-0.054
512342,622.0,1723.0,-8833.0,0.04,-0.003,-0.998,-0.051
512364,1170.0,1679.0,-8759.0,0.04,-0.006,-0.998,-0.049
512376,1262.0,1651.0,-8687.0,0.04,-0.007,-0.998,-0.048
512398,1076.0,1711.0,-8557.0,0.041,-0.006,-0.998,-0.048
512410,648.0,1521.0,-8191.0,0.042,-0.004,-0.998,-0.049
512432,328.0,1597.0,-8065.0,0.043,-0.003,-0.998,-0.05
512444,102.0,1529.0,-8089.0,0.043,-0.002,-0.998,-0.05
512466,116.0,1565.0,-8161.0,0.043,-0.002,-0.998,-0.05
512478,402.0,1627.0,-8189.0,0.042,-0.003,-0.998,-0.05
512500,652.0,1687.0,-8177.0,0.042,-0.004,-0.998,-0.05
512512,708.0,1707.0,-8069.0,0.043,-0.003,-0.998,-0.05
512534,524.0,1589.0,-8055.0,0.044,-0.003,-0.998,-0.049
512556,380.0,1611.0,-8111.0,0.044,-0.002,-0.998,-0.049
512568,376.0,1457.0,-8231.0,0.044,-0.002,-0.998,-0.048
512590,526.0,1563.0,-8505.0,0.044,-0.003,-0.998,-0.047
512602,564.0,1501.0,-8391.0,0.043,-0.003,-0.998,-0.048
512624,576.0,1585.0,-8127.0,0.044,-0.002,-0.998,-0.048
512636,430.0,1687.0,-8067.0,0.044,-0.002,-0.998,-0.048
512658,332.0,1531.0,-8113.0,0.044,-0.002,-0.998,-0.048
512670,442.0,1549.0,-8197.0,0.044,-0.002,-0.998,-0.048
512692,478.0,1589.0,-8197.0,0.044,-0.002,-0.998,-0.048
512704,466.0,1543.0,-8071.0,0.044,-0.002,-0.998,-0.048
512726,442.0,1553.0,-8061.0,0.045,-0.002,-0.998,-0.048
512748,426.0,1505.0,-8191.0,0.044,-0.002,-0.998,-0.047
512760,534.0,1535.0,-8387.0,0.044,-0.002,-0.998,-0.047
512782,764.0,1615.0,-8405.0,0.044,-0.002,-0.998,-0.046
512794,662.0,1523.0,-8217.0,0.044,-0.001,-0.998,-0.047
512816,402.0,1533.0,-8253.0,0.044,-0.001,-0.998,-0.047
512828,210.0,1479.0,-8117.0,0.045,0.0,-0.998,-0.047
512850,248.0,1529.0,-8079.0,0.045,-0.0,-0.998,-0.047
512862,338.0,1549.0,-8045.0,0.045,-0.0,-0.998,-0.047
512884,510.0,1541.0,-8317.0,0.044,-0.001,-0.998,-0.047
512896,648.0,1577.0,-8323.0,0.045,-0.001,-0.998,-0.046
512918,590.0,1521.0,-8193.0,0.045,-0.001,-0.998,-0.046
512940,500.0,1521.0,-8307.0,0.045,-0.0,-0.998,-0.046
512952,334.0,1479.0,-8373.0,0.045,0.0,-0.998,-0.046
512974,292.0,1469.0,-8281.0,0.045,0.0,-0.998,-0.047
512986,392.0,1551.0,-8043.0,0.045,0.0,-0.998,-0.048
513008,558.0,1631.0,-7993.0,0.045,0.0,-0.998,-0.048
513020,576.0,1529.0,-8171.0,0.045,0.0,-0.998,-0.047
513042,496.0,1539.0,-8319.0,0.045,0.001,-0.998,-0.047
513054,356.0,1451.0,-8339.0,0.045,0.001,-0.998,-0.047
513076,296.0,1489.0,-8289.0,0.045,0.001,-0.998,-0.048
513088,358.0,1531.0,-7953.0,0.045,0.0,-0.998,-0.048
513110,522.0,1545.0,-7821.0,0.045,-0.0,-0.998,-0.048
513132,648.0,1615.0,-8093.0,0.045,-0.0,-0.998,-0.047
513144,560.0,1371.0,-8473.0,0.046,-0.0,-0.998,-0.046
513166,510.0,1545.0,-8621.0,0.046,-0.0,-0.998,-0.046
513178,396.0,1487.0,-8393.0,0.046,0.0,-0.998,-0.047
513200,416.0,1567.0,-7959.0,0.046,-0.0,-0.998,-0.048
513217,510.0,1603.0,-7777.0,0.046,-0.0,-0.998,-0.048
513229,554.0,1503.0,-8079.0,0.046,-0.0,-0.998,-0.047
513251,624.0,1547.0,-8325.0,0.046,-0.0,-0.998,-0.047
513263,640.0,1497.0,-8323.0,0.046,-0.0,-0.998,-0.047
513285,630.0,1497.0,-8357.0,0.046,0.001,-0.998,-0.047
513307,376.0,1525.0,-8219.0,0.046,0.002,-0.998,-0.047
513319,90.0,1425.0,-8241.0,0.046,0.002,-0.998,-0.048
513341,252.0,1571.0,-8217.0,0.046,0.002,-0.998,-0.048
513353,546.0,1607.0,-7857.0,0.046,0.002,-0.998,-0.048
513375,716.0,1633.0,-7909.0,0.045,0.001,-0.998,-0.048
513387,628.0,1485.0,-8297.0,0.045,0.002,-0.998,-0.047
513409,446.0,1401.0,-8519.0,0.045,0.002,-0.998,-0.047
513421,464.0,1465.0,-8441.0,0.045,0.002,-0.998,-0.047
513443,534.0,1565.0,-8085.0,0.045,0.003,-0.998,-0.048
513455,496.0,1533.0,-8045.0,0.045,0.004,-0.998,-0.048
513477,268.0,1511.0,-8295.0,0.045,0.004,-0.998,-0.048
513499,276.0,1419.0,-8297.0,0.045,0.004,-0.998,-0.048
513511,436.0,1545.0,-8115.0,0.045,0.004,-0.998,-0.049
513533,568.0,1573.0,-7923.0,0.045,0.004,-0.998,-0.049
513545,548.0,1519.0,-8139.0,0.045,0.005,-0.998,-0.048
513567,400.0,1517.0,-8365.0,0.045,0.005,-0.998,-0.048
513579,332.0,1515.0,-8273.0,0.045,0.006,-0.998,-0.049
513601,418.0,1513.0,-8139.0,0.045,0.006,-0.998,-0.049
513613,420.0,1535.0,-8139.0,0.045,0.007,-0.998,-0.049
513635,334.0,1590.0,-8126.0,0.045,0.007,-0.998,-0.049
513647,265.0,1504.0,-8074.0,0.046,0.007,-0.998,-0.049
513669,287.0,1554.0,-8156.0,0.045,0.007,-0.998,-0.049
513691,529.0,1576.0,-8231.0,0.045,0.006,-0.998,-0.049
513703,623.0,1528.0,-8285.0,0.045,0.006,-0.998,-0.049
513725,457.0,1514.0,-8371.0,0.045,0.007,-0.998,-0.049
513737,391.0,1496.0,-8311.0,0.045,0.007,-0.998,-0.05
513759,343.0,1558.0,-8055.0,0.046,0.007,-0.998,-0.05
513771,309.0,1570.0,-7979.0,0.046,0.007,-0.998,-0.05
513793,453.0,1566.0,-8093.0,0.045,0.007,-0.998,-0.05
513805,519.0,1604.0,-8118.0,0.045,0.007,-0.998,-0.05
513827,493.0,1499.0,-8271.0,0.045,0.007,-0.998,-0.05
513849,520.0,1571.0,-8333.0,0.045,0.007,-0.998,-0.05
513861,580.0,1515.0,-8096.0,0.045,0.007,-0.998,-0.05
513883,573.0,1601.0,-8110.0,0.045,0.008,-0.998,-0.05
513895,409.0,1490.0,-8207.0,0.045,0.009,-0.998,-0.05
513917,285.0,1500.0,-8247.0,0.045,0.01,-0.998,-0.05
513929,207.0,1414.0,-8281.0,0.045,0.011,-0.998,-0.05
513951,161.0,1486.0,-8179.0,0.045,0.011,-0.998,-0.051
513963,289.0,1568.0,-8085.0,0.044,0.01,-0.998,-0.051
513985,425.0,1582.0,-8129.0,0.044,0.01,-0.998,-0.05
513997,579.0,1548.0,-8285.0,0.044,0.01,-0.998,-0.05
514019,589.0,1528.0,-8255.0,0.044,0.01,-0.998,-0.05
514031,471.0,1522.0,-8115.0,0.044,0.01,-0.998,-0.051
514053,371.0,1540.0,-8063.0,0.045,0.011,-0.998,-0.051
514075,255.0,1466.0,-8069.0,0.045,0.012,-0.998,-0.051
514087,135.0,1462.0,-8277.0,0.045,0.012,-0.998,-0.05
514109,291.0,1546.0,-8327.0,0.045,0.011,-0.998,-0.05
514121,547.0,1618.0,-8055.0,0.044,0.011,-0.998,-0.05
514143,603.0,1572.0,-8013.0,0.044,0.011,-0.998,-0.05
514155,455.0,1550.0,-8205.0,0.045,0.011,-0.998,-0.05
514177,315.0,1468.0,-8297.0,0.045,0.012,-0.998,-0.05
514189,165.0,1418.0,-8329.0,0.045,0.012,-0.998,-0.05
514211,129.0,1448.0,-8285.0,0.045,0.012,-0.998,-0.05
514223,399.0,1568.0,-8159.0,0.044,0.01,-0.998,-0.05
514245,669.0,1624.0,-7991.0,0.044,0.01,-0.998,-0.05
514267,659.0,1628.0,-8051.0,0.044,0.01,-0.998,-0.049
514279,365.0,1486.0,-8179.0,0.045,0.011,-0.998,-0.049
514301,219.0,1446.0,-8281.0,0.045,0.011,-0.998,-0.049
514313,71.0,1412.0,-8189.0,0.045,0.011,-0.998,-0.049
514335,227.0,1498.0,-8223.0,0.045,0.01,-0.998,-0.049
514347,461.0,1556.0,-8027.0,0.045,0.01,-0.998,-0.049
514369,607.0,1530.0,-8037.0,0.045,0.009,-0.998,-0.049
514381,541.0,1532.0,-8101.0,0.045,0.009,-0.998,-0.049
514403,411.0,1372.0,-8355.0,0.045,0.01,-0.998,-0.048
514415,259.0,1348.0,-8411.0,0.045,0.01,-0.998,-0.048
514437,223.0,1408.0,-8391.0,0.045,0.009,-0.998,-0.048
514459,435.0,1520.0,-8185.0,0.045,0.008,-0.998,-0.049
514471,585.0,1686.0,-7939.0,0.045,0.008,-0.998,-0.049
514493,577.0,1542.0,-7935.0,0.046,0.008,-0.998,-0.049
514505,481.0,1496.0,-8295.0,0.046,0.008,-0.998,-0.048
514527,351.0,1426.0,-8357.0,0.046,0.009,-0.998,-0.048
514539,293.0,1376.0,-8295.0,0.046,0.009,-0.998,-0.048
514561,353.0,1454.0,-8225.0,0.046,0.009,-0.998,-0.048
514573,535.0,1498.0,-8057.0,0.046,0.008,-0.998,-0.048
514595,563.0,1526.0,-8163.0,0.046,0.008,-0.998,-0.048
514607,525.0,1552.0,-8219.0,0.047,0.008,-0.998,-0.048
514629,525.0,1478.0,-8167.0,0.047,0.009,-0.998,-0.048
514651,395.0,1430.0,-8157.0,0.047,0.009,-0.998,-0.048
514663,325.0,1434.0,-8189.0,0.047,0.01,-0.998,-0.048
514685,365.0,1444.0,-8107.0,0.047,0.01,-0.998,-0.048
514697,389.0,1480.0,-8175.0,0.047,0.01,-0.998,-0.048
514719,289.0,1448.0,-8251.0,0.047,0.01,-0.998,-0.048
514731,331.0,1392.0,-8215.0,0.047,0.01,-0.998,-0.048
514753,487.0,1454.0,-8075.0,0.047,0.009,-0.998,-0.048
514765,647.0,1528.0,-8095.0,0.047,0.009,-0.998,-0.047
514787,583.0,1446.0,-8185.0,0.047,0.009,-0.998,-0.047
514799,431.0,1358.0,-8343.0,0.047,0.01,-0.998,-0.047
514821,333.0,1350.0,-8301.0,0.047,0.01,-0.998,-0.047
514843,333.0,1438.0,-8179.0,0.048,0.01,-0.998,-0.047
514855,331.0,1426.0,-8077.0,0.048,0.011,-0.998,-0.047
514877,271.0,1422.0,-8195.0,0.048,0.01,-0.998,-0.047
514889,389.0,1438.0,-8219.0,0.047,0.01,-0.998,-0.047
514911,469.0,1424.0,-8235.0,0.047,0.01,-0.998,-0.047
514923,485.0,1428.0,-8209.0,0.047,0.009,-0.998,-0.047
514945,465.0,1482.0,-8283.0,0.047,0.009,-0.998,-0.047
514957,443.0,1456.0,-8187.0,0.047,0.009,-0.998,-0.047
514979,453.0,1478.0,-8051.0,0.048,0.009,-0.998,-0.047
514991,287.0,1380.0,-8121.0,0.048,0.009,-0.998,-0.046
515013,285.0,1448.0,-8311.0,0.048,0.009,-0.998,-0.046
515035,435.0,1374.0,-8245.0,0.048,0.009,-0.998,-0.046
515047,505.0,1446.0,-8243.0,0.048,0.008,-0.998,-0.045
515069,449.0,1422.0,-8141.0,0.048,0.008,-0.998,-0.045
515081,465.0,1420.0,-8075.0,0.048,0.007,-0.998,-0.045
515103,409.0,1432.0,-8055.0,0.048,0.007,-0.998,-0.045
515115,513.0,1384.0,-8187.0,0.048,0.007,-0.998,-0.044
515137,611.0,1376.0,-8313.0,0.048,0.007,-0.998,-0.044
515149,523.0,1388.0,-8361.0,0.048,0.007,-0.998,-0.043
515171,221.0,1244.0,-8451.0,0.048,0.007,-0.998,-0.043
515183,77.0,1344.0,-8481.0,0.048,0.007,-0.998,-0.043
515205,239.0,1382.0,-8265.0,0.048,0.006,-0.998,-0.044
515222,637.0,1414.0,-7955.0,0.047,0.005,-0.998,-0.044
515244,801.0,1426.0,-8013.0,0.047,0.004,-0.998,-0.043
515256,677.0,1422.0,-8139.0,0.047,0.005,-0.998,-0.043
515278,403.0,1330.0,-8139.0,0.048,0.005,-0.998,-0.043
515290,225.0,1254.0,-8215.0,0.048,0.006,-0.998,-0.043
515312,195.0,1278.0,-8357.0,0.048,0.006,-0.998,-0.043
515324,303.0,1278.0,-8417.0,0.048,0.006,-0.998,-0.043
515346,377.0,1374.0,-8161.0,0.047,0.005,-0.998,-0.043
515358,439.0,1388.0,-7969.0,0.047,0.005,-0.998,-0.043
515380,527.0,1394.0,-8091.0,0.047,0.004,-0.998,-0.043
515402,479.0,1280.0,-8479.0,0.046,0.004,-0.998,-0.042
515414,511.0,1308.0,-8503.0,0.046,0.004,-0.998,-0.042
515436,543.0,1336.0,-8323.0,0.046,0.004,-0.998,-0.043
515448,513.0,1394.0,-8083.0,0.046,0.004,-0.998,-0.044
515470,273.0,1390.0,-8113.0,0.046,0.005,-0.998,-0.045
515482,85.0,1344.0,-8219.0,0.046,0.005,-0.998,-0.045
515504,225.0,1344.0,-8197.0,0.046,0.004,-0.998,-0.045
515516,525.0,1340.0,-8261.0,0.045,0.003,-0.998,-0.045
515538,617.0,1352.0,-8607.0,0.044,0.003,-0.998,-0.045
515550,461.0,1426.0,-8573.0,0.044,0.003,-0.998,-0.046
515572,417.0,1458.0,-7953.0,0.045,0.003,-0.998,-0.048
515594,163.0,1328.0,-7775.0,0.045,0.004,-0.998,-0.049
515606,99.0,1124.0,-8537.0,0.043,0.003,-0.998,-0.048
515628,227.0,1236.0,-9075.0,0.041,0.002,-0.998,-0.047
515640,131.0,1292.0,-9207.0,0.04,0.001,-0.998,-0.049
515662,-129.0,822.0,-9235.0,0.038,-0.0,-0.998,-0.051
515674,-499.0,1048.0,-9433.0,0.035,-0.002,-0.998,-0.055
515696,-671.0,1482.0,-8871.0,0.034,-0.006,-0.998,-0.062
515708,-461.0,1518.0,-7447.0,0.031,-0.011,-0.997,-0.069
515730,79.0,1326.0,-6423.0,0.03,-0.017,-0.997,-0.075
515742,-19.0,2080.0,-8407.0,0.031,-0.021,-0.996,-0.077
515764,-311.0,1740.0,-8445.0,0.03,-0.026,-0.996,-0.08
515786,-569.0,1558.0,-8601.0,0.03,-0.031,-0.996,-0.084
515798,-747.0,1740.0,-8603.0,0.03,-0.038,-0.995,-0.087
515820,-355.0,2268.0,-7225.0,0.023,-0.047,-0.995,-0.09
515832,131.0,1642.0,-6811.0,0.017,-0.058,-0.994,-0.091
515854,411.0,1354.0,-8581.0,0.012,-0.065,-0.994,-0.091
515866,403.0,1712.0,-8913.0,0.006,-0.072,-0.993,-0.09
515888,597.0,1894.0,-8515.0,0.008,0.078,0.993,0.09
515900,1029.0,1972.0,-7955.0,0.029,0.081,0.992,0.088
515922,731.0,3500.0,-9969.0,0.051,0.081,0.992,0.087
515934,-245.0,8324.0,-7385.0,0.08,0.083,0.99,0.082
515956,-1363.0,2374.0,-2343.0,0.092,0.078,0.99,0.071
515978,-3619.0,694.0,-6427.0,0.099,0.072,0.991,0.055
515990,-5117.0,1302.0,-7389.0,0.107,0.073,0.991,0.039
516012,-5019.0,568.0,-8421.0,0.116,0.084,0.989,0.027
516024,-4075.0,446.0,-9487.0,0.123,0.099,0.987,0.018
516046,-2587.0,704.0,-8697.0,0.131,0.116,0.984,0.012
516058,-1179.0,822.0,-8943.0,0.136,0.132,0.982,0.009
516080,-235.0,1024.0,-8777.0,0.14,0.144,0.98,0.008
516092,125.0,970.0,-9011.0,0.142,0.151,0.978,0.008
516114,-13.0,1320.0,-8801.0,0.141,0.151,0.978,0.012
516126,-805.0,1392.0,-7789.0,0.137,0.146,0.98,0.018
516148,-1779.0,1462.0,-7149.0,0.136,0.139,0.981,0.022
516170,-2931.0,1502.0,-7545.0,0.135,0.131,0.982,0.024
516182,-3557.0,1558.0,-7379.0,0.134,0.125,0.983,0.026
516204,-4037.0,1294.0,-7699.0,0.134,0.12,0.983,0.026
516216,-4217.0,1212.0,-7849.0,0.133,0.118,0.984,0.027
516238,-3857.0,1202.0,-7563.0,0.134,0.12,0.983,0.028
516250,-2927.0,1356.0,-7219.0,0.136,0.123,0.983,0.029
516272,-2253.0,1560.0,-7277.0,0.138,0.127,0.982,0.028
516284,-1981.0,1548.0,-7779.0,0.139,0.129,0.982,0.027
516306,-2119.0,1550.0,-8355.0,0.139,0.13,0.981,0.026
516318,-2309.0,1484.0,-8343.0,0.138,0.129,0.982,0.027
516340,-2587.0,1452.0,-8077.0,0.138,0.128,0.982,0.029
516362,-2663.0,1566.0,-7395.0,0.137,0.127,0.982,0.031
516374,-2755.0,1550.0,-7087.0,0.138,0.127,0.982,0.032
516396,-2673.0,1514.0,-6959.0,0.138,0.127,0.982,0.031
516408,-2861.0,1472.0,-7587.0,0.139,0.127,0.982,0.031
516430,-2895.0,1378.0,-7875.0,0.139,0.127,0.982,0.031
516442,-2689.0,1404.0,-7439.0,0.139,0.127,0.982,0.031
516464,-3027.0,1670.0,-7721.0,0.138,0.125,0.982,0.031
516476,-3525.0,1520.0,-8063.0,0.137,0.124,0.982,0.032
516498,-3593.0,1580.0,-7777.0,0.136,0.123,0.982,0.033
516510,-3429.0,1826.0,-7253.0,0.135,0.123,0.982,0.034
516532,-3213.0,1722.0,-7183.0,0.135,0.125,0.982,0.033
516554,-2935.0,1680.0,-7387.0,0.136,0.128,0.982,0.031
516566,-2453.0,1730.0,-7731.0,0.137,0.131,0.981,0.03
516588,-2021.0,1564.0,-7863.0,0.137,0.134,0.981,0.028
516600,-1789.0,1524.0,-8015.0,0.137,0.136,0.981,0.027
516622,-1857.0,1414.0,-8079.0,0.137,0.136,0.981,0.027
516634,-2249.0,1234.0,-8151.0,0.136,0.135,0.981,0.027
516656,-2445.0,1192.0,-7973.0,0.136,0.134,0.981,0.028
516668,-2491.0,1272.0,-7751.0,0.137,0.133,0.981,0.029
516690,-2419.0,1218.0,-7877.0,0.137,0.133,0.981,0.03
516702,-2475.0,1328.0,-7947.0,0.137,0.132,0.981,0.031
516724,-2603.0,1302.0,-7989.0,0.137,0.13,0.981,0.032
516746,-2889.0,1466.0,-7789.0,0.137,0.129,0.982,0.034
516758,-3183.0,1636.0,-7621.0,0.136,0.127,0.982,0.035
516780,-3303.0,1664.0,-7617.0,0.136,0.126,0.982,0.035
516792,-3221.0,1724.0,-7785.0,0.137,0.127,0.982,0.036
516814,-2977.0,1900.0,-7549.0,0.137,0.128,0.982,0.036
516826,-2583.0,1962.0,-7235.0,0.138,0.13,0.981,0.037
516848,-2331.0,1918.0,-7109.0,0.139,0.131,0.981,0.037
516860,-2377.0,1656.0,-7425.0,0.139,0.131,0.981,0.035
516882,-2577.0,1474.0,-7709.0,0.139,0.131,0.981,0.034
516894,-2749.0,1282.0,-8025.0,0.139,0.131,0.981,0.034
516916,-2809.0,1286.0,-8163.0,0.139,0.131,0.981,0.034
516938,-2565.0,1466.0,-7935.0,0.139,0.131,0.981,0.035
516950,-2515.0,1570.0,-7687.0,0.139,0.13,0.981,0.036
516972,-2545.0,1610.0,-7633.0,0.14,0.13,0.981,0.036
516984,-2753.0,1502.0,-7779.0,0.139,0.129,0.981,0.037
517006,-3037.0,1614.0,-7871.0,0.139,0.128,0.981,0.038
517018,-3225.0,1662.0,-7839.0,0.139,0.127,0.981,0.039
517040,-3281.0,1708.0,-7641.0,0.139,0.127,0.981,0.039
517052,-2951.0,1672.0,-7385.0,0.139,0.128,0.981,0.039
517074,-2665.0,1758.0,-7271.0,0.14,0.13,0.981,0.039
517086,-2251.0,1720.0,-7327.0,0.141,0.131,0.981,0.038
517108,-2093.0,1644.0,-7699.0,0.141,0.132,0.98,0.036
