timeMs,ax,ay,az,q0,q1,q2,q3
548971,-4076.0,465.0,6902.0,0.616,-0.081,0.134,0.772
548993,-3792.0,379.0,4570.0,0.613,-0.086,0.168,0.768
549005,-3712.0,603.0,2884.0,0.611,-0.084,0.195,0.762
549027,-3680.0,1185.0,1710.0,0.612,-0.079,0.215,0.757
549039,-3760.0,1497.0,202.0,0.612,-0.074,0.229,0.753
549061,-3760.0,1597.0,-62.0,0.612,-0.075,0.23,0.753
549073,-3336.0,1469.0,582.0,0.608,-0.082,0.222,0.758
549095,-2542.0,1839.0,2450.0,0.599,-0.096,0.208,0.767
549117,-1680.0,875.0,4602.0,0.588,-0.115,0.19,0.778
549129,-1168.0,387.0,6624.0,0.575,-0.139,0.168,0.788
549151,-770.0,227.0,8466.0,0.563,-0.164,0.145,0.797
549163,-38.0,473.0,10062.0,0.552,-0.185,0.122,0.804
549185,624.0,395.0,11528.0,0.546,-0.202,0.101,0.807
549197,554.0,-157.0,12270.0,0.547,-0.215,0.081,0.805
549219,-664.0,-1341.0,12966.0,0.557,-0.225,0.061,0.797
549231,-2414.0,-1813.0,13228.0,0.573,-0.233,0.043,0.785
549253,-4314.0,-2313.0,12720.0,0.591,-0.24,0.031,0.769
549280,-6016.0,-2461.0,11838.0,0.608,-0.245,0.024,0.755
549292,-7036.0,-1701.0,10586.0,0.62,-0.244,0.024,0.745
549304,-6682.0,-1223.0,8954.0,0.625,-0.239,0.033,0.742
549326,-4624.0,-987.0,6516.0,0.624,-0.233,0.046,0.744
549338,-3040.0,-655.0,5490.0,0.622,-0.226,0.056,0.747
549360,-1930.0,-827.0,5400.0,0.621,-0.221,0.061,0.75
549372,-1248.0,-795.0,5696.0,0.623,-0.216,0.061,0.75
549394,-1494.0,-1149.0,5272.0,0.628,-0.215,0.056,0.745
549406,-2874.0,-1183.0,6068.0,0.637,-0.218,0.049,0.738
549428,-3972.0,-1403.0,6840.0,0.646,-0.225,0.044,0.728
549440,-4666.0,-2207.0,7350.0,0.653,-0.229,0.041,0.721
549462,-4516.0,-2767.0,7492.0,0.658,-0.234,0.04,0.714
549474,-3574.0,-3123.0,6710.0,0.661,-0.238,0.039,0.71
549496,-4130.0,-4755.0,8692.0,0.664,-0.246,0.032,0.705
549518,-4922.0,-2831.0,10316.0,0.665,-0.256,0.028,0.7
549530,-4852.0,-2383.0,9938.0,0.666,-0.258,0.031,0.699
549552,-4840.0,-2833.0,8452.0,0.668,-0.252,0.034,0.699
549564,-5674.0,-3047.0,7404.0,0.671,-0.247,0.036,0.698
549586,-6682.0,-3839.0,7908.0,0.673,-0.245,0.036,0.697
549598,-7664.0,-3481.0,8196.0,0.672,-0.245,0.037,0.698
549620,-7840.0,-2575.0,8084.0,0.664,-0.243,0.041,0.706
549632,-5324.0,-1857.0,7160.0,0.649,-0.239,0.053,0.72
549654,-2502.0,-1457.0,6454.0,0.63,-0.234,0.066,0.738
549666,-404.0,-1013.0,6200.0,0.611,-0.229,0.078,0.754
549688,986.0,-189.0,6234.0,0.597,-0.226,0.086,0.765
549710,1346.0,501.0,6378.0,0.591,-0.224,0.091,0.769
549722,20.0,639.0,6520.0,0.594,-0.223,0.091,0.768
549744,-2096.0,609.0,6712.0,0.602,-0.223,0.089,0.762
549756,-3942.0,45.0,6696.0,0.611,-0.223,0.087,0.755
549778,-5196.0,-163.0,6520.0,0.619,-0.222,0.085,0.748
549790,-5966.0,-505.0,6134.0,0.624,-0.221,0.084,0.745
549812,-5948.0,-769.0,5694.0,0.625,-0.22,0.082,0.745
549824,-5270.0,-1233.0,5818.0,0.622,-0.221,0.08,0.747
549846,-4288.0,-1231.0,6556.0,0.616,-0.224,0.077,0.751
549858,-3492.0,-1039.0,7086.0,0.61,-0.225,0.074,0.756
549880,-2752.0,-1107.0,7016.0,0.606,-0.224,0.071,0.76
549902,-2542.0,-1479.0,6886.0,0.604,-0.222,0.066,0.762
549914,-2754.0,-1479.0,6728.0,0.604,-0.22,0.06,0.764
549936,-2496.0,-1983.0,6214.0,0.603,-0.218,0.055,0.766
549948,-2032.0,-2953.0,5998.0,0.601,-0.218,0.049,0.767
549970,-1270.0,-2873.0,6020.0,0.597,-0.222,0.043,0.77
549982,124.0,-3093.0,6150.0,0.591,-0.226,0.039,0.773
550004,1176.0,-3177.0,6414.0,0.59,-0.233,0.031,0.772
550016,-190.0,-3759.0,8256.0,0.598,-0.241,0.018,0.764
550038,-2558.0,-4459.0,9768.0,0.611,-0.247,0.003,0.752
550050,-4770.0,-4699.0,11042.0,0.627,-0.251,-0.01,0.737
550072,-7000.0,-7059.0,11188.0,0.645,-0.251,-0.021,0.721
550094,-8996.0,-7237.0,11058.0,0.659,-0.252,-0.028,0.708
550106,-10120.0,-6047.0,10554.0,0.662,-0.251,-0.026,0.705
550128,-8284.0,-3817.0,8362.0,0.655,-0.25,-0.011,0.713
550140,-5248.0,-2779.0,6624.0,0.64,-0.245,0.009,0.728
550162,-2418.0,-1907.0,5746.0,0.62,-0.235,0.029,0.748
550174,-174.0,-1095.0,4856.0,0.6,-0.224,0.049,0.766
550196,1448.0,-289.0,4312.0,0.583,-0.215,0.066,0.781
550208,2520.0,-77.0,3858.0,0.573,-0.207,0.076,0.79
550230,2664.0,-303.0,3948.0,0.573,-0.205,0.077,0.79
550242,494.0,-1387.0,5680.0,0.582,-0.21,0.068,0.783
550264,-1950.0,-2441.0,7552.0,0.597,-0.223,0.053,0.769
550286,-4624.0,-3357.0,9414.0,0.613,-0.24,0.039,0.752
550298,-6866.0,-3951.0,10530.0,0.626,-0.254,0.031,0.736
550320,-8062.0,-3837.0,10820.0,0.633,-0.262,0.032,0.728
550332,-7052.0,-3563.0,9714.0,0.632,-0.263,0.043,0.728
550354,-4296.0,-2821.0,8052.0,0.626,-0.262,0.059,0.732
550366,-2364.0,-1933.0,7414.0,0.62,-0.26,0.077,0.737
550388,-1312.0,-1011.0,6704.0,0.617,-0.258,0.094,0.738
550400,-1242.0,-157.0,6162.0,0.619,-0.257,0.108,0.734
550422,-2562.0,35.0,5894.0,0.626,-0.257,0.119,0.726
550434,-4376.0,49.0,5884.0,0.636,-0.258,0.129,0.716
550456,-5664.0,247.0,5734.0,0.645,-0.258,0.138,0.706
550478,-6402.0,187.0,5370.0,0.653,-0.258,0.147,0.697
550490,-6490.0,209.0,4850.0,0.657,-0.257,0.156,0.691
550512,-5692.0,145.0,4186.0,0.658,-0.257,0.163,0.689
550524,-4528.0,173.0,4186.0,0.658,-0.26,0.167,0.687
550546,-4056.0,-181.0,4856.0,0.657,-0.264,0.167,0.686
550558,-4114.0,-583.0,5988.0,0.659,-0.268,0.163,0.684
550580,-4618.0,-1287.0,6834.0,0.661,-0.271,0.158,0.681
550592,-5116.0,-1711.0,7564.0,0.664,-0.275,0.155,0.678
550614,-5634.0,-1907.0,7764.0,0.668,-0.276,0.152,0.674
550636,-5962.0,-1967.0,7676.0,0.67,-0.277,0.153,0.672
550648,-5500.0,-2009.0,6788.0,0.672,-0.275,0.155,0.67
550670,-4908.0,-1711.0,6014.0,0.673,-0.275,0.157,0.669
550682,-4582.0,-1521.0,5872.0,0.673,-0.276,0.159,0.668
550704,-4810.0,-1283.0,6366.0,0.673,-0.278,0.16,0.666
550716,-5194.0,-1311.0,6736.0,0.674,-0.28,0.162,0.664
550738,-5708.0,-1433.0,6852.0,0.676,-0.28,0.163,0.662
550750,-5870.0,-1345.0,6610.0,0.676,-0.28,0.165,0.661
550772,-5150.0,-1007.0,6086.0,0.675,-0.28,0.169,0.661
550784,-4222.0,-899.0,5692.0,0.674,-0.28,0.173,0.661
550806,-3896.0,-805.0,5688.0,0.674,-0.282,0.174,0.66
550818,-4670.0,-967.0,6090.0,0.676,-0.283,0.174,0.658
550840,-5622.0,-1317.0,6504.0,0.678,-0.285,0.173,0.655
550862,-5958.0,-1315.0,6592.0,0.679,-0.286,0.174,0.653
550874,-5534.0,-1241.0,6094.0,0.679,-0.286,0.175,0.653
550896,-4802.0,-1129.0,5506.0,0.68,-0.286,0.176,0.652
550908,-4746.0,-1267.0,5876.0,0.68,-0.288,0.175,0.651
550930,-5076.0,-1407.0,6496.0,0.681,-0.289,0.174,0.65
550942,-5194.0,-1339.0,6482.0,0.682,-0.29,0.173,0.648
550964,-4998.0,-1305.0,5964.0,0.684,-0.29,0.173,0.647
550976,-4842.0,-1429.0,5854.0,0.684,-0.292,0.173,0.645
550998,-4654.0,-1337.0,5948.0,0.685,-0.294,0.172,0.644
551010,-4844.0,-1507.0,6058.0,0.687,-0.296,0.171,0.642
551032,-5270.0,-1601.0,6284.0,0.688,-0.299,0.169,0.639
551054,-5448.0,-1863.0,6370.0,0.69,-0.3,0.167,0.637
551066,-5668.0,-1807.0,6236.0,0.692,-0.301,0.165,0.635
551088,-5606.0,-1603.0,5760.0,0.693,-0.301,0.163,0.634
551100,-5506.0,-1637.0,5626.0,0.694,-0.302,0.161,0.634
551122,-5798.0,-1911.0,6260.0,0.695,-0.303,0.158,0.633
551134,-5850.0,-1971.0,6782.0,0.695,-0.303,0.156,0.633
551156,-5224.0,-1777.0,6634.0,0.695,-0.303,0.156,0.633
551168,-4210.0,-1651.0,6248.0,0.694,-0.303,0.156,0.634
551190,-3568.0,-1427.0,6082.0,0.695,-0.303,0.156,0.634
551202,-3660.0,-945.0,5924.0,0.697,-0.301,0.154,0.632
551224,-3580.0,-877.0,5340.0,0.701,-0.299,0.152,0.629
551246,-3448.0,-963.0,4880.0,0.705,-0.298,0.151,0.626
551258,-2610.0,-705.0,3504.0,0.709,-0.297,0.148,0.623
551285,-3952.0,-4821.0,5924.0,0.717,-0.308,0.133,0.612
551297,-6872.0,-3709.0,8580.0,0.724,-0.323,0.119,0.598
551309,-8282.0,-3743.0,9464.0,0.729,-0.329,0.111,0.59
551331,-8684.0,-4503.0,9240.0,0.732,-0.327,0.108,0.588
551343,-8666.0,-4733.0,8490.0,0.732,-0.322,0.112,0.59
551365,-6674.0,-4737.0,6796.0,0.729,-0.314,0.119,0.597
551377,-5542.0,-4669.0,6486.0,0.723,-0.309,0.124,0.605
551399,-5022.0,-3349.0,6802.0,0.717,-0.308,0.132,0.612
551421,-4130.0,-2203.0,6958.0,0.709,-0.306,0.142,0.619
551433,-3210.0,-1767.0,7040.0,0.702,-0.302,0.153,0.626
551455,-2826.0,-1669.0,6802.0,0.698,-0.297,0.163,0.631
551467,-3236.0,-1393.0,6796.0,0.696,-0.293,0.172,0.633
551489,-4176.0,-1443.0,6744.0,0.695,-0.287,0.18,0.634
551501,-5028.0,-1423.0,6356.0,0.695,-0.282,0.188,0.634
551523,-5832.0,-1163.0,5836.0,0.695,-0.277,0.197,0.633
551535,-6318.0,-1079.0,5576.0,0.693,-0.272,0.206,0.635
551557,-6038.0,-755.0,5688.0,0.688,-0.268,0.216,0.639
551569,-4844.0,-335.0,6168.0,0.682,-0.263,0.225,0.644
551591,-4196.0,-547.0,6882.0,0.678,-0.258,0.234,0.647
551613,-5096.0,-565.0,7446.0,0.675,-0.254,0.243,0.649
551625,-6412.0,-893.0,7724.0,0.672,-0.249,0.254,0.649
551647,-6746.0,-483.0,7240.0,0.667,-0.244,0.269,0.65
551659,-5832.0,137.0,6116.0,0.661,-0.235,0.285,0.653
551681,-4932.0,673.0,5462.0,0.657,-0.227,0.298,0.655
551693,-4958.0,1385.0,5622.0,0.654,-0.22,0.309,0.655
551715,-5926.0,1681.0,6062.0,0.653,-0.214,0.319,0.653
551727,-6498.0,1617.0,6256.0,0.653,-0.205,0.328,0.652
551749,-6148.0,1333.0,5798.0,0.653,-0.193,0.337,0.651
551761,-5908.0,1599.0,5046.0,0.653,-0.182,0.345,0.65
551783,-6052.0,1841.0,4804.0,0.653,-0.172,0.351,0.649
551805,-6386.0,1951.0,4716.0,0.652,-0.164,0.354,0.65
551817,-6718.0,1803.0,5314.0,0.65,-0.159,0.357,0.652
551839,-6852.0,1889.0,6106.0,0.644,-0.156,0.361,0.656
551851,-6210.0,2405.0,6622.0,0.637,-0.151,0.364,0.662
551873,-5268.0,2957.0,6572.0,0.632,-0.144,0.367,0.667
551885,-4560.0,3681.0,6344.0,0.63,-0.134,0.37,0.67
551907,-4226.0,3403.0,5974.0,0.63,-0.123,0.373,0.67
551919,-4640.0,4085.0,4920.0,0.632,-0.112,0.379,0.667
551941,-5462.0,3957.0,3260.0,0.635,-0.101,0.385,0.662
551953,-5772.0,4185.0,2336.0,0.638,-0.091,0.389,0.659
551975,-5108.0,3135.0,1358.0,0.639,-0.081,0.387,0.659
551997,-4456.0,3269.0,1810.0,0.639,-0.077,0.381,0.664
552009,-4178.0,3933.0,2426.0,0.639,-0.075,0.372,0.669
552031,-3772.0,4289.0,2452.0,0.637,-0.074,0.363,0.676
552043,-3242.0,4497.0,2072.0,0.635,-0.073,0.353,0.683
552065,-2488.0,3909.0,2002.0,0.634,-0.072,0.342,0.69
552077,-1792.0,3561.0,2118.0,0.633,-0.074,0.328,0.698
552099,-1238.0,3457.0,2418.0,0.635,-0.08,0.311,0.703
552111,-1870.0,2059.0,3694.0,0.641,-0.09,0.289,0.705
552133,-2710.0,1439.0,5352.0,0.648,-0.103,0.264,0.707
552145,-3226.0,975.0,6662.0,0.654,-0.116,0.238,0.709
552167,-3780.0,-529.0,7996.0,0.66,-0.129,0.213,0.709
552189,-3820.0,-981.0,9476.0,0.662,-0.142,0.189,0.711
552201,-3724.0,-309.0,10734.0,0.664,-0.152,0.169,0.712
552223,-3844.0,-891.0,11552.0,0.666,-0.159,0.155,0.712
552235,-3622.0,-775.0,11736.0,0.669,-0.161,0.145,0.711
552257,-3192.0,-635.0,10886.0,0.672,-0.157,0.14,0.71
552269,-2734.0,-1053.0,9566.0,0.678,-0.148,0.134,0.707
552291,-3376.0,-437.0,8802.0,0.684,-0.138,0.127,0.705
552303,-2762.0,-463.0,9962.0,0.689,-0.128,0.117,0.703
552325,-3192.0,-125.0,7974.0,0.693,-0.122,0.111,0.702
552337,-3112.0,-859.0,9800.0,0.696,-0.118,0.101,0.701
552359,-1212.0,1249.0,9866.0,0.698,-0.109,0.099,0.701
552381,2102.0,1527.0,8714.0,0.704,-0.098,0.099,0.696
552393,2042.0,1119.0,5642.0,0.721,-0.083,0.096,0.681
552415,472.0,-309.0,2978.0,0.744,-0.074,0.092,0.658
552427,-3722.0,-1507.0,998.0,0.768,-0.074,0.074,0.631
552449,-8416.0,-3085.0,3006.0,0.786,-0.087,0.048,0.61
552461,-9936.0,-2901.0,4716.0,0.789,-0.101,0.02,0.605
552483,-9044.0,-3399.0,6524.0,0.778,-0.12,-0.003,0.617
552495,-6752.0,-5721.0,5974.0,0.753,-0.15,-0.014,0.641
552517,-1910.0,-5691.0,6796.0,0.712,-0.187,-0.025,0.676
552529,13720.0,-1605.0,18982.0,0.672,-0.221,-0.037,0.706
552551,418.0,-2733.0,3934.0,0.697,-0.258,-0.018,0.669
552573,-6756.0,-5041.0,9904.0,0.716,-0.261,-0.026,0.647
552585,-8864.0,-5723.0,11642.0,0.727,-0.261,-0.019,0.635
552607,-7122.0,-5905.0,11510.0,0.73,-0.253,-0.003,0.634
552619,-5222.0,7063.0,13614.0,0.735,-0.248,0.028,0.63
552641,-7830.0,-5433.0,7748.0,0.729,-0.264,0.066,0.628
552653,-6284.0,-3523.0,458.0,0.715,-0.281,0.089,0.634
552675,-2088.0,-2155.0,2996.0,0.696,-0.298,0.088,0.647
552687,1170.0,-1673.0,14626.0,0.687,-0.309,0.08,0.653
552709,-4046.0,-2169.0,9200.0,0.691,-0.305,0.077,0.651
552721,-8304.0,-3379.0,4890.0,0.692,-0.304,0.075,0.65
552743,-7740.0,-3547.0,6210.0,0.682,-0.31,0.079,0.658
552765,-4988.0,-4047.0,8306.0,0.667,-0.316,0.086,0.67
552777,-3968.0,-4227.0,7774.0,0.651,-0.314,0.096,0.685
552799,-3624.0,-3179.0,3652.0,0.635,-0.313,0.108,0.698
552811,-3550.0,-2321.0,2900.0,0.616,-0.316,0.116,0.712
552833,-2148.0,-2763.0,4856.0,0.595,-0.321,0.118,0.728
552845,-500.0,-2333.0,5952.0,0.577,-0.321,0.112,0.742
552867,-256.0,-2101.0,7490.0,0.567,-0.316,0.104,0.753
552879,-1474.0,-2461.0,6572.0,0.563,-0.306,0.095,0.762
552901,-2714.0,-2329.0,8244.0,0.563,-0.295,0.089,0.767
552913,-3166.0,-2125.0,6350.0,0.564,-0.283,0.087,0.771
552935,-2608.0,-1913.0,7224.0,0.569,-0.261,0.082,0.776
552957,-3204.0,-2363.0,7120.0,0.577,-0.238,0.075,0.778
552969,-4486.0,-2597.0,7432.0,0.586,-0.219,0.068,0.778
552991,-5492.0,-2321.0,5628.0,0.59,-0.204,0.062,0.778
553003,-5290.0,-2295.0,7712.0,0.592,-0.192,0.059,0.781
553025,-3966.0,-1553.0,9920.0,0.59,-0.181,0.056,0.785
553037,-2924.0,-1539.0,8020.0,0.588,-0.176,0.057,0.788
553059,-2314.0,-997.0,7536.0,0.585,-0.172,0.059,0.79
553071,-1994.0,-709.0,7610.0,0.583,-0.17,0.058,0.792
553093,-1770.0,-793.0,7758.0,0.582,-0.167,0.057,0.794
553105,-1458.0,-1037.0,7374.0,0.582,-0.164,0.055,0.795
553127,-1620.0,-1011.0,6136.0,0.583,-0.166,0.055,0.793
553149,-2270.0,-1059.0,7124.0,0.584,-0.169,0.055,0.792
553161,-2424.0,-1341.0,7240.0,0.583,-0.175,0.056,0.792
553183,-1650.0,-1319.0,7142.0,0.581,-0.185,0.059,0.791
553195,-1482.0,-1021.0,6874.0,0.58,-0.199,0.062,0.788
553217,-2484.0,-1287.0,7976.0,0.581,-0.215,0.065,0.782
553229,-3786.0,-1511.0,8912.0,0.583,-0.23,0.069,0.776
553251,-3704.0,-1351.0,7870.0,0.585,-0.244,0.077,0.77
553263,-3476.0,-1375.0,7268.0,0.586,-0.259,0.086,0.763
553290,-3180.0,-1319.0,7082.0,0.588,-0.276,0.095,0.754
553302,-3362.0,-1131.0,7500.0,0.592,-0.294,0.104,0.743
553324,-3700.0,-2323.0,9076.0,0.602,-0.295,0.107,0.734
553336,-3950.0,-2813.0,7168.0,0.613,-0.296,0.113,0.724
553358,-4138.0,-1967.0,5480.0,0.623,-0.299,0.12,0.713
553370,-4732.0,-1673.0,5728.0,0.631,-0.302,0.126,0.704
553392,-4986.0,-1477.0,5952.0,0.635,-0.309,0.134,0.695
553404,-4528.0,-1453.0,6040.0,0.639,-0.311,0.141,0.69
553426,-4246.0,-1163.0,4722.0,0.641,-0.31,0.142,0.687
553438,-5642.0,-2025.0,5664.0,0.642,-0.313,0.138,0.686
553460,-6608.0,-2453.0,7066.0,0.64,-0.315,0.137,0.687
553472,-6046.0,-2487.0,6898.0,0.635,-0.316,0.137,0.692
553494,-4612.0,-1857.0,6466.0,0.629,-0.316,0.138,0.697
553516,-4000.0,-1477.0,6628.0,0.625,-0.316,0.136,0.701
553528,-5002.0,-1817.0,6514.0,0.622,-0.315,0.132,0.705
553550,-5626.0,-1931.0,6924.0,0.617,-0.314,0.129,0.71
553562,-5868.0,-2073.0,6866.0,0.612,-0.313,0.127,0.715
553584,-5646.0,-2035.0,6744.0,0.604,-0.313,0.126,0.722
553596,-4856.0,-1771.0,6982.0,0.594,-0.313,0.125,0.73
553618,-3902.0,-1317.0,7178.0,0.585,-0.311,0.124,0.739
553630,-3248.0,-1205.0,6976.0,0.578,-0.308,0.122,0.746
553652,-2856.0,-1265.0,7068.0,0.573,-0.304,0.119,0.752
553664,-2758.0,-1151.0,6928.0,0.57,-0.301,0.117,0.756
553686,-3382.0,-1093.0,6978.0,0.568,-0.297,0.114,0.759
553708,-3848.0,-1081.0,7022.0,0.567,-0.292,0.11,0.762
553720,-3878.0,-1169.0,6912.0,0.565,-0.288,0.108,0.766
553742,-4012.0,-1349.0,6900.0,0.563,-0.283,0.105,0.77
553754,-4190.0,-1589.0,6884.0,0.56,-0.278,0.102,0.774
553776,-3930.0,-1359.0,6658.0,0.557,-0.276,0.101,0.776
553788,-3872.0,-1249.0,6624.0,0.556,-0.275,0.099,0.778
553810,-4296.0,-1519.0,7056.0,0.554,-0.274,0.096,0.78
553822,-4496.0,-1675.0,7340.0,0.553,-0.271,0.092,0.782
553844,-4634.0,-1943.0,7378.0,0.552,-0.269,0.088,0.784
553856,-4420.0,-1859.0,7394.0,0.551,-0.267,0.085,0.786
553878,-4210.0,-1915.0,7150.0,0.55,-0.264,0.082,0.788
553900,-3948.0,-2053.0,7298.0,0.549,-0.263,0.079,0.79
553912,-3370.0,-1989.0,7500.0,0.548,-0.261,0.076,0.791
553934,-2698.0,-1967.0,7222.0,0.548,-0.26,0.073,0.792
553946,-2794.0,-2187.0,7018.0,0.551,-0.259,0.071,0.79
553968,-3842.0,-2333.0,7528.0,0.555,-0.258,0.068,0.788
553980,-3812.0,-1847.0,7204.0,0.557,-0.258,0.068,0.786
554002,-3304.0,-1719.0,6410.0,0.559,-0.259,0.069,0.785
554014,-3290.0,-1845.0,6474.0,0.56,-0.262,0.07,0.783
554036,-4044.0,-1907.0,7426.0,0.561,-0.265,0.07,0.781
554048,-4724.0,-1993.0,7938.0,0.562,-0.266,0.072,0.78
554070,-5000.0,-2349.0,8060.0,0.563,-0.264,0.074,0.78
554092,-4642.0,-1995.0,7518.0,0.562,-0.261,0.079,0.781
554104,-3748.0,-941.0,6912.0,0.56,-0.259,0.084,0.782
554126,-2724.0,-1.0,6700.0,0.559,-0.257,0.088,0.783
554138,-2428.0,-125.0,6766.0,0.56,-0.255,0.089,0.783
554160,-3336.0,-891.0,7390.0,0.562,-0.252,0.087,0.783
554172,-4116.0,-1397.0,7626.0,0.565,-0.247,0.086,0.783
554194,-3986.0,-1937.0,7050.0,0.565,-0.243,0.087,0.783
554206,-2586.0,-1609.0,5954.0,0.563,-0.243,0.091,0.784
554228,-1684.0,-895.0,5706.0,0.562,-0.246,0.094,0.784
554240,-1994.0,-945.0,6212.0,0.562,-0.25,0.094,0.783
554262,-3256.0,-991.0,7234.0,0.565,-0.254,0.091,0.78
554284,-4520.0,-925.0,8132.0,0.568,-0.254,0.087,0.778
554296,-5136.0,-1019.0,8172.0,0.57,-0.253,0.086,0.777
554318,-3982.0,-663.0,7312.0,0.568,-0.256,0.089,0.777
554330,-2896.0,1061.0,6094.0,0.562,-0.264,0.096,0.778
554352,-2356.0,4203.0,7332.0,0.556,-0.277,0.103,0.776
554364,-1402.0,499.0,6584.0,0.557,-0.279,0.101,0.776
554386,-1536.0,-2393.0,5724.0,0.564,-0.28,0.091,0.771
554398,-4052.0,-1577.0,8282.0,0.577,-0.28,0.075,0.763
554420,-6342.0,-4749.0,8250.0,0.588,-0.283,0.066,0.755
554432,-6872.0,-3717.0,7930.0,0.59,-0.287,0.066,0.752
554454,-4800.0,-3023.0,6482.0,0.585,-0.294,0.073,0.752
554476,-3420.0,-2661.0,6080.0,0.581,-0.302,0.076,0.752
554488,-3990.0,-2659.0,7512.0,0.58,-0.308,0.076,0.75
554510,-4708.0,-2343.0,7728.0,0.58,-0.312,0.079,0.748
554522,-4212.0,-2445.0,6536.0,0.579,-0.318,0.084,0.746
554544,-4358.0,-3019.0,6362.0,0.579,-0.325,0.086,0.743
554556,-5544.0,-3291.0,7180.0,0.581,-0.332,0.088,0.738
554578,-7010.0,-3683.0,7742.0,0.583,-0.338,0.091,0.733
554590,-9170.0,-3015.0,8242.0,0.584,-0.343,0.096,0.729
554612,-9066.0,-3849.0,7750.0,0.58,-0.346,0.106,0.73
554624,-6898.0,-3253.0,6514.0,0.574,-0.34,0.112,0.737
554646,-5532.0,-2393.0,6000.0,0.57,-0.331,0.115,0.743
554668,-5418.0,-2507.0,5494.0,0.568,-0.32,0.117,0.75
554680,-6656.0,-3061.0,5642.0,0.564,-0.311,0.119,0.756
554702,-5310.0,-1827.0,6328.0,0.558,-0.3,0.123,0.764
554714,-3918.0,-517.0,5830.0,0.548,-0.289,0.128,0.774
554736,-2106.0,119.0,5602.0,0.536,-0.281,0.134,0.785
554748,-822.0,833.0,6900.0,0.528,-0.272,0.136,0.793
554770,-1710.0,501.0,7468.0,0.523,-0.261,0.136,0.8
554782,-3058.0,-483.0,7384.0,0.519,-0.253,0.137,0.805
554804,-4048.0,-213.0,6596.0,0.514,-0.247,0.142,0.809
554816,-3542.0,-673.0,5376.0,0.511,-0.236,0.143,0.814
554838,-4726.0,-1219.0,7376.0,0.509,-0.228,0.142,0.818
554860,-4074.0,-1389.0,8362.0,0.505,-0.219,0.143,0.822
554872,-4144.0,-565.0,6806.0,0.504,-0.208,0.145,0.826
554894,-4792.0,-41.0,6596.0,0.502,-0.198,0.146,0.829
554906,-4882.0,-121.0,7120.0,0.498,-0.19,0.145,0.834
554928,-4380.0,-325.0,7040.0,0.492,-0.185,0.143,0.839
554940,-3612.0,-461.0,7862.0,0.487,-0.178,0.137,0.844
554962,-3448.0,-783.0,8768.0,0.486,-0.167,0.131,0.848
554974,-3862.0,-393.0,8394.0,0.489,-0.151,0.125,0.85
554996,-4408.0,-1457.0,7788.0,0.491,-0.137,0.12,0.852
555008,-3916.0,-2055.0,7206.0,0.488,-0.128,0.115,0.855
555030,-2602.0,-2259.0,7174.0,0.481,-0.121,0.112,0.861
555052,-636.0,-1649.0,8562.0,0.471,-0.112,0.108,0.868
555064,576.0,-937.0,8500.0,0.46,-0.103,0.107,0.875
555086,1704.0,143.0,9406.0,0.451,-0.095,0.11,0.88
555098,744.0,2383.0,9238.0,0.445,-0.093,0.115,0.883
555120,-1376.0,4201.0,6968.0,0.431,-0.123,0.131,0.885
555132,70.0,2971.0,2046.0,0.421,-0.135,0.14,0.886
555154,-1542.0,37.0,8014.0,0.406,-0.155,0.149,0.888
555166,-1846.0,-2551.0,21848.0,0.39,-0.145,0.162,0.895
555188,-36.0,399.0,15690.0,0.328,-0.253,0.242,0.877
555210,332.0,-3203.0,-6188.0,0.27,-0.327,0.298,0.855
555222,1874.0,-1111.0,596.0,0.231,-0.361,0.317,0.846
555244,-4274.0,1675.0,5874.0,0.196,-0.395,0.332,0.834
555256,3538.0,4303.0,7092.0,0.151,-0.44,0.344,0.816
555278,672.0,4091.0,9496.0,0.157,-0.467,0.357,0.794
555295,-9324.0,1631.0,780.0,0.147,-0.487,0.386,0.769
555307,-2236.0,5745.0,-6154.0,0.122,-0.508,0.4,0.753
555329,896.0,7941.0,-2562.0,0.131,-0.532,0.396,0.737
555341,-11446.0,-1509.0,-4954.0,0.157,-0.553,0.384,0.722
555363,-5510.0,2719.0,-3822.0,0.165,-0.558,0.383,0.717
555375,-1488.0,4843.0,-1026.0,0.196,-0.537,0.357,0.739
555397,6774.0,3317.0,-9554.0,0.219,-0.57,0.308,0.73
555419,6132.0,-4401.0,-6948.0,0.254,-0.611,0.223,0.716
555431,1968.0,-5543.0,10676.0,0.262,-0.691,0.156,0.656
555453,-8930.0,-3559.0,9510.0,0.288,-0.711,0.09,0.635
555465,-10504.0,-4827.0,5486.0,0.321,-0.733,0.051,0.597
555487,-15790.0,-7257.0,496.0,0.378,-0.731,0.027,0.567
555499,-21504.0,-8847.0,-6300.0,0.407,-0.733,0.019,0.545
555521,-23078.0,-7867.0,-7782.0,0.394,-0.741,0.025,0.543
555533,-15962.0,-3901.0,-2526.0,0.348,-0.754,0.05,0.555
555555,-2632.0,-4079.0,600.0,0.294,-0.76,0.081,0.574
555577,1866.0,-183.0,2338.0,0.261,-0.758,0.093,0.59
555589,-1188.0,-209.0,-48.0,0.243,-0.768,0.087,0.586
555611,-6480.0,-4279.0,7012.0,0.234,-0.787,0.077,0.565
555623,-11582.0,-3683.0,4250.0,0.248,-0.776,0.072,0.575
555645,-13580.0,-4729.0,1024.0,0.261,-0.761,0.084,0.588
555657,-10698.0,-2809.0,-2346.0,0.263,-0.747,0.107,0.601
555679,-6388.0,717.0,-3070.0,0.256,-0.739,0.126,0.61
555691,-3802.0,747.0,-1840.0,0.249,-0.738,0.134,0.613
555713,-6482.0,-747.0,166.0,0.247,-0.738,0.132,0.613
555725,-8752.0,-2203.0,2158.0,0.251,-0.735,0.13,0.617
555747,-8868.0,-2041.0,4022.0,0.26,-0.725,0.133,0.624
555759,-7058.0,-2219.0,6870.0,0.274,-0.715,0.147,0.626
555781,-3810.0,-1211.0,4320.0,0.302,-0.691,0.166,0.635
555803,-2144.0,-1229.0,-214.0,0.343,-0.659,0.177,0.646
555815,-6830.0,-2461.0,-944.0,0.386,-0.628,0.17,0.654
555837,-14736.0,-3455.0,-2408.0,0.416,-0.61,0.167,0.653
555849,-15196.0,-3645.0,1412.0,0.428,-0.591,0.172,0.662
555871,-8738.0,-1777.0,1148.0,0.431,-0.568,0.181,0.677
555883,-3180.0,-1257.0,-810.0,0.434,-0.545,0.182,0.694
555905,-3298.0,-995.0,2446.0,0.441,-0.527,0.167,0.707
555917,-7048.0,-2107.0,6760.0,0.449,-0.519,0.153,0.712
555939,-8344.0,-3345.0,6760.0,0.459,-0.507,0.145,0.715
555951,-9124.0,-4063.0,6822.0,0.468,-0.492,0.14,0.72
555973,-8276.0,-3515.0,5462.0,0.475,-0.479,0.139,0.725
555995,-4900.0,-1077.0,5826.0,0.479,-0.464,0.137,0.732
556007,-4188.0,-729.0,5748.0,0.485,-0.453,0.135,0.735
556029,-6640.0,-1937.0,6788.0,0.492,-0.443,0.132,0.738
556041,-6662.0,-2273.0,6840.0,0.496,-0.435,0.136,0.739
556063,-7364.0,-2883.0,6290.0,0.497,-0.436,0.147,0.735
556075,-6108.0,-1825.0,5388.0,0.49,-0.45,0.171,0.726
556097,-6484.0,-1421.0,5892.0,0.474,-0.478,0.206,0.71
556109,-7578.0,-659.0,4974.0,0.451,-0.508,0.245,0.692
556131,-5962.0,-207.0,3516.0,0.425,-0.535,0.281,0.674
556153,-4590.0,2457.0,2150.0,0.397,-0.563,0.311,0.655
556165,-4932.0,1553.0,1146.0,0.374,-0.589,0.332,0.635
556187,-9050.0,227.0,-1298.0,0.355,-0.614,0.34,0.617
556199,-12494.0,-951.0,-3196.0,0.331,-0.639,0.343,0.604
556221,-13580.0,-961.0,-2972.0,0.294,-0.663,0.343,0.597
556233,-10848.0,-861.0,-4804.0,0.245,-0.687,0.341,0.593
556255,-6490.0,881.0,1470.0,0.19,-0.707,0.335,0.594
556267,-3588.0,2987.0,6160.0,0.142,-0.726,0.327,0.589
556289,-1916.0,3837.0,7368.0,0.131,-0.727,0.323,0.592
556301,-3856.0,1767.0,-268.0,0.142,-0.729,0.319,0.589
556323,-8626.0,771.0,-6096.0,0.149,-0.735,0.308,0.585
556335,-11610.0,575.0,-7334.0,0.137,-0.742,0.295,0.586
556357,-8726.0,1825.0,-2072.0,0.111,-0.751,0.279,0.589
556379,-6430.0,1773.0,2894.0,0.095,-0.757,0.264,0.59
556391,-7930.0,1071.0,2234.0,0.097,-0.759,0.248,0.594
556413,-13238.0,601.0,-1732.0,0.112,-0.759,0.235,0.596
556425,-16634.0,201.0,-4440.0,0.109,-0.76,0.227,0.599
556447,-11548.0,1353.0,-1930.0,0.09,-0.764,0.229,0.597
556459,-5714.0,1353.0,-3288.0,0.075,-0.76,0.243,0.598
556481,1162.0,2101.0,3778.0,0.08,-0.742,0.253,0.616
556493,-376.0,2049.0,3936.0,0.111,-0.734,0.248,0.623
556515,-4610.0,-343.0,582.0,0.15,-0.725,0.239,0.628
556527,-4954.0,-2055.0,384.0,0.189,-0.714,0.224,0.636
556549,-7274.0,-2915.0,4064.0,0.232,-0.7,0.208,0.643
556571,-10122.0,-2771.0,1202.0,0.273,-0.679,0.196,0.652
556583,-7198.0,-2641.0,5274.0,0.309,-0.655,0.182,0.665
556605,-7488.0,-3305.0,6886.0,0.345,-0.639,0.172,0.666
556617,-8900.0,-4251.0,6620.0,0.381,-0.627,0.165,0.66
556639,-13412.0,-4961.0,2394.0,0.416,-0.613,0.166,0.651
556651,-11016.0,-3693.0,904.0,0.444,-0.586,0.171,0.656
556673,-6676.0,-2401.0,-132.0,0.463,-0.565,0.175,0.66
556685,-3514.0,-2581.0,1040.0,0.475,-0.55,0.166,0.667
556707,-7376.0,-2949.0,10036.0,0.489,-0.528,0.157,0.676
556729,-7204.0,-3389.0,-772.0,0.514,-0.496,0.157,0.682
556741,-7302.0,-2379.0,2294.0,0.522,-0.481,0.152,0.688
556763,-6998.0,-2827.0,3942.0,0.526,-0.471,0.151,0.692
556775,-6364.0,-2409.0,3816.0,0.525,-0.456,0.144,0.704
556797,-5848.0,-1275.0,7876.0,0.526,-0.436,0.134,0.718
556809,-7358.0,-1667.0,7292.0,0.528,-0.413,0.132,0.73
556831,-5704.0,-1331.0,6968.0,0.528,-0.391,0.134,0.742
556843,-5990.0,-935.0,6408.0,0.529,-0.379,0.141,0.746
556865,-8922.0,-947.0,5662.0,0.528,-0.377,0.152,0.745
556877,-10378.0,-1049.0,5938.0,0.516,-0.386,0.167,0.746
556899,-7892.0,-369.0,7086.0,0.498,-0.399,0.186,0.747
556921,-4170.0,553.0,8518.0,0.479,-0.41,0.206,0.748
556933,-2846.0,2505.0,8052.0,0.476,-0.397,0.221,0.753
556955,-8516.0,853.0,2586.0,0.472,-0.385,0.236,0.757
556967,-2818.0,1853.0,3762.0,0.467,-0.372,0.239,0.766
556989,-3620.0,1195.0,4984.0,0.469,-0.361,0.238,0.77
557001,-5472.0,571.0,4522.0,0.474,-0.346,0.235,0.774
557023,-5534.0,605.0,3600.0,0.472,-0.336,0.23,0.782
557035,-3110.0,637.0,6364.0,0.467,-0.331,0.227,0.788
557057,-3284.0,-177.0,6328.0,0.466,-0.326,0.224,0.791
557069,-1046.0,453.0,6108.0,0.465,-0.327,0.221,0.792
557091,-2636.0,-317.0,6150.0,0.466,-0.329,0.217,0.792
557103,-4474.0,167.0,5900.0,0.467,-0.326,0.214,0.794
557125,-4042.0,465.0,7464.0,0.464,-0.324,0.212,0.797
557147,-3738.0,449.0,6670.0,0.461,-0.328,0.214,0.796
557159,-4828.0,797.0,7438.0,0.46,-0.334,0.215,0.794
557181,-5528.0,805.0,7788.0,0.46,-0.335,0.214,0.794
557193,-5190.0,1055.0,7952.0,0.462,-0.33,0.212,0.795
557215,-6198.0,809.0,8406.0,0.464,-0.323,0.211,0.797
557227,-5512.0,1475.0,7710.0,0.465,-0.316,0.211,0.799
557249,-6082.0,1479.0,7744.0,0.465,-0.31,0.212,0.802
557261,-6448.0,1229.0,7400.0,0.464,-0.306,0.216,0.803
557283,-5158.0,1527.0,5922.0,0.46,-0.304,0.222,0.804
557300,-4994.0,1721.0,5570.0,0.456,-0.303,0.228,0.805
557312,-5234.0,1691.0,5206.0,0.454,-0.299,0.231,0.807
557334,-6202.0,1487.0,5636.0,0.451,-0.292,0.234,0.81
557356,-5546.0,1853.0,5966.0,0.446,-0.286,0.238,0.814
557368,-4670.0,2215.0,6262.0,0.441,-0.28,0.242,0.818
557390,-5236.0,2243.0,5834.0,0.437,-0.273,0.243,0.822
557402,-4930.0,1961.0,6576.0,0.433,-0.264,0.242,0.827
557424,-3728.0,2517.0,6434.0,0.429,-0.258,0.241,0.831
557436,-3742.0,2273.0,6408.0,0.427,-0.253,0.239,0.835
557458,-4604.0,1819.0,6538.0,0.425,-0.247,0.235,0.838
557470,-4040.0,1769.0,7410.0,0.424,-0.238,0.231,0.843
557492,-3342.0,2249.0,6864.0,0.423,-0.228,0.228,0.846
557504,-2976.0,2749.0,5854.0,0.424,-0.218,0.226,0.85
557526,-2394.0,2621.0,5206.0,0.424,-0.208,0.221,0.853
557548,-2930.0,2001.0,6666.0,0.423,-0.199,0.213,0.858
557560,-2522.0,1709.0,7460.0,0.422,-0.192,0.207,0.862
557582,-2086.0,2157.0,7286.0,0.42,-0.187,0.202,0.865
557594,-2940.0,1655.0,7666.0,0.419,-0.182,0.197,0.868
557616,-2622.0,1961.0,7544.0,0.417,-0.176,0.193,0.871
557628,2156.0,3329.0,10082.0,0.404,-0.183,0.167,0.881
557650,-3512.0,2189.0,6338.0,0.406,-0.183,0.164,0.88
557662,-3366.0,1351.0,7592.0,0.405,-0.186,0.158,0.881
557684,-3220.0,703.0,9778.0,0.406,-0.182,0.157,0.882
557696,-3768.0,1021.0,8486.0,0.406,-0.179,0.155,0.883
557718,-3878.0,1283.0,7306.0,0.406,-0.173,0.153,0.884
557740,-2602.0,1607.0,7750.0,0.405,-0.166,0.15,0.886
557752,-2824.0,1277.0,7816.0,0.406,-0.16,0.146,0.888
557774,3130.0,2375.0,5812.0,0.406,-0.156,0.143,0.889
557786,-4058.0,1085.0,9128.0,0.406,-0.162,0.147,0.887
557808,-3606.0,789.0,9174.0,0.406,-0.167,0.156,0.885
557820,-1974.0,719.0,6972.0,0.403,-0.173,0.168,0.883
557842,-622.0,1119.0,4830.0,0.407,-0.174,0.167,0.881
557854,-1666.0,1487.0,5624.0,0.413,-0.18,0.155,0.879
557876,-2684.0,1373.0,7986.0,0.419,-0.187,0.142,0.877
557888,-3194.0,1189.0,9830.0,0.425,-0.195,0.135,0.874
557910,-2580.0,1155.0,8820.0,0.43,-0.208,0.134,0.868
557932,-2220.0,1303.0,8200.0,0.437,-0.218,0.135,0.862
557944,-2312.0,2407.0,6660.0,0.444,-0.248,0.138,0.85
557966,-5144.0,-365.0,8126.0,0.449,-0.257,0.144,0.843
557978,-5406.0,-575.0,7332.0,0.45,-0.257,0.15,0.842
558000,-4582.0,737.0,6794.0,0.458,-0.242,0.148,0.842
558012,-3362.0,1829.0,6540.0,0.467,-0.222,0.143,0.844
558034,-3014.0,1151.0,5982.0,0.474,-0.21,0.135,0.844
558046,-4868.0,-233.0,6414.0,0.48,-0.197,0.13,0.845
558068,-2990.0,1269.0,6308.0,0.478,-0.192,0.133,0.847
558090,-3138.0,1495.0,8076.0,0.476,-0.18,0.136,0.85
558102,-1734.0,1111.0,8284.0,0.478,-0.151,0.137,0.854
558124,-2822.0,1073.0,7410.0,0.487,-0.121,0.136,0.854
558136,-3768.0,831.0,7830.0,0.497,-0.103,0.133,0.851
558158,-2388.0,1753.0,7406.0,0.503,-0.086,0.128,0.85
558170,-2630.0,1565.0,7960.0,0.505,-0.078,0.128,0.85
558192,-1520.0,1343.0,7656.0,0.504,-0.07,0.132,0.851
558204,-270.0,1931.0,8018.0,0.504,-0.059,0.135,0.851
558226,-434.0,1823.0,7926.0,0.507,-0.039,0.134,0.85
558238,-1440.0,1417.0,8670.0,0.512,-0.02,0.13,0.849
558260,-2372.0,1045.0,6802.0,0.513,-0.005,0.127,0.849
558282,-850.0,1761.0,7622.0,0.509,0.01,0.123,0.852
558294,1184.0,2467.0,7542.0,0.504,0.031,0.117,0.855
558316,1032.0,2671.0,7686.0,0.5,0.05,0.113,0.857
558328,966.0,2691.0,7950.0,0.497,0.067,0.111,0.858
558350,674.0,1105.0,9044.0,0.497,0.088,0.112,0.856
558362,772.0,2219.0,7498.0,0.494,0.099,0.116,0.856
558384,-248.0,2197.0,5802.0,0.486,0.093,0.122,0.86
558396,1398.0,2761.0,5286.0,0.48,0.087,0.129,0.863
558418,2214.0,3143.0,6790.0,0.478,0.085,0.134,0.864
558430,1454.0,3257.0,7900.0,0.481,0.084,0.138,0.862
558452,400.0,2835.0,8288.0,0.484,0.086,0.143,0.859
558474,376.0,3315.0,7984.0,0.488,0.09,0.148,0.855
558486,974.0,3279.0,8494.0,0.495,0.093,0.15,0.851
558508,564.0,3833.0,8244.0,0.501,0.094,0.15,0.847
558520,14.0,4427.0,8100.0,0.505,0.096,0.149,0.845
558542,1088.0,4471.0,6994.0,0.503,0.105,0.148,0.845
558554,1482.0,4611.0,8028.0,0.501,0.116,0.145,0.845
558576,1220.0,4247.0,8808.0,0.501,0.125,0.142,0.844
558588,1386.0,3971.0,9036.0,0.501,0.129,0.14,0.844
558610,1392.0,3903.0,8452.0,0.5,0.13,0.137,0.845
558622,1504.0,3181.0,7536.0,0.497,0.129,0.134,0.847
558644,1794.0,2809.0,6716.0,0.494,0.129,0.131,0.85
558666,1448.0,2275.0,6170.0,0.491,0.132,0.128,0.851
558678,494.0,1607.0,5810.0,0.489,0.137,0.128,0.852
558700,-136.0,675.0,6120.0,0.486,0.138,0.128,0.853
558712,12.0,401.0,7186.0,0.484,0.131,0.129,0.856
558734,-114.0,1469.0,6310.0,0.482,0.124,0.132,0.857
558746,1474.0,1915.0,7098.0,0.478,0.11,0.135,0.861
558768,1298.0,2261.0,7178.0,0.472,0.096,0.137,0.866
558780,334.0,1937.0,7758.0,0.463,0.077,0.138,0.872
558802,974.0,2819.0,7298.0,0.456,0.057,0.138,0.878
558814,890.0,3365.0,7950.0,0.454,0.045,0.135,0.88
558836,648.0,2869.0,8174.0,0.456,0.036,0.133,0.879
558858,672.0,5451.0,8444.0,0.458,0.037,0.13,0.879
558870,382.0,5065.0,9328.0,0.462,0.042,0.123,0.877
558892,-794.0,2843.0,9536.0,0.462,0.043,0.117,0.878
558904,2110.0,3421.0,7886.0,0.45,0.042,0.111,0.885
558926,2462.0,3569.0,7638.0,0.447,0.053,0.101,0.887
558938,1394.0,2325.0,7970.0,0.449,0.064,0.092,0.886
558960,1622.0,1927.0,7320.0,0.453,0.07,0.082,0.885
558972,1002.0,2123.0,8410.0,0.459,0.078,0.068,0.883
558994,926.0,1701.0,10068.0,0.462,0.08,0.055,0.881
559016,1484.0,1315.0,8712.0,0.464,0.081,0.046,0.881
559028,1378.0,2083.0,7446.0,0.465,0.082,0.041,0.881
559050,1916.0,2683.0,8860.0,0.467,0.086,0.037,0.879
559062,3288.0,695.0,4802.0,0.469,0.1,0.032,0.877
559084,1062.0,985.0,9766.0,0.465,0.096,0.035,0.879
559096,2306.0,1253.0,7910.0,0.464,0.092,0.037,0.881
559118,1676.0,1293.0,8724.0,0.463,0.086,0.04,0.881
559130,1492.0,1639.0,8108.0,0.464,0.079,0.042,0.881
559152,1090.0,1741.0,8320.0,0.465,0.073,0.041,0.881
559164,1528.0,1453.0,9266.0,0.466,0.067,0.043,0.881
559186,1346.0,1631.0,8270.0,0.468,0.065,0.046,0.88
559198,1354.0,1697.0,7824.0,0.469,0.063,0.048,0.879
559220,558.0,1811.0,9188.0,0.472,0.066,0.047,0.878
559242,820.0,2167.0,7244.0,0.474,0.068,0.049,0.877
559254,940.0,2271.0,7304.0,0.474,0.068,0.051,0.876
559276,874.0,2347.0,6906.0,0.474,0.066,0.056,0.876
559288,2088.0,2287.0,4786.0,0.474,0.065,0.058,0.876
559305,1772.0,2343.0,4922.0,0.475,0.062,0.056,0.876
559327,1212.0,2265.0,6626.0,0.476,0.061,0.053,0.876
559339,594.0,1959.0,9066.0,0.476,0.06,0.05,0.876
559361,1076.0,1397.0,8892.0,0.474,0.061,0.051,0.877
559373,2022.0,1419.0,5354.0,0.474,0.064,0.049,0.877
559395,1628.0,2527.0,4414.0,0.478,0.065,0.041,0.875
559407,6.0,1829.0,7336.0,0.481,0.058,0.033,0.874
559429,674.0,439.0,11586.0,0.48,0.048,0.03,0.875
559451,3482.0,351.0,9074.0,0.479,0.043,0.034,0.876
559463,1964.0,951.0,8694.0,0.483,0.039,0.037,0.874
559485,-678.0,1655.0,9100.0,0.487,0.035,0.041,0.872
559497,-640.0,1523.0,8258.0,0.489,0.032,0.044,0.871
559519,-1230.0,1233.0,9606.0,0.493,0.031,0.042,0.869
559531,-1804.0,1995.0,9936.0,0.495,0.032,0.042,0.867
559553,-610.0,2241.0,7252.0,0.496,0.034,0.037,0.867
559565,-842.0,1601.0,8436.0,0.496,0.037,0.032,0.867
559587,1022.0,945.0,8538.0,0.495,0.041,0.026,0.868
559599,1200.0,1061.0,8260.0,0.494,0.044,0.022,0.868
559621,2020.0,1343.0,7418.0,0.492,0.047,0.02,0.869
559643,598.0,1471.0,8702.0,0.492,0.048,0.017,0.869
559655,618.0,1447.0,8422.0,0.49,0.051,0.014,0.87
559677,922.0,1567.0,8144.0,0.489,0.054,0.01,0.871
559689,472.0,1053.0,9150.0,0.485,0.057,0.006,0.873
559711,1640.0,823.0,8194.0,0.482,0.061,0.001,0.874
559723,1288.0,629.0,9234.0,0.479,0.063,-0.001,0.876
559745,2196.0,873.0,7278.0,0.476,0.066,-0.004,0.877
559757,1456.0,325.0,8198.0,0.472,0.067,-0.008,0.879
559779,2056.0,195.0,7604.0,0.469,0.066,-0.009,0.881
559791,1710.0,139.0,7310.0,0.466,0.065,-0.012,0.882
559813,1860.0,-113.0,7544.0,0.463,0.064,-0.016,0.884
559835,1846.0,-297.0,8498.0,0.461,0.064,-0.02,0.885
559847,1620.0,-365.0,8700.0,0.458,0.064,-0.024,0.886
559869,1480.0,-155.0,8476.0,0.456,0.059,-0.024,0.888
559881,844.0,19.0,6902.0,0.455,0.05,-0.023,0.889
559903,870.0,-347.0,7618.0,0.453,0.044,-0.024,0.89
559915,1612.0,-641.0,7914.0,0.452,0.038,-0.025,0.891
559937,1636.0,-861.0,8386.0,0.45,0.033,-0.026,0.892
559949,1662.0,-667.0,8458.0,0.451,0.03,-0.026,0.892
559971,500.0,-821.0,9172.0,0.452,0.027,-0.027,0.891
559983,1020.0,-641.0,8666.0,0.453,0.026,-0.026,0.891
560005,528.0,-345.0,7884.0,0.455,0.025,-0.027,0.89
560027,714.0,-449.0,8388.0,0.457,0.024,-0.027,0.889
560039,1542.0,-245.0,7680.0,0.46,0.025,-0.028,0.887
560061,-158.0,77.0,9206.0,0.463,0.025,-0.027,0.885
560073,-40.0,1167.0,7326.0,0.465,0.025,-0.025,0.884
560095,-200.0,1215.0,8036.0,0.467,0.024,-0.024,0.884
560107,342.0,1083.0,8096.0,0.467,0.024,-0.025,0.883
560129,82.0,933.0,8582.0,0.468,0.023,-0.024,0.883
560141,136.0,859.0,8330.0,0.467,0.022,-0.023,0.884
560163,376.0,797.0,7726.0,0.467,0.022,-0.023,0.884
560175,1004.0,379.0,8224.0,0.466,0.022,-0.024,0.884
560197,1172.0,-87.0,8646.0,0.466,0.021,-0.024,0.884
560219,1154.0,-311.0,8980.0,0.466,0.02,-0.021,0.885
560231,1008.0,-215.0,8482.0,0.465,0.017,-0.016,0.885
560253,1108.0,177.0,7678.0,0.465,0.014,-0.011,0.885
560265,224.0,323.0,7704.0,0.465,0.011,-0.007,0.885
560287,998.0,227.0,7566.0,0.466,0.01,-0.007,0.885
560299,712.0,61.0,8432.0,0.467,0.01,-0.009,0.884
560321,688.0,-53.0,8478.0,0.469,0.01,-0.009,0.883
560333,436.0,143.0,8036.0,0.469,0.009,-0.008,0.883
560355,104.0,345.0,7934.0,0.47,0.008,-0.008,0.882
560367,778.0,551.0,7504.0,0.471,0.008,-0.011,0.882
560389,748.0,195.0,8396.0,0.472,0.008,-0.014,0.882
560411,820.0,-171.0,8942.0,0.472,0.008,-0.016,0.881
560423,874.0,-183.0,8360.0,0.473,0.007,-0.017,0.881
560445,498.0,-9.0,8416.0,0.472,0.006,-0.015,0.882
560457,746.0,289.0,7774.0,0.472,0.005,-0.014,0.881
560479,-130.0,295.0,8162.0,0.472,0.004,-0.013,0.882
560491,94.0,115.0,8404.0,0.471,0.002,-0.013,0.882
560513,178.0,89.0,8626.0,0.47,-0.0,-0.012,0.883
560525,284.0,143.0,8256.0,0.469,-0.002,-0.011,0.883
560547,190.0,145.0,8414.0,0.467,-0.004,-0.01,0.884
560559,552.0,247.0,8022.0,0.466,-0.006,-0.008,0.885
560581,724.0,297.0,7902.0,0.465,-0.007,-0.008,0.885
560603,736.0,165.0,8010.0,0.464,-0.008,-0.008,0.886
560615,494.0,149.0,8142.0,0.463,-0.009,-0.008,0.886
560637,504.0,257.0,8090.0,0.462,-0.009,-0.009,0.887
560649,-4.0,97.0,8460.0,0.461,-0.01,-0.01,0.887
560671,-112.0,37.0,8512.0,0.461,-0.011,-0.01,0.887
560683,114.0,-51.0,8230.0,0.459,-0.012,-0.009,0.888
560705,252.0,-77.0,7856.0,0.458,-0.014,-0.009,0.889
560717,-180.0,-61.0,8368.0,0.457,-0.015,-0.009,0.889
560739,124.0,-99.0,8510.0,0.457,-0.015,-0.009,0.889
560751,46.0,-49.0,8598.0,0.456,-0.015,-0.01,0.89
560773,304.0,-25.0,8314.0,0.455,-0.015,-0.009,0.89
560795,114.0,107.0,7986.0,0.454,-0.016,-0.009,0.891
560807,268.0,121.0,7996.0,0.453,-0.016,-0.009,0.891
560829,326.0,1.0,8086.0,0.452,-0.017,-0.009,0.892
560841,494.0,173.0,8050.0,0.452,-0.017,-0.01,0.892
560863,158.0,11.0,8220.0,0.451,-0.017,-0.011,0.892
560875,78.0,-65.0,8406.0,0.45,-0.018,-0.012,0.893
560897,-126.0,-179.0,8498.0,0.449,-0.019,-0.012,0.893
560909,162.0,-155.0,8260.0,0.447,-0.02,-0.011,0.894
560931,178.0,-43.0,8148.0,0.446,-0.022,-0.011,0.895
560943,-92.0,-29.0,8478.0,0.444,-0.023,-0.01,0.895
560965,98.0,-5.0,7986.0,0.443,-0.025,-0.01,0.896
560987,248.0,-23.0,8128.0,0.442,-0.025,-0.009,0.897
560999,78.0,-37.0,8222.0,0.441,-0.026,-0.009,0.897
561021,120.0,-103.0,8344.0,0.44,-0.027,-0.009,0.898
561033,-22.0,-115.0,8172.0,0.438,-0.028,-0.008,0.898
561055,-602.0,-135.0,8534.0,0.437,-0.029,-0.008,0.899
561067,-452.0,-189.0,8392.0,0.436,-0.03,-0.008,0.899
561089,20.0,-213.0,8254.0,0.435,-0.032,-0.007,0.9
561101,46.0,-217.0,8232.0,0.435,-0.032,-0.007,0.9
561123,-110.0,-231.0,8178.0,0.434,-0.032,-0.007,0.9
561135,44.0,-181.0,8228.0,0.434,-0.032,-0.008,0.9
561157,-202.0,-179.0,8284.0,0.433,-0.031,-0.008,0.901
561179,-118.0,-79.0,8258.0,0.433,-0.031,-0.009,0.901
561191,-148.0,-91.0,8276.0,0.433,-0.031,-0.008,0.901
561213,-216.0,-61.0,8362.0,0.432,-0.032,-0.008,0.901
561225,100.0,69.0,8196.0,0.431,-0.033,-0.007,0.902
561247,-114.0,59.0,8304.0,0.43,-0.034,-0.006,0.902
561259,522.0,245.0,7672.0,0.43,-0.035,-0.006,0.902
561281,-440.0,37.0,8188.0,0.43,-0.035,-0.006,0.902
561293,-430.0,41.0,8150.0,0.429,-0.035,-0.006,0.902
561310,-218.0,-81.0,8042.0,0.428,-0.036,-0.005,0.903
561332,-620.0,-153.0,8300.0,0.427,-0.038,-0.005,0.903
561354,-456.0,-195.0,8388.0,0.426,-0.04,-0.004,0.904
561366,-418.0,-191.0,8234.0,0.424,-0.042,-0.002,0.905
561388,24.0,-297.0,8010.0,0.423,-0.045,-0.001,0.905
561400,-370.0,-289.0,8490.0,0.422,-0.046,-0.001,0.905
561422,-314.0,-163.0,8872.0,0.421,-0.047,-0.001,0.906
561434,-786.0,-465.0,8664.0,0.421,-0.047,-0.001,0.906
561456,-208.0,-225.0,8244.0,0.421,-0.047,-0.0,0.906
561468,-618.0,-79.0,8224.0,0.421,-0.049,0.001,0.906
561490,-322.0,-95.0,7910.0,0.42,-0.05,0.002,0.906
561502,-352.0,-35.0,8046.0,0.42,-0.051,0.003,0.906
561524,-416.0,-31.0,8210.0,0.42,-0.052,0.003,0.906
561546,-530.0,-3.0,8298.0,0.419,-0.053,0.003,0.906
561558,-360.0,81.0,8104.0,0.419,-0.053,0.004,0.907
561580,-654.0,31.0,8250.0,0.418,-0.053,0.004,0.907
561592,-674.0,9.0,8368.0,0.417,-0.054,0.005,0.907
561614,-376.0,53.0,8050.0,0.417,-0.056,0.005,0.907
561626,-684.0,-15.0,8142.0,0.416,-0.057,0.006,0.908
561648,-432.0,-35.0,8026.0,0.415,-0.057,0.006,0.908
561660,-752.0,-129.0,8320.0,0.415,-0.058,0.006,0.908
561682,-822.0,-177.0,8322.0,0.414,-0.058,0.006,0.908
561694,-744.0,-169.0,8304.0,0.414,-0.059,0.006,0.908
561716,-878.0,-209.0,8412.0,0.413,-0.059,0.007,0.909
561738,-624.0,-109.0,8038.0,0.412,-0.06,0.007,0.909
561750,-524.0,-131.0,7964.0,0.412,-0.061,0.008,0.909
561772,-630.0,-51.0,8130.0,0.412,-0.062,0.008,0.909
561784,-856.0,-125.0,8458.0,0.412,-0.062,0.007,0.909
561806,-786.0,-63.0,8346.0,0.412,-0.061,0.007,0.909
561818,-842.0,-113.0,8284.0,0.411,-0.062,0.008,0.909
561840,-826.0,-121.0,8236.0,0.411,-0.062,0.008,0.91
561852,-666.0,45.0,8110.0,0.41,-0.062,0.008,0.91
561874,-556.0,-65.0,8156.0,0.41,-0.062,0.009,0.91
561886,-706.0,-23.0,8104.0,0.409,-0.062,0.009,0.91
561908,-776.0,-49.0,8084.0,0.409,-0.063,0.009,0.91
561930,-746.0,-121.0,8116.0,0.408,-0.063,0.009,0.911
561942,-986.0,-109.0,8278.0,0.408,-0.064,0.009,0.911
561964,-660.0,-53.0,8138.0,0.408,-0.064,0.009,0.911
561976,-1028.0,-155.0,8416.0,0.407,-0.064,0.009,0.911
561998,-828.0,-79.0,8216.0,0.407,-0.065,0.01,0.911
562010,-614.0,-3.0,7964.0,0.406,-0.065,0.01,0.912
562032,-1022.0,-87.0,8286.0,0.406,-0.065,0.01,0.912
562044,-620.0,-33.0,8060.0,0.405,-0.066,0.01,0.912
562066,-978.0,-127.0,8314.0,0.405,-0.066,0.01,0.912
562078,-656.0,-103.0,8080.0,0.405,-0.066,0.01,0.912
562100,-990.0,-115.0,8300.0,0.404,-0.067,0.011,0.912
562122,-688.0,-47.0,8188.0,0.403,-0.068,0.011,0.913
562134,-484.0,-33.0,8142.0,0.403,-0.068,0.011,0.913
562156,-1064.0,-135.0,8424.0,0.402,-0.068,0.011,0.913
562168,-722.0,-33.0,7960.0,0.402,-0.068,0.012,0.913
562190,-1048.0,-85.0,8224.0,0.401,-0.068,0.012,0.913
562202,-842.0,19.0,8068.0,0.401,-0.069,0.012,0.914
562224,-1198.0,-135.0,8290.0,0.4,-0.069,0.012,0.914
562236,-698.0,-69.0,8118.0,0.4,-0.07,0.012,0.914
562258,-888.0,-93.0,8250.0,0.399,-0.07,0.012,0.914
562270,-810.0,-115.0,8234.0,0.399,-0.07,0.012,0.914
562292,-996.0,-113.0,8308.0,0.398,-0.07,0.012,0.914
562314,-902.0,-67.0,8182.0,0.398,-0.07,0.013,0.915
562326,-858.0,-17.0,8072.0,0.398,-0.069,0.013,0.915
562348,-932.0,-59.0,8176.0,0.397,-0.069,0.013,0.915
562360,-910.0,-179.0,8340.0,0.397,-0.068,0.013,0.915
562382,-1024.0,-91.0,8358.0,0.397,-0.067,0.013,0.915
562394,-756.0,-25.0,8026.0,0.396,-0.067,0.013,0.916
562416,-718.0,55.0,7908.0,0.396,-0.067,0.014,0.916
562428,-642.0,9.0,7866.0,0.395,-0.067,0.014,0.916
562450,-910.0,-3.0,8100.0,0.395,-0.068,0.014,0.916
562462,-1172.0,-121.0,8494.0,0.395,-0.068,0.013,0.916
562484,-1004.0,-75.0,8444.0,0.395,-0.068,0.013,0.916
562506,-1112.0,-155.0,8530.0,0.394,-0.068,0.014,0.916
562518,-730.0,7.0,8028.0,0.394,-0.068,0.014,0.917
562540,-634.0,45.0,7774.0,0.393,-0.068,0.014,0.917
562552,-972.0,-55.0,8074.0,0.393,-0.068,0.014,0.917
562574,-842.0,-73.0,8142.0,0.392,-0.069,0.014,0.917
562586,-846.0,-53.0,8320.0,0.392,-0.069,0.014,0.917
562608,-1056.0,-137.0,8538.0,0.391,-0.07,0.014,0.918
562620,-844.0,-155.0,8240.0,0.39,-0.07,0.014,0.918
562642,-886.0,-51.0,8120.0,0.39,-0.07,0.014,0.918
562654,-942.0,-93.0,8076.0,0.39,-0.069,0.014,0.918
562676,-836.0,-7.0,7984.0,0.389,-0.069,0.014,0.918
562698,-864.0,3.0,8134.0,0.389,-0.069,0.014,0.919
562710,-1086.0,-45.0,8244.0,0.388,-0.069,0.015,0.919
562732,-1228.0,-83.0,8326.0,0.388,-0.068,0.015,0.919
562744,-1110.0,-21.0,8244.0,0.387,-0.068,0.015,0.919
562766,-812.0,17.0,8142.0,0.386,-0.068,0.016,0.92
562778,-814.0,45.0,7866.0,0.386,-0.068,0.016,0.92
562800,-752.0,-41.0,7972.0,0.385,-0.068,0.016,0.92
562812,-758.0,49.0,8072.0,0.385,-0.069,0.016,0.92
562834,-920.0,-139.0,8200.0,0.384,-0.07,0.017,0.92
562846,-1086.0,-93.0,8390.0,0.384,-0.07,0.017,0.921
562868,-1044.0,-55.0,8408.0,0.383,-0.072,0.017,0.921
562890,-1058.0,-19.0,8278.0,0.382,-0.073,0.018,0.921
562902,-1102.0,1.0,8128.0,0.382,-0.073,0.019,0.921
562924,-1042.0,59.0,8030.0,0.381,-0.074,0.019,0.921
562936,-924.0,99.0,7938.0,0.381,-0.075,0.02,0.922
562958,-1086.0,89.0,8022.0,0.38,-0.076,0.02,0.922
562970,-1022.0,-3.0,8120.0,0.38,-0.077,0.02,0.922
562992,-1198.0,2.0,8291.0,0.379,-0.078,0.02,0.922
563004,-1060.0,-50.0,8087.0,0.378,-0.079,0.02,0.922
563026,-1622.0,-78.0,8627.0,0.378,-0.08,0.02,0.922
563038,-912.0,28.0,8133.0,0.377,-0.081,0.021,0.922
563060,-854.0,-16.0,7885.0,0.377,-0.081,0.021,0.922
563082,-1338.0,-166.0,8283.0,0.377,-0.081,0.021,0.923
563094,-1102.0,-90.0,8253.0,0.376,-0.081,0.021,0.923
563116,-1376.0,-128.0,8453.0,0.376,-0.081,0.021,0.923
563128,-1370.0,-96.0,8439.0,0.375,-0.08,0.023,0.923
563150,-820.0,130.0,7925.0,0.374,-0.08,0.024,0.924
563162,-1118.0,148.0,7967.0,0.373,-0.08,0.025,0.924
563184,-1166.0,44.0,7977.0,0.373,-0.08,0.025,0.924
563196,-1120.0,32.0,7913.0,0.372,-0.081,0.025,0.924
563218,-1218.0,26.0,8095.0,0.372,-0.081,0.025,0.924
563230,-1142.0,142.0,8063.0,0.372,-0.082,0.025,0.924
563252,-1398.0,16.0,8275.0,0.371,-0.082,0.026,0.925
563274,-1242.0,36.0,8287.0,0.371,-0.083,0.026,0.925
563286,-1310.0,8.0,8245.0,0.37,-0.083,0.026,0.925
563313,-1080.0,120.0,8029.0,0.37,-0.083,0.026,0.925
563325,-1372.0,-38.0,8209.0,0.37,-0.083,0.026,0.925
563337,-1116.0,98.0,7927.0,0.369,-0.083,0.027,0.925
563359,-1362.0,58.0,8059.0,0.369,-0.084,0.027,0.925
563371,-1252.0,36.0,8117.0,0.368,-0.084,0.027,0.925
563393,-1404.0,4.0,8279.0,0.368,-0.085,0.027,0.926
563405,-1306.0,120.0,8227.0,0.368,-0.085,0.027,0.926
563427,-1218.0,86.0,8131.0,0.367,-0.085,0.027,0.926
563449,-1350.0,40.0,8153.0,0.367,-0.085,0.028,0.926
563461,-1292.0,36.0,8027.0,0.367,-0.086,0.028,0.926
563483,-1374.0,32.0,8061.0,0.366,-0.086,0.028,0.926
563495,-1254.0,40.0,8061.0,0.366,-0.087,0.028,0.926
563517,-1428.0,-26.0,8281.0,0.366,-0.087,0.028,0.926
563529,-1108.0,16.0,8083.0,0.365,-0.088,0.028,0.926
563551,-1534.0,32.0,8297.0,0.365,-0.088,0.028,0.926
563563,-1334.0,30.0,8141.0,0.364,-0.089,0.029,0.927
563585,-1414.0,76.0,8061.0,0.364,-0.089,0.029,0.927
563597,-1036.0,118.0,7781.0,0.364,-0.09,0.029,0.927
563619,-1686.0,-26.0,8223.0,0.363,-0.09,0.03,0.927
563641,-1334.0,-26.0,8141.0,0.363,-0.091,0.03,0.927
563653,-1436.0,80.0,8237.0,0.363,-0.091,0.03,0.927
563675,-1504.0,8.0,8203.0,0.362,-0.092,0.03,0.927
563687,-1314.0,100.0,8029.0,0.362,-0.092,0.03,0.927
563709,-1582.0,28.0,8129.0,0.362,-0.091,0.03,0.927
563721,-1426.0,84.0,7957.0,0.362,-0.091,0.03,0.927
563743,-1378.0,64.0,7991.0,0.362,-0.092,0.03,0.927
563755,-1404.0,40.0,8023.0,0.361,-0.092,0.03,0.927
563777,-1450.0,22.0,8163.0,0.361,-0.093,0.03,0.927
563789,-1550.0,-66.0,8241.0,0.361,-0.093,0.03,0.928
563811,-1568.0,22.0,8163.0,0.36,-0.093,0.03,0.928
563833,-1504.0,50.0,8091.0,0.36,-0.093,0.031,0.928
563845,-1354.0,62.0,7917.0,0.36,-0.093,0.031,0.928
563867,-1456.0,100.0,7925.0,0.359,-0.094,0.031,0.928
563879,-1502.0,62.0,8063.0,0.359,-0.094,0.031,0.928
563901,-1524.0,54.0,8179.0,0.358,-0.095,0.031,0.928
563913,-1622.0,-34.0,8269.0,0.358,-0.096,0.032,0.928
563935,-1608.0,16.0,8229.0,0.357,-0.096,0.033,0.928
563947,-1622.0,104.0,8059.0,0.357,-0.098,0.034,0.929
563969,-1308.0,56.0,7895.0,0.356,-0.1,0.035,0.929
563981,-1344.0,96.0,7979.0,0.355,-0.101,0.035,0.929
564003,-1654.0,142.0,8053.0,0.355,-0.102,0.036,0.929
564025,-1580.0,40.0,8039.0,0.355,-0.103,0.036,0.929
564037,-1842.0,-30.0,8205.0,0.354,-0.104,0.036,0.929
564059,-1638.0,12.0,8025.0,0.354,-0.105,0.036,0.929
564071,-1826.0,30.0,8121.0,0.354,-0.106,0.037,0.929
564093,-1388.0,98.0,7931.0,0.353,-0.106,0.037,0.929
564105,-1938.0,-4.0,8109.0,0.353,-0.107,0.037,0.929
564127,-1824.0,90.0,7991.0,0.353,-0.107,0.037,0.929
564139,-1758.0,124.0,8005.0,0.353,-0.108,0.037,0.929
564161,-1934.0,-14.0,8235.0,0.352,-0.108,0.038,0.929
564173,-1706.0,30.0,8041.0,0.352,-0.109,0.038,0.929
564195,-1774.0,54.0,7977.0,0.351,-0.109,0.038,0.929
564217,-1606.0,86.0,7835.0,0.351,-0.11,0.038,0.929
564229,-1720.0,26.0,8001.0,0.351,-0.11,0.038,0.929
564251,-1824.0,70.0,8109.0,0.351,-0.11,0.038,0.929
564263,-1698.0,40.0,8077.0,0.351,-0.111,0.038,0.929
564285,-1848.0,6.0,8163.0,0.351,-0.111,0.038,0.929
564297,-1792.0,8.0,8065.0,0.35,-0.111,0.038,0.929
564319,-1652.0,88.0,7909.0,0.35,-0.111,0.038,0.929
564331,-1840.0,-10.0,8055.0,0.35,-0.111,0.038,0.929
564353,-1536.0,-10.0,8017.0,0.35,-0.111,0.038,0.929
564365,-1912.0,44.0,8113.0,0.35,-0.111,0.038,0.929
564387,-1844.0,38.0,7969.0,0.35,-0.112,0.038,0.929
564409,-1944.0,18.0,8113.0,0.349,-0.112,0.039,0.929
564421,-1814.0,106.0,7909.0,0.349,-0.113,0.039,0.93
564443,-1866.0,96.0,7875.0,0.349,-0.113,0.039,0.93
564455,-1996.0,72.0,7973.0,0.348,-0.113,0.039,0.93
564477,-1646.0,68.0,7949.0,0.348,-0.113,0.038,0.93
564489,-1976.0,-80.0,8213.0,0.348,-0.113,0.038,0.93
564511,-1798.0,-22.0,8037.0,0.348,-0.113,0.038,0.93
564523,-1950.0,-20.0,8171.0,0.348,-0.113,0.038,0.93
564545,-1844.0,20.0,8037.0,0.348,-0.113,0.038,0.93
564557,-1992.0,10.0,8077.0,0.348,-0.113,0.038,0.93
564579,-1944.0,6.0,7837.0,0.348,-0.114,0.038,0.93
564601,-1854.0,8.0,8009.0,0.347,-0.114,0.038,0.93
564613,-1988.0,-14.0,8173.0,0.347,-0.115,0.039,0.93
564635,-1860.0,-36.0,7985.0,0.346,-0.116,0.04,0.93
564647,-1894.0,84.0,8015.0,0.346,-0.118,0.041,0.93
564669,-1810.0,136.0,7797.0,0.346,-0.118,0.041,0.93
564681,-1786.0,110.0,7971.0,0.346,-0.119,0.041,0.93
564703,-1972.0,0.0,8081.0,0.346,-0.119,0.041,0.93
564715,-2016.0,0.0,8037.0,0.347,-0.119,0.041,0.93
564737,-2052.0,4.0,8019.0,0.347,-0.119,0.041,0.929
564749,-1924.0,12.0,8021.0,0.347,-0.119,0.041,0.929
564771,-1958.0,84.0,7991.0,0.347,-0.119,0.041,0.929
564793,-2052.0,80.0,7967.0,0.347,-0.119,0.041,0.93
564805,-1940.0,124.0,7791.0,0.346,-0.12,0.041,0.929
564827,-2028.0,98.0,7929.0,0.346,-0.12,0.041,0.929
564839,-2042.0,82.0,8031.0,0.347,-0.12,0.041,0.929
564861,-2176.0,-104.0,8151.0,0.347,-0.12,0.041,0.929
564873,-2036.0,-88.0,8035.0,0.347,-0.12,0.041,0.929
564895,-2058.0,30.0,7955.0,0.347,-0.12,0.041,0.929
564907,-1876.0,54.0,7801.0,0.347,-0.12,0.041,0.929
564929,-2054.0,-46.0,8047.0,0.346,-0.12,0.041,0.929
564941,-1808.0,-10.0,7981.0,0.347,-0.12,0.04,0.929
564963,-2030.0,-26.0,8085.0,0.346,-0.12,0.04,0.929
564985,-2082.0,-40.0,8141.0,0.347,-0.12,0.04,0.929
564997,-2100.0,-2.0,8077.0,0.346,-0.121,0.04,0.929
565019,-1794.0,52.0,7815.0,0.346,-0.12,0.04,0.93
565031,-2024.0,64.0,7917.0,0.346,-0.12,0.04,0.93
565053,-1968.0,12.0,7925.0,0.346,-0.12,0.04,0.93
565065,-1990.0,38.0,8003.0,0.346,-0.12,0.04,0.93
565087,-2002.0,-12.0,7991.0,0.346,-0.121,0.04,0.93
565099,-2076.0,12.0,8023.0,0.346,-0.121,0.04,0.93
565121,-2070.0,-64.0,8119.0,0.346,-0.121,0.04,0.93
565133,-2034.0,-72.0,8059.0,0.345,-0.121,0.04,0.93
565155,-2050.0,-50.0,7963.0,0.345,-0.122,0.04,0.93
565177,-1920.0,24.0,7881.0,0.345,-0.122,0.04,0.93
565189,-2096.0,40.0,7979.0,0.345,-0.122,0.04,0.93
565211,-1890.0,72.0,7951.0,0.345,-0.123,0.04,0.93
565223,-2076.0,42.0,8143.0,0.345,-0.123,0.04,0.93
565245,-2108.0,-78.0,8033.0,0.344,-0.123,0.041,0.93
565257,-1928.0,18.0,7969.0,0.344,-0.124,0.041,0.93
565279,-2094.0,12.0,8005.0,0.344,-0.124,0.041,0.93
565291,-1992.0,14.0,7895.0,0.344,-0.124,0.041,0.93
565318,-2038.0,44.0,7893.0,0.344,-0.124,0.041,0.93
565330,-2036.0,-74.0,8003.0,0.344,-0.125,0.041,0.93
565352,-2034.0,-24.0,8101.0,0.344,-0.125,0.041,0.93
565364,-2116.0,-16.0,7999.0,0.343,-0.126,0.041,0.93
565386,-2128.0,-36.0,8037.0,0.343,-0.127,0.041,0.93
565398,-1906.0,8.0,7805.0,0.343,-0.127,0.041,0.93
565420,-2138.0,-36.0,7999.0,0.343,-0.127,0.041,0.93
565432,-2170.0,-44.0,7925.0,0.343,-0.127,0.042,0.93
565454,-2044.0,42.0,7937.0,0.343,-0.128,0.042,0.93
565466,-2110.0,-66.0,8023.0,0.343,-0.129,0.042,0.93
565488,-2156.0,-20.0,7999.0,0.343,-0.129,0.042,0.93
565500,-2174.0,-72.0,7983.0,0.342,-0.129,0.042,0.93
565522,-2114.0,46.0,7899.0,0.342,-0.129,0.042,0.93
565544,-1994.0,12.0,7907.0,0.342,-0.129,0.042,0.93
565556,-2048.0,50.0,7891.0,0.342,-0.129,0.042,0.93
565578,-2372.0,-66.0,8023.0,0.342,-0.129,0.042,0.93
565590,-2290.0,-14.0,8003.0,0.342,-0.129,0.042,0.93
565612,-2218.0,-38.0,7973.0,0.342,-0.129,0.042,0.93
565624,-2096.0,-38.0,7941.0,0.342,-0.129,0.042,0.93
565646,-2156.0,-14.0,7881.0,0.342,-0.128,0.042,0.93
565658,-2072.0,-2.0,7913.0,0.342,-0.128,0.042,0.93
565680,-2024.0,-40.0,8027.0,0.342,-0.129,0.042,0.93
565692,-2072.0,10.0,7967.0,0.342,-0.129,0.042,0.93
565714,-2228.0,-56.0,8013.0,0.342,-0.129,0.042,0.93
565736,-2186.0,30.0,7833.0,0.342,-0.129,0.042,0.93
565748,-2062.0,-12.0,7909.0,0.341,-0.129,0.042,0.93
565770,-2414.0,-52.0,8011.0,0.341,-0.129,0.042,0.93
565782,-1998.0,80.0,7829.0,0.341,-0.129,0.041,0.93
565804,-2392.0,-100.0,8107.0,0.341,-0.129,0.041,0.93
565816,-2134.0,-168.0,7797.0,0.341,-0.129,0.041,0.93
565838,-2306.0,-28.0,8089.0,0.341,-0.129,0.042,0.93
565850,-2100.0,-6.0,8033.0,0.34,-0.13,0.042,0.93
565872,-1954.0,48.0,7947.0,0.34,-0.13,0.042,0.93
565884,-2312.0,-22.0,8083.0,0.34,-0.13,0.041,0.93
565906,-2190.0,-72.0,8047.0,0.34,-0.13,0.042,0.93
565928,-2196.0,-4.0,8011.0,0.34,-0.13,0.041,0.931
565940,-2264.0,-54.0,7989.0,0.339,-0.13,0.042,0.931
565962,-2096.0,30.0,7825.0,0.339,-0.13,0.042,0.931
565974,-2186.0,68.0,7887.0,0.339,-0.13,0.042,0.931
565996,-2244.0,-36.0,7915.0,0.338,-0.131,0.042,0.931
566008,-2902.0,-200.0,8423.0,0.336,-0.133,0.043,0.931
566030,-3524.0,-260.0,8729.0,0.333,-0.137,0.046,0.932
566042,-2912.0,-198.0,8317.0,0.326,-0.145,0.052,0.933
566064,-2690.0,52.0,7983.0,0.319,-0.156,0.058,0.933
566076,-2252.0,264.0,7487.0,0.313,-0.168,0.064,0.933
566098,-3182.0,96.0,7759.0,0.305,-0.189,0.073,0.93
566120,-3280.0,114.0,7419.0,0.297,-0.211,0.081,0.928
566132,-3678.0,348.0,7475.0,0.29,-0.231,0.088,0.925
566154,-4370.0,192.0,7139.0,0.281,-0.254,0.097,0.92
566166,-4004.0,618.0,6551.0,0.273,-0.275,0.103,0.916
566188,-4184.0,642.0,6235.0,0.266,-0.294,0.107,0.912
566200,-4400.0,326.0,6317.0,0.261,-0.305,0.109,0.909
566222,-4620.0,500.0,6559.0,0.257,-0.311,0.11,0.908
566234,-5012.0,232.0,6313.0,0.254,-0.316,0.111,0.907
566256,-3966.0,548.0,6433.0,0.252,-0.318,0.112,0.907
566268,-5376.0,362.0,6493.0,0.254,-0.317,0.112,0.907
566290,-5360.0,302.0,6385.0,0.253,-0.318,0.112,0.907
566312,-4552.0,474.0,6251.0,0.253,-0.318,0.113,0.907
566324,-5408.0,358.0,6201.0,0.253,-0.319,0.113,0.906
566346,-5370.0,422.0,6429.0,0.252,-0.32,0.114,0.906
566358,-4992.0,468.0,6201.0,0.251,-0.32,0.114,0.906
566380,-5536.0,392.0,6439.0,0.252,-0.321,0.114,0.906
566392,-4976.0,664.0,6401.0,0.251,-0.322,0.115,0.906
566414,-5382.0,402.0,6517.0,0.251,-0.322,0.115,0.906
566426,-5180.0,474.0,6375.0,0.251,-0.321,0.115,0.906
566448,-5248.0,382.0,6311.0,0.25,-0.321,0.115,0.906
566460,-5004.0,522.0,6501.0,0.25,-0.321,0.115,0.906
566482,-5112.0,460.0,6333.0,0.25,-0.321,0.116,0.906
566504,-5364.0,350.0,6473.0,0.249,-0.321,0.116,0.906
566516,-5094.0,482.0,6311.0,0.249,-0.321,0.116,0.906
566538,-5062.0,420.0,6223.0,0.248,-0.321,0.117,0.906
566550,-5086.0,510.0,6389.0,0.249,-0.321,0.117,0.906
566572,-5328.0,442.0,6289.0,0.249,-0.319,0.117,0.907
566584,-4860.0,548.0,6289.0,0.25,-0.318,0.116,0.907
566606,-5086.0,522.0,6363.0,0.251,-0.315,0.115,0.908
566618,-4136.0,436.0,6195.0,0.253,-0.311,0.114,0.909
566640,-4924.0,318.0,6519.0,0.258,-0.304,0.11,0.91
566652,-4740.0,288.0,6765.0,0.262,-0.296,0.106,0.912
566674,-5460.0,248.0,6951.0,0.267,-0.288,0.103,0.914
566696,-4970.0,244.0,6753.0,0.27,-0.284,0.101,0.914
566708,-4958.0,276.0,6535.0,0.272,-0.285,0.1,0.914
566730,-4614.0,354.0,6369.0,0.272,-0.293,0.1,0.911
566742,-6696.0,46.0,7175.0,0.27,-0.305,0.101,0.908
566764,-4542.0,318.0,7123.0,0.267,-0.322,0.104,0.902
566776,-4800.0,308.0,7001.0,0.266,-0.342,0.11,0.894
566798,-4118.0,426.0,6557.0,0.267,-0.363,0.116,0.885
566810,-5428.0,180.0,5625.0,0.27,-0.387,0.124,0.873
566832,-6636.0,198.0,4991.0,0.271,-0.415,0.134,0.858
566844,-8446.0,-130.0,4591.0,0.268,-0.448,0.145,0.84
566866,-10244.0,-236.0,4383.0,0.255,-0.494,0.162,0.815
566888,-7906.0,202.0,3953.0,0.233,-0.543,0.181,0.786
566900,-3420.0,902.0,3603.0,0.214,-0.583,0.196,0.759
566922,-4786.0,1386.0,4451.0,0.216,-0.605,0.205,0.738
566934,-8534.0,-14.0,-449.0,0.22,-0.622,0.211,0.721
566956,-8346.0,128.0,269.0,0.221,-0.634,0.216,0.709
566968,-7946.0,198.0,373.0,0.22,-0.644,0.219,0.699
566990,-9042.0,62.0,221.0,0.219,-0.653,0.224,0.69
567002,-9050.0,-12.0,-313.0,0.217,-0.661,0.227,0.682
567024,-8908.0,184.0,-83.0,0.214,-0.667,0.23,0.676
567036,-7996.0,344.0,1.0,0.212,-0.671,0.231,0.672
567058,-7974.0,274.0,-353.0,0.21,-0.673,0.233,0.669
567080,-7510.0,630.0,-433.0,0.208,-0.676,0.233,0.667
567092,-7992.0,448.0,-269.0,0.207,-0.679,0.233,0.664
567114,-8142.0,374.0,-49.0,0.205,-0.682,0.233,0.662
567126,-8370.0,400.0,-529.0,0.204,-0.683,0.233,0.661
567148,-8712.0,188.0,-693.0,0.203,-0.684,0.233,0.66
567160,-8336.0,396.0,-585.0,0.201,-0.685,0.233,0.66
567182,-8266.0,302.0,-603.0,0.199,-0.687,0.233,0.659
567194,-8004.0,394.0,-175.0,0.197,-0.688,0.233,0.659
567216,-7992.0,336.0,-189.0,0.196,-0.688,0.232,0.659
567228,-8276.0,320.0,-329.0,0.195,-0.689,0.232,0.659
567250,-8244.0,352.0,-349.0,0.193,-0.689,0.231,0.659
567272,-8458.0,308.0,-411.0,0.192,-0.69,0.231,0.659
567284,-8204.0,430.0,-321.0,0.19,-0.69,0.231,0.659
567306,-7966.0,516.0,-313.0,0.189,-0.691,0.231,0.658
567323,-8094.0,488.0,-631.0,0.189,-0.691,0.231,0.658
567335,-8324.0,426.0,-627.0,0.188,-0.691,0.23,0.658
567357,-8104.0,432.0,-425.0,0.187,-0.691,0.23,0.659
567369,-8312.0,518.0,-601.0,0.187,-0.692,0.23,0.658
567391,-8154.0,540.0,-543.0,0.186,-0.692,0.23,0.658
567403,-8108.0,452.0,-595.0,0.186,-0.693,0.23,0.658
567425,-8222.0,458.0,-647.0,0.185,-0.693,0.23,0.658
567437,-8124.0,462.0,-575.0,0.185,-0.693,0.23,0.658
567459,-8226.0,416.0,-615.0,0.185,-0.693,0.23,0.658
567481,-8386.0,442.0,-629.0,0.184,-0.693,0.23,0.658
567493,-8144.0,524.0,-323.0,0.184,-0.693,0.23,0.659
567515,-8142.0,536.0,-571.0,0.183,-0.693,0.23,0.659
567527,-8066.0,508.0,-377.0,0.183,-0.693,0.23,0.659
567549,-8040.0,498.0,-309.0,0.183,-0.693,0.229,0.659
567561,-8134.0,420.0,-471.0,0.183,-0.693,0.229,0.659
567583,-8326.0,362.0,-563.0,0.182,-0.693,0.228,0.659
567595,-8328.0,454.0,-557.0,0.182,-0.693,0.228,0.659
567617,-8124.0,488.0,-511.0,0.182,-0.693,0.228,0.659
567629,-8366.0,486.0,-669.0,0.181,-0.693,0.228,0.659
567651,-8112.0,440.0,-487.0,0.181,-0.693,0.228,0.659
567673,-8150.0,484.0,-733.0,0.18,-0.694,0.228,0.659
567685,-8072.0,526.0,-305.0,0.18,-0.694,0.228,0.659
567707,-8258.0,544.0,-701.0,0.18,-0.694,0.228,0.659
567719,-8184.0,530.0,-547.0,0.18,-0.694,0.228,0.659
567741,-8208.0,512.0,-581.0,0.18,-0.694,0.228,0.659
567753,-8112.0,544.0,-575.0,0.179,-0.694,0.228,0.659
567775,-8118.0,517.0,-482.0,0.179,-0.694,0.227,0.659
567787,-8187.0,433.0,-645.0,0.179,-0.694,0.227,0.659
567809,-8161.0,456.0,-521.0,0.179,-0.694,0.227,0.659
567821,-8384.0,414.0,-686.0,0.178,-0.695,0.227,0.659
567843,-8448.0,424.0,-512.0,0.179,-0.695,0.227,0.659
567865,-8126.0,476.0,-376.0,0.178,-0.695,0.227,0.659
567877,-8124.0,470.0,-678.0,0.178,-0.695,0.227,0.659
567899,-8142.0,438.0,-504.0,0.178,-0.695,0.227,0.659
567911,-8226.0,454.0,-518.0,0.178,-0.695,0.227,0.658
567933,-8210.0,532.0,-544.0,0.177,-0.696,0.227,0.658
567945,-8147.0,542.0,-474.0,0.177,-0.696,0.227,0.658
567967,-8209.0,506.0,-638.0,0.177,-0.696,0.226,0.658
567989,-8215.0,554.0,-711.0,0.176,-0.696,0.226,0.658
568001,-8163.0,558.0,-693.0,0.176,-0.697,0.227,0.657
568013,-8304.0,497.0,-689.0,0.176,-0.697,0.226,0.657
568035,-8326.0,429.0,-709.0,0.176,-0.697,0.226,0.657
568057,-8070.0,467.0,-399.0,0.175,-0.697,0.226,0.658
568069,-8088.0,541.0,-579.0,0.175,-0.697,0.226,0.658
568091,-8092.0,467.0,-435.0,0.175,-0.697,0.226,0.657
568103,-8266.0,477.0,-639.0,0.175,-0.697,0.226,0.657
568125,-8356.0,507.0,-757.0,0.174,-0.698,0.226,0.657
568137,-8098.0,597.0,-631.0,0.174,-0.698,0.226,0.657
568159,-8310.0,477.0,-743.0,0.174,-0.698,0.226,0.657
568171,-8106.0,531.0,-589.0,0.174,-0.698,0.226,0.657
568193,-8088.0,517.0,-549.0,0.173,-0.698,0.226,0.657
568205,-8056.0,541.0,-561.0,0.173,-0.698,0.226,0.657
568227,-8170.0,543.0,-717.0,0.173,-0.698,0.226,0.657
568249,-8276.0,477.0,-783.0,0.173,-0.699,0.225,0.657
568261,-8288.0,549.0,-691.0,0.172,-0.699,0.225,0.657
568283,-8182.0,561.0,-639.0,0.172,-0.699,0.225,0.657
568295,-8128.0,499.0,-755.0,0.172,-0.699,0.225,0.657
568317,-8080.0,491.0,-555.0,0.172,-0.699,0.225,0.657
568329,-8128.0,521.0,-581.0,0.172,-0.699,0.225,0.657
568351,-8118.0,597.0,-677.0,0.172,-0.699,0.225,0.657
568363,-8346.0,495.0,-593.0,0.172,-0.699,0.225,0.657
568385,-8190.0,471.0,-687.0,0.172,-0.699,0.225,0.657
568407,-8172.0,519.0,-757.0,0.172,-0.699,0.225,0.657
568419,-8156.0,569.0,-649.0,0.171,-0.699,0.225,0.657
568441,-8172.0,559.0,-649.0,0.171,-0.699,0.224,0.657
568453,-8128.0,567.0,-655.0,0.171,-0.699,0.224,0.657
568475,-8204.0,539.0,-643.0,0.171,-0.699,0.224,0.657
568487,-8288.0,475.0,-651.0,0.171,-0.699,0.224,0.657
568509,-8204.0,535.0,-623.0,0.171,-0.699,0.224,0.657
568521,-8038.0,555.0,-473.0,0.17,-0.699,0.224,0.658
568543,-8092.0,553.0,-681.0,0.17,-0.699,0.224,0.658
568555,-8084.0,587.0,-617.0,0.17,-0.699,0.224,0.658
568577,-8162.0,557.0,-607.0,0.17,-0.699,0.224,0.657
568599,-8226.0,555.0,-685.0,0.17,-0.699,0.223,0.657
568611,-8358.0,489.0,-679.0,0.17,-0.699,0.223,0.658
568633,-8190.0,487.0,-731.0,0.17,-0.699,0.223,0.658
568645,-8006.0,547.0,-559.0,0.17,-0.699,0.223,0.658
568667,-8004.0,527.0,-593.0,0.17,-0.699,0.223,0.658
568679,-8124.0,503.0,-545.0,0.169,-0.699,0.223,0.658
568701,-8398.0,449.0,-693.0,0.169,-0.7,0.223,0.658
568713,-8404.0,439.0,-711.0,0.169,-0.7,0.222,0.658
568735,-8222.0,531.0,-681.0,0.169,-0.7,0.222,0.658
568747,-8136.0,465.0,-617.0,0.169,-0.7,0.222,0.658
568769,-8028.0,535.0,-521.0,0.169,-0.7,0.222,0.658
568791,-8198.0,555.0,-725.0,0.169,-0.699,0.222,0.658
568803,-8184.0,535.0,-603.0,0.169,-0.7,0.222,0.658
568825,-8412.0,423.0,-215.0,0.169,-0.699,0.222,0.658
568837,-8316.0,579.0,-475.0,0.169,-0.7,0.222,0.658
568859,-7966.0,597.0,-825.0,0.169,-0.7,0.222,0.658
568871,-8246.0,531.0,-661.0,0.169,-0.7,0.222,0.658
568893,-8198.0,515.0,-609.0,0.169,-0.7,0.222,0.658
568905,-8126.0,517.0,-635.0,0.169,-0.7,0.222,0.658
568927,-8214.0,495.0,-611.0,0.169,-0.7,0.222,0.658
568939,-8190.0,495.0,-525.0,0.169,-0.7,0.222,0.658
568961,-8306.0,499.0,-781.0,0.169,-0.7,0.222,0.658
568983,-8102.0,559.0,-515.0,0.169,-0.7,0.222,0.658
568995,-8226.0,591.0,-817.0,0.169,-0.7,0.222,0.657
569017,-8106.0,513.0,-521.0,0.168,-0.7,0.222,0.658
569029,-8380.0,509.0,-855.0,0.169,-0.7,0.221,0.658
569051,-8222.0,525.0,-595.0,0.169,-0.7,0.221,0.658
569063,-8150.0,523.0,-671.0,0.169,-0.7,0.221,0.658
569085,-8138.0,517.0,-575.0,0.168,-0.7,0.221,0.658
569097,-7984.0,523.0,-649.0,0.168,-0.699,0.221,0.659
569119,-8148.0,553.0,-675.0,0.168,-0.699,0.221,0.659
569131,-8290.0,473.0,-585.0,0.168,-0.698,0.221,0.66
569153,-8342.0,461.0,-749.0,0.169,-0.697,0.22,0.661
569175,-8300.0,487.0,-757.0,0.169,-0.695,0.219,0.664
569187,-8246.0,551.0,-579.0,0.169,-0.693,0.217,0.667
569209,-8074.0,559.0,-391.0,0.169,-0.69,0.215,0.67
569221,-8272.0,415.0,-585.0,0.168,-0.688,0.213,0.673
569243,-8230.0,109.0,-53.0,0.165,-0.686,0.209,0.677
569255,-7318.0,925.0,1051.0,0.166,-0.683,0.207,0.681
569277,-8400.0,407.0,-519.0,0.166,-0.68,0.204,0.685
569289,-8242.0,519.0,553.0,0.166,-0.676,0.202,0.688
569311,-8004.0,545.0,125.0,0.167,-0.674,0.201,0.691
569328,-7956.0,551.0,109.0,0.168,-0.671,0.2,0.694
569340,-8156.0,479.0,303.0,0.17,-0.669,0.199,0.695
569362,-8188.0,429.0,173.0,0.172,-0.666,0.198,0.698
569384,-8386.0,325.0,87.0,0.174,-0.663,0.197,0.701
569396,-8594.0,363.0,145.0,0.175,-0.659,0.196,0.705
569418,-8340.0,409.0,581.0,0.176,-0.656,0.195,0.708
569430,-7732.0,653.0,845.0,0.177,-0.653,0.195,0.71
569452,-7948.0,539.0,617.0,0.179,-0.65,0.195,0.712
569464,-8136.0,411.0,473.0,0.181,-0.647,0.194,0.714
569486,-8354.0,367.0,463.0,0.183,-0.645,0.193,0.716
569498,-8270.0,441.0,827.0,0.183,-0.643,0.193,0.718
569520,-8590.0,307.0,653.0,0.184,-0.642,0.193,0.719
569542,-8284.0,335.0,719.0,0.184,-0.641,0.192,0.72
569554,-7976.0,425.0,855.0,0.183,-0.641,0.192,0.72
569576,-7700.0,473.0,1091.0,0.183,-0.641,0.192,0.72
569588,-8096.0,393.0,745.0,0.185,-0.641,0.192,0.72
569610,-8214.0,317.0,937.0,0.186,-0.641,0.191,0.72
569622,-8652.0,237.0,569.0,0.186,-0.641,0.191,0.72
569644,-8604.0,173.0,837.0,0.186,-0.641,0.191,0.72
569656,-8052.0,353.0,941.0,0.185,-0.642,0.192,0.719
569678,-7992.0,381.0,803.0,0.184,-0.642,0.192,0.719
569690,-7774.0,417.0,1035.0,0.185,-0.643,0.192,0.718
569712,-8008.0,369.0,737.0,0.185,-0.643,0.193,0.717
569724,-7930.0,427.0,953.0,0.185,-0.644,0.193,0.717
569746,-8398.0,311.0,603.0,0.185,-0.644,0.193,0.716
569768,-8358.0,353.0,735.0,0.185,-0.645,0.193,0.716
569780,-8336.0,317.0,509.0,0.185,-0.646,0.193,0.715
569802,-8216.0,373.0,597.0,0.185,-0.646,0.193,0.715
569814,-8172.0,337.0,601.0,0.185,-0.646,0.194,0.715
569836,-8120.0,317.0,817.0,0.185,-0.646,0.194,0.715
569848,-8186.0,275.0,669.0,0.184,-0.647,0.194,0.714
569870,-8026.0,337.0,951.0,0.184,-0.647,0.194,0.714
569882,-8234.0,293.0,663.0,0.184,-0.648,0.194,0.713
569904,-8156.0,369.0,701.0,0.184,-0.648,0.194,0.713
569916,-8420.0,323.0,435.0,0.184,-0.648,0.194,0.713
569938,-8130.0,409.0,787.0,0.183,-0.648,0.194,0.713
569960,-8186.0,355.0,611.0,0.183,-0.647,0.194,0.714
569972,-8070.0,305.0,707.0,0.183,-0.647,0.194,0.714
569994,-7834.0,377.0,959.0,0.183,-0.647,0.194,0.714
570006,-8148.0,297.0,651.0,0.184,-0.646,0.194,0.715
570028,-8430.0,285.0,589.0,0.184,-0.645,0.194,0.716
570040,-8540.0,201.0,695.0,0.185,-0.643,0.193,0.717
570062,-8228.0,367.0,771.0,0.186,-0.64,0.193,0.72
570074,-7956.0,493.0,797.0,0.186,-0.639,0.192,0.721
570096,-7946.0,441.0,713.0,0.187,-0.636,0.192,0.723
570108,-8064.0,491.0,873.0,0.187,-0.635,0.192,0.724
570130,-8172.0,437.0,1039.0,0.188,-0.635,0.192,0.725
570152,-8272.0,359.0,927.0,0.189,-0.634,0.191,0.725
570164,-8378.0,267.0,907.0,0.189,-0.632,0.191,0.726
570186,-7996.0,379.0,1185.0,0.19,-0.631,0.191,0.728
570198,-8064.0,399.0,1099.0,0.191,-0.629,0.19,0.729
570220,-8190.0,281.0,995.0,0.191,-0.627,0.19,0.731
570232,-7870.0,417.0,1245.0,0.191,-0.627,0.19,0.731
570254,-8376.0,303.0,911.0,0.191,-0.627,0.19,0.731
570266,-8024.0,355.0,1313.0,0.19,-0.627,0.19,0.731
570288,-8148.0,347.0,1057.0,0.19,-0.627,0.19,0.731
570300,-8100.0,375.0,1111.0,0.191,-0.626,0.189,0.732
570322,-8124.0,307.0,1145.0,0.192,-0.624,0.189,0.733
570344,-8170.0,343.0,1153.0,0.192,-0.623,0.189,0.734
570356,-8010.0,417.0,1309.0,0.192,-0.621,0.189,0.736
570378,-7980.0,381.0,1291.0,0.193,-0.62,0.188,0.737
570390,-8354.0,281.0,1193.0,0.193,-0.619,0.188,0.737
570412,-8388.0,245.0,1309.0,0.193,-0.618,0.188,0.738
570424,-8048.0,401.0,1305.0,0.192,-0.617,0.188,0.739
570446,-7630.0,509.0,1605.0,0.192,-0.616,0.188,0.741
570458,-8226.0,385.0,1195.0,0.192,-0.615,0.188,0.742
570480,-8058.0,445.0,1649.0,0.191,-0.613,0.188,0.743
570492,-7998.0,337.0,1529.0,0.191,-0.612,0.188,0.744
570514,-8014.0,575.0,1491.0,0.19,-0.61,0.187,0.746
570536,-8290.0,481.0,1609.0,0.189,-0.608,0.188,0.748
570548,-8188.0,521.0,1347.0,0.188,-0.607,0.188,0.749
570570,-8052.0,403.0,1323.0,0.186,-0.607,0.188,0.749
570582,-7934.0,721.0,1755.0,0.184,-0.606,0.189,0.751
570604,-8364.0,495.0,1863.0,0.182,-0.604,0.19,0.753
570616,-7778.0,635.0,1723.0,0.18,-0.602,0.191,0.754
570638,-7870.0,607.0,1947.0,0.178,-0.6,0.191,0.756
570650,-7666.0,731.0,1791.0,0.177,-0.598,0.192,0.758
570672,-8120.0,761.0,1741.0,0.177,-0.595,0.193,0.76
570684,-8418.0,537.0,1709.0,0.177,-0.592,0.193,0.762
570706,-8368.0,429.0,1825.0,0.175,-0.589,0.195,0.765
570728,-7614.0,757.0,2247.0,0.173,-0.586,0.196,0.767
570740,-7338.0,975.0,2507.0,0.173,-0.582,0.197,0.77
570762,-7860.0,939.0,2169.0,0.174,-0.58,0.198,0.771
570774,-8498.0,797.0,1737.0,0.174,-0.578,0.2,0.772
570796,-8512.0,853.0,1923.0,0.173,-0.576,0.202,0.773
570808,-8322.0,537.0,2633.0,0.171,-0.577,0.205,0.772
570830,-7772.0,1079.0,2129.0,0.169,-0.576,0.207,0.773
570842,-7954.0,1055.0,2257.0,0.167,-0.575,0.21,0.773
570864,-7544.0,1193.0,2091.0,0.165,-0.574,0.213,0.774
570876,-7886.0,1151.0,2195.0,0.164,-0.572,0.216,0.774
570898,-7988.0,1121.0,1889.0,0.162,-0.57,0.22,0.775
570920,-7666.0,1403.0,2069.0,0.159,-0.57,0.224,0.774
570932,-7722.0,1373.0,2025.0,0.157,-0.569,0.227,0.774
570954,-8094.0,1381.0,1989.0,0.154,-0.569,0.231,0.774
570966,-7320.0,1761.0,2309.0,0.152,-0.569,0.235,0.773
570988,-7590.0,1365.0,1893.0,0.15,-0.568,0.239,0.773
571000,-7806.0,1621.0,2023.0,0.148,-0.568,0.243,0.772
571022,-7864.0,1621.0,2121.0,0.147,-0.567,0.247,0.772
571034,-8326.0,1783.0,1539.0,0.146,-0.564,0.251,0.773
571056,-8332.0,1933.0,1875.0,0.145,-0.56,0.256,0.774
571068,-8318.0,1919.0,1913.0,0.143,-0.556,0.262,0.776
571090,-7616.0,2007.0,1483.0,0.139,-0.552,0.267,0.777
571112,-7440.0,2313.0,2025.0,0.136,-0.547,0.272,0.78
571124,-7014.0,2367.0,1867.0,0.132,-0.542,0.276,0.783
571146,-7724.0,2369.0,2271.0,0.129,-0.536,0.279,0.787
571158,-8136.0,2223.0,2077.0,0.124,-0.531,0.283,0.789
571180,-8008.0,2255.0,2139.0,0.116,-0.53,0.287,0.789
571192,-8168.0,2465.0,2489.0,0.104,-0.534,0.292,0.787
571214,-8078.0,2669.0,2053.0,0.09,-0.54,0.297,0.782
571226,-7972.0,2863.0,1653.0,0.074,-0.548,0.305,0.775
571248,-7236.0,2789.0,1767.0,0.057,-0.557,0.311,0.768
571260,-6866.0,3315.0,1613.0,0.04,-0.566,0.317,0.76
571282,-7020.0,3221.0,745.0,0.026,-0.573,0.322,0.753
571304,-6494.0,3471.0,917.0,0.008,-0.581,0.326,0.746
571316,-6178.0,3721.0,2045.0,0.01,0.59,-0.329,-0.737
571333,-7136.0,3559.0,1727.0,0.025,0.597,-0.334,-0.729
571355,-8578.0,3393.0,647.0,0.039,0.602,-0.342,-0.721
571367,-9212.0,3675.0,195.0,0.058,0.608,-0.351,-0.71
571389,-7660.0,4641.0,293.0,0.08,0.615,-0.36,-0.697
571401,-5990.0,5201.0,-619.0,0.1,0.62,-0.37,-0.684
571423,-5868.0,5209.0,-1109.0,0.12,0.624,-0.379,-0.673
571435,-5186.0,5613.0,-919.0,0.138,0.627,-0.387,-0.661
571457,-5232.0,5793.0,-1511.0,0.155,0.631,-0.393,-0.651
571479,-5850.0,6033.0,-577.0,0.17,0.632,-0.399,-0.642
571491,-4868.0,6305.0,-1419.0,0.185,0.633,-0.406,-0.633
571513,-4176.0,6443.0,-1289.0,0.199,0.632,-0.412,-0.626
571525,-5292.0,6207.0,-849.0,0.214,0.63,-0.418,-0.618
571547,-3108.0,6637.0,-637.0,0.229,0.628,-0.426,-0.61
571559,-2130.0,7123.0,-447.0,0.241,0.627,-0.432,-0.602
571581,-3356.0,7271.0,-1789.0,0.25,0.629,-0.436,-0.593
571593,-3684.0,7451.0,-2063.0,0.256,0.631,-0.438,-0.588
571615,-4390.0,7243.0,-1835.0,0.261,0.631,-0.439,-0.583
571627,-3742.0,7067.0,-1329.0,0.267,0.632,-0.441,-0.579
571649,-3510.0,7019.0,-1169.0,0.272,0.633,-0.442,-0.574
571671,-3412.0,6969.0,-1067.0,0.276,0.635,-0.442,-0.57
571683,-3690.0,7055.0,-1669.0,0.277,0.636,-0.444,-0.567
571705,-4790.0,6919.0,-1989.0,0.278,0.637,-0.445,-0.565
571717,-4044.0,7087.0,-1843.0,0.281,0.637,-0.446,-0.562
571739,-3654.0,7189.0,-1481.0,0.283,0.637,-0.447,-0.56
571751,-3480.0,7129.0,-1811.0,0.284,0.638,-0.448,-0.558
571773,-4260.0,6925.0,-1485.0,0.285,0.639,-0.449,-0.556
571785,-3516.0,7059.0,-1705.0,0.286,0.639,-0.45,-0.553
571807,-3122.0,7345.0,-1863.0,0.289,0.641,-0.451,-0.55
571829,-3130.0,7393.0,-2295.0,0.289,0.643,-0.451,-0.548
571841,-3730.0,7205.0,-2399.0,0.289,0.644,-0.45,-0.547
571863,-3488.0,7197.0,-1789.0,0.289,0.644,-0.45,-0.547
571875,-3382.0,7099.0,-1751.0,0.288,0.645,-0.449,-0.548
571897,-3764.0,7059.0,-1923.0,0.287,0.645,-0.448,-0.548
571909,-4078.0,7029.0,-1799.0,0.285,0.645,-0.448,-0.549
571931,-4576.0,6913.0,-1929.0,0.285,0.646,-0.448,-0.548
571943,-3542.0,7099.0,-1507.0,0.286,0.648,-0.448,-0.546
571965,-3486.0,7031.0,-1813.0,0.287,0.649,-0.448,-0.544
571977,-3608.0,7161.0,-2453.0,0.286,0.651,-0.448,-0.542
571999,-3716.0,7245.0,-2705.0,0.286,0.652,-0.448,-0.542
572011,-3354.0,7345.0,-2333.0,0.285,0.652,-0.447,-0.543
572033,-4034.0,7057.0,-2015.0,0.283,0.652,-0.445,-0.544
572055,-4136.0,6849.0,-2005.0,0.282,0.652,-0.445,-0.545
572067,-4068.0,6891.0,-1619.0,0.281,0.652,-0.445,-0.545
572089,-3440.0,7077.0,-2071.0,0.281,0.653,-0.445,-0.545
572101,-4064.0,7095.0,-2119.0,0.28,0.653,-0.444,-0.545
572123,-3806.0,7133.0,-2151.0,0.28,0.653,-0.444,-0.546
572135,-3462.0,7147.0,-1823.0,0.279,0.654,-0.444,-0.546
572157,-3614.0,7011.0,-1999.0,0.278,0.654,-0.443,-0.546
572169,-3786.0,6821.0,-1853.0,0.276,0.655,-0.442,-0.547
572191,-4216.0,6941.0,-2105.0,0.275,0.656,-0.442,-0.547
572203,-3730.0,7087.0,-1985.0,0.274,0.657,-0.441,-0.547
572225,-3920.0,7143.0,-2529.0,0.272,0.657,-0.441,-0.547
572247,-3904.0,7125.0,-2463.0,0.27,0.657,-0.44,-0.549
572259,-3818.0,7033.0,-1719.0,0.267,0.657,-0.44,-0.551
572281,-4310.0,6761.0,-2141.0,0.264,0.657,-0.439,-0.553
572293,-4076.0,6749.0,-1909.0,0.262,0.658,-0.437,-0.554
572315,-4052.0,6775.0,-1859.0,0.26,0.659,-0.435,-0.555
572327,-4264.0,6917.0,-2199.0,0.256,0.66,-0.434,-0.557
572349,-4388.0,6941.0,-2145.0,0.253,0.66,-0.433,-0.559
572361,-4608.0,6785.0,-2241.0,0.25,0.66,-0.432,-0.561
572383,-4098.0,6741.0,-1759.0,0.248,0.661,-0.431,-0.562
572395,-4018.0,6717.0,-1855.0,0.245,0.661,-0.43,-0.564
572417,-4116.0,6729.0,-1685.0,0.241,0.662,-0.429,-0.565
572439,-4910.0,6545.0,-2225.0,0.237,0.663,-0.428,-0.566
572451,-4986.0,6589.0,-2479.0,0.235,0.664,-0.428,-0.567
572473,-5218.0,6437.0,-2455.0,0.233,0.665,-0.427,-0.567
572485,-4630.0,6517.0,-1911.0,0.233,0.665,-0.427,-0.567
572507,-4466.0,6483.0,-1943.0,0.232,0.665,-0.427,-0.567
572519,-4628.0,6431.0,-1975.0,0.231,0.666,-0.426,-0.567
572541,-4574.0,6577.0,-1961.0,0.23,0.666,-0.426,-0.567
572553,-4482.0,6695.0,-2067.0,0.229,0.666,-0.426,-0.568
572575,-4524.0,6619.0,-2221.0,0.227,0.667,-0.426,-0.568
572587,-4548.0,6569.0,-2235.0,0.226,0.667,-0.425,-0.568
572609,-4422.0,6479.0,-2025.0,0.225,0.668,-0.425,-0.568
572631,-4384.0,6563.0,-2143.0,0.224,0.67,-0.424,-0.567
572643,-4626.0,6517.0,-2187.0,0.223,0.671,-0.422,-0.567
572665,-4918.0,6475.0,-2311.0,0.222,0.673,-0.421,-0.567
572677,-5026.0,6469.0,-2329.0,0.22,0.673,-0.42,-0.567
572699,-5008.0,6351.0,-2203.0,0.219,0.674,-0.42,-0.567
572711,-4942.0,6247.0,-2029.0,0.219,0.674,-0.419,-0.567
572733,-5026.0,6131.0,-1907.0,0.218,0.675,-0.418,-0.568
572745,-4968.0,6241.0,-2075.0,0.217,0.675,-0.418,-0.567
572767,-5008.0,6365.0,-2153.0,0.217,0.676,-0.418,-0.567
572779,-4936.0,6393.0,-2381.0,0.216,0.676,-0.418,-0.567
572801,-4814.0,6447.0,-2401.0,0.216,0.677,-0.418,-0.566
572823,-4734.0,6431.0,-2135.0,0.215,0.677,-0.418,-0.566
572835,-4818.0,6335.0,-2393.0,0.215,0.677,-0.418,-0.566
572857,-4528.0,6395.0,-1881.0,0.214,0.677,-0.418,-0.567
572869,-4754.0,6317.0,-2235.0,0.212,0.677,-0.418,-0.567
572891,-4880.0,6331.0,-2061.0,0.211,0.677,-0.418,-0.568
572903,-5036.0,6271.0,-2261.0,0.208,0.677,-0.418,-0.569
572925,-4892.0,6283.0,-2187.0,0.207,0.677,-0.418,-0.569
572937,-4878.0,6315.0,-2193.0,0.205,0.678,-0.418,-0.569
572959,-5056.0,6215.0,-2475.0,0.204,0.678,-0.417,-0.57
572971,-5072.0,6197.0,-2259.0,0.203,0.678,-0.417,-0.57
572993,-4920.0,6259.0,-2285.0,0.201,0.678,-0.417,-0.571
573015,-4762.0,6305.0,-2103.0,0.199,0.678,-0.417,-0.572
573027,-5256.0,6143.0,-2219.0,0.197,0.678,-0.417,-0.573
573049,-5110.0,6115.0,-2117.0,0.195,0.677,-0.417,-0.574
573061,-4934.0,6197.0,-2109.0,0.194,0.677,-0.417,-0.574
573083,-5228.0,6189.0,-2281.0,0.191,0.677,-0.417,-0.575
573095,-5202.0,6207.0,-2295.0,0.19,0.677,-0.417,-0.576
573117,-5214.0,6137.0,-2247.0,0.189,0.678,-0.417,-0.576
573129,-4750.0,6215.0,-1917.0,0.188,0.679,-0.416,-0.575
573151,-4472.0,6293.0,-1541.0,0.188,0.681,-0.415,-0.573
573163,-4366.0,5999.0,-1685.0,0.186,0.686,-0.413,-0.569
573185,-4858.0,6029.0,-2357.0,0.184,0.693,-0.41,-0.564
573207,-5194.0,5889.0,-2407.0,0.182,0.699,-0.407,-0.559
573219,-5164.0,5891.0,-2797.0,0.18,0.708,-0.404,-0.551
573241,-5344.0,5937.0,-3217.0,0.178,0.715,-0.4,-0.545
573253,-6104.0,5587.0,-3593.0,0.176,0.72,-0.397,-0.541
573275,-5940.0,5497.0,-3295.0,0.174,0.723,-0.395,-0.539
573287,-5440.0,5447.0,-2893.0,0.173,0.725,-0.395,-0.537
573309,-5170.0,5469.0,-2919.0,0.171,0.727,-0.394,-0.536
573321,-5212.0,5541.0,-3097.0,0.169,0.729,-0.393,-0.534
573338,-5786.0,5439.0,-3525.0,0.167,0.732,-0.391,-0.532
573360,-5918.0,5385.0,-3365.0,0.165,0.735,-0.389,-0.531
573382,-5476.0,5403.0,-3433.0,0.165,0.737,-0.388,-0.529
573394,-5268.0,5375.0,-3143.0,0.166,0.739,-0.387,-0.526
573416,-5300.0,5385.0,-3161.0,0.166,0.741,-0.386,-0.525
573428,-5124.0,5473.0,-3307.0,0.166,0.743,-0.384,-0.523
573450,-5334.0,5465.0,-3149.0,0.165,0.744,-0.383,-0.522
573462,-5488.0,5365.0,-3469.0,0.163,0.745,-0.383,-0.522
573484,-5322.0,5311.0,-3407.0,0.162,0.745,-0.382,-0.522
573496,-5218.0,5377.0,-3461.0,0.161,0.745,-0.382,-0.522
573518,-5362.0,5343.0,-3593.0,0.16,0.746,-0.381,-0.522
573530,-5576.0,5353.0,-3563.0,0.159,0.747,-0.38,-0.522
573552,-5588.0,5267.0,-3599.0,0.159,0.747,-0.379,-0.523
573574,-5330.0,5193.0,-3101.0,0.158,0.747,-0.378,-0.523
573586,-5398.0,5149.0,-3093.0,0.158,0.748,-0.377,-0.523
573608,-5350.0,5181.0,-3307.0,0.158,0.749,-0.376,-0.523
573620,-5326.0,5311.0,-3303.0,0.157,0.749,-0.375,-0.523
573642,-5648.0,5307.0,-3509.0,0.156,0.75,-0.373,-0.523
573654,-5952.0,5201.0,-3653.0,0.155,0.751,-0.372,-0.523
573676,-5674.0,5201.0,-3411.0,0.154,0.751,-0.371,-0.524
573688,-5522.0,5163.0,-3279.0,0.154,0.751,-0.371,-0.524
573710,-5394.0,5129.0,-3173.0,0.154,0.752,-0.37,-0.524
573722,-5398.0,5045.0,-3123.0,0.154,0.752,-0.369,-0.524
573744,-5556.0,5089.0,-3315.0,0.153,0.753,-0.368,-0.524
573766,-5816.0,5069.0,-3529.0,0.152,0.753,-0.367,-0.525
573778,-5704.0,5177.0,-3495.0,0.151,0.753,-0.366,-0.525
573800,-5508.0,5111.0,-3325.0,0.151,0.753,-0.366,-0.525
573812,-5470.0,5105.0,-3369.0,0.151,0.754,-0.365,-0.526
573834,-5472.0,5057.0,-3419.0,0.151,0.755,-0.363,-0.525
573846,-5350.0,5081.0,-3325.0,0.151,0.756,-0.361,-0.524
573868,-5738.0,5053.0,-3467.0,0.151,0.758,-0.359,-0.523
573880,-5394.0,4899.0,-3785.0,0.151,0.76,-0.356,-0.522
573902,-4488.0,5221.0,-3395.0,0.154,0.764,-0.351,-0.52
573914,-4164.0,5107.0,-3995.0,0.155,0.77,-0.342,-0.516
573936,-4488.0,4865.0,-3001.0,0.156,0.778,-0.33,-0.512
573958,-8208.0,4077.0,-2031.0,0.154,0.787,-0.318,-0.506
573970,-7236.0,4425.0,-3589.0,0.149,0.787,-0.318,-0.507
573992,-6278.0,4583.0,-4021.0,0.145,0.787,-0.318,-0.508
574004,-6518.0,4387.0,-4085.0,0.143,0.787,-0.319,-0.508
574026,-5922.0,4495.0,-4285.0,0.141,0.787,-0.319,-0.508
574038,-5956.0,4497.0,-4023.0,0.14,0.787,-0.319,-0.509
574060,-5886.0,4509.0,-3595.0,0.14,0.787,-0.318,-0.509
574072,-5938.0,4545.0,-3619.0,0.139,0.787,-0.318,-0.51
574094,-5794.0,4565.0,-3643.0,0.138,0.786,-0.318,-0.512
574106,-5794.0,4587.0,-3501.0,0.136,0.786,-0.317,-0.512
574128,-5684.0,4537.0,-3797.0,0.135,0.787,-0.316,-0.513
574150,-5672.0,4647.0,-3573.0,0.135,0.788,-0.315,-0.512
574162,-6080.0,4421.0,-3677.0,0.134,0.788,-0.314,-0.513
574184,-5854.0,4475.0,-3815.0,0.133,0.788,-0.313,-0.513
574196,-6110.0,4401.0,-3569.0,0.132,0.789,-0.311,-0.514
574218,-6010.0,4373.0,-3627.0,0.131,0.789,-0.31,-0.514
574230,-6186.0,4357.0,-3729.0,0.13,0.79,-0.309,-0.514
574252,-6146.0,4265.0,-3739.0,0.129,0.79,-0.307,-0.515
574264,-6100.0,4317.0,-3361.0,0.128,0.79,-0.306,-0.515
574286,-5980.0,4267.0,-3573.0,0.127,0.791,-0.305,-0.515
574298,-6126.0,4283.0,-3573.0,0.126,0.791,-0.304,-0.516
574320,-6062.0,4281.0,-3643.0,0.124,0.791,-0.303,-0.516
574342,-6102.0,4297.0,-3727.0,0.123,0.791,-0.302,-0.517
574354,-6386.0,4157.0,-3881.0,0.121,0.791,-0.302,-0.518
574376,-6430.0,4153.0,-3817.0,0.12,0.791,-0.301,-0.519
574388,-6250.0,4173.0,-3561.0,0.119,0.791,-0.3,-0.52
574410,-6144.0,4129.0,-3321.0,0.118,0.79,-0.3,-0.521
574422,-6178.0,4137.0,-3341.0,0.118,0.79,-0.3,-0.522
574444,-6176.0,4137.0,-3321.0,0.117,0.79,-0.299,-0.522
574456,-6400.0,4099.0,-3487.0,0.116,0.79,-0.299,-0.523
574478,-6482.0,4129.0,-3679.0,0.115,0.789,-0.3,-0.523
574490,-6314.0,4179.0,-3775.0,0.114,0.789,-0.3,-0.524
574512,-6302.0,4109.0,-3573.0,0.114,0.788,-0.3,-0.525
574534,-6486.0,4121.0,-3689.0,0.114,0.788,-0.3,-0.526
574546,-6084.0,4163.0,-3415.0,0.114,0.787,-0.301,-0.526
574568,-6378.0,4129.0,-3231.0,0.114,0.787,-0.301,-0.527
574580,-6182.0,4109.0,-3503.0,0.113,0.786,-0.302,-0.527
574602,-6352.0,4169.0,-3467.0,0.113,0.786,-0.302,-0.528
574614,-6042.0,4285.0,-3665.0,0.113,0.785,-0.303,-0.528
574636,-6374.0,4241.0,-3735.0,0.113,0.785,-0.303,-0.529
574648,-6188.0,4133.0,-3667.0,0.112,0.784,-0.303,-0.529
574670,-6298.0,4085.0,-3121.0,0.113,0.784,-0.303,-0.53
574682,-6206.0,4115.0,-3207.0,0.113,0.784,-0.302,-0.53
574704,-6350.0,4073.0,-3187.0,0.113,0.784,-0.302,-0.53
574726,-6372.0,4163.0,-3577.0,0.113,0.784,-0.303,-0.53
574738,-6102.0,4299.0,-3557.0,0.113,0.783,-0.303,-0.531
574760,-6204.0,4213.0,-3319.0,0.112,0.783,-0.302,-0.532
574772,-6130.0,4119.0,-3189.0,0.11,0.782,-0.302,-0.534
574794,-6344.0,4083.0,-1855.0,0.106,0.779,-0.304,-0.539
574806,-6022.0,4133.0,-3159.0,0.1,0.776,-0.305,-0.543
574828,-6690.0,3965.0,-3263.0,0.094,0.774,-0.307,-0.545
574840,-6740.0,3915.0,-3483.0,0.09,0.773,-0.308,-0.547
574862,-6748.0,4101.0,-3299.0,0.087,0.773,-0.31,-0.546
574874,-6684.0,3893.0,-3065.0,0.084,0.772,-0.311,-0.547
574896,-6608.0,3693.0,-3437.0,0.081,0.773,-0.313,-0.546
574918,-6886.0,3617.0,-3457.0,0.08,0.774,-0.313,-0.545
574930,-6586.0,3699.0,-3395.0,0.08,0.775,-0.314,-0.543
574952,-6648.0,3885.0,-3655.0,0.08,0.776,-0.314,-0.542
574964,-6606.0,3999.0,-3465.0,0.081,0.776,-0.313,-0.541
574986,-6456.0,4075.0,-3947.0,0.082,0.777,-0.314,-0.54
574998,-5760.0,4209.0,-3221.0,0.082,0.776,-0.313,-0.541
575020,-5864.0,4113.0,-3445.0,0.081,0.775,-0.312,-0.544
575032,-6116.0,4091.0,-3129.0,0.079,0.775,-0.31,-0.545
575054,-6256.0,3963.0,-3351.0,0.078,0.776,-0.307,-0.545
575066,-6918.0,3851.0,-3343.0,0.076,0.777,-0.305,-0.545
575088,-6742.0,3791.0,-2905.0,0.075,0.778,-0.303,-0.545
575110,-6352.0,3681.0,-3383.0,0.074,0.78,-0.3,-0.544
575122,-6072.0,3609.0,-3037.0,0.072,0.781,-0.297,-0.544
575144,-6060.0,3561.0,-2867.0,0.069,0.781,-0.294,-0.546
575156,-6062.0,3557.0,-4359.0,0.065,0.782,-0.289,-0.548
575178,-6938.0,3519.0,-3503.0,0.062,0.784,-0.282,-0.55
575190,-7716.0,3211.0,-2677.0,0.059,0.785,-0.276,-0.551
575212,-7702.0,3155.0,-2897.0,0.057,0.787,-0.272,-0.55
575224,-7034.0,3111.0,-2889.0,0.056,0.789,-0.269,-0.549
575246,-6998.0,3053.0,-3177.0,0.054,0.791,-0.266,-0.548
575258,-7108.0,3099.0,-3193.0,0.052,0.791,-0.265,-0.55
575280,-7218.0,3103.0,-3593.0,0.05,0.79,-0.263,-0.551
575302,-7308.0,3195.0,-3615.0,0.049,0.79,-0.262,-0.553
575314,-7228.0,3193.0,-3143.0,0.048,0.789,-0.26,-0.554
575341,-7004.0,3061.0,-3191.0,0.048,0.789,-0.259,-0.555
575353,-7056.0,2877.0,-2967.0,0.048,0.789,-0.257,-0.556
575365,-7416.0,2849.0,-3049.0,0.047,0.789,-0.257,-0.556
575387,-7166.0,3087.0,-2805.0,0.048,0.789,-0.257,-0.556
575399,-6840.0,3161.0,-3371.0,0.048,0.79,-0.256,-0.555
575421,-7506.0,3079.0,-3831.0,0.049,0.79,-0.256,-0.554
575433,-7100.0,3047.0,-3125.0,0.051,0.792,-0.255,-0.553
575455,-6896.0,3081.0,-2917.0,0.052,0.792,-0.255,-0.552
575477,-6842.0,3069.0,-3521.0,0.054,0.793,-0.255,-0.551
575489,-6762.0,3041.0,-3239.0,0.055,0.794,-0.255,-0.549
575511,-7170.0,3125.0,-3195.0,0.056,0.795,-0.254,-0.548
575523,-6840.0,3075.0,-3211.0,0.058,0.797,-0.254,-0.545
575545,-6752.0,3161.0,-3375.0,0.059,0.799,-0.253,-0.543
575557,-7116.0,3041.0,-3805.0,0.059,0.8,-0.253,-0.541
575579,-6792.0,3055.0,-3355.0,0.061,0.801,-0.253,-0.54
575591,-6680.0,3045.0,-3399.0,0.061,0.801,-0.252,-0.539
575613,-6860.0,3013.0,-2889.0,0.062,0.802,-0.251,-0.538
575625,-7128.0,3001.0,-3557.0,0.064,0.803,-0.25,-0.537
575647,-6690.0,3197.0,-3037.0,0.065,0.805,-0.249,-0.535
575669,-6904.0,3129.0,-3243.0,0.065,0.806,-0.249,-0.534
575681,-7448.0,2935.0,-3741.0,0.065,0.806,-0.249,-0.533
575703,-6582.0,3179.0,-3589.0,0.066,0.807,-0.249,-0.532
575715,-6796.0,3199.0,-3423.0,0.066,0.806,-0.25,-0.532
575737,-6892.0,3211.0,-3575.0,0.067,0.806,-0.25,-0.532
575749,-6886.0,3167.0,-3705.0,0.067,0.806,-0.251,-0.532
575771,-7088.0,3069.0,-3567.0,0.067,0.806,-0.251,-0.532
575783,-6856.0,3211.0,-3447.0,0.069,0.806,-0.252,-0.531
575805,-6760.0,3051.0,-3611.0,0.07,0.806,-0.253,-0.53
575817,-6686.0,3271.0,-3345.0,0.072,0.806,-0.254,-0.529
575839,-6866.0,3293.0,-3441.0,0.073,0.806,-0.256,-0.529
575861,-7168.0,3337.0,-3197.0,0.073,0.805,-0.259,-0.529
575873,-6774.0,3319.0,-3679.0,0.073,0.803,-0.263,-0.53
575895,-6456.0,3393.0,-3791.0,0.072,0.8,-0.267,-0.532
575907,-6584.0,3395.0,-4369.0,0.073,0.799,-0.27,-0.533
575929,-6438.0,3415.0,-3937.0,0.075,0.798,-0.271,-0.533
575941,-6462.0,3373.0,-3097.0,0.077,0.798,-0.27,-0.533
575963,-6464.0,3449.0,-2829.0,0.079,0.798,-0.271,-0.532
575975,-6626.0,3347.0,-3083.0,0.078,0.799,-0.27,-0.532
575997,-7132.0,3419.0,-3343.0,0.079,0.799,-0.271,-0.532
576019,-6494.0,3563.0,-3611.0,0.079,0.798,-0.271,-0.532
576031,-6904.0,3629.0,-3861.0,0.079,0.798,-0.272,-0.531
576053,-6584.0,3565.0,-3603.0,0.08,0.798,-0.273,-0.531
576065,-6470.0,3561.0,-3389.0,0.081,0.798,-0.273,-0.53
576087,-6598.0,3499.0,-3643.0,0.081,0.798,-0.274,-0.53
576099,-6986.0,3449.0,-3721.0,0.081,0.798,-0.275,-0.531
576121,-6750.0,3505.0,-3479.0,0.082,0.797,-0.276,-0.531
576133,-6526.0,3631.0,-3237.0,0.084,0.796,-0.278,-0.531
576155,-6188.0,3635.0,-3639.0,0.084,0.795,-0.279,-0.532
576167,-6376.0,3703.0,-3417.0,0.084,0.795,-0.279,-0.532
576189,-6586.0,3599.0,-3385.0,0.084,0.795,-0.28,-0.532
576201,-6688.0,3619.0,-3615.0,0.084,0.794,-0.28,-0.532
576223,-6538.0,3641.0,-3489.0,0.085,0.794,-0.281,-0.532
576245,-6594.0,3673.0,-3489.0,0.085,0.794,-0.281,-0.532
576257,-6618.0,3727.0,-3319.0,0.085,0.794,-0.282,-0.531
576279,-6724.0,3657.0,-3577.0,0.086,0.794,-0.282,-0.531
576291,-6722.0,3585.0,-3247.0,0.086,0.794,-0.284,-0.531
576313,-6290.0,3693.0,-3613.0,0.086,0.794,-0.284,-0.53
576325,-6862.0,3589.0,-3623.0,0.086,0.795,-0.285,-0.529
576347,-6744.0,3663.0,-3817.0,0.087,0.794,-0.286,-0.529
576359,-6422.0,3769.0,-3317.0,0.088,0.794,-0.287,-0.529
576381,-6384.0,3767.0,-3411.0,0.089,0.794,-0.288,-0.528
576393,-7912.0,3567.0,-3619.0,0.091,0.794,-0.29,-0.526
576415,-6380.0,3727.0,-3985.0,0.097,0.797,-0.292,-0.519
576437,-5750.0,4123.0,-3297.0,0.103,0.803,-0.292,-0.509
576449,-6416.0,3981.0,-3193.0,0.11,0.812,-0.292,-0.493
576471,-6046.0,3891.0,-4519.0,0.123,0.826,-0.289,-0.468
576483,-5202.0,4011.0,-5075.0,0.137,0.839,-0.286,-0.443
576505,-4768.0,4227.0,-4573.0,0.148,0.849,-0.282,-0.421
576517,-4252.0,4525.0,-5229.0,0.158,0.858,-0.278,-0.402
576539,-4800.0,4249.0,-4957.0,0.17,0.871,-0.269,-0.374
576551,-3704.0,4337.0,-4489.0,0.182,0.885,-0.26,-0.341
576573,-3816.0,4133.0,-6515.0,0.193,0.897,-0.251,-0.308
576595,-3372.0,4091.0,-6209.0,0.204,0.908,-0.241,-0.276
576607,-3072.0,4023.0,-6097.0,0.216,0.918,-0.231,-0.241
576629,-2534.0,4169.0,-6449.0,0.227,0.927,-0.219,-0.203
576641,-1716.0,4213.0,-7637.0,0.236,0.934,-0.208,-0.168
576663,-1556.0,4215.0,-7035.0,0.245,0.939,-0.197,-0.138
576675,-1144.0,4237.0,-7099.0,0.252,0.943,-0.187,-0.109
576697,-850.0,4357.0,-7015.0,0.258,0.946,-0.178,-0.08
576709,-282.0,4405.0,-7415.0,0.262,0.948,-0.171,-0.056
576731,288.0,4387.0,-7281.0,0.266,0.949,-0.165,-0.034
576743,222.0,4393.0,-6847.0,0.27,0.95,-0.158,-0.014
576765,794.0,4445.0,-6673.0,0.274,0.95,-0.15,0.01
576777,944.0,4341.0,-6557.0,0.278,0.949,-0.142,0.038
576799,1604.0,4461.0,-6905.0,0.281,0.948,-0.133,0.069
576821,2032.0,4373.0,-7387.0,0.284,0.946,-0.124,0.096
576833,2474.0,4329.0,-6975.0,0.286,0.944,-0.118,0.118
576855,2526.0,4133.0,-6751.0,0.288,0.941,-0.111,0.139
576867,3066.0,4263.0,-7073.0,0.29,0.938,-0.105,0.157
576889,2824.0,4263.0,-6897.0,0.292,0.936,-0.1,0.169
576901,3062.0,4379.0,-6487.0,0.294,0.934,-0.096,0.179
576923,3234.0,4347.0,-6249.0,0.295,0.932,-0.093,0.191
576935,3520.0,4299.0,-6625.0,0.295,0.93,-0.09,0.199
576957,3500.0,4281.0,-6623.0,0.296,0.929,-0.089,0.205
576969,3600.0,4245.0,-6333.0,0.297,0.928,-0.088,0.208
576991,3628.0,4233.0,-6157.0,0.298,0.927,-0.087,0.212
577013,3618.0,4245.0,-6145.0,0.299,0.925,-0.085,0.217
577025,3384.0,4243.0,-6017.0,0.3,0.924,-0.083,0.223
577047,3830.0,4389.0,-6149.0,0.3,0.923,-0.082,0.228
577059,3898.0,4397.0,-5983.0,0.301,0.922,-0.081,0.231
577081,3928.0,4423.0,-5945.0,0.302,0.921,-0.081,0.234
577093,4040.0,4393.0,-5955.0,0.302,0.92,-0.081,0.236
577115,3960.0,4357.0,-6171.0,0.302,0.92,-0.081,0.237
577127,4116.0,4331.0,-6247.0,0.303,0.919,-0.081,0.237
577149,3768.0,4329.0,-5831.0,0.304,0.919,-0.081,0.238
577171,3906.0,4329.0,-5739.0,0.304,0.919,-0.082,0.238
577183,3848.0,4361.0,-5767.0,0.305,0.919,-0.082,0.238
577205,4190.0,4453.0,-5833.0,0.305,0.919,-0.083,0.238
577217,3948.0,4333.0,-5839.0,0.305,0.918,-0.084,0.238
577239,4190.0,4417.0,-5917.0,0.305,0.918,-0.084,0.238
577251,4054.0,4347.0,-5901.0,0.306,0.918,-0.084,0.239
577273,3822.0,4339.0,-5873.0,0.306,0.918,-0.084,0.239
577285,3918.0,4375.0,-5861.0,0.307,0.917,-0.084,0.239
577307,3986.0,4333.0,-5885.0,0.307,0.917,-0.085,0.24
577319,4018.0,4419.0,-5893.0,0.307,0.917,-0.085,0.24
577346,4112.0,4383.0,-5943.0,0.307,0.917,-0.085,0.24
577358,4020.0,4379.0,-5925.0,0.308,0.917,-0.086,0.24
577370,4058.0,4349.0,-5719.0,0.308,0.916,-0.086,0.24
577392,3944.0,4341.0,-5801.0,0.309,0.916,-0.086,0.24
577414,4074.0,4431.0,-5683.0,0.309,0.916,-0.087,0.24
577426,4136.0,4441.0,-5935.0,0.309,0.916,-0.087,0.24
577448,4140.0,4345.0,-5981.0,0.31,0.916,-0.088,0.238
577460,4016.0,4457.0,-5741.0,0.31,0.917,-0.089,0.237
577482,3826.0,4363.0,-5781.0,0.311,0.917,-0.09,0.235
577494,3998.0,4407.0,-5823.0,0.311,0.917,-0.09,0.234
577516,3812.0,4375.0,-5797.0,0.311,0.917,-0.091,0.234
577528,4018.0,4421.0,-5659.0,0.312,0.917,-0.092,0.233
577550,3974.0,4539.0,-5749.0,0.312,0.916,-0.092,0.233
577562,4056.0,4443.0,-5887.0,0.312,0.916,-0.093,0.233
577584,3998.0,4535.0,-5777.0,0.313,0.916,-0.093,0.233
577606,3962.0,4419.0,-5823.0,0.313,0.916,-0.094,0.232
577618,3832.0,4339.0,-5680.0,0.312,0.916,-0.094,0.232
577640,3992.0,4375.0,-5852.0,0.312,0.916,-0.094,0.233
577652,3969.0,4384.0,-5956.0,0.312,0.916,-0.095,0.233
577674,3861.0,4412.0,-5747.0,0.313,0.916,-0.095,0.232
577686,4149.0,4434.0,-6020.0,0.312,0.916,-0.096,0.233
577708,4209.0,4402.0,-5868.0,0.313,0.916,-0.096,0.233
577720,3801.0,4354.0,-5780.0,0.313,0.916,-0.096,0.232
577742,3847.0,4462.0,-5916.0,0.313,0.916,-0.096,0.233
577754,3991.0,4464.0,-5628.0,0.313,0.915,-0.097,0.233
577776,4235.0,4466.0,-5834.0,0.313,0.915,-0.097,0.234
577798,3919.0,4398.0,-5858.0,0.313,0.915,-0.098,0.233
577810,3983.0,4266.0,-5698.0,0.313,0.915,-0.098,0.233
577832,3813.0,4412.0,-5586.0,0.314,0.915,-0.098,0.234
577844,4141.0,4430.0,-5858.0,0.314,0.915,-0.098,0.234
577866,3917.0,4402.0,-5774.0,0.314,0.915,-0.099,0.234
577878,4079.0,4492.0,-5800.0,0.315,0.915,-0.099,0.234
577900,3905.0,4456.0,-5718.0,0.315,0.915,-0.099,0.234
577912,4067.0,4432.0,-5658.0,0.315,0.914,-0.099,0.234
577934,4115.0,4430.0,-5658.0,0.315,0.915,-0.1,0.233
577946,4091.0,4474.0,-5928.0,0.315,0.915,-0.101,0.233
577968,3861.0,4424.0,-5820.0,0.316,0.914,-0.101,0.232
577990,3995.0,4408.0,-5702.0,0.316,0.914,-0.101,0.232
578002,3815.0,4348.0,-5738.0,0.316,0.914,-0.102,0.232
578024,4065.0,4490.0,-5772.0,0.316,0.914,-0.102,0.232
578036,3869.0,4434.0,-5808.0,0.316,0.914,-0.102,0.232
578058,4167.0,4464.0,-5710.0,0.316,0.914,-0.103,0.232
578070,3879.0,4430.0,-5688.0,0.316,0.914,-0.103,0.232
578092,4139.0,4390.0,-5720.0,0.316,0.914,-0.103,0.232
578104,3881.0,4374.0,-5756.0,0.316,0.914,-0.103,0.232
578126,3977.0,4386.0,-5766.0,0.316,0.914,-0.104,0.232
578138,4081.0,4470.0,-5778.0,0.316,0.914,-0.104,0.232
578160,3857.0,4474.0,-5750.0,0.317,0.914,-0.105,0.232
578182,4221.0,4494.0,-5734.0,0.317,0.914,-0.105,0.232
578194,4015.0,4490.0,-5748.0,0.317,0.914,-0.105,0.232
578216,4311.0,4524.0,-5694.0,0.317,0.914,-0.105,0.232
578228,3897.0,4378.0,-5788.0,0.317,0.914,-0.106,0.232
578250,3927.0,4390.0,-5658.0,0.317,0.914,-0.106,0.231
578262,4093.0,4378.0,-5710.0,0.317,0.914,-0.106,0.231
578284,4021.0,4380.0,-5810.0,0.317,0.914,-0.107,0.231
578296,3949.0,4514.0,-5764.0,0.317,0.914,-0.107,0.231
578318,4095.0,4416.0,-5904.0,0.317,0.914,-0.107,0.231
578330,3979.0,4410.0,-5646.0,0.317,0.913,-0.107,0.231
578352,3997.0,4440.0,-5750.0,0.318,0.913,-0.108,0.231
578374,3934.0,4385.0,-5649.0,0.318,0.913,-0.108,0.231
578386,4021.0,4388.0,-5715.0,0.317,0.913,-0.109,0.23
578408,3991.0,4390.0,-5820.0,0.317,0.913,-0.109,0.23
578420,4068.0,4395.0,-5847.0,0.317,0.913,-0.109,0.23
578442,4145.0,4483.0,-5629.0,0.317,0.913,-0.109,0.231
578454,4078.0,4426.0,-5784.0,0.317,0.913,-0.11,0.231
578476,4056.0,4396.0,-5778.0,0.317,0.913,-0.11,0.232
578488,3934.0,4404.0,-5630.0,0.317,0.913,-0.11,0.232
578510,4108.0,4330.0,-5852.0,0.317,0.913,-0.11,0.233
578532,4098.0,4384.0,-5686.0,0.317,0.913,-0.11,0.233
578544,4108.0,4432.0,-5834.0,0.317,0.913,-0.11,0.233
578566,4110.0,4472.0,-5660.0,0.318,0.912,-0.111,0.233
578578,4020.0,4434.0,-5634.0,0.318,0.912,-0.111,0.233
578600,4118.0,4416.0,-5742.0,0.318,0.912,-0.111,0.233
578612,4084.0,4398.0,-5782.0,0.318,0.912,-0.111,0.233
578634,4068.0,4388.0,-5742.0,0.318,0.912,-0.111,0.233
578646,3988.0,4400.0,-5714.0,0.318,0.912,-0.111,0.233
578668,4136.0,4362.0,-5580.0,0.318,0.912,-0.111,0.234
578680,4036.0,4370.0,-5698.0,0.318,0.912,-0.112,0.233
578702,4004.0,4426.0,-5738.0,0.318,0.912,-0.112,0.233
578724,4062.0,4428.0,-5630.0,0.318,0.912,-0.112,0.234
578736,4342.0,4444.0,-5840.0,0.318,0.912,-0.113,0.234
578758,4084.0,4440.0,-5736.0,0.318,0.912,-0.113,0.234
578770,4106.0,4444.0,-5640.0,0.319,0.912,-0.113,0.234
578792,3908.0,4356.0,-5638.0,0.319,0.912,-0.113,0.234
578804,3948.0,4322.0,-5618.0,0.318,0.912,-0.113,0.234
578826,3886.0,4416.0,-5552.0,0.318,0.911,-0.114,0.234
578838,4082.0,4462.0,-5588.0,0.318,0.911,-0.114,0.234
578860,4280.0,4486.0,-5842.0,0.318,0.911,-0.114,0.235
578872,4542.0,4582.0,-5904.0,0.318,0.911,-0.114,0.235
578894,4036.0,4362.0,-5642.0,0.318,0.911,-0.114,0.235
578916,4172.0,4364.0,-5600.0,0.318,0.911,-0.115,0.235
578928,3984.0,4222.0,-5684.0,0.318,0.911,-0.115,0.235
578950,3934.0,4206.0,-5776.0,0.318,0.911,-0.115,0.235
578962,3672.0,3822.0,-5946.0,0.317,0.912,-0.115,0.235
578984,3606.0,3460.0,-6288.0,0.317,0.912,-0.115,0.235
578996,3948.0,3418.0,-6726.0,0.317,0.911,-0.116,0.236
579018,4330.0,3868.0,-6504.0,0.319,0.91,-0.117,0.237
579030,4396.0,4196.0,-6680.0,0.322,0.909,-0.117,0.239
579052,4984.0,4658.0,-6342.0,0.327,0.907,-0.117,0.24
579064,4762.0,5066.0,-5522.0,0.333,0.904,-0.117,0.24
579086,4492.0,5288.0,-4534.0,0.338,0.902,-0.117,0.241
579108,4070.0,5288.0,-3886.0,0.341,0.901,-0.116,0.242
579120,3556.0,5220.0,-3376.0,0.342,0.901,-0.115,0.242
579142,3982.0,4984.0,-4234.0,0.341,0.901,-0.116,0.242
579154,4322.0,4744.0,-5500.0,0.34,0.901,-0.116,0.242
579176,4292.0,4558.0,-5868.0,0.339,0.902,-0.116,0.242
579188,4274.0,4508.0,-6416.0,0.339,0.902,-0.115,0.243
579210,4398.0,4502.0,-5822.0,0.339,0.902,-0.115,0.243
579222,4156.0,4504.0,-5562.0,0.34,0.901,-0.115,0.243
579244,4284.0,4580.0,-5434.0,0.341,0.901,-0.115,0.242
579256,4128.0,4552.0,-5248.0,0.341,0.901,-0.115,0.242
579278,4516.0,4732.0,-5192.0,0.342,0.9,-0.116,0.242
579300,4390.0,4672.0,-5292.0,0.343,0.9,-0.116,0.242
579312,4494.0,4688.0,-5244.0,0.343,0.9,-0.116,0.242
579334,4162.0,4680.0,-5120.0,0.344,0.9,-0.116,0.242
579351,4032.0,4614.0,-5154.0,0.345,0.899,-0.115,0.243
579363,3956.0,4686.0,-5334.0,0.345,0.899,-0.115,0.244
579385,4360.0,4828.0,-5398.0,0.345,0.899,-0.114,0.244
579397,4304.0,4774.0,-5680.0,0.345,0.899,-0.114,0.244
579419,4278.0,4696.0,-5606.0,0.345,0.899,-0.114,0.244
579431,3948.0,4610.0,-5496.0,0.346,0.899,-0.114,0.244
579453,4196.0,4664.0,-5348.0,0.347,0.898,-0.114,0.244
579465,4082.0,4884.0,-5212.0,0.349,0.898,-0.114,0.244
579487,4224.0,5034.0,-4940.0,0.35,0.897,-0.114,0.245
579509,4460.0,5186.0,-4628.0,0.351,0.897,-0.114,0.245
579521,4114.0,5146.0,-4442.0,0.351,0.896,-0.114,0.245
579543,4304.0,5036.0,-4602.0,0.351,0.897,-0.113,0.246
579555,4174.0,4872.0,-5202.0,0.35,0.897,-0.113,0.246
579577,4218.0,4854.0,-5126.0,0.349,0.897,-0.112,0.247
579589,4084.0,4800.0,-5052.0,0.348,0.897,-0.111,0.248
579611,4356.0,4854.0,-5092.0,0.347,0.898,-0.11,0.248
579623,4448.0,4792.0,-5238.0,0.345,0.898,-0.11,0.249
579645,4288.0,4668.0,-5398.0,0.344,0.899,-0.109,0.25
579657,4460.0,4468.0,-5440.0,0.343,0.899,-0.108,0.251
579679,4096.0,4518.0,-5330.0,0.342,0.899,-0.108,0.251
579701,4234.0,4680.0,-5480.0,0.341,0.9,-0.107,0.252
579713,4042.0,4852.0,-5264.0,0.34,0.9,-0.106,0.252
579735,4266.0,4938.0,-5280.0,0.339,0.9,-0.106,0.253
579747,4472.0,4814.0,-5110.0,0.337,0.9,-0.105,0.254
579769,4510.0,4588.0,-5042.0,0.336,0.901,-0.104,0.254
579781,4076.0,4318.0,-5188.0,0.334,0.902,-0.104,0.255
579803,4296.0,4248.0,-5564.0,0.332,0.902,-0.104,0.255
579815,4648.0,4230.0,-5954.0,0.33,0.903,-0.105,0.255
579837,4744.0,4188.0,-6156.0,0.329,0.903,-0.105,0.255
579849,4656.0,4206.0,-6080.0,0.328,0.903,-0.106,0.255
579871,4722.0,4186.0,-5808.0,0.328,0.904,-0.106,0.254
579893,4220.0,4152.0,-5434.0,0.329,0.903,-0.106,0.254
579905,4338.0,4330.0,-5368.0,0.329,0.903,-0.107,0.253
579927,4106.0,4296.0,-5384.0,0.329,0.903,-0.108,0.253
579939,4222.0,4412.0,-5584.0,0.329,0.903,-0.109,0.253
579961,4570.0,4576.0,-5340.0,0.329,0.903,-0.11,0.252
579973,4324.0,4610.0,-5264.0,0.329,0.903,-0.111,0.252
579995,4470.0,4534.0,-5414.0,0.329,0.903,-0.111,0.252
580007,4452.0,4376.0,-5630.0,0.329,0.903,-0.112,0.252
580029,4056.0,4262.0,-5808.0,0.329,0.903,-0.113,0.252
580041,4214.0,4364.0,-5530.0,0.33,0.903,-0.113,0.252
580063,4274.0,4550.0,-5638.0,0.331,0.902,-0.114,0.252
580085,4382.0,4682.0,-5416.0,0.332,0.902,-0.114,0.252
580097,4296.0,4716.0,-5366.0,0.333,0.902,-0.114,0.252
580119,4382.0,4752.0,-5352.0,0.333,0.901,-0.114,0.252
580131,4038.0,4694.0,-5040.0,0.334,0.901,-0.113,0.252
580153,4166.0,4736.0,-5296.0,0.334,0.901,-0.113,0.252
580165,4160.0,4706.0,-5290.0,0.335,0.901,-0.112,0.253
580187,4166.0,4716.0,-5188.0,0.335,0.901,-0.112,0.253
580199,4170.0,4742.0,-5258.0,0.335,0.901,-0.111,0.254
580221,4322.0,4708.0,-5282.0,0.335,0.9,-0.111,0.255
580233,4548.0,4648.0,-5314.0,0.335,0.9,-0.111,0.256
580255,4436.0,4580.0,-5102.0,0.334,0.9,-0.111,0.256
580277,4524.0,4554.0,-5418.0,0.334,0.9,-0.11,0.257
580289,4598.0,4438.0,-5480.0,0.334,0.9,-0.11,0.257
580311,4690.0,4432.0,-5382.0,0.334,0.9,-0.11,0.256
580323,4660.0,4420.0,-5434.0,0.334,0.9,-0.11,0.256
580345,4700.0,4410.0,-5372.0,0.335,0.9,-0.11,0.256
580357,4722.0,4440.0,-5526.0,0.336,0.9,-0.11,0.255
580379,4536.0,4506.0,-5042.0,0.336,0.9,-0.109,0.255
580391,4402.0,4466.0,-5512.0,0.337,0.9,-0.11,0.254
580413,4180.0,4432.0,-5524.0,0.337,0.9,-0.11,0.254
580425,4060.0,4430.0,-5324.0,0.338,0.899,-0.11,0.254
580447,4112.0,4532.0,-5454.0,0.338,0.899,-0.111,0.254
580469,4114.0,4614.0,-5328.0,0.338,0.899,-0.111,0.254
580481,4426.0,4634.0,-5402.0,0.339,0.899,-0.112,0.254
580503,4288.0,4630.0,-5226.0,0.339,0.899,-0.113,0.254
580515,4468.0,4752.0,-5316.0,0.339,0.899,-0.113,0.254
580537,4372.0,4722.0,-5260.0,0.34,0.898,-0.114,0.254
580549,4366.0,4676.0,-5212.0,0.34,0.898,-0.114,0.254
580571,4394.0,4622.0,-5142.0,0.34,0.898,-0.114,0.254
580583,4438.0,4556.0,-5236.0,0.34,0.898,-0.115,0.254
580605,4552.0,4516.0,-5276.0,0.34,0.898,-0.115,0.254
580617,4392.0,4564.0,-5114.0,0.34,0.898,-0.116,0.254
580639,4624.0,4604.0,-5218.0,0.34,0.898,-0.116,0.255
580661,4654.0,4648.0,-5376.0,0.341,0.898,-0.116,0.255
580673,4412.0,4556.0,-5354.0,0.341,0.897,-0.116,0.255
580695,4328.0,4504.0,-5218.0,0.341,0.897,-0.116,0.255
580707,4358.0,4542.0,-5226.0,0.341,0.897,-0.117,0.255
580729,4390.0,4572.0,-5192.0,0.342,0.897,-0.117,0.255
580741,4702.0,4628.0,-5132.0,0.342,0.897,-0.117,0.255
580763,4518.0,4714.0,-5266.0,0.342,0.897,-0.118,0.255
580775,4630.0,4668.0,-5178.0,0.342,0.897,-0.118,0.255
580797,4368.0,4618.0,-5198.0,0.342,0.897,-0.118,0.255
580809,4098.0,4392.0,-5276.0,0.342,0.897,-0.118,0.255
580831,4502.0,4546.0,-4944.0,0.343,0.897,-0.118,0.254
580853,4472.0,4584.0,-5490.0,0.343,0.897,-0.119,0.254
580865,4374.0,4642.0,-5314.0,0.343,0.897,-0.119,0.254
580887,4562.0,4670.0,-5290.0,0.343,0.896,-0.12,0.253
580899,4428.0,4692.0,-5148.0,0.343,0.896,-0.12,0.254
580921,4312.0,4620.0,-5128.0,0.344,0.896,-0.12,0.253
580933,4268.0,4580.0,-5260.0,0.344,0.896,-0.12,0.253
580955,4300.0,4644.0,-5246.0,0.344,0.896,-0.12,0.253
580967,4482.0,4706.0,-5138.0,0.344,0.896,-0.121,0.253
580989,4488.0,4736.0,-5190.0,0.344,0.896,-0.121,0.253
581001,4486.0,4672.0,-5254.0,0.344,0.896,-0.121,0.253
581023,4538.0,4560.0,-5262.0,0.344,0.896,-0.122,0.253
581045,4300.0,4538.0,-5136.0,0.344,0.896,-0.122,0.253
581057,4466.0,4528.0,-5252.0,0.344,0.896,-0.122,0.253
581079,4308.0,4548.0,-5288.0,0.344,0.896,-0.122,0.253
581091,4558.0,4640.0,-5334.0,0.344,0.896,-0.122,0.253
581113,4464.0,4630.0,-5282.0,0.344,0.896,-0.123,0.253
581125,4550.0,4640.0,-5314.0,0.344,0.896,-0.123,0.253
581147,4272.0,4588.0,-5222.0,0.345,0.896,-0.123,0.253
581159,4370.0,4626.0,-5118.0,0.345,0.896,-0.123,0.253
581181,4452.0,4576.0,-5116.0,0.345,0.896,-0.123,0.253
581193,4498.0,4622.0,-5296.0,0.345,0.896,-0.123,0.253
581215,4454.0,4642.0,-5212.0,0.345,0.896,-0.123,0.253
581237,4358.0,4622.0,-5272.0,0.345,0.896,-0.124,0.253
581249,4490.0,4624.0,-5210.0,0.345,0.895,-0.124,0.253
581271,4386.0,4574.0,-5170.0,0.345,0.895,-0.124,0.253
581283,4424.0,4588.0,-5176.0,0.345,0.895,-0.124,0.253
581305,4354.0,4568.0,-5170.0,0.345,0.895,-0.124,0.253
581317,4536.0,4680.0,-5052.0,0.345,0.895,-0.124,0.253
581339,4502.0,4630.0,-5210.0,0.344,0.895,-0.125,0.253
581356,4380.0,4514.0,-5240.0,0.344,0.895,-0.125,0.253
581368,4360.0,4524.0,-5418.0,0.344,0.895,-0.125,0.253
581390,4486.0,4608.0,-5202.0,0.344,0.895,-0.125,0.253
581412,4392.0,4608.0,-5226.0,0.344,0.895,-0.125,0.254
581424,4604.0,4592.0,-5296.0,0.344,0.895,-0.125,0.254
581446,4492.0,4574.0,-5286.0,0.345,0.895,-0.125,0.254
581458,4418.0,4576.0,-5202.0,0.345,0.895,-0.125,0.254
581480,4124.0,4472.0,-5382.0,0.345,0.895,-0.126,0.253
581492,4520.0,4682.0,-4998.0,0.345,0.895,-0.126,0.253
581514,5046.0,4780.0,-5062.0,0.346,0.895,-0.127,0.252
581526,4356.0,4612.0,-5872.0,0.346,0.895,-0.127,0.252
581548,4542.0,4688.0,-4812.0,0.346,0.895,-0.128,0.252
581560,4544.0,4622.0,-5196.0,0.347,0.895,-0.128,0.251
581582,4298.0,4488.0,-5258.0,0.347,0.895,-0.128,0.25
581604,4208.0,4496.0,-5462.0,0.347,0.895,-0.129,0.249
581616,4028.0,4334.0,-5298.0,0.348,0.894,-0.13,0.249
581638,3848.0,4512.0,-5406.0,0.349,0.894,-0.131,0.248
581650,3578.0,4364.0,-5400.0,0.35,0.894,-0.133,0.247
581672,3480.0,4404.0,-5462.0,0.351,0.894,-0.136,0.245
581684,4088.0,4560.0,-5244.0,0.351,0.893,-0.14,0.243
581706,4254.0,4654.0,-5454.0,0.352,0.893,-0.144,0.24
