timeMs,ax,ay,az,q0,q1,q2,q3
46729,-2442.0,2342.0,9160.0,0.625,0.104,0.187,0.751
46741,-2088.0,1834.0,8858.0,0.615,0.095,0.201,0.756
46763,-2552.0,1414.0,10668.0,0.601,0.075,0.222,0.764
46775,-4192.0,1536.0,10034.0,0.58,0.038,0.256,0.773
46797,-3320.0,4450.0,3856.0,0.55,-0.014,0.294,0.781
46809,-1614.0,3406.0,1140.0,0.519,-0.048,0.347,0.78
46831,-4558.0,4632.0,1100.0,0.497,-0.074,0.374,0.779
46843,-4534.0,4618.0,108.0,0.478,-0.095,0.391,0.781
46865,-7536.0,3716.0,3826.0,0.459,-0.121,0.4,0.784
46877,-5052.0,3490.0,3400.0,0.431,-0.151,0.411,0.789
46899,-1422.0,3974.0,3692.0,0.415,-0.167,0.42,0.79
46921,-1836.0,2872.0,2276.0,0.407,-0.184,0.424,0.788
46933,-2410.0,3694.0,2852.0,0.406,-0.199,0.419,0.787
46955,-3686.0,3192.0,5166.0,0.417,-0.204,0.405,0.788
46967,-4328.0,3372.0,6324.0,0.431,-0.202,0.386,0.79
46989,-6222.0,2076.0,8900.0,0.445,-0.198,0.368,0.792
47001,-4740.0,1790.0,9898.0,0.453,-0.194,0.354,0.795
47023,-3242.0,2612.0,9898.0,0.466,-0.179,0.34,0.797
47035,-4730.0,2140.0,9542.0,0.483,-0.147,0.321,0.801
47057,-3848.0,1970.0,9060.0,0.498,-0.108,0.302,0.806
47079,1448.0,3718.0,11602.0,0.507,-0.079,0.286,0.809
47091,-818.0,3850.0,8714.0,0.525,-0.06,0.271,0.805
47113,-3134.0,3694.0,10284.0,0.536,-0.048,0.255,0.803
47125,-3108.0,4142.0,12882.0,0.543,-0.044,0.241,0.803
47147,-4806.0,2954.0,14590.0,0.542,-0.051,0.237,0.805
47159,690.0,2776.0,10168.0,0.537,-0.054,0.242,0.806
47181,560.0,2498.0,6480.0,0.539,-0.048,0.246,0.804
47193,242.0,2622.0,6464.0,0.543,-0.042,0.248,0.801
47215,-796.0,3490.0,6416.0,0.549,-0.037,0.248,0.797
47227,-2438.0,3938.0,6190.0,0.556,-0.025,0.244,0.794
47249,-3286.0,3252.0,7742.0,0.561,-0.019,0.237,0.793
47261,-2920.0,2924.0,8226.0,0.563,-0.02,0.234,0.792
47283,-924.0,2490.0,6834.0,0.565,-0.02,0.233,0.792
47305,-1304.0,2422.0,7090.0,0.569,-0.02,0.23,0.789
47317,-1790.0,2298.0,7070.0,0.575,-0.016,0.227,0.786
47339,-2700.0,2042.0,8638.0,0.58,-0.012,0.221,0.784
47351,-3636.0,2478.0,12952.0,0.582,-0.011,0.212,0.785
47373,-3904.0,2346.0,11260.0,0.581,-0.007,0.214,0.785
47385,-2542.0,2638.0,8774.0,0.578,-0.007,0.216,0.787
47407,-1950.0,2760.0,10474.0,0.572,-0.01,0.224,0.789
47419,-1004.0,3432.0,6580.0,0.567,-0.01,0.232,0.791
47441,-968.0,3902.0,6056.0,0.562,-0.008,0.236,0.793
47453,-1272.0,4396.0,6982.0,0.558,-0.005,0.237,0.796
47475,-914.0,4518.0,6792.0,0.552,-0.003,0.239,0.799
47497,-766.0,4286.0,5948.0,0.548,-0.002,0.24,0.801
47509,-772.0,3840.0,5562.0,0.543,-0.003,0.239,0.805
47531,-896.0,3330.0,6566.0,0.54,-0.008,0.236,0.808
47543,-1080.0,2374.0,7476.0,0.537,-0.011,0.231,0.811
47565,-648.0,1936.0,6950.0,0.535,-0.012,0.225,0.814
47577,-1954.0,1312.0,7624.0,0.537,-0.011,0.215,0.816
47599,-2084.0,1682.0,10218.0,0.537,-0.01,0.204,0.818
47611,-3594.0,1634.0,9622.0,0.535,-0.012,0.202,0.821
47633,-1430.0,1700.0,6618.0,0.532,-0.014,0.2,0.823
47645,-2814.0,1250.0,7700.0,0.53,-0.019,0.198,0.824
47667,-1374.0,1098.0,8308.0,0.529,-0.024,0.195,0.826
47689,-1498.0,664.0,8066.0,0.528,-0.029,0.195,0.826
47701,-590.0,452.0,8178.0,0.531,-0.029,0.193,0.824
47723,-4088.0,-414.0,5738.0,0.532,-0.033,0.186,0.825
47735,-2770.0,1116.0,18438.0,0.535,-0.032,0.185,0.824
47757,-1984.0,1652.0,11054.0,0.536,-0.025,0.191,0.822
47769,-1606.0,1082.0,8760.0,0.535,-0.019,0.194,0.822
47791,-3356.0,1254.0,11576.0,0.534,-0.016,0.197,0.822
47803,-1528.0,1162.0,12516.0,0.531,-0.009,0.204,0.822
47825,-1138.0,1004.0,10658.0,0.529,-0.002,0.213,0.821
47837,-840.0,1346.0,8342.0,0.528,0.003,0.223,0.82
47859,-826.0,1524.0,7738.0,0.529,0.011,0.231,0.817
47881,-778.0,1544.0,6806.0,0.531,0.02,0.24,0.813
47893,-966.0,1722.0,5500.0,0.534,0.028,0.25,0.807
47915,-368.0,2064.0,4282.0,0.539,0.035,0.259,0.801
47927,-1066.0,2596.0,3538.0,0.544,0.038,0.267,0.794
47949,-900.0,3196.0,3278.0,0.549,0.035,0.275,0.788
47961,-1224.0,3700.0,5574.0,0.555,0.033,0.28,0.782
47983,-1406.0,4418.0,6368.0,0.561,0.033,0.284,0.776
47995,-1654.0,5092.0,7822.0,0.567,0.033,0.288,0.771
48017,-2492.0,5722.0,7928.0,0.574,0.035,0.291,0.765
48029,-3090.0,5984.0,8430.0,0.578,0.037,0.294,0.76
48051,-2908.0,6018.0,8666.0,0.581,0.038,0.299,0.756
48073,-2762.0,5658.0,8498.0,0.581,0.04,0.304,0.754
48085,-1684.0,4920.0,7712.0,0.58,0.042,0.309,0.752
48112,-458.0,4284.0,6806.0,0.579,0.045,0.314,0.751
48124,-340.0,4136.0,6538.0,0.578,0.048,0.32,0.749
48136,-526.0,3722.0,7046.0,0.579,0.051,0.324,0.746
48158,-1178.0,3852.0,7496.0,0.581,0.054,0.328,0.743
48170,-1982.0,3902.0,8198.0,0.583,0.055,0.333,0.739
48192,-2730.0,4214.0,8028.0,0.584,0.055,0.339,0.735
48204,-2966.0,4346.0,6550.0,0.585,0.055,0.347,0.731
48226,-2524.0,4386.0,5654.0,0.585,0.057,0.352,0.728
48248,-2644.0,4392.0,5570.0,0.587,0.058,0.355,0.725
48260,-2696.0,4478.0,6116.0,0.589,0.058,0.356,0.724
48282,-2798.0,4588.0,7096.0,0.59,0.059,0.356,0.722
48294,-2586.0,4630.0,6568.0,0.591,0.059,0.357,0.721
48316,-2402.0,4766.0,6364.0,0.592,0.06,0.358,0.72
48328,-2128.0,4742.0,6724.0,0.593,0.061,0.358,0.719
48350,-1926.0,4816.0,6564.0,0.593,0.061,0.358,0.718
48362,-2006.0,4822.0,6484.0,0.593,0.061,0.359,0.718
48384,-2084.0,4712.0,6654.0,0.593,0.061,0.358,0.718
48396,-2148.0,4684.0,6446.0,0.593,0.06,0.359,0.718
48418,-2466.0,4644.0,6612.0,0.594,0.06,0.359,0.718
48440,-2458.0,4648.0,6462.0,0.594,0.06,0.358,0.718
48452,-2276.0,4362.0,7082.0,0.595,0.06,0.357,0.718
48474,-2500.0,4446.0,7328.0,0.595,0.06,0.356,0.718
48486,-2428.0,4568.0,6876.0,0.595,0.059,0.357,0.718
48508,-2360.0,4716.0,6358.0,0.594,0.059,0.358,0.718
48520,-2238.0,4762.0,5942.0,0.594,0.059,0.357,0.719
48542,-2566.0,4754.0,6240.0,0.593,0.059,0.357,0.72
48554,-2428.0,4470.0,6426.0,0.592,0.058,0.355,0.721
48576,-2580.0,4982.0,5414.0,0.591,0.057,0.353,0.723
48588,-3878.0,5324.0,5136.0,0.591,0.058,0.348,0.726
48610,-3308.0,5266.0,7256.0,0.588,0.061,0.341,0.73
48632,-2190.0,4684.0,6190.0,0.585,0.062,0.336,0.736
48644,-1150.0,4096.0,6038.0,0.582,0.062,0.33,0.741
48666,-132.0,3514.0,6540.0,0.58,0.059,0.323,0.746
48678,-462.0,3456.0,7730.0,0.579,0.055,0.316,0.749
48700,-1208.0,4000.0,6552.0,0.579,0.051,0.311,0.752
48712,-892.0,3622.0,6060.0,0.579,0.048,0.305,0.754
48734,174.0,3616.0,5302.0,0.58,0.041,0.3,0.756
48746,230.0,3260.0,7028.0,0.587,0.037,0.292,0.755
48768,-1992.0,3412.0,7914.0,0.596,0.035,0.282,0.751
48790,-5056.0,3622.0,9888.0,0.604,0.036,0.266,0.751
48802,-4536.0,3446.0,22600.0,0.605,0.038,0.253,0.754
48824,-1306.0,2254.0,7616.0,0.602,0.046,0.258,0.755
48836,-2732.0,2848.0,9530.0,0.6,0.05,0.255,0.757
48858,-510.0,3912.0,10244.0,0.593,0.053,0.264,0.759
48870,-2022.0,4168.0,5202.0,0.589,0.059,0.275,0.757
48892,-1674.0,5096.0,4740.0,0.584,0.064,0.28,0.759
48904,-2068.0,5550.0,6188.0,0.578,0.066,0.285,0.762
48926,-1448.0,5800.0,5736.0,0.57,0.068,0.291,0.765
48938,-928.0,5792.0,3324.0,0.562,0.069,0.295,0.77
48960,-806.0,5610.0,2214.0,0.554,0.069,0.295,0.775
48972,118.0,4488.0,2670.0,0.547,0.063,0.288,0.784
48994,714.0,3260.0,5776.0,0.542,0.058,0.274,0.792
49016,1044.0,2904.0,8556.0,0.54,0.055,0.256,0.8
49028,-1264.0,2274.0,8376.0,0.539,0.056,0.237,0.807
49050,-436.0,1744.0,11278.0,0.536,0.054,0.221,0.813
49062,-642.0,1438.0,11078.0,0.533,0.051,0.211,0.817
49084,-284.0,1570.0,9996.0,0.533,0.047,0.207,0.819
49096,-1668.0,1412.0,10002.0,0.535,0.044,0.209,0.817
49118,-398.0,1112.0,6826.0,0.537,0.043,0.21,0.816
49130,-1258.0,992.0,5778.0,0.541,0.038,0.215,0.812
49152,-372.0,1220.0,12812.0,0.54,0.035,0.198,0.818
49164,-3826.0,1410.0,14236.0,0.542,0.043,0.197,0.816
49186,-2908.0,1214.0,8724.0,0.542,0.059,0.196,0.815
49208,-1820.0,2716.0,10572.0,0.54,0.068,0.193,0.816
49220,-1880.0,2422.0,16316.0,0.535,0.069,0.202,0.817
49242,90.0,2008.0,11846.0,0.529,0.067,0.218,0.818
49254,1242.0,1426.0,8310.0,0.524,0.065,0.235,0.816
49276,790.0,1610.0,6490.0,0.521,0.06,0.253,0.813
49288,308.0,1852.0,5732.0,0.519,0.058,0.268,0.81
49310,764.0,2218.0,3730.0,0.52,0.06,0.281,0.805
49322,-214.0,2938.0,3752.0,0.524,0.066,0.287,0.799
49344,-88.0,3860.0,4450.0,0.53,0.074,0.29,0.793
49356,-792.0,4432.0,4978.0,0.538,0.076,0.293,0.787
49378,-2154.0,5254.0,4746.0,0.542,0.072,0.3,0.782
49400,-3420.0,6464.0,3660.0,0.546,0.074,0.3,0.779
49412,-3780.0,7642.0,6828.0,0.547,0.08,0.295,0.779
49434,-2866.0,7276.0,9940.0,0.545,0.081,0.29,0.783
49446,-1020.0,6094.0,6986.0,0.538,0.079,0.292,0.787
49468,874.0,5224.0,2104.0,0.531,0.079,0.291,0.792
49480,746.0,4708.0,3886.0,0.526,0.082,0.284,0.797
49502,700.0,4592.0,4786.0,0.522,0.083,0.277,0.802
49514,554.0,4014.0,7204.0,0.521,0.084,0.265,0.807
49536,682.0,3388.0,10164.0,0.519,0.08,0.255,0.812
49548,-348.0,3156.0,9306.0,0.516,0.071,0.25,0.816
49570,-50.0,2862.0,7546.0,0.514,0.063,0.245,0.82
49592,-220.0,2084.0,9494.0,0.514,0.057,0.238,0.822
49604,646.0,1802.0,8334.0,0.517,0.046,0.233,0.823
49626,-596.0,720.0,7436.0,0.521,0.033,0.228,0.822
49638,-994.0,424.0,12218.0,0.529,0.036,0.216,0.82
49660,-2362.0,1062.0,13754.0,0.536,0.042,0.206,0.817
49672,-4700.0,1196.0,15040.0,0.54,0.053,0.21,0.813
49694,-1936.0,1430.0,9062.0,0.541,0.065,0.214,0.811
49706,-3560.0,3068.0,12266.0,0.54,0.073,0.218,0.809
49728,-1238.0,3116.0,7868.0,0.536,0.078,0.229,0.809
49740,-360.0,2776.0,6960.0,0.531,0.081,0.24,0.809
49762,1062.0,2788.0,4828.0,0.528,0.081,0.251,0.807
49784,928.0,2894.0,5638.0,0.528,0.082,0.258,0.805
49796,836.0,3232.0,6226.0,0.529,0.085,0.264,0.802
49818,222.0,3494.0,7252.0,0.533,0.089,0.268,0.798
49830,-478.0,4084.0,6448.0,0.536,0.091,0.274,0.793
49852,-1310.0,5026.0,3956.0,0.538,0.092,0.278,0.79
49864,-1290.0,5410.0,5884.0,0.538,0.09,0.281,0.79
49886,-860.0,5494.0,5568.0,0.538,0.088,0.283,0.79
49898,-1390.0,5478.0,7314.0,0.537,0.087,0.282,0.79
49920,-1096.0,4874.0,8490.0,0.536,0.086,0.281,0.792
49932,-222.0,4028.0,9872.0,0.535,0.085,0.28,0.793
49954,150.0,3374.0,9246.0,0.534,0.085,0.282,0.793
49976,920.0,2532.0,9304.0,0.534,0.085,0.284,0.792
49988,1308.0,2198.0,9848.0,0.536,0.084,0.288,0.789
50010,1300.0,2246.0,10700.0,0.541,0.081,0.294,0.784
50022,374.0,2150.0,9954.0,0.548,0.08,0.304,0.775
50044,170.0,2394.0,9312.0,0.559,0.084,0.314,0.763
50056,-2204.0,2718.0,7232.0,0.567,0.078,0.329,0.751
50078,-2818.0,3662.0,6338.0,0.572,0.07,0.347,0.74
50090,-3796.0,4176.0,5392.0,0.576,0.065,0.364,0.729
50117,-3230.0,4710.0,4874.0,0.579,0.063,0.378,0.72
50129,-2980.0,5302.0,4596.0,0.582,0.06,0.39,0.711
50151,-3534.0,5780.0,4938.0,0.586,0.057,0.399,0.703
50163,-3736.0,5900.0,5920.0,0.59,0.056,0.406,0.696
50185,-3536.0,6052.0,4690.0,0.591,0.054,0.414,0.69
50197,-3108.0,5952.0,4716.0,0.592,0.053,0.421,0.685
50219,-2908.0,5834.0,4724.0,0.592,0.052,0.428,0.681
50231,-2800.0,5900.0,4378.0,0.591,0.052,0.433,0.678
50253,-2796.0,5674.0,4136.0,0.592,0.053,0.436,0.676
50265,-2594.0,5528.0,3960.0,0.593,0.052,0.436,0.675
50287,-3780.0,5314.0,5106.0,0.596,0.052,0.434,0.674
50299,-3572.0,5300.0,5384.0,0.599,0.052,0.43,0.674
50321,-3670.0,5032.0,6250.0,0.601,0.053,0.426,0.674
50343,-3556.0,4748.0,6624.0,0.603,0.053,0.422,0.674
50355,-3272.0,4734.0,6422.0,0.605,0.053,0.42,0.675
50377,-2908.0,4640.0,6256.0,0.606,0.052,0.418,0.675
50389,-2836.0,4804.0,6100.0,0.607,0.051,0.416,0.675
50411,-2840.0,4806.0,6218.0,0.608,0.049,0.414,0.676
50423,-3028.0,4900.0,6628.0,0.609,0.048,0.413,0.675
50445,-3282.0,4886.0,6968.0,0.609,0.047,0.413,0.675
50457,-3074.0,4854.0,6582.0,0.609,0.046,0.413,0.676
50479,-2864.0,4764.0,6524.0,0.609,0.044,0.413,0.676
50491,-2964.0,4720.0,5812.0,0.608,0.042,0.414,0.676
50513,-3134.0,4764.0,5970.0,0.609,0.041,0.413,0.676
50535,-3248.0,4820.0,6286.0,0.609,0.04,0.412,0.676
50547,-3504.0,4726.0,6290.0,0.61,0.04,0.411,0.676
50569,-3162.0,4706.0,5956.0,0.61,0.04,0.41,0.677
50581,-2994.0,4580.0,6528.0,0.61,0.04,0.408,0.678
50603,-3172.0,4696.0,6770.0,0.611,0.039,0.407,0.678
50615,-3244.0,4766.0,6158.0,0.611,0.039,0.406,0.678
50637,-2980.0,4624.0,6528.0,0.611,0.038,0.405,0.679
50649,-3124.0,4646.0,6638.0,0.612,0.039,0.404,0.679
50671,-3166.0,4660.0,6348.0,0.612,0.038,0.402,0.68
50683,-3116.0,4508.0,6726.0,0.612,0.037,0.402,0.68
50705,-3206.0,4590.0,6576.0,0.611,0.036,0.402,0.681
50727,-3184.0,4628.0,6502.0,0.611,0.035,0.402,0.681
50739,-3158.0,4602.0,6634.0,0.61,0.033,0.403,0.682
50761,-3312.0,4648.0,6308.0,0.609,0.032,0.404,0.682
50773,-3204.0,4644.0,6284.0,0.608,0.031,0.404,0.682
50795,-3150.0,4656.0,6524.0,0.608,0.03,0.405,0.682
50807,-3188.0,4542.0,6150.0,0.608,0.03,0.405,0.683
50829,-3002.0,4572.0,6236.0,0.608,0.029,0.405,0.683
50841,-3008.0,4536.0,6628.0,0.607,0.029,0.404,0.683
50863,-3184.0,4596.0,6142.0,0.607,0.029,0.405,0.683
50875,-3322.0,4718.0,5920.0,0.607,0.028,0.404,0.683
50897,-3214.0,4646.0,6092.0,0.607,0.028,0.403,0.684
50919,-3288.0,4618.0,6344.0,0.608,0.028,0.403,0.684
50931,-3274.0,4560.0,6290.0,0.608,0.028,0.401,0.685
50953,-3092.0,4508.0,6336.0,0.608,0.028,0.4,0.686
50965,-3020.0,4458.0,6718.0,0.608,0.028,0.399,0.686
50987,-3090.0,4472.0,6866.0,0.608,0.028,0.398,0.687
50999,-3132.0,4404.0,6530.0,0.608,0.028,0.398,0.687
51021,-3062.0,4436.0,6420.0,0.608,0.028,0.397,0.687
51033,-3160.0,4540.0,6432.0,0.608,0.027,0.397,0.687
51055,-3150.0,4524.0,6618.0,0.608,0.027,0.396,0.687
51067,-3226.0,4454.0,6320.0,0.608,0.027,0.396,0.687
51089,-3196.0,4462.0,6486.0,0.609,0.027,0.395,0.687
51111,-3096.0,4554.0,6084.0,0.609,0.027,0.395,0.687
51123,-3094.0,4482.0,6526.0,0.61,0.027,0.393,0.688
51145,-3240.0,4548.0,6636.0,0.61,0.027,0.392,0.688
51157,-3350.0,4442.0,6962.0,0.611,0.027,0.391,0.688
51179,-3088.0,4460.0,6434.0,0.611,0.026,0.39,0.689
51191,-3110.0,4378.0,6414.0,0.611,0.026,0.389,0.689
51213,-3152.0,4462.0,6712.0,0.611,0.026,0.388,0.689
51225,-3244.0,4418.0,6662.0,0.611,0.025,0.388,0.69
51247,-3174.0,4332.0,6650.0,0.611,0.025,0.387,0.69
51259,-3098.0,4404.0,6466.0,0.611,0.026,0.386,0.691
51281,-3132.0,4364.0,6414.0,0.612,0.026,0.385,0.691
51303,-3324.0,4180.0,6428.0,0.612,0.026,0.384,0.691
51315,-3094.0,4338.0,6882.0,0.612,0.026,0.383,0.691
51337,-2940.0,4312.0,6668.0,0.613,0.026,0.382,0.691
51349,-2882.0,4354.0,6642.0,0.613,0.026,0.382,0.692
51371,-2968.0,4302.0,6640.0,0.612,0.026,0.381,0.692
51383,-3136.0,4328.0,6858.0,0.613,0.025,0.38,0.693
51405,-3110.0,4250.0,6564.0,0.612,0.025,0.38,0.693
51417,-2956.0,4338.0,6414.0,0.612,0.025,0.379,0.693
51439,-3046.0,4302.0,6622.0,0.612,0.024,0.378,0.694
51451,-3208.0,4336.0,6810.0,0.612,0.023,0.378,0.694
51473,-3244.0,4316.0,6872.0,0.612,0.022,0.377,0.695
51495,-3078.0,4236.0,6662.0,0.612,0.022,0.376,0.696
51507,-2796.0,4280.0,6424.0,0.612,0.022,0.375,0.696
51529,-3190.0,4242.0,6476.0,0.612,0.021,0.374,0.697
51541,-3044.0,4238.0,6966.0,0.612,0.021,0.373,0.697
51563,-3008.0,4172.0,6776.0,0.612,0.021,0.372,0.698
51575,-3000.0,4126.0,6844.0,0.612,0.021,0.371,0.698
51597,-2936.0,4152.0,6642.0,0.613,0.021,0.37,0.698
51609,-3032.0,4052.0,7098.0,0.613,0.02,0.368,0.699
51631,-3076.0,4118.0,7050.0,0.613,0.02,0.367,0.699
51643,-2940.0,4198.0,6688.0,0.613,0.02,0.367,0.699
51665,-2980.0,4152.0,6706.0,0.613,0.019,0.366,0.7
51687,-3010.0,4152.0,6994.0,0.614,0.019,0.364,0.7
51699,-3156.0,4122.0,7278.0,0.614,0.019,0.363,0.701
51721,-3064.0,4116.0,6936.0,0.614,0.018,0.362,0.701
51733,-2864.0,4030.0,7012.0,0.614,0.018,0.362,0.702
51755,-2972.0,4026.0,7140.0,0.614,0.018,0.361,0.702
51767,-3054.0,4054.0,7122.0,0.614,0.018,0.361,0.702
51789,-2882.0,4044.0,7072.0,0.614,0.018,0.361,0.702
51801,-2960.0,4100.0,6688.0,0.613,0.018,0.361,0.702
51823,-3072.0,4098.0,6676.0,0.613,0.018,0.361,0.702
51845,-3032.0,4132.0,6896.0,0.613,0.017,0.361,0.702
51857,-3068.0,4088.0,6736.0,0.613,0.017,0.361,0.703
51879,-3000.0,4066.0,6864.0,0.613,0.017,0.361,0.703
51891,-2936.0,4056.0,6754.0,0.613,0.017,0.36,0.703
51913,-2956.0,4024.0,6932.0,0.613,0.017,0.36,0.703
51925,-2920.0,4044.0,6906.0,0.612,0.016,0.36,0.704
51947,-2978.0,4022.0,6978.0,0.612,0.016,0.36,0.704
51959,-2992.0,4042.0,6674.0,0.612,0.016,0.36,0.704
51981,-2914.0,4066.0,6988.0,0.612,0.015,0.359,0.704
51993,-3090.0,4090.0,6820.0,0.612,0.015,0.359,0.704
52015,-2988.0,4100.0,6980.0,0.612,0.016,0.359,0.704
52027,-2898.0,4060.0,7020.0,0.613,0.016,0.358,0.704
52049,-2988.0,4090.0,6964.0,0.613,0.016,0.357,0.704
52071,-2962.0,4006.0,7288.0,0.614,0.016,0.357,0.704
52083,-2934.0,3972.0,6856.0,0.614,0.016,0.357,0.704
52105,-3086.0,4042.0,7008.0,0.614,0.016,0.357,0.704
52122,-3064.0,4058.0,6826.0,0.614,0.016,0.357,0.704
52134,-2980.0,4010.0,6780.0,0.614,0.016,0.357,0.704
52156,-2972.0,4020.0,6876.0,0.614,0.016,0.356,0.704
52168,-3010.0,4058.0,7056.0,0.614,0.016,0.356,0.705
52190,-2854.0,4032.0,6798.0,0.614,0.016,0.356,0.705
52202,-2930.0,4036.0,6842.0,0.614,0.016,0.356,0.705
52224,-2934.0,4034.0,6858.0,0.614,0.016,0.356,0.705
52236,-3094.0,4032.0,7126.0,0.614,0.016,0.355,0.705
52258,-3030.0,3954.0,7052.0,0.614,0.016,0.356,0.705
52280,-2864.0,4052.0,6564.0,0.613,0.015,0.356,0.705
52292,-2980.0,4046.0,6782.0,0.614,0.015,0.355,0.705
52314,-3036.0,4030.0,7220.0,0.614,0.015,0.355,0.705
52326,-2992.0,3994.0,7084.0,0.614,0.014,0.355,0.705
52348,-3008.0,3942.0,6966.0,0.614,0.014,0.355,0.705
52360,-2938.0,4010.0,6738.0,0.614,0.014,0.355,0.705
52382,-2946.0,3998.0,6704.0,0.614,0.013,0.354,0.705
52394,-3004.0,3994.0,7078.0,0.614,0.013,0.354,0.705
52416,-2954.0,3960.0,6874.0,0.615,0.013,0.354,0.705
52428,-2690.0,3934.0,6554.0,0.615,0.013,0.354,0.705
52450,-2794.0,4026.0,6086.0,0.616,0.013,0.353,0.704
52472,-2092.0,3936.0,5556.0,0.618,0.013,0.351,0.703
52484,-1626.0,3974.0,4588.0,0.623,0.013,0.347,0.701
52506,-3046.0,4048.0,10336.0,0.628,0.009,0.339,0.701
52518,-4896.0,3912.0,9526.0,0.632,0.009,0.338,0.697
52540,-3608.0,3594.0,6868.0,0.635,0.01,0.34,0.694
52552,-4768.0,3940.0,6358.0,0.636,0.013,0.342,0.692
52574,-4858.0,4052.0,7116.0,0.635,0.016,0.342,0.693
52586,-3238.0,3610.0,10596.0,0.632,0.022,0.342,0.695
52608,-2024.0,3514.0,7732.0,0.629,0.027,0.345,0.696
52620,-3844.0,3634.0,12064.0,0.624,0.029,0.349,0.699
52642,-2042.0,3464.0,7406.0,0.616,0.03,0.357,0.701
52664,-1758.0,3578.0,6568.0,0.609,0.03,0.365,0.704
52676,-1888.0,4216.0,5456.0,0.604,0.031,0.371,0.705
52698,-2498.0,4410.0,6114.0,0.602,0.037,0.373,0.705
52710,-2206.0,4654.0,6020.0,0.601,0.045,0.376,0.703
52732,-2084.0,4724.0,5414.0,0.601,0.053,0.379,0.702
52744,-2220.0,4856.0,5034.0,0.603,0.061,0.38,0.699
52766,-2156.0,4932.0,5190.0,0.605,0.069,0.378,0.697
52778,-2070.0,4864.0,5512.0,0.608,0.077,0.376,0.695
52800,-2014.0,5070.0,6028.0,0.611,0.083,0.373,0.693
52812,-2464.0,5008.0,6724.0,0.614,0.088,0.371,0.691
52834,-2604.0,4774.0,7118.0,0.617,0.093,0.368,0.689
52856,-2820.0,4760.0,7054.0,0.619,0.098,0.367,0.688
52868,-2740.0,4878.0,7394.0,0.619,0.102,0.367,0.687
52890,-2704.0,5022.0,8096.0,0.617,0.107,0.368,0.687
52902,-2082.0,4946.0,7262.0,0.616,0.114,0.371,0.686
52924,-1470.0,5070.0,6614.0,0.614,0.122,0.373,0.685
52936,-1328.0,5088.0,5634.0,0.613,0.13,0.374,0.684
52958,-1064.0,5126.0,5990.0,0.612,0.137,0.376,0.682
52970,-1380.0,5514.0,5916.0,0.611,0.142,0.379,0.68
52992,-1736.0,5776.0,5794.0,0.61,0.146,0.383,0.678
53004,-2170.0,5872.0,6818.0,0.609,0.15,0.388,0.676
53026,-2058.0,6026.0,6442.0,0.607,0.155,0.391,0.675
53048,-1612.0,6056.0,7202.0,0.605,0.162,0.394,0.673
53060,-1422.0,6494.0,6378.0,0.602,0.172,0.398,0.67
53082,-1368.0,6716.0,5748.0,0.6,0.186,0.401,0.667
53094,-1846.0,6750.0,4358.0,0.596,0.19,0.407,0.666
53116,-2172.0,7178.0,4098.0,0.592,0.191,0.408,0.668
53128,-1996.0,7418.0,3832.0,0.588,0.19,0.407,0.673
53150,-1634.0,7166.0,4114.0,0.585,0.186,0.403,0.679
53162,-1170.0,6912.0,6366.0,0.584,0.181,0.397,0.684
53184,-1108.0,6632.0,6510.0,0.583,0.18,0.395,0.687
53196,-522.0,6920.0,6000.0,0.584,0.183,0.393,0.686
53218,-438.0,6868.0,6410.0,0.587,0.191,0.395,0.681
53240,-1302.0,6322.0,4530.0,0.589,0.202,0.396,0.675
53252,-1168.0,6636.0,5012.0,0.589,0.213,0.395,0.671
53274,-198.0,6618.0,4574.0,0.589,0.224,0.393,0.67
53286,180.0,6644.0,3496.0,0.59,0.236,0.389,0.667
53308,286.0,6508.0,3762.0,0.594,0.244,0.381,0.665
53320,-574.0,6976.0,5216.0,0.599,0.251,0.37,0.664
53342,-1042.0,6702.0,5024.0,0.603,0.256,0.361,0.664
53354,-760.0,6186.0,5580.0,0.603,0.26,0.354,0.666
53376,-182.0,5844.0,5410.0,0.602,0.262,0.347,0.67
53388,-692.0,6712.0,6930.0,0.601,0.266,0.34,0.672
53410,-58.0,6086.0,6224.0,0.6,0.27,0.334,0.675
53432,-838.0,6298.0,5570.0,0.6,0.275,0.328,0.676
53444,-1072.0,5682.0,4922.0,0.599,0.283,0.319,0.677
53466,270.0,5400.0,5342.0,0.599,0.291,0.309,0.68
53478,426.0,4846.0,5390.0,0.596,0.294,0.3,0.684
53500,-6.0,4442.0,7098.0,0.592,0.295,0.289,0.692
53512,960.0,4860.0,9266.0,0.583,0.293,0.281,0.704
53534,-526.0,3964.0,9458.0,0.566,0.289,0.278,0.72
53546,2758.0,4152.0,6594.0,0.546,0.294,0.279,0.733
53568,7814.0,6748.0,1042.0,0.536,0.286,0.289,0.74
53580,-122.0,3632.0,5794.0,0.542,0.285,0.284,0.738
53602,1362.0,6876.0,7048.0,0.538,0.267,0.293,0.744
53624,-2696.0,4742.0,3524.0,0.519,0.228,0.315,0.761
53636,-3030.0,6502.0,6906.0,0.5,0.228,0.308,0.777
53658,1218.0,4644.0,6240.0,0.469,0.221,0.298,0.802
53670,4194.0,4894.0,7854.0,0.438,0.213,0.288,0.824
53692,6208.0,6012.0,6986.0,0.412,0.206,0.284,0.841
53704,7320.0,-116.0,5804.0,0.394,0.196,0.286,0.851
53726,6116.0,6082.0,5016.0,0.395,0.201,0.285,0.85
53738,4586.0,8590.0,6698.0,0.392,0.185,0.292,0.853
53760,3278.0,5518.0,4146.0,0.393,0.176,0.298,0.852
53772,1694.0,4970.0,4068.0,0.405,0.175,0.294,0.848
53794,56.0,4578.0,4894.0,0.42,0.178,0.283,0.844
53816,-1258.0,4626.0,5994.0,0.434,0.182,0.267,0.841
53828,-1488.0,4478.0,6898.0,0.442,0.188,0.25,0.841
53850,-760.0,4710.0,7560.0,0.444,0.196,0.233,0.843
53862,654.0,3842.0,7672.0,0.441,0.205,0.217,0.847
53884,1880.0,3390.0,7348.0,0.435,0.214,0.203,0.85
53896,2712.0,3710.0,6950.0,0.432,0.227,0.19,0.852
53918,3072.0,3512.0,6664.0,0.432,0.243,0.176,0.851
53930,2594.0,3902.0,7626.0,0.435,0.26,0.163,0.847
53952,1496.0,4128.0,8012.0,0.437,0.276,0.153,0.842
53974,1020.0,3418.0,6822.0,0.436,0.291,0.146,0.839
53986,1724.0,2516.0,6266.0,0.433,0.307,0.138,0.836
54008,2814.0,2094.0,7222.0,0.428,0.32,0.13,0.835
54020,3382.0,2694.0,7130.0,0.419,0.324,0.125,0.839
54042,4404.0,3740.0,6640.0,0.412,0.333,0.119,0.84
54054,5152.0,2792.0,7084.0,0.406,0.347,0.11,0.838
54076,5428.0,3910.0,8474.0,0.401,0.358,0.105,0.837
54088,5450.0,2802.0,7914.0,0.395,0.358,0.108,0.839
54110,5606.0,4202.0,8148.0,0.387,0.357,0.117,0.842
54127,5650.0,2800.0,6202.0,0.376,0.355,0.133,0.845
54139,5004.0,3030.0,3408.0,0.366,0.357,0.149,0.847
54161,4808.0,2740.0,1926.0,0.359,0.361,0.157,0.846
54183,4868.0,3030.0,1882.0,0.358,0.364,0.157,0.845
54195,5030.0,2996.0,3290.0,0.362,0.366,0.15,0.844
54217,4888.0,3100.0,4766.0,0.368,0.351,0.145,0.849
54229,4380.0,4078.0,6712.0,0.373,0.328,0.143,0.856
54251,3656.0,3782.0,7860.0,0.378,0.308,0.142,0.861
54263,2784.0,3068.0,7476.0,0.383,0.293,0.143,0.864
54285,2160.0,3336.0,7766.0,0.385,0.276,0.145,0.869
54297,2010.0,2708.0,7402.0,0.385,0.257,0.147,0.874
54319,2466.0,2532.0,6850.0,0.383,0.235,0.149,0.881
54341,3030.0,2538.0,6470.0,0.382,0.214,0.149,0.887
54353,2330.0,2134.0,6482.0,0.383,0.199,0.146,0.89
54375,1506.0,2370.0,7208.0,0.385,0.182,0.14,0.894
54387,1362.0,2112.0,7688.0,0.386,0.167,0.132,0.898
54409,1328.0,1998.0,7748.0,0.385,0.151,0.124,0.902
54421,1462.0,1546.0,8068.0,0.385,0.136,0.114,0.906
54443,1610.0,816.0,7932.0,0.384,0.117,0.105,0.91
54455,1730.0,-476.0,9048.0,0.385,0.094,0.094,0.913
54477,1614.0,-1080.0,9258.0,0.387,0.065,0.083,0.916
54489,1084.0,-928.0,9936.0,0.391,0.039,0.071,0.917
54511,246.0,-1486.0,10788.0,0.396,0.015,0.06,0.916
54523,-580.0,-1930.0,10924.0,0.402,-0.008,0.051,0.914
54545,-1132.0,-2578.0,11118.0,0.405,-0.027,0.046,0.913
54567,-1558.0,-2592.0,10956.0,0.407,-0.041,0.043,0.912
54579,-1382.0,-2754.0,10616.0,0.406,-0.053,0.043,0.912
54601,-670.0,-2460.0,10306.0,0.403,-0.063,0.045,0.912
54613,66.0,-1466.0,9910.0,0.402,-0.072,0.047,0.912
54635,-488.0,-1218.0,10330.0,0.404,-0.073,0.048,0.911
54647,-1318.0,-1278.0,10194.0,0.407,-0.072,0.052,0.909
54669,-1430.0,-1002.0,9414.0,0.408,-0.07,0.057,0.908
54681,-850.0,-666.0,8240.0,0.408,-0.07,0.064,0.908
54703,-132.0,-88.0,7352.0,0.409,-0.07,0.069,0.907
54715,110.0,104.0,7498.0,0.41,-0.07,0.072,0.906
54737,168.0,148.0,8362.0,0.413,-0.071,0.072,0.905
54759,-118.0,324.0,8830.0,0.417,-0.071,0.072,0.903
54771,-638.0,60.0,9018.0,0.422,-0.072,0.074,0.901
54793,-884.0,636.0,9158.0,0.426,-0.071,0.075,0.899
54805,-1000.0,86.0,8554.0,0.43,-0.07,0.079,0.897
54827,-1062.0,130.0,7856.0,0.433,-0.07,0.081,0.895
54839,-1176.0,306.0,7904.0,0.436,-0.07,0.082,0.894
54861,-1128.0,148.0,8362.0,0.437,-0.071,0.082,0.893
54873,-1102.0,112.0,8834.0,0.438,-0.074,0.082,0.892
54895,-1184.0,312.0,9230.0,0.44,-0.076,0.082,0.891
54907,-1330.0,4.0,9342.0,0.441,-0.077,0.084,0.89
54929,-1318.0,90.0,9034.0,0.441,-0.078,0.087,0.89
54951,-956.0,774.0,8424.0,0.441,-0.078,0.091,0.889
54963,-98.0,-168.0,7434.0,0.442,-0.079,0.093,0.889
54985,220.0,-12.0,7456.0,0.444,-0.078,0.092,0.888
54997,-104.0,244.0,7794.0,0.448,-0.075,0.089,0.886
55019,-648.0,42.0,8840.0,0.454,-0.073,0.086,0.884
55031,-1190.0,-280.0,9420.0,0.459,-0.071,0.083,0.882
55053,-1446.0,196.0,8976.0,0.464,-0.068,0.081,0.88
55065,-1316.0,292.0,8696.0,0.467,-0.064,0.08,0.878
55087,-1030.0,-32.0,9050.0,0.469,-0.06,0.079,0.877
55099,-904.0,-240.0,8942.0,0.47,-0.055,0.079,0.877
55121,-462.0,-566.0,9702.0,0.47,-0.048,0.081,0.878
55143,-26.0,-40.0,8704.0,0.47,-0.038,0.084,0.878
55155,236.0,232.0,8078.0,0.471,-0.024,0.085,0.878
55177,456.0,-10.0,8566.0,0.473,-0.005,0.083,0.877
55189,424.0,222.0,9718.0,0.475,0.014,0.082,0.876
55211,808.0,846.0,9702.0,0.476,0.034,0.086,0.875
55223,1284.0,1244.0,8226.0,0.477,0.052,0.093,0.873
55245,1410.0,2576.0,6306.0,0.478,0.069,0.099,0.87
55257,1332.0,2390.0,6086.0,0.483,0.086,0.099,0.866
55279,956.0,2138.0,7698.0,0.488,0.099,0.094,0.862
55291,872.0,2376.0,8620.0,0.491,0.104,0.09,0.86
55313,858.0,2170.0,9360.0,0.493,0.105,0.088,0.859
55335,1000.0,1968.0,9502.0,0.493,0.103,0.089,0.859
55347,1262.0,2064.0,8902.0,0.492,0.1,0.091,0.86
55369,1376.0,2090.0,8060.0,0.492,0.1,0.092,0.86
55381,1296.0,1922.0,8454.0,0.492,0.101,0.09,0.86
55403,1420.0,1742.0,8760.0,0.492,0.103,0.09,0.86
55415,1714.0,1496.0,8362.0,0.491,0.106,0.09,0.86
55437,2040.0,1540.0,8154.0,0.491,0.108,0.09,0.86
55449,2032.0,1674.0,8310.0,0.491,0.11,0.089,0.86
55471,1730.0,1220.0,9420.0,0.492,0.112,0.088,0.859
55483,1860.0,1264.0,9768.0,0.491,0.115,0.091,0.859
55505,2118.0,1808.0,9000.0,0.49,0.119,0.096,0.858
55527,2224.0,1624.0,8050.0,0.49,0.124,0.103,0.857
55539,2168.0,2140.0,7200.0,0.49,0.129,0.108,0.855
55561,1992.0,2036.0,7010.0,0.491,0.132,0.111,0.854
55573,1754.0,2190.0,7298.0,0.492,0.134,0.112,0.853
55595,1762.0,2114.0,7872.0,0.492,0.134,0.113,0.853
55607,1888.0,2066.0,8102.0,0.493,0.132,0.114,0.853
55629,1878.0,2458.0,8524.0,0.493,0.131,0.114,0.852
55641,1554.0,2500.0,8594.0,0.494,0.13,0.115,0.852
55663,996.0,2558.0,8452.0,0.495,0.13,0.115,0.851
55675,788.0,2436.0,8468.0,0.495,0.13,0.116,0.852
55697,1144.0,2204.0,8370.0,0.492,0.128,0.117,0.853
55719,1702.0,2318.0,8200.0,0.489,0.127,0.117,0.855
55731,2034.0,2376.0,8538.0,0.487,0.125,0.117,0.856
55753,2020.0,2140.0,8824.0,0.485,0.124,0.117,0.857
55765,1960.0,2170.0,8886.0,0.484,0.123,0.117,0.858
55787,1894.0,2048.0,8768.0,0.484,0.124,0.117,0.858
55799,1908.0,1972.0,8488.0,0.483,0.124,0.118,0.858
55821,2000.0,2002.0,7642.0,0.483,0.125,0.12,0.858
55833,2018.0,2040.0,7406.0,0.483,0.125,0.121,0.858
55855,1810.0,2050.0,7524.0,0.484,0.124,0.12,0.858
55867,1776.0,1842.0,8104.0,0.485,0.122,0.12,0.858
55889,1700.0,1858.0,8304.0,0.485,0.121,0.12,0.858
55911,1838.0,1812.0,8214.0,0.485,0.121,0.12,0.858
55923,2026.0,1936.0,7702.0,0.486,0.12,0.121,0.857
55945,1958.0,1968.0,7666.0,0.487,0.119,0.121,0.857
55957,1506.0,2190.0,7918.0,0.489,0.118,0.121,0.856
55979,1180.0,2160.0,8040.0,0.49,0.116,0.12,0.856
55991,1092.0,2240.0,8510.0,0.491,0.114,0.119,0.856
56013,1230.0,2198.0,8938.0,0.49,0.113,0.119,0.856
56025,1540.0,2304.0,8900.0,0.49,0.111,0.12,0.856
56047,1710.0,2148.0,8420.0,0.49,0.111,0.121,0.856
56059,1620.0,2158.0,8160.0,0.49,0.11,0.121,0.856
56081,1346.0,2120.0,8326.0,0.491,0.109,0.122,0.856
56103,1274.0,1984.0,8192.0,0.491,0.108,0.122,0.856
56115,1430.0,2026.0,8312.0,0.491,0.106,0.121,0.856
56132,1346.0,1996.0,8654.0,0.492,0.105,0.121,0.856
56154,1264.0,1900.0,8580.0,0.492,0.105,0.121,0.856
56166,1394.0,1912.0,8240.0,0.492,0.104,0.122,0.856
56188,1614.0,2142.0,7894.0,0.492,0.103,0.122,0.856
56200,1612.0,2174.0,7968.0,0.492,0.102,0.121,0.856
56222,1390.0,2136.0,8066.0,0.493,0.1,0.121,0.856
56234,1168.0,2074.0,8390.0,0.494,0.098,0.119,0.856
56256,1080.0,2048.0,8650.0,0.494,0.096,0.118,0.856
56278,1106.0,2008.0,9302.0,0.493,0.091,0.119,0.857
56290,1312.0,2064.0,7788.0,0.493,0.089,0.119,0.857
56312,1248.0,2000.0,8154.0,0.494,0.088,0.118,0.857
56324,1236.0,1902.0,8250.0,0.494,0.087,0.117,0.857
56346,1024.0,1930.0,8230.0,0.494,0.081,0.117,0.858
56358,956.0,1880.0,8436.0,0.494,0.08,0.116,0.858
56380,950.0,1814.0,8638.0,0.494,0.079,0.115,0.858
56392,1186.0,1784.0,8124.0,0.494,0.078,0.114,0.859
56414,1260.0,1920.0,7898.0,0.494,0.077,0.112,0.859
56426,1158.0,1986.0,7872.0,0.494,0.074,0.109,0.859
56448,970.0,1982.0,7554.0,0.495,0.071,0.106,0.859
56470,1034.0,1770.0,6246.0,0.495,0.067,0.103,0.86
56482,1308.0,1530.0,5626.0,0.496,0.059,0.096,0.861
56504,1354.0,1048.0,6252.0,0.497,0.049,0.086,0.862
56516,1352.0,532.0,7414.0,0.498,0.038,0.073,0.863
56538,1340.0,86.0,8226.0,0.5,0.024,0.06,0.864
56550,1012.0,-172.0,9024.0,0.502,0.01,0.046,0.863
56572,394.0,-580.0,10570.0,0.506,-0.002,0.032,0.862
56584,-170.0,-590.0,12074.0,0.508,-0.011,0.021,0.861
56606,-270.0,-778.0,12258.0,0.508,-0.015,0.018,0.861
56628,94.0,-750.0,10658.0,0.507,-0.018,0.02,0.862
56640,594.0,-696.0,9430.0,0.505,-0.02,0.023,0.863
56662,778.0,-556.0,8946.0,0.504,-0.021,0.025,0.863
56674,700.0,-290.0,9054.0,0.504,-0.022,0.027,0.863
56696,350.0,-220.0,8904.0,0.505,-0.022,0.029,0.863
56708,118.0,-252.0,8464.0,0.505,-0.023,0.031,0.863
56730,200.0,-294.0,8258.0,0.504,-0.024,0.031,0.863
56742,240.0,-336.0,8762.0,0.504,-0.025,0.03,0.863
56764,190.0,-418.0,9662.0,0.504,-0.026,0.03,0.863
56776,322.0,-498.0,9474.0,0.503,-0.027,0.032,0.863
56798,494.0,-616.0,9304.0,0.502,-0.027,0.033,0.864
56810,594.0,-306.0,8982.0,0.502,-0.026,0.036,0.864
56832,670.0,-352.0,8168.0,0.502,-0.025,0.038,0.864
56854,544.0,-240.0,7946.0,0.502,-0.024,0.039,0.863
56866,502.0,-196.0,8636.0,0.503,-0.024,0.039,0.863
56888,312.0,-146.0,9010.0,0.503,-0.025,0.04,0.863
56900,58.0,-254.0,9172.0,0.504,-0.025,0.041,0.863
56922,42.0,-70.0,8984.0,0.503,-0.025,0.044,0.863
56934,186.0,36.0,8428.0,0.503,-0.026,0.046,0.863
56956,172.0,2.0,8412.0,0.502,-0.026,0.048,0.863
56968,110.0,96.0,8694.0,0.502,-0.026,0.049,0.863
56990,162.0,154.0,8408.0,0.501,-0.027,0.05,0.864
57002,220.0,208.0,8550.0,0.501,-0.028,0.05,0.864
57024,60.0,118.0,8880.0,0.501,-0.029,0.049,0.864
57046,-90.0,10.0,9140.0,0.501,-0.029,0.049,0.864
57058,-52.0,14.0,9152.0,0.5,-0.03,0.051,0.864
57080,100.0,100.0,8654.0,0.5,-0.029,0.052,0.864
57092,206.0,64.0,8356.0,0.499,-0.029,0.053,0.864
57114,338.0,68.0,8340.0,0.499,-0.029,0.053,0.864
57126,366.0,-68.0,8558.0,0.499,-0.029,0.053,0.864
57148,312.0,-82.0,8794.0,0.499,-0.029,0.053,0.864
57160,230.0,-36.0,8602.0,0.5,-0.029,0.053,0.864
57182,242.0,-2.0,8602.0,0.501,-0.029,0.052,0.864
57194,60.0,54.0,8620.0,0.501,-0.029,0.052,0.863
57216,-8.0,-22.0,8758.0,0.502,-0.03,0.052,0.863
57238,-80.0,-160.0,8724.0,0.502,-0.03,0.052,0.863
57250,-96.0,26.0,8920.0,0.503,-0.031,0.051,0.862
57272,-112.0,28.0,8998.0,0.503,-0.032,0.051,0.862
57284,-80.0,82.0,8932.0,0.503,-0.033,0.05,0.862
57306,-20.0,-86.0,8880.0,0.503,-0.033,0.05,0.862
57318,-102.0,-40.0,8754.0,0.503,-0.033,0.05,0.862
57340,-38.0,-34.0,8634.0,0.503,-0.033,0.05,0.862
57352,18.0,-144.0,8622.0,0.503,-0.033,0.05,0.862
57374,156.0,-172.0,8436.0,0.503,-0.033,0.049,0.862
57386,332.0,-150.0,8458.0,0.503,-0.032,0.049,0.862
57408,324.0,8.0,8514.0,0.504,-0.032,0.047,0.862
57430,250.0,8.0,8686.0,0.505,-0.031,0.045,0.861
57442,124.0,-144.0,8644.0,0.506,-0.031,0.043,0.861
57464,-150.0,-324.0,8914.0,0.507,-0.032,0.041,0.86
57476,-252.0,-422.0,8918.0,0.508,-0.035,0.04,0.86
57498,-344.0,-392.0,9204.0,0.508,-0.038,0.04,0.86
57510,-138.0,-296.0,9450.0,0.507,-0.041,0.039,0.86
57532,-6.0,-232.0,9242.0,0.506,-0.043,0.04,0.861
57544,128.0,-218.0,8806.0,0.505,-0.043,0.041,0.861
57566,334.0,-74.0,8436.0,0.506,-0.041,0.041,0.861
57578,364.0,-6.0,8376.0,0.507,-0.038,0.04,0.86
57600,162.0,-88.0,8738.0,0.508,-0.034,0.038,0.86
57622,-174.0,-194.0,8964.0,0.51,-0.032,0.036,0.859
57634,-228.0,-172.0,9090.0,0.511,-0.031,0.035,0.859
57656,-230.0,-312.0,9060.0,0.51,-0.031,0.036,0.859
57668,-86.0,-180.0,8872.0,0.51,-0.032,0.036,0.859
57690,174.0,-180.0,8654.0,0.509,-0.034,0.037,0.859
57702,242.0,-252.0,8614.0,0.508,-0.035,0.038,0.86
57724,312.0,-218.0,8736.0,0.508,-0.035,0.038,0.86
57736,228.0,-254.0,8764.0,0.508,-0.034,0.038,0.86
57758,180.0,-316.0,8808.0,0.508,-0.034,0.038,0.86
57770,68.0,-296.0,8750.0,0.509,-0.034,0.038,0.859
57792,28.0,-280.0,8684.0,0.509,-0.034,0.038,0.86
57814,24.0,-188.0,8642.0,0.508,-0.035,0.039,0.86
57826,142.0,-172.0,8766.0,0.508,-0.035,0.039,0.86
57848,226.0,-214.0,8702.0,0.508,-0.035,0.039,0.86
57860,258.0,-250.0,8568.0,0.508,-0.034,0.039,0.86
57882,146.0,-206.0,8756.0,0.509,-0.033,0.038,0.859
57894,72.0,-238.0,8900.0,0.509,-0.033,0.038,0.859
57916,4.0,-318.0,8938.0,0.509,-0.033,0.038,0.859
57928,38.0,-242.0,8846.0,0.51,-0.031,0.038,0.859
57950,84.0,-220.0,8668.0,0.51,-0.031,0.038,0.859
57962,-8.0,-314.0,8744.0,0.51,-0.03,0.037,0.859
57984,40.0,-426.0,9206.0,0.511,-0.03,0.037,0.858
58006,108.0,-254.0,9288.0,0.511,-0.029,0.037,0.858
58018,236.0,-162.0,8716.0,0.511,-0.028,0.038,0.858
58040,120.0,-142.0,8718.0,0.512,-0.027,0.038,0.858
58052,-16.0,-218.0,8582.0,0.512,-0.027,0.038,0.858
58074,128.0,-208.0,8474.0,0.512,-0.026,0.038,0.858
58086,308.0,-132.0,8458.0,0.512,-0.026,0.039,0.858
58108,352.0,-156.0,8582.0,0.512,-0.027,0.039,0.858
58120,444.0,-150.0,8882.0,0.512,-0.027,0.038,0.858
58137,372.0,-130.0,8976.0,0.512,-0.027,0.038,0.858
58159,124.0,-118.0,8894.0,0.513,-0.026,0.038,0.857
58181,-58.0,-80.0,8800.0,0.513,-0.026,0.039,0.857
58193,-106.0,-222.0,8786.0,0.514,-0.026,0.039,0.857
58215,-78.0,-250.0,8822.0,0.513,-0.027,0.039,0.857
58227,214.0,-242.0,8910.0,0.513,-0.028,0.04,0.857
58249,298.0,-260.0,8880.0,0.512,-0.028,0.04,0.857
58261,350.0,-228.0,8768.0,0.513,-0.028,0.04,0.857
58283,156.0,-210.0,8668.0,0.513,-0.027,0.04,0.857
58295,2.0,-158.0,8802.0,0.514,-0.027,0.04,0.857
58317,-160.0,-98.0,9088.0,0.514,-0.026,0.04,0.856
58329,-204.0,-156.0,9016.0,0.514,-0.026,0.041,0.856
58351,-2.0,-72.0,8770.0,0.514,-0.026,0.041,0.857
58373,124.0,-44.0,8528.0,0.513,-0.026,0.042,0.857
58385,248.0,-100.0,8396.0,0.513,-0.027,0.042,0.857
58407,240.0,-144.0,8664.0,0.513,-0.027,0.042,0.857
58419,164.0,-96.0,8834.0,0.513,-0.027,0.042,0.857
58441,118.0,-252.0,8790.0,0.513,-0.027,0.042,0.857
58453,228.0,-286.0,8870.0,0.513,-0.027,0.042,0.857
58475,344.0,-192.0,8814.0,0.513,-0.027,0.043,0.857
58487,334.0,-94.0,8744.0,0.513,-0.026,0.042,0.857
58509,122.0,-98.0,8918.0,0.514,-0.026,0.042,0.856
58521,-54.0,-116.0,8862.0,0.515,-0.026,0.043,0.856
58543,-16.0,-108.0,8664.0,0.515,-0.026,0.043,0.856
58565,96.0,4.0,8756.0,0.515,-0.026,0.044,0.856
58577,74.0,-36.0,8836.0,0.515,-0.026,0.044,0.856
58599,-10.0,-24.0,8896.0,0.515,-0.026,0.044,0.856
58611,-6.0,-42.0,8724.0,0.515,-0.025,0.044,0.856
58633,-2.0,30.0,8472.0,0.515,-0.025,0.044,0.856
58645,-12.0,-106.0,8662.0,0.515,-0.025,0.044,0.856
58667,74.0,-114.0,8978.0,0.515,-0.025,0.044,0.856
58679,22.0,-132.0,8960.0,0.515,-0.025,0.044,0.856
58701,150.0,-184.0,8840.0,0.515,-0.026,0.045,0.856
58713,226.0,-70.0,8710.0,0.515,-0.025,0.045,0.856
58735,230.0,-56.0,8578.0,0.515,-0.025,0.046,0.856
58757,282.0,-76.0,8570.0,0.515,-0.025,0.045,0.856
58769,164.0,-10.0,8798.0,0.515,-0.024,0.045,0.856
58791,66.0,-108.0,8944.0,0.516,-0.024,0.045,0.855
58803,4.0,-48.0,8872.0,0.516,-0.024,0.045,0.855
58825,60.0,-32.0,8668.0,0.516,-0.024,0.045,0.855
58837,90.0,34.0,8828.0,0.516,-0.023,0.045,0.855
58859,-36.0,-66.0,8998.0,0.516,-0.023,0.044,0.855
58871,-6.0,-116.0,8798.0,0.516,-0.024,0.045,0.855
58893,116.0,-36.0,8700.0,0.516,-0.024,0.045,0.855
58905,288.0,6.0,8612.0,0.516,-0.024,0.046,0.855
58927,214.0,-48.0,8402.0,0.516,-0.024,0.045,0.855
58949,132.0,-22.0,8676.0,0.516,-0.023,0.045,0.855
58961,-104.0,-38.0,9028.0,0.517,-0.023,0.045,0.855
58983,-224.0,-50.0,8994.0,0.517,-0.024,0.045,0.854
58995,-254.0,-42.0,9008.0,0.517,-0.024,0.045,0.855
59017,-84.0,-40.0,8854.0,0.516,-0.025,0.046,0.855
59029,130.0,-52.0,8702.0,0.516,-0.026,0.046,0.855
59051,204.0,-78.0,8712.0,0.516,-0.026,0.046,0.855
59063,154.0,-90.0,8624.0,0.516,-0.026,0.046,0.855
59085,140.0,-40.0,8520.0,0.516,-0.026,0.046,0.855
59097,218.0,-114.0,8584.0,0.516,-0.025,0.045,0.855
59119,186.0,-146.0,8664.0,0.517,-0.025,0.044,0.855
59141,196.0,-82.0,8798.0,0.517,-0.024,0.043,0.854
59153,174.0,-38.0,8800.0,0.518,-0.023,0.042,0.854
59175,182.0,-8.0,8908.0,0.519,-0.021,0.041,0.853
59187,-20.0,-88.0,8872.0,0.52,-0.02,0.04,0.853
59209,-4.0,-82.0,8858.0,0.521,-0.019,0.039,0.852
59221,-24.0,-112.0,8730.0,0.522,-0.019,0.038,0.852
59243,124.0,-136.0,8712.0,0.522,-0.019,0.038,0.852
59255,326.0,-82.0,8598.0,0.522,-0.019,0.037,0.852
59277,452.0,-124.0,8564.0,0.522,-0.019,0.036,0.852
59289,484.0,-80.0,8554.0,0.523,-0.017,0.035,0.852
59311,440.0,-130.0,8394.0,0.524,-0.017,0.033,0.851
59333,370.0,-156.0,8436.0,0.525,-0.015,0.03,0.85
59345,184.0,-212.0,8668.0,0.527,-0.015,0.026,0.85
59367,96.0,-242.0,8996.0,0.528,-0.016,0.023,0.849
59379,112.0,-314.0,8970.0,0.529,-0.017,0.021,0.848
59401,90.0,-612.0,8994.0,0.529,-0.018,0.019,0.848
59413,294.0,-660.0,9134.0,0.529,-0.02,0.017,0.848
59435,398.0,-514.0,9092.0,0.528,-0.022,0.016,0.849
59447,470.0,-608.0,9126.0,0.528,-0.024,0.016,0.849
59469,516.0,-346.0,9044.0,0.528,-0.024,0.015,0.849
59481,392.0,-428.0,8862.0,0.529,-0.024,0.015,0.848
59503,388.0,-426.0,8560.0,0.53,-0.022,0.015,0.848
59525,358.0,-354.0,8420.0,0.53,-0.02,0.015,0.848
59537,310.0,-478.0,8584.0,0.531,-0.02,0.014,0.847
59559,308.0,-496.0,9040.0,0.531,-0.02,0.014,0.847
59571,344.0,-472.0,8772.0,0.531,-0.021,0.014,0.847
59593,500.0,-200.0,8790.0,0.532,-0.022,0.014,0.847
59605,650.0,-634.0,8624.0,0.532,-0.022,0.013,0.846
59627,1136.0,-1078.0,8400.0,0.533,-0.022,0.012,0.846
59639,724.0,-128.0,9090.0,0.536,-0.02,0.01,0.844
59661,-90.0,-754.0,9026.0,0.539,-0.019,0.009,0.842
59673,-272.0,-674.0,8884.0,0.54,-0.019,0.008,0.841
59695,-348.0,-568.0,9042.0,0.541,-0.018,0.008,0.841
59717,-98.0,-530.0,8822.0,0.54,-0.019,0.009,0.841
59729,234.0,-598.0,8842.0,0.539,-0.021,0.01,0.842
59751,564.0,-458.0,8972.0,0.538,-0.023,0.011,0.843
59763,786.0,-450.0,8748.0,0.537,-0.024,0.012,0.843
59785,740.0,-470.0,8442.0,0.537,-0.024,0.012,0.843
59797,604.0,-486.0,8568.0,0.538,-0.024,0.011,0.843
59819,422.0,-502.0,8606.0,0.538,-0.022,0.01,0.842
59831,244.0,-482.0,8608.0,0.539,-0.022,0.01,0.842
59853,260.0,-566.0,8948.0,0.54,-0.021,0.009,0.842
59865,240.0,-576.0,8950.0,0.54,-0.021,0.009,0.842
59887,414.0,-550.0,8790.0,0.54,-0.021,0.009,0.842
59909,462.0,-568.0,8790.0,0.54,-0.02,0.009,0.841
59921,336.0,-576.0,8900.0,0.54,-0.02,0.009,0.841
59943,312.0,-538.0,8948.0,0.54,-0.02,0.009,0.841
59955,188.0,-540.0,8794.0,0.54,-0.02,0.009,0.841
59977,296.0,-564.0,8742.0,0.54,-0.021,0.01,0.841
59989,456.0,-570.0,8574.0,0.54,-0.021,0.01,0.841
60011,600.0,-462.0,8596.0,0.54,-0.021,0.01,0.841
60023,502.0,-448.0,8758.0,0.54,-0.02,0.01,0.841
60045,288.0,-450.0,8960.0,0.541,-0.02,0.009,0.841
60057,134.0,-456.0,8932.0,0.541,-0.019,0.009,0.841
60079,-10.0,-364.0,8730.0,0.541,-0.019,0.01,0.841
60101,54.0,-522.0,8746.0,0.541,-0.02,0.01,0.841
60113,260.0,-518.0,8794.0,0.54,-0.021,0.011,0.841
60140,584.0,-526.0,8720.0,0.539,-0.022,0.011,0.842
60152,686.0,-654.0,8690.0,0.539,-0.023,0.011,0.842
60164,714.0,-560.0,8554.0,0.539,-0.022,0.011,0.842
60186,640.0,-594.0,8694.0,0.54,-0.022,0.011,0.842
60198,478.0,-642.0,8646.0,0.54,-0.022,0.011,0.841
60220,316.0,-534.0,8822.0,0.541,-0.021,0.01,0.841
60232,320.0,-506.0,8928.0,0.542,-0.02,0.01,0.84
60254,286.0,-452.0,8924.0,0.542,-0.019,0.01,0.84
60266,248.0,-428.0,8842.0,0.542,-0.019,0.01,0.84
60288,230.0,-438.0,8870.0,0.543,-0.019,0.01,0.84
60310,188.0,-528.0,8916.0,0.543,-0.019,0.01,0.84
60322,318.0,-492.0,8816.0,0.542,-0.02,0.011,0.84
60344,438.0,-446.0,8682.0,0.542,-0.019,0.011,0.84
60356,394.0,-462.0,8668.0,0.543,-0.019,0.011,0.84
60378,336.0,-504.0,8684.0,0.543,-0.019,0.011,0.84
60390,254.0,-572.0,8766.0,0.543,-0.02,0.011,0.84
60412,284.0,-488.0,8798.0,0.543,-0.02,0.012,0.84
60424,446.0,-522.0,8690.0,0.542,-0.02,0.012,0.84
60446,432.0,-508.0,8746.0,0.542,-0.021,0.012,0.84
60458,354.0,-500.0,9062.0,0.543,-0.02,0.012,0.84
60480,298.0,-488.0,8922.0,0.543,-0.02,0.012,0.839
60502,316.0,-492.0,8568.0,0.543,-0.02,0.012,0.839
60514,332.0,-400.0,8680.0,0.543,-0.02,0.012,0.839
60536,406.0,-398.0,8762.0,0.543,-0.02,0.012,0.839
60548,406.0,-420.0,8866.0,0.543,-0.02,0.012,0.839
60570,314.0,-444.0,8870.0,0.544,-0.02,0.012,0.839
60582,318.0,-498.0,8696.0,0.544,-0.02,0.013,0.839
60604,384.0,-468.0,8662.0,0.544,-0.02,0.013,0.839
60616,344.0,-360.0,8806.0,0.544,-0.02,0.013,0.839
60638,316.0,-444.0,8718.0,0.545,-0.02,0.012,0.838
60650,240.0,-498.0,8742.0,0.545,-0.02,0.012,0.838
60672,222.0,-484.0,8882.0,0.545,-0.02,0.012,0.838
60694,286.0,-480.0,8810.0,0.545,-0.02,0.012,0.838
60706,418.0,-448.0,8642.0,0.545,-0.02,0.013,0.838
60728,402.0,-430.0,8634.0,0.545,-0.021,0.012,0.838
60740,396.0,-464.0,8878.0,0.545,-0.021,0.012,0.838
60762,276.0,-484.0,8950.0,0.545,-0.021,0.012,0.838
60774,194.0,-532.0,8816.0,0.545,-0.021,0.013,0.838
60796,256.0,-444.0,8656.0,0.545,-0.021,0.013,0.838
60808,358.0,-484.0,8552.0,0.545,-0.021,0.013,0.838
60830,378.0,-522.0,8774.0,0.545,-0.022,0.013,0.838
60842,380.0,-504.0,8982.0,0.545,-0.022,0.013,0.838
60864,426.0,-492.0,8836.0,0.545,-0.022,0.013,0.838
60886,322.0,-500.0,8646.0,0.545,-0.022,0.013,0.838
60898,244.0,-522.0,8698.0,0.546,-0.021,0.013,0.838
60920,238.0,-510.0,8778.0,0.546,-0.021,0.013,0.838
60932,276.0,-502.0,8820.0,0.546,-0.021,0.013,0.837
60954,282.0,-456.0,8830.0,0.546,-0.021,0.013,0.837
60966,310.0,-376.0,8660.0,0.546,-0.021,0.013,0.837
60988,242.0,-546.0,8790.0,0.547,-0.021,0.013,0.837
61000,250.0,-502.0,8842.0,0.547,-0.021,0.013,0.837
61022,324.0,-430.0,8692.0,0.547,-0.021,0.013,0.837
61044,308.0,-462.0,8634.0,0.547,-0.021,0.013,0.837
61056,302.0,-486.0,8856.0,0.547,-0.021,0.013,0.837
61078,214.0,-484.0,8830.0,0.547,-0.021,0.013,0.837
61090,222.0,-494.0,8804.0,0.547,-0.021,0.013,0.837
61112,354.0,-422.0,8722.0,0.547,-0.021,0.013,0.837
61124,376.0,-446.0,8700.0,0.547,-0.022,0.013,0.837
61146,330.0,-486.0,8906.0,0.547,-0.022,0.013,0.837
61158,312.0,-424.0,8898.0,0.547,-0.022,0.013,0.836
61180,234.0,-418.0,8554.0,0.548,-0.021,0.014,0.836
61192,274.0,-460.0,8568.0,0.548,-0.022,0.014,0.836
61214,220.0,-518.0,8894.0,0.548,-0.023,0.014,0.836
61226,226.0,-500.0,8998.0,0.547,-0.024,0.014,0.836
61248,432.0,-398.0,8806.0,0.547,-0.024,0.015,0.836
61270,396.0,-472.0,8494.0,0.548,-0.024,0.015,0.836
61282,160.0,-496.0,8650.0,0.548,-0.023,0.014,0.836
61304,112.0,-506.0,8888.0,0.548,-0.023,0.014,0.836
61316,114.0,-538.0,8876.0,0.548,-0.023,0.014,0.836
61338,260.0,-564.0,8690.0,0.548,-0.024,0.014,0.836
61350,380.0,-518.0,8696.0,0.548,-0.024,0.015,0.836
61372,398.0,-460.0,8802.0,0.548,-0.025,0.015,0.836
61384,372.0,-460.0,8926.0,0.549,-0.025,0.015,0.836
61406,244.0,-516.0,8818.0,0.549,-0.024,0.015,0.835
61428,128.0,-448.0,8762.0,0.55,-0.024,0.015,0.835
61440,110.0,-440.0,8708.0,0.55,-0.023,0.015,0.835
61462,136.0,-414.0,8670.0,0.55,-0.023,0.015,0.835
61474,216.0,-392.0,8658.0,0.55,-0.023,0.015,0.835
61496,284.0,-458.0,8682.0,0.55,-0.023,0.015,0.835
61508,244.0,-470.0,8924.0,0.55,-0.024,0.015,0.835
61530,250.0,-412.0,8994.0,0.55,-0.024,0.015,0.835
61542,274.0,-490.0,8794.0,0.55,-0.024,0.016,0.834
61564,282.0,-410.0,8654.0,0.55,-0.024,0.016,0.834
61576,246.0,-386.0,8550.0,0.551,-0.024,0.016,0.834
61598,138.0,-446.0,8694.0,0.551,-0.024,0.016,0.834
61620,164.0,-432.0,8824.0,0.551,-0.024,0.015,0.834
61632,204.0,-536.0,8904.0,0.551,-0.024,0.015,0.834
61654,254.0,-556.0,8896.0,0.551,-0.025,0.016,0.834
61666,380.0,-488.0,8744.0,0.551,-0.025,0.016,0.834
61688,482.0,-354.0,8682.0,0.551,-0.025,0.016,0.834
61700,292.0,-546.0,8710.0,0.552,-0.024,0.015,0.833
61722,82.0,-494.0,8800.0,0.553,-0.023,0.014,0.832
61734,36.0,-554.0,8894.0,0.554,-0.023,0.014,0.832
61756,64.0,-470.0,9040.0,0.554,-0.023,0.014,0.832
61768,226.0,-390.0,8582.0,0.554,-0.024,0.015,0.832
61790,352.0,-396.0,8422.0,0.554,-0.025,0.016,0.832
61812,406.0,-354.0,8726.0,0.554,-0.025,0.015,0.832
61824,264.0,-486.0,9026.0,0.554,-0.025,0.015,0.832
61846,78.0,-474.0,9042.0,0.555,-0.024,0.015,0.831
61858,96.0,-490.0,8720.0,0.555,-0.024,0.015,0.831
61880,158.0,-506.0,8642.0,0.555,-0.024,0.015,0.831
61892,206.0,-520.0,8804.0,0.555,-0.024,0.016,0.831
61914,272.0,-454.0,8844.0,0.555,-0.025,0.016,0.831
61926,274.0,-466.0,8856.0,0.555,-0.024,0.016,0.831
61948,272.0,-426.0,8636.0,0.556,-0.024,0.016,0.831
61960,266.0,-454.0,8598.0,0.556,-0.024,0.016,0.831
61982,140.0,-422.0,8768.0,0.556,-0.024,0.016,0.83
62004,204.0,-524.0,8736.0,0.557,-0.024,0.016,0.83
62016,208.0,-406.0,8796.0,0.557,-0.025,0.015,0.83
62038,274.0,-636.0,8868.0,0.557,-0.025,0.015,0.83
62050,606.0,-490.0,8884.0,0.558,-0.025,0.015,0.83
62072,866.0,-264.0,8618.0,0.559,-0.025,0.014,0.829
62084,372.0,-388.0,8726.0,0.562,-0.023,0.013,0.827
62106,10.0,-200.0,8746.0,0.564,-0.022,0.012,0.826
62118,-386.0,-704.0,8850.0,0.565,-0.021,0.012,0.825
62145,-394.0,-502.0,8800.0,0.566,-0.022,0.012,0.824
62157,-116.0,-496.0,8860.0,0.565,-0.023,0.013,0.825
62169,242.0,-490.0,8972.0,0.564,-0.025,0.013,0.826
62191,526.0,-484.0,8886.0,0.563,-0.026,0.014,0.826
62213,714.0,-384.0,8554.0,0.563,-0.025,0.015,0.826
62225,530.0,-446.0,8348.0,0.564,-0.024,0.014,0.825
62247,174.0,-428.0,8752.0,0.565,-0.024,0.013,0.825
62259,-108.0,-586.0,9076.0,0.566,-0.024,0.013,0.824
62281,-148.0,-594.0,8940.0,0.565,-0.024,0.014,0.824
62293,174.0,-490.0,8626.0,0.565,-0.025,0.015,0.825
62315,426.0,-380.0,8662.0,0.564,-0.026,0.016,0.825
62327,470.0,-382.0,8920.0,0.564,-0.026,0.015,0.825
62349,350.0,-450.0,8828.0,0.565,-0.025,0.015,0.825
62361,228.0,-440.0,8608.0,0.566,-0.025,0.015,0.824
62383,54.0,-432.0,8702.0,0.566,-0.024,0.015,0.824
62405,-44.0,-446.0,8814.0,0.566,-0.024,0.015,0.824
62417,28.0,-462.0,8804.0,0.566,-0.025,0.015,0.824
62439,174.0,-528.0,8922.0,0.566,-0.025,0.015,0.824
62451,340.0,-494.0,8910.0,0.565,-0.026,0.016,0.824
62473,428.0,-394.0,8692.0,0.565,-0.026,0.016,0.824
62485,318.0,-430.0,8608.0,0.566,-0.025,0.016,0.824
62507,76.0,-442.0,8798.0,0.566,-0.025,0.015,0.824
62519,6.0,-456.0,8760.0,0.566,-0.025,0.016,0.824
62541,90.0,-538.0,8674.0,0.566,-0.026,0.016,0.824
62553,328.0,-444.0,8692.0,0.566,-0.027,0.016,0.824
62575,362.0,-476.0,8816.0,0.566,-0.027,0.016,0.824
62597,202.0,-450.0,8940.0,0.566,-0.027,0.016,0.824
62609,28.0,-484.0,8890.0,0.567,-0.026,0.016,0.823
62631,8.0,-470.0,8774.0,0.567,-0.026,0.016,0.823
62643,76.0,-472.0,8556.0,0.567,-0.027,0.016,0.823
62665,184.0,-470.0,8730.0,0.567,-0.027,0.016,0.823
62677,224.0,-542.0,8870.0,0.567,-0.028,0.016,0.823
62699,304.0,-428.0,8782.0,0.567,-0.028,0.017,0.823
62711,194.0,-504.0,8772.0,0.567,-0.028,0.017,0.823
62733,134.0,-474.0,8874.0,0.567,-0.027,0.016,0.823
62745,114.0,-428.0,8758.0,0.568,-0.027,0.016,0.823
62767,-2.0,-426.0,8798.0,0.568,-0.027,0.016,0.822
62789,16.0,-480.0,8924.0,0.568,-0.027,0.016,0.822
62801,216.0,-428.0,8592.0,0.568,-0.028,0.017,0.822
62823,376.0,-580.0,8670.0,0.568,-0.028,0.017,0.822
62835,390.0,-284.0,8734.0,0.569,-0.027,0.017,0.822
62857,56.0,-564.0,8790.0,0.57,-0.026,0.016,0.821
62869,-68.0,-522.0,8708.0,0.57,-0.026,0.016,0.821
62891,-92.0,-534.0,8826.0,0.57,-0.027,0.016,0.821
62903,224.0,-506.0,8746.0,0.57,-0.027,0.017,0.821
62925,310.0,-400.0,8854.0,0.57,-0.027,0.017,0.821
62937,206.0,-444.0,8716.0,0.571,-0.027,0.017,0.82
62959,92.0,-486.0,8672.0,0.571,-0.026,0.016,0.82
62981,-64.0,-468.0,8754.0,0.572,-0.026,0.016,0.82
62993,-28.0,-352.0,8888.0,0.572,-0.026,0.016,0.82
63015,36.0,-406.0,8682.0,0.572,-0.026,0.016,0.82
63027,60.0,-470.0,8780.0,0.572,-0.027,0.016,0.82
63049,172.0,-590.0,9018.0,0.571,-0.028,0.017,0.82
63061,306.0,-472.0,8760.0,0.571,-0.028,0.018,0.82
63083,300.0,-434.0,8546.0,0.571,-0.028,0.018,0.82
63095,154.0,-400.0,8638.0,0.572,-0.027,0.017,0.82
63117,8.0,-502.0,8920.0,0.572,-0.027,0.017,0.819
63129,-84.0,-548.0,8970.0,0.573,-0.027,0.017,0.819
63151,-2.0,-596.0,8894.0,0.572,-0.027,0.017,0.819
63173,212.0,-516.0,8644.0,0.572,-0.028,0.018,0.82
63185,290.0,-400.0,8710.0,0.572,-0.028,0.018,0.82
63207,256.0,-388.0,8936.0,0.572,-0.028,0.018,0.819
63219,112.0,-460.0,8704.0,0.573,-0.028,0.018,0.819
63241,66.0,-414.0,8562.0,0.573,-0.027,0.018,0.819
63253,-42.0,-416.0,8660.0,0.573,-0.027,0.017,0.819
63275,-22.0,-504.0,8824.0,0.573,-0.027,0.017,0.819
63287,34.0,-454.0,8952.0,0.573,-0.028,0.017,0.819
63309,116.0,-494.0,8914.0,0.573,-0.028,0.018,0.819
63321,194.0,-458.0,8728.0,0.573,-0.028,0.018,0.819
63343,128.0,-450.0,8778.0,0.574,-0.028,0.018,0.818
63365,54.0,-490.0,8840.0,0.574,-0.027,0.017,0.818
63377,58.0,-544.0,8752.0,0.574,-0.028,0.018,0.818
63399,84.0,-452.0,8694.0,0.574,-0.028,0.018,0.818
63411,128.0,-392.0,8574.0,0.574,-0.028,0.018,0.818
63433,130.0,-374.0,8664.0,0.574,-0.028,0.018,0.818
63445,124.0,-436.0,8820.0,0.574,-0.027,0.018,0.818
63467,40.0,-522.0,8988.0,0.574,-0.028,0.018,0.818
63479,46.0,-550.0,8982.0,0.575,-0.028,0.018,0.818
63501,158.0,-492.0,8676.0,0.574,-0.028,0.019,0.818
63513,170.0,-308.0,8504.0,0.575,-0.028,0.019,0.818
63535,164.0,-410.0,8596.0,0.575,-0.028,0.019,0.818
63557,50.0,-448.0,8834.0,0.575,-0.028,0.018,0.817
63569,42.0,-408.0,8848.0,0.575,-0.028,0.019,0.817
63591,204.0,-506.0,8768.0,0.575,-0.028,0.019,0.817
63603,150.0,-432.0,8764.0,0.575,-0.027,0.018,0.817
63625,90.0,-466.0,8868.0,0.576,-0.027,0.018,0.817
63637,-40.0,-406.0,8908.0,0.577,-0.026,0.018,0.816
63659,-128.0,-444.0,8824.0,0.577,-0.026,0.018,0.816
63671,36.0,-512.0,8594.0,0.577,-0.027,0.018,0.816
63693,188.0,-424.0,8708.0,0.576,-0.027,0.019,0.817
63705,284.0,-360.0,8688.0,0.576,-0.027,0.019,0.817
63727,218.0,-406.0,8730.0,0.576,-0.027,0.019,0.817
63749,102.0,-462.0,8782.0,0.577,-0.027,0.018,0.816
63761,6.0,-444.0,8814.0,0.577,-0.027,0.018,0.816
63783,-52.0,-472.0,8814.0,0.577,-0.027,0.018,0.816
63795,10.0,-492.0,8908.0,0.577,-0.027,0.018,0.816
63817,108.0,-446.0,8764.0,0.577,-0.027,0.018,0.816
63829,58.0,-456.0,8722.0,0.577,-0.027,0.018,0.816
63851,78.0,-422.0,8864.0,0.577,-0.028,0.019,0.816
63863,134.0,-428.0,8716.0,0.577,-0.028,0.019,0.816
63885,192.0,-420.0,8526.0,0.577,-0.028,0.019,0.816
63897,132.0,-418.0,8670.0,0.577,-0.028,0.019,0.816
63919,114.0,-362.0,8796.0,0.577,-0.028,0.019,0.816
63941,6.0,-478.0,8904.0,0.577,-0.028,0.019,0.816
63953,-26.0,-536.0,8962.0,0.577,-0.029,0.019,0.816
63975,46.0,-486.0,8766.0,0.577,-0.029,0.02,0.816
63987,208.0,-442.0,8606.0,0.577,-0.029,0.02,0.816
64009,170.0,-446.0,8652.0,0.577,-0.03,0.02,0.816
64021,10.0,-408.0,8690.0,0.578,-0.029,0.02,0.815
64043,-86.0,-486.0,8800.0,0.578,-0.029,0.02,0.815
64055,-152.0,-564.0,8898.0,0.578,-0.03,0.02,0.815
64077,62.0,-550.0,8760.0,0.578,-0.03,0.02,0.816
64089,212.0,-404.0,8708.0,0.577,-0.031,0.021,0.816
64111,208.0,-368.0,8794.0,0.578,-0.03,0.021,0.815
64133,54.0,-414.0,8936.0,0.578,-0.03,0.02,0.815
64150,-164.0,-432.0,8724.0,0.579,-0.029,0.02,0.815
64162,-158.0,-414.0,8698.0,0.579,-0.029,0.02,0.815
64184,-122.0,-424.0,8860.0,0.579,-0.03,0.02,0.815
64196,36.0,-482.0,8860.0,0.578,-0.031,0.021,0.815
64218,160.0,-442.0,8690.0,0.578,-0.032,0.021,0.815
64230,160.0,-420.0,8768.0,0.578,-0.032,0.021,0.815
64252,142.0,-466.0,8666.0,0.578,-0.032,0.022,0.815
64264,92.0,-382.0,8604.0,0.578,-0.031,0.022,0.815
64286,-68.0,-460.0,8546.0,0.579,-0.031,0.021,0.815
64308,-144.0,-522.0,8732.0,0.579,-0.031,0.021,0.814
64320,-90.0,-596.0,8956.0,0.579,-0.032,0.021,0.814
64342,8.0,-532.0,9002.0,0.579,-0.032,0.021,0.815
64354,126.0,-470.0,8814.0,0.579,-0.032,0.022,0.815
64376,90.0,-368.0,8618.0,0.579,-0.032,0.022,0.814
64388,-40.0,-460.0,8746.0,0.579,-0.032,0.021,0.814
64410,-172.0,-560.0,8870.0,0.58,-0.032,0.021,0.814
64422,-172.0,-540.0,8874.0,0.58,-0.032,0.021,0.814
64444,24.0,-468.0,8642.0,0.579,-0.032,0.022,0.814
64456,122.0,-356.0,8660.0,0.579,-0.032,0.022,0.814
64478,-10.0,-396.0,8814.0,0.58,-0.032,0.021,0.814
64500,-78.0,-448.0,8866.0,0.58,-0.032,0.021,0.814
64512,-198.0,-444.0,8802.0,0.58,-0.031,0.021,0.813
64534,-86.0,-494.0,8570.0,0.58,-0.032,0.022,0.814
64546,16.0,-420.0,8684.0,0.58,-0.032,0.022,0.814
64568,48.0,-286.0,8742.0,0.58,-0.033,0.022,0.814
64580,0.0,-482.0,8828.0,0.58,-0.033,0.022,0.814
64602,-38.0,-522.0,8704.0,0.58,-0.033,0.022,0.814
64614,30.0,-416.0,8600.0,0.58,-0.033,0.022,0.814
64636,-66.0,-402.0,8712.0,0.58,-0.033,0.021,0.813
64648,-134.0,-470.0,8848.0,0.581,-0.033,0.021,0.813
64670,-114.0,-632.0,8870.0,0.58,-0.033,0.021,0.813
64692,-42.0,-516.0,8816.0,0.58,-0.034,0.022,0.813
64704,60.0,-460.0,8640.0,0.58,-0.034,0.022,0.813
64726,20.0,-464.0,8772.0,0.581,-0.034,0.022,0.813
64738,-104.0,-496.0,8842.0,0.581,-0.033,0.021,0.813
64760,-142.0,-540.0,8812.0,0.581,-0.033,0.021,0.813
64772,-106.0,-448.0,8728.0,0.581,-0.033,0.022,0.813
64794,10.0,-418.0,8610.0,0.581,-0.033,0.022,0.813
64806,-40.0,-478.0,8738.0,0.581,-0.033,0.022,0.813
64828,-60.0,-512.0,8862.0,0.581,-0.033,0.022,0.813
64840,-54.0,-540.0,8782.0,0.581,-0.034,0.022,0.813
64862,-34.0,-422.0,8764.0,0.581,-0.034,0.022,0.813
64884,-106.0,-456.0,8750.0,0.582,-0.034,0.022,0.812
64896,58.0,-428.0,8794.0,0.582,-0.034,0.022,0.812
64918,-38.0,-446.0,8788.0,0.582,-0.034,0.022,0.812
64930,6.0,-414.0,8580.0,0.582,-0.033,0.022,0.812
64952,-96.0,-556.0,8668.0,0.583,-0.033,0.022,0.812
64964,28.0,-608.0,8946.0,0.583,-0.033,0.022,0.811
64986,0.0,-540.0,8754.0,0.584,-0.033,0.022,0.811
64998,-126.0,-410.0,8760.0,0.584,-0.032,0.022,0.811
65020,-190.0,-418.0,8756.0,0.585,-0.031,0.021,0.81
65032,-292.0,-508.0,8850.0,0.585,-0.032,0.021,0.81
65054,-182.0,-526.0,8850.0,0.585,-0.032,0.022,0.81
65076,34.0,-386.0,8674.0,0.584,-0.032,0.023,0.811
65088,174.0,-336.0,8448.0,0.584,-0.032,0.023,0.811
65110,78.0,-402.0,8588.0,0.585,-0.032,0.022,0.81
65122,-188.0,-568.0,9056.0,0.585,-0.032,0.022,0.81
65144,-198.0,-532.0,8992.0,0.585,-0.032,0.022,0.81
65156,-48.0,-480.0,8696.0,0.585,-0.032,0.022,0.81
65178,58.0,-428.0,8626.0,0.585,-0.032,0.022,0.81
65190,38.0,-448.0,8754.0,0.586,-0.032,0.022,0.81
65212,-34.0,-498.0,8778.0,0.586,-0.031,0.022,0.809
65224,-174.0,-446.0,8690.0,0.586,-0.031,0.022,0.809
65246,-120.0,-498.0,8600.0,0.586,-0.031,0.022,0.809
65268,14.0,-438.0,8734.0,0.586,-0.031,0.022,0.809
65280,-4.0,-420.0,8938.0,0.586,-0.032,0.022,0.809
65302,-84.0,-468.0,8892.0,0.587,-0.032,0.022,0.809
65314,-174.0,-394.0,8714.0,0.587,-0.031,0.022,0.809
65336,-168.0,-466.0,8580.0,0.587,-0.031,0.022,0.809
65348,-82.0,-472.0,8708.0,0.587,-0.032,0.022,0.809
65370,-38.0,-492.0,8894.0,0.586,-0.032,0.022,0.809
65382,42.0,-440.0,8762.0,0.586,-0.032,0.023,0.809
65404,8.0,-430.0,8740.0,0.587,-0.032,0.023,0.809
65416,-82.0,-452.0,8674.0,0.587,-0.032,0.023,0.809
65438,-160.0,-514.0,8742.0,0.587,-0.031,0.022,0.808
65460,-148.0,-448.0,8834.0,0.587,-0.031,0.022,0.808
65472,-88.0,-480.0,8806.0,0.587,-0.032,0.023,0.808
65494,-26.0,-454.0,8700.0,0.587,-0.032,0.023,0.808
65506,46.0,-430.0,8802.0,0.587,-0.032,0.023,0.808
65528,-14.0,-466.0,8840.0,0.587,-0.032,0.023,0.808
65540,0.0,-498.0,8836.0,0.588,-0.031,0.023,0.808
65562,-86.0,-434.0,8718.0,0.588,-0.031,0.023,0.808
65574,-142.0,-484.0,8736.0,0.588,-0.031,0.022,0.808
65596,-206.0,-454.0,8880.0,0.588,-0.031,0.022,0.808
65608,-30.0,-422.0,8792.0,0.588,-0.031,0.022,0.808
65630,22.0,-368.0,8680.0,0.589,-0.031,0.022,0.808
65652,-48.0,-426.0,8714.0,0.589,-0.031,0.022,0.807
65664,-96.0,-446.0,8856.0,0.589,-0.03,0.022,0.807
65686,-206.0,-492.0,8880.0,0.589,-0.03,0.022,0.807
65698,-142.0,-374.0,8784.0,0.589,-0.03,0.022,0.807
65720,-52.0,-436.0,8632.0,0.589,-0.03,0.023,0.807
65732,0.0,-390.0,8670.0,0.589,-0.031,0.023,0.807
65754,24.0,-398.0,8750.0,0.589,-0.031,0.023,0.807
65766,-56.0,-436.0,8824.0,0.589,-0.031,0.023,0.807
65788,-122.0,-424.0,8666.0,0.59,-0.031,0.023,0.807
65800,-70.0,-488.0,8872.0,0.59,-0.031,0.023,0.807
65822,-90.0,-506.0,8960.0,0.59,-0.031,0.023,0.807
65844,-96.0,-430.0,8776.0,0.59,-0.03,0.023,0.807
65856,-44.0,-444.0,8500.0,0.59,-0.031,0.023,0.807
65878,2.0,-404.0,8518.0,0.59,-0.031,0.023,0.807
65890,-52.0,-466.0,8822.0,0.59,-0.031,0.023,0.807
65912,-60.0,-476.0,8942.0,0.59,-0.031,0.023,0.807
65924,-42.0,-516.0,8796.0,0.59,-0.031,0.023,0.807
65946,-128.0,-414.0,8804.0,0.59,-0.031,0.023,0.806
65958,-170.0,-454.0,8904.0,0.59,-0.031,0.023,0.806
65980,-190.0,-514.0,9002.0,0.59,-0.031,0.024,0.806
65992,-44.0,-390.0,8650.0,0.59,-0.031,0.025,0.806
66014,140.0,-406.0,8264.0,0.59,-0.031,0.025,0.806
66036,36.0,-328.0,8576.0,0.59,-0.031,0.024,0.806
66048,-206.0,-464.0,9024.0,0.591,-0.031,0.024,0.806
66070,-210.0,-492.0,9086.0,0.591,-0.031,0.024,0.806
66082,-144.0,-438.0,8802.0,0.591,-0.03,0.025,0.806
66104,24.0,-408.0,8568.0,0.591,-0.03,0.025,0.806
66116,100.0,-382.0,8486.0,0.591,-0.03,0.025,0.806
66138,-2.0,-456.0,8936.0,0.591,-0.03,0.024,0.806
66155,-126.0,-420.0,9144.0,0.592,-0.03,0.024,0.805
66167,-180.0,-456.0,8760.0,0.592,-0.029,0.024,0.805
66189,-160.0,-348.0,8454.0,0.592,-0.029,0.025,0.805
66211,-36.0,-358.0,8558.0,0.592,-0.03,0.025,0.805
66223,-32.0,-484.0,8970.0,0.592,-0.03,0.024,0.805
66245,30.0,-390.0,9054.0,0.592,-0.03,0.025,0.805
66257,40.0,-378.0,8690.0,0.592,-0.03,0.025,0.805
66279,-6.0,-332.0,8578.0,0.592,-0.03,0.025,0.805
66291,-202.0,-432.0,8678.0,0.593,-0.029,0.024,0.804
66313,-228.0,-502.0,8934.0,0.593,-0.03,0.024,0.804
66325,-110.0,-450.0,8942.0,0.593,-0.03,0.024,0.804
66347,20.0,-438.0,8728.0,0.593,-0.031,0.025,0.804
66359,122.0,-392.0,8840.0,0.593,-0.031,0.025,0.804
66381,-42.0,-530.0,8700.0,0.593,-0.031,0.025,0.804
66403,-46.0,-238.0,8380.0,0.593,-0.031,0.025,0.804
66415,-176.0,-512.0,8246.0,0.593,-0.032,0.025,0.804
66437,-418.0,-548.0,9066.0,0.594,-0.032,0.024,0.804
66449,-290.0,-532.0,9234.0,0.593,-0.034,0.025,0.804
66471,-26.0,-564.0,8722.0,0.592,-0.034,0.025,0.805
66483,292.0,-342.0,8826.0,0.592,-0.034,0.025,0.805
66505,116.0,-510.0,8596.0,0.593,-0.033,0.025,0.804
66517,-84.0,-536.0,8768.0,0.594,-0.032,0.024,0.804
66539,-272.0,-534.0,8768.0,0.594,-0.032,0.024,0.804
66551,-242.0,-420.0,8904.0,0.594,-0.032,0.023,0.803
66573,-82.0,-502.0,8824.0,0.594,-0.032,0.024,0.803
66595,128.0,-418.0,8554.0,0.594,-0.033,0.024,0.803
66607,274.0,-698.0,8490.0,0.594,-0.033,0.024,0.803
66629,330.0,-224.0,8830.0,0.595,-0.034,0.023,0.803
66641,510.0,-402.0,8856.0,0.597,-0.034,0.022,0.801
66663,144.0,-818.0,8602.0,0.6,-0.031,0.019,0.799
66675,-94.0,-1170.0,9316.0,0.604,-0.023,0.015,0.797
66697,-668.0,600.0,9630.0,0.606,-0.02,0.014,0.795
66709,-806.0,-738.0,8792.0,0.607,-0.021,0.016,0.795
66731,-462.0,-604.0,8170.0,0.605,-0.022,0.018,0.795
66753,-10.0,-338.0,8732.0,0.604,-0.023,0.018,0.797
66765,418.0,-330.0,8834.0,0.602,-0.024,0.019,0.798
66787,464.0,-532.0,8582.0,0.602,-0.025,0.02,0.798
66799,530.0,-310.0,8922.0,0.602,-0.025,0.019,0.798
66821,244.0,-380.0,8822.0,0.603,-0.024,0.019,0.797
66833,-14.0,-428.0,8640.0,0.604,-0.023,0.018,0.797
66855,-200.0,-432.0,8692.0,0.604,-0.023,0.018,0.796
66867,-296.0,-346.0,8740.0,0.604,-0.024,0.018,0.797
66889,-160.0,-416.0,8336.0,0.603,-0.026,0.019,0.797
66901,78.0,-436.0,8108.0,0.602,-0.03,0.019,0.798
66923,274.0,-454.0,8266.0,0.601,-0.034,0.018,0.798
66935,278.0,-664.0,8994.0,0.601,-0.037,0.016,0.799
66957,36.0,-534.0,9676.0,0.601,-0.039,0.015,0.798
66979,-192.0,-652.0,9446.0,0.601,-0.039,0.015,0.798
66991,-124.0,-500.0,8096.0,0.602,-0.04,0.015,0.798
67013,14.0,-630.0,7596.0,0.602,-0.04,0.013,0.797
67025,22.0,-782.0,8304.0,0.602,-0.042,0.01,0.797
67047,6.0,-830.0,8988.0,0.603,-0.046,0.007,0.797
67059,-34.0,-1006.0,9248.0,0.603,-0.048,0.004,0.796
67081,-56.0,-1008.0,9026.0,0.604,-0.051,0.003,0.795
67093,-56.0,-1038.0,8656.0,0.605,-0.053,0.002,0.795
67115,96.0,-948.0,8328.0,0.606,-0.055,-0.0,0.794
67127,174.0,-1026.0,8226.0,0.607,-0.058,-0.003,0.793
67149,-40.0,-1186.0,8448.0,0.608,-0.061,-0.006,0.791
67171,-316.0,-1434.0,8916.0,0.61,-0.065,-0.009,0.79
67183,-508.0,-1446.0,9406.0,0.611,-0.069,-0.011,0.789
67205,-546.0,-1448.0,9772.0,0.611,-0.071,-0.012,0.788
67217,-646.0,-1242.0,9926.0,0.612,-0.072,-0.012,0.788
67239,-394.0,-996.0,8588.0,0.611,-0.072,-0.009,0.788
67251,-62.0,-1292.0,7484.0,0.611,-0.073,-0.008,0.788
67273,-20.0,-1148.0,7508.0,0.611,-0.074,-0.009,0.788
67285,-276.0,-1308.0,8574.0,0.612,-0.077,-0.012,0.787
67307,-496.0,-1534.0,9234.0,0.612,-0.082,-0.014,0.786
67319,-612.0,-1720.0,9340.0,0.612,-0.085,-0.014,0.786
67341,-534.0,-1868.0,9172.0,0.612,-0.088,-0.014,0.786
67363,-490.0,-1554.0,9118.0,0.611,-0.087,-0.014,0.786
67375,-12.0,-1808.0,8732.0,0.611,-0.088,-0.013,0.787
67397,594.0,-2956.0,7948.0,0.612,-0.083,-0.015,0.786
67409,-490.0,-1448.0,8624.0,0.615,-0.078,-0.019,0.785
67431,-820.0,-2134.0,8742.0,0.615,-0.077,-0.022,0.784
67443,-1258.0,-806.0,9068.0,0.615,-0.08,-0.021,0.784
67465,-1050.0,-1928.0,8648.0,0.613,-0.082,-0.019,0.786
67477,-754.0,-1458.0,8124.0,0.609,-0.087,-0.017,0.788
67499,-208.0,-1388.0,9132.0,0.605,-0.087,-0.017,0.791
67511,462.0,-2868.0,8830.0,0.603,-0.087,-0.017,0.793
67533,100.0,-736.0,9086.0,0.602,-0.084,-0.015,0.794
67555,56.0,-642.0,7628.0,0.602,-0.08,-0.016,0.794
67567,256.0,-1244.0,7706.0,0.602,-0.075,-0.02,0.794
67589,422.0,-1494.0,7840.0,0.604,-0.074,-0.025,0.794
67601,614.0,-2282.0,8544.0,0.606,-0.075,-0.03,0.792
67623,-208.0,-1618.0,8040.0,0.608,-0.081,-0.033,0.789
67635,-482.0,-1776.0,8210.0,0.611,-0.086,-0.039,0.786
67657,-566.0,-1966.0,8174.0,0.612,-0.09,-0.047,0.784
67669,-402.0,-2268.0,8656.0,0.613,-0.096,-0.055,0.782
67691,-212.0,-1894.0,8418.0,0.614,-0.101,-0.062,0.78
67713,-148.0,-2560.0,7976.0,0.616,-0.108,-0.068,0.777
67725,224.0,-2062.0,7544.0,0.618,-0.117,-0.076,0.774
67747,620.0,-2774.0,7330.0,0.621,-0.128,-0.086,0.769
67759,426.0,-3038.0,8116.0,0.624,-0.138,-0.098,0.763
67781,-116.0,-3428.0,9132.0,0.627,-0.146,-0.11,0.757
67793,-456.0,-3830.0,9710.0,0.63,-0.15,-0.122,0.752
67815,-546.0,-4062.0,9896.0,0.633,-0.152,-0.129,0.748
67827,-334.0,-3778.0,9328.0,0.635,-0.152,-0.134,0.746
67849,-324.0,-3794.0,8766.0,0.637,-0.151,-0.136,0.744
67861,-336.0,-3642.0,8144.0,0.638,-0.15,-0.137,0.743
67883,-178.0,-3638.0,7596.0,0.638,-0.149,-0.138,0.743
67895,-10.0,-3558.0,7324.0,0.638,-0.149,-0.14,0.742
67917,130.0,-3838.0,7106.0,0.638,-0.153,-0.142,0.741
67939,388.0,-3734.0,7338.0,0.638,-0.161,-0.143,0.739
67951,552.0,-3808.0,8202.0,0.639,-0.169,-0.146,0.736
67973,404.0,-4218.0,8548.0,0.64,-0.175,-0.147,0.734
67985,598.0,-4202.0,8200.0,0.642,-0.18,-0.147,0.731
68007,48.0,3326.0,5314.0,0.648,-0.191,-0.144,0.724
68019,-76.0,-3718.0,7810.0,0.65,-0.193,-0.151,0.719
68041,-876.0,-4320.0,7726.0,0.652,-0.2,-0.155,0.715
68053,-1256.0,-4564.0,9010.0,0.653,-0.206,-0.158,0.712
68075,-1070.0,-4942.0,9344.0,0.652,-0.21,-0.158,0.711
68087,-486.0,-4584.0,8756.0,0.65,-0.212,-0.154,0.713
68109,178.0,-4404.0,7216.0,0.649,-0.211,-0.151,0.715
68131,210.0,-4152.0,6586.0,0.648,-0.212,-0.149,0.716
68143,-134.0,-4104.0,6514.0,0.648,-0.213,-0.148,0.716
68160,-344.0,-4346.0,6786.0,0.648,-0.217,-0.149,0.715
68182,-308.0,-4486.0,7468.0,0.648,-0.222,-0.15,0.713
68194,-4.0,-4654.0,7748.0,0.648,-0.227,-0.151,0.712
68216,-250.0,-11406.0,7612.0,0.65,-0.239,-0.145,0.707
68228,-606.0,-5072.0,7438.0,0.649,-0.242,-0.148,0.706
68250,-350.0,-5014.0,7446.0,0.648,-0.247,-0.151,0.705
68262,-64.0,-4832.0,7688.0,0.648,-0.251,-0.152,0.703
68284,-244.0,-4992.0,7900.0,0.648,-0.254,-0.153,0.702
68296,-480.0,-4732.0,7970.0,0.648,-0.254,-0.154,0.701
68318,-736.0,-4760.0,7362.0,0.649,-0.253,-0.155,0.701
68340,-832.0,-4924.0,6994.0,0.649,-0.251,-0.157,0.701
68352,-774.0,-5000.0,7032.0,0.649,-0.25,-0.158,0.701
68374,-436.0,-4972.0,7310.0,0.648,-0.251,-0.159,0.702
68386,-200.0,-4746.0,7536.0,0.647,-0.251,-0.159,0.702
68408,-78.0,-4920.0,7486.0,0.647,-0.25,-0.16,0.702
68420,-80.0,-5024.0,7134.0,0.647,-0.25,-0.16,0.702
68442,-290.0,-4908.0,6880.0,0.648,-0.249,-0.16,0.702
68454,-480.0,-4942.0,7234.0,0.648,-0.249,-0.161,0.702
68476,-468.0,-5130.0,7648.0,0.648,-0.25,-0.161,0.702
68488,-356.0,-4786.0,7408.0,0.648,-0.249,-0.16,0.702
68510,-442.0,-4854.0,7046.0,0.648,-0.249,-0.16,0.701
68532,-566.0,-4962.0,7404.0,0.649,-0.249,-0.16,0.701
68544,-424.0,-4852.0,7412.0,0.649,-0.249,-0.159,0.701
68566,-358.0,-4800.0,7246.0,0.649,-0.248,-0.158,0.702
68578,-392.0,-4836.0,7172.0,0.649,-0.248,-0.158,0.702
68600,-562.0,-4872.0,7262.0,0.649,-0.248,-0.158,0.702
68612,-438.0,-4756.0,7308.0,0.649,-0.248,-0.157,0.702
68634,-314.0,-4880.0,7242.0,0.649,-0.248,-0.157,0.702
68646,-166.0,-4688.0,7078.0,0.649,-0.248,-0.156,0.702
68668,-268.0,-4844.0,7182.0,0.649,-0.248,-0.157,0.702
68680,-598.0,-4922.0,7540.0,0.65,-0.248,-0.157,0.701
68702,-630.0,-5052.0,7514.0,0.65,-0.248,-0.157,0.701
68724,-484.0,-4874.0,7510.0,0.65,-0.247,-0.156,0.701
68736,-272.0,-4784.0,7326.0,0.65,-0.247,-0.155,0.701
68758,-242.0,-4842.0,7182.0,0.651,-0.247,-0.155,0.701
68770,-310.0,-4576.0,7478.0,0.652,-0.245,-0.155,0.701
68792,-562.0,-4708.0,7370.0,0.653,-0.244,-0.154,0.701
68804,-740.0,-4768.0,7584.0,0.653,-0.242,-0.154,0.701
68826,-570.0,-4778.0,7196.0,0.653,-0.241,-0.152,0.701
68838,-314.0,-5018.0,7166.0,0.653,-0.241,-0.151,0.702
68860,-302.0,-4564.0,7424.0,0.654,-0.241,-0.15,0.702
68872,-422.0,-4712.0,7140.0,0.654,-0.24,-0.149,0.702
68894,-604.0,-4758.0,7180.0,0.654,-0.239,-0.148,0.702
68916,-504.0,-4624.0,7236.0,0.654,-0.24,-0.148,0.702
68928,-344.0,-4574.0,7272.0,0.654,-0.24,-0.148,0.703
68950,-182.0,-4660.0,7200.0,0.653,-0.24,-0.148,0.703
68962,-220.0,-4578.0,7398.0,0.653,-0.24,-0.148,0.702
68984,-444.0,-4652.0,7588.0,0.654,-0.24,-0.149,0.702
68996,-586.0,-4812.0,7398.0,0.654,-0.24,-0.149,0.702
69018,-604.0,-4568.0,7180.0,0.654,-0.24,-0.148,0.701
69030,-394.0,-4774.0,7258.0,0.654,-0.241,-0.148,0.701
69052,-374.0,-4816.0,7532.0,0.654,-0.241,-0.149,0.701
69074,-326.0,-4822.0,7436.0,0.654,-0.241,-0.149,0.701
69086,-344.0,-4648.0,7258.0,0.655,-0.241,-0.149,0.701
69108,-472.0,-4678.0,7350.0,0.655,-0.241,-0.149,0.701
69120,-550.0,-4778.0,7406.0,0.655,-0.241,-0.149,0.7
69142,-500.0,-4678.0,7482.0,0.655,-0.241,-0.149,0.7
69154,-410.0,-4728.0,7482.0,0.655,-0.241,-0.149,0.7
69176,-376.0,-4630.0,7446.0,0.655,-0.241,-0.148,0.7
69188,-494.0,-4698.0,7312.0,0.656,-0.241,-0.148,0.7
69210,-628.0,-4792.0,7318.0,0.656,-0.241,-0.148,0.7
69232,-512.0,-4790.0,7230.0,0.656,-0.241,-0.148,0.7
69244,-298.0,-4720.0,7404.0,0.655,-0.242,-0.148,0.7
69266,-360.0,-4806.0,7502.0,0.655,-0.242,-0.148,0.7
69278,-392.0,-4760.0,7492.0,0.656,-0.242,-0.147,0.7
69300,-436.0,-4794.0,7476.0,0.656,-0.242,-0.147,0.7
69312,-554.0,-4770.0,7580.0,0.657,-0.241,-0.146,0.699
69334,-618.0,-4642.0,7504.0,0.657,-0.24,-0.146,0.699
69346,-556.0,-4680.0,7250.0,0.657,-0.239,-0.145,0.7
69368,-496.0,-4662.0,7228.0,0.657,-0.239,-0.145,0.7
69380,-550.0,-4670.0,7416.0,0.657,-0.239,-0.144,0.7
69402,-434.0,-4572.0,7326.0,0.657,-0.239,-0.144,0.701
69414,-304.0,-4674.0,7196.0,0.657,-0.239,-0.143,0.701
69436,-230.0,-4536.0,7400.0,0.657,-0.239,-0.143,0.701
69458,-448.0,-4698.0,7334.0,0.657,-0.239,-0.143,0.7
69470,-618.0,-4732.0,7438.0,0.657,-0.239,-0.144,0.7
69492,-704.0,-4656.0,7552.0,0.657,-0.239,-0.143,0.7
69504,-668.0,-4618.0,7562.0,0.657,-0.239,-0.143,0.7
69526,-426.0,-4598.0,7186.0,0.657,-0.239,-0.142,0.701
69538,-250.0,-4628.0,7148.0,0.657,-0.24,-0.141,0.701
69560,-312.0,-4764.0,7424.0,0.657,-0.24,-0.141,0.7
69572,-586.0,-4582.0,7588.0,0.658,-0.24,-0.141,0.7
69594,-756.0,-4704.0,7466.0,0.658,-0.24,-0.142,0.7
69606,-832.0,-4710.0,7466.0,0.658,-0.24,-0.141,0.7
69628,-616.0,-4712.0,7398.0,0.658,-0.24,-0.141,0.7
69650,-418.0,-4626.0,7398.0,0.658,-0.24,-0.14,0.7
69662,-326.0,-4582.0,7252.0,0.658,-0.24,-0.14,0.7
69684,-532.0,-4614.0,7376.0,0.658,-0.24,-0.14,0.7
69696,-686.0,-4646.0,7396.0,0.658,-0.24,-0.14,0.7
69718,-638.0,-4658.0,7434.0,0.658,-0.241,-0.139,0.7
69730,-444.0,-4738.0,7324.0,0.657,-0.241,-0.139,0.7
69752,-444.0,-4810.0,7434.0,0.658,-0.241,-0.139,0.7
69764,-500.0,-4778.0,7516.0,0.658,-0.241,-0.139,0.7
69786,-566.0,-4694.0,7368.0,0.658,-0.241,-0.139,0.7
69798,-688.0,-4636.0,7378.0,0.658,-0.24,-0.139,0.7
69820,-640.0,-4730.0,7368.0,0.658,-0.241,-0.138,0.7
69842,-554.0,-4748.0,7448.0,0.658,-0.241,-0.138,0.7
69854,-568.0,-4682.0,7564.0,0.659,-0.241,-0.137,0.7
69876,-648.0,-4586.0,7582.0,0.659,-0.241,-0.135,0.7
69888,-744.0,-4692.0,7430.0,0.659,-0.241,-0.134,0.7
69910,-762.0,-4570.0,7474.0,0.659,-0.241,-0.133,0.7
69922,-718.0,-4442.0,7186.0,0.659,-0.241,-0.131,0.7
69944,-720.0,-4604.0,7134.0,0.659,-0.241,-0.13,0.701
69956,-690.0,-4518.0,7226.0,0.658,-0.242,-0.13,0.701
69978,-710.0,-4658.0,7636.0,0.658,-0.242,-0.131,0.701
69990,-732.0,-4674.0,7854.0,0.658,-0.243,-0.13,0.701
70012,-690.0,-4596.0,7626.0,0.658,-0.242,-0.129,0.701
70034,-614.0,-4490.0,7236.0,0.658,-0.242,-0.128,0.702
70046,-624.0,-4566.0,7136.0,0.658,-0.242,-0.128,0.702
70068,-634.0,-4550.0,7304.0,0.658,-0.242,-0.128,0.702
70080,-640.0,-4524.0,7446.0,0.658,-0.242,-0.128,0.702
70102,-698.0,-4610.0,7358.0,0.658,-0.242,-0.128,0.702
70114,-688.0,-4648.0,7474.0,0.658,-0.242,-0.128,0.701
70136,-700.0,-4554.0,7600.0,0.658,-0.242,-0.128,0.701
70148,-704.0,-4674.0,7598.0,0.658,-0.242,-0.128,0.701
70165,-722.0,-4466.0,7536.0,0.659,-0.241,-0.127,0.701
70187,-794.0,-4532.0,7340.0,0.659,-0.241,-0.127,0.701
70199,-694.0,-4472.0,7186.0,0.659,-0.241,-0.126,0.701
70221,-780.0,-4440.0,7320.0,0.659,-0.242,-0.126,0.701
70243,-800.0,-4558.0,7500.0,0.659,-0.242,-0.126,0.701
70255,-742.0,-4628.0,7664.0,0.659,-0.242,-0.126,0.701
70277,-658.0,-4520.0,7602.0,0.659,-0.242,-0.125,0.701
70289,-748.0,-4546.0,7376.0,0.659,-0.242,-0.125,0.701
70311,-864.0,-4720.0,7300.0,0.659,-0.241,-0.125,0.701
70323,-838.0,-4640.0,7470.0,0.659,-0.242,-0.125,0.701
70345,-684.0,-4620.0,7526.0,0.659,-0.242,-0.125,0.701
70357,-648.0,-4528.0,7552.0,0.659,-0.242,-0.125,0.701
70379,-798.0,-4404.0,7496.0,0.659,-0.241,-0.125,0.701
70391,-908.0,-4514.0,7354.0,0.66,-0.241,-0.124,0.701
70413,-864.0,-4612.0,7312.0,0.66,-0.241,-0.124,0.701
70435,-686.0,-4638.0,7576.0,0.66,-0.241,-0.125,0.701
70447,-646.0,-4538.0,7708.0,0.66,-0.241,-0.125,0.701
70469,-726.0,-4742.0,7672.0,0.66,-0.24,-0.125,0.701
70481,-656.0,-4524.0,7412.0,0.661,-0.239,-0.124,0.7
70503,-678.0,-4276.0,7254.0,0.661,-0.239,-0.124,0.7
70515,-842.0,-4358.0,7124.0,0.662,-0.238,-0.123,0.7
70537,-918.0,-4454.0,7152.0,0.662,-0.238,-0.124,0.7
70549,-876.0,-4526.0,7448.0,0.662,-0.239,-0.124,0.7
70571,-800.0,-4648.0,7802.0,0.661,-0.239,-0.124,0.7
70583,-756.0,-4584.0,7904.0,0.661,-0.24,-0.123,0.7
70605,-620.0,-4566.0,7688.0,0.661,-0.239,-0.123,0.701
70627,-606.0,-4488.0,7324.0,0.661,-0.239,-0.122,0.701
70639,-670.0,-4318.0,7184.0,0.662,-0.238,-0.121,0.7
70661,-796.0,-4502.0,7220.0,0.662,-0.238,-0.122,0.7
70673,-844.0,-4400.0,7554.0,0.662,-0.239,-0.122,0.7
70695,-734.0,-4588.0,7504.0,0.662,-0.239,-0.122,0.7
70707,-610.0,-4598.0,7574.0,0.662,-0.239,-0.121,0.7
70729,-534.0,-4504.0,7684.0,0.663,-0.239,-0.121,0.699
70741,-780.0,-4294.0,7662.0,0.664,-0.238,-0.122,0.699
70763,-1118.0,-4452.0,7360.0,0.664,-0.236,-0.122,0.698
70775,-1082.0,-4444.0,7092.0,0.665,-0.236,-0.121,0.698
70797,-896.0,-4552.0,7190.0,0.664,-0.237,-0.121,0.699
70819,-512.0,-4492.0,7492.0,0.664,-0.238,-0.121,0.699
70831,-420.0,-4444.0,7818.0,0.664,-0.238,-0.121,0.699
70853,-542.0,-4554.0,7788.0,0.664,-0.238,-0.121,0.698
70865,-792.0,-4434.0,7588.0,0.665,-0.237,-0.121,0.698
70887,-938.0,-4464.0,7440.0,0.666,-0.236,-0.12,0.698
70899,-1060.0,-4326.0,7272.0,0.666,-0.236,-0.12,0.697
70921,-1100.0,-4442.0,7314.0,0.666,-0.236,-0.12,0.698
70933,-892.0,-4478.0,7494.0,0.665,-0.237,-0.12,0.698
70955,-592.0,-4512.0,7654.0,0.665,-0.237,-0.12,0.698
70967,-460.0,-4544.0,7608.0,0.665,-0.237,-0.12,0.698
70989,-542.0,-4554.0,7514.0,0.665,-0.237,-0.12,0.698
71011,-770.0,-4510.0,7530.0,0.666,-0.236,-0.12,0.697
71023,-1082.0,-4406.0,7534.0,0.666,-0.236,-0.121,0.697
71045,-1036.0,-4498.0,7320.0,0.666,-0.235,-0.12,0.697
71057,-810.0,-4488.0,7248.0,0.666,-0.236,-0.12,0.697
71079,-550.0,-4356.0,7506.0,0.666,-0.237,-0.12,0.698
71091,-578.0,-4510.0,7560.0,0.666,-0.237,-0.12,0.698
71113,-604.0,-4614.0,7698.0,0.666,-0.237,-0.12,0.697
71125,-760.0,-4482.0,7736.0,0.666,-0.236,-0.12,0.697
71147,-992.0,-4472.0,7662.0,0.667,-0.235,-0.12,0.697
71159,-1110.0,-4528.0,7530.0,0.667,-0.235,-0.12,0.697
71181,-864.0,-4368.0,7304.0,0.667,-0.235,-0.119,0.697
71203,-626.0,-4394.0,7432.0,0.667,-0.236,-0.119,0.697
71215,-506.0,-4238.0,7664.0,0.667,-0.236,-0.118,0.697
71237,-672.0,-4454.0,7526.0,0.667,-0.235,-0.118,0.697
71249,-886.0,-4452.0,7454.0,0.668,-0.235,-0.118,0.696
71271,-992.0,-4404.0,7452.0,0.668,-0.235,-0.118,0.696
71283,-956.0,-4446.0,7476.0,0.668,-0.235,-0.118,0.696
71305,-784.0,-4468.0,7578.0,0.668,-0.235,-0.118,0.697
71317,-606.0,-4504.0,7480.0,0.667,-0.235,-0.117,0.697
71339,-448.0,-4418.0,7378.0,0.667,-0.235,-0.117,0.697
71351,-546.0,-4318.0,7386.0,0.668,-0.235,-0.117,0.697
71373,-782.0,-4444.0,7400.0,0.668,-0.235,-0.117,0.696
71395,-948.0,-4386.0,7542.0,0.668,-0.234,-0.117,0.696
71407,-1010.0,-4444.0,7574.0,0.668,-0.235,-0.117,0.696
71429,-764.0,-4460.0,7594.0,0.668,-0.235,-0.117,0.696
71441,-636.0,-4402.0,7464.0,0.668,-0.235,-0.116,0.696
71463,-616.0,-4490.0,7436.0,0.668,-0.235,-0.116,0.696
71475,-632.0,-4430.0,7634.0,0.668,-0.235,-0.116,0.696
71497,-792.0,-4438.0,7714.0,0.669,-0.235,-0.116,0.696
71509,-888.0,-4334.0,7784.0,0.67,-0.234,-0.116,0.695
71531,-1000.0,-4354.0,7512.0,0.67,-0.233,-0.115,0.695
71543,-1122.0,-4474.0,7024.0,0.67,-0.233,-0.114,0.695
71565,-806.0,-4470.0,7238.0,0.669,-0.235,-0.114,0.696
71587,-588.0,-4448.0,7640.0,0.669,-0.236,-0.114,0.696
71599,-552.0,-4410.0,7914.0,0.669,-0.236,-0.114,0.696
71621,-706.0,-4378.0,7814.0,0.669,-0.235,-0.114,0.696
71633,-980.0,-4222.0,7480.0,0.67,-0.234,-0.113,0.695
71655,-1002.0,-4398.0,7198.0,0.67,-0.233,-0.113,0.695
71667,-920.0,-4420.0,7304.0,0.67,-0.234,-0.113,0.696
71689,-744.0,-4476.0,7702.0,0.67,-0.235,-0.113,0.696
71701,-628.0,-4378.0,7870.0,0.67,-0.235,-0.113,0.696
71723,-766.0,-4474.0,7728.0,0.67,-0.234,-0.112,0.695
71735,-868.0,-4290.0,7484.0,0.671,-0.233,-0.112,0.695
71757,-958.0,-4324.0,7360.0,0.671,-0.233,-0.111,0.695
71779,-936.0,-4462.0,7268.0,0.671,-0.233,-0.111,0.695
71791,-874.0,-4402.0,7632.0,0.671,-0.233,-0.111,0.695
71813,-718.0,-4282.0,7736.0,0.671,-0.233,-0.111,0.695
71825,-812.0,-4320.0,7576.0,0.671,-0.233,-0.111,0.695
71847,-842.0,-4384.0,7396.0,0.671,-0.232,-0.11,0.695
71859,-942.0,-4376.0,7594.0,0.672,-0.232,-0.111,0.695
71881,-1062.0,-4466.0,7736.0,0.672,-0.232,-0.111,0.695
71893,-852.0,-4448.0,7834.0,0.672,-0.232,-0.11,0.695
71915,-772.0,-4372.0,7652.0,0.672,-0.232,-0.109,0.695
71927,-644.0,-4228.0,7402.0,0.672,-0.232,-0.108,0.695
71949,-704.0,-4320.0,7156.0,0.672,-0.231,-0.108,0.695
71971,-908.0,-4330.0,7526.0,0.673,-0.231,-0.108,0.694
71983,-1086.0,-4328.0,7700.0,0.673,-0.231,-0.109,0.694
72005,-1024.0,-4326.0,7758.0,0.673,-0.231,-0.108,0.694
72017,-816.0,-4278.0,7622.0,0.673,-0.231,-0.107,0.695
72039,-702.0,-4320.0,7586.0,0.673,-0.231,-0.106,0.695
72051,-764.0,-4372.0,7462.0,0.673,-0.231,-0.105,0.695
72073,-940.0,-4168.0,7610.0,0.673,-0.231,-0.105,0.695
72085,-1126.0,-4302.0,7666.0,0.673,-0.23,-0.105,0.695
72107,-1094.0,-4270.0,7682.0,0.673,-0.23,-0.104,0.696
72119,-1060.0,-4220.0,7742.0,0.672,-0.23,-0.102,0.696
72141,-1008.0,-4290.0,7618.0,0.672,-0.23,-0.1,0.697
72168,-902.0,-4040.0,7768.0,0.671,-0.23,-0.099,0.698
72180,-990.0,-4188.0,8000.0,0.671,-0.229,-0.098,0.699
72192,-1050.0,-4286.0,8128.0,0.671,-0.227,-0.096,0.7
72214,-1046.0,-4164.0,8052.0,0.67,-0.225,-0.094,0.701
72226,-1024.0,-4202.0,7674.0,0.67,-0.223,-0.091,0.702
72248,-1010.0,-4110.0,7484.0,0.67,-0.22,-0.089,0.703
72260,-1126.0,-3900.0,7818.0,0.67,-0.219,-0.086,0.704
72282,-1372.0,-4070.0,7772.0,0.669,-0.216,-0.085,0.706
72294,-1458.0,-3908.0,8330.0,0.668,-0.213,-0.083,0.708
72316,-1464.0,-4126.0,8986.0,0.667,-0.21,-0.079,0.711
72338,-1276.0,-4440.0,9614.0,0.665,-0.208,-0.072,0.714
72350,-1126.0,-3846.0,9798.0,0.663,-0.206,-0.06,0.717
72372,-1164.0,-3296.0,9174.0,0.662,-0.2,-0.044,0.721
72384,-1238.0,-3404.0,8440.0,0.661,-0.192,-0.027,0.725
72406,-1512.0,-3542.0,7974.0,0.66,-0.183,-0.012,0.728
72418,-1974.0,-3206.0,8018.0,0.659,-0.175,0.004,0.732
72440,-2586.0,-2942.0,8816.0,0.656,-0.169,0.02,0.735
72452,-3278.0,-2648.0,9522.0,0.652,-0.162,0.038,0.739
72474,-2716.0,-5814.0,9378.0,0.645,-0.148,0.057,0.748
72486,-3026.0,-2696.0,10000.0,0.633,-0.133,0.082,0.758
72508,-3062.0,-2200.0,10660.0,0.619,-0.106,0.108,0.771
72530,-2332.0,-2774.0,10320.0,0.604,-0.064,0.135,0.782
72542,-1120.0,-836.0,9670.0,0.589,-0.016,0.165,0.791
72564,-24.0,608.0,7224.0,0.577,0.041,0.194,0.792
72576,1064.0,612.0,3976.0,0.569,0.1,0.217,0.787
72598,1578.0,2332.0,516.0,0.566,0.156,0.231,0.776
72610,1558.0,5394.0,-372.0,0.57,0.194,0.227,0.765
72632,952.0,2678.0,6516.0,0.578,0.214,0.21,0.759
72644,1218.0,3252.0,14602.0,0.581,0.232,0.202,0.754
72666,2794.0,4046.0,15480.0,0.58,0.267,0.211,0.74
72678,2958.0,3840.0,8844.0,0.58,0.317,0.227,0.715
72700,2462.0,3424.0,4558.0,0.582,0.368,0.243,0.683
72722,1702.0,4604.0,3250.0,0.584,0.404,0.258,0.656
72734,1664.0,5314.0,5016.0,0.584,0.433,0.269,0.631
72756,1388.0,6078.0,3714.0,0.583,0.463,0.281,0.606
72768,756.0,6032.0,904.0,0.579,0.487,0.291,0.585
72790,924.0,6326.0,-270.0,0.576,0.503,0.296,0.571
72802,1352.0,6910.0,-380.0,0.575,0.514,0.296,0.563
72824,1370.0,6808.0,-266.0,0.576,0.518,0.293,0.56
72836,2340.0,7044.0,1890.0,0.578,0.517,0.288,0.561
72858,3118.0,7284.0,4216.0,0.58,0.514,0.284,0.564
72870,3200.0,7510.0,4966.0,0.58,0.514,0.285,0.564
72892,2228.0,7156.0,3240.0,0.58,0.515,0.288,0.561
72914,2050.0,6938.0,1980.0,0.58,0.517,0.288,0.559
72926,2838.0,7178.0,2822.0,0.581,0.518,0.286,0.559
72948,2936.0,7142.0,3592.0,0.582,0.518,0.286,0.558
72960,2570.0,7200.0,3484.0,0.583,0.518,0.287,0.557
72982,2594.0,7078.0,2848.0,0.583,0.519,0.287,0.555
72994,2394.0,7110.0,2630.0,0.584,0.519,0.287,0.554
73016,2376.0,7196.0,3124.0,0.585,0.518,0.286,0.554
73028,2574.0,7124.0,3476.0,0.586,0.518,0.285,0.554
73050,2736.0,7276.0,3634.0,0.587,0.518,0.284,0.553
73062,2796.0,7218.0,3658.0,0.587,0.519,0.284,0.552
73084,2436.0,7206.0,2658.0,0.588,0.519,0.285,0.551
73106,2328.0,7082.0,2686.0,0.589,0.519,0.285,0.55
73118,2614.0,7178.0,3502.0,0.589,0.519,0.284,0.55
73140,2442.0,7156.0,3210.0,0.59,0.519,0.284,0.549
73152,2470.0,7102.0,2872.0,0.59,0.52,0.284,0.548
73174,2598.0,7290.0,3266.0,0.591,0.52,0.284,0.548
73186,2342.0,7160.0,3228.0,0.592,0.52,0.283,0.547
73208,2310.0,7148.0,2870.0,0.592,0.52,0.283,0.546
73220,2492.0,7060.0,3034.0,0.593,0.52,0.282,0.546
73242,2710.0,7244.0,3472.0,0.594,0.52,0.282,0.545
73254,2570.0,7260.0,3304.0,0.594,0.52,0.283,0.544
73276,2224.0,7164.0,2906.0,0.595,0.521,0.283,0.544
73298,2354.0,7236.0,3030.0,0.595,0.521,0.282,0.543
73310,2556.0,7172.0,3224.0,0.596,0.521,0.281,0.543
73332,2428.0,7298.0,3102.0,0.597,0.521,0.281,0.542
73344,2230.0,7124.0,2978.0,0.597,0.521,0.281,0.541
73366,2350.0,7146.0,2982.0,0.598,0.521,0.28,0.541
73378,2656.0,7156.0,3434.0,0.599,0.522,0.279,0.54
73400,2430.0,7204.0,2988.0,0.599,0.522,0.279,0.539
73412,2258.0,7198.0,2996.0,0.6,0.522,0.279,0.539
73434,2214.0,7266.0,3016.0,0.6,0.522,0.278,0.538
73446,2302.0,7304.0,3072.0,0.601,0.522,0.277,0.538
73468,2436.0,7194.0,3244.0,0.602,0.522,0.276,0.537
73490,2402.0,7222.0,2900.0,0.602,0.523,0.275,0.537
73502,2636.0,7134.0,3280.0,0.603,0.523,0.274,0.537
73524,2870.0,7192.0,3500.0,0.604,0.522,0.274,0.537
73536,2710.0,7222.0,3354.0,0.604,0.522,0.274,0.536
73558,2290.0,7222.0,3188.0,0.605,0.521,0.274,0.535
73570,2074.0,7134.0,2946.0,0.606,0.521,0.275,0.534
73592,2124.0,7272.0,2978.0,0.607,0.521,0.274,0.534
73604,2384.0,7110.0,3424.0,0.607,0.521,0.274,0.534
73626,2432.0,7220.0,3216.0,0.607,0.522,0.273,0.533
73638,2178.0,7106.0,2694.0,0.608,0.522,0.273,0.532
73660,2430.0,7300.0,3316.0,0.609,0.521,0.272,0.532
73682,2404.0,7276.0,3300.0,0.609,0.521,0.272,0.532
73694,2328.0,7224.0,3008.0,0.61,0.522,0.272,0.531
73716,2300.0,7208.0,2976.0,0.611,0.522,0.272,0.53
73728,2040.0,7216.0,2968.0,0.611,0.521,0.271,0.53
73750,2228.0,7226.0,3294.0,0.612,0.521,0.27,0.53
73762,2648.0,7240.0,3536.0,0.612,0.521,0.268,0.53
73784,2668.0,7200.0,3588.0,0.613,0.521,0.268,0.53
73796,2192.0,7200.0,2972.0,0.613,0.522,0.268,0.529
73818,2134.0,7136.0,3090.0,0.614,0.522,0.268,0.528
73830,2584.0,7236.0,3560.0,0.614,0.522,0.267,0.528
73852,2430.0,7188.0,3136.0,0.615,0.522,0.267,0.527
73874,2268.0,7246.0,3020.0,0.615,0.523,0.266,0.527
73886,2212.0,7200.0,3226.0,0.616,0.523,0.266,0.526
73908,2264.0,7258.0,3122.0,0.616,0.523,0.265,0.525
73920,2192.0,7246.0,3000.0,0.617,0.523,0.264,0.525
73942,2290.0,7302.0,3244.0,0.618,0.523,0.263,0.525
73954,2320.0,7168.0,3292.0,0.618,0.523,0.263,0.524
73976,2422.0,7212.0,3452.0,0.619,0.524,0.262,0.524
73988,2376.0,7182.0,3104.0,0.619,0.524,0.262,0.523
74010,2178.0,7232.0,2890.0,0.619,0.524,0.261,0.523
74022,2126.0,7170.0,3224.0,0.62,0.524,0.261,0.522
74044,2394.0,7132.0,3282.0,0.62,0.525,0.26,0.522
74066,2594.0,7296.0,3204.0,0.621,0.525,0.259,0.522
74078,2436.0,7186.0,3302.0,0.622,0.525,0.258,0.521
74100,2298.0,7202.0,3356.0,0.622,0.525,0.257,0.521
74112,2540.0,7246.0,3746.0,0.623,0.525,0.257,0.52
74134,2312.0,7198.0,3162.0,0.623,0.525,0.257,0.519
74146,2270.0,7150.0,2986.0,0.623,0.526,0.257,0.519
74173,2174.0,7174.0,2692.0,0.623,0.526,0.257,0.518
74185,2238.0,7250.0,3122.0,0.624,0.526,0.256,0.518
74197,2324.0,7106.0,3282.0,0.625,0.526,0.256,0.517
74219,2480.0,7362.0,3336.0,0.625,0.526,0.255,0.517
74241,2378.0,7206.0,3270.0,0.626,0.526,0.255,0.516
74253,1970.0,7264.0,2928.0,0.626,0.526,0.255,0.515
74275,2076.0,7214.0,3418.0,0.627,0.526,0.254,0.516
74287,2462.0,7300.0,3444.0,0.627,0.527,0.253,0.515
74309,2654.0,7296.0,3424.0,0.627,0.527,0.253,0.515
74321,2274.0,7170.0,2904.0,0.627,0.528,0.253,0.514
74343,2096.0,7152.0,3098.0,0.628,0.527,0.253,0.513
74355,2310.0,7156.0,3286.0,0.628,0.528,0.252,0.513
74377,2442.0,7176.0,3086.0,0.629,0.528,0.251,0.513
74389,2338.0,7156.0,2908.0,0.629,0.528,0.251,0.512
74411,2258.0,7256.0,3246.0,0.63,0.528,0.25,0.512
74433,2290.0,7292.0,3414.0,0.631,0.527,0.25,0.512
74445,2316.0,7354.0,3284.0,0.631,0.527,0.25,0.511
74467,2252.0,7316.0,3270.0,0.632,0.527,0.25,0.511
74479,2240.0,7238.0,3344.0,0.633,0.527,0.249,0.51
74501,2212.0,7152.0,3170.0,0.633,0.527,0.249,0.51
74513,2302.0,7152.0,3198.0,0.633,0.527,0.248,0.51
74535,2378.0,7156.0,3270.0,0.634,0.528,0.247,0.509
74547,2274.0,7142.0,3048.0,0.634,0.528,0.247,0.509
74569,2286.0,7206.0,3230.0,0.635,0.527,0.246,0.508
74581,2224.0,7224.0,3470.0,0.635,0.527,0.246,0.508
74603,2084.0,7270.0,3236.0,0.636,0.528,0.246,0.507
74625,2150.0,7266.0,3076.0,0.636,0.528,0.245,0.507
74637,2504.0,7264.0,3248.0,0.636,0.528,0.244,0.506
74659,2480.0,7316.0,3546.0,0.637,0.528,0.244,0.506
74671,2132.0,7198.0,3332.0,0.637,0.528,0.244,0.505
74693,1998.0,7194.0,2980.0,0.638,0.529,0.244,0.504
74705,2086.0,7174.0,2850.0,0.638,0.529,0.243,0.504
74727,2344.0,7218.0,3314.0,0.639,0.529,0.242,0.504
74739,2284.0,7278.0,3108.0,0.639,0.529,0.241,0.503
74761,2370.0,7272.0,3390.0,0.64,0.529,0.241,0.503
74773,2206.0,7288.0,3388.0,0.64,0.529,0.241,0.502
74795,2152.0,7244.0,3224.0,0.64,0.53,0.24,0.502
74817,2272.0,7226.0,3328.0,0.641,0.53,0.239,0.501
74829,2360.0,7240.0,3110.0,0.641,0.53,0.239,0.501
74851,2104.0,7142.0,2802.0,0.642,0.53,0.238,0.5
74863,1870.0,7128.0,2734.0,0.643,0.53,0.237,0.5
74885,2242.0,7126.0,3414.0,0.644,0.529,0.234,0.5
74897,2666.0,7232.0,3854.0,0.645,0.529,0.233,0.501
74919,2708.0,7258.0,3880.0,0.645,0.529,0.232,0.5
74931,2274.0,7220.0,3256.0,0.646,0.529,0.233,0.499
74953,1896.0,7182.0,2964.0,0.646,0.529,0.233,0.499
74965,2238.0,7352.0,3492.0,0.647,0.529,0.232,0.499
74987,2322.0,7182.0,3406.0,0.647,0.529,0.232,0.498
75009,2206.0,7142.0,2922.0,0.647,0.529,0.231,0.498
75021,2382.0,7018.0,3316.0,0.648,0.529,0.231,0.497
75043,2456.0,7190.0,3450.0,0.648,0.529,0.23,0.497
75055,2170.0,7396.0,3300.0,0.648,0.53,0.231,0.496
75077,1930.0,7264.0,3038.0,0.649,0.53,0.23,0.495
75089,2302.0,7314.0,3440.0,0.649,0.53,0.229,0.495
75111,2392.0,7386.0,3440.0,0.649,0.53,0.229,0.495
75123,2130.0,7260.0,3294.0,0.65,0.53,0.229,0.494
75145,2110.0,7062.0,3086.0,0.65,0.531,0.228,0.494
75157,2428.0,7090.0,3112.0,0.65,0.531,0.227,0.493
75179,2414.0,7196.0,3324.0,0.651,0.531,0.227,0.493
75201,2174.0,7208.0,3370.0,0.651,0.531,0.227,0.492
75213,2216.0,7320.0,3318.0,0.651,0.531,0.227,0.492
75235,2244.0,7266.0,3102.0,0.652,0.532,0.226,0.491
75247,2182.0,7240.0,3300.0,0.652,0.532,0.225,0.491
75269,2450.0,7222.0,3838.0,0.653,0.532,0.225,0.491
75281,2316.0,7274.0,3204.0,0.652,0.533,0.225,0.49
75303,2158.0,7104.0,2790.0,0.653,0.533,0.225,0.489
75315,2110.0,7222.0,3364.0,0.653,0.533,0.225,0.489
75337,2254.0,7190.0,3554.0,0.653,0.533,0.224,0.489
75349,2394.0,7186.0,3088.0,0.653,0.534,0.224,0.488
75371,2218.0,7246.0,2962.0,0.654,0.534,0.224,0.487
75393,2086.0,7262.0,3434.0,0.655,0.533,0.223,0.487
75405,2308.0,7280.0,3448.0,0.655,0.534,0.223,0.487
75427,2130.0,7270.0,3056.0,0.655,0.534,0.222,0.486
75439,2132.0,7184.0,3142.0,0.655,0.534,0.222,0.486
75461,2356.0,7202.0,3576.0,0.656,0.534,0.221,0.486
75473,2504.0,7208.0,3350.0,0.656,0.535,0.221,0.485
75495,2254.0,7168.0,2952.0,0.656,0.535,0.221,0.484
75507,2042.0,7218.0,3062.0,0.657,0.535,0.22,0.484
75529,2204.0,7264.0,3360.0,0.657,0.535,0.219,0.483
75541,2434.0,7280.0,3490.0,0.658,0.535,0.219,0.483
75563,2320.0,7254.0,3230.0,0.658,0.535,0.219,0.482
75585,2170.0,7012.0,2980.0,0.659,0.535,0.219,0.482
75597,2324.0,7038.0,3142.0,0.659,0.535,0.218,0.481
75619,2300.0,7226.0,3320.0,0.66,0.535,0.218,0.481
75631,2056.0,7288.0,3230.0,0.66,0.535,0.218,0.48
75653,1832.0,7238.0,3052.0,0.661,0.535,0.218,0.479
75665,2112.0,7320.0,3446.0,0.661,0.535,0.217,0.479
75687,2328.0,7282.0,3402.0,0.662,0.535,0.216,0.479
75699,2362.0,7404.0,3410.0,0.662,0.535,0.216,0.478
75721,2026.0,7238.0,3116.0,0.662,0.536,0.216,0.477
75733,1846.0,7126.0,3040.0,0.663,0.536,0.216,0.477
75755,2242.0,7114.0,3292.0,0.663,0.536,0.215,0.476
75777,2586.0,7178.0,3412.0,0.663,0.536,0.214,0.476
75789,2118.0,7212.0,3150.0,0.664,0.536,0.214,0.475
75811,1938.0,7184.0,3152.0,0.664,0.536,0.214,0.475
75823,2394.0,7254.0,3428.0,0.665,0.537,0.213,0.475
75845,2434.0,7240.0,3556.0,0.665,0.537,0.212,0.474
75857,2280.0,7208.0,3274.0,0.665,0.537,0.212,0.473
75879,2216.0,7158.0,3160.0,0.666,0.537,0.211,0.472
75891,2084.0,7246.0,3280.0,0.667,0.538,0.21,0.472
75913,2122.0,7242.0,3172.0,0.667,0.538,0.21,0.471
75925,2074.0,7216.0,3240.0,0.668,0.538,0.209,0.47
75947,2180.0,7282.0,3360.0,0.668,0.538,0.208,0.47
75969,2240.0,7338.0,3274.0,0.668,0.539,0.208,0.469
75981,2142.0,7352.0,3130.0,0.669,0.539,0.208,0.468
76003,2074.0,7250.0,3152.0,0.669,0.539,0.208,0.467
76015,2090.0,7238.0,3442.0,0.67,0.539,0.207,0.467
76037,2240.0,7248.0,3270.0,0.67,0.539,0.207,0.466
76049,2124.0,7248.0,2934.0,0.67,0.54,0.207,0.466
76071,2088.0,7278.0,3394.0,0.671,0.539,0.207,0.465
76083,2096.0,7242.0,3438.0,0.671,0.54,0.206,0.465
76105,2120.0,7206.0,2972.0,0.671,0.54,0.206,0.464
76117,2292.0,7262.0,3188.0,0.672,0.54,0.205,0.464
76139,2332.0,7270.0,3608.0,0.672,0.54,0.205,0.463
76161,2104.0,7278.0,3104.0,0.672,0.541,0.205,0.462
76178,1990.0,7302.0,3040.0,0.673,0.541,0.204,0.462
76190,1934.0,7216.0,3380.0,0.673,0.541,0.204,0.462
76212,2218.0,7208.0,3180.0,0.673,0.541,0.203,0.461
76224,2308.0,7270.0,3256.0,0.673,0.541,0.203,0.461
76246,2208.0,7228.0,3232.0,0.674,0.541,0.203,0.461
76258,1948.0,7250.0,3096.0,0.674,0.541,0.202,0.46
76280,2066.0,7214.0,3412.0,0.674,0.541,0.201,0.46
76292,2334.0,7258.0,3372.0,0.674,0.542,0.201,0.46
76314,2370.0,7316.0,3202.0,0.675,0.542,0.201,0.459
76326,2038.0,7238.0,3096.0,0.675,0.542,0.201,0.458
76348,1970.0,7224.0,3166.0,0.676,0.542,0.2,0.458
76370,2160.0,7228.0,3220.0,0.676,0.542,0.199,0.458
76382,2352.0,7338.0,3344.0,0.676,0.542,0.199,0.457
76404,2034.0,7276.0,3220.0,0.677,0.542,0.199,0.457
76416,2026.0,7228.0,3136.0,0.677,0.543,0.198,0.456
76438,2308.0,7264.0,3222.0,0.677,0.543,0.197,0.456
76450,2364.0,7296.0,3220.0,0.677,0.543,0.197,0.456
76472,2152.0,7266.0,3388.0,0.678,0.543,0.197,0.455
76484,2018.0,7178.0,3236.0,0.678,0.543,0.197,0.455
76506,2196.0,7294.0,3160.0,0.678,0.544,0.196,0.454
76528,2282.0,7308.0,3282.0,0.678,0.544,0.196,0.454
76540,1944.0,7346.0,3230.0,0.679,0.544,0.196,0.453
76562,1998.0,7156.0,3126.0,0.679,0.544,0.195,0.453
76574,2450.0,7356.0,3536.0,0.679,0.544,0.195,0.453
76596,2226.0,7312.0,3272.0,0.679,0.545,0.195,0.452
76608,1908.0,7222.0,2834.0,0.679,0.545,0.195,0.451
76630,1926.0,7114.0,2848.0,0.68,0.545,0.194,0.451
76642,2352.0,7328.0,3410.0,0.68,0.545,0.193,0.451
76664,2410.0,7236.0,3494.0,0.68,0.545,0.193,0.45
76676,2196.0,7328.0,3182.0,0.68,0.546,0.193,0.449
76698,1946.0,7286.0,3102.0,0.681,0.546,0.193,0.449
76720,2016.0,7346.0,3252.0,0.681,0.546,0.193,0.449
76732,2354.0,7296.0,3340.0,0.681,0.546,0.192,0.448
76754,2282.0,7248.0,3056.0,0.681,0.547,0.193,0.448
76766,1970.0,7208.0,2926.0,0.681,0.547,0.193,0.447
76788,2028.0,7218.0,3010.0,0.681,0.547,0.192,0.447
76800,2358.0,7234.0,3248.0,0.682,0.547,0.191,0.447
76822,2428.0,7354.0,3512.0,0.682,0.547,0.191,0.446
76834,1928.0,7320.0,3062.0,0.682,0.547,0.192,0.446
76856,1930.0,7274.0,2982.0,0.682,0.548,0.191,0.445
76868,2334.0,7386.0,3364.0,0.683,0.548,0.19,0.445
76890,2252.0,7388.0,3400.0,0.683,0.548,0.19,0.445
76912,2108.0,7264.0,3046.0,0.683,0.548,0.19,0.444
76924,2144.0,7160.0,3354.0,0.683,0.549,0.189,0.444
76946,1844.0,7316.0,2772.0,0.683,0.55,0.189,0.443
76958,2164.0,7382.0,3156.0,0.683,0.55,0.188,0.443
76980,2160.0,7282.0,3178.0,0.683,0.551,0.188,0.442
76992,1980.0,7462.0,2870.0,0.683,0.551,0.187,0.442
77014,1880.0,7030.0,2682.0,0.683,0.552,0.184,0.442
77026,1840.0,7666.0,2756.0,0.683,0.552,0.18,0.442
77048,1778.0,7140.0,2862.0,0.684,0.553,0.174,0.443
77060,1790.0,7066.0,2780.0,0.684,0.552,0.168,0.445
77082,1414.0,7252.0,2372.0,0.686,0.55,0.16,0.448
77104,1276.0,1140.0,-408.0,0.696,0.558,0.128,0.433
77116,3272.0,7376.0,1722.0,0.702,0.548,0.112,0.442
77138,3480.0,6878.0,2856.0,0.71,0.533,0.097,0.45
77150,3266.0,7866.0,5128.0,0.717,0.514,0.089,0.462
77172,3314.0,5448.0,5840.0,0.724,0.494,0.084,0.474
77184,3210.0,6002.0,5238.0,0.729,0.471,0.088,0.49
77206,2574.0,5918.0,7028.0,0.732,0.451,0.091,0.502
77218,1686.0,6230.0,8324.0,0.734,0.432,0.096,0.515
77240,1810.0,4948.0,6132.0,0.734,0.428,0.089,0.52
77252,2500.0,5682.0,7294.0,0.728,0.411,0.105,0.539
77274,2362.0,4952.0,6870.0,0.721,0.407,0.11,0.55
77296,3090.0,5290.0,5652.0,0.715,0.409,0.11,0.557
77308,3752.0,5488.0,5222.0,0.708,0.407,0.114,0.565
77330,3784.0,5766.0,4870.0,0.705,0.399,0.122,0.574
77342,3238.0,5470.0,4810.0,0.703,0.384,0.134,0.584
77364,2528.0,5238.0,5658.0,0.702,0.365,0.147,0.594
77376,2162.0,2344.0,1408.0,0.709,0.366,0.136,0.588
77398,2454.0,5938.0,4662.0,0.708,0.346,0.149,0.598
77410,1970.0,4764.0,6226.0,0.708,0.33,0.158,0.605
77432,1816.0,4696.0,5972.0,0.71,0.325,0.156,0.605
77444,1558.0,6770.0,10798.0,0.716,0.334,0.139,0.597
77466,1846.0,4814.0,7852.0,0.717,0.327,0.14,0.599
77488,1908.0,4774.0,6988.0,0.717,0.32,0.146,0.602
77500,1718.0,5066.0,6882.0,0.718,0.312,0.152,0.604
77522,1300.0,5038.0,6766.0,0.719,0.308,0.155,0.604
77534,904.0,4344.0,6964.0,0.72,0.306,0.156,0.603
77556,1002.0,4746.0,7496.0,0.72,0.304,0.157,0.604
77568,1132.0,4940.0,7662.0,0.72,0.305,0.158,0.604
77590,1544.0,4866.0,6694.0,0.719,0.304,0.16,0.604
77602,1640.0,5030.0,6602.0,0.719,0.303,0.163,0.604
77624,1084.0,4892.0,6832.0,0.72,0.302,0.164,0.603
77636,908.0,4886.0,6874.0,0.72,0.303,0.165,0.602
77658,1096.0,5030.0,6526.0,0.72,0.304,0.165,0.602
77680,1308.0,4854.0,6396.0,0.72,0.303,0.164,0.602
77692,1250.0,4870.0,7300.0,0.721,0.302,0.165,0.602
77714,1196.0,4814.0,7510.0,0.721,0.301,0.166,0.601
77726,1200.0,4882.0,6770.0,0.721,0.301,0.168,0.601
77748,1112.0,4940.0,6490.0,0.721,0.301,0.169,0.601
77760,1006.0,4852.0,6600.0,0.721,0.301,0.17,0.6
77782,1022.0,4882.0,6972.0,0.722,0.3,0.17,0.6
77794,1068.0,4894.0,7256.0,0.722,0.3,0.17,0.6
77816,990.0,5020.0,6738.0,0.721,0.301,0.171,0.6
77828,1128.0,4978.0,6472.0,0.721,0.301,0.172,0.6
77850,1092.0,4876.0,7054.0,0.722,0.3,0.172,0.6
77872,934.0,4930.0,7254.0,0.722,0.3,0.173,0.6
77884,954.0,4996.0,6816.0,0.721,0.3,0.174,0.599
77906,1140.0,4974.0,6684.0,0.721,0.301,0.174,0.599
77918,1188.0,5042.0,6660.0,0.721,0.301,0.174,0.599
77940,972.0,4958.0,6712.0,0.722,0.302,0.174,0.598
77952,854.0,4918.0,7274.0,0.722,0.301,0.174,0.598
77974,1124.0,4882.0,7080.0,0.721,0.301,0.175,0.599
77986,1274.0,5062.0,6602.0,0.721,0.302,0.176,0.598
78008,990.0,5060.0,6604.0,0.721,0.302,0.176,0.598
78020,870.0,5072.0,6724.0,0.722,0.302,0.176,0.598
78042,1082.0,5038.0,6934.0,0.722,0.302,0.176,0.597
78064,1092.0,5030.0,7238.0,0.722,0.303,0.176,0.597
78076,996.0,4934.0,6842.0,0.722,0.303,0.177,0.597
78098,1084.0,5006.0,6674.0,0.721,0.303,0.178,0.597
78110,1038.0,5124.0,6460.0,0.721,0.304,0.178,0.597
78132,916.0,5078.0,6428.0,0.721,0.304,0.178,0.596
78144,1060.0,5042.0,6760.0,0.722,0.304,0.177,0.596
78166,1156.0,5094.0,7224.0,0.722,0.304,0.177,0.596
78183,984.0,5054.0,6854.0,0.722,0.304,0.177,0.595
78195,936.0,5134.0,6764.0,0.722,0.305,0.178,0.595
78217,856.0,5100.0,6756.0,0.722,0.305,0.178,0.595
78229,984.0,5032.0,6808.0,0.722,0.305,0.178,0.595
78251,1240.0,5136.0,6758.0,0.722,0.306,0.178,0.595
78273,1124.0,4890.0,6682.0,0.722,0.306,0.178,0.594
78285,964.0,5136.0,7030.0,0.722,0.306,0.178,0.594
78307,732.0,5048.0,6754.0,0.722,0.307,0.179,0.594
78319,1068.0,5100.0,6672.0,0.722,0.307,0.179,0.594
78341,1130.0,5068.0,6964.0,0.722,0.308,0.179,0.593
78353,938.0,5106.0,6660.0,0.722,0.308,0.18,0.593
78375,890.0,5140.0,6666.0,0.722,0.309,0.179,0.593
78387,1070.0,5064.0,6882.0,0.722,0.31,0.179,0.593
78409,1086.0,5132.0,7108.0,0.721,0.311,0.179,0.592
78421,1124.0,5118.0,6942.0,0.721,0.312,0.18,0.592
78443,968.0,5114.0,6830.0,0.72,0.313,0.182,0.592
78465,1024.0,5246.0,6216.0,0.719,0.314,0.184,0.592
78477,864.0,5234.0,6468.0,0.719,0.315,0.184,0.592
78499,956.0,5286.0,6780.0,0.718,0.315,0.185,0.592
78511,1366.0,5328.0,6550.0,0.717,0.316,0.186,0.593
78533,1370.0,5242.0,6388.0,0.717,0.316,0.187,0.593
78545,872.0,5228.0,6562.0,0.717,0.315,0.189,0.593
78567,778.0,5286.0,6336.0,0.716,0.315,0.19,0.593
78579,1224.0,5264.0,6284.0,0.716,0.315,0.19,0.593
78601,1188.0,5402.0,6580.0,0.717,0.315,0.19,0.593
78613,682.0,5312.0,6652.0,0.717,0.315,0.19,0.592
78635,792.0,5284.0,6708.0,0.717,0.315,0.19,0.593
78657,1240.0,5374.0,6510.0,0.716,0.315,0.19,0.593
78669,1084.0,5160.0,6760.0,0.717,0.314,0.19,0.593
78691,992.0,5294.0,6568.0,0.717,0.314,0.191,0.593
78703,1002.0,5316.0,6500.0,0.716,0.314,0.192,0.593
78725,1068.0,5244.0,6526.0,0.717,0.313,0.192,0.593
78737,920.0,5274.0,6636.0,0.717,0.313,0.192,0.592
78759,722.0,5220.0,6498.0,0.717,0.313,0.192,0.592
78771,992.0,5354.0,6600.0,0.717,0.313,0.192,0.592
78793,764.0,5176.0,6742.0,0.717,0.313,0.192,0.592
78805,936.0,5268.0,6628.0,0.717,0.313,0.192,0.592
78827,1066.0,5218.0,6382.0,0.717,0.312,0.193,0.592
78849,910.0,5262.0,6562.0,0.717,0.312,0.193,0.592
78861,706.0,5316.0,6742.0,0.717,0.312,0.193,0.592
78883,800.0,5500.0,6244.0,0.717,0.312,0.193,0.592
78895,746.0,5360.0,6204.0,0.717,0.313,0.192,0.592
78917,1072.0,5274.0,6908.0,0.718,0.313,0.19,0.592
78929,930.0,5262.0,7086.0,0.718,0.314,0.19,0.592
78951,838.0,5250.0,6646.0,0.717,0.315,0.19,0.592
78963,1084.0,5282.0,6442.0,0.717,0.315,0.19,0.593
78985,1292.0,5278.0,6420.0,0.716,0.315,0.19,0.593
78997,1240.0,5140.0,6550.0,0.716,0.315,0.19,0.593
79019,1104.0,5318.0,6674.0,0.716,0.314,0.191,0.593
79041,852.0,5212.0,6758.0,0.717,0.313,0.191,0.593
79053,938.0,5306.0,6668.0,0.716,0.313,0.192,0.593
79075,884.0,5352.0,6248.0,0.716,0.313,0.192,0.593
79087,946.0,5244.0,6404.0,0.717,0.313,0.192,0.593
79109,1160.0,5170.0,6840.0,0.717,0.312,0.191,0.593
79121,996.0,5210.0,6912.0,0.717,0.312,0.191,0.593
79143,982.0,5254.0,6388.0,0.717,0.313,0.192,0.593
79155,1020.0,5324.0,6338.0,0.717,0.312,0.192,0.593
79177,886.0,5368.0,6874.0,0.717,0.311,0.192,0.593
79189,886.0,5340.0,6932.0,0.717,0.311,0.193,0.593
79211,974.0,5270.0,6350.0,0.717,0.311,0.193,0.593
79233,1116.0,5268.0,6328.0,0.717,0.311,0.193,0.593
79245,990.0,5264.0,6818.0,0.717,0.311,0.192,0.593
79267,648.0,5210.0,6822.0,0.717,0.312,0.192,0.593
79279,850.0,5210.0,6346.0,0.717,0.312,0.192,0.593
79301,1236.0,5184.0,6296.0,0.717,0.312,0.192,0.593
79313,1274.0,5340.0,7032.0,0.717,0.311,0.191,0.593
79335,1002.0,5326.0,7046.0,0.718,0.311,0.192,0.593
79347,910.0,5436.0,6458.0,0.718,0.311,0.193,0.593
79369,880.0,5586.0,6254.0,0.718,0.311,0.193,0.592
79381,668.0,5502.0,6682.0,0.718,0.312,0.193,0.592
79403,870.0,5438.0,6172.0,0.718,0.312,0.192,0.592
79425,948.0,5358.0,6336.0,0.717,0.312,0.192,0.593
79437,1004.0,5170.0,6328.0,0.717,0.312,0.191,0.593
79459,1116.0,5126.0,6594.0,0.717,0.311,0.191,0.593
79471,1058.0,5112.0,6766.0,0.718,0.311,0.19,0.593
79493,970.0,5064.0,6706.0,0.718,0.311,0.19,0.593
79505,942.0,5102.0,6626.0,0.718,0.312,0.189,0.593
79527,1118.0,4984.0,6788.0,0.718,0.312,0.187,0.593
79539,1128.0,4952.0,6922.0,0.719,0.313,0.186,0.592
79561,960.0,4650.0,6732.0,0.719,0.313,0.186,0.592
79573,1368.0,4734.0,6788.0,0.719,0.313,0.186,0.592
79595,1564.0,4954.0,7108.0,0.72,0.313,0.186,0.591
79617,1104.0,5158.0,7034.0,0.72,0.313,0.187,0.59
79629,796.0,5200.0,6530.0,0.721,0.313,0.188,0.589
79651,998.0,5438.0,6630.0,0.722,0.314,0.187,0.588
79663,952.0,5582.0,7168.0,0.722,0.315,0.188,0.587
79685,730.0,5668.0,6626.0,0.722,0.316,0.189,0.586
79697,664.0,5808.0,5958.0,0.722,0.318,0.191,0.585
79719,550.0,5722.0,5884.0,0.722,0.318,0.191,0.584
79731,864.0,5726.0,6072.0,0.721,0.318,0.191,0.585
79753,996.0,5736.0,6440.0,0.721,0.318,0.192,0.585
79765,696.0,5562.0,6848.0,0.721,0.318,0.192,0.585
79787,886.0,5552.0,6534.0,0.721,0.319,0.192,0.585
79809,922.0,5470.0,6542.0,0.72,0.319,0.192,0.585
79821,1030.0,5434.0,6794.0,0.72,0.32,0.193,0.586
79843,984.0,5316.0,5838.0,0.719,0.32,0.193,0.586
79855,964.0,5284.0,5600.0,0.719,0.321,0.193,0.586
79877,1150.0,5172.0,6480.0,0.719,0.32,0.191,0.587
79889,1358.0,5166.0,7234.0,0.719,0.32,0.19,0.587
79911,1308.0,5120.0,6532.0,0.718,0.32,0.191,0.587
79923,1070.0,5262.0,6160.0,0.719,0.32,0.191,0.587
79945,878.0,5282.0,6390.0,0.719,0.319,0.191,0.587
79957,760.0,5336.0,6650.0,0.719,0.32,0.191,0.587
79979,1010.0,5288.0,6494.0,0.719,0.32,0.19,0.587
80001,1152.0,5278.0,6642.0,0.719,0.32,0.19,0.587
80013,1076.0,5332.0,6404.0,0.719,0.32,0.19,0.587
80035,932.0,5348.0,6340.0,0.719,0.319,0.19,0.587
80047,1258.0,5480.0,6500.0,0.719,0.319,0.19,0.587
80069,918.0,5426.0,6428.0,0.72,0.318,0.19,0.587
80081,862.0,5410.0,6616.0,0.72,0.318,0.19,0.587
80103,1000.0,5418.0,6814.0,0.72,0.318,0.19,0.587
80115,1152.0,5428.0,6748.0,0.72,0.318,0.189,0.587
80137,1058.0,5404.0,6724.0,0.72,0.318,0.189,0.586
80149,786.0,5442.0,6868.0,0.721,0.319,0.188,0.586
80171,806.0,5338.0,6442.0,0.72,0.319,0.188,0.586
80188,1064.0,5200.0,6566.0,0.72,0.319,0.188,0.587
80210,1160.0,5130.0,6368.0,0.72,0.32,0.189,0.587
80222,1196.0,5058.0,6318.0,0.719,0.32,0.188,0.587
80244,1164.0,5120.0,6708.0,0.72,0.32,0.188,0.587
80256,1302.0,5254.0,6654.0,0.719,0.321,0.188,0.587
80278,1232.0,5414.0,5838.0,0.719,0.322,0.188,0.586
80290,1104.0,5382.0,6090.0,0.72,0.322,0.186,0.586
80312,1156.0,5458.0,6822.0,0.721,0.322,0.185,0.585
80324,1180.0,5284.0,6400.0,0.721,0.322,0.185,0.585
80346,1042.0,5210.0,5984.0,0.721,0.323,0.185,0.585
80368,1216.0,5376.0,6350.0,0.722,0.322,0.184,0.584
80380,1262.0,5542.0,6698.0,0.722,0.323,0.184,0.584
80402,1094.0,5508.0,6668.0,0.722,0.322,0.184,0.583
80414,1126.0,5538.0,6330.0,0.723,0.322,0.185,0.583
80436,1002.0,5502.0,6366.0,0.723,0.321,0.185,0.583
80448,818.0,5450.0,6658.0,0.724,0.32,0.184,0.583
80470,1144.0,5450.0,6830.0,0.724,0.319,0.183,0.583
80482,1038.0,5410.0,6780.0,0.725,0.319,0.183,0.583
80504,1072.0,5336.0,6802.0,0.725,0.319,0.182,0.583
80516,1222.0,5360.0,6902.0,0.725,0.319,0.182,0.583
80538,1028.0,5406.0,6638.0,0.725,0.319,0.182,0.583
80560,1000.0,5384.0,6048.0,0.725,0.32,0.181,0.582
80572,1008.0,5428.0,5608.0,0.726,0.32,0.179,0.582
80594,1090.0,5320.0,6544.0,0.727,0.319,0.176,0.582
80606,1120.0,5238.0,7594.0,0.727,0.319,0.173,0.582
80628,1058.0,5142.0,6904.0,0.728,0.32,0.172,0.582
80640,1188.0,5090.0,6474.0,0.728,0.32,0.171,0.582
80662,1318.0,5058.0,6450.0,0.728,0.319,0.171,0.582
80674,1160.0,5112.0,6100.0,0.728,0.319,0.171,0.582
80696,1120.0,4910.0,6086.0,0.729,0.318,0.17,0.583
80708,1362.0,4906.0,6872.0,0.729,0.316,0.168,0.583
80730,1636.0,4910.0,7228.0,0.729,0.315,0.167,0.584
80752,1460.0,5016.0,6838.0,0.73,0.315,0.167,0.583
80764,1202.0,5168.0,6792.0,0.73,0.314,0.167,0.583
80786,1194.0,5304.0,6868.0,0.731,0.314,0.167,0.583
80798,1242.0,5330.0,6768.0,0.731,0.314,0.166,0.583
80820,1168.0,5438.0,6952.0,0.731,0.314,0.167,0.582
80832,1014.0,5316.0,6392.0,0.731,0.315,0.167,0.582
80854,992.0,5192.0,5994.0,0.731,0.315,0.167,0.582
80866,1124.0,5104.0,6342.0,0.731,0.314,0.166,0.582
80888,1254.0,5090.0,7048.0,0.732,0.314,0.165,0.582
80900,1288.0,5074.0,7038.0,0.732,0.314,0.164,0.582
80922,1326.0,5082.0,6752.0,0.732,0.314,0.163,0.582
80944,1350.0,5130.0,6556.0,0.732,0.314,0.163,0.582
80956,1256.0,4994.0,6614.0,0.732,0.314,0.163,0.582
80978,1290.0,4964.0,6868.0,0.732,0.314,0.162,0.582
80990,1392.0,5094.0,6690.0,0.732,0.314,0.163,0.582
81012,1252.0,5096.0,6766.0,0.733,0.314,0.163,0.582
81024,1170.0,5156.0,6778.0,0.733,0.314,0.163,0.582
81046,1314.0,5152.0,6608.0,0.733,0.313,0.163,0.582
81058,1268.0,5078.0,6600.0,0.733,0.313,0.163,0.582
81080,1210.0,5142.0,6656.0,0.733,0.313,0.163,0.581
81092,1408.0,5012.0,6664.0,0.733,0.313,0.163,0.581
81114,1570.0,5088.0,6666.0,0.733,0.313,0.163,0.581
81136,1294.0,5134.0,6926.0,0.734,0.312,0.162,0.581
81148,918.0,5182.0,6820.0,0.734,0.313,0.162,0.58
81170,1138.0,5204.0,6566.0,0.734,0.313,0.163,0.58
81182,1436.0,5276.0,6836.0,0.734,0.313,0.162,0.58
81204,1298.0,5306.0,6956.0,0.734,0.313,0.163,0.58
81216,1064.0,5180.0,6496.0,0.734,0.313,0.164,0.58
81238,1020.0,5126.0,6208.0,0.734,0.313,0.165,0.58
81250,1396.0,5098.0,6458.0,0.734,0.313,0.164,0.58
81272,1352.0,4998.0,6908.0,0.734,0.313,0.164,0.58
81284,1172.0,4952.0,6784.0,0.734,0.313,0.164,0.58
81306,1174.0,5010.0,6460.0,0.734,0.312,0.165,0.58
81328,1226.0,5060.0,6618.0,0.735,0.312,0.164,0.58
81340,1148.0,5040.0,6972.0,0.735,0.312,0.164,0.58
81362,1268.0,5034.0,6772.0,0.735,0.312,0.164,0.58
81374,1384.0,5136.0,6864.0,0.735,0.312,0.163,0.579
81396,1156.0,5150.0,6672.0,0.735,0.312,0.164,0.579
81408,1216.0,5300.0,6784.0,0.735,0.311,0.163,0.579
81430,1322.0,5258.0,6812.0,0.735,0.311,0.164,0.579
81442,1196.0,5172.0,6538.0,0.735,0.311,0.164,0.579
81464,1062.0,5088.0,6652.0,0.736,0.312,0.164,0.579
81476,1310.0,5148.0,6440.0,0.736,0.312,0.164,0.579
81498,1238.0,5072.0,6606.0,0.736,0.311,0.164,0.579
81520,1026.0,4998.0,6690.0,0.736,0.311,0.164,0.579
81532,1168.0,5046.0,6954.0,0.736,0.311,0.164,0.579
81554,1266.0,5028.0,6574.0,0.736,0.311,0.164,0.579
81566,1254.0,4936.0,6534.0,0.736,0.31,0.164,0.579
81588,1190.0,4982.0,7124.0,0.736,0.31,0.164,0.579
81600,1162.0,5076.0,6944.0,0.736,0.31,0.164,0.579
81622,1222.0,5130.0,6982.0,0.737,0.31,0.164,0.578
81634,1062.0,5206.0,6858.0,0.737,0.31,0.165,0.578
81656,1096.0,5240.0,6666.0,0.736,0.31,0.165,0.578
81668,1196.0,5238.0,6638.0,0.736,0.31,0.165,0.578
81690,1188.0,5144.0,6504.0,0.736,0.31,0.165,0.578
81712,1194.0,5246.0,6548.0,0.736,0.31,0.166,0.578
81724,1144.0,5196.0,6526.0,0.736,0.31,0.166,0.578
81746,1242.0,5212.0,6510.0,0.736,0.31,0.166,0.578
81758,1220.0,5114.0,6710.0,0.736,0.31,0.165,0.578
81780,1256.0,5044.0,6850.0,0.737,0.309,0.165,0.578
81792,1218.0,5082.0,6730.0,0.737,0.309,0.166,0.578
81814,1118.0,5088.0,6654.0,0.737,0.309,0.166,0.578
81826,1204.0,5056.0,6588.0,0.737,0.309,0.166,0.578
81848,1258.0,5188.0,6702.0,0.737,0.309,0.166,0.578
81870,1114.0,5176.0,6670.0,0.737,0.309,0.166,0.578
81882,1090.0,5166.0,6838.0,0.737,0.309,0.166,0.578
81904,1144.0,5080.0,6784.0,0.737,0.308,0.166,0.578
81916,1166.0,5090.0,6790.0,0.737,0.308,0.166,0.578
81938,1080.0,4986.0,6678.0,0.737,0.308,0.166,0.578
81950,1268.0,5008.0,6794.0,0.737,0.307,0.166,0.579
81972,1250.0,5056.0,6946.0,0.737,0.307,0.166,0.578
81984,1096.0,5104.0,6562.0,0.737,0.307,0.166,0.578
82006,1034.0,5088.0,6544.0,0.737,0.307,0.166,0.578
82018,1136.0,5148.0,6844.0,0.738,0.307,0.166,0.578
82040,1102.0,5086.0,6946.0,0.738,0.306,0.166,0.578
82052,1164.0,5140.0,6744.0,0.738,0.306,0.167,0.578
82074,1064.0,5100.0,6598.0,0.738,0.306,0.167,0.578
82096,1186.0,5126.0,6660.0,0.738,0.306,0.167,0.578
82108,1224.0,5146.0,6610.0,0.738,0.306,0.167,0.578
82130,1200.0,5050.0,6704.0,0.738,0.306,0.167,0.578
82142,1216.0,5138.0,6920.0,0.738,0.306,0.167,0.577
82164,940.0,5126.0,6750.0,0.738,0.306,0.167,0.577
82176,1108.0,5162.0,6642.0,0.738,0.306,0.167,0.577
82193,1248.0,5106.0,6848.0,0.738,0.306,0.166,0.577
82215,1094.0,4948.0,6884.0,0.739,0.306,0.166,0.577
82227,1250.0,5016.0,6724.0,0.739,0.306,0.167,0.577
82249,1166.0,5152.0,6666.0,0.739,0.305,0.167,0.577
82271,988.0,5016.0,6718.0,0.739,0.305,0.168,0.577
82283,1050.0,5120.0,6662.0,0.739,0.305,0.168,0.577
82305,1128.0,5094.0,6558.0,0.739,0.304,0.168,0.577
82317,992.0,5136.0,6828.0,0.739,0.303,0.169,0.577
82339,936.0,5078.0,6950.0,0.74,0.303,0.169,0.577
82351,1052.0,5062.0,6954.0,0.74,0.302,0.169,0.577
82373,1114.0,5060.0,6690.0,0.74,0.303,0.169,0.577
82385,1114.0,5020.0,6632.0,0.74,0.303,0.169,0.577
82407,1136.0,4986.0,6732.0,0.74,0.303,0.169,0.577
82419,1198.0,5008.0,6852.0,0.74,0.302,0.169,0.577
82441,1104.0,5008.0,6956.0,0.74,0.302,0.169,0.576
82463,1042.0,5130.0,6780.0,0.74,0.302,0.17,0.576
82475,994.0,5212.0,6772.0,0.74,0.302,0.17,0.576
82497,844.0,5226.0,6728.0,0.741,0.302,0.171,0.576
82509,898.0,5260.0,6794.0,0.741,0.301,0.171,0.576
82531,958.0,5114.0,6814.0,0.74,0.301,0.171,0.576
82543,1112.0,5104.0,6762.0,0.74,0.301,0.171,0.576
82565,1138.0,5128.0,6690.0,0.74,0.301,0.171,0.576
82577,1000.0,5138.0,6708.0,0.741,0.301,0.172,0.576
82599,774.0,5244.0,6638.0,0.741,0.301,0.172,0.576
82611,988.0,5090.0,6598.0,0.741,0.302,0.171,0.575
