timeMs,ax,ay,az,q0,q1,q2,q3
816432,-512.0,8245.0,1803.0,0.726,0.593,0.246,0.247
816454,-982.0,8137.0,2159.0,0.726,0.594,0.245,0.246
816466,-786.0,8249.0,1937.0,0.725,0.596,0.243,0.246
816488,-216.0,8375.0,1821.0,0.725,0.598,0.24,0.245
816500,-474.0,8319.0,1537.0,0.725,0.6,0.236,0.243
816522,62.0,8517.0,1789.0,0.725,0.603,0.23,0.238
816534,652.0,8959.0,1527.0,0.727,0.609,0.221,0.228
816556,518.0,8577.0,1271.0,0.73,0.615,0.209,0.213
816578,2618.0,7921.0,-4605.0,0.734,0.629,0.181,0.182
816590,1468.0,8535.0,-1793.0,0.74,0.64,0.153,0.139
816612,-1144.0,9265.0,-657.0,0.749,0.649,0.104,0.084
816624,1500.0,8241.0,-897.0,0.756,0.653,0.038,0.022
816646,4134.0,5901.0,-4083.0,0.754,0.64,-0.107,-0.102
816658,3910.0,8299.0,2831.0,0.73,0.609,-0.232,-0.208
816680,11774.0,9647.0,1221.0,0.633,0.522,-0.438,-0.367
816702,14112.0,8241.0,4205.0,0.476,0.401,-0.604,-0.499
816714,7156.0,6253.0,3561.0,0.343,0.315,-0.675,-0.572
816736,2780.0,6089.0,4955.0,0.218,0.228,-0.717,-0.622
816748,-886.0,7291.0,5237.0,0.136,0.177,-0.736,-0.639
816770,-1756.0,7397.0,1275.0,0.071,0.136,-0.753,-0.64
816782,-1356.0,8045.0,-1891.0,0.016,0.095,-0.767,-0.635
816804,-1334.0,7951.0,-3549.0,0.019,-0.067,0.775,0.629
816816,510.0,8495.0,-4571.0,0.034,-0.053,0.779,0.624
816838,44.0,8351.0,-4829.0,0.056,-0.036,0.779,0.623
816850,-618.0,8491.0,-3315.0,0.081,-0.018,0.776,0.625
816872,-900.0,8149.0,-1409.0,0.108,0.001,0.772,0.627
816884,-1516.0,7935.0,-2335.0,0.133,0.019,0.768,0.626
816906,-1910.0,8103.0,-2493.0,0.162,0.041,0.763,0.625
816928,-2246.0,8155.0,-1735.0,0.194,0.067,0.754,0.624
816940,-2400.0,7899.0,-621.0,0.23,0.096,0.744,0.62
816962,-2310.0,7779.0,-487.0,0.265,0.125,0.732,0.615
816974,-2156.0,7893.0,-393.0,0.299,0.156,0.72,0.607
816996,-2212.0,8001.0,-789.0,0.333,0.187,0.706,0.596
817008,-2466.0,7429.0,1303.0,0.361,0.212,0.693,0.586
817030,-3928.0,6275.0,1509.0,0.368,0.21,0.689,0.588
817042,-4140.0,6867.0,-1031.0,0.354,0.188,0.694,0.598
817064,-2308.0,4149.0,2933.0,0.355,0.191,0.694,0.597
817076,-2696.0,8827.0,1925.0,0.344,0.187,0.703,0.593
817098,-2482.0,14083.0,2079.0,0.314,0.181,0.718,0.594
817110,3518.0,15047.0,871.0,0.302,0.202,0.728,0.582
817132,4410.0,11107.0,3013.0,0.287,0.194,0.755,0.557
817154,-10578.0,7321.0,-22023.0,0.212,0.146,0.792,0.554
817166,904.0,7651.0,-14049.0,0.211,0.166,0.775,0.572
817188,-1556.0,8035.0,1621.0,0.231,0.204,0.749,0.587
817200,4350.0,9299.0,7733.0,0.217,0.215,0.744,0.595
817222,3782.0,9991.0,-561.0,0.198,0.211,0.755,0.588
817234,-1864.0,7903.0,-7863.0,0.19,0.217,0.76,0.583
817256,2334.0,9921.0,7077.0,0.19,0.23,0.755,0.584
817268,10432.0,6597.0,-12523.0,0.274,0.309,0.685,0.6
817290,-732.0,8717.0,2395.0,0.233,0.275,0.685,0.633
817302,3472.0,10505.0,-3859.0,0.193,0.255,0.68,0.66
817324,2860.0,10055.0,1325.0,0.177,0.249,0.668,0.678
817346,3062.0,10203.0,1095.0,0.169,0.252,0.659,0.688
817358,2810.0,9567.0,245.0,0.17,0.26,0.647,0.697
817380,4706.0,9603.0,201.0,0.184,0.275,0.631,0.701
817392,3010.0,7629.0,2231.0,0.213,0.301,0.612,0.699
817414,3290.0,7173.0,6559.0,0.242,0.335,0.596,0.688
817426,3846.0,6597.0,5991.0,0.257,0.352,0.59,0.68
817448,1874.0,5531.0,2251.0,0.265,0.361,0.586,0.675
817460,6906.0,5607.0,3667.0,0.271,0.345,0.584,0.684
817482,5014.0,5241.0,4721.0,0.278,0.316,0.587,0.691
817504,3660.0,4575.0,8015.0,0.278,0.28,0.609,0.688
817516,2702.0,3221.0,6077.0,0.266,0.241,0.646,0.674
817538,2928.0,2799.0,-189.0,0.244,0.196,0.688,0.655
817550,2484.0,3049.0,-6571.0,0.237,0.159,0.718,0.635
817572,16.0,4487.0,-2605.0,0.244,0.125,0.732,0.624
817584,-1518.0,3711.0,853.0,0.248,0.092,0.743,0.615
817606,-3344.0,4495.0,459.0,0.242,0.061,0.757,0.604
817618,1456.0,6809.0,8321.0,0.216,0.027,0.779,0.588
817640,2206.0,5073.0,-8845.0,0.199,-0.006,0.804,0.561
817652,-1636.0,5243.0,-7343.0,0.187,-0.047,0.819,0.54
817674,-7464.0,4599.0,-6611.0,0.173,-0.073,0.828,0.528
817686,-2608.0,6049.0,-3469.0,0.15,-0.093,0.835,0.52
817708,-3246.0,5381.0,-3023.0,0.131,-0.111,0.846,0.506
817730,-2882.0,5571.0,-4397.0,0.117,-0.121,0.855,0.49
817742,-3118.0,5515.0,-5817.0,0.113,-0.126,0.865,0.472
817764,-2184.0,5833.0,-7369.0,0.117,-0.128,0.873,0.456
817776,-5154.0,6303.0,-7907.0,0.126,-0.127,0.877,0.446
817798,-2886.0,9205.0,-7531.0,0.133,-0.125,0.879,0.44
817810,-6342.0,11041.0,-10749.0,0.147,-0.127,0.882,0.43
817832,-6518.0,6551.0,-13037.0,0.137,-0.127,0.885,0.427
817844,3092.0,5473.0,-3499.0,0.124,-0.129,0.884,0.433
817866,2172.0,4455.0,1269.0,0.123,-0.138,0.882,0.433
817878,-2820.0,4401.0,2237.0,0.129,-0.146,0.883,0.427
817900,-4114.0,6251.0,-4333.0,0.139,-0.151,0.887,0.415
817927,-4370.0,7327.0,-9369.0,0.156,-0.155,0.887,0.407
817939,-6164.0,6973.0,-10075.0,0.165,-0.159,0.885,0.406
817951,-2052.0,6187.0,-5557.0,0.166,-0.164,0.882,0.41
817973,-598.0,5263.0,-2799.0,0.171,-0.171,0.879,0.412
817985,-2530.0,5021.0,-1813.0,0.181,-0.179,0.875,0.411
818007,-5540.0,5171.0,-2555.0,0.192,-0.187,0.872,0.409
818019,-6662.0,5667.0,-4991.0,0.198,-0.192,0.872,0.405
818041,-6664.0,6135.0,-6211.0,0.201,-0.196,0.871,0.403
818053,-5066.0,5755.0,-6131.0,0.2,-0.197,0.871,0.402
818075,-2962.0,5681.0,-5539.0,0.202,-0.2,0.87,0.403
818097,-3566.0,4893.0,-4373.0,0.205,-0.203,0.868,0.405
818109,-3636.0,5247.0,-4069.0,0.206,-0.206,0.866,0.406
818131,-3950.0,5417.0,-3777.0,0.206,-0.211,0.865,0.407
818143,-4888.0,5847.0,-3773.0,0.207,-0.215,0.864,0.406
818165,-5510.0,6007.0,-4485.0,0.208,-0.218,0.863,0.405
818177,-5834.0,6127.0,-5171.0,0.209,-0.22,0.862,0.405
818199,-4686.0,5675.0,-3627.0,0.208,-0.221,0.861,0.407
818211,-4388.0,5437.0,-3493.0,0.208,-0.222,0.861,0.408
818233,-4570.0,5891.0,-4753.0,0.208,-0.223,0.861,0.407
818245,-4882.0,5995.0,-5153.0,0.21,-0.223,0.86,0.408
818267,-3960.0,5665.0,-4327.0,0.212,-0.224,0.858,0.41
818289,-4490.0,5681.0,-4183.0,0.214,-0.225,0.856,0.413
818301,-4348.0,5599.0,-3281.0,0.215,-0.226,0.854,0.416
818323,-4554.0,5479.0,-3241.0,0.216,-0.227,0.853,0.418
818335,-4622.0,5603.0,-2551.0,0.217,-0.228,0.852,0.419
818357,-4084.0,5489.0,-2621.0,0.215,-0.23,0.852,0.418
818369,-2566.0,5289.0,-2417.0,0.211,-0.234,0.854,0.415
818391,-3268.0,5469.0,-3411.0,0.21,-0.239,0.855,0.409
818403,-6518.0,6291.0,-7045.0,0.214,-0.244,0.855,0.404
818425,-6144.0,6629.0,-6207.0,0.218,-0.245,0.854,0.403
818437,-7460.0,4713.0,-5729.0,0.217,-0.245,0.854,0.405
818459,-4328.0,5185.0,-5419.0,0.216,-0.244,0.853,0.408
818481,-7106.0,5707.0,-8591.0,0.22,-0.241,0.85,0.413
818493,-7614.0,6213.0,-10719.0,0.231,-0.233,0.844,0.425
818515,-8946.0,6107.0,-12285.0,0.253,-0.217,0.831,0.446
818527,-10382.0,3765.0,-4653.0,0.269,-0.198,0.816,0.472
818549,-4902.0,3447.0,-3745.0,0.26,-0.179,0.814,0.487
818561,-1720.0,4203.0,-4531.0,0.248,-0.166,0.814,0.498
818583,-2972.0,4229.0,-6505.0,0.239,-0.156,0.814,0.507
818595,-2760.0,4701.0,-6609.0,0.229,-0.147,0.811,0.517
818617,-2004.0,4785.0,-4605.0,0.222,-0.14,0.808,0.528
818629,-2038.0,4329.0,-4559.0,0.218,-0.132,0.803,0.539
818651,-1502.0,4481.0,-4215.0,0.216,-0.119,0.798,0.55
818673,-1016.0,4989.0,-4561.0,0.22,-0.103,0.791,0.561
818685,-2402.0,4935.0,-2971.0,0.233,-0.083,0.78,0.575
818707,-2940.0,4803.0,35.0,0.252,-0.057,0.766,0.589
818719,-2280.0,4663.0,1901.0,0.266,-0.032,0.752,0.602
818741,12.0,5239.0,3703.0,0.279,-0.008,0.74,0.612
818753,1426.0,5641.0,5309.0,0.293,0.01,0.73,0.617
818775,652.0,5487.0,4991.0,0.305,0.021,0.725,0.618
818787,-402.0,5999.0,4233.0,0.314,0.03,0.723,0.614
818809,-736.0,6153.0,4585.0,0.322,0.039,0.723,0.61
818821,458.0,7815.0,6237.0,0.323,0.037,0.728,0.603
818843,-3906.0,6679.0,4843.0,0.324,0.043,0.737,0.591
818865,-1728.0,8303.0,829.0,0.324,0.054,0.747,0.578
818877,-2818.0,9183.0,-1141.0,0.324,0.065,0.753,0.569
818899,-4064.0,9575.0,487.0,0.321,0.072,0.756,0.566
818911,-5144.0,10525.0,2035.0,0.319,0.083,0.758,0.563
818933,-5042.0,10351.0,1343.0,0.317,0.096,0.76,0.559
818945,-3180.0,9693.0,-559.0,0.314,0.111,0.763,0.554
818967,-1996.0,9377.0,-2339.0,0.312,0.124,0.766,0.548
818979,-1472.0,9023.0,-3149.0,0.307,0.13,0.768,0.547
819001,-1678.0,8395.0,-2757.0,0.305,0.132,0.767,0.548
819013,-1808.0,7707.0,-1259.0,0.308,0.137,0.765,0.549
819035,-620.0,7531.0,-675.0,0.308,0.14,0.762,0.552
819057,3700.0,8509.0,-3403.0,0.317,0.133,0.755,0.558
819069,1744.0,6619.0,277.0,0.331,0.108,0.75,0.562
819091,-2202.0,5985.0,1.0,0.344,0.082,0.75,0.559
819103,-6898.0,5827.0,1471.0,0.345,0.066,0.749,0.562
819125,-6284.0,7159.0,2319.0,0.343,0.07,0.746,0.566
819137,-6126.0,11475.0,1971.0,0.353,0.104,0.74,0.563
819159,-4512.0,12955.0,4247.0,0.364,0.169,0.737,0.544
819171,316.0,1815.0,223.0,0.386,0.258,0.726,0.507
819193,816.0,2961.0,-1061.0,0.406,0.34,0.714,0.459
819205,-1354.0,4445.0,-1791.0,0.427,0.416,0.698,0.396
819227,-3148.0,4275.0,-2341.0,0.43,0.476,0.69,0.336
819249,-5452.0,3439.0,-9427.0,0.419,0.528,0.683,0.283
819261,-6432.0,5765.0,-12473.0,0.4,0.572,0.67,0.253
819283,-3248.0,6303.0,-13339.0,0.383,0.61,0.648,0.248
819295,3650.0,9481.0,-10029.0,0.364,0.635,0.625,0.273
819317,8808.0,14567.0,-10325.0,0.363,0.647,0.61,0.279
819329,3556.0,9169.0,-7739.0,0.372,0.644,0.603,0.287
819351,232.0,7083.0,-5621.0,0.379,0.633,0.603,0.304
819363,-1498.0,5219.0,-6271.0,0.387,0.626,0.596,0.321
819385,1352.0,6511.0,-6603.0,0.4,0.622,0.582,0.339
819397,2904.0,7951.0,-5649.0,0.422,0.616,0.564,0.352
819419,1686.0,7645.0,-2461.0,0.441,0.604,0.552,0.369
819441,824.0,7775.0,111.0,0.459,0.595,0.54,0.38
819453,1388.0,7697.0,1593.0,0.474,0.592,0.527,0.385
819475,2004.0,8291.0,3405.0,0.481,0.593,0.52,0.383
819487,642.0,7803.0,2537.0,0.478,0.596,0.522,0.378
819509,-352.0,7581.0,-3009.0,0.479,0.607,0.525,0.357
819521,-3878.0,7711.0,-3929.0,0.473,0.612,0.527,0.351
819543,-2410.0,6599.0,-5093.0,0.471,0.622,0.517,0.352
819555,1660.0,4503.0,-4069.0,0.47,0.634,0.499,0.358
819577,6228.0,8259.0,-2839.0,0.467,0.638,0.491,0.365
819589,4406.0,7587.0,-3511.0,0.466,0.631,0.498,0.37
819611,1224.0,6903.0,-4033.0,0.467,0.62,0.508,0.373
819633,-754.0,7047.0,-4859.0,0.478,0.613,0.512,0.367
819645,-2334.0,7449.0,-3973.0,0.493,0.608,0.509,0.358
819667,-2190.0,8899.0,-2831.0,0.511,0.609,0.498,0.346
819679,-776.0,8859.0,-4309.0,0.529,0.606,0.49,0.336
819701,-3106.0,7201.0,-2219.0,0.541,0.591,0.492,0.341
819713,-4650.0,8269.0,-5179.0,0.551,0.579,0.488,0.351
819735,-2816.0,6625.0,-5613.0,0.549,0.553,0.495,0.385
819747,-1296.0,7285.0,-3593.0,0.547,0.522,0.498,0.425
819769,-180.0,6661.0,679.0,0.541,0.478,0.503,0.476
819781,52.0,9179.0,907.0,0.538,0.436,0.502,0.518
819803,-332.0,8443.0,2425.0,0.542,0.405,0.492,0.548
819825,-494.0,8133.0,3371.0,0.543,0.37,0.483,0.578
819837,-570.0,7185.0,4293.0,0.543,0.338,0.473,0.606
819859,110.0,7509.0,6563.0,0.539,0.304,0.465,0.633
819871,176.0,8141.0,8215.0,0.529,0.269,0.466,0.656
819893,-552.0,6615.0,8011.0,0.516,0.242,0.478,0.669
819905,-1132.0,5675.0,7031.0,0.498,0.218,0.495,0.678
819932,-1434.0,5789.0,6153.0,0.48,0.198,0.514,0.683
819944,-1520.0,6201.0,5413.0,0.459,0.181,0.536,0.685
819956,-1082.0,6913.0,4619.0,0.435,0.164,0.56,0.686
819978,-862.0,7761.0,3521.0,0.409,0.146,0.586,0.684
820000,-408.0,8499.0,2765.0,0.38,0.126,0.613,0.681
820012,80.0,8005.0,1435.0,0.348,0.102,0.641,0.676
820034,-236.0,7991.0,677.0,0.321,0.08,0.668,0.667
820046,-1172.0,7717.0,-265.0,0.3,0.062,0.69,0.656
820068,-1688.0,7731.0,-469.0,0.282,0.049,0.709,0.645
820080,-2128.0,7499.0,-1005.0,0.269,0.041,0.725,0.633
820102,-2164.0,6937.0,-1707.0,0.255,0.033,0.738,0.623
820114,-2862.0,7355.0,-2111.0,0.243,0.024,0.749,0.616
820136,-3434.0,7663.0,-2931.0,0.23,0.014,0.757,0.611
820158,-3862.0,7619.0,-3413.0,0.218,0.006,0.761,0.611
820170,-3404.0,7687.0,-3601.0,0.208,0.002,0.76,0.616
820192,-2324.0,7829.0,-2169.0,0.2,0.001,0.755,0.624
820204,-1590.0,8249.0,-613.0,0.199,0.003,0.747,0.634
820226,-1240.0,8173.0,583.0,0.203,0.007,0.739,0.643
820238,-1238.0,8081.0,1615.0,0.212,0.013,0.73,0.65
820260,-1448.0,5979.0,109.0,0.226,0.021,0.722,0.653
820272,-1066.0,9719.0,6483.0,0.253,0.043,0.716,0.65
820294,-2854.0,8035.0,1557.0,0.27,0.054,0.715,0.643
820306,-3388.0,8577.0,2961.0,0.298,0.084,0.712,0.63
820328,-3720.0,7017.0,2519.0,0.325,0.117,0.71,0.614
820340,-4440.0,7533.0,447.0,0.347,0.151,0.708,0.597
820362,-4276.0,7523.0,263.0,0.359,0.181,0.709,0.58
820384,-3336.0,6807.0,429.0,0.371,0.216,0.707,0.562
820396,-2510.0,7477.0,-2041.0,0.378,0.25,0.705,0.545
820418,-1422.0,7915.0,-3081.0,0.382,0.28,0.701,0.533
820430,-294.0,7691.0,-2433.0,0.396,0.314,0.689,0.519
820452,388.0,8435.0,-2751.0,0.406,0.34,0.679,0.509
820464,752.0,8835.0,-2339.0,0.415,0.357,0.669,0.502
820486,618.0,8521.0,-2303.0,0.424,0.366,0.662,0.498
820498,-70.0,8415.0,-1481.0,0.43,0.369,0.658,0.495
820520,-686.0,8349.0,-875.0,0.435,0.37,0.656,0.493
820532,-1278.0,7653.0,-899.0,0.44,0.37,0.655,0.491
820554,-1830.0,7621.0,-925.0,0.442,0.371,0.655,0.488
820576,-2072.0,7099.0,-1269.0,0.445,0.374,0.654,0.484
820588,-1868.0,7729.0,-1345.0,0.446,0.378,0.653,0.481
820610,-1620.0,8105.0,-1677.0,0.445,0.384,0.652,0.479
820622,-1122.0,8423.0,-781.0,0.444,0.389,0.651,0.477
820644,-1188.0,8449.0,-2031.0,0.442,0.393,0.651,0.475
820656,-1198.0,8719.0,-1887.0,0.443,0.398,0.649,0.472
820678,-872.0,9047.0,-1975.0,0.445,0.404,0.646,0.471
820690,-564.0,7893.0,-659.0,0.446,0.408,0.645,0.467
820712,-322.0,8061.0,-1389.0,0.444,0.41,0.646,0.466
820724,-374.0,7883.0,-1397.0,0.442,0.41,0.648,0.465
820746,-388.0,7481.0,-1175.0,0.439,0.407,0.652,0.465
820768,-648.0,7539.0,-1115.0,0.434,0.401,0.658,0.468
820780,-798.0,7483.0,-1381.0,0.427,0.393,0.664,0.471
820802,-768.0,7733.0,-1445.0,0.42,0.384,0.671,0.475
820814,-706.0,8275.0,-1765.0,0.414,0.375,0.678,0.478
820836,-524.0,8231.0,-2083.0,0.407,0.364,0.686,0.481
820848,-682.0,8249.0,-2453.0,0.4,0.352,0.695,0.483
820870,-936.0,8285.0,-2261.0,0.394,0.338,0.703,0.486
820882,-1280.0,8047.0,-2015.0,0.388,0.324,0.712,0.488
820904,-1478.0,8091.0,-2249.0,0.384,0.311,0.719,0.488
820916,-1856.0,7715.0,-2085.0,0.382,0.3,0.725,0.487
820938,-2214.0,7613.0,-2235.0,0.381,0.291,0.731,0.486
820960,-2680.0,7537.0,-2095.0,0.38,0.283,0.735,0.484
820972,-2962.0,7349.0,-1989.0,0.38,0.277,0.738,0.483
820994,-3172.0,7443.0,-1989.0,0.377,0.273,0.741,0.484
821006,-2934.0,7717.0,-2265.0,0.373,0.27,0.742,0.487
821028,-2384.0,7965.0,-2307.0,0.368,0.267,0.742,0.492
821040,-1844.0,7945.0,-1951.0,0.364,0.264,0.741,0.498
821062,-1390.0,8035.0,-1425.0,0.36,0.261,0.74,0.505
821074,-1338.0,8101.0,-931.0,0.359,0.257,0.738,0.511
821096,-1328.0,8031.0,-337.0,0.357,0.253,0.736,0.516
821108,-1394.0,8227.0,-179.0,0.356,0.249,0.737,0.518
821130,-1682.0,7989.0,-107.0,0.355,0.246,0.738,0.518
821152,-1946.0,7981.0,-1033.0,0.353,0.243,0.741,0.516
821164,-2054.0,7831.0,-1619.0,0.352,0.241,0.744,0.513
821186,-2106.0,7797.0,-2029.0,0.352,0.241,0.747,0.51
821198,-2330.0,7655.0,-2257.0,0.352,0.241,0.749,0.507
821220,-2590.0,7651.0,-2337.0,0.352,0.243,0.75,0.505
821232,-2608.0,7785.0,-2423.0,0.352,0.246,0.75,0.503
821254,-2330.0,7901.0,-2411.0,0.353,0.251,0.749,0.501
821266,-1696.0,7883.0,-2149.0,0.354,0.257,0.748,0.5
821288,-936.0,8063.0,-2313.0,0.355,0.262,0.746,0.499
821300,-518.0,8347.0,-1939.0,0.36,0.267,0.744,0.496
821322,234.0,3625.0,-5033.0,0.391,0.289,0.732,0.478
821344,-442.0,10089.0,-1909.0,0.407,0.295,0.729,0.464
821356,-1302.0,10075.0,-1775.0,0.42,0.296,0.73,0.45
821378,-1462.0,7713.0,-2041.0,0.426,0.291,0.735,0.439
821390,-1828.0,6855.0,-2283.0,0.43,0.281,0.742,0.431
821412,-2458.0,6327.0,-2241.0,0.433,0.269,0.748,0.425
821424,-3002.0,5847.0,-1895.0,0.434,0.255,0.754,0.422
821446,-3462.0,6137.0,-1633.0,0.433,0.241,0.76,0.421
821458,-3700.0,6453.0,-1477.0,0.431,0.228,0.765,0.42
821480,-3980.0,7105.0,-1087.0,0.428,0.216,0.772,0.418
821492,-5000.0,6793.0,-2663.0,0.423,0.204,0.778,0.416
821514,-5828.0,7157.0,-3545.0,0.417,0.196,0.784,0.415
821536,-6278.0,7259.0,-3983.0,0.411,0.19,0.787,0.419
821548,-6294.0,7095.0,-4179.0,0.406,0.19,0.786,0.427
821570,-5336.0,6721.0,-3979.0,0.401,0.194,0.781,0.438
821582,-4630.0,6407.0,-4081.0,0.398,0.199,0.773,0.451
821604,-3768.0,6497.0,-3661.0,0.396,0.207,0.762,0.469
821616,-3026.0,6833.0,-2591.0,0.394,0.215,0.748,0.489
821638,-2100.0,6699.0,-1549.0,0.394,0.223,0.732,0.51
821650,-1688.0,6133.0,-975.0,0.396,0.23,0.713,0.532
821672,-1504.0,7543.0,871.0,0.398,0.238,0.694,0.551
821694,-732.0,9369.0,1183.0,0.398,0.246,0.678,0.567
821706,248.0,8743.0,983.0,0.396,0.252,0.665,0.581
821728,352.0,8939.0,1209.0,0.395,0.253,0.655,0.592
821740,114.0,8643.0,2003.0,0.398,0.256,0.645,0.6
821762,-232.0,8321.0,2951.0,0.401,0.259,0.638,0.604
821774,-998.0,8039.0,2785.0,0.405,0.265,0.635,0.602
821796,-1676.0,7897.0,1925.0,0.408,0.275,0.634,0.597
821808,-1560.0,7883.0,845.0,0.411,0.287,0.633,0.591
821830,-1432.0,8211.0,1169.0,0.418,0.305,0.628,0.581
821842,-1376.0,8033.0,-967.0,0.419,0.317,0.625,0.577
821864,-1446.0,8085.0,-1101.0,0.418,0.326,0.621,0.577
821876,-1178.0,7913.0,-227.0,0.417,0.335,0.616,0.578
821898,-618.0,8037.0,771.0,0.417,0.346,0.608,0.581
821920,52.0,8277.0,487.0,0.415,0.356,0.601,0.583
821937,806.0,8309.0,977.0,0.412,0.364,0.595,0.586
821949,1242.0,8355.0,411.0,0.408,0.368,0.593,0.589
821971,1188.0,8521.0,-91.0,0.405,0.369,0.592,0.592
821983,970.0,8361.0,-167.0,0.403,0.369,0.591,0.594
822005,200.0,8261.0,-81.0,0.402,0.367,0.591,0.596
822017,-652.0,8131.0,299.0,0.401,0.366,0.59,0.598
822039,-724.0,8037.0,683.0,0.398,0.368,0.588,0.601
822051,64.0,8259.0,209.0,0.394,0.369,0.586,0.604
822073,212.0,8329.0,-655.0,0.388,0.37,0.585,0.608
822095,482.0,8253.0,-685.0,0.384,0.37,0.582,0.614
822107,742.0,8227.0,59.0,0.381,0.368,0.577,0.622
822129,1004.0,8177.0,903.0,0.379,0.367,0.571,0.629
822141,1168.0,8067.0,1687.0,0.378,0.366,0.565,0.636
822163,1436.0,8447.0,1819.0,0.378,0.365,0.559,0.641
822175,1482.0,8369.0,2179.0,0.38,0.367,0.554,0.644
822197,1758.0,8433.0,2431.0,0.383,0.37,0.55,0.644
822209,1634.0,8413.0,2329.0,0.385,0.371,0.55,0.642
822231,1282.0,8541.0,1501.0,0.384,0.369,0.553,0.641
822243,528.0,9599.0,317.0,0.386,0.369,0.555,0.638
822265,1016.0,8139.0,631.0,0.384,0.366,0.559,0.637
822287,80.0,8373.0,179.0,0.384,0.364,0.562,0.635
822299,84.0,7839.0,441.0,0.385,0.366,0.562,0.634
822321,2.0,7905.0,589.0,0.386,0.367,0.561,0.634
822333,512.0,8153.0,849.0,0.386,0.367,0.559,0.635
822355,922.0,8381.0,1025.0,0.386,0.367,0.557,0.637
822367,1108.0,8055.0,1545.0,0.386,0.368,0.555,0.639
822389,1092.0,8175.0,1877.0,0.387,0.368,0.553,0.64
822401,1322.0,8159.0,1979.0,0.388,0.368,0.552,0.64
822423,1204.0,8165.0,1589.0,0.389,0.369,0.552,0.638
822435,946.0,8075.0,1425.0,0.391,0.369,0.553,0.636
822457,472.0,8169.0,1147.0,0.393,0.369,0.555,0.634
822479,262.0,8343.0,737.0,0.394,0.37,0.555,0.632
822491,392.0,8435.0,847.0,0.395,0.373,0.556,0.629
822513,744.0,8579.0,939.0,0.397,0.376,0.555,0.627
822525,934.0,8367.0,2079.0,0.401,0.38,0.554,0.623
822547,744.0,7745.0,1161.0,0.4,0.382,0.556,0.62
822559,1018.0,8085.0,709.0,0.401,0.383,0.558,0.618
822581,944.0,8675.0,345.0,0.403,0.386,0.559,0.614
822593,818.0,8089.0,883.0,0.404,0.387,0.561,0.611
822615,748.0,8429.0,949.0,0.406,0.388,0.562,0.608
822627,524.0,8145.0,747.0,0.407,0.388,0.563,0.605
822649,398.0,8075.0,713.0,0.409,0.388,0.565,0.603
822671,286.0,8299.0,915.0,0.41,0.388,0.566,0.601
822683,98.0,8191.0,1017.0,0.41,0.388,0.567,0.6
822705,-38.0,7981.0,897.0,0.41,0.388,0.569,0.598
822717,-70.0,7879.0,747.0,0.409,0.39,0.57,0.596
822739,192.0,8035.0,519.0,0.408,0.392,0.572,0.595
822751,440.0,8089.0,213.0,0.406,0.394,0.573,0.593
822773,554.0,8103.0,-151.0,0.404,0.396,0.575,0.591
822785,526.0,8315.0,-263.0,0.404,0.396,0.576,0.59
822807,502.0,8481.0,-293.0,0.404,0.396,0.576,0.59
822819,336.0,8415.0,171.0,0.404,0.395,0.576,0.59
822841,294.0,8317.0,539.0,0.404,0.395,0.576,0.59
822863,262.0,8247.0,537.0,0.404,0.396,0.577,0.589
822875,358.0,8227.0,109.0,0.404,0.398,0.578,0.588
822897,418.0,8265.0,-93.0,0.404,0.399,0.578,0.586
822909,400.0,8167.0,-203.0,0.403,0.399,0.58,0.585
822931,438.0,8157.0,-303.0,0.402,0.4,0.581,0.584
822943,496.0,8229.0,-69.0,0.402,0.399,0.581,0.585
822965,580.0,8367.0,253.0,0.402,0.397,0.581,0.586
822977,620.0,8379.0,805.0,0.401,0.395,0.581,0.587
822999,426.0,8397.0,955.0,0.401,0.393,0.582,0.588
823011,266.0,8241.0,941.0,0.401,0.391,0.583,0.588
823033,200.0,8185.0,617.0,0.4,0.39,0.585,0.588
823055,270.0,8151.0,421.0,0.4,0.39,0.586,0.587
823067,348.0,8289.0,225.0,0.4,0.389,0.587,0.587
823089,266.0,8185.0,291.0,0.399,0.389,0.588,0.586
823101,162.0,8373.0,253.0,0.399,0.389,0.59,0.585
823123,108.0,8431.0,163.0,0.398,0.388,0.591,0.584
823135,100.0,8273.0,-23.0,0.397,0.387,0.594,0.584
823157,208.0,8213.0,-177.0,0.395,0.386,0.595,0.583
823169,376.0,8271.0,-397.0,0.393,0.385,0.597,0.583
823191,274.0,8335.0,-269.0,0.392,0.383,0.599,0.583
823203,160.0,8295.0,-91.0,0.391,0.381,0.6,0.584
823225,212.0,8375.0,85.0,0.39,0.378,0.602,0.586
823247,516.0,8375.0,271.0,0.388,0.374,0.604,0.588
823259,588.0,8423.0,481.0,0.385,0.368,0.607,0.59
823281,418.0,8231.0,561.0,0.383,0.363,0.61,0.591
823293,174.0,8173.0,545.0,0.381,0.357,0.615,0.592
823315,-40.0,8231.0,403.0,0.379,0.351,0.619,0.592
823327,-288.0,8121.0,159.0,0.377,0.345,0.624,0.592
823349,-402.0,8223.0,111.0,0.375,0.34,0.628,0.591
823361,-506.0,8253.0,-109.0,0.373,0.335,0.632,0.591
823383,-718.0,8295.0,-147.0,0.371,0.332,0.636,0.59
823395,-902.0,8271.0,-85.0,0.371,0.33,0.638,0.588
823417,-934.0,8177.0,-193.0,0.37,0.33,0.64,0.587
823439,-968.0,8281.0,-355.0,0.369,0.33,0.641,0.586
823451,-802.0,8321.0,-557.0,0.368,0.332,0.642,0.585
823473,-492.0,8291.0,-487.0,0.368,0.333,0.642,0.585
823485,-232.0,8201.0,-363.0,0.367,0.335,0.641,0.585
823507,-190.0,8295.0,-109.0,0.367,0.336,0.64,0.585
823519,-132.0,8385.0,-59.0,0.366,0.336,0.64,0.585
823541,-174.0,8269.0,-181.0,0.366,0.337,0.641,0.585
823553,-202.0,8265.0,-295.0,0.365,0.336,0.641,0.585
823575,-204.0,8295.0,-377.0,0.365,0.336,0.641,0.585
823587,-378.0,8223.0,-219.0,0.365,0.335,0.641,0.586
823609,-494.0,8265.0,47.0,0.364,0.335,0.641,0.586
823631,-298.0,8351.0,17.0,0.364,0.335,0.641,0.587
823643,-220.0,8431.0,-183.0,0.364,0.335,0.641,0.586
823665,-252.0,8261.0,-227.0,0.364,0.335,0.642,0.586
823677,-358.0,8175.0,-233.0,0.364,0.335,0.642,0.586
823699,-362.0,8241.0,-113.0,0.364,0.335,0.642,0.586
823711,-342.0,8295.0,-47.0,0.364,0.335,0.642,0.586
823733,-294.0,8219.0,-81.0,0.363,0.335,0.642,0.586
823745,-290.0,8367.0,-201.0,0.363,0.335,0.642,0.586
823767,-326.0,8437.0,-331.0,0.363,0.335,0.642,0.586
823779,-378.0,8349.0,-313.0,0.363,0.335,0.643,0.585
823801,-410.0,8351.0,-233.0,0.364,0.335,0.643,0.585
823823,-392.0,8241.0,-121.0,0.364,0.335,0.643,0.585
823835,-360.0,8239.0,-89.0,0.364,0.335,0.643,0.585
823857,-246.0,8241.0,-269.0,0.364,0.335,0.643,0.585
823869,-226.0,8253.0,-223.0,0.364,0.335,0.643,0.585
823891,-340.0,8269.0,-95.0,0.364,0.334,0.643,0.585
823903,-494.0,8279.0,-225.0,0.363,0.333,0.644,0.585
823925,-444.0,8489.0,-199.0,0.363,0.332,0.645,0.585
823942,-372.0,8281.0,-261.0,0.362,0.331,0.645,0.585
823954,-352.0,8299.0,-393.0,0.362,0.33,0.646,0.586
823976,-310.0,8235.0,-347.0,0.361,0.329,0.646,0.586
823988,-456.0,8209.0,-185.0,0.362,0.328,0.647,0.586
824010,-542.0,8203.0,-9.0,0.362,0.327,0.647,0.586
824032,-614.0,8197.0,71.0,0.362,0.326,0.647,0.586
824044,-580.0,8293.0,-33.0,0.362,0.326,0.647,0.586
824066,-552.0,8343.0,-257.0,0.362,0.326,0.648,0.585
824078,-506.0,8351.0,-411.0,0.362,0.326,0.648,0.585
824100,-500.0,8175.0,-301.0,0.361,0.325,0.649,0.585
824112,-454.0,8225.0,-129.0,0.361,0.325,0.649,0.586
824134,-486.0,8205.0,-49.0,0.361,0.325,0.649,0.586
824146,-414.0,8343.0,-181.0,0.361,0.325,0.649,0.585
824168,-482.0,8365.0,-257.0,0.361,0.325,0.649,0.585
824180,-570.0,8355.0,-265.0,0.361,0.325,0.649,0.585
824202,-612.0,8307.0,-235.0,0.361,0.324,0.65,0.585
824224,-660.0,8265.0,-159.0,0.361,0.324,0.65,0.585
824236,-660.0,8211.0,-145.0,0.361,0.324,0.65,0.585
824258,-532.0,8197.0,-247.0,0.361,0.324,0.65,0.585
824270,-492.0,8211.0,-189.0,0.36,0.324,0.65,0.585
824292,-422.0,8291.0,-73.0,0.36,0.324,0.65,0.585
824304,-370.0,8427.0,-259.0,0.36,0.324,0.651,0.585
824326,-488.0,8329.0,-291.0,0.359,0.323,0.651,0.585
824338,-572.0,8261.0,-453.0,0.359,0.322,0.652,0.585
824360,-676.0,8181.0,-381.0,0.359,0.322,0.652,0.586
824372,-738.0,8131.0,-233.0,0.358,0.321,0.652,0.586
824394,-562.0,8097.0,59.0,0.358,0.321,0.651,0.587
824416,-418.0,8313.0,165.0,0.358,0.322,0.651,0.586
824428,-318.0,8383.0,-115.0,0.358,0.322,0.652,0.586
824450,-502.0,8443.0,-443.0,0.357,0.322,0.653,0.585
824462,-660.0,8311.0,-495.0,0.357,0.322,0.653,0.585
824484,-734.0,8205.0,-471.0,0.357,0.321,0.653,0.585
824496,-708.0,8197.0,-397.0,0.357,0.321,0.653,0.586
824518,-582.0,8197.0,-47.0,0.357,0.321,0.652,0.586
824530,-462.0,8233.0,137.0,0.357,0.322,0.652,0.587
824552,-362.0,8281.0,27.0,0.357,0.323,0.652,0.586
824564,-278.0,8315.0,-231.0,0.357,0.323,0.652,0.586
824586,-474.0,8307.0,-503.0,0.357,0.323,0.652,0.585
824608,-602.0,8327.0,-453.0,0.357,0.323,0.652,0.585
824620,-666.0,8299.0,-241.0,0.357,0.323,0.652,0.585
824642,-620.0,8233.0,-175.0,0.357,0.323,0.652,0.585
824654,-440.0,8231.0,-139.0,0.357,0.324,0.652,0.586
824676,-400.0,8283.0,-79.0,0.357,0.324,0.651,0.586
824688,-422.0,8231.0,-9.0,0.357,0.324,0.651,0.586
824710,-514.0,8261.0,-175.0,0.357,0.324,0.652,0.585
824722,-618.0,8393.0,-269.0,0.357,0.324,0.652,0.585
824744,-548.0,8335.0,-417.0,0.357,0.324,0.652,0.585
824756,-552.0,8275.0,-441.0,0.357,0.324,0.653,0.585
824778,-514.0,8213.0,-225.0,0.357,0.324,0.652,0.585
824800,-510.0,8175.0,-63.0,0.356,0.324,0.652,0.586
824812,-576.0,8177.0,-23.0,0.356,0.324,0.652,0.586
824834,-486.0,8141.0,-185.0,0.355,0.324,0.652,0.586
824846,-408.0,8407.0,-339.0,0.355,0.324,0.653,0.586
824868,-342.0,8319.0,-305.0,0.354,0.324,0.653,0.586
824880,-416.0,8363.0,-357.0,0.354,0.323,0.653,0.586
824902,-550.0,8319.0,-273.0,0.354,0.323,0.653,0.586
824914,-708.0,8299.0,-297.0,0.354,0.322,0.653,0.587
824936,-656.0,8145.0,-119.0,0.353,0.322,0.653,0.587
824958,-562.0,8177.0,-155.0,0.353,0.322,0.653,0.587
824970,-484.0,8335.0,-209.0,0.353,0.322,0.653,0.587
824992,-364.0,8315.0,-299.0,0.353,0.322,0.653,0.588
825004,-300.0,8379.0,-193.0,0.352,0.322,0.653,0.588
825026,-496.0,8353.0,-103.0,0.352,0.321,0.653,0.588
825038,-742.0,8319.0,-13.0,0.352,0.321,0.654,0.588
825060,-780.0,8285.0,-293.0,0.352,0.32,0.654,0.588
825072,-642.0,8189.0,-453.0,0.351,0.321,0.654,0.588
825094,-428.0,8221.0,-359.0,0.351,0.321,0.654,0.589
825106,-276.0,8317.0,-215.0,0.35,0.321,0.653,0.59
825128,-198.0,8259.0,-53.0,0.35,0.32,0.653,0.59
825150,-312.0,8207.0,-23.0,0.35,0.32,0.653,0.59
825162,-582.0,8227.0,-109.0,0.351,0.32,0.654,0.589
825184,-808.0,8269.0,-315.0,0.351,0.319,0.654,0.589
825196,-834.0,8357.0,-391.0,0.35,0.319,0.655,0.589
825218,-612.0,8291.0,-407.0,0.35,0.318,0.655,0.59
825230,-542.0,8301.0,-163.0,0.349,0.318,0.654,0.59
825252,-488.0,8257.0,-35.0,0.349,0.318,0.654,0.591
825264,-432.0,8261.0,-27.0,0.349,0.318,0.654,0.591
825286,-362.0,8273.0,-195.0,0.349,0.319,0.654,0.591
825298,-456.0,8275.0,-221.0,0.348,0.319,0.654,0.591
825320,-510.0,8321.0,-285.0,0.348,0.318,0.655,0.591
825342,-654.0,8367.0,-227.0,0.348,0.318,0.655,0.591
825354,-632.0,8289.0,-287.0,0.347,0.318,0.655,0.591
825376,-532.0,8251.0,-193.0,0.347,0.318,0.655,0.592
825388,-406.0,8261.0,-213.0,0.346,0.317,0.655,0.592
825410,-414.0,8283.0,-89.0,0.346,0.317,0.654,0.593
825422,-548.0,8291.0,-15.0,0.346,0.317,0.654,0.593
825444,-626.0,8291.0,-95.0,0.346,0.318,0.654,0.592
825456,-496.0,8231.0,-197.0,0.346,0.318,0.654,0.592
825478,-512.0,8345.0,-359.0,0.345,0.318,0.654,0.593
825490,-466.0,8319.0,-283.0,0.345,0.318,0.654,0.593
825512,-436.0,8263.0,-209.0,0.345,0.317,0.654,0.594
825534,-374.0,8239.0,-141.0,0.344,0.317,0.654,0.594
825546,-474.0,8197.0,25.0,0.344,0.317,0.654,0.595
825568,-492.0,8237.0,63.0,0.344,0.317,0.654,0.595
825580,-452.0,8281.0,-101.0,0.343,0.317,0.654,0.595
825602,-396.0,8313.0,-377.0,0.343,0.317,0.655,0.595
825614,-538.0,8293.0,-439.0,0.343,0.316,0.655,0.595
825636,-664.0,8233.0,-177.0,0.343,0.316,0.654,0.595
825648,-590.0,8301.0,67.0,0.342,0.316,0.654,0.596
825670,-362.0,8257.0,17.0,0.342,0.316,0.654,0.596
825682,-248.0,8273.0,-105.0,0.341,0.316,0.654,0.596
825704,-270.0,8339.0,-191.0,0.342,0.315,0.654,0.596
825726,-550.0,8261.0,-149.0,0.342,0.315,0.655,0.596
825738,-670.0,8305.0,-249.0,0.342,0.315,0.655,0.596
825760,-552.0,8203.0,-259.0,0.341,0.315,0.655,0.596
825772,-346.0,8329.0,-229.0,0.341,0.315,0.655,0.597
825794,-370.0,8265.0,-51.0,0.341,0.314,0.654,0.597
825806,-474.0,8247.0,-1.0,0.341,0.314,0.654,0.597
825828,-442.0,8241.0,-43.0,0.341,0.314,0.655,0.597
825840,-450.0,8243.0,-131.0,0.34,0.314,0.655,0.597
825862,-532.0,8341.0,-195.0,0.34,0.314,0.655,0.597
825874,-496.0,8293.0,-145.0,0.34,0.314,0.655,0.598
825896,-380.0,8293.0,-43.0,0.34,0.314,0.655,0.598
825918,-438.0,8201.0,11.0,0.34,0.314,0.655,0.598
825930,-512.0,8265.0,-55.0,0.34,0.314,0.655,0.598
825947,-482.0,8275.0,-227.0,0.34,0.315,0.655,0.597
825969,-372.0,8315.0,-207.0,0.34,0.315,0.655,0.597
825981,-388.0,8275.0,-227.0,0.34,0.315,0.655,0.597
826003,-484.0,8235.0,-117.0,0.34,0.314,0.655,0.597
826015,-602.0,8225.0,-101.0,0.339,0.314,0.655,0.597
826037,-508.0,8327.0,-81.0,0.339,0.314,0.655,0.597
826049,-274.0,8327.0,-247.0,0.339,0.315,0.655,0.597
826071,-318.0,8361.0,-183.0,0.339,0.314,0.655,0.597
826083,-550.0,8407.0,-119.0,0.339,0.314,0.656,0.597
826105,-714.0,8249.0,-121.0,0.339,0.314,0.656,0.597
826127,-598.0,8219.0,-247.0,0.339,0.314,0.656,0.597
826139,-444.0,8207.0,-153.0,0.338,0.314,0.656,0.597
826161,-292.0,8323.0,-55.0,0.338,0.315,0.656,0.597
826173,-318.0,8235.0,-15.0,0.338,0.315,0.656,0.597
826195,-264.0,8239.0,-123.0,0.338,0.315,0.656,0.597
826207,-462.0,8235.0,-275.0,0.338,0.315,0.656,0.597
826229,-600.0,8241.0,-225.0,0.338,0.314,0.657,0.596
826241,-662.0,8187.0,-89.0,0.338,0.314,0.657,0.597
826263,-538.0,8339.0,-19.0,0.338,0.314,0.657,0.597
826275,-484.0,8329.0,-169.0,0.337,0.314,0.657,0.597
826297,-362.0,8339.0,-329.0,0.337,0.314,0.657,0.596
826319,-482.0,8227.0,-315.0,0.337,0.314,0.657,0.596
826331,-494.0,8177.0,-143.0,0.337,0.314,0.657,0.596
826353,-460.0,8241.0,-89.0,0.337,0.315,0.657,0.596
826365,-378.0,8233.0,-121.0,0.337,0.315,0.657,0.596
826387,-374.0,8295.0,-239.0,0.337,0.315,0.657,0.596
826399,-438.0,8355.0,-293.0,0.337,0.315,0.658,0.596
826421,-696.0,8317.0,-177.0,0.337,0.314,0.658,0.596
826433,-684.0,8335.0,-149.0,0.337,0.314,0.658,0.596
826455,-524.0,8319.0,-279.0,0.336,0.314,0.658,0.596
826467,-408.0,8189.0,-163.0,0.336,0.315,0.658,0.596
826489,-342.0,8279.0,-147.0,0.336,0.315,0.658,0.596
826511,-404.0,8169.0,-127.0,0.336,0.315,0.658,0.596
826523,-502.0,8309.0,-175.0,0.336,0.315,0.658,0.596
826545,-486.0,8259.0,-265.0,0.336,0.315,0.658,0.596
826557,-414.0,8349.0,-181.0,0.336,0.315,0.658,0.596
826579,-352.0,8379.0,143.0,0.336,0.314,0.658,0.596
826591,-486.0,8233.0,-313.0,0.336,0.314,0.659,0.595
826613,-594.0,8161.0,-429.0,0.336,0.314,0.659,0.595
826625,-606.0,8077.0,-355.0,0.336,0.314,0.659,0.595
826647,-578.0,8225.0,-199.0,0.335,0.314,0.659,0.595
826659,-370.0,8309.0,-143.0,0.335,0.315,0.659,0.595
826681,-254.0,8481.0,-59.0,0.335,0.315,0.659,0.595
826703,-402.0,8409.0,-231.0,0.335,0.315,0.66,0.595
826715,-638.0,8285.0,-383.0,0.335,0.314,0.66,0.595
826737,-714.0,8131.0,-429.0,0.335,0.314,0.66,0.595
826749,-614.0,8135.0,-213.0,0.334,0.314,0.66,0.595
826771,-484.0,8205.0,-73.0,0.334,0.314,0.66,0.596
826783,-220.0,8337.0,-35.0,0.333,0.315,0.66,0.596
826805,-206.0,8335.0,-281.0,0.333,0.315,0.66,0.595
826817,-486.0,8451.0,-305.0,0.334,0.315,0.66,0.595
826839,-704.0,8285.0,-297.0,0.334,0.314,0.661,0.595
826851,-770.0,8221.0,-357.0,0.334,0.314,0.661,0.595
826873,-600.0,8159.0,-279.0,0.333,0.314,0.661,0.595
826895,-398.0,8181.0,-243.0,0.333,0.314,0.66,0.595
826907,-326.0,8287.0,-85.0,0.333,0.314,0.66,0.596
826929,-294.0,8345.0,-109.0,0.333,0.314,0.66,0.595
826941,-466.0,8351.0,-225.0,0.333,0.314,0.661,0.595
826963,-652.0,8277.0,-415.0,0.333,0.314,0.661,0.595
826975,-648.0,8241.0,-411.0,0.333,0.314,0.661,0.595
826997,-582.0,8227.0,-299.0,0.332,0.314,0.661,0.595
827009,-338.0,8189.0,-187.0,0.332,0.314,0.661,0.595
827031,-316.0,8359.0,-95.0,0.332,0.315,0.661,0.595
827043,-382.0,8291.0,-187.0,0.332,0.315,0.661,0.595
827065,-488.0,8299.0,-321.0,0.332,0.315,0.661,0.595
827087,-580.0,8269.0,-353.0,0.332,0.315,0.661,0.594
827099,-562.0,8311.0,-333.0,0.332,0.315,0.661,0.595
827121,-498.0,8209.0,-255.0,0.332,0.315,0.661,0.595
827133,-474.0,8285.0,-191.0,0.332,0.315,0.661,0.595
827155,-448.0,8265.0,-185.0,0.331,0.315,0.661,0.595
827167,-350.0,8387.0,-165.0,0.331,0.315,0.661,0.595
827189,-312.0,8263.0,-219.0,0.331,0.315,0.661,0.595
827201,-394.0,8341.0,-351.0,0.331,0.315,0.661,0.595
827223,-604.0,8159.0,-283.0,0.332,0.315,0.661,0.595
827235,-648.0,8317.0,-231.0,0.331,0.315,0.661,0.595
827257,-552.0,8243.0,-233.0,0.331,0.315,0.661,0.595
827279,-420.0,8317.0,-267.0,0.331,0.315,0.661,0.595
827291,-354.0,8331.0,-259.0,0.331,0.315,0.661,0.595
827313,-542.0,8279.0,-223.0,0.331,0.315,0.661,0.595
827325,-540.0,8227.0,-181.0,0.331,0.315,0.661,0.595
827347,-434.0,8261.0,-243.0,0.331,0.315,0.661,0.595
827359,-298.0,8263.0,-297.0,0.331,0.316,0.661,0.595
827381,-494.0,8243.0,-291.0,0.331,0.315,0.661,0.595
827393,-694.0,8287.0,-325.0,0.331,0.315,0.662,0.594
827415,-666.0,8243.0,-361.0,0.331,0.315,0.662,0.594
827427,-528.0,8337.0,-417.0,0.33,0.316,0.662,0.595
827449,-382.0,8261.0,-313.0,0.33,0.315,0.662,0.595
827471,-392.0,8293.0,-133.0,0.33,0.315,0.661,0.595
827483,-432.0,8147.0,-29.0,0.33,0.315,0.661,0.595
827505,-418.0,8265.0,-227.0,0.33,0.316,0.662,0.595
827517,-406.0,8271.0,-505.0,0.33,0.316,0.662,0.594
827539,-422.0,8337.0,-413.0,0.33,0.315,0.662,0.594
827551,-626.0,8325.0,-325.0,0.33,0.315,0.662,0.595
827573,-618.0,8297.0,-141.0,0.33,0.315,0.662,0.595
827585,-480.0,8297.0,-279.0,0.329,0.315,0.662,0.595
827607,-284.0,8251.0,-327.0,0.329,0.315,0.662,0.595
827619,-322.0,8223.0,-253.0,0.329,0.315,0.662,0.595
827641,-468.0,8253.0,-223.0,0.329,0.315,0.662,0.595
827663,-558.0,8249.0,-211.0,0.329,0.315,0.662,0.595
827675,-512.0,8283.0,-389.0,0.329,0.316,0.662,0.595
827697,-416.0,8291.0,-413.0,0.329,0.316,0.662,0.595
827709,-372.0,8293.0,-379.0,0.329,0.316,0.662,0.595
827731,-424.0,8257.0,-245.0,0.329,0.315,0.662,0.595
827743,-484.0,8245.0,-197.0,0.329,0.315,0.662,0.595
827765,-566.0,8253.0,-263.0,0.329,0.315,0.663,0.595
827777,-504.0,8347.0,-349.0,0.329,0.315,0.663,0.595
827799,-402.0,8237.0,-311.0,0.328,0.315,0.662,0.595
827811,-440.0,8241.0,-211.0,0.328,0.315,0.662,0.595
827833,-542.0,8215.0,-241.0,0.328,0.315,0.662,0.595
827855,-396.0,8339.0,-227.0,0.328,0.315,0.662,0.595
827867,-382.0,8303.0,-275.0,0.328,0.315,0.663,0.595
827889,-442.0,8331.0,-353.0,0.328,0.315,0.663,0.595
827901,-546.0,8253.0,-401.0,0.328,0.315,0.663,0.595
827923,-762.0,8259.0,-285.0,0.328,0.315,0.663,0.595
827935,-602.0,8277.0,-185.0,0.328,0.315,0.663,0.595
827952,-374.0,8273.0,-221.0,0.327,0.315,0.663,0.595
827974,-258.0,8281.0,-357.0,0.327,0.315,0.663,0.595
827986,-392.0,8361.0,-413.0,0.327,0.315,0.663,0.595
828008,-604.0,8265.0,-285.0,0.328,0.315,0.663,0.595
828030,-634.0,8207.0,-263.0,0.328,0.315,0.663,0.595
828042,-538.0,8223.0,-227.0,0.327,0.315,0.663,0.595
828064,-354.0,8337.0,-163.0,0.327,0.315,0.663,0.595
828076,-248.0,8313.0,-273.0,0.327,0.315,0.663,0.595
828098,-400.0,8315.0,-393.0,0.327,0.315,0.663,0.595
828110,-638.0,8305.0,-399.0,0.327,0.315,0.663,0.595
828132,-746.0,8263.0,-311.0,0.327,0.315,0.663,0.595
828144,-678.0,8315.0,-243.0,0.327,0.315,0.663,0.595
828166,-384.0,8259.0,-199.0,0.326,0.315,0.663,0.595
828178,-262.0,8329.0,-213.0,0.326,0.315,0.663,0.596
828200,-152.0,8295.0,-307.0,0.326,0.315,0.663,0.595
828222,-374.0,8291.0,-275.0,0.326,0.315,0.663,0.595
828234,-590.0,8247.0,-199.0,0.327,0.315,0.663,0.595
828256,-670.0,8241.0,-335.0,0.327,0.315,0.664,0.595
828268,-670.0,8259.0,-441.0,0.327,0.315,0.664,0.595
828290,-540.0,8317.0,-347.0,0.326,0.315,0.664,0.595
828302,-470.0,8305.0,-237.0,0.326,0.315,0.663,0.595
828324,-330.0,8291.0,-191.0,0.326,0.315,0.663,0.595
828336,-234.0,8241.0,-235.0,0.326,0.315,0.663,0.595
828358,-364.0,8257.0,-265.0,0.326,0.315,0.664,0.595
828370,-532.0,8255.0,-355.0,0.326,0.315,0.664,0.595
828392,-768.0,8315.0,-353.0,0.326,0.315,0.664,0.595
828414,-778.0,8287.0,-439.0,0.326,0.314,0.664,0.595
828426,-602.0,8321.0,-523.0,0.326,0.315,0.664,0.595
828448,-336.0,8253.0,-325.0,0.325,0.315,0.664,0.595
828460,-244.0,8251.0,-71.0,0.325,0.315,0.664,0.596
828482,-284.0,8197.0,-95.0,0.325,0.315,0.664,0.596
828494,-454.0,8323.0,-321.0,0.325,0.315,0.664,0.595
828516,-676.0,8267.0,-455.0,0.325,0.315,0.664,0.594
828528,-740.0,8373.0,-529.0,0.325,0.315,0.665,0.594
828550,-632.0,8307.0,-463.0,0.325,0.315,0.664,0.595
828562,-374.0,8275.0,-305.0,0.325,0.315,0.664,0.595
828584,-314.0,8257.0,-109.0,0.324,0.315,0.664,0.596
828606,-370.0,8215.0,-57.0,0.325,0.315,0.664,0.596
828618,-518.0,8327.0,-199.0,0.325,0.315,0.664,0.595
828640,-516.0,8273.0,-365.0,0.324,0.315,0.664,0.595
828652,-432.0,8375.0,-529.0,0.324,0.315,0.664,0.595
828674,-476.0,8315.0,-417.0,0.324,0.315,0.664,0.595
828686,-544.0,8317.0,-371.0,0.324,0.315,0.664,0.595
828708,-512.0,8223.0,-211.0,0.324,0.315,0.664,0.596
828720,-492.0,8173.0,-213.0,0.324,0.315,0.664,0.596
828742,-438.0,8199.0,-203.0,0.324,0.315,0.664,0.596
828754,-440.0,8261.0,-181.0,0.324,0.315,0.664,0.596
828776,-472.0,8371.0,-429.0,0.324,0.315,0.665,0.595
828798,-458.0,8353.0,-451.0,0.324,0.315,0.665,0.595
828810,-586.0,8325.0,-345.0,0.324,0.315,0.665,0.596
828832,-600.0,8195.0,-233.0,0.324,0.314,0.664,0.596
828844,-446.0,8193.0,-227.0,0.323,0.315,0.664,0.596
828866,-272.0,8269.0,-263.0,0.323,0.315,0.664,0.596
828878,-400.0,8279.0,-237.0,0.323,0.315,0.665,0.596
828900,-536.0,8301.0,-333.0,0.323,0.315,0.665,0.596
828912,-562.0,8303.0,-419.0,0.323,0.314,0.665,0.595
828934,-562.0,8287.0,-451.0,0.323,0.314,0.665,0.596
828946,-524.0,8275.0,-299.0,0.323,0.314,0.665,0.596
828968,-538.0,8229.0,-165.0,0.323,0.314,0.665,0.596
828990,-494.0,8229.0,-255.0,0.323,0.315,0.665,0.596
829002,-350.0,8301.0,-441.0,0.323,0.315,0.665,0.596
829024,-364.0,8299.0,-365.0,0.323,0.315,0.665,0.596
829036,-476.0,8373.0,-223.0,0.323,0.315,0.665,0.596
829058,-638.0,8227.0,-203.0,0.323,0.315,0.665,0.596
829070,-540.0,8305.0,-333.0,0.323,0.315,0.665,0.596
829092,-448.0,8273.0,-543.0,0.323,0.315,0.665,0.596
829104,-384.0,8295.0,-435.0,0.323,0.314,0.665,0.596
829126,-482.0,8181.0,-207.0,0.323,0.314,0.665,0.596
829138,-626.0,8227.0,-145.0,0.323,0.314,0.665,0.596
829160,-528.0,8277.0,-311.0,0.322,0.315,0.665,0.596
829182,-354.0,8347.0,-393.0,0.322,0.315,0.665,0.596
829194,-360.0,8339.0,-329.0,0.322,0.314,0.665,0.596
829216,-420.0,8211.0,-255.0,0.322,0.314,0.665,0.596
829228,-496.0,8251.0,-335.0,0.322,0.314,0.665,0.597
829250,-464.0,8197.0,-357.0,0.322,0.313,0.665,0.597
829262,-550.0,8295.0,-385.0,0.322,0.313,0.665,0.597
829284,-592.0,8273.0,-201.0,0.322,0.313,0.665,0.597
829296,-560.0,8307.0,-273.0,0.322,0.313,0.665,0.597
829318,-590.0,8327.0,-337.0,0.321,0.313,0.665,0.597
829330,-518.0,8363.0,-225.0,0.321,0.312,0.665,0.597
829352,-452.0,8323.0,-223.0,0.321,0.312,0.665,0.597
829374,-332.0,8233.0,-341.0,0.321,0.312,0.665,0.597
829386,-412.0,8209.0,-455.0,0.321,0.312,0.665,0.597
829408,-568.0,8265.0,-391.0,0.321,0.312,0.665,0.597
829420,-574.0,8323.0,-225.0,0.321,0.312,0.665,0.597
829442,-604.0,8385.0,-201.0,0.321,0.312,0.665,0.597
829454,-488.0,8299.0,-297.0,0.321,0.311,0.666,0.597
829476,-426.0,8231.0,-395.0,0.321,0.311,0.666,0.598
829488,-492.0,8269.0,-323.0,0.321,0.311,0.665,0.598
829510,-482.0,8221.0,-255.0,0.321,0.311,0.665,0.598
829522,-470.0,8251.0,-263.0,0.321,0.311,0.665,0.598
829544,-474.0,8311.0,-233.0,0.321,0.311,0.665,0.598
829566,-518.0,8353.0,-251.0,0.321,0.311,0.665,0.598
829578,-574.0,8293.0,-295.0,0.321,0.31,0.666,0.598
829600,-612.0,8239.0,-409.0,0.321,0.31,0.666,0.598
829612,-592.0,8183.0,-353.0,0.32,0.31,0.666,0.598
829634,-486.0,8165.0,-269.0,0.32,0.31,0.666,0.599
829646,-326.0,8209.0,-139.0,0.32,0.31,0.665,0.599
829668,-308.0,8339.0,-249.0,0.32,0.31,0.665,0.599
829680,-406.0,8339.0,-263.0,0.32,0.31,0.666,0.599
829702,-630.0,8315.0,-363.0,0.32,0.31,0.666,0.599
829714,-668.0,8193.0,-423.0,0.32,0.309,0.666,0.599
829736,-590.0,8295.0,-347.0,0.32,0.309,0.666,0.599
829758,-478.0,8245.0,-217.0,0.32,0.309,0.666,0.599
829770,-332.0,8261.0,-221.0,0.32,0.309,0.665,0.6
829792,-404.0,8261.0,-167.0,0.32,0.309,0.665,0.6
829804,-506.0,8259.0,-243.0,0.32,0.309,0.665,0.599
829826,-574.0,8373.0,-371.0,0.32,0.309,0.665,0.599
829838,-620.0,8249.0,-353.0,0.32,0.309,0.665,0.599
829860,-506.0,8331.0,-377.0,0.32,0.309,0.665,0.599
829872,-436.0,8217.0,-353.0,0.32,0.309,0.665,0.6
829894,-532.0,8205.0,-123.0,0.32,0.309,0.665,0.6
829906,-528.0,8267.0,-179.0,0.32,0.309,0.665,0.6
829928,-512.0,8265.0,-215.0,0.32,0.309,0.665,0.6
829955,-446.0,8331.0,-357.0,0.32,0.309,0.665,0.6
829967,-532.0,8349.0,-363.0,0.32,0.309,0.665,0.6
829979,-534.0,8267.0,-263.0,0.32,0.309,0.665,0.6
830001,-572.0,8263.0,-201.0,0.32,0.308,0.665,0.6
830013,-496.0,8241.0,-265.0,0.32,0.309,0.665,0.6
830035,-494.0,8255.0,-325.0,0.32,0.309,0.665,0.6
830047,-552.0,8291.0,-233.0,0.32,0.309,0.665,0.6
830069,-552.0,8265.0,-245.0,0.32,0.309,0.665,0.6
830081,-544.0,8281.0,-307.0,0.32,0.309,0.665,0.6
830103,-476.0,8275.0,-345.0,0.32,0.309,0.665,0.6
830125,-398.0,8297.0,-175.0,0.32,0.309,0.665,0.6
830137,-552.0,8323.0,-135.0,0.32,0.309,0.665,0.6
830159,-648.0,8297.0,-211.0,0.32,0.309,0.666,0.6
830171,-674.0,8319.0,-375.0,0.319,0.309,0.666,0.599
830193,-542.0,8291.0,-373.0,0.319,0.309,0.666,0.599
830205,-430.0,8207.0,-347.0,0.319,0.309,0.666,0.6
830227,-372.0,8219.0,-211.0,0.319,0.309,0.665,0.6
830239,-424.0,8167.0,-89.0,0.319,0.309,0.665,0.6
830261,-482.0,8247.0,-35.0,0.319,0.309,0.665,0.6
830273,-470.0,8305.0,-251.0,0.319,0.31,0.666,0.599
830295,-490.0,8293.0,-393.0,0.319,0.31,0.666,0.599
830317,-640.0,8307.0,-409.0,0.319,0.309,0.666,0.599
830329,-664.0,8281.0,-325.0,0.319,0.309,0.666,0.599
830351,-588.0,8261.0,-203.0,0.319,0.31,0.666,0.599
830363,-288.0,8203.0,-187.0,0.319,0.31,0.666,0.599
830385,-236.0,8185.0,-255.0,0.319,0.311,0.666,0.599
830397,-396.0,8305.0,-357.0,0.319,0.311,0.666,0.599
830419,-614.0,8309.0,-345.0,0.319,0.311,0.666,0.599
830431,-626.0,8339.0,-379.0,0.319,0.31,0.666,0.599
830453,-584.0,8293.0,-367.0,0.319,0.31,0.666,0.599
830465,-626.0,8259.0,-315.0,0.318,0.31,0.666,0.599
830487,-520.0,8149.0,-243.0,0.318,0.31,0.666,0.599
830509,-426.0,8277.0,-297.0,0.318,0.31,0.666,0.599
830521,-378.0,8251.0,-215.0,0.318,0.311,0.666,0.599
830543,-468.0,8273.0,-167.0,0.319,0.311,0.666,0.599
830555,-532.0,8301.0,-229.0,0.318,0.311,0.666,0.599
830577,-562.0,8239.0,-327.0,0.318,0.31,0.666,0.599
830589,-622.0,8319.0,-417.0,0.318,0.31,0.666,0.599
830611,-650.0,8245.0,-371.0,0.318,0.31,0.666,0.599
830623,-502.0,8211.0,-285.0,0.318,0.31,0.666,0.599
830645,-370.0,8315.0,-239.0,0.318,0.31,0.666,0.599
830657,-414.0,8321.0,-117.0,0.318,0.311,0.666,0.599
830679,-488.0,8323.0,-269.0,0.318,0.311,0.666,0.599
830701,-562.0,8343.0,-377.0,0.318,0.311,0.666,0.599
830713,-578.0,8245.0,-383.0,0.318,0.311,0.667,0.599
830735,-622.0,8231.0,-373.0,0.318,0.31,0.666,0.599
830747,-548.0,8151.0,-213.0,0.318,0.311,0.666,0.599
830769,-432.0,8257.0,-183.0,0.317,0.311,0.666,0.599
830781,-340.0,8291.0,-115.0,0.317,0.311,0.666,0.599
830803,-522.0,8323.0,-333.0,0.317,0.311,0.666,0.599
830815,-596.0,8307.0,-475.0,0.317,0.311,0.667,0.598
830837,-594.0,8315.0,-491.0,0.318,0.311,0.667,0.598
830849,-604.0,8255.0,-323.0,0.318,0.311,0.666,0.599
830871,-456.0,8247.0,-185.0,0.318,0.311,0.666,0.599
830893,-384.0,8269.0,-127.0,0.318,0.311,0.666,0.599
830905,-456.0,8309.0,-195.0,0.317,0.311,0.666,0.599
830927,-476.0,8263.0,-335.0,0.317,0.312,0.666,0.599
830939,-550.0,8255.0,-415.0,0.317,0.312,0.666,0.599
830961,-480.0,8319.0,-321.0,0.317,0.312,0.666,0.599
830973,-526.0,8355.0,-281.0,0.317,0.311,0.666,0.599
830995,-602.0,8271.0,-307.0,0.317,0.311,0.666,0.599
831007,-626.0,8223.0,-315.0,0.317,0.311,0.666,0.599
831029,-478.0,8163.0,-293.0,0.317,0.312,0.666,0.599
831041,-336.0,8289.0,-381.0,0.317,0.312,0.666,0.599
831063,-334.0,8301.0,-327.0,0.317,0.312,0.666,0.599
831085,-528.0,8257.0,-241.0,0.316,0.312,0.666,0.599
831097,-702.0,8257.0,-237.0,0.316,0.311,0.667,0.599
831119,-688.0,8321.0,-321.0,0.315,0.311,0.667,0.599
831131,-512.0,8343.0,-385.0,0.315,0.312,0.667,0.599
831153,-314.0,8351.0,-393.0,0.314,0.312,0.667,0.6
831165,-240.0,8273.0,-353.0,0.314,0.312,0.667,0.6
831187,-306.0,8243.0,-275.0,0.314,0.312,0.666,0.6
831199,-478.0,8257.0,-159.0,0.315,0.312,0.666,0.599
831221,-622.0,8213.0,-389.0,0.315,0.312,0.667,0.599
831233,-600.0,8207.0,-441.0,0.315,0.312,0.667,0.599
831255,-448.0,8297.0,-423.0,0.315,0.313,0.667,0.599
831277,-330.0,8289.0,-255.0,0.315,0.312,0.666,0.599
831289,-506.0,8307.0,-139.0,0.315,0.312,0.666,0.6
831311,-536.0,8231.0,-129.0,0.315,0.312,0.667,0.599
831323,-416.0,8333.0,-411.0,0.314,0.312,0.667,0.599
831345,-340.0,8305.0,-435.0,0.314,0.312,0.667,0.599
831357,-402.0,8181.0,-391.0,0.315,0.312,0.667,0.599
831379,-554.0,8205.0,-353.0,0.315,0.312,0.667,0.599
831391,-494.0,8273.0,-435.0,0.314,0.312,0.667,0.599
831413,-496.0,8305.0,-261.0,0.314,0.312,0.667,0.599
831425,-476.0,8365.0,-215.0,0.314,0.312,0.667,0.599
831447,-498.0,8345.0,-241.0,0.314,0.312,0.667,0.599
831469,-442.0,8211.0,-343.0,0.314,0.312,0.667,0.599
831481,-410.0,8317.0,-461.0,0.314,0.312,0.667,0.599
831503,-456.0,8225.0,-413.0,0.314,0.312,0.667,0.599
831515,-564.0,8241.0,-255.0,0.314,0.312,0.667,0.599
831537,-574.0,8301.0,-181.0,0.314,0.312,0.667,0.599
831549,-466.0,8323.0,-337.0,0.314,0.312,0.667,0.599
831571,-318.0,8383.0,-445.0,0.314,0.312,0.667,0.599
831583,-362.0,8281.0,-321.0,0.314,0.312,0.667,0.599
831605,-608.0,8211.0,-239.0,0.314,0.312,0.667,0.599
831617,-628.0,8225.0,-283.0,0.314,0.312,0.667,0.599
831639,-318.0,8277.0,-399.0,0.313,0.312,0.667,0.599
831661,-288.0,8369.0,-365.0,0.313,0.312,0.667,0.599
831673,-394.0,8347.0,-323.0,0.314,0.312,0.667,0.599
831695,-694.0,8329.0,-373.0,0.314,0.312,0.667,0.599
831707,-618.0,8181.0,-375.0,0.314,0.312,0.667,0.599
831729,-524.0,8217.0,-365.0,0.314,0.312,0.667,0.599
831741,-398.0,8205.0,-335.0,0.314,0.312,0.667,0.6
831763,-274.0,8351.0,-213.0,0.313,0.312,0.667,0.6
831775,-338.0,8349.0,-237.0,0.314,0.312,0.667,0.599
831797,-390.0,8387.0,-341.0,0.314,0.312,0.667,0.599
831809,-640.0,8341.0,-531.0,0.314,0.312,0.668,0.599
831831,-646.0,8195.0,-505.0,0.314,0.312,0.668,0.599
831853,-626.0,8105.0,-283.0,0.314,0.312,0.667,0.599
831865,-470.0,8221.0,-167.0,0.314,0.312,0.667,0.599
831887,-232.0,8337.0,-225.0,0.313,0.313,0.667,0.599
831899,-88.0,8353.0,-359.0,0.313,0.312,0.667,0.599
831921,-388.0,8337.0,-413.0,0.314,0.312,0.668,0.599
831933,-728.0,8257.0,-317.0,0.314,0.312,0.668,0.599
831960,-818.0,8223.0,-325.0,0.314,0.312,0.668,0.598
831972,-530.0,8273.0,-487.0,0.313,0.312,0.668,0.599
831984,-202.0,8279.0,-427.0,0.313,0.312,0.668,0.599
832006,-218.0,8255.0,-377.0,0.313,0.312,0.668,0.599
832018,-436.0,8195.0,-331.0,0.314,0.312,0.668,0.599
832040,-528.0,8369.0,-89.0,0.314,0.312,0.668,0.598
832062,-628.0,8261.0,-305.0,0.314,0.311,0.669,0.598
832074,-504.0,8195.0,-491.0,0.313,0.311,0.669,0.598
832096,-390.0,8315.0,-527.0,0.313,0.311,0.669,0.598
832108,-412.0,8391.0,-389.0,0.313,0.311,0.669,0.598
832130,-562.0,8261.0,-277.0,0.314,0.311,0.669,0.598
832142,-642.0,8311.0,-183.0,0.314,0.311,0.669,0.597
832164,-500.0,8331.0,-357.0,0.314,0.311,0.669,0.597
832176,-358.0,8331.0,-479.0,0.314,0.311,0.669,0.597
832198,-328.0,8259.0,-473.0,0.314,0.311,0.669,0.597
832210,-500.0,8195.0,-355.0,0.315,0.311,0.669,0.597
832232,-594.0,8211.0,-173.0,0.315,0.311,0.669,0.597
832254,-606.0,8203.0,-197.0,0.315,0.311,0.669,0.597
832266,-554.0,8309.0,-401.0,0.315,0.311,0.67,0.596
832288,-536.0,8389.0,-569.0,0.315,0.311,0.67,0.596
832300,-574.0,8315.0,-561.0,0.315,0.311,0.67,0.596
832322,-620.0,8193.0,-311.0,0.316,0.311,0.67,0.596
832334,-614.0,8173.0,-135.0,0.316,0.311,0.669,0.596
832356,-444.0,8089.0,-123.0,0.316,0.311,0.669,0.596
832368,-438.0,8293.0,-399.0,0.316,0.311,0.67,0.596
832390,-400.0,8223.0,-573.0,0.316,0.311,0.67,0.595
832412,-528.0,8239.0,-597.0,0.316,0.311,0.67,0.595
832424,-708.0,8285.0,-407.0,0.317,0.311,0.67,0.595
832446,-846.0,8277.0,-185.0,0.317,0.311,0.67,0.595
832458,-716.0,8217.0,-227.0,0.317,0.311,0.67,0.595
832480,-500.0,8245.0,-371.0,0.316,0.311,0.67,0.596
832492,-316.0,8241.0,-439.0,0.316,0.311,0.67,0.595
832514,-416.0,8237.0,-421.0,0.316,0.311,0.67,0.595
832526,-590.0,8343.0,-333.0,0.317,0.311,0.67,0.595
832548,-688.0,8281.0,-381.0,0.317,0.311,0.67,0.595
832560,-732.0,8249.0,-417.0,0.317,0.311,0.67,0.595
832582,-632.0,8337.0,-431.0,0.316,0.311,0.67,0.595
832604,-224.0,8187.0,153.0,0.316,0.312,0.67,0.595
832616,-530.0,8155.0,-559.0,0.316,0.311,0.669,0.596
832638,-518.0,8245.0,-27.0,0.316,0.312,0.669,0.596
832650,-604.0,8303.0,17.0,0.316,0.312,0.669,0.596
832672,-424.0,8333.0,-399.0,0.316,0.313,0.669,0.596
832684,-464.0,8321.0,-561.0,0.316,0.313,0.669,0.595
832706,-602.0,8293.0,-529.0,0.316,0.313,0.669,0.595
832718,-574.0,8219.0,-433.0,0.316,0.313,0.669,0.596
832740,-622.0,8153.0,-255.0,0.316,0.313,0.668,0.596
832752,-556.0,8265.0,-147.0,0.316,0.313,0.668,0.597
832774,-376.0,8361.0,-233.0,0.315,0.313,0.668,0.597
832796,-280.0,8431.0,-409.0,0.315,0.314,0.668,0.596
832808,-374.0,8341.0,-549.0,0.316,0.314,0.668,0.596
832830,-548.0,8201.0,-433.0,0.316,0.314,0.668,0.596
832842,-760.0,8223.0,-391.0,0.316,0.314,0.668,0.596
832864,-658.0,8145.0,-309.0,0.316,0.314,0.668,0.596
832876,-440.0,8253.0,-397.0,0.315,0.314,0.668,0.597
832898,-274.0,8353.0,-305.0,0.315,0.314,0.668,0.597
832910,-314.0,8429.0,-193.0,0.315,0.314,0.667,0.597
832932,-478.0,8221.0,-263.0,0.315,0.314,0.668,0.597
832944,-608.0,8199.0,-455.0,0.315,0.315,0.668,0.596
832966,-630.0,8177.0,-513.0,0.315,0.315,0.668,0.596
832988,-508.0,8251.0,-423.0,0.315,0.315,0.668,0.596
833000,-404.0,8281.0,-333.0,0.315,0.315,0.668,0.596
833022,-410.0,8289.0,-319.0,0.315,0.315,0.668,0.596
833034,-482.0,8303.0,-441.0,0.315,0.315,0.668,0.596
833056,-562.0,8269.0,-441.0,0.315,0.315,0.668,0.596
833068,-582.0,8207.0,-381.0,0.315,0.315,0.667,0.596
833090,-538.0,8225.0,-305.0,0.315,0.316,0.667,0.597
833102,-456.0,8249.0,-307.0,0.315,0.316,0.667,0.597
833124,-340.0,8243.0,-391.0,0.314,0.316,0.667,0.597
833136,-376.0,8297.0,-361.0,0.315,0.316,0.667,0.597
833158,-444.0,8341.0,-365.0,0.315,0.316,0.667,0.597
833180,-570.0,8275.0,-439.0,0.315,0.316,0.667,0.597
833192,-606.0,8353.0,-451.0,0.314,0.316,0.667,0.597
833214,-486.0,8181.0,-395.0,0.314,0.316,0.667,0.597
833226,-444.0,8203.0,-263.0,0.314,0.316,0.666,0.598
833248,-348.0,8115.0,-293.0,0.314,0.317,0.666,0.598
833260,-364.0,8149.0,-263.0,0.314,0.318,0.666,0.598
833282,-472.0,8215.0,-179.0,0.315,0.319,0.666,0.597
833294,-516.0,8309.0,-521.0,0.315,0.319,0.666,0.596
833316,-532.0,8323.0,-601.0,0.315,0.319,0.666,0.597
833328,-448.0,8327.0,-439.0,0.315,0.319,0.665,0.597
833350,-414.0,8231.0,-253.0,0.315,0.319,0.665,0.597
833372,-448.0,8153.0,-291.0,0.315,0.32,0.665,0.597
833384,-340.0,8227.0,-267.0,0.315,0.32,0.664,0.598
833406,-270.0,8275.0,-375.0,0.315,0.32,0.664,0.598
833418,-368.0,8393.0,-529.0,0.315,0.32,0.664,0.597
833440,-524.0,8331.0,-617.0,0.315,0.32,0.664,0.597
833452,-682.0,8205.0,-457.0,0.315,0.319,0.664,0.598
833474,-726.0,8205.0,-327.0,0.314,0.319,0.664,0.599
833486,-526.0,8203.0,-289.0,0.314,0.32,0.663,0.6
833508,-180.0,8277.0,-151.0,0.313,0.32,0.662,0.601
833520,-70.0,8413.0,-187.0,0.313,0.321,0.662,0.601
833542,-70.0,8275.0,-301.0,0.313,0.32,0.662,0.601
833564,-352.0,8349.0,-321.0,0.314,0.32,0.662,0.601
833576,-588.0,8175.0,-291.0,0.314,0.32,0.662,0.601
833598,-564.0,8231.0,-315.0,0.314,0.32,0.662,0.601
833610,-354.0,8277.0,-301.0,0.313,0.32,0.662,0.601
833632,-218.0,8389.0,-287.0,0.313,0.32,0.661,0.602
833644,-146.0,8263.0,-293.0,0.313,0.32,0.661,0.602
833666,-424.0,8299.0,-239.0,0.313,0.319,0.662,0.602
833678,-548.0,8239.0,-295.0,0.314,0.319,0.662,0.602
833700,-568.0,8231.0,-297.0,0.313,0.319,0.661,0.602
833712,-354.0,8253.0,-345.0,0.313,0.319,0.661,0.602
833734,-234.0,8253.0,-369.0,0.313,0.319,0.661,0.603
833756,-210.0,8289.0,-387.0,0.312,0.319,0.661,0.603
833768,-574.0,8383.0,-467.0,0.312,0.318,0.661,0.604
833790,-502.0,8321.0,-225.0,0.312,0.318,0.66,0.605
833802,-350.0,8239.0,-127.0,0.312,0.318,0.659,0.605
833824,-226.0,8229.0,-89.0,0.312,0.318,0.659,0.606
833836,-204.0,8253.0,-83.0,0.311,0.318,0.659,0.607
833858,-474.0,8259.0,-477.0,0.31,0.317,0.659,0.607
833870,-446.0,8357.0,-587.0,0.31,0.316,0.658,0.609
833892,-502.0,8343.0,-389.0,0.309,0.316,0.657,0.61
833904,-378.0,8243.0,-79.0,0.309,0.316,0.656,0.612
833926,-228.0,8265.0,161.0,0.309,0.316,0.654,0.614
833948,-156.0,8245.0,237.0,0.309,0.317,0.653,0.615
833965,-46.0,8385.0,279.0,0.309,0.317,0.652,0.615
833977,22.0,8301.0,147.0,0.309,0.318,0.652,0.615
833999,-222.0,8263.0,-243.0,0.309,0.318,0.652,0.615
834011,-262.0,8303.0,-107.0,0.309,0.317,0.653,0.615
834033,-226.0,8301.0,-175.0,0.309,0.317,0.653,0.615
834045,-236.0,8225.0,-31.0,0.308,0.316,0.653,0.615
834067,-230.0,8237.0,-61.0,0.304,0.312,0.654,0.618
834079,-432.0,8285.0,-181.0,0.301,0.309,0.656,0.62
834101,-734.0,8113.0,145.0,0.297,0.305,0.656,0.623
834113,-986.0,8643.0,619.0,0.291,0.3,0.657,0.627
834135,-1108.0,8563.0,57.0,0.277,0.29,0.661,0.635
834157,-1298.0,8021.0,-339.0,0.26,0.278,0.664,0.644
834169,-1032.0,8387.0,-861.0,0.242,0.269,0.665,0.653
834191,-588.0,8005.0,-119.0,0.224,0.262,0.664,0.663
834203,-178.0,8063.0,693.0,0.202,0.251,0.663,0.676
834225,396.0,8165.0,985.0,0.176,0.236,0.661,0.69
834237,766.0,8227.0,1111.0,0.148,0.218,0.659,0.704
834259,1254.0,8143.0,1551.0,0.114,0.195,0.657,0.719
834271,1596.0,8963.0,2283.0,0.081,0.17,0.654,0.733
834293,1822.0,8187.0,1167.0,0.042,0.136,0.651,0.745
834305,1816.0,8191.0,1695.0,0.002,0.097,0.646,0.757
834327,1516.0,8235.0,1491.0,0.035,-0.06,-0.639,-0.766
834349,1312.0,7037.0,1461.0,0.064,-0.03,-0.632,-0.772
834361,968.0,8119.0,2383.0,0.091,0.002,-0.624,-0.776
834383,566.0,8143.0,1789.0,0.114,0.027,-0.616,-0.779
834395,296.0,8045.0,2001.0,0.132,0.048,-0.608,-0.781
834417,206.0,7791.0,2201.0,0.146,0.061,-0.602,-0.783
834429,400.0,8037.0,2241.0,0.158,0.074,-0.595,-0.784
834451,384.0,7833.0,2417.0,0.173,0.09,-0.588,-0.785
834463,174.0,8013.0,1781.0,0.186,0.105,-0.58,-0.786
834485,130.0,7825.0,1947.0,0.2,0.121,-0.57,-0.787
834497,-86.0,7945.0,2677.0,0.212,0.136,-0.56,-0.789
834519,-386.0,7747.0,2781.0,0.224,0.151,-0.548,-0.791
834541,-556.0,7613.0,2689.0,0.236,0.164,-0.537,-0.793
834553,-486.0,7595.0,3325.0,0.247,0.176,-0.526,-0.795
834575,-618.0,7563.0,3447.0,0.258,0.188,-0.515,-0.796
834587,-800.0,7667.0,3585.0,0.269,0.201,-0.503,-0.796
834609,-874.0,7341.0,3909.0,0.279,0.212,-0.493,-0.797
834621,-1052.0,7539.0,4007.0,0.287,0.222,-0.483,-0.797
834643,-1236.0,7375.0,4221.0,0.293,0.23,-0.476,-0.797
834655,-1216.0,7383.0,4021.0,0.299,0.237,-0.47,-0.795
834677,-1104.0,7483.0,3965.0,0.305,0.243,-0.466,-0.794
834689,-976.0,7421.0,3795.0,0.308,0.248,-0.463,-0.793
834711,-990.0,7349.0,3653.0,0.311,0.252,-0.461,-0.792
834733,-1364.0,7377.0,3827.0,0.313,0.256,-0.458,-0.792
834745,-1674.0,7423.0,3721.0,0.316,0.26,-0.456,-0.791
834767,-1436.0,7157.0,3571.0,0.319,0.264,-0.454,-0.789
834779,-992.0,7385.0,3467.0,0.322,0.267,-0.452,-0.788
834801,-942.0,7369.0,3571.0,0.323,0.269,-0.45,-0.788
834813,-1062.0,7439.0,3561.0,0.323,0.27,-0.449,-0.788
834835,-1290.0,7395.0,3785.0,0.322,0.269,-0.448,-0.789
834847,-1626.0,7373.0,3935.0,0.319,0.268,-0.449,-0.79
834869,-1830.0,7143.0,3919.0,0.318,0.267,-0.449,-0.791
834881,-1688.0,7243.0,3597.0,0.317,0.267,-0.449,-0.791
834903,-1354.0,7295.0,3307.0,0.317,0.267,-0.449,-0.791
834925,-1020.0,7263.0,3621.0,0.317,0.266,-0.449,-0.792
834937,-1148.0,7353.0,4027.0,0.316,0.265,-0.449,-0.793
834959,-1628.0,7193.0,3955.0,0.314,0.264,-0.45,-0.793
834971,-1596.0,7321.0,3697.0,0.313,0.263,-0.451,-0.794
834993,-1590.0,7287.0,3597.0,0.312,0.262,-0.451,-0.794
835005,-1338.0,7283.0,3775.0,0.311,0.261,-0.452,-0.794
835027,-1128.0,7345.0,3649.0,0.311,0.26,-0.452,-0.794
835039,-1158.0,7397.0,3683.0,0.31,0.26,-0.452,-0.795
835061,-1422.0,7271.0,3899.0,0.309,0.259,-0.452,-0.796
835073,-1598.0,7205.0,3975.0,0.308,0.258,-0.453,-0.796
835095,-1654.0,7173.0,3845.0,0.308,0.258,-0.453,-0.796
835117,-1552.0,7307.0,3457.0,0.308,0.259,-0.453,-0.795
835129,-1224.0,7413.0,3569.0,0.309,0.259,-0.453,-0.795
835151,-1014.0,7431.0,3863.0,0.309,0.259,-0.453,-0.795
835163,-1230.0,7407.0,3933.0,0.309,0.259,-0.453,-0.795
835185,-1642.0,7317.0,3715.0,0.308,0.259,-0.453,-0.795
835197,-1640.0,7069.0,3719.0,0.308,0.26,-0.454,-0.795
835219,-1362.0,7313.0,3657.0,0.309,0.26,-0.454,-0.794
835231,-1018.0,7295.0,3641.0,0.31,0.26,-0.454,-0.794
835253,-1238.0,7429.0,3863.0,0.31,0.26,-0.453,-0.794
835265,-1404.0,7319.0,3861.0,0.309,0.26,-0.453,-0.794
835287,-1362.0,7261.0,3793.0,0.309,0.259,-0.454,-0.795
835309,-1266.0,7325.0,3655.0,0.309,0.259,-0.454,-0.795
835321,-1280.0,7205.0,3521.0,0.308,0.259,-0.454,-0.795
835343,-1174.0,7303.0,3697.0,0.307,0.258,-0.454,-0.796
835355,-1238.0,7319.0,3995.0,0.306,0.257,-0.454,-0.796
835377,-1566.0,7347.0,3855.0,0.305,0.257,-0.455,-0.796
835389,-1636.0,7405.0,3657.0,0.305,0.257,-0.455,-0.796
835411,-1492.0,7277.0,3693.0,0.305,0.257,-0.455,-0.796
835423,-1168.0,7271.0,3867.0,0.305,0.256,-0.455,-0.797
835445,-1116.0,7267.0,3815.0,0.305,0.256,-0.455,-0.797
835457,-1332.0,7207.0,3709.0,0.304,0.256,-0.455,-0.797
835479,-1410.0,7221.0,3737.0,0.304,0.255,-0.455,-0.797
835501,-1154.0,7335.0,3735.0,0.303,0.255,-0.456,-0.797
835513,-1198.0,7395.0,3815.0,0.302,0.254,-0.456,-0.798
835535,-1424.0,7295.0,3885.0,0.301,0.254,-0.456,-0.798
835547,-1518.0,7293.0,3685.0,0.301,0.254,-0.456,-0.798
835569,-1384.0,7225.0,3695.0,0.301,0.254,-0.456,-0.798
835581,-1198.0,7215.0,3859.0,0.302,0.254,-0.456,-0.798
835603,-1234.0,7243.0,3871.0,0.301,0.254,-0.456,-0.798
835615,-1368.0,7289.0,3783.0,0.301,0.254,-0.456,-0.798
835637,-1486.0,7395.0,3827.0,0.301,0.254,-0.456,-0.798
835649,-1410.0,7309.0,3927.0,0.302,0.254,-0.456,-0.798
835671,-1186.0,7231.0,3755.0,0.302,0.255,-0.456,-0.797
835693,-1302.0,7209.0,3613.0,0.302,0.255,-0.456,-0.797
835705,-1376.0,7329.0,3705.0,0.302,0.255,-0.456,-0.797
835727,-1278.0,7297.0,3909.0,0.303,0.255,-0.456,-0.797
835739,-1172.0,7301.0,3843.0,0.303,0.255,-0.456,-0.797
835761,-1246.0,7203.0,3603.0,0.302,0.256,-0.456,-0.797
835773,-1592.0,7333.0,3709.0,0.302,0.256,-0.456,-0.797
835795,-1544.0,7265.0,3917.0,0.302,0.256,-0.456,-0.797
835807,-1202.0,7349.0,3975.0,0.303,0.256,-0.456,-0.797
835829,-1006.0,7291.0,3759.0,0.302,0.256,-0.457,-0.797
835841,-1288.0,7249.0,3607.0,0.302,0.256,-0.457,-0.797
835863,-1620.0,7239.0,3721.0,0.301,0.256,-0.456,-0.797
835885,-1426.0,7309.0,3931.0,0.302,0.256,-0.456,-0.797
835897,-1016.0,7357.0,3835.0,0.302,0.255,-0.457,-0.797
835919,-1156.0,7297.0,3835.0,0.301,0.255,-0.457,-0.797
835931,-1314.0,7257.0,3729.0,0.301,0.255,-0.458,-0.797
835953,-1466.0,7267.0,3717.0,0.3,0.255,-0.458,-0.797
835970,-1154.0,7333.0,3761.0,0.3,0.254,-0.458,-0.797
835982,-1038.0,7243.0,3735.0,0.3,0.254,-0.458,-0.797
836004,-1350.0,7291.0,3827.0,0.3,0.254,-0.458,-0.797
836016,-1528.0,7265.0,3899.0,0.3,0.254,-0.458,-0.797
836038,-1396.0,7309.0,3855.0,0.3,0.254,-0.458,-0.797
836060,-1112.0,7293.0,3839.0,0.3,0.254,-0.458,-0.797
836072,-1172.0,7261.0,3715.0,0.3,0.255,-0.458,-0.797
836094,-1296.0,7215.0,3675.0,0.3,0.255,-0.458,-0.797
836106,-1332.0,7307.0,3719.0,0.3,0.255,-0.458,-0.797
836128,-1374.0,7223.0,4011.0,0.3,0.255,-0.458,-0.797
836140,-1442.0,7241.0,3837.0,0.3,0.256,-0.458,-0.797
836162,-1286.0,7335.0,3785.0,0.301,0.256,-0.458,-0.797
836174,-1020.0,7333.0,3713.0,0.301,0.256,-0.458,-0.796
836196,-988.0,7289.0,3615.0,0.301,0.256,-0.458,-0.796
836208,-1444.0,7235.0,3931.0,0.301,0.257,-0.457,-0.797
836230,-1608.0,7253.0,3931.0,0.301,0.257,-0.457,-0.797
836252,-1382.0,7309.0,3821.0,0.301,0.257,-0.457,-0.796
836264,-1014.0,7365.0,3747.0,0.302,0.257,-0.457,-0.796
836286,-1050.0,7363.0,3725.0,0.302,0.257,-0.457,-0.796
836298,-1246.0,7387.0,3621.0,0.302,0.258,-0.457,-0.796
836320,-1498.0,7201.0,3793.0,0.302,0.258,-0.457,-0.796
836332,-1474.0,7209.0,3905.0,0.302,0.258,-0.457,-0.796
836354,-1220.0,7301.0,3903.0,0.303,0.258,-0.457,-0.796
836366,-988.0,7205.0,3817.0,0.302,0.258,-0.457,-0.796
836388,-1314.0,7241.0,3821.0,0.302,0.258,-0.457,-0.796
836400,-1336.0,7003.0,3753.0,0.302,0.257,-0.457,-0.796
836422,-1046.0,7257.0,3861.0,0.302,0.257,-0.457,-0.796
836444,-1012.0,7221.0,3853.0,0.301,0.256,-0.458,-0.796
836456,-1272.0,7463.0,3727.0,0.299,0.255,-0.459,-0.797
836478,-1608.0,7285.0,3557.0,0.298,0.255,-0.459,-0.797
836490,-1524.0,7413.0,3689.0,0.299,0.255,-0.459,-0.797
836512,-1182.0,7221.0,3981.0,0.3,0.255,-0.459,-0.797
836524,-1028.0,7251.0,4001.0,0.3,0.255,-0.459,-0.797
836546,-1176.0,7141.0,3779.0,0.299,0.256,-0.459,-0.797
836558,-1390.0,7199.0,3701.0,0.299,0.256,-0.459,-0.797
836580,-1428.0,7231.0,3699.0,0.3,0.256,-0.459,-0.796
836592,-1182.0,7383.0,3641.0,0.3,0.256,-0.459,-0.796
836614,-1032.0,7377.0,3891.0,0.3,0.256,-0.459,-0.796
836636,-1240.0,7339.0,3923.0,0.3,0.257,-0.459,-0.796
836648,-1378.0,7225.0,3821.0,0.3,0.257,-0.459,-0.796
836670,-1252.0,7193.0,3689.0,0.301,0.257,-0.459,-0.795
836682,-1194.0,7161.0,3755.0,0.301,0.258,-0.459,-0.795
836704,-1150.0,7261.0,3909.0,0.301,0.258,-0.459,-0.795
836716,-1268.0,7247.0,3913.0,0.301,0.258,-0.459,-0.795
836738,-1336.0,7313.0,3885.0,0.3,0.258,-0.459,-0.795
836750,-1334.0,7437.0,3579.0,0.3,0.258,-0.46,-0.795
836772,-1102.0,7401.0,3553.0,0.3,0.257,-0.46,-0.795
836784,-968.0,7313.0,3823.0,0.299,0.257,-0.46,-0.796
836806,-1328.0,7137.0,3957.0,0.298,0.256,-0.46,-0.796
836828,-1582.0,7115.0,3889.0,0.298,0.257,-0.46,-0.796
836840,-1582.0,7113.0,3885.0,0.298,0.257,-0.459,-0.796
836862,-1312.0,7333.0,3897.0,0.299,0.257,-0.459,-0.796
836874,-1254.0,7327.0,3711.0,0.3,0.257,-0.459,-0.796
836896,-1130.0,7455.0,3771.0,0.3,0.258,-0.459,-0.795
836908,-1058.0,7317.0,3895.0,0.301,0.258,-0.459,-0.795
836930,-1018.0,7189.0,3755.0,0.301,0.258,-0.459,-0.795
836942,-1218.0,7187.0,3675.0,0.3,0.258,-0.459,-0.795
836964,-1514.0,7109.0,3785.0,0.3,0.258,-0.458,-0.796
836976,-1538.0,7293.0,3939.0,0.3,0.258,-0.458,-0.796
836998,-1342.0,7411.0,3879.0,0.3,0.258,-0.458,-0.796
837020,-1162.0,7349.0,3811.0,0.301,0.258,-0.458,-0.796
837032,-1130.0,7235.0,3899.0,0.301,0.258,-0.458,-0.796
837054,-1304.0,7195.0,3897.0,0.301,0.259,-0.458,-0.795
837066,-1246.0,7187.0,3643.0,0.301,0.259,-0.458,-0.795
837088,-1242.0,7099.0,3789.0,0.301,0.259,-0.458,-0.795
837100,-1294.0,7217.0,4045.0,0.302,0.26,-0.458,-0.795
837122,-1298.0,7233.0,3899.0,0.302,0.26,-0.458,-0.795
837134,-1320.0,7385.0,3699.0,0.302,0.26,-0.458,-0.795
837156,-1332.0,7331.0,3845.0,0.303,0.261,-0.457,-0.794
837168,-1218.0,7245.0,3685.0,0.303,0.261,-0.457,-0.794
837190,-1130.0,7251.0,3835.0,0.304,0.262,-0.457,-0.794
837212,-1114.0,7131.0,3955.0,0.304,0.262,-0.457,-0.794
837224,-1232.0,7207.0,3855.0,0.304,0.262,-0.457,-0.794
837246,-1526.0,7225.0,3763.0,0.303,0.262,-0.457,-0.794
837258,-1388.0,7279.0,3615.0,0.304,0.263,-0.457,-0.794
837280,-1108.0,7413.0,3791.0,0.304,0.263,-0.457,-0.793
837292,-1048.0,7301.0,3941.0,0.304,0.263,-0.457,-0.793
837314,-1298.0,7277.0,3907.0,0.304,0.263,-0.457,-0.793
837326,-1462.0,7239.0,3665.0,0.304,0.264,-0.457,-0.793
837348,-1250.0,7219.0,3697.0,0.305,0.264,-0.457,-0.793
837360,-1174.0,7281.0,3919.0,0.305,0.264,-0.457,-0.793
837382,-1184.0,7295.0,3815.0,0.304,0.264,-0.457,-0.793
837404,-1410.0,7261.0,3529.0,0.304,0.264,-0.458,-0.793
837416,-1452.0,7299.0,3673.0,0.304,0.264,-0.457,-0.793
837438,-1234.0,7303.0,4067.0,0.305,0.264,-0.457,-0.793
837450,-1122.0,7277.0,3975.0,0.305,0.264,-0.457,-0.793
837472,-1398.0,7207.0,3719.0,0.304,0.264,-0.457,-0.793
837484,-1506.0,7179.0,3727.0,0.304,0.264,-0.457,-0.793
837506,-1394.0,7157.0,3889.0,0.305,0.265,-0.456,-0.793
837518,-1022.0,7401.0,3919.0,0.305,0.265,-0.457,-0.793
837540,-1116.0,7327.0,3697.0,0.305,0.265,-0.457,-0.793
837552,-1278.0,7289.0,3747.0,0.305,0.265,-0.457,-0.793
837574,-1512.0,7277.0,3849.0,0.305,0.265,-0.457,-0.793
837596,-1288.0,7255.0,3913.0,0.305,0.265,-0.457,-0.793
837608,-1086.0,7221.0,3837.0,0.305,0.265,-0.457,-0.792
837630,-1194.0,7281.0,3849.0,0.305,0.265,-0.457,-0.792
837642,-1312.0,7245.0,3845.0,0.305,0.265,-0.457,-0.792
837664,-1310.0,7299.0,3765.0,0.305,0.265,-0.457,-0.792
837676,-1202.0,7255.0,3789.0,0.306,0.265,-0.457,-0.792
837698,-1310.0,7271.0,3827.0,0.306,0.265,-0.457,-0.792
837710,-1414.0,7329.0,3797.0,0.306,0.265,-0.456,-0.792
837732,-1266.0,7191.0,3911.0,0.307,0.265,-0.456,-0.792
837744,-1038.0,7269.0,3953.0,0.307,0.265,-0.456,-0.792
837766,-1104.0,7219.0,3747.0,0.306,0.265,-0.457,-0.792
837788,-1482.0,7197.0,3701.0,0.306,0.265,-0.457,-0.792
837800,-1438.0,7271.0,3733.0,0.306,0.265,-0.457,-0.792
837822,-1136.0,7349.0,3917.0,0.306,0.265,-0.457,-0.792
837834,-1068.0,7293.0,3865.0,0.306,0.265,-0.457,-0.792
837856,-1298.0,7247.0,3823.0,0.306,0.265,-0.457,-0.792
837868,-1472.0,7173.0,3715.0,0.306,0.265,-0.457,-0.792
837890,-1278.0,7249.0,3949.0,0.306,0.265,-0.457,-0.792
837902,-1102.0,7279.0,3921.0,0.306,0.265,-0.457,-0.792
837924,-1204.0,7297.0,3859.0,0.306,0.265,-0.457,-0.792
837936,-1374.0,7347.0,3685.0,0.305,0.265,-0.457,-0.792
837958,-1408.0,7229.0,3669.0,0.306,0.265,-0.457,-0.792
837975,-1212.0,7269.0,3917.0,0.306,0.265,-0.457,-0.792
837997,-1186.0,7253.0,4015.0,0.306,0.265,-0.457,-0.792
838009,-1250.0,7293.0,3931.0,0.306,0.265,-0.457,-0.792
838031,-1422.0,7253.0,3653.0,0.306,0.266,-0.458,-0.792
838043,-1282.0,7197.0,3567.0,0.306,0.266,-0.458,-0.791
838065,-1226.0,7343.0,3859.0,0.307,0.266,-0.457,-0.791
838077,-1160.0,7329.0,3955.0,0.307,0.266,-0.457,-0.791
838099,-1112.0,7229.0,3899.0,0.307,0.266,-0.457,-0.791
838111,-1296.0,7243.0,3739.0,0.307,0.267,-0.457,-0.791
838133,-1346.0,7191.0,3673.0,0.307,0.267,-0.457,-0.791
838155,-1210.0,7281.0,3823.0,0.308,0.267,-0.457,-0.791
838167,-1226.0,7255.0,3997.0,0.307,0.266,-0.457,-0.791
838189,-1378.0,7343.0,3883.0,0.307,0.266,-0.457,-0.791
838201,-1262.0,7293.0,3761.0,0.308,0.266,-0.457,-0.791
838223,-976.0,7295.0,3781.0,0.308,0.266,-0.457,-0.791
838235,-1106.0,7219.0,3943.0,0.308,0.266,-0.457,-0.791
838257,-1434.0,7193.0,3929.0,0.307,0.266,-0.457,-0.791
838269,-1374.0,7217.0,3775.0,0.307,0.266,-0.458,-0.791
838291,-1192.0,7333.0,3699.0,0.308,0.266,-0.458,-0.791
838303,-988.0,7363.0,3887.0,0.308,0.266,-0.458,-0.791
838325,-1194.0,7301.0,3929.0,0.307,0.266,-0.458,-0.791
838347,-1426.0,7271.0,3771.0,0.307,0.266,-0.458,-0.791
838359,-1344.0,7237.0,3825.0,0.307,0.266,-0.458,-0.791
838381,-970.0,7229.0,3791.0,0.308,0.266,-0.458,-0.791
838393,-1130.0,7137.0,3999.0,0.307,0.266,-0.457,-0.791
838415,-1396.0,7163.0,3977.0,0.307,0.266,-0.458,-0.791
838427,-1472.0,7189.0,3859.0,0.307,0.266,-0.458,-0.791
838449,-1140.0,7339.0,3819.0,0.307,0.265,-0.458,-0.791
838461,-850.0,7333.0,3781.0,0.308,0.265,-0.458,-0.791
838483,-1120.0,7377.0,3875.0,0.307,0.265,-0.458,-0.791
838495,-1300.0,7219.0,3795.0,0.307,0.266,-0.458,-0.791
838517,-1598.0,7219.0,3809.0,0.307,0.266,-0.458,-0.791
838539,-1260.0,7101.0,3927.0,0.307,0.266,-0.458,-0.791
838551,-1000.0,7217.0,3925.0,0.308,0.266,-0.458,-0.791
838573,-1052.0,7291.0,3875.0,0.308,0.266,-0.458,-0.791
838585,-1358.0,7217.0,3825.0,0.307,0.266,-0.458,-0.791
838607,-1430.0,7303.0,3735.0,0.308,0.266,-0.458,-0.79
838619,-1080.0,7317.0,3773.0,0.308,0.267,-0.458,-0.79
838641,-1008.0,7361.0,3861.0,0.309,0.267,-0.457,-0.79
838653,-1276.0,7213.0,3927.0,0.308,0.267,-0.457,-0.79
838675,-1504.0,7143.0,3803.0,0.308,0.267,-0.457,-0.79
838687,-1380.0,7147.0,3839.0,0.309,0.267,-0.457,-0.79
838709,-1038.0,7289.0,3869.0,0.309,0.267,-0.457,-0.79
838731,-942.0,7365.0,3813.0,0.309,0.267,-0.457,-0.79
838743,-1298.0,7323.0,3775.0,0.309,0.268,-0.457,-0.79
838765,-1422.0,7247.0,3815.0,0.309,0.268,-0.457,-0.79
838777,-1310.0,7205.0,3975.0,0.31,0.268,-0.457,-0.79
838799,-1072.0,7173.0,3909.0,0.31,0.268,-0.457,-0.789
838811,-1006.0,7195.0,3767.0,0.31,0.268,-0.457,-0.789
838833,-1242.0,7215.0,3801.0,0.309,0.268,-0.457,-0.79
838845,-1502.0,7299.0,3957.0,0.309,0.268,-0.457,-0.79
838867,-1234.0,7327.0,3843.0,0.31,0.268,-0.457,-0.789
838879,-958.0,7333.0,3817.0,0.31,0.268,-0.457,-0.789
838901,-1188.0,7287.0,3815.0,0.31,0.268,-0.457,-0.789
838923,-1468.0,7225.0,3831.0,0.31,0.269,-0.457,-0.789
838935,-1294.0,7231.0,3867.0,0.31,0.269,-0.457,-0.789
838957,-1116.0,7237.0,3973.0,0.31,0.269,-0.457,-0.789
838969,-1142.0,7323.0,3831.0,0.31,0.269,-0.457,-0.789
838991,-1256.0,7221.0,3673.0,0.31,0.269,-0.457,-0.789
839003,-1242.0,7303.0,3807.0,0.31,0.269,-0.457,-0.789
839025,-1140.0,7317.0,4027.0,0.31,0.269,-0.457,-0.789
839037,-1154.0,7291.0,3983.0,0.31,0.269,-0.457,-0.789
839059,-1240.0,7181.0,3801.0,0.31,0.269,-0.457,-0.789
839071,-1234.0,7297.0,3697.0,0.31,0.269,-0.457,-0.789
839093,-1202.0,7231.0,3783.0,0.31,0.269,-0.457,-0.789
839115,-1192.0,7265.0,4011.0,0.31,0.269,-0.457,-0.789
839127,-1268.0,7243.0,3935.0,0.31,0.269,-0.457,-0.789
839149,-1246.0,7305.0,3701.0,0.31,0.269,-0.457,-0.789
839161,-1200.0,7299.0,3733.0,0.31,0.269,-0.457,-0.789
839183,-1148.0,7203.0,3951.0,0.31,0.269,-0.457,-0.789
839195,-1172.0,7205.0,3999.0,0.31,0.269,-0.457,-0.789
839217,-1248.0,7259.0,3765.0,0.31,0.269,-0.457,-0.789
839229,-1214.0,7275.0,3733.0,0.31,0.269,-0.457,-0.789
839251,-1146.0,7319.0,3811.0,0.31,0.269,-0.457,-0.789
839263,-1296.0,7287.0,3915.0,0.31,0.269,-0.457,-0.789
839285,-1254.0,7185.0,3793.0,0.31,0.269,-0.457,-0.789
839307,-1194.0,7247.0,3979.0,0.31,0.269,-0.457,-0.789
839319,-1176.0,7195.0,3977.0,0.31,0.269,-0.457,-0.789
839341,-1138.0,7307.0,3725.0,0.31,0.269,-0.458,-0.789
839353,-1198.0,7133.0,3605.0,0.31,0.269,-0.457,-0.789
839375,-1164.0,7359.0,3931.0,0.311,0.269,-0.457,-0.789
839387,-1182.0,7313.0,3951.0,0.311,0.269,-0.457,-0.789
839409,-1218.0,7261.0,3873.0,0.311,0.269,-0.457,-0.789
839421,-1274.0,7209.0,3955.0,0.31,0.269,-0.457,-0.789
839443,-1204.0,7209.0,3889.0,0.31,0.269,-0.457,-0.789
839455,-1234.0,7173.0,3777.0,0.31,0.269,-0.458,-0.789
839477,-1038.0,7185.0,3833.0,0.311,0.269,-0.457,-0.789
839499,-1056.0,7285.0,3945.0,0.311,0.269,-0.457,-0.789
839511,-1280.0,7379.0,3959.0,0.31,0.269,-0.457,-0.789
839533,-1376.0,7251.0,3839.0,0.31,0.269,-0.458,-0.789
839545,-1230.0,7233.0,3679.0,0.31,0.269,-0.458,-0.788
839567,-1138.0,7163.0,3827.0,0.311,0.269,-0.457,-0.788
839579,-1064.0,7217.0,3965.0,0.311,0.269,-0.457,-0.788
839601,-1102.0,7187.0,4031.0,0.311,0.269,-0.457,-0.788
839613,-1228.0,7335.0,3921.0,0.311,0.269,-0.458,-0.788
839635,-1280.0,7279.0,3765.0,0.311,0.269,-0.458,-0.788
839647,-1076.0,7291.0,3755.0,0.311,0.269,-0.458,-0.788
839669,-1116.0,7355.0,3885.0,0.311,0.269,-0.458,-0.788
839691,-1218.0,7241.0,3869.0,0.311,0.27,-0.458,-0.788
839703,-1354.0,7191.0,3867.0,0.311,0.27,-0.458,-0.788
839725,-1312.0,7233.0,3797.0,0.311,0.27,-0.458,-0.788
839737,-1130.0,7241.0,3909.0,0.311,0.27,-0.458,-0.788
839759,-1016.0,7205.0,3837.0,0.311,0.27,-0.458,-0.788
839771,-1204.0,7363.0,3813.0,0.311,0.27,-0.458,-0.788
839793,-1282.0,7247.0,3861.0,0.311,0.27,-0.458,-0.788
839805,-1258.0,7303.0,3797.0,0.311,0.27,-0.458,-0.788
839827,-1178.0,7221.0,3841.0,0.311,0.27,-0.458,-0.788
839839,-1214.0,7145.0,3937.0,0.312,0.27,-0.457,-0.788
839861,-1240.0,7243.0,3905.0,0.312,0.271,-0.458,-0.787
839883,-1132.0,7163.0,3765.0,0.312,0.271,-0.458,-0.787
839895,-1114.0,7287.0,3771.0,0.312,0.271,-0.458,-0.787
839917,-1204.0,7283.0,3915.0,0.312,0.271,-0.458,-0.787
839929,-1264.0,7195.0,3945.0,0.312,0.271,-0.457,-0.788
839951,-1266.0,7215.0,3865.0,0.312,0.271,-0.457,-0.787
839963,-1168.0,7169.0,3791.0,0.312,0.271,-0.457,-0.787
839980,-1178.0,7159.0,3741.0,0.313,0.272,-0.457,-0.787
840002,-1262.0,7225.0,3807.0,0.313,0.272,-0.457,-0.787
840014,-1134.0,7321.0,3893.0,0.314,0.272,-0.457,-0.787
840036,-1148.0,7195.0,4079.0,0.314,0.272,-0.457,-0.787
840058,-1254.0,7277.0,3867.0,0.314,0.273,-0.457,-0.786
840070,-1214.0,7313.0,3603.0,0.314,0.273,-0.457,-0.786
840092,-1154.0,7229.0,3861.0,0.315,0.273,-0.456,-0.786
840104,-1178.0,7267.0,4143.0,0.315,0.273,-0.456,-0.786
840126,-1440.0,7169.0,3995.0,0.315,0.273,-0.456,-0.786
840138,-1190.0,7321.0,3673.0,0.315,0.273,-0.456,-0.786
840160,-1016.0,7295.0,3683.0,0.316,0.273,-0.456,-0.786
840172,-1148.0,7269.0,4009.0,0.316,0.274,-0.456,-0.786
840194,-1394.0,7187.0,3951.0,0.316,0.274,-0.456,-0.786
840206,-1274.0,7223.0,3785.0,0.316,0.274,-0.456,-0.786
840228,-902.0,7225.0,3955.0,0.316,0.273,-0.456,-0.786
840250,-1124.0,7243.0,3975.0,0.316,0.273,-0.456,-0.786
840262,-1448.0,7291.0,3815.0,0.315,0.273,-0.457,-0.786
840284,-1486.0,7197.0,3801.0,0.315,0.273,-0.457,-0.786
840296,-1148.0,7289.0,3837.0,0.316,0.272,-0.457,-0.786
840318,-1084.0,7299.0,3945.0,0.316,0.272,-0.457,-0.786
840330,-1150.0,7273.0,3915.0,0.316,0.272,-0.457,-0.786
840352,-1160.0,7267.0,3767.0,0.316,0.272,-0.457,-0.786
840364,-1122.0,7243.0,3843.0,0.317,0.271,-0.457,-0.785
840386,-1088.0,7157.0,3881.0,0.317,0.271,-0.457,-0.785
840398,-1276.0,7217.0,3919.0,0.317,0.272,-0.457,-0.785
840420,-1248.0,7309.0,3817.0,0.318,0.272,-0.457,-0.785
840442,-1048.0,7279.0,3897.0,0.319,0.272,-0.457,-0.784
840454,-848.0,7381.0,3891.0,0.32,0.272,-0.457,-0.784
840476,-886.0,7295.0,3701.0,0.32,0.273,-0.457,-0.784
840488,-1132.0,7271.0,3851.0,0.32,0.273,-0.456,-0.784
840510,-1210.0,7157.0,3909.0,0.319,0.272,-0.457,-0.785
840522,-1142.0,7237.0,3917.0,0.319,0.271,-0.457,-0.785
840544,-1106.0,7271.0,4051.0,0.318,0.27,-0.457,-0.785
840556,-1214.0,7361.0,3843.0,0.318,0.269,-0.458,-0.786
840578,-1028.0,7291.0,3795.0,0.317,0.267,-0.459,-0.786
840590,-1046.0,7329.0,3701.0,0.315,0.263,-0.46,-0.787
840612,-1192.0,7097.0,3975.0,0.313,0.259,-0.461,-0.789
840634,-906.0,7335.0,3813.0,0.311,0.255,-0.463,-0.79
840646,-820.0,7241.0,3897.0,0.308,0.25,-0.465,-0.791
840668,-764.0,7289.0,4061.0,0.306,0.246,-0.466,-0.793
840680,-946.0,7257.0,4065.0,0.302,0.241,-0.468,-0.795
840702,-914.0,7125.0,3823.0,0.299,0.235,-0.47,-0.796
840714,-856.0,7449.0,3923.0,0.296,0.229,-0.472,-0.798
840736,-506.0,7351.0,3965.0,0.293,0.222,-0.475,-0.8
840748,-310.0,7229.0,4093.0,0.289,0.215,-0.477,-0.802
840770,-252.0,7217.0,4171.0,0.284,0.207,-0.48,-0.804
840782,-246.0,7219.0,4243.0,0.278,0.199,-0.483,-0.806
840804,-210.0,7223.0,3879.0,0.271,0.19,-0.487,-0.808
840826,-184.0,7523.0,3319.0,0.263,0.177,-0.492,-0.811
840838,230.0,7417.0,3755.0,0.253,0.162,-0.496,-0.815
840860,596.0,7345.0,4031.0,0.241,0.145,-0.501,-0.819
840872,358.0,6855.0,4081.0,0.229,0.132,-0.504,-0.822
840894,-650.0,7013.0,5091.0,0.218,0.122,-0.507,-0.825
840906,-1188.0,7067.0,4337.0,0.211,0.113,-0.511,-0.826
840928,-846.0,7187.0,3997.0,0.209,0.106,-0.514,-0.825
840940,344.0,7041.0,3617.0,0.208,0.097,-0.517,-0.825
840962,906.0,7155.0,3957.0,0.207,0.088,-0.521,-0.824
840974,1530.0,7465.0,3339.0,0.202,0.073,-0.527,-0.823
840996,1766.0,7409.0,3219.0,0.192,0.052,-0.534,-0.822
841018,1916.0,7523.0,3641.0,0.18,0.033,-0.54,-0.822
841030,1962.0,7247.0,3719.0,0.17,0.019,-0.544,-0.822
841052,1526.0,7351.0,3505.0,0.161,0.008,-0.547,-0.822
841064,1288.0,7343.0,3123.0,0.152,-0.003,-0.549,-0.822
841086,1580.0,7325.0,3051.0,0.143,-0.017,-0.552,-0.822
841098,2054.0,7345.0,3231.0,0.13,-0.036,-0.555,-0.821
841120,2450.0,7441.0,3403.0,0.112,-0.062,-0.559,-0.819
841132,2156.0,7339.0,4561.0,0.096,-0.083,-0.562,-0.818
841154,2116.0,7367.0,3973.0,0.084,-0.099,-0.565,-0.815
841166,2028.0,7447.0,3187.0,0.072,-0.115,-0.57,-0.811
841188,2266.0,7243.0,2423.0,0.059,-0.133,-0.574,-0.806
841210,2686.0,7457.0,2137.0,0.046,-0.153,-0.579,-0.8
841222,3064.0,7285.0,2149.0,0.03,-0.175,-0.581,-0.794
841244,3264.0,7515.0,2659.0,0.016,-0.194,-0.583,-0.789
841256,2964.0,7573.0,2677.0,0.007,-0.204,-0.584,-0.785
841290,2322.0,7461.0,1923.0,0.004,0.217,0.587,0.78
841312,2658.0,7429.0,1501.0,0.006,0.223,0.589,0.777
841324,3068.0,7327.0,1677.0,0.01,0.231,0.589,0.774
841346,3392.0,7517.0,1763.0,0.012,0.237,0.589,0.772
841358,3494.0,7619.0,1567.0,0.014,0.242,0.59,0.77
841380,3388.0,7607.0,1551.0,0.016,0.245,0.59,0.769
841402,3214.0,7505.0,1283.0,0.018,0.247,0.591,0.768
841414,3084.0,7435.0,1575.0,0.019,0.249,0.591,0.767
841436,2998.0,7453.0,1749.0,0.018,0.248,0.591,0.768
841448,3108.0,7433.0,1737.0,0.017,0.248,0.591,0.768
841470,3296.0,7439.0,1423.0,0.016,0.249,0.591,0.767
841482,3470.0,7499.0,1441.0,0.016,0.249,0.591,0.767
841504,3448.0,7549.0,1563.0,0.016,0.249,0.591,0.767
841516,3212.0,7493.0,1559.0,0.016,0.249,0.591,0.767
841538,3052.0,7425.0,1475.0,0.017,0.249,0.591,0.767
841550,3116.0,7477.0,1477.0,0.017,0.248,0.591,0.768
841572,3218.0,7435.0,1553.0,0.017,0.249,0.59,0.768
841594,3236.0,7369.0,1739.0,0.017,0.248,0.59,0.768
841606,3202.0,7513.0,1811.0,0.016,0.248,0.59,0.768
841628,3296.0,7507.0,1523.0,0.016,0.248,0.59,0.768
841640,3282.0,7509.0,1361.0,0.016,0.248,0.591,0.768
841662,3292.0,7491.0,1501.0,0.017,0.248,0.591,0.768
841674,3114.0,7511.0,1461.0,0.018,0.249,0.591,0.767
841696,2946.0,7415.0,1613.0,0.018,0.249,0.591,0.767
841708,3060.0,7465.0,1521.0,0.017,0.248,0.59,0.768
841730,3322.0,7517.0,1555.0,0.017,0.248,0.59,0.768
841742,3266.0,7405.0,1669.0,0.018,0.248,0.59,0.768
841764,3182.0,7525.0,1769.0,0.017,0.248,0.59,0.768
841786,2980.0,7437.0,1589.0,0.017,0.247,0.59,0.768
841798,3112.0,7475.0,1465.0,0.016,0.247,0.59,0.769
841820,3302.0,7485.0,1617.0,0.016,0.247,0.59,0.769
841832,3248.0,7451.0,1631.0,0.016,0.246,0.59,0.769
841854,3068.0,7457.0,1681.0,0.016,0.246,0.59,0.769
841866,3064.0,7485.0,1629.0,0.016,0.246,0.59,0.769
841888,3164.0,7445.0,1603.0,0.016,0.246,0.59,0.769
841900,3252.0,7461.0,1601.0,0.016,0.246,0.59,0.769
841922,3186.0,7475.0,1627.0,0.016,0.246,0.59,0.769
841934,3094.0,7473.0,1615.0,0.016,0.246,0.59,0.769
841956,3070.0,7481.0,1651.0,0.016,0.246,0.59,0.769
841983,3176.0,7531.0,1547.0,0.015,0.245,0.59,0.769
841995,3212.0,7451.0,1581.0,0.015,0.245,0.59,0.769
842007,3154.0,7519.0,1639.0,0.014,0.245,0.59,0.77
842029,3192.0,7419.0,1591.0,0.014,0.245,0.59,0.77
842041,3174.0,7459.0,1765.0,0.015,0.245,0.59,0.77
842063,3028.0,7425.0,1719.0,0.014,0.244,0.59,0.77
842075,3090.0,7505.0,1617.0,0.014,0.244,0.59,0.77
842097,3222.0,7555.0,1569.0,0.014,0.244,0.59,0.769
842109,3298.0,7523.0,1475.0,0.014,0.245,0.59,0.769
842131,3188.0,7423.0,1603.0,0.014,0.245,0.59,0.769
842143,2990.0,7387.0,1773.0,0.014,0.244,0.59,0.769
842165,2938.0,7367.0,1767.0,0.014,0.244,0.59,0.77
842187,3232.0,7399.0,1625.0,0.013,0.244,0.59,0.769
842199,3340.0,7591.0,1539.0,0.013,0.244,0.59,0.769
842221,3202.0,7557.0,1571.0,0.012,0.244,0.59,0.769
842233,3084.0,7517.0,1543.0,0.012,0.244,0.59,0.769
842255,3126.0,7555.0,1485.0,0.013,0.245,0.59,0.769
842267,3242.0,7347.0,1727.0,0.013,0.245,0.59,0.769
842289,3100.0,7483.0,1643.0,0.013,0.245,0.59,0.769
842301,3174.0,7489.0,1693.0,0.013,0.245,0.59,0.769
842323,3166.0,7511.0,1553.0,0.012,0.245,0.59,0.769
842335,3260.0,7475.0,1647.0,0.012,0.245,0.59,0.769
842357,3230.0,7513.0,1701.0,0.012,0.245,0.59,0.769
842379,3120.0,7495.0,1647.0,0.012,0.245,0.59,0.769
842391,3142.0,7483.0,1535.0,0.012,0.245,0.59,0.769
842413,3266.0,7507.0,1655.0,0.012,0.245,0.59,0.769
842425,3252.0,7457.0,1705.0,0.012,0.245,0.59,0.769
842447,3140.0,7497.0,1661.0,0.013,0.245,0.59,0.769
842459,3130.0,7427.0,1695.0,0.013,0.246,0.59,0.769
842481,3218.0,7505.0,1697.0,0.013,0.246,0.59,0.769
842493,3220.0,7447.0,1821.0,0.013,0.245,0.59,0.769
842515,3006.0,7469.0,1645.0,0.012,0.244,0.591,0.769
842527,2938.0,7475.0,1497.0,0.011,0.243,0.591,0.769
842549,3218.0,7569.0,1611.0,0.01,0.243,0.591,0.769
842571,3366.0,7409.0,1759.0,0.01,0.242,0.591,0.77
842583,3282.0,7529.0,1755.0,0.009,0.242,0.591,0.77
842605,3034.0,7541.0,1485.0,0.009,0.241,0.591,0.769
842617,2918.0,7459.0,1343.0,0.009,0.241,0.592,0.769
842639,3104.0,7503.0,1633.0,0.009,0.241,0.591,0.769
842651,3302.0,7553.0,1871.0,0.008,0.242,0.591,0.77
842673,3324.0,7539.0,1693.0,0.008,0.242,0.591,0.769
842685,3112.0,7533.0,1409.0,0.009,0.242,0.592,0.769
842707,2994.0,7377.0,1427.0,0.009,0.242,0.592,0.769
842719,3216.0,7525.0,1717.0,0.009,0.242,0.591,0.769
842741,3254.0,7493.0,1903.0,0.009,0.242,0.591,0.769
842763,3174.0,7633.0,1719.0,0.009,0.242,0.591,0.769
842775,3158.0,7553.0,1325.0,0.009,0.243,0.591,0.769
842797,3220.0,7449.0,1525.0,0.009,0.243,0.591,0.769
842809,3114.0,7415.0,1925.0,0.01,0.243,0.591,0.769
842831,3004.0,7369.0,1957.0,0.009,0.243,0.591,0.769
842843,3108.0,7405.0,1547.0,0.009,0.243,0.591,0.769
842865,3232.0,7491.0,1547.0,0.008,0.242,0.591,0.769
842877,3252.0,7489.0,1667.0,0.008,0.242,0.591,0.769
842899,3086.0,7523.0,1655.0,0.008,0.242,0.592,0.769
842911,2942.0,7517.0,1629.0,0.008,0.241,0.592,0.769
842933,3174.0,7517.0,1691.0,0.007,0.241,0.592,0.769
842955,3336.0,7485.0,1657.0,0.006,0.241,0.592,0.769
842967,3238.0,7429.0,1597.0,0.006,0.241,0.592,0.769
842989,3094.0,7413.0,1599.0,0.006,0.241,0.592,0.769
843001,3186.0,7559.0,1497.0,0.006,0.241,0.592,0.769
843023,3286.0,7503.0,1649.0,0.006,0.241,0.592,0.769
843035,3068.0,7505.0,1847.0,0.006,0.241,0.592,0.769
843057,3000.0,7393.0,1845.0,0.006,0.241,0.592,0.769
843069,3150.0,7411.0,1701.0,0.005,0.24,0.592,0.769
843091,3208.0,7451.0,1619.0,0.005,0.24,0.592,0.769
843103,3132.0,7505.0,1541.0,0.005,0.24,0.592,0.769
843125,3184.0,7515.0,1505.0,0.005,0.241,0.592,0.769
843147,3302.0,7529.0,1607.0,0.005,0.241,0.592,0.769
843159,3112.0,7515.0,1771.0,0.005,0.241,0.592,0.769
843181,3010.0,7319.0,1827.0,0.005,0.241,0.592,0.769
843193,3116.0,7359.0,1585.0,0.005,0.241,0.592,0.769
843215,3240.0,7473.0,1519.0,0.005,0.241,0.592,0.769
843227,3224.0,7477.0,1737.0,0.005,0.241,0.592,0.769
843249,3090.0,7575.0,1699.0,0.005,0.241,0.592,0.769
843261,3142.0,7533.0,1497.0,0.005,0.241,0.592,0.769
843283,3134.0,7507.0,1355.0,0.005,0.241,0.592,0.769
843295,3194.0,7423.0,1621.0,0.005,0.241,0.592,0.769
843317,3084.0,7357.0,1907.0,0.005,0.241,0.592,0.769
843339,3116.0,7419.0,1649.0,0.005,0.242,0.592,0.769
843351,3308.0,7469.0,1517.0,0.005,0.242,0.592,0.769
843373,3122.0,7559.0,1745.0,0.005,0.242,0.592,0.769
843385,3004.0,7607.0,1799.0,0.005,0.242,0.592,0.769
843407,3050.0,7587.0,1617.0,0.005,0.241,0.592,0.769
843419,3250.0,7453.0,1475.0,0.004,0.241,0.592,0.769
843441,3308.0,7391.0,1575.0,0.004,0.242,0.592,0.769
843453,3224.0,7387.0,1711.0,0.005,0.242,0.592,0.769
843475,3082.0,7445.0,1753.0,0.005,0.242,0.592,0.769
843497,2976.0,7571.0,1645.0,0.005,0.242,0.592,0.769
843509,3128.0,7523.0,1575.0,0.005,0.243,0.592,0.769
843531,3322.0,7493.0,1699.0,0.005,0.243,0.592,0.769
843543,3310.0,7481.0,1667.0,0.005,0.243,0.591,0.769
843565,3084.0,7413.0,1721.0,0.005,0.243,0.592,0.769
843577,3024.0,7429.0,1567.0,0.005,0.243,0.592,0.769
843599,3224.0,7409.0,1595.0,0.005,0.243,0.592,0.769
843611,3180.0,7491.0,1593.0,0.005,0.243,0.592,0.769
843633,3100.0,7467.0,1711.0,0.005,0.243,0.591,0.769
843645,3002.0,7519.0,1697.0,0.005,0.243,0.592,0.769
843667,3204.0,7547.0,1635.0,0.005,0.243,0.591,0.769
843689,3318.0,7533.0,1551.0,0.005,0.243,0.591,0.769
843701,3146.0,7327.0,1591.0,0.005,0.243,0.591,0.769
843723,3040.0,7423.0,1619.0,0.005,0.244,0.591,0.769
843735,3020.0,7455.0,1805.0,0.005,0.244,0.591,0.769
843757,3348.0,7601.0,1741.0,0.004,0.244,0.591,0.769
843769,3382.0,7609.0,1643.0,0.004,0.244,0.591,0.769
843791,3086.0,7449.0,1159.0,0.004,0.244,0.592,0.768
843803,3036.0,7399.0,1181.0,0.004,0.245,0.591,0.769
843825,3300.0,7405.0,1661.0,0.005,0.246,0.59,0.769
843837,3348.0,7457.0,2167.0,0.005,0.246,0.589,0.77
843859,3230.0,7565.0,2081.0,0.005,0.246,0.589,0.769
843881,2990.0,7467.0,1701.0,0.005,0.246,0.59,0.769
843893,3270.0,7595.0,1413.0,0.005,0.246,0.59,0.769
843915,3404.0,7499.0,1495.0,0.005,0.247,0.59,0.769
843927,3390.0,7429.0,1919.0,0.006,0.247,0.59,0.769
843949,3180.0,7399.0,1977.0,0.006,0.246,0.59,0.769
843961,2962.0,7461.0,1703.0,0.007,0.246,0.591,0.768
843988,3018.0,7493.0,1549.0,0.007,0.245,0.591,0.768
844000,3038.0,7609.0,1569.0,0.007,0.245,0.592,0.768
844012,2884.0,7489.0,1651.0,0.006,0.245,0.592,0.768
844034,3218.0,7361.0,1479.0,0.006,0.245,0.592,0.768
844046,3364.0,7431.0,1631.0,0.005,0.244,0.592,0.768
844068,3078.0,7229.0,2041.0,0.005,0.243,0.592,0.768
844090,2750.0,7497.0,1883.0,0.005,0.243,0.593,0.768
844102,3158.0,7551.0,1597.0,0.003,0.242,0.593,0.768
844124,3420.0,7553.0,1347.0,0.002,0.242,0.594,0.767
844136,3326.0,7553.0,1449.0,0.002,0.242,0.594,0.767
844158,3160.0,7565.0,1497.0,0.002,0.242,0.594,0.767
844170,3224.0,7423.0,1457.0,0.003,0.242,0.594,0.767
844192,3244.0,7435.0,1593.0,0.003,0.242,0.595,0.767
844204,3112.0,7445.0,1703.0,0.004,0.242,0.595,0.766
844226,2884.0,7431.0,1505.0,0.004,0.242,0.595,0.766
844238,3028.0,7595.0,1383.0,0.003,0.242,0.596,0.766
844260,3242.0,7593.0,1497.0,0.003,0.242,0.595,0.766
844282,3264.0,7617.0,1695.0,0.003,0.242,0.595,0.766
844294,3128.0,7415.0,1797.0,0.003,0.241,0.595,0.766
844316,2960.0,7463.0,1639.0,0.003,0.241,0.596,0.766
844328,3036.0,7387.0,1401.0,0.003,0.241,0.596,0.766
844350,3124.0,7481.0,1435.0,0.003,0.241,0.596,0.766
844362,3210.0,7547.0,1739.0,0.003,0.241,0.595,0.766
844384,3110.0,7535.0,1829.0,0.003,0.241,0.596,0.766
844396,3044.0,7513.0,1583.0,0.003,0.241,0.596,0.766
844418,3070.0,7471.0,1495.0,0.003,0.241,0.596,0.766
844430,3116.0,7563.0,1477.0,0.002,0.241,0.596,0.766
844452,3134.0,7425.0,1631.0,0.002,0.241,0.595,0.767
844474,3144.0,7501.0,1461.0,0.002,0.241,0.595,0.767
844486,3222.0,7603.0,1625.0,0.002,0.241,0.595,0.766
844508,3206.0,7535.0,1577.0,0.003,0.242,0.595,0.766
844520,3106.0,7491.0,1473.0,0.003,0.242,0.595,0.766
844542,3074.0,7433.0,1495.0,0.003,0.243,0.595,0.766
844554,3170.0,7439.0,1807.0,0.003,0.242,0.595,0.767
844576,3070.0,7521.0,1839.0,0.003,0.242,0.594,0.767
844588,3238.0,7483.0,1659.0,0.002,0.242,0.595,0.767
844610,3200.0,7441.0,1439.0,0.002,0.242,0.595,0.767
844632,3150.0,7507.0,1485.0,0.002,0.242,0.595,0.767
844644,3218.0,7477.0,1683.0,0.002,0.242,0.595,0.767
844666,2988.0,7539.0,1731.0,0.003,0.242,0.595,0.767
844678,2922.0,7527.0,1637.0,0.002,0.241,0.595,0.767
844700,3040.0,7535.0,1675.0,0.002,0.241,0.595,0.767
844712,3248.0,7507.0,1581.0,0.001,0.241,0.595,0.767
844734,3340.0,7503.0,1439.0,0.001,0.241,0.595,0.767
844746,3192.0,7493.0,1469.0,0.002,0.241,0.595,0.767
844768,2992.0,7489.0,1633.0,0.002,0.241,0.595,0.767
844780,2944.0,7523.0,1687.0,0.002,0.241,0.595,0.767
844802,3040.0,7465.0,1689.0,0.001,0.24,0.595,0.767
844814,3094.0,7561.0,1611.0,0.0,0.239,0.595,0.767
844836,3172.0,7475.0,1523.0,0.001,-0.239,-0.595,-0.768
844858,3220.0,7619.0,1471.0,0.002,-0.238,-0.594,-0.768
844870,3118.0,7499.0,1501.0,0.003,-0.237,-0.594,-0.769
844892,3104.0,7409.0,1645.0,0.004,-0.236,-0.593,-0.769
844904,3048.0,7371.0,1485.0,0.006,-0.235,-0.593,-0.77
844926,3106.0,7573.0,1689.0,0.007,-0.234,-0.592,-0.771
844938,3248.0,7425.0,1677.0,0.008,-0.234,-0.591,-0.772
844960,3346.0,7485.0,1829.0,0.009,-0.234,-0.591,-0.772
844972,3460.0,7437.0,1951.0,0.009,-0.235,-0.591,-0.772
844994,3278.0,7431.0,2005.0,0.008,-0.235,-0.591,-0.772
845006,2982.0,7467.0,1573.0,0.008,-0.234,-0.591,-0.772
845028,2820.0,7605.0,1299.0,0.009,-0.234,-0.591,-0.772
845050,3098.0,7505.0,1445.0,0.009,-0.234,-0.591,-0.772
845062,3330.0,7453.0,1883.0,0.009,-0.234,-0.59,-0.773
845084,3372.0,7347.0,2137.0,0.01,-0.234,-0.589,-0.773
845096,3178.0,7393.0,1989.0,0.01,-0.233,-0.589,-0.773
845118,2992.0,7329.0,1625.0,0.01,-0.233,-0.589,-0.773
845130,3032.0,7405.0,1743.0,0.009,-0.233,-0.589,-0.774
845152,3106.0,7423.0,2003.0,0.01,-0.234,-0.589,-0.774
845164,3370.0,7517.0,1905.0,0.01,-0.234,-0.589,-0.774
845186,3254.0,7537.0,1685.0,0.009,-0.234,-0.589,-0.773
845198,3096.0,7473.0,1665.0,0.009,-0.234,-0.589,-0.773
845220,2948.0,7437.0,1803.0,0.008,-0.234,-0.589,-0.774
845242,3008.0,7407.0,1747.0,0.008,-0.234,-0.589,-0.774
845254,3110.0,7355.0,1869.0,0.008,-0.235,-0.589,-0.774
845276,3378.0,7485.0,1875.0,0.008,-0.235,-0.589,-0.774
845288,3362.0,7411.0,1787.0,0.008,-0.235,-0.589,-0.773
845310,3214.0,7525.0,1589.0,0.008,-0.234,-0.589,-0.773
845322,2968.0,7479.0,1689.0,0.007,-0.234,-0.589,-0.773
845344,3010.0,7449.0,1919.0,0.008,-0.234,-0.589,-0.773
845356,3192.0,7471.0,1897.0,0.008,-0.233,-0.589,-0.774
845378,3100.0,7427.0,1697.0,0.009,-0.232,-0.59,-0.774
845390,3158.0,7521.0,1477.0,0.009,-0.232,-0.59,-0.773
845412,3250.0,7481.0,1689.0,0.009,-0.233,-0.589,-0.774
845434,3118.0,7445.0,1975.0,0.008,-0.233,-0.589,-0.774
845446,2954.0,7505.0,1943.0,0.008,-0.232,-0.59,-0.774
845468,3010.0,7503.0,1611.0,0.008,-0.232,-0.59,-0.774
845480,3234.0,7355.0,1621.0,0.008,-0.232,-0.589,-0.774
845502,3282.0,7469.0,1875.0,0.008,-0.232,-0.589,-0.774
845514,3112.0,7451.0,1853.0,0.008,-0.232,-0.589,-0.774
845536,3080.0,7387.0,1769.0,0.007,-0.232,-0.589,-0.774
845548,3026.0,7441.0,1709.0,0.007,-0.232,-0.589,-0.774
845570,3088.0,7505.0,1777.0,0.007,-0.232,-0.589,-0.774
845582,3042.0,7369.0,1857.0,0.007,-0.232,-0.589,-0.774
845604,3134.0,7501.0,1811.0,0.007,-0.231,-0.589,-0.774
845626,3148.0,7467.0,1765.0,0.008,-0.231,-0.589,-0.774
845638,3096.0,7475.0,1585.0,0.008,-0.231,-0.589,-0.774
845660,3050.0,7407.0,1647.0,0.007,-0.231,-0.589,-0.774
845672,3066.0,7457.0,1865.0,0.007,-0.23,-0.589,-0.775
845694,3082.0,7447.0,2083.0,0.008,-0.23,-0.589,-0.775
845706,3056.0,7353.0,1987.0,0.008,-0.23,-0.589,-0.775
845728,3104.0,7501.0,1797.0,0.008,-0.23,-0.589,-0.775
845740,3262.0,7215.0,1617.0,0.008,-0.231,-0.589,-0.775
845762,3286.0,7515.0,1695.0,0.007,-0.231,-0.588,-0.775
845774,3058.0,7425.0,2151.0,0.006,-0.231,-0.588,-0.775
845796,2922.0,7561.0,2033.0,0.005,-0.231,-0.588,-0.775
845818,2822.0,7379.0,1819.0,0.005,-0.231,-0.589,-0.775
845830,3082.0,7513.0,1417.0,0.006,-0.231,-0.589,-0.775
845852,3316.0,7505.0,1745.0,0.006,-0.231,-0.588,-0.775
845864,3314.0,7535.0,1909.0,0.006,-0.231,-0.588,-0.775
845886,3138.0,7175.0,1923.0,0.005,-0.231,-0.588,-0.775
845898,2838.0,7221.0,1637.0,0.004,-0.231,-0.588,-0.775
845920,2896.0,7573.0,1537.0,0.004,-0.231,-0.585,-0.777
845932,4054.0,6175.0,2487.0,0.004,-0.232,-0.582,-0.78
845954,3516.0,7515.0,3249.0,0.002,-0.233,-0.578,-0.782
845966,3012.0,7807.0,2457.0,0.001,-0.233,-0.577,-0.783
846005,2562.0,6767.0,1501.0,0.001,0.235,0.58,0.78
846027,2248.0,7399.0,1487.0,0.001,-0.233,-0.581,-0.78
846039,2908.0,8339.0,437.0,0.002,-0.234,-0.582,-0.779
846061,3286.0,7475.0,851.0,0.003,-0.235,-0.581,-0.779
846073,3740.0,7481.0,1715.0,0.003,-0.235,-0.579,-0.78
846095,3752.0,7427.0,2337.0,0.002,-0.235,-0.578,-0.782
846107,3568.0,7671.0,3011.0,0.001,-0.234,-0.576,-0.783
846129,2958.0,7347.0,2627.0,0.0,0.233,0.576,0.783
846141,2646.0,7393.0,2431.0,0.001,0.232,0.577,0.783
846163,2710.0,7333.0,1937.0,0.0,0.233,0.577,0.783
846185,3202.0,7337.0,1583.0,0.0,0.234,0.577,0.782
846197,3354.0,7747.0,1343.0,0.001,0.235,0.577,0.782
846219,3422.0,7525.0,1721.0,0.003,0.238,0.576,0.782
846231,3516.0,7561.0,1959.0,0.006,0.241,0.575,0.782
846253,3482.0,7555.0,2217.0,0.011,0.245,0.574,0.781
846265,3172.0,7489.0,2229.0,0.015,0.247,0.575,0.78
846287,2994.0,7413.0,1941.0,0.018,0.249,0.576,0.779
846299,2662.0,7543.0,1955.0,0.02,0.249,0.577,0.778
846321,2732.0,7727.0,1611.0,0.022,0.25,0.577,0.777
846333,3216.0,7665.0,1621.0,0.023,0.253,0.577,0.777
846355,3464.0,7671.0,1711.0,0.026,0.256,0.576,0.776
846377,3512.0,7515.0,1789.0,0.03,0.26,0.575,0.775
846389,3524.0,7293.0,1745.0,0.036,0.265,0.574,0.774
846411,3326.0,7135.0,1799.0,0.043,0.27,0.573,0.773
846423,2966.0,6957.0,1881.0,0.051,0.275,0.572,0.772
846445,2580.0,7179.0,2129.0,0.057,0.279,0.571,0.77
846457,2470.0,7351.0,2115.0,0.061,0.282,0.57,0.769
846479,2550.0,7577.0,1951.0,0.063,0.285,0.57,0.768
846491,2976.0,7503.0,1999.0,0.063,0.286,0.569,0.768
846513,3136.0,7623.0,2109.0,0.062,0.284,0.569,0.769
846525,3186.0,7593.0,2037.0,0.06,0.283,0.57,0.769
846547,3178.0,7423.0,1695.0,0.058,0.281,0.571,0.769
846569,3136.0,7399.0,1423.0,0.057,0.281,0.572,0.769
846581,3140.0,7441.0,1363.0,0.057,0.281,0.572,0.769
846603,3084.0,7379.0,1519.0,0.058,0.282,0.572,0.768
846615,3106.0,7467.0,1587.0,0.059,0.283,0.572,0.768
846637,3240.0,7339.0,1757.0,0.06,0.284,0.572,0.768
846649,3192.0,7531.0,1865.0,0.06,0.285,0.572,0.767
846671,3228.0,7505.0,1563.0,0.06,0.285,0.572,0.767
846683,3144.0,7365.0,1311.0,0.06,0.285,0.573,0.766
846705,3062.0,7533.0,1495.0,0.059,0.284,0.573,0.767
846717,2914.0,7569.0,1745.0,0.057,0.282,0.573,0.767
846739,3022.0,7713.0,1441.0,0.056,0.281,0.574,0.767
846761,3064.0,7729.0,1369.0,0.055,0.28,0.574,0.767
846773,3112.0,7537.0,1679.0,0.054,0.279,0.574,0.768
846795,3004.0,7473.0,1781.0,0.054,0.279,0.574,0.768
846807,2954.0,7357.0,1839.0,0.054,0.279,0.574,0.768
846829,3148.0,7455.0,1891.0,0.053,0.279,0.573,0.768
846841,3412.0,7373.0,2005.0,0.052,0.28,0.573,0.769
846863,3618.0,7423.0,1895.0,0.051,0.28,0.574,0.768
846875,3362.0,7417.0,1325.0,0.05,0.279,0.576,0.767
846897,3080.0,7415.0,937.0,0.05,0.279,0.577,0.766
846909,3028.0,7469.0,793.0,0.05,0.279,0.578,0.765
846931,3098.0,7485.0,871.0,0.05,0.278,0.578,0.765
846953,3098.0,7583.0,1035.0,0.05,0.278,0.578,0.766
846965,3028.0,7529.0,1369.0,0.05,0.277,0.578,0.766
846987,2892.0,7647.0,1491.0,0.05,0.276,0.577,0.767
846999,2990.0,7591.0,1587.0,0.05,0.276,0.576,0.767
847021,2984.0,7363.0,1871.0,0.05,0.276,0.576,0.768
847033,3042.0,7433.0,2039.0,0.049,0.275,0.575,0.769
847055,3252.0,7471.0,2167.0,0.049,0.275,0.574,0.77
847067,3340.0,7353.0,2139.0,0.049,0.275,0.574,0.77
847089,3264.0,7441.0,2077.0,0.049,0.274,0.574,0.77
847101,3130.0,7475.0,1963.0,0.05,0.274,0.575,0.77
847123,2962.0,7551.0,1831.0,0.05,0.274,0.575,0.769
847145,2958.0,7465.0,1839.0,0.051,0.275,0.575,0.769
847157,2970.0,7371.0,1841.0,0.051,0.275,0.575,0.769
847179,2986.0,7491.0,1799.0,0.051,0.275,0.576,0.768
847191,3070.0,7555.0,1833.0,0.051,0.275,0.576,0.768
847213,3076.0,7431.0,1577.0,0.051,0.275,0.576,0.768
847225,3188.0,7573.0,1421.0,0.051,0.276,0.577,0.767
847247,3164.0,7543.0,1437.0,0.052,0.275,0.577,0.767
847259,3098.0,7559.0,1653.0,0.052,0.275,0.577,0.767
847281,2896.0,7569.0,1743.0,0.052,0.275,0.578,0.767
847293,3010.0,7569.0,1507.0,0.052,0.274,0.578,0.767
847315,3154.0,7603.0,1355.0,0.051,0.274,0.579,0.766
847337,3272.0,7449.0,1341.0,0.051,0.274,0.579,0.767
847349,3178.0,7651.0,1639.0,0.051,0.274,0.578,0.767
847371,3032.0,7457.0,1867.0,0.052,0.274,0.578,0.767
847383,2994.0,7617.0,1967.0,0.052,0.273,0.578,0.767
847405,3018.0,7525.0,1919.0,0.052,0.273,0.578,0.767
847417,3070.0,7573.0,1631.0,0.052,0.273,0.579,0.767
847439,2942.0,7497.0,1511.0,0.052,0.273,0.579,0.766
847451,2902.0,7505.0,1751.0,0.052,0.273,0.579,0.767
847473,2956.0,7501.0,1853.0,0.051,0.272,0.579,0.767
847485,3166.0,7505.0,1675.0,0.05,0.272,0.58,0.767
847507,3354.0,7603.0,1375.0,0.05,0.272,0.58,0.766
847529,3302.0,7577.0,1285.0,0.05,0.271,0.581,0.766
847541,2848.0,7603.0,1421.0,0.051,0.271,0.581,0.766
847563,2648.0,7659.0,1539.0,0.051,0.27,0.581,0.766
847575,2856.0,7717.0,1517.0,0.05,0.269,0.581,0.766
847597,3168.0,7477.0,1493.0,0.049,0.269,0.581,0.766
847609,3050.0,7445.0,1691.0,0.049,0.268,0.581,0.767
847631,2762.0,7561.0,1879.0,0.049,0.267,0.581,0.767
847643,2812.0,7529.0,2039.0,0.048,0.267,0.581,0.768
847665,3136.0,7567.0,1923.0,0.047,0.267,0.581,0.768
847677,3146.0,7597.0,1813.0,0.047,0.266,0.581,0.768
847699,3050.0,7605.0,1749.0,0.047,0.266,0.582,0.767
847721,2896.0,7431.0,1649.0,0.047,0.266,0.582,0.767
847733,2852.0,7475.0,1469.0,0.047,0.266,0.582,0.767
847755,2942.0,7477.0,1409.0,0.047,0.266,0.583,0.767
847767,3090.0,7631.0,1393.0,0.048,0.266,0.583,0.766
847789,3138.0,7573.0,1613.0,0.048,0.266,0.583,0.766
847801,2894.0,7681.0,1559.0,0.048,0.266,0.583,0.766
847823,2820.0,7667.0,1519.0,0.047,0.265,0.583,0.766
847835,2936.0,7493.0,1387.0,0.046,0.265,0.583,0.766
847857,3186.0,7505.0,1455.0,0.046,0.265,0.583,0.767
847869,3046.0,7469.0,1545.0,0.046,0.264,0.583,0.767
847891,2910.0,7443.0,1567.0,0.046,0.263,0.583,0.767
847913,2786.0,7529.0,1571.0,0.046,0.263,0.583,0.767
847925,2824.0,7415.0,1619.0,0.046,0.263,0.583,0.767
847947,2960.0,7513.0,1605.0,0.046,0.263,0.583,0.767
847959,3032.0,7621.0,1741.0,0.046,0.263,0.583,0.768
847981,2940.0,7593.0,1855.0,0.046,0.262,0.583,0.768
847998,2850.0,7627.0,1867.0,0.046,0.262,0.583,0.768
848010,2972.0,7459.0,1731.0,0.046,0.262,0.583,0.768
848032,3026.0,7639.0,1517.0,0.046,0.262,0.583,0.768
848044,3050.0,7599.0,1579.0,0.047,0.262,0.583,0.767
848066,2888.0,7653.0,1729.0,0.048,0.262,0.583,0.768
848088,2868.0,7541.0,1953.0,0.048,0.262,0.583,0.768
848100,2942.0,7517.0,1799.0,0.048,0.262,0.583,0.767
848122,2922.0,7545.0,1557.0,0.048,0.262,0.583,0.767
848134,2952.0,7531.0,1427.0,0.048,0.262,0.584,0.767
848156,2846.0,7645.0,1449.0,0.048,0.262,0.584,0.767
848168,2884.0,7661.0,1613.0,0.048,0.262,0.584,0.767
848190,2868.0,7623.0,1707.0,0.048,0.261,0.584,0.767
848202,2952.0,7657.0,1703.0,0.048,0.261,0.584,0.767
848224,2884.0,7543.0,1751.0,0.049,0.261,0.584,0.767
848236,2796.0,7579.0,1605.0,0.048,0.261,0.584,0.767
848258,2854.0,7379.0,1581.0,0.048,0.26,0.584,0.767
848280,2932.0,7509.0,1591.0,0.048,0.261,0.584,0.767
848292,3038.0,7615.0,1805.0,0.048,0.261,0.584,0.768
848314,2878.0,7683.0,1747.0,0.048,0.26,0.584,0.767
848326,2800.0,7621.0,1529.0,0.048,0.26,0.584,0.767
848348,2826.0,7613.0,1593.0,0.048,0.26,0.584,0.767
848360,2928.0,7379.0,1629.0,0.048,0.259,0.584,0.767
848382,2842.0,7615.0,1693.0,0.048,0.259,0.585,0.767
848394,2910.0,7465.0,1737.0,0.048,0.259,0.585,0.767
848416,2960.0,7695.0,1607.0,0.048,0.259,0.585,0.767
848428,2884.0,7659.0,1657.0,0.048,0.258,0.585,0.767
848450,2748.0,7793.0,1673.0,0.047,0.258,0.585,0.767
848472,2910.0,7625.0,1609.0,0.047,0.258,0.585,0.767
848484,3088.0,7543.0,1539.0,0.047,0.258,0.585,0.767
848506,2920.0,7517.0,1681.0,0.047,0.258,0.585,0.767
848518,2750.0,7473.0,1735.0,0.048,0.258,0.585,0.767
848540,2806.0,7511.0,1691.0,0.048,0.258,0.585,0.767
848552,2796.0,7631.0,1655.0,0.048,0.258,0.585,0.767
848574,2756.0,7759.0,1555.0,0.048,0.258,0.585,0.767
848586,2932.0,7697.0,1615.0,0.047,0.258,0.585,0.767
848608,3038.0,7525.0,1693.0,0.047,0.257,0.585,0.768
848620,2906.0,7511.0,1661.0,0.047,0.257,0.585,0.768
848642,2724.0,7551.0,1697.0,0.047,0.257,0.585,0.768
848664,2802.0,7697.0,1781.0,0.047,0.257,0.585,0.768
848676,3006.0,7695.0,1801.0,0.047,0.257,0.585,0.768
848698,3058.0,7791.0,1657.0,0.047,0.258,0.585,0.768
848710,2960.0,7753.0,1627.0,0.048,0.258,0.585,0.767
848732,2822.0,7525.0,1703.0,0.048,0.258,0.585,0.767
848744,2664.0,7251.0,1555.0,0.048,0.258,0.585,0.767
848766,2626.0,7415.0,1637.0,0.048,0.257,0.585,0.767
848778,2710.0,7569.0,1481.0,0.048,0.257,0.585,0.767
848800,2962.0,7721.0,1563.0,0.047,0.258,0.585,0.767
848812,3052.0,7803.0,1757.0,0.048,0.258,0.585,0.767
848834,2854.0,7807.0,1767.0,0.048,0.257,0.585,0.767
