timeMs,ax,ay,az,q0,q1,q2,q3
961918,-5948.0,5159.0,2407.0,0.098,-0.411,0.428,0.799
961940,-6076.0,5305.0,2389.0,0.098,-0.411,0.428,0.799
961962,-5828.0,5407.0,2491.0,0.096,-0.412,0.428,0.799
961974,-5930.0,5631.0,2585.0,0.093,-0.413,0.428,0.799
961996,-5384.0,5905.0,2755.0,0.087,-0.414,0.427,0.799
962008,-4910.0,6179.0,2837.0,0.081,-0.416,0.427,0.799
962030,-4666.0,6511.0,2813.0,0.073,-0.418,0.426,0.799
962042,-4538.0,6785.0,2365.0,0.063,-0.42,0.424,0.8
962064,-3772.0,7115.0,2681.0,0.049,-0.423,0.421,0.801
962076,-3060.0,6975.0,3069.0,0.028,-0.43,0.415,0.801
962098,-2184.0,6645.0,4589.0,0.003,-0.439,0.407,0.801
962110,-2194.0,5991.0,5653.0,0.022,0.448,-0.397,-0.801
962132,-3056.0,5589.0,6889.0,0.045,0.456,-0.388,-0.8
962154,-3418.0,5607.0,8037.0,0.067,0.462,-0.382,-0.798
962166,-3016.0,5709.0,8087.0,0.089,0.469,-0.379,-0.793
962188,-2560.0,6139.0,8193.0,0.111,0.475,-0.379,-0.786
962200,-2510.0,6379.0,8657.0,0.131,0.482,-0.382,-0.777
962222,-2118.0,6435.0,7889.0,0.149,0.491,-0.389,-0.765
962234,-2094.0,6327.0,5961.0,0.162,0.5,-0.398,-0.752
962256,-3214.0,5077.0,3197.0,0.17,0.509,-0.407,-0.739
962268,-6072.0,3707.0,543.0,0.174,0.514,-0.416,-0.73
962290,-8954.0,2873.0,-1025.0,0.181,0.511,-0.424,-0.725
962302,-9512.0,3813.0,-297.0,0.203,0.512,-0.429,-0.716
962324,-6374.0,6915.0,-2065.0,0.231,0.511,-0.437,-0.703
962346,-166.0,1829.0,5211.0,0.26,0.524,-0.445,-0.679
962358,-530.0,5257.0,3673.0,0.251,0.514,-0.462,-0.678
962380,-9854.0,4919.0,-1091.0,0.232,0.515,-0.483,-0.669
962392,-14316.0,5003.0,-6411.0,0.242,0.535,-0.503,-0.634
962414,-7476.0,6091.0,-12835.0,0.271,0.548,-0.521,-0.596
962426,-4006.0,6607.0,-12479.0,0.295,0.545,-0.532,-0.577
962448,-3810.0,6319.0,-5591.0,0.312,0.528,-0.543,-0.574
962460,-1116.0,7933.0,1785.0,0.332,0.525,-0.549,-0.56
962482,-2114.0,9635.0,-5425.0,0.353,0.537,-0.557,-0.526
962504,148.0,9083.0,-13627.0,0.37,0.54,-0.566,-0.501
962516,1598.0,7949.0,-10861.0,0.381,0.528,-0.57,-0.501
962538,38.0,7973.0,-3849.0,0.382,0.513,-0.572,-0.514
962550,-2972.0,6915.0,-1167.0,0.384,0.503,-0.575,-0.519
962572,-2902.0,6945.0,-2063.0,0.393,0.494,-0.58,-0.514
962584,1138.0,6567.0,271.0,0.399,0.482,-0.591,-0.509
962606,3814.0,7993.0,5.0,0.403,0.471,-0.601,-0.505
962618,4084.0,8475.0,759.0,0.404,0.465,-0.608,-0.501
962640,3400.0,9531.0,-2095.0,0.406,0.463,-0.613,-0.495
962652,2744.0,9903.0,-3453.0,0.401,0.461,-0.618,-0.494
962674,-658.0,8239.0,-3607.0,0.393,0.457,-0.623,-0.499
962696,-1818.0,8139.0,-2389.0,0.391,0.453,-0.626,-0.5
962708,850.0,8629.0,-1315.0,0.395,0.449,-0.629,-0.496
962730,2590.0,8509.0,-1147.0,0.398,0.448,-0.633,-0.49
962742,2520.0,8463.0,-1679.0,0.4,0.449,-0.635,-0.485
962764,1678.0,7501.0,-1201.0,0.401,0.449,-0.637,-0.482
962776,1722.0,7157.0,819.0,0.403,0.45,-0.638,-0.477
962798,1496.0,6817.0,1231.0,0.404,0.456,-0.641,-0.467
962810,-668.0,6067.0,-643.0,0.401,0.463,-0.646,-0.455
962832,-3386.0,5849.0,-1947.0,0.397,0.468,-0.655,-0.441
962844,-874.0,11201.0,-10475.0,0.409,0.473,-0.661,-0.414
962866,10410.0,12101.0,-11107.0,0.419,0.469,-0.665,-0.402
962878,6576.0,9405.0,-6495.0,0.414,0.469,-0.66,-0.416
962900,2500.0,9559.0,-2633.0,0.415,0.471,-0.652,-0.427
962927,2604.0,7207.0,-4457.0,0.417,0.47,-0.642,-0.438
962939,262.0,6501.0,1323.0,0.414,0.47,-0.633,-0.455
962951,-1284.0,6571.0,1901.0,0.414,0.473,-0.626,-0.461
962973,1738.0,7155.0,403.0,0.42,0.478,-0.62,-0.459
962985,2978.0,7821.0,-787.0,0.422,0.485,-0.613,-0.458
963007,1420.0,7637.0,-1085.0,0.422,0.492,-0.606,-0.46
963019,-964.0,6111.0,-467.0,0.418,0.498,-0.602,-0.464
963041,-3530.0,6667.0,-777.0,0.414,0.504,-0.599,-0.465
963053,-2508.0,6461.0,-2471.0,0.411,0.508,-0.599,-0.462
963075,-2594.0,6757.0,-2933.0,0.404,0.511,-0.602,-0.462
963087,-4292.0,6937.0,-4687.0,0.399,0.511,-0.606,-0.461
963109,-1316.0,7999.0,-5145.0,0.402,0.506,-0.61,-0.458
963131,76.0,8549.0,-4033.0,0.401,0.5,-0.614,-0.461
963143,-2508.0,6853.0,-2521.0,0.398,0.492,-0.618,-0.467
963165,-1260.0,7065.0,197.0,0.398,0.481,-0.625,-0.469
963177,1374.0,7593.0,-177.0,0.398,0.474,-0.632,-0.467
963199,1058.0,7141.0,-757.0,0.393,0.467,-0.64,-0.467
963211,-460.0,6867.0,-683.0,0.389,0.461,-0.649,-0.464
963233,752.0,6935.0,-835.0,0.387,0.454,-0.659,-0.459
963245,1272.0,7529.0,-1379.0,0.384,0.449,-0.669,-0.451
963267,932.0,11237.0,-5385.0,0.39,0.444,-0.678,-0.438
963289,11320.0,11659.0,-10003.0,0.406,0.435,-0.681,-0.427
963301,12384.0,10373.0,-3429.0,0.403,0.434,-0.674,-0.441
963323,930.0,9565.0,-729.0,0.406,0.436,-0.664,-0.452
963335,6276.0,8559.0,-1407.0,0.42,0.44,-0.651,-0.454
963357,5962.0,7927.0,-811.0,0.422,0.447,-0.638,-0.463
963369,-776.0,6449.0,165.0,0.42,0.455,-0.625,-0.475
963391,-2650.0,5925.0,373.0,0.423,0.46,-0.616,-0.479
963403,-1638.0,5811.0,119.0,0.427,0.463,-0.609,-0.482
963425,-1530.0,5455.0,1425.0,0.428,0.466,-0.606,-0.483
963437,-3282.0,6443.0,409.0,0.426,0.471,-0.606,-0.479
963459,-1732.0,8045.0,-3083.0,0.427,0.475,-0.608,-0.472
963471,362.0,8631.0,-3529.0,0.427,0.476,-0.61,-0.468
963493,1020.0,9181.0,-2887.0,0.43,0.477,-0.61,-0.465
963515,708.0,8125.0,-1373.0,0.43,0.478,-0.61,-0.464
963527,-1288.0,6661.0,195.0,0.429,0.479,-0.611,-0.461
963549,506.0,6871.0,919.0,0.43,0.482,-0.614,-0.453
963561,2396.0,7229.0,281.0,0.43,0.487,-0.618,-0.442
963583,-182.0,6555.0,-2223.0,0.424,0.495,-0.623,-0.433
963595,-2194.0,5193.0,-2181.0,0.417,0.499,-0.63,-0.426
963617,-1986.0,10005.0,-2567.0,0.409,0.502,-0.641,-0.412
963629,9336.0,10483.0,-13513.0,0.418,0.504,-0.646,-0.392
963651,6226.0,10047.0,-10123.0,0.412,0.505,-0.64,-0.406
963663,-726.0,12213.0,-4943.0,0.421,0.504,-0.63,-0.414
963685,5920.0,8595.0,-6719.0,0.428,0.504,-0.618,-0.425
963707,-582.0,8555.0,-2387.0,0.426,0.508,-0.604,-0.444
963719,-3226.0,7141.0,-4203.0,0.429,0.511,-0.59,-0.455
963741,-1746.0,6835.0,-4001.0,0.433,0.509,-0.578,-0.468
963753,-2370.0,5601.0,-1369.0,0.436,0.504,-0.567,-0.484
963775,-3758.0,5017.0,365.0,0.439,0.5,-0.557,-0.497
963787,-4018.0,4769.0,1731.0,0.444,0.497,-0.549,-0.505
963809,-3494.0,5191.0,1353.0,0.447,0.494,-0.545,-0.509
963821,-2246.0,6325.0,1711.0,0.449,0.489,-0.545,-0.512
963843,76.0,7475.0,-667.0,0.449,0.484,-0.547,-0.514
963865,1468.0,7771.0,-865.0,0.449,0.475,-0.55,-0.52
963877,2346.0,7477.0,1091.0,0.448,0.463,-0.552,-0.53
963899,2572.0,7867.0,2039.0,0.445,0.453,-0.553,-0.539
963911,1622.0,7681.0,1579.0,0.443,0.445,-0.553,-0.547
963933,2032.0,8493.0,485.0,0.444,0.439,-0.552,-0.552
963945,2624.0,8995.0,-357.0,0.447,0.434,-0.548,-0.559
963967,1854.0,10049.0,-541.0,0.45,0.43,-0.54,-0.566
963979,1536.0,11659.0,-1839.0,0.46,0.429,-0.528,-0.57
964001,4066.0,12849.0,323.0,0.475,0.426,-0.512,-0.575
964013,4118.0,9135.0,3385.0,0.479,0.426,-0.499,-0.583
964035,-1996.0,5141.0,3633.0,0.476,0.429,-0.487,-0.593
964047,-4616.0,3927.0,5799.0,0.476,0.43,-0.479,-0.599
964069,-2556.0,5389.0,4317.0,0.477,0.433,-0.478,-0.596
964091,-898.0,7607.0,1289.0,0.479,0.437,-0.479,-0.592
964103,438.0,9535.0,1189.0,0.48,0.44,-0.48,-0.588
964125,-158.0,9061.0,-905.0,0.479,0.443,-0.48,-0.586
964137,-2200.0,7793.0,749.0,0.479,0.442,-0.48,-0.588
964159,-1932.0,7613.0,2233.0,0.481,0.442,-0.48,-0.586
964171,398.0,7693.0,2051.0,0.485,0.442,-0.48,-0.582
964193,542.0,8037.0,2195.0,0.486,0.443,-0.482,-0.579
964205,1206.0,8739.0,685.0,0.486,0.445,-0.484,-0.576
964227,1750.0,8237.0,757.0,0.485,0.447,-0.484,-0.575
964239,-316.0,7583.0,2167.0,0.482,0.45,-0.484,-0.576
964261,-1186.0,7789.0,1603.0,0.48,0.454,-0.484,-0.574
964283,-1282.0,8451.0,25.0,0.478,0.458,-0.484,-0.572
964295,-1372.0,7999.0,447.0,0.477,0.459,-0.485,-0.571
964317,-1908.0,8115.0,93.0,0.477,0.461,-0.487,-0.568
964329,-444.0,8247.0,-367.0,0.479,0.46,-0.488,-0.566
964351,-108.0,8117.0,1201.0,0.479,0.458,-0.489,-0.567
964363,-116.0,8097.0,1771.0,0.481,0.457,-0.49,-0.565
964385,612.0,8101.0,1561.0,0.482,0.458,-0.491,-0.564
964397,38.0,8269.0,1565.0,0.482,0.458,-0.492,-0.562
964419,454.0,8337.0,1731.0,0.481,0.46,-0.493,-0.56
964431,-1300.0,8077.0,355.0,0.479,0.463,-0.494,-0.559
964453,-1010.0,8241.0,469.0,0.478,0.464,-0.496,-0.557
964475,-414.0,8353.0,277.0,0.477,0.464,-0.498,-0.556
964487,242.0,8493.0,123.0,0.477,0.465,-0.499,-0.555
964509,624.0,8359.0,215.0,0.477,0.465,-0.499,-0.554
964521,108.0,8171.0,771.0,0.476,0.466,-0.499,-0.555
964543,-932.0,7675.0,1407.0,0.474,0.467,-0.499,-0.555
964555,-720.0,7839.0,1511.0,0.474,0.468,-0.501,-0.553
964577,10.0,8167.0,665.0,0.472,0.47,-0.503,-0.551
964589,618.0,8337.0,467.0,0.47,0.472,-0.505,-0.549
964611,314.0,8447.0,-247.0,0.467,0.475,-0.507,-0.548
964623,-228.0,8379.0,-115.0,0.464,0.477,-0.507,-0.548
964645,-222.0,8377.0,-173.0,0.46,0.478,-0.508,-0.549
964667,-286.0,8387.0,-131.0,0.457,0.48,-0.508,-0.55
964679,-660.0,8209.0,-413.0,0.454,0.481,-0.508,-0.552
964701,-938.0,8115.0,201.0,0.452,0.481,-0.508,-0.554
964713,-840.0,8109.0,623.0,0.451,0.481,-0.507,-0.555
964735,-902.0,7943.0,509.0,0.449,0.482,-0.507,-0.556
964747,-522.0,8295.0,399.0,0.448,0.482,-0.507,-0.556
964769,-870.0,8101.0,83.0,0.447,0.483,-0.507,-0.556
964781,-678.0,8205.0,249.0,0.446,0.484,-0.507,-0.557
964803,-1008.0,8205.0,75.0,0.446,0.484,-0.507,-0.557
964815,-1110.0,8269.0,237.0,0.446,0.484,-0.506,-0.557
964837,-762.0,8091.0,191.0,0.446,0.484,-0.507,-0.557
964859,-166.0,8325.0,721.0,0.445,0.484,-0.507,-0.557
964871,-680.0,8199.0,83.0,0.444,0.484,-0.507,-0.558
964893,-1330.0,8017.0,363.0,0.443,0.484,-0.507,-0.558
964905,-802.0,8091.0,301.0,0.442,0.484,-0.508,-0.558
964932,-1594.0,7965.0,733.0,0.44,0.484,-0.51,-0.559
964944,-706.0,8119.0,657.0,0.441,0.484,-0.512,-0.557
964956,582.0,8313.0,-217.0,0.441,0.485,-0.513,-0.554
964978,-578.0,8077.0,107.0,0.44,0.485,-0.514,-0.553
964990,-1004.0,7899.0,711.0,0.44,0.486,-0.516,-0.551
965012,-126.0,8305.0,-395.0,0.44,0.488,-0.517,-0.549
965034,-242.0,7921.0,113.0,0.44,0.489,-0.518,-0.547
965046,-516.0,7651.0,1431.0,0.439,0.491,-0.519,-0.545
965068,-1356.0,7115.0,2113.0,0.436,0.493,-0.521,-0.543
965080,-1982.0,7137.0,2097.0,0.433,0.497,-0.526,-0.537
965102,2040.0,7789.0,1115.0,0.43,0.504,-0.532,-0.527
965114,1206.0,8527.0,-1701.0,0.421,0.515,-0.537,-0.519
965136,-1610.0,9557.0,-4657.0,0.415,0.525,-0.541,-0.509
965148,-2646.0,8803.0,-5661.0,0.412,0.529,-0.543,-0.505
965170,-1046.0,7685.0,-2393.0,0.412,0.528,-0.544,-0.505
965182,290.0,8195.0,-229.0,0.414,0.528,-0.544,-0.503
965204,126.0,8911.0,-3817.0,0.416,0.53,-0.544,-0.501
965226,1350.0,9971.0,-5309.0,0.42,0.53,-0.539,-0.502
965238,2234.0,11083.0,-4825.0,0.429,0.531,-0.529,-0.504
965260,1184.0,8699.0,-6567.0,0.436,0.53,-0.516,-0.513
965272,-3148.0,6009.0,249.0,0.439,0.52,-0.502,-0.533
965294,-1714.0,7697.0,3265.0,0.447,0.515,-0.49,-0.543
965306,1950.0,8419.0,-203.0,0.454,0.513,-0.479,-0.549
965328,2750.0,7817.0,2283.0,0.453,0.51,-0.468,-0.562
965340,-496.0,7419.0,2813.0,0.446,0.511,-0.457,-0.576
965362,-1358.0,7759.0,-583.0,0.436,0.519,-0.446,-0.584
965374,-6052.0,8481.0,-4553.0,0.423,0.529,-0.435,-0.594
965396,-7612.0,8895.0,-7349.0,0.415,0.533,-0.425,-0.602
965418,-6086.0,8247.0,-5411.0,0.412,0.53,-0.416,-0.614
965430,-4392.0,7099.0,-2005.0,0.406,0.525,-0.408,-0.627
965452,-6852.0,5359.0,-89.0,0.397,0.521,-0.403,-0.64
965464,-7448.0,5279.0,-595.0,0.389,0.519,-0.402,-0.646
965486,-7202.0,3883.0,-3965.0,0.38,0.515,-0.404,-0.654
965498,-10226.0,4127.0,-3309.0,0.37,0.501,-0.406,-0.669
965520,-9786.0,3381.0,1187.0,0.367,0.483,-0.412,-0.68
965532,-6104.0,4473.0,909.0,0.372,0.47,-0.423,-0.68
965554,-2694.0,4709.0,1353.0,0.373,0.453,-0.44,-0.68
965566,-3092.0,4559.0,3563.0,0.376,0.438,-0.46,-0.675
965588,-36.0,5089.0,1815.0,0.382,0.424,-0.479,-0.666
965610,754.0,5775.0,1629.0,0.385,0.411,-0.498,-0.659
965622,-880.0,4961.0,-587.0,0.389,0.395,-0.516,-0.653
965644,310.0,5157.0,1503.0,0.392,0.371,-0.534,-0.651
965656,3022.0,5273.0,2271.0,0.398,0.349,-0.55,-0.646
965678,4684.0,5183.0,2087.0,0.401,0.326,-0.564,-0.644
965690,4774.0,4357.0,2667.0,0.404,0.303,-0.574,-0.645
965712,6704.0,3917.0,4927.0,0.406,0.273,-0.585,-0.647
965724,5834.0,4697.0,8209.0,0.394,0.254,-0.598,-0.65
965746,4368.0,4841.0,7233.0,0.378,0.242,-0.615,-0.648
965758,4732.0,4435.0,3539.0,0.367,0.233,-0.631,-0.643
965780,4366.0,7281.0,5539.0,0.367,0.225,-0.639,-0.638
965802,1346.0,10147.0,1287.0,0.365,0.221,-0.652,-0.627
965814,-390.0,11095.0,-2733.0,0.367,0.211,-0.665,-0.615
965836,1590.0,10035.0,-333.0,0.369,0.192,-0.676,-0.608
965848,1788.0,8331.0,3953.0,0.366,0.168,-0.691,-0.601
965870,632.0,9871.0,2143.0,0.372,0.154,-0.711,-0.577
965882,4844.0,5039.0,-1135.0,0.371,0.127,-0.729,-0.561
965904,1872.0,3103.0,4325.0,0.363,0.108,-0.753,-0.538
965916,9030.0,4921.0,-903.0,0.365,0.117,-0.774,-0.504
965938,3576.0,3741.0,-4123.0,0.368,0.133,-0.798,-0.459
965950,5380.0,5269.0,-13759.0,0.394,0.144,-0.809,-0.412
965972,10640.0,5981.0,-14345.0,0.41,0.129,-0.814,-0.391
965994,13286.0,9249.0,-6795.0,0.407,0.103,-0.819,-0.391
966006,13798.0,10217.0,745.0,0.414,0.085,-0.821,-0.384
966028,17842.0,11363.0,-4163.0,0.429,0.086,-0.819,-0.371
966040,11938.0,8349.0,-11027.0,0.41,0.095,-0.827,-0.372
966062,3244.0,5405.0,-9479.0,0.388,0.094,-0.829,-0.392
966074,5124.0,3203.0,-3675.0,0.371,0.085,-0.826,-0.415
966096,4500.0,5813.0,499.0,0.379,0.099,-0.81,-0.435
966108,3510.0,3293.0,-5161.0,0.387,0.114,-0.795,-0.452
966130,-524.0,3651.0,-8459.0,0.365,0.116,-0.788,-0.482
966142,-2062.0,4115.0,4147.0,0.346,0.116,-0.785,-0.501
966164,11384.0,10865.0,-5559.0,0.296,0.1,-0.79,-0.528
966186,98.0,8163.0,4675.0,0.283,0.102,-0.781,-0.547
966198,-1632.0,6389.0,3901.0,0.287,0.114,-0.776,-0.549
966220,1876.0,7935.0,-4195.0,0.306,0.13,-0.771,-0.543
966232,4180.0,8097.0,-2909.0,0.313,0.137,-0.766,-0.545
966254,472.0,7823.0,433.0,0.332,0.147,-0.755,-0.546
966266,4140.0,8181.0,-1317.0,0.355,0.152,-0.746,-0.542
966288,3246.0,8089.0,-1551.0,0.366,0.157,-0.74,-0.541
966300,2304.0,7727.0,-1387.0,0.381,0.16,-0.733,-0.54
966322,2854.0,7053.0,-1055.0,0.394,0.162,-0.726,-0.539
966334,2422.0,7123.0,-2799.0,0.407,0.164,-0.719,-0.539
966356,3736.0,6781.0,-1235.0,0.421,0.165,-0.709,-0.542
966378,3422.0,6933.0,1195.0,0.429,0.164,-0.7,-0.546
966390,2636.0,6697.0,1351.0,0.439,0.166,-0.695,-0.545
966412,2904.0,6721.0,1193.0,0.449,0.167,-0.692,-0.54
966424,2930.0,7079.0,227.0,0.457,0.167,-0.692,-0.534
966446,778.0,6607.0,169.0,0.468,0.165,-0.692,-0.525
966458,6716.0,7789.0,-627.0,0.486,0.158,-0.693,-0.509
966480,4730.0,7555.0,323.0,0.498,0.151,-0.693,-0.499
966492,4724.0,7635.0,221.0,0.51,0.147,-0.693,-0.487
966514,2194.0,7325.0,-5167.0,0.517,0.138,-0.697,-0.477
966526,4762.0,6669.0,-3479.0,0.53,0.125,-0.695,-0.469
966548,5392.0,4539.0,829.0,0.541,0.106,-0.694,-0.463
966570,5074.0,5239.0,815.0,0.56,0.089,-0.689,-0.451
966582,6302.0,5343.0,1161.0,0.578,0.069,-0.685,-0.437
966604,8022.0,6233.0,931.0,0.593,0.052,-0.682,-0.425
966616,6678.0,5233.0,29.0,0.599,0.037,-0.684,-0.415
966638,4286.0,4193.0,-369.0,0.603,0.022,-0.684,-0.409
966650,6246.0,4767.0,799.0,0.599,0.014,-0.704,-0.381
966672,7544.0,5019.0,69.0,0.586,0.003,-0.726,-0.36
966684,5062.0,4685.0,-437.0,0.574,-0.006,-0.746,-0.338
966706,8158.0,5173.0,-1971.0,0.566,-0.01,-0.759,-0.322
966718,10742.0,7001.0,-639.0,0.553,-0.001,-0.768,-0.323
966740,8712.0,3169.0,-209.0,0.529,0.004,-0.783,-0.329
966762,8650.0,5799.0,645.0,0.463,-0.002,-0.825,-0.325
966774,6796.0,6751.0,-1263.0,0.35,-0.014,-0.884,-0.31
966796,-8196.0,2867.0,-7511.0,0.343,-0.024,-0.888,-0.304
966808,7808.0,3277.0,-5347.0,0.34,-0.038,-0.89,-0.302
966830,6996.0,2357.0,-5301.0,0.331,-0.05,-0.892,-0.304
966842,3516.0,1959.0,-689.0,0.327,-0.062,-0.891,-0.308
966864,5534.0,2885.0,-4709.0,0.337,-0.075,-0.889,-0.302
966876,8514.0,517.0,-2623.0,0.347,-0.079,-0.889,-0.29
966898,6496.0,1959.0,-5069.0,0.357,-0.083,-0.889,-0.274
966910,7580.0,963.0,-6297.0,0.366,-0.086,-0.891,-0.255
966937,8160.0,1647.0,-5769.0,0.375,-0.089,-0.892,-0.237
966949,6706.0,333.0,-6115.0,0.379,-0.092,-0.895,-0.215
966971,6908.0,765.0,-4169.0,0.377,-0.098,-0.901,-0.19
966983,9002.0,3207.0,-7231.0,0.372,-0.102,-0.907,-0.17
967005,8466.0,2335.0,-7935.0,0.362,-0.097,-0.912,-0.169
967017,3994.0,2073.0,-7565.0,0.344,-0.092,-0.918,-0.178
967039,-460.0,1003.0,-5753.0,0.333,-0.094,-0.919,-0.192
967051,-964.0,1805.0,-4553.0,0.331,-0.109,-0.915,-0.202
967073,1178.0,1233.0,-3603.0,0.336,-0.134,-0.91,-0.204
967095,3926.0,1105.0,-3445.0,0.35,-0.163,-0.9,-0.203
967107,7780.0,1385.0,-4777.0,0.36,-0.197,-0.89,-0.197
967129,9624.0,1787.0,-3529.0,0.372,-0.222,-0.88,-0.196
967141,8768.0,2837.0,1593.0,0.382,-0.238,-0.87,-0.2
967163,7580.0,3517.0,789.0,0.391,-0.242,-0.867,-0.193
967175,7852.0,-1073.0,-3475.0,0.411,-0.242,-0.86,-0.181
967197,9312.0,987.0,-7467.0,0.422,-0.244,-0.857,-0.166
967209,9776.0,537.0,-11161.0,0.423,-0.249,-0.857,-0.159
967231,9486.0,351.0,-13257.0,0.411,-0.256,-0.858,-0.169
967243,8720.0,-167.0,-9597.0,0.391,-0.268,-0.859,-0.192
967265,8524.0,803.0,-6601.0,0.363,-0.28,-0.861,-0.218
967277,7508.0,817.0,-3001.0,0.334,-0.288,-0.864,-0.243
967299,6818.0,1797.0,-1355.0,0.311,-0.289,-0.867,-0.261
967321,5792.0,775.0,183.0,0.294,-0.286,-0.871,-0.27
967333,5944.0,1407.0,-935.0,0.278,-0.282,-0.882,-0.255
967355,4398.0,4193.0,-4929.0,0.277,-0.27,-0.89,-0.242
967367,974.0,597.0,-7231.0,0.281,-0.261,-0.895,-0.229
967389,3640.0,525.0,-9989.0,0.281,-0.266,-0.897,-0.213
967401,7550.0,1897.0,-9031.0,0.268,-0.275,-0.901,-0.201
967423,6630.0,271.0,-7259.0,0.257,-0.277,-0.903,-0.203
967435,3560.0,1963.0,-4991.0,0.246,-0.278,-0.905,-0.207
967457,2644.0,1957.0,-4173.0,0.237,-0.284,-0.905,-0.21
967469,6008.0,2107.0,-4307.0,0.226,-0.294,-0.906,-0.206
967491,5858.0,1519.0,-5501.0,0.22,-0.296,-0.908,-0.199
967513,4356.0,1341.0,-8019.0,0.219,-0.296,-0.909,-0.195
967525,3818.0,1605.0,-9487.0,0.215,-0.3,-0.909,-0.194
967547,5670.0,2365.0,-8039.0,0.204,-0.305,-0.909,-0.197
967559,5592.0,2697.0,-7623.0,0.18,-0.31,-0.913,-0.196
967581,4156.0,2289.0,-8095.0,0.152,-0.313,-0.917,-0.196
967593,3260.0,2671.0,-8285.0,0.127,-0.317,-0.918,-0.201
967615,4690.0,2527.0,-7929.0,0.087,-0.325,-0.92,-0.201
967627,4472.0,2533.0,-6795.0,0.052,-0.327,-0.92,-0.21
967649,2168.0,2191.0,-10797.0,0.005,-0.331,-0.919,-0.215
967661,14.0,1247.0,-9549.0,0.094,0.352,0.909,0.202
967683,-484.0,2185.0,-7283.0,0.189,0.378,0.886,0.189
967705,-374.0,2647.0,-5261.0,0.269,0.402,0.858,0.171
967717,-636.0,3553.0,-6321.0,0.34,0.422,0.827,0.15
967739,-2876.0,3019.0,-6311.0,0.411,0.439,0.789,0.128
967751,-5810.0,3345.0,-4459.0,0.46,0.45,0.756,0.12
967773,-5898.0,4289.0,93.0,0.488,0.462,0.73,0.121
967785,-3008.0,4857.0,1649.0,0.512,0.483,0.702,0.109
967807,-1024.0,5769.0,-3269.0,0.529,0.502,0.679,0.087
967819,-1566.0,6517.0,-6881.0,0.545,0.51,0.662,0.068
967841,-3404.0,7039.0,-4071.0,0.576,0.51,0.637,0.041
967853,-6680.0,7149.0,-189.0,0.59,0.507,0.628,0.029
967875,-8828.0,6135.0,941.0,0.59,0.512,0.624,0.018
967897,-6598.0,6173.0,-1787.0,0.583,0.526,0.619,0.008
967909,-3586.0,7701.0,-2801.0,0.571,0.539,0.619,0.001
967931,-4662.0,5399.0,-3753.0,0.566,0.541,0.622,-0.013
967943,-7876.0,4913.0,-6243.0,0.575,0.544,0.61,-0.04
967965,-8418.0,2983.0,-1491.0,0.583,0.546,0.598,-0.064
967977,-9662.0,3821.0,-3015.0,0.594,0.553,0.577,-0.09
967999,-8552.0,2285.0,-1063.0,0.613,0.561,0.542,-0.123
968011,-6094.0,3515.0,-4589.0,0.631,0.567,0.508,-0.149
968033,-5116.0,2817.0,-1525.0,0.647,0.566,0.483,-0.166
968045,-5304.0,3103.0,-977.0,0.668,0.558,0.458,-0.181
968067,-2848.0,4403.0,817.0,0.685,0.549,0.437,-0.197
968089,-778.0,4645.0,1693.0,0.687,0.536,0.445,-0.206
968101,-6332.0,1449.0,-3047.0,0.682,0.519,0.47,-0.214
968123,-7812.0,2837.0,-1083.0,0.67,0.502,0.504,-0.214
968135,-6736.0,2913.0,-1779.0,0.643,0.485,0.559,-0.197
968157,-6246.0,3413.0,-1937.0,0.596,0.465,0.633,-0.167
968169,-17314.0,-581.0,-3773.0,0.582,0.437,0.665,-0.169
968191,-13130.0,1229.0,-2973.0,0.566,0.434,0.685,-0.151
968203,-5194.0,3147.0,-2421.0,0.562,0.426,0.695,-0.14
968225,-5368.0,1327.0,-799.0,0.559,0.411,0.706,-0.141
968237,-6962.0,2057.0,-475.0,0.55,0.396,0.719,-0.149
968259,-8160.0,1101.0,-789.0,0.548,0.385,0.723,-0.169
968281,-9318.0,647.0,-4435.0,0.545,0.375,0.725,-0.191
968293,-8036.0,705.0,-4347.0,0.541,0.366,0.729,-0.206
968315,-8194.0,-71.0,-3525.0,0.537,0.356,0.733,-0.217
968327,-8170.0,-595.0,-2505.0,0.536,0.348,0.735,-0.225
968349,-8872.0,-1059.0,-1729.0,0.536,0.345,0.735,-0.231
968361,-8830.0,-311.0,-1507.0,0.539,0.349,0.73,-0.235
968383,-8096.0,-225.0,-1083.0,0.542,0.359,0.721,-0.239
968395,-7148.0,143.0,-1107.0,0.541,0.374,0.713,-0.243
968417,-6824.0,933.0,-2633.0,0.54,0.389,0.703,-0.251
968429,-6114.0,585.0,-3927.0,0.538,0.403,0.693,-0.262
968451,-6254.0,1673.0,-3111.0,0.534,0.411,0.689,-0.267
968473,-7084.0,247.0,-2799.0,0.532,0.418,0.682,-0.276
968485,-8288.0,189.0,-4551.0,0.529,0.424,0.677,-0.285
968507,-9044.0,19.0,-5503.0,0.528,0.427,0.674,-0.29
968519,-9198.0,281.0,-5755.0,0.532,0.43,0.671,-0.287
968541,-8526.0,513.0,-5003.0,0.541,0.432,0.665,-0.28
968553,-7168.0,955.0,-3719.0,0.555,0.432,0.657,-0.273
968575,-5952.0,1333.0,-3187.0,0.569,0.43,0.649,-0.264
968587,-5170.0,1789.0,-3095.0,0.58,0.424,0.646,-0.256
968609,-4934.0,1587.0,-2469.0,0.587,0.413,0.651,-0.248
968621,-6292.0,473.0,-4251.0,0.58,0.401,0.669,-0.235
968643,-9312.0,1025.0,-2349.0,0.576,0.386,0.685,-0.224
968665,-10192.0,1175.0,-695.0,0.58,0.373,0.691,-0.216
968677,-9852.0,947.0,1041.0,0.588,0.369,0.688,-0.212
968699,-8602.0,1577.0,1287.0,0.596,0.372,0.678,-0.214
968711,-7106.0,1953.0,299.0,0.605,0.379,0.664,-0.221
968733,-6772.0,1421.0,-429.0,0.613,0.385,0.649,-0.234
968745,-7826.0,1067.0,-119.0,0.62,0.391,0.633,-0.249
968767,-8634.0,1225.0,257.0,0.627,0.399,0.614,-0.267
968779,-8536.0,1659.0,-221.0,0.633,0.408,0.593,-0.285
968801,-8138.0,1753.0,-4103.0,0.637,0.418,0.573,-0.303
968813,-7022.0,2101.0,-3975.0,0.639,0.426,0.555,-0.319
968835,-6618.0,1519.0,-3851.0,0.645,0.428,0.536,-0.337
968857,-7132.0,205.0,-1869.0,0.653,0.423,0.517,-0.356
968869,-7902.0,-1631.0,-257.0,0.659,0.415,0.506,-0.37
968891,-8352.0,-663.0,1417.0,0.666,0.407,0.497,-0.379
968903,-8176.0,-139.0,2183.0,0.672,0.4,0.49,-0.386
968925,-7902.0,-115.0,2661.0,0.679,0.393,0.48,-0.392
968942,-7690.0,45.0,3899.0,0.686,0.388,0.469,-0.399
968954,-7998.0,111.0,31.0,0.696,0.381,0.452,-0.408
968976,-8218.0,165.0,1843.0,0.701,0.377,0.445,-0.412
968988,-8786.0,383.0,1713.0,0.705,0.373,0.441,-0.412
969010,-8888.0,699.0,2521.0,0.71,0.368,0.441,-0.407
969022,-7668.0,1587.0,4223.0,0.716,0.363,0.441,-0.401
969044,-7366.0,1939.0,5251.0,0.722,0.357,0.439,-0.398
969066,-7868.0,1321.0,4977.0,0.725,0.354,0.437,-0.398
969078,-8028.0,1729.0,4193.0,0.728,0.353,0.431,-0.399
969100,-8080.0,1931.0,4057.0,0.738,0.348,0.41,-0.407
969112,-7622.0,1693.0,2921.0,0.743,0.35,0.398,-0.41
969134,-7120.0,1657.0,3039.0,0.749,0.349,0.382,-0.414
969146,-6712.0,1657.0,2371.0,0.754,0.347,0.371,-0.416
969168,-6234.0,1383.0,3109.0,0.758,0.344,0.365,-0.416
969180,-6062.0,1257.0,3637.0,0.761,0.34,0.364,-0.416
969202,-6576.0,781.0,4265.0,0.763,0.335,0.364,-0.416
969214,-7112.0,655.0,4553.0,0.766,0.329,0.364,-0.416
969236,-7088.0,667.0,4909.0,0.769,0.324,0.364,-0.415
969258,-6960.0,739.0,5495.0,0.771,0.32,0.363,-0.413
969270,-6994.0,889.0,5869.0,0.773,0.317,0.363,-0.411
969292,-7114.0,1247.0,5987.0,0.775,0.317,0.363,-0.41
969304,-7334.0,1493.0,5593.0,0.775,0.318,0.363,-0.408
969326,-7266.0,1917.0,4595.0,0.776,0.321,0.361,-0.406
969338,-7366.0,2115.0,3687.0,0.777,0.323,0.359,-0.404
969360,-6440.0,2293.0,3507.0,0.779,0.325,0.356,-0.401
969372,-5980.0,2569.0,2879.0,0.779,0.327,0.356,-0.4
969394,-6278.0,2423.0,3293.0,0.779,0.327,0.354,-0.401
969416,-6692.0,2013.0,3443.0,0.78,0.326,0.353,-0.401
969428,-6814.0,2037.0,4325.0,0.78,0.324,0.353,-0.401
969450,-6612.0,1875.0,4661.0,0.781,0.323,0.352,-0.402
969462,-6422.0,1525.0,4287.0,0.781,0.323,0.35,-0.404
969484,-6566.0,1347.0,3965.0,0.781,0.321,0.349,-0.407
969496,-6658.0,1077.0,4301.0,0.781,0.319,0.349,-0.408
969518,-6600.0,819.0,4897.0,0.782,0.316,0.349,-0.409
969530,-6788.0,663.0,5391.0,0.782,0.313,0.35,-0.409
969552,-6986.0,627.0,5509.0,0.783,0.311,0.35,-0.408
969564,-6536.0,1121.0,5565.0,0.784,0.31,0.351,-0.407
969586,-6314.0,1459.0,5265.0,0.785,0.31,0.351,-0.406
969608,-6558.0,1685.0,4757.0,0.785,0.311,0.352,-0.405
969620,-6658.0,1907.0,4195.0,0.784,0.312,0.354,-0.403
969642,-6368.0,2163.0,4319.0,0.784,0.311,0.356,-0.402
969654,-6498.0,2133.0,4455.0,0.784,0.311,0.358,-0.401
969676,-7068.0,1871.0,4257.0,0.783,0.311,0.36,-0.401
969688,-7194.0,1819.0,4243.0,0.783,0.31,0.36,-0.401
969710,-6448.0,1737.0,4403.0,0.783,0.309,0.36,-0.401
969722,-6540.0,1365.0,4651.0,0.783,0.308,0.361,-0.402
969744,-7002.0,1049.0,4351.0,0.783,0.307,0.36,-0.403
969756,-6504.0,891.0,4317.0,0.784,0.306,0.359,-0.404
969778,-6278.0,957.0,4827.0,0.784,0.304,0.359,-0.404
969800,-6522.0,897.0,4861.0,0.785,0.302,0.361,-0.404
969812,-6686.0,785.0,4835.0,0.784,0.3,0.363,-0.403
969834,-6998.0,997.0,5189.0,0.784,0.298,0.367,-0.402
969846,-7168.0,1005.0,5217.0,0.783,0.297,0.371,-0.4
969868,-7340.0,1303.0,4121.0,0.783,0.298,0.376,-0.397
969880,-6942.0,1273.0,4377.0,0.783,0.297,0.381,-0.392
969902,-6430.0,1575.0,5603.0,0.784,0.295,0.383,-0.389
969914,-6274.0,1579.0,5147.0,0.784,0.296,0.383,-0.389
969936,-6756.0,1455.0,3983.0,0.783,0.297,0.383,-0.39
969958,-6722.0,1225.0,3137.0,0.782,0.298,0.384,-0.391
969970,-6566.0,1121.0,3285.0,0.781,0.296,0.388,-0.39
969992,-7224.0,731.0,3703.0,0.78,0.292,0.393,-0.388
970004,-7434.0,839.0,4351.0,0.78,0.289,0.4,-0.385
970026,-7300.0,827.0,4835.0,0.779,0.287,0.406,-0.381
970038,-7200.0,801.0,3681.0,0.778,0.286,0.415,-0.376
970060,-7392.0,1107.0,2307.0,0.773,0.285,0.431,-0.368
970072,-7222.0,637.0,2253.0,0.769,0.281,0.45,-0.356
970094,-6788.0,531.0,5357.0,0.769,0.273,0.463,-0.347
970106,-6772.0,463.0,6543.0,0.768,0.267,0.47,-0.343
970128,-7678.0,483.0,5813.0,0.766,0.267,0.472,-0.345
970140,-7988.0,579.0,3511.0,0.764,0.269,0.473,-0.348
970162,-7696.0,1263.0,2039.0,0.761,0.271,0.475,-0.348
970184,-7386.0,1129.0,1609.0,0.758,0.27,0.482,-0.346
970196,-7750.0,167.0,1603.0,0.754,0.266,0.494,-0.341
970218,-8430.0,-129.0,2555.0,0.75,0.261,0.508,-0.333
970230,-8412.0,23.0,3685.0,0.747,0.257,0.521,-0.324
970252,-7774.0,289.0,3123.0,0.744,0.256,0.531,-0.316
970264,-7658.0,875.0,1835.0,0.739,0.255,0.543,-0.308
970286,-7688.0,1043.0,359.0,0.725,0.256,0.567,-0.295
970298,-7794.0,1453.0,-939.0,0.691,0.26,0.619,-0.269
970320,-9994.0,-469.0,-3483.0,0.66,0.253,0.666,-0.24
970342,-12316.0,-2409.0,57.0,0.647,0.243,0.692,-0.209
970354,-9782.0,-1153.0,3331.0,0.644,0.239,0.704,-0.18
970376,-6808.0,-129.0,3895.0,0.645,0.241,0.706,-0.162
970388,-5132.0,917.0,3055.0,0.645,0.246,0.706,-0.157
970410,-6458.0,683.0,321.0,0.642,0.248,0.707,-0.162
970422,-8636.0,261.0,-1243.0,0.64,0.249,0.707,-0.169
970444,-9642.0,139.0,-1845.0,0.638,0.25,0.707,-0.173
970456,-9224.0,357.0,-1503.0,0.638,0.252,0.707,-0.172
970478,-7786.0,801.0,-1031.0,0.638,0.254,0.707,-0.17
970490,-7142.0,549.0,-67.0,0.637,0.254,0.708,-0.169
970512,-7840.0,271.0,-875.0,0.636,0.254,0.708,-0.17
970524,-8452.0,467.0,-1309.0,0.636,0.254,0.709,-0.17
970546,-8146.0,383.0,-989.0,0.637,0.254,0.708,-0.17
970568,-7932.0,483.0,-749.0,0.637,0.253,0.708,-0.17
970580,-8280.0,551.0,-367.0,0.638,0.252,0.707,-0.171
970602,-8258.0,647.0,-595.0,0.639,0.252,0.706,-0.173
970614,-7940.0,581.0,-949.0,0.64,0.253,0.705,-0.174
970636,-7884.0,467.0,-831.0,0.641,0.253,0.704,-0.175
970648,-7972.0,451.0,-503.0,0.641,0.252,0.703,-0.177
970670,-8254.0,371.0,-51.0,0.643,0.252,0.701,-0.179
970682,-8454.0,449.0,-281.0,0.644,0.252,0.699,-0.183
970704,-8384.0,393.0,-707.0,0.644,0.254,0.697,-0.186
970716,-8192.0,541.0,-1163.0,0.644,0.256,0.696,-0.188
970738,-8088.0,395.0,-965.0,0.644,0.256,0.696,-0.188
970760,-7968.0,409.0,-495.0,0.643,0.256,0.696,-0.189
970772,-8006.0,501.0,-463.0,0.643,0.256,0.697,-0.189
970794,-8222.0,319.0,-627.0,0.642,0.256,0.697,-0.19
970806,-8086.0,281.0,-921.0,0.642,0.256,0.697,-0.191
970828,-8140.0,485.0,-975.0,0.641,0.256,0.698,-0.191
970840,-8082.0,437.0,-921.0,0.64,0.255,0.7,-0.19
970862,-8120.0,413.0,-401.0,0.639,0.254,0.701,-0.189
970874,-8264.0,455.0,-685.0,0.638,0.253,0.702,-0.188
970896,-8290.0,35.0,-907.0,0.638,0.253,0.703,-0.188
970908,-8434.0,343.0,-741.0,0.637,0.252,0.704,-0.187
970930,-8384.0,245.0,-445.0,0.636,0.252,0.705,-0.186
970947,-8214.0,311.0,-477.0,0.636,0.252,0.705,-0.186
970969,-8044.0,221.0,-799.0,0.635,0.253,0.705,-0.187
970981,-8122.0,25.0,-1091.0,0.635,0.253,0.706,-0.187
971003,-8144.0,229.0,-717.0,0.635,0.253,0.706,-0.187
971015,-8384.0,407.0,-419.0,0.635,0.253,0.706,-0.187
971037,-8382.0,259.0,-495.0,0.634,0.254,0.706,-0.187
971049,-8184.0,313.0,-963.0,0.633,0.255,0.706,-0.187
971071,-7976.0,603.0,-1043.0,0.633,0.256,0.707,-0.187
971083,-8030.0,247.0,-861.0,0.632,0.256,0.707,-0.187
971105,-8070.0,477.0,-779.0,0.631,0.256,0.709,-0.186
971117,-8002.0,423.0,-831.0,0.63,0.255,0.71,-0.186
971139,-8142.0,361.0,-867.0,0.629,0.255,0.71,-0.186
971161,-8172.0,373.0,-949.0,0.628,0.255,0.711,-0.186
971173,-8228.0,199.0,-925.0,0.627,0.255,0.712,-0.187
971195,-8284.0,139.0,-885.0,0.627,0.255,0.712,-0.187
971207,-8192.0,271.0,-973.0,0.627,0.255,0.712,-0.187
971229,-8020.0,273.0,-999.0,0.627,0.255,0.712,-0.187
971241,-7860.0,319.0,-1165.0,0.626,0.255,0.712,-0.188
971263,-8104.0,209.0,-1017.0,0.626,0.255,0.712,-0.188
971275,-8226.0,199.0,-951.0,0.627,0.254,0.712,-0.188
971297,-8262.0,219.0,-953.0,0.627,0.254,0.712,-0.189
971309,-8276.0,237.0,-1017.0,0.628,0.254,0.711,-0.189
971331,-8076.0,469.0,-949.0,0.628,0.253,0.711,-0.189
971353,-8070.0,383.0,-553.0,0.628,0.253,0.711,-0.189
971365,-8104.0,285.0,-833.0,0.628,0.253,0.711,-0.19
971387,-8088.0,343.0,-1157.0,0.628,0.253,0.711,-0.191
971399,-8074.0,289.0,-969.0,0.628,0.253,0.711,-0.191
971421,-8106.0,309.0,-841.0,0.627,0.252,0.712,-0.191
971433,-8268.0,311.0,-707.0,0.627,0.252,0.712,-0.192
971455,-8218.0,137.0,-835.0,0.626,0.252,0.712,-0.193
971467,-8086.0,163.0,-1113.0,0.626,0.252,0.712,-0.194
971489,-8026.0,181.0,-1071.0,0.625,0.252,0.713,-0.194
971501,-8024.0,71.0,-1087.0,0.624,0.252,0.713,-0.195
971523,-7976.0,241.0,-1099.0,0.624,0.251,0.714,-0.195
971545,-8202.0,149.0,-839.0,0.623,0.251,0.714,-0.196
971557,-8322.0,49.0,-913.0,0.623,0.25,0.714,-0.197
971579,-8184.0,-9.0,-1153.0,0.623,0.25,0.714,-0.198
971591,-8212.0,83.0,-1145.0,0.623,0.25,0.715,-0.198
971613,-8028.0,71.0,-1035.0,0.623,0.249,0.715,-0.198
971625,-8024.0,-19.0,-1041.0,0.623,0.248,0.715,-0.198
971647,-8066.0,13.0,-1093.0,0.623,0.247,0.715,-0.199
971659,-8160.0,164.0,-1068.0,0.623,0.247,0.715,-0.199
971681,-8220.0,157.0,-818.0,0.623,0.246,0.715,-0.199
971703,-8242.0,19.0,-840.0,0.623,0.245,0.715,-0.199
971715,-8282.0,63.0,-981.0,0.623,0.245,0.715,-0.199
971737,-8266.0,135.0,-934.0,0.623,0.245,0.715,-0.199
971749,-8222.0,114.0,-852.0,0.623,0.245,0.716,-0.199
971771,-8154.0,18.0,-1017.0,0.623,0.245,0.716,-0.199
971783,-8105.0,51.0,-1066.0,0.623,0.244,0.716,-0.199
971805,-8176.0,65.0,-962.0,0.623,0.244,0.716,-0.199
971817,-8184.0,97.0,-838.0,0.622,0.244,0.717,-0.199
971839,-8168.0,103.0,-930.0,0.622,0.244,0.717,-0.199
971851,-8090.0,51.0,-990.0,0.622,0.244,0.717,-0.199
971873,-8232.0,-25.0,-976.0,0.621,0.244,0.717,-0.2
971885,-8360.0,-127.0,-970.0,0.621,0.245,0.717,-0.2
971907,-8146.0,-1.0,-1112.0,0.621,0.245,0.717,-0.2
971929,-8048.0,-1.0,-1086.0,0.621,0.246,0.717,-0.2
971941,-8052.0,45.0,-1018.0,0.62,0.246,0.717,-0.2
971963,-8050.0,49.0,-1020.0,0.62,0.246,0.717,-0.2
971975,-8088.0,25.0,-1100.0,0.62,0.246,0.718,-0.2
971997,-8162.0,107.0,-1062.0,0.62,0.246,0.718,-0.201
972009,-8118.0,7.0,-1054.0,0.62,0.246,0.718,-0.201
972031,-8122.0,3.0,-1064.0,0.62,0.246,0.718,-0.201
972043,-8104.0,-3.0,-1166.0,0.62,0.246,0.717,-0.201
972065,-8104.0,47.0,-1056.0,0.62,0.246,0.717,-0.202
972077,-8192.0,127.0,-896.0,0.62,0.246,0.717,-0.202
972099,-8234.0,-41.0,-1018.0,0.62,0.246,0.717,-0.202
972121,-8172.0,93.0,-1148.0,0.62,0.246,0.716,-0.203
972133,-8118.0,-39.0,-1020.0,0.621,0.246,0.716,-0.203
972155,-8166.0,-5.0,-1010.0,0.621,0.246,0.716,-0.203
972167,-8162.0,-81.0,-988.0,0.62,0.246,0.716,-0.203
972189,-8114.0,83.0,-1060.0,0.62,0.246,0.716,-0.203
972201,-8058.0,119.0,-910.0,0.62,0.247,0.717,-0.203
972223,-8134.0,61.0,-952.0,0.619,0.247,0.717,-0.204
972235,-8172.0,19.0,-1142.0,0.619,0.247,0.717,-0.204
972257,-8092.0,37.0,-1096.0,0.618,0.247,0.718,-0.204
972269,-8204.0,-61.0,-1042.0,0.617,0.247,0.719,-0.204
972291,-8128.0,-73.0,-1212.0,0.617,0.248,0.719,-0.204
972313,-8088.0,-79.0,-1332.0,0.616,0.248,0.719,-0.204
972325,-8130.0,-19.0,-1134.0,0.616,0.247,0.72,-0.204
972347,-8270.0,-25.0,-972.0,0.616,0.247,0.72,-0.204
972359,-8212.0,15.0,-1054.0,0.616,0.248,0.72,-0.204
972381,-8066.0,-1.0,-1202.0,0.616,0.248,0.72,-0.204
972393,-8028.0,65.0,-1198.0,0.616,0.248,0.72,-0.203
972415,-8052.0,-39.0,-1134.0,0.616,0.248,0.72,-0.203
972427,-8158.0,33.0,-1148.0,0.615,0.248,0.72,-0.203
972449,-8146.0,23.0,-1038.0,0.615,0.248,0.72,-0.203
972461,-7996.0,-27.0,-1168.0,0.615,0.248,0.72,-0.203
972483,-8096.0,93.0,-1212.0,0.615,0.248,0.72,-0.203
972505,-8044.0,9.0,-1200.0,0.614,0.248,0.721,-0.203
972517,-8106.0,-55.0,-1226.0,0.614,0.248,0.721,-0.203
972539,-8172.0,-17.0,-1198.0,0.613,0.248,0.722,-0.203
972551,-8166.0,37.0,-1122.0,0.613,0.248,0.723,-0.203
972573,-8160.0,49.0,-1048.0,0.612,0.248,0.723,-0.202
972585,-8154.0,1.0,-1218.0,0.611,0.248,0.724,-0.202
972607,-8114.0,-63.0,-1576.0,0.611,0.248,0.724,-0.202
972619,-8064.0,27.0,-1230.0,0.61,0.248,0.725,-0.202
972641,-8056.0,-3.0,-1138.0,0.61,0.249,0.725,-0.202
972653,-8058.0,5.0,-1358.0,0.609,0.249,0.725,-0.203
972675,-8074.0,13.0,-1472.0,0.609,0.25,0.725,-0.203
972697,-8050.0,41.0,-1328.0,0.608,0.25,0.726,-0.203
972709,-8154.0,3.0,-1108.0,0.608,0.25,0.726,-0.203
972731,-8108.0,-37.0,-1302.0,0.607,0.25,0.726,-0.203
972743,-8058.0,-19.0,-1420.0,0.607,0.25,0.727,-0.204
972765,-8112.0,-171.0,-1510.0,0.606,0.25,0.727,-0.204
972777,-8152.0,-53.0,-1406.0,0.605,0.25,0.727,-0.204
972799,-8156.0,-3.0,-1398.0,0.605,0.25,0.728,-0.204
972811,-8094.0,33.0,-1368.0,0.605,0.251,0.728,-0.204
972833,-7986.0,-13.0,-1446.0,0.604,0.251,0.728,-0.204
972845,-7966.0,93.0,-1446.0,0.604,0.251,0.728,-0.204
972867,-8088.0,-53.0,-1264.0,0.604,0.251,0.728,-0.204
972889,-8252.0,-205.0,-1350.0,0.604,0.251,0.729,-0.205
972901,-8164.0,-95.0,-1540.0,0.603,0.251,0.729,-0.205
972923,-8006.0,-163.0,-1578.0,0.603,0.251,0.729,-0.205
972935,-7952.0,-37.0,-1502.0,0.603,0.251,0.729,-0.205
972952,-8022.0,-43.0,-1384.0,0.603,0.25,0.729,-0.205
972974,-8206.0,-1.0,-1328.0,0.603,0.25,0.73,-0.205
972986,-8120.0,11.0,-1338.0,0.602,0.25,0.73,-0.205
973008,-8004.0,35.0,-1388.0,0.602,0.25,0.73,-0.205
973020,-8088.0,45.0,-1500.0,0.602,0.25,0.73,-0.205
973042,-8098.0,-101.0,-1446.0,0.601,0.25,0.731,-0.205
973064,-8172.0,-67.0,-1348.0,0.601,0.25,0.731,-0.205
973076,-8114.0,-73.0,-1406.0,0.601,0.25,0.731,-0.205
973098,-8018.0,-61.0,-1460.0,0.601,0.251,0.731,-0.205
973110,-8074.0,-1.0,-1392.0,0.6,0.251,0.731,-0.205
973132,-8130.0,-11.0,-1402.0,0.6,0.251,0.732,-0.205
973144,-8130.0,-59.0,-1498.0,0.599,0.252,0.732,-0.205
973166,-8114.0,-143.0,-1542.0,0.599,0.252,0.732,-0.205
973178,-8066.0,-79.0,-1544.0,0.599,0.253,0.732,-0.205
973200,-8094.0,-97.0,-1514.0,0.598,0.253,0.732,-0.205
973212,-8072.0,-137.0,-1556.0,0.598,0.253,0.732,-0.205
973234,-7988.0,-109.0,-1586.0,0.598,0.254,0.732,-0.205
973256,-7942.0,-21.0,-1562.0,0.598,0.254,0.732,-0.205
973268,-7914.0,-77.0,-1598.0,0.597,0.253,0.733,-0.205
973290,-8110.0,-85.0,-1510.0,0.597,0.253,0.733,-0.205
973302,-8144.0,-143.0,-1632.0,0.597,0.253,0.733,-0.205
973324,-8148.0,-115.0,-1490.0,0.597,0.253,0.733,-0.205
973336,-8042.0,-131.0,-1552.0,0.597,0.253,0.733,-0.205
973358,-7976.0,17.0,-1732.0,0.597,0.252,0.733,-0.205
973370,-8136.0,129.0,-1310.0,0.597,0.252,0.733,-0.205
973392,-8202.0,-25.0,-1212.0,0.598,0.252,0.733,-0.205
973404,-7980.0,-39.0,-1686.0,0.598,0.253,0.733,-0.205
973426,-7982.0,-59.0,-1726.0,0.598,0.252,0.733,-0.206
973448,-8080.0,-7.0,-1450.0,0.598,0.252,0.733,-0.206
973460,-8094.0,-93.0,-1430.0,0.598,0.252,0.733,-0.206
973482,-7998.0,-131.0,-1656.0,0.598,0.252,0.733,-0.206
973494,-8010.0,-75.0,-1672.0,0.597,0.252,0.733,-0.206
973516,-8090.0,45.0,-1446.0,0.597,0.252,0.733,-0.206
973528,-8244.0,-121.0,-1318.0,0.597,0.252,0.733,-0.206
973550,-8104.0,-121.0,-1648.0,0.597,0.252,0.733,-0.207
973562,-8090.0,-87.0,-1716.0,0.597,0.253,0.733,-0.207
973584,-8068.0,-75.0,-1582.0,0.596,0.253,0.733,-0.206
973596,-7950.0,-65.0,-1478.0,0.596,0.253,0.734,-0.206
973618,-7992.0,-53.0,-1578.0,0.596,0.253,0.734,-0.206
973640,-8078.0,19.0,-1614.0,0.596,0.253,0.734,-0.206
973652,-8086.0,-65.0,-1546.0,0.595,0.253,0.734,-0.207
973674,-8102.0,-101.0,-1606.0,0.595,0.253,0.734,-0.207
973686,-8078.0,-69.0,-1508.0,0.595,0.254,0.734,-0.207
973708,-8026.0,-99.0,-1520.0,0.595,0.254,0.734,-0.207
973720,-8006.0,-53.0,-1660.0,0.594,0.254,0.734,-0.207
973742,-8080.0,-85.0,-1674.0,0.594,0.254,0.735,-0.207
973754,-8066.0,-123.0,-1642.0,0.594,0.254,0.735,-0.206
973776,-8062.0,51.0,-1608.0,0.594,0.254,0.735,-0.206
973788,-7974.0,-27.0,-1542.0,0.594,0.254,0.735,-0.206
973810,-8054.0,41.0,-1660.0,0.594,0.254,0.735,-0.206
973832,-8120.0,-57.0,-1646.0,0.593,0.253,0.735,-0.207
973844,-8082.0,-81.0,-1650.0,0.593,0.253,0.735,-0.207
973866,-8106.0,-165.0,-1564.0,0.593,0.254,0.735,-0.207
973878,-8020.0,-41.0,-1608.0,0.593,0.254,0.735,-0.207
973900,-7850.0,-129.0,-1682.0,0.593,0.254,0.735,-0.207
973912,-7936.0,-63.0,-1634.0,0.593,0.254,0.735,-0.207
973934,-8032.0,-97.0,-1560.0,0.593,0.254,0.735,-0.207
973946,-8060.0,-61.0,-1618.0,0.593,0.254,0.735,-0.207
973968,-8048.0,-21.0,-1658.0,0.593,0.254,0.736,-0.207
973980,-7942.0,1.0,-1564.0,0.593,0.254,0.736,-0.207
974002,-8038.0,-79.0,-1670.0,0.593,0.254,0.736,-0.207
974024,-8160.0,-133.0,-1716.0,0.592,0.254,0.736,-0.208
974036,-8090.0,-11.0,-1680.0,0.592,0.254,0.736,-0.207
974058,-7974.0,-53.0,-1546.0,0.592,0.254,0.736,-0.208
974070,-7946.0,-129.0,-1696.0,0.592,0.254,0.736,-0.208
974092,-8092.0,-217.0,-1746.0,0.592,0.254,0.736,-0.208
974104,-8140.0,-165.0,-1754.0,0.592,0.254,0.736,-0.208
974126,-8062.0,-95.0,-1684.0,0.592,0.254,0.736,-0.208
974138,-8016.0,25.0,-1536.0,0.591,0.254,0.736,-0.208
974160,-8018.0,-57.0,-1606.0,0.591,0.254,0.736,-0.208
974172,-8124.0,-83.0,-1762.0,0.591,0.255,0.736,-0.208
974194,-7994.0,-23.0,-1734.0,0.591,0.255,0.736,-0.208
974216,-7864.0,-51.0,-1596.0,0.591,0.255,0.737,-0.208
974228,-7998.0,-97.0,-1676.0,0.591,0.254,0.737,-0.208
974250,-8134.0,-75.0,-1612.0,0.591,0.254,0.737,-0.208
974262,-8134.0,-99.0,-1602.0,0.591,0.254,0.737,-0.209
974284,-8058.0,-159.0,-1698.0,0.591,0.255,0.737,-0.209
974296,-8008.0,-65.0,-1752.0,0.591,0.255,0.737,-0.209
974318,-7954.0,-59.0,-1650.0,0.59,0.255,0.737,-0.209
974330,-7982.0,-111.0,-1662.0,0.59,0.255,0.737,-0.209
974352,-8052.0,-123.0,-1786.0,0.59,0.255,0.737,-0.209
974364,-7988.0,-101.0,-1808.0,0.59,0.255,0.737,-0.209
974386,-8026.0,-131.0,-1720.0,0.59,0.255,0.738,-0.208
974408,-8030.0,-61.0,-1734.0,0.589,0.255,0.738,-0.208
974420,-7918.0,-61.0,-1658.0,0.589,0.255,0.738,-0.208
974442,-8046.0,-109.0,-1660.0,0.589,0.255,0.738,-0.208
974454,-8124.0,-111.0,-1686.0,0.589,0.255,0.738,-0.209
974476,-8040.0,-127.0,-1774.0,0.589,0.255,0.738,-0.209
974488,-7978.0,-179.0,-1776.0,0.589,0.256,0.738,-0.209
974510,-7990.0,-99.0,-1866.0,0.588,0.255,0.738,-0.209
974522,-8022.0,-181.0,-1752.0,0.588,0.255,0.738,-0.209
974544,-8086.0,-77.0,-1606.0,0.588,0.255,0.739,-0.208
974556,-8086.0,-111.0,-1474.0,0.588,0.255,0.739,-0.209
974578,-8012.0,-85.0,-1814.0,0.588,0.256,0.738,-0.209
974600,-8014.0,-137.0,-1890.0,0.588,0.256,0.738,-0.209
974612,-7986.0,-57.0,-1756.0,0.588,0.256,0.739,-0.209
974634,-7904.0,-155.0,-1652.0,0.588,0.256,0.739,-0.209
974646,-8056.0,-101.0,-1722.0,0.588,0.256,0.739,-0.209
974668,-8108.0,-71.0,-1784.0,0.587,0.256,0.739,-0.209
974680,-8066.0,1.0,-1670.0,0.587,0.256,0.739,-0.209
974702,-8146.0,-173.0,-1796.0,0.587,0.256,0.739,-0.209
974714,-8132.0,-87.0,-1796.0,0.587,0.256,0.739,-0.209
974736,-7972.0,-67.0,-1788.0,0.587,0.257,0.739,-0.209
974748,-8010.0,-61.0,-1612.0,0.586,0.257,0.739,-0.209
974770,-7938.0,-147.0,-1718.0,0.586,0.258,0.739,-0.209
974792,-7912.0,-161.0,-1864.0,0.586,0.258,0.739,-0.21
974804,-8040.0,-131.0,-1874.0,0.585,0.258,0.739,-0.21
974826,-8178.0,-157.0,-1808.0,0.585,0.259,0.74,-0.21
974838,-8032.0,-43.0,-1704.0,0.584,0.259,0.74,-0.209
974860,-7866.0,-147.0,-1760.0,0.584,0.26,0.74,-0.209
974872,-8038.0,-139.0,-1724.0,0.583,0.261,0.741,-0.209
974894,-8074.0,-385.0,-1886.0,0.582,0.262,0.741,-0.209
974906,-7950.0,53.0,-1968.0,0.581,0.263,0.742,-0.209
974928,-7778.0,-49.0,-1906.0,0.579,0.265,0.742,-0.209
974940,-7902.0,-15.0,-1944.0,0.578,0.266,0.743,-0.209
974967,-8086.0,73.0,-1880.0,0.576,0.267,0.744,-0.208
974979,-7374.0,51.0,-936.0,0.573,0.269,0.746,-0.209
975001,-7928.0,-113.0,-1774.0,0.569,0.27,0.747,-0.211
975013,-8156.0,-369.0,-2394.0,0.565,0.272,0.749,-0.214
975035,-7988.0,-307.0,-2820.0,0.562,0.274,0.75,-0.215
975047,-7656.0,-197.0,-2602.0,0.56,0.275,0.752,-0.215
975069,-7658.0,-143.0,-2484.0,0.557,0.275,0.754,-0.215
975081,-7958.0,-125.0,-2402.0,0.554,0.275,0.756,-0.215
975103,-8074.0,-159.0,-2348.0,0.551,0.275,0.758,-0.215
975115,-8018.0,-199.0,-2326.0,0.549,0.275,0.76,-0.214
975137,-7788.0,-165.0,-2456.0,0.547,0.276,0.761,-0.214
975159,-7768.0,-155.0,-2574.0,0.545,0.276,0.762,-0.214
975171,-7796.0,-205.0,-2586.0,0.544,0.277,0.763,-0.214
975193,-7768.0,-257.0,-2560.0,0.542,0.277,0.764,-0.214
975205,-7876.0,-267.0,-2682.0,0.541,0.277,0.765,-0.214
975227,-7908.0,-399.0,-2598.0,0.541,0.277,0.765,-0.214
975239,-7780.0,-225.0,-2622.0,0.54,0.278,0.765,-0.214
975261,-7828.0,-175.0,-2600.0,0.54,0.278,0.766,-0.213
975273,-7752.0,-217.0,-2582.0,0.539,0.278,0.766,-0.213
975295,-7696.0,-259.0,-2702.0,0.539,0.279,0.766,-0.213
975307,-7812.0,-249.0,-2758.0,0.538,0.279,0.766,-0.213
975329,-7852.0,-331.0,-2672.0,0.538,0.279,0.767,-0.213
975351,-7984.0,-179.0,-2752.0,0.537,0.28,0.767,-0.212
975363,-7752.0,-105.0,-2536.0,0.537,0.281,0.767,-0.211
975385,-7510.0,-159.0,-2418.0,0.537,0.282,0.767,-0.211
975397,-8018.0,-307.0,-2744.0,0.536,0.283,0.767,-0.21
975419,-8122.0,-201.0,-2756.0,0.535,0.285,0.767,-0.209
975431,-7736.0,-127.0,-2752.0,0.534,0.287,0.768,-0.207
975453,-7348.0,43.0,-2794.0,0.532,0.289,0.768,-0.206
975465,-7828.0,-271.0,-2862.0,0.53,0.291,0.769,-0.205
975487,-8232.0,-321.0,-2878.0,0.529,0.294,0.77,-0.203
975499,-8336.0,-315.0,-2728.0,0.527,0.298,0.77,-0.201
975521,-7796.0,-127.0,-2660.0,0.526,0.304,0.77,-0.198
975543,-8580.0,-545.0,-2904.0,0.522,0.311,0.77,-0.194
975555,-9120.0,-1067.0,-3142.0,0.518,0.319,0.771,-0.189
975577,-8384.0,-925.0,-3654.0,0.511,0.329,0.773,-0.18
975589,-8166.0,-1287.0,-4282.0,0.504,0.337,0.777,-0.167
975611,-8162.0,-239.0,-4854.0,0.497,0.344,0.782,-0.152
975623,-8464.0,-607.0,-5014.0,0.49,0.349,0.787,-0.132
975645,-9606.0,-651.0,-4696.0,0.486,0.355,0.791,-0.108
975657,-9742.0,-871.0,-3612.0,0.482,0.363,0.793,-0.08
975679,-9612.0,-625.0,-3502.0,0.476,0.377,0.793,-0.051
975691,-7228.0,327.0,-4022.0,0.468,0.395,0.791,-0.018
975713,-4526.0,2953.0,-3914.0,0.459,0.413,0.787,0.017
975735,-4026.0,3663.0,-3598.0,0.453,0.425,0.782,0.047
975747,-5470.0,3573.0,-3330.0,0.45,0.435,0.777,0.069
975769,-7298.0,3223.0,-4008.0,0.447,0.447,0.769,0.09
975781,-5664.0,3285.0,-4424.0,0.44,0.465,0.759,0.114
975803,-3202.0,3815.0,-4998.0,0.435,0.487,0.744,0.137
975815,-876.0,4415.0,-5590.0,0.432,0.506,0.729,0.158
975837,690.0,5791.0,-5368.0,0.433,0.518,0.715,0.179
975849,-726.0,6863.0,-3748.0,0.439,0.519,0.706,0.199
975871,-4268.0,6037.0,-1786.0,0.444,0.521,0.696,0.214
975883,-3984.0,5557.0,-2878.0,0.444,0.53,0.685,0.23
975905,-1868.0,5577.0,-4726.0,0.44,0.541,0.673,0.248
975927,-118.0,6089.0,-5400.0,0.435,0.548,0.662,0.27
975939,126.0,6357.0,-3970.0,0.435,0.549,0.652,0.29
975961,-732.0,7763.0,-1370.0,0.437,0.548,0.643,0.309
975973,-1478.0,6985.0,-226.0,0.435,0.547,0.638,0.323
975995,-1204.0,6055.0,-2342.0,0.429,0.55,0.635,0.333
976007,-398.0,6573.0,-5226.0,0.423,0.551,0.632,0.344
976029,590.0,7209.0,-5718.0,0.423,0.548,0.628,0.356
976041,-966.0,9835.0,124.0,0.424,0.538,0.625,0.374
976063,-3370.0,9077.0,-340.0,0.424,0.533,0.62,0.389
976075,-1930.0,7833.0,-2830.0,0.415,0.531,0.617,0.406
976097,280.0,8049.0,-3078.0,0.407,0.532,0.613,0.42
976119,1566.0,7961.0,-4156.0,0.402,0.531,0.608,0.433
976131,1844.0,7819.0,-3456.0,0.403,0.527,0.602,0.444
976153,334.0,8361.0,-1420.0,0.407,0.521,0.597,0.454
976165,-652.0,8153.0,262.0,0.409,0.518,0.592,0.463
976187,432.0,7861.0,230.0,0.408,0.519,0.588,0.468
976199,732.0,7571.0,-236.0,0.403,0.518,0.587,0.473
976221,1350.0,8081.0,-2170.0,0.401,0.518,0.587,0.475
976233,416.0,8679.0,-2290.0,0.402,0.517,0.586,0.477
976255,620.0,8613.0,-1296.0,0.403,0.516,0.584,0.48
976267,780.0,8537.0,-1034.0,0.403,0.515,0.584,0.481
976289,-170.0,8205.0,-1524.0,0.404,0.514,0.585,0.481
976311,88.0,8263.0,-1768.0,0.404,0.514,0.584,0.48
976323,828.0,8119.0,-1564.0,0.405,0.514,0.584,0.48
976345,242.0,8057.0,-1532.0,0.407,0.514,0.585,0.478
976357,-672.0,7985.0,-884.0,0.408,0.514,0.585,0.477
976379,166.0,7901.0,-1630.0,0.407,0.514,0.585,0.477
976391,364.0,7983.0,-1922.0,0.407,0.514,0.586,0.476
976413,-534.0,8277.0,-1732.0,0.407,0.514,0.586,0.476
976425,-98.0,8161.0,-1654.0,0.407,0.515,0.586,0.475
976447,390.0,8185.0,-2042.0,0.407,0.515,0.586,0.475
976459,146.0,8123.0,-1890.0,0.408,0.515,0.586,0.474
976481,56.0,8001.0,-1620.0,0.409,0.515,0.587,0.473
976503,-168.0,8037.0,-1534.0,0.41,0.515,0.587,0.471
976515,-78.0,8027.0,-1718.0,0.411,0.515,0.587,0.47
976537,-50.0,8089.0,-1800.0,0.412,0.516,0.587,0.469
976549,474.0,8163.0,-1788.0,0.413,0.516,0.588,0.467
976571,56.0,7731.0,-1600.0,0.415,0.515,0.589,0.465
976583,-1422.0,7909.0,-1830.0,0.416,0.515,0.59,0.463
976605,-822.0,8015.0,-1924.0,0.415,0.516,0.589,0.463
976617,616.0,8241.0,-1688.0,0.415,0.517,0.588,0.463
976639,316.0,8069.0,-1806.0,0.415,0.517,0.588,0.462
976651,-876.0,7721.0,-1850.0,0.416,0.517,0.589,0.461
976673,-422.0,7857.0,-1854.0,0.416,0.518,0.588,0.461
976695,230.0,8003.0,-1896.0,0.416,0.519,0.588,0.461
976707,192.0,8063.0,-1786.0,0.416,0.52,0.587,0.46
976729,-140.0,7949.0,-1668.0,0.417,0.52,0.587,0.459
976741,-376.0,7995.0,-1766.0,0.417,0.521,0.587,0.459
976763,-94.0,8015.0,-1842.0,0.417,0.521,0.586,0.459
976775,-106.0,8145.0,-2024.0,0.417,0.522,0.586,0.458
976797,-202.0,8205.0,-1844.0,0.418,0.523,0.585,0.458
976809,-190.0,7893.0,-1724.0,0.418,0.523,0.585,0.457
976831,-282.0,7931.0,-1992.0,0.418,0.523,0.585,0.457
976843,212.0,7977.0,-1866.0,0.418,0.523,0.585,0.458
976865,-28.0,7859.0,-1772.0,0.418,0.523,0.585,0.457
976887,-614.0,7819.0,-1900.0,0.418,0.523,0.585,0.457
976899,-50.0,7977.0,-1972.0,0.418,0.524,0.585,0.457
976921,412.0,7993.0,-1794.0,0.418,0.524,0.585,0.457
976933,6.0,7905.0,-1848.0,0.419,0.523,0.586,0.456
976960,-702.0,7807.0,-1862.0,0.419,0.523,0.586,0.456
976972,-52.0,7999.0,-1848.0,0.419,0.523,0.585,0.456
976984,214.0,8173.0,-1740.0,0.419,0.523,0.585,0.456
977006,-248.0,8051.0,-1770.0,0.42,0.523,0.585,0.456
977018,-216.0,7995.0,-1840.0,0.42,0.523,0.585,0.456
977040,84.0,8031.0,-1900.0,0.42,0.523,0.586,0.455
977052,-240.0,7959.0,-1894.0,0.42,0.523,0.586,0.455
977074,-100.0,7921.0,-1822.0,0.42,0.523,0.586,0.455
977096,-370.0,7915.0,-1894.0,0.421,0.522,0.587,0.454
977108,-472.0,7945.0,-1960.0,0.421,0.522,0.587,0.453
977130,-84.0,8057.0,-1802.0,0.422,0.522,0.586,0.453
977142,66.0,8105.0,-1792.0,0.422,0.522,0.587,0.453
977164,-324.0,8001.0,-1946.0,0.423,0.522,0.587,0.451
977176,-304.0,7941.0,-1870.0,0.423,0.522,0.588,0.45
977198,-64.0,8009.0,-2028.0,0.424,0.522,0.588,0.45
977210,-380.0,7999.0,-1898.0,0.425,0.522,0.588,0.449
977232,-776.0,7997.0,-1758.0,0.426,0.522,0.588,0.448
977244,-102.0,8003.0,-1846.0,0.426,0.522,0.588,0.448
977266,-200.0,7887.0,-1928.0,0.426,0.522,0.588,0.447
977288,-748.0,7827.0,-1894.0,0.427,0.522,0.589,0.446
977300,-768.0,8069.0,-1848.0,0.427,0.522,0.588,0.446
977322,122.0,8139.0,-1796.0,0.426,0.523,0.588,0.446
977334,-190.0,7865.0,-2034.0,0.427,0.523,0.588,0.446
977356,-666.0,7943.0,-2006.0,0.427,0.523,0.588,0.445
977368,-144.0,7985.0,-1712.0,0.427,0.524,0.587,0.445
977390,-176.0,7897.0,-1836.0,0.427,0.524,0.587,0.445
977402,-680.0,7973.0,-1992.0,0.427,0.524,0.587,0.445
977424,-292.0,8031.0,-1844.0,0.427,0.525,0.587,0.445
977436,-452.0,7973.0,-1842.0,0.427,0.525,0.587,0.444
977458,-382.0,7995.0,-2056.0,0.427,0.526,0.587,0.444
977480,58.0,7999.0,-1980.0,0.427,0.526,0.587,0.444
977492,-306.0,7903.0,-1902.0,0.428,0.526,0.587,0.443
977514,-552.0,7891.0,-2030.0,0.428,0.526,0.587,0.443
977526,-386.0,7909.0,-1950.0,0.428,0.527,0.586,0.442
977548,-442.0,8003.0,-1906.0,0.428,0.527,0.586,0.442
977560,-202.0,8031.0,-1882.0,0.428,0.527,0.586,0.442
977582,-216.0,7927.0,-1984.0,0.428,0.527,0.586,0.442
977594,-248.0,7895.0,-1958.0,0.428,0.527,0.586,0.442
977616,-214.0,7923.0,-1874.0,0.428,0.527,0.586,0.442
977628,-146.0,7897.0,-1800.0,0.428,0.527,0.586,0.442
977650,-250.0,7961.0,-1894.0,0.428,0.527,0.586,0.442
977672,-302.0,7965.0,-1972.0,0.428,0.527,0.586,0.441
977684,-464.0,8043.0,-1974.0,0.429,0.527,0.586,0.441
977706,-308.0,8045.0,-1988.0,0.429,0.527,0.586,0.441
977718,-156.0,8047.0,-1952.0,0.429,0.527,0.587,0.441
977740,-266.0,7919.0,-1950.0,0.429,0.527,0.587,0.44
977752,-538.0,7837.0,-2038.0,0.43,0.526,0.587,0.44
977774,-492.0,7911.0,-1890.0,0.43,0.526,0.587,0.44
977786,-338.0,7977.0,-1840.0,0.43,0.526,0.587,0.439
977808,-274.0,7973.0,-1864.0,0.431,0.526,0.588,0.439
977820,-472.0,7953.0,-1976.0,0.431,0.526,0.588,0.438
977842,-594.0,8005.0,-1898.0,0.432,0.525,0.589,0.437
977864,-436.0,7973.0,-1880.0,0.432,0.525,0.589,0.437
977876,-600.0,7939.0,-2000.0,0.432,0.525,0.589,0.436
977898,-532.0,7969.0,-1988.0,0.433,0.525,0.589,0.436
977910,-300.0,7983.0,-1914.0,0.433,0.526,0.589,0.435
977932,-490.0,8049.0,-1970.0,0.433,0.526,0.589,0.435
977944,-628.0,7953.0,-2034.0,0.433,0.526,0.589,0.434
977966,-514.0,7911.0,-2098.0,0.433,0.526,0.589,0.434
977978,-352.0,7907.0,-1992.0,0.434,0.527,0.589,0.433
978000,-492.0,7901.0,-1946.0,0.434,0.527,0.589,0.433
978012,-604.0,7827.0,-2008.0,0.434,0.527,0.589,0.432
978034,-552.0,7903.0,-2034.0,0.435,0.527,0.588,0.432
978056,-664.0,7961.0,-1898.0,0.435,0.528,0.588,0.432
978068,-222.0,8029.0,-1976.0,0.435,0.528,0.588,0.432
978090,-426.0,8053.0,-2004.0,0.435,0.528,0.588,0.431
978102,-482.0,7927.0,-2006.0,0.435,0.529,0.588,0.431
978124,-514.0,7867.0,-2060.0,0.435,0.529,0.588,0.43
978136,-492.0,7923.0,-1996.0,0.436,0.529,0.588,0.43
978158,-412.0,7933.0,-1954.0,0.436,0.529,0.588,0.43
978180,-491.0,8002.0,-1945.0,0.436,0.529,0.588,0.43
978192,-517.0,8049.0,-2024.0,0.436,0.529,0.588,0.429
978214,-609.0,8027.0,-1923.0,0.437,0.529,0.588,0.429
978226,-491.0,7984.0,-1903.0,0.437,0.529,0.588,0.429
978248,-457.0,7861.0,-2092.0,0.437,0.529,0.588,0.428
978260,-635.0,7874.0,-1990.0,0.437,0.529,0.588,0.428
978282,-521.0,7879.0,-2037.0,0.436,0.529,0.588,0.428
978294,-450.0,7951.0,-1921.0,0.436,0.529,0.588,0.428
978316,-504.0,7972.0,-1980.0,0.436,0.529,0.589,0.428
978328,-746.0,7940.0,-2077.0,0.436,0.529,0.589,0.428
978350,-608.0,8098.0,-1953.0,0.436,0.529,0.589,0.428
978362,-402.0,7984.0,-2015.0,0.436,0.53,0.589,0.428
978384,-534.0,7920.0,-2143.0,0.436,0.53,0.589,0.428
978406,-562.0,7840.0,-2017.0,0.436,0.53,0.589,0.427
978418,-512.0,7754.0,-2067.0,0.436,0.53,0.589,0.427
978440,-632.0,7850.0,-2109.0,0.436,0.53,0.589,0.427
978452,-520.0,7896.0,-2103.0,0.436,0.53,0.589,0.427
978474,-404.0,8056.0,-2033.0,0.436,0.53,0.589,0.427
978486,-700.0,8054.0,-2141.0,0.436,0.53,0.589,0.426
978508,-564.0,8032.0,-2033.0,0.436,0.53,0.589,0.426
978520,-532.0,7932.0,-1965.0,0.436,0.53,0.589,0.426
978542,-408.0,7952.0,-2083.0,0.436,0.531,0.589,0.426
978554,-436.0,7988.0,-1935.0,0.436,0.531,0.589,0.426
978576,-434.0,7876.0,-1947.0,0.436,0.531,0.589,0.426
978598,-470.0,7862.0,-2033.0,0.437,0.531,0.588,0.426
978610,-478.0,7856.0,-2011.0,0.437,0.531,0.588,0.425
978632,-488.0,7958.0,-1997.0,0.437,0.532,0.588,0.425
978644,-440.0,8030.0,-2091.0,0.437,0.532,0.588,0.424
978666,-742.0,7974.0,-2143.0,0.437,0.532,0.589,0.424
978678,-864.0,7910.0,-2211.0,0.437,0.532,0.589,0.424
978700,-778.0,7918.0,-2083.0,0.438,0.532,0.589,0.423
978712,-516.0,7926.0,-2063.0,0.437,0.532,0.588,0.423
978734,-402.0,7922.0,-2115.0,0.437,0.532,0.588,0.423
978746,-380.0,7836.0,-2077.0,0.437,0.532,0.589,0.423
978768,-436.0,7910.0,-1971.0,0.437,0.532,0.589,0.423
978790,-390.0,7936.0,-2023.0,0.437,0.532,0.589,0.423
978802,-468.0,7874.0,-2073.0,0.438,0.532,0.589,0.422
978824,-578.0,7904.0,-2043.0,0.438,0.532,0.589,0.422
978836,-600.0,7964.0,-2087.0,0.438,0.532,0.589,0.422
978858,-542.0,7970.0,-2069.0,0.439,0.532,0.589,0.421
978870,-614.0,8058.0,-1963.0,0.439,0.532,0.589,0.421
978892,-560.0,7882.0,-2033.0,0.439,0.532,0.59,0.421
978904,-634.0,7876.0,-2169.0,0.439,0.532,0.59,0.42
978926,-676.0,7814.0,-2197.0,0.439,0.532,0.59,0.42
978938,-640.0,7840.0,-2203.0,0.439,0.532,0.59,0.42
978965,-650.0,7984.0,-2101.0,0.439,0.532,0.59,0.42
978977,-758.0,7954.0,-1939.0,0.44,0.532,0.59,0.419
978999,-526.0,8024.0,-1995.0,0.44,0.532,0.59,0.419
979011,-590.0,7946.0,-2087.0,0.44,0.532,0.59,0.419
979033,-816.0,8006.0,-2069.0,0.44,0.532,0.59,0.419
979045,-390.0,7992.0,-1965.0,0.439,0.533,0.589,0.419
979067,-492.0,7952.0,-2119.0,0.439,0.533,0.59,0.418
979079,-606.0,7808.0,-2107.0,0.439,0.533,0.59,0.418
979101,-550.0,7828.0,-2103.0,0.44,0.533,0.59,0.418
979113,-742.0,7858.0,-2071.0,0.44,0.533,0.59,0.418
979135,-700.0,7892.0,-2089.0,0.44,0.533,0.59,0.418
979147,-526.0,8020.0,-2151.0,0.44,0.533,0.59,0.418
979169,-696.0,7986.0,-2063.0,0.44,0.533,0.59,0.418
979191,-794.0,7974.0,-2105.0,0.44,0.534,0.59,0.418
979203,-506.0,7914.0,-2191.0,0.439,0.534,0.589,0.418
979225,-526.0,7860.0,-2131.0,0.44,0.534,0.589,0.418
979237,-550.0,7812.0,-2113.0,0.44,0.534,0.589,0.417
979259,-460.0,7790.0,-2037.0,0.44,0.534,0.589,0.417
979271,-726.0,7916.0,-2111.0,0.44,0.535,0.589,0.417
979293,-536.0,7990.0,-2103.0,0.44,0.535,0.589,0.417
979305,-436.0,7984.0,-2139.0,0.44,0.535,0.589,0.416
979327,-776.0,7874.0,-2201.0,0.44,0.535,0.589,0.416
979339,-782.0,7962.0,-2045.0,0.441,0.535,0.588,0.416
979361,-550.0,7990.0,-2103.0,0.441,0.536,0.588,0.416
979383,-500.0,7832.0,-2205.0,0.441,0.536,0.588,0.416
979395,-618.0,7778.0,-2097.0,0.441,0.536,0.588,0.416
979417,-726.0,7920.0,-2083.0,0.441,0.536,0.588,0.416
979429,-448.0,7970.0,-2113.0,0.441,0.536,0.588,0.416
979451,-578.0,7954.0,-2095.0,0.441,0.536,0.588,0.415
979463,-542.0,7912.0,-2105.0,0.441,0.536,0.588,0.415
979485,-508.0,7972.0,-2115.0,0.441,0.536,0.588,0.415
979497,-418.0,7920.0,-2069.0,0.441,0.536,0.588,0.415
979519,-718.0,7816.0,-2189.0,0.442,0.536,0.588,0.414
979531,-874.0,7950.0,-2201.0,0.442,0.536,0.588,0.414
979553,-822.0,7908.0,-2067.0,0.442,0.536,0.588,0.414
979575,-778.0,7902.0,-2203.0,0.442,0.536,0.588,0.414
979587,-544.0,8024.0,-2167.0,0.442,0.537,0.588,0.414
979609,-500.0,7996.0,-1999.0,0.441,0.537,0.588,0.414
979621,-572.0,7762.0,-2125.0,0.441,0.537,0.588,0.414
979643,-676.0,7826.0,-2285.0,0.441,0.537,0.588,0.414
979655,-504.0,7886.0,-2141.0,0.441,0.537,0.588,0.414
979677,-642.0,8008.0,-2079.0,0.442,0.537,0.588,0.414
979689,-706.0,8020.0,-2093.0,0.441,0.537,0.588,0.414
979711,-570.0,7944.0,-2159.0,0.441,0.537,0.588,0.414
979723,-668.0,7988.0,-2135.0,0.441,0.537,0.588,0.414
979745,-628.0,7894.0,-2185.0,0.441,0.538,0.588,0.414
979767,-560.0,7826.0,-2245.0,0.441,0.538,0.587,0.414
979779,-502.0,7796.0,-2141.0,0.441,0.538,0.587,0.414
979801,-404.0,7904.0,-2007.0,0.441,0.538,0.587,0.414
979813,-640.0,7882.0,-1995.0,0.442,0.538,0.587,0.414
979835,-684.0,7900.0,-2125.0,0.442,0.538,0.587,0.414
979847,-482.0,7968.0,-2031.0,0.442,0.538,0.587,0.414
979869,-588.0,7928.0,-2173.0,0.442,0.538,0.587,0.414
979881,-692.0,7940.0,-2179.0,0.443,0.538,0.587,0.413
979903,-534.0,7908.0,-1989.0,0.443,0.538,0.587,0.413
979915,-576.0,7986.0,-2095.0,0.443,0.538,0.587,0.413
979937,-670.0,7906.0,-2195.0,0.443,0.538,0.587,0.413
979959,-652.0,7880.0,-2161.0,0.443,0.538,0.587,0.413
979971,-698.0,7894.0,-2193.0,0.443,0.538,0.587,0.412
979993,-676.0,7892.0,-2235.0,0.443,0.538,0.587,0.412
980005,-700.0,7938.0,-2175.0,0.443,0.538,0.587,0.412
980027,-602.0,7900.0,-2097.0,0.443,0.538,0.587,0.412
980039,-552.0,7918.0,-2053.0,0.443,0.538,0.587,0.412
980061,-450.0,7938.0,-2155.0,0.443,0.538,0.587,0.412
980073,-444.0,7968.0,-2107.0,0.443,0.538,0.587,0.412
980095,-778.0,7700.0,-2107.0,0.443,0.538,0.587,0.412
980107,-976.0,7910.0,-2233.0,0.443,0.538,0.587,0.412
980129,-472.0,8014.0,-2043.0,0.443,0.538,0.587,0.412
980151,-474.0,7906.0,-2047.0,0.443,0.538,0.587,0.412
980163,-1074.0,7784.0,-2257.0,0.443,0.538,0.587,0.411
980185,-600.0,8002.0,-2115.0,0.443,0.538,0.587,0.412
980197,-258.0,7930.0,-1993.0,0.443,0.538,0.587,0.412
980219,-750.0,7786.0,-2255.0,0.443,0.537,0.588,0.412
980231,-870.0,7858.0,-2193.0,0.443,0.537,0.588,0.412
980253,-488.0,7954.0,-1927.0,0.443,0.537,0.587,0.412
980265,-464.0,7928.0,-2165.0,0.443,0.537,0.588,0.412
980287,-550.0,7826.0,-2177.0,0.443,0.537,0.588,0.412
980299,-600.0,7862.0,-2029.0,0.443,0.537,0.588,0.411
980321,-576.0,7888.0,-2103.0,0.443,0.537,0.588,0.411
980343,-686.0,7996.0,-2127.0,0.444,0.537,0.589,0.41
980355,-606.0,7814.0,-1909.0,0.444,0.537,0.589,0.409
980377,-404.0,7608.0,-1915.0,0.445,0.537,0.589,0.407
980389,-418.0,7708.0,-1981.0,0.446,0.538,0.59,0.405
980411,-588.0,7656.0,-1551.0,0.446,0.539,0.592,0.401
980423,-576.0,8128.0,-1869.0,0.446,0.54,0.594,0.396
980445,-402.0,7742.0,-2013.0,0.446,0.542,0.597,0.39
980457,-680.0,7744.0,-2173.0,0.445,0.542,0.601,0.384
980479,-1012.0,7888.0,-2811.0,0.443,0.542,0.605,0.379
980491,-298.0,7868.0,-2429.0,0.442,0.543,0.609,0.373
980513,1008.0,7744.0,-1985.0,0.44,0.543,0.614,0.366
980535,1396.0,7698.0,-1783.0,0.439,0.541,0.622,0.357
980547,1014.0,7192.0,-2373.0,0.438,0.537,0.634,0.344
980569,578.0,6936.0,-2715.0,0.439,0.531,0.646,0.328
980581,528.0,7036.0,-2731.0,0.441,0.523,0.66,0.31
980603,434.0,7068.0,-3281.0,0.442,0.511,0.677,0.29
980615,-508.0,6588.0,-4311.0,0.446,0.494,0.696,0.27
980637,-2688.0,5866.0,-3689.0,0.452,0.474,0.714,0.248
980649,-4132.0,6006.0,-3177.0,0.457,0.455,0.73,0.227
980671,-4574.0,5568.0,-3471.0,0.458,0.438,0.745,0.208
980693,-5132.0,4784.0,-3041.0,0.46,0.424,0.757,0.188
980705,-5826.0,4344.0,-2671.0,0.46,0.414,0.768,0.166
980727,-5694.0,4296.0,-3339.0,0.458,0.407,0.777,0.144
980739,-5212.0,4188.0,-3997.0,0.455,0.402,0.785,0.122
980761,-4214.0,4288.0,-4897.0,0.452,0.396,0.793,0.1
980773,-3862.0,3772.0,-5045.0,0.45,0.387,0.801,0.078
980795,-4742.0,2894.0,-4637.0,0.449,0.374,0.81,0.055
980807,-5512.0,2734.0,-4651.0,0.445,0.36,0.819,0.034
980829,-5390.0,2034.0,-4563.0,0.44,0.345,0.829,0.013
980841,-5428.0,1288.0,-4531.0,0.434,0.329,0.839,-0.009
980863,-5896.0,596.0,-4753.0,0.433,0.312,0.845,-0.033
980875,-6758.0,-100.0,-4021.0,0.429,0.297,0.851,-0.058
980897,-8164.0,-1158.0,-4631.0,0.425,0.284,0.855,-0.085
980919,-8782.0,-1500.0,-6005.0,0.421,0.276,0.858,-0.107
980931,-7632.0,-964.0,-6397.0,0.419,0.27,0.858,-0.124
980953,-5858.0,-1074.0,-5453.0,0.416,0.263,0.859,-0.139
980970,-5110.0,-1322.0,-4803.0,0.412,0.252,0.862,-0.155
980982,-5756.0,-1824.0,-5161.0,0.407,0.239,0.865,-0.172
981004,-7284.0,-2304.0,-5753.0,0.402,0.225,0.867,-0.188
981016,-7884.0,-1656.0,-4467.0,0.398,0.211,0.87,-0.202
981038,-6758.0,-1532.0,-3503.0,0.392,0.201,0.871,-0.216
981050,-6470.0,-2366.0,-3671.0,0.382,0.192,0.874,-0.231
981072,-7078.0,-3080.0,-6237.0,0.376,0.183,0.874,-0.246
981084,-6996.0,-3046.0,-6395.0,0.372,0.175,0.874,-0.258
981106,-6692.0,-3014.0,-5331.0,0.369,0.168,0.874,-0.266
981128,-6866.0,-3190.0,-5039.0,0.367,0.161,0.874,-0.275
981140,-7646.0,-3584.0,-5543.0,0.364,0.155,0.874,-0.282
981162,-7766.0,-3780.0,-5923.0,0.363,0.152,0.873,-0.287
981174,-6612.0,-3658.0,-5685.0,0.362,0.15,0.874,-0.288
981196,-5658.0,-3392.0,-4971.0,0.361,0.148,0.874,-0.289
981208,-5672.0,-3392.0,-4645.0,0.358,0.145,0.876,-0.289
981230,-6252.0,-3514.0,-4899.0,0.356,0.142,0.877,-0.29
981242,-6674.0,-3642.0,-5069.0,0.355,0.141,0.878,-0.289
981264,-6106.0,-3608.0,-4623.0,0.355,0.141,0.878,-0.288
981286,-5602.0,-3480.0,-4789.0,0.354,0.14,0.879,-0.288
981298,-5490.0,-3402.0,-4897.0,0.354,0.14,0.879,-0.287
981320,-5544.0,-3416.0,-4753.0,0.352,0.139,0.88,-0.287
981332,-6134.0,-3424.0,-4867.0,0.351,0.138,0.881,-0.286
981354,-6214.0,-3504.0,-4899.0,0.351,0.137,0.881,-0.286
981366,-5900.0,-3442.0,-4933.0,0.351,0.138,0.881,-0.285
981388,-5352.0,-3188.0,-4787.0,0.352,0.138,0.881,-0.284
981400,-5428.0,-3292.0,-4779.0,0.352,0.137,0.882,-0.283
981422,-5782.0,-3348.0,-4925.0,0.351,0.136,0.882,-0.283
981434,-5880.0,-3198.0,-4745.0,0.351,0.135,0.883,-0.282
981456,-5544.0,-3222.0,-4427.0,0.351,0.134,0.883,-0.282
981478,-5746.0,-3310.0,-4793.0,0.35,0.134,0.883,-0.282
981490,-6036.0,-3442.0,-5163.0,0.35,0.134,0.883,-0.282
981512,-6096.0,-3596.0,-5229.0,0.35,0.134,0.884,-0.281
981524,-6008.0,-3442.0,-5199.0,0.35,0.134,0.884,-0.279
981546,-5260.0,-3128.0,-4671.0,0.351,0.135,0.884,-0.277
981558,-5140.0,-3176.0,-4465.0,0.35,0.135,0.885,-0.277
981580,-5566.0,-3294.0,-4917.0,0.349,0.134,0.885,-0.277
981592,-5810.0,-3250.0,-4969.0,0.349,0.134,0.885,-0.277
981614,-5788.0,-3420.0,-4971.0,0.349,0.134,0.886,-0.276
981626,-5850.0,-3374.0,-5127.0,0.349,0.134,0.886,-0.276
981648,-5932.0,-3282.0,-5227.0,0.349,0.134,0.886,-0.275
981670,-5658.0,-3256.0,-4899.0,0.349,0.135,0.886,-0.274
981682,-5186.0,-3112.0,-4697.0,0.349,0.135,0.887,-0.273
981704,-5464.0,-3170.0,-4833.0,0.348,0.135,0.887,-0.272
981716,-5832.0,-3266.0,-5039.0,0.348,0.134,0.887,-0.272
981738,-5800.0,-3302.0,-4923.0,0.348,0.134,0.887,-0.272
981750,-5880.0,-3254.0,-5169.0,0.349,0.134,0.887,-0.272
981772,-5716.0,-3190.0,-5209.0,0.349,0.135,0.887,-0.271
981784,-5574.0,-3132.0,-5081.0,0.349,0.135,0.887,-0.27
981806,-5350.0,-3134.0,-4877.0,0.348,0.135,0.888,-0.269
981818,-5574.0,-3120.0,-5011.0,0.348,0.134,0.888,-0.269
981840,-5692.0,-3130.0,-4851.0,0.348,0.134,0.888,-0.268
981862,-5748.0,-3202.0,-4855.0,0.348,0.134,0.888,-0.268
981874,-5720.0,-3248.0,-5067.0,0.348,0.134,0.888,-0.268
981896,-5718.0,-3258.0,-5281.0,0.348,0.134,0.888,-0.268
981908,-5660.0,-3270.0,-5049.0,0.348,0.134,0.888,-0.268
981930,-5766.0,-3270.0,-5085.0,0.348,0.134,0.889,-0.267
981942,-5640.0,-3072.0,-5095.0,0.348,0.134,0.889,-0.266
981964,-5458.0,-3054.0,-4959.0,0.348,0.134,0.889,-0.266
981976,-5428.0,-3086.0,-4901.0,0.348,0.134,0.889,-0.265
981998,-5492.0,-3068.0,-4867.0,0.348,0.133,0.889,-0.265
982010,-5558.0,-3112.0,-4915.0,0.348,0.133,0.889,-0.265
982032,-5734.0,-3190.0,-5143.0,0.348,0.133,0.889,-0.266
982054,-5822.0,-3206.0,-5215.0,0.348,0.132,0.889,-0.266
982066,-5714.0,-3120.0,-5063.0,0.348,0.132,0.889,-0.266
982088,-5424.0,-3066.0,-4983.0,0.347,0.133,0.89,-0.266
982100,-5430.0,-3084.0,-5079.0,0.347,0.132,0.89,-0.266
982122,-5800.0,-3184.0,-5103.0,0.347,0.131,0.89,-0.266
982134,-5842.0,-3120.0,-5091.0,0.347,0.131,0.89,-0.266
982156,-5678.0,-3174.0,-5091.0,0.347,0.131,0.89,-0.266
982168,-5542.0,-3162.0,-5115.0,0.347,0.131,0.89,-0.266
982190,-5428.0,-3090.0,-5015.0,0.347,0.131,0.89,-0.266
982202,-5696.0,-3174.0,-5033.0,0.346,0.13,0.89,-0.266
982224,-5852.0,-3236.0,-5163.0,0.346,0.13,0.89,-0.265
982246,-5720.0,-3132.0,-5037.0,0.346,0.13,0.89,-0.265
982258,-5522.0,-3150.0,-4997.0,0.346,0.13,0.891,-0.265
982280,-5530.0,-3052.0,-5115.0,0.346,0.13,0.891,-0.265
982292,-5566.0,-3140.0,-5063.0,0.346,0.129,0.891,-0.265
982314,-5692.0,-3186.0,-5151.0,0.345,0.129,0.891,-0.265
982326,-5758.0,-3200.0,-5177.0,0.345,0.129,0.891,-0.265
982348,-5472.0,-3164.0,-5145.0,0.345,0.129,0.891,-0.265
982360,-5606.0,-3162.0,-5135.0,0.345,0.129,0.891,-0.264
982382,-5748.0,-3114.0,-5095.0,0.345,0.129,0.891,-0.264
982394,-5664.0,-3162.0,-5109.0,0.345,0.129,0.892,-0.264
982416,-5602.0,-3180.0,-5147.0,0.345,0.129,0.892,-0.264
982438,-5613.0,-3187.0,-5227.0,0.345,0.129,0.892,-0.263
982450,-5601.0,-3247.0,-5195.0,0.345,0.129,0.892,-0.262
982472,-5738.0,-3190.0,-5249.0,0.344,0.129,0.892,-0.262
982484,-5620.0,-3071.0,-5207.0,0.344,0.13,0.893,-0.261
982506,-5337.0,-2936.0,-4975.0,0.344,0.13,0.893,-0.26
982518,-5317.0,-2926.0,-4827.0,0.344,0.13,0.893,-0.26
982540,-5513.0,-2994.0,-5059.0,0.344,0.129,0.893,-0.26
982552,-5683.0,-3090.0,-5191.0,0.344,0.129,0.893,-0.26
982574,-5603.0,-3064.0,-5015.0,0.344,0.128,0.893,-0.26
982586,-5581.0,-3150.0,-5127.0,0.345,0.128,0.893,-0.26
982608,-5567.0,-3144.0,-5211.0,0.345,0.128,0.893,-0.26
982630,-5647.0,-3186.0,-5177.0,0.345,0.127,0.893,-0.26
982642,-5685.0,-3076.0,-5131.0,0.345,0.127,0.893,-0.26
982664,-5523.0,-3017.0,-5146.0,0.345,0.127,0.893,-0.26
982676,-5453.0,-2995.0,-5102.0,0.345,0.127,0.893,-0.26
982698,-5508.0,-3107.0,-5054.0,0.345,0.127,0.893,-0.26
982710,-5576.0,-3124.0,-5097.0,0.345,0.127,0.893,-0.26
982732,-5641.0,-3158.0,-5270.0,0.345,0.126,0.893,-0.26
982744,-5551.0,-3140.0,-5248.0,0.345,0.126,0.893,-0.26
982766,-5563.0,-3032.0,-5100.0,0.345,0.126,0.893,-0.26
982778,-5739.0,-3128.0,-5116.0,0.345,0.126,0.893,-0.26
982800,-5565.0,-3118.0,-5104.0,0.345,0.126,0.893,-0.26
982822,-5455.0,-3104.0,-5158.0,0.345,0.126,0.893,-0.26
982834,-5499.0,-3060.0,-5158.0,0.345,0.126,0.893,-0.26
982856,-5699.0,-3150.0,-5144.0,0.345,0.125,0.893,-0.26
982868,-5827.0,-3138.0,-5178.0,0.345,0.125,0.893,-0.26
982890,-5521.0,-3098.0,-5150.0,0.345,0.125,0.893,-0.26
982902,-5437.0,-3096.0,-5076.0,0.345,0.125,0.893,-0.26
982924,-5713.0,-3140.0,-5216.0,0.345,0.125,0.893,-0.26
982936,-5571.0,-3094.0,-5158.0,0.345,0.125,0.893,-0.26
982958,-5367.0,-3076.0,-5030.0,0.345,0.125,0.893,-0.26
982975,-5609.0,-3096.0,-5150.0,0.345,0.125,0.893,-0.26
982987,-5669.0,-3112.0,-5222.0,0.346,0.125,0.893,-0.26
983009,-5603.0,-3102.0,-5070.0,0.346,0.125,0.893,-0.26
983031,-5527.0,-3114.0,-5066.0,0.346,0.125,0.893,-0.26
983043,-5575.0,-3116.0,-5186.0,0.346,0.125,0.893,-0.26
983065,-5629.0,-3110.0,-5148.0,0.346,0.124,0.893,-0.26
983077,-5633.0,-3092.0,-5112.0,0.346,0.124,0.893,-0.26
983099,-5617.0,-3082.0,-5140.0,0.346,0.124,0.893,-0.26
983111,-5629.0,-3078.0,-5096.0,0.347,0.124,0.893,-0.26
983133,-5627.0,-3126.0,-5226.0,0.347,0.124,0.893,-0.26
983145,-5611.0,-3178.0,-5254.0,0.347,0.124,0.893,-0.26
983167,-5613.0,-3096.0,-5012.0,0.347,0.124,0.893,-0.26
983189,-5417.0,-3106.0,-4986.0,0.347,0.124,0.893,-0.26
983201,-5563.0,-3118.0,-5206.0,0.347,0.123,0.893,-0.26
983223,-5829.0,-3166.0,-5230.0,0.347,0.123,0.893,-0.26
983235,-5659.0,-3176.0,-5086.0,0.347,0.123,0.892,-0.26
983257,-5453.0,-3084.0,-5054.0,0.348,0.123,0.892,-0.26
983269,-5587.0,-3078.0,-5208.0,0.348,0.123,0.892,-0.26
983291,-5713.0,-3124.0,-5202.0,0.348,0.123,0.892,-0.26
983303,-5641.0,-3172.0,-5206.0,0.348,0.123,0.892,-0.26
983325,-5511.0,-3076.0,-5078.0,0.348,0.123,0.892,-0.26
983337,-5729.0,-3150.0,-5106.0,0.348,0.123,0.892,-0.26
983359,-5787.0,-3190.0,-5236.0,0.348,0.123,0.892,-0.26
983371,-5677.0,-3096.0,-5180.0,0.348,0.123,0.892,-0.26
983393,-5663.0,-3078.0,-5114.0,0.349,0.123,0.892,-0.259
983415,-5429.0,-3020.0,-4996.0,0.349,0.123,0.892,-0.259
983427,-5471.0,-3020.0,-5038.0,0.349,0.123,0.892,-0.259
983449,-5631.0,-3028.0,-5080.0,0.349,0.123,0.892,-0.259
983461,-5647.0,-3110.0,-5084.0,0.349,0.123,0.892,-0.259
983483,-5675.0,-3090.0,-5248.0,0.349,0.123,0.892,-0.259
983495,-5809.0,-3120.0,-5222.0,0.35,0.123,0.892,-0.259
983517,-5785.0,-3110.0,-5154.0,0.35,0.123,0.892,-0.259
983529,-5693.0,-3080.0,-5172.0,0.35,0.123,0.892,-0.259
983551,-5511.0,-3012.0,-5088.0,0.351,0.124,0.892,-0.259
983573,-5387.0,-3014.0,-5032.0,0.351,0.124,0.892,-0.258
983585,-5697.0,-3068.0,-5094.0,0.35,0.123,0.892,-0.258
983607,-5657.0,-3082.0,-4994.0,0.351,0.123,0.892,-0.258
983619,-5619.0,-3136.0,-5168.0,0.351,0.123,0.892,-0.259
983641,-5737.0,-3124.0,-5176.0,0.35,0.123,0.892,-0.259
983653,-5695.0,-3094.0,-5038.0,0.35,0.124,0.892,-0.259
983675,-5679.0,-3086.0,-5136.0,0.35,0.124,0.892,-0.259
983687,-5609.0,-2994.0,-5304.0,0.35,0.124,0.892,-0.259
983709,-5635.0,-3050.0,-5104.0,0.35,0.124,0.892,-0.258
983721,-5577.0,-3018.0,-5026.0,0.35,0.124,0.892,-0.258
983743,-5675.0,-3140.0,-5188.0,0.35,0.124,0.892,-0.258
983765,-5767.0,-3104.0,-5182.0,0.35,0.124,0.892,-0.258
983777,-5661.0,-3104.0,-5068.0,0.35,0.124,0.892,-0.258
983799,-5629.0,-3080.0,-5100.0,0.35,0.125,0.892,-0.258
983811,-5569.0,-3094.0,-5108.0,0.35,0.125,0.892,-0.258
983833,-5555.0,-3032.0,-5096.0,0.35,0.125,0.892,-0.258
983845,-5665.0,-3038.0,-5078.0,0.35,0.125,0.892,-0.258
983867,-5707.0,-3046.0,-5152.0,0.35,0.125,0.892,-0.258
983879,-5787.0,-3082.0,-5230.0,0.35,0.125,0.892,-0.258
983901,-5819.0,-3112.0,-5214.0,0.35,0.125,0.892,-0.257
983913,-5651.0,-3038.0,-5208.0,0.35,0.126,0.892,-0.257
983935,-5491.0,-2994.0,-5122.0,0.35,0.126,0.892,-0.256
983957,-5511.0,-3018.0,-5090.0,0.35,0.126,0.892,-0.256
983969,-5649.0,-2954.0,-5162.0,0.35,0.127,0.892,-0.256
983991,-5515.0,-2988.0,-4964.0,0.35,0.127,0.892,-0.256
984003,-5553.0,-3016.0,-5090.0,0.35,0.127,0.892,-0.256
984025,-5769.0,-3058.0,-5292.0,0.35,0.127,0.892,-0.256
984037,-5875.0,-3032.0,-5216.0,0.35,0.127,0.892,-0.255
984059,-5733.0,-3012.0,-5142.0,0.351,0.127,0.892,-0.255
984071,-5561.0,-2958.0,-5138.0,0.351,0.128,0.892,-0.255
984093,-5559.0,-2896.0,-5150.0,0.351,0.128,0.892,-0.254
984105,-5763.0,-2960.0,-5202.0,0.351,0.128,0.892,-0.254
984127,-5721.0,-3072.0,-5188.0,0.351,0.128,0.892,-0.253
984149,-5567.0,-3040.0,-5136.0,0.351,0.128,0.892,-0.253
984161,-5719.0,-3018.0,-5214.0,0.351,0.128,0.893,-0.253
984183,-5779.0,-2962.0,-5228.0,0.35,0.129,0.893,-0.252
984195,-5667.0,-2960.0,-5200.0,0.35,0.129,0.893,-0.252
984217,-5649.0,-2870.0,-5164.0,0.35,0.129,0.893,-0.251
984229,-5625.0,-2906.0,-5188.0,0.35,0.13,0.893,-0.251
984251,-5655.0,-2870.0,-5296.0,0.351,0.13,0.893,-0.25
984263,-5637.0,-2868.0,-5114.0,0.351,0.13,0.893,-0.249
984285,-5551.0,-2870.0,-5074.0,0.351,0.131,0.893,-0.249
984297,-5593.0,-2860.0,-5248.0,0.351,0.13,0.894,-0.248
984319,-5467.0,-2824.0,-5058.0,0.351,0.13,0.894,-0.248
984341,-5547.0,-2828.0,-5112.0,0.351,0.13,0.894,-0.247
984353,-5755.0,-2866.0,-5194.0,0.351,0.13,0.894,-0.247
984375,-5791.0,-2982.0,-5336.0,0.351,0.13,0.894,-0.247
984387,-5641.0,-2882.0,-5292.0,0.352,0.129,0.894,-0.247
984409,-5723.0,-2956.0,-5216.0,0.352,0.129,0.894,-0.247
984421,-5631.0,-2852.0,-5188.0,0.352,0.129,0.894,-0.246
984443,-5599.0,-2796.0,-5144.0,0.352,0.129,0.894,-0.246
984455,-5727.0,-2848.0,-5222.0,0.351,0.129,0.894,-0.246
984477,-5617.0,-2880.0,-5268.0,0.351,0.129,0.894,-0.246
984489,-5547.0,-2822.0,-5238.0,0.351,0.129,0.894,-0.246
984511,-5689.0,-2852.0,-5290.0,0.351,0.128,0.894,-0.245
984533,-5855.0,-2916.0,-5552.0,0.351,0.128,0.895,-0.244
984545,-5595.0,-2786.0,-5362.0,0.351,0.128,0.895,-0.243
984567,-5499.0,-2782.0,-5090.0,0.351,0.127,0.896,-0.242
984579,-5689.0,-2818.0,-5116.0,0.351,0.126,0.896,-0.241
984601,-5739.0,-2788.0,-5196.0,0.351,0.125,0.896,-0.24
984613,-5585.0,-2786.0,-5272.0,0.351,0.125,0.897,-0.24
984635,-5661.0,-2740.0,-5348.0,0.351,0.124,0.897,-0.239
984647,-5697.0,-2768.0,-5406.0,0.351,0.124,0.897,-0.238
984669,-5561.0,-2758.0,-5334.0,0.351,0.123,0.898,-0.237
984681,-5709.0,-2890.0,-5160.0,0.351,0.123,0.898,-0.237
984703,-5695.0,-2758.0,-5234.0,0.351,0.123,0.898,-0.236
984725,-5599.0,-2808.0,-5286.0,0.351,0.122,0.898,-0.236
984737,-5553.0,-2740.0,-5312.0,0.351,0.122,0.898,-0.236
984759,-5659.0,-2766.0,-5418.0,0.351,0.122,0.898,-0.235
984771,-5625.0,-2734.0,-5218.0,0.351,0.121,0.898,-0.234
984793,-5583.0,-2746.0,-5042.0,0.351,0.121,0.898,-0.234
984805,-5633.0,-2750.0,-5328.0,0.351,0.121,0.898,-0.234
984827,-5579.0,-2748.0,-5380.0,0.351,0.121,0.898,-0.234
984839,-5599.0,-2738.0,-5298.0,0.351,0.12,0.898,-0.234
984861,-5685.0,-2714.0,-5256.0,0.352,0.12,0.898,-0.234
984873,-5771.0,-2696.0,-5308.0,0.352,0.12,0.898,-0.234
984895,-5709.0,-2774.0,-5232.0,0.352,0.12,0.898,-0.234
984917,-5515.0,-2730.0,-5364.0,0.352,0.12,0.898,-0.234
984929,-5585.0,-2710.0,-5434.0,0.352,0.12,0.898,-0.234
984951,-5723.0,-2778.0,-5216.0,0.352,0.12,0.898,-0.233
984963,-5739.0,-2762.0,-5160.0,0.352,0.12,0.898,-0.233
984980,-5707.0,-2700.0,-5414.0,0.353,0.12,0.898,-0.233
985002,-5495.0,-2710.0,-5336.0,0.353,0.12,0.898,-0.233
985014,-5553.0,-2754.0,-5180.0,0.353,0.119,0.898,-0.233
985036,-5701.0,-2714.0,-5334.0,0.353,0.119,0.898,-0.233
985048,-5689.0,-2734.0,-5344.0,0.353,0.119,0.898,-0.233
985070,-5691.0,-2654.0,-5310.0,0.353,0.119,0.898,-0.233
985082,-5763.0,-2774.0,-5378.0,0.353,0.119,0.899,-0.232
985104,-5663.0,-2692.0,-5328.0,0.353,0.12,0.899,-0.232
985126,-5513.0,-2688.0,-5110.0,0.353,0.12,0.899,-0.231
985138,-5451.0,-2620.0,-5230.0,0.353,0.119,0.899,-0.231
985160,-5597.0,-2662.0,-5382.0,0.353,0.119,0.899,-0.231
985172,-5539.0,-2638.0,-5360.0,0.353,0.119,0.899,-0.231
985194,-5631.0,-2744.0,-5396.0,0.353,0.118,0.899,-0.23
985206,-5717.0,-2772.0,-5490.0,0.353,0.117,0.899,-0.23
985228,-5651.0,-2708.0,-5684.0,0.353,0.116,0.9,-0.229
985240,-5553.0,-2774.0,-5782.0,0.354,0.115,0.9,-0.227
985262,-5471.0,-2668.0,-5868.0,0.355,0.113,0.9,-0.225
985274,-5263.0,-2702.0,-5804.0,0.357,0.11,0.901,-0.222
985296,-5101.0,-2720.0,-5734.0,0.359,0.106,0.901,-0.218
985318,-5449.0,-2764.0,-6170.0,0.361,0.101,0.902,-0.214
985330,-5785.0,-3176.0,-6592.0,0.365,0.094,0.902,-0.21
985352,-5993.0,-3108.0,-7286.0,0.369,0.087,0.903,-0.201
985364,-5035.0,-2574.0,-8026.0,0.371,0.08,0.906,-0.188
985386,-3791.0,-2676.0,-8810.0,0.371,0.066,0.911,-0.167
985398,-3023.0,-3168.0,-8974.0,0.369,0.044,0.918,-0.139
985420,-2721.0,-2168.0,-4860.0,0.351,0.014,0.93,-0.108
985432,-2403.0,-2446.0,-1646.0,0.322,-0.021,0.943,-0.082
985454,-4111.0,-2340.0,-4696.0,0.3,-0.06,0.95,-0.063
985466,-5729.0,-2776.0,-5150.0,0.288,-0.097,0.951,-0.051
985488,-10329.0,-4566.0,-2642.0,0.274,-0.127,0.952,-0.042
985510,-9673.0,-1630.0,-6386.0,0.269,-0.144,0.952,-0.032
985522,-7257.0,-1308.0,-5324.0,0.272,-0.148,0.951,-0.022
985544,-4763.0,-626.0,-5336.0,0.271,-0.148,0.951,-0.016
985556,-3307.0,-1392.0,-5688.0,0.273,-0.148,0.95,-0.013
985578,-3435.0,-1014.0,-6810.0,0.275,-0.15,0.95,-0.011
985590,-3627.0,-778.0,-8438.0,0.276,-0.155,0.949,-0.008
985612,-3729.0,-1258.0,-8146.0,0.277,-0.162,0.947,-0.001
985624,-3475.0,-886.0,-7154.0,0.276,-0.172,0.946,0.008
985646,-3693.0,-990.0,-6886.0,0.274,-0.186,0.944,0.016
985658,-3089.0,-188.0,-6654.0,0.272,-0.201,0.941,0.024
985680,-3895.0,-2200.0,-6852.0,0.27,-0.219,0.937,0.029
985702,-4481.0,-1832.0,-7098.0,0.267,-0.235,0.934,0.034
985714,-5753.0,-320.0,-6250.0,0.262,-0.251,0.931,0.04
985736,-5585.0,-894.0,-5362.0,0.264,-0.261,0.927,0.046
985748,-4065.0,-70.0,-5814.0,0.267,-0.267,0.925,0.049
985770,-3963.0,338.0,-6022.0,0.274,-0.271,0.922,0.049
985782,-3837.0,-1256.0,-6758.0,0.28,-0.277,0.918,0.048
985804,-2959.0,-954.0,-7422.0,0.282,-0.285,0.915,0.044
985816,-3281.0,-558.0,-8328.0,0.283,-0.297,0.911,0.043
985838,-3109.0,-904.0,-7060.0,0.284,-0.314,0.905,0.045
985850,-3823.0,-1094.0,-7242.0,0.281,-0.333,0.899,0.045
985872,-5157.0,-658.0,-6180.0,0.279,-0.352,0.892,0.046
985894,-6267.0,-1146.0,-5384.0,0.277,-0.368,0.887,0.046
985906,-7277.0,-1600.0,-7328.0,0.276,-0.376,0.883,0.044
985928,-5037.0,-912.0,-6286.0,0.28,-0.379,0.881,0.043
985940,-2949.0,-680.0,-7020.0,0.285,-0.383,0.878,0.044
985962,-2689.0,-1358.0,-7598.0,0.287,-0.39,0.874,0.044
985974,-4641.0,-788.0,-6488.0,0.286,-0.4,0.87,0.041
985996,-5983.0,-1482.0,-7908.0,0.288,-0.407,0.866,0.043
986008,-5403.0,-1592.0,-6528.0,0.288,-0.414,0.862,0.048
986030,-4609.0,-1264.0,-4906.0,0.285,-0.42,0.86,0.049
986042,-6187.0,-1386.0,-5344.0,0.285,-0.425,0.858,0.047
986064,-5591.0,-1430.0,-6700.0,0.287,-0.426,0.857,0.047
986086,-4303.0,-1262.0,-6580.0,0.289,-0.426,0.856,0.045
986098,-4353.0,-1312.0,-7074.0,0.289,-0.426,0.856,0.043
986120,-4537.0,-1480.0,-7476.0,0.29,-0.426,0.856,0.042
986132,-4401.0,-1496.0,-6914.0,0.29,-0.426,0.856,0.041
986154,-4371.0,-1484.0,-6972.0,0.291,-0.427,0.855,0.041
986166,-4297.0,-1464.0,-6816.0,0.291,-0.427,0.855,0.04
986188,-4417.0,-1514.0,-6786.0,0.291,-0.428,0.855,0.04
986200,-4397.0,-1460.0,-6824.0,0.291,-0.429,0.854,0.04
986222,-4463.0,-1420.0,-6796.0,0.291,-0.429,0.854,0.039
986234,-4407.0,-1464.0,-6670.0,0.291,-0.43,0.854,0.039
986256,-4527.0,-1506.0,-6774.0,0.291,-0.43,0.854,0.039
986278,-4349.0,-1432.0,-6898.0,0.291,-0.43,0.854,0.038
986290,-4269.0,-1516.0,-6816.0,0.292,-0.43,0.854,0.038
986312,-4547.0,-1644.0,-6722.0,0.292,-0.43,0.854,0.038
986324,-4303.0,-1512.0,-6636.0,0.292,-0.43,0.854,0.038
986346,-4455.0,-1482.0,-6818.0,0.292,-0.43,0.854,0.037
986358,-4519.0,-1532.0,-6494.0,0.292,-0.428,0.854,0.036
986380,-4333.0,-1556.0,-6868.0,0.292,-0.428,0.855,0.035
986392,-4341.0,-1566.0,-7028.0,0.292,-0.427,0.855,0.034
986414,-4295.0,-1544.0,-6826.0,0.293,-0.426,0.855,0.034
986426,-4265.0,-1612.0,-6700.0,0.293,-0.426,0.855,0.033
986448,-4409.0,-1580.0,-6824.0,0.293,-0.425,0.856,0.033
986470,-4411.0,-1576.0,-6792.0,0.293,-0.425,0.856,0.033
986482,-4289.0,-1558.0,-6876.0,0.293,-0.424,0.856,0.032
986504,-4313.0,-1594.0,-6668.0,0.293,-0.423,0.857,0.031
986516,-4419.0,-1600.0,-6836.0,0.293,-0.422,0.857,0.031
986538,-4227.0,-1562.0,-6874.0,0.294,-0.421,0.858,0.03
986550,-4379.0,-1540.0,-6806.0,0.294,-0.42,0.858,0.03
986572,-4369.0,-1600.0,-6710.0,0.294,-0.419,0.859,0.029
986584,-4423.0,-1622.0,-6808.0,0.294,-0.418,0.859,0.028
986606,-4307.0,-1682.0,-6856.0,0.294,-0.417,0.859,0.028
986618,-4297.0,-1596.0,-6864.0,0.295,-0.416,0.86,0.027
986640,-4369.0,-1554.0,-6852.0,0.294,-0.416,0.86,0.027
986662,-4475.0,-1622.0,-6736.0,0.294,-0.416,0.86,0.027
986674,-4287.0,-1592.0,-6680.0,0.294,-0.415,0.86,0.026
986696,-4381.0,-1644.0,-6766.0,0.294,-0.415,0.861,0.026
986708,-4483.0,-1630.0,-6750.0,0.294,-0.414,0.861,0.025
986730,-4249.0,-1592.0,-6892.0,0.294,-0.413,0.861,0.025
986742,-4437.0,-1640.0,-6938.0,0.294,-0.413,0.862,0.024
986764,-4481.0,-1642.0,-6724.0,0.294,-0.412,0.862,0.024
986776,-4305.0,-1626.0,-6692.0,0.294,-0.412,0.862,0.023
986798,-4473.0,-1694.0,-6858.0,0.294,-0.411,0.863,0.023
986810,-4405.0,-1708.0,-6806.0,0.294,-0.41,0.863,0.022
986832,-4269.0,-1704.0,-6922.0,0.295,-0.409,0.863,0.021
986854,-4389.0,-1658.0,-6994.0,0.295,-0.408,0.864,0.021
986866,-4303.0,-1630.0,-6508.0,0.294,-0.408,0.864,0.021
986888,-4423.0,-1678.0,-6954.0,0.295,-0.407,0.865,0.02
986900,-4273.0,-1612.0,-6730.0,0.295,-0.406,0.865,0.02
986922,-4455.0,-1628.0,-6646.0,0.295,-0.405,0.865,0.019
986934,-4385.0,-1682.0,-6838.0,0.295,-0.404,0.866,0.019
986956,-4321.0,-1708.0,-6756.0,0.295,-0.403,0.866,0.018
986968,-4335.0,-1716.0,-6796.0,0.295,-0.402,0.866,0.018
986985,-4309.0,-1642.0,-6858.0,0.295,-0.402,0.867,0.017
987007,-4307.0,-1694.0,-6706.0,0.295,-0.401,0.867,0.017
987029,-4399.0,-1740.0,-6728.0,0.296,-0.4,0.867,0.016
987041,-4345.0,-1730.0,-6862.0,0.296,-0.399,0.868,0.015
987063,-4247.0,-1670.0,-6972.0,0.296,-0.398,0.868,0.015
987075,-4355.0,-1668.0,-6702.0,0.296,-0.397,0.868,0.015
987097,-4417.0,-1736.0,-6790.0,0.297,-0.397,0.869,0.014
987109,-4343.0,-1690.0,-6774.0,0.297,-0.396,0.869,0.014
987131,-4413.0,-1672.0,-6662.0,0.297,-0.395,0.869,0.014
987143,-4315.0,-1692.0,-6720.0,0.297,-0.394,0.87,0.013
987165,-4329.0,-1792.0,-6870.0,0.297,-0.393,0.87,0.013
987177,-4363.0,-1778.0,-6810.0,0.297,-0.393,0.87,0.012
987199,-4329.0,-1742.0,-6938.0,0.298,-0.392,0.87,0.012
987221,-4317.0,-1702.0,-6728.0,0.297,-0.392,0.87,0.011
987233,-4353.0,-1714.0,-6792.0,0.298,-0.391,0.871,0.011
987255,-4389.0,-1742.0,-6786.0,0.298,-0.391,0.871,0.01
987267,-4359.0,-1662.0,-6654.0,0.297,-0.39,0.871,0.01
987289,-4363.0,-1706.0,-6738.0,0.298,-0.39,0.872,0.009
987301,-4355.0,-1694.0,-6916.0,0.298,-0.389,0.872,0.009
987323,-4337.0,-1776.0,-6908.0,0.298,-0.388,0.872,0.008
987335,-4255.0,-1720.0,-6688.0,0.298,-0.388,0.872,0.008
987357,-4433.0,-1798.0,-6666.0,0.298,-0.387,0.872,0.008
987369,-4407.0,-1780.0,-6680.0,0.298,-0.387,0.873,0.007
987391,-4385.0,-1760.0,-6644.0,0.298,-0.386,0.873,0.006
987413,-4379.0,-1854.0,-6724.0,0.298,-0.385,0.874,0.006
987425,-4249.0,-1742.0,-6814.0,0.298,-0.384,0.874,0.005
987447,-4361.0,-1808.0,-6806.0,0.298,-0.383,0.874,0.005
987459,-4253.0,-1780.0,-6778.0,0.298,-0.382,0.875,0.004
987481,-4287.0,-1760.0,-6690.0,0.298,-0.381,0.875,0.004
987493,-4441.0,-1746.0,-6672.0,0.298,-0.381,0.875,0.003
987515,-4351.0,-1776.0,-6752.0,0.298,-0.38,0.876,0.003
987527,-4339.0,-1820.0,-6828.0,0.298,-0.379,0.876,0.002
987549,-4255.0,-1838.0,-6860.0,0.298,-0.379,0.876,0.002
987561,-4301.0,-1864.0,-6800.0,0.298,-0.378,0.876,0.001
987583,-4317.0,-1908.0,-6768.0,0.298,-0.378,0.877,0.001
987605,-4341.0,-1870.0,-6820.0,0.298,-0.377,0.877,0.001
987617,-4347.0,-1838.0,-6760.0,0.299,-0.377,0.877,0.001
987639,-4295.0,-1846.0,-6730.0,0.299,-0.377,0.877,0.0
987651,-4377.0,-1788.0,-6764.0,0.299,-0.377,0.876,-0.0
987673,-4387.0,-1836.0,-6768.0,0.299,-0.377,0.876,-0.0
987685,-4259.0,-1824.0,-6744.0,0.299,-0.377,0.876,-0.001
987707,-4275.0,-1818.0,-6696.0,0.3,-0.377,0.876,-0.001
987719,-4273.0,-1782.0,-6648.0,0.3,-0.378,0.876,-0.002
987741,-4435.0,-2002.0,-6758.0,0.299,-0.378,0.876,-0.004
987753,-4471.0,-1894.0,-6878.0,0.3,-0.377,0.876,-0.004
987775,-4241.0,-1870.0,-6748.0,0.3,-0.377,0.876,-0.004
987797,-4303.0,-1944.0,-6758.0,0.3,-0.377,0.876,-0.005
987809,-4293.0,-1840.0,-6694.0,0.3,-0.377,0.877,-0.005
987831,-4411.0,-1888.0,-6772.0,0.3,-0.376,0.877,-0.005
987843,-4147.0,-1894.0,-6106.0,0.301,-0.377,0.876,-0.006
987865,-4719.0,-2000.0,-7002.0,0.301,-0.376,0.876,-0.006
987877,-4111.0,-1868.0,-6628.0,0.302,-0.376,0.876,-0.006
987899,-4395.0,-1888.0,-6792.0,0.302,-0.376,0.876,-0.007
987911,-4287.0,-1908.0,-6618.0,0.302,-0.375,0.876,-0.007
987933,-4443.0,-1960.0,-6686.0,0.302,-0.375,0.876,-0.008
987945,-4307.0,-1964.0,-6810.0,0.303,-0.374,0.876,-0.008
987967,-4363.0,-1978.0,-6766.0,0.303,-0.374,0.877,-0.009
987989,-4317.0,-1978.0,-6700.0,0.303,-0.373,0.877,-0.009
988001,-4365.0,-1996.0,-6732.0,0.304,-0.373,0.877,-0.009
988023,-4313.0,-1946.0,-6686.0,0.304,-0.372,0.877,-0.01
988035,-4309.0,-1950.0,-6646.0,0.304,-0.372,0.877,-0.01
988057,-4397.0,-1970.0,-6728.0,0.305,-0.372,0.877,-0.01
988069,-4399.0,-2060.0,-6702.0,0.305,-0.371,0.877,-0.011
988091,-4413.0,-1958.0,-6616.0,0.305,-0.371,0.877,-0.011
988103,-4413.0,-2022.0,-6736.0,0.305,-0.37,0.877,-0.011
988125,-4297.0,-1996.0,-6710.0,0.305,-0.369,0.878,-0.011
988137,-4301.0,-1994.0,-6650.0,0.305,-0.369,0.878,-0.011
988159,-4331.0,-1954.0,-6644.0,0.305,-0.368,0.878,-0.011
988181,-4393.0,-2004.0,-6740.0,0.305,-0.368,0.878,-0.011
988193,-4361.0,-1972.0,-6696.0,0.305,-0.367,0.878,-0.011
988215,-4367.0,-1962.0,-6730.0,0.305,-0.367,0.879,-0.012
988227,-4407.0,-1938.0,-6670.0,0.305,-0.367,0.879,-0.012
988249,-4375.0,-1944.0,-6650.0,0.305,-0.366,0.879,-0.012
988261,-4359.0,-1944.0,-6808.0,0.305,-0.366,0.879,-0.012
988283,-4251.0,-1930.0,-6766.0,0.305,-0.365,0.88,-0.012
988295,-4463.0,-1968.0,-6690.0,0.305,-0.365,0.88,-0.012
988317,-4381.0,-1986.0,-6668.0,0.305,-0.364,0.88,-0.012
988329,-4353.0,-1958.0,-6722.0,0.305,-0.364,0.88,-0.012
988351,-4359.0,-1940.0,-6658.0,0.305,-0.364,0.88,-0.013
988373,-4389.0,-2000.0,-6676.0,0.305,-0.363,0.88,-0.013
988385,-4359.0,-1958.0,-6760.0,0.305,-0.363,0.881,-0.013
988407,-4379.0,-1992.0,-6750.0,0.305,-0.362,0.881,-0.013
988419,-4359.0,-1946.0,-6628.0,0.305,-0.362,0.881,-0.014
988441,-4387.0,-1982.0,-6684.0,0.305,-0.361,0.881,-0.014
988453,-4413.0,-1980.0,-6716.0,0.305,-0.361,0.881,-0.014
988475,-4383.0,-1962.0,-6688.0,0.305,-0.36,0.882,-0.014
988487,-4365.0,-1972.0,-6702.0,0.305,-0.359,0.882,-0.015
988509,-4389.0,-1972.0,-6736.0,0.305,-0.359,0.882,-0.015
988521,-4425.0,-1994.0,-6696.0,0.305,-0.358,0.882,-0.015
988543,-4257.0,-1990.0,-6580.0,0.306,-0.358,0.882,-0.015
988565,-4427.0,-1966.0,-6782.0,0.306,-0.357,0.883,-0.015
988577,-4313.0,-2010.0,-6650.0,0.306,-0.356,0.883,-0.016
988599,-4445.0,-1984.0,-6688.0,0.306,-0.355,0.883,-0.016
988611,-4341.0,-1976.0,-6676.0,0.306,-0.355,0.883,-0.016
988633,-4433.0,-1992.0,-6788.0,0.306,-0.354,0.883,-0.016
988645,-4383.0,-1974.0,-6670.0,0.306,-0.354,0.884,-0.016
988667,-4467.0,-1942.0,-6726.0,0.306,-0.353,0.884,-0.017
988679,-4441.0,-1930.0,-6584.0,0.306,-0.352,0.884,-0.017
988701,-4331.0,-2020.0,-6718.0,0.306,-0.352,0.884,-0.017
988713,-4375.0,-1994.0,-6686.0,0.307,-0.351,0.885,-0.017
988735,-4387.0,-1972.0,-6634.0,0.307,-0.351,0.885,-0.017
988757,-4467.0,-2002.0,-6722.0,0.307,-0.35,0.885,-0.018
988769,-4343.0,-1972.0,-6658.0,0.307,-0.349,0.885,-0.018
988791,-4433.0,-2026.0,-6700.0,0.307,-0.349,0.885,-0.018
988803,-4361.0,-2010.0,-6674.0,0.307,-0.348,0.886,-0.018
988825,-4375.0,-1982.0,-6786.0,0.307,-0.347,0.886,-0.018
988837,-4299.0,-2036.0,-6746.0,0.307,-0.347,0.886,-0.018
988859,-4463.0,-1988.0,-6668.0,0.307,-0.347,0.886,-0.018
988871,-4457.0,-1992.0,-6602.0,0.307,-0.346,0.886,-0.018
988893,-4319.0,-1932.0,-6672.0,0.307,-0.345,0.887,-0.018
988905,-4433.0,-1942.0,-6718.0,0.307,-0.345,0.887,-0.019
988927,-4503.0,-1960.0,-6668.0,0.307,-0.345,0.887,-0.019
988949,-4487.0,-1998.0,-6468.0,0.307,-0.345,0.887,-0.019
988961,-4439.0,-1924.0,-6852.0,0.308,-0.344,0.887,-0.019
988988,-4291.0,-1988.0,-6680.0,0.308,-0.344,0.887,-0.019
989000,-4447.0,-1958.0,-6644.0,0.308,-0.343,0.887,-0.02
989012,-4355.0,-1980.0,-6688.0,0.308,-0.343,0.887,-0.02
989034,-4381.0,-2020.0,-6602.0,0.308,-0.342,0.887,-0.02
989046,-4397.0,-2034.0,-6698.0,0.309,-0.342,0.887,-0.021
989068,-4443.0,-1974.0,-6672.0,0.309,-0.342,0.887,-0.021
989080,-4475.0,-1982.0,-6634.0,0.309,-0.341,0.887,-0.022
989102,-4389.0,-1968.0,-6684.0,0.309,-0.341,0.888,-0.022
989124,-4383.0,-1954.0,-6804.0,0.309,-0.34,0.888,-0.022
989136,-4423.0,-2020.0,-6558.0,0.309,-0.34,0.888,-0.022
989158,-4451.0,-2024.0,-6530.0,0.309,-0.339,0.888,-0.022
989170,-4389.0,-2010.0,-6770.0,0.309,-0.339,0.888,-0.022
989192,-4337.0,-1998.0,-6730.0,0.309,-0.338,0.888,-0.023
989204,-4459.0,-2024.0,-6614.0,0.309,-0.338,0.889,-0.023
989226,-4471.0,-1980.0,-6626.0,0.309,-0.338,0.889,-0.023
989238,-4497.0,-1986.0,-6722.0,0.309,-0.337,0.889,-0.023
989260,-4369.0,-2002.0,-6614.0,0.309,-0.337,0.889,-0.023
989272,-4455.0,-2022.0,-6732.0,0.309,-0.336,0.889,-0.023
989294,-4443.0,-2008.0,-6758.0,0.309,-0.335,0.89,-0.023
989316,-4393.0,-2004.0,-6702.0,0.309,-0.335,0.89,-0.023
989328,-4389.0,-1990.0,-6608.0,0.309,-0.334,0.89,-0.023
989350,-4469.0,-1998.0,-6584.0,0.309,-0.334,0.89,-0.024
989362,-4455.0,-2032.0,-6620.0,0.309,-0.333,0.89,-0.024
989384,-4425.0,-1994.0,-6634.0,0.309,-0.333,0.89,-0.024
989396,-4433.0,-2034.0,-6672.0,0.31,-0.332,0.891,-0.024
989418,-4379.0,-2020.0,-6748.0,0.31,-0.332,0.891,-0.024
989430,-4403.0,-2020.0,-6638.0,0.31,-0.331,0.891,-0.024
989452,-4423.0,-1982.0,-6656.0,0.31,-0.331,0.891,-0.025
989464,-4401.0,-1990.0,-6644.0,0.31,-0.331,0.891,-0.025
989486,-4463.0,-2020.0,-6730.0,0.31,-0.33,0.891,-0.025
989508,-4361.0,-2042.0,-6714.0,0.31,-0.33,0.891,-0.026
989520,-4303.0,-1992.0,-6720.0,0.31,-0.329,0.891,-0.026
989542,-4487.0,-2002.0,-6658.0,0.31,-0.329,0.892,-0.026
989554,-4475.0,-1978.0,-6608.0,0.31,-0.329,0.892,-0.026
989576,-4381.0,-1996.0,-6608.0,0.31,-0.328,0.892,-0.026
989588,-4441.0,-2022.0,-6696.0,0.31,-0.328,0.892,-0.027
989610,-4457.0,-2058.0,-6690.0,0.31,-0.327,0.892,-0.027
989622,-4409.0,-2038.0,-6664.0,0.311,-0.327,0.892,-0.027
989644,-4433.0,-1978.0,-6666.0,0.311,-0.327,0.892,-0.027
989656,-4451.0,-2054.0,-6688.0,0.311,-0.326,0.892,-0.027
989678,-4409.0,-2014.0,-6624.0,0.311,-0.326,0.892,-0.028
989700,-4425.0,-2014.0,-6600.0,0.311,-0.326,0.893,-0.028
989712,-4363.0,-2012.0,-6644.0,0.311,-0.325,0.893,-0.028
989734,-4433.0,-2064.0,-6702.0,0.311,-0.325,0.893,-0.028
989746,-4461.0,-2086.0,-6636.0,0.311,-0.325,0.893,-0.029
989768,-4351.0,-2026.0,-6660.0,0.311,-0.324,0.893,-0.029
989780,-4397.0,-2040.0,-6602.0,0.311,-0.324,0.893,-0.029
989802,-4547.0,-2050.0,-6678.0,0.311,-0.324,0.893,-0.03
989814,-4359.0,-2052.0,-6628.0,0.311,-0.324,0.893,-0.03
989836,-4425.0,-2044.0,-6620.0,0.311,-0.324,0.893,-0.03
989848,-4479.0,-2082.0,-6666.0,0.312,-0.323,0.893,-0.031
989870,-4471.0,-2090.0,-6598.0,0.312,-0.323,0.893,-0.031
989892,-4449.0,-2068.0,-6620.0,0.312,-0.323,0.893,-0.032
989904,-4533.0,-2080.0,-6684.0,0.312,-0.322,0.893,-0.032
989926,-4357.0,-2100.0,-6590.0,0.313,-0.32,0.894,-0.032
989938,-4223.0,-2042.0,-6660.0,0.313,-0.319,0.894,-0.033
989960,-4309.0,-2116.0,-7322.0,0.314,-0.319,0.894,-0.034
989972,-4357.0,-2060.0,-6680.0,0.314,-0.319,0.894,-0.034
989994,-4689.0,-2134.0,-5904.0,0.313,-0.32,0.894,-0.035
990006,-4577.0,-2110.0,-6570.0,0.314,-0.319,0.894,-0.036
990028,-4271.0,-2054.0,-6602.0,0.314,-0.318,0.894,-0.038
990040,-4363.0,-2148.0,-6344.0,0.313,-0.319,0.894,-0.04
990062,-4569.0,-2066.0,-6950.0,0.313,-0.318,0.894,-0.042
990084,-4663.0,-2206.0,-6888.0,0.313,-0.317,0.894,-0.045
990096,-4093.0,-2166.0,-6902.0,0.313,-0.315,0.895,-0.047
990118,-4115.0,-2004.0,-6684.0,0.311,-0.315,0.895,-0.049
990130,-3877.0,-2148.0,-6520.0,0.308,-0.317,0.895,-0.052
990152,-4719.0,-2474.0,-5384.0,0.305,-0.319,0.896,-0.055
990164,-4831.0,-2580.0,-6278.0,0.303,-0.318,0.896,-0.059
990186,-3919.0,-2490.0,-6510.0,0.301,-0.317,0.897,-0.063
990198,-3471.0,-2258.0,-6770.0,0.297,-0.317,0.898,-0.068
990220,-4145.0,-3082.0,-7116.0,0.295,-0.317,0.899,-0.073
990232,-4119.0,-2552.0,-6538.0,0.294,-0.315,0.899,-0.078
990254,-3523.0,-2530.0,-6692.0,0.29,-0.314,0.9,-0.083
990276,-3667.0,-2504.0,-6174.0,0.287,-0.314,0.901,-0.09
990288,-3941.0,-2724.0,-6342.0,0.283,-0.313,0.901,-0.098
990310,-3593.0,-2948.0,-6296.0,0.28,-0.311,0.902,-0.107
990322,-3541.0,-3214.0,-7200.0,0.276,-0.309,0.903,-0.116
990344,-3327.0,-3514.0,-6814.0,0.272,-0.307,0.903,-0.125
990356,-3025.0,-3270.0,-7236.0,0.27,-0.305,0.903,-0.133
990378,-3075.0,-3254.0,-6902.0,0.27,-0.304,0.903,-0.139
990390,-3053.0,-3478.0,-6754.0,0.271,-0.304,0.902,-0.146
990412,-3173.0,-3644.0,-7044.0,0.27,-0.305,0.901,-0.152
990424,-3187.0,-3302.0,-7060.0,0.27,-0.305,0.899,-0.158
990446,-3131.0,-3366.0,-6890.0,0.266,-0.307,0.899,-0.164
990468,-3019.0,-3644.0,-6626.0,0.263,-0.308,0.899,-0.168
990480,-2871.0,-3594.0,-6204.0,0.26,-0.309,0.898,-0.173
990502,-2583.0,-3546.0,-5626.0,0.254,-0.31,0.898,-0.179
990514,-3101.0,-4092.0,-7198.0,0.248,-0.31,0.899,-0.185
990536,-2313.0,-4184.0,-6496.0,0.242,-0.309,0.9,-0.189
990548,-2241.0,-3954.0,-6756.0,0.235,-0.308,0.901,-0.194
990570,-1851.0,-4144.0,-7176.0,0.229,-0.307,0.902,-0.199
990582,-1987.0,-3114.0,-6642.0,0.221,-0.307,0.903,-0.205
990604,-895.0,-4344.0,-7310.0,0.213,-0.309,0.903,-0.21
990616,-2325.0,-4616.0,-8280.0,0.206,-0.313,0.902,-0.215
990638,-1471.0,-4184.0,-6912.0,0.199,-0.317,0.901,-0.217
990660,-2013.0,-4250.0,-6622.0,0.195,-0.323,0.9,-0.219
990672,-2203.0,-4096.0,-6872.0,0.19,-0.328,0.899,-0.221
990694,-1695.0,-4278.0,-5930.0,0.186,-0.332,0.897,-0.224
990706,-2749.0,-4302.0,-6764.0,0.181,-0.334,0.896,-0.227
990728,-1317.0,-4150.0,-5830.0,0.178,-0.336,0.896,-0.23
990740,-1367.0,-4220.0,-6372.0,0.172,-0.338,0.895,-0.236
990762,-1985.0,-4822.0,-7886.0,0.169,-0.337,0.895,-0.24
990774,-141.0,-4490.0,-6710.0,0.166,-0.338,0.894,-0.242
990796,-159.0,-4350.0,-6472.0,0.162,-0.339,0.893,-0.246
990808,-1491.0,-4504.0,-7730.0,0.158,-0.34,0.893,-0.249
990830,187.0,-4190.0,-6382.0,0.156,-0.341,0.893,-0.249
990852,-1455.0,-4808.0,-6132.0,0.153,-0.344,0.892,-0.252
990864,-939.0,-4596.0,-6662.0,0.153,-0.345,0.891,-0.253
990886,-1461.0,-4914.0,-7626.0,0.151,-0.347,0.889,-0.258
990898,-285.0,-4222.0,-6196.0,0.154,-0.349,0.887,-0.259
990920,-1755.0,-4890.0,-8072.0,0.154,-0.351,0.886,-0.261
990932,511.0,-4204.0,-5414.0,0.156,-0.352,0.885,-0.262
990954,-1409.0,-5056.0,-7852.0,0.157,-0.355,0.883,-0.265
990966,-421.0,-4794.0,-6092.0,0.157,-0.357,0.881,-0.269
990993,-983.0,-5058.0,-7442.0,0.158,-0.357,0.88,-0.27
991005,461.0,-4638.0,-5912.0,0.159,-0.36,0.879,-0.271
991017,-945.0,-5016.0,-7292.0,0.16,-0.363,0.876,-0.272
991039,-1369.0,-4918.0,-7006.0,0.162,-0.365,0.876,-0.271
991061,-685.0,-4940.0,-6350.0,0.163,-0.366,0.875,-0.272
991073,-497.0,-4868.0,-7160.0,0.164,-0.367,0.874,-0.273
991095,-569.0,-4716.0,-6772.0,0.164,-0.368,0.874,-0.272
991107,-1025.0,-4866.0,-6430.0,0.164,-0.369,0.873,-0.272
991129,-875.0,-4842.0,-6416.0,0.164,-0.369,0.874,-0.272
991141,-665.0,-4964.0,-6466.0,0.164,-0.368,0.874,-0.272
991163,-457.0,-4840.0,-6680.0,0.164,-0.368,0.874,-0.272
991175,-625.0,-4930.0,-6614.0,0.164,-0.368,0.874,-0.271
991197,-545.0,-4844.0,-6730.0,0.164,-0.368,0.874,-0.271
991209,-513.0,-4814.0,-6596.0,0.163,-0.368,0.875,-0.271
991231,-701.0,-4760.0,-6654.0,0.162,-0.368,0.875,-0.27
991253,-549.0,-4826.0,-6386.0,0.161,-0.367,0.875,-0.27
991265,-597.0,-4814.0,-6658.0,0.161,-0.367,0.875,-0.27
991287,-461.0,-4744.0,-6770.0,0.16,-0.367,0.876,-0.27
991299,-645.0,-4848.0,-6908.0,0.16,-0.367,0.876,-0.27
991321,-537.0,-4754.0,-6754.0,0.161,-0.367,0.876,-0.269
991333,-567.0,-4836.0,-6686.0,0.161,-0.367,0.876,-0.269
991355,-743.0,-4664.0,-6448.0,0.16,-0.367,0.876,-0.268
991367,-699.0,-4790.0,-6558.0,0.16,-0.366,0.877,-0.268
991389,-347.0,-4716.0,-6706.0,0.159,-0.366,0.877,-0.268
991401,-591.0,-4834.0,-6734.0,0.158,-0.366,0.877,-0.268
991423,-377.0,-4842.0,-6834.0,0.157,-0.367,0.877,-0.268
991445,-373.0,-4752.0,-6902.0,0.157,-0.368,0.877,-0.268
991457,-615.0,-4712.0,-6672.0,0.157,-0.369,0.876,-0.267
991479,-509.0,-4846.0,-6568.0,0.157,-0.37,0.876,-0.266
991491,-359.0,-4834.0,-6894.0,0.157,-0.372,0.875,-0.266
991513,-473.0,-4798.0,-6968.0,0.157,-0.375,0.875,-0.264
991525,-719.0,-4884.0,-6656.0,0.157,-0.377,0.874,-0.263
991547,-657.0,-4664.0,-6900.0,0.156,-0.379,0.874,-0.262
991559,-577.0,-4744.0,-6650.0,0.154,-0.381,0.874,-0.26
991581,-451.0,-4680.0,-6856.0,0.154,-0.382,0.873,-0.259
991593,-499.0,-4974.0,-6926.0,0.153,-0.385,0.873,-0.258
991615,-153.0,-4466.0,-6842.0,0.153,-0.387,0.872,-0.257
991637,-421.0,-4580.0,-6748.0,0.153,-0.39,0.871,-0.256
991649,-749.0,-4532.0,-6732.0,0.152,-0.392,0.871,-0.255
991671,-1135.0,-4672.0,-6538.0,0.151,-0.393,0.871,-0.255
991683,-663.0,-4598.0,-6682.0,0.151,-0.392,0.871,-0.255
991705,-51.0,-4478.0,-7058.0,0.151,-0.392,0.871,-0.254
991717,-343.0,-4612.0,-6958.0,0.15,-0.393,0.871,-0.253
991739,-619.0,-4562.0,-6602.0,0.15,-0.394,0.871,-0.253
991751,-547.0,-4564.0,-6780.0,0.149,-0.394,0.871,-0.253
991773,-485.0,-4494.0,-6896.0,0.149,-0.393,0.871,-0.253
991785,-533.0,-4558.0,-6708.0,0.149,-0.393,0.871,-0.252
991807,-281.0,-4530.0,-6912.0,0.149,-0.394,0.871,-0.252
991829,-113.0,-4600.0,-7298.0,0.149,-0.394,0.871,-0.252
991841,-281.0,-4472.0,-6896.0,0.149,-0.396,0.871,-0.252
991863,-471.0,-4676.0,-6868.0,0.15,-0.397,0.87,-0.251
991875,-335.0,-4416.0,-6732.0,0.152,-0.399,0.869,-0.251
991897,-389.0,-4346.0,-6830.0,0.153,-0.401,0.868,-0.25
991909,-563.0,-4476.0,-6976.0,0.153,-0.403,0.867,-0.248
991931,-511.0,-4540.0,-7034.0,0.154,-0.406,0.867,-0.246
991953,-367.0,-4590.0,-6934.0,0.155,-0.408,0.866,-0.244
991965,-509.0,-4226.0,-6956.0,0.157,-0.411,0.865,-0.241
991977,-933.0,-4434.0,-6376.0,0.159,-0.415,0.864,-0.238
991999,-1083.0,-4426.0,-6548.0,0.161,-0.417,0.863,-0.237
992021,-779.0,-4374.0,-6802.0,0.163,-0.418,0.862,-0.236
992033,-539.0,-4376.0,-6824.0,0.165,-0.419,0.862,-0.234
992055,-589.0,-4650.0,-6896.0,0.167,-0.42,0.861,-0.232
992067,-629.0,-4506.0,-6582.0,0.167,-0.421,0.861,-0.232
992089,-919.0,-4342.0,-6942.0,0.167,-0.422,0.861,-0.231
992101,-843.0,-4424.0,-6688.0,0.168,-0.422,0.86,-0.231
992123,-577.0,-4394.0,-6850.0,0.169,-0.422,0.86,-0.231
992135,-689.0,-4402.0,-7000.0,0.169,-0.423,0.86,-0.23
992157,-789.0,-4358.0,-6800.0,0.17,-0.423,0.86,-0.229
992169,-763.0,-4444.0,-6724.0,0.17,-0.423,0.86,-0.229
992191,-1005.0,-4308.0,-6922.0,0.17,-0.423,0.86,-0.23
992213,-605.0,-4408.0,-6796.0,0.171,-0.422,0.86,-0.23
992225,-437.0,-4296.0,-7250.0,0.172,-0.422,0.86,-0.23
992247,-849.0,-4708.0,-6594.0,0.173,-0.423,0.859,-0.23
992259,-701.0,-4256.0,-6832.0,0.174,-0.423,0.859,-0.231
992281,-1087.0,-4400.0,-7098.0,0.174,-0.423,0.859,-0.231
992293,-903.0,-4594.0,-6602.0,0.175,-0.423,0.858,-0.231
992315,-803.0,-4514.0,-6944.0,0.176,-0.423,0.858,-0.231
992327,-699.0,-4312.0,-6984.0,0.177,-0.423,0.858,-0.231
992349,-713.0,-4354.0,-6852.0,0.178,-0.423,0.858,-0.231
992361,-801.0,-4484.0,-6968.0,0.179,-0.422,0.858,-0.231
992383,-503.0,-4312.0,-6994.0,0.18,-0.422,0.858,-0.232
992405,-1275.0,-4430.0,-6556.0,0.181,-0.422,0.857,-0.232
992417,-1083.0,-4540.0,-6554.0,0.182,-0.421,0.858,-0.232
992439,-785.0,-4474.0,-7044.0,0.183,-0.42,0.858,-0.233
992451,-839.0,-4454.0,-6662.0,0.183,-0.42,0.858,-0.233
992473,-1161.0,-4564.0,-6638.0,0.184,-0.419,0.858,-0.233
992485,-905.0,-4506.0,-6754.0,0.185,-0.419,0.858,-0.233
992507,-631.0,-4370.0,-6932.0,0.185,-0.418,0.858,-0.233
992519,-1083.0,-4434.0,-6622.0,0.185,-0.418,0.858,-0.234
992541,-1113.0,-4528.0,-6770.0,0.185,-0.418,0.858,-0.234
992553,-665.0,-4462.0,-6946.0,0.185,-0.417,0.858,-0.234
992575,-939.0,-4484.0,-6746.0,0.184,-0.417,0.859,-0.234
992597,-1033.0,-4548.0,-6806.0,0.184,-0.417,0.859,-0.234
992609,-905.0,-4544.0,-6990.0,0.185,-0.417,0.859,-0.235
992631,-543.0,-4500.0,-7036.0,0.185,-0.416,0.859,-0.235
992643,-767.0,-4520.0,-7090.0,0.184,-0.416,0.859,-0.234
992665,-881.0,-4520.0,-6754.0,0.184,-0.416,0.859,-0.234
992677,-987.0,-4472.0,-6722.0,0.184,-0.416,0.859,-0.233
992699,-791.0,-4482.0,-6810.0,0.184,-0.416,0.859,-0.233
992711,-1043.0,-4546.0,-6686.0,0.184,-0.416,0.859,-0.233
992733,-1139.0,-4558.0,-6680.0,0.185,-0.416,0.859,-0.233
992745,-863.0,-4594.0,-6936.0,0.185,-0.416,0.859,-0.234
992767,-963.0,-4554.0,-6808.0,0.185,-0.416,0.859,-0.234
992789,-1163.0,-4592.0,-6688.0,0.185,-0.416,0.859,-0.234
992801,-995.0,-4516.0,-6678.0,0.186,-0.416,0.859,-0.234
992823,-1015.0,-4508.0,-6812.0,0.186,-0.415,0.859,-0.234
992835,-1047.0,-4484.0,-6762.0,0.186,-0.414,0.86,-0.234
992857,-869.0,-4462.0,-6702.0,0.186,-0.414,0.86,-0.234
992869,-833.0,-4442.0,-6712.0,0.185,-0.413,0.86,-0.234
992891,-801.0,-4420.0,-6716.0,0.186,-0.413,0.86,-0.234
992903,-1063.0,-4462.0,-6960.0,0.186,-0.412,0.861,-0.234
992925,-1085.0,-4570.0,-7130.0,0.186,-0.411,0.862,-0.233
992937,-537.0,-4458.0,-6306.0,0.187,-0.41,0.862,-0.232
992959,-979.0,-4484.0,-7186.0,0.186,-0.41,0.862,-0.233
992981,-1253.0,-4668.0,-7116.0,0.186,-0.41,0.862,-0.234
992998,-1223.0,-4572.0,-6668.0,0.186,-0.41,0.862,-0.234
993010,-897.0,-4638.0,-6824.0,0.187,-0.409,0.862,-0.234
993032,-571.0,-4458.0,-7270.0,0.187,-0.408,0.862,-0.234
993044,-905.0,-4504.0,-6922.0,0.188,-0.408,0.862,-0.234
993066,-997.0,-4508.0,-6890.0,0.188,-0.408,0.862,-0.233
993078,-871.0,-4472.0,-6866.0,0.188,-0.408,0.863,-0.232
993100,-1041.0,-4502.0,-6722.0,0.188,-0.408,0.863,-0.232
993112,-1005.0,-4416.0,-6620.0,0.189,-0.408,0.863,-0.231
993134,-1157.0,-4386.0,-6480.0,0.189,-0.408,0.863,-0.231
993156,-1367.0,-4510.0,-6586.0,0.19,-0.408,0.863,-0.231
993168,-1383.0,-4576.0,-6978.0,0.19,-0.407,0.863,-0.231
993190,-1135.0,-4522.0,-6786.0,0.191,-0.407,0.863,-0.23
993202,-971.0,-4582.0,-6696.0,0.192,-0.407,0.863,-0.23
993224,-997.0,-4520.0,-6864.0,0.192,-0.407,0.863,-0.23
993236,-1169.0,-4502.0,-6838.0,0.192,-0.407,0.863,-0.23
993258,-1187.0,-4522.0,-6794.0,0.192,-0.407,0.862,-0.231
993270,-1133.0,-4474.0,-6786.0,0.192,-0.407,0.862,-0.231
993292,-999.0,-4426.0,-6704.0,0.192,-0.407,0.862,-0.231
993304,-1083.0,-4484.0,-6760.0,0.192,-0.407,0.863,-0.231
993326,-1073.0,-4498.0,-6818.0,0.192,-0.407,0.863,-0.231
993348,-1095.0,-4586.0,-7018.0,0.192,-0.407,0.863,-0.231
993360,-891.0,-4440.0,-6874.0,0.192,-0.407,0.863,-0.231
993382,-1363.0,-4566.0,-6644.0,0.192,-0.407,0.862,-0.231
993394,-1093.0,-4474.0,-6830.0,0.193,-0.407,0.863,-0.231
993416,-1001.0,-4546.0,-6770.0,0.193,-0.407,0.862,-0.231
993428,-1085.0,-4568.0,-6892.0,0.193,-0.407,0.862,-0.231
993450,-1029.0,-4506.0,-6758.0,0.193,-0.407,0.862,-0.231
993462,-1281.0,-4496.0,-6762.0,0.193,-0.407,0.862,-0.231
993484,-1247.0,-4558.0,-6762.0,0.193,-0.407,0.862,-0.232
993496,-1147.0,-4550.0,-6854.0,0.194,-0.407,0.862,-0.231
993518,-1113.0,-4532.0,-6758.0,0.194,-0.407,0.862,-0.231
993540,-1211.0,-4516.0,-6622.0,0.194,-0.407,0.862,-0.231
993552,-1133.0,-4492.0,-6722.0,0.194,-0.406,0.862,-0.231
993574,-1097.0,-4466.0,-6962.0,0.194,-0.406,0.863,-0.231
993586,-1179.0,-4492.0,-6648.0,0.194,-0.406,0.863,-0.231
993608,-1289.0,-4530.0,-6806.0,0.195,-0.406,0.863,-0.231
993620,-1017.0,-4532.0,-6728.0,0.195,-0.406,0.863,-0.231
993642,-1133.0,-4562.0,-6860.0,0.195,-0.406,0.863,-0.231
993654,-1063.0,-4564.0,-6828.0,0.195,-0.406,0.863,-0.231
993676,-1119.0,-4586.0,-6774.0,0.195,-0.406,0.863,-0.231
993688,-1097.0,-4470.0,-6898.0,0.196,-0.406,0.862,-0.231
993710,-1129.0,-4494.0,-6760.0,0.196,-0.406,0.862,-0.231
993732,-1205.0,-4462.0,-6650.0,0.196,-0.406,0.862,-0.23
993744,-1177.0,-4500.0,-6794.0,0.195,-0.406,0.863,-0.23
993766,-1127.0,-4490.0,-6810.0,0.195,-0.406,0.863,-0.23
993778,-1199.0,-4510.0,-6810.0,0.195,-0.406,0.863,-0.23
993800,-1205.0,-4512.0,-6716.0,0.196,-0.406,0.863,-0.23
993812,-1229.0,-4594.0,-6794.0,0.196,-0.406,0.863,-0.23
993834,-1163.0,-4566.0,-6752.0,0.196,-0.406,0.863,-0.23
993846,-1201.0,-4516.0,-6870.0,0.196,-0.406,0.863,-0.23
993868,-1183.0,-4554.0,-6760.0,0.196,-0.406,0.863,-0.229
993880,-1159.0,-4498.0,-6712.0,0.196,-0.406,0.862,-0.229
993902,-1237.0,-4466.0,-6652.0,0.196,-0.407,0.862,-0.229
993924,-1255.0,-4484.0,-6736.0,0.196,-0.407,0.862,-0.229
993936,-1099.0,-4496.0,-6892.0,0.197,-0.407,0.862,-0.229
993958,-1043.0,-4490.0,-6880.0,0.197,-0.407,0.862,-0.229
993970,-1255.0,-4478.0,-6704.0,0.197,-0.407,0.862,-0.229
993992,-1259.0,-4530.0,-6658.0,0.197,-0.407,0.862,-0.229
994004,-1173.0,-4514.0,-6790.0,0.197,-0.407,0.862,-0.229
994026,-1163.0,-4450.0,-6830.0,0.198,-0.407,0.862,-0.228
994038,-1257.0,-4500.0,-6702.0,0.198,-0.408,0.862,-0.228
994060,-1199.0,-4494.0,-6738.0,0.198,-0.408,0.862,-0.228
994072,-1239.0,-4500.0,-6710.0,0.198,-0.408,0.862,-0.228
994094,-1245.0,-4490.0,-6716.0,0.198,-0.408,0.862,-0.228
994116,-1237.0,-4488.0,-6858.0,0.198,-0.408,0.862,-0.228
994128,-1123.0,-4460.0,-6710.0,0.198,-0.408,0.862,-0.227
994150,-1313.0,-4520.0,-6780.0,0.198,-0.408,0.862,-0.227
994162,-1155.0,-4500.0,-6854.0,0.198,-0.409,0.861,-0.227
994184,-1225.0,-4484.0,-6788.0,0.198,-0.409,0.861,-0.227
994196,-1239.0,-4482.0,-6758.0,0.198,-0.409,0.861,-0.227
994218,-1221.0,-4494.0,-6898.0,0.198,-0.409,0.861,-0.227
994230,-1227.0,-4500.0,-6806.0,0.198,-0.409,0.861,-0.227
994252,-1129.0,-4466.0,-6762.0,0.198,-0.409,0.861,-0.227
994264,-1231.0,-4488.0,-6760.0,0.198,-0.409,0.861,-0.226
994286,-1241.0,-4410.0,-6750.0,0.198,-0.409,0.861,-0.226
994308,-1253.0,-4470.0,-6884.0,0.198,-0.409,0.862,-0.226
994320,-1201.0,-4490.0,-6856.0,0.198,-0.409,0.862,-0.226
994342,-1331.0,-4542.0,-6704.0,0.198,-0.409,0.862,-0.226
994354,-1145.0,-4512.0,-6782.0,0.198,-0.409,0.862,-0.226
994376,-1121.0,-4354.0,-6810.0,0.198,-0.409,0.862,-0.226
994388,-1267.0,-4510.0,-6694.0,0.198,-0.409,0.862,-0.225
994410,-1223.0,-4490.0,-6830.0,0.198,-0.409,0.862,-0.225
994422,-1295.0,-4440.0,-6718.0,0.198,-0.409,0.862,-0.225
994444,-1145.0,-4464.0,-6834.0,0.198,-0.409,0.862,-0.225
994456,-1137.0,-4432.0,-6906.0,0.197,-0.409,0.862,-0.225
994478,-1185.0,-4514.0,-6870.0,0.198,-0.409,0.862,-0.224
994500,-1249.0,-4444.0,-6902.0,0.198,-0.409,0.862,-0.224
994512,-1137.0,-4554.0,-7214.0,0.198,-0.41,0.862,-0.222
994534,-1487.0,-4508.0,-6320.0,0.198,-0.41,0.862,-0.222
994546,-1161.0,-4424.0,-6796.0,0.198,-0.41,0.862,-0.222
994568,-1229.0,-4404.0,-6788.0,0.198,-0.41,0.862,-0.222
994580,-1277.0,-4380.0,-6794.0,0.198,-0.41,0.862,-0.221
994602,-1237.0,-4426.0,-6762.0,0.197,-0.41,0.862,-0.221
994614,-1299.0,-4456.0,-6914.0,0.197,-0.41,0.862,-0.221
994636,-1089.0,-4390.0,-6896.0,0.197,-0.41,0.862,-0.221
994648,-1417.0,-4396.0,-6782.0,0.197,-0.41,0.862,-0.221
994670,-1209.0,-4366.0,-6748.0,0.197,-0.41,0.863,-0.221
994692,-1149.0,-4444.0,-6900.0,0.197,-0.41,0.863,-0.221
994704,-1259.0,-4442.0,-6858.0,0.197,-0.41,0.863,-0.221
994726,-1171.0,-4432.0,-6946.0,0.197,-0.41,0.863,-0.221
994738,-1207.0,-4422.0,-6790.0,0.197,-0.41,0.863,-0.221
994760,-1419.0,-4398.0,-6680.0,0.197,-0.41,0.863,-0.221
994772,-1185.0,-4382.0,-6806.0,0.197,-0.41,0.863,-0.221
994794,-1329.0,-4394.0,-6726.0,0.197,-0.41,0.863,-0.221
994806,-1307.0,-4452.0,-6784.0,0.197,-0.41,0.863,-0.221
994828,-1189.0,-4430.0,-7012.0,0.197,-0.41,0.863,-0.221
994840,-1229.0,-4434.0,-6860.0,0.198,-0.41,0.863,-0.221
994862,-1207.0,-4448.0,-6896.0,0.198,-0.41,0.863,-0.221
994884,-1335.0,-4412.0,-6790.0,0.198,-0.41,0.863,-0.221
994896,-1283.0,-4392.0,-6624.0,0.198,-0.41,0.863,-0.221
994918,-1379.0,-4384.0,-6924.0,0.198,-0.41,0.863,-0.221
994930,-1305.0,-4332.0,-6626.0,0.198,-0.41,0.863,-0.22
994952,-1399.0,-4376.0,-6914.0,0.198,-0.41,0.863,-0.221
994964,-1143.0,-4398.0,-6914.0,0.198,-0.409,0.863,-0.221
994986,-1287.0,-4476.0,-6950.0,0.198,-0.409,0.863,-0.221
995003,-1205.0,-4452.0,-6832.0,0.198,-0.409,0.863,-0.221
995015,-1235.0,-4460.0,-6968.0,0.198,-0.409,0.863,-0.221
995037,-1205.0,-4400.0,-6752.0,0.198,-0.409,0.863,-0.22
995059,-1403.0,-4460.0,-6818.0,0.198,-0.409,0.863,-0.22
995071,-1389.0,-4400.0,-6698.0,0.198,-0.409,0.863,-0.22
995093,-1365.0,-4372.0,-6836.0,0.198,-0.409,0.863,-0.22
995105,-1241.0,-4398.0,-6866.0,0.198,-0.409,0.863,-0.22
995127,-1247.0,-4402.0,-6828.0,0.198,-0.408,0.864,-0.22
995139,-1211.0,-4364.0,-6962.0,0.198,-0.408,0.864,-0.22
995161,-1219.0,-4366.0,-6786.0,0.198,-0.408,0.864,-0.22
995173,-1279.0,-4384.0,-6930.0,0.199,-0.408,0.864,-0.22
995195,-1259.0,-4424.0,-6912.0,0.199,-0.408,0.864,-0.22
995207,-1279.0,-4424.0,-6854.0,0.199,-0.407,0.864,-0.219
995229,-1173.0,-4354.0,-6932.0,0.199,-0.407,0.864,-0.219
995251,-1451.0,-4408.0,-6660.0,0.199,-0.408,0.864,-0.219
995263,-1391.0,-4408.0,-6782.0,0.199,-0.407,0.864,-0.219
995285,-1183.0,-4402.0,-6892.0,0.2,-0.407,0.864,-0.219
995297,-1201.0,-4406.0,-6760.0,0.2,-0.407,0.864,-0.219
995319,-1429.0,-4336.0,-6882.0,0.2,-0.407,0.864,-0.219
995331,-1345.0,-4342.0,-6788.0,0.2,-0.407,0.864,-0.218
995353,-1289.0,-4356.0,-6820.0,0.2,-0.407,0.864,-0.218
995365,-1369.0,-4440.0,-6920.0,0.2,-0.407,0.864,-0.218
995387,-1307.0,-4388.0,-6870.0,0.2,-0.407,0.864,-0.218
995399,-1331.0,-4404.0,-6882.0,0.2,-0.407,0.864,-0.218
995421,-1341.0,-4366.0,-6858.0,0.2,-0.406,0.865,-0.218
995443,-1339.0,-4370.0,-6912.0,0.2,-0.406,0.865,-0.217
995455,-1339.0,-4370.0,-6876.0,0.2,-0.406,0.865,-0.217
995477,-1373.0,-4342.0,-6828.0,0.2,-0.406,0.865,-0.217
995489,-1395.0,-4322.0,-6664.0,0.201,-0.406,0.865,-0.216
995511,-1441.0,-4376.0,-6818.0,0.201,-0.406,0.865,-0.216
995523,-1315.0,-4346.0,-6808.0,0.201,-0.406,0.865,-0.216
995545,-1295.0,-4342.0,-6820.0,0.201,-0.406,0.865,-0.216
995557,-1309.0,-4350.0,-6926.0,0.201,-0.406,0.865,-0.216
995579,-1417.0,-4374.0,-6814.0,0.201,-0.405,0.865,-0.216
995591,-1485.0,-4376.0,-6712.0,0.201,-0.405,0.865,-0.216
995613,-1391.0,-4340.0,-6812.0,0.202,-0.405,0.865,-0.216
995635,-1323.0,-4476.0,-6758.0,0.202,-0.405,0.865,-0.216
