timeMs,ax,ay,az,q0,q1,q2,q3
6446913,-2261.0,836.0,9195.0,0.975,0.169,0.141,-0.022
6446929,-1625.0,-3846.0,11273.0,0.975,0.173,0.135,-0.022
6446955,-2413.0,-1220.0,9797.0,0.974,0.185,0.126,-0.02
6446971,-937.0,728.0,8107.0,0.975,0.19,0.116,-0.012
6446987,-1135.0,2782.0,5989.0,0.977,0.186,0.105,0.001
6447003,319.0,3824.0,5727.0,0.981,0.169,0.097,0.019
6447019,1211.0,2792.0,6687.0,0.984,0.143,0.094,0.043
6447035,471.0,1250.0,7329.0,0.986,0.115,0.092,0.074
6447061,-325.0,-700.0,7905.0,0.986,0.09,0.091,0.106
6447077,-653.0,-1810.0,7915.0,0.984,0.073,0.09,0.136
6447093,-609.0,-2272.0,7805.0,0.98,0.066,0.088,0.164
6447109,-295.0,-664.0,7645.0,0.976,0.071,0.084,0.189
6447125,15.0,1326.0,7347.0,0.97,0.083,0.077,0.213
6447141,989.0,3462.0,7047.0,0.964,0.099,0.069,0.236
6447167,1131.0,4694.0,6545.0,0.957,0.113,0.059,0.26
6447183,1665.0,5308.0,5889.0,0.949,0.124,0.048,0.284
6447199,1881.0,5738.0,5677.0,0.941,0.131,0.036,0.31
6447215,1943.0,5758.0,5477.0,0.933,0.134,0.023,0.334
6447231,1917.0,5246.0,5433.0,0.924,0.134,0.011,0.358
6447247,1743.0,4292.0,5251.0,0.916,0.131,0.0,0.379
6447273,1377.0,3310.0,5291.0,0.909,0.132,-0.009,0.396
6447289,1263.0,3366.0,5861.0,0.902,0.138,-0.018,0.409
6447305,2027.0,3918.0,5975.0,0.895,0.149,-0.024,0.42
6447321,1891.0,3856.0,5995.0,0.887,0.164,-0.029,0.43
6447337,1681.0,5008.0,6251.0,0.88,0.181,-0.033,0.438
6447363,1567.0,5894.0,6533.0,0.874,0.195,-0.038,0.444
6447379,1033.0,5816.0,6999.0,0.869,0.204,-0.046,0.449
6447395,1323.0,5162.0,7201.0,0.865,0.211,-0.056,0.453
6447411,2043.0,4400.0,8323.0,0.861,0.214,-0.066,0.457
6447427,3683.0,4394.0,9407.0,0.858,0.214,-0.072,0.46
6447443,2341.0,4710.0,10413.0,0.859,0.206,-0.077,0.462
6447460,1533.0,1814.0,10681.0,0.859,0.198,-0.08,0.466
6447486,1773.0,850.0,11097.0,0.857,0.197,-0.082,0.469
6447502,2273.0,314.0,11591.0,0.854,0.201,-0.079,0.472
6447518,2929.0,3736.0,12331.0,0.853,0.205,-0.075,0.475
6447534,2045.0,2106.0,11749.0,0.851,0.203,-0.073,0.478
6447550,1865.0,472.0,10363.0,0.849,0.203,-0.071,0.482
6447566,1901.0,560.0,8957.0,0.847,0.207,-0.065,0.485
6447585,1575.0,1346.0,8081.0,0.845,0.214,-0.058,0.487
6447601,1597.0,2144.0,7611.0,0.843,0.221,-0.051,0.487
6447627,1677.0,3086.0,7467.0,0.842,0.227,-0.045,0.488
6447643,1861.0,3420.0,7233.0,0.841,0.23,-0.041,0.488
6447659,1761.0,3120.0,6907.0,0.841,0.232,-0.038,0.487
6447675,1713.0,2716.0,6653.0,0.841,0.232,-0.036,0.487
6447691,1685.0,2652.0,6611.0,0.841,0.233,-0.034,0.487
6447707,1907.0,2810.0,6579.0,0.841,0.234,-0.032,0.487
6447733,2095.0,3104.0,6613.0,0.84,0.235,-0.03,0.487
6447749,2427.0,3484.0,6861.0,0.84,0.236,-0.028,0.488
6447765,2627.0,3662.0,7095.0,0.84,0.235,-0.027,0.489
6447781,2869.0,3786.0,7443.0,0.84,0.234,-0.026,0.489
6447797,3127.0,3674.0,8003.0,0.84,0.231,-0.024,0.49
6447813,2871.0,3288.0,8367.0,0.841,0.228,-0.022,0.491
6447839,2497.0,2840.0,8459.0,0.841,0.225,-0.02,0.492
6447855,2327.0,2338.0,8259.0,0.841,0.224,-0.017,0.492
6447871,2047.0,2058.0,7987.0,0.841,0.223,-0.013,0.493
6447887,1661.0,1804.0,7621.0,0.841,0.224,-0.009,0.493
6447903,1371.0,2004.0,7325.0,0.84,0.227,-0.003,0.492
6447929,1197.0,2798.0,7095.0,0.84,0.233,0.003,0.49
6447945,1045.0,3574.0,6873.0,0.839,0.24,0.009,0.488
6447961,999.0,4174.0,6781.0,0.838,0.247,0.015,0.486
6447977,1063.0,4670.0,6721.0,0.838,0.254,0.019,0.483
6447993,1231.0,5192.0,6657.0,0.838,0.26,0.023,0.48
6448009,1477.0,5482.0,6623.0,0.838,0.265,0.025,0.477
6448035,1819.0,5698.0,6517.0,0.839,0.268,0.025,0.474
6448051,2289.0,5684.0,6497.0,0.84,0.269,0.023,0.471
6448067,2677.0,5292.0,6469.0,0.841,0.268,0.02,0.469
6448083,2857.0,4590.0,6465.0,0.843,0.265,0.016,0.468
6448099,3065.0,3984.0,6527.0,0.845,0.261,0.011,0.466
6448115,3089.0,3484.0,6665.0,0.847,0.255,0.006,0.465
6448141,3369.0,3216.0,6929.0,0.85,0.251,0.001,0.464
6448157,3561.0,3140.0,7243.0,0.852,0.246,-0.004,0.463
6448173,3675.0,2814.0,7367.0,0.854,0.242,-0.008,0.462
6448189,3353.0,2260.0,7367.0,0.855,0.238,-0.012,0.461
6448205,3013.0,2064.0,7365.0,0.856,0.236,-0.014,0.461
6448221,2877.0,2286.0,7391.0,0.856,0.234,-0.014,0.461
6448247,2639.0,2554.0,7487.0,0.856,0.234,-0.015,0.461
6448263,2455.0,2892.0,7547.0,0.856,0.234,-0.014,0.462
6448280,2315.0,3086.0,7545.0,0.855,0.234,-0.012,0.462
6448296,2065.0,3180.0,7557.0,0.855,0.233,-0.011,0.463
6448312,1877.0,3276.0,7529.0,0.855,0.233,-0.009,0.464
6448328,1763.0,3320.0,7567.0,0.855,0.232,-0.008,0.465
6448354,1643.0,3276.0,7689.0,0.854,0.23,-0.006,0.466
6448370,1529.0,3234.0,7861.0,0.854,0.228,-0.005,0.467
6448386,1421.0,3064.0,7817.0,0.854,0.225,-0.005,0.468
6448402,1259.0,2836.0,8075.0,0.854,0.223,-0.004,0.47
6448418,1395.0,2372.0,7981.0,0.854,0.221,-0.003,0.471
6448434,1439.0,2170.0,7911.0,0.854,0.22,-0.002,0.472
6448460,1193.0,2212.0,7861.0,0.853,0.22,-0.0,0.473
6448476,1101.0,2478.0,7775.0,0.853,0.221,0.001,0.474
6448492,1131.0,2658.0,7737.0,0.852,0.222,0.002,0.475
6448508,1291.0,2972.0,7933.0,0.851,0.223,0.003,0.475
6448524,1571.0,2870.0,7887.0,0.85,0.225,0.002,0.476
6448540,1889.0,2798.0,7801.0,0.849,0.228,0.002,0.476
6448566,2053.0,3208.0,7795.0,0.848,0.233,0.002,0.476
6448582,2451.0,3626.0,7679.0,0.847,0.239,0.003,0.475
6448598,2585.0,3068.0,7633.0,0.845,0.246,0.004,0.475
6448614,2261.0,1664.0,7611.0,0.843,0.258,0.007,0.473
6448630,2273.0,1504.0,7467.0,0.839,0.278,0.014,0.469
6448656,2653.0,1574.0,8463.0,0.834,0.304,0.024,0.46
6448672,2517.0,-656.0,9401.0,0.828,0.338,0.043,0.445
6448688,1283.0,-1048.0,8357.0,0.816,0.385,0.071,0.425
6448704,1095.0,2248.0,5959.0,0.796,0.443,0.106,0.399
6448720,1893.0,6338.0,3233.0,0.769,0.501,0.143,0.37
6448736,2329.0,8652.0,817.0,0.736,0.554,0.185,0.341
6448762,2425.0,10648.0,-1113.0,0.698,0.601,0.227,0.316
6448778,1259.0,15346.0,-2265.0,0.667,0.63,0.271,0.291
6448794,1621.0,17066.0,-2083.0,0.645,0.641,0.313,0.275
6448810,-287.0,15918.0,-1751.0,0.633,0.638,0.345,0.27
6448826,-2073.0,12304.0,-1619.0,0.633,0.626,0.366,0.273
6448842,-1803.0,8708.0,-1935.0,0.638,0.611,0.38,0.274
6448868,-1101.0,7094.0,-2305.0,0.644,0.599,0.389,0.273
6448884,-1525.0,6652.0,-2547.0,0.651,0.588,0.397,0.27
6448900,-1067.0,7788.0,-2369.0,0.658,0.579,0.402,0.265
6448916,-1077.0,8774.0,-1887.0,0.667,0.569,0.404,0.26
6448932,-1399.0,8812.0,-1265.0,0.68,0.557,0.403,0.254
6448948,-1561.0,8598.0,-689.0,0.694,0.545,0.399,0.249
6448974,-1211.0,8678.0,-175.0,0.71,0.532,0.393,0.242
6448990,-1351.0,7670.0,361.0,0.725,0.521,0.387,0.232
6449006,-1549.0,6264.0,987.0,0.738,0.512,0.382,0.218
6449022,-2029.0,5578.0,1583.0,0.747,0.506,0.382,0.2
6449038,-2467.0,5976.0,1795.0,0.753,0.502,0.386,0.179
6449054,-2805.0,6108.0,1963.0,0.757,0.498,0.392,0.159
6449080,-3591.0,5306.0,2343.0,0.76,0.494,0.398,0.142
6449096,-4219.0,4304.0,2495.0,0.763,0.488,0.405,0.126
6449112,-4513.0,3370.0,2579.0,0.765,0.481,0.412,0.113
6449128,-4627.0,2506.0,2351.0,0.767,0.475,0.418,0.104
6449144,-4817.0,2102.0,2051.0,0.769,0.468,0.424,0.101
6449160,-4887.0,2542.0,1651.0,0.771,0.461,0.427,0.103
6449176,-4649.0,3200.0,1267.0,0.775,0.45,0.429,0.112
6449202,-4801.0,3588.0,839.0,0.781,0.435,0.428,0.13
6449218,-4897.0,4194.0,197.0,0.79,0.415,0.423,0.155
6449234,-4723.0,5690.0,-345.0,0.802,0.389,0.414,0.187
6449250,-4939.0,6320.0,-467.0,0.814,0.359,0.397,0.225
6449267,-4989.0,6492.0,-97.0,0.826,0.327,0.373,0.266
6449293,-4757.0,5660.0,697.0,0.837,0.296,0.343,0.307
6449309,-3935.0,4248.0,2101.0,0.846,0.268,0.31,0.342
6449325,-3287.0,2884.0,3449.0,0.855,0.244,0.277,0.365
6449341,-2397.0,2234.0,4895.0,0.863,0.231,0.249,0.374
6449357,-1691.0,2076.0,5711.0,0.869,0.232,0.227,0.373
6449373,-1331.0,2928.0,5895.0,0.873,0.246,0.211,0.365
6449389,-1287.0,4366.0,5747.0,0.874,0.268,0.199,0.354
6449415,-1107.0,5646.0,5893.0,0.873,0.292,0.189,0.341
6449431,-919.0,6374.0,6123.0,0.873,0.314,0.179,0.328
6449447,-577.0,6968.0,6309.0,0.873,0.331,0.17,0.316
6449463,-165.0,6500.0,6175.0,0.873,0.341,0.16,0.308
6449479,-455.0,4814.0,5921.0,0.875,0.345,0.15,0.305
6449495,-1003.0,2484.0,5391.0,0.876,0.347,0.141,0.304
6449521,-1487.0,482.0,4793.0,0.876,0.348,0.133,0.305
6449537,-1501.0,-690.0,4335.0,0.875,0.353,0.125,0.307
6449553,-1253.0,-894.0,3969.0,0.871,0.362,0.117,0.311
6449569,-919.0,-792.0,3951.0,0.864,0.377,0.106,0.316
6449585,73.0,544.0,6885.0,0.855,0.395,0.089,0.324
6449601,6307.0,32767.0,20763.0,0.852,0.408,0.068,0.321
6449627,12659.0,27804.0,15999.0,0.863,0.387,0.064,0.318
6449643,4037.0,6872.0,11171.0,0.868,0.37,0.06,0.325
6449659,-365.0,1086.0,7839.0,0.868,0.367,0.058,0.329
6449675,1167.0,344.0,5559.0,0.864,0.378,0.06,0.328
6449691,1659.0,780.0,3495.0,0.858,0.393,0.066,0.323
6449707,1151.0,1176.0,2625.0,0.852,0.409,0.074,0.32
6449733,665.0,1746.0,2843.0,0.844,0.424,0.081,0.318
6449749,443.0,4040.0,3873.0,0.836,0.44,0.085,0.319
6449765,1367.0,7338.0,5063.0,0.828,0.452,0.084,0.321
6449781,2953.0,11588.0,6417.0,0.824,0.458,0.081,0.324
6449797,4943.0,14352.0,6785.0,0.823,0.459,0.08,0.326
6449823,3747.0,9898.0,5815.0,0.823,0.455,0.084,0.33
6449839,1077.0,6572.0,4853.0,0.823,0.452,0.09,0.332
6449855,827.0,5006.0,4121.0,0.821,0.454,0.095,0.333
6449871,693.0,4322.0,3483.0,0.819,0.457,0.101,0.332
6449887,249.0,4726.0,3439.0,0.816,0.46,0.106,0.332
6449903,103.0,5792.0,3865.0,0.814,0.464,0.111,0.331
6449929,315.0,7236.0,4411.0,0.811,0.468,0.114,0.33
6449945,559.0,8356.0,4739.0,0.809,0.472,0.118,0.329
6449961,589.0,8598.0,4693.0,0.808,0.475,0.121,0.328
6449977,349.0,8084.0,4585.0,0.806,0.477,0.124,0.327
6449993,293.0,7436.0,4353.0,0.805,0.479,0.125,0.325
6450009,525.0,6976.0,4159.0,0.805,0.48,0.126,0.325
6450035,757.0,6712.0,4113.0,0.805,0.481,0.125,0.325
6450051,915.0,6618.0,4237.0,0.805,0.48,0.123,0.327
6450067,1177.0,6662.0,4395.0,0.805,0.479,0.121,0.328
6450083,1385.0,6870.0,4587.0,0.805,0.478,0.12,0.33
6450099,1565.0,6910.0,4677.0,0.805,0.477,0.118,0.332
6450115,1711.0,7040.0,4683.0,0.805,0.477,0.117,0.334
6450141,1807.0,7188.0,4667.0,0.805,0.476,0.115,0.335
6450157,1827.0,7164.0,4655.0,0.805,0.475,0.114,0.337
6450173,1605.0,6804.0,4549.0,0.806,0.473,0.113,0.339
6450189,1201.0,6096.0,4411.0,0.806,0.47,0.112,0.341
6450205,957.0,5564.0,4353.0,0.807,0.469,0.112,0.342
6450221,785.0,5638.0,4397.0,0.807,0.468,0.111,0.344
6450247,811.0,6052.0,4563.0,0.806,0.468,0.111,0.345
6450263,885.0,6580.0,4663.0,0.805,0.47,0.112,0.346
6450279,963.0,7284.0,4747.0,0.803,0.471,0.113,0.347
6450295,873.0,7648.0,4863.0,0.802,0.471,0.113,0.35
6450311,773.0,7176.0,4911.0,0.801,0.469,0.112,0.354
6450327,925.0,6786.0,4953.0,0.802,0.466,0.11,0.358
6450353,1125.0,6768.0,5061.0,0.802,0.461,0.108,0.363
6450369,1355.0,6888.0,5083.0,0.802,0.457,0.106,0.369
6450385,1555.0,7204.0,5047.0,0.802,0.453,0.105,0.374
6450401,1409.0,7450.0,4979.0,0.802,0.449,0.103,0.379
6450417,1299.0,7182.0,4769.0,0.802,0.445,0.101,0.385
6450433,1371.0,6794.0,4541.0,0.803,0.44,0.099,0.39
6450459,1373.0,6592.0,4579.0,0.804,0.434,0.096,0.395
6450475,1547.0,6496.0,4839.0,0.806,0.427,0.091,0.4
6450491,1929.0,6456.0,5049.0,0.809,0.418,0.086,0.405
6450507,2109.0,6304.0,5265.0,0.811,0.409,0.08,0.41
6450523,2009.0,5916.0,5443.0,0.814,0.4,0.075,0.415
6450549,1861.0,5600.0,5599.0,0.817,0.391,0.069,0.419
6450565,1833.0,5362.0,5739.0,0.819,0.382,0.064,0.424
6450581,1857.0,5090.0,5905.0,0.822,0.372,0.058,0.428
6450597,1909.0,5150.0,6137.0,0.824,0.363,0.053,0.432
6450613,1975.0,5146.0,6473.0,0.827,0.353,0.047,0.436
6450629,2043.0,4922.0,6573.0,0.829,0.342,0.042,0.441
6450655,1969.0,4644.0,6731.0,0.831,0.332,0.037,0.446
6450671,1789.0,4230.0,6869.0,0.832,0.322,0.032,0.451
6450687,1617.0,3726.0,6919.0,0.833,0.314,0.029,0.455
6450703,1465.0,3646.0,6923.0,0.833,0.31,0.027,0.458
6450719,1369.0,3774.0,6867.0,0.832,0.308,0.025,0.46
6450735,1529.0,4148.0,6759.0,0.831,0.308,0.024,0.462
6450761,1777.0,4672.0,6681.0,0.83,0.308,0.023,0.463
6450777,2035.0,4854.0,6543.0,0.83,0.308,0.022,0.465
6450793,2089.0,4738.0,6425.0,0.829,0.306,0.019,0.467
6450809,2037.0,4494.0,6407.0,0.83,0.303,0.015,0.469
6450825,2225.0,4260.0,6455.0,0.83,0.3,0.01,0.47
6450841,2619.0,3894.0,6557.0,0.831,0.297,0.005,0.471
6450867,2677.0,3866.0,6709.0,0.832,0.295,0.001,0.47
6450883,2989.0,3676.0,6825.0,0.833,0.294,-0.003,0.469
6450899,2893.0,3624.0,7411.0,0.834,0.295,-0.006,0.467
6450915,2829.0,3410.0,7915.0,0.834,0.3,-0.007,0.462
6450931,2955.0,3274.0,7759.0,0.834,0.31,-0.005,0.456
6450947,2741.0,3260.0,7307.0,0.832,0.325,-0.001,0.449
6450973,2599.0,3734.0,6931.0,0.828,0.347,0.007,0.44
6450989,2487.0,5072.0,6329.0,0.822,0.373,0.015,0.43
6451005,2473.0,6732.0,5999.0,0.815,0.398,0.024,0.42
6451021,2661.0,8480.0,5857.0,0.81,0.418,0.032,0.409
6451037,3045.0,10232.0,6659.0,0.808,0.43,0.036,0.401
6451063,3811.0,11308.0,7015.0,0.811,0.431,0.036,0.394
6451079,4047.0,10000.0,6829.0,0.817,0.422,0.032,0.392
6451095,3227.0,7086.0,6413.0,0.825,0.405,0.028,0.393
6451111,2407.0,4336.0,6141.0,0.833,0.385,0.026,0.395
6451127,2009.0,3078.0,6107.0,0.839,0.369,0.027,0.398
6451143,1705.0,2466.0,6233.0,0.843,0.356,0.031,0.401
6451159,1501.0,2982.0,6581.0,0.845,0.349,0.039,0.404
6451185,1647.0,3644.0,6735.0,0.845,0.346,0.049,0.404
6451201,1881.0,5054.0,6805.0,0.845,0.346,0.059,0.403
6451217,1781.0,5250.0,6669.0,0.845,0.348,0.069,0.401
6451233,1261.0,4730.0,6361.0,0.844,0.353,0.08,0.396
6451249,1171.0,4888.0,6083.0,0.843,0.361,0.093,0.388
6451265,1231.0,5690.0,6075.0,0.84,0.375,0.108,0.377
6451291,1251.0,6880.0,6015.0,0.835,0.394,0.124,0.363
6451307,1127.0,7798.0,5479.0,0.829,0.416,0.142,0.345
6451323,863.0,8862.0,4625.0,0.824,0.437,0.161,0.322
6451339,715.0,9116.0,3891.0,0.821,0.452,0.183,0.297
6451355,35.0,9092.0,3441.0,0.819,0.461,0.206,0.271
6451381,-763.0,7786.0,3457.0,0.82,0.463,0.229,0.246
6451397,-1591.0,5960.0,3475.0,0.822,0.459,0.251,0.225
6451413,-2575.0,3746.0,3515.0,0.825,0.452,0.271,0.206
6451429,-3505.0,2186.0,3567.0,0.827,0.443,0.288,0.19
6451445,-4017.0,1230.0,3487.0,0.829,0.436,0.302,0.176
6451461,-4167.0,1090.0,3473.0,0.83,0.431,0.312,0.166
6451477,-4205.0,1116.0,3285.0,0.831,0.427,0.318,0.161
6451503,-4211.0,926.0,3129.0,0.832,0.423,0.319,0.162
6451519,-4025.0,1444.0,3055.0,0.834,0.42,0.317,0.167
6451535,-3401.0,2704.0,3131.0,0.834,0.419,0.311,0.178
6451551,-2945.0,3394.0,3265.0,0.835,0.419,0.301,0.194
6451567,-2385.0,5006.0,3411.0,0.834,0.42,0.289,0.212
6451593,-1463.0,6062.0,3515.0,0.832,0.422,0.275,0.234
6451609,-1091.0,6410.0,3763.0,0.829,0.424,0.259,0.257
6451625,-465.0,6906.0,3905.0,0.825,0.427,0.244,0.278
6451641,443.0,7502.0,4089.0,0.821,0.431,0.23,0.296
6451657,1213.0,8486.0,4409.0,0.816,0.436,0.22,0.31
6451673,1899.0,9356.0,4511.0,0.812,0.441,0.212,0.319
6451699,1733.0,9212.0,4445.0,0.809,0.443,0.206,0.326
6451715,1345.0,8324.0,4247.0,0.808,0.444,0.204,0.33
6451731,765.0,7438.0,4127.0,0.806,0.444,0.204,0.334
6451747,203.0,6480.0,4009.0,0.804,0.444,0.204,0.338
6451763,-367.0,6140.0,4199.0,0.802,0.445,0.206,0.342
6451779,297.0,7480.0,4359.0,0.799,0.447,0.206,0.346
6451805,381.0,8044.0,4489.0,0.797,0.446,0.203,0.352
6451821,147.0,7930.0,4505.0,0.796,0.444,0.198,0.361
6451837,31.0,7358.0,4389.0,0.797,0.438,0.191,0.37
6451853,-325.0,6254.0,4231.0,0.798,0.43,0.184,0.38
6451869,-699.0,5312.0,4075.0,0.8,0.42,0.176,0.391
6451886,-897.0,5190.0,4233.0,0.801,0.41,0.168,0.402
6451902,-697.0,5120.0,4423.0,0.802,0.4,0.16,0.414
6451928,-973.0,4430.0,4271.0,0.802,0.391,0.151,0.426
6451944,-1187.0,3164.0,3965.0,0.801,0.383,0.141,0.438
6451960,-1397.0,1776.0,3483.0,0.798,0.378,0.133,0.45
6451976,-1617.0,466.0,2983.0,0.794,0.378,0.126,0.46
6451992,-649.0,916.0,3675.0,0.786,0.384,0.121,0.469
6452008,5927.0,23532.0,12279.0,0.784,0.386,0.126,0.47
6452034,7791.0,24350.0,15707.0,0.795,0.367,0.139,0.462
6452050,-1213.0,12180.0,10135.0,0.796,0.357,0.14,0.468
6452066,-1599.0,3780.0,5813.0,0.794,0.356,0.136,0.474
6452082,-833.0,592.0,3785.0,0.791,0.36,0.132,0.477
6452098,1201.0,1532.0,3123.0,0.788,0.368,0.13,0.477
6452124,1367.0,4248.0,3495.0,0.787,0.374,0.127,0.474
6452140,2275.0,6282.0,4733.0,0.787,0.376,0.122,0.474
6452156,2865.0,7984.0,6185.0,0.789,0.373,0.115,0.474
6452172,3273.0,8524.0,6845.0,0.793,0.366,0.107,0.475
6452188,2673.0,6824.0,6649.0,0.797,0.356,0.1,0.477
6452204,1849.0,4290.0,6311.0,0.802,0.348,0.095,0.477
6452230,1317.0,3064.0,6235.0,0.805,0.344,0.092,0.475
6452246,1159.0,3532.0,6545.0,0.806,0.344,0.091,0.473
6452262,1481.0,4444.0,6691.0,0.807,0.345,0.091,0.47
6452278,1683.0,4940.0,6631.0,0.807,0.348,0.092,0.468
6452294,1583.0,5028.0,6463.0,0.807,0.351,0.094,0.465
6452310,1283.0,4874.0,6277.0,0.807,0.355,0.097,0.463
6452336,941.0,4794.0,6069.0,0.806,0.36,0.101,0.459
6452352,737.0,5008.0,5747.0,0.804,0.367,0.106,0.455
6452368,661.0,5448.0,5521.0,0.803,0.376,0.112,0.449
6452384,615.0,5840.0,5423.0,0.801,0.385,0.117,0.443
6452400,581.0,6342.0,5289.0,0.799,0.394,0.122,0.437
6452426,643.0,6628.0,5137.0,0.798,0.403,0.125,0.43
6452442,749.0,6820.0,5091.0,0.797,0.41,0.128,0.425
6452458,727.0,6950.0,5167.0,0.796,0.416,0.129,0.42
6452474,901.0,6896.0,5141.0,0.796,0.421,0.129,0.417
6452490,1149.0,6866.0,5205.0,0.796,0.423,0.127,0.414
6452506,1421.0,6906.0,5307.0,0.796,0.425,0.124,0.412
6452522,1721.0,6834.0,5471.0,0.798,0.424,0.12,0.412
6452548,1979.0,6590.0,5571.0,0.799,0.422,0.115,0.412
6452564,2209.0,6190.0,5613.0,0.801,0.419,0.11,0.413
6452580,2429.0,5878.0,5659.0,0.803,0.415,0.105,0.415
6452596,2525.0,5670.0,5813.0,0.805,0.41,0.1,0.417
6452612,2473.0,5520.0,5901.0,0.806,0.405,0.096,0.42
6452628,2405.0,5574.0,6067.0,0.808,0.399,0.093,0.423
6452654,2353.0,5540.0,6155.0,0.809,0.393,0.09,0.427
6452670,2149.0,5458.0,6321.0,0.81,0.386,0.088,0.432
6452686,2093.0,5000.0,6215.0,0.811,0.38,0.087,0.436
6452702,1841.0,5006.0,6317.0,0.811,0.374,0.087,0.441
6452718,1785.0,5032.0,6323.0,0.811,0.368,0.087,0.446
6452744,1663.0,4916.0,6321.0,0.81,0.363,0.088,0.452
6452760,1631.0,4970.0,6297.0,0.809,0.359,0.089,0.457
6452776,1527.0,4940.0,6241.0,0.808,0.355,0.091,0.462
6452792,1387.0,5004.0,6201.0,0.806,0.352,0.094,0.467
6452808,1217.0,5138.0,6145.0,0.804,0.349,0.097,0.472
6452824,1069.0,5254.0,6041.0,0.801,0.348,0.101,0.476
6452840,923.0,5398.0,5929.0,0.799,0.347,0.105,0.48
6452866,761.0,5576.0,5917.0,0.796,0.347,0.109,0.483
6452882,705.0,5694.0,5873.0,0.794,0.348,0.113,0.486
6452898,607.0,5850.0,5801.0,0.792,0.349,0.117,0.488
6452914,443.0,5874.0,5639.0,0.789,0.351,0.121,0.489
6452930,435.0,5952.0,5573.0,0.787,0.353,0.124,0.49
6452956,251.0,5942.0,5415.0,0.786,0.356,0.128,0.489
6452972,69.0,5972.0,5199.0,0.784,0.36,0.132,0.487
6452988,-29.0,6214.0,5011.0,0.783,0.366,0.136,0.484
6453004,-65.0,6402.0,4941.0,0.783,0.371,0.14,0.48
6453020,-93.0,6546.0,4809.0,0.782,0.377,0.143,0.474
6453036,-81.0,6546.0,4793.0,0.782,0.384,0.145,0.468
6453062,-23.0,6670.0,4699.0,0.783,0.391,0.147,0.461
6453078,69.0,6818.0,4725.0,0.784,0.398,0.148,0.454
6453094,251.0,6934.0,4745.0,0.785,0.404,0.147,0.446
6453110,309.0,6924.0,4855.0,0.786,0.41,0.145,0.439
6453126,547.0,6894.0,4903.0,0.788,0.414,0.142,0.432
6453142,825.0,6860.0,4983.0,0.79,0.418,0.138,0.426
6453168,1105.0,6682.0,5119.0,0.793,0.421,0.132,0.421
6453184,1511.0,6664.0,5301.0,0.795,0.423,0.125,0.416
6453200,1971.0,6472.0,5381.0,0.798,0.424,0.117,0.412
6453216,2439.0,6342.0,5413.0,0.801,0.424,0.109,0.409
6453232,2891.0,6144.0,5543.0,0.804,0.423,0.1,0.407
6453248,3127.0,5854.0,5759.0,0.807,0.419,0.092,0.406
6453274,3199.0,5532.0,5971.0,0.81,0.414,0.084,0.406
6453290,3351.0,5254.0,6245.0,0.814,0.407,0.077,0.407
6453306,3377.0,4994.0,6547.0,0.817,0.4,0.069,0.409
6453322,3333.0,4746.0,6627.0,0.82,0.392,0.063,0.413
6453339,3159.0,4560.0,6681.0,0.822,0.384,0.059,0.417
6453355,2923.0,4572.0,6807.0,0.823,0.376,0.056,0.421
6453381,2633.0,4478.0,6855.0,0.824,0.369,0.055,0.426
6453397,2343.0,4390.0,6825.0,0.824,0.363,0.055,0.432
6453413,2081.0,4388.0,6695.0,0.824,0.357,0.056,0.437
6453429,2039.0,4526.0,6647.0,0.822,0.352,0.057,0.443
6453445,1905.0,4512.0,6553.0,0.821,0.348,0.059,0.449
6453461,1753.0,4644.0,6439.0,0.819,0.345,0.062,0.455
6453487,1731.0,4804.0,6275.0,0.816,0.343,0.065,0.461
6453503,1623.0,5036.0,6149.0,0.813,0.342,0.069,0.467
6453519,1555.0,5244.0,6011.0,0.81,0.341,0.073,0.472
6453535,1439.0,5528.0,5931.0,0.807,0.341,0.077,0.477
6453552,1345.0,5562.0,5773.0,0.804,0.341,0.081,0.481
6453568,1171.0,5794.0,5721.0,0.801,0.34,0.084,0.485
6453584,1157.0,5882.0,5741.0,0.799,0.339,0.087,0.488
6453610,1013.0,5830.0,5769.0,0.798,0.338,0.088,0.491
6453626,955.0,5794.0,5863.0,0.797,0.336,0.09,0.494
6453642,905.0,5704.0,5911.0,0.797,0.334,0.09,0.496
6453658,803.0,5656.0,6085.0,0.797,0.331,0.09,0.497
6453674,705.0,5490.0,6199.0,0.797,0.329,0.091,0.498
6453690,599.0,5240.0,6237.0,0.798,0.327,0.09,0.499
6453716,563.0,5070.0,6263.0,0.798,0.325,0.09,0.499
6453732,615.0,4966.0,6225.0,0.798,0.325,0.09,0.499
6453748,731.0,5154.0,6229.0,0.798,0.325,0.09,0.499
6453764,879.0,5402.0,6225.0,0.799,0.326,0.089,0.498
6453780,947.0,5580.0,6223.0,0.799,0.326,0.088,0.497
6453796,969.0,5376.0,6189.0,0.8,0.326,0.087,0.496
6453822,1025.0,5282.0,6215.0,0.801,0.326,0.085,0.495
6453838,1095.0,5174.0,6271.0,0.803,0.326,0.082,0.493
6453854,1195.0,5086.0,6359.0,0.804,0.326,0.08,0.491
6453870,1405.0,4966.0,6453.0,0.806,0.327,0.077,0.488
6453886,1573.0,4820.0,6527.0,0.807,0.328,0.075,0.485
6453902,1757.0,4676.0,6489.0,0.809,0.329,0.073,0.483
6453928,1853.0,4672.0,6591.0,0.81,0.33,0.071,0.48
6453944,1969.0,4680.0,6557.0,0.811,0.332,0.069,0.477
6453960,1993.0,4736.0,6511.0,0.812,0.334,0.068,0.474
6453976,1977.0,4772.0,6509.0,0.813,0.337,0.068,0.471
6453992,1997.0,4794.0,6459.0,0.813,0.339,0.067,0.468
6454018,1913.0,4836.0,6443.0,0.814,0.341,0.066,0.466
6454034,1949.0,4886.0,6427.0,0.814,0.343,0.066,0.464
6454050,1945.0,5008.0,6331.0,0.815,0.345,0.066,0.461
6454066,1925.0,5058.0,6315.0,0.815,0.347,0.066,0.46
6454082,1917.0,5154.0,6349.0,0.815,0.349,0.065,0.458
6454098,1841.0,5204.0,6319.0,0.815,0.35,0.065,0.456
6454124,1835.0,5206.0,6287.0,0.816,0.351,0.064,0.455
6454140,1855.0,5246.0,6331.0,0.816,0.351,0.064,0.455
6454156,1779.0,5204.0,6335.0,0.816,0.351,0.063,0.455
6454172,1839.0,5150.0,6385.0,0.817,0.35,0.061,0.455
6454188,1769.0,5038.0,6389.0,0.817,0.349,0.06,0.455
6454204,1909.0,4944.0,6453.0,0.817,0.347,0.059,0.456
6454230,2009.0,4910.0,6531.0,0.817,0.346,0.057,0.457
6454246,2049.0,4902.0,6569.0,0.817,0.344,0.056,0.458
6454262,2117.0,4862.0,6467.0,0.818,0.343,0.055,0.46
6454278,2063.0,4738.0,6457.0,0.818,0.341,0.054,0.461
6454294,2017.0,4686.0,6505.0,0.818,0.339,0.053,0.462
6454310,2065.0,4660.0,6491.0,0.818,0.338,0.052,0.463
6454336,1947.0,4736.0,6455.0,0.818,0.336,0.052,0.465
6454352,1869.0,4806.0,6469.0,0.818,0.334,0.051,0.466
6454368,1829.0,4826.0,6493.0,0.817,0.333,0.051,0.467
6454384,1747.0,4854.0,6479.0,0.817,0.332,0.051,0.469
6454400,1691.0,4810.0,6473.0,0.817,0.33,0.051,0.47
6454426,1623.0,4910.0,6421.0,0.817,0.329,0.05,0.471
6454442,1669.0,4858.0,6391.0,0.817,0.328,0.05,0.472
6454458,1611.0,4840.0,6493.0,0.817,0.327,0.049,0.472
6454474,1649.0,4886.0,6481.0,0.817,0.326,0.049,0.473
6454490,1651.0,4802.0,6501.0,0.817,0.325,0.048,0.474
6454506,1713.0,4792.0,6575.0,0.817,0.324,0.047,0.475
6454522,1719.0,4700.0,6543.0,0.817,0.323,0.047,0.475
6454548,1785.0,4662.0,6587.0,0.817,0.322,0.046,0.476
6454564,1797.0,4586.0,6599.0,0.817,0.322,0.045,0.476
6454580,1855.0,4586.0,6627.0,0.817,0.321,0.045,0.476
6454596,1837.0,4610.0,6593.0,0.817,0.321,0.044,0.476
6454612,1889.0,4590.0,6533.0,0.817,0.321,0.044,0.477
6454628,1827.0,4642.0,6593.0,0.817,0.32,0.044,0.477
6454654,1853.0,4640.0,6609.0,0.817,0.32,0.044,0.477
6454670,1843.0,4616.0,6617.0,0.818,0.32,0.043,0.477
6454686,1793.0,4604.0,6639.0,0.818,0.32,0.043,0.477
6454702,1825.0,4532.0,6623.0,0.818,0.319,0.042,0.477
6454718,1825.0,4536.0,6647.0,0.818,0.319,0.042,0.477
6454734,1951.0,4560.0,6637.0,0.818,0.319,0.041,0.477
6454760,1965.0,4558.0,6619.0,0.818,0.319,0.041,0.477
6454776,2057.0,4466.0,6659.0,0.818,0.318,0.04,0.477
6454792,2037.0,4504.0,6673.0,0.818,0.318,0.04,0.477
6454808,2009.0,4480.0,6689.0,0.818,0.318,0.04,0.477
6454824,1945.0,4454.0,6715.0,0.818,0.318,0.04,0.478
6454850,1915.0,4494.0,6735.0,0.818,0.317,0.04,0.478
6454866,1957.0,4448.0,6723.0,0.818,0.317,0.04,0.478
6454882,1931.0,4456.0,6677.0,0.818,0.317,0.04,0.478
6454898,1921.0,4442.0,6697.0,0.818,0.317,0.04,0.478
6454914,1941.0,4284.0,6735.0,0.817,0.318,0.041,0.478
6454930,1793.0,3684.0,7013.0,0.816,0.322,0.042,0.478
6454956,1441.0,2154.0,7893.0,0.813,0.334,0.046,0.476
6454972,1915.0,1260.0,8629.0,0.804,0.358,0.053,0.472
6454988,1887.0,924.0,8657.0,0.791,0.394,0.068,0.464
6455004,1177.0,422.0,8539.0,0.771,0.442,0.09,0.449
6455020,-641.0,640.0,6339.0,0.74,0.507,0.118,0.425
6455036,591.0,5382.0,2699.0,0.7,0.579,0.152,0.39
6455062,4225.0,12906.0,443.0,0.658,0.638,0.191,0.352
6455078,5819.0,17760.0,-783.0,0.623,0.672,0.234,0.325
6455094,3685.0,19916.0,-1809.0,0.601,0.68,0.276,0.315
6455110,215.0,20096.0,-2059.0,0.601,0.666,0.31,0.316
6455126,-939.0,14072.0,-2665.0,0.618,0.638,0.329,0.321
6455143,-399.0,7860.0,-3579.0,0.638,0.611,0.34,0.323
6455159,-1189.0,5786.0,-3871.0,0.655,0.589,0.347,0.321
6455185,-1489.0,5604.0,-3783.0,0.67,0.574,0.35,0.313
6455201,-1681.0,6228.0,-3747.0,0.685,0.562,0.35,0.303
6455217,-1541.0,6206.0,-3417.0,0.701,0.55,0.344,0.294
6455233,-1387.0,6326.0,-2651.0,0.718,0.538,0.334,0.289
6455249,-1475.0,6412.0,-1459.0,0.735,0.525,0.32,0.287
6455265,-1415.0,6310.0,-229.0,0.752,0.51,0.301,0.29
6455291,-969.0,5966.0,1091.0,0.769,0.493,0.278,0.297
6455307,-469.0,6058.0,1951.0,0.787,0.471,0.254,0.308
6455323,19.0,6044.0,2603.0,0.804,0.444,0.228,0.323
6455339,97.0,5688.0,3091.0,0.82,0.412,0.202,0.342
6455355,-77.0,4618.0,3591.0,0.834,0.376,0.177,0.363
6455381,-95.0,3302.0,4265.0,0.845,0.338,0.154,0.385
6455397,-87.0,2104.0,5003.0,0.852,0.303,0.134,0.407
6455413,-387.0,902.0,5693.0,0.855,0.272,0.119,0.426
6455429,-659.0,-294.0,6355.0,0.855,0.25,0.109,0.441
6455445,-863.0,-904.0,7017.0,0.853,0.242,0.106,0.451
6455461,-663.0,-24.0,6923.0,0.849,0.248,0.107,0.455
6455487,-583.0,736.0,6019.0,0.843,0.265,0.113,0.454
6455503,-1105.0,738.0,4547.0,0.837,0.291,0.122,0.448
6455519,-1637.0,480.0,2945.0,0.827,0.325,0.136,0.437
6455535,-1827.0,760.0,1589.0,0.814,0.367,0.151,0.423
6455551,-1545.0,1626.0,873.0,0.797,0.414,0.166,0.407
6455567,-147.0,5268.0,349.0,0.778,0.458,0.178,0.391
6455593,2345.0,9732.0,595.0,0.763,0.488,0.184,0.382
6455609,2767.0,11488.0,1377.0,0.755,0.498,0.181,0.385
6455625,2307.0,9240.0,1561.0,0.755,0.492,0.166,0.401
6455641,1349.0,8008.0,3155.0,0.759,0.475,0.139,0.423
6455657,1477.0,10788.0,7089.0,0.762,0.458,0.084,0.449
6455673,4613.0,16962.0,12327.0,0.758,0.446,0.02,0.476
6455699,10197.0,15064.0,6943.0,0.75,0.438,-0.046,0.493
6455715,14259.0,9486.0,7227.0,0.756,0.411,-0.099,0.5
6455731,11133.0,1358.0,6741.0,0.77,0.383,-0.122,0.496
6455747,9015.0,-1814.0,7681.0,0.781,0.37,-0.117,0.488
6455763,5203.0,-1112.0,7229.0,0.79,0.371,-0.097,0.478
6455779,3711.0,558.0,6875.0,0.795,0.382,-0.072,0.466
6455805,3189.0,2524.0,6801.0,0.796,0.398,-0.047,0.454
6455821,2475.0,3760.0,6203.0,0.795,0.412,-0.025,0.444
6455837,2119.0,4290.0,5499.0,0.793,0.425,-0.007,0.437
6455853,2181.0,4790.0,4753.0,0.789,0.435,0.005,0.435
6455869,1935.0,5584.0,4467.0,0.784,0.441,0.014,0.436
6455885,1765.0,6508.0,4375.0,0.78,0.444,0.019,0.441
6455911,1667.0,7498.0,4437.0,0.776,0.445,0.023,0.446
6455927,1659.0,8378.0,4275.0,0.772,0.446,0.027,0.452
6455943,1785.0,8632.0,3885.0,0.769,0.447,0.032,0.455
6455959,1665.0,7976.0,3855.0,0.768,0.449,0.039,0.455
6455975,1197.0,6690.0,3915.0,0.769,0.451,0.049,0.451
6456001,911.0,5910.0,3883.0,0.77,0.455,0.057,0.445
6456017,827.0,6034.0,4029.0,0.769,0.46,0.063,0.439
6456033,1021.0,6178.0,3967.0,0.768,0.466,0.067,0.434
6456049,1431.0,6130.0,3903.0,0.767,0.471,0.066,0.43
6456065,1625.0,6702.0,3927.0,0.767,0.475,0.063,0.427
6456081,2185.0,6828.0,3873.0,0.768,0.477,0.056,0.424
6456097,2615.0,6738.0,4043.0,0.769,0.478,0.048,0.422
6456123,3329.0,6672.0,4219.0,0.771,0.478,0.038,0.42
6456139,3701.0,6422.0,4569.0,0.773,0.476,0.028,0.418
6456155,4999.0,5930.0,5605.0,0.776,0.472,0.018,0.417
6456171,5679.0,4824.0,6003.0,0.779,0.468,0.011,0.418
6456187,4799.0,4550.0,6071.0,0.78,0.462,0.005,0.422
6456203,4617.0,4226.0,6201.0,0.781,0.457,0.001,0.425
6456229,4347.0,4178.0,6101.0,0.781,0.455,-0.003,0.428
6456245,4487.0,4378.0,5897.0,0.781,0.454,-0.005,0.429
6456261,4501.0,4990.0,5761.0,0.78,0.456,-0.005,0.429
6456277,4617.0,5460.0,5631.0,0.779,0.458,-0.004,0.428
6456293,4503.0,5716.0,5403.0,0.779,0.458,-0.003,0.428
6456319,4193.0,5676.0,5161.0,0.779,0.457,-0.003,0.429
6456335,3993.0,5398.0,5061.0,0.779,0.455,-0.004,0.432
6456351,4087.0,5098.0,5227.0,0.78,0.451,-0.006,0.435
6456367,4123.0,4878.0,5415.0,0.78,0.446,-0.008,0.439
6456383,4241.0,4706.0,5561.0,0.78,0.441,-0.01,0.444
6456399,4203.0,4586.0,5709.0,0.779,0.437,-0.01,0.45
6456425,4289.0,4596.0,5787.0,0.778,0.433,-0.01,0.456
6456441,4197.0,4672.0,5717.0,0.776,0.43,-0.008,0.462
6456457,4023.0,4834.0,5619.0,0.774,0.428,-0.005,0.468
6456473,3805.0,5044.0,5417.0,0.771,0.426,0.0,0.474
6456489,3503.0,5266.0,5251.0,0.767,0.425,0.006,0.48
6456505,3165.0,5566.0,5109.0,0.764,0.425,0.014,0.485
6456531,2811.0,5770.0,4863.0,0.76,0.426,0.022,0.49
6456547,2515.0,6070.0,4691.0,0.756,0.428,0.03,0.495
6456563,2319.0,6382.0,4533.0,0.752,0.431,0.039,0.498
6456579,2055.0,6660.0,4289.0,0.748,0.434,0.047,0.5
6456595,1825.0,7058.0,4071.0,0.744,0.438,0.055,0.5
6456611,1609.0,7442.0,3827.0,0.742,0.443,0.063,0.5
6456637,1453.0,7844.0,3565.0,0.739,0.449,0.071,0.497
6456653,1035.0,8036.0,3317.0,0.738,0.453,0.079,0.494
6456669,705.0,8032.0,3237.0,0.738,0.457,0.086,0.489
6456685,441.0,7982.0,3341.0,0.739,0.461,0.093,0.483
6456701,337.0,7722.0,3377.0,0.741,0.463,0.097,0.476
6456717,265.0,7666.0,3497.0,0.743,0.465,0.1,0.47
6456743,371.0,7404.0,3611.0,0.746,0.466,0.101,0.464
6456759,497.0,7158.0,3817.0,0.749,0.467,0.1,0.459
6456775,677.0,6886.0,3945.0,0.752,0.467,0.096,0.454
6456791,1053.0,6490.0,4083.0,0.756,0.467,0.091,0.45
6456807,1399.0,6230.0,4147.0,0.759,0.467,0.084,0.446
6456823,1811.0,5996.0,4191.0,0.762,0.468,0.077,0.442
6456849,2317.0,5944.0,4285.0,0.764,0.469,0.068,0.439
6456865,2841.0,5904.0,4295.0,0.766,0.47,0.059,0.435
6456882,3255.0,5872.0,4283.0,0.768,0.471,0.05,0.431
6456898,3807.0,5820.0,4353.0,0.769,0.473,0.039,0.428
6456914,4269.0,5976.0,4499.0,0.771,0.474,0.029,0.424
6456930,4745.0,6032.0,4793.0,0.774,0.473,0.018,0.421
6456956,5967.0,5404.0,5705.0,0.777,0.47,0.009,0.42
6456972,5641.0,5068.0,6071.0,0.779,0.465,0.003,0.42
6456988,5043.0,4688.0,6225.0,0.782,0.459,-0.003,0.422
6457004,4765.0,4226.0,6335.0,0.784,0.454,-0.008,0.423
6457020,4767.0,3880.0,6323.0,0.785,0.452,-0.012,0.423
6457036,4713.0,3990.0,6279.0,0.786,0.452,-0.013,0.423
6457062,4475.0,4926.0,5791.0,0.785,0.453,-0.012,0.421
6457078,4313.0,5252.0,5531.0,0.785,0.454,-0.011,0.421
6457094,4299.0,5040.0,5551.0,0.784,0.455,-0.01,0.422
6457110,3931.0,5788.0,5369.0,0.784,0.455,-0.008,0.423
6457126,3777.0,5960.0,5297.0,0.783,0.454,-0.006,0.425
6457142,3675.0,5878.0,5265.0,0.783,0.452,-0.003,0.428
6457168,3411.0,5934.0,5191.0,0.782,0.451,0.001,0.43
6457184,3029.0,5692.0,4991.0,0.781,0.451,0.006,0.433
6457200,2661.0,5596.0,4681.0,0.779,0.452,0.013,0.434
6457216,2361.0,5674.0,4375.0,0.777,0.454,0.02,0.435
6457232,1923.0,5962.0,4157.0,0.774,0.458,0.027,0.436
6457248,2003.0,6316.0,3813.0,0.771,0.462,0.033,0.437
6457274,2287.0,6742.0,3823.0,0.768,0.467,0.038,0.437
6457290,2339.0,7222.0,3955.0,0.765,0.472,0.041,0.436
6457306,2393.0,7330.0,3913.0,0.764,0.476,0.043,0.434
6457322,2913.0,7302.0,3973.0,0.763,0.479,0.043,0.432
6457338,3013.0,6592.0,4117.0,0.763,0.482,0.043,0.428
6457354,3283.0,5848.0,4007.0,0.763,0.486,0.042,0.425
6457380,2413.0,6166.0,4135.0,0.763,0.489,0.041,0.42
6457396,2449.0,6338.0,4143.0,0.764,0.492,0.04,0.416
6457412,2443.0,6304.0,4219.0,0.764,0.494,0.038,0.413
6457428,2613.0,6434.0,4295.0,0.765,0.494,0.036,0.411
6457444,2731.0,6600.0,4397.0,0.767,0.493,0.032,0.41
6457460,3009.0,6648.0,4605.0,0.768,0.49,0.027,0.411
6457486,3623.0,6542.0,4923.0,0.77,0.486,0.023,0.412
6457502,3741.0,6074.0,5027.0,0.772,0.482,0.019,0.414
6457518,3889.0,5532.0,5069.0,0.774,0.477,0.017,0.416
6457534,3495.0,5250.0,5075.0,0.775,0.474,0.016,0.418
6457550,3409.0,5156.0,4973.0,0.775,0.473,0.016,0.419
6457566,3243.0,5332.0,4869.0,0.774,0.473,0.017,0.42
6457592,3193.0,5726.0,4647.0,0.773,0.474,0.019,0.421
6457608,3187.0,5934.0,4595.0,0.772,0.475,0.02,0.422
6457624,3135.0,6330.0,4549.0,0.771,0.476,0.021,0.423
6457640,3121.0,6546.0,4461.0,0.77,0.477,0.023,0.424
6457656,3217.0,6716.0,4489.0,0.769,0.477,0.024,0.424
6457682,3043.0,6992.0,4523.0,0.769,0.478,0.025,0.424
6457698,3069.0,6698.0,4707.0,0.769,0.476,0.025,0.426
6457714,3093.0,6332.0,4713.0,0.771,0.472,0.025,0.428
6457730,2485.0,5520.0,4849.0,0.772,0.467,0.025,0.43
6457746,2549.0,5220.0,4893.0,0.772,0.465,0.026,0.433
6457762,2405.0,5476.0,4777.0,0.771,0.465,0.028,0.435
6457788,2347.0,5670.0,4543.0,0.768,0.468,0.03,0.436
6457804,2577.0,6068.0,4247.0,0.766,0.471,0.032,0.437
6457820,2677.0,6450.0,4011.0,0.763,0.476,0.034,0.437
6457836,2837.0,6716.0,4041.0,0.76,0.479,0.034,0.437
6457852,3013.0,6768.0,3999.0,0.759,0.481,0.034,0.438
6457868,3269.0,6644.0,4007.0,0.757,0.482,0.032,0.439
6457894,3511.0,6388.0,4077.0,0.757,0.482,0.029,0.44
6457910,3709.0,6150.0,4267.0,0.757,0.481,0.025,0.442
6457926,3941.0,6106.0,4443.0,0.756,0.48,0.02,0.444
6457942,4137.0,5834.0,4573.0,0.756,0.479,0.015,0.446
6457958,4439.0,5336.0,4825.0,0.756,0.477,0.011,0.447
6457974,4523.0,5438.0,5161.0,0.756,0.476,0.006,0.45
6458000,4787.0,5686.0,5607.0,0.756,0.474,0.003,0.452
6458016,5059.0,5634.0,5945.0,0.756,0.472,0.0,0.454
6458032,5329.0,5352.0,6053.0,0.756,0.469,-0.001,0.457
6458048,5325.0,4952.0,6061.0,0.755,0.465,0.0,0.461
6458064,4847.0,4574.0,5973.0,0.754,0.462,0.004,0.466
6458080,4453.0,4670.0,5733.0,0.752,0.46,0.01,0.472
6458106,4297.0,5018.0,5403.0,0.749,0.458,0.017,0.479
6458122,4091.0,5454.0,5195.0,0.744,0.458,0.025,0.486
6458138,4045.0,5790.0,4715.0,0.739,0.457,0.033,0.494
6458154,4401.0,6604.0,4415.0,0.734,0.455,0.042,0.502
6458170,4479.0,7312.0,4293.0,0.73,0.45,0.05,0.512
6458186,4461.0,7262.0,4379.0,0.728,0.44,0.059,0.522
6458212,3839.0,6594.0,4655.0,0.727,0.428,0.067,0.533
6458228,2817.0,6016.0,5091.0,0.725,0.415,0.074,0.544
6458244,2403.0,6192.0,5341.0,0.723,0.401,0.077,0.557
6458260,2049.0,5834.0,5509.0,0.721,0.387,0.076,0.569
6458276,2435.0,5754.0,5815.0,0.718,0.373,0.071,0.583
6458292,2149.0,5370.0,6637.0,0.715,0.36,0.064,0.596
6458318,2467.0,4246.0,6867.0,0.71,0.352,0.056,0.607
6458334,2817.0,4044.0,6757.0,0.704,0.348,0.051,0.616
6458350,3375.0,4848.0,6535.0,0.698,0.347,0.048,0.625
6458366,3335.0,5512.0,6397.0,0.691,0.345,0.046,0.633
6458382,3079.0,5722.0,6211.0,0.685,0.342,0.044,0.642
6458398,2623.0,5274.0,6069.0,0.68,0.336,0.04,0.651
6458424,2327.0,4490.0,5705.0,0.674,0.329,0.034,0.66
6458440,2075.0,3566.0,5379.0,0.668,0.322,0.027,0.67
6458456,2155.0,3382.0,5183.0,0.661,0.317,0.021,0.68
6458472,2065.0,3318.0,5239.0,0.654,0.313,0.015,0.688
6458488,2351.0,3608.0,5273.0,0.647,0.311,0.009,0.696
6458504,2807.0,4050.0,5317.0,0.64,0.31,0.003,0.703
6458530,3181.0,4392.0,5479.0,0.634,0.31,-0.004,0.709
6458546,3761.0,4582.0,5627.0,0.628,0.309,-0.01,0.714
6458562,4019.0,4202.0,5703.0,0.624,0.308,-0.016,0.719
6458578,4017.0,3962.0,5831.0,0.621,0.306,-0.019,0.721
6458594,3837.0,3818.0,5991.0,0.62,0.304,-0.019,0.723
6458620,3483.0,3864.0,6209.0,0.619,0.303,-0.018,0.724
6458636,3513.0,3920.0,6349.0,0.619,0.302,-0.016,0.725
6458652,3409.0,3680.0,6439.0,0.62,0.3,-0.014,0.725
6458668,3501.0,3642.0,6657.0,0.621,0.298,-0.012,0.725
6458684,3463.0,3450.0,6883.0,0.622,0.294,-0.011,0.725
6458700,3271.0,2866.0,7153.0,0.624,0.289,-0.009,0.726
6458726,3045.0,2180.0,7379.0,0.626,0.286,-0.006,0.726
6458742,2669.0,1370.0,7537.0,0.627,0.285,-0.001,0.725
6458758,2293.0,870.0,7713.0,0.626,0.292,0.008,0.723
6458774,2321.0,1110.0,7865.0,0.624,0.306,0.022,0.719
6458790,2293.0,2224.0,7727.0,0.621,0.327,0.042,0.712
6458808,2451.0,3740.0,7355.0,0.617,0.352,0.063,0.701
6458824,2779.0,4940.0,6707.0,0.613,0.377,0.086,0.689
6458850,2793.0,5540.0,6045.0,0.609,0.403,0.108,0.674
6458866,2777.0,6274.0,5303.0,0.606,0.427,0.129,0.658
6458882,2681.0,6782.0,4719.0,0.604,0.451,0.149,0.641
6458898,2827.0,7386.0,4255.0,0.602,0.472,0.165,0.623
6458914,2967.0,8006.0,4121.0,0.602,0.489,0.177,0.606
6458930,3013.0,8304.0,4031.0,0.605,0.501,0.187,0.59
6458947,2925.0,8362.0,4255.0,0.61,0.507,0.194,0.577
6458973,2563.0,8032.0,4555.0,0.617,0.508,0.198,0.567
6458989,2113.0,7298.0,4731.0,0.626,0.504,0.2,0.561
6459005,1643.0,6102.0,4805.0,0.634,0.498,0.201,0.557
6459021,1095.0,5416.0,4741.0,0.641,0.491,0.201,0.555
6459037,819.0,5064.0,4577.0,0.647,0.485,0.203,0.553
6459053,593.0,4864.0,4253.0,0.651,0.48,0.205,0.55
6459079,533.0,5116.0,3959.0,0.655,0.477,0.209,0.548
6459095,359.0,5272.0,3623.0,0.657,0.476,0.214,0.544
6459111,363.0,5698.0,3249.0,0.659,0.475,0.22,0.54
6459127,301.0,6152.0,2773.0,0.66,0.474,0.227,0.537
6459143,215.0,6528.0,2265.0,0.661,0.473,0.232,0.533
6459159,37.0,6874.0,1953.0,0.663,0.472,0.237,0.531
6459185,-229.0,6896.0,1763.0,0.665,0.47,0.239,0.529
6459201,-265.0,7076.0,1623.0,0.668,0.469,0.24,0.527
6459217,95.0,7946.0,1501.0,0.67,0.469,0.239,0.524
6459233,621.0,8642.0,1439.0,0.673,0.47,0.235,0.52
6459249,1149.0,8984.0,1387.0,0.678,0.471,0.228,0.516
6459275,1609.0,8834.0,1427.0,0.684,0.471,0.221,0.511
6459291,1999.0,8928.0,1659.0,0.692,0.47,0.212,0.506
6459307,2495.0,8914.0,2113.0,0.699,0.469,0.203,0.5
6459323,2807.0,8738.0,2575.0,0.708,0.467,0.193,0.493
6459339,3119.0,8572.0,3135.0,0.716,0.466,0.182,0.486
6459355,3619.0,8364.0,3643.0,0.725,0.465,0.17,0.479
6459381,3931.0,7794.0,3987.0,0.734,0.463,0.158,0.471
6459397,3977.0,6862.0,4385.0,0.743,0.46,0.146,0.463
6459413,3723.0,5880.0,4479.0,0.751,0.458,0.136,0.456
6459429,3425.0,5100.0,4505.0,0.758,0.457,0.127,0.448
6459445,3163.0,4836.0,4509.0,0.764,0.458,0.12,0.439
6459461,2907.0,5136.0,4497.0,0.768,0.46,0.113,0.431
6459487,2919.0,5680.0,4349.0,0.772,0.462,0.107,0.424
6459503,2687.0,6136.0,4295.0,0.776,0.461,0.099,0.418
6459519,2509.0,6208.0,4427.0,0.781,0.46,0.089,0.414
6459535,2631.0,5878.0,4587.0,0.786,0.457,0.076,0.41
6459551,2955.0,5892.0,4649.0,0.791,0.454,0.063,0.406
6459567,3333.0,6072.0,4761.0,0.795,0.45,0.048,0.404
6459593,3501.0,6250.0,4979.0,0.8,0.446,0.033,0.401
6459609,3875.0,6248.0,5265.0,0.805,0.439,0.018,0.399
6459625,3947.0,5424.0,5515.0,0.81,0.432,0.002,0.397
6459641,3959.0,5330.0,5653.0,0.815,0.426,-0.012,0.394
6459657,4207.0,5230.0,5825.0,0.819,0.421,-0.024,0.39
6459683,3943.0,5352.0,5909.0,0.823,0.417,-0.034,0.385
6459699,3671.0,5566.0,5831.0,0.827,0.413,-0.044,0.38
6459715,3429.0,5550.0,5641.0,0.83,0.408,-0.055,0.375
6459731,3087.0,5222.0,5507.0,0.835,0.401,-0.067,0.371
6459747,3059.0,4226.0,5489.0,0.84,0.393,-0.082,0.366
6459763,3057.0,3446.0,5447.0,0.843,0.386,-0.097,0.362
6459779,3415.0,3040.0,5507.0,0.845,0.38,-0.112,0.359
6459805,3579.0,2914.0,5789.0,0.847,0.375,-0.126,0.356
6459821,3763.0,3460.0,6281.0,0.848,0.369,-0.138,0.355
6459837,4185.0,3504.0,6495.0,0.849,0.362,-0.15,0.354
6459853,4283.0,3044.0,6567.0,0.851,0.353,-0.162,0.354
6459869,3793.0,2308.0,6601.0,0.851,0.345,-0.172,0.357
6459885,4121.0,1876.0,6597.0,0.85,0.338,-0.182,0.36
6459911,4595.0,1846.0,6741.0,0.848,0.334,-0.189,0.365
6459927,5187.0,2104.0,7021.0,0.844,0.334,-0.193,0.371
6459943,5337.0,3146.0,6787.0,0.84,0.336,-0.195,0.38
6459959,5267.0,4062.0,6917.0,0.834,0.338,-0.195,0.391
6459975,5357.0,4298.0,6691.0,0.827,0.34,-0.196,0.403
6459991,5269.0,4718.0,6375.0,0.819,0.344,-0.196,0.415
6460017,5155.0,4286.0,5957.0,0.811,0.349,-0.195,0.427
6460033,5603.0,4848.0,5313.0,0.802,0.356,-0.193,0.439
6460049,5715.0,5574.0,4993.0,0.793,0.363,-0.191,0.451
6460065,6011.0,6102.0,4717.0,0.785,0.368,-0.188,0.461
6460081,6033.0,5836.0,4723.0,0.779,0.371,-0.186,0.469
6460107,6367.0,5170.0,5205.0,0.775,0.372,-0.184,0.477
6460123,6493.0,4828.0,5713.0,0.771,0.372,-0.183,0.484
6460139,6067.0,3098.0,6105.0,0.767,0.37,-0.182,0.492
6460155,5645.0,1520.0,5723.0,0.761,0.369,-0.179,0.502
6460171,5487.0,1472.0,5111.0,0.753,0.372,-0.176,0.514
6460187,5399.0,1936.0,4959.0,0.742,0.377,-0.17,0.527
6460213,5295.0,2552.0,4813.0,0.731,0.383,-0.165,0.541
6460229,5015.0,2810.0,4825.0,0.719,0.389,-0.16,0.553
6460245,5225.0,3568.0,5093.0,0.708,0.395,-0.156,0.565
6460262,5315.0,3956.0,5445.0,0.697,0.4,-0.153,0.574
6460278,6009.0,4834.0,5761.0,0.689,0.404,-0.151,0.582
6460294,6343.0,5532.0,5559.0,0.684,0.405,-0.15,0.588
6460311,6115.0,5196.0,5067.0,0.683,0.403,-0.151,0.59
6460328,6053.0,4210.0,5243.0,0.684,0.398,-0.155,0.591
6460354,5863.0,3194.0,5571.0,0.686,0.392,-0.159,0.591
6460370,5621.0,2544.0,5647.0,0.689,0.387,-0.164,0.59
6460386,5539.0,2266.0,5403.0,0.691,0.382,-0.169,0.59
6460402,5447.0,2294.0,5099.0,0.693,0.378,-0.173,0.589
6460418,5383.0,2342.0,4955.0,0.694,0.375,-0.177,0.588
6460434,5247.0,2296.0,4959.0,0.695,0.372,-0.182,0.587
6460460,5021.0,2216.0,4921.0,0.696,0.369,-0.186,0.587
6460476,4869.0,1592.0,4967.0,0.697,0.366,-0.19,0.587
6460492,4853.0,1276.0,4897.0,0.697,0.363,-0.195,0.587
6460508,4785.0,810.0,4641.0,0.695,0.362,-0.198,0.589
6460524,4905.0,950.0,4589.0,0.693,0.362,-0.202,0.591
6460540,5199.0,1130.0,4785.0,0.69,0.362,-0.205,0.593
6460566,5261.0,1092.0,5129.0,0.686,0.361,-0.208,0.596
6460582,5357.0,1150.0,5395.0,0.683,0.361,-0.211,0.599
6460598,5415.0,1004.0,5531.0,0.679,0.361,-0.214,0.603
6460614,5417.0,954.0,5589.0,0.675,0.361,-0.216,0.606
6460630,5401.0,946.0,5365.0,0.67,0.361,-0.218,0.61
6460656,5599.0,898.0,5295.0,0.665,0.361,-0.221,0.615
6460672,5775.0,1086.0,5295.0,0.66,0.362,-0.222,0.619
6460688,5773.0,1154.0,5311.0,0.655,0.363,-0.224,0.624
6460704,6023.0,1000.0,5283.0,0.65,0.362,-0.227,0.629
6460720,6269.0,1158.0,5765.0,0.645,0.362,-0.229,0.633
6460736,6579.0,1644.0,6031.0,0.641,0.361,-0.23,0.637
6460752,6667.0,1814.0,6121.0,0.637,0.361,-0.232,0.641
6460778,6851.0,2302.0,6133.0,0.634,0.361,-0.232,0.643
6460794,7061.0,2798.0,6057.0,0.633,0.36,-0.233,0.645
6460810,6849.0,2784.0,5809.0,0.632,0.36,-0.233,0.645
6460826,6641.0,2848.0,5601.0,0.632,0.36,-0.234,0.645
6460842,6487.0,2410.0,5487.0,0.633,0.36,-0.234,0.644
6460868,6381.0,2080.0,5391.0,0.635,0.36,-0.235,0.642
6460884,6197.0,1602.0,5403.0,0.637,0.359,-0.235,0.64
6460900,6201.0,1716.0,5285.0,0.639,0.359,-0.235,0.638
6460916,6129.0,1500.0,5233.0,0.642,0.359,-0.236,0.636
6460932,6125.0,1482.0,4951.0,0.644,0.359,-0.235,0.633
6460948,6057.0,1192.0,4755.0,0.646,0.36,-0.235,0.631
6460974,6173.0,1340.0,4807.0,0.648,0.36,-0.234,0.629
6460990,6273.0,1510.0,4953.0,0.65,0.36,-0.234,0.627
6461006,6327.0,1202.0,4989.0,0.652,0.36,-0.233,0.626
6461022,6389.0,1130.0,4831.0,0.653,0.36,-0.231,0.624
6461038,6503.0,1324.0,4861.0,0.655,0.361,-0.229,0.623
6461054,6669.0,1560.0,4867.0,0.656,0.362,-0.226,0.622
6461080,6739.0,1642.0,4855.0,0.657,0.363,-0.223,0.622
6461096,6775.0,1796.0,4937.0,0.658,0.364,-0.22,0.621
6461113,6917.0,2074.0,4963.0,0.66,0.365,-0.216,0.621
6461129,6709.0,1692.0,5073.0,0.661,0.365,-0.213,0.62
6461145,6287.0,1376.0,5149.0,0.662,0.366,-0.209,0.619
6461161,6039.0,1626.0,5291.0,0.663,0.367,-0.205,0.619
6461177,5921.0,1850.0,5453.0,0.664,0.368,-0.201,0.619
6461204,5855.0,1956.0,5591.0,0.665,0.369,-0.196,0.619
6461220,5735.0,2082.0,5491.0,0.666,0.37,-0.192,0.619
6461236,5675.0,2144.0,5441.0,0.666,0.371,-0.188,0.619
6461252,5719.0,2118.0,5411.0,0.667,0.372,-0.183,0.619
6461268,5691.0,2098.0,5391.0,0.667,0.373,-0.179,0.619
6461284,5559.0,2218.0,5577.0,0.667,0.374,-0.175,0.62
6461310,5413.0,2234.0,5517.0,0.667,0.376,-0.171,0.62
6461326,5487.0,2592.0,5471.0,0.667,0.377,-0.167,0.62
6461342,5443.0,2436.0,5451.0,0.667,0.379,-0.164,0.62
6461358,5517.0,2466.0,5441.0,0.667,0.381,-0.161,0.62
6461374,5613.0,2772.0,5551.0,0.667,0.382,-0.158,0.619
6461390,5667.0,2954.0,5697.0,0.667,0.384,-0.155,0.619
6461416,5705.0,3188.0,5597.0,0.668,0.385,-0.152,0.618
6461432,5491.0,3150.0,5567.0,0.668,0.387,-0.149,0.618
6461448,5479.0,3440.0,5603.0,0.669,0.388,-0.147,0.617
6461464,5335.0,3248.0,5575.0,0.67,0.389,-0.145,0.616
6461480,5321.0,3100.0,5521.0,0.671,0.389,-0.143,0.615
6461496,5213.0,2798.0,5515.0,0.671,0.39,-0.142,0.614
6461522,5475.0,2860.0,5613.0,0.672,0.39,-0.141,0.614
6461538,5447.0,2802.0,5349.0,0.672,0.391,-0.139,0.613
6461554,5869.0,2952.0,5121.0,0.672,0.392,-0.137,0.613
6461570,5825.0,2806.0,5417.0,0.673,0.393,-0.135,0.612
6461586,5767.0,2710.0,5977.0,0.672,0.394,-0.133,0.612
6461602,5841.0,2926.0,6329.0,0.672,0.396,-0.129,0.612
6461628,5557.0,2542.0,5895.0,0.67,0.4,-0.125,0.613
6461644,5493.0,2820.0,5399.0,0.668,0.405,-0.12,0.613
6461660,5373.0,3212.0,4651.0,0.666,0.411,-0.115,0.612
6461677,5607.0,4334.0,4583.0,0.665,0.416,-0.11,0.611
6461694,5871.0,4990.0,4955.0,0.665,0.419,-0.106,0.61
6461710,5691.0,4766.0,5093.0,0.666,0.419,-0.105,0.608
6461726,4977.0,3814.0,5093.0,0.668,0.418,-0.104,0.607
6461752,4371.0,2048.0,4271.0,0.669,0.419,-0.104,0.606
6461768,4815.0,3008.0,4721.0,0.669,0.42,-0.104,0.605
6461784,5031.0,3636.0,5063.0,0.669,0.421,-0.104,0.604
6461800,5179.0,3722.0,5419.0,0.669,0.421,-0.105,0.604
6461816,5279.0,3712.0,5579.0,0.67,0.42,-0.105,0.603
6461832,5329.0,3766.0,5603.0,0.67,0.419,-0.105,0.604
6461858,5395.0,3886.0,5487.0,0.67,0.418,-0.106,0.604
6461874,5489.0,3934.0,5435.0,0.671,0.417,-0.107,0.604
6461890,5417.0,3610.0,5283.0,0.671,0.415,-0.109,0.604
6461906,5363.0,3120.0,5041.0,0.671,0.414,-0.111,0.605
6461922,5397.0,2802.0,4949.0,0.671,0.412,-0.113,0.606
6461938,5447.0,2936.0,4843.0,0.671,0.411,-0.114,0.607
6461964,5669.0,3114.0,5037.0,0.671,0.409,-0.116,0.608
6461980,5739.0,3308.0,5151.0,0.67,0.408,-0.117,0.609
6461996,5861.0,3484.0,5305.0,0.67,0.406,-0.118,0.61
6462013,5877.0,3736.0,5229.0,0.67,0.404,-0.119,0.611
6462030,5875.0,4042.0,5097.0,0.671,0.401,-0.121,0.612
6462046,5871.0,3888.0,5093.0,0.672,0.397,-0.122,0.613
6462062,5875.0,3504.0,5331.0,0.673,0.392,-0.124,0.614
6462088,5929.0,3348.0,5443.0,0.675,0.386,-0.126,0.616
6462104,5797.0,3124.0,5425.0,0.677,0.38,-0.127,0.617
6462120,5975.0,3118.0,5431.0,0.679,0.374,-0.128,0.619
6462136,5811.0,2914.0,5399.0,0.681,0.368,-0.129,0.62
6462152,5811.0,2790.0,5403.0,0.682,0.363,-0.129,0.622
6462178,5663.0,2616.0,5535.0,0.683,0.358,-0.129,0.623
6462194,5657.0,2722.0,5683.0,0.684,0.354,-0.129,0.624
6462210,5439.0,2618.0,5915.0,0.685,0.35,-0.128,0.626
6462227,5241.0,2266.0,6001.0,0.687,0.346,-0.127,0.627
6462244,5031.0,1962.0,6071.0,0.687,0.342,-0.126,0.628
6462261,5027.0,2062.0,6103.0,0.688,0.339,-0.124,0.629
6462277,5269.0,2792.0,6165.0,0.689,0.337,-0.121,0.631
6462293,5297.0,3014.0,6225.0,0.69,0.334,-0.119,0.632
6462310,5345.0,3256.0,6131.0,0.691,0.331,-0.117,0.632
6462337,5301.0,3044.0,6067.0,0.692,0.328,-0.116,0.632
6462353,5325.0,3148.0,6035.0,0.694,0.326,-0.114,0.631
6462369,5239.0,3124.0,6069.0,0.697,0.323,-0.113,0.63
6462385,5277.0,3082.0,6287.0,0.7,0.321,-0.113,0.628
6462401,5771.0,3506.0,6471.0,0.703,0.319,-0.113,0.626
6462417,6147.0,3754.0,6499.0,0.705,0.32,-0.112,0.623
6462443,7009.0,5108.0,6695.0,0.708,0.322,-0.112,0.619
6462459,6887.0,5588.0,6655.0,0.71,0.324,-0.11,0.615
6462475,7059.0,5166.0,6497.0,0.714,0.329,-0.106,0.608
6462491,6595.0,5886.0,7003.0,0.721,0.335,-0.099,0.598
6462507,5553.0,5202.0,7411.0,0.73,0.34,-0.09,0.585
6462523,4765.0,3882.0,7185.0,0.74,0.348,-0.078,0.571
6462549,3447.0,3518.0,6511.0,0.746,0.361,-0.063,0.555
6462565,3083.0,3880.0,6019.0,0.75,0.382,-0.046,0.538
6462581,3369.0,6238.0,6295.0,0.754,0.404,-0.028,0.517
6462597,3441.0,7396.0,6755.0,0.762,0.42,-0.011,0.494
6462613,3313.0,6834.0,6663.0,0.772,0.431,0.008,0.467
6462639,2771.0,5460.0,6247.0,0.782,0.442,0.027,0.439
6462655,2533.0,4874.0,5717.0,0.791,0.453,0.049,0.409
6462671,2221.0,5516.0,5419.0,0.797,0.464,0.071,0.379
6462687,2057.0,7240.0,4879.0,0.802,0.473,0.091,0.353
6462703,2031.0,7232.0,4911.0,0.807,0.476,0.109,0.331
6462719,1323.0,6088.0,4599.0,0.813,0.474,0.124,0.315
6462745,729.0,4676.0,4205.0,0.819,0.47,0.137,0.299
6462761,193.0,4268.0,3853.0,0.824,0.466,0.149,0.284
6462777,-129.0,4480.0,3609.0,0.83,0.462,0.158,0.269
6462793,-447.0,4488.0,3357.0,0.836,0.457,0.165,0.255
6462809,-805.0,4466.0,3189.0,0.843,0.451,0.168,0.242
6462825,-933.0,4512.0,3289.0,0.849,0.445,0.168,0.23
6462842,-873.0,5140.0,3131.0,0.855,0.44,0.164,0.219
6462868,-685.0,4778.0,3189.0,0.862,0.434,0.158,0.209
6462884,-605.0,4542.0,3381.0,0.869,0.428,0.15,0.199
6462900,-685.0,4484.0,3515.0,0.874,0.424,0.142,0.191
6462916,-801.0,5462.0,3453.0,0.88,0.418,0.133,0.183
6462932,537.0,4494.0,4975.0,0.885,0.412,0.126,0.176
6462948,1337.0,4556.0,6811.0,0.889,0.406,0.125,0.172
6462974,369.0,3128.0,8665.0,0.891,0.403,0.127,0.167
6462990,439.0,4888.0,8579.0,0.89,0.405,0.13,0.163
6463006,-375.0,5916.0,7677.0,0.89,0.406,0.131,0.161
6463022,-3.0,6602.0,6347.0,0.892,0.403,0.131,0.16
6463038,-581.0,6560.0,5409.0,0.894,0.397,0.129,0.161
6463054,-965.0,5834.0,4955.0,0.897,0.391,0.127,0.163
6463080,-871.0,4910.0,5373.0,0.898,0.388,0.126,0.165
6463096,-1033.0,6236.0,5343.0,0.898,0.389,0.125,0.166
6463112,-831.0,6320.0,5687.0,0.897,0.389,0.125,0.168
6463129,-817.0,6580.0,5897.0,0.896,0.39,0.127,0.171
6463145,-1033.0,6416.0,6021.0,0.895,0.39,0.128,0.173
6463161,-1037.0,6078.0,5895.0,0.895,0.39,0.129,0.175
6463177,-921.0,5914.0,6089.0,0.896,0.387,0.128,0.177
6463203,-463.0,5224.0,6131.0,0.897,0.383,0.128,0.179
6463219,-539.0,5356.0,6139.0,0.898,0.38,0.129,0.181
6463235,-761.0,6122.0,5791.0,0.898,0.377,0.131,0.183
6463251,-1107.0,6308.0,5753.0,0.899,0.374,0.132,0.185
6463267,-1015.0,6176.0,5789.0,0.9,0.37,0.132,0.187
6463293,-669.0,5842.0,5911.0,0.901,0.367,0.133,0.189
6463309,-653.0,5830.0,5773.0,0.902,0.363,0.133,0.191
6463325,-807.0,5884.0,5415.0,0.903,0.36,0.133,0.194
6463341,-525.0,5410.0,5747.0,0.904,0.357,0.132,0.196
6463358,-391.0,5560.0,5919.0,0.904,0.355,0.132,0.198
6463374,-363.0,6264.0,5749.0,0.905,0.353,0.131,0.2
6463390,-525.0,5602.0,5753.0,0.905,0.351,0.131,0.201
6463416,-593.0,5660.0,5671.0,0.905,0.35,0.132,0.202
6463432,-603.0,6654.0,5699.0,0.905,0.349,0.132,0.202
6463448,-503.0,7868.0,6077.0,0.906,0.347,0.134,0.202
6463464,-863.0,7836.0,6087.0,0.909,0.34,0.134,0.202
6463480,-737.0,5026.0,5751.0,0.912,0.333,0.134,0.201
6463496,-575.0,5090.0,5621.0,0.914,0.328,0.135,0.199
6463522,-669.0,5304.0,5199.0,0.916,0.323,0.135,0.197
6463539,-991.0,5322.0,5155.0,0.917,0.319,0.135,0.195
6463555,-999.0,5376.0,5517.0,0.919,0.317,0.134,0.192
6463571,-627.0,5454.0,5837.0,0.921,0.314,0.133,0.189
6463587,-867.0,6198.0,5943.0,0.922,0.312,0.131,0.186
6463603,-1451.0,5940.0,5699.0,0.924,0.309,0.13,0.184
6463629,-1561.0,5136.0,6233.0,0.926,0.306,0.129,0.181
6463645,-1537.0,5128.0,6775.0,0.927,0.305,0.128,0.179
6463661,-1549.0,5412.0,6861.0,0.927,0.303,0.128,0.178
6463677,-1579.0,5288.0,6429.0,0.928,0.301,0.128,0.176
6463693,-1371.0,4160.0,6279.0,0.929,0.299,0.129,0.176
6463710,-1057.0,4160.0,6187.0,0.93,0.298,0.129,0.175
6463726,-977.0,4680.0,6333.0,0.93,0.297,0.128,0.175
6463753,-867.0,5574.0,6387.0,0.93,0.296,0.127,0.175
6463769,-1005.0,5978.0,6317.0,0.93,0.297,0.124,0.176
6463785,-1257.0,6480.0,6553.0,0.931,0.297,0.12,0.178
6463801,-1119.0,6118.0,7107.0,0.93,0.298,0.115,0.181
6463817,-475.0,5722.0,7535.0,0.93,0.298,0.109,0.186
6463833,-459.0,4782.0,7803.0,0.93,0.297,0.103,0.192
6463859,-401.0,4552.0,7645.0,0.929,0.297,0.099,0.197
6463875,-649.0,4304.0,7089.0,0.929,0.295,0.095,0.2
6463891,-1025.0,4094.0,6409.0,0.93,0.293,0.093,0.202
6463907,-991.0,3446.0,5911.0,0.93,0.291,0.091,0.204
6463923,-907.0,3434.0,5719.0,0.931,0.29,0.09,0.204
6463949,-885.0,3712.0,5765.0,0.931,0.288,0.091,0.203
6463965,-917.0,3502.0,5941.0,0.932,0.286,0.092,0.202
6463981,-967.0,3482.0,6159.0,0.933,0.284,0.095,0.2
6463997,-1041.0,3208.0,6377.0,0.934,0.281,0.097,0.198
6464013,-1097.0,3286.0,6401.0,0.935,0.28,0.1,0.195
6464029,-1017.0,3482.0,6447.0,0.935,0.281,0.103,0.191
6464046,-1007.0,3960.0,6619.0,0.935,0.282,0.107,0.188
6464062,-737.0,4684.0,6839.0,0.934,0.285,0.111,0.186
6464088,-667.0,4434.0,6883.0,0.933,0.287,0.116,0.184
6464104,-881.0,4662.0,7031.0,0.931,0.291,0.12,0.184
6464120,-1047.0,4140.0,6991.0,0.929,0.297,0.124,0.184
6464136,-1161.0,4530.0,6921.0,0.926,0.305,0.128,0.184
6464152,-1117.0,6198.0,6833.0,0.923,0.312,0.132,0.183
6464178,-1239.0,6636.0,6797.0,0.921,0.317,0.134,0.184
6464194,-1271.0,6532.0,6871.0,0.919,0.32,0.137,0.184
6464211,-1257.0,6260.0,6709.0,0.918,0.323,0.14,0.185
6464227,-1213.0,5944.0,6623.0,0.917,0.324,0.142,0.186
6464243,-927.0,5622.0,6489.0,0.916,0.324,0.143,0.188
6464259,-919.0,5600.0,6215.0,0.916,0.323,0.143,0.189
6464276,-779.0,5596.0,6113.0,0.916,0.322,0.144,0.19
6464302,-889.0,5172.0,6209.0,0.917,0.32,0.144,0.191
6464318,-1031.0,5124.0,6481.0,0.917,0.319,0.143,0.192
6464334,-869.0,5504.0,6499.0,0.918,0.317,0.142,0.192
6464350,-913.0,5430.0,6349.0,0.919,0.314,0.141,0.193
6464366,-957.0,5304.0,6107.0,0.92,0.31,0.141,0.192
6464382,-917.0,5132.0,6023.0,0.922,0.307,0.14,0.191
6464408,-791.0,4924.0,6051.0,0.923,0.305,0.14,0.19
6464424,-735.0,5002.0,5971.0,0.923,0.305,0.14,0.188
6464440,-817.0,4892.0,5739.0,0.924,0.304,0.141,0.187
6464456,-937.0,4604.0,5545.0,0.924,0.303,0.142,0.186
6464472,-1007.0,4646.0,5625.0,0.924,0.303,0.143,0.186
6464488,-1277.0,4420.0,5643.0,0.923,0.305,0.145,0.186
6464514,-1401.0,4730.0,5953.0,0.922,0.308,0.146,0.186
6464530,-1541.0,5282.0,5675.0,0.919,0.314,0.146,0.187
6464546,-1355.0,6268.0,6115.0,0.916,0.322,0.146,0.187
6464563,-1549.0,5528.0,6761.0,0.913,0.331,0.146,0.189
6464579,-1971.0,4442.0,6931.0,0.906,0.348,0.144,0.191
6464595,-1479.0,4586.0,6415.0,0.896,0.375,0.141,0.191
6464611,-833.0,6050.0,5429.0,0.882,0.408,0.137,0.189
6464637,-271.0,7814.0,4553.0,0.867,0.443,0.134,0.187
6464653,71.0,8664.0,4075.0,0.851,0.472,0.131,0.186
6464669,223.0,8320.0,3789.0,0.838,0.496,0.13,0.186
6464685,291.0,8142.0,3643.0,0.828,0.512,0.129,0.187
6464701,481.0,8548.0,3383.0,0.822,0.521,0.13,0.189
6464727,259.0,8240.0,3235.0,0.82,0.522,0.132,0.192
6464743,151.0,6930.0,3015.0,0.822,0.517,0.133,0.198
6464759,-487.0,5590.0,2505.0,0.826,0.509,0.134,0.205
6464775,-335.0,5774.0,2985.0,0.828,0.501,0.136,0.21
6464792,-65.0,6898.0,3807.0,0.831,0.493,0.14,0.216
6464808,-167.0,7166.0,4407.0,0.835,0.482,0.144,0.222
6464824,-533.0,5476.0,3637.0,0.84,0.469,0.151,0.227
6464851,-839.0,5296.0,3967.0,0.845,0.454,0.16,0.231
6464867,-1439.0,6060.0,5053.0,0.849,0.443,0.17,0.233
6464883,-2439.0,6746.0,5985.0,0.848,0.441,0.179,0.234
6464899,-1539.0,8796.0,6877.0,0.846,0.442,0.187,0.234
6464915,-1279.0,8858.0,5951.0,0.845,0.439,0.193,0.234
6464931,-1359.0,9114.0,4973.0,0.846,0.437,0.198,0.234
6464947,-1375.0,9222.0,4247.0,0.846,0.435,0.202,0.233
6464973,-1461.0,9448.0,4715.0,0.846,0.434,0.206,0.231
6464989,-1333.0,9364.0,5053.0,0.848,0.431,0.209,0.228
6465005,-303.0,8216.0,4699.0,0.85,0.426,0.213,0.224
6465021,-209.0,8798.0,5543.0,0.856,0.416,0.217,0.218
6465037,-1355.0,9106.0,6265.0,0.864,0.398,0.223,0.212
6465063,-2303.0,7716.0,8483.0,0.875,0.373,0.228,0.208
6465079,-2753.0,7984.0,10021.0,0.885,0.345,0.234,0.205
6465095,-3293.0,6208.0,7929.0,0.895,0.317,0.242,0.202
6465111,-3417.0,6032.0,6539.0,0.902,0.292,0.25,0.197
6465127,-4197.0,7532.0,7177.0,0.908,0.27,0.258,0.191
6465143,-4645.0,6588.0,8377.0,0.913,0.248,0.266,0.184
6465169,-4731.0,5858.0,8955.0,0.917,0.226,0.276,0.177
6465185,-4763.0,5342.0,8961.0,0.921,0.202,0.287,0.171
6465201,-4979.0,5170.0,9235.0,0.923,0.177,0.297,0.166
6465217,-4493.0,4548.0,8673.0,0.925,0.151,0.309,0.162
6465233,-4345.0,4436.0,8271.0,0.926,0.125,0.32,0.158
6465249,-4659.0,3984.0,7207.0,0.925,0.099,0.333,0.152
6465275,-4517.0,2774.0,6607.0,0.924,0.073,0.346,0.147
6465291,-4773.0,2538.0,5779.0,0.922,0.049,0.358,0.141
6465307,-4507.0,1502.0,5575.0,0.919,0.028,0.371,0.134
6465324,-4433.0,1900.0,5835.0,0.915,0.009,0.383,0.125
6465341,-3839.0,2632.0,6149.0,0.911,-0.007,0.395,0.116
6465358,-3069.0,2832.0,7101.0,0.906,-0.024,0.408,0.107
6465374,-3827.0,3072.0,6173.0,0.9,-0.045,0.421,0.101
6465391,-2959.0,664.0,4005.0,0.893,-0.065,0.436,0.094
6465408,-3687.0,-1016.0,3209.0,0.884,-0.083,0.451,0.088
6465435,-4817.0,-2448.0,2217.0,0.875,-0.095,0.467,0.082
6465451,-5455.0,-1620.0,1953.0,0.867,-0.102,0.482,0.075
6465467,-6017.0,-1500.0,2819.0,0.859,-0.107,0.497,0.066
6465484,-6547.0,-384.0,3007.0,0.85,-0.111,0.512,0.058
6465500,-6749.0,708.0,2811.0,0.842,-0.116,0.525,0.048
6465516,-6657.0,666.0,2945.0,0.833,-0.123,0.538,0.038
6465532,-7119.0,-90.0,2993.0,0.825,-0.13,0.55,0.028
6465558,-7559.0,-1404.0,2729.0,0.817,-0.138,0.56,0.018
6465575,-7819.0,-2632.0,2757.0,0.81,-0.143,0.569,0.006
6465591,-7311.0,-1106.0,3215.0,0.803,-0.148,0.577,-0.007
6465608,-7057.0,-2084.0,1767.0,0.797,-0.152,0.585,-0.019
6465625,-8051.0,-3212.0,717.0,0.792,-0.154,0.59,-0.029
6465642,-7795.0,-3926.0,1145.0,0.789,-0.152,0.595,-0.04
6465658,-8467.0,-5018.0,1547.0,0.787,-0.145,0.598,-0.051
6465675,-7363.0,-2444.0,1459.0,0.786,-0.137,0.599,-0.063
6465692,-7829.0,-1712.0,1637.0,0.785,-0.131,0.601,-0.072
6465718,-7755.0,-1256.0,2295.0,0.784,-0.123,0.603,-0.082
6465734,-8137.0,-102.0,3033.0,0.784,-0.114,0.604,-0.09
6465750,-7091.0,-814.0,3737.0,0.783,-0.107,0.605,-0.098
6465766,-7219.0,-818.0,3149.0,0.78,-0.102,0.608,-0.107
6465782,-7655.0,-410.0,3065.0,0.776,-0.1,0.612,-0.115
6465798,-8047.0,-1912.0,2303.0,0.771,-0.1,0.616,-0.124
6465824,-8567.0,-2550.0,1265.0,0.767,-0.1,0.619,-0.133
6465841,-8811.0,-2612.0,1433.0,0.765,-0.099,0.621,-0.141
6465858,-7995.0,1026.0,1959.0,0.762,-0.103,0.622,-0.146
6465875,-7809.0,-1788.0,565.0,0.759,-0.113,0.624,-0.145
6465892,-8285.0,-4336.0,-769.0,0.757,-0.122,0.625,-0.145
6465909,-8967.0,-3766.0,-741.0,0.756,-0.129,0.625,-0.145
6465926,-8397.0,-2784.0,-777.0,0.756,-0.135,0.624,-0.145
6465943,-8785.0,-4258.0,-1307.0,0.756,-0.141,0.622,-0.146
6465960,-8931.0,-4146.0,-999.0,0.757,-0.144,0.619,-0.149
6465977,-8949.0,-3858.0,-569.0,0.759,-0.148,0.616,-0.151
6465994,-8495.0,-2700.0,-191.0,0.762,-0.151,0.611,-0.153
6466011,-7019.0,-4056.0,281.0,0.765,-0.154,0.606,-0.154
6466027,-7657.0,-5104.0,949.0,0.769,-0.153,0.6,-0.157
6466054,-6959.0,-3212.0,2243.0,0.772,-0.151,0.595,-0.163
6466070,-6359.0,-1624.0,2913.0,0.775,-0.151,0.591,-0.166
6466086,-6741.0,-3394.0,3331.0,0.776,-0.152,0.589,-0.169
6466102,-6805.0,-3140.0,2711.0,0.778,-0.15,0.586,-0.172
6466118,-7149.0,-2054.0,2811.0,0.78,-0.146,0.583,-0.177
6466134,-6855.0,-1430.0,2605.0,0.781,-0.144,0.58,-0.18
6466160,-6687.0,-2022.0,1933.0,0.782,-0.144,0.579,-0.183
6466177,-6269.0,-1916.0,1789.0,0.782,-0.146,0.577,-0.186
6466194,-5991.0,-2318.0,1731.0,0.782,-0.15,0.576,-0.187
6466211,-5771.0,-2866.0,1685.0,0.781,-0.156,0.575,-0.187
6466227,-5379.0,-2182.0,2381.0,0.779,-0.163,0.576,-0.187
6466244,-5447.0,-1630.0,2537.0,0.776,-0.174,0.578,-0.185
6466260,-5311.0,-3506.0,1651.0,0.772,-0.185,0.58,-0.181
6466277,-5011.0,-2960.0,1521.0,0.769,-0.196,0.581,-0.179
6466294,-4243.0,-2222.0,1047.0,0.765,-0.209,0.584,-0.175
6466311,-5395.0,-3278.0,971.0,0.758,-0.226,0.587,-0.171
6466328,-4881.0,-4752.0,639.0,0.752,-0.242,0.589,-0.169
6466355,-3941.0,-3040.0,2825.0,0.745,-0.261,0.591,-0.169
6466371,-3763.0,-4960.0,1465.0,0.734,-0.282,0.595,-0.167
6466387,-4467.0,-6246.0,1645.0,0.725,-0.302,0.596,-0.166
6466404,-4023.0,-5928.0,1437.0,0.717,-0.319,0.596,-0.169
6466420,-3433.0,-6878.0,1003.0,0.71,-0.335,0.595,-0.175
6466436,-3957.0,-5898.0,1155.0,0.702,-0.351,0.592,-0.185
6466452,-4091.0,-5614.0,1539.0,0.693,-0.368,0.588,-0.198
6466478,-3627.0,-3552.0,971.0,0.683,-0.385,0.584,-0.209
6466494,-3021.0,-4122.0,-103.0,0.673,-0.402,0.582,-0.216
6466511,-3163.0,-5846.0,-1003.0,0.664,-0.416,0.582,-0.22
6466528,-3567.0,-9698.0,-1235.0,0.657,-0.425,0.582,-0.223
6466544,-3601.0,-6940.0,-1069.0,0.651,-0.433,0.581,-0.226
6466561,-3831.0,-5362.0,-535.0,0.64,-0.447,0.582,-0.226
6466577,-4375.0,-6670.0,-2173.0,0.628,-0.464,0.584,-0.224
6466594,-3163.0,-4154.0,-1619.0,0.61,-0.491,0.582,-0.218
6466611,-4193.0,-13010.0,-1843.0,0.596,-0.509,0.584,-0.213
6466638,-2627.0,-6652.0,-2997.0,0.591,-0.517,0.582,-0.213
6466654,-3171.0,-5128.0,-2069.0,0.586,-0.526,0.579,-0.213
6466670,-2567.0,-996.0,-2213.0,0.58,-0.537,0.574,-0.214
6466686,-2613.0,-1274.0,-1889.0,0.57,-0.555,0.567,-0.213
6466702,-2621.0,-2992.0,-2593.0,0.556,-0.576,0.56,-0.213
6466718,-2493.0,-4508.0,-3655.0,0.542,-0.597,0.552,-0.213
6466744,-5407.0,-9954.0,-4695.0,0.532,-0.612,0.546,-0.209
6466761,-4833.0,-16110.0,-3681.0,0.534,-0.613,0.545,-0.206
6466778,-5477.0,-13998.0,-1341.0,0.543,-0.604,0.548,-0.2
6466794,-2733.0,-5900.0,-2105.0,0.543,-0.601,0.555,-0.192
6466811,-2897.0,-7936.0,-4187.0,0.531,-0.605,0.566,-0.177
6466828,-3207.0,-9544.0,-5173.0,0.513,-0.613,0.577,-0.164
6466845,-5599.0,-11332.0,-6217.0,0.501,-0.618,0.586,-0.152
6466861,-3569.0,-8850.0,-2843.0,0.498,-0.616,0.594,-0.143
6466878,-239.0,2258.0,-4039.0,0.486,-0.623,0.595,-0.147
6466895,-1917.0,-5770.0,-3545.0,0.478,-0.626,0.597,-0.15
6466921,-1687.0,-6800.0,-4059.0,0.477,-0.626,0.596,-0.158
6466938,-1727.0,-6324.0,-4331.0,0.475,-0.626,0.595,-0.166
6466955,-1895.0,-7152.0,-4411.0,0.47,-0.629,0.595,-0.172
6466971,-1327.0,-5674.0,-4731.0,0.461,-0.634,0.595,-0.177
6466988,-1913.0,-5748.0,-4241.0,0.453,-0.64,0.594,-0.181
6467005,-1841.0,-5428.0,-3629.0,0.446,-0.643,0.594,-0.187
6467022,-2051.0,-5642.0,-3549.0,0.441,-0.646,0.592,-0.193
6467038,-1793.0,-6226.0,-3933.0,0.434,-0.65,0.591,-0.2
6467055,-1277.0,-6206.0,-4545.0,0.424,-0.655,0.591,-0.206
6467071,-1461.0,-6416.0,-4729.0,0.414,-0.66,0.59,-0.212
6467098,-1709.0,-6766.0,-4331.0,0.405,-0.664,0.59,-0.218
6467114,-1297.0,-5528.0,-4353.0,0.398,-0.668,0.588,-0.224
6467130,-1363.0,-6362.0,-4309.0,0.392,-0.671,0.586,-0.23
6467146,-1425.0,-6622.0,-4859.0,0.388,-0.674,0.582,-0.237
6467163,-999.0,-6630.0,-4775.0,0.383,-0.677,0.579,-0.244
6467179,-733.0,-6734.0,-4603.0,0.378,-0.68,0.576,-0.252
6467195,-689.0,-5958.0,-4765.0,0.373,-0.683,0.572,-0.26
6467221,-393.0,-6022.0,-4993.0,0.368,-0.684,0.57,-0.266
6467238,-597.0,-7614.0,-5127.0,0.364,-0.686,0.567,-0.274
6467254,-55.0,-6748.0,-5081.0,0.361,-0.687,0.564,-0.282
6467270,79.0,-6956.0,-5145.0,0.358,-0.688,0.56,-0.29
6467286,163.0,-7668.0,-4857.0,0.355,-0.69,0.557,-0.298
6467302,611.0,-7564.0,-4509.0,0.352,-0.691,0.553,-0.306
6467328,431.0,-7790.0,-4897.0,0.349,-0.692,0.549,-0.313
6467344,143.0,-8356.0,-5089.0,0.346,-0.694,0.545,-0.32
6467361,757.0,-8042.0,-5609.0,0.344,-0.695,0.541,-0.326
6467377,805.0,-8844.0,-5919.0,0.342,-0.696,0.537,-0.331
6467393,751.0,-9128.0,-5811.0,0.34,-0.697,0.535,-0.336
6467410,961.0,-9536.0,-5905.0,0.338,-0.698,0.533,-0.339
6467427,565.0,-9250.0,-5539.0,0.335,-0.699,0.533,-0.34
6467443,859.0,-10284.0,-6049.0,0.333,-0.699,0.535,-0.339
6467470,611.0,-9918.0,-5927.0,0.332,-0.699,0.538,-0.335
6467486,505.0,-9776.0,-5945.0,0.333,-0.698,0.541,-0.33
6467502,557.0,-10126.0,-6223.0,0.335,-0.697,0.545,-0.324
6467518,481.0,-10396.0,-6607.0,0.338,-0.695,0.549,-0.317
6467534,405.0,-10266.0,-6579.0,0.342,-0.693,0.553,-0.311
6467550,219.0,-10274.0,-6119.0,0.347,-0.69,0.557,-0.305
6467576,589.0,-8932.0,-5849.0,0.352,-0.688,0.56,-0.3
6467593,-93.0,-7140.0,-4837.0,0.358,-0.685,0.562,-0.295
6467609,-493.0,-7286.0,-4707.0,0.366,-0.682,0.564,-0.288
6467626,-343.0,-6592.0,-5263.0,0.375,-0.678,0.566,-0.281
6467643,195.0,-6744.0,-5669.0,0.386,-0.675,0.567,-0.272
6467660,25.0,-6740.0,-5179.0,0.396,-0.67,0.569,-0.264
6467677,-391.0,-6276.0,-4525.0,0.404,-0.666,0.573,-0.254
6467694,-919.0,-5682.0,-4363.0,0.412,-0.662,0.577,-0.242
6467711,-951.0,-5774.0,-4473.0,0.419,-0.659,0.582,-0.228
6467727,-1203.0,-6446.0,-4563.0,0.428,-0.654,0.586,-0.214
6467744,-1247.0,-7148.0,-4635.0,0.441,-0.647,0.588,-0.202
6467771,-1783.0,-6576.0,-4517.0,0.458,-0.637,0.589,-0.192
6467787,-2149.0,-6450.0,-4943.0,0.478,-0.625,0.589,-0.185
6467803,-2313.0,-6454.0,-4145.0,0.498,-0.61,0.59,-0.18
6467819,-2281.0,-5998.0,-3483.0,0.52,-0.593,0.59,-0.176
6467836,-2129.0,-4698.0,-3419.0,0.538,-0.575,0.592,-0.171
6467852,-3201.0,-5574.0,-2125.0,0.552,-0.56,0.595,-0.165
6467868,-4257.0,-6274.0,-1933.0,0.564,-0.547,0.599,-0.158
6467895,-4439.0,-5058.0,-1865.0,0.572,-0.536,0.602,-0.15
6467912,-4269.0,-5012.0,-2041.0,0.578,-0.529,0.606,-0.14
6467928,-3719.0,-2882.0,-2405.0,0.582,-0.524,0.609,-0.129
6467944,-3901.0,-4086.0,-2385.0,0.585,-0.521,0.611,-0.118
6467960,-3879.0,-4706.0,-1619.0,0.589,-0.517,0.612,-0.109
6467977,-3669.0,-4704.0,-755.0,0.594,-0.513,0.612,-0.1
6467994,-3257.0,-3484.0,-721.0,0.599,-0.509,0.611,-0.094
6468011,-2805.0,-3282.0,-867.0,0.604,-0.506,0.609,-0.09
6468027,-2009.0,-2672.0,-603.0,0.61,-0.501,0.607,-0.089
6468054,-1739.0,-2474.0,-289.0,0.615,-0.497,0.605,-0.09
6468070,-2141.0,-2622.0,-67.0,0.618,-0.494,0.604,-0.094
6468086,-2101.0,-2266.0,-357.0,0.618,-0.495,0.603,-0.098
6468103,-2377.0,-4748.0,-493.0,0.614,-0.5,0.602,-0.103
6468120,-3015.0,-5648.0,-281.0,0.609,-0.506,0.601,-0.11
6468136,-2607.0,-4328.0,-947.0,0.603,-0.513,0.6,-0.118
6468152,-2913.0,-3160.0,-1741.0,0.597,-0.52,0.597,-0.129
6468178,-3747.0,-4548.0,-1361.0,0.589,-0.528,0.596,-0.138
6468194,-4125.0,-5564.0,-1739.0,0.581,-0.537,0.594,-0.149
6468210,-5191.0,-6886.0,-1327.0,0.574,-0.543,0.592,-0.16
6468227,-5197.0,-7842.0,-1537.0,0.566,-0.55,0.59,-0.171
6468244,-4527.0,-7486.0,-2101.0,0.559,-0.555,0.589,-0.181
6468261,-4339.0,-6626.0,-2319.0,0.551,-0.56,0.589,-0.19
6468277,-4183.0,-7288.0,-2915.0,0.541,-0.567,0.589,-0.198
6468294,-3565.0,-7322.0,-3619.0,0.532,-0.573,0.59,-0.204
6468311,-3539.0,-6772.0,-3327.0,0.522,-0.579,0.591,-0.209
6468337,-3225.0,-8410.0,-3553.0,0.514,-0.583,0.592,-0.214
6468354,-3161.0,-8242.0,-3741.0,0.508,-0.585,0.593,-0.219
6468371,-3487.0,-8292.0,-3565.0,0.502,-0.587,0.593,-0.226
6468387,-3321.0,-6764.0,-3681.0,0.499,-0.588,0.593,-0.232
6468403,-3051.0,-6656.0,-3779.0,0.496,-0.588,0.593,-0.238
6468419,-2837.0,-8332.0,-3989.0,0.494,-0.587,0.592,-0.245
6468435,-3245.0,-8200.0,-3659.0,0.495,-0.585,0.59,-0.255
6468452,-3373.0,-6594.0,-2995.0,0.495,-0.583,0.587,-0.263
6468478,-3383.0,-7568.0,-3207.0,0.497,-0.582,0.584,-0.272
6468494,-2537.0,-7706.0,-3021.0,0.498,-0.58,0.581,-0.279
6468510,-2541.0,-7668.0,-2767.0,0.498,-0.579,0.578,-0.287
6468527,-2503.0,-7546.0,-2447.0,0.497,-0.579,0.576,-0.293
6468543,-2411.0,-7954.0,-2269.0,0.496,-0.579,0.574,-0.299
6468560,-2009.0,-7924.0,-2657.0,0.494,-0.58,0.572,-0.305
6468577,-1485.0,-7866.0,-3297.0,0.491,-0.581,0.571,-0.31
6468594,-1609.0,-8428.0,-3415.0,0.489,-0.581,0.568,-0.317
6468620,-1423.0,-7850.0,-3563.0,0.487,-0.582,0.565,-0.323
6468637,-1603.0,-9430.0,-3525.0,0.485,-0.583,0.562,-0.33
6468654,-1529.0,-9950.0,-3245.0,0.484,-0.585,0.558,-0.336
6468670,-1989.0,-10586.0,-3245.0,0.481,-0.587,0.555,-0.341
6468686,-1727.0,-11266.0,-3631.0,0.477,-0.589,0.555,-0.343
6468703,-1841.0,-11502.0,-3731.0,0.473,-0.591,0.555,-0.344
6468719,-1811.0,-11880.0,-3555.0,0.469,-0.594,0.557,-0.343
6468735,-1829.0,-10850.0,-3133.0,0.466,-0.596,0.56,-0.338
6468761,-1711.0,-11320.0,-3433.0,0.463,-0.599,0.564,-0.332
6468777,-1641.0,-11422.0,-3733.0,0.462,-0.6,0.567,-0.324
6468794,-1381.0,-11944.0,-4161.0,0.463,-0.601,0.57,-0.316
6468811,-1535.0,-11786.0,-4257.0,0.467,-0.599,0.572,-0.309
6468827,-2401.0,-10134.0,-4765.0,0.473,-0.598,0.572,-0.304
6468844,-2363.0,-8412.0,-2965.0,0.481,-0.595,0.571,-0.296
6468861,-1385.0,-8610.0,-3695.0,0.489,-0.593,0.572,-0.286
6468877,-1329.0,-7904.0,-3893.0,0.496,-0.591,0.574,-0.275
6468903,-1493.0,-6464.0,-3715.0,0.503,-0.589,0.576,-0.262
6468919,-1773.0,-7850.0,-3337.0,0.51,-0.586,0.578,-0.248
6468935,-2237.0,-8142.0,-2533.0,0.52,-0.582,0.578,-0.237
6468951,-2243.0,-7644.0,-2371.0,0.529,-0.578,0.578,-0.227
6468968,-2733.0,-6268.0,-2115.0,0.538,-0.574,0.577,-0.218
6468984,-2937.0,-4808.0,-1883.0,0.545,-0.571,0.577,-0.209
6469010,-3135.0,-5388.0,-2431.0,0.551,-0.569,0.578,-0.198
6469027,-3239.0,-5754.0,-2201.0,0.556,-0.566,0.579,-0.188
6469044,-3111.0,-6154.0,-2309.0,0.559,-0.564,0.581,-0.178
6469060,-3549.0,-7276.0,-2569.0,0.561,-0.562,0.583,-0.169
6469077,-4185.0,-6486.0,-2519.0,0.562,-0.561,0.586,-0.16
6469093,-4841.0,-4836.0,-2227.0,0.56,-0.562,0.59,-0.15
6469110,-4475.0,-3308.0,-2701.0,0.554,-0.565,0.595,-0.136
6469127,-4525.0,-4722.0,-3107.0,0.545,-0.572,0.601,-0.119
6469144,-4193.0,-6712.0,-3907.0,0.536,-0.578,0.607,-0.102
6469170,-4349.0,-6328.0,-3107.0,0.53,-0.581,0.611,-0.087
6469186,-4145.0,-4850.0,-2077.0,0.525,-0.585,0.615,-0.072
6469202,-3611.0,-3918.0,-1555.0,0.518,-0.59,0.617,-0.056
6469218,-3575.0,-4310.0,-1761.0,0.511,-0.596,0.618,-0.041
6469234,-2611.0,-3988.0,-2093.0,0.504,-0.602,0.619,-0.028
6469250,-2191.0,-3518.0,-2365.0,0.499,-0.607,0.619,-0.019
6469266,-1569.0,-2568.0,-2243.0,0.494,-0.612,0.618,-0.014
6469292,-1361.0,-2348.0,-2251.0,0.49,-0.615,0.618,-0.012
6469309,-1137.0,-2400.0,-2605.0,0.487,-0.619,0.617,-0.014
6469326,-1215.0,-2772.0,-2907.0,0.485,-0.621,0.616,-0.02
6469343,-1509.0,-3850.0,-2941.0,0.483,-0.622,0.616,-0.028
6469360,-2021.0,-3790.0,-2733.0,0.482,-0.622,0.616,-0.039
6469377,-2525.0,-3332.0,-2743.0,0.48,-0.621,0.617,-0.052
6469393,-3021.0,-3168.0,-2483.0,0.479,-0.621,0.617,-0.067
6469410,-3531.0,-5040.0,-3449.0,0.477,-0.62,0.618,-0.082
6469427,-3953.0,-4704.0,-3557.0,0.475,-0.619,0.618,-0.097
6469444,-4481.0,-5650.0,-3925.0,0.473,-0.618,0.618,-0.113
6469461,-4317.0,-5164.0,-4031.0,0.47,-0.617,0.618,-0.127
6469487,-4167.0,-6034.0,-4315.0,0.468,-0.617,0.617,-0.139
6469503,-3951.0,-6606.0,-4229.0,0.464,-0.618,0.617,-0.15
6469519,-3607.0,-5960.0,-4043.0,0.459,-0.618,0.617,-0.161
6469535,-3165.0,-6356.0,-3871.0,0.454,-0.619,0.618,-0.17
6469551,-2655.0,-6516.0,-4463.0,0.449,-0.62,0.618,-0.179
6469567,-2505.0,-4776.0,-4273.0,0.442,-0.622,0.619,-0.186
6469593,-2677.0,-5132.0,-4185.0,0.434,-0.624,0.621,-0.19
6469610,-1687.0,-6708.0,-5401.0,0.427,-0.626,0.624,-0.192
6469627,-2373.0,-8022.0,-5273.0,0.419,-0.628,0.625,-0.196
6469644,-2511.0,-6706.0,-4897.0,0.412,-0.63,0.626,-0.201
6469660,-2629.0,-6586.0,-4323.0,0.406,-0.632,0.627,-0.206
6469677,-2551.0,-8126.0,-4697.0,0.401,-0.633,0.628,-0.212
6469694,-2437.0,-6326.0,-5297.0,0.397,-0.632,0.629,-0.217
6469710,-2577.0,-6850.0,-5195.0,0.394,-0.63,0.631,-0.222
6469727,-1593.0,-7388.0,-5337.0,0.391,-0.629,0.633,-0.226
6469744,-1475.0,-7808.0,-5123.0,0.389,-0.627,0.634,-0.231
6469770,-1723.0,-7498.0,-4597.0,0.387,-0.626,0.634,-0.238
6469787,-961.0,-6640.0,-5017.0,0.384,-0.625,0.633,-0.245
6469803,-1397.0,-6670.0,-4917.0,0.381,-0.625,0.633,-0.252
6469819,-1473.0,-6624.0,-5043.0,0.379,-0.624,0.632,-0.258
6469835,-1221.0,-7686.0,-5199.0,0.377,-0.624,0.632,-0.265
6469851,-1845.0,-8634.0,-4967.0,0.375,-0.624,0.63,-0.272
6469877,-1329.0,-7516.0,-5531.0,0.375,-0.624,0.627,-0.279
6469893,-1185.0,-7758.0,-5631.0,0.374,-0.624,0.623,-0.285
6469910,-779.0,-8282.0,-5905.0,0.373,-0.625,0.62,-0.292
6469926,-1197.0,-8112.0,-5627.0,0.372,-0.626,0.617,-0.297
6469943,-1077.0,-9362.0,-5817.0,0.37,-0.627,0.615,-0.302
6469960,-1103.0,-9302.0,-6077.0,0.368,-0.629,0.613,-0.306
6469977,-1197.0,-8768.0,-6109.0,0.365,-0.63,0.612,-0.309
6469994,-959.0,-8636.0,-6005.0,0.361,-0.631,0.612,-0.31
6470010,-1055.0,-8962.0,-6037.0,0.357,-0.633,0.614,-0.309
6470036,-1217.0,-9538.0,-5885.0,0.352,-0.634,0.617,-0.306
6470052,-1157.0,-10286.0,-6417.0,0.348,-0.635,0.62,-0.302
6470068,-1069.0,-10810.0,-6783.0,0.345,-0.636,0.622,-0.299
6470084,-515.0,-11306.0,-7627.0,0.344,-0.635,0.624,-0.297
6470100,75.0,-7930.0,-7535.0,0.345,-0.633,0.627,-0.294
6470126,-891.0,-8150.0,-6873.0,0.344,-0.632,0.632,-0.288
6470143,-1437.0,-8800.0,-5847.0,0.344,-0.63,0.638,-0.279
6470160,-691.0,-8628.0,-5663.0,0.346,-0.628,0.643,-0.268
6470177,-595.0,-8736.0,-5631.0,0.349,-0.626,0.648,-0.257
6470194,-299.0,-7272.0,-5747.0,0.353,-0.623,0.652,-0.247
6470210,-983.0,-5956.0,-5441.0,0.358,-0.62,0.656,-0.238
6470226,-1587.0,-5676.0,-5171.0,0.364,-0.617,0.659,-0.227
6470243,-2087.0,-5742.0,-4727.0,0.373,-0.614,0.662,-0.216
6470260,-2295.0,-5612.0,-4473.0,0.382,-0.611,0.662,-0.205
6470276,-2587.0,-6180.0,-4423.0,0.392,-0.609,0.662,-0.195
6470303,-2431.0,-4672.0,-4391.0,0.401,-0.607,0.661,-0.185
6470320,-2321.0,-3978.0,-4555.0,0.408,-0.606,0.661,-0.173
6470336,-2503.0,-5222.0,-4945.0,0.413,-0.606,0.66,-0.162
6470352,-2599.0,-4618.0,-4615.0,0.418,-0.606,0.66,-0.151
6470368,-3365.0,-5686.0,-4589.0,0.424,-0.607,0.658,-0.139
6470385,-3435.0,-5960.0,-4767.0,0.429,-0.607,0.656,-0.129
6470402,-3273.0,-4646.0,-5187.0,0.433,-0.609,0.654,-0.118
6470418,-3839.0,-2800.0,-4789.0,0.434,-0.611,0.654,-0.105
6470434,-3387.0,-3638.0,-4549.0,0.432,-0.614,0.655,-0.087
6470461,-3785.0,-5720.0,-5215.0,0.431,-0.616,0.656,-0.069
6470477,-4311.0,-5242.0,-5581.0,0.43,-0.618,0.656,-0.052
6470493,-5319.0,-3970.0,-4749.0,0.429,-0.62,0.656,-0.034
6470510,-4597.0,-1888.0,-4151.0,0.428,-0.621,0.656,-0.016
6470526,-3935.0,-3694.0,-3783.0,0.429,-0.621,0.656,0.003
6470543,-3371.0,-3192.0,-3963.0,0.431,-0.62,0.655,0.021
6470559,-3105.0,-2946.0,-4031.0,0.434,-0.618,0.655,0.037
6470586,-2375.0,-3722.0,-2831.0,0.435,-0.617,0.654,0.05
6470603,-2009.0,-2950.0,-2351.0,0.436,-0.618,0.652,0.059
6470619,-1397.0,-2918.0,-2475.0,0.438,-0.618,0.65,0.065
6470635,-469.0,-2000.0,-2245.0,0.442,-0.617,0.647,0.067
6470651,-449.0,-2224.0,-2165.0,0.446,-0.616,0.646,0.066
6470667,-997.0,-2540.0,-2009.0,0.451,-0.614,0.645,0.059
6470683,-1291.0,-2912.0,-1699.0,0.455,-0.613,0.644,0.049
6470709,-1881.0,-3486.0,-2387.0,0.458,-0.613,0.643,0.036
6470725,-2917.0,-4960.0,-3187.0,0.459,-0.613,0.643,0.02
6470742,-2849.0,-4816.0,-2401.0,0.462,-0.612,0.642,-0.001
6470758,-2973.0,-2048.0,-119.0,0.463,-0.61,0.643,-0.025
6470775,-3441.0,-2138.0,-1499.0,0.458,-0.611,0.644,-0.047
6470792,-4785.0,-5870.0,-4091.0,0.45,-0.614,0.645,-0.066
6470809,-4875.0,-4408.0,-4419.0,0.445,-0.616,0.645,-0.085
6470826,-4725.0,-4348.0,-5195.0,0.439,-0.616,0.646,-0.101
6470843,-4707.0,-5924.0,-5469.0,0.433,-0.617,0.646,-0.118
6470859,-4761.0,-6126.0,-5591.0,0.427,-0.619,0.645,-0.135
6470885,-4385.0,-4578.0,-5721.0,0.421,-0.622,0.643,-0.149
6470901,-3479.0,-5746.0,-6305.0,0.413,-0.626,0.641,-0.163
6470917,-2679.0,-6086.0,-6189.0,0.405,-0.63,0.639,-0.176
6470933,-2241.0,-6472.0,-6277.0,0.397,-0.633,0.637,-0.189
6470949,-2337.0,-6156.0,-5559.0,0.389,-0.636,0.635,-0.202
6470975,-1515.0,-6904.0,-6109.0,0.382,-0.639,0.633,-0.213
6470992,-1517.0,-7248.0,-5639.0,0.375,-0.642,0.631,-0.223
6471009,-731.0,-7124.0,-5951.0,0.368,-0.644,0.629,-0.233
6471026,-863.0,-7538.0,-6247.0,0.362,-0.646,0.627,-0.243
6471043,-983.0,-7410.0,-6127.0,0.357,-0.647,0.625,-0.252
6471059,-1137.0,-6994.0,-5777.0,0.353,-0.648,0.622,-0.26
6471076,-487.0,-6778.0,-5889.0,0.349,-0.65,0.62,-0.267
6471093,-349.0,-6768.0,-5973.0,0.345,-0.651,0.619,-0.272
6471110,-513.0,-7286.0,-5929.0,0.341,-0.652,0.617,-0.277
6471126,-353.0,-7926.0,-6445.0,0.339,-0.653,0.616,-0.281
6471142,-931.0,-8424.0,-6207.0,0.338,-0.654,0.613,-0.287
6471169,-817.0,-8016.0,-6269.0,0.338,-0.654,0.611,-0.292
6471185,-1297.0,-7810.0,-5513.0,0.339,-0.654,0.609,-0.296
6471201,-649.0,-8726.0,-5773.0,0.34,-0.653,0.607,-0.299
6471218,-659.0,-8226.0,-5917.0,0.342,-0.653,0.604,-0.303
6471234,-755.0,-8078.0,-5583.0,0.344,-0.652,0.602,-0.308
6471250,-279.0,-7142.0,-5655.0,0.347,-0.65,0.6,-0.311
6471266,-411.0,-7128.0,-4879.0,0.349,-0.649,0.598,-0.315
6471292,-359.0,-7162.0,-4753.0,0.351,-0.648,0.597,-0.317
6471309,103.0,-8476.0,-5703.0,0.354,-0.646,0.596,-0.32
6471325,-191.0,-8490.0,-5635.0,0.356,-0.644,0.595,-0.323
6471341,-507.0,-9330.0,-5647.0,0.358,-0.642,0.596,-0.325
6471358,-1003.0,-9642.0,-5671.0,0.358,-0.639,0.597,-0.326
6471375,-921.0,-10942.0,-6847.0,0.358,-0.637,0.601,-0.325
6471392,-1155.0,-10164.0,-7203.0,0.356,-0.635,0.605,-0.322
6471409,-2175.0,-11222.0,-6913.0,0.353,-0.634,0.611,-0.315
6471426,-2785.0,-11536.0,-6787.0,0.353,-0.633,0.617,-0.306
6471443,-2803.0,-11200.0,-6523.0,0.357,-0.632,0.621,-0.295
6471470,-1087.0,-9120.0,-6957.0,0.365,-0.63,0.624,-0.283
6471487,-185.0,-7960.0,-6647.0,0.373,-0.628,0.627,-0.27
6471504,17.0,-6758.0,-6489.0,0.382,-0.624,0.631,-0.257
6471520,-565.0,-7400.0,-5557.0,0.39,-0.62,0.635,-0.244
6471536,-817.0,-7416.0,-5139.0,0.4,-0.615,0.639,-0.233
6471552,-1835.0,-5886.0,-3813.0,0.411,-0.609,0.641,-0.222
6471568,-2067.0,-5486.0,-3643.0,0.421,-0.603,0.644,-0.209
6471585,-1619.0,-4332.0,-4039.0,0.432,-0.598,0.646,-0.195
6471612,-1111.0,-5040.0,-4969.0,0.441,-0.592,0.65,-0.18
6471629,-2045.0,-4982.0,-4495.0,0.449,-0.586,0.654,-0.167
6471645,-2791.0,-4378.0,-3761.0,0.457,-0.579,0.658,-0.154
6471661,-3435.0,-5626.0,-3931.0,0.464,-0.572,0.661,-0.143
6471677,-3721.0,-4236.0,-3465.0,0.47,-0.567,0.664,-0.131
6471693,-3853.0,-4338.0,-3715.0,0.474,-0.563,0.666,-0.119
6471709,-3755.0,-4602.0,-3983.0,0.476,-0.561,0.669,-0.107
6471735,-3749.0,-4556.0,-4023.0,0.479,-0.558,0.671,-0.095
6471751,-3593.0,-4976.0,-3917.0,0.482,-0.554,0.674,-0.085
6471767,-3977.0,-4906.0,-4045.0,0.483,-0.551,0.676,-0.076
6471783,-4381.0,-4498.0,-3397.0,0.486,-0.549,0.676,-0.068
6471799,-4531.0,-4786.0,-3777.0,0.489,-0.548,0.677,-0.059
6471815,-4373.0,-3966.0,-3065.0,0.492,-0.546,0.676,-0.05
6471841,-3559.0,-3530.0,-2737.0,0.493,-0.547,0.675,-0.04
6471858,-2931.0,-3800.0,-3157.0,0.493,-0.548,0.675,-0.029
6471875,-2787.0,-4074.0,-3159.0,0.493,-0.549,0.675,-0.019
6471891,-2463.0,-2874.0,-2705.0,0.492,-0.551,0.674,-0.011
6471908,-2839.0,-2520.0,-2027.0,0.492,-0.553,0.672,-0.004
6471925,-1815.0,-3072.0,-2935.0,0.492,-0.556,0.67,0.001
6471941,-1959.0,-3134.0,-3119.0,0.494,-0.558,0.667,0.003
6471958,-2093.0,-2638.0,-2875.0,0.496,-0.56,0.664,0.002
6471975,-2589.0,-3396.0,-2711.0,0.499,-0.561,0.66,-0.002
6471992,-3091.0,-2844.0,-2187.0,0.503,-0.562,0.656,-0.009
6472019,-2969.0,-1828.0,-1797.0,0.506,-0.564,0.652,-0.017
6472036,-3375.0,-3292.0,-2421.0,0.508,-0.567,0.648,-0.026
6472052,-3825.0,-3920.0,-2067.0,0.509,-0.569,0.645,-0.037
6472068,-3949.0,-3832.0,-2097.0,0.508,-0.572,0.642,-0.048
6472084,-4119.0,-3942.0,-1645.0,0.505,-0.576,0.64,-0.059
6472100,-4221.0,-4842.0,-2163.0,0.499,-0.581,0.639,-0.069
6472126,-3865.0,-4712.0,-2351.0,0.493,-0.586,0.638,-0.08
6472143,-3639.0,-5098.0,-3027.0,0.485,-0.591,0.638,-0.091
6472159,-3653.0,-6652.0,-4233.0,0.477,-0.595,0.638,-0.104
6472176,-4145.0,-4902.0,-3957.0,0.47,-0.599,0.637,-0.119
6472192,-3907.0,-4400.0,-3589.0,0.461,-0.603,0.638,-0.131
6472209,-3545.0,-6384.0,-4337.0,0.451,-0.607,0.639,-0.143
6472226,-3277.0,-7028.0,-4755.0,0.442,-0.609,0.64,-0.155
6472243,-3377.0,-5822.0,-5289.0,0.433,-0.612,0.641,-0.166
6472259,-3529.0,-6382.0,-5049.0,0.424,-0.614,0.642,-0.177
6472276,-2959.0,-6326.0,-5095.0,0.415,-0.615,0.644,-0.187
6472293,-2453.0,-7596.0,-5707.0,0.408,-0.616,0.645,-0.197
6472319,-2395.0,-6980.0,-5385.0,0.401,-0.617,0.645,-0.208
6472336,-2867.0,-6006.0,-4943.0,0.395,-0.617,0.644,-0.219
6472352,-2015.0,-6542.0,-5193.0,0.391,-0.617,0.644,-0.229
6472369,-1829.0,-6686.0,-5547.0,0.387,-0.617,0.643,-0.238
6472385,-1851.0,-6574.0,-5011.0,0.383,-0.617,0.641,-0.248
6472401,-1881.0,-6452.0,-4765.0,0.38,-0.617,0.639,-0.256
6472417,-1311.0,-8278.0,-5345.0,0.377,-0.617,0.637,-0.265
6472443,-1685.0,-7440.0,-5267.0,0.376,-0.617,0.634,-0.275
6472460,-1561.0,-7028.0,-5131.0,0.374,-0.617,0.63,-0.285
6472476,-1221.0,-7400.0,-5313.0,0.373,-0.618,0.627,-0.294
6472492,-1235.0,-8298.0,-5383.0,0.371,-0.619,0.622,-0.303
6472508,-783.0,-8176.0,-5625.0,0.369,-0.62,0.618,-0.312
6472524,-1445.0,-8506.0,-5199.0,0.368,-0.621,0.613,-0.32
6472550,-995.0,-8502.0,-5287.0,0.367,-0.623,0.609,-0.327
6472566,-703.0,-9004.0,-5211.0,0.365,-0.624,0.605,-0.333
6472582,-305.0,-8690.0,-5697.0,0.363,-0.626,0.602,-0.338
6472598,-227.0,-9746.0,-6205.0,0.359,-0.628,0.6,-0.343
6472615,-709.0,-9352.0,-5879.0,0.354,-0.63,0.599,-0.346
6472631,-1119.0,-9904.0,-5457.0,0.349,-0.632,0.599,-0.346
6472647,-547.0,-10480.0,-5779.0,0.344,-0.635,0.6,-0.344
6472674,119.0,-10738.0,-6281.0,0.34,-0.636,0.603,-0.34
6472690,-153.0,-10068.0,-6783.0,0.336,-0.638,0.606,-0.336
6472706,-573.0,-9878.0,-6665.0,0.334,-0.638,0.611,-0.33
6472722,29.0,-10926.0,-7209.0,0.334,-0.638,0.615,-0.322
6472739,-221.0,-11042.0,-7207.0,0.336,-0.636,0.619,-0.315
6472756,-829.0,-10888.0,-6679.0,0.341,-0.633,0.622,-0.309
6472772,-1577.0,-8788.0,-5313.0,0.349,-0.63,0.623,-0.303
6472798,-481.0,-8686.0,-6063.0,0.358,-0.627,0.626,-0.294
6472815,1111.0,-6328.0,-6903.0,0.367,-0.623,0.629,-0.284
6472831,591.0,-6426.0,-6563.0,0.374,-0.619,0.634,-0.273
6472847,-631.0,-6184.0,-5393.0,0.381,-0.615,0.639,-0.262
6472864,-1419.0,-6242.0,-4637.0,0.389,-0.61,0.644,-0.249
6472880,-1565.0,-5950.0,-4183.0,0.398,-0.605,0.648,-0.234
6472897,-1565.0,-6138.0,-4239.0,0.407,-0.602,0.651,-0.22
6472914,-1595.0,-6116.0,-4219.0,0.416,-0.599,0.653,-0.206
6472931,-1653.0,-4738.0,-4147.0,0.424,-0.597,0.654,-0.193
6472958,-1771.0,-4822.0,-4315.0,0.429,-0.595,0.655,-0.18
6472974,-2369.0,-3874.0,-4091.0,0.434,-0.593,0.657,-0.167
6472990,-2435.0,-4288.0,-4431.0,0.439,-0.591,0.659,-0.153
6473006,-3027.0,-5250.0,-4657.0,0.443,-0.589,0.661,-0.139
6473022,-3795.0,-5114.0,-4987.0,0.447,-0.588,0.662,-0.126
6473038,-4787.0,-4882.0,-4571.0,0.451,-0.587,0.663,-0.114
6473054,-4545.0,-4888.0,-3997.0,0.456,-0.586,0.663,-0.1
6473080,-4259.0,-3746.0,-3245.0,0.46,-0.586,0.662,-0.085
6473097,-4005.0,-5342.0,-3985.0,0.463,-0.586,0.661,-0.07
6473113,-3125.0,-3700.0,-3759.0,0.467,-0.586,0.659,-0.056
6473130,-3145.0,-4160.0,-4179.0,0.47,-0.587,0.658,-0.044
6473146,-3215.0,-4666.0,-3989.0,0.473,-0.587,0.656,-0.033
6473163,-3007.0,-2954.0,-3459.0,0.475,-0.587,0.655,-0.023
6473179,-2923.0,-3234.0,-3151.0,0.478,-0.587,0.653,-0.013
6473206,-2357.0,-3220.0,-3043.0,0.481,-0.587,0.652,-0.005
6473222,-2521.0,-4008.0,-3365.0,0.484,-0.586,0.65,0.0
6473238,-2611.0,-4010.0,-2363.0,0.487,-0.584,0.649,0.003
6473254,-2293.0,-2628.0,-1713.0,0.489,-0.584,0.648,0.004
6473270,-2501.0,-3056.0,-1639.0,0.49,-0.586,0.646,0.004
6473286,-2813.0,-3332.0,-2075.0,0.49,-0.587,0.644,0.001
6473302,-2621.0,-2344.0,-1881.0,0.49,-0.589,0.642,-0.005
6473328,-2687.0,-2602.0,-2513.0,0.489,-0.591,0.641,-0.011
6473345,-3091.0,-3718.0,-2457.0,0.488,-0.593,0.64,-0.02
6473362,-3239.0,-3014.0,-2279.0,0.486,-0.594,0.64,-0.029
6473379,-3619.0,-3228.0,-2177.0,0.483,-0.596,0.64,-0.037
6473396,-3791.0,-4222.0,-2743.0,0.477,-0.599,0.641,-0.046
6473413,-4127.0,-6772.0,-4017.0,0.47,-0.603,0.642,-0.057
6473429,-4601.0,-4624.0,-3743.0,0.464,-0.605,0.643,-0.071
6473446,-4941.0,-4178.0,-3863.0,0.457,-0.608,0.644,-0.082
6473463,-4625.0,-5518.0,-4239.0,0.45,-0.611,0.644,-0.092
6473479,-3563.0,-6852.0,-5545.0,0.443,-0.613,0.645,-0.102
6473506,-3733.0,-5976.0,-5193.0,0.437,-0.615,0.646,-0.115
6473522,-4195.0,-6424.0,-4831.0,0.432,-0.616,0.647,-0.127
6473538,-3971.0,-5778.0,-4983.0,0.428,-0.616,0.647,-0.138
6473555,-3099.0,-6554.0,-5749.0,0.425,-0.615,0.647,-0.149
6473573,-3301.0,-6720.0,-4999.0,0.424,-0.613,0.647,-0.161
6473589,-3163.0,-5288.0,-4393.0,0.422,-0.612,0.648,-0.17
6473605,-2885.0,-6648.0,-4761.0,0.419,-0.61,0.648,-0.178
6473622,-2123.0,-6964.0,-5659.0,0.418,-0.608,0.649,-0.188
6473639,-2611.0,-6682.0,-5079.0,0.416,-0.605,0.65,-0.197
6473665,-3005.0,-6582.0,-4727.0,0.414,-0.603,0.65,-0.206
6473681,-2891.0,-6012.0,-4479.0,0.412,-0.6,0.651,-0.214
6473698,-2317.0,-6102.0,-4607.0,0.41,-0.599,0.652,-0.222
6473715,-2115.0,-6396.0,-4653.0,0.407,-0.597,0.652,-0.229
6473731,-2097.0,-6410.0,-4739.0,0.404,-0.597,0.651,-0.237
6473747,-2313.0,-6882.0,-4631.0,0.401,-0.597,0.65,-0.245
6473763,-2237.0,-7030.0,-4481.0,0.398,-0.597,0.648,-0.254
6473780,-1791.0,-7432.0,-4765.0,0.395,-0.598,0.646,-0.264
6473806,-1331.0,-7032.0,-5093.0,0.392,-0.599,0.643,-0.274
6473822,-1545.0,-6296.0,-4595.0,0.389,-0.6,0.639,-0.283
6473838,-1295.0,-6148.0,-4521.0,0.384,-0.602,0.637,-0.291
6473854,-1265.0,-6814.0,-4793.0,0.378,-0.604,0.636,-0.296
6473870,-977.0,-7782.0,-5091.0,0.373,-0.607,0.634,-0.302
6473886,-353.0,-6520.0,-5207.0,0.369,-0.609,0.631,-0.308
6473912,-75.0,-7078.0,-4973.0,0.363,-0.611,0.63,-0.314
6473928,-169.0,-8330.0,-5005.0,0.359,-0.613,0.627,-0.32
6473945,-337.0,-8488.0,-5553.0,0.355,-0.615,0.624,-0.326
6473962,-387.0,-8904.0,-5889.0,0.352,-0.616,0.621,-0.332
6473979,-487.0,-9162.0,-6241.0,0.35,-0.618,0.617,-0.338
6473996,-519.0,-9484.0,-6405.0,0.347,-0.619,0.615,-0.343
6474013,-1503.0,-10516.0,-5857.0,0.344,-0.62,0.614,-0.346
6474030,-1163.0,-11454.0,-6695.0,0.34,-0.621,0.616,-0.346
6474047,-1311.0,-11250.0,-6611.0,0.337,-0.622,0.618,-0.343
6474064,-499.0,-10376.0,-6839.0,0.335,-0.622,0.623,-0.337
6474081,-323.0,-11386.0,-7115.0,0.332,-0.622,0.629,-0.329
6474098,-65.0,-11672.0,-7441.0,0.332,-0.62,0.634,-0.321
6474125,-249.0,-10634.0,-7253.0,0.333,-0.618,0.639,-0.314
6474141,-1163.0,-10006.0,-6551.0,0.338,-0.615,0.643,-0.307
6474157,-1185.0,-9634.0,-6441.0,0.346,-0.611,0.645,-0.3
6474173,-1589.0,-7838.0,-5473.0,0.355,-0.608,0.647,-0.293
6474190,-1059.0,-7460.0,-4893.0,0.368,-0.603,0.647,-0.286
6474206,-409.0,-6114.0,-5425.0,0.378,-0.599,0.648,-0.278
6474222,-713.0,-6716.0,-5077.0,0.388,-0.596,0.65,-0.269
6474248,-1199.0,-6210.0,-4579.0,0.397,-0.592,0.652,-0.259
6474265,-977.0,-5414.0,-4235.0,0.407,-0.588,0.654,-0.247
6474281,-1523.0,-5248.0,-3795.0,0.414,-0.585,0.657,-0.234
6474298,-1709.0,-5578.0,-3645.0,0.42,-0.583,0.659,-0.22
6474314,-1693.0,-5842.0,-3973.0,0.426,-0.582,0.662,-0.205
6474330,-1831.0,-6448.0,-4297.0,0.43,-0.581,0.664,-0.191
6474346,-2293.0,-4630.0,-3551.0,0.435,-0.579,0.666,-0.176
6474373,-2331.0,-4108.0,-3639.0,0.439,-0.579,0.668,-0.16
6474389,-2147.0,-4918.0,-3931.0,0.442,-0.579,0.67,-0.143
6474406,-2449.0,-5288.0,-4075.0,0.445,-0.579,0.671,-0.127
6474422,-2673.0,-4894.0,-4329.0,0.448,-0.58,0.671,-0.112
6474438,-3177.0,-4422.0,-3827.0,0.449,-0.582,0.671,-0.096
6474454,-3273.0,-4200.0,-3825.0,0.45,-0.585,0.67,-0.079
6474470,-3393.0,-3858.0,-3589.0,0.452,-0.587,0.669,-0.063
6474497,-3779.0,-4422.0,-4047.0,0.454,-0.588,0.667,-0.049
6474514,-3641.0,-4550.0,-4029.0,0.456,-0.589,0.666,-0.037
6474530,-3491.0,-3070.0,-3743.0,0.458,-0.588,0.667,-0.026
6474547,-1617.0,-880.0,-3151.0,0.459,-0.588,0.666,-0.018
6474564,-1987.0,-1172.0,-2595.0,0.459,-0.589,0.665,-0.01
6474580,-1775.0,-1892.0,-2565.0,0.459,-0.59,0.664,-0.005
6474597,-2167.0,-2422.0,-2859.0,0.459,-0.591,0.663,-0.003
6474614,-2511.0,-2844.0,-2177.0,0.459,-0.592,0.662,-0.005
6474631,-2457.0,-2058.0,-855.0,0.459,-0.593,0.662,-0.009
6474647,-2653.0,-2568.0,-1473.0,0.457,-0.594,0.661,-0.016
6474674,-2689.0,-3262.0,-2169.0,0.454,-0.597,0.661,-0.024
6474691,-3041.0,-4776.0,-2873.0,0.452,-0.599,0.66,-0.036
6474707,-3463.0,-4030.0,-3561.0,0.45,-0.6,0.659,-0.051
6474723,-4113.0,-3684.0,-3157.0,0.447,-0.601,0.658,-0.068
6474739,-4077.0,-3796.0,-3875.0,0.443,-0.603,0.657,-0.087
6474755,-4325.0,-4378.0,-3839.0,0.438,-0.606,0.656,-0.105
6474772,-4645.0,-6362.0,-4789.0,0.434,-0.607,0.654,-0.122
6474798,-3749.0,-5302.0,-4989.0,0.431,-0.608,0.652,-0.139
6474815,-3759.0,-6648.0,-5103.0,0.428,-0.607,0.651,-0.155
6474831,-3743.0,-7704.0,-4677.0,0.425,-0.606,0.651,-0.17
6474848,-3521.0,-6404.0,-4281.0,0.421,-0.605,0.65,-0.184
6474864,-3265.0,-6502.0,-4591.0,0.416,-0.604,0.65,-0.197
6474880,-2839.0,-7076.0,-4573.0,0.412,-0.604,0.649,-0.211
6474897,-2221.0,-6738.0,-5227.0,0.408,-0.603,0.648,-0.223
6474914,-2181.0,-7742.0,-5449.0,0.404,-0.602,0.647,-0.236
6474931,-2437.0,-6892.0,-4821.0,0.402,-0.601,0.645,-0.248
6474957,-2141.0,-6482.0,-5093.0,0.401,-0.599,0.643,-0.258
6474973,-1773.0,-7188.0,-4969.0,0.399,-0.598,0.641,-0.267
6474989,-1513.0,-8822.0,-6115.0,0.398,-0.597,0.639,-0.276
6475006,-2275.0,-8298.0,-4895.0,0.398,-0.596,0.636,-0.285
6475023,-2073.0,-6614.0,-4907.0,0.399,-0.595,0.633,-0.292
6475040,-1121.0,-6892.0,-4899.0,0.399,-0.595,0.63,-0.299
6475056,-539.0,-6678.0,-4893.0,0.399,-0.595,0.627,-0.306
6475072,-523.0,-6150.0,-4731.0,0.398,-0.595,0.625,-0.312
6475098,-511.0,-7178.0,-4235.0,0.398,-0.595,0.622,-0.317
6475114,-645.0,-7648.0,-4079.0,0.398,-0.596,0.619,-0.322
6475131,-411.0,-8282.0,-4437.0,0.399,-0.596,0.615,-0.328
6475147,-925.0,-7366.0,-4089.0,0.398,-0.597,0.612,-0.333
6475163,-1195.0,-9580.0,-5249.0,0.4,-0.597,0.607,-0.338
6475179,-1015.0,-8386.0,-5181.0,0.398,-0.599,0.604,-0.343
6475205,-1179.0,-9884.0,-4969.0,0.397,-0.6,0.601,-0.347
6475222,-1913.0,-10762.0,-5243.0,0.395,-0.602,0.599,-0.35
6475239,-2071.0,-11104.0,-5407.0,0.392,-0.604,0.598,-0.351
6475256,-999.0,-12594.0,-6309.0,0.388,-0.606,0.598,-0.353
6475273,-1107.0,-9572.0,-5085.0,0.382,-0.607,0.601,-0.352
6475290,-967.0,-11330.0,-5543.0,0.376,-0.608,0.605,-0.35
6475307,-1755.0,-9338.0,-4701.0,0.37,-0.609,0.611,-0.344
6475324,-1087.0,-11056.0,-5561.0,0.366,-0.609,0.618,-0.337
6475341,-953.0,-10444.0,-5363.0,0.364,-0.608,0.623,-0.33
6475358,-343.0,-10232.0,-6033.0,0.365,-0.606,0.628,-0.324
6475374,107.0,-9132.0,-5903.0,0.368,-0.603,0.632,-0.32
6475391,231.0,-7096.0,-5527.0,0.369,-0.599,0.637,-0.316
6475408,-1209.0,-7738.0,-4787.0,0.369,-0.595,0.643,-0.309
6475435,-2043.0,-8216.0,-4577.0,0.372,-0.591,0.649,-0.301
6475452,-1717.0,-7502.0,-4653.0,0.378,-0.587,0.654,-0.292
6475468,-1667.0,-7714.0,-4731.0,0.386,-0.583,0.657,-0.283
6475484,-1023.0,-6336.0,-5295.0,0.393,-0.58,0.659,-0.273
6475500,-1511.0,-6376.0,-5131.0,0.401,-0.577,0.661,-0.263
6475516,-1675.0,-7696.0,-5335.0,0.412,-0.573,0.662,-0.253
6475533,-1579.0,-5358.0,-5023.0,0.425,-0.567,0.662,-0.244
6475550,-1651.0,-4562.0,-4663.0,0.437,-0.562,0.662,-0.233
6475576,-1623.0,-3770.0,-4047.0,0.445,-0.559,0.664,-0.22
6475592,-1179.0,-5698.0,-3781.0,0.451,-0.557,0.667,-0.205
6475608,-2323.0,-5884.0,-3809.0,0.459,-0.553,0.669,-0.192
6475624,-2901.0,-4618.0,-3427.0,0.465,-0.55,0.67,-0.179
6475641,-3801.0,-6852.0,-3261.0,0.47,-0.548,0.671,-0.167
6475658,-3245.0,-5304.0,-3863.0,0.474,-0.547,0.673,-0.153
6475674,-3601.0,-6076.0,-3737.0,0.477,-0.547,0.674,-0.14
6475701,-4045.0,-6096.0,-3523.0,0.476,-0.549,0.676,-0.125
6475717,-4701.0,-5570.0,-4275.0,0.475,-0.55,0.678,-0.11
6475734,-4171.0,-4986.0,-4451.0,0.474,-0.552,0.68,-0.094
6475750,-4023.0,-3124.0,-4363.0,0.472,-0.555,0.68,-0.078
6475767,-4547.0,-4040.0,-4551.0,0.467,-0.561,0.681,-0.06
6475784,-4359.0,-4262.0,-4913.0,0.461,-0.568,0.681,-0.041
6475800,-4349.0,-3566.0,-4159.0,0.454,-0.574,0.681,-0.021
6475816,-4319.0,-4450.0,-4305.0,0.448,-0.58,0.681,-0.0
6475842,-3541.0,-2288.0,-3351.0,0.444,-0.582,0.681,0.02
6475858,-2243.0,-748.0,-3143.0,0.444,-0.581,0.681,0.037
6475874,-2207.0,-2572.0,-2351.0,0.444,-0.579,0.682,0.05
6475891,-2499.0,-2550.0,-955.0,0.447,-0.577,0.681,0.059
6475908,-1557.0,98.0,-1195.0,0.448,-0.575,0.682,0.064
6475924,-2761.0,-1458.0,-2011.0,0.448,-0.574,0.682,0.066
6475940,-4589.0,-3230.0,-2791.0,0.451,-0.572,0.682,0.063
6475957,-4299.0,-7328.0,-3605.0,0.459,-0.564,0.684,0.053
6475983,-4231.0,-3610.0,-3803.0,0.463,-0.562,0.684,0.041
6475999,-3489.0,-1510.0,-2255.0,0.463,-0.563,0.684,0.028
6476015,-3039.0,-1694.0,-2207.0,0.459,-0.566,0.684,0.013
6476031,-3735.0,-3678.0,-4117.0,0.454,-0.57,0.685,-0.004
6476047,-4025.0,-3100.0,-3655.0,0.447,-0.574,0.686,-0.022
6476063,-2791.0,28.0,-2757.0,0.437,-0.579,0.687,-0.037
6476089,-4673.0,-4598.0,-3993.0,0.424,-0.586,0.689,-0.049
6476106,-4233.0,-4702.0,-4775.0,0.409,-0.594,0.69,-0.062
6476123,-4401.0,-3934.0,-5155.0,0.394,-0.601,0.691,-0.074
6476140,-4037.0,-4934.0,-5647.0,0.381,-0.607,0.691,-0.088
6476157,-3551.0,-5312.0,-5543.0,0.372,-0.611,0.691,-0.103
6476173,-2909.0,-5298.0,-5929.0,0.365,-0.614,0.69,-0.12
6476190,-2863.0,-5598.0,-6053.0,0.356,-0.617,0.689,-0.136
6476207,-2963.0,-6020.0,-5863.0,0.345,-0.619,0.688,-0.153
6476224,-2729.0,-5912.0,-5681.0,0.337,-0.621,0.687,-0.17
6476241,-2091.0,-6018.0,-6393.0,0.334,-0.62,0.684,-0.189
6476258,-2049.0,-5368.0,-5791.0,0.332,-0.619,0.681,-0.207
6476285,-1969.0,-5580.0,-5641.0,0.331,-0.617,0.677,-0.225
6476301,-1505.0,-5940.0,-5423.0,0.33,-0.615,0.674,-0.242
6476317,-649.0,-5860.0,-5549.0,0.326,-0.614,0.671,-0.257
6476333,-509.0,-7050.0,-5993.0,0.322,-0.613,0.669,-0.271
6476349,-767.0,-6864.0,-5759.0,0.316,-0.613,0.667,-0.283
6476365,-687.0,-6898.0,-5629.0,0.31,-0.613,0.665,-0.293
6476391,167.0,-7598.0,-6579.0,0.303,-0.613,0.664,-0.303
6476407,-101.0,-7776.0,-6257.0,0.294,-0.615,0.663,-0.311
6476423,89.0,-6146.0,-6179.0,0.285,-0.617,0.662,-0.317
6476440,549.0,-6492.0,-6429.0,0.277,-0.619,0.661,-0.321
6476457,853.0,-6950.0,-6391.0,0.268,-0.622,0.66,-0.324
6476473,1227.0,-6480.0,-6247.0,0.26,-0.625,0.66,-0.327
6476490,1607.0,-6220.0,-6049.0,0.253,-0.627,0.659,-0.33
6476507,1535.0,-6104.0,-5955.0,0.246,-0.63,0.657,-0.334
6476523,1901.0,-6522.0,-6243.0,0.241,-0.632,0.655,-0.337
6476550,1911.0,-5908.0,-6051.0,0.236,-0.634,0.652,-0.342
6476566,1837.0,-6426.0,-5909.0,0.234,-0.636,0.649,-0.346
6476582,1967.0,-6512.0,-5997.0,0.233,-0.637,0.645,-0.352
6476599,2035.0,-6944.0,-6367.0,0.233,-0.638,0.641,-0.357
6476615,2381.0,-7704.0,-6671.0,0.233,-0.639,0.638,-0.362
6476631,839.0,-8046.0,-6913.0,0.233,-0.639,0.634,-0.368
6476648,1285.0,-9502.0,-7443.0,0.233,-0.638,0.632,-0.373
6476674,875.0,-10078.0,-7753.0,0.232,-0.637,0.631,-0.377
6476690,863.0,-9166.0,-7907.0,0.232,-0.636,0.632,-0.377
6476707,1279.0,-10178.0,-8685.0,0.232,-0.635,0.634,-0.375
6476723,871.0,-9906.0,-8003.0,0.233,-0.633,0.639,-0.37
6476740,657.0,-10568.0,-7733.0,0.235,-0.631,0.644,-0.364
6476756,755.0,-10800.0,-7629.0,0.241,-0.628,0.647,-0.358
6476773,933.0,-10060.0,-7499.0,0.248,-0.626,0.65,-0.352
6476789,1547.0,-6816.0,-7719.0,0.256,-0.622,0.654,-0.345
6476816,1151.0,-8096.0,-7297.0,0.264,-0.619,0.659,-0.336
6476832,915.0,-6452.0,-6745.0,0.273,-0.615,0.663,-0.328
6476848,501.0,-6844.0,-6205.0,0.285,-0.61,0.667,-0.32
6476864,-13.0,-6830.0,-5233.0,0.298,-0.605,0.67,-0.311
6476880,-343.0,-6042.0,-4999.0,0.31,-0.601,0.672,-0.301
6476896,-635.0,-5504.0,-4515.0,0.322,-0.597,0.675,-0.29
6476922,-627.0,-5666.0,-4759.0,0.333,-0.594,0.678,-0.276
6476939,-987.0,-5490.0,-4437.0,0.343,-0.592,0.681,-0.262
6476956,-995.0,-5730.0,-4963.0,0.351,-0.591,0.684,-0.246
6476973,-1505.0,-4904.0,-4905.0,0.359,-0.589,0.686,-0.231
6476990,-1889.0,-5044.0,-4887.0,0.368,-0.588,0.688,-0.214
6477007,-1935.0,-5378.0,-5607.0,0.376,-0.587,0.689,-0.197
6477023,-1761.0,-4452.0,-5809.0,0.383,-0.589,0.69,-0.177
6477040,-2551.0,-6064.0,-4661.0,0.388,-0.591,0.69,-0.158
6477057,-2621.0,-4848.0,-5231.0,0.396,-0.591,0.689,-0.14
6477073,-2629.0,-4544.0,-4743.0,0.404,-0.59,0.688,-0.123
6477100,-2981.0,-5794.0,-4985.0,0.412,-0.588,0.688,-0.107
6477116,-3157.0,-4524.0,-4929.0,0.419,-0.586,0.688,-0.091
6477132,-3677.0,-4426.0,-4581.0,0.426,-0.584,0.687,-0.076
6477148,-3667.0,-4906.0,-4909.0,0.433,-0.581,0.686,-0.062
6477164,-3515.0,-3024.0,-4103.0,0.438,-0.579,0.686,-0.047
6477180,-3321.0,-3490.0,-3895.0,0.444,-0.577,0.685,-0.032
6477196,-2763.0,-3590.0,-3717.0,0.45,-0.574,0.684,-0.019
6477222,-2307.0,-3168.0,-3107.0,0.455,-0.572,0.682,-0.007
6477239,-1689.0,-3208.0,-2799.0,0.46,-0.57,0.681,0.004
6477255,-1847.0,-2994.0,-2301.0,0.464,-0.569,0.679,0.013
6477271,-1671.0,-1568.0,-2539.0,0.467,-0.568,0.677,0.019
6477287,-1823.0,-2614.0,-1561.0,0.469,-0.569,0.675,0.023
6477304,-1663.0,-2164.0,-1871.0,0.47,-0.57,0.674,0.024
6477321,-2209.0,-2242.0,-1581.0,0.469,-0.572,0.673,0.021
6477338,-2349.0,-2282.0,-1613.0,0.468,-0.573,0.673,0.015
6477364,-2847.0,-2964.0,-1891.0,0.467,-0.574,0.673,0.006
6477380,-3229.0,-1996.0,-1943.0,0.463,-0.577,0.673,-0.004
6477396,-3629.0,-2090.0,-2149.0,0.456,-0.581,0.674,-0.016
6477413,-4321.0,-2834.0,-2731.0,0.447,-0.585,0.676,-0.029
6477429,-4799.0,-3402.0,-3501.0,0.438,-0.59,0.677,-0.042
6477445,-4503.0,-2856.0,-3831.0,0.428,-0.595,0.678,-0.057
6477471,-4147.0,-4698.0,-4595.0,0.419,-0.6,0.678,-0.072
6477488,-3673.0,-5308.0,-5467.0,0.411,-0.602,0.678,-0.088
6477505,-4089.0,-4838.0,-4669.0,0.401,-0.606,0.679,-0.103
6477522,-3953.0,-6232.0,-5369.0,0.39,-0.609,0.681,-0.117
6477539,-3685.0,-5752.0,-4975.0,0.381,-0.612,0.681,-0.131
6477556,-2747.0,-4978.0,-5627.0,0.373,-0.614,0.681,-0.144
6477573,-2089.0,-5382.0,-5957.0,0.366,-0.615,0.68,-0.158
6477589,-1549.0,-6196.0,-7635.0,0.359,-0.616,0.68,-0.171
6477606,-2391.0,-6096.0,-6205.0,0.348,-0.619,0.679,-0.185
6477623,-2517.0,-5448.0,-5979.0,0.338,-0.622,0.679,-0.196
6477640,-2117.0,-5902.0,-6269.0,0.33,-0.623,0.678,-0.208
6477656,-1549.0,-6218.0,-6699.0,0.324,-0.625,0.676,-0.218
6477683,-1555.0,-6006.0,-6595.0,0.318,-0.625,0.675,-0.228
6477699,-1445.0,-6342.0,-6085.0,0.312,-0.627,0.674,-0.237
6477715,-863.0,-6654.0,-6653.0,0.306,-0.628,0.672,-0.246
6477731,-1177.0,-6676.0,-5915.0,0.298,-0.631,0.67,-0.254
6477747,-849.0,-7062.0,-6485.0,0.289,-0.633,0.669,-0.262
6477773,-1007.0,-6302.0,-6257.0,0.282,-0.636,0.666,-0.269
6477790,-429.0,-6516.0,-6451.0,0.275,-0.638,0.664,-0.276
6477806,27.0,-6796.0,-6969.0,0.27,-0.64,0.661,-0.283
6477822,169.0,-6438.0,-6741.0,0.265,-0.642,0.658,-0.29
6477839,433.0,-6868.0,-6761.0,0.261,-0.643,0.655,-0.297
6477856,829.0,-6742.0,-6715.0,0.258,-0.644,0.652,-0.305
6477873,965.0,-6010.0,-6611.0,0.254,-0.645,0.649,-0.313
6477890,1129.0,-5588.0,-6475.0,0.25,-0.646,0.647,-0.319
6477907,793.0,-6772.0,-6227.0,0.247,-0.646,0.645,-0.325
6477924,1027.0,-7218.0,-6471.0,0.246,-0.647,0.642,-0.331
6477940,1087.0,-7522.0,-6559.0,0.245,-0.647,0.638,-0.337
6477966,1041.0,-7178.0,-6977.0,0.243,-0.648,0.635,-0.342
6477982,959.0,-7600.0,-6903.0,0.242,-0.649,0.633,-0.346
6477998,675.0,-7906.0,-6947.0,0.24,-0.649,0.632,-0.35
6478014,601.0,-7796.0,-6655.0,0.238,-0.649,0.632,-0.351
6478030,911.0,-8966.0,-7093.0,0.237,-0.648,0.633,-0.35
6478046,983.0,-8964.0,-7305.0,0.236,-0.648,0.635,-0.348
6478072,1483.0,-9242.0,-8479.0,0.234,-0.648,0.638,-0.344
6478089,605.0,-8752.0,-8599.0,0.232,-0.647,0.643,-0.338
6478106,135.0,-9210.0,-8387.0,0.231,-0.646,0.649,-0.328
6478122,119.0,-8538.0,-8305.0,0.233,-0.645,0.655,-0.316
6478138,421.0,-8316.0,-8451.0,0.237,-0.645,0.661,-0.303
6478154,397.0,-7966.0,-8101.0,0.244,-0.644,0.665,-0.289
6478171,541.0,-7682.0,-7925.0,0.253,-0.643,0.668,-0.276
6478188,519.0,-7716.0,-7475.0,0.264,-0.641,0.671,-0.263
6478205,547.0,-6310.0,-6913.0,0.274,-0.64,0.672,-0.252
6478232,9.0,-4200.0,-5899.0,0.282,-0.638,0.676,-0.238
6478248,-537.0,-4980.0,-6149.0,0.289,-0.635,0.68,-0.223
6478264,-1079.0,-5810.0,-5855.0,0.299,-0.632,0.684,-0.208
6478280,-1161.0,-4934.0,-5825.0,0.309,-0.629,0.687,-0.193
6478296,-1257.0,-5434.0,-5943.0,0.319,-0.626,0.688,-0.179
6478312,-1359.0,-5302.0,-5811.0,0.33,-0.624,0.689,-0.166
6478338,-1665.0,-3926.0,-5265.0,0.34,-0.621,0.689,-0.154
6478355,-1757.0,-3940.0,-5085.0,0.352,-0.617,0.689,-0.141
6478372,-1623.0,-4482.0,-5769.0,0.363,-0.613,0.69,-0.13
6478389,-1869.0,-3864.0,-5527.0,0.373,-0.608,0.69,-0.12
6478406,-2015.0,-3634.0,-5367.0,0.383,-0.603,0.691,-0.11
6478423,-2427.0,-4844.0,-5219.0,0.39,-0.599,0.692,-0.101
6478439,-3589.0,-4650.0,-4451.0,0.397,-0.594,0.693,-0.093
6478456,-3713.0,-3740.0,-4093.0,0.404,-0.589,0.694,-0.085
6478473,-3631.0,-4532.0,-4807.0,0.412,-0.584,0.695,-0.077
6478490,-3705.0,-4502.0,-4807.0,0.419,-0.58,0.695,-0.069
6478507,-3999.0,-4082.0,-4821.0,0.424,-0.576,0.696,-0.06
6478533,-3965.0,-3068.0,-4707.0,0.429,-0.572,0.697,-0.051
6478549,-4065.0,-4114.0,-3985.0,0.434,-0.569,0.697,-0.042
6478565,-3595.0,-3574.0,-3933.0,0.439,-0.566,0.697,-0.033
6478581,-3285.0,-3100.0,-3801.0,0.444,-0.563,0.697,-0.024
6478597,-2589.0,-3202.0,-3787.0,0.449,-0.56,0.696,-0.016
6478613,-2811.0,-3006.0,-2723.0,0.454,-0.557,0.695,-0.009
6478639,-2173.0,-1824.0,-2657.0,0.459,-0.555,0.693,-0.004
6478656,-2073.0,-2430.0,-2217.0,0.465,-0.553,0.692,-0.001
6478673,-1923.0,-2146.0,-2167.0,0.47,-0.551,0.689,-0.001
6478690,-1851.0,-2292.0,-2031.0,0.474,-0.551,0.687,-0.004
6478706,-2521.0,-2358.0,-2011.0,0.476,-0.551,0.686,-0.01
6478723,-2183.0,-2252.0,-2593.0,0.476,-0.553,0.684,-0.018
6478739,-3447.0,-3150.0,-2413.0,0.471,-0.558,0.682,-0.027
6478756,-3179.0,-2030.0,-2215.0,0.463,-0.566,0.681,-0.037
6478773,-3445.0,-2874.0,-2341.0,0.454,-0.575,0.679,-0.047
6478790,-3595.0,-4362.0,-4311.0,0.446,-0.582,0.677,-0.06
6478816,-3673.0,-3560.0,-4201.0,0.439,-0.589,0.674,-0.075
6478832,-3447.0,-3574.0,-4821.0,0.43,-0.595,0.673,-0.09
6478848,-3467.0,-4684.0,-4573.0,0.422,-0.6,0.671,-0.105
6478864,-3311.0,-6396.0,-5833.0,0.415,-0.604,0.67,-0.12
6478880,-3487.0,-5398.0,-5065.0,0.407,-0.606,0.67,-0.135
6478897,-3465.0,-5554.0,-5269.0,0.397,-0.609,0.67,-0.148
6478913,-3079.0,-6034.0,-5525.0,0.388,-0.612,0.67,-0.162
6478939,-2373.0,-6272.0,-6127.0,0.379,-0.613,0.67,-0.176
6478956,-2023.0,-6520.0,-6133.0,0.37,-0.616,0.67,-0.189
6478973,-2329.0,-6100.0,-5747.0,0.361,-0.618,0.669,-0.201
6478990,-2207.0,-6952.0,-5433.0,0.353,-0.619,0.669,-0.212
6479006,-2023.0,-6228.0,-5441.0,0.345,-0.621,0.667,-0.223
6479023,-1781.0,-6534.0,-5467.0,0.339,-0.623,0.666,-0.233
6479039,-659.0,-7446.0,-6091.0,0.334,-0.623,0.664,-0.243
6479056,-875.0,-4010.0,-5271.0,0.329,-0.625,0.661,-0.253
6479073,-485.0,-4604.0,-5111.0,0.323,-0.628,0.659,-0.26
6479099,-251.0,-6900.0,-6067.0,0.316,-0.631,0.657,-0.266
6479115,-397.0,-6814.0,-5971.0,0.309,-0.633,0.654,-0.274
6479131,-431.0,-6520.0,-5881.0,0.303,-0.636,0.652,-0.281
6479147,-221.0,-7314.0,-5501.0,0.297,-0.637,0.65,-0.289
6479163,-389.0,-6502.0,-5749.0,0.293,-0.638,0.647,-0.297
6479179,-243.0,-6564.0,-5863.0,0.29,-0.638,0.644,-0.305
6479205,163.0,-6498.0,-6213.0,0.288,-0.639,0.641,-0.312
6479222,703.0,-7170.0,-6865.0,0.286,-0.64,0.638,-0.32
6479239,205.0,-7738.0,-7073.0,0.284,-0.641,0.634,-0.328
6479255,503.0,-8534.0,-6225.0,0.282,-0.641,0.63,-0.335
6479272,131.0,-7182.0,-6001.0,0.28,-0.642,0.627,-0.342
6479289,295.0,-8426.0,-6039.0,0.279,-0.642,0.624,-0.347
6479305,751.0,-7590.0,-6305.0,0.279,-0.642,0.621,-0.353
6479322,1277.0,-8898.0,-7117.0,0.276,-0.642,0.619,-0.358
6479339,901.0,-8118.0,-6871.0,0.273,-0.642,0.617,-0.363
6479356,229.0,-8776.0,-6025.0,0.27,-0.643,0.617,-0.365
6479373,995.0,-9252.0,-6695.0,0.268,-0.643,0.617,-0.365
6479399,863.0,-9142.0,-6823.0,0.265,-0.643,0.619,-0.363
6479415,1563.0,-11086.0,-6455.0,0.267,-0.64,0.622,-0.363
6479431,1075.0,-8350.0,-7515.0,0.266,-0.639,0.626,-0.359
6479447,1069.0,-9002.0,-7233.0,0.265,-0.636,0.631,-0.355
6479463,245.0,-8218.0,-6471.0,0.265,-0.635,0.637,-0.348
6479479,827.0,-9944.0,-7009.0,0.267,-0.632,0.643,-0.339
6479505,409.0,-8826.0,-6761.0,0.27,-0.629,0.65,-0.33
6479522,383.0,-8232.0,-6797.0,0.274,-0.625,0.657,-0.32
6479538,293.0,-8324.0,-6431.0,0.281,-0.621,0.663,-0.309
6479554,273.0,-7666.0,-6285.0,0.29,-0.617,0.667,-0.3
6479571,-105.0,-6612.0,-5909.0,0.301,-0.612,0.67,-0.291
6479588,-117.0,-6072.0,-5843.0,0.313,-0.608,0.673,-0.282
6479605,-213.0,-5222.0,-5625.0,0.325,-0.604,0.675,-0.271
6479622,-609.0,-4430.0,-5225.0,0.336,-0.6,0.679,-0.259
6479639,-953.0,-5694.0,-5313.0,0.347,-0.595,0.682,-0.245
6479656,-1473.0,-5832.0,-5185.0,0.358,-0.591,0.685,-0.232
6479682,-2007.0,-5550.0,-5045.0,0.368,-0.587,0.687,-0.218
6479698,-2679.0,-4880.0,-4439.0,0.378,-0.584,0.689,-0.202
6479715,-2589.0,-5574.0,-5401.0,0.388,-0.581,0.691,-0.186
6479731,-3163.0,-4932.0,-4959.0,0.397,-0.579,0.692,-0.169
6479748,-2751.0,-4886.0,-6015.0,0.408,-0.574,0.694,-0.152
6479764,-3067.0,-4832.0,-5153.0,0.42,-0.568,0.695,-0.137
6479780,-3439.0,-4658.0,-4851.0,0.435,-0.559,0.695,-0.124
6479806,-3381.0,-5620.0,-5557.0,0.448,-0.551,0.696,-0.111
6479823,-3643.0,-4402.0,-4777.0,0.458,-0.545,0.695,-0.097
6479839,-4171.0,-2764.0,-4551.0,0.466,-0.542,0.695,-0.082
6479855,-4383.0,-4714.0,-5027.0,0.473,-0.538,0.695,-0.067
6479872,-4703.0,-5310.0,-4305.0,0.479,-0.535,0.694,-0.051
6479888,-3811.0,-3798.0,-3397.0,0.485,-0.531,0.693,-0.035
6479904,-3939.0,-4182.0,-4243.0,0.492,-0.527,0.693,-0.019
6479931,-4455.0,-4898.0,-5215.0,0.497,-0.523,0.692,-0.003
6479947,-4503.0,-3776.0,-3589.0,0.5,-0.522,0.691,0.014
6479963,-4041.0,-2232.0,-2749.0,0.501,-0.521,0.69,0.031
6479979,-4041.0,-3120.0,-2261.0,0.505,-0.519,0.688,0.048
6479995,-3601.0,-3530.0,-2947.0,0.511,-0.514,0.686,0.061
6480011,-4011.0,-3682.0,-3001.0,0.516,-0.511,0.684,0.072
6480037,-3917.0,-2342.0,-1905.0,0.517,-0.512,0.682,0.082
6480053,-4051.0,-1910.0,-1673.0,0.517,-0.513,0.679,0.091
6480070,-4881.0,-2918.0,-2717.0,0.517,-0.515,0.677,0.097
6480087,-5469.0,-2374.0,-2373.0,0.517,-0.517,0.675,0.101
6480104,-5281.0,-2026.0,-2327.0,0.516,-0.521,0.672,0.103
6480121,-5469.0,-2046.0,-2771.0,0.514,-0.526,0.669,0.107
6480138,-6591.0,-3872.0,-4051.0,0.511,-0.531,0.667,0.11
6480155,-6867.0,-2538.0,-3005.0,0.507,-0.538,0.664,0.112
6480171,-6729.0,-2060.0,-3011.0,0.504,-0.544,0.661,0.115
6480187,-6445.0,-2874.0,-3867.0,0.503,-0.548,0.659,0.118
6480214,-6917.0,-3722.0,-4609.0,0.502,-0.55,0.656,0.119
6480231,-6673.0,-3058.0,-3969.0,0.501,-0.553,0.655,0.119
6480248,-6725.0,-3624.0,-3853.0,0.5,-0.555,0.654,0.118
6480264,-6489.0,-3126.0,-3813.0,0.5,-0.556,0.654,0.118
6480280,-6641.0,-3652.0,-4249.0,0.499,-0.557,0.654,0.117
6480296,-6527.0,-3340.0,-4311.0,0.5,-0.556,0.654,0.116
6480312,-6317.0,-3176.0,-4159.0,0.501,-0.555,0.655,0.114
6480338,-6299.0,-3154.0,-4107.0,0.502,-0.553,0.655,0.113
6480354,-6323.0,-3424.0,-4029.0,0.504,-0.551,0.656,0.111
6480371,-6351.0,-3130.0,-3909.0,0.506,-0.55,0.656,0.109
6480387,-6243.0,-3264.0,-3759.0,0.507,-0.548,0.656,0.108
6480404,-6305.0,-3100.0,-3861.0,0.509,-0.547,0.656,0.107
6480420,-6375.0,-3094.0,-3913.0,0.511,-0.545,0.656,0.106
6480437,-6803.0,-3034.0,-4087.0,0.512,-0.544,0.656,0.105
6480454,-6811.0,-3188.0,-3543.0,0.514,-0.543,0.656,0.104
6480481,-6993.0,-3196.0,-3739.0,0.516,-0.542,0.656,0.103
