timestamp,ax,ay,az,q0,q1,q2,q3
8054946,8276.0,10234.0,2594.0,0.396,0.584,0.108,0.701
8054963,8578.0,10812.0,3560.0,0.383,0.59,0.096,0.704
8054980,8020.0,12578.0,4314.0,0.374,0.594,0.086,0.707
8054997,8128.0,11022.0,4168.0,0.368,0.597,0.076,0.709
8055013,7510.0,11972.0,5154.0,0.365,0.598,0.07,0.71
8055030,6578.0,13282.0,5752.0,0.366,0.599,0.064,0.709
8055046,6672.0,12278.0,5764.0,0.371,0.599,0.059,0.707
8055063,6492.0,12692.0,5792.0,0.381,0.597,0.054,0.704
8055080,6396.0,12058.0,6046.0,0.395,0.592,0.051,0.701
8055097,6722.0,12412.0,5934.0,0.412,0.586,0.05,0.697
8055124,5562.0,12308.0,7166.0,0.432,0.576,0.048,0.692
8055140,5794.0,12510.0,7090.0,0.456,0.563,0.046,0.687
8055156,6824.0,11470.0,6042.0,0.484,0.546,0.044,0.682
8055172,6974.0,11432.0,6866.0,0.512,0.526,0.043,0.677
8055188,6300.0,10626.0,7364.0,0.542,0.503,0.041,0.672
8055214,6908.0,9762.0,7280.0,0.572,0.479,0.04,0.665
8055230,7796.0,10550.0,6528.0,0.602,0.453,0.039,0.657
8055246,8262.0,9336.0,6688.0,0.63,0.425,0.039,0.649
8055263,8054.0,9440.0,6846.0,0.657,0.396,0.04,0.64
8055280,8036.0,8894.0,6874.0,0.683,0.366,0.04,0.631
8055297,8520.0,8818.0,6322.0,0.708,0.335,0.04,0.62
8055313,8314.0,8712.0,5848.0,0.731,0.301,0.04,0.61
8055330,7234.0,6036.0,6076.0,0.752,0.267,0.039,0.602
8055346,7044.0,6072.0,5728.0,0.77,0.235,0.04,0.592
8055363,6750.0,5696.0,5916.0,0.786,0.202,0.039,0.583
8055390,6688.0,5328.0,5230.0,0.801,0.168,0.038,0.573
8055406,6102.0,3884.0,4728.0,0.813,0.136,0.035,0.565
8055422,5300.0,2412.0,4598.0,0.824,0.104,0.034,0.556
8055438,5240.0,2164.0,3830.0,0.833,0.073,0.034,0.548
8055454,4096.0,2080.0,4122.0,0.84,0.043,0.035,0.539
8055470,3098.0,1346.0,3886.0,0.846,0.014,0.036,0.532
8055496,2622.0,12.0,3266.0,0.85,-0.013,0.037,0.525
8055513,2248.0,-766.0,2742.0,0.853,-0.038,0.037,0.519
8055530,1962.0,-360.0,2066.0,0.855,-0.061,0.038,0.513
8055547,1238.0,-1518.0,1928.0,0.856,-0.083,0.039,0.508
8055563,918.0,-2676.0,1484.0,0.857,-0.101,0.04,0.504
8055580,678.0,-3058.0,1054.0,0.857,-0.115,0.041,0.501
8055597,804.0,-3596.0,500.0,0.857,-0.126,0.043,0.498
8055613,716.0,-3748.0,300.0,0.856,-0.134,0.045,0.497
8055630,802.0,-4238.0,182.0,0.856,-0.139,0.048,0.496
8055646,1064.0,-4582.0,-256.0,0.856,-0.141,0.051,0.495
8055673,628.0,-4136.0,188.0,0.856,-0.141,0.055,0.495
8055689,50.0,-4060.0,214.0,0.856,-0.137,0.06,0.495
8055705,-264.0,-4170.0,572.0,0.856,-0.131,0.064,0.496
8055721,-864.0,-3658.0,1104.0,0.856,-0.121,0.067,0.497
8055737,-798.0,-2848.0,1468.0,0.856,-0.108,0.069,0.5
8055753,-726.0,-1460.0,1914.0,0.856,-0.094,0.07,0.503
8055779,-474.0,-1632.0,2666.0,0.855,-0.079,0.067,0.507
8055796,-188.0,-1308.0,3162.0,0.854,-0.061,0.064,0.512
8055813,50.0,-802.0,3734.0,0.853,-0.042,0.061,0.517
8055830,158.0,972.0,4544.0,0.85,-0.022,0.056,0.523
8055846,1130.0,314.0,4706.0,0.847,-0.004,0.049,0.529
8055863,1104.0,-280.0,5582.0,0.843,0.016,0.044,0.536
8055879,1076.0,1568.0,5958.0,0.838,0.037,0.038,0.543
8055895,1840.0,2432.0,6060.0,0.833,0.056,0.031,0.55
8055921,2074.0,1462.0,6510.0,0.827,0.075,0.024,0.557
8055937,2408.0,2160.0,6764.0,0.819,0.095,0.017,0.565
8055953,2528.0,2496.0,6862.0,0.811,0.116,0.01,0.573
8055969,2912.0,2110.0,6760.0,0.803,0.138,0.003,0.58
8055985,3566.0,3878.0,6782.0,0.793,0.159,-0.003,0.588
8056001,3348.0,3190.0,7192.0,0.783,0.18,-0.011,0.595
8056027,4214.0,3192.0,6848.0,0.772,0.203,-0.018,0.602
8056044,4364.0,3442.0,6758.0,0.76,0.226,-0.025,0.609
8056061,4738.0,3886.0,6816.0,0.748,0.249,-0.03,0.615
8056078,5580.0,3920.0,6688.0,0.734,0.272,-0.036,0.621
8056095,5528.0,4380.0,6386.0,0.72,0.295,-0.04,0.627
8056112,5658.0,4512.0,6418.0,0.704,0.319,-0.044,0.633
8056129,5700.0,5304.0,6302.0,0.687,0.343,-0.048,0.639
8056146,6644.0,4498.0,5534.0,0.67,0.365,-0.053,0.644
8056163,7226.0,4766.0,5710.0,0.652,0.389,-0.056,0.649
8056180,7082.0,6466.0,5756.0,0.633,0.412,-0.059,0.653
8056196,7726.0,5848.0,5304.0,0.612,0.434,-0.064,0.658
8056223,7750.0,5742.0,5418.0,0.591,0.457,-0.069,0.662
8056239,8256.0,6940.0,5402.0,0.569,0.479,-0.074,0.664
8056255,8858.0,6860.0,5432.0,0.547,0.5,-0.08,0.667
8056271,9168.0,6910.0,5072.0,0.524,0.52,-0.086,0.669
8056287,8928.0,7406.0,5506.0,0.501,0.539,-0.092,0.67
8056303,9274.0,6924.0,5340.0,0.48,0.556,-0.098,0.671
8056319,9416.0,8172.0,5490.0,0.46,0.571,-0.104,0.672
8056345,8990.0,7186.0,5776.0,0.442,0.584,-0.109,0.672
8056362,8852.0,8218.0,6088.0,0.425,0.596,-0.113,0.672
8056379,8440.0,8356.0,6478.0,0.411,0.605,-0.118,0.672
8056396,8316.0,7336.0,6554.0,0.4,0.612,-0.123,0.671
8056413,8172.0,8960.0,7128.0,0.392,0.618,-0.127,0.669
8056429,8282.0,8576.0,7014.0,0.389,0.621,-0.133,0.667
8056446,8234.0,8438.0,7460.0,0.389,0.622,-0.138,0.665
8056463,8248.0,8432.0,8142.0,0.393,0.622,-0.142,0.662
8056479,8420.0,8896.0,8056.0,0.401,0.619,-0.146,0.659
8056496,9128.0,8806.0,8006.0,0.412,0.613,-0.149,0.657
8056523,8632.0,8546.0,8854.0,0.427,0.605,-0.151,0.655
8056539,8946.0,9732.0,8586.0,0.445,0.594,-0.153,0.652
8056555,10352.0,9786.0,8510.0,0.467,0.579,-0.156,0.65
8056571,11626.0,7516.0,8138.0,0.491,0.561,-0.156,0.648
8056587,11184.0,9050.0,8710.0,0.517,0.541,-0.153,0.646
8056603,11762.0,10072.0,8908.0,0.544,0.517,-0.151,0.644
8056629,13436.0,9006.0,7902.0,0.573,0.489,-0.147,0.641
8056646,13428.0,7902.0,7532.0,0.602,0.458,-0.141,0.638
8056663,12598.0,8232.0,8448.0,0.632,0.425,-0.133,0.635
8056679,13270.0,8678.0,7492.0,0.661,0.389,-0.124,0.629
8056696,13474.0,6504.0,6806.0,0.689,0.351,-0.114,0.624
8056713,12236.0,6152.0,6198.0,0.714,0.312,-0.101,0.618
8056733,10456.0,5426.0,5988.0,0.738,0.273,-0.087,0.611
8056749,9594.0,4116.0,6140.0,0.758,0.234,-0.072,0.604
8056765,8552.0,5454.0,5420.0,0.777,0.196,-0.058,0.596
8056781,7628.0,4146.0,5022.0,0.792,0.157,-0.047,0.587
8056798,7610.0,2330.0,3926.0,0.805,0.121,-0.037,0.579
8056824,6810.0,1438.0,3384.0,0.816,0.087,-0.027,0.571
8056840,5924.0,2540.0,3296.0,0.825,0.053,-0.016,0.563
8056856,5292.0,1568.0,2790.0,0.832,0.02,-0.006,0.555
8056872,4534.0,534.0,2104.0,0.837,-0.011,0.004,0.547
8056888,3176.0,-772.0,1954.0,0.841,-0.039,0.015,0.54
8056904,2100.0,244.0,1754.0,0.844,-0.065,0.024,0.532
8056930,1332.0,-672.0,1074.0,0.846,-0.088,0.032,0.525
8056947,392.0,-1766.0,986.0,0.847,-0.109,0.039,0.519
8056963,-176.0,-1222.0,620.0,0.847,-0.126,0.044,0.514
8056979,-430.0,-2764.0,178.0,0.847,-0.141,0.049,0.51
8056996,-994.0,-2264.0,300.0,0.847,-0.152,0.053,0.508
8057012,-894.0,-3240.0,-34.0,0.846,-0.16,0.056,0.506
8057029,-768.0,-3502.0,184.0,0.845,-0.165,0.059,0.505
8057046,-888.0,-3012.0,500.0,0.844,-0.167,0.062,0.505
8057063,-752.0,-2870.0,278.0,0.844,-0.167,0.065,0.505
8057080,-850.0,-3632.0,526.0,0.844,-0.164,0.067,0.506
8057106,-1428.0,-3348.0,942.0,0.845,-0.158,0.069,0.507
8057122,-1666.0,-2934.0,1498.0,0.845,-0.149,0.07,0.508
8057138,-1294.0,-2716.0,1522.0,0.846,-0.138,0.069,0.511
8057154,-910.0,-2210.0,2116.0,0.846,-0.125,0.068,0.514
8057170,-730.0,-2948.0,2220.0,0.846,-0.111,0.065,0.517
8057186,-328.0,-2570.0,2564.0,0.847,-0.094,0.062,0.52
8057212,-490.0,-1072.0,3510.0,0.846,-0.077,0.059,0.524
8057229,-2.0,-678.0,3646.0,0.845,-0.06,0.054,0.528
8057246,486.0,-1662.0,3898.0,0.844,-0.044,0.048,0.533
8057263,510.0,-2032.0,4626.0,0.842,-0.026,0.043,0.537
8057279,880.0,-118.0,4972.0,0.839,-0.006,0.038,0.543
8057296,1092.0,1288.0,5380.0,0.835,0.012,0.031,0.548
8057312,1562.0,-188.0,5714.0,0.831,0.029,0.023,0.555
8057329,1948.0,618.0,6110.0,0.826,0.048,0.015,0.562
8057346,2318.0,1112.0,6158.0,0.82,0.067,0.007,0.568
8057372,3008.0,1286.0,5964.0,0.813,0.087,-0.001,0.575
8057388,3642.0,1426.0,6224.0,0.806,0.107,-0.008,0.582
8057404,3326.0,2968.0,6942.0,0.798,0.128,-0.016,0.589
8057420,3810.0,3178.0,6682.0,0.789,0.148,-0.026,0.595
8057436,4440.0,2202.0,6646.0,0.78,0.168,-0.036,0.602
8057452,4766.0,2352.0,6836.0,0.77,0.189,-0.045,0.608
8057478,4692.0,2694.0,7066.0,0.76,0.21,-0.054,0.613
8057495,5150.0,3926.0,6882.0,0.749,0.231,-0.062,0.618
8057512,5700.0,4364.0,6778.0,0.737,0.251,-0.072,0.623
8057529,5806.0,3744.0,6916.0,0.725,0.271,-0.083,0.627
8057546,6124.0,2674.0,6958.0,0.713,0.291,-0.092,0.631
8057562,6952.0,4858.0,6384.0,0.7,0.311,-0.101,0.635
8057579,7096.0,4584.0,6946.0,0.687,0.33,-0.111,0.637
8057595,7782.0,4864.0,6360.0,0.675,0.348,-0.122,0.639
8057612,7960.0,4536.0,6322.0,0.662,0.365,-0.132,0.641
8057629,8472.0,5522.0,6424.0,0.649,0.381,-0.143,0.643
8057655,9336.0,4252.0,6040.0,0.637,0.395,-0.154,0.644
8057671,8802.0,3880.0,6318.0,0.625,0.408,-0.163,0.645
8057687,8782.0,5590.0,6094.0,0.613,0.421,-0.172,0.646
8057703,8540.0,2786.0,6458.0,0.602,0.433,-0.182,0.646
8057719,8840.0,4078.0,5808.0,0.59,0.447,-0.19,0.645
8057735,8274.0,4720.0,6552.0,0.579,0.459,-0.198,0.644
8057761,7870.0,4390.0,6362.0,0.567,0.472,-0.209,0.642
8057777,8450.0,3518.0,5856.0,0.556,0.483,-0.22,0.64
8057793,8562.0,3320.0,6028.0,0.544,0.495,-0.23,0.637
8057810,8286.0,3992.0,6550.0,0.533,0.505,-0.24,0.635
8057826,8364.0,4276.0,6692.0,0.522,0.515,-0.249,0.632
8057842,8602.0,3600.0,6626.0,0.512,0.524,-0.259,0.629
8057868,8720.0,3782.0,6938.0,0.503,0.532,-0.267,0.626
8057884,8664.0,4572.0,7444.0,0.495,0.54,-0.274,0.623
8057900,8790.0,4942.0,7436.0,0.49,0.545,-0.281,0.62
8057916,8816.0,2640.0,7558.0,0.485,0.548,-0.286,0.618
8057932,8386.0,3928.0,7956.0,0.482,0.552,-0.288,0.617
8057948,7976.0,5886.0,8612.0,0.48,0.553,-0.29,0.616
8057974,8210.0,4798.0,8488.0,0.481,0.552,-0.293,0.614
8057990,8562.0,4196.0,8472.0,0.485,0.55,-0.294,0.613
8058006,8220.0,4240.0,9102.0,0.491,0.546,-0.293,0.613
8058022,8722.0,5952.0,8926.0,0.498,0.54,-0.291,0.613
8058038,9014.0,4530.0,9176.0,0.508,0.532,-0.288,0.613
8058054,9756.0,5710.0,9534.0,0.52,0.522,-0.283,0.614
8058080,10336.0,6530.0,9874.0,0.535,0.51,-0.278,0.614
8058096,10988.0,6818.0,9316.0,0.552,0.494,-0.274,0.614
8058112,11842.0,5920.0,9352.0,0.571,0.476,-0.267,0.614
8058129,12542.0,6532.0,9700.0,0.591,0.456,-0.259,0.614
8058145,13656.0,7326.0,9386.0,0.613,0.432,-0.248,0.613
8058162,15342.0,5416.0,8108.0,0.639,0.404,-0.236,0.611
8058179,14440.0,5510.0,7358.0,0.664,0.374,-0.219,0.609
8058196,11944.0,6192.0,8532.0,0.689,0.342,-0.2,0.606
8058222,11742.0,7350.0,8508.0,0.713,0.31,-0.184,0.601
8058238,12284.0,5928.0,6706.0,0.737,0.273,-0.17,0.595
8058254,11678.0,1576.0,6180.0,0.76,0.236,-0.153,0.586
8058270,10158.0,3114.0,5710.0,0.781,0.201,-0.132,0.577
8058286,6714.0,3202.0,6444.0,0.799,0.166,-0.112,0.567
8058302,6302.0,3332.0,5842.0,0.814,0.133,-0.096,0.557
8058328,6428.0,1336.0,4276.0,0.828,0.101,-0.082,0.545
8058345,5770.0,1116.0,4402.0,0.84,0.071,-0.067,0.534
8058362,4362.0,2122.0,4578.0,0.849,0.042,-0.053,0.523
8058379,3838.0,1270.0,4140.0,0.857,0.014,-0.041,0.514
8058395,4284.0,762.0,2896.0,0.862,-0.012,-0.031,0.505
8058412,3908.0,294.0,2028.0,0.866,-0.037,-0.02,0.498
8058429,3020.0,-1090.0,1814.0,0.869,-0.06,-0.008,0.49
8058445,1432.0,-624.0,1984.0,0.872,-0.08,0.004,0.483
8058462,664.0,258.0,1826.0,0.873,-0.098,0.014,0.477
8058479,356.0,14.0,1294.0,0.873,-0.115,0.02,0.473
8058505,690.0,-696.0,492.0,0.872,-0.132,0.025,0.47
8058521,424.0,-3054.0,636.0,0.871,-0.146,0.03,0.468
8058538,180.0,-2110.0,432.0,0.87,-0.156,0.034,0.466
8058555,178.0,-1888.0,362.0,0.869,-0.164,0.038,0.465
8058572,94.0,-3226.0,782.0,0.868,-0.171,0.04,0.464
8058588,-50.0,-3180.0,756.0,0.868,-0.174,0.043,0.463
8058604,-144.0,-2256.0,688.0,0.869,-0.175,0.044,0.461
8058620,-340.0,-3422.0,1170.0,0.87,-0.175,0.044,0.46
8058646,-732.0,-3410.0,1412.0,0.871,-0.172,0.043,0.458
8058662,-1034.0,-3870.0,1556.0,0.872,-0.166,0.041,0.458
8058678,-542.0,-2848.0,1564.0,0.874,-0.158,0.039,0.457
8058695,-630.0,-3256.0,2164.0,0.876,-0.148,0.036,0.457
8058712,-548.0,-2202.0,2614.0,0.878,-0.136,0.032,0.457
8058729,-564.0,-2596.0,2892.0,0.88,-0.123,0.027,0.458
8058745,-182.0,-2138.0,3260.0,0.881,-0.108,0.021,0.46
8058772,218.0,-2346.0,3588.0,0.882,-0.091,0.015,0.462
8058788,310.0,-1640.0,4400.0,0.882,-0.074,0.008,0.464
8058804,166.0,-786.0,4968.0,0.882,-0.055,-0.0,0.468
8058820,910.0,-880.0,4940.0,0.88,-0.037,-0.009,0.473
8058836,1590.0,-672.0,5704.0,0.878,-0.018,-0.018,0.478
8058852,2006.0,-40.0,6288.0,0.875,0.001,-0.028,0.483
8058878,2120.0,-306.0,6644.0,0.871,0.021,-0.038,0.489
8058895,3074.0,84.0,5620.0,0.866,0.041,-0.047,0.496
8058911,3656.0,382.0,6876.0,0.861,0.062,-0.057,0.502
8058927,3822.0,870.0,7002.0,0.854,0.083,-0.065,0.509
8058944,3634.0,1470.0,7446.0,0.847,0.106,-0.073,0.517
8058961,3890.0,2564.0,7096.0,0.838,0.128,-0.082,0.525
8058978,5162.0,1478.0,6724.0,0.828,0.149,-0.091,0.533
8058995,4728.0,966.0,7476.0,0.818,0.171,-0.1,0.54
8059012,5182.0,3982.0,7280.0,0.807,0.193,-0.107,0.548
8059028,5662.0,3072.0,6882.0,0.794,0.214,-0.116,0.557
8059055,6626.0,2204.0,6800.0,0.782,0.234,-0.125,0.564
8059071,6126.0,3150.0,6976.0,0.769,0.255,-0.132,0.571
8059087,6270.0,4372.0,6992.0,0.756,0.276,-0.14,0.577
8059103,6676.0,3894.0,6490.0,0.742,0.296,-0.149,0.583
8059120,7806.0,3448.0,6380.0,0.728,0.315,-0.157,0.589
8059136,7458.0,4452.0,6900.0,0.713,0.335,-0.165,0.594
8059152,7074.0,5286.0,7006.0,0.698,0.354,-0.173,0.598
8059178,7706.0,5076.0,6422.0,0.683,0.371,-0.182,0.603
8059195,8518.0,3192.0,5946.0,0.668,0.387,-0.19,0.606
8059211,8678.0,4336.0,6266.0,0.653,0.404,-0.196,0.61
8059228,8140.0,5592.0,6648.0,0.638,0.42,-0.202,0.613
8059245,8526.0,5372.0,6166.0,0.623,0.435,-0.21,0.615
8059261,8788.0,4398.0,5896.0,0.609,0.449,-0.218,0.616
8059278,9384.0,4388.0,5546.0,0.596,0.462,-0.224,0.618
8059295,8998.0,4604.0,5668.0,0.582,0.474,-0.23,0.619
8059311,8600.0,4662.0,6034.0,0.57,0.486,-0.236,0.62
8059328,8546.0,5182.0,5728.0,0.558,0.497,-0.242,0.619
8059355,8670.0,3388.0,5420.0,0.547,0.507,-0.248,0.618
8059371,8364.0,4244.0,5826.0,0.536,0.518,-0.253,0.616
8059387,7646.0,4752.0,6490.0,0.527,0.527,-0.259,0.615
8059403,7576.0,4980.0,6758.0,0.517,0.536,-0.265,0.613
8059419,7762.0,4386.0,6910.0,0.51,0.543,-0.272,0.61
8059435,7736.0,3502.0,6986.0,0.504,0.548,-0.277,0.607
8059461,7360.0,4944.0,7926.0,0.499,0.553,-0.281,0.605
8059478,7030.0,5628.0,8572.0,0.495,0.556,-0.286,0.604
8059495,7708.0,3590.0,7926.0,0.494,0.557,-0.289,0.602
8059511,7908.0,4272.0,8428.0,0.495,0.556,-0.29,0.601
8059528,8050.0,6358.0,8832.0,0.498,0.554,-0.29,0.6
8059545,8080.0,5254.0,8794.0,0.505,0.549,-0.29,0.6
8059562,8414.0,4258.0,8204.0,0.513,0.542,-0.288,0.6
8059578,8452.0,4816.0,9000.0,0.523,0.534,-0.283,0.601
8059595,8630.0,5198.0,8304.0,0.535,0.524,-0.278,0.602
8059611,9258.0,5472.0,8362.0,0.549,0.511,-0.271,0.603
8059638,8890.0,4630.0,8490.0,0.564,0.498,-0.262,0.605
8059654,8618.0,6286.0,9002.0,0.579,0.484,-0.253,0.605
8059670,9416.0,7062.0,9330.0,0.596,0.468,-0.245,0.605
8059686,10348.0,6508.0,8790.0,0.615,0.449,-0.237,0.602
8059702,10686.0,5884.0,8680.0,0.636,0.429,-0.229,0.599
8059718,10342.0,5188.0,8750.0,0.656,0.408,-0.22,0.596
8059744,11140.0,6906.0,8900.0,0.676,0.387,-0.208,0.592
8059761,11728.0,5564.0,8074.0,0.697,0.363,-0.196,0.587
8059778,10686.0,5934.0,8440.0,0.717,0.338,-0.181,0.583
8059794,9568.0,6618.0,8058.0,0.736,0.31,-0.168,0.578
8059811,10134.0,4650.0,7482.0,0.754,0.282,-0.156,0.572
8059828,10204.0,4826.0,6964.0,0.772,0.254,-0.141,0.566
8059844,9296.0,4524.0,7202.0,0.787,0.225,-0.127,0.56
8059861,8494.0,5138.0,6752.0,0.802,0.195,-0.113,0.553
8059878,7846.0,3872.0,6288.0,0.816,0.165,-0.101,0.545
8059894,8278.0,2254.0,5218.0,0.828,0.135,-0.089,0.537
8059921,7108.0,1622.0,5292.0,0.839,0.107,-0.077,0.528
8059937,5984.0,2764.0,4896.0,0.848,0.08,-0.065,0.52
8059953,5140.0,2574.0,4360.0,0.855,0.053,-0.053,0.513
8059969,4712.0,864.0,3050.0,0.861,0.025,-0.043,0.506
8059985,3896.0,-614.0,3510.0,0.866,-0.001,-0.032,0.499
8060001,3056.0,862.0,3028.0,0.87,-0.025,-0.022,0.491
8060027,2580.0,-358.0,2254.0,0.873,-0.047,-0.013,0.485
8060044,2372.0,456.0,1548.0,0.876,-0.068,-0.004,0.478
8060061,1506.0,-916.0,1560.0,0.877,-0.088,0.003,0.473
8060077,760.0,-2000.0,1876.0,0.878,-0.106,0.01,0.467
8060094,868.0,-1610.0,1292.0,0.879,-0.12,0.015,0.462
8060111,444.0,-2238.0,538.0,0.879,-0.131,0.021,0.458
8060128,270.0,-1442.0,542.0,0.879,-0.142,0.025,0.454
8060145,-398.0,-3302.0,550.0,0.879,-0.151,0.029,0.45
8060162,-738.0,-3200.0,732.0,0.88,-0.156,0.031,0.448
8060178,-788.0,-3794.0,462.0,0.88,-0.158,0.033,0.446
8060195,-708.0,-3246.0,408.0,0.881,-0.158,0.033,0.444
8060221,-782.0,-3614.0,940.0,0.882,-0.155,0.034,0.443
8060237,-1058.0,-3554.0,1376.0,0.883,-0.151,0.033,0.444
8060253,-822.0,-3244.0,1570.0,0.884,-0.143,0.032,0.445
8060269,-328.0,-3592.0,1398.0,0.884,-0.134,0.03,0.446
8060285,-322.0,-2366.0,2274.0,0.885,-0.122,0.027,0.448
8060301,-370.0,-2276.0,2742.0,0.886,-0.109,0.023,0.45
8060327,240.0,-2336.0,2858.0,0.886,-0.096,0.018,0.453
8060344,646.0,-2446.0,3176.0,0.886,-0.08,0.012,0.456
8060360,854.0,-518.0,3824.0,0.886,-0.063,0.006,0.46
8060376,1152.0,-210.0,4354.0,0.885,-0.048,-0.001,0.464
8060392,1480.0,-854.0,5042.0,0.883,-0.031,-0.009,0.469
8060408,1898.0,-1314.0,5104.0,0.881,-0.014,-0.017,0.473
8060425,1876.0,-812.0,5490.0,0.878,0.006,-0.025,0.478
8060451,1816.0,782.0,5856.0,0.875,0.026,-0.033,0.483
8060467,2448.0,478.0,6446.0,0.87,0.046,-0.042,0.489
8060483,3150.0,1020.0,6764.0,0.865,0.067,-0.053,0.495
8060499,3064.0,-344.0,7092.0,0.858,0.088,-0.063,0.502
8060515,3642.0,1046.0,6732.0,0.85,0.112,-0.072,0.509
8060541,4392.0,2456.0,7114.0,0.842,0.135,-0.081,0.516
8060557,5128.0,596.0,7434.0,0.833,0.157,-0.089,0.524
8060573,4962.0,2166.0,7806.0,0.822,0.18,-0.095,0.531
8060589,5444.0,3338.0,7468.0,0.812,0.202,-0.101,0.539
8060605,6444.0,2622.0,7234.0,0.8,0.224,-0.106,0.547
8060621,6522.0,4418.0,7372.0,0.787,0.245,-0.11,0.556
8060647,5980.0,4018.0,7366.0,0.773,0.264,-0.115,0.565
8060663,6790.0,3816.0,6690.0,0.759,0.283,-0.119,0.575
8060679,7466.0,4052.0,7048.0,0.744,0.303,-0.123,0.583
8060695,6914.0,5202.0,7060.0,0.728,0.322,-0.127,0.592
8060711,7186.0,5584.0,6780.0,0.713,0.341,-0.132,0.599
8060728,7856.0,4076.0,6274.0,0.697,0.359,-0.137,0.605
8060744,7600.0,4732.0,6350.0,0.682,0.378,-0.142,0.611
8060771,7818.0,5934.0,5810.0,0.665,0.395,-0.147,0.616
8060787,7792.0,5236.0,5870.0,0.648,0.412,-0.151,0.622
8060803,7830.0,5042.0,5658.0,0.632,0.428,-0.156,0.628
8060819,7506.0,4806.0,6164.0,0.615,0.443,-0.16,0.632
8060835,7464.0,5538.0,5852.0,0.599,0.458,-0.166,0.635
8060851,7678.0,6746.0,5704.0,0.583,0.473,-0.172,0.638
8060877,7558.0,5352.0,5758.0,0.567,0.485,-0.181,0.641
8060894,7436.0,4862.0,6050.0,0.552,0.497,-0.189,0.642
8060911,7530.0,6864.0,6420.0,0.537,0.51,-0.198,0.642
8060927,8356.0,5472.0,5934.0,0.525,0.52,-0.207,0.641
8060944,8480.0,5786.0,6346.0,0.514,0.529,-0.215,0.64
8060961,7600.0,5914.0,7332.0,0.505,0.537,-0.222,0.638
8060978,6852.0,7012.0,7622.0,0.496,0.544,-0.23,0.637
8060995,6928.0,7504.0,8268.0,0.488,0.549,-0.239,0.635
8061012,7708.0,5532.0,7408.0,0.484,0.552,-0.249,0.632
8061028,7824.0,5450.0,8754.0,0.482,0.553,-0.256,0.629
8061054,6932.0,6522.0,8904.0,0.482,0.553,-0.263,0.626
8061070,7634.0,6988.0,9638.0,0.485,0.552,-0.269,0.623
8061086,8388.0,6006.0,9140.0,0.49,0.547,-0.274,0.62
8061102,8524.0,5422.0,9822.0,0.498,0.541,-0.277,0.618
8061118,8076.0,5478.0,10012.0,0.508,0.533,-0.278,0.616
8061134,8916.0,6002.0,10094.0,0.521,0.524,-0.277,0.614
8061160,9702.0,7104.0,10084.0,0.535,0.512,-0.276,0.612
8061177,9972.0,5522.0,10364.0,0.553,0.497,-0.274,0.61
8061194,10722.0,5518.0,10268.0,0.571,0.482,-0.269,0.608
8061211,11156.0,6458.0,10332.0,0.591,0.464,-0.262,0.605
8061227,12048.0,7384.0,9702.0,0.612,0.444,-0.253,0.603
8061244,12662.0,5970.0,9748.0,0.634,0.422,-0.243,0.601
8061261,13406.0,7202.0,9110.0,0.657,0.398,-0.229,0.598
8061277,13818.0,6594.0,8574.0,0.68,0.371,-0.214,0.595
8061294,13296.0,5236.0,7918.0,0.704,0.342,-0.196,0.591
8061320,12084.0,5768.0,7848.0,0.728,0.313,-0.174,0.585
8061336,11090.0,5804.0,7664.0,0.75,0.283,-0.153,0.578
8061352,10550.0,6110.0,7202.0,0.771,0.252,-0.133,0.569
8061368,9802.0,4344.0,6488.0,0.791,0.22,-0.114,0.56
8061384,8968.0,3426.0,5116.0,0.808,0.188,-0.093,0.55
8061400,7924.0,3244.0,5028.0,0.824,0.158,-0.072,0.539
8061426,7082.0,2044.0,4494.0,0.838,0.13,-0.051,0.528
8061443,5884.0,3652.0,4214.0,0.85,0.103,-0.031,0.516
8061460,5192.0,4178.0,4104.0,0.86,0.075,-0.015,0.504
8061477,5108.0,1718.0,2512.0,0.869,0.045,-0.001,0.493
8061494,4286.0,20.0,2356.0,0.876,0.019,0.015,0.481
8061510,3314.0,1812.0,2564.0,0.883,-0.006,0.029,0.468
8061527,2996.0,2054.0,1970.0,0.888,-0.032,0.041,0.456
8061544,2438.0,-1196.0,1688.0,0.892,-0.057,0.052,0.445
8061560,1242.0,-1016.0,1626.0,0.896,-0.078,0.062,0.433
8061577,518.0,94.0,1616.0,0.898,-0.097,0.07,0.423
8061594,-288.0,-1552.0,1718.0,0.9,-0.115,0.075,0.414
8061621,-74.0,-1810.0,1010.0,0.901,-0.13,0.079,0.406
8061637,-422.0,-2622.0,588.0,0.902,-0.144,0.08,0.399
8061653,-532.0,-2828.0,636.0,0.903,-0.155,0.081,0.393
8061669,-880.0,-2312.0,1112.0,0.903,-0.164,0.079,0.388
8061685,-728.0,-3568.0,1006.0,0.903,-0.172,0.076,0.386
8061702,-624.0,-3802.0,848.0,0.904,-0.176,0.072,0.384
8061719,-486.0,-3204.0,922.0,0.904,-0.178,0.068,0.383
8061735,-310.0,-3460.0,1172.0,0.904,-0.178,0.063,0.383
8061761,-204.0,-3836.0,1414.0,0.905,-0.176,0.058,0.383
8061777,-466.0,-3384.0,1962.0,0.905,-0.172,0.053,0.385
8061794,-140.0,-3922.0,2146.0,0.906,-0.165,0.048,0.387
8061810,-250.0,-3152.0,2482.0,0.907,-0.155,0.042,0.389
8061827,-300.0,-3008.0,2908.0,0.908,-0.144,0.036,0.392
8061844,-342.0,-3356.0,3404.0,0.908,-0.132,0.029,0.396
8061860,-362.0,-3182.0,3802.0,0.909,-0.116,0.022,0.4
8061878,18.0,-1824.0,3746.0,0.908,-0.1,0.014,0.406
8061895,200.0,-1684.0,4358.0,0.907,-0.084,0.005,0.412
8061912,650.0,-1814.0,4688.0,0.906,-0.067,-0.005,0.418
8061938,806.0,-854.0,5270.0,0.903,-0.049,-0.016,0.426
8061954,1288.0,-190.0,5534.0,0.9,-0.032,-0.028,0.434
8061970,1606.0,-240.0,6212.0,0.896,-0.014,-0.041,0.442
8061986,2458.0,-232.0,5788.0,0.891,0.005,-0.054,0.45
8062002,2834.0,-84.0,6550.0,0.886,0.025,-0.067,0.458
8062028,2736.0,800.0,7380.0,0.88,0.047,-0.08,0.466
8062044,3626.0,1724.0,7264.0,0.873,0.068,-0.095,0.474
8062060,4266.0,1672.0,6910.0,0.865,0.087,-0.11,0.482
8062077,5022.0,1026.0,6600.0,0.856,0.106,-0.124,0.491
8062093,4896.0,682.0,7948.0,0.846,0.125,-0.136,0.499
8062110,5294.0,1916.0,7940.0,0.836,0.146,-0.147,0.509
8062128,5926.0,2790.0,7508.0,0.825,0.165,-0.157,0.518
8062144,6592.0,2400.0,7344.0,0.814,0.182,-0.168,0.526
8062160,6644.0,1744.0,7190.0,0.803,0.199,-0.177,0.534
8062187,6714.0,2598.0,7168.0,0.791,0.217,-0.184,0.542
8062203,6448.0,3558.0,7280.0,0.778,0.236,-0.19,0.551
8062219,6922.0,3076.0,7076.0,0.765,0.253,-0.197,0.559
8062235,7242.0,2206.0,6720.0,0.752,0.27,-0.203,0.566
8062251,6940.0,3850.0,7062.0,0.74,0.287,-0.209,0.572
8062267,6974.0,4828.0,6912.0,0.727,0.303,-0.216,0.577
8062293,6912.0,2962.0,6542.0,0.714,0.317,-0.225,0.582
8062310,7754.0,1684.0,5780.0,0.701,0.333,-0.231,0.587
8062327,7090.0,3392.0,6654.0,0.687,0.351,-0.236,0.592
8062343,6924.0,5110.0,6910.0,0.672,0.367,-0.242,0.596
8062359,6870.0,4630.0,7042.0,0.658,0.382,-0.251,0.599
8062376,7492.0,3444.0,6346.0,0.644,0.396,-0.26,0.601
8062393,8014.0,3732.0,6386.0,0.629,0.41,-0.268,0.603
8062410,7620.0,4560.0,7068.0,0.614,0.423,-0.277,0.605
8062427,7828.0,3878.0,7396.0,0.599,0.436,-0.287,0.607
8062443,8774.0,4010.0,7366.0,0.585,0.449,-0.296,0.607
8062470,9400.0,2828.0,6888.0,0.572,0.461,-0.304,0.606
8062486,9248.0,2344.0,6972.0,0.561,0.472,-0.309,0.606
8062502,8764.0,4366.0,7852.0,0.551,0.482,-0.312,0.605
8062518,8086.0,4822.0,8290.0,0.543,0.491,-0.316,0.603
8062534,8488.0,3574.0,8440.0,0.538,0.496,-0.321,0.601
8062550,8202.0,2038.0,8344.0,0.534,0.501,-0.324,0.599
8062576,8102.0,2730.0,8522.0,0.531,0.505,-0.325,0.598
8062593,7892.0,3974.0,9140.0,0.529,0.507,-0.325,0.598
8062610,8090.0,4234.0,9050.0,0.53,0.507,-0.325,0.597
8062626,8006.0,4214.0,9448.0,0.533,0.505,-0.326,0.596
8062643,8308.0,3138.0,9462.0,0.539,0.501,-0.326,0.594
8062660,8626.0,4198.0,9168.0,0.546,0.495,-0.325,0.592
8062676,9246.0,4206.0,9534.0,0.556,0.487,-0.323,0.591
8062693,8964.0,3944.0,9372.0,0.566,0.478,-0.319,0.59
8062710,9764.0,4922.0,9516.0,0.579,0.467,-0.315,0.589
8062727,10638.0,4930.0,9698.0,0.593,0.454,-0.309,0.588
8062744,10708.0,4490.0,9948.0,0.61,0.439,-0.302,0.586
8062770,10486.0,5854.0,9492.0,0.627,0.422,-0.293,0.585
8062786,11310.0,5518.0,9228.0,0.646,0.403,-0.284,0.583
8062802,12016.0,5020.0,9078.0,0.665,0.382,-0.272,0.582
8062818,12046.0,5880.0,9178.0,0.685,0.358,-0.258,0.579
8062834,11622.0,5088.0,8586.0,0.706,0.332,-0.243,0.576
8062860,11398.0,4802.0,8358.0,0.727,0.305,-0.227,0.572
8062876,11014.0,5006.0,7920.0,0.747,0.276,-0.211,0.567
8062892,10134.0,3992.0,7946.0,0.766,0.246,-0.194,0.561
8062909,9460.0,3968.0,7310.0,0.784,0.215,-0.178,0.554
8062926,9066.0,3232.0,5936.0,0.802,0.184,-0.162,0.545
8062943,8062.0,1962.0,6182.0,0.817,0.153,-0.145,0.536
8062959,6306.0,2030.0,5926.0,0.83,0.124,-0.13,0.527
8062976,5880.0,3380.0,5252.0,0.841,0.096,-0.116,0.519
8062993,6274.0,184.0,3840.0,0.85,0.066,-0.103,0.512
8063019,5110.0,-306.0,4164.0,0.857,0.04,-0.088,0.507
8063035,4670.0,2066.0,3696.0,0.861,0.017,-0.072,0.503
8063051,4524.0,2004.0,2684.0,0.865,-0.007,-0.058,0.498
8063067,4296.0,-518.0,2494.0,0.868,-0.031,-0.044,0.493
8063083,3648.0,-1358.0,2478.0,0.871,-0.052,-0.028,0.487
8063099,2268.0,140.0,2792.0,0.874,-0.07,-0.013,0.48
8063125,1500.0,308.0,2260.0,0.877,-0.087,0.0,0.473
8063142,1028.0,-600.0,1600.0,0.878,-0.104,0.011,0.466
8063159,626.0,-464.0,1198.0,0.88,-0.12,0.02,0.459
8063176,-134.0,-1998.0,1008.0,0.881,-0.136,0.028,0.453
8063193,-540.0,-3116.0,1080.0,0.882,-0.148,0.035,0.447
8063210,-838.0,-2640.0,866.0,0.883,-0.156,0.042,0.442
8063226,-964.0,-860.0,172.0,0.883,-0.163,0.046,0.439
8063243,-1364.0,-3434.0,562.0,0.882,-0.169,0.048,0.437
8063260,-1664.0,-3824.0,192.0,0.882,-0.172,0.049,0.436
8063277,-1514.0,-3358.0,666.0,0.883,-0.171,0.048,0.435
8063293,-1240.0,-2972.0,394.0,0.883,-0.168,0.046,0.436
8063310,-1144.0,-3962.0,552.0,0.884,-0.163,0.043,0.436
8063337,-1130.0,-2898.0,1136.0,0.885,-0.155,0.039,0.437
8063353,-1336.0,-2458.0,1800.0,0.886,-0.145,0.032,0.44
8063369,-648.0,-3710.0,1964.0,0.887,-0.132,0.024,0.443
8063385,86.0,-2688.0,1950.0,0.888,-0.117,0.016,0.445
8063401,460.0,-1748.0,2788.0,0.888,-0.102,0.006,0.448
8063417,524.0,-2068.0,3556.0,0.889,-0.085,-0.004,0.451
8063443,846.0,-668.0,3732.0,0.888,-0.067,-0.015,0.455
8063460,1416.0,-2072.0,4266.0,0.887,-0.048,-0.027,0.459
8063476,1634.0,-406.0,4518.0,0.885,-0.028,-0.038,0.463
8063493,2008.0,990.0,5338.0,0.882,-0.009,-0.051,0.468
8063510,2152.0,1436.0,6242.0,0.879,0.009,-0.067,0.472
8063526,3470.0,1914.0,6084.0,0.875,0.027,-0.083,0.477
8063542,4376.0,1318.0,6346.0,0.87,0.043,-0.1,0.481
8063558,4116.0,-2786.0,6898.0,0.865,0.061,-0.117,0.485
8063585,3734.0,1902.0,7852.0,0.859,0.085,-0.13,0.488
8063601,4206.0,3366.0,7512.0,0.852,0.105,-0.145,0.492
8063617,5274.0,1550.0,7798.0,0.844,0.125,-0.162,0.496
8063633,5920.0,-834.0,7444.0,0.835,0.146,-0.176,0.5
8063649,6210.0,504.0,7802.0,0.826,0.169,-0.188,0.505
8063665,5944.0,2084.0,8428.0,0.815,0.192,-0.198,0.51
8063691,7380.0,1430.0,7410.0,0.804,0.213,-0.21,0.514
8063707,7694.0,122.0,7086.0,0.792,0.233,-0.218,0.52
8063723,7624.0,2000.0,7502.0,0.78,0.253,-0.225,0.527
8063739,7362.0,2146.0,7526.0,0.766,0.272,-0.232,0.534
8063755,7896.0,1938.0,6744.0,0.753,0.289,-0.24,0.541
8063771,8598.0,3084.0,6070.0,0.739,0.305,-0.248,0.547
8063797,8440.0,2748.0,5908.0,0.725,0.319,-0.257,0.554
8063813,8414.0,2488.0,5576.0,0.71,0.333,-0.266,0.56
8063829,8178.0,2920.0,5638.0,0.696,0.348,-0.276,0.564
8063845,8252.0,3042.0,4912.0,0.682,0.362,-0.288,0.566
8063861,8738.0,2766.0,5152.0,0.668,0.378,-0.299,0.567
8063877,8480.0,4524.0,5202.0,0.654,0.394,-0.313,0.565
8063903,9008.0,3390.0,4354.0,0.64,0.409,-0.328,0.562
8063919,9310.0,3622.0,4806.0,0.625,0.425,-0.342,0.558
8063935,9380.0,4464.0,5292.0,0.611,0.439,-0.357,0.553
8063951,9332.0,5062.0,5674.0,0.598,0.451,-0.374,0.548
8063967,10616.0,2928.0,5076.0,0.586,0.461,-0.391,0.54
8063983,10850.0,1998.0,5848.0,0.575,0.471,-0.404,0.534
8064009,10408.0,3324.0,6632.0,0.565,0.48,-0.415,0.528
8064026,10518.0,3766.0,6976.0,0.557,0.487,-0.425,0.522
8064042,10058.0,2844.0,7508.0,0.551,0.493,-0.434,0.516
8064059,9198.0,2436.0,8188.0,0.546,0.497,-0.442,0.509
8064076,9300.0,1990.0,8054.0,0.543,0.5,-0.449,0.503
8064093,9084.0,2370.0,9002.0,0.542,0.502,-0.454,0.498
8064109,9560.0,2170.0,8680.0,0.543,0.502,-0.458,0.493
8064126,9554.0,840.0,8668.0,0.547,0.5,-0.46,0.489
8064142,9122.0,696.0,8712.0,0.552,0.497,-0.459,0.487
8064169,8438.0,2452.0,9350.0,0.558,0.493,-0.456,0.488
8064185,9086.0,2614.0,9472.0,0.565,0.486,-0.453,0.489
8064201,9928.0,452.0,8794.0,0.576,0.477,-0.449,0.49
8064217,10356.0,318.0,8942.0,0.587,0.468,-0.442,0.492
8064233,10082.0,3582.0,9432.0,0.598,0.457,-0.434,0.495
8064249,11376.0,3018.0,8724.0,0.611,0.444,-0.426,0.498
8064275,12462.0,792.0,8384.0,0.625,0.429,-0.417,0.502
8064292,13284.0,2860.0,8702.0,0.64,0.414,-0.403,0.507
8064309,14408.0,4122.0,8270.0,0.656,0.397,-0.388,0.511
8064326,14870.0,3354.0,8116.0,0.674,0.377,-0.373,0.514
8064342,15994.0,4902.0,8406.0,0.693,0.356,-0.355,0.516
8064359,17990.0,4252.0,6634.0,0.715,0.331,-0.336,0.516
8064376,16586.0,3150.0,7332.0,0.738,0.303,-0.312,0.516
8064392,14578.0,4992.0,6306.0,0.76,0.275,-0.288,0.514
8064409,12276.0,3988.0,5486.0,0.781,0.244,-0.264,0.511
8064426,10174.0,3636.0,6212.0,0.8,0.213,-0.241,0.506
8064452,10776.0,3582.0,5550.0,0.819,0.182,-0.219,0.498
8064468,9166.0,2584.0,4842.0,0.836,0.15,-0.196,0.49
8064484,6616.0,800.0,4834.0,0.85,0.122,-0.174,0.482
8064500,5376.0,1752.0,4212.0,0.863,0.096,-0.151,0.472
8064516,4152.0,2216.0,4270.0,0.875,0.071,-0.129,0.462
8064542,3892.0,3478.0,3732.0,0.884,0.045,-0.111,0.452
8064559,2768.0,1188.0,3048.0,0.891,0.018,-0.096,0.443
8064576,2710.0,390.0,1902.0,0.897,-0.005,-0.08,0.435
8064592,2098.0,936.0,1618.0,0.901,-0.028,-0.065,0.428
8064609,1504.0,-688.0,1228.0,0.904,-0.05,-0.051,0.422
8064626,834.0,150.0,1194.0,0.905,-0.071,-0.037,0.417
8064642,440.0,-1068.0,920.0,0.906,-0.09,-0.025,0.413
8064659,606.0,-1928.0,154.0,0.906,-0.107,-0.014,0.41
8064676,28.0,-488.0,260.0,0.905,-0.123,-0.005,0.408
8064692,-110.0,-2634.0,-316.0,0.903,-0.137,0.001,0.408
8064709,166.0,-3216.0,-332.0,0.901,-0.148,0.005,0.407
8064736,418.0,-2788.0,-926.0,0.9,-0.155,0.009,0.407
8064753,14.0,-2312.0,-544.0,0.899,-0.159,0.011,0.407
8064769,-348.0,-2992.0,-34.0,0.899,-0.161,0.011,0.408
8064785,-288.0,-2842.0,162.0,0.898,-0.16,0.009,0.41
8064801,-186.0,-4080.0,526.0,0.898,-0.156,0.006,0.411
8064817,-256.0,-2764.0,396.0,0.898,-0.148,0.002,0.413
8064833,-574.0,-3272.0,1306.0,0.899,-0.138,-0.003,0.416
8064859,-306.0,-2480.0,1652.0,0.899,-0.126,-0.01,0.42
8064876,28.0,-2268.0,2204.0,0.899,-0.111,-0.018,0.423
8064892,356.0,-2250.0,2606.0,0.899,-0.095,-0.027,0.428
8064909,1094.0,-1854.0,2966.0,0.898,-0.077,-0.037,0.432
8064925,1308.0,-1256.0,3488.0,0.896,-0.058,-0.046,0.437
8064941,1132.0,-974.0,4204.0,0.894,-0.039,-0.057,0.442
8064958,1404.0,-592.0,4316.0,0.892,-0.018,-0.068,0.447
8064975,2074.0,20.0,4866.0,0.888,0.002,-0.08,0.452
8064992,2668.0,-600.0,5370.0,0.884,0.024,-0.093,0.458
8065019,3334.0,780.0,5284.0,0.879,0.045,-0.107,0.463
8065035,3698.0,1274.0,5886.0,0.873,0.067,-0.122,0.468
8065052,4436.0,512.0,5868.0,0.866,0.089,-0.137,0.473
8065068,4854.0,-198.0,6120.0,0.858,0.112,-0.152,0.478
8065084,5570.0,2154.0,6046.0,0.849,0.137,-0.165,0.483
8065100,5586.0,2208.0,6504.0,0.84,0.161,-0.179,0.487
8065126,5906.0,3322.0,6552.0,0.829,0.184,-0.194,0.491
8065142,6220.0,2702.0,6690.0,0.818,0.204,-0.21,0.495
8065159,7726.0,1776.0,6198.0,0.806,0.225,-0.225,0.498
8065175,7518.0,3028.0,6420.0,0.794,0.247,-0.238,0.502
8065192,7934.0,3514.0,6328.0,0.781,0.267,-0.251,0.506
8065209,8190.0,2526.0,6448.0,0.767,0.287,-0.263,0.51
8065225,8626.0,4154.0,6910.0,0.753,0.306,-0.273,0.513
8065242,8508.0,4334.0,6154.0,0.74,0.324,-0.284,0.516
8065259,8940.0,3488.0,6056.0,0.726,0.342,-0.294,0.519
8065276,9574.0,3178.0,5636.0,0.712,0.359,-0.303,0.521
8065302,9022.0,4034.0,6158.0,0.699,0.376,-0.31,0.524
8065318,8978.0,3760.0,5754.0,0.685,0.392,-0.318,0.525
8065334,9592.0,3052.0,5610.0,0.672,0.407,-0.325,0.527
8065350,9416.0,3124.0,5222.0,0.659,0.422,-0.331,0.527
8065366,9426.0,4298.0,5518.0,0.645,0.437,-0.338,0.528
8065382,8378.0,3734.0,5898.0,0.633,0.45,-0.346,0.527
8065408,9160.0,3574.0,5332.0,0.62,0.463,-0.355,0.525
8065425,9588.0,3482.0,5230.0,0.607,0.474,-0.366,0.523
8065442,10122.0,2774.0,5104.0,0.596,0.483,-0.376,0.52
8065458,9584.0,1770.0,5042.0,0.585,0.493,-0.383,0.517
8065475,9332.0,3998.0,5712.0,0.573,0.503,-0.391,0.515
8065491,9234.0,3676.0,5878.0,0.563,0.511,-0.399,0.512
8065507,9760.0,1966.0,5456.0,0.554,0.519,-0.407,0.508
8065533,10040.0,2312.0,5648.0,0.546,0.526,-0.413,0.505
8065549,9836.0,3724.0,6420.0,0.538,0.531,-0.418,0.503
8065565,9188.0,4208.0,7350.0,0.533,0.535,-0.424,0.5
8065581,10112.0,2770.0,7158.0,0.53,0.537,-0.429,0.496
8065597,10392.0,1360.0,7276.0,0.529,0.539,-0.431,0.493
8065613,10140.0,3882.0,7770.0,0.53,0.539,-0.431,0.492
8065630,8818.0,3600.0,8712.0,0.533,0.537,-0.43,0.492
8065647,9374.0,3102.0,8954.0,0.538,0.534,-0.429,0.492
8065673,9866.0,1690.0,8382.0,0.545,0.529,-0.426,0.492
8065690,9814.0,3708.0,8544.0,0.553,0.523,-0.42,0.494
8065707,9382.0,4186.0,8676.0,0.564,0.513,-0.415,0.497
8065724,9358.0,3554.0,9148.0,0.575,0.503,-0.408,0.5
8065741,10880.0,4258.0,8380.0,0.588,0.49,-0.402,0.503
8065758,12120.0,4058.0,8596.0,0.603,0.475,-0.394,0.505
8065775,12530.0,4428.0,8184.0,0.62,0.459,-0.383,0.508
8065792,12108.0,4702.0,8112.0,0.637,0.441,-0.371,0.512
8065809,13002.0,5356.0,8060.0,0.655,0.422,-0.357,0.515
8065825,13422.0,5940.0,7532.0,0.675,0.4,-0.344,0.516
8065842,14112.0,5738.0,7046.0,0.696,0.377,-0.329,0.515
8065868,13660.0,5130.0,6790.0,0.717,0.351,-0.313,0.514
8065884,13722.0,4258.0,5674.0,0.738,0.325,-0.294,0.513
8065900,12190.0,3218.0,5856.0,0.758,0.299,-0.273,0.512
8065916,11106.0,5254.0,5788.0,0.776,0.273,-0.251,0.51
8065932,9846.0,5316.0,5648.0,0.794,0.246,-0.23,0.506
8065948,9492.0,4522.0,4792.0,0.81,0.218,-0.211,0.502
8065974,8546.0,2436.0,3796.0,0.825,0.191,-0.191,0.496
8065991,7676.0,2348.0,4146.0,0.839,0.166,-0.17,0.49
8066008,6386.0,3654.0,4296.0,0.851,0.143,-0.15,0.483
8066025,6066.0,3754.0,3104.0,0.861,0.119,-0.132,0.476
8066042,5512.0,1600.0,2322.0,0.87,0.093,-0.115,0.47
8066058,4616.0,154.0,1982.0,0.878,0.069,-0.097,0.463
8066075,3464.0,862.0,2352.0,0.885,0.048,-0.079,0.457
8066092,2902.0,972.0,1994.0,0.891,0.028,-0.062,0.45
8066108,2892.0,472.0,1202.0,0.895,0.008,-0.048,0.443
8066125,2408.0,-14.0,714.0,0.899,-0.011,-0.034,0.437
8066151,1062.0,-1316.0,1884.0,0.901,-0.027,-0.022,0.432
8066167,942.0,-1430.0,1182.0,0.903,-0.04,-0.012,0.427
8066183,406.0,-2044.0,1234.0,0.905,-0.051,-0.004,0.423
8066199,506.0,-2132.0,740.0,0.906,-0.059,0.002,0.418
8066215,320.0,-1810.0,1000.0,0.908,-0.067,0.006,0.415
8066231,-264.0,-3430.0,1510.0,0.908,-0.072,0.008,0.412
8066257,-460.0,-3516.0,1628.0,0.909,-0.074,0.008,0.41
8066274,-74.0,-2424.0,1054.0,0.909,-0.073,0.007,0.41
8066291,138.0,-3572.0,1104.0,0.909,-0.072,0.005,0.41
8066308,82.0,-3066.0,1640.0,0.909,-0.069,0.002,0.411
8066324,152.0,-3650.0,1788.0,0.909,-0.064,-0.001,0.413
8066341,58.0,-3102.0,2056.0,0.908,-0.055,-0.005,0.416
8066358,580.0,-2268.0,1876.0,0.907,-0.046,-0.011,0.418
8066375,680.0,-2512.0,2656.0,0.906,-0.036,-0.017,0.421
8066391,666.0,-2030.0,3282.0,0.904,-0.025,-0.025,0.425
8066409,852.0,-2184.0,3452.0,0.902,-0.012,-0.034,0.43
8066436,1410.0,-2140.0,3574.0,0.899,0.003,-0.044,0.435
8066452,1714.0,174.0,3684.0,0.896,0.018,-0.055,0.44
8066468,2068.0,-28.0,4244.0,0.892,0.032,-0.068,0.446
8066484,2376.0,-1266.0,4712.0,0.886,0.047,-0.082,0.453
8066500,3392.0,188.0,4756.0,0.88,0.064,-0.096,0.46
8066516,3756.0,662.0,4984.0,0.874,0.081,-0.111,0.467
8066542,4488.0,990.0,5092.0,0.866,0.099,-0.126,0.473
8066558,4974.0,1580.0,5230.0,0.858,0.117,-0.142,0.479
8066574,5528.0,392.0,5708.0,0.849,0.136,-0.158,0.485
8066590,5818.0,2254.0,5650.0,0.84,0.156,-0.172,0.491
8066606,5850.0,3462.0,5830.0,0.83,0.176,-0.188,0.495
8066622,6808.0,2924.0,5872.0,0.819,0.195,-0.204,0.5
8066638,7166.0,3188.0,6342.0,0.808,0.213,-0.219,0.504
8066664,7268.0,2334.0,6566.0,0.796,0.232,-0.235,0.508
8066681,7692.0,3342.0,6338.0,0.784,0.252,-0.25,0.51
8066697,8530.0,3884.0,6062.0,0.772,0.27,-0.266,0.511
8066713,8404.0,3616.0,6368.0,0.759,0.287,-0.281,0.512
8066729,7884.0,2804.0,6724.0,0.746,0.305,-0.294,0.513
8066746,8990.0,3744.0,6312.0,0.733,0.323,-0.307,0.514
8066763,9626.0,4194.0,6102.0,0.72,0.34,-0.319,0.514
8066789,10202.0,2856.0,5872.0,0.708,0.354,-0.33,0.515
8066805,9424.0,3332.0,6484.0,0.695,0.37,-0.337,0.516
8066821,8874.0,4124.0,6690.0,0.683,0.385,-0.345,0.516
8066837,10042.0,2858.0,5456.0,0.671,0.399,-0.352,0.515
8066853,9514.0,3624.0,5728.0,0.661,0.413,-0.358,0.515
8066869,8884.0,3188.0,5604.0,0.65,0.426,-0.363,0.514
8066895,8538.0,2734.0,5686.0,0.639,0.439,-0.368,0.513
8066911,8524.0,3754.0,5370.0,0.627,0.452,-0.374,0.512
8066927,9270.0,1990.0,5012.0,0.617,0.464,-0.38,0.51
8066943,8366.0,3096.0,4954.0,0.605,0.477,-0.385,0.509
8066959,8520.0,4694.0,5626.0,0.594,0.488,-0.391,0.506
8066975,8640.0,3138.0,5652.0,0.583,0.499,-0.399,0.502
8067001,9064.0,2480.0,5132.0,0.573,0.509,-0.406,0.497
8067018,9854.0,3236.0,5408.0,0.564,0.519,-0.411,0.493
8067035,9348.0,3314.0,5792.0,0.554,0.529,-0.416,0.49
8067052,9384.0,3468.0,6458.0,0.546,0.537,-0.419,0.488
8067069,9310.0,3118.0,6824.0,0.539,0.545,-0.421,0.485
8067085,9520.0,3154.0,6928.0,0.533,0.552,-0.422,0.483
8067101,9682.0,4288.0,7010.0,0.529,0.557,-0.423,0.481
8067117,9212.0,3320.0,7696.0,0.527,0.56,-0.422,0.48
8067143,9562.0,3540.0,7974.0,0.527,0.561,-0.421,0.48
8067159,10098.0,2962.0,7798.0,0.529,0.561,-0.417,0.481
8067175,9074.0,4030.0,7038.0,0.534,0.56,-0.412,0.482
8067191,9364.0,3624.0,8640.0,0.541,0.555,-0.407,0.483
8067207,8886.0,3138.0,8218.0,0.549,0.549,-0.402,0.486
8067223,9698.0,4668.0,8172.0,0.558,0.541,-0.396,0.488
8067249,10704.0,4552.0,8242.0,0.572,0.53,-0.39,0.49
8067265,10760.0,4076.0,8210.0,0.586,0.517,-0.383,0.492
8067281,10680.0,5226.0,8768.0,0.602,0.503,-0.375,0.494
8067297,11538.0,5396.0,7604.0,0.619,0.486,-0.368,0.495
8067313,12560.0,3542.0,7410.0,0.637,0.468,-0.359,0.497
8067329,12998.0,5462.0,6728.0,0.656,0.448,-0.347,0.499
8067355,11630.0,5292.0,6880.0,0.674,0.428,-0.332,0.502
8067372,12250.0,7652.0,6922.0,0.694,0.405,-0.318,0.504
8067389,12784.0,6500.0,6332.0,0.714,0.379,-0.303,0.505
8067405,13066.0,4644.0,5584.0,0.734,0.352,-0.285,0.505
8067421,12156.0,6752.0,6024.0,0.754,0.325,-0.265,0.506
8067437,10614.0,5480.0,6026.0,0.772,0.297,-0.245,0.506
8067453,10392.0,5170.0,5918.0,0.789,0.27,-0.226,0.503
8067479,10734.0,6018.0,4542.0,0.806,0.242,-0.206,0.499
8067495,9158.0,3302.0,4626.0,0.822,0.214,-0.186,0.494
8067511,7958.0,4116.0,4912.0,0.836,0.188,-0.164,0.489
8067527,7474.0,4058.0,4474.0,0.848,0.163,-0.145,0.483
8067543,7198.0,2676.0,3258.0,0.859,0.138,-0.127,0.476
8067569,6262.0,2582.0,3184.0,0.87,0.114,-0.109,0.468
8067585,4630.0,3196.0,3802.0,0.878,0.089,-0.092,0.461
8067601,4944.0,620.0,3108.0,0.886,0.064,-0.077,0.454
8067617,4418.0,1694.0,2702.0,0.892,0.042,-0.061,0.446
8067633,3728.0,2908.0,2364.0,0.897,0.018,-0.047,0.438
8067649,3206.0,-782.0,2196.0,0.902,-0.005,-0.035,0.431
8067665,2192.0,-1996.0,2202.0,0.906,-0.023,-0.019,0.423
8067691,1468.0,604.0,2032.0,0.909,-0.039,-0.005,0.414
8067707,1360.0,-440.0,1076.0,0.912,-0.055,0.007,0.406
8067724,-484.0,-2730.0,1450.0,0.914,-0.071,0.019,0.399
8067740,-1442.0,-2544.0,1650.0,0.916,-0.082,0.028,0.392
8067757,-1690.0,-2776.0,1490.0,0.917,-0.092,0.034,0.387
8067774,-1578.0,-3358.0,346.0,0.917,-0.099,0.038,0.384
8067791,-1548.0,-3466.0,924.0,0.918,-0.104,0.039,0.381
8067807,-1498.0,-3688.0,876.0,0.918,-0.108,0.038,0.38
8067833,-1372.0,-4246.0,1484.0,0.918,-0.109,0.036,0.38
8067849,-996.0,-3038.0,1116.0,0.917,-0.106,0.032,0.382
8067865,-42.0,-3196.0,746.0,0.917,-0.104,0.027,0.384
8067881,-364.0,-3942.0,1762.0,0.917,-0.1,0.022,0.386
8067897,-452.0,-2952.0,2628.0,0.916,-0.093,0.015,0.39
8067913,268.0,-3288.0,2044.0,0.915,-0.085,0.007,0.394
8067939,614.0,-2978.0,2458.0,0.914,-0.074,-0.001,0.399
8067956,626.0,-2340.0,2786.0,0.913,-0.063,-0.009,0.403
8067973,410.0,-2118.0,3610.0,0.911,-0.051,-0.019,0.409
8067989,622.0,-2954.0,4036.0,0.909,-0.036,-0.029,0.415
8068005,1442.0,-1898.0,3792.0,0.905,-0.02,-0.041,0.422
8068022,1724.0,-982.0,3990.0,0.902,-0.004,-0.053,0.429
8068038,2104.0,-614.0,4698.0,0.897,0.012,-0.066,0.437
8068054,2538.0,-206.0,5214.0,0.891,0.029,-0.08,0.445
8068080,2726.0,-172.0,5488.0,0.884,0.047,-0.096,0.455
8068097,3610.0,848.0,5502.0,0.877,0.064,-0.112,0.463
8068113,3894.0,426.0,5478.0,0.869,0.081,-0.13,0.471
8068129,4596.0,-482.0,4930.0,0.86,0.099,-0.146,0.479
8068145,4856.0,2378.0,5640.0,0.85,0.121,-0.16,0.487
8068161,5370.0,2100.0,6346.0,0.839,0.143,-0.176,0.495
8068187,6022.0,2156.0,6400.0,0.828,0.163,-0.194,0.501
8068203,6900.0,2470.0,5792.0,0.816,0.183,-0.211,0.506
8068219,7490.0,2512.0,5384.0,0.804,0.204,-0.228,0.51
8068235,8046.0,2630.0,5864.0,0.792,0.224,-0.243,0.514
8068251,7792.0,3564.0,6486.0,0.778,0.245,-0.257,0.518
8068267,8186.0,4154.0,6398.0,0.764,0.265,-0.273,0.522
8068293,9492.0,1614.0,5696.0,0.75,0.284,-0.287,0.524
8068309,9764.0,3956.0,5626.0,0.735,0.304,-0.3,0.526
8068325,9332.0,3844.0,6118.0,0.721,0.322,-0.313,0.527
8068341,9076.0,3560.0,6078.0,0.707,0.34,-0.325,0.528
8068357,10606.0,3444.0,5044.0,0.693,0.357,-0.336,0.529
8068373,10438.0,2736.0,5248.0,0.679,0.374,-0.345,0.53
8068399,9420.0,3628.0,6030.0,0.665,0.39,-0.353,0.53
8068415,9180.0,4364.0,6000.0,0.651,0.406,-0.363,0.529
8068431,10370.0,3248.0,5478.0,0.638,0.42,-0.373,0.527
8068447,10404.0,2752.0,4878.0,0.625,0.434,-0.382,0.525
8068463,10458.0,2906.0,5270.0,0.613,0.447,-0.39,0.522
8068479,9740.0,3522.0,5626.0,0.602,0.459,-0.398,0.519
8068505,9540.0,3786.0,5628.0,0.59,0.472,-0.405,0.515
8068521,9938.0,3286.0,5872.0,0.579,0.483,-0.414,0.511
8068537,9984.0,2186.0,5550.0,0.568,0.493,-0.422,0.506
8068553,9858.0,3580.0,6134.0,0.558,0.504,-0.429,0.502
8068569,9776.0,3418.0,6556.0,0.548,0.512,-0.436,0.497
8068585,10038.0,2408.0,5986.0,0.541,0.52,-0.442,0.492
8068611,9922.0,2592.0,6460.0,0.534,0.527,-0.447,0.487
8068627,9804.0,2690.0,6702.0,0.529,0.533,-0.45,0.483
8068643,9402.0,2936.0,6832.0,0.526,0.537,-0.453,0.481
8068659,8944.0,2166.0,7208.0,0.523,0.539,-0.454,0.479
8068675,8960.0,3452.0,7204.0,0.523,0.541,-0.455,0.477
8068691,9664.0,2814.0,7640.0,0.525,0.54,-0.455,0.474
8068717,9446.0,1398.0,7588.0,0.531,0.537,-0.454,0.473
8068733,8264.0,3346.0,7836.0,0.537,0.534,-0.451,0.472
8068749,8810.0,3892.0,7964.0,0.545,0.528,-0.449,0.471
8068765,9386.0,1634.0,7876.0,0.555,0.521,-0.446,0.471
8068781,9826.0,3274.0,7746.0,0.567,0.512,-0.44,0.472
8068807,8558.0,4622.0,8206.0,0.58,0.5,-0.436,0.473
8068824,8492.0,2858.0,8276.0,0.594,0.487,-0.432,0.472
8068840,10206.0,2842.0,8118.0,0.608,0.473,-0.428,0.472
8068857,11310.0,4166.0,6952.0,0.623,0.458,-0.423,0.473
8068874,11328.0,3338.0,6650.0,0.639,0.44,-0.416,0.475
8068890,11994.0,5784.0,7670.0,0.654,0.421,-0.407,0.478
8068907,13616.0,5248.0,7152.0,0.671,0.399,-0.399,0.481
8068923,14978.0,1702.0,5690.0,0.688,0.376,-0.387,0.485
8068940,14516.0,4972.0,5852.0,0.705,0.355,-0.371,0.489
8068957,13582.0,5372.0,6526.0,0.723,0.33,-0.354,0.492
8068983,13300.0,5016.0,7080.0,0.741,0.305,-0.338,0.494
8068999,13378.0,5210.0,5722.0,0.758,0.278,-0.323,0.493
8069015,13374.0,3610.0,5342.0,0.776,0.25,-0.308,0.491
8069031,12344.0,3368.0,5278.0,0.792,0.222,-0.29,0.488
8069047,11970.0,2520.0,5134.0,0.808,0.195,-0.27,0.486
8069063,11024.0,2540.0,4516.0,0.822,0.169,-0.249,0.483
8069089,9912.0,2126.0,3860.0,0.837,0.142,-0.226,0.478
8069106,8070.0,2120.0,4826.0,0.849,0.117,-0.203,0.473
8069123,7858.0,2602.0,4162.0,0.861,0.092,-0.181,0.467
8069140,7342.0,2038.0,3622.0,0.87,0.067,-0.161,0.46
8069157,5910.0,-622.0,2910.0,0.879,0.042,-0.141,0.454
8069174,4802.0,-1862.0,2856.0,0.887,0.02,-0.119,0.446
8069190,3046.0,1386.0,3320.0,0.894,0.0,-0.098,0.437
8069207,2796.0,-510.0,3324.0,0.899,-0.02,-0.079,0.429
8069224,2260.0,-610.0,2468.0,0.904,-0.038,-0.063,0.422
8069240,1848.0,-2518.0,926.0,0.907,-0.056,-0.047,0.415
8069267,686.0,-2128.0,1534.0,0.91,-0.069,-0.03,0.408
8069283,-586.0,-1282.0,1628.0,0.912,-0.082,-0.015,0.402
8069299,-576.0,-2372.0,1496.0,0.913,-0.093,-0.003,0.397
8069315,-436.0,-2396.0,726.0,0.914,-0.102,0.008,0.392
8069331,-962.0,-2634.0,42.0,0.914,-0.109,0.018,0.389
8069347,-1832.0,-3032.0,924.0,0.915,-0.115,0.027,0.387
8069373,-1896.0,-2594.0,852.0,0.915,-0.118,0.034,0.385
8069389,-1732.0,-2920.0,660.0,0.914,-0.12,0.038,0.385
8069406,-1270.0,-2688.0,-82.0,0.914,-0.119,0.039,0.385
8069423,-1108.0,-3550.0,186.0,0.914,-0.118,0.041,0.386
8069440,-1668.0,-2764.0,1112.0,0.915,-0.113,0.04,0.386
8069457,-1976.0,-2364.0,1396.0,0.915,-0.107,0.037,0.388
8069473,-1258.0,-2952.0,1346.0,0.915,-0.099,0.031,0.391
8069490,-730.0,-2344.0,1234.0,0.915,-0.09,0.022,0.393
8069507,-404.0,-2618.0,2010.0,0.915,-0.08,0.013,0.396
8069524,-420.0,-1608.0,2518.0,0.914,-0.068,0.002,0.4
8069550,48.0,-1764.0,2968.0,0.913,-0.056,-0.01,0.405
8069566,610.0,-1608.0,2816.0,0.911,-0.043,-0.024,0.409
8069582,924.0,-1958.0,3236.0,0.909,-0.03,-0.039,0.414
8069599,1258.0,-1712.0,3636.0,0.906,-0.015,-0.054,0.419
8069615,2022.0,-1324.0,3656.0,0.903,0.002,-0.069,0.424
8069631,2526.0,-270.0,4056.0,0.899,0.02,-0.084,0.43
8069657,2774.0,-678.0,3912.0,0.894,0.037,-0.101,0.436
8069673,3142.0,-454.0,4390.0,0.888,0.056,-0.118,0.442
8069690,3856.0,-2.0,4374.0,0.88,0.076,-0.136,0.448
8069707,4390.0,722.0,4914.0,0.871,0.098,-0.154,0.455
8069723,5274.0,2046.0,4940.0,0.861,0.12,-0.174,0.462
8069740,6164.0,968.0,4908.0,0.85,0.142,-0.196,0.468
8069756,7122.0,436.0,5282.0,0.838,0.166,-0.216,0.473
8069772,8234.0,3204.0,5498.0,0.824,0.191,-0.235,0.478
8069799,9222.0,4434.0,5524.0,0.81,0.215,-0.255,0.483
8069815,9394.0,2244.0,5606.0,0.795,0.239,-0.274,0.486
8069831,10510.0,2864.0,5276.0,0.779,0.264,-0.292,0.488
8069847,10526.0,4304.0,5900.0,0.763,0.289,-0.307,0.491
8069863,10694.0,5034.0,5906.0,0.745,0.312,-0.322,0.493
8069879,11214.0,3280.0,5824.0,0.728,0.335,-0.336,0.495
8069895,11346.0,3332.0,5488.0,0.71,0.358,-0.348,0.496
8069921,11908.0,4614.0,6498.0,0.692,0.382,-0.358,0.497
8069938,11928.0,5160.0,5120.0,0.673,0.404,-0.367,0.499
8069955,11826.0,4686.0,5418.0,0.654,0.425,-0.375,0.5
8069972,11494.0,3850.0,5584.0,0.636,0.445,-0.382,0.502
8069989,11098.0,5096.0,5768.0,0.617,0.464,-0.388,0.503
8070006,11372.0,4670.0,5524.0,0.6,0.481,-0.394,0.504
8070024,11372.0,3284.0,5166.0,0.583,0.498,-0.398,0.505
8070040,11320.0,4014.0,4672.0,0.567,0.514,-0.4,0.506
8070057,11192.0,3918.0,4842.0,0.551,0.528,-0.4,0.507
8070073,10516.0,3904.0,5264.0,0.537,0.542,-0.398,0.509
8070090,9996.0,4736.0,5222.0,0.523,0.555,-0.396,0.511
8070117,10060.0,4118.0,4892.0,0.512,0.566,-0.394,0.513
8070133,9794.0,2800.0,4650.0,0.501,0.576,-0.39,0.515
8070149,9432.0,3172.0,4310.0,0.49,0.586,-0.384,0.518
8070165,9156.0,3894.0,4424.0,0.481,0.596,-0.376,0.523
8070181,8854.0,3804.0,4364.0,0.472,0.604,-0.367,0.528
8070197,8736.0,3590.0,4148.0,0.464,0.611,-0.356,0.534
8070224,8446.0,3902.0,4110.0,0.456,0.618,-0.344,0.54
8070240,8030.0,4114.0,4092.0,0.449,0.624,-0.332,0.547
8070257,8290.0,3728.0,3894.0,0.443,0.63,-0.318,0.554
8070273,8434.0,3836.0,3348.0,0.437,0.635,-0.302,0.561
8070290,7998.0,3804.0,3432.0,0.432,0.639,-0.285,0.569
8070307,7822.0,5034.0,3490.0,0.427,0.644,-0.266,0.577
8070323,7654.0,4736.0,3090.0,0.424,0.647,-0.247,0.584
8070339,7936.0,4140.0,2932.0,0.422,0.65,-0.226,0.59
