timestamp,ax,ay,az,q0,q1,q2,q3
4331590,11229.0,3469.0,4283.0,0.73,0.399,-0.259,0.49
4331606,10873.0,4175.0,4463.0,0.75,0.385,-0.242,0.48
4331622,10521.0,3289.0,4131.0,0.768,0.371,-0.227,0.47
4331648,9593.0,4103.0,4691.0,0.785,0.358,-0.212,0.458
4331664,9547.0,3189.0,4283.0,0.801,0.344,-0.199,0.447
4331681,8985.0,3009.0,4175.0,0.817,0.331,-0.185,0.435
4331697,7757.0,2717.0,4341.0,0.83,0.318,-0.172,0.424
4331713,7399.0,4147.0,4553.0,0.843,0.306,-0.16,0.413
4331729,6899.0,2997.0,4369.0,0.854,0.292,-0.151,0.403
4331745,6315.0,1889.0,4217.0,0.864,0.28,-0.142,0.394
4331771,6071.0,2391.0,3971.0,0.873,0.269,-0.133,0.385
4331788,4985.0,1861.0,4227.0,0.881,0.258,-0.125,0.377
4331806,4453.0,889.0,4071.0,0.888,0.248,-0.117,0.369
4331822,4465.0,1075.0,3733.0,0.894,0.241,-0.11,0.362
4331838,4441.0,1919.0,2935.0,0.899,0.233,-0.103,0.355
4331854,4013.0,1685.0,2387.0,0.904,0.225,-0.095,0.35
4331870,3799.0,867.0,1929.0,0.909,0.214,-0.087,0.346
4331896,3755.0,503.0,1415.0,0.914,0.204,-0.076,0.343
4331912,3053.0,-371.0,1291.0,0.918,0.192,-0.064,0.341
4331928,1445.0,-999.0,1619.0,0.921,0.182,-0.05,0.339
4331944,1239.0,105.0,1719.0,0.924,0.173,-0.038,0.338
4331960,407.0,175.0,1699.0,0.927,0.164,-0.027,0.336
4331976,-57.0,-485.0,1519.0,0.929,0.155,-0.018,0.334
4332002,-283.0,-479.0,1235.0,0.931,0.148,-0.012,0.333
4332018,-581.0,-1371.0,1289.0,0.932,0.141,-0.007,0.333
4332034,-633.0,-923.0,1191.0,0.933,0.137,-0.003,0.332
4332050,-787.0,-765.0,1023.0,0.934,0.133,-0.001,0.331
4332066,-851.0,-929.0,1379.0,0.935,0.131,-0.001,0.33
4332083,-769.0,-1607.0,1679.0,0.935,0.13,-0.003,0.329
4332099,-691.0,-1305.0,2031.0,0.935,0.132,-0.006,0.328
4332126,-317.0,-483.0,2127.0,0.935,0.136,-0.013,0.328
4332142,399.0,43.0,2123.0,0.934,0.141,-0.021,0.328
4332158,827.0,-759.0,2451.0,0.933,0.146,-0.031,0.329
4332174,1035.0,-787.0,2975.0,0.931,0.153,-0.042,0.33
4332190,1361.0,-719.0,2835.0,0.928,0.162,-0.053,0.331
4332206,2097.0,247.0,3339.0,0.925,0.173,-0.065,0.333
4332232,2641.0,799.0,3371.0,0.92,0.185,-0.079,0.336
4332249,3057.0,1245.0,3751.0,0.915,0.196,-0.093,0.339
4332265,3619.0,1163.0,4249.0,0.909,0.209,-0.108,0.344
4332282,4739.0,13.0,4377.0,0.902,0.222,-0.123,0.349
4332298,5577.0,101.0,4179.0,0.894,0.239,-0.136,0.355
4332315,6597.0,927.0,3531.0,0.883,0.257,-0.147,0.363
4332332,6775.0,1193.0,4179.0,0.873,0.276,-0.153,0.373
4332348,5761.0,2571.0,4671.0,0.861,0.297,-0.158,0.383
4332365,6341.0,2525.0,4787.0,0.847,0.317,-0.165,0.394
4332392,7331.0,3729.0,4363.0,0.832,0.337,-0.172,0.405
4332408,8169.0,5783.0,4243.0,0.817,0.354,-0.179,0.418
4332424,8593.0,5589.0,5197.0,0.802,0.368,-0.188,0.431
4332440,9033.0,3051.0,5817.0,0.786,0.382,-0.196,0.445
4332456,9343.0,4087.0,5639.0,0.767,0.399,-0.203,0.46
4332472,10249.0,5239.0,5275.0,0.747,0.416,-0.21,0.474
4332498,10141.0,5271.0,4995.0,0.726,0.433,-0.216,0.489
4332515,10421.0,5831.0,4957.0,0.704,0.449,-0.223,0.503
4332532,10495.0,5119.0,4469.0,0.681,0.465,-0.229,0.517
4332548,10817.0,4309.0,3661.0,0.657,0.48,-0.234,0.531
4332565,10515.0,5373.0,3893.0,0.633,0.495,-0.238,0.545
4332581,10481.0,5583.0,3511.0,0.609,0.508,-0.243,0.558
4332597,10555.0,5353.0,3619.0,0.586,0.521,-0.248,0.57
4332614,10823.0,4637.0,3061.0,0.562,0.532,-0.252,0.581
4332640,10459.0,4251.0,1903.0,0.537,0.542,-0.255,0.593
4332656,10649.0,5751.0,2091.0,0.514,0.551,-0.258,0.604
4332672,10035.0,4837.0,2893.0,0.493,0.558,-0.262,0.614
4332688,10093.0,5157.0,2923.0,0.472,0.565,-0.267,0.622
4332704,10133.0,4419.0,2643.0,0.451,0.571,-0.273,0.629
4332720,10007.0,4713.0,2285.0,0.432,0.577,-0.28,0.635
4332736,10353.0,4179.0,1989.0,0.414,0.581,-0.287,0.64
4332762,10285.0,4731.0,1675.0,0.396,0.584,-0.294,0.645
4332779,9723.0,4193.0,2281.0,0.381,0.585,-0.3,0.65
4332796,9533.0,4469.0,2293.0,0.366,0.587,-0.308,0.653
4332813,9149.0,4667.0,2489.0,0.353,0.588,-0.316,0.656
4332830,9409.0,4647.0,2357.0,0.343,0.588,-0.324,0.657
4332847,9463.0,5021.0,2345.0,0.334,0.587,-0.333,0.658
4332864,9001.0,4153.0,2737.0,0.329,0.586,-0.342,0.657
4332881,9119.0,4035.0,2653.0,0.324,0.586,-0.349,0.656
4332898,9411.0,5189.0,2373.0,0.322,0.585,-0.355,0.654
4332915,9085.0,4645.0,2807.0,0.322,0.584,-0.361,0.652
4332931,8865.0,4515.0,3043.0,0.325,0.582,-0.366,0.649
4332958,8791.0,4711.0,2971.0,0.329,0.581,-0.37,0.646
4332974,8993.0,5229.0,2999.0,0.337,0.579,-0.372,0.643
4332990,9069.0,4673.0,3205.0,0.346,0.577,-0.374,0.639
4333006,9119.0,4599.0,3331.0,0.358,0.574,-0.374,0.634
4333022,9453.0,5105.0,2999.0,0.371,0.572,-0.372,0.63
4333038,9789.0,5123.0,3255.0,0.387,0.568,-0.369,0.626
4333064,10031.0,4197.0,3565.0,0.405,0.564,-0.364,0.621
4333081,10261.0,4369.0,3279.0,0.424,0.56,-0.358,0.616
4333097,10961.0,5109.0,2709.0,0.443,0.555,-0.349,0.611
4333114,11311.0,4097.0,2751.0,0.464,0.549,-0.339,0.607
4333131,11231.0,3365.0,3087.0,0.485,0.543,-0.325,0.604
4333148,11683.0,4315.0,3225.0,0.504,0.538,-0.309,0.6
4333164,11805.0,5589.0,3523.0,0.525,0.533,-0.292,0.596
4333181,11723.0,5205.0,4367.0,0.547,0.527,-0.277,0.589
4333197,11921.0,5035.0,4169.0,0.568,0.522,-0.262,0.58
4333214,12737.0,5451.0,3347.0,0.59,0.517,-0.249,0.568
4333241,13085.0,5409.0,3013.0,0.612,0.512,-0.236,0.555
4333257,12897.0,5177.0,2739.0,0.633,0.504,-0.222,0.543
4333273,12165.0,4891.0,3325.0,0.655,0.496,-0.208,0.531
4333289,11449.0,5341.0,3563.0,0.676,0.488,-0.194,0.518
4333305,11365.0,5445.0,3793.0,0.696,0.478,-0.182,0.503
4333321,10401.0,6123.0,3913.0,0.716,0.468,-0.172,0.489
4333347,9923.0,6089.0,4893.0,0.735,0.457,-0.165,0.473
4333364,9137.0,6453.0,4575.0,0.753,0.445,-0.163,0.456
4333381,10719.0,5475.0,3157.0,0.772,0.431,-0.163,0.438
4333398,10965.0,4421.0,2321.0,0.789,0.416,-0.161,0.423
4333415,10019.0,2421.0,2159.0,0.805,0.4,-0.156,0.409
4333431,8857.0,3121.0,2097.0,0.82,0.385,-0.148,0.397
4333448,8189.0,2375.0,2391.0,0.834,0.369,-0.139,0.386
4333464,6663.0,1253.0,2207.0,0.848,0.352,-0.127,0.376
4333481,5733.0,1707.0,2109.0,0.86,0.336,-0.115,0.366
4333498,5293.0,1857.0,2045.0,0.871,0.32,-0.102,0.358
4333515,4081.0,1837.0,1915.0,0.881,0.304,-0.089,0.351
4333541,3417.0,1561.0,2547.0,0.89,0.287,-0.078,0.346
4333557,3171.0,381.0,2239.0,0.898,0.272,-0.068,0.34
4333573,2905.0,49.0,1883.0,0.905,0.257,-0.058,0.334
4333589,2215.0,205.0,2315.0,0.911,0.245,-0.049,0.329
4333605,1635.0,1423.0,1893.0,0.916,0.233,-0.041,0.324
4333621,1681.0,-67.0,1673.0,0.921,0.221,-0.035,0.319
4333647,291.0,-1223.0,1779.0,0.925,0.211,-0.028,0.314
4333664,113.0,259.0,1613.0,0.928,0.204,-0.022,0.31
4333681,-61.0,149.0,911.0,0.931,0.196,-0.018,0.306
4333698,-49.0,-159.0,1053.0,0.934,0.19,-0.016,0.303
4333715,-945.0,149.0,825.0,0.935,0.185,-0.014,0.302
4333732,-1151.0,-1917.0,1497.0,0.936,0.182,-0.014,0.301
4333749,-927.0,-1323.0,1255.0,0.936,0.183,-0.015,0.299
4333766,-717.0,-735.0,1371.0,0.937,0.185,-0.018,0.297
4333782,-599.0,-861.0,1737.0,0.936,0.189,-0.022,0.295
4333798,-353.0,-471.0,2117.0,0.936,0.194,-0.026,0.294
4333825,-193.0,-809.0,2573.0,0.935,0.199,-0.032,0.293
4333841,259.0,-1181.0,3045.0,0.933,0.206,-0.04,0.292
4333857,703.0,-823.0,3135.0,0.931,0.216,-0.048,0.292
4333873,1333.0,-11.0,3131.0,0.927,0.228,-0.055,0.292
4333889,2097.0,1419.0,3201.0,0.923,0.24,-0.064,0.294
4333905,2689.0,-259.0,3295.0,0.919,0.251,-0.073,0.296
4333931,2861.0,111.0,3215.0,0.913,0.265,-0.08,0.299
4333948,3273.0,2229.0,3245.0,0.907,0.28,-0.088,0.303
4333964,3429.0,2513.0,3699.0,0.899,0.294,-0.098,0.308
4333981,3947.0,1977.0,3551.0,0.891,0.308,-0.11,0.314
4333998,4789.0,831.0,3547.0,0.882,0.325,-0.122,0.32
4334014,5713.0,1845.0,2793.0,0.87,0.343,-0.134,0.327
4334031,6263.0,3821.0,2479.0,0.857,0.363,-0.145,0.336
4334047,6545.0,4121.0,2565.0,0.843,0.38,-0.157,0.346
4334073,7401.0,2717.0,2777.0,0.828,0.398,-0.169,0.357
4334089,7457.0,2663.0,1597.0,0.811,0.417,-0.179,0.369
4334105,8449.0,5885.0,1673.0,0.792,0.436,-0.186,0.384
4334121,8117.0,5525.0,1321.0,0.772,0.454,-0.194,0.401
4334137,8453.0,4777.0,1959.0,0.751,0.471,-0.202,0.417
4334153,9937.0,6347.0,1585.0,0.728,0.489,-0.209,0.433
4334179,9719.0,6765.0,2391.0,0.705,0.505,-0.218,0.447
4334195,10391.0,5049.0,1747.0,0.682,0.521,-0.228,0.461
4334211,11653.0,5515.0,1107.0,0.656,0.537,-0.234,0.475
4334227,11943.0,5977.0,1519.0,0.631,0.552,-0.239,0.49
4334243,11533.0,5091.0,1701.0,0.605,0.567,-0.242,0.504
4334259,11265.0,5381.0,1603.0,0.578,0.581,-0.243,0.518
4334285,12113.0,5403.0,661.0,0.551,0.595,-0.244,0.532
4334301,11665.0,6621.0,1091.0,0.524,0.607,-0.244,0.546
4334317,10987.0,5167.0,1765.0,0.496,0.617,-0.245,0.559
4334334,11527.0,5195.0,845.0,0.469,0.627,-0.246,0.571
4334350,11995.0,5519.0,-13.0,0.442,0.636,-0.246,0.583
4334366,11961.0,5999.0,729.0,0.416,0.642,-0.245,0.596
4334382,10309.0,6169.0,1249.0,0.392,0.646,-0.247,0.606
4334408,10701.0,5179.0,1043.0,0.369,0.651,-0.249,0.615
4334424,10963.0,5251.0,567.0,0.348,0.654,-0.251,0.623
4334440,11297.0,5541.0,437.0,0.329,0.656,-0.254,0.63
4334456,10659.0,5145.0,835.0,0.312,0.656,-0.257,0.637
4334472,10225.0,4625.0,1045.0,0.296,0.656,-0.261,0.643
4334498,10149.0,4869.0,1033.0,0.283,0.656,-0.265,0.647
4334515,9951.0,5437.0,699.0,0.272,0.655,-0.27,0.651
4334531,9493.0,5443.0,683.0,0.263,0.653,-0.275,0.655
4334547,8901.0,5359.0,1181.0,0.256,0.651,-0.282,0.656
4334564,9287.0,4639.0,639.0,0.253,0.649,-0.289,0.658
4334580,9169.0,5155.0,773.0,0.251,0.646,-0.294,0.658
4334597,9185.0,5723.0,769.0,0.253,0.642,-0.3,0.658
4334614,8731.0,5251.0,1129.0,0.258,0.639,-0.306,0.657
4334631,8817.0,5383.0,1095.0,0.265,0.635,-0.312,0.656
4334657,8825.0,5427.0,1237.0,0.274,0.631,-0.317,0.653
4334673,8997.0,5195.0,1509.0,0.286,0.626,-0.322,0.65
4334689,9285.0,5369.0,1445.0,0.3,0.622,-0.325,0.646
4334705,9275.0,6153.0,1463.0,0.316,0.617,-0.329,0.641
4334721,9443.0,5715.0,2009.0,0.334,0.612,-0.332,0.636
4334737,9681.0,5777.0,2029.0,0.353,0.606,-0.335,0.629
4334763,10185.0,5729.0,1871.0,0.375,0.6,-0.336,0.622
4334780,11107.0,5649.0,1739.0,0.398,0.592,-0.337,0.614
4334796,11391.0,5381.0,1883.0,0.422,0.583,-0.336,0.607
4334813,11557.0,5655.0,2237.0,0.448,0.573,-0.334,0.599
4334830,11361.0,5479.0,2947.0,0.475,0.563,-0.331,0.59
4334847,12135.0,5033.0,2743.0,0.501,0.552,-0.328,0.58
4334864,12693.0,4447.0,2851.0,0.529,0.54,-0.323,0.57
4334881,13023.0,4975.0,2603.0,0.556,0.528,-0.316,0.559
4334897,12695.0,4827.0,3297.0,0.584,0.514,-0.307,0.548
4334914,12649.0,4211.0,3359.0,0.611,0.5,-0.298,0.537
4334931,12855.0,4173.0,3245.0,0.638,0.485,-0.287,0.525
4334958,13545.0,5453.0,2625.0,0.664,0.47,-0.275,0.513
4334974,13655.0,5581.0,2771.0,0.69,0.451,-0.262,0.502
4334990,12533.0,3929.0,3461.0,0.716,0.431,-0.249,0.49
4335006,12009.0,3247.0,3761.0,0.739,0.413,-0.235,0.477
4335022,11243.0,4329.0,4035.0,0.761,0.396,-0.22,0.464
4335038,9689.0,4147.0,4147.0,0.782,0.378,-0.206,0.451
4335064,9297.0,3329.0,3817.0,0.801,0.359,-0.194,0.437
4335080,8055.0,1795.0,3677.0,0.82,0.341,-0.18,0.424
4335097,7083.0,2619.0,3811.0,0.835,0.326,-0.168,0.411
4335114,6443.0,3063.0,3785.0,0.849,0.31,-0.156,0.398
4335130,6677.0,1815.0,3409.0,0.862,0.294,-0.146,0.388
4335147,5965.0,1793.0,3489.0,0.873,0.278,-0.133,0.378
4335164,5425.0,2673.0,4007.0,0.883,0.262,-0.121,0.37
4335180,5073.0,1315.0,3451.0,0.892,0.247,-0.11,0.362
4335206,5185.0,1129.0,3169.0,0.9,0.233,-0.097,0.355
4335222,4745.0,2463.0,3101.0,0.907,0.218,-0.084,0.35
4335238,3183.0,2041.0,3309.0,0.914,0.202,-0.073,0.345
4335254,2837.0,371.0,3657.0,0.92,0.186,-0.063,0.34
4335270,1831.0,713.0,3405.0,0.924,0.173,-0.053,0.336
4335286,1579.0,985.0,3699.0,0.928,0.161,-0.044,0.333
4335312,1835.0,2441.0,2927.0,0.931,0.149,-0.037,0.33
4335329,2299.0,547.0,1479.0,0.935,0.134,-0.03,0.328
4335346,423.0,-2247.0,2449.0,0.937,0.121,-0.02,0.327
4335362,231.0,-839.0,3627.0,0.939,0.112,-0.011,0.324
4335379,355.0,389.0,2755.0,0.941,0.104,-0.004,0.321
4335396,-421.0,419.0,2519.0,0.943,0.097,0.002,0.319
4335413,279.0,-1099.0,1745.0,0.944,0.089,0.008,0.318
4335430,495.0,-1549.0,1781.0,0.945,0.083,0.016,0.316
4335447,-1037.0,-2193.0,2011.0,0.946,0.079,0.024,0.314
4335464,-1473.0,-85.0,1727.0,0.946,0.078,0.031,0.312
4335480,-1469.0,619.0,2089.0,0.947,0.076,0.034,0.311
4335497,-2237.0,-2047.0,2463.0,0.947,0.075,0.034,0.311
4335523,-1595.0,-1671.0,2137.0,0.947,0.078,0.031,0.311
4335539,-765.0,-743.0,1877.0,0.947,0.083,0.026,0.311
4335555,-167.0,-719.0,2273.0,0.946,0.088,0.02,0.31
4335571,-425.0,-1177.0,2751.0,0.946,0.096,0.013,0.311
4335587,-71.0,-129.0,3013.0,0.944,0.106,0.004,0.312
4335613,645.0,-109.0,3151.0,0.943,0.116,-0.007,0.313
4335630,1575.0,101.0,3343.0,0.941,0.127,-0.018,0.314
4335647,2873.0,1127.0,3141.0,0.939,0.138,-0.03,0.314
4335664,3267.0,1199.0,3635.0,0.937,0.147,-0.042,0.314
4335680,3657.0,479.0,4681.0,0.935,0.157,-0.054,0.312
4335697,3275.0,257.0,5031.0,0.933,0.17,-0.066,0.311
4335714,4975.0,1441.0,4651.0,0.93,0.184,-0.078,0.31
4335730,5077.0,3305.0,4953.0,0.925,0.2,-0.089,0.311
4335746,4331.0,2107.0,5353.0,0.919,0.216,-0.1,0.314
4335773,4467.0,1877.0,5561.0,0.912,0.233,-0.112,0.319
4335789,4585.0,2955.0,6001.0,0.903,0.253,-0.124,0.325
4335805,5619.0,4293.0,5643.0,0.893,0.272,-0.137,0.331
4335821,6063.0,3291.0,5499.0,0.882,0.291,-0.151,0.34
4335837,5723.0,2607.0,5391.0,0.869,0.31,-0.164,0.349
4335853,6897.0,4353.0,4933.0,0.855,0.331,-0.176,0.359
4335879,7427.0,4837.0,4891.0,0.839,0.35,-0.188,0.371
4335896,7565.0,4197.0,5283.0,0.823,0.369,-0.2,0.383
4335913,7969.0,4541.0,4473.0,0.805,0.389,-0.211,0.396
4335930,8615.0,4827.0,4375.0,0.786,0.408,-0.221,0.409
4335947,8791.0,5143.0,4245.0,0.765,0.426,-0.231,0.423
4335963,9285.0,5183.0,4249.0,0.743,0.444,-0.241,0.438
4335979,9339.0,4709.0,3891.0,0.719,0.462,-0.25,0.454
4335995,10697.0,5185.0,2683.0,0.694,0.481,-0.258,0.47
4336011,10443.0,5759.0,2971.0,0.668,0.497,-0.266,0.487
4336038,10091.0,5635.0,3363.0,0.641,0.511,-0.275,0.503
4336054,10443.0,5197.0,2721.0,0.613,0.524,-0.284,0.518
4336070,11673.0,4029.0,2397.0,0.584,0.538,-0.293,0.533
4336086,12085.0,5807.0,1599.0,0.555,0.55,-0.299,0.548
4336102,11705.0,5309.0,1897.0,0.528,0.558,-0.306,0.561
4336118,11489.0,4779.0,2289.0,0.502,0.567,-0.314,0.573
4336144,11565.0,5227.0,2315.0,0.477,0.574,-0.322,0.582
4336160,11745.0,4753.0,1641.0,0.453,0.581,-0.33,0.59
4336177,11585.0,3977.0,1409.0,0.43,0.586,-0.338,0.598
4336193,11249.0,4523.0,1535.0,0.409,0.59,-0.345,0.604
4336209,10743.0,4497.0,1905.0,0.389,0.594,-0.352,0.61
4336225,10443.0,3947.0,1631.0,0.371,0.597,-0.358,0.615
4336241,10301.0,4179.0,1441.0,0.355,0.599,-0.363,0.62
4336267,9735.0,4041.0,1809.0,0.34,0.6,-0.367,0.624
4336283,9499.0,4277.0,1945.0,0.328,0.601,-0.372,0.627
4336299,9401.0,4425.0,1857.0,0.318,0.602,-0.375,0.629
4336315,9297.0,4689.0,1935.0,0.31,0.601,-0.379,0.631
4336331,8977.0,4257.0,2121.0,0.306,0.601,-0.384,0.631
4336347,9055.0,4019.0,2073.0,0.303,0.601,-0.387,0.631
4336373,9109.0,4667.0,2049.0,0.303,0.6,-0.39,0.63
4336389,9141.0,4209.0,2029.0,0.305,0.599,-0.392,0.628
4336405,9017.0,4339.0,2049.0,0.308,0.598,-0.393,0.627
4336421,9039.0,4663.0,2179.0,0.314,0.596,-0.393,0.626
4336437,9111.0,4677.0,2689.0,0.322,0.594,-0.393,0.624
4336453,9217.0,4933.0,2753.0,0.332,0.592,-0.393,0.621
4336479,9577.0,4631.0,2437.0,0.344,0.589,-0.391,0.618
4336496,9557.0,4995.0,2809.0,0.358,0.586,-0.389,0.615
4336513,9779.0,5011.0,2843.0,0.373,0.582,-0.386,0.611
4336530,10363.0,4961.0,2685.0,0.391,0.578,-0.382,0.606
4336546,10903.0,4803.0,2747.0,0.41,0.574,-0.376,0.601
4336563,11447.0,4515.0,2533.0,0.43,0.569,-0.368,0.597
4336580,12199.0,5763.0,2397.0,0.451,0.563,-0.359,0.593
4336596,11849.0,5231.0,2963.0,0.475,0.555,-0.349,0.587
4336613,12047.0,4665.0,3609.0,0.499,0.547,-0.338,0.581
4336630,12919.0,5159.0,3363.0,0.524,0.539,-0.326,0.573
4336656,13537.0,5555.0,2501.0,0.549,0.53,-0.314,0.565
4336672,12885.0,4315.0,3019.0,0.575,0.519,-0.3,0.556
4336688,12677.0,4775.0,3129.0,0.601,0.508,-0.286,0.546
4336704,12149.0,5133.0,3627.0,0.627,0.497,-0.272,0.535
4336720,12607.0,5109.0,3235.0,0.652,0.484,-0.258,0.523
4336746,12279.0,4741.0,3083.0,0.676,0.471,-0.245,0.512
4336763,12129.0,4223.0,2853.0,0.699,0.456,-0.231,0.5
4336779,11759.0,3851.0,2659.0,0.722,0.441,-0.217,0.488
4336795,10747.0,4545.0,3133.0,0.743,0.424,-0.202,0.476
4336811,9447.0,4749.0,3899.0,0.763,0.408,-0.189,0.465
4336828,9041.0,4241.0,3859.0,0.782,0.39,-0.178,0.452
4336845,9555.0,3899.0,2741.0,0.799,0.372,-0.168,0.441
4336862,9347.0,3129.0,2799.0,0.815,0.354,-0.158,0.431
4336879,8629.0,1851.0,3445.0,0.829,0.336,-0.146,0.422
4336896,7323.0,1581.0,3561.0,0.842,0.32,-0.134,0.413
4336913,6593.0,2797.0,4095.0,0.854,0.305,-0.122,0.403
4336940,6293.0,1829.0,3739.0,0.865,0.29,-0.111,0.394
4336956,5207.0,2065.0,3711.0,0.875,0.275,-0.1,0.386
4336972,4405.0,2785.0,3113.0,0.883,0.261,-0.088,0.38
4336988,4201.0,3629.0,3285.0,0.891,0.245,-0.077,0.374
4337004,3997.0,1109.0,3467.0,0.899,0.226,-0.068,0.368
4337020,3423.0,-287.0,3167.0,0.906,0.211,-0.057,0.363
4337046,3045.0,-79.0,2277.0,0.912,0.198,-0.045,0.357
4337063,2831.0,1513.0,2293.0,0.917,0.185,-0.031,0.352
4337079,1847.0,1413.0,2499.0,0.922,0.171,-0.018,0.348
4337096,1189.0,97.0,2553.0,0.926,0.157,-0.007,0.344
4337113,669.0,-603.0,2681.0,0.929,0.146,0.003,0.341
4337130,45.0,-979.0,2685.0,0.931,0.137,0.013,0.337
4337146,233.0,-161.0,2191.0,0.934,0.13,0.021,0.333
4337163,-313.0,-161.0,1779.0,0.935,0.123,0.03,0.33
4337189,-999.0,-541.0,2341.0,0.937,0.117,0.038,0.328
4337205,-1141.0,-71.0,2187.0,0.937,0.113,0.045,0.327
4337221,-1217.0,-93.0,2221.0,0.938,0.109,0.049,0.325
4337237,-1355.0,-705.0,2213.0,0.938,0.106,0.052,0.325
4337253,-1227.0,-1593.0,2661.0,0.939,0.106,0.052,0.324
4337269,-1177.0,-889.0,2743.0,0.939,0.108,0.051,0.323
4337285,-609.0,189.0,2657.0,0.939,0.111,0.048,0.322
4337312,-767.0,-1019.0,3097.0,0.939,0.114,0.043,0.322
4337329,-1175.0,-1063.0,3561.0,0.939,0.12,0.038,0.321
4337346,-563.0,231.0,3433.0,0.938,0.127,0.031,0.322
4337363,81.0,217.0,3555.0,0.936,0.135,0.022,0.323
4337379,119.0,-483.0,3783.0,0.935,0.144,0.013,0.324
4337396,613.0,-31.0,4059.0,0.932,0.155,0.003,0.326
4337412,1281.0,931.0,3977.0,0.93,0.166,-0.007,0.329
4337429,1729.0,975.0,4187.0,0.926,0.178,-0.018,0.332
4337446,2143.0,215.0,4415.0,0.922,0.19,-0.028,0.336
4337462,2513.0,1435.0,4409.0,0.917,0.204,-0.039,0.341
4337489,2825.0,2419.0,5033.0,0.911,0.218,-0.05,0.346
4337505,3511.0,1577.0,4973.0,0.905,0.232,-0.063,0.352
4337521,4149.0,1217.0,4973.0,0.897,0.248,-0.075,0.358
4337537,4611.0,2627.0,5067.0,0.888,0.266,-0.086,0.365
4337553,4997.0,3301.0,4981.0,0.878,0.283,-0.098,0.373
4337569,5729.0,3283.0,4935.0,0.867,0.3,-0.11,0.381
4337595,5851.0,3241.0,5187.0,0.855,0.318,-0.123,0.391
4337612,6473.0,3265.0,5251.0,0.841,0.336,-0.135,0.401
4337629,7107.0,3605.0,4425.0,0.827,0.355,-0.146,0.411
4337646,7711.0,4305.0,4581.0,0.812,0.373,-0.157,0.421
4337663,7867.0,4211.0,4755.0,0.795,0.391,-0.168,0.432
4337679,8791.0,3457.0,4175.0,0.777,0.409,-0.178,0.444
4337696,8813.0,4649.0,3599.0,0.758,0.427,-0.186,0.456
4337713,8863.0,5131.0,3965.0,0.738,0.444,-0.195,0.469
4337729,8897.0,4389.0,3883.0,0.717,0.46,-0.204,0.482
4337746,9239.0,4847.0,3831.0,0.696,0.476,-0.213,0.494
4337772,10041.0,4859.0,3009.0,0.673,0.491,-0.222,0.507
4337788,10039.0,5029.0,2775.0,0.65,0.504,-0.231,0.519
4337804,9987.0,5317.0,3339.0,0.627,0.517,-0.24,0.532
4337820,10175.0,4527.0,2841.0,0.604,0.528,-0.249,0.543
4337838,11049.0,4295.0,1999.0,0.58,0.539,-0.257,0.554
4337854,11445.0,4957.0,1847.0,0.556,0.548,-0.264,0.566
4337870,11567.0,5095.0,2201.0,0.533,0.555,-0.271,0.578
4337896,10603.0,4689.0,2049.0,0.511,0.562,-0.279,0.588
4337913,11069.0,4585.0,1995.0,0.489,0.567,-0.287,0.597
4337929,10975.0,4897.0,2051.0,0.467,0.572,-0.295,0.606
4337946,11025.0,4313.0,1757.0,0.446,0.577,-0.304,0.613
4337963,11059.0,4275.0,1503.0,0.427,0.58,-0.312,0.62
4337979,11151.0,4557.0,1319.0,0.408,0.582,-0.32,0.626
4337996,10723.0,4015.0,1645.0,0.391,0.584,-0.328,0.631
4338012,10559.0,4353.0,1673.0,0.375,0.586,-0.336,0.636
4338029,10077.0,4179.0,2051.0,0.36,0.587,-0.344,0.639
4338046,10053.0,4229.0,1725.0,0.346,0.588,-0.351,0.641
4338072,9873.0,4681.0,1673.0,0.334,0.588,-0.359,0.643
4338088,9409.0,4237.0,2219.0,0.324,0.588,-0.368,0.643
4338104,9283.0,4209.0,1991.0,0.315,0.588,-0.376,0.643
4338120,9257.0,4143.0,1837.0,0.308,0.588,-0.384,0.642
4338136,9295.0,4531.0,2005.0,0.303,0.588,-0.391,0.64
4338162,9049.0,4183.0,2315.0,0.3,0.587,-0.397,0.639
4338179,8993.0,4323.0,2171.0,0.299,0.586,-0.402,0.636
4338195,8905.0,4383.0,2603.0,0.301,0.585,-0.407,0.634
4338212,8959.0,4615.0,2431.0,0.304,0.584,-0.41,0.631
4338229,9079.0,4435.0,2617.0,0.31,0.582,-0.413,0.628
4338246,8911.0,3973.0,2931.0,0.318,0.581,-0.415,0.624
4338262,9191.0,4155.0,2559.0,0.328,0.579,-0.415,0.621
4338279,9183.0,4163.0,2935.0,0.34,0.576,-0.414,0.617
4338296,9669.0,4049.0,2907.0,0.354,0.574,-0.412,0.613
4338312,10155.0,4355.0,2643.0,0.369,0.571,-0.407,0.61
4338329,10397.0,3621.0,2603.0,0.385,0.567,-0.402,0.607
4338356,10873.0,3815.0,2747.0,0.403,0.563,-0.394,0.604
4338372,11367.0,3681.0,3277.0,0.424,0.558,-0.386,0.6
4338388,11801.0,3301.0,2955.0,0.445,0.553,-0.376,0.596
4338404,12043.0,3863.0,2671.0,0.466,0.548,-0.363,0.593
4338420,12541.0,4761.0,3001.0,0.489,0.542,-0.349,0.588
4338436,12473.0,4181.0,3495.0,0.513,0.534,-0.336,0.582
4338462,12833.0,3473.0,2901.0,0.536,0.527,-0.321,0.576
4338479,12665.0,4801.0,3029.0,0.56,0.52,-0.305,0.569
4338496,12815.0,4171.0,3161.0,0.584,0.511,-0.29,0.561
4338512,12755.0,3831.0,3057.0,0.608,0.501,-0.274,0.552
4338529,12149.0,4475.0,3101.0,0.631,0.492,-0.257,0.543
4338546,11707.0,4765.0,3409.0,0.653,0.481,-0.24,0.533
4338562,11471.0,3997.0,3297.0,0.675,0.47,-0.225,0.522
4338579,11287.0,4771.0,3459.0,0.697,0.459,-0.21,0.51
4338605,10467.0,5019.0,3715.0,0.717,0.446,-0.197,0.498
4338621,9595.0,4379.0,4433.0,0.737,0.432,-0.186,0.485
4338637,8823.0,4515.0,4563.0,0.755,0.419,-0.178,0.471
4338653,8651.0,4741.0,3799.0,0.772,0.405,-0.172,0.458
4338669,8563.0,3929.0,3975.0,0.789,0.39,-0.169,0.444
4338685,8037.0,1583.0,2405.0,0.802,0.376,-0.167,0.432
4338701,8319.0,2093.0,2257.0,0.814,0.365,-0.161,0.422
4338727,7475.0,2413.0,2071.0,0.825,0.353,-0.153,0.414
4338744,6323.0,2027.0,2763.0,0.836,0.34,-0.143,0.408
4338761,5769.0,2305.0,2599.0,0.845,0.327,-0.132,0.402
4338778,5267.0,2637.0,2683.0,0.854,0.313,-0.121,0.398
4338795,4233.0,1881.0,2607.0,0.862,0.299,-0.111,0.394
4338811,4199.0,1785.0,2579.0,0.87,0.285,-0.102,0.39
4338828,3725.0,1379.0,2487.0,0.876,0.272,-0.093,0.387
4338845,3159.0,1051.0,2757.0,0.883,0.259,-0.083,0.384
4338861,2827.0,1111.0,2163.0,0.888,0.247,-0.074,0.381
4338878,2117.0,1779.0,2123.0,0.893,0.235,-0.066,0.378
4338904,1739.0,-99.0,2591.0,0.898,0.222,-0.058,0.376
4338920,1071.0,-661.0,2305.0,0.902,0.211,-0.05,0.374
4338936,1165.0,891.0,1663.0,0.905,0.202,-0.042,0.371
4338952,1277.0,761.0,957.0,0.909,0.191,-0.033,0.369
4338968,539.0,-83.0,1253.0,0.912,0.179,-0.024,0.368
4338984,-205.0,-959.0,1775.0,0.915,0.169,-0.014,0.367
4339010,-1151.0,-1125.0,2373.0,0.917,0.161,-0.005,0.366
4339026,-1377.0,-305.0,2565.0,0.918,0.156,0.001,0.365
4339043,-851.0,-441.0,2105.0,0.918,0.153,0.004,0.365
4339060,-839.0,-525.0,2029.0,0.919,0.151,0.006,0.365
4339077,-299.0,-321.0,2073.0,0.919,0.151,0.005,0.365
4339094,-513.0,-1251.0,2603.0,0.918,0.152,0.002,0.366
4339111,-731.0,-1353.0,3001.0,0.917,0.158,-0.002,0.366
4339128,-95.0,645.0,3199.0,0.915,0.165,-0.009,0.367
4339145,709.0,329.0,3205.0,0.913,0.173,-0.018,0.369
4339162,927.0,-817.0,3047.0,0.91,0.183,-0.027,0.371
4339179,1453.0,951.0,3143.0,0.906,0.195,-0.037,0.373
4339205,2299.0,1767.0,3481.0,0.902,0.206,-0.048,0.376
4339222,2805.0,853.0,3823.0,0.898,0.217,-0.061,0.378
4339238,3215.0,-481.0,4205.0,0.892,0.232,-0.073,0.381
4339254,3835.0,1385.0,3555.0,0.885,0.249,-0.084,0.384
4339270,3935.0,3851.0,3525.0,0.877,0.265,-0.097,0.388
4339286,4433.0,2935.0,4699.0,0.869,0.279,-0.112,0.393
4339312,5049.0,1129.0,4573.0,0.859,0.295,-0.128,0.398
4339329,5243.0,1791.0,4449.0,0.847,0.313,-0.143,0.404
4339345,6231.0,4351.0,4321.0,0.834,0.333,-0.159,0.411
4339361,6711.0,3775.0,4267.0,0.82,0.349,-0.175,0.419
4339378,7433.0,1535.0,3907.0,0.805,0.365,-0.192,0.427
4339395,8281.0,2523.0,4115.0,0.788,0.384,-0.204,0.437
4339411,8913.0,5013.0,3969.0,0.769,0.402,-0.216,0.448
4339437,9389.0,4483.0,3761.0,0.75,0.418,-0.227,0.46
4339453,10355.0,2337.0,3597.0,0.73,0.433,-0.238,0.472
4339469,10847.0,4637.0,3579.0,0.708,0.45,-0.246,0.485
4339485,10961.0,5373.0,3783.0,0.686,0.465,-0.254,0.498
4339501,10821.0,4579.0,3729.0,0.664,0.479,-0.263,0.51
4339517,10903.0,4843.0,3627.0,0.641,0.493,-0.272,0.522
4339533,11517.0,5083.0,3287.0,0.618,0.506,-0.281,0.533
4339559,11587.0,4939.0,3291.0,0.595,0.517,-0.29,0.543
4339575,11419.0,4505.0,2391.0,0.572,0.528,-0.298,0.552
4339591,10819.0,4103.0,2747.0,0.55,0.537,-0.306,0.562
4339608,10727.0,4321.0,2789.0,0.529,0.545,-0.313,0.57
4339624,11131.0,4341.0,2253.0,0.509,0.553,-0.32,0.577
4339640,11423.0,3809.0,1719.0,0.489,0.559,-0.326,0.584
4339666,11503.0,4111.0,1685.0,0.47,0.564,-0.331,0.592
4339682,10951.0,4383.0,2179.0,0.452,0.568,-0.336,0.6
4339698,10673.0,4101.0,2827.0,0.434,0.572,-0.342,0.606
4339714,10567.0,4311.0,2475.0,0.418,0.575,-0.349,0.611
4339730,10151.0,4455.0,2529.0,0.402,0.578,-0.357,0.615
4339747,9693.0,4189.0,2501.0,0.387,0.58,-0.365,0.617
4339764,9415.0,3905.0,2501.0,0.375,0.582,-0.373,0.618
4339790,9337.0,3777.0,1647.0,0.364,0.583,-0.382,0.618
4339806,9447.0,4089.0,1827.0,0.355,0.584,-0.39,0.617
4339822,9339.0,3839.0,2365.0,0.347,0.584,-0.398,0.616
4339838,9361.0,3619.0,2061.0,0.341,0.584,-0.405,0.615
4339854,9607.0,4195.0,2321.0,0.336,0.583,-0.412,0.614
4339870,9477.0,4153.0,2517.0,0.333,0.582,-0.418,0.613
4339896,9601.0,4285.0,2751.0,0.332,0.581,-0.423,0.612
4339913,9237.0,4509.0,2745.0,0.333,0.579,-0.427,0.609
4339929,9271.0,4871.0,3323.0,0.337,0.578,-0.431,0.606
4339945,9389.0,4095.0,3029.0,0.343,0.576,-0.434,0.602
4339961,9373.0,4065.0,2493.0,0.35,0.574,-0.435,0.599
4339978,9333.0,5129.0,3013.0,0.361,0.571,-0.435,0.596
4339995,9197.0,4367.0,3261.0,0.373,0.567,-0.435,0.592
4340011,9727.0,3137.0,3279.0,0.387,0.563,-0.433,0.588
4340037,9917.0,4241.0,2965.0,0.401,0.56,-0.428,0.585
4340053,10129.0,5107.0,3395.0,0.418,0.554,-0.423,0.582
4340069,10687.0,4477.0,3093.0,0.437,0.548,-0.418,0.578
4340085,10879.0,3093.0,3773.0,0.457,0.541,-0.411,0.574
4340101,11243.0,3977.0,2603.0,0.477,0.534,-0.401,0.571
4340117,11441.0,4203.0,2383.0,0.498,0.526,-0.39,0.569
4340143,11773.0,3453.0,3531.0,0.519,0.517,-0.377,0.566
4340160,12759.0,4671.0,4113.0,0.54,0.509,-0.364,0.562
4340177,12611.0,5311.0,5533.0,0.564,0.499,-0.353,0.555
4340194,13515.0,4157.0,5231.0,0.588,0.489,-0.344,0.545
4340211,14801.0,3767.0,3695.0,0.612,0.479,-0.334,0.533
4340228,15321.0,3679.0,2707.0,0.636,0.467,-0.323,0.523
4340244,14229.0,3043.0,2771.0,0.66,0.454,-0.308,0.514
4340261,12671.0,2665.0,3441.0,0.683,0.44,-0.291,0.505
4340279,11611.0,2935.0,3357.0,0.705,0.426,-0.274,0.497
4340295,10909.0,3707.0,3681.0,0.727,0.411,-0.256,0.488
4340321,9823.0,3263.0,3793.0,0.747,0.395,-0.239,0.478
4340337,9169.0,3565.0,3253.0,0.765,0.38,-0.222,0.47
4340353,8781.0,2751.0,2619.0,0.782,0.365,-0.206,0.462
4340369,9035.0,2933.0,2121.0,0.798,0.349,-0.188,0.454
4340385,7091.0,3231.0,3585.0,0.812,0.333,-0.17,0.447
4340401,6407.0,2553.0,4177.0,0.825,0.319,-0.155,0.44
4340427,6647.0,3111.0,3125.0,0.836,0.308,-0.141,0.432
4340443,5699.0,3357.0,2883.0,0.846,0.295,-0.127,0.425
4340459,5369.0,2623.0,3365.0,0.856,0.282,-0.114,0.418
4340475,4469.0,2009.0,3625.0,0.865,0.269,-0.101,0.412
4340491,3487.0,1905.0,3293.0,0.872,0.259,-0.089,0.407
4340507,3093.0,2975.0,3527.0,0.878,0.248,-0.078,0.401
4340533,3427.0,2735.0,3141.0,0.885,0.238,-0.069,0.395
4340549,2799.0,1255.0,3425.0,0.89,0.227,-0.06,0.39
4340565,1507.0,493.0,4083.0,0.895,0.217,-0.051,0.385
4340581,845.0,2255.0,4195.0,0.9,0.209,-0.044,0.38
4340598,1415.0,3933.0,4055.0,0.905,0.199,-0.039,0.374
4340614,2011.0,2451.0,2671.0,0.91,0.185,-0.035,0.369
4340630,1657.0,1503.0,3215.0,0.915,0.168,-0.03,0.365
4340657,245.0,231.0,4083.0,0.919,0.152,-0.025,0.363
4340673,389.0,-269.0,3799.0,0.922,0.139,-0.018,0.36
4340689,877.0,-1183.0,3269.0,0.925,0.13,-0.01,0.358
4340705,805.0,-2395.0,2689.0,0.927,0.123,0.003,0.355
4340721,149.0,-363.0,2849.0,0.928,0.119,0.019,0.351
4340737,-181.0,2645.0,3409.0,0.93,0.115,0.033,0.347
4340763,-1247.0,-307.0,3137.0,0.932,0.107,0.043,0.345
4340779,-1417.0,-1159.0,2919.0,0.933,0.103,0.051,0.341
4340795,-1393.0,-983.0,2743.0,0.934,0.102,0.055,0.337
4340812,-1349.0,297.0,2293.0,0.935,0.102,0.056,0.334
4340828,-1533.0,-191.0,2245.0,0.936,0.102,0.054,0.332
4340845,-1311.0,-365.0,2349.0,0.937,0.103,0.049,0.331
4340862,-767.0,-829.0,2499.0,0.937,0.106,0.042,0.33
4340878,-151.0,-207.0,2311.0,0.937,0.111,0.033,0.33
4340904,159.0,-961.0,2401.0,0.937,0.117,0.023,0.329
4340920,729.0,-153.0,2587.0,0.936,0.125,0.013,0.329
4340936,811.0,385.0,2945.0,0.935,0.133,0.002,0.329
4340952,943.0,255.0,3283.0,0.933,0.143,-0.011,0.33
4340968,1497.0,673.0,3409.0,0.931,0.153,-0.025,0.331
4340984,2081.0,691.0,3813.0,0.928,0.163,-0.04,0.333
4341010,2341.0,-1.0,3907.0,0.924,0.175,-0.056,0.336
4341027,3479.0,743.0,3619.0,0.919,0.19,-0.072,0.339
4341044,4653.0,1705.0,3331.0,0.913,0.204,-0.086,0.342
4341061,5405.0,2599.0,3869.0,0.907,0.218,-0.101,0.347
4341078,4683.0,617.0,5015.0,0.9,0.231,-0.116,0.352
4341095,4945.0,645.0,4469.0,0.891,0.249,-0.131,0.357
4341111,5709.0,3023.0,4867.0,0.881,0.268,-0.148,0.362
4341128,6405.0,3397.0,5167.0,0.869,0.286,-0.167,0.368
4341145,7175.0,2951.0,4961.0,0.856,0.303,-0.187,0.374
4341161,7665.0,3021.0,4865.0,0.843,0.321,-0.207,0.38
4341188,7997.0,3413.0,5409.0,0.828,0.338,-0.227,0.386
4341204,8921.0,3459.0,5747.0,0.812,0.354,-0.248,0.392
4341220,9611.0,3623.0,5991.0,0.794,0.371,-0.27,0.398
4341236,10059.0,4021.0,5595.0,0.776,0.385,-0.292,0.405
4341252,11395.0,5093.0,4829.0,0.758,0.397,-0.314,0.412
4341268,10923.0,2951.0,6381.0,0.74,0.406,-0.335,0.419
4341294,11361.0,2091.0,5819.0,0.72,0.418,-0.354,0.426
4341311,12827.0,4187.0,3941.0,0.7,0.429,-0.37,0.436
4341328,12975.0,4281.0,4025.0,0.681,0.436,-0.382,0.447
4341344,11921.0,3137.0,4115.0,0.663,0.443,-0.392,0.459
4341361,11493.0,3755.0,4761.0,0.645,0.449,-0.401,0.471
4341377,11315.0,4125.0,4429.0,0.626,0.455,-0.409,0.484
4341394,11277.0,3629.0,3421.0,0.607,0.459,-0.418,0.496
4341411,11017.0,2969.0,2791.0,0.589,0.462,-0.426,0.508
4341427,10681.0,2907.0,2589.0,0.57,0.465,-0.434,0.52
4341454,10199.0,3335.0,2725.0,0.552,0.467,-0.442,0.53
4341470,9877.0,3709.0,3077.0,0.535,0.468,-0.451,0.539
4341486,9309.0,2877.0,3317.0,0.518,0.469,-0.462,0.546
4341502,9113.0,2243.0,2683.0,0.502,0.471,-0.474,0.549
4341518,10165.0,1799.0,2775.0,0.486,0.473,-0.486,0.551
4341534,10037.0,1231.0,2433.0,0.472,0.475,-0.498,0.551
4341560,10517.0,2025.0,2141.0,0.458,0.477,-0.509,0.551
4341577,10195.0,2331.0,2095.0,0.445,0.479,-0.518,0.551
4341593,10101.0,1325.0,2439.0,0.433,0.48,-0.526,0.553
4341610,10109.0,2831.0,3029.0,0.422,0.48,-0.533,0.554
4341626,9489.0,3393.0,3559.0,0.414,0.48,-0.54,0.554
4341642,9185.0,2131.0,4147.0,0.408,0.479,-0.547,0.553
4341659,9063.0,1925.0,3673.0,0.402,0.478,-0.554,0.551
4341675,9107.0,2013.0,3041.0,0.397,0.477,-0.559,0.55
4341701,9139.0,1525.0,3589.0,0.393,0.475,-0.563,0.551
4341717,9243.0,1337.0,3683.0,0.391,0.474,-0.564,0.552
4341733,9533.0,1451.0,3419.0,0.391,0.474,-0.562,0.554
4341749,9911.0,2463.0,3233.0,0.393,0.474,-0.558,0.557
4341765,9467.0,2011.0,3079.0,0.397,0.473,-0.552,0.56
4341781,9465.0,323.0,3073.0,0.401,0.475,-0.543,0.565
4341807,10217.0,1937.0,3449.0,0.408,0.478,-0.53,0.57
4341823,11973.0,5369.0,3739.0,0.418,0.479,-0.517,0.573
4341839,11065.0,4481.0,3105.0,0.432,0.48,-0.504,0.574
4341855,11839.0,1955.0,4281.0,0.447,0.481,-0.49,0.573
4341871,11637.0,2765.0,3205.0,0.464,0.483,-0.474,0.571
4341897,11803.0,3419.0,2281.0,0.482,0.485,-0.457,0.569
4341914,12177.0,4771.0,2167.0,0.502,0.483,-0.441,0.566
4341930,12795.0,4697.0,2407.0,0.524,0.477,-0.427,0.561
4341946,12543.0,2855.0,2731.0,0.548,0.469,-0.413,0.556
4341962,11285.0,1993.0,3141.0,0.572,0.461,-0.399,0.548
4341978,11817.0,3377.0,3671.0,0.596,0.453,-0.385,0.539
4341994,12665.0,2145.0,3447.0,0.62,0.443,-0.372,0.529
4342020,12787.0,1175.0,3487.0,0.644,0.432,-0.357,0.52
4342036,12233.0,2829.0,3443.0,0.668,0.421,-0.34,0.511
4342052,11455.0,2927.0,4455.0,0.691,0.407,-0.323,0.502
4342068,11315.0,1579.0,4711.0,0.714,0.392,-0.307,0.493
4342084,11233.0,2741.0,4381.0,0.735,0.378,-0.289,0.483
4342100,10249.0,1785.0,4983.0,0.755,0.364,-0.273,0.473
4342126,9773.0,3391.0,5283.0,0.773,0.35,-0.258,0.462
4342143,9337.0,2055.0,5499.0,0.79,0.337,-0.244,0.45
4342160,9255.0,2681.0,4323.0,0.806,0.325,-0.229,0.439
4342177,8439.0,3763.0,4101.0,0.821,0.311,-0.215,0.429
4342194,7213.0,3147.0,4557.0,0.835,0.295,-0.201,0.419
4342210,5743.0,1543.0,5541.0,0.847,0.28,-0.19,0.409
4342227,4869.0,2605.0,6081.0,0.857,0.269,-0.182,0.4
4342244,5697.0,1577.0,5117.0,0.865,0.261,-0.176,0.392
4342260,5305.0,3895.0,3223.0,0.871,0.253,-0.168,0.386
4342277,6251.0,2181.0,3289.0,0.878,0.242,-0.162,0.379
4342294,5973.0,7.0,3129.0,0.886,0.23,-0.152,0.373
4342320,5229.0,1045.0,2613.0,0.893,0.221,-0.138,0.367
4342336,4359.0,2405.0,2779.0,0.9,0.209,-0.123,0.362
4342352,3307.0,961.0,3581.0,0.907,0.197,-0.108,0.357
4342368,2649.0,-269.0,4113.0,0.912,0.188,-0.094,0.352
4342384,2305.0,-617.0,3289.0,0.916,0.182,-0.081,0.347
4342400,2701.0,941.0,2561.0,0.92,0.177,-0.067,0.343
4342426,2715.0,901.0,1955.0,0.923,0.17,-0.053,0.34
4342443,1383.0,-875.0,1983.0,0.926,0.163,-0.038,0.338
4342460,197.0,-1209.0,2381.0,0.928,0.159,-0.02,0.337
4342477,311.0,2657.0,2091.0,0.929,0.155,-0.004,0.337
4342494,419.0,825.0,1377.0,0.929,0.147,0.01,0.34
4342510,-81.0,-1997.0,1483.0,0.929,0.14,0.027,0.341
4342528,-1619.0,-1299.0,1579.0,0.929,0.136,0.044,0.34
4342544,-2289.0,59.0,2743.0,0.93,0.135,0.057,0.338
4342560,-2137.0,-1517.0,2281.0,0.93,0.137,0.065,0.334
4342577,-1827.0,-411.0,2215.0,0.931,0.142,0.07,0.33
4342604,-1223.0,-255.0,1905.0,0.931,0.147,0.071,0.326
4342620,-827.0,-413.0,1935.0,0.932,0.153,0.069,0.322
4342636,-1149.0,5.0,2303.0,0.931,0.161,0.065,0.32
4342652,-577.0,991.0,2753.0,0.931,0.168,0.057,0.32
4342668,-175.0,-361.0,3015.0,0.93,0.175,0.045,0.32
4342684,863.0,-69.0,3095.0,0.929,0.184,0.03,0.32
4342710,1591.0,225.0,2809.0,0.927,0.193,0.015,0.321
4342727,2373.0,527.0,3089.0,0.925,0.203,0.0,0.322
4342743,2595.0,535.0,3699.0,0.921,0.213,-0.015,0.325
4342760,3109.0,751.0,3755.0,0.917,0.225,-0.03,0.328
4342777,3205.0,1677.0,4091.0,0.912,0.238,-0.046,0.332
4342793,3945.0,1775.0,3981.0,0.905,0.25,-0.062,0.338
4342810,4469.0,1879.0,4329.0,0.898,0.263,-0.079,0.345
4342827,4453.0,2361.0,4569.0,0.889,0.277,-0.097,0.352
4342843,4907.0,2229.0,4573.0,0.879,0.29,-0.116,0.36
4342860,6087.0,2095.0,4523.0,0.867,0.305,-0.137,0.369
4342886,6905.0,3003.0,3935.0,0.854,0.321,-0.156,0.378
4342902,7781.0,2197.0,3375.0,0.838,0.338,-0.174,0.39
4342918,8287.0,3589.0,2971.0,0.821,0.357,-0.187,0.405
4342934,8759.0,3667.0,3771.0,0.802,0.375,-0.2,0.419
4342950,9439.0,2491.0,3431.0,0.78,0.396,-0.214,0.434
4342976,11171.0,3893.0,2819.0,0.756,0.42,-0.226,0.449
4342993,11339.0,5503.0,2659.0,0.729,0.443,-0.237,0.464
4343010,11553.0,6619.0,3801.0,0.702,0.464,-0.248,0.481
4343026,12643.0,4237.0,3917.0,0.673,0.484,-0.259,0.495
4343042,12877.0,4459.0,2981.0,0.644,0.504,-0.267,0.51
4343059,12121.0,7759.0,3341.0,0.614,0.522,-0.274,0.524
4343076,11591.0,5921.0,3709.0,0.586,0.538,-0.282,0.536
4343093,11913.0,6483.0,3159.0,0.559,0.552,-0.29,0.546
4343110,12339.0,5941.0,2245.0,0.533,0.564,-0.297,0.556
4343127,13111.0,7007.0,2109.0,0.509,0.574,-0.304,0.565
4343144,12841.0,5879.0,1819.0,0.488,0.58,-0.309,0.574
4343170,12265.0,4935.0,1985.0,0.469,0.584,-0.312,0.584
4343186,11495.0,5013.0,2231.0,0.451,0.588,-0.314,0.594
4343202,10789.0,6101.0,3187.0,0.433,0.591,-0.315,0.604
4343218,9753.0,6811.0,3563.0,0.416,0.593,-0.319,0.611
4343234,9511.0,6007.0,3261.0,0.4,0.595,-0.326,0.616
4343250,9415.0,5815.0,2959.0,0.386,0.597,-0.334,0.619
4343276,9451.0,5527.0,2343.0,0.373,0.598,-0.343,0.621
4343293,9975.0,5063.0,1803.0,0.363,0.597,-0.351,0.623
4343310,9105.0,4713.0,2329.0,0.354,0.596,-0.358,0.626
4343326,8541.0,5037.0,2671.0,0.346,0.594,-0.364,0.629
4343343,8217.0,5651.0,2635.0,0.34,0.591,-0.371,0.63
4343360,8135.0,5397.0,2675.0,0.336,0.588,-0.378,0.631
4343377,8283.0,5339.0,2431.0,0.333,0.585,-0.386,0.63
4343394,8363.0,4831.0,2487.0,0.333,0.582,-0.393,0.63
4343410,8661.0,4649.0,2367.0,0.335,0.579,-0.397,0.629
4343436,8615.0,4601.0,2647.0,0.338,0.575,-0.401,0.628
4343452,8495.0,4605.0,2865.0,0.343,0.573,-0.403,0.626
4343468,8903.0,5157.0,2705.0,0.35,0.57,-0.404,0.624
4343484,9033.0,5101.0,2573.0,0.359,0.568,-0.404,0.621
4343500,9471.0,4547.0,2519.0,0.371,0.565,-0.404,0.617
4343516,9887.0,2851.0,2555.0,0.384,0.563,-0.401,0.612
4343542,9737.0,4115.0,2475.0,0.399,0.562,-0.396,0.607
4343559,9735.0,4689.0,2379.0,0.416,0.56,-0.39,0.602
4343576,9655.0,4765.0,2751.0,0.433,0.557,-0.383,0.596
4343593,9563.0,4425.0,2683.0,0.451,0.555,-0.375,0.59
4343610,10143.0,4869.0,2577.0,0.47,0.552,-0.368,0.582
4343626,10619.0,4607.0,2601.0,0.49,0.548,-0.359,0.575
4343643,11187.0,4713.0,2631.0,0.51,0.544,-0.35,0.567
4343659,10937.0,4813.0,3029.0,0.53,0.539,-0.339,0.559
4343676,10789.0,5387.0,3199.0,0.551,0.535,-0.328,0.55
4343692,11149.0,5225.0,3689.0,0.573,0.529,-0.317,0.54
4343719,11855.0,5977.0,3285.0,0.594,0.523,-0.306,0.529
4343735,11873.0,5361.0,3805.0,0.616,0.516,-0.295,0.518
4343751,12705.0,5617.0,2651.0,0.638,0.507,-0.281,0.506
4343767,11949.0,5545.0,4061.0,0.662,0.497,-0.266,0.494
4343783,11595.0,5271.0,3817.0,0.686,0.486,-0.251,0.48
4343799,11779.0,5585.0,2691.0,0.709,0.476,-0.234,0.464
4343825,10789.0,5207.0,2991.0,0.733,0.463,-0.216,0.45
4343842,9039.0,4413.0,3191.0,0.754,0.45,-0.198,0.435
4343860,8081.0,5081.0,3375.0,0.775,0.437,-0.18,0.42
4343876,7353.0,4749.0,3399.0,0.793,0.423,-0.165,0.406
4343893,6385.0,4249.0,3689.0,0.81,0.409,-0.152,0.392
4343909,6359.0,3647.0,3193.0,0.825,0.396,-0.141,0.378
4343925,6353.0,3833.0,2877.0,0.839,0.383,-0.13,0.365
4343942,5281.0,2871.0,2695.0,0.851,0.37,-0.119,0.353
4343959,4363.0,3083.0,3319.0,0.862,0.358,-0.108,0.342
4343976,3481.0,3879.0,3513.0,0.872,0.346,-0.1,0.333
4343993,3687.0,3353.0,3197.0,0.88,0.334,-0.094,0.324
4344019,3969.0,2839.0,2599.0,0.888,0.322,-0.09,0.315
4344035,4597.0,3355.0,2107.0,0.895,0.31,-0.085,0.308
4344051,4211.0,2451.0,2281.0,0.902,0.297,-0.079,0.302
4344067,3445.0,1709.0,2529.0,0.908,0.284,-0.072,0.298
4344083,2063.0,1739.0,3361.0,0.914,0.273,-0.065,0.294
4344109,2853.0,2101.0,3017.0,0.919,0.263,-0.059,0.289
4344126,2795.0,1697.0,2903.0,0.924,0.252,-0.054,0.284
4344143,2769.0,1503.0,2219.0,0.928,0.241,-0.046,0.28
4344160,2897.0,945.0,2571.0,0.933,0.23,-0.037,0.274
4344176,2863.0,-951.0,2163.0,0.937,0.221,-0.025,0.268
4344193,4111.0,749.0,1341.0,0.942,0.213,-0.01,0.261
4344209,1285.0,647.0,2053.0,0.946,0.203,0.008,0.254
4344226,-1083.0,1221.0,2857.0,0.949,0.192,0.024,0.25
4344243,-2757.0,-1663.0,3437.0,0.951,0.185,0.035,0.246
4344259,-2931.0,-1257.0,2503.0,0.952,0.183,0.042,0.243
4344276,-2537.0,1315.0,1771.0,0.952,0.182,0.045,0.241
4344302,-1993.0,-99.0,2147.0,0.953,0.179,0.045,0.24
4344318,-2471.0,-1713.0,2751.0,0.953,0.18,0.042,0.241
4344334,-2141.0,-293.0,2885.0,0.952,0.184,0.036,0.242
4344350,-1673.0,731.0,3259.0,0.95,0.192,0.025,0.244
4344366,287.0,1293.0,2493.0,0.948,0.199,0.012,0.249
4344382,1211.0,481.0,2287.0,0.945,0.206,-0.002,0.254
4344408,1835.0,1037.0,2645.0,0.941,0.214,-0.016,0.26
4344425,2191.0,1905.0,3129.0,0.937,0.223,-0.031,0.267
4344442,3045.0,1203.0,3385.0,0.932,0.231,-0.048,0.275
4344459,3937.0,753.0,3375.0,0.926,0.241,-0.065,0.283
4344475,4289.0,1289.0,3563.0,0.919,0.253,-0.082,0.292
4344492,4789.0,2109.0,3925.0,0.91,0.266,-0.101,0.301
4344509,5637.0,1817.0,4327.0,0.9,0.28,-0.12,0.31
4344526,7091.0,1977.0,4051.0,0.889,0.296,-0.142,0.32
4344543,7831.0,2689.0,3903.0,0.876,0.313,-0.162,0.331
4344559,7975.0,3031.0,4211.0,0.861,0.33,-0.182,0.342
4344586,8421.0,2491.0,4835.0,0.845,0.347,-0.203,0.353
4344602,9737.0,3103.0,4041.0,0.827,0.365,-0.223,0.364
4344618,10467.0,3427.0,3959.0,0.809,0.383,-0.242,0.376
4344634,10369.0,3717.0,4463.0,0.789,0.399,-0.261,0.388
4344650,10007.0,2799.0,3671.0,0.767,0.416,-0.279,0.401
4344666,10357.0,3397.0,3623.0,0.744,0.433,-0.295,0.414
4344692,11419.0,4111.0,3307.0,0.72,0.449,-0.311,0.428
4344709,11839.0,4147.0,3409.0,0.695,0.465,-0.325,0.441
4344726,12023.0,5005.0,3317.0,0.67,0.478,-0.339,0.456
4344743,11955.0,3983.0,2889.0,0.644,0.49,-0.352,0.47
4344759,11661.0,4267.0,2521.0,0.618,0.501,-0.363,0.485
4344776,12047.0,4505.0,2593.0,0.593,0.509,-0.373,0.5
4344792,12639.0,4317.0,2465.0,0.567,0.517,-0.383,0.515
4344808,12263.0,3595.0,2487.0,0.54,0.522,-0.393,0.53
4344825,11911.0,3989.0,2695.0,0.513,0.528,-0.402,0.544
4344852,11835.0,3959.0,2521.0,0.485,0.533,-0.411,0.558
4344868,12003.0,5349.0,2399.0,0.46,0.537,-0.422,0.568
4344884,11619.0,4149.0,2269.0,0.437,0.538,-0.434,0.576
4344900,11475.0,3539.0,1835.0,0.416,0.539,-0.445,0.582
4344916,11387.0,3641.0,1689.0,0.396,0.54,-0.455,0.587
4344932,11357.0,3883.0,1493.0,0.378,0.54,-0.464,0.592
4344958,10945.0,3153.0,1337.0,0.361,0.54,-0.471,0.597
4344974,10859.0,3565.0,1443.0,0.346,0.539,-0.478,0.601
4344990,10325.0,3845.0,1725.0,0.334,0.538,-0.484,0.604
4345006,9777.0,3717.0,1915.0,0.324,0.536,-0.49,0.606
4345022,9323.0,3357.0,1913.0,0.316,0.535,-0.496,0.607
4345038,8761.0,3417.0,2137.0,0.31,0.533,-0.502,0.606
4345064,8407.0,3369.0,1885.0,0.306,0.532,-0.509,0.604
4345080,8353.0,3133.0,1659.0,0.304,0.531,-0.514,0.601
4345096,8447.0,2829.0,1417.0,0.304,0.53,-0.519,0.598
4345112,7971.0,2735.0,1425.0,0.306,0.529,-0.521,0.596
4345128,8177.0,3289.0,2149.0,0.31,0.528,-0.523,0.593
4345144,8095.0,2757.0,2403.0,0.316,0.528,-0.524,0.589
4345170,8689.0,3015.0,1871.0,0.324,0.528,-0.524,0.584
4345186,8827.0,2639.0,1703.0,0.333,0.529,-0.523,0.58
4345202,8833.0,2337.0,1675.0,0.345,0.529,-0.52,0.575
4345218,8789.0,2929.0,1621.0,0.358,0.529,-0.516,0.571
4345234,8889.0,3341.0,2401.0,0.373,0.529,-0.51,0.567
4345250,9355.0,2785.0,2207.0,0.389,0.528,-0.504,0.562
4345276,9811.0,3243.0,1825.0,0.409,0.526,-0.497,0.556
4345293,10445.0,2545.0,2465.0,0.429,0.524,-0.489,0.55
4345309,11197.0,2549.0,2657.0,0.449,0.522,-0.48,0.544
4345326,11843.0,3963.0,2711.0,0.47,0.52,-0.469,0.537
4345342,12141.0,4481.0,3447.0,0.493,0.517,-0.457,0.529
4345359,13129.0,2841.0,2429.0,0.516,0.513,-0.445,0.522
4345375,13701.0,2207.0,2681.0,0.539,0.509,-0.429,0.516
4345392,13501.0,3335.0,2979.0,0.562,0.505,-0.41,0.511
4345409,13463.0,4415.0,4103.0,0.584,0.5,-0.39,0.506
4345435,13839.0,3783.0,3647.0,0.606,0.496,-0.37,0.5
4345451,13917.0,3493.0,3115.0,0.628,0.491,-0.348,0.494
4345467,13449.0,4211.0,3339.0,0.65,0.485,-0.325,0.487
4345483,12451.0,4891.0,4185.0,0.671,0.478,-0.302,0.479
4345499,12551.0,4107.0,4889.0,0.692,0.471,-0.282,0.469
4345515,12677.0,3757.0,3483.0,0.711,0.464,-0.261,0.459
4345541,12651.0,5363.0,3827.0,0.731,0.455,-0.241,0.449
4345558,12269.0,4545.0,3431.0,0.749,0.444,-0.221,0.439
4345575,11797.0,4045.0,3809.0,0.767,0.434,-0.201,0.428
4345592,11169.0,4325.0,3357.0,0.784,0.422,-0.181,0.418
4345608,10009.0,4747.0,3629.0,0.801,0.409,-0.16,0.407
4345625,8679.0,3539.0,4191.0,0.816,0.395,-0.142,0.396
4345642,7847.0,3449.0,4371.0,0.831,0.383,-0.125,0.384
4345659,6925.0,4683.0,3489.0,0.844,0.37,-0.109,0.372
4345676,6657.0,3657.0,3195.0,0.856,0.357,-0.097,0.361
4345692,5091.0,2319.0,3097.0,0.868,0.343,-0.084,0.349
4345718,3647.0,3005.0,3539.0,0.878,0.33,-0.074,0.338
4345734,3259.0,2427.0,4011.0,0.888,0.318,-0.067,0.326
4345750,2821.0,2763.0,3581.0,0.896,0.307,-0.063,0.314
4345766,3275.0,2269.0,3025.0,0.904,0.296,-0.06,0.304
4345782,3235.0,2469.0,1791.0,0.91,0.284,-0.056,0.296
4345798,2939.0,2335.0,1509.0,0.916,0.271,-0.05,0.291
4345824,2601.0,1487.0,2259.0,0.922,0.257,-0.044,0.286
4345841,1397.0,735.0,2641.0,0.927,0.244,-0.036,0.282
4345858,813.0,1085.0,2607.0,0.931,0.232,-0.029,0.279
4345875,1115.0,581.0,2387.0,0.935,0.223,-0.022,0.275
4345892,1231.0,1129.0,1977.0,0.938,0.213,-0.014,0.272
4345908,-235.0,741.0,2477.0,0.941,0.204,-0.006,0.269
4345925,-151.0,267.0,2583.0,0.944,0.196,0.001,0.267
4345941,-369.0,-189.0,2777.0,0.946,0.189,0.007,0.264
4345958,-781.0,-267.0,2175.0,0.947,0.184,0.013,0.262
4345975,-819.0,177.0,2047.0,0.949,0.178,0.019,0.259
4346002,-725.0,-1509.0,1515.0,0.95,0.173,0.025,0.258
4346018,-1171.0,-1209.0,1783.0,0.951,0.171,0.033,0.257
4346034,-1563.0,725.0,1565.0,0.95,0.17,0.04,0.257
4346050,-1999.0,495.0,1505.0,0.95,0.168,0.044,0.26
4346066,-2311.0,377.0,2335.0,0.949,0.164,0.046,0.264
4346082,-2331.0,-1313.0,2623.0,0.948,0.164,0.042,0.268
4346108,-1631.0,-75.0,2097.0,0.947,0.168,0.035,0.272
4346125,-607.0,1225.0,2025.0,0.945,0.173,0.025,0.276
4346142,279.0,1535.0,2281.0,0.943,0.177,0.013,0.281
4346158,249.0,1245.0,2693.0,0.941,0.18,-0.001,0.286
4346175,739.0,239.0,3477.0,0.938,0.186,-0.017,0.291
4346192,1657.0,45.0,2987.0,0.934,0.196,-0.033,0.296
4346209,2405.0,1171.0,2327.0,0.93,0.207,-0.05,0.301
4346225,3883.0,2715.0,2687.0,0.924,0.217,-0.066,0.307
4346241,4371.0,1989.0,3949.0,0.919,0.225,-0.085,0.314
4346268,3947.0,-233.0,4573.0,0.912,0.235,-0.106,0.32
4346284,4365.0,427.0,4259.0,0.903,0.25,-0.128,0.327
4346300,5803.0,1785.0,3441.0,0.892,0.265,-0.152,0.334
4346316,6665.0,1187.0,2795.0,0.879,0.281,-0.175,0.343
4346332,7453.0,2539.0,3351.0,0.865,0.296,-0.198,0.353
4346348,7497.0,2803.0,4239.0,0.85,0.309,-0.222,0.365
4346374,8429.0,2823.0,3989.0,0.832,0.322,-0.247,0.377
4346391,8805.0,2285.0,3885.0,0.814,0.335,-0.272,0.39
4346408,10757.0,2403.0,3329.0,0.794,0.347,-0.296,0.403
4346424,11185.0,3133.0,3735.0,0.773,0.359,-0.318,0.416
4346441,11541.0,2993.0,3483.0,0.751,0.37,-0.34,0.429
4346458,12493.0,2641.0,2869.0,0.728,0.381,-0.359,0.443
4346475,12577.0,2871.0,3491.0,0.705,0.391,-0.376,0.457
4346492,12341.0,3081.0,3549.0,0.681,0.401,-0.391,0.472
4346508,12873.0,1821.0,3023.0,0.657,0.411,-0.405,0.486
4346524,13561.0,2919.0,2627.0,0.632,0.421,-0.416,0.5
4346551,13473.0,3999.0,3497.0,0.607,0.43,-0.426,0.515
4346567,13301.0,2771.0,3773.0,0.581,0.437,-0.437,0.529
4346583,13563.0,2489.0,3147.0,0.556,0.445,-0.447,0.541
4346599,13879.0,2101.0,2795.0,0.53,0.453,-0.456,0.553
4346615,14049.0,1845.0,2621.0,0.504,0.462,-0.462,0.565
4346631,13533.0,2779.0,3277.0,0.479,0.469,-0.467,0.576
4346657,12747.0,2619.0,3533.0,0.454,0.477,-0.473,0.586
4346674,12427.0,1405.0,3045.0,0.43,0.484,-0.478,0.594
4346691,12697.0,1675.0,2619.0,0.407,0.491,-0.481,0.602
4346708,12539.0,2561.0,3277.0,0.385,0.497,-0.483,0.609
4346726,11109.0,2135.0,4125.0,0.364,0.503,-0.487,0.615
4346742,10729.0,2827.0,4263.0,0.344,0.508,-0.491,0.618
4346758,9739.0,1393.0,4271.0,0.325,0.513,-0.497,0.62
4346775,9429.0,1227.0,3383.0,0.305,0.52,-0.501,0.62
4346794,10591.0,1881.0,2525.0,0.289,0.527,-0.506,0.62
4346810,9637.0,807.0,1797.0,0.276,0.531,-0.508,0.619
4346826,9455.0,297.0,1445.0,0.266,0.535,-0.508,0.62
4346852,8567.0,633.0,1069.0,0.261,0.539,-0.503,0.623
4346868,8321.0,-289.0,1355.0,0.259,0.541,-0.498,0.626
4346884,8031.0,499.0,1189.0,0.259,0.544,-0.489,0.631
4346900,8223.0,2387.0,991.0,0.261,0.546,-0.478,0.637
4346916,8061.0,1347.0,1355.0,0.266,0.547,-0.467,0.642
4346932,8229.0,883.0,1209.0,0.273,0.547,-0.456,0.647
4346958,8199.0,567.0,1127.0,0.282,0.547,-0.444,0.651
4346974,8377.0,1331.0,1491.0,0.293,0.548,-0.43,0.655
4346990,9245.0,2397.0,1355.0,0.304,0.549,-0.417,0.658
4347006,9145.0,1841.0,663.0,0.317,0.549,-0.405,0.659
4347022,9243.0,581.0,1021.0,0.331,0.549,-0.392,0.66
4347038,9633.0,1125.0,1465.0,0.347,0.55,-0.378,0.659
