timeMs,ax,ay,az,q0,q1,q2,q3
4913413,2700.0,6814.0,-628.0,0.626,0.644,0.124,0.421
4913430,2952.0,6810.0,-204.0,0.619,0.643,0.107,0.439
4913446,3004.0,7444.0,130.0,0.612,0.641,0.088,0.455
4913462,4016.0,6468.0,-324.0,0.604,0.64,0.068,0.47
4913478,4076.0,5674.0,178.0,0.595,0.639,0.049,0.485
4913494,4972.0,6584.0,-78.0,0.585,0.639,0.03,0.5
4913520,5254.0,6674.0,552.0,0.574,0.638,0.011,0.513
4913536,5770.0,7370.0,316.0,0.565,0.635,-0.01,0.526
4913552,6494.0,5796.0,148.0,0.555,0.633,-0.031,0.538
4913568,6226.0,5176.0,374.0,0.545,0.631,-0.051,0.55
4913584,7324.0,5226.0,144.0,0.533,0.629,-0.07,0.561
4913600,7148.0,6822.0,830.0,0.523,0.626,-0.09,0.571
4913626,7122.0,5682.0,1056.0,0.514,0.622,-0.113,0.58
4913642,7816.0,4522.0,732.0,0.504,0.618,-0.135,0.588
4913659,8388.0,4032.0,374.0,0.493,0.615,-0.156,0.595
4913675,8650.0,3992.0,666.0,0.483,0.611,-0.175,0.602
4913691,8638.0,4130.0,1166.0,0.472,0.608,-0.195,0.608
4913707,9128.0,4188.0,956.0,0.462,0.603,-0.215,0.614
4913733,9076.0,3186.0,1092.0,0.452,0.598,-0.234,0.619
4913749,9418.0,2922.0,1146.0,0.441,0.595,-0.252,0.623
4913765,9590.0,3064.0,1246.0,0.431,0.591,-0.27,0.627
4913781,9822.0,3100.0,1480.0,0.421,0.587,-0.287,0.629
4913797,9840.0,2560.0,1478.0,0.412,0.583,-0.303,0.631
4913813,9764.0,2340.0,1528.0,0.404,0.581,-0.319,0.631
4913839,9640.0,2352.0,1746.0,0.396,0.578,-0.333,0.631
4913855,9198.0,2128.0,1748.0,0.389,0.576,-0.347,0.629
4913871,9234.0,2196.0,1406.0,0.384,0.574,-0.361,0.627
4913887,9272.0,1714.0,1304.0,0.38,0.572,-0.373,0.624
4913905,8998.0,1804.0,1496.0,0.377,0.57,-0.383,0.621
4913921,8576.0,1594.0,1728.0,0.376,0.568,-0.393,0.618
4913937,8482.0,1346.0,1836.0,0.376,0.567,-0.4,0.614
4913963,8368.0,1332.0,1784.0,0.376,0.566,-0.407,0.611
4913979,8428.0,1910.0,1702.0,0.377,0.565,-0.411,0.608
4913996,8240.0,1820.0,1722.0,0.379,0.564,-0.415,0.605
4914012,7860.0,1624.0,1844.0,0.383,0.563,-0.417,0.602
4914029,7616.0,2194.0,1926.0,0.386,0.562,-0.419,0.599
4914046,7938.0,3232.0,2404.0,0.392,0.561,-0.42,0.596
4914062,7888.0,3168.0,2596.0,0.398,0.559,-0.422,0.592
4914079,8138.0,3260.0,2806.0,0.405,0.557,-0.424,0.588
4914096,8418.0,3160.0,2680.0,0.413,0.555,-0.426,0.583
4914122,8868.0,2698.0,2650.0,0.422,0.553,-0.426,0.579
4914138,9622.0,3370.0,2274.0,0.433,0.551,-0.423,0.575
4914154,10014.0,4156.0,2708.0,0.447,0.547,-0.418,0.572
4914170,9674.0,2830.0,3302.0,0.462,0.542,-0.412,0.568
4914186,10004.0,3726.0,3356.0,0.477,0.539,-0.404,0.565
4914202,10690.0,4950.0,3522.0,0.494,0.534,-0.395,0.561
4914228,11082.0,3880.0,3196.0,0.512,0.527,-0.386,0.557
4914244,11606.0,3472.0,3386.0,0.531,0.521,-0.376,0.552
4914261,12262.0,4016.0,3628.0,0.552,0.514,-0.363,0.547
4914277,12422.0,4768.0,3678.0,0.574,0.506,-0.35,0.541
4914294,12900.0,4298.0,3844.0,0.596,0.496,-0.337,0.534
4914310,12916.0,3134.0,3868.0,0.619,0.486,-0.322,0.526
4914326,12946.0,4102.0,3928.0,0.641,0.477,-0.306,0.518
4914352,12908.0,4300.0,3840.0,0.664,0.466,-0.29,0.509
4914368,12722.0,4330.0,3876.0,0.686,0.454,-0.273,0.5
4914384,12314.0,3986.0,4100.0,0.707,0.441,-0.256,0.49
4914400,12018.0,4016.0,4156.0,0.727,0.428,-0.24,0.48
4914416,11348.0,4784.0,4158.0,0.746,0.414,-0.225,0.47
4914432,11282.0,3428.0,3860.0,0.765,0.4,-0.211,0.459
4914458,10546.0,3702.0,4156.0,0.782,0.385,-0.196,0.449
4914474,10122.0,4232.0,4540.0,0.799,0.37,-0.183,0.438
4914490,9672.0,3060.0,4080.0,0.814,0.354,-0.171,0.427
4914506,9442.0,3586.0,3684.0,0.828,0.338,-0.158,0.417
4914522,8140.0,3490.0,4256.0,0.842,0.322,-0.146,0.408
4914538,7328.0,3234.0,4838.0,0.854,0.305,-0.136,0.399
4914564,6536.0,3164.0,5484.0,0.864,0.291,-0.127,0.391
4914580,6148.0,2930.0,4136.0,0.872,0.28,-0.122,0.383
4914596,6632.0,2390.0,2722.0,0.88,0.268,-0.116,0.375
4914612,6634.0,2884.0,3432.0,0.887,0.255,-0.109,0.368
4914628,5222.0,1756.0,3732.0,0.895,0.24,-0.102,0.362
4914654,4300.0,340.0,3684.0,0.902,0.227,-0.094,0.356
4914670,3326.0,578.0,4292.0,0.908,0.216,-0.085,0.35
4914686,3134.0,2900.0,3358.0,0.913,0.204,-0.078,0.345
4914702,2872.0,3178.0,2858.0,0.918,0.189,-0.072,0.341
4914718,2528.0,1058.0,3356.0,0.923,0.171,-0.067,0.339
4914734,1934.0,-674.0,2888.0,0.927,0.155,-0.061,0.336
4914751,1644.0,-420.0,2306.0,0.93,0.141,-0.055,0.334
4914777,1894.0,252.0,2312.0,0.933,0.127,-0.048,0.333
4914794,1214.0,-534.0,2482.0,0.935,0.113,-0.041,0.334
4914811,854.0,-1212.0,1868.0,0.937,0.101,-0.032,0.334
4914828,438.0,-1586.0,1504.0,0.938,0.091,-0.022,0.334
4914845,640.0,360.0,1574.0,0.939,0.082,-0.012,0.334
4914861,96.0,-184.0,1754.0,0.94,0.07,-0.004,0.333
4914877,-860.0,-1896.0,2024.0,0.941,0.06,0.004,0.333
4914893,-1248.0,-2598.0,2232.0,0.942,0.054,0.009,0.332
4914919,-882.0,-810.0,1706.0,0.942,0.051,0.013,0.331
4914935,-1228.0,-674.0,1472.0,0.943,0.049,0.015,0.329
4914951,-622.0,-1708.0,1844.0,0.943,0.048,0.015,0.328
4914968,-476.0,-2360.0,2014.0,0.944,0.049,0.015,0.327
4914985,-684.0,-1478.0,2488.0,0.944,0.053,0.013,0.325
4915001,-262.0,-744.0,2532.0,0.944,0.058,0.009,0.324
4915017,-26.0,-296.0,2814.0,0.944,0.065,0.004,0.324
4915043,776.0,-776.0,3124.0,0.943,0.071,-0.004,0.325
4915059,1478.0,-784.0,3008.0,0.942,0.08,-0.011,0.326
4915075,1664.0,220.0,3426.0,0.94,0.089,-0.019,0.328
4915091,1706.0,268.0,4162.0,0.938,0.099,-0.028,0.331
4915107,1982.0,-502.0,4778.0,0.935,0.11,-0.037,0.334
4915123,2068.0,200.0,5210.0,0.931,0.127,-0.048,0.338
4915149,2446.0,2354.0,5260.0,0.926,0.145,-0.062,0.344
4915165,3056.0,2982.0,5156.0,0.919,0.162,-0.077,0.35
4915181,4450.0,2400.0,5694.0,0.912,0.179,-0.096,0.357
4915197,5084.0,1262.0,6200.0,0.903,0.197,-0.114,0.364
4915213,5676.0,1554.0,5634.0,0.893,0.218,-0.131,0.372
4915229,7140.0,4390.0,5704.0,0.882,0.238,-0.147,0.38
4915255,8074.0,2642.0,6378.0,0.87,0.257,-0.162,0.388
4915271,7756.0,674.0,6996.0,0.857,0.278,-0.176,0.396
4915287,8900.0,3446.0,4378.0,0.842,0.303,-0.186,0.405
4915303,9232.0,3876.0,4972.0,0.827,0.326,-0.194,0.416
4915319,8756.0,2984.0,4914.0,0.81,0.35,-0.201,0.426
4915335,8930.0,3462.0,4892.0,0.792,0.374,-0.206,0.437
4915361,9026.0,3116.0,4636.0,0.774,0.397,-0.21,0.448
4915378,8906.0,4442.0,3780.0,0.754,0.419,-0.213,0.459
4915395,9382.0,5504.0,4210.0,0.734,0.439,-0.217,0.471
4915412,9212.0,5278.0,3618.0,0.713,0.457,-0.223,0.484
4915429,9846.0,4740.0,3814.0,0.691,0.473,-0.23,0.495
4915445,10076.0,4660.0,3516.0,0.669,0.489,-0.238,0.507
4915461,9914.0,5014.0,3020.0,0.646,0.503,-0.247,0.519
4915477,10172.0,4054.0,2588.0,0.621,0.517,-0.256,0.53
4915503,10208.0,4236.0,2600.0,0.595,0.53,-0.265,0.543
4915519,10112.0,4288.0,3002.0,0.568,0.543,-0.274,0.555
4915535,9936.0,3652.0,3244.0,0.54,0.555,-0.283,0.566
4915551,10696.0,4210.0,1768.0,0.513,0.566,-0.292,0.575
4915567,11478.0,4470.0,1236.0,0.486,0.575,-0.3,0.586
4915583,11230.0,3440.0,1110.0,0.46,0.582,-0.307,0.597
4915609,11614.0,4892.0,1144.0,0.434,0.588,-0.311,0.607
4915625,11564.0,6756.0,1270.0,0.411,0.591,-0.317,0.617
4915641,11178.0,5404.0,1872.0,0.392,0.592,-0.326,0.625
4915657,10982.0,5432.0,1996.0,0.376,0.592,-0.334,0.63
4915673,10790.0,5656.0,2018.0,0.363,0.592,-0.343,0.633
4915689,10148.0,4794.0,2408.0,0.353,0.591,-0.351,0.635
4915715,9588.0,4940.0,2784.0,0.345,0.59,-0.359,0.635
4915731,9146.0,5132.0,2782.0,0.339,0.59,-0.366,0.635
4915747,8826.0,5466.0,3060.0,0.336,0.589,-0.374,0.633
4915763,8866.0,4958.0,2942.0,0.336,0.588,-0.381,0.63
4915779,8700.0,5318.0,2924.0,0.338,0.587,-0.386,0.626
4915796,9010.0,5460.0,3024.0,0.344,0.585,-0.39,0.622
4915813,8944.0,4520.0,3132.0,0.352,0.583,-0.392,0.618
4915839,9216.0,5376.0,2950.0,0.363,0.58,-0.392,0.615
4915855,9440.0,5686.0,4156.0,0.376,0.576,-0.392,0.611
4915871,9980.0,4706.0,3772.0,0.392,0.572,-0.39,0.606
4915887,11272.0,5048.0,3126.0,0.41,0.568,-0.387,0.6
4915903,12008.0,5654.0,2990.0,0.43,0.562,-0.381,0.595
4915919,12332.0,5166.0,3610.0,0.453,0.554,-0.375,0.59
4915945,12668.0,4536.0,3550.0,0.478,0.546,-0.366,0.583
4915961,12818.0,4872.0,4002.0,0.503,0.539,-0.356,0.574
4915977,14090.0,5342.0,3374.0,0.53,0.531,-0.344,0.565
4915994,14036.0,4848.0,3268.0,0.558,0.522,-0.331,0.554
4916011,13904.0,5234.0,3244.0,0.586,0.511,-0.316,0.543
4916027,14048.0,4784.0,3044.0,0.614,0.5,-0.301,0.531
4916044,13906.0,4532.0,2898.0,0.642,0.488,-0.284,0.518
4916070,13048.0,4912.0,3308.0,0.669,0.475,-0.267,0.505
4916086,12488.0,4042.0,3180.0,0.695,0.462,-0.249,0.492
4916102,12354.0,4860.0,2728.0,0.719,0.448,-0.232,0.478
4916118,11710.0,3750.0,2826.0,0.742,0.433,-0.215,0.464
4916134,10748.0,3630.0,2900.0,0.763,0.418,-0.198,0.451
4916150,10142.0,4008.0,3394.0,0.783,0.403,-0.182,0.438
4916176,9806.0,3174.0,2990.0,0.801,0.388,-0.167,0.425
4916192,9348.0,3506.0,2242.0,0.817,0.373,-0.152,0.413
4916208,8352.0,3534.0,3048.0,0.832,0.357,-0.137,0.402
4916224,6890.0,2388.0,3932.0,0.846,0.341,-0.125,0.391
4916240,6274.0,2286.0,3544.0,0.858,0.327,-0.116,0.38
4916256,6086.0,2604.0,3452.0,0.868,0.315,-0.107,0.369
4916282,6352.0,2774.0,2638.0,0.877,0.302,-0.101,0.36
4916299,5644.0,2376.0,2646.0,0.886,0.287,-0.092,0.352
4916315,5198.0,1794.0,2388.0,0.894,0.272,-0.084,0.346
4916331,5090.0,1428.0,2224.0,0.901,0.257,-0.074,0.34
4916347,3804.0,2022.0,3108.0,0.908,0.243,-0.064,0.336
4916363,3344.0,1508.0,3256.0,0.914,0.228,-0.056,0.332
4916379,3072.0,1558.0,3124.0,0.919,0.215,-0.049,0.327
4916405,2486.0,1826.0,3334.0,0.923,0.202,-0.043,0.324
4916421,1536.0,2416.0,3440.0,0.927,0.188,-0.04,0.321
4916437,1296.0,842.0,2646.0,0.931,0.174,-0.038,0.319
4916453,1918.0,-12.0,2024.0,0.934,0.16,-0.035,0.318
4916469,2094.0,-786.0,1432.0,0.937,0.148,-0.028,0.315
4916485,656.0,-1224.0,1948.0,0.94,0.138,-0.019,0.313
4916512,-606.0,-1450.0,2664.0,0.942,0.13,-0.01,0.309
4916529,-520.0,364.0,2324.0,0.944,0.124,-0.002,0.305
4916545,-1110.0,-10.0,2072.0,0.946,0.118,0.004,0.301
4916562,-1292.0,-556.0,1890.0,0.948,0.112,0.007,0.299
4916579,-1782.0,-1818.0,2084.0,0.949,0.107,0.009,0.297
4916595,-1936.0,-1834.0,2110.0,0.95,0.106,0.009,0.295
4916612,-1384.0,-808.0,2014.0,0.95,0.107,0.008,0.294
4916629,-1416.0,-1002.0,2086.0,0.95,0.108,0.004,0.293
4916645,-624.0,-694.0,2098.0,0.95,0.11,-0.001,0.293
4916662,-162.0,-862.0,2552.0,0.95,0.113,-0.008,0.292
4916689,482.0,-614.0,2622.0,0.949,0.117,-0.015,0.292
4916705,1252.0,-460.0,2724.0,0.948,0.123,-0.024,0.291
4916721,1322.0,-722.0,3006.0,0.947,0.13,-0.033,0.291
4916737,1778.0,-596.0,3186.0,0.946,0.139,-0.043,0.291
4916753,2122.0,550.0,3272.0,0.943,0.15,-0.054,0.291
4916779,2494.0,574.0,3566.0,0.94,0.162,-0.066,0.292
4916795,2986.0,688.0,3552.0,0.937,0.175,-0.079,0.293
4916812,3146.0,976.0,3836.0,0.932,0.189,-0.092,0.295
4916829,4070.0,1994.0,4008.0,0.926,0.204,-0.107,0.299
4916845,4544.0,2404.0,4014.0,0.919,0.218,-0.122,0.303
4916862,5536.0,2120.0,4216.0,0.912,0.233,-0.138,0.309
4916878,5706.0,1402.0,4686.0,0.902,0.249,-0.155,0.316
4916895,6402.0,2978.0,4362.0,0.891,0.268,-0.171,0.324
4916912,7864.0,4754.0,4022.0,0.879,0.286,-0.186,0.333
4916938,8226.0,2842.0,5532.0,0.867,0.302,-0.202,0.342
4916954,8902.0,518.0,5066.0,0.852,0.323,-0.216,0.351
4916970,9260.0,2828.0,3808.0,0.835,0.348,-0.227,0.361
4916986,9514.0,6478.0,3864.0,0.817,0.371,-0.236,0.373
4917002,9942.0,5296.0,4256.0,0.799,0.39,-0.246,0.386
4917018,9456.0,2396.0,5120.0,0.78,0.409,-0.255,0.399
4917034,10186.0,3530.0,3586.0,0.758,0.431,-0.263,0.412
4917060,10770.0,5744.0,2880.0,0.736,0.452,-0.269,0.427
4917076,10686.0,5750.0,3510.0,0.713,0.469,-0.275,0.443
4917092,10672.0,3590.0,4148.0,0.689,0.484,-0.281,0.46
4917108,11018.0,3316.0,3124.0,0.663,0.5,-0.286,0.478
4917124,11486.0,4790.0,2336.0,0.637,0.515,-0.289,0.495
4917140,11442.0,4854.0,2186.0,0.611,0.528,-0.292,0.512
4917166,11218.0,5228.0,2396.0,0.585,0.539,-0.296,0.53
4917182,10546.0,4898.0,2786.0,0.559,0.548,-0.301,0.545
4917198,10406.0,5114.0,2800.0,0.533,0.556,-0.308,0.558
4917214,10902.0,4274.0,2112.0,0.509,0.563,-0.317,0.569
4917230,10832.0,2826.0,1990.0,0.484,0.569,-0.326,0.579
4917256,11142.0,2962.0,1350.0,0.459,0.576,-0.332,0.59
4917272,11300.0,3068.0,746.0,0.433,0.581,-0.337,0.601
4917288,11542.0,3874.0,1094.0,0.409,0.585,-0.34,0.613
4917304,11036.0,3470.0,1348.0,0.387,0.587,-0.344,0.623
4917320,11760.0,3510.0,838.0,0.366,0.588,-0.347,0.633
4917336,10976.0,3354.0,1176.0,0.348,0.588,-0.349,0.642
4917362,10780.0,4252.0,1344.0,0.331,0.587,-0.353,0.649
4917378,10484.0,4040.0,1180.0,0.317,0.585,-0.357,0.656
4917395,10132.0,3720.0,1288.0,0.304,0.582,-0.361,0.662
4917412,9712.0,4048.0,1476.0,0.294,0.579,-0.364,0.667
4917429,9082.0,4150.0,1520.0,0.287,0.577,-0.368,0.67
4917445,8686.0,4254.0,1698.0,0.283,0.575,-0.371,0.672
4917462,8620.0,4240.0,1804.0,0.281,0.573,-0.375,0.672
4917478,8506.0,4270.0,1788.0,0.282,0.572,-0.378,0.671
4917494,8306.0,4066.0,1688.0,0.284,0.571,-0.381,0.669
4917520,8516.0,4524.0,1758.0,0.289,0.571,-0.383,0.666
4917536,8574.0,4594.0,1910.0,0.297,0.569,-0.385,0.663
4917552,8410.0,4268.0,2164.0,0.307,0.569,-0.385,0.659
4917568,8380.0,4998.0,2514.0,0.319,0.568,-0.385,0.654
4917584,8872.0,4878.0,2602.0,0.333,0.567,-0.384,0.649
4917610,9140.0,4744.0,2758.0,0.35,0.566,-0.381,0.642
4917627,9922.0,5014.0,2208.0,0.368,0.564,-0.376,0.636
4917644,10582.0,5628.0,1980.0,0.388,0.561,-0.371,0.63
4917661,11264.0,5844.0,2972.0,0.409,0.556,-0.364,0.625
4917678,11392.0,4968.0,3040.0,0.432,0.551,-0.356,0.618
4917695,12216.0,5456.0,3022.0,0.457,0.546,-0.347,0.611
4917711,13008.0,5234.0,3056.0,0.483,0.54,-0.337,0.602
4917728,13396.0,4880.0,3026.0,0.51,0.533,-0.326,0.591
4917745,13878.0,5136.0,3142.0,0.537,0.527,-0.313,0.58
4917761,14276.0,4748.0,2828.0,0.565,0.519,-0.298,0.568
4917778,13834.0,5186.0,3594.0,0.593,0.511,-0.283,0.554
4917805,13680.0,4960.0,3590.0,0.62,0.503,-0.267,0.54
4917821,13928.0,4274.0,3314.0,0.647,0.494,-0.251,0.524
4917837,14208.0,5308.0,2688.0,0.673,0.483,-0.234,0.508
4917853,13906.0,4214.0,2944.0,0.699,0.471,-0.216,0.493
4917869,12528.0,3946.0,3556.0,0.723,0.459,-0.197,0.476
4917885,12290.0,4584.0,3488.0,0.746,0.447,-0.179,0.46
4917902,11596.0,4298.0,3302.0,0.768,0.434,-0.161,0.443
4917928,10672.0,3814.0,3434.0,0.788,0.421,-0.144,0.426
4917944,9748.0,4020.0,3286.0,0.806,0.408,-0.129,0.408
4917960,8974.0,3542.0,3032.0,0.824,0.394,-0.113,0.391
4917976,8348.0,3684.0,2874.0,0.84,0.38,-0.099,0.375
4917992,6940.0,2858.0,3066.0,0.854,0.366,-0.087,0.36
4918008,5760.0,2910.0,3348.0,0.866,0.353,-0.075,0.345
4918034,5684.0,2766.0,3288.0,0.878,0.34,-0.066,0.331
4918051,5012.0,2448.0,2864.0,0.888,0.328,-0.058,0.318
4918067,5188.0,1926.0,2118.0,0.896,0.316,-0.05,0.306
4918083,4724.0,2316.0,2228.0,0.904,0.304,-0.042,0.297
4918099,4116.0,1620.0,2662.0,0.912,0.291,-0.034,0.288
4918115,3306.0,1410.0,2752.0,0.918,0.28,-0.026,0.279
4918132,3626.0,1772.0,2632.0,0.924,0.268,-0.019,0.271
4918158,2740.0,610.0,2660.0,0.929,0.257,-0.013,0.264
4918174,1784.0,616.0,2774.0,0.934,0.247,-0.006,0.258
4918190,1716.0,160.0,2112.0,0.938,0.24,0.001,0.252
4918206,1828.0,950.0,1456.0,0.941,0.232,0.008,0.246
4918222,2060.0,1018.0,1182.0,0.944,0.222,0.016,0.242
4918238,876.0,-458.0,1500.0,0.947,0.212,0.025,0.238
4918264,-350.0,-1842.0,1466.0,0.95,0.204,0.035,0.234
4918280,-590.0,-672.0,1620.0,0.951,0.199,0.044,0.23
4918296,-1486.0,-346.0,1390.0,0.953,0.195,0.051,0.227
4918312,-2098.0,-842.0,1464.0,0.954,0.191,0.055,0.225
4918328,-2178.0,-1060.0,1782.0,0.955,0.189,0.056,0.223
4918345,-2118.0,-1020.0,1724.0,0.955,0.189,0.053,0.222
4918371,-1328.0,-926.0,1802.0,0.955,0.19,0.047,0.221
4918387,-1360.0,-986.0,2284.0,0.955,0.193,0.039,0.222
4918403,-660.0,-434.0,2176.0,0.954,0.198,0.029,0.223
4918419,272.0,-140.0,2102.0,0.953,0.204,0.018,0.225
4918435,1030.0,296.0,2272.0,0.951,0.21,0.006,0.228
4918451,1302.0,-128.0,2630.0,0.948,0.218,-0.007,0.232
4918477,1550.0,846.0,2778.0,0.945,0.226,-0.02,0.236
4918494,2524.0,1338.0,3098.0,0.941,0.234,-0.035,0.241
4918511,3354.0,936.0,3124.0,0.937,0.243,-0.051,0.246
4918528,3358.0,1518.0,3244.0,0.931,0.254,-0.066,0.252
4918544,4308.0,3410.0,3176.0,0.926,0.264,-0.082,0.259
4918561,5476.0,2484.0,3572.0,0.919,0.272,-0.098,0.266
4918578,5972.0,120.0,3944.0,0.912,0.282,-0.114,0.274
4918594,6624.0,1082.0,3462.0,0.903,0.298,-0.127,0.283
4918611,7138.0,4712.0,2822.0,0.892,0.314,-0.14,0.293
4918637,7234.0,4176.0,4118.0,0.882,0.326,-0.152,0.304
4918653,6538.0,2256.0,4510.0,0.87,0.339,-0.165,0.316
4918669,7142.0,2642.0,4664.0,0.856,0.356,-0.179,0.329
4918685,7530.0,4064.0,4044.0,0.84,0.374,-0.193,0.343
4918701,8702.0,4676.0,3586.0,0.822,0.391,-0.207,0.357
4918717,9152.0,4236.0,3614.0,0.803,0.408,-0.221,0.373
4918743,10020.0,5896.0,3724.0,0.783,0.424,-0.234,0.39
4918760,10564.0,4548.0,3936.0,0.762,0.438,-0.248,0.406
4918777,10912.0,3838.0,4460.0,0.739,0.454,-0.26,0.424
4918794,11126.0,5778.0,4022.0,0.715,0.47,-0.271,0.441
4918811,12092.0,6190.0,3242.0,0.69,0.485,-0.283,0.457
4918827,11634.0,5080.0,2056.0,0.665,0.499,-0.291,0.472
4918843,12206.0,6518.0,2956.0,0.64,0.511,-0.301,0.488
4918860,12732.0,5900.0,2992.0,0.616,0.521,-0.311,0.503
4918876,12702.0,5576.0,2470.0,0.592,0.529,-0.319,0.517
4918902,12044.0,5038.0,2594.0,0.569,0.537,-0.327,0.53
4918918,11918.0,5352.0,2462.0,0.547,0.543,-0.334,0.543
4918934,11380.0,4346.0,2258.0,0.525,0.547,-0.34,0.556
4918950,11414.0,4124.0,1910.0,0.503,0.551,-0.346,0.569
4918966,11464.0,3992.0,1452.0,0.483,0.553,-0.352,0.581
4918982,10946.0,3396.0,2048.0,0.462,0.554,-0.356,0.593
4919009,10560.0,4086.0,2210.0,0.443,0.555,-0.362,0.604
4919025,10078.0,4102.0,2324.0,0.425,0.555,-0.369,0.613
4919041,9324.0,3382.0,2812.0,0.408,0.555,-0.377,0.62
4919057,9682.0,3758.0,2090.0,0.392,0.555,-0.385,0.625
4919073,9780.0,3562.0,1760.0,0.377,0.554,-0.394,0.629
4919089,9892.0,3714.0,1648.0,0.364,0.552,-0.402,0.633
4919105,9760.0,3468.0,2304.0,0.353,0.55,-0.411,0.636
4919131,9512.0,3502.0,2104.0,0.345,0.548,-0.419,0.637
4919147,9522.0,3396.0,1836.0,0.338,0.546,-0.426,0.637
4919163,9134.0,3632.0,2084.0,0.334,0.543,-0.433,0.637
4919179,8678.0,3326.0,2444.0,0.332,0.541,-0.439,0.636
4919195,8562.0,3312.0,2026.0,0.332,0.539,-0.443,0.635
4919211,8652.0,3698.0,1552.0,0.334,0.538,-0.446,0.632
4919237,8378.0,2910.0,2140.0,0.339,0.536,-0.448,0.63
4919253,8308.0,4056.0,2486.0,0.346,0.535,-0.448,0.628
4919269,7620.0,3990.0,3092.0,0.354,0.533,-0.448,0.624
4919285,7822.0,4282.0,3232.0,0.364,0.533,-0.447,0.62
4919301,8152.0,3998.0,2716.0,0.375,0.532,-0.447,0.614
4919317,8500.0,3304.0,2758.0,0.387,0.53,-0.446,0.608
4919343,8966.0,4420.0,2646.0,0.401,0.529,-0.444,0.602
4919359,9684.0,4376.0,2812.0,0.415,0.528,-0.44,0.596
4919376,10602.0,4864.0,2884.0,0.432,0.525,-0.435,0.591
4919392,10462.0,3952.0,2940.0,0.45,0.522,-0.428,0.585
4919408,11026.0,4702.0,3808.0,0.47,0.518,-0.421,0.578
4919434,11928.0,6064.0,2162.0,0.49,0.514,-0.413,0.57
4919450,13404.0,4454.0,3302.0,0.513,0.509,-0.404,0.561
4919466,13580.0,4240.0,3712.0,0.537,0.504,-0.393,0.551
4919482,14338.0,4000.0,3442.0,0.561,0.498,-0.381,0.54
4919498,14868.0,4968.0,3268.0,0.587,0.49,-0.368,0.529
4919514,14910.0,5778.0,3094.0,0.614,0.481,-0.354,0.517
4919530,15078.0,4310.0,3334.0,0.641,0.47,-0.34,0.503
4919556,15546.0,5722.0,2356.0,0.668,0.459,-0.324,0.488
4919572,15202.0,3850.0,2844.0,0.695,0.446,-0.306,0.474
4919588,15050.0,3778.0,2456.0,0.722,0.431,-0.286,0.46
4919604,12492.0,3718.0,3104.0,0.748,0.414,-0.265,0.446
4919620,12836.0,3276.0,2908.0,0.772,0.397,-0.244,0.431
4919636,11888.0,3324.0,2970.0,0.795,0.38,-0.223,0.417
4919662,10636.0,2512.0,3510.0,0.816,0.363,-0.202,0.403
4919679,9662.0,2400.0,3772.0,0.834,0.346,-0.181,0.389
4919695,8732.0,2630.0,3386.0,0.85,0.332,-0.162,0.376
4919711,8332.0,3010.0,3364.0,0.865,0.317,-0.144,0.362
4919727,7536.0,2478.0,3098.0,0.878,0.303,-0.128,0.349
4919744,7140.0,2104.0,3104.0,0.889,0.289,-0.113,0.336
4919770,5990.0,1902.0,3464.0,0.9,0.275,-0.098,0.324
4919786,5562.0,1594.0,3118.0,0.909,0.263,-0.083,0.312
4919802,4582.0,1968.0,3064.0,0.917,0.252,-0.07,0.301
4919818,4156.0,1656.0,2564.0,0.924,0.241,-0.058,0.292
4919834,3848.0,1224.0,2812.0,0.93,0.231,-0.047,0.283
4919850,2810.0,862.0,2814.0,0.935,0.223,-0.037,0.275
4919866,2728.0,1596.0,2582.0,0.939,0.215,-0.028,0.267
4919892,1754.0,1110.0,2968.0,0.942,0.209,-0.021,0.26
4919908,2122.0,956.0,2382.0,0.946,0.203,-0.016,0.254
4919924,2160.0,602.0,1948.0,0.948,0.198,-0.011,0.247
4919940,274.0,1432.0,2756.0,0.951,0.193,-0.007,0.241
4919956,152.0,1168.0,2574.0,0.953,0.188,-0.006,0.237
4919972,-350.0,1200.0,2090.0,0.955,0.184,-0.009,0.233
4919998,1160.0,218.0,1064.0,0.957,0.178,-0.012,0.23
4920014,172.0,-2588.0,912.0,0.958,0.176,-0.014,0.227
4920030,-102.0,-1302.0,840.0,0.958,0.177,-0.014,0.223
4920046,-342.0,-150.0,614.0,0.959,0.179,-0.014,0.219
4920062,-1534.0,-1354.0,1080.0,0.96,0.179,-0.014,0.214
4920078,-1844.0,-1544.0,1944.0,0.961,0.18,-0.016,0.211
4920105,-2086.0,-2246.0,1836.0,0.961,0.182,-0.02,0.208
4920121,-1078.0,-1512.0,2318.0,0.96,0.186,-0.028,0.207
4920137,-766.0,-1010.0,2482.0,0.959,0.191,-0.037,0.207
4920153,166.0,-1174.0,2586.0,0.957,0.196,-0.048,0.208
4920169,1286.0,-1144.0,2494.0,0.955,0.202,-0.059,0.211
4920185,1954.0,-878.0,2718.0,0.952,0.208,-0.07,0.214
4920211,2770.0,106.0,2544.0,0.948,0.216,-0.081,0.218
4920227,3194.0,464.0,2678.0,0.944,0.223,-0.092,0.223
4920243,3372.0,312.0,3130.0,0.94,0.231,-0.104,0.229
4920259,3460.0,350.0,3006.0,0.934,0.242,-0.116,0.236
4920275,4732.0,2100.0,3198.0,0.927,0.253,-0.131,0.243
4920291,5222.0,1624.0,3078.0,0.919,0.264,-0.146,0.252
4920317,5966.0,2094.0,3448.0,0.911,0.276,-0.162,0.261
4920333,6116.0,2566.0,3400.0,0.9,0.29,-0.179,0.272
4920349,6804.0,2976.0,3568.0,0.888,0.303,-0.197,0.283
4920365,7876.0,2740.0,3810.0,0.876,0.316,-0.214,0.295
4920381,8468.0,2444.0,3810.0,0.862,0.331,-0.232,0.307
4920398,9054.0,4130.0,3466.0,0.846,0.347,-0.248,0.321
4920424,9962.0,6540.0,3092.0,0.829,0.361,-0.264,0.334
4920441,9838.0,4650.0,4696.0,0.813,0.372,-0.281,0.348
4920457,10030.0,970.0,4732.0,0.794,0.387,-0.298,0.36
4920473,11636.0,4274.0,3440.0,0.773,0.407,-0.313,0.373
4920489,12460.0,7112.0,2696.0,0.752,0.422,-0.326,0.387
4920505,11482.0,4012.0,3446.0,0.733,0.434,-0.337,0.401
4920531,11008.0,2624.0,3732.0,0.713,0.447,-0.346,0.415
4920547,12030.0,4080.0,2258.0,0.69,0.462,-0.352,0.431
4920563,13256.0,4766.0,1650.0,0.669,0.474,-0.355,0.449
4920579,12202.0,4366.0,2404.0,0.649,0.482,-0.358,0.467
4920595,11622.0,4010.0,2434.0,0.629,0.491,-0.36,0.484
4920611,11272.0,5130.0,2262.0,0.608,0.498,-0.364,0.499
4920627,10548.0,4436.0,2830.0,0.587,0.506,-0.371,0.512
4920653,10618.0,3540.0,2538.0,0.565,0.513,-0.379,0.522
4920669,11260.0,3822.0,1274.0,0.544,0.521,-0.389,0.531
4920685,11164.0,3890.0,1090.0,0.524,0.525,-0.398,0.54
4920701,11178.0,2914.0,1382.0,0.505,0.529,-0.407,0.547
4920717,10796.0,3406.0,1256.0,0.487,0.532,-0.416,0.554
4920733,10264.0,3152.0,1618.0,0.469,0.535,-0.425,0.559
4920759,10316.0,3042.0,1714.0,0.453,0.536,-0.435,0.564
4920776,10394.0,3058.0,1288.0,0.436,0.537,-0.446,0.568
4920792,10486.0,3178.0,1262.0,0.421,0.536,-0.457,0.571
4920809,10116.0,2884.0,1244.0,0.408,0.534,-0.467,0.574
4920826,9848.0,3116.0,1582.0,0.396,0.531,-0.478,0.577
4920843,9636.0,3202.0,1978.0,0.385,0.528,-0.489,0.578
4920859,9388.0,2980.0,2046.0,0.377,0.525,-0.5,0.577
4920876,9364.0,3012.0,2044.0,0.37,0.521,-0.511,0.575
4920902,9406.0,2990.0,2272.0,0.365,0.518,-0.521,0.572
4920918,9402.0,2760.0,1958.0,0.362,0.514,-0.53,0.569
4920934,9440.0,2700.0,1960.0,0.361,0.511,-0.537,0.565
4920950,8456.0,2044.0,2700.0,0.362,0.508,-0.542,0.563
4920966,9328.0,3230.0,2654.0,0.365,0.506,-0.545,0.56
4920982,9228.0,3074.0,2868.0,0.369,0.504,-0.547,0.557
4921008,9354.0,1148.0,2964.0,0.374,0.502,-0.548,0.554
4921025,9598.0,1358.0,2806.0,0.38,0.504,-0.545,0.552
4921041,10186.0,2424.0,1890.0,0.388,0.506,-0.54,0.55
4921057,10810.0,2776.0,2100.0,0.398,0.508,-0.533,0.548
4921074,11286.0,2652.0,2570.0,0.411,0.509,-0.524,0.545
4921090,11072.0,3462.0,2426.0,0.426,0.51,-0.514,0.543
4921106,11466.0,4086.0,2248.0,0.442,0.51,-0.504,0.539
4921132,11452.0,3446.0,2344.0,0.461,0.508,-0.494,0.535
4921148,11954.0,3660.0,2354.0,0.481,0.506,-0.482,0.529
4921164,12390.0,4014.0,2156.0,0.504,0.502,-0.47,0.522
4921180,13562.0,3032.0,1052.0,0.528,0.496,-0.455,0.517
4921196,12954.0,2272.0,2514.0,0.553,0.49,-0.439,0.511
4921212,13310.0,3160.0,1952.0,0.579,0.484,-0.42,0.505
4921238,13318.0,3350.0,2616.0,0.604,0.474,-0.402,0.498
4921254,14080.0,2046.0,2878.0,0.63,0.464,-0.384,0.491
4921270,13620.0,2906.0,2840.0,0.653,0.455,-0.363,0.484
4921286,13636.0,3748.0,2896.0,0.676,0.447,-0.342,0.475
4921302,13624.0,3952.0,3024.0,0.699,0.439,-0.322,0.464
4921318,13344.0,3812.0,2944.0,0.72,0.43,-0.301,0.453
4921344,12496.0,4168.0,3282.0,0.741,0.421,-0.28,0.442
4921360,11606.0,4498.0,3552.0,0.761,0.411,-0.26,0.43
4921376,10974.0,3866.0,3554.0,0.779,0.402,-0.241,0.417
4921393,10346.0,3786.0,3108.0,0.796,0.393,-0.222,0.404
4921410,9936.0,2974.0,3214.0,0.812,0.383,-0.204,0.391
4921426,8836.0,3196.0,3116.0,0.827,0.373,-0.186,0.377
4921443,8188.0,3020.0,2862.0,0.841,0.363,-0.168,0.365
4921469,7418.0,3306.0,3192.0,0.853,0.353,-0.152,0.353
4921485,6420.0,2142.0,3398.0,0.864,0.343,-0.138,0.341
4921501,5924.0,1830.0,2668.0,0.874,0.335,-0.123,0.33
4921517,5714.0,2192.0,2336.0,0.883,0.326,-0.109,0.32
4921533,5336.0,1754.0,2246.0,0.891,0.317,-0.094,0.31
4921549,4140.0,1626.0,2504.0,0.899,0.308,-0.079,0.301
4921575,3162.0,1946.0,2646.0,0.905,0.3,-0.066,0.293
4921591,2758.0,1296.0,2708.0,0.911,0.293,-0.056,0.286
4921608,2524.0,672.0,2562.0,0.916,0.287,-0.047,0.278
4921625,2500.0,738.0,1798.0,0.92,0.281,-0.038,0.272
4921641,1568.0,1282.0,1868.0,0.923,0.276,-0.029,0.266
4921658,1618.0,1106.0,1612.0,0.926,0.27,-0.02,0.262
4921674,1292.0,978.0,1398.0,0.929,0.264,-0.013,0.259
4921690,1054.0,446.0,904.0,0.931,0.258,-0.005,0.257
4921716,724.0,-152.0,1300.0,0.934,0.252,0.004,0.254
4921732,-188.0,-488.0,1544.0,0.936,0.248,0.011,0.251
4921748,-680.0,-74.0,1504.0,0.937,0.245,0.016,0.247
4921764,-452.0,480.0,1316.0,0.939,0.242,0.019,0.244
4921780,-22.0,-330.0,1068.0,0.941,0.237,0.022,0.242
4921796,-818.0,-948.0,1414.0,0.942,0.233,0.024,0.24
4921822,-1818.0,-1642.0,2380.0,0.943,0.231,0.025,0.238
4921838,-1804.0,-518.0,2728.0,0.943,0.232,0.022,0.237
4921854,-1166.0,-118.0,2480.0,0.943,0.232,0.016,0.236
4921870,-266.0,566.0,2320.0,0.944,0.232,0.008,0.236
4921886,530.0,6.0,2176.0,0.943,0.231,-0.0,0.238
4921902,874.0,-992.0,2810.0,0.943,0.23,-0.009,0.24
4921928,1286.0,-452.0,3984.0,0.942,0.232,-0.016,0.243
4921944,1832.0,574.0,3732.0,0.94,0.236,-0.025,0.246
4921960,2428.0,1212.0,3248.0,0.937,0.24,-0.034,0.25
4921976,2654.0,1760.0,3640.0,0.935,0.244,-0.044,0.255
4921993,3432.0,2036.0,3886.0,0.931,0.249,-0.055,0.261
4922009,4058.0,1630.0,3842.0,0.927,0.254,-0.067,0.268
4922035,3998.0,1606.0,4470.0,0.922,0.261,-0.08,0.275
4922051,4484.0,2472.0,4612.0,0.915,0.27,-0.094,0.283
4922067,5130.0,2956.0,4648.0,0.907,0.281,-0.111,0.292
4922083,5852.0,2944.0,4222.0,0.898,0.294,-0.129,0.302
4922099,6138.0,3320.0,4364.0,0.887,0.306,-0.147,0.312
4922115,6956.0,3202.0,4798.0,0.875,0.32,-0.164,0.323
4922141,7490.0,2436.0,4634.0,0.862,0.335,-0.181,0.335
4922158,7964.0,3496.0,4138.0,0.846,0.352,-0.197,0.348
4922175,8822.0,5768.0,3920.0,0.83,0.368,-0.212,0.361
4922192,9188.0,4794.0,4634.0,0.814,0.381,-0.228,0.375
4922208,8814.0,3090.0,4792.0,0.796,0.396,-0.243,0.389
4922224,9420.0,5190.0,4368.0,0.776,0.412,-0.257,0.403
4922240,9460.0,6548.0,4746.0,0.757,0.425,-0.271,0.417
4922257,9882.0,6098.0,4586.0,0.738,0.435,-0.286,0.429
4922273,9112.0,2414.0,3772.0,0.719,0.443,-0.301,0.443
4922300,8362.0,2350.0,2568.0,0.697,0.454,-0.314,0.458
4922316,11018.0,7608.0,3762.0,0.674,0.464,-0.325,0.473
4922332,11918.0,5618.0,4160.0,0.655,0.468,-0.338,0.488
4922348,12964.0,2154.0,3962.0,0.635,0.47,-0.35,0.503
4922364,12544.0,3016.0,2758.0,0.615,0.474,-0.359,0.518
4922380,12784.0,3316.0,4156.0,0.595,0.477,-0.368,0.533
4922406,12578.0,3584.0,4228.0,0.575,0.479,-0.376,0.546
4922422,11984.0,1974.0,3534.0,0.555,0.481,-0.385,0.559
4922438,11706.0,1944.0,3594.0,0.534,0.483,-0.395,0.57
4922454,11694.0,2850.0,2438.0,0.515,0.485,-0.405,0.579
4922470,11438.0,1696.0,1986.0,0.496,0.487,-0.415,0.587
4922486,10686.0,3170.0,2434.0,0.477,0.489,-0.424,0.595
4922512,10036.0,2686.0,2746.0,0.46,0.489,-0.435,0.6
4922528,9586.0,1108.0,3264.0,0.444,0.49,-0.445,0.604
4922544,10170.0,1622.0,2144.0,0.429,0.492,-0.456,0.606
4922560,9928.0,1996.0,1264.0,0.414,0.493,-0.464,0.608
4922576,9802.0,2948.0,1662.0,0.403,0.493,-0.471,0.61
4922592,8964.0,1828.0,2504.0,0.393,0.492,-0.479,0.611
4922619,8636.0,1374.0,2604.0,0.384,0.491,-0.486,0.612
4922635,9322.0,3034.0,2150.0,0.376,0.491,-0.493,0.612
4922651,9572.0,3954.0,2354.0,0.371,0.489,-0.5,0.611
4922667,9298.0,1776.0,2882.0,0.369,0.486,-0.508,0.608
4922683,9446.0,2546.0,2788.0,0.368,0.484,-0.514,0.605
4922699,9126.0,3062.0,3330.0,0.369,0.482,-0.519,0.602
4922725,9140.0,2996.0,3196.0,0.372,0.48,-0.523,0.598
4922742,8886.0,2758.0,3362.0,0.378,0.478,-0.527,0.593
4922758,8828.0,2948.0,3610.0,0.385,0.475,-0.53,0.587
4922775,9128.0,2694.0,3808.0,0.394,0.473,-0.533,0.58
4922792,9618.0,2304.0,3162.0,0.405,0.47,-0.534,0.574
4922809,10302.0,3482.0,3204.0,0.419,0.467,-0.532,0.569
4922826,10408.0,3010.0,3534.0,0.435,0.462,-0.53,0.563
4922842,10384.0,1996.0,3354.0,0.452,0.457,-0.526,0.558
4922858,10162.0,594.0,2972.0,0.469,0.453,-0.519,0.553
4922875,11018.0,-90.0,3064.0,0.487,0.451,-0.507,0.55
4922902,12852.0,1776.0,4138.0,0.506,0.45,-0.491,0.548
4922918,13398.0,5048.0,4690.0,0.528,0.447,-0.473,0.545
4922934,12588.0,5378.0,5032.0,0.553,0.44,-0.457,0.54
4922950,12732.0,2752.0,5642.0,0.579,0.432,-0.442,0.532
4922966,13540.0,1950.0,3656.0,0.604,0.425,-0.426,0.522
4922982,13436.0,2330.0,3052.0,0.631,0.416,-0.409,0.512
4923008,13434.0,2754.0,3378.0,0.657,0.406,-0.391,0.502
4923025,13262.0,2598.0,3586.0,0.682,0.395,-0.372,0.491
4923042,13556.0,2474.0,3206.0,0.706,0.383,-0.351,0.481
4923059,12330.0,2304.0,3352.0,0.73,0.371,-0.33,0.47
4923075,11722.0,1394.0,3854.0,0.752,0.358,-0.309,0.459
4923091,11260.0,1698.0,3872.0,0.772,0.347,-0.287,0.448
4923107,10434.0,2810.0,3658.0,0.791,0.336,-0.265,0.437
4923123,10138.0,2348.0,4178.0,0.809,0.324,-0.244,0.426
4923149,9624.0,1582.0,4008.0,0.825,0.313,-0.223,0.415
4923165,8934.0,1862.0,4274.0,0.839,0.303,-0.203,0.404
4923181,7732.0,1628.0,4592.0,0.852,0.294,-0.183,0.393
4923198,6700.0,2188.0,4830.0,0.863,0.287,-0.166,0.382
4923214,6396.0,2478.0,4614.0,0.873,0.279,-0.151,0.371
4923230,5446.0,1774.0,5426.0,0.882,0.273,-0.137,0.36
4923256,3610.0,-606.0,6336.0,0.889,0.27,-0.125,0.349
4923272,3224.0,1646.0,6704.0,0.894,0.273,-0.115,0.337
4923289,4224.0,4152.0,4672.0,0.898,0.277,-0.109,0.326
4923305,5676.0,4874.0,2532.0,0.902,0.276,-0.105,0.316
4923322,5778.0,3586.0,2506.0,0.907,0.268,-0.097,0.309
4923338,5566.0,1648.0,3766.0,0.913,0.258,-0.087,0.305
4923354,3984.0,-1408.0,4504.0,0.917,0.249,-0.075,0.302
4923380,3124.0,914.0,4026.0,0.92,0.246,-0.063,0.298
4923397,2934.0,2744.0,3630.0,0.923,0.242,-0.053,0.294
4923413,3126.0,2186.0,2594.0,0.927,0.235,-0.043,0.29
4923429,2854.0,796.0,1850.0,0.93,0.228,-0.033,0.287
4923445,1888.0,534.0,2042.0,0.933,0.221,-0.022,0.284
4923461,1256.0,62.0,2216.0,0.935,0.214,-0.012,0.282
4923477,788.0,754.0,2248.0,0.937,0.209,-0.002,0.279
4923503,-138.0,498.0,2140.0,0.939,0.205,0.005,0.276
4923519,-338.0,1024.0,1902.0,0.941,0.2,0.009,0.273
4923535,-120.0,386.0,1368.0,0.943,0.195,0.011,0.271
4923551,-768.0,-362.0,1690.0,0.944,0.189,0.013,0.27
4923567,-1092.0,-810.0,1870.0,0.945,0.186,0.012,0.269
4923583,-862.0,-264.0,1564.0,0.946,0.183,0.01,0.269
4923609,-354.0,-632.0,1698.0,0.946,0.18,0.008,0.269
4923626,-762.0,-664.0,1680.0,0.946,0.179,0.005,0.27
4923642,-106.0,-256.0,1840.0,0.946,0.179,0.0,0.271
4923659,206.0,192.0,2094.0,0.945,0.18,-0.006,0.272
4923676,432.0,-184.0,2344.0,0.945,0.181,-0.014,0.273
4923692,388.0,-892.0,2526.0,0.943,0.184,-0.024,0.276
4923708,1422.0,334.0,2384.0,0.941,0.189,-0.035,0.279
4923734,1938.0,806.0,2804.0,0.938,0.194,-0.048,0.282
4923750,2500.0,238.0,3274.0,0.935,0.199,-0.062,0.287
4923766,3002.0,748.0,2820.0,0.931,0.206,-0.077,0.292
4923783,3614.0,1562.0,2672.0,0.926,0.212,-0.093,0.297
4923799,4172.0,618.0,3664.0,0.921,0.218,-0.109,0.304
4923815,4924.0,36.0,3460.0,0.915,0.227,-0.125,0.31
4923831,5390.0,1788.0,3434.0,0.907,0.238,-0.141,0.318
4923857,6326.0,3444.0,3394.0,0.898,0.249,-0.158,0.328
4923873,6698.0,2360.0,3752.0,0.888,0.258,-0.176,0.338
4923890,6786.0,626.0,4696.0,0.877,0.267,-0.195,0.348
4923906,7624.0,1138.0,4462.0,0.864,0.281,-0.214,0.36
4923922,8570.0,3318.0,4270.0,0.848,0.297,-0.232,0.372
4923938,10036.0,4330.0,4404.0,0.832,0.311,-0.249,0.386
4923964,9656.0,1410.0,5638.0,0.815,0.324,-0.267,0.4
4923981,8572.0,1238.0,3758.0,0.794,0.34,-0.286,0.415
4923997,11352.0,3582.0,3648.0,0.771,0.357,-0.304,0.43
4924013,12514.0,5898.0,3820.0,0.749,0.37,-0.32,0.447
4924029,13506.0,3440.0,5122.0,0.728,0.379,-0.335,0.463
4924045,9996.0,-1320.0,4130.0,0.704,0.391,-0.351,0.479
4924061,11568.0,814.0,4828.0,0.677,0.407,-0.365,0.492
4924087,13450.0,4682.0,4612.0,0.651,0.422,-0.379,0.504
4924103,13290.0,4948.0,4038.0,0.627,0.432,-0.394,0.515
4924119,13992.0,1834.0,3448.0,0.604,0.44,-0.409,0.525
4924135,12944.0,348.0,2260.0,0.58,0.447,-0.421,0.535
4924151,12996.0,1610.0,2672.0,0.557,0.455,-0.429,0.546
4924167,12506.0,3234.0,4204.0,0.534,0.462,-0.437,0.557
4924194,12212.0,2474.0,4446.0,0.511,0.467,-0.446,0.567
4924210,12220.0,2382.0,3496.0,0.49,0.471,-0.455,0.576
4924226,11880.0,2258.0,2958.0,0.47,0.475,-0.464,0.582
4924242,11716.0,3160.0,2850.0,0.451,0.476,-0.473,0.588
4924258,11278.0,2404.0,2830.0,0.434,0.478,-0.483,0.592
4924275,11012.0,2268.0,2784.0,0.418,0.478,-0.492,0.596
4924291,10508.0,1908.0,2760.0,0.403,0.478,-0.5,0.599
4924317,10164.0,1998.0,2840.0,0.389,0.478,-0.508,0.602
4924333,9874.0,2074.0,2404.0,0.376,0.477,-0.516,0.604
4924349,9636.0,2268.0,2486.0,0.366,0.475,-0.523,0.605
4924365,9148.0,1764.0,2990.0,0.357,0.473,-0.531,0.606
4924381,8890.0,1692.0,2496.0,0.349,0.472,-0.538,0.606
4924397,8928.0,2286.0,2620.0,0.343,0.47,-0.543,0.605
4924423,8644.0,1944.0,2802.0,0.339,0.468,-0.549,0.604
4924439,8254.0,1424.0,2608.0,0.338,0.467,-0.553,0.602
4924455,8518.0,2170.0,2636.0,0.338,0.465,-0.556,0.6
4924471,8734.0,2372.0,2980.0,0.341,0.464,-0.558,0.598
4924487,8880.0,2046.0,2682.0,0.345,0.462,-0.559,0.595
4924503,8906.0,1904.0,2622.0,0.352,0.461,-0.559,0.593
4924529,9286.0,2210.0,2792.0,0.36,0.459,-0.558,0.59
4924545,9268.0,1812.0,3172.0,0.37,0.458,-0.554,0.588
4924561,9626.0,2312.0,3092.0,0.382,0.457,-0.549,0.586
4924577,9938.0,2928.0,2836.0,0.396,0.456,-0.544,0.583
4924593,10314.0,1920.0,3272.0,0.412,0.455,-0.537,0.579
4924619,10540.0,1016.0,3102.0,0.429,0.454,-0.528,0.575
4924635,11600.0,3070.0,2874.0,0.448,0.453,-0.518,0.571
4924651,11754.0,2792.0,3632.0,0.469,0.45,-0.507,0.567
4924667,12016.0,1296.0,3784.0,0.49,0.448,-0.494,0.562
4924683,13050.0,2268.0,3088.0,0.513,0.445,-0.48,0.556
4924699,13474.0,2622.0,3286.0,0.537,0.441,-0.464,0.55
4924725,13624.0,1994.0,4424.0,0.562,0.436,-0.447,0.543
4924742,13618.0,858.0,4102.0,0.586,0.432,-0.428,0.536
4924758,14986.0,2088.0,4702.0,0.609,0.428,-0.407,0.529
4924775,13400.0,2860.0,4266.0,0.634,0.422,-0.387,0.52
4924791,13358.0,1844.0,3882.0,0.657,0.416,-0.366,0.511
4924807,12982.0,2072.0,3818.0,0.679,0.411,-0.345,0.502
4924823,13078.0,3352.0,3300.0,0.701,0.403,-0.324,0.491
4924849,12216.0,1322.0,4096.0,0.723,0.394,-0.303,0.48
4924865,11840.0,1350.0,4056.0,0.743,0.387,-0.281,0.469
4924881,11490.0,3604.0,3702.0,0.761,0.38,-0.258,0.458
4924897,10546.0,3274.0,3988.0,0.779,0.37,-0.237,0.447
4924913,10026.0,2014.0,4292.0,0.797,0.359,-0.217,0.435
4924929,9484.0,2168.0,3656.0,0.812,0.349,-0.197,0.423
4924955,8672.0,2458.0,3840.0,0.827,0.339,-0.177,0.412
4924971,7716.0,2474.0,4020.0,0.84,0.329,-0.159,0.4
4924987,6804.0,2708.0,4176.0,0.852,0.319,-0.144,0.389
4925003,6428.0,2544.0,3770.0,0.863,0.31,-0.131,0.377
4925019,6240.0,1942.0,3506.0,0.873,0.3,-0.12,0.365
4925035,5730.0,1800.0,3550.0,0.882,0.291,-0.108,0.354
4925061,4162.0,864.0,4050.0,0.891,0.282,-0.096,0.343
4925077,3362.0,756.0,4960.0,0.898,0.277,-0.087,0.331
4925093,4152.0,2142.0,4304.0,0.905,0.272,-0.08,0.318
4925109,5516.0,2924.0,2198.0,0.911,0.266,-0.073,0.305
4925125,5068.0,2432.0,2020.0,0.919,0.256,-0.062,0.294
4925141,3872.0,2158.0,2920.0,0.926,0.244,-0.051,0.284
4925168,3176.0,78.0,2486.0,0.932,0.232,-0.038,0.276
4925184,2092.0,-868.0,2812.0,0.937,0.222,-0.023,0.268
4925200,1472.0,538.0,2894.0,0.941,0.215,-0.008,0.261
4925216,1490.0,1916.0,2300.0,0.944,0.208,0.008,0.255
4925232,734.0,252.0,2222.0,0.947,0.2,0.023,0.251
4925248,-658.0,-604.0,2116.0,0.949,0.193,0.038,0.247
4925264,-1148.0,122.0,2174.0,0.95,0.188,0.05,0.244
4925291,-1554.0,38.0,2130.0,0.951,0.184,0.06,0.241
4925308,-1810.0,-92.0,1816.0,0.952,0.181,0.066,0.239
4925325,-1500.0,-350.0,1686.0,0.952,0.18,0.071,0.238
4925341,-1390.0,-30.0,1714.0,0.952,0.18,0.073,0.238
4925358,-1672.0,-204.0,1774.0,0.951,0.182,0.072,0.238
4925375,-1098.0,-386.0,1784.0,0.951,0.184,0.069,0.239
4925391,-992.0,-448.0,1996.0,0.95,0.188,0.064,0.24
4925408,-614.0,-142.0,2134.0,0.95,0.193,0.056,0.241
4925424,-140.0,298.0,2018.0,0.948,0.199,0.047,0.243
4925450,276.0,960.0,2130.0,0.946,0.205,0.036,0.247
4925466,952.0,664.0,2534.0,0.944,0.212,0.024,0.251
4925482,1728.0,722.0,2890.0,0.941,0.22,0.011,0.256
4925498,2268.0,1254.0,2836.0,0.938,0.229,-0.003,0.261
4925514,3166.0,2754.0,2866.0,0.934,0.236,-0.017,0.267
4925530,3000.0,1948.0,3886.0,0.93,0.243,-0.031,0.274
4925556,2700.0,1016.0,4418.0,0.924,0.253,-0.046,0.281
4925572,3784.0,1752.0,4070.0,0.917,0.266,-0.062,0.289
4925588,4916.0,3704.0,4574.0,0.909,0.281,-0.079,0.298
4925604,4802.0,3220.0,4822.0,0.899,0.297,-0.096,0.308
4925620,5180.0,3638.0,5282.0,0.887,0.315,-0.114,0.319
4925646,5664.0,4482.0,5760.0,0.873,0.333,-0.133,0.331
4925662,6704.0,4002.0,5598.0,0.858,0.352,-0.153,0.342
4925678,8206.0,2108.0,4440.0,0.841,0.372,-0.171,0.353
4925694,9150.0,2240.0,3784.0,0.821,0.396,-0.184,0.367
4925710,10000.0,4252.0,3498.0,0.8,0.422,-0.193,0.381
4925726,9624.0,6314.0,3868.0,0.777,0.446,-0.199,0.397
4925742,9598.0,6890.0,3992.0,0.754,0.467,-0.207,0.413
4925768,9142.0,5706.0,4188.0,0.731,0.485,-0.215,0.429
4925784,9258.0,5576.0,4236.0,0.707,0.503,-0.224,0.444
4925800,10308.0,6408.0,3436.0,0.683,0.519,-0.233,0.457
4925816,10068.0,6954.0,2400.0,0.66,0.535,-0.241,0.47
4925832,11482.0,6238.0,2282.0,0.636,0.548,-0.249,0.483
4925858,12176.0,6518.0,1430.0,0.611,0.56,-0.257,0.498
4925874,11770.0,6282.0,1514.0,0.585,0.569,-0.263,0.515
4925891,11008.0,6318.0,2160.0,0.561,0.576,-0.268,0.531
4925912,10574.0,6552.0,2758.0,0.538,0.581,-0.275,0.545
4925929,10094.0,4936.0,2350.0,0.516,0.585,-0.284,0.558
4925945,10142.0,4642.0,2180.0,0.493,0.588,-0.293,0.57
4925961,10436.0,5118.0,2028.0,0.472,0.59,-0.302,0.581
4925977,10266.0,4930.0,2642.0,0.452,0.591,-0.313,0.591
4925993,10112.0,4210.0,2120.0,0.434,0.59,-0.325,0.598
4926009,10732.0,3662.0,1156.0,0.417,0.589,-0.336,0.606
4926035,10284.0,3286.0,1276.0,0.401,0.586,-0.347,0.613
4926051,10268.0,3592.0,1446.0,0.386,0.583,-0.357,0.62
4926067,10054.0,4334.0,1586.0,0.372,0.579,-0.367,0.626
4926083,9598.0,4052.0,1874.0,0.36,0.574,-0.378,0.631
4926099,9440.0,4384.0,2016.0,0.35,0.568,-0.389,0.635
4926115,9184.0,3862.0,1776.0,0.342,0.562,-0.401,0.637
4926142,9116.0,3354.0,1620.0,0.336,0.557,-0.413,0.637
4926158,9160.0,3430.0,1662.0,0.333,0.551,-0.425,0.637
4926174,8918.0,3182.0,1778.0,0.331,0.545,-0.436,0.636
4926191,8680.0,2676.0,1834.0,0.331,0.539,-0.446,0.634
4926207,8640.0,3004.0,1754.0,0.332,0.534,-0.454,0.631
4926224,8626.0,3354.0,1860.0,0.335,0.529,-0.462,0.628
4926240,8592.0,2750.0,2040.0,0.34,0.525,-0.47,0.623
4926257,8678.0,2456.0,2024.0,0.346,0.521,-0.475,0.619
4926273,9070.0,3482.0,1630.0,0.354,0.517,-0.478,0.616
4926299,9240.0,3182.0,2220.0,0.365,0.513,-0.48,0.611
4926315,9038.0,1906.0,2558.0,0.377,0.509,-0.479,0.607
4926331,9248.0,2690.0,2822.0,0.39,0.507,-0.475,0.604
4926347,9598.0,4294.0,2652.0,0.405,0.505,-0.471,0.6
4926363,10116.0,4438.0,3560.0,0.422,0.502,-0.466,0.594
4926389,10310.0,3352.0,3442.0,0.439,0.499,-0.461,0.588
4926406,11156.0,4238.0,3134.0,0.458,0.496,-0.455,0.581
4926423,11458.0,4062.0,3342.0,0.479,0.492,-0.448,0.573
4926440,12142.0,3466.0,2992.0,0.501,0.487,-0.439,0.564
4926456,12702.0,3450.0,3494.0,0.525,0.482,-0.428,0.556
4926473,12556.0,3558.0,3310.0,0.549,0.477,-0.415,0.547
4926490,12544.0,3768.0,3956.0,0.573,0.472,-0.401,0.537
4926506,13484.0,4608.0,3434.0,0.597,0.465,-0.385,0.528
4926523,13118.0,3932.0,3932.0,0.622,0.457,-0.369,0.518
4926540,12872.0,2834.0,4700.0,0.647,0.448,-0.352,0.507
4926566,12390.0,3240.0,4314.0,0.67,0.44,-0.334,0.495
4926582,12972.0,4696.0,3284.0,0.694,0.431,-0.316,0.482
4926598,12814.0,4810.0,3098.0,0.718,0.417,-0.299,0.47
4926614,10490.0,2084.0,5166.0,0.742,0.401,-0.283,0.456
4926630,10448.0,2904.0,5028.0,0.763,0.387,-0.268,0.443
4926646,10428.0,3888.0,4038.0,0.783,0.371,-0.253,0.429
4926672,10280.0,1692.0,3538.0,0.802,0.356,-0.237,0.417
4926688,10074.0,2364.0,3778.0,0.819,0.341,-0.22,0.406
4926705,9470.0,1746.0,4012.0,0.835,0.325,-0.201,0.397
4926721,8690.0,1694.0,3888.0,0.849,0.311,-0.182,0.387
4926737,7626.0,2760.0,4578.0,0.862,0.297,-0.163,0.378
4926753,7248.0,2600.0,4770.0,0.873,0.283,-0.147,0.368
4926769,6502.0,1680.0,4230.0,0.883,0.271,-0.133,0.359
4926795,6268.0,1866.0,3942.0,0.891,0.261,-0.119,0.351
4926811,5836.0,2364.0,3834.0,0.899,0.252,-0.105,0.342
4926827,5486.0,2664.0,3558.0,0.907,0.241,-0.092,0.334
4926843,4822.0,1920.0,4168.0,0.913,0.231,-0.08,0.325
4926859,4360.0,734.0,3758.0,0.92,0.221,-0.068,0.317
4926875,4486.0,1118.0,2670.0,0.925,0.214,-0.054,0.309
4926901,5982.0,3100.0,1840.0,0.93,0.206,-0.039,0.301
4926917,4338.0,2484.0,2496.0,0.936,0.194,-0.023,0.293
4926933,1778.0,-202.0,2904.0,0.941,0.183,-0.008,0.285
4926949,1504.0,-620.0,3142.0,0.945,0.174,0.006,0.275
4926965,1240.0,-690.0,2566.0,0.95,0.166,0.019,0.265
4926982,-660.0,-1474.0,2286.0,0.953,0.16,0.032,0.255
4927008,-1952.0,-408.0,1958.0,0.955,0.157,0.045,0.246
4927024,-1224.0,1204.0,1742.0,0.957,0.153,0.056,0.239
4927041,-866.0,1152.0,1700.0,0.959,0.148,0.066,0.233
4927057,-2724.0,-2058.0,1656.0,0.96,0.142,0.075,0.229
4927074,-3902.0,-3188.0,2044.0,0.96,0.141,0.083,0.225
4927091,-3508.0,-610.0,2116.0,0.96,0.144,0.087,0.222
4927107,-3206.0,128.0,1584.0,0.96,0.146,0.088,0.221
4927124,-3294.0,-1952.0,1616.0,0.96,0.149,0.086,0.223
4927150,-2984.0,-1628.0,1942.0,0.958,0.155,0.082,0.225
4927166,-1794.0,-116.0,1698.0,0.957,0.163,0.074,0.23
4927182,-1106.0,-286.0,1860.0,0.955,0.171,0.064,0.235
4927198,-442.0,-238.0,2076.0,0.952,0.18,0.052,0.242
4927214,632.0,700.0,2066.0,0.949,0.189,0.039,0.249
4927230,2092.0,830.0,2088.0,0.945,0.198,0.025,0.257
4927256,2508.0,1080.0,2318.0,0.942,0.207,0.01,0.265
4927272,3118.0,522.0,2790.0,0.938,0.216,-0.004,0.272
4927289,3770.0,2042.0,2882.0,0.932,0.227,-0.019,0.28
4927305,4124.0,3372.0,3454.0,0.927,0.237,-0.036,0.288
4927321,4344.0,1804.0,3386.0,0.921,0.247,-0.054,0.296
4927337,4786.0,1646.0,3760.0,0.914,0.26,-0.073,0.303
4927353,5230.0,3626.0,3950.0,0.905,0.275,-0.094,0.311
4927379,6062.0,3978.0,4376.0,0.896,0.289,-0.116,0.318
4927395,6032.0,3372.0,4938.0,0.885,0.304,-0.139,0.326
4927411,6846.0,3848.0,5084.0,0.872,0.32,-0.162,0.334
4927427,7726.0,3550.0,4266.0,0.858,0.337,-0.185,0.341
4927443,8628.0,3864.0,4296.0,0.843,0.354,-0.206,0.349
4927459,8916.0,4074.0,4546.0,0.827,0.371,-0.224,0.357
4927485,9642.0,4934.0,4722.0,0.811,0.388,-0.242,0.366
4927501,9792.0,4978.0,5574.0,0.793,0.404,-0.26,0.375
4927517,9722.0,3190.0,4772.0,0.775,0.419,-0.276,0.384
4927533,10996.0,3926.0,3488.0,0.755,0.436,-0.29,0.395
4927549,11134.0,4556.0,3566.0,0.734,0.452,-0.301,0.408
4927575,11244.0,5500.0,4112.0,0.714,0.465,-0.31,0.422
4927591,10720.0,5862.0,4268.0,0.693,0.477,-0.32,0.435
4927607,10614.0,4902.0,3106.0,0.673,0.487,-0.33,0.448
4927624,10714.0,4366.0,3134.0,0.653,0.496,-0.341,0.461
4927640,11390.0,4408.0,3288.0,0.633,0.504,-0.35,0.472
4927657,12006.0,4580.0,3040.0,0.612,0.511,-0.36,0.485
4927673,11466.0,4696.0,2626.0,0.591,0.518,-0.368,0.497
4927690,10880.0,5202.0,2872.0,0.57,0.523,-0.378,0.509
4927716,10700.0,4292.0,2944.0,0.549,0.527,-0.39,0.519
4927732,10958.0,3924.0,2782.0,0.529,0.53,-0.403,0.527
4927748,11138.0,3618.0,2240.0,0.509,0.532,-0.416,0.534
4927764,10992.0,3254.0,1688.0,0.489,0.533,-0.429,0.541
4927780,10854.0,3044.0,1548.0,0.469,0.533,-0.441,0.549
4927796,11164.0,3014.0,1460.0,0.45,0.532,-0.452,0.556
4927822,10372.0,2690.0,1696.0,0.432,0.531,-0.464,0.562
4927838,10454.0,2974.0,1570.0,0.416,0.529,-0.474,0.568
4927854,9992.0,2852.0,1722.0,0.4,0.526,-0.485,0.572
4927870,10062.0,2804.0,1520.0,0.387,0.523,-0.496,0.576
4927886,9976.0,2842.0,1286.0,0.375,0.519,-0.506,0.578
4927902,9676.0,2160.0,1390.0,0.366,0.514,-0.516,0.579
4927928,9210.0,1648.0,1780.0,0.359,0.511,-0.524,0.579
4927944,9158.0,1766.0,1496.0,0.353,0.508,-0.531,0.579
4927960,9160.0,2144.0,1306.0,0.349,0.506,-0.537,0.578
4927977,8828.0,1880.0,1526.0,0.347,0.503,-0.542,0.577
4927993,8522.0,1796.0,1790.0,0.347,0.501,-0.545,0.576
4928009,8350.0,1976.0,1958.0,0.348,0.5,-0.547,0.574
4928035,8532.0,1976.0,1866.0,0.351,0.499,-0.549,0.571
4928051,8768.0,2398.0,1804.0,0.355,0.498,-0.552,0.567
4928067,8996.0,2528.0,2032.0,0.362,0.496,-0.553,0.563
4928083,8742.0,2046.0,1758.0,0.371,0.494,-0.554,0.558
4928099,9286.0,2346.0,2244.0,0.381,0.492,-0.554,0.553
4928115,9208.0,2546.0,2000.0,0.393,0.49,-0.553,0.548
4928141,9548.0,2300.0,2176.0,0.407,0.488,-0.551,0.542
4928157,9720.0,1316.0,2276.0,0.422,0.486,-0.547,0.536
4928173,10106.0,968.0,2064.0,0.438,0.484,-0.54,0.531
4928189,10042.0,2564.0,2156.0,0.454,0.483,-0.532,0.527
4928205,10914.0,3658.0,2766.0,0.473,0.48,-0.523,0.522
4928221,11118.0,2168.0,2596.0,0.492,0.476,-0.514,0.517
4928247,11692.0,2238.0,2424.0,0.513,0.472,-0.502,0.512
4928263,11980.0,3058.0,2772.0,0.535,0.467,-0.489,0.506
4928280,11922.0,2280.0,3146.0,0.558,0.461,-0.476,0.5
4928296,12372.0,1278.0,2670.0,0.58,0.456,-0.46,0.494
4928312,13024.0,3648.0,1948.0,0.603,0.45,-0.443,0.488
4928328,13382.0,3378.0,2614.0,0.626,0.442,-0.425,0.482
4928344,13312.0,1630.0,2674.0,0.649,0.434,-0.405,0.476
4928370,13156.0,1652.0,2536.0,0.671,0.427,-0.383,0.471
4928386,13272.0,3188.0,2790.0,0.692,0.42,-0.359,0.464
4928402,12664.0,2916.0,3352.0,0.714,0.411,-0.335,0.457
4928418,11972.0,1792.0,3464.0,0.734,0.404,-0.311,0.448
4928434,11560.0,3668.0,3118.0,0.753,0.398,-0.286,0.438
4928460,10540.0,3124.0,3850.0,0.772,0.389,-0.264,0.427
4928476,9848.0,2160.0,3944.0,0.79,0.382,-0.242,0.415
4928492,9216.0,2628.0,4062.0,0.806,0.375,-0.22,0.402
4928508,8334.0,3708.0,4164.0,0.82,0.367,-0.201,0.389
4928524,8154.0,2956.0,3464.0,0.834,0.359,-0.182,0.377
4928540,7678.0,2164.0,3228.0,0.846,0.352,-0.164,0.365
4928557,6336.0,2514.0,4134.0,0.857,0.345,-0.147,0.353
4928583,5190.0,3152.0,5184.0,0.867,0.339,-0.132,0.34
4928599,4178.0,2408.0,5438.0,0.876,0.334,-0.122,0.326
4928615,3476.0,1558.0,5276.0,0.883,0.333,-0.114,0.312
4928631,3650.0,2544.0,4224.0,0.887,0.335,-0.109,0.297
4928647,4808.0,6332.0,2712.0,0.892,0.335,-0.106,0.284
4928673,4934.0,4530.0,2970.0,0.899,0.327,-0.102,0.273
4928690,3300.0,-878.0,3736.0,0.905,0.32,-0.098,0.264
4928706,3460.0,2036.0,2790.0,0.909,0.319,-0.093,0.254
4928723,3312.0,2678.0,2708.0,0.912,0.316,-0.087,0.245
4928740,2720.0,2762.0,2966.0,0.916,0.312,-0.08,0.237
4928756,2722.0,2292.0,2542.0,0.921,0.307,-0.073,0.23
4928773,2168.0,1546.0,2060.0,0.924,0.301,-0.065,0.225
4928790,1494.0,910.0,2316.0,0.928,0.295,-0.057,0.221
4928807,416.0,746.0,2104.0,0.931,0.29,-0.049,0.217
4928823,734.0,730.0,1890.0,0.933,0.285,-0.042,0.215
4928840,146.0,354.0,1934.0,0.935,0.28,-0.036,0.213
4928857,-202.0,18.0,1816.0,0.937,0.277,-0.03,0.212
4928884,-442.0,110.0,1594.0,0.938,0.274,-0.025,0.212
4928900,-368.0,-76.0,1446.0,0.938,0.273,-0.021,0.213
4928916,-578.0,302.0,1518.0,0.938,0.271,-0.019,0.216
4928932,-796.0,726.0,1990.0,0.937,0.271,-0.019,0.219
4928948,-858.0,930.0,2204.0,0.936,0.27,-0.023,0.223
4928964,-158.0,672.0,2276.0,0.935,0.27,-0.03,0.228
4928990,272.0,434.0,2386.0,0.933,0.272,-0.039,0.233
4929007,990.0,1330.0,2052.0,0.93,0.274,-0.05,0.24
4929023,1842.0,1590.0,2136.0,0.927,0.275,-0.061,0.248
4929040,2100.0,1276.0,2080.0,0.924,0.276,-0.073,0.256
4929057,2582.0,756.0,2524.0,0.92,0.277,-0.086,0.264
4929073,2866.0,1236.0,2902.0,0.915,0.281,-0.099,0.273
4929089,3652.0,1860.0,3088.0,0.909,0.285,-0.112,0.282
4929115,4050.0,1208.0,3090.0,0.902,0.29,-0.126,0.292
4929131,4548.0,1740.0,3154.0,0.894,0.298,-0.14,0.303
4929147,5182.0,2170.0,3294.0,0.885,0.307,-0.155,0.314
4929163,5518.0,2594.0,3440.0,0.874,0.317,-0.17,0.325
4929179,6530.0,2442.0,3470.0,0.862,0.328,-0.187,0.337
4929195,7008.0,1704.0,3232.0,0.849,0.341,-0.204,0.349
4929211,7506.0,2906.0,3400.0,0.833,0.356,-0.22,0.361
4929237,7834.0,3624.0,3302.0,0.816,0.371,-0.237,0.374
4929253,8488.0,4160.0,3328.0,0.798,0.386,-0.255,0.387
4929269,9046.0,2694.0,3284.0,0.778,0.401,-0.273,0.399
4929285,9610.0,2134.0,3194.0,0.756,0.417,-0.291,0.411
4929301,10212.0,3124.0,2342.0,0.733,0.435,-0.308,0.423
4929327,11664.0,6302.0,2256.0,0.708,0.451,-0.326,0.435
4929343,11088.0,5210.0,3112.0,0.684,0.462,-0.346,0.446
4929359,11754.0,2558.0,2424.0,0.659,0.472,-0.367,0.456
4929375,12722.0,2646.0,1380.0,0.633,0.484,-0.385,0.466
4929391,13966.0,3344.0,496.0,0.607,0.495,-0.4,0.477
4929408,13726.0,2612.0,1056.0,0.58,0.504,-0.412,0.489
4929424,13814.0,2996.0,1078.0,0.553,0.514,-0.422,0.503
4929450,13952.0,4020.0,1036.0,0.526,0.522,-0.431,0.515
4929466,13740.0,3864.0,1058.0,0.5,0.526,-0.442,0.527
4929482,13264.0,2570.0,1182.0,0.475,0.53,-0.452,0.538
4929498,12798.0,2188.0,830.0,0.45,0.533,-0.462,0.548
4929514,12500.0,3002.0,968.0,0.425,0.535,-0.471,0.558
4929530,11950.0,2482.0,1274.0,0.401,0.536,-0.481,0.567
4929556,11988.0,2478.0,1146.0,0.378,0.537,-0.49,0.573
4929573,11234.0,2048.0,1228.0,0.357,0.537,-0.501,0.577
4929589,11770.0,1522.0,912.0,0.337,0.538,-0.511,0.58
4929606,11304.0,1552.0,776.0,0.319,0.537,-0.52,0.582
4929623,10818.0,1280.0,718.0,0.304,0.537,-0.528,0.584
4929639,10194.0,1302.0,1006.0,0.29,0.537,-0.534,0.586
4929656,9690.0,1558.0,1064.0,0.278,0.536,-0.539,0.588
4929673,9160.0,1294.0,1250.0,0.268,0.535,-0.543,0.588
4929690,8840.0,1288.0,1196.0,0.261,0.535,-0.547,0.589
4929716,8568.0,996.0,970.0,0.256,0.536,-0.549,0.588
4929732,8534.0,1010.0,870.0,0.254,0.536,-0.55,0.588
4929748,8528.0,1086.0,746.0,0.253,0.536,-0.549,0.589
4929764,8556.0,1322.0,646.0,0.254,0.536,-0.548,0.589
4929780,8464.0,1494.0,604.0,0.256,0.536,-0.546,0.591
4929796,8592.0,1186.0,842.0,0.261,0.536,-0.543,0.592
4929822,8422.0,804.0,908.0,0.268,0.535,-0.539,0.593
4929839,8734.0,1404.0,838.0,0.276,0.535,-0.534,0.594
4929856,8900.0,1704.0,1106.0,0.285,0.535,-0.529,0.594
4929873,8832.0,2026.0,1024.0,0.296,0.535,-0.525,0.592
4929889,8966.0,1374.0,1276.0,0.309,0.534,-0.521,0.59
4929905,9240.0,1406.0,1662.0,0.323,0.534,-0.516,0.587
4929922,10098.0,1726.0,1152.0,0.337,0.535,-0.511,0.583
4929939,10666.0,2870.0,676.0,0.353,0.534,-0.505,0.579
4929956,11104.0,2426.0,1156.0,0.372,0.532,-0.499,0.574
4929973,10850.0,530.0,1114.0,0.391,0.53,-0.492,0.57
4929999,11452.0,1146.0,1392.0,0.411,0.529,-0.481,0.566
4930015,12106.0,2480.0,1472.0,0.432,0.527,-0.469,0.562
4930031,12484.0,2966.0,1696.0,0.454,0.524,-0.457,0.557
4930047,12340.0,2686.0,1672.0,0.478,0.519,-0.446,0.551
4930063,12244.0,2362.0,1734.0,0.502,0.514,-0.434,0.544
4930079,12532.0,1282.0,1476.0,0.525,0.508,-0.42,0.538
4930105,12504.0,2734.0,1398.0,0.55,0.502,-0.405,0.531
4930122,11742.0,2932.0,1432.0,0.574,0.495,-0.39,0.523
4930139,11982.0,2288.0,1928.0,0.598,0.487,-0.375,0.515
4930156,12114.0,2496.0,1736.0,0.621,0.477,-0.36,0.507
4930173,11712.0,2768.0,2508.0,0.643,0.468,-0.344,0.499
4930189,11316.0,2564.0,2906.0,0.664,0.459,-0.329,0.49
4930206,11528.0,3506.0,2676.0,0.685,0.45,-0.315,0.48
4930223,10882.0,3712.0,3366.0,0.705,0.44,-0.301,0.468
4930239,10690.0,2768.0,3326.0,0.723,0.43,-0.288,0.457
4930256,10360.0,3212.0,2750.0,0.741,0.42,-0.274,0.446
4930282,9860.0,3798.0,3370.0,0.758,0.409,-0.26,0.436
4930298,9310.0,3070.0,3644.0,0.775,0.398,-0.247,0.425
4930314,9080.0,3118.0,3272.0,0.79,0.387,-0.232,0.414
4930330,8400.0,3272.0,4284.0,0.804,0.377,-0.218,0.404
4930346,7848.0,3774.0,3976.0,0.818,0.366,-0.205,0.394
4930362,7320.0,3390.0,3792.0,0.83,0.355,-0.194,0.383
4930388,7274.0,3686.0,3776.0,0.842,0.344,-0.182,0.374
4930405,6996.0,3418.0,3678.0,0.853,0.333,-0.171,0.365
4930422,6600.0,2366.0,3586.0,0.863,0.321,-0.159,0.357
4930438,5678.0,3484.0,3020.0,0.872,0.31,-0.146,0.35
4930455,5342.0,3808.0,3740.0,0.881,0.297,-0.133,0.344
4930471,4750.0,2578.0,3840.0,0.889,0.284,-0.121,0.338
4930488,4660.0,2306.0,3860.0,0.897,0.271,-0.108,0.332
4930505,4092.0,1702.0,4460.0,0.905,0.258,-0.096,0.326
4930522,2998.0,1348.0,4336.0,0.911,0.247,-0.084,0.32
4930539,2680.0,2310.0,4102.0,0.916,0.238,-0.073,0.314
4930565,3446.0,3384.0,3738.0,0.921,0.227,-0.063,0.31
4930581,2648.0,1590.0,4220.0,0.926,0.215,-0.054,0.306
4930597,1810.0,-676.0,4584.0,0.93,0.204,-0.045,0.302
4930613,1802.0,-564.0,4040.0,0.933,0.197,-0.035,0.298
4930629,2014.0,1160.0,3674.0,0.936,0.191,-0.024,0.295
4930645,1318.0,2090.0,2560.0,0.938,0.183,-0.011,0.293
4930671,880.0,1862.0,2954.0,0.94,0.175,0.002,0.292
4930687,962.0,114.0,2734.0,0.942,0.165,0.014,0.291
4930703,200.0,-1932.0,2212.0,0.944,0.157,0.028,0.29
4930719,-844.0,-1894.0,2508.0,0.944,0.153,0.042,0.288
4930735,-1310.0,1514.0,2360.0,0.945,0.15,0.055,0.287
4930751,-1478.0,2776.0,3140.0,0.945,0.144,0.065,0.287
4930777,-2578.0,-506.0,3026.0,0.945,0.138,0.069,0.287
4930793,-2532.0,-1694.0,2554.0,0.946,0.136,0.07,0.287
4930809,-1682.0,-576.0,2268.0,0.946,0.136,0.068,0.286
4930825,-994.0,-56.0,1858.0,0.946,0.137,0.064,0.286
4930842,-654.0,74.0,1906.0,0.946,0.138,0.059,0.287
4930858,-646.0,-284.0,2544.0,0.946,0.141,0.053,0.288
4930884,-648.0,-400.0,2546.0,0.944,0.147,0.046,0.29
4930900,364.0,608.0,2788.0,0.943,0.155,0.036,0.292
4930916,834.0,260.0,2498.0,0.941,0.162,0.026,0.295
4930932,1548.0,888.0,2886.0,0.939,0.171,0.015,0.298
4930948,1446.0,1028.0,3160.0,0.936,0.181,0.004,0.303
4930974,1668.0,566.0,3202.0,0.932,0.192,-0.009,0.308
4930990,1950.0,1002.0,3616.0,0.927,0.205,-0.023,0.314
4931006,2610.0,2060.0,3720.0,0.921,0.219,-0.038,0.321
4931022,3340.0,1462.0,3966.0,0.914,0.234,-0.055,0.329
4931039,3814.0,1210.0,4098.0,0.905,0.251,-0.072,0.337
4931056,4842.0,2258.0,4256.0,0.894,0.271,-0.09,0.346
4931072,5590.0,2572.0,4272.0,0.881,0.293,-0.11,0.355
4931089,6334.0,1396.0,4392.0,0.866,0.316,-0.128,0.365
4931106,7148.0,1016.0,4092.0,0.848,0.343,-0.146,0.376
4931132,8282.0,3602.0,3582.0,0.827,0.375,-0.159,0.388
4931148,9396.0,7378.0,2594.0,0.805,0.403,-0.173,0.4
4931164,10058.0,5552.0,2674.0,0.783,0.426,-0.187,0.413
4931180,9970.0,4192.0,3670.0,0.76,0.448,-0.198,0.427
4931196,10124.0,2802.0,3872.0,0.735,0.472,-0.209,0.44
4931212,10880.0,6106.0,2550.0,0.707,0.497,-0.217,0.454
4931238,11552.0,6506.0,2190.0,0.678,0.519,-0.225,0.469
4931255,11904.0,4728.0,1720.0,0.649,0.539,-0.232,0.484
4931272,11910.0,5632.0,1360.0,0.62,0.558,-0.236,0.499
4931288,11268.0,6680.0,1060.0,0.591,0.574,-0.239,0.514
4931305,11810.0,7286.0,804.0,0.562,0.586,-0.243,0.531
4931322,10684.0,5926.0,396.0,0.532,0.596,-0.248,0.548
4931338,11386.0,5320.0,-74.0,0.501,0.605,-0.251,0.565
4931355,11552.0,8156.0,1076.0,0.473,0.611,-0.253,0.582
4931372,11474.0,8108.0,1446.0,0.446,0.614,-0.26,0.597
4931389,11216.0,5298.0,1214.0,0.421,0.616,-0.268,0.61
4931415,12210.0,5530.0,484.0,0.395,0.618,-0.273,0.622
4931431,12462.0,6536.0,586.0,0.37,0.619,-0.277,0.635
4931447,11802.0,5628.0,1008.0,0.347,0.618,-0.281,0.647
