timestamp,ax,ay,az,q0,q1,q2,q3
3664838,-1828.0,7852.0,903.0,0.645,0.489,0.454,0.372
3664854,-1890.0,7956.0,915.0,0.646,0.489,0.454,0.372
3664870,-1818.0,7874.0,983.0,0.646,0.488,0.454,0.372
3664886,-1846.0,7758.0,949.0,0.646,0.488,0.454,0.372
3664912,-1818.0,7900.0,959.0,0.646,0.488,0.454,0.372
3664928,-1928.0,7860.0,1003.0,0.646,0.488,0.454,0.372
3664944,-1820.0,7986.0,901.0,0.646,0.488,0.454,0.372
3664960,-1788.0,7892.0,837.0,0.647,0.488,0.453,0.372
3664976,-1810.0,7874.0,913.0,0.647,0.488,0.453,0.372
3664992,-1816.0,7790.0,977.0,0.647,0.488,0.453,0.372
3665018,-1806.0,7874.0,971.0,0.647,0.488,0.453,0.372
3665034,-1802.0,8002.0,919.0,0.647,0.488,0.454,0.372
3665050,-1758.0,7896.0,927.0,0.647,0.488,0.454,0.372
3665066,-1818.0,7918.0,927.0,0.647,0.488,0.454,0.372
3665082,-1772.0,7842.0,947.0,0.646,0.488,0.454,0.372
3665098,-1830.0,7848.0,965.0,0.646,0.487,0.454,0.372
3665124,-1874.0,7748.0,1053.0,0.647,0.487,0.455,0.372
3665140,-1856.0,7828.0,937.0,0.647,0.487,0.455,0.371
3665156,-1876.0,7942.0,901.0,0.647,0.487,0.455,0.371
3665172,-1868.0,7826.0,937.0,0.647,0.487,0.455,0.371
3665188,-1864.0,7978.0,955.0,0.647,0.486,0.455,0.371
3665205,-1944.0,7832.0,1071.0,0.647,0.486,0.456,0.371
3665231,-1858.0,7756.0,989.0,0.647,0.486,0.456,0.371
3665247,-1862.0,7840.0,993.0,0.647,0.486,0.456,0.371
3665263,-1944.0,7788.0,1073.0,0.647,0.486,0.456,0.371
3665279,-1896.0,7786.0,1003.0,0.647,0.486,0.456,0.37
3665295,-1924.0,7920.0,863.0,0.647,0.486,0.456,0.37
3665311,-1954.0,8006.0,925.0,0.648,0.485,0.456,0.37
3665337,-1908.0,7696.0,977.0,0.648,0.485,0.456,0.371
3665353,-1906.0,7784.0,1029.0,0.648,0.485,0.456,0.371
3665369,-1934.0,7752.0,1067.0,0.647,0.485,0.456,0.371
3665385,-1920.0,7826.0,953.0,0.647,0.485,0.456,0.371
3665401,-1908.0,7962.0,859.0,0.647,0.485,0.457,0.371
3665417,-1932.0,7882.0,981.0,0.647,0.485,0.457,0.371
3665443,-1894.0,7924.0,967.0,0.646,0.486,0.457,0.371
3665459,-1886.0,7766.0,891.0,0.646,0.486,0.457,0.371
3665475,-1904.0,7856.0,923.0,0.645,0.487,0.458,0.37
3665491,-1888.0,7876.0,943.0,0.645,0.487,0.458,0.37
3665507,-1856.0,7736.0,919.0,0.645,0.487,0.458,0.37
3665523,-1904.0,7824.0,851.0,0.645,0.487,0.458,0.37
3665549,-1870.0,7942.0,885.0,0.645,0.488,0.458,0.37
3665565,-1862.0,7988.0,795.0,0.645,0.488,0.458,0.369
3665581,-1876.0,7874.0,861.0,0.645,0.488,0.458,0.369
3665597,-1942.0,7876.0,871.0,0.645,0.488,0.458,0.369
3665613,-1936.0,7796.0,889.0,0.645,0.488,0.458,0.369
3665629,-1866.0,7864.0,861.0,0.645,0.488,0.458,0.369
3665655,-1940.0,7862.0,855.0,0.645,0.488,0.458,0.369
3665671,-1870.0,8018.0,775.0,0.645,0.488,0.458,0.369
3665687,-1886.0,7818.0,929.0,0.645,0.488,0.458,0.369
3665703,-1972.0,7832.0,931.0,0.645,0.488,0.458,0.369
3665719,-1902.0,7930.0,915.0,0.645,0.488,0.458,0.369
3665745,-1900.0,7780.0,973.0,0.645,0.488,0.458,0.369
3665761,-1944.0,7870.0,855.0,0.645,0.488,0.458,0.369
3665777,-1912.0,7906.0,893.0,0.645,0.488,0.458,0.369
3665793,-1906.0,7882.0,897.0,0.645,0.489,0.458,0.369
3665809,-1856.0,7904.0,763.0,0.645,0.489,0.457,0.369
3665825,-1852.0,7976.0,797.0,0.645,0.489,0.457,0.369
3665851,-1834.0,7878.0,841.0,0.645,0.489,0.457,0.369
3665867,-1866.0,7866.0,905.0,0.645,0.489,0.457,0.369
3665883,-1856.0,7772.0,909.0,0.645,0.489,0.457,0.369
3665899,-1886.0,7876.0,889.0,0.645,0.489,0.457,0.369
3665915,-1920.0,7786.0,861.0,0.645,0.489,0.457,0.369
3665932,-1900.0,7850.0,835.0,0.645,0.489,0.457,0.369
3665948,-1872.0,7986.0,827.0,0.645,0.489,0.457,0.369
3665974,-1902.0,7908.0,899.0,0.645,0.488,0.457,0.369
3665990,-1894.0,7890.0,919.0,0.645,0.488,0.457,0.369
3666006,-1886.0,7782.0,889.0,0.646,0.488,0.457,0.369
3666022,-1896.0,7874.0,903.0,0.646,0.488,0.456,0.369
3666038,-1872.0,7892.0,941.0,0.646,0.488,0.456,0.369
3666055,-1890.0,7914.0,903.0,0.646,0.488,0.456,0.369
3666081,-1896.0,7890.0,925.0,0.646,0.488,0.456,0.369
3666098,-1888.0,7900.0,955.0,0.646,0.488,0.455,0.369
3666114,-1884.0,7790.0,965.0,0.647,0.488,0.455,0.369
3666130,-1874.0,7816.0,923.0,0.647,0.488,0.455,0.369
3666146,-1872.0,7938.0,895.0,0.647,0.488,0.455,0.369
3666162,-1858.0,7882.0,935.0,0.647,0.488,0.455,0.37
3666178,-1866.0,7800.0,929.0,0.647,0.488,0.455,0.37
3666204,-1808.0,7930.0,927.0,0.647,0.488,0.455,0.37
3666220,-1814.0,7766.0,965.0,0.647,0.488,0.454,0.37
3666236,-1850.0,7830.0,989.0,0.647,0.488,0.454,0.37
3666252,-1864.0,7892.0,983.0,0.647,0.488,0.454,0.37
3666268,-1864.0,7910.0,939.0,0.646,0.488,0.454,0.37
3666284,-1884.0,7892.0,979.0,0.646,0.488,0.454,0.371
3666311,-1864.0,7858.0,963.0,0.646,0.488,0.454,0.371
3666327,-1838.0,7888.0,951.0,0.646,0.488,0.454,0.371
3666343,-1842.0,7910.0,961.0,0.646,0.489,0.454,0.371
3666359,-1890.0,7850.0,887.0,0.646,0.489,0.454,0.371
3666375,-1792.0,7900.0,929.0,0.646,0.489,0.454,0.371
3666391,-1802.0,7820.0,955.0,0.646,0.489,0.454,0.371
3666417,-1812.0,7880.0,935.0,0.646,0.489,0.454,0.371
3666433,-1790.0,7876.0,859.0,0.646,0.489,0.454,0.371
3666449,-1804.0,7950.0,923.0,0.646,0.489,0.454,0.371
3666466,-1736.0,7892.0,909.0,0.646,0.489,0.454,0.372
3666482,-1826.0,7876.0,897.0,0.646,0.488,0.454,0.372
3666498,-1852.0,7942.0,883.0,0.646,0.488,0.454,0.372
3666514,-1770.0,7744.0,943.0,0.646,0.488,0.455,0.372
3666540,-1832.0,7920.0,909.0,0.646,0.488,0.455,0.372
3666556,-1820.0,7954.0,883.0,0.646,0.488,0.455,0.372
3666572,-1846.0,7836.0,803.0,0.646,0.488,0.455,0.372
3666588,-1844.0,7982.0,841.0,0.646,0.487,0.455,0.372
3666604,-1920.0,7754.0,1037.0,0.646,0.487,0.455,0.372
3666630,-1852.0,7784.0,1009.0,0.646,0.487,0.455,0.372
3666646,-1864.0,7958.0,921.0,0.646,0.487,0.455,0.372
3666662,-1856.0,7868.0,929.0,0.646,0.487,0.455,0.372
3666678,-1858.0,8026.0,801.0,0.646,0.487,0.455,0.371
3666694,-1846.0,7914.0,919.0,0.647,0.486,0.455,0.372
3666710,-1848.0,7802.0,1029.0,0.647,0.486,0.455,0.372
3666736,-1880.0,7792.0,1065.0,0.647,0.486,0.455,0.372
3666752,-1866.0,7862.0,983.0,0.647,0.485,0.456,0.372
3666768,-1824.0,7872.0,925.0,0.647,0.485,0.456,0.372
3666784,-1868.0,7850.0,981.0,0.647,0.485,0.456,0.372
3666800,-1840.0,7812.0,955.0,0.647,0.485,0.456,0.372
3666816,-1886.0,7816.0,967.0,0.647,0.485,0.456,0.372
3666842,-1864.0,7838.0,1037.0,0.647,0.484,0.456,0.372
3666858,-1880.0,7804.0,975.0,0.647,0.484,0.456,0.372
3666875,-1910.0,7874.0,955.0,0.647,0.484,0.457,0.372
3666891,-1870.0,7858.0,999.0,0.647,0.484,0.457,0.373
3666908,-1878.0,7832.0,1005.0,0.647,0.484,0.457,0.373
3666924,-1846.0,7890.0,925.0,0.647,0.483,0.457,0.373
3666941,-1920.0,7876.0,905.0,0.647,0.483,0.457,0.373
3666957,-1880.0,7766.0,957.0,0.647,0.483,0.457,0.373
3666984,-1884.0,7846.0,977.0,0.647,0.483,0.458,0.373
3667000,-1912.0,7924.0,961.0,0.647,0.482,0.458,0.373
3667016,-1894.0,7880.0,961.0,0.647,0.482,0.458,0.373
3667032,-1908.0,7854.0,929.0,0.647,0.482,0.458,0.374
3667048,-1896.0,7874.0,1011.0,0.647,0.482,0.458,0.374
3667064,-1876.0,7862.0,929.0,0.647,0.482,0.459,0.374
3667081,-1856.0,7896.0,945.0,0.647,0.482,0.459,0.374
3667098,-1928.0,7862.0,947.0,0.647,0.481,0.459,0.374
3667124,-1916.0,7914.0,945.0,0.646,0.481,0.459,0.374
3667141,-1910.0,7824.0,1007.0,0.646,0.481,0.459,0.374
3667157,-1884.0,7774.0,1023.0,0.646,0.481,0.46,0.374
3667173,-1942.0,7830.0,1003.0,0.646,0.481,0.46,0.374
3667189,-1888.0,7884.0,939.0,0.646,0.481,0.46,0.374
3667205,-1978.0,7818.0,987.0,0.646,0.481,0.46,0.374
3667231,-2036.0,7694.0,1093.0,0.646,0.481,0.461,0.374
3667247,-2004.0,7834.0,1107.0,0.645,0.481,0.461,0.374
3667263,-1946.0,7968.0,917.0,0.645,0.481,0.462,0.373
3667279,-1786.0,7882.0,709.0,0.644,0.482,0.462,0.373
3667295,-1840.0,7940.0,735.0,0.644,0.482,0.463,0.373
3667311,-1836.0,7812.0,865.0,0.644,0.482,0.463,0.373
3667337,-1938.0,7738.0,1035.0,0.643,0.482,0.463,0.373
3667353,-1852.0,7854.0,935.0,0.643,0.482,0.464,0.373
3667369,-1858.0,7910.0,777.0,0.642,0.482,0.464,0.373
3667386,-1916.0,7928.0,781.0,0.642,0.482,0.465,0.373
3667402,-1954.0,7788.0,947.0,0.642,0.482,0.465,0.373
3667418,-1972.0,7778.0,985.0,0.642,0.482,0.466,0.373
3667444,-1928.0,7982.0,841.0,0.641,0.482,0.466,0.373
3667460,-1958.0,7872.0,835.0,0.641,0.482,0.467,0.373
3667476,-1940.0,7860.0,797.0,0.641,0.482,0.467,0.373
3667493,-2010.0,7930.0,881.0,0.64,0.482,0.468,0.372
3667509,-1970.0,7778.0,889.0,0.64,0.482,0.468,0.372
3667525,-2022.0,7876.0,869.0,0.64,0.482,0.468,0.372
3667541,-2022.0,7980.0,869.0,0.64,0.483,0.468,0.372
3667568,-2050.0,7868.0,957.0,0.64,0.483,0.468,0.372
3667584,-2040.0,7938.0,913.0,0.639,0.483,0.468,0.372
3667600,-2052.0,8176.0,885.0,0.64,0.484,0.468,0.372
3667616,-2056.0,7930.0,763.0,0.64,0.484,0.467,0.372
3667632,-1882.0,7620.0,769.0,0.64,0.484,0.467,0.372
3667648,-1892.0,7870.0,753.0,0.64,0.485,0.466,0.372
3667674,-1878.0,7982.0,619.0,0.64,0.485,0.466,0.372
3667690,-1856.0,8318.0,735.0,0.64,0.485,0.465,0.373
3667706,-2120.0,7556.0,723.0,0.64,0.485,0.465,0.373
3667723,-1894.0,7694.0,635.0,0.64,0.485,0.465,0.374
3667739,-1882.0,7900.0,707.0,0.64,0.485,0.464,0.374
3667755,-1900.0,7768.0,799.0,0.64,0.485,0.464,0.374
3667771,-1908.0,7950.0,781.0,0.64,0.484,0.465,0.375
3667797,-1912.0,7874.0,757.0,0.64,0.484,0.465,0.375
3667813,-1856.0,7906.0,765.0,0.639,0.484,0.465,0.375
3667829,-1860.0,7910.0,817.0,0.639,0.483,0.465,0.376
3667845,-1912.0,7768.0,829.0,0.639,0.483,0.465,0.376
3667861,-1892.0,7874.0,837.0,0.639,0.483,0.465,0.377
3667877,-1900.0,7938.0,817.0,0.639,0.482,0.466,0.377
3667903,-1892.0,7836.0,849.0,0.639,0.482,0.466,0.377
3667919,-1884.0,7908.0,845.0,0.639,0.482,0.466,0.377
3667935,-1904.0,7932.0,867.0,0.64,0.481,0.466,0.377
3667951,-1868.0,7874.0,861.0,0.64,0.481,0.465,0.378
3667967,-1846.0,7924.0,925.0,0.64,0.481,0.465,0.378
3667993,-1848.0,7912.0,941.0,0.641,0.48,0.465,0.378
3668009,-1886.0,7916.0,923.0,0.641,0.48,0.465,0.378
3668025,-1882.0,7920.0,893.0,0.642,0.48,0.464,0.378
3668041,-1882.0,7924.0,913.0,0.642,0.479,0.464,0.378
3668057,-1964.0,7738.0,1069.0,0.643,0.479,0.463,0.378
3668073,-1936.0,7892.0,959.0,0.643,0.479,0.463,0.378
3668099,-1914.0,7884.0,921.0,0.644,0.478,0.462,0.378
3668115,-1926.0,7826.0,997.0,0.644,0.478,0.462,0.378
3668131,-1944.0,7852.0,985.0,0.645,0.478,0.461,0.378
3668147,-1962.0,7798.0,951.0,0.645,0.478,0.461,0.378
3668163,-1962.0,7762.0,1105.0,0.646,0.477,0.46,0.378
3668179,-1958.0,7796.0,1035.0,0.646,0.477,0.46,0.378
3668205,-1912.0,7892.0,971.0,0.647,0.477,0.46,0.378
3668222,-1938.0,7792.0,945.0,0.647,0.477,0.459,0.378
3668238,-1958.0,7920.0,995.0,0.647,0.477,0.459,0.378
3668254,-1876.0,7876.0,1095.0,0.648,0.477,0.458,0.378
3668270,-1900.0,7788.0,1095.0,0.648,0.477,0.458,0.378
3668286,-1938.0,7820.0,1021.0,0.648,0.477,0.458,0.378
3668302,-1840.0,7904.0,1033.0,0.648,0.477,0.458,0.378
3668328,-1896.0,7798.0,1145.0,0.648,0.477,0.457,0.379
3668344,-1882.0,7952.0,1169.0,0.648,0.477,0.457,0.379
3668360,-1918.0,7854.0,1051.0,0.648,0.477,0.457,0.379
3668376,-1832.0,7890.0,1073.0,0.649,0.477,0.456,0.379
3668392,-1848.0,7822.0,1091.0,0.649,0.477,0.456,0.379
3668408,-1852.0,7754.0,1139.0,0.649,0.477,0.456,0.379
3668434,-1890.0,7888.0,1049.0,0.649,0.477,0.455,0.379
3668450,-1884.0,8056.0,1023.0,0.649,0.477,0.455,0.379
3668466,-1852.0,7800.0,1197.0,0.65,0.477,0.454,0.38
3668482,-1806.0,7828.0,1161.0,0.65,0.477,0.454,0.38
3668498,-1830.0,7862.0,1061.0,0.65,0.477,0.453,0.38
3668515,-1810.0,7874.0,1065.0,0.65,0.477,0.453,0.38
3668541,-1828.0,7856.0,1117.0,0.65,0.477,0.453,0.38
3668557,-1816.0,7874.0,1117.0,0.651,0.477,0.452,0.38
3668573,-1848.0,7760.0,1237.0,0.651,0.477,0.452,0.38
3668589,-1806.0,7930.0,1109.0,0.651,0.477,0.451,0.38
3668605,-1854.0,7882.0,1147.0,0.652,0.477,0.451,0.381
3668622,-1814.0,7784.0,1193.0,0.652,0.477,0.451,0.381
3668638,-1822.0,7812.0,1197.0,0.652,0.477,0.45,0.381
3668665,-1838.0,7852.0,1185.0,0.652,0.477,0.45,0.381
3668681,-1794.0,7840.0,1205.0,0.652,0.477,0.45,0.381
3668697,-1840.0,7896.0,1093.0,0.653,0.477,0.449,0.381
3668713,-1806.0,7864.0,1235.0,0.653,0.476,0.449,0.381
3668729,-1748.0,7796.0,1179.0,0.653,0.476,0.449,0.381
3668745,-1832.0,7914.0,1257.0,0.653,0.476,0.449,0.381
3668771,-1832.0,7824.0,1229.0,0.653,0.476,0.448,0.381
3668787,-1770.0,7834.0,1197.0,0.654,0.476,0.448,0.381
3668803,-1828.0,7862.0,1205.0,0.654,0.476,0.448,0.382
3668820,-1770.0,7792.0,1271.0,0.654,0.476,0.447,0.382
3668836,-1730.0,7870.0,1235.0,0.654,0.476,0.447,0.382
3668853,-1818.0,7806.0,1255.0,0.654,0.476,0.447,0.382
3668870,-1782.0,7882.0,1227.0,0.654,0.476,0.446,0.382
3668887,-1736.0,7866.0,1227.0,0.654,0.476,0.446,0.382
3668904,-1780.0,7860.0,1241.0,0.655,0.476,0.446,0.382
3668931,-1800.0,7830.0,1321.0,0.655,0.476,0.445,0.382
3668947,-1792.0,7784.0,1299.0,0.655,0.476,0.445,0.382
3668963,-1730.0,7884.0,1199.0,0.655,0.476,0.445,0.382
3668979,-1768.0,7806.0,1225.0,0.655,0.476,0.445,0.382
3668995,-1770.0,7814.0,1217.0,0.655,0.476,0.445,0.383
3669011,-1746.0,7832.0,1249.0,0.655,0.476,0.444,0.383
3669037,-1740.0,7848.0,1243.0,0.655,0.476,0.444,0.383
3669053,-1714.0,7874.0,1215.0,0.656,0.476,0.444,0.383
3669069,-1710.0,7824.0,1229.0,0.656,0.476,0.444,0.383
3669085,-1790.0,7730.0,1353.0,0.656,0.476,0.444,0.383
3669101,-1786.0,7854.0,1307.0,0.656,0.476,0.444,0.383
3669117,-1754.0,7938.0,1273.0,0.656,0.475,0.444,0.383
3669143,-1802.0,7888.0,1235.0,0.656,0.475,0.443,0.383
3669159,-1744.0,7896.0,1223.0,0.656,0.475,0.443,0.384
3669175,-1804.0,7876.0,1327.0,0.656,0.475,0.443,0.384
3669191,-1790.0,7878.0,1329.0,0.656,0.475,0.443,0.384
3669207,-1772.0,7934.0,1291.0,0.657,0.475,0.442,0.384
3669223,-1726.0,7912.0,1277.0,0.657,0.475,0.442,0.384
3669249,-1698.0,7836.0,1207.0,0.657,0.475,0.441,0.385
3669265,-1690.0,7834.0,1245.0,0.657,0.475,0.441,0.385
3669281,-1658.0,7886.0,1309.0,0.657,0.475,0.44,0.385
3669297,-1690.0,7826.0,1331.0,0.658,0.474,0.44,0.386
3669313,-1642.0,7824.0,1333.0,0.658,0.474,0.44,0.386
3669329,-1690.0,7790.0,1297.0,0.658,0.473,0.44,0.386
3669355,-1668.0,7758.0,1269.0,0.659,0.472,0.44,0.386
3669371,-1758.0,7826.0,1375.0,0.659,0.472,0.44,0.386
3669387,-1782.0,7786.0,1483.0,0.66,0.471,0.44,0.386
3669403,-1828.0,7748.0,1487.0,0.66,0.471,0.44,0.386
3669419,-1770.0,7796.0,1399.0,0.66,0.47,0.441,0.386
3669435,-1756.0,7716.0,1453.0,0.66,0.47,0.441,0.386
3669461,-1756.0,7838.0,1489.0,0.661,0.47,0.441,0.385
3669477,-1792.0,7786.0,1527.0,0.661,0.469,0.441,0.385
3669493,-1782.0,7872.0,1411.0,0.661,0.469,0.441,0.385
3669509,-1764.0,7770.0,1495.0,0.661,0.469,0.441,0.384
3669525,-1752.0,7762.0,1465.0,0.662,0.469,0.441,0.384
3669541,-1770.0,7770.0,1467.0,0.662,0.469,0.442,0.384
3669567,-1812.0,7756.0,1397.0,0.662,0.469,0.442,0.384
3669583,-1764.0,7832.0,1519.0,0.661,0.468,0.442,0.384
3669599,-1820.0,7794.0,1479.0,0.661,0.468,0.443,0.384
3669615,-1858.0,7714.0,1515.0,0.661,0.468,0.443,0.384
3669631,-1800.0,7804.0,1473.0,0.661,0.468,0.444,0.384
3669647,-1860.0,7748.0,1443.0,0.661,0.468,0.444,0.384
3669673,-1824.0,7774.0,1405.0,0.66,0.468,0.445,0.384
3669689,-1798.0,7668.0,1513.0,0.66,0.468,0.446,0.384
3669705,-1824.0,7724.0,1417.0,0.659,0.468,0.446,0.383
3669721,-1836.0,7828.0,1301.0,0.659,0.469,0.447,0.383
3669737,-1862.0,7848.0,1299.0,0.658,0.469,0.448,0.383
3669763,-1852.0,7836.0,1291.0,0.658,0.469,0.448,0.383
3669779,-1822.0,7820.0,1325.0,0.657,0.469,0.449,0.383
3669795,-1836.0,7806.0,1269.0,0.656,0.47,0.45,0.383
3669811,-1844.0,7808.0,1289.0,0.656,0.47,0.451,0.382
3669827,-1862.0,7874.0,1185.0,0.655,0.471,0.451,0.382
3669843,-1918.0,7938.0,1235.0,0.654,0.471,0.452,0.382
3669869,-1912.0,7766.0,1233.0,0.654,0.471,0.453,0.382
3669885,-1892.0,7948.0,1057.0,0.653,0.471,0.453,0.382
3669902,-1966.0,7960.0,1089.0,0.652,0.472,0.454,0.382
3669919,-1930.0,7818.0,1111.0,0.652,0.472,0.454,0.382
3669936,-1950.0,7976.0,1083.0,0.651,0.472,0.455,0.382
3669953,-1980.0,7986.0,1085.0,0.651,0.472,0.455,0.382
3669970,-1960.0,7788.0,1165.0,0.651,0.472,0.455,0.382
3669987,-1936.0,7802.0,1079.0,0.651,0.472,0.455,0.382
3670003,-1932.0,7890.0,1073.0,0.651,0.472,0.455,0.382
3670020,-1938.0,7882.0,1127.0,0.651,0.472,0.455,0.382
3670046,-1870.0,7872.0,1133.0,0.651,0.472,0.455,0.382
3670062,-1928.0,7830.0,1051.0,0.651,0.472,0.455,0.381
3670078,-1894.0,7904.0,997.0,0.652,0.472,0.455,0.381
3670094,-1918.0,7786.0,1157.0,0.652,0.472,0.455,0.381
3670110,-1920.0,7840.0,1081.0,0.652,0.471,0.455,0.381
3670126,-1992.0,7900.0,1221.0,0.652,0.471,0.455,0.381
3670152,-1938.0,7742.0,1187.0,0.653,0.471,0.455,0.381
3670169,-1944.0,7868.0,1195.0,0.653,0.471,0.455,0.381
3670186,-1918.0,7740.0,1235.0,0.653,0.47,0.455,0.381
3670203,-1890.0,7764.0,1145.0,0.653,0.47,0.455,0.381
3670220,-1842.0,7880.0,1177.0,0.653,0.47,0.455,0.381
3670237,-1880.0,7862.0,1221.0,0.653,0.47,0.455,0.381
3670254,-1896.0,7816.0,1305.0,0.654,0.47,0.454,0.381
3670271,-1890.0,7726.0,1327.0,0.654,0.47,0.454,0.381
3670287,-1918.0,7796.0,1239.0,0.654,0.47,0.454,0.381
3670304,-1818.0,7732.0,1261.0,0.654,0.47,0.455,0.381
3670321,-1776.0,7668.0,1317.0,0.653,0.47,0.455,0.381
3670347,-1832.0,7656.0,1347.0,0.653,0.47,0.455,0.381
3670363,-1828.0,7728.0,1247.0,0.652,0.47,0.456,0.381
3670379,-1828.0,7794.0,1189.0,0.652,0.471,0.457,0.381
3670395,-1844.0,7776.0,1161.0,0.651,0.471,0.458,0.381
3670411,-1832.0,7702.0,1269.0,0.65,0.471,0.459,0.381
3670427,-1856.0,7622.0,1353.0,0.649,0.471,0.46,0.381
3670453,-1868.0,7658.0,1269.0,0.647,0.471,0.462,0.381
3670469,-1916.0,7906.0,1047.0,0.646,0.472,0.463,0.381
3670485,-1938.0,7810.0,1103.0,0.645,0.472,0.465,0.381
3670501,-1882.0,7718.0,1129.0,0.643,0.473,0.467,0.381
3670517,-1914.0,7664.0,1285.0,0.641,0.474,0.468,0.381
3670533,-2006.0,7570.0,1311.0,0.639,0.475,0.47,0.381
3670559,-2014.0,7774.0,1137.0,0.637,0.477,0.472,0.38
3670575,-1898.0,8076.0,905.0,0.634,0.479,0.474,0.38
3670591,-1854.0,7866.0,895.0,0.631,0.48,0.476,0.38
3670607,-1846.0,7544.0,1141.0,0.628,0.483,0.479,0.379
3670624,-1742.0,7746.0,983.0,0.624,0.485,0.482,0.379
3670641,-2042.0,8224.0,559.0,0.619,0.487,0.486,0.378
3670657,-1812.0,8006.0,651.0,0.614,0.49,0.49,0.377
3670683,-1766.0,7816.0,233.0,0.609,0.492,0.496,0.376
3670700,-1596.0,7978.0,-107.0,0.603,0.494,0.502,0.375
3670716,-1370.0,8018.0,-171.0,0.598,0.495,0.507,0.375
3670732,-1386.0,7620.0,-61.0,0.593,0.496,0.512,0.374
3670748,-1476.0,7714.0,-393.0,0.588,0.497,0.518,0.373
3670764,-1494.0,7718.0,-375.0,0.582,0.499,0.524,0.371
3670780,-1606.0,7924.0,-363.0,0.575,0.501,0.53,0.369
3670806,-1256.0,7946.0,-461.0,0.569,0.503,0.536,0.367
3670822,-1192.0,8288.0,-615.0,0.564,0.505,0.542,0.365
3670838,-1076.0,8268.0,-1147.0,0.558,0.506,0.548,0.362
3670854,-1206.0,7786.0,-1523.0,0.552,0.508,0.555,0.36
3670870,-986.0,7924.0,-1543.0,0.546,0.509,0.561,0.357
3670886,-1644.0,7848.0,-1181.0,0.54,0.511,0.568,0.353
3670912,-1990.0,8338.0,-1505.0,0.535,0.512,0.575,0.35
3670928,-1960.0,8056.0,-1671.0,0.53,0.512,0.58,0.346
3670944,-2070.0,8400.0,-1663.0,0.527,0.513,0.585,0.341
3670960,-1868.0,8116.0,-1597.0,0.524,0.514,0.589,0.337
3670976,-1820.0,7880.0,-1809.0,0.521,0.516,0.592,0.333
3671002,-1708.0,8022.0,-1547.0,0.519,0.518,0.595,0.33
3671020,-1712.0,8424.0,-1297.0,0.516,0.519,0.597,0.328
3671037,-1524.0,8130.0,-1145.0,0.514,0.52,0.599,0.328
3671053,-1744.0,7878.0,-1085.0,0.512,0.52,0.599,0.33
3671070,-1728.0,7546.0,-1043.0,0.509,0.52,0.599,0.333
3671086,-1656.0,7220.0,-851.0,0.507,0.52,0.598,0.338
3671103,-1726.0,7492.0,-873.0,0.505,0.521,0.596,0.344
3671120,-1258.0,7052.0,-1131.0,0.503,0.521,0.594,0.35
3671137,-1264.0,7174.0,-1027.0,0.501,0.521,0.592,0.357
3671154,-932.0,7462.0,-1117.0,0.498,0.521,0.589,0.365
3671171,-844.0,7476.0,-1077.0,0.494,0.521,0.586,0.375
3671188,-714.0,7164.0,-1055.0,0.491,0.521,0.582,0.385
3671214,-442.0,7358.0,-1143.0,0.488,0.52,0.577,0.397
3671230,-296.0,7434.0,-1367.0,0.485,0.519,0.571,0.412
3671246,134.0,6838.0,-1635.0,0.483,0.517,0.563,0.427
3671262,278.0,6934.0,-1717.0,0.479,0.515,0.556,0.443
3671279,18.0,7238.0,-1249.0,0.475,0.513,0.547,0.46
3671295,-168.0,7428.0,-863.0,0.471,0.511,0.537,0.478
3671312,330.0,7824.0,-1459.0,0.467,0.509,0.526,0.496
3671339,384.0,7534.0,-1689.0,0.463,0.507,0.514,0.514
3671355,598.0,7754.0,-1313.0,0.46,0.505,0.501,0.532
3671371,570.0,7604.0,-1037.0,0.457,0.503,0.487,0.549
3671387,544.0,7794.0,-837.0,0.454,0.502,0.472,0.565
3671404,810.0,7812.0,-849.0,0.451,0.502,0.456,0.581
3671420,1058.0,7314.0,-449.0,0.448,0.502,0.439,0.596
3671436,1312.0,7434.0,-365.0,0.444,0.504,0.422,0.609
3671463,1390.0,7500.0,23.0,0.441,0.507,0.405,0.621
3671479,1484.0,7328.0,359.0,0.437,0.51,0.387,0.631
3671495,1990.0,6996.0,283.0,0.433,0.515,0.369,0.641
3671511,2330.0,6834.0,319.0,0.429,0.52,0.352,0.649
3671527,2584.0,7012.0,525.0,0.424,0.525,0.336,0.657
3671543,2810.0,7468.0,657.0,0.42,0.531,0.319,0.664
3671559,2852.0,6756.0,855.0,0.414,0.536,0.303,0.67
3671585,3220.0,6746.0,1045.0,0.409,0.542,0.287,0.676
3671602,3712.0,6158.0,1129.0,0.402,0.549,0.272,0.68
3671619,3782.0,5942.0,1471.0,0.395,0.556,0.258,0.684
3671636,4280.0,7184.0,1189.0,0.388,0.563,0.246,0.687
3671653,4438.0,7216.0,1377.0,0.382,0.57,0.233,0.689
3671669,4714.0,6576.0,1441.0,0.374,0.577,0.22,0.692
3671686,4998.0,6110.0,1601.0,0.367,0.584,0.208,0.693
3671702,5354.0,5814.0,1647.0,0.36,0.592,0.197,0.694
3671719,5814.0,6730.0,1515.0,0.352,0.599,0.187,0.694
3671745,6004.0,6682.0,1521.0,0.344,0.607,0.176,0.694
3671761,6302.0,6348.0,1629.0,0.336,0.615,0.166,0.694
3671777,6312.0,5528.0,1643.0,0.329,0.622,0.155,0.693
3671793,6562.0,6266.0,1673.0,0.322,0.629,0.146,0.692
3671809,6676.0,5864.0,1633.0,0.315,0.636,0.135,0.691
3671835,6712.0,5432.0,1595.0,0.309,0.642,0.125,0.69
3671851,7338.0,5822.0,1433.0,0.304,0.648,0.114,0.689
3671867,7422.0,5020.0,1119.0,0.299,0.653,0.103,0.688
3671883,7392.0,4086.0,1229.0,0.293,0.657,0.093,0.688
3671899,7624.0,3922.0,1273.0,0.288,0.661,0.084,0.688
3671915,7788.0,4450.0,1191.0,0.281,0.665,0.076,0.688
3671931,8102.0,4870.0,1257.0,0.276,0.667,0.069,0.689
3671957,7976.0,3978.0,1333.0,0.271,0.669,0.061,0.69
3671973,8088.0,3400.0,1135.0,0.266,0.67,0.054,0.691
3671989,8118.0,3274.0,1109.0,0.261,0.672,0.048,0.692
3672005,8066.0,3774.0,1407.0,0.256,0.673,0.043,0.693
3672021,8306.0,4078.0,1365.0,0.251,0.673,0.039,0.694
3672047,7960.0,3908.0,1289.0,0.248,0.674,0.034,0.695
3672063,7792.0,3260.0,1539.0,0.246,0.674,0.028,0.696
3672079,8110.0,3236.0,1279.0,0.244,0.675,0.024,0.696
3672095,8220.0,3122.0,1107.0,0.243,0.676,0.019,0.695
3672111,8002.0,3100.0,1091.0,0.241,0.677,0.015,0.695
3672127,7974.0,2962.0,1313.0,0.241,0.678,0.011,0.695
3672143,8184.0,3022.0,1103.0,0.24,0.679,0.008,0.694
3672169,8202.0,3020.0,967.0,0.24,0.679,0.005,0.693
3672185,8368.0,3000.0,861.0,0.24,0.68,0.002,0.693
3672202,8522.0,2934.0,823.0,0.239,0.681,-0.0,0.692
3672219,8872.0,2772.0,747.0,0.239,0.682,-0.003,0.691
3672235,9500.0,2732.0,669.0,0.237,0.683,-0.005,0.691
3672252,10344.0,2470.0,717.0,0.235,0.684,-0.006,0.691
3672269,9686.0,2870.0,907.0,0.233,0.685,-0.006,0.69
3672285,8168.0,2830.0,1455.0,0.232,0.687,-0.007,0.689
3672302,7718.0,2600.0,1315.0,0.233,0.689,-0.009,0.686
3672329,7066.0,2430.0,921.0,0.234,0.693,-0.01,0.682
3672345,6488.0,2470.0,845.0,0.236,0.696,-0.012,0.678
3672361,6202.0,2468.0,667.0,0.238,0.7,-0.014,0.673
3672377,5930.0,2098.0,475.0,0.24,0.703,-0.015,0.669
3672393,5864.0,1948.0,269.0,0.24,0.706,-0.017,0.666
3672409,5894.0,2176.0,273.0,0.241,0.708,-0.018,0.664
3672435,5958.0,1860.0,281.0,0.241,0.709,-0.018,0.662
3672452,6362.0,2538.0,115.0,0.24,0.71,-0.019,0.662
3672469,7078.0,2644.0,-243.0,0.239,0.709,-0.02,0.663
3672485,7458.0,2046.0,-347.0,0.238,0.708,-0.021,0.665
3672501,7912.0,2140.0,39.0,0.236,0.705,-0.02,0.669
3672518,8332.0,2310.0,287.0,0.233,0.702,-0.019,0.673
3672535,8032.0,2652.0,571.0,0.23,0.699,-0.019,0.677
3672552,7930.0,3256.0,1043.0,0.228,0.696,-0.019,0.681
3672569,8288.0,3222.0,987.0,0.228,0.694,-0.02,0.683
3672595,8518.0,2296.0,613.0,0.228,0.692,-0.023,0.684
3672612,8378.0,2314.0,603.0,0.228,0.691,-0.025,0.685
3672628,8348.0,2226.0,609.0,0.228,0.691,-0.027,0.685
3672644,8286.0,2152.0,599.0,0.229,0.691,-0.028,0.685
3672660,8138.0,2254.0,471.0,0.23,0.691,-0.029,0.685
3672677,7916.0,2434.0,333.0,0.231,0.691,-0.029,0.685
3672693,7842.0,2344.0,327.0,0.232,0.691,-0.03,0.684
3672710,7854.0,2292.0,321.0,0.233,0.691,-0.03,0.684
3672736,7954.0,2156.0,201.0,0.234,0.691,-0.03,0.683
3672752,7612.0,2026.0,359.0,0.236,0.691,-0.03,0.682
3672768,7750.0,2202.0,437.0,0.237,0.691,-0.03,0.682
3672785,7772.0,2536.0,279.0,0.238,0.692,-0.029,0.681
3672801,7792.0,2542.0,199.0,0.24,0.692,-0.03,0.68
3672818,7658.0,2228.0,397.0,0.241,0.692,-0.031,0.68
3672834,7662.0,2342.0,341.0,0.242,0.692,-0.031,0.68
3672860,7464.0,2272.0,479.0,0.244,0.691,-0.032,0.679
3672876,7504.0,2044.0,415.0,0.245,0.691,-0.034,0.679
3672892,7616.0,2152.0,361.0,0.246,0.691,-0.035,0.679
3672908,7888.0,2390.0,229.0,0.247,0.691,-0.036,0.678
3672924,7868.0,2292.0,215.0,0.249,0.691,-0.037,0.678
3672940,7914.0,2174.0,267.0,0.25,0.691,-0.038,0.678
3672966,7866.0,2278.0,327.0,0.251,0.69,-0.039,0.677
3672982,7968.0,2210.0,313.0,0.252,0.69,-0.04,0.677
3672998,7930.0,2058.0,343.0,0.253,0.69,-0.041,0.677
3673014,8024.0,2146.0,257.0,0.254,0.69,-0.042,0.676
3673031,7864.0,2248.0,293.0,0.254,0.691,-0.042,0.676
3673047,7898.0,2310.0,299.0,0.255,0.691,-0.043,0.675
3673063,7742.0,2254.0,365.0,0.256,0.691,-0.044,0.675
3673090,7642.0,1860.0,351.0,0.257,0.691,-0.046,0.674
3673106,7616.0,2116.0,395.0,0.257,0.692,-0.047,0.673
3673123,7812.0,2300.0,391.0,0.258,0.692,-0.048,0.672
3673139,7788.0,2032.0,333.0,0.258,0.693,-0.049,0.672
3673155,7768.0,2292.0,315.0,0.258,0.693,-0.051,0.671
3673171,7838.0,2268.0,333.0,0.258,0.694,-0.053,0.67
3673187,7802.0,2138.0,289.0,0.258,0.694,-0.055,0.67
3673213,7786.0,2110.0,343.0,0.258,0.694,-0.057,0.67
3673229,7882.0,2192.0,341.0,0.259,0.694,-0.059,0.669
3673245,7912.0,2154.0,269.0,0.259,0.694,-0.061,0.669
3673261,7830.0,2072.0,325.0,0.259,0.694,-0.063,0.668
3673277,7864.0,1946.0,423.0,0.26,0.694,-0.065,0.668
3673303,7992.0,2260.0,447.0,0.26,0.694,-0.067,0.668
3673319,8036.0,2250.0,247.0,0.261,0.694,-0.069,0.667
3673335,8002.0,2130.0,347.0,0.261,0.694,-0.072,0.667
3673351,7908.0,2276.0,401.0,0.262,0.694,-0.074,0.667
3673367,7926.0,2426.0,403.0,0.264,0.693,-0.077,0.666
3673383,7890.0,1772.0,439.0,0.266,0.693,-0.08,0.665
3673400,8066.0,2044.0,397.0,0.268,0.692,-0.083,0.665
3673426,8036.0,2138.0,351.0,0.27,0.692,-0.086,0.664
3673443,7948.0,2008.0,365.0,0.272,0.692,-0.089,0.663
3673460,7956.0,2202.0,413.0,0.275,0.691,-0.092,0.662
3673476,8124.0,2200.0,439.0,0.278,0.691,-0.096,0.661
3673492,8222.0,2048.0,457.0,0.282,0.69,-0.1,0.659
3673509,8216.0,1950.0,385.0,0.285,0.689,-0.103,0.658
3673526,8172.0,2246.0,531.0,0.289,0.689,-0.107,0.656
3673543,8330.0,1758.0,537.0,0.294,0.688,-0.112,0.654
3673560,8316.0,1648.0,445.0,0.299,0.687,-0.116,0.652
3673586,8422.0,2002.0,351.0,0.304,0.687,-0.12,0.649
3673602,8550.0,2400.0,269.0,0.31,0.686,-0.124,0.647
3673618,8434.0,1938.0,421.0,0.316,0.685,-0.129,0.644
3673635,8298.0,1520.0,583.0,0.322,0.684,-0.134,0.641
3673652,8160.0,2026.0,443.0,0.329,0.683,-0.138,0.638
3673668,8126.0,2002.0,465.0,0.336,0.682,-0.143,0.634
3673685,8028.0,1836.0,273.0,0.343,0.68,-0.148,0.631
3673701,7970.0,1958.0,279.0,0.35,0.679,-0.154,0.627
3673718,7726.0,1628.0,319.0,0.356,0.677,-0.159,0.625
3673741,7524.0,1440.0,519.0,0.362,0.675,-0.163,0.622
3673757,7420.0,1990.0,427.0,0.367,0.673,-0.167,0.621
3673773,7252.0,1636.0,623.0,0.371,0.67,-0.171,0.62
3673789,7242.0,1922.0,221.0,0.374,0.668,-0.173,0.619
3673816,7280.0,2538.0,431.0,0.377,0.666,-0.176,0.62
3673832,7104.0,2744.0,733.0,0.38,0.663,-0.18,0.62
3673848,7034.0,2458.0,767.0,0.383,0.659,-0.184,0.621
3673864,7166.0,2398.0,671.0,0.385,0.656,-0.188,0.621
3673880,7522.0,3248.0,505.0,0.388,0.653,-0.192,0.622
3673896,7578.0,2914.0,797.0,0.392,0.649,-0.197,0.622
3673922,7570.0,2296.0,917.0,0.395,0.645,-0.203,0.622
3673939,7720.0,2418.0,929.0,0.398,0.642,-0.208,0.621
3673955,7844.0,2844.0,861.0,0.402,0.638,-0.214,0.62
3673971,7982.0,2530.0,929.0,0.406,0.635,-0.22,0.619
3673987,7998.0,2574.0,861.0,0.411,0.632,-0.226,0.617
3674003,8080.0,1906.0,849.0,0.415,0.629,-0.232,0.615
3674029,8074.0,1660.0,823.0,0.419,0.626,-0.237,0.613
3674046,7980.0,2106.0,827.0,0.423,0.624,-0.241,0.612
3674063,8048.0,2188.0,815.0,0.426,0.622,-0.245,0.61
3674079,7900.0,1868.0,921.0,0.43,0.619,-0.249,0.608
3674095,7692.0,1826.0,757.0,0.433,0.617,-0.252,0.607
3674111,7864.0,1702.0,807.0,0.436,0.615,-0.254,0.606
3674127,7610.0,1894.0,1041.0,0.439,0.614,-0.257,0.604
3674144,7524.0,1872.0,899.0,0.441,0.612,-0.259,0.603
3674170,7528.0,1874.0,887.0,0.444,0.61,-0.262,0.602
3674186,7556.0,1834.0,911.0,0.446,0.608,-0.265,0.601
3674202,7486.0,1794.0,1057.0,0.449,0.606,-0.268,0.599
3674218,7566.0,1464.0,1001.0,0.451,0.604,-0.272,0.598
3674234,7754.0,1308.0,987.0,0.453,0.602,-0.274,0.597
3674250,7670.0,2030.0,1001.0,0.455,0.601,-0.277,0.596
3674276,7674.0,1814.0,1181.0,0.457,0.599,-0.279,0.595
3674293,7634.0,1606.0,1261.0,0.459,0.598,-0.282,0.594
3674309,7834.0,1856.0,1089.0,0.461,0.596,-0.285,0.592
3674325,7872.0,1926.0,1249.0,0.462,0.595,-0.288,0.591
3674341,7754.0,1538.0,1335.0,0.464,0.594,-0.291,0.589
3674357,7888.0,2046.0,1623.0,0.466,0.593,-0.293,0.588
3674373,7986.0,1718.0,1663.0,0.468,0.592,-0.296,0.586
3674399,8324.0,1870.0,1681.0,0.469,0.591,-0.299,0.584
3674415,8692.0,2122.0,1983.0,0.471,0.589,-0.301,0.583
3674431,8748.0,2296.0,2479.0,0.473,0.588,-0.303,0.582
3674447,9016.0,2470.0,2989.0,0.475,0.587,-0.305,0.581
3674463,8894.0,1972.0,3519.0,0.478,0.585,-0.306,0.58
3674479,9064.0,2610.0,3957.0,0.482,0.582,-0.307,0.578
3674505,8938.0,2064.0,4049.0,0.487,0.579,-0.307,0.577
3674521,9004.0,1986.0,4397.0,0.493,0.576,-0.305,0.577
3674537,8860.0,2854.0,4755.0,0.499,0.571,-0.303,0.577
3674553,8590.0,2704.0,5553.0,0.507,0.564,-0.301,0.578
3674570,8150.0,2090.0,5957.0,0.515,0.557,-0.299,0.579
3674586,8266.0,3884.0,6453.0,0.523,0.549,-0.297,0.58
3674612,8708.0,3336.0,6467.0,0.533,0.539,-0.297,0.581
3674628,9002.0,1704.0,5911.0,0.544,0.527,-0.297,0.582
3674644,9578.0,2162.0,5851.0,0.554,0.515,-0.294,0.584
3674660,9734.0,3800.0,6343.0,0.563,0.502,-0.29,0.589
3674676,9586.0,3344.0,5693.0,0.574,0.487,-0.285,0.593
3674692,10266.0,2702.0,6385.0,0.586,0.471,-0.279,0.598
3674718,10268.0,4030.0,6307.0,0.597,0.454,-0.272,0.603
3674734,10358.0,3702.0,6273.0,0.609,0.436,-0.264,0.607
3674751,11144.0,2906.0,5441.0,0.622,0.417,-0.256,0.611
3674767,11334.0,2724.0,5911.0,0.635,0.398,-0.243,0.616
3674783,10592.0,4836.0,6305.0,0.648,0.378,-0.23,0.62
3674799,10066.0,4480.0,6271.0,0.661,0.355,-0.219,0.624
3674825,10348.0,2318.0,6579.0,0.675,0.332,-0.207,0.626
3674841,10948.0,2090.0,6177.0,0.688,0.309,-0.194,0.627
3674857,10290.0,4252.0,6441.0,0.702,0.286,-0.179,0.627
3674873,9428.0,4410.0,7097.0,0.715,0.261,-0.165,0.627
3674889,9324.0,1804.0,6527.0,0.729,0.236,-0.152,0.624
3674905,8616.0,2974.0,6739.0,0.742,0.212,-0.135,0.622
3674931,7704.0,4140.0,7281.0,0.754,0.186,-0.12,0.618
3674948,6624.0,2056.0,7155.0,0.766,0.16,-0.107,0.614
3674965,5340.0,1826.0,7191.0,0.776,0.136,-0.094,0.608
3674981,6122.0,1198.0,6763.0,0.786,0.112,-0.081,0.602
3674997,5540.0,1750.0,5757.0,0.794,0.09,-0.066,0.597
3675013,5068.0,2566.0,6375.0,0.801,0.069,-0.052,0.592
3675030,3970.0,1720.0,5709.0,0.808,0.046,-0.039,0.586
3675047,4008.0,268.0,5423.0,0.814,0.023,-0.027,0.58
3675073,3792.0,646.0,5059.0,0.819,0.002,-0.014,0.573
3675089,3550.0,1486.0,4479.0,0.824,-0.018,-0.0,0.567
3675106,2802.0,192.0,4375.0,0.827,-0.038,0.013,0.56
3675122,2080.0,-252.0,4071.0,0.83,-0.057,0.026,0.554
3675138,1532.0,924.0,3657.0,0.833,-0.076,0.039,0.547
3675154,1404.0,-312.0,3099.0,0.835,-0.095,0.049,0.54
3675170,644.0,-1238.0,2737.0,0.837,-0.112,0.06,0.533
3675196,592.0,-238.0,2055.0,0.838,-0.128,0.07,0.526
3675212,-162.0,-1408.0,1811.0,0.838,-0.145,0.077,0.52
3675228,-890.0,-3038.0,1787.0,0.839,-0.158,0.084,0.514
3675245,-968.0,-2684.0,727.0,0.84,-0.168,0.09,0.508
3675262,-1454.0,-2352.0,373.0,0.84,-0.177,0.093,0.504
3675279,-1918.0,-2978.0,567.0,0.84,-0.184,0.094,0.501
3675296,-1968.0,-3932.0,177.0,0.84,-0.189,0.093,0.499
3675313,-2132.0,-4260.0,255.0,0.84,-0.19,0.092,0.499
3675330,-2084.0,-3484.0,411.0,0.84,-0.189,0.089,0.501
3675347,-1686.0,-3556.0,179.0,0.84,-0.186,0.085,0.503
3675373,-1550.0,-3764.0,1007.0,0.839,-0.181,0.08,0.507
3675389,-1726.0,-2492.0,1625.0,0.838,-0.174,0.074,0.512
3675405,-1710.0,-3098.0,2019.0,0.836,-0.167,0.067,0.518
3675422,-1320.0,-3912.0,2475.0,0.835,-0.157,0.059,0.523
3675439,-1334.0,-2092.0,3215.0,0.835,-0.144,0.05,0.529
3675456,-1054.0,-1842.0,3903.0,0.833,-0.131,0.04,0.536
3675473,-552.0,-1034.0,4123.0,0.831,-0.117,0.028,0.543
3675490,194.0,-1570.0,4737.0,0.828,-0.102,0.015,0.551
3675506,708.0,-1590.0,4975.0,0.826,-0.087,0.001,0.558
3675532,1356.0,-234.0,5903.0,0.822,-0.071,-0.012,0.565
3675548,2074.0,-1310.0,5889.0,0.818,-0.055,-0.026,0.571
3675564,2370.0,-1346.0,6471.0,0.814,-0.037,-0.039,0.578
3675581,2924.0,656.0,6541.0,0.81,-0.018,-0.051,0.584
3675597,3020.0,800.0,7167.0,0.805,-0.0,-0.064,0.59
3675614,3680.0,710.0,7443.0,0.8,0.018,-0.078,0.595
3675630,4384.0,662.0,7469.0,0.795,0.035,-0.091,0.599
3675657,4764.0,414.0,7561.0,0.79,0.053,-0.105,0.602
3675673,4894.0,814.0,7657.0,0.784,0.07,-0.116,0.606
3675689,4968.0,1272.0,8223.0,0.778,0.087,-0.127,0.609
3675705,5118.0,1296.0,7581.0,0.772,0.103,-0.138,0.612
3675721,5220.0,488.0,7729.0,0.766,0.118,-0.148,0.614
3675737,5428.0,1286.0,8107.0,0.76,0.133,-0.159,0.616
3675764,5660.0,1576.0,7861.0,0.753,0.148,-0.169,0.619
3675781,6708.0,1268.0,7315.0,0.746,0.161,-0.179,0.621
3675798,5770.0,400.0,7913.0,0.739,0.175,-0.188,0.623
3675815,5946.0,1488.0,7677.0,0.731,0.19,-0.195,0.625
3675831,5820.0,1686.0,7455.0,0.724,0.205,-0.204,0.626
3675847,6242.0,2862.0,7463.0,0.716,0.22,-0.213,0.627
3675863,6494.0,1968.0,7641.0,0.709,0.233,-0.224,0.627
3675879,6766.0,1218.0,7609.0,0.701,0.247,-0.236,0.626
3675896,7460.0,1714.0,7085.0,0.694,0.262,-0.246,0.624
3675922,7984.0,1682.0,6453.0,0.687,0.276,-0.256,0.622
3675938,7830.0,1182.0,6799.0,0.68,0.289,-0.264,0.62
3675954,7202.0,1542.0,6813.0,0.673,0.303,-0.272,0.617
3675970,7026.0,2044.0,6741.0,0.667,0.318,-0.279,0.614
3675986,7836.0,2094.0,6297.0,0.66,0.331,-0.288,0.609
3676012,7774.0,1254.0,6253.0,0.654,0.344,-0.297,0.605
3676028,7536.0,1248.0,5947.0,0.648,0.357,-0.305,0.6
3676044,7288.0,1618.0,5709.0,0.642,0.37,-0.312,0.595
3676060,7590.0,1904.0,5935.0,0.635,0.383,-0.32,0.59
3676076,7674.0,1900.0,5821.0,0.628,0.395,-0.329,0.584
3676093,8262.0,1554.0,5497.0,0.621,0.406,-0.338,0.579
3676109,8438.0,724.0,5165.0,0.615,0.417,-0.345,0.574
3676135,8794.0,708.0,4851.0,0.608,0.428,-0.351,0.569
3676151,8720.0,1248.0,4673.0,0.601,0.439,-0.355,0.565
3676168,8566.0,1362.0,4679.0,0.595,0.449,-0.358,0.562
3676185,8516.0,1752.0,4737.0,0.588,0.459,-0.361,0.559
3676201,8478.0,1870.0,4387.0,0.582,0.468,-0.364,0.556
3676217,8326.0,1580.0,4437.0,0.578,0.476,-0.367,0.552
3676234,8568.0,722.0,4307.0,0.573,0.484,-0.37,0.548
3676251,8562.0,1286.0,4307.0,0.569,0.491,-0.372,0.544
3676268,8450.0,1028.0,4229.0,0.565,0.498,-0.375,0.54
3676285,8262.0,958.0,4405.0,0.561,0.505,-0.376,0.537
3676312,8542.0,1718.0,4733.0,0.558,0.511,-0.378,0.534
3676328,8678.0,1310.0,4667.0,0.555,0.515,-0.38,0.53
3676344,8950.0,578.0,4667.0,0.554,0.519,-0.382,0.527
3676360,8816.0,658.0,5151.0,0.552,0.523,-0.382,0.526
3676376,8472.0,1168.0,5507.0,0.551,0.526,-0.381,0.524
3676392,8748.0,1346.0,5483.0,0.551,0.527,-0.38,0.524
3676418,8604.0,750.0,5861.0,0.551,0.528,-0.379,0.524
3676434,8468.0,704.0,6069.0,0.552,0.527,-0.377,0.525
3676450,8230.0,1256.0,6369.0,0.553,0.526,-0.375,0.527
3676467,8460.0,1962.0,6893.0,0.555,0.522,-0.373,0.529
3676483,8898.0,1166.0,6651.0,0.559,0.517,-0.372,0.531
3676500,9302.0,530.0,6323.0,0.564,0.511,-0.369,0.534
3676517,9122.0,1336.0,6961.0,0.568,0.504,-0.364,0.539
3676534,8688.0,2834.0,8209.0,0.573,0.495,-0.36,0.544
3676550,9400.0,3068.0,7965.0,0.58,0.484,-0.358,0.548
3676577,10538.0,984.0,7187.0,0.589,0.471,-0.356,0.552
3676593,10966.0,1354.0,7039.0,0.597,0.458,-0.35,0.558
3676609,10380.0,3522.0,8315.0,0.606,0.443,-0.342,0.565
3676625,10498.0,2270.0,8085.0,0.616,0.426,-0.334,0.572
3676641,11462.0,2252.0,7079.0,0.627,0.408,-0.324,0.58
3676657,11370.0,2574.0,7585.0,0.638,0.388,-0.312,0.587
3676683,10202.0,3042.0,8403.0,0.65,0.367,-0.299,0.594
3676700,10776.0,3668.0,8157.0,0.663,0.345,-0.288,0.599
3676717,11560.0,3068.0,7151.0,0.676,0.322,-0.275,0.603
3676734,11288.0,2528.0,7011.0,0.689,0.297,-0.261,0.607
3676750,10526.0,2430.0,7427.0,0.702,0.273,-0.246,0.611
3676767,10544.0,3408.0,7401.0,0.714,0.248,-0.229,0.613
3676783,10826.0,3048.0,6961.0,0.726,0.223,-0.213,0.614
3676800,10008.0,2382.0,6003.0,0.738,0.197,-0.195,0.615
3676817,9458.0,2564.0,6239.0,0.75,0.172,-0.175,0.615
3676844,8616.0,2428.0,6229.0,0.76,0.146,-0.155,0.613
3676860,7988.0,2908.0,5951.0,0.771,0.121,-0.135,0.611
3676876,7578.0,2078.0,5699.0,0.78,0.096,-0.116,0.607
3676892,7094.0,2194.0,5143.0,0.789,0.071,-0.098,0.602
3676908,6402.0,1656.0,4781.0,0.797,0.047,-0.081,0.597
3676924,5820.0,906.0,4841.0,0.803,0.024,-0.063,0.592
3676940,4718.0,1410.0,4563.0,0.81,0.002,-0.045,0.585
3676966,4504.0,1722.0,4063.0,0.815,-0.022,-0.029,0.578
3676982,3844.0,412.0,3813.0,0.82,-0.045,-0.014,0.571
3676999,3070.0,276.0,3439.0,0.824,-0.066,0.001,0.563
3677017,2638.0,-1008.0,3035.0,0.827,-0.087,0.016,0.555
3677034,1814.0,-280.0,2649.0,0.83,-0.105,0.031,0.546
3677050,730.0,-18.0,2825.0,0.833,-0.122,0.044,0.538
3677066,220.0,-1428.0,2383.0,0.835,-0.139,0.055,0.529
3677083,-448.0,-2502.0,1977.0,0.837,-0.153,0.066,0.521
3677100,-880.0,-796.0,2093.0,0.84,-0.164,0.075,0.512
3677118,-1262.0,-1388.0,1531.0,0.841,-0.176,0.08,0.505
3677135,-1658.0,-3774.0,1307.0,0.842,-0.186,0.084,0.5
3677152,-1776.0,-2898.0,753.0,0.843,-0.192,0.087,0.495
3677179,-1854.0,-3354.0,335.0,0.844,-0.198,0.088,0.491
3677196,-2164.0,-3798.0,409.0,0.845,-0.201,0.088,0.488
3677212,-1894.0,-3776.0,45.0,0.845,-0.202,0.087,0.487
3677229,-2034.0,-4274.0,379.0,0.846,-0.201,0.084,0.487
3677245,-2032.0,-4158.0,391.0,0.847,-0.196,0.081,0.488
3677262,-2064.0,-3760.0,637.0,0.848,-0.189,0.077,0.49
3677278,-1986.0,-3154.0,1277.0,0.848,-0.18,0.071,0.493
3677295,-1862.0,-3212.0,1997.0,0.849,-0.17,0.063,0.497
3677312,-1086.0,-3192.0,2077.0,0.849,-0.157,0.054,0.501
3677329,-882.0,-2412.0,3033.0,0.849,-0.142,0.043,0.506
3677355,-216.0,-692.0,3765.0,0.849,-0.126,0.031,0.512
3677371,442.0,-1126.0,4335.0,0.848,-0.111,0.016,0.518
3677387,1046.0,-2516.0,4849.0,0.846,-0.095,0.0,0.524
3677403,1784.0,-1112.0,4807.0,0.845,-0.076,-0.014,0.529
3677419,2300.0,-750.0,5441.0,0.843,-0.057,-0.029,0.534
3677445,2746.0,350.0,6805.0,0.84,-0.039,-0.043,0.539
3677461,2716.0,-18.0,7161.0,0.837,-0.02,-0.059,0.544
3677477,3612.0,-304.0,6595.0,0.832,-0.001,-0.075,0.549
3677493,4482.0,-268.0,7045.0,0.828,0.017,-0.091,0.553
3677509,4806.0,120.0,7475.0,0.823,0.036,-0.104,0.557
3677525,4732.0,646.0,8119.0,0.817,0.055,-0.116,0.561
3677551,5496.0,922.0,7655.0,0.812,0.073,-0.128,0.565
3677567,5662.0,-136.0,7419.0,0.806,0.091,-0.138,0.569
3677583,5382.0,436.0,7897.0,0.8,0.11,-0.147,0.572
3677600,5400.0,2240.0,8065.0,0.793,0.13,-0.155,0.575
3677616,5620.0,2876.0,8213.0,0.786,0.148,-0.165,0.577
3677632,6130.0,1818.0,7869.0,0.779,0.164,-0.176,0.579
3677648,6442.0,324.0,7415.0,0.772,0.18,-0.186,0.581
3677674,6670.0,1282.0,7483.0,0.764,0.198,-0.194,0.583
3677690,6290.0,2486.0,7729.0,0.755,0.216,-0.202,0.585
3677706,6634.0,2606.0,7249.0,0.747,0.233,-0.211,0.586
3677722,7090.0,1574.0,6815.0,0.738,0.249,-0.22,0.587
3677738,6990.0,1330.0,7143.0,0.729,0.266,-0.227,0.588
3677754,6686.0,3124.0,7175.0,0.72,0.283,-0.235,0.588
3677780,6858.0,3546.0,7563.0,0.711,0.298,-0.244,0.587
3677796,6844.0,3742.0,6971.0,0.703,0.312,-0.256,0.585
3677812,7882.0,1746.0,6227.0,0.696,0.324,-0.269,0.581
3677828,7982.0,714.0,6469.0,0.689,0.338,-0.279,0.577
3677844,8152.0,2824.0,6719.0,0.681,0.353,-0.289,0.573
3677861,8238.0,3302.0,6537.0,0.673,0.367,-0.299,0.568
3677887,8706.0,2450.0,5959.0,0.665,0.379,-0.31,0.564
3677903,8774.0,1680.0,5585.0,0.658,0.39,-0.319,0.56
3677919,8764.0,1858.0,5423.0,0.651,0.401,-0.326,0.556
3677936,8524.0,2368.0,5607.0,0.643,0.412,-0.332,0.553
3677952,8164.0,2498.0,5541.0,0.637,0.421,-0.339,0.55
3677969,8040.0,2070.0,5233.0,0.631,0.429,-0.345,0.547
3677986,7884.0,1642.0,4889.0,0.625,0.437,-0.351,0.543
3678003,7758.0,1460.0,4621.0,0.619,0.446,-0.357,0.54
3678029,7662.0,1742.0,4501.0,0.613,0.453,-0.362,0.537
3678045,7548.0,1928.0,4345.0,0.607,0.46,-0.367,0.534
3678062,7386.0,1928.0,4273.0,0.601,0.467,-0.373,0.531
3678078,7598.0,1724.0,4139.0,0.595,0.473,-0.379,0.528
3678094,7808.0,1822.0,4005.0,0.589,0.479,-0.385,0.524
3678110,7978.0,1316.0,4141.0,0.584,0.486,-0.392,0.519
3678136,8324.0,686.0,3971.0,0.579,0.492,-0.397,0.514
3678152,8540.0,1340.0,4131.0,0.575,0.499,-0.402,0.509
3678168,8888.0,2396.0,4211.0,0.57,0.505,-0.406,0.505
3678184,8982.0,1140.0,4099.0,0.567,0.509,-0.411,0.501
3678200,8908.0,456.0,4243.0,0.564,0.513,-0.414,0.498
3678216,8900.0,1290.0,4389.0,0.561,0.516,-0.415,0.497
3678232,9024.0,1350.0,4541.0,0.559,0.519,-0.416,0.496
3678258,8914.0,626.0,4553.0,0.558,0.52,-0.416,0.495
3678274,8686.0,588.0,4793.0,0.557,0.522,-0.414,0.496
3678290,8760.0,1832.0,5097.0,0.557,0.522,-0.412,0.497
3678306,8630.0,740.0,4977.0,0.558,0.521,-0.41,0.499
3678322,8898.0,518.0,5059.0,0.559,0.52,-0.407,0.501
3678338,8334.0,1540.0,5757.0,0.561,0.519,-0.402,0.505
3678364,8538.0,2780.0,5999.0,0.563,0.516,-0.398,0.509
3678380,9038.0,2236.0,6233.0,0.567,0.511,-0.395,0.512
3678396,9394.0,536.0,6037.0,0.572,0.505,-0.391,0.515
3678412,9334.0,506.0,5825.0,0.577,0.499,-0.384,0.521
3678428,9160.0,2820.0,6551.0,0.581,0.492,-0.376,0.528
3678444,9156.0,3172.0,6891.0,0.587,0.483,-0.368,0.534
3678470,9616.0,1980.0,6681.0,0.594,0.473,-0.361,0.541
3678486,9524.0,1298.0,6275.0,0.601,0.462,-0.353,0.548
3678502,8664.0,338.0,7161.0,0.606,0.454,-0.341,0.557
3678518,9504.0,4544.0,9455.0,0.611,0.447,-0.33,0.564
3678534,11390.0,4828.0,7393.0,0.618,0.435,-0.322,0.57
3678560,12204.0,4660.0,7419.0,0.626,0.42,-0.314,0.577
3678576,11674.0,3358.0,6069.0,0.638,0.4,-0.306,0.583
3678592,10840.0,478.0,6917.0,0.649,0.381,-0.294,0.59
3678608,11070.0,2948.0,6613.0,0.659,0.364,-0.278,0.596
3678624,11460.0,5648.0,6697.0,0.671,0.344,-0.263,0.601
3678640,11834.0,3886.0,5823.0,0.686,0.32,-0.249,0.604
3678666,11810.0,1842.0,5655.0,0.7,0.295,-0.233,0.606
3678682,10738.0,3506.0,6789.0,0.714,0.272,-0.215,0.608
3678698,11080.0,4236.0,6093.0,0.729,0.246,-0.197,0.608
3678714,10632.0,2366.0,5813.0,0.743,0.219,-0.179,0.606
3678730,10474.0,2068.0,5811.0,0.758,0.192,-0.159,0.603
3678746,9286.0,2106.0,5785.0,0.772,0.166,-0.137,0.599
3678772,8364.0,3074.0,6595.0,0.784,0.14,-0.115,0.594
3678788,7908.0,3252.0,5797.0,0.796,0.113,-0.096,0.587
3678804,7276.0,474.0,5035.0,0.807,0.086,-0.078,0.579
3678820,5954.0,470.0,5609.0,0.817,0.062,-0.058,0.57
3678836,4282.0,2046.0,5969.0,0.826,0.04,-0.039,0.561
3678852,4260.0,3028.0,5365.0,0.834,0.016,-0.023,0.551
3678878,4622.0,836.0,4113.0,0.84,-0.012,-0.01,0.542
3678894,3808.0,-1304.0,3929.0,0.846,-0.038,0.005,0.532
3678910,2698.0,-1100.0,3655.0,0.85,-0.061,0.022,0.522
3678926,1628.0,-832.0,4211.0,0.854,-0.08,0.04,0.512
3678942,1362.0,896.0,3793.0,0.857,-0.099,0.055,0.503
3678968,1130.0,-388.0,2611.0,0.859,-0.119,0.069,0.493
3678984,634.0,-3044.0,1937.0,0.86,-0.138,0.082,0.484
3679000,-660.0,-3004.0,2111.0,0.862,-0.151,0.097,0.474
3679017,-1670.0,-656.0,2195.0,0.864,-0.162,0.11,0.464
3679034,-1888.0,-774.0,1595.0,0.865,-0.173,0.119,0.455
3679051,-2132.0,-2090.0,1311.0,0.866,-0.185,0.124,0.449
3679067,-2380.0,-2446.0,1047.0,0.866,-0.194,0.127,0.444
3679083,-2332.0,-3144.0,367.0,0.866,-0.201,0.128,0.44
3679099,-1980.0,-3510.0,523.0,0.866,-0.206,0.127,0.437
3679125,-2190.0,-2908.0,371.0,0.867,-0.208,0.125,0.436
3679141,-2254.0,-3536.0,625.0,0.867,-0.209,0.121,0.436
3679157,-1886.0,-3482.0,503.0,0.868,-0.207,0.117,0.437
3679173,-2094.0,-3160.0,965.0,0.868,-0.204,0.111,0.438
3679189,-2400.0,-3332.0,1691.0,0.869,-0.199,0.104,0.441
3679205,-2320.0,-2874.0,1987.0,0.87,-0.192,0.096,0.445
3679231,-1988.0,-3436.0,2443.0,0.87,-0.183,0.087,0.449
3679247,-1912.0,-2740.0,3361.0,0.871,-0.173,0.077,0.454
3679263,-1722.0,-1860.0,4093.0,0.871,-0.16,0.066,0.459
3679280,-1320.0,-2160.0,4709.0,0.871,-0.147,0.053,0.466
3679297,-772.0,-2144.0,4737.0,0.871,-0.133,0.04,0.472
3679313,-208.0,-1596.0,5457.0,0.87,-0.118,0.027,0.477
3679329,282.0,-530.0,6095.0,0.869,-0.103,0.013,0.483
3679355,496.0,-226.0,7175.0,0.867,-0.089,-0.001,0.49
3679372,970.0,-328.0,6775.0,0.865,-0.075,-0.016,0.496
3679388,1596.0,-1886.0,6703.0,0.862,-0.061,-0.03,0.502
3679404,2056.0,-1624.0,7229.0,0.859,-0.045,-0.042,0.508
3679420,2060.0,646.0,7859.0,0.856,-0.027,-0.053,0.513
3679437,2512.0,594.0,7887.0,0.853,-0.012,-0.065,0.518
3679463,2826.0,-22.0,8091.0,0.849,0.004,-0.077,0.523
3679479,3310.0,108.0,7857.0,0.845,0.019,-0.089,0.527
3679495,3110.0,-200.0,7891.0,0.841,0.035,-0.099,0.531
3679512,3700.0,600.0,7727.0,0.836,0.051,-0.109,0.535
3679529,3900.0,1318.0,8047.0,0.831,0.066,-0.12,0.539
3679546,3860.0,690.0,7831.0,0.826,0.081,-0.131,0.543
3679562,4176.0,172.0,7391.0,0.82,0.096,-0.142,0.546
3679578,4620.0,232.0,7273.0,0.815,0.113,-0.152,0.548
3679604,4668.0,1070.0,7359.0,0.809,0.13,-0.161,0.551
3679620,4800.0,1250.0,7007.0,0.802,0.147,-0.17,0.553
3679636,5158.0,1658.0,6857.0,0.797,0.164,-0.179,0.553
3679652,5074.0,1644.0,7247.0,0.792,0.179,-0.189,0.553
3679668,5298.0,608.0,7911.0,0.786,0.196,-0.198,0.552
3679684,5524.0,2988.0,6853.0,0.779,0.213,-0.209,0.552
3679710,6032.0,1722.0,6571.0,0.771,0.228,-0.222,0.552
3679726,5988.0,512.0,6633.0,0.763,0.244,-0.232,0.552
3679742,6484.0,2232.0,6683.0,0.754,0.261,-0.243,0.552
3679758,6758.0,2736.0,7059.0,0.744,0.276,-0.254,0.552
3679774,6982.0,2120.0,6327.0,0.735,0.29,-0.267,0.552
3679790,7606.0,1320.0,5717.0,0.726,0.303,-0.279,0.55
3679816,7928.0,1544.0,6061.0,0.717,0.318,-0.29,0.549
3679832,7882.0,2978.0,6161.0,0.707,0.333,-0.3,0.547
3679849,8312.0,1614.0,6477.0,0.698,0.346,-0.312,0.545
3679866,8746.0,1670.0,5215.0,0.688,0.358,-0.323,0.542
3679883,8866.0,1098.0,5055.0,0.68,0.37,-0.333,0.539
3679900,8738.0,2240.0,5219.0,0.67,0.383,-0.341,0.537
3679916,8796.0,3448.0,5373.0,0.662,0.394,-0.35,0.534
3679933,8984.0,2690.0,4837.0,0.654,0.403,-0.36,0.529
3679949,9258.0,808.0,4369.0,0.647,0.412,-0.368,0.525
3679975,9318.0,718.0,4023.0,0.64,0.422,-0.374,0.521
3679991,9034.0,2200.0,4543.0,0.633,0.433,-0.378,0.519
3680007,8782.0,2858.0,4509.0,0.627,0.442,-0.382,0.516
3680023,8658.0,1860.0,4081.0,0.621,0.449,-0.386,0.513
3680039,8382.0,734.0,4015.0,0.615,0.457,-0.39,0.511
3680055,7964.0,1746.0,4135.0,0.609,0.466,-0.394,0.508
3680081,8068.0,2782.0,4069.0,0.603,0.473,-0.398,0.504
3680097,8438.0,1670.0,3751.0,0.598,0.48,-0.403,0.5
3680113,8292.0,330.0,3563.0,0.594,0.486,-0.407,0.496
3680129,7994.0,868.0,3993.0,0.589,0.494,-0.409,0.492
3680145,7716.0,2824.0,4425.0,0.584,0.501,-0.411,0.489
3680161,8100.0,2654.0,4329.0,0.58,0.506,-0.416,0.484
3680187,8558.0,1188.0,4057.0,0.577,0.509,-0.421,0.479
3680203,8444.0,280.0,4185.0,0.575,0.513,-0.424,0.476
3680219,8454.0,624.0,4977.0,0.571,0.518,-0.426,0.473
3680235,8784.0,2082.0,5145.0,0.568,0.522,-0.428,0.471
3680251,9152.0,1826.0,5195.0,0.567,0.524,-0.429,0.469
3680267,9234.0,108.0,5427.0,0.567,0.524,-0.429,0.469
3680293,8654.0,790.0,6021.0,0.567,0.524,-0.427,0.469
3680309,8760.0,1614.0,6799.0,0.569,0.523,-0.425,0.471
3680325,8654.0,2292.0,6737.0,0.571,0.521,-0.423,0.473
3680341,9436.0,1302.0,6691.0,0.577,0.515,-0.42,0.475
3680357,9724.0,1148.0,6973.0,0.584,0.508,-0.415,0.478
3680383,9268.0,1364.0,7061.0,0.591,0.501,-0.408,0.484
3680399,9978.0,4902.0,7971.0,0.598,0.491,-0.4,0.49
3680415,10242.0,3264.0,7647.0,0.609,0.478,-0.393,0.497
3680431,9798.0,-566.0,7137.0,0.62,0.464,-0.383,0.505
3680448,9498.0,2364.0,8039.0,0.628,0.452,-0.369,0.515
3680465,9016.0,4274.0,7837.0,0.638,0.439,-0.355,0.524
3680481,9530.0,3232.0,8175.0,0.649,0.423,-0.341,0.532
3680498,9516.0,2474.0,7859.0,0.66,0.407,-0.327,0.541
3680524,9272.0,4280.0,7683.0,0.671,0.389,-0.313,0.548
3680540,9610.0,3676.0,7095.0,0.684,0.369,-0.299,0.553
3680556,9726.0,2652.0,7577.0,0.697,0.35,-0.284,0.557
3680572,10386.0,2866.0,7549.0,0.71,0.33,-0.268,0.561
3680588,10504.0,4496.0,7567.0,0.723,0.31,-0.25,0.564
3680604,10738.0,5310.0,7935.0,0.737,0.288,-0.233,0.566
3680630,10838.0,3344.0,6709.0,0.75,0.263,-0.216,0.566
3680646,10122.0,2318.0,7387.0,0.763,0.24,-0.196,0.567
3680662,9436.0,4646.0,7021.0,0.775,0.218,-0.175,0.567
3680678,9366.0,3450.0,7073.0,0.786,0.196,-0.154,0.566
3680694,8970.0,3354.0,7181.0,0.797,0.174,-0.131,0.563
3680710,7606.0,4794.0,7475.0,0.808,0.152,-0.111,0.559
3680736,6990.0,4950.0,7133.0,0.818,0.128,-0.094,0.554
3680752,7686.0,1874.0,5585.0,0.827,0.102,-0.078,0.547
3680768,6812.0,918.0,6307.0,0.836,0.079,-0.059,0.54
3680785,5634.0,2598.0,6505.0,0.844,0.059,-0.041,0.532
3680802,5060.0,3884.0,6239.0,0.85,0.038,-0.024,0.525
3680819,4584.0,480.0,4689.0,0.856,0.013,-0.009,0.517
3680836,4390.0,-88.0,4199.0,0.861,-0.009,0.009,0.508
3680853,3240.0,-286.0,4743.0,0.866,-0.029,0.027,0.499
3680870,1854.0,1004.0,5143.0,0.87,-0.048,0.045,0.489
3680897,1850.0,1780.0,3921.0,0.873,-0.067,0.059,0.48
3680914,2140.0,-570.0,2453.0,0.875,-0.087,0.071,0.471
3680931,1378.0,-2398.0,2463.0,0.877,-0.105,0.084,0.46
3680947,170.0,-2014.0,3215.0,0.88,-0.119,0.099,0.449
3680963,-728.0,-788.0,3105.0,0.882,-0.13,0.112,0.438
3680979,-1254.0,516.0,1947.0,0.884,-0.141,0.121,0.429
3680995,-1486.0,-1120.0,1395.0,0.884,-0.155,0.126,0.423
3681011,-1810.0,-3310.0,991.0,0.884,-0.167,0.128,0.417
3681037,-2298.0,-4456.0,1303.0,0.884,-0.175,0.13,0.413
3681053,-2532.0,-3656.0,1187.0,0.885,-0.18,0.13,0.409
3681069,-2350.0,-3222.0,581.0,0.886,-0.184,0.128,0.406
3681085,-2142.0,-3730.0,861.0,0.886,-0.187,0.124,0.405
3681101,-2292.0,-3582.0,1081.0,0.887,-0.188,0.119,0.406
3681117,-1976.0,-4184.0,1289.0,0.887,-0.187,0.112,0.408
3681143,-1472.0,-4284.0,1269.0,0.887,-0.183,0.105,0.411
3681159,-1320.0,-3972.0,1503.0,0.888,-0.177,0.098,0.414
3681175,-1242.0,-3066.0,2413.0,0.888,-0.17,0.09,0.418
3681191,-1316.0,-2606.0,2985.0,0.888,-0.162,0.082,0.423
3681207,-972.0,-3352.0,2961.0,0.887,-0.153,0.072,0.43
3681224,-790.0,-3526.0,3223.0,0.886,-0.142,0.062,0.437
3681250,-524.0,-2528.0,4047.0,0.885,-0.129,0.052,0.444
3681266,-194.0,-1636.0,4831.0,0.884,-0.115,0.04,0.452
3681282,274.0,-998.0,5067.0,0.881,-0.101,0.027,0.461
3681298,1376.0,-1948.0,4933.0,0.879,-0.088,0.014,0.469
3681314,2266.0,-4170.0,5431.0,0.877,-0.071,0.003,0.475
3681330,2102.0,-474.0,7277.0,0.876,-0.05,-0.006,0.48
3681356,1668.0,2492.0,7817.0,0.873,-0.03,-0.017,0.486
3681372,2294.0,1480.0,7053.0,0.869,-0.013,-0.033,0.493
3681388,3244.0,-928.0,7319.0,0.865,0.003,-0.048,0.499
3681404,3544.0,-508.0,7753.0,0.861,0.021,-0.063,0.505
3681420,3572.0,1664.0,7793.0,0.855,0.041,-0.076,0.511
3681436,4136.0,1198.0,7349.0,0.849,0.06,-0.089,0.518
3681462,4898.0,-470.0,7839.0,0.842,0.078,-0.099,0.524
3681478,4272.0,882.0,8241.0,0.835,0.098,-0.107,0.531
3681495,4340.0,2984.0,7857.0,0.827,0.119,-0.115,0.537
3681511,4708.0,3080.0,7447.0,0.818,0.137,-0.124,0.544
3681527,5054.0,1208.0,7911.0,0.81,0.154,-0.133,0.55
3681543,4874.0,1782.0,7819.0,0.801,0.173,-0.141,0.556
3681569,4908.0,3816.0,7597.0,0.791,0.191,-0.15,0.561
3681585,5486.0,2986.0,7555.0,0.782,0.208,-0.16,0.566
3681601,5854.0,1506.0,7273.0,0.772,0.224,-0.169,0.57
3681617,6046.0,1810.0,7121.0,0.762,0.242,-0.178,0.574
3681633,6000.0,2770.0,6991.0,0.751,0.26,-0.185,0.578
3681649,6338.0,3238.0,7259.0,0.74,0.277,-0.193,0.581
3681675,6476.0,3274.0,7131.0,0.729,0.294,-0.202,0.584
3681692,6826.0,2396.0,6425.0,0.718,0.31,-0.21,0.587
3681708,6944.0,3646.0,6793.0,0.707,0.326,-0.217,0.589
3681724,7062.0,2752.0,6581.0,0.695,0.343,-0.223,0.592
3681740,6892.0,3394.0,6403.0,0.682,0.358,-0.229,0.594
3681756,7492.0,3946.0,6299.0,0.67,0.373,-0.237,0.597
3681772,7512.0,2988.0,6061.0,0.658,0.387,-0.245,0.598
3681798,7800.0,2782.0,6023.0,0.646,0.4,-0.252,0.599
3681814,8322.0,3146.0,5681.0,0.634,0.413,-0.26,0.6
3681830,8314.0,2830.0,5439.0,0.622,0.425,-0.267,0.601
3681847,8138.0,2726.0,5139.0,0.611,0.435,-0.274,0.602
3681863,8452.0,2496.0,5133.0,0.599,0.446,-0.28,0.603
3681880,8244.0,2894.0,4985.0,0.588,0.456,-0.285,0.604
3681897,8216.0,2746.0,4825.0,0.578,0.465,-0.29,0.605
3681914,8316.0,1792.0,4667.0,0.569,0.474,-0.294,0.605
3681932,8050.0,2548.0,4617.0,0.559,0.483,-0.297,0.605
3681949,8068.0,3364.0,4873.0,0.549,0.491,-0.301,0.605
3681976,7856.0,3112.0,4987.0,0.541,0.499,-0.305,0.604
3681992,8130.0,2648.0,4737.0,0.535,0.505,-0.311,0.602
3682008,8170.0,2154.0,4663.0,0.529,0.511,-0.316,0.599
3682024,7948.0,2332.0,4905.0,0.523,0.518,-0.32,0.597
3682040,8080.0,1990.0,4709.0,0.517,0.524,-0.325,0.594
3682056,7888.0,2238.0,4729.0,0.512,0.53,-0.329,0.591
3682082,7870.0,3202.0,5033.0,0.507,0.534,-0.333,0.589
3682098,7894.0,2504.0,4783.0,0.504,0.538,-0.338,0.586
3682115,7902.0,1582.0,4673.0,0.5,0.541,-0.341,0.584
3682131,7862.0,1652.0,4829.0,0.497,0.544,-0.343,0.583
3682148,7612.0,1796.0,4619.0,0.494,0.546,-0.345,0.582
3682164,7742.0,2340.0,4821.0,0.491,0.548,-0.345,0.583
3682181,7756.0,3312.0,5035.0,0.489,0.549,-0.346,0.583
3682198,7604.0,3138.0,5033.0,0.489,0.548,-0.349,0.582
3682214,8082.0,1524.0,4779.0,0.49,0.546,-0.352,0.581
3682241,8192.0,1736.0,4947.0,0.492,0.545,-0.354,0.58
3682257,8438.0,2316.0,5093.0,0.494,0.543,-0.354,0.579
3682273,8522.0,2874.0,5211.0,0.498,0.541,-0.354,0.578
3682289,8886.0,2388.0,5291.0,0.503,0.537,-0.353,0.578
3682305,8762.0,2092.0,5127.0,0.509,0.532,-0.351,0.578
3682321,8126.0,3112.0,6271.0,0.515,0.527,-0.349,0.58
3682338,8034.0,3352.0,6635.0,0.522,0.521,-0.347,0.58
3682364,8984.0,2864.0,6437.0,0.53,0.513,-0.346,0.579
3682381,9196.0,2170.0,6423.0,0.54,0.505,-0.343,0.58
3682397,8894.0,3342.0,7357.0,0.55,0.496,-0.34,0.58
3682414,8592.0,3546.0,7597.0,0.56,0.485,-0.337,0.581
3682431,9348.0,1920.0,7289.0,0.571,0.473,-0.333,0.582
3682447,10400.0,3420.0,7619.0,0.582,0.461,-0.327,0.584
3682464,10534.0,4120.0,7713.0,0.595,0.447,-0.321,0.586
3682481,10900.0,3048.0,7275.0,0.609,0.43,-0.313,0.588
3682498,11508.0,1938.0,7869.0,0.623,0.414,-0.303,0.59
3682525,12334.0,4760.0,7497.0,0.639,0.396,-0.29,0.593
3682541,12118.0,3148.0,7617.0,0.655,0.376,-0.275,0.595
3682557,12064.0,4024.0,7449.0,0.672,0.355,-0.258,0.596
3682573,11200.0,4500.0,8039.0,0.69,0.333,-0.24,0.596
3682589,11022.0,4432.0,7499.0,0.708,0.309,-0.222,0.595
3682605,11432.0,3778.0,7327.0,0.727,0.283,-0.205,0.591
3682631,11172.0,3242.0,6713.0,0.745,0.258,-0.185,0.587
3682647,10266.0,3584.0,7275.0,0.762,0.232,-0.164,0.582
3682663,9464.0,4450.0,6935.0,0.779,0.205,-0.143,0.575
3682679,8846.0,2878.0,6915.0,0.795,0.176,-0.124,0.567
3682695,8908.0,2936.0,5997.0,0.81,0.148,-0.104,0.558
3682711,7698.0,1668.0,5575.0,0.824,0.12,-0.082,0.548
3682737,6026.0,1492.0,5911.0,0.835,0.096,-0.06,0.539
3682753,4980.0,3092.0,5673.0,0.845,0.073,-0.038,0.528
3682769,4604.0,1344.0,4923.0,0.854,0.047,-0.019,0.517
3682785,4332.0,1096.0,4501.0,0.862,0.022,0.001,0.506
3682801,3024.0,740.0,4869.0,0.869,-0.0,0.02,0.495
3682817,2376.0,1298.0,4863.0,0.874,-0.021,0.037,0.484
3682843,2802.0,1552.0,3511.0,0.878,-0.041,0.053,0.474
3682859,2678.0,-552.0,2571.0,0.882,-0.062,0.067,0.463
3682875,1436.0,-1446.0,3035.0,0.885,-0.079,0.083,0.451
3682891,402.0,344.0,3649.0,0.888,-0.094,0.098,0.439
3682907,472.0,1276.0,2645.0,0.89,-0.109,0.11,0.429
3682923,326.0,-462.0,1441.0,0.891,-0.126,0.119,0.419
3682949,-636.0,-2028.0,1661.0,0.892,-0.142,0.127,0.41
3682966,-1152.0,-2124.0,1939.0,0.892,-0.156,0.135,0.402
3682982,-1682.0,-1594.0,1681.0,0.893,-0.168,0.14,0.394
3682998,-1682.0,-2058.0,1091.0,0.893,-0.179,0.142,0.388
3683015,-1282.0,-2736.0,357.0,0.893,-0.189,0.143,0.383
3683031,-1948.0,-4848.0,385.0,0.893,-0.196,0.143,0.379
3683047,-2700.0,-4344.0,1055.0,0.893,-0.2,0.143,0.376
3683064,-2656.0,-3386.0,605.0,0.894,-0.202,0.14,0.375
3683090,-2564.0,-4396.0,235.0,0.894,-0.203,0.136,0.375
3683107,-2526.0,-4942.0,991.0,0.895,-0.201,0.131,0.376
3683123,-2730.0,-4880.0,1331.0,0.896,-0.197,0.125,0.378
3683139,-2614.0,-4416.0,1941.0,0.898,-0.189,0.117,0.381
3683156,-2260.0,-3736.0,2529.0,0.899,-0.179,0.108,0.385
3683172,-1820.0,-3412.0,2481.0,0.9,-0.168,0.097,0.39
3683189,-1100.0,-3148.0,3065.0,0.901,-0.157,0.086,0.395
3683215,-974.0,-2546.0,4087.0,0.902,-0.144,0.075,0.401
3683231,-990.0,-2914.0,4493.0,0.902,-0.13,0.062,0.407
3683247,-388.0,-2454.0,4211.0,0.902,-0.115,0.049,0.414
3683263,258.0,-1812.0,5265.0,0.901,-0.099,0.037,0.421
3683279,484.0,-810.0,5839.0,0.899,-0.084,0.024,0.428
3683296,432.0,-1060.0,6601.0,0.897,-0.069,0.01,0.437
3683312,1068.0,-810.0,6001.0,0.894,-0.055,-0.005,0.445
3683339,2272.0,-1148.0,6207.0,0.89,-0.04,-0.019,0.454
3683355,2842.0,-796.0,6245.0,0.886,-0.025,-0.032,0.462
3683371,2994.0,-364.0,6825.0,0.881,-0.009,-0.045,0.47
3683387,2770.0,-40.0,7321.0,0.876,0.007,-0.057,0.479
3683403,3488.0,910.0,7339.0,0.87,0.024,-0.07,0.487
3683419,4124.0,-66.0,6925.0,0.864,0.04,-0.084,0.496
3683445,4410.0,-232.0,7205.0,0.857,0.058,-0.097,0.503
3683461,4302.0,1172.0,7339.0,0.849,0.076,-0.109,0.511
3683478,4770.0,2036.0,7251.0,0.841,0.094,-0.123,0.519
3683494,5168.0,490.0,6861.0,0.832,0.11,-0.137,0.526
3683511,5316.0,-392.0,6829.0,0.823,0.127,-0.15,0.533
3683527,5944.0,1026.0,6903.0,0.813,0.146,-0.161,0.54
3683543,5724.0,2326.0,7305.0,0.802,0.166,-0.173,0.547
3683569,6548.0,2896.0,7299.0,0.79,0.183,-0.186,0.554
3683585,6964.0,1724.0,6869.0,0.778,0.199,-0.201,0.56
3683601,7238.0,194.0,6239.0,0.766,0.216,-0.214,0.566
3683617,7352.0,1120.0,6735.0,0.753,0.235,-0.224,0.572
3683633,7700.0,3676.0,6889.0,0.74,0.254,-0.235,0.577
3683649,7870.0,3506.0,6595.0,0.726,0.271,-0.247,0.582
3683675,8320.0,2168.0,6607.0,0.713,0.286,-0.259,0.585
3683691,8792.0,-48.0,6317.0,0.701,0.302,-0.27,0.587
3683707,8538.0,2946.0,6557.0,0.688,0.319,-0.279,0.589
3683723,8426.0,3930.0,6513.0,0.675,0.334,-0.288,0.591
3683739,8660.0,3064.0,6025.0,0.662,0.348,-0.298,0.593
3683755,8786.0,2604.0,5865.0,0.651,0.361,-0.307,0.593
3683772,8634.0,2712.0,5839.0,0.64,0.374,-0.316,0.593
3683798,8696.0,2402.0,5761.0,0.629,0.387,-0.324,0.592
3683815,8502.0,2902.0,5435.0,0.618,0.4,-0.331,0.59
3683832,8692.0,3028.0,5287.0,0.609,0.411,-0.339,0.588
3683848,8454.0,2434.0,5321.0,0.599,0.422,-0.347,0.585
3683864,8568.0,3092.0,4995.0,0.591,0.433,-0.355,0.582
3683881,8732.0,2390.0,4877.0,0.582,0.442,-0.363,0.578
3683898,8766.0,1962.0,4575.0,0.575,0.451,-0.37,0.574
3683915,8594.0,2020.0,4385.0,0.567,0.46,-0.376,0.57
3683931,8426.0,2290.0,4567.0,0.559,0.47,-0.381,0.567
3683958,8240.0,2258.0,4527.0,0.553,0.478,-0.387,0.562
3683974,8136.0,2768.0,4651.0,0.546,0.486,-0.393,0.557
3683990,8184.0,1432.0,4411.0,0.541,0.493,-0.399,0.552
3684006,8230.0,1002.0,4353.0,0.536,0.501,-0.404,0.547
3684022,8064.0,2306.0,4899.0,0.53,0.508,-0.407,0.543
3684048,8116.0,2312.0,5131.0,0.525,0.515,-0.412,0.538
3684065,8388.0,1718.0,5057.0,0.521,0.521,-0.417,0.533
3684082,8584.0,1586.0,5073.0,0.518,0.526,-0.42,0.528
3684099,8598.0,2040.0,5521.0,0.516,0.53,-0.422,0.524
3684115,8616.0,1840.0,5933.0,0.515,0.533,-0.425,0.52
3684132,8656.0,1420.0,5757.0,0.515,0.535,-0.426,0.516
3684149,8696.0,836.0,5947.0,0.515,0.537,-0.426,0.514
3684166,8988.0,1332.0,5871.0,0.517,0.538,-0.425,0.513
3684183,8706.0,1732.0,6145.0,0.52,0.537,-0.422,0.513
3684200,8494.0,2002.0,6407.0,0.523,0.535,-0.42,0.513
3684217,8552.0,1604.0,6401.0,0.528,0.532,-0.416,0.515
3684234,8588.0,1878.0,6893.0,0.534,0.528,-0.413,0.516
3684251,8848.0,1428.0,6581.0,0.54,0.522,-0.409,0.518
3684277,9118.0,1752.0,6551.0,0.547,0.517,-0.403,0.521
3684293,8758.0,3754.0,7881.0,0.553,0.511,-0.397,0.524
3684310,8498.0,4430.0,8225.0,0.561,0.503,-0.395,0.527
3684326,9386.0,2182.0,7443.0,0.57,0.492,-0.393,0.528
3684342,10384.0,1222.0,7441.0,0.58,0.481,-0.389,0.53
3684358,10570.0,3048.0,7141.0,0.59,0.47,-0.383,0.534
3684384,10980.0,3752.0,7143.0,0.601,0.456,-0.376,0.538
3684400,11502.0,2944.0,6583.0,0.613,0.441,-0.367,0.543
3684416,11994.0,2688.0,6909.0,0.627,0.425,-0.356,0.548
3684432,11654.0,3632.0,7139.0,0.642,0.408,-0.342,0.552
3684448,12220.0,5256.0,6803.0,0.657,0.389,-0.329,0.555
3684464,12658.0,3688.0,5751.0,0.674,0.367,-0.315,0.558
3684490,12292.0,2472.0,5983.0,0.691,0.346,-0.299,0.56
3684506,11956.0,3540.0,6035.0,0.708,0.324,-0.281,0.562
3684522,11656.0,4308.0,6307.0,0.724,0.301,-0.262,0.562
3684538,11878.0,3464.0,5717.0,0.741,0.276,-0.244,0.561
3684555,11932.0,2156.0,4755.0,0.758,0.251,-0.223,0.559
3684572,11128.0,2666.0,4771.0,0.774,0.227,-0.2,0.556
3684588,9372.0,2904.0,6167.0,0.789,0.204,-0.176,0.552
3684614,8852.0,4358.0,5627.0,0.803,0.18,-0.153,0.547
3684630,8702.0,2864.0,4671.0,0.817,0.154,-0.133,0.54
3684646,8258.0,1528.0,4789.0,0.829,0.129,-0.112,0.532
3684663,6842.0,1842.0,5177.0,0.841,0.107,-0.092,0.523
3684680,5662.0,2194.0,5275.0,0.85,0.085,-0.072,0.514
3684697,5346.0,2474.0,5175.0,0.859,0.064,-0.054,0.505
3684713,5350.0,1034.0,3961.0,0.867,0.04,-0.036,0.495
3684730,4760.0,588.0,3887.0,0.874,0.017,-0.018,0.484
3684748,2620.0,-436.0,4837.0,0.88,-0.003,0.001,0.474
3684764,2006.0,1070.0,5245.0,0.885,-0.022,0.019,0.464
3684790,2482.0,1400.0,3325.0,0.889,-0.042,0.034,0.454
3684806,1886.0,-1318.0,3033.0,0.893,-0.062,0.048,0.444
3684822,782.0,-3178.0,2793.0,0.896,-0.078,0.064,0.433
3684838,-32.0,-1690.0,3141.0,0.899,-0.09,0.081,0.421
3684854,-482.0,1174.0,2655.0,0.901,-0.102,0.095,0.411
3684880,-426.0,-1118.0,1753.0,0.902,-0.117,0.106,0.402
3684896,-1250.0,-3502.0,1611.0,0.903,-0.129,0.116,0.393
3684912,-1738.0,-2374.0,1447.0,0.905,-0.137,0.125,0.384
3684929,-2152.0,-2864.0,805.0,0.906,-0.145,0.13,0.376
3684947,-998.0,-2396.0,-375.0,0.907,-0.151,0.134,0.37
3684964,-2042.0,-4342.0,117.0,0.908,-0.157,0.134,0.366
3684981,-1940.0,-4662.0,457.0,0.909,-0.159,0.133,0.363
3684998,-1980.0,-4426.0,15.0,0.909,-0.158,0.131,0.362
3685015,-2198.0,-4950.0,1.0,0.91,-0.154,0.126,0.363
3685032,-1904.0,-4740.0,359.0,0.911,-0.148,0.121,0.366
3685049,-1870.0,-4740.0,1063.0,0.911,-0.138,0.114,0.37
3685066,-1766.0,-3500.0,2089.0,0.912,-0.126,0.106,0.376
3685083,-1458.0,-2298.0,2705.0,0.912,-0.112,0.096,0.383
3685100,-826.0,-2918.0,2741.0,0.911,-0.098,0.084,0.391
3685117,-262.0,-2370.0,3539.0,0.911,-0.082,0.072,0.398
3685144,-52.0,-1098.0,4625.0,0.91,-0.065,0.058,0.406
3685161,178.0,-544.0,5229.0,0.907,-0.048,0.044,0.416
3685177,914.0,262.0,5417.0,0.904,-0.032,0.028,0.426
3685194,1752.0,-876.0,5317.0,0.9,-0.016,0.012,0.435
3685210,2222.0,-568.0,6157.0,0.896,0.002,-0.003,0.444
3685226,2512.0,968.0,6619.0,0.891,0.02,-0.018,0.454
3685242,3262.0,1504.0,6587.0,0.885,0.038,-0.035,0.463
3685268,4034.0,942.0,6779.0,0.879,0.056,-0.05,0.472
3685284,4420.0,688.0,6763.0,0.872,0.074,-0.065,0.48
3685300,4082.0,1290.0,7439.0,0.864,0.093,-0.079,0.488
3685316,4472.0,3128.0,7199.0,0.856,0.112,-0.093,0.496
3685332,5366.0,1546.0,6699.0,0.847,0.13,-0.109,0.503
3685348,5582.0,1128.0,7165.0,0.838,0.149,-0.122,0.51
3685374,5528.0,2788.0,7399.0,0.828,0.168,-0.135,0.517
3685390,5408.0,3676.0,7607.0,0.818,0.185,-0.15,0.524
3685406,6314.0,1610.0,6475.0,0.807,0.202,-0.166,0.529
3685422,7454.0,1140.0,6189.0,0.796,0.219,-0.179,0.536
3685438,7108.0,2328.0,6865.0,0.783,0.238,-0.189,0.542
3685464,6800.0,4354.0,7143.0,0.77,0.257,-0.2,0.548
3685480,6666.0,3570.0,6971.0,0.758,0.273,-0.213,0.553
3685496,7988.0,2430.0,6459.0,0.745,0.29,-0.227,0.556
3685513,7962.0,3410.0,6747.0,0.732,0.306,-0.239,0.559
3685529,8096.0,3270.0,6497.0,0.719,0.322,-0.252,0.562
3685545,8168.0,3238.0,6327.0,0.705,0.338,-0.264,0.565
3685561,8458.0,2474.0,5399.0,0.693,0.352,-0.275,0.566
3685587,9322.0,2226.0,5651.0,0.68,0.367,-0.284,0.568
3685603,8588.0,3850.0,6337.0,0.666,0.383,-0.292,0.57
3685619,8374.0,5404.0,6393.0,0.653,0.397,-0.302,0.57
3685635,8680.0,3526.0,5733.0,0.64,0.409,-0.314,0.57
3685651,9234.0,1850.0,5285.0,0.628,0.421,-0.325,0.568
3685667,9200.0,1932.0,5307.0,0.616,0.433,-0.333,0.567
3685693,9122.0,3112.0,5507.0,0.605,0.446,-0.34,0.566
3685709,8416.0,3864.0,6263.0,0.594,0.457,-0.347,0.564
3685726,8918.0,3268.0,5539.0,0.583,0.467,-0.356,0.562
3685742,8920.0,2296.0,5123.0,0.574,0.476,-0.364,0.559
3685758,9022.0,1734.0,5189.0,0.564,0.484,-0.369,0.557
3685774,8420.0,3120.0,5475.0,0.555,0.493,-0.374,0.556
3685790,8562.0,3138.0,5499.0,0.547,0.501,-0.379,0.554
3685816,8654.0,2270.0,5545.0,0.54,0.507,-0.384,0.551
3685832,8664.0,1680.0,5199.0,0.534,0.514,-0.387,0.549
3685848,8618.0,2248.0,5565.0,0.529,0.52,-0.39,0.547
3685864,8132.0,2854.0,5829.0,0.524,0.525,-0.391,0.545
3685880,8174.0,3052.0,5795.0,0.52,0.529,-0.394,0.543
3685896,8192.0,1908.0,5457.0,0.517,0.532,-0.396,0.541
3685922,8132.0,1454.0,5683.0,0.515,0.535,-0.396,0.54
3685938,7982.0,2704.0,5763.0,0.514,0.537,-0.395,0.54
3685954,7774.0,3286.0,6243.0,0.513,0.538,-0.394,0.54
3685970,7946.0,2438.0,6035.0,0.514,0.538,-0.393,0.54
3685986,8210.0,1730.0,5901.0,0.516,0.537,-0.391,0.54
3686002,8142.0,2192.0,5889.0,0.519,0.536,-0.387,0.542
3686028,7698.0,3096.0,6607.0,0.522,0.534,-0.383,0.544
3686044,8004.0,3714.0,6285.0,0.527,0.53,-0.379,0.546
3686060,8108.0,2768.0,6547.0,0.532,0.526,-0.375,0.548
3686076,8796.0,3244.0,6817.0,0.539,0.52,-0.369,0.55
3686092,8796.0,2746.0,6459.0,0.547,0.513,-0.363,0.552
3686118,9154.0,2998.0,6701.0,0.556,0.506,-0.356,0.555
3686134,8770.0,4228.0,6845.0,0.566,0.498,-0.347,0.558
3686150,9104.0,4612.0,6923.0,0.577,0.489,-0.34,0.56
3686166,9874.0,4034.0,7125.0,0.589,0.477,-0.332,0.561
3686182,10330.0,3238.0,6917.0,0.602,0.465,-0.324,0.563
3686198,10442.0,2982.0,6687.0,0.615,0.453,-0.313,0.565
3686224,10588.0,3382.0,6983.0,0.629,0.439,-0.301,0.567
3686240,10760.0,4264.0,6801.0,0.644,0.425,-0.287,0.568
3686256,10920.0,4910.0,6959.0,0.659,0.408,-0.272,0.57
3686272,10262.0,4086.0,6851.0,0.676,0.39,-0.258,0.569
3686288,10366.0,3632.0,6907.0,0.693,0.372,-0.243,0.568
3686304,10582.0,4788.0,6919.0,0.71,0.353,-0.227,0.565
3686330,10406.0,4390.0,6485.0,0.727,0.332,-0.212,0.563
3686346,9888.0,3388.0,6675.0,0.743,0.311,-0.195,0.56
3686362,9126.0,5002.0,6935.0,0.759,0.291,-0.177,0.556
3686378,8704.0,4736.0,6767.0,0.774,0.268,-0.161,0.55
3686394,8740.0,3550.0,6127.0,0.789,0.245,-0.144,0.545
3686420,7372.0,3290.0,6343.0,0.803,0.221,-0.127,0.538
3686436,6658.0,2848.0,5743.0,0.816,0.199,-0.11,0.531
3686452,6230.0,2930.0,5949.0,0.829,0.177,-0.093,0.523
3686468,5182.0,3922.0,6203.0,0.839,0.155,-0.077,0.515
3686484,5276.0,3578.0,5501.0,0.849,0.133,-0.064,0.507
3686500,5372.0,562.0,4945.0,0.859,0.108,-0.051,0.498
3686516,4488.0,160.0,5019.0,0.867,0.087,-0.035,0.489
3686542,4028.0,2430.0,5193.0,0.875,0.068,-0.019,0.479
3686558,3352.0,2178.0,5319.0,0.881,0.048,-0.004,0.47
3686574,3614.0,792.0,4289.0,0.887,0.026,0.01,0.46
3686590,2750.0,-1564.0,3839.0,0.892,0.007,0.025,0.451
3686606,1498.0,470.0,4637.0,0.897,-0.009,0.04,0.44
3686632,1092.0,1576.0,4441.0,0.901,-0.026,0.054,0.43
3686648,1030.0,266.0,3833.0,0.904,-0.044,0.065,0.421
3686664,1224.0,-724.0,2991.0,0.906,-0.061,0.075,0.412
3686680,524.0,-2588.0,2805.0,0.908,-0.077,0.086,0.403
3686696,-480.0,-2266.0,2977.0,0.91,-0.089,0.098,0.394
3686713,-942.0,-628.0,2895.0,0.911,-0.1,0.109,0.385
3686730,-1026.0,-1522.0,1917.0,0.912,-0.112,0.117,0.377
3686747,-1480.0,-2900.0,2249.0,0.912,-0.123,0.123,0.371
3686764,-2414.0,-3900.0,1983.0,0.913,-0.131,0.127,0.366
3686781,-2254.0,-2956.0,1859.0,0.913,-0.136,0.129,0.362
3686808,-2448.0,-3416.0,1555.0,0.913,-0.14,0.129,0.361
3686825,-2102.0,-5184.0,1349.0,0.913,-0.143,0.126,0.361
3686842,-2014.0,-4008.0,1213.0,0.913,-0.142,0.123,0.361
3686858,-1700.0,-4388.0,1515.0,0.914,-0.139,0.119,0.363
3686874,-1954.0,-4418.0,2059.0,0.914,-0.133,0.114,0.366
3686891,-1860.0,-3752.0,2425.0,0.914,-0.125,0.108,0.37
3686908,-1692.0,-3126.0,2899.0,0.914,-0.115,0.101,0.376
3686925,-1354.0,-2990.0,3121.0,0.914,-0.104,0.093,0.382
3686941,-704.0,-2854.0,3219.0,0.913,-0.092,0.084,0.388
3686967,-734.0,-1870.0,4241.0,0.912,-0.079,0.075,0.396
3686983,-824.0,-776.0,5033.0,0.91,-0.064,0.064,0.404
3686999,-270.0,-1006.0,5537.0,0.907,-0.05,0.052,0.414
3687015,334.0,-830.0,5129.0,0.904,-0.036,0.038,0.423
3687031,1398.0,-884.0,5241.0,0.901,-0.021,0.024,0.432
3687048,1860.0,-822.0,6323.0,0.897,-0.005,0.011,0.442
3687065,1714.0,936.0,6907.0,0.892,0.012,-0.002,0.451
3687082,2152.0,1456.0,6475.0,0.887,0.027,-0.017,0.461
3687108,3240.0,32.0,6191.0,0.881,0.041,-0.032,0.471
3687124,3778.0,-174.0,6703.0,0.874,0.058,-0.045,0.48
3687140,3746.0,1704.0,7283.0,0.867,0.077,-0.058,0.49
3687156,3970.0,2156.0,7047.0,0.859,0.094,-0.071,0.498
3687172,4854.0,726.0,6453.0,0.851,0.111,-0.084,0.507
3687188,5138.0,592.0,6947.0,0.842,0.129,-0.095,0.515
3687214,4678.0,2880.0,7613.0,0.833,0.147,-0.105,0.523
3687230,4680.0,3170.0,7503.0,0.823,0.164,-0.118,0.531
3687247,5460.0,2152.0,6897.0,0.812,0.18,-0.131,0.539
3687264,5904.0,798.0,6331.0,0.802,0.196,-0.143,0.546
3687281,6074.0,1142.0,6523.0,0.791,0.214,-0.154,0.552
3687298,6164.0,2836.0,6899.0,0.779,0.233,-0.162,0.559
3687315,6072.0,4586.0,7275.0,0.767,0.251,-0.172,0.565
3687332,6108.0,4066.0,6781.0,0.754,0.267,-0.185,0.571
3687349,6966.0,1726.0,6279.0,0.742,0.282,-0.197,0.576
3687366,7162.0,1882.0,6305.0,0.729,0.299,-0.207,0.58
3687383,7052.0,4044.0,6615.0,0.715,0.318,-0.215,0.584
3687410,6412.0,4494.0,5543.0,0.701,0.335,-0.226,0.588
3687427,7676.0,3152.0,5765.0,0.688,0.35,-0.238,0.59
3687443,7778.0,3164.0,6315.0,0.674,0.367,-0.249,0.591
3687460,8174.0,4342.0,5971.0,0.661,0.382,-0.259,0.591
3687477,8532.0,3902.0,5743.0,0.648,0.397,-0.27,0.591
3687493,8868.0,3430.0,5631.0,0.635,0.411,-0.281,0.591
3687510,8822.0,3342.0,5465.0,0.623,0.424,-0.29,0.59
3687526,8820.0,3792.0,5471.0,0.61,0.437,-0.299,0.589
3687542,8710.0,3976.0,5529.0,0.598,0.449,-0.308,0.589
3687568,8766.0,4062.0,5331.0,0.586,0.459,-0.317,0.587
3687584,8790.0,2452.0,5371.0,0.577,0.469,-0.326,0.584
3687600,8604.0,2234.0,5013.0,0.567,0.479,-0.333,0.582
3687616,8744.0,3462.0,5069.0,0.557,0.489,-0.34,0.579
3687632,8030.0,3490.0,5193.0,0.548,0.497,-0.346,0.577
3687649,8298.0,2658.0,5017.0,0.54,0.505,-0.353,0.573
3687676,8188.0,2168.0,5161.0,0.532,0.513,-0.36,0.57
3687692,8430.0,3436.0,5295.0,0.524,0.521,-0.366,0.566
3687709,8406.0,3120.0,5349.0,0.517,0.527,-0.373,0.562
3687725,8640.0,2018.0,5299.0,0.511,0.533,-0.379,0.558
3687741,8606.0,2116.0,5545.0,0.505,0.539,-0.383,0.554
3687757,8378.0,3314.0,5863.0,0.501,0.545,-0.386,0.551
3687773,8188.0,3084.0,6167.0,0.497,0.549,-0.39,0.547
3687799,8272.0,2864.0,6339.0,0.495,0.552,-0.394,0.543
3687815,8482.0,2082.0,5951.0,0.494,0.554,-0.397,0.54
3687831,8468.0,2200.0,6421.0,0.494,0.556,-0.397,0.537
3687847,8306.0,3354.0,6771.0,0.495,0.557,-0.398,0.535
3687863,8442.0,2898.0,6653.0,0.498,0.556,-0.398,0.534
3687880,8822.0,2186.0,6619.0,0.502,0.554,-0.396,0.532
3687897,8474.0,2822.0,7157.0,0.508,0.551,-0.394,0.532
3687914,8432.0,3656.0,7279.0,0.515,0.547,-0.391,0.533
3687941,8608.0,3500.0,7309.0,0.523,0.54,-0.389,0.533
3687957,9026.0,2648.0,6825.0,0.531,0.532,-0.385,0.535
3687973,9456.0,4224.0,7661.0,0.54,0.524,-0.381,0.538
3687989,9322.0,5518.0,8439.0,0.55,0.513,-0.377,0.54
3688006,9592.0,4934.0,8677.0,0.562,0.5,-0.375,0.542
3688024,11186.0,3856.0,6831.0,0.577,0.485,-0.371,0.543
3688040,11468.0,1726.0,6719.0,0.592,0.47,-0.362,0.546
3688056,10888.0,2878.0,7049.0,0.607,0.455,-0.348,0.55
3688082,10176.0,5238.0,8099.0,0.622,0.441,-0.333,0.555
3688098,11376.0,6936.0,7869.0,0.639,0.424,-0.319,0.557
3688114,11902.0,3862.0,6903.0,0.657,0.403,-0.307,0.558
3688130,12364.0,2940.0,6435.0,0.676,0.384,-0.291,0.558
3688146,11928.0,5876.0,7167.0,0.694,0.364,-0.273,0.558
3688162,12220.0,5806.0,6599.0,0.712,0.341,-0.257,0.557
3688188,12940.0,2580.0,5547.0,0.731,0.317,-0.239,0.554
3688204,11608.0,2618.0,6029.0,0.75,0.296,-0.217,0.551
3688220,10520.0,6084.0,7107.0,0.767,0.274,-0.195,0.546
3688236,10998.0,5850.0,5781.0,0.785,0.249,-0.176,0.54
3688252,10724.0,764.0,5535.0,0.802,0.224,-0.156,0.532
3688268,9686.0,3426.0,5199.0,0.817,0.202,-0.133,0.523
3688294,8282.0,3994.0,5405.0,0.832,0.18,-0.11,0.514
3688310,7782.0,3620.0,5503.0,0.845,0.156,-0.088,0.504
3688326,7350.0,1830.0,4069.0,0.857,0.133,-0.068,0.493
3688342,6168.0,602.0,4159.0,0.867,0.112,-0.046,0.483
3688358,4676.0,2028.0,4647.0,0.877,0.092,-0.024,0.471
3688374,4092.0,3002.0,4081.0,0.885,0.072,-0.004,0.46
3688400,3582.0,2102.0,3307.0,0.891,0.051,0.014,0.45
3688416,3306.0,-282.0,3235.0,0.898,0.029,0.03,0.439
3688432,3162.0,336.0,3407.0,0.903,0.011,0.046,0.428
3688448,2014.0,784.0,2863.0,0.907,-0.008,0.061,0.417
3688464,1418.0,-264.0,1601.0,0.91,-0.026,0.074,0.407
3688480,1562.0,-1640.0,1875.0,0.913,-0.043,0.088,0.396
3688506,-344.0,-56.0,2321.0,0.915,-0.059,0.101,0.386
3688522,-732.0,-1334.0,2009.0,0.916,-0.076,0.11,0.379
3688539,-812.0,-2102.0,-79.0,0.916,-0.093,0.116,0.373
3688555,-1534.0,-4362.0,367.0,0.915,-0.107,0.121,0.369
3688571,-2640.0,-5050.0,593.0,0.915,-0.117,0.124,0.366
3688588,-2426.0,-5760.0,83.0,0.914,-0.122,0.126,0.365
3688605,-1986.0,-4836.0,-271.0,0.914,-0.122,0.126,0.365
3688622,-1638.0,-5076.0,221.0,0.915,-0.119,0.126,0.365
3688649,-1164.0,-3872.0,371.0,0.916,-0.112,0.124,0.365
3688665,-1186.0,-3550.0,1017.0,0.916,-0.104,0.122,0.367
3688682,-934.0,-2796.0,1167.0,0.917,-0.093,0.119,0.369
3688699,-656.0,-3066.0,1685.0,0.917,-0.081,0.115,0.372
3688715,-1000.0,-2378.0,2347.0,0.918,-0.067,0.11,0.375
3688732,-902.0,-1686.0,3243.0,0.918,-0.052,0.104,0.38
3688749,-794.0,-1664.0,3467.0,0.917,-0.037,0.095,0.386
3688765,-124.0,-1462.0,3445.0,0.916,-0.021,0.085,0.392
3688782,220.0,-1366.0,4747.0,0.914,-0.005,0.075,0.399
3688808,486.0,-196.0,4889.0,0.911,0.013,0.063,0.407
3688825,1034.0,170.0,5223.0,0.908,0.03,0.05,0.415
3688841,2322.0,128.0,4481.0,0.904,0.046,0.036,0.424
3688857,2892.0,-470.0,5807.0,0.899,0.064,0.024,0.432
3688873,2962.0,1656.0,6455.0,0.894,0.082,0.012,0.441
3688890,3666.0,2624.0,6453.0,0.888,0.099,-0.001,0.449
3688906,4562.0,1176.0,6549.0,0.881,0.116,-0.015,0.458
3688932,4846.0,2064.0,6913.0,0.874,0.134,-0.027,0.466
3688948,4534.0,2906.0,6709.0,0.867,0.152,-0.04,0.473
3688964,5154.0,2600.0,6521.0,0.86,0.169,-0.053,0.479
3688980,5854.0,1908.0,6721.0,0.852,0.187,-0.064,0.485
3688996,5824.0,3164.0,6667.0,0.843,0.205,-0.073,0.492
3689012,5236.0,3204.0,7093.0,0.832,0.225,-0.08,0.5
3689029,4944.0,4778.0,7001.0,0.82,0.245,-0.089,0.509
3689056,4788.0,6372.0,7355.0,0.809,0.264,-0.1,0.517
3689072,5368.0,4282.0,6805.0,0.796,0.281,-0.113,0.524
3689089,6030.0,4622.0,7053.0,0.782,0.3,-0.127,0.531
3689106,5736.0,5786.0,7177.0,0.768,0.318,-0.141,0.538
3689122,6220.0,6866.0,7733.0,0.753,0.336,-0.158,0.543
3689138,6726.0,6762.0,7515.0,0.74,0.351,-0.177,0.547
3689154,7658.0,4996.0,6411.0,0.727,0.363,-0.198,0.548
3689171,8870.0,2314.0,6179.0,0.713,0.377,-0.215,0.55
3689197,8346.0,3346.0,6507.0,0.698,0.393,-0.227,0.553
3689214,7944.0,6106.0,6845.0,0.683,0.409,-0.238,0.556
3689230,7978.0,7028.0,6599.0,0.668,0.423,-0.252,0.558
3689246,8050.0,4044.0,5883.0,0.655,0.434,-0.267,0.558
3689262,8746.0,2104.0,5519.0,0.642,0.446,-0.279,0.558
3689278,8476.0,3728.0,5445.0,0.628,0.46,-0.288,0.558
3689304,8532.0,4772.0,5637.0,0.613,0.473,-0.297,0.558
3689320,8258.0,4660.0,5501.0,0.599,0.484,-0.308,0.559
3689336,8238.0,4138.0,5467.0,0.585,0.493,-0.319,0.558
3689353,8386.0,2734.0,5867.0,0.572,0.502,-0.33,0.558
3689369,8574.0,4352.0,5517.0,0.559,0.511,-0.34,0.557
3689385,8664.0,3968.0,5399.0,0.548,0.518,-0.352,0.555
3689401,9134.0,2932.0,4715.0,0.537,0.524,-0.363,0.552
3689428,9554.0,2734.0,4721.0,0.527,0.531,-0.372,0.55
3689445,9342.0,3326.0,4813.0,0.519,0.536,-0.378,0.548
3689462,8646.0,3840.0,5069.0,0.512,0.541,-0.385,0.544
3689479,8594.0,2822.0,4887.0,0.507,0.545,-0.393,0.54
3689496,8852.0,1558.0,4655.0,0.502,0.549,-0.4,0.536
3689513,8530.0,2882.0,5113.0,0.497,0.553,-0.405,0.532
3689532,8448.0,4308.0,5489.0,0.494,0.555,-0.411,0.528
3689549,8412.0,2832.0,5457.0,0.492,0.556,-0.417,0.524
3689565,8530.0,1590.0,5357.0,0.492,0.557,-0.423,0.519
3689581,8494.0,1838.0,5783.0,0.492,0.557,-0.425,0.516
3689597,8278.0,3388.0,6183.0,0.493,0.557,-0.427,0.514
3689613,8264.0,2820.0,6017.0,0.496,0.555,-0.429,0.512
3689640,10068.0,1270.0,8149.0,0.5,0.552,-0.429,0.51
3689656,8332.0,2266.0,6173.0,0.506,0.548,-0.428,0.51
3689673,8224.0,2632.0,6463.0,0.513,0.543,-0.426,0.511
3689690,8306.0,3026.0,6209.0,0.521,0.537,-0.423,0.511
3689707,9300.0,1722.0,5897.0,0.53,0.53,-0.419,0.512
3689724,9034.0,2900.0,6199.0,0.539,0.523,-0.414,0.515
3689741,8666.0,4278.0,6691.0,0.549,0.514,-0.408,0.517
3689757,9016.0,3290.0,6555.0,0.561,0.503,-0.404,0.519
3689773,9992.0,1652.0,5315.0,0.573,0.491,-0.399,0.521
3689799,10358.0,1866.0,6311.0,0.585,0.48,-0.389,0.525
3689816,10266.0,4838.0,6697.0,0.597,0.469,-0.379,0.529
3689833,10820.0,4094.0,6537.0,0.611,0.455,-0.37,0.532
3689849,11316.0,2158.0,5807.0,0.625,0.44,-0.359,0.536
3689865,11304.0,2264.0,6081.0,0.64,0.426,-0.343,0.54
3689881,10844.0,2962.0,6383.0,0.654,0.411,-0.325,0.545
3689897,10774.0,3536.0,5933.0,0.67,0.396,-0.304,0.549
3689923,10650.0,2952.0,5413.0,0.687,0.38,-0.283,0.552
3689939,10498.0,3504.0,5277.0,0.702,0.364,-0.259,0.554
3689955,10320.0,4724.0,5035.0,0.717,0.347,-0.235,0.557
3689971,10038.0,4526.0,5261.0,0.731,0.329,-0.213,0.559
3689987,9988.0,2988.0,5783.0,0.744,0.311,-0.192,0.559
3690013,9952.0,4074.0,6435.0,0.757,0.296,-0.17,0.557
3690029,10754.0,6836.0,5639.0,0.772,0.279,-0.151,0.552
3690045,10630.0,2732.0,5075.0,0.787,0.259,-0.131,0.545
3690061,8916.0,3390.0,5771.0,0.801,0.242,-0.108,0.537
3690077,7872.0,5060.0,6341.0,0.815,0.223,-0.086,0.527
3690093,7144.0,4586.0,5399.0,0.829,0.202,-0.067,0.517
3690109,6976.0,1088.0,4777.0,0.842,0.181,-0.048,0.506
3690136,5128.0,1962.0,5551.0,0.854,0.162,-0.027,0.494
3690152,3496.0,3758.0,6319.0,0.865,0.143,-0.007,0.481
3690168,3354.0,2824.0,6071.0,0.874,0.122,0.008,0.47
3690184,3454.0,1932.0,4433.0,0.883,0.098,0.023,0.458
3690201,2040.0,230.0,5471.0,0.891,0.074,0.036,0.447
3690218,810.0,736.0,5823.0,0.897,0.052,0.049,0.436
3690234,1236.0,-364.0,4701.0,0.902,0.03,0.06,0.426
3690250,1358.0,34.0,3269.0,0.907,0.009,0.071,0.416
3690276,258.0,-552.0,3809.0,0.91,-0.012,0.081,0.406
3690293,-1272.0,-992.0,4359.0,0.913,-0.032,0.091,0.397
3690310,-1626.0,-608.0,3549.0,0.914,-0.052,0.097,0.389
3690327,-670.0,-1098.0,1663.0,0.915,-0.072,0.101,0.383
3690344,158.0,-2616.0,135.0,0.916,-0.091,0.105,0.377
3690361,-708.0,-2902.0,1067.0,0.916,-0.108,0.111,0.371
3690377,-1100.0,-2706.0,895.0,0.915,-0.123,0.114,0.367
3690393,-938.0,-3494.0,-309.0,0.914,-0.136,0.115,0.365
3690419,-666.0,-4816.0,-1709.0,0.912,-0.147,0.113,0.365
3690436,-1334.0,-4838.0,-1877.0,0.912,-0.154,0.111,0.365
3690453,-2120.0,-4816.0,-1069.0,0.911,-0.155,0.106,0.368
3690469,-1602.0,-4762.0,-1401.0,0.91,-0.152,0.099,0.373
3690485,-1228.0,-4332.0,-1043.0,0.91,-0.145,0.091,0.378
3690502,-1028.0,-3960.0,175.0,0.909,-0.134,0.082,0.385
3690518,-858.0,-2916.0,1257.0,0.909,-0.119,0.072,0.393
3690534,-648.0,-2104.0,2375.0,0.908,-0.103,0.061,0.402
3690560,684.0,-3000.0,1955.0,0.906,-0.085,0.049,0.412
3690576,758.0,-1304.0,3633.0,0.905,-0.065,0.038,0.419
3690592,714.0,-1222.0,4493.0,0.902,-0.045,0.026,0.429
3690608,1016.0,-52.0,4615.0,0.898,-0.024,0.014,0.439
3690624,1972.0,-866.0,4927.0,0.893,-0.001,0.003,0.449
3690640,2540.0,-70.0,5627.0,0.888,0.022,-0.007,0.458
3690666,2332.0,1460.0,6649.0,0.882,0.046,-0.018,0.468
3690682,2204.0,2450.0,7031.0,0.875,0.07,-0.031,0.478
3690698,3724.0,1084.0,6301.0,0.867,0.093,-0.046,0.488
3690714,4498.0,624.0,6879.0,0.858,0.117,-0.059,0.496
3690730,4620.0,3580.0,7421.0,0.849,0.142,-0.071,0.504
3690756,5130.0,4220.0,7091.0,0.839,0.164,-0.086,0.512
3690772,5778.0,2352.0,6799.0,0.828,0.185,-0.102,0.52
3690788,6328.0,2536.0,6489.0,0.816,0.207,-0.116,0.527
3690804,6322.0,3004.0,7089.0,0.803,0.229,-0.128,0.534
3690820,6734.0,4396.0,7211.0,0.79,0.252,-0.14,0.541
3690836,6898.0,5190.0,7027.0,0.776,0.272,-0.154,0.548
3690862,7752.0,4130.0,6695.0,0.763,0.29,-0.169,0.552
3690878,7958.0,3334.0,6601.0,0.75,0.309,-0.182,0.556
3690894,7780.0,3920.0,6679.0,0.736,0.328,-0.194,0.56
3690910,7840.0,5548.0,7239.0,0.721,0.346,-0.208,0.563
3690926,8522.0,4314.0,5733.0,0.707,0.362,-0.222,0.566
3690942,8394.0,2714.0,6181.0,0.692,0.378,-0.235,0.568
3690968,8070.0,4774.0,6555.0,0.677,0.395,-0.247,0.569
3690984,8180.0,5354.0,6311.0,0.662,0.411,-0.262,0.569
3691000,9308.0,3536.0,5379.0,0.649,0.424,-0.278,0.568
3691016,10078.0,2560.0,5257.0,0.635,0.437,-0.291,0.566
3691032,9604.0,4090.0,5213.0,0.62,0.45,-0.304,0.566
3691048,8938.0,4390.0,5721.0,0.606,0.462,-0.316,0.565
3691074,9478.0,4154.0,4979.0,0.593,0.473,-0.33,0.562
3691090,10130.0,2694.0,4947.0,0.581,0.482,-0.343,0.559
3691106,9632.0,2410.0,4989.0,0.569,0.492,-0.354,0.556
3691122,9026.0,3212.0,5231.0,0.557,0.502,-0.364,0.553
3691138,9100.0,3028.0,4483.0,0.545,0.51,-0.374,0.55
3691154,8990.0,1816.0,4427.0,0.533,0.518,-0.384,0.547
3691180,8780.0,2056.0,4617.0,0.522,0.527,-0.392,0.545
3691196,8738.0,3136.0,4547.0,0.51,0.534,-0.4,0.543
3691212,8744.0,2536.0,4289.0,0.5,0.54,-0.409,0.539
3691228,9132.0,1536.0,4199.0,0.491,0.546,-0.417,0.536
3691244,8970.0,2588.0,4507.0,0.482,0.552,-0.425,0.532
3691260,9256.0,2668.0,4273.0,0.475,0.556,-0.433,0.527
3691286,9206.0,1080.0,3969.0,0.47,0.56,-0.44,0.522
3691302,8940.0,1404.0,4121.0,0.464,0.564,-0.444,0.519
3691318,8438.0,2192.0,4481.0,0.459,0.568,-0.448,0.516
3691334,8172.0,2394.0,4309.0,0.455,0.571,-0.452,0.513
3691350,7598.0,2510.0,5025.0,0.452,0.573,-0.455,0.51
3691366,8368.0,2884.0,5117.0,0.451,0.574,-0.46,0.505
3691392,9042.0,1236.0,4699.0,0.452,0.573,-0.464,0.502
3691408,9208.0,884.0,4073.0,0.453,0.572,-0.466,0.501
3691424,8984.0,526.0,3775.0,0.455,0.57,-0.464,0.503
3691440,7966.0,2668.0,5429.0,0.458,0.568,-0.46,0.506
3691456,8458.0,3186.0,5717.0,0.462,0.564,-0.458,0.509
3691472,9142.0,1354.0,4925.0,0.469,0.559,-0.455,0.51
3691489,9348.0,1482.0,4845.0,0.476,0.555,-0.449,0.514
3691515,9662.0,2826.0,5459.0,0.483,0.549,-0.441,0.52
3691531,9164.0,3650.0,6227.0,0.492,0.542,-0.434,0.526
3691547,9470.0,3750.0,5979.0,0.503,0.533,-0.427,0.53
3691563,10376.0,1442.0,5801.0,0.515,0.524,-0.419,0.533
3691579,11178.0,3056.0,5647.0,0.528,0.515,-0.408,0.538
3691605,11146.0,2918.0,5627.0,0.542,0.505,-0.395,0.544
3691621,10996.0,2454.0,5513.0,0.557,0.493,-0.38,0.55
3691637,9644.0,2324.0,5897.0,0.57,0.482,-0.363,0.558
3691653,10490.0,5638.0,7127.0,0.585,0.47,-0.345,0.564
3691669,10182.0,5170.0,6933.0,0.602,0.455,-0.332,0.566
3691685,11132.0,3152.0,5619.0,0.619,0.439,-0.32,0.567
3691711,11024.0,2914.0,6401.0,0.636,0.424,-0.306,0.567
3691727,10640.0,3782.0,7053.0,0.653,0.409,-0.293,0.567
3691743,11842.0,5166.0,6117.0,0.668,0.393,-0.28,0.566
3691759,12218.0,4172.0,5635.0,0.684,0.373,-0.268,0.566
3691775,11408.0,2376.0,6261.0,0.7,0.354,-0.254,0.566
3691791,12150.0,3958.0,5991.0,0.715,0.335,-0.238,0.565
3691817,11624.0,4272.0,5829.0,0.731,0.313,-0.222,0.564
3691833,11182.0,1954.0,5619.0,0.747,0.29,-0.204,0.562
3691849,10420.0,2462.0,6099.0,0.762,0.269,-0.183,0.56
3691865,9882.0,5648.0,6167.0,0.777,0.245,-0.163,0.556
3691881,9408.0,3948.0,5837.0,0.792,0.219,-0.145,0.552
3691898,9850.0,2164.0,5057.0,0.806,0.192,-0.127,0.546
3691914,8722.0,270.0,4537.0,0.819,0.167,-0.106,0.539
3691940,6644.0,2206.0,5563.0,0.831,0.145,-0.083,0.531
3691956,5318.0,4816.0,6833.0,0.842,0.119,-0.064,0.522
3691972,5568.0,3416.0,5059.0,0.852,0.091,-0.051,0.512
3691988,4848.0,-1656.0,4093.0,0.862,0.062,-0.038,0.502
3692005,3008.0,-2204.0,4001.0,0.87,0.04,-0.022,0.491
3692022,1866.0,1644.0,4847.0,0.878,0.021,-0.005,0.479
3692048,1310.0,3496.0,4737.0,0.884,-0.003,0.004,0.467
3692064,836.0,6.0,3755.0,0.889,-0.03,0.01,0.457
3692080,860.0,-2102.0,3137.0,0.892,-0.054,0.016,0.449
3692096,284.0,-1914.0,2737.0,0.894,-0.074,0.023,0.441
3692112,66.0,-1556.0,2531.0,0.896,-0.093,0.032,0.433
3692128,-630.0,-738.0,2393.0,0.897,-0.111,0.04,0.426
3692154,-754.0,-1682.0,1603.0,0.897,-0.13,0.046,0.42
3692171,-512.0,-3582.0,1153.0,0.897,-0.147,0.053,0.414
3692187,-86.0,-4126.0,-27.0,0.897,-0.158,0.062,0.408
3692203,-338.0,-52.0,-705.0,0.897,-0.167,0.071,0.403
3692219,-900.0,-986.0,-1015.0,0.895,-0.18,0.076,0.401
3692236,-746.0,-5322.0,-1909.0,0.893,-0.191,0.08,0.4
3692252,-1088.0,-3344.0,-2145.0,0.891,-0.196,0.083,0.4
3692268,-1862.0,-2764.0,-2429.0,0.89,-0.199,0.084,0.402
3692294,-2048.0,-4464.0,-2575.0,0.888,-0.198,0.081,0.406
3692310,-2384.0,-5398.0,-2325.0,0.888,-0.191,0.078,0.41
3692327,-2962.0,-3126.0,-1353.0,0.889,-0.179,0.071,0.416
3692344,-2996.0,-2946.0,-155.0,0.889,-0.163,0.061,0.424
3692361,-1806.0,-1708.0,647.0,0.888,-0.144,0.046,0.433
3692378,2.0,-2134.0,531.0,0.888,-0.125,0.029,0.442
3692395,706.0,-4022.0,2169.0,0.887,-0.103,0.013,0.45
3692412,1310.0,-170.0,2973.0,0.886,-0.075,-0.002,0.457
3692429,1614.0,876.0,3345.0,0.883,-0.047,-0.018,0.467
3692446,2122.0,-1156.0,4013.0,0.879,-0.021,-0.034,0.475
3692463,3046.0,-132.0,4417.0,0.875,0.009,-0.051,0.481
3692490,3762.0,2534.0,5417.0,0.87,0.04,-0.067,0.487
3692506,4886.0,5076.0,6657.0,0.863,0.069,-0.087,0.492
3692522,6190.0,3732.0,5677.0,0.856,0.096,-0.112,0.496
3692538,8444.0,-1356.0,4417.0,0.848,0.124,-0.133,0.497
3692554,7744.0,2728.0,6149.0,0.839,0.16,-0.148,0.498
3692570,7300.0,7634.0,6845.0,0.828,0.193,-0.167,0.5
3692596,8594.0,4352.0,6211.0,0.814,0.22,-0.188,0.503
3692612,9674.0,2756.0,5861.0,0.801,0.247,-0.208,0.504
3692628,8878.0,2910.0,6957.0,0.787,0.274,-0.226,0.505
3692644,9756.0,3862.0,6563.0,0.771,0.302,-0.242,0.505
3692660,10244.0,6762.0,6441.0,0.754,0.327,-0.26,0.507
3692676,10416.0,3564.0,6837.0,0.737,0.348,-0.276,0.509
3692702,11300.0,5234.0,6465.0,0.721,0.37,-0.289,0.51
3692718,10580.0,5026.0,7387.0,0.703,0.392,-0.3,0.511
3692734,10828.0,5014.0,6977.0,0.686,0.412,-0.311,0.512
3692750,9932.0,3938.0,7267.0,0.67,0.429,-0.322,0.513
3692766,10568.0,3506.0,7243.0,0.653,0.446,-0.333,0.515
3692792,11422.0,4554.0,7541.0,0.635,0.461,-0.341,0.517
3692808,10592.0,6430.0,7755.0,0.618,0.474,-0.351,0.519
3692825,11132.0,3792.0,7081.0,0.604,0.483,-0.363,0.52
3692841,10586.0,1060.0,6571.0,0.59,0.493,-0.371,0.521
3692857,10486.0,2114.0,6257.0,0.576,0.505,-0.373,0.523
3692873,9980.0,3324.0,6211.0,0.562,0.516,-0.373,0.528
3692890,8750.0,4094.0,6407.0,0.549,0.525,-0.374,0.532
3692906,8596.0,1776.0,5685.0,0.538,0.532,-0.375,0.536
3692923,8248.0,1912.0,5681.0,0.527,0.539,-0.373,0.541
3692949,8156.0,3272.0,5619.0,0.516,0.546,-0.371,0.546
3692965,8154.0,2892.0,5391.0,0.506,0.552,-0.37,0.55
3692981,8408.0,2424.0,5305.0,0.497,0.557,-0.367,0.555
3692997,8416.0,2168.0,4779.0,0.488,0.561,-0.363,0.561
3693013,7722.0,2374.0,4999.0,0.48,0.565,-0.358,0.567
3693030,7844.0,2966.0,5059.0,0.472,0.569,-0.351,0.574
3693056,8480.0,3592.0,4789.0,0.465,0.572,-0.344,0.581
3693072,8658.0,2854.0,4817.0,0.46,0.574,-0.335,0.589
3693088,8376.0,2512.0,4541.0,0.456,0.575,-0.324,0.597
3693105,7876.0,2894.0,4973.0,0.452,0.577,-0.311,0.605
3693121,8106.0,4050.0,4891.0,0.448,0.579,-0.295,0.614
3693137,8494.0,3904.0,4571.0,0.446,0.581,-0.277,0.622
3693153,8184.0,4100.0,4225.0,0.444,0.582,-0.257,0.631
3693179,7084.0,4884.0,4327.0,0.443,0.583,-0.235,0.639
3693195,6394.0,5094.0,4831.0,0.442,0.583,-0.214,0.647
