timestamp,ax,ay,az,q0,q1,q2,q3
3800526,1420.0,-664.0,1985.0,0.849,-0.137,0.033,0.51
3800542,1136.0,-3084.0,1693.0,0.851,-0.155,0.043,0.5
3800568,-30.0,-2950.0,1843.0,0.853,-0.169,0.054,0.49
3800584,-392.0,-2156.0,1513.0,0.856,-0.182,0.062,0.481
3800600,-288.0,-2712.0,501.0,0.857,-0.195,0.068,0.472
3800617,-444.0,-5098.0,313.0,0.858,-0.205,0.074,0.465
3800634,-1160.0,-3894.0,-69.0,0.859,-0.212,0.08,0.46
3800650,-1500.0,-3694.0,-133.0,0.859,-0.217,0.083,0.456
3800667,-1386.0,-4478.0,-251.0,0.858,-0.22,0.086,0.455
3800683,-1438.0,-4036.0,-443.0,0.858,-0.22,0.086,0.456
3800700,-1316.0,-4334.0,119.0,0.858,-0.217,0.086,0.457
3800726,-1626.0,-3898.0,535.0,0.858,-0.212,0.085,0.46
3800743,-1746.0,-3850.0,1117.0,0.858,-0.204,0.082,0.464
3800760,-1660.0,-3524.0,1611.0,0.858,-0.194,0.077,0.469
3800777,-1532.0,-3120.0,2091.0,0.858,-0.181,0.071,0.475
3800794,-1154.0,-2790.0,2805.0,0.858,-0.167,0.063,0.481
3800811,-958.0,-2284.0,3499.0,0.857,-0.152,0.055,0.489
3800828,-286.0,-1600.0,3963.0,0.856,-0.136,0.046,0.497
3800845,312.0,-1880.0,4257.0,0.854,-0.119,0.036,0.505
3800862,258.0,-2024.0,5235.0,0.852,-0.101,0.028,0.513
3800879,624.0,544.0,5819.0,0.85,-0.082,0.019,0.521
3800895,904.0,766.0,6485.0,0.846,-0.065,0.007,0.529
3800921,1648.0,-504.0,6581.0,0.842,-0.048,-0.006,0.537
3800937,1846.0,-1280.0,6725.0,0.839,-0.03,-0.017,0.544
3800953,2376.0,362.0,7093.0,0.835,-0.01,-0.027,0.55
3800969,2816.0,1836.0,7719.0,0.83,0.009,-0.038,0.557
3800985,3210.0,-42.0,7625.0,0.825,0.027,-0.05,0.563
3801001,3568.0,484.0,7281.0,0.82,0.045,-0.06,0.568
3801027,3938.0,1560.0,7481.0,0.814,0.063,-0.07,0.573
3801043,3752.0,1978.0,8175.0,0.808,0.081,-0.079,0.577
3801059,3830.0,3130.0,7975.0,0.802,0.099,-0.09,0.582
3801075,4878.0,1174.0,7231.0,0.796,0.115,-0.102,0.586
3801091,5080.0,196.0,7401.0,0.789,0.133,-0.111,0.589
3801107,4580.0,2958.0,7603.0,0.782,0.152,-0.119,0.592
3801133,4762.0,4286.0,7387.0,0.775,0.17,-0.129,0.595
3801149,5462.0,1392.0,7359.0,0.768,0.186,-0.14,0.596
3801167,6110.0,2590.0,6967.0,0.761,0.204,-0.15,0.598
3801183,5648.0,3170.0,7105.0,0.753,0.221,-0.16,0.598
3801199,5704.0,2764.0,7197.0,0.746,0.238,-0.171,0.598
3801215,6512.0,2950.0,7049.0,0.738,0.256,-0.182,0.597
3801231,6548.0,3174.0,6751.0,0.73,0.273,-0.193,0.596
3801257,6864.0,2844.0,6821.0,0.722,0.29,-0.203,0.595
3801273,6982.0,3570.0,7039.0,0.713,0.306,-0.213,0.593
3801289,7234.0,2922.0,6665.0,0.705,0.322,-0.224,0.591
3801305,7528.0,3480.0,7205.0,0.697,0.339,-0.233,0.588
3801321,7868.0,3748.0,6797.0,0.689,0.353,-0.244,0.584
3801337,8192.0,2018.0,6447.0,0.681,0.367,-0.254,0.58
3801363,8040.0,2384.0,6641.0,0.673,0.382,-0.262,0.577
3801379,8068.0,3786.0,6767.0,0.665,0.396,-0.269,0.574
3801395,7856.0,2636.0,6543.0,0.658,0.407,-0.277,0.57
3801411,8152.0,2210.0,6399.0,0.651,0.419,-0.284,0.566
3801427,7968.0,2910.0,6241.0,0.643,0.43,-0.29,0.563
3801453,7954.0,3730.0,6409.0,0.636,0.44,-0.296,0.56
3801469,8316.0,1794.0,5889.0,0.63,0.448,-0.303,0.557
3801485,8186.0,1214.0,5831.0,0.624,0.457,-0.308,0.554
3801501,7706.0,2968.0,6243.0,0.618,0.465,-0.312,0.552
3801517,7386.0,3048.0,6081.0,0.613,0.471,-0.317,0.549
3801533,7568.0,1194.0,5929.0,0.608,0.477,-0.322,0.547
3801550,7482.0,1224.0,6233.0,0.603,0.485,-0.325,0.544
3801576,7498.0,3368.0,6759.0,0.599,0.491,-0.329,0.541
3801592,8044.0,3366.0,6691.0,0.595,0.496,-0.334,0.538
3801608,8886.0,1070.0,6343.0,0.592,0.498,-0.339,0.535
3801624,8900.0,1022.0,7661.0,0.589,0.501,-0.34,0.534
3801641,8432.0,2766.0,8433.0,0.587,0.503,-0.341,0.534
3801658,9208.0,3666.0,8253.0,0.587,0.503,-0.343,0.534
3801675,9466.0,562.0,8319.0,0.589,0.5,-0.343,0.534
3801691,9520.0,532.0,8615.0,0.591,0.498,-0.34,0.536
3801718,8570.0,3760.0,9591.0,0.595,0.493,-0.336,0.539
3801734,9076.0,2766.0,9587.0,0.6,0.485,-0.334,0.541
3801750,9888.0,508.0,8859.0,0.607,0.476,-0.33,0.545
3801766,9564.0,1498.0,9265.0,0.614,0.465,-0.322,0.55
3801782,8856.0,4194.0,9999.0,0.621,0.453,-0.315,0.557
3801799,9696.0,2732.0,10135.0,0.63,0.437,-0.309,0.562
3801825,11524.0,2282.0,9121.0,0.64,0.421,-0.3,0.568
3801841,11398.0,3534.0,9311.0,0.65,0.403,-0.29,0.575
3801857,11128.0,3960.0,9783.0,0.662,0.383,-0.278,0.581
3801874,12356.0,4264.0,9477.0,0.674,0.361,-0.266,0.587
3801890,12832.0,4032.0,8423.0,0.687,0.337,-0.252,0.593
3801906,12012.0,1986.0,7923.0,0.701,0.311,-0.234,0.598
3801923,11036.0,3938.0,7683.0,0.714,0.286,-0.213,0.602
3801949,10312.0,4754.0,8583.0,0.727,0.259,-0.192,0.606
3801965,9856.0,5410.0,8053.0,0.74,0.231,-0.174,0.607
3801982,10262.0,3028.0,6785.0,0.753,0.199,-0.157,0.607
3801999,9874.0,2564.0,6051.0,0.766,0.168,-0.139,0.605
3802015,8302.0,2894.0,6615.0,0.776,0.138,-0.119,0.603
3802031,7062.0,3378.0,7181.0,0.786,0.108,-0.102,0.6
3802047,7592.0,2848.0,5119.0,0.795,0.077,-0.087,0.596
3802063,7094.0,1076.0,5557.0,0.803,0.047,-0.07,0.59
3802089,6588.0,3214.0,4931.0,0.809,0.019,-0.055,0.584
3802105,5614.0,1018.0,4939.0,0.815,-0.01,-0.041,0.578
3802121,5146.0,168.0,4217.0,0.819,-0.037,-0.026,0.572
3802137,4416.0,982.0,3415.0,0.823,-0.063,-0.01,0.565
3802154,3810.0,548.0,2951.0,0.826,-0.088,0.005,0.557
3802170,2828.0,-86.0,2891.0,0.828,-0.112,0.021,0.549
3802196,1842.0,-466.0,2815.0,0.83,-0.133,0.036,0.54
3802212,1522.0,210.0,2249.0,0.832,-0.152,0.049,0.532
3802228,944.0,-910.0,1375.0,0.832,-0.172,0.06,0.524
3802244,-214.0,-2488.0,1209.0,0.833,-0.188,0.071,0.516
3802260,-1044.0,-1220.0,1375.0,0.834,-0.202,0.081,0.508
3802276,-1504.0,-1656.0,559.0,0.834,-0.214,0.087,0.501
3802302,-1854.0,-3320.0,-107.0,0.833,-0.225,0.091,0.496
3802318,-2078.0,-3890.0,-503.0,0.833,-0.233,0.094,0.493
3802334,-2482.0,-3474.0,-613.0,0.833,-0.238,0.096,0.49
3802350,-2538.0,-3986.0,-585.0,0.833,-0.241,0.097,0.489
3802367,-2486.0,-4564.0,-641.0,0.832,-0.24,0.096,0.49
3802384,-2460.0,-3760.0,-459.0,0.833,-0.237,0.094,0.492
3802400,-2236.0,-3652.0,-419.0,0.833,-0.232,0.091,0.495
3802417,-1954.0,-3706.0,241.0,0.833,-0.224,0.086,0.498
3802444,-2078.0,-2930.0,771.0,0.834,-0.215,0.08,0.502
3802460,-1754.0,-3506.0,1209.0,0.834,-0.204,0.073,0.507
3802476,-1312.0,-2356.0,1791.0,0.835,-0.19,0.066,0.512
3802492,-1206.0,-2004.0,2597.0,0.836,-0.175,0.056,0.517
3802509,-896.0,-1992.0,3067.0,0.836,-0.159,0.045,0.523
3802526,-282.0,-1832.0,3501.0,0.836,-0.141,0.033,0.529
3802542,468.0,-1242.0,4077.0,0.836,-0.122,0.021,0.535
3802559,752.0,406.0,4977.0,0.835,-0.103,0.007,0.54
3802585,1300.0,-272.0,5739.0,0.833,-0.085,-0.009,0.546
3802601,2112.0,-1568.0,5301.0,0.831,-0.067,-0.026,0.552
3802617,2448.0,-736.0,6097.0,0.829,-0.045,-0.04,0.556
3802634,3254.0,956.0,7041.0,0.826,-0.023,-0.056,0.56
3802650,3636.0,484.0,7181.0,0.822,-0.002,-0.071,0.565
3802667,3808.0,1036.0,7575.0,0.818,0.02,-0.086,0.569
3802693,4352.0,688.0,7609.0,0.813,0.04,-0.101,0.572
3802709,5294.0,-582.0,7921.0,0.808,0.06,-0.115,0.575
3802725,5438.0,772.0,8083.0,0.802,0.081,-0.126,0.578
3802742,5300.0,2420.0,8989.0,0.796,0.101,-0.137,0.581
3802759,5568.0,1352.0,8269.0,0.789,0.119,-0.149,0.583
3802776,6224.0,-110.0,7961.0,0.783,0.138,-0.159,0.585
3802792,6332.0,1680.0,8439.0,0.776,0.157,-0.168,0.587
3802808,5944.0,2218.0,8499.0,0.769,0.175,-0.178,0.589
3802825,6084.0,2124.0,8125.0,0.762,0.192,-0.188,0.59
3802851,6814.0,1264.0,7741.0,0.754,0.208,-0.198,0.59
3802867,7048.0,1752.0,7669.0,0.747,0.225,-0.207,0.591
3802883,7082.0,1960.0,7299.0,0.739,0.241,-0.216,0.59
3802899,6998.0,2328.0,6975.0,0.732,0.257,-0.224,0.59
3802915,7088.0,1558.0,6679.0,0.724,0.274,-0.232,0.589
3802932,6986.0,2340.0,6629.0,0.716,0.291,-0.239,0.588
3802948,6940.0,3586.0,6675.0,0.708,0.308,-0.248,0.585
3802974,7368.0,3364.0,6473.0,0.7,0.323,-0.259,0.581
3802990,7526.0,3140.0,6699.0,0.693,0.338,-0.272,0.576
3803007,8288.0,2736.0,5669.0,0.686,0.352,-0.285,0.57
3803023,8580.0,490.0,5287.0,0.679,0.365,-0.296,0.564
3803039,8894.0,2782.0,6387.0,0.671,0.381,-0.304,0.559
3803055,8328.0,4818.0,6141.0,0.663,0.395,-0.313,0.554
3803081,8526.0,2152.0,5765.0,0.657,0.405,-0.325,0.547
3803097,9074.0,720.0,5273.0,0.65,0.416,-0.334,0.541
3803113,8612.0,2098.0,5725.0,0.644,0.428,-0.34,0.536
3803129,8304.0,3210.0,6163.0,0.637,0.438,-0.347,0.53
3803145,8556.0,2436.0,5723.0,0.632,0.447,-0.355,0.524
3803161,8674.0,602.0,5515.0,0.627,0.455,-0.362,0.518
3803178,8382.0,1844.0,5901.0,0.622,0.463,-0.367,0.514
3803204,8060.0,2674.0,6289.0,0.618,0.47,-0.372,0.509
3803220,8348.0,2032.0,5899.0,0.614,0.476,-0.378,0.504
3803236,8654.0,856.0,5931.0,0.611,0.48,-0.383,0.499
3803252,8278.0,946.0,6331.0,0.608,0.485,-0.386,0.496
3803268,8158.0,2320.0,6733.0,0.606,0.489,-0.389,0.492
3803284,8328.0,1560.0,7007.0,0.604,0.492,-0.392,0.489
3803310,8566.0,366.0,6989.0,0.604,0.494,-0.394,0.486
3803326,8344.0,726.0,7275.0,0.603,0.495,-0.394,0.486
3803342,8224.0,2580.0,8237.0,0.603,0.495,-0.394,0.485
3803358,8260.0,1688.0,8209.0,0.605,0.493,-0.395,0.485
3803375,9232.0,1028.0,7759.0,0.607,0.489,-0.395,0.486
3803391,9272.0,1526.0,8859.0,0.611,0.484,-0.392,0.488
3803408,9074.0,2808.0,9317.0,0.617,0.477,-0.389,0.491
3803435,9380.0,2348.0,9145.0,0.624,0.467,-0.386,0.494
3803451,10266.0,1182.0,8545.0,0.633,0.455,-0.381,0.498
3803467,10182.0,1184.0,8409.0,0.641,0.442,-0.372,0.505
3803483,10058.0,3510.0,9423.0,0.651,0.428,-0.361,0.512
3803499,10120.0,3526.0,8977.0,0.662,0.411,-0.351,0.52
3803516,10880.0,2016.0,8717.0,0.673,0.392,-0.339,0.527
3803532,11166.0,3422.0,8373.0,0.685,0.373,-0.326,0.534
3803558,11128.0,2664.0,8325.0,0.697,0.352,-0.311,0.542
3803575,11168.0,3834.0,9007.0,0.709,0.33,-0.295,0.549
3803591,11656.0,4824.0,8179.0,0.722,0.307,-0.279,0.554
3803608,12086.0,3170.0,8149.0,0.735,0.281,-0.263,0.558
3803624,11734.0,4332.0,8023.0,0.749,0.255,-0.245,0.561
3803640,11542.0,2852.0,8015.0,0.762,0.228,-0.228,0.562
3803657,11396.0,2972.0,7445.0,0.775,0.2,-0.208,0.563
3803674,11114.0,2954.0,7363.0,0.787,0.173,-0.187,0.561
3803701,10256.0,2930.0,7151.0,0.799,0.145,-0.166,0.559
3803717,9226.0,3334.0,7125.0,0.81,0.117,-0.145,0.556
3803733,8424.0,2274.0,6789.0,0.82,0.087,-0.126,0.551
3803750,8064.0,700.0,5659.0,0.829,0.058,-0.107,0.545
3803766,7214.0,204.0,5123.0,0.837,0.031,-0.087,0.539
3803783,5722.0,1210.0,5057.0,0.844,0.006,-0.066,0.532
3803800,4436.0,1592.0,5143.0,0.849,-0.02,-0.047,0.526
3803816,3946.0,588.0,3923.0,0.853,-0.047,-0.03,0.519
3803842,3430.0,-1324.0,3325.0,0.856,-0.072,-0.014,0.512
3803858,2584.0,-1134.0,2769.0,0.858,-0.093,0.004,0.505
3803874,2032.0,-804.0,2519.0,0.86,-0.112,0.022,0.497
3803890,1200.0,136.0,2327.0,0.861,-0.129,0.038,0.49
3803906,292.0,540.0,2131.0,0.862,-0.145,0.052,0.483
3803922,-274.0,-732.0,1635.0,0.861,-0.162,0.062,0.478
3803948,-492.0,-1926.0,1297.0,0.86,-0.178,0.07,0.473
3803965,-774.0,-1302.0,841.0,0.859,-0.191,0.076,0.469
3803982,-948.0,-1696.0,553.0,0.857,-0.203,0.08,0.466
3803999,-1380.0,-1632.0,639.0,0.856,-0.214,0.082,0.464
3804016,-1368.0,-2406.0,99.0,0.854,-0.223,0.082,0.463
3804032,-1406.0,-3894.0,-55.0,0.852,-0.23,0.082,0.463
3804048,-1688.0,-3466.0,165.0,0.851,-0.233,0.081,0.463
3804064,-1722.0,-3144.0,245.0,0.851,-0.234,0.081,0.463
3804090,-2248.0,-3460.0,665.0,0.851,-0.232,0.079,0.464
3804107,-2048.0,-3202.0,727.0,0.851,-0.229,0.076,0.466
3804124,-2210.0,-3614.0,1319.0,0.852,-0.224,0.072,0.468
3804141,-2246.0,-3262.0,1681.0,0.853,-0.217,0.066,0.471
3804158,-2144.0,-3316.0,1729.0,0.854,-0.208,0.06,0.474
3804174,-1892.0,-3012.0,2635.0,0.855,-0.196,0.052,0.477
3804191,-1670.0,-2706.0,2935.0,0.856,-0.184,0.042,0.481
3804207,-1434.0,-2384.0,3777.0,0.857,-0.17,0.03,0.486
3804223,-1002.0,-2412.0,3747.0,0.857,-0.156,0.017,0.49
3804249,-566.0,-2360.0,4143.0,0.858,-0.141,0.003,0.495
3804265,-48.0,-2016.0,5319.0,0.857,-0.125,-0.011,0.5
3804282,272.0,-1026.0,5835.0,0.855,-0.11,-0.027,0.505
3804298,652.0,-1808.0,5701.0,0.853,-0.095,-0.044,0.511
3804315,1260.0,-2554.0,6181.0,0.851,-0.079,-0.061,0.516
3804332,2332.0,-1660.0,6465.0,0.847,-0.061,-0.078,0.521
3804349,2750.0,162.0,7087.0,0.844,-0.044,-0.094,0.527
3804366,3454.0,-786.0,6841.0,0.839,-0.029,-0.113,0.532
3804392,4284.0,-2876.0,7031.0,0.834,-0.012,-0.129,0.536
3804409,4816.0,-1394.0,7069.0,0.829,0.007,-0.142,0.54
3804425,4994.0,714.0,7039.0,0.824,0.026,-0.154,0.545
3804441,5146.0,292.0,7047.0,0.818,0.042,-0.166,0.549
3804458,5198.0,-408.0,7305.0,0.813,0.058,-0.177,0.552
3804474,5636.0,440.0,7161.0,0.806,0.075,-0.188,0.556
3804491,5520.0,746.0,7015.0,0.8,0.091,-0.2,0.559
3804508,5820.0,-98.0,6457.0,0.793,0.107,-0.211,0.561
3804524,6496.0,262.0,5905.0,0.786,0.124,-0.222,0.563
3804541,6592.0,1296.0,6697.0,0.779,0.14,-0.232,0.565
3804568,5798.0,1462.0,6869.0,0.772,0.157,-0.244,0.566
3804584,6660.0,2262.0,6165.0,0.764,0.173,-0.258,0.566
3804600,7304.0,1148.0,5939.0,0.756,0.188,-0.274,0.564
3804616,7648.0,-126.0,5547.0,0.748,0.205,-0.288,0.562
3804632,8202.0,1054.0,5291.0,0.739,0.223,-0.3,0.56
3804649,8028.0,1556.0,5749.0,0.73,0.241,-0.312,0.558
3804665,8180.0,1852.0,5661.0,0.721,0.259,-0.324,0.556
3804691,8138.0,1734.0,5585.0,0.711,0.276,-0.336,0.552
3804708,8658.0,1970.0,5769.0,0.702,0.293,-0.349,0.548
3804724,8972.0,2082.0,5783.0,0.692,0.309,-0.363,0.543
3804741,9430.0,1402.0,5145.0,0.683,0.324,-0.376,0.537
3804757,10248.0,986.0,4943.0,0.673,0.34,-0.387,0.531
3804774,9558.0,1368.0,5469.0,0.663,0.355,-0.396,0.526
3804791,10026.0,1928.0,5359.0,0.654,0.37,-0.405,0.521
3804808,10080.0,2056.0,5299.0,0.645,0.384,-0.413,0.516
3804824,9916.0,1530.0,5121.0,0.636,0.397,-0.42,0.511
3804851,9708.0,730.0,5123.0,0.628,0.409,-0.426,0.506
3804867,9722.0,1574.0,5277.0,0.621,0.421,-0.431,0.502
3804883,9622.0,1750.0,5399.0,0.613,0.432,-0.437,0.496
3804899,9582.0,1060.0,5107.0,0.607,0.442,-0.442,0.491
3804916,9668.0,576.0,5287.0,0.601,0.452,-0.445,0.486
3804932,9050.0,1202.0,5533.0,0.595,0.462,-0.448,0.482
3804958,8844.0,1068.0,5677.0,0.589,0.471,-0.45,0.478
3804974,8988.0,772.0,5655.0,0.584,0.479,-0.452,0.474
3804991,8594.0,858.0,5927.0,0.58,0.487,-0.454,0.47
3805008,8196.0,1346.0,6487.0,0.576,0.494,-0.455,0.467
3805025,8390.0,1504.0,6379.0,0.572,0.499,-0.456,0.464
3805041,8666.0,594.0,6379.0,0.57,0.503,-0.457,0.461
3805057,8640.0,504.0,6693.0,0.569,0.506,-0.457,0.459
3805074,8238.0,1416.0,7291.0,0.568,0.509,-0.456,0.458
3805091,8742.0,2276.0,7287.0,0.569,0.51,-0.455,0.458
3805117,8940.0,-94.0,6601.0,0.572,0.508,-0.453,0.458
3805133,9240.0,26.0,7465.0,0.575,0.506,-0.449,0.46
3805149,9190.0,2512.0,8149.0,0.579,0.502,-0.444,0.464
3805165,9210.0,2346.0,8465.0,0.585,0.496,-0.44,0.468
3805182,10464.0,2010.0,8071.0,0.593,0.487,-0.435,0.472
3805198,10738.0,972.0,8017.0,0.602,0.476,-0.428,0.477
3805224,10190.0,1534.0,8027.0,0.612,0.464,-0.42,0.484
3805240,11058.0,3512.0,8175.0,0.622,0.451,-0.41,0.492
3805256,12262.0,2866.0,7673.0,0.634,0.434,-0.4,0.499
3805273,12182.0,1254.0,7467.0,0.647,0.416,-0.388,0.507
3805290,12324.0,3380.0,8283.0,0.661,0.397,-0.374,0.515
3805307,12732.0,3566.0,8385.0,0.675,0.376,-0.361,0.522
3805323,12866.0,3050.0,6875.0,0.69,0.353,-0.346,0.528
3805340,13340.0,2604.0,7175.0,0.706,0.329,-0.329,0.534
3805357,12308.0,3792.0,7351.0,0.722,0.303,-0.311,0.538
3805374,11906.0,3230.0,7003.0,0.738,0.276,-0.294,0.541
3805391,11814.0,2588.0,6727.0,0.753,0.248,-0.276,0.543
3805417,11258.0,1512.0,6403.0,0.768,0.22,-0.256,0.544
3805433,10428.0,2856.0,6183.0,0.782,0.192,-0.236,0.544
3805449,9018.0,2086.0,5793.0,0.795,0.162,-0.216,0.543
3805465,7368.0,2370.0,7451.0,0.806,0.133,-0.198,0.542
3805482,7598.0,2510.0,5791.0,0.815,0.103,-0.183,0.54
3805498,7966.0,-798.0,4609.0,0.823,0.075,-0.167,0.538
3805524,7004.0,1064.0,5257.0,0.829,0.051,-0.15,0.536
3805540,6320.0,3036.0,5557.0,0.834,0.026,-0.135,0.534
3805557,6120.0,1606.0,5185.0,0.838,-0.001,-0.123,0.532
3805574,6228.0,378.0,3631.0,0.841,-0.028,-0.11,0.529
3805591,5786.0,-968.0,3225.0,0.844,-0.053,-0.095,0.525
3805607,4398.0,-750.0,3175.0,0.847,-0.075,-0.077,0.521
3805624,3742.0,390.0,3221.0,0.849,-0.095,-0.06,0.516
3805640,2908.0,638.0,3089.0,0.851,-0.115,-0.043,0.511
3805657,2272.0,-8.0,2333.0,0.852,-0.135,-0.028,0.505
3805674,1472.0,-1874.0,1481.0,0.853,-0.153,-0.014,0.499
3805701,790.0,-1736.0,1609.0,0.854,-0.166,0.002,0.493
3805717,-136.0,-982.0,1723.0,0.856,-0.178,0.016,0.486
3805733,-570.0,-1298.0,1245.0,0.857,-0.189,0.026,0.479
3805749,-952.0,-2154.0,1273.0,0.858,-0.199,0.035,0.473
3805765,-1378.0,-3214.0,797.0,0.859,-0.207,0.041,0.466
3805782,-1694.0,-3544.0,705.0,0.861,-0.211,0.047,0.461
3805799,-1948.0,-2042.0,329.0,0.862,-0.213,0.051,0.456
3805825,-1876.0,-2386.0,-81.0,0.863,-0.214,0.054,0.455
3805842,-2364.0,-3828.0,-35.0,0.864,-0.213,0.054,0.454
3805859,-2392.0,-3344.0,815.0,0.865,-0.21,0.053,0.454
3805875,-2466.0,-3582.0,1125.0,0.865,-0.203,0.05,0.455
3805891,-1864.0,-2668.0,879.0,0.866,-0.195,0.044,0.457
3805907,-1144.0,-3136.0,937.0,0.868,-0.186,0.036,0.46
3805924,-934.0,-3026.0,1601.0,0.869,-0.175,0.028,0.462
3805941,-658.0,-2432.0,2497.0,0.871,-0.161,0.019,0.465
3805957,-142.0,-1694.0,2761.0,0.871,-0.147,0.008,0.468
3805984,-146.0,-2124.0,2975.0,0.872,-0.132,-0.004,0.472
3806001,624.0,-1494.0,3521.0,0.872,-0.115,-0.017,0.475
3806018,938.0,-1156.0,4023.0,0.872,-0.098,-0.031,0.479
3806034,1702.0,-650.0,4795.0,0.871,-0.08,-0.046,0.483
3806050,1828.0,274.0,5199.0,0.869,-0.062,-0.062,0.487
3806066,2648.0,-440.0,5129.0,0.866,-0.044,-0.081,0.491
3806082,3606.0,-638.0,5443.0,0.863,-0.025,-0.1,0.494
3806099,4440.0,276.0,5817.0,0.859,-0.006,-0.118,0.498
3806126,4972.0,552.0,6321.0,0.855,0.013,-0.137,0.501
3806142,5392.0,332.0,6343.0,0.849,0.031,-0.156,0.503
3806158,5750.0,36.0,6219.0,0.844,0.05,-0.174,0.505
3806174,6382.0,-12.0,7001.0,0.837,0.069,-0.191,0.507
3806191,6244.0,1040.0,6863.0,0.831,0.089,-0.208,0.509
3806207,6834.0,584.0,6695.0,0.823,0.107,-0.225,0.51
3806223,7442.0,1354.0,7257.0,0.816,0.126,-0.242,0.51
3806249,6952.0,1458.0,7347.0,0.807,0.144,-0.259,0.511
3806265,7374.0,888.0,7075.0,0.798,0.161,-0.277,0.51
3806281,8506.0,-324.0,6401.0,0.79,0.178,-0.294,0.508
3806298,8628.0,516.0,6921.0,0.781,0.196,-0.309,0.506
3806314,8166.0,2234.0,7537.0,0.771,0.215,-0.324,0.504
3806331,8638.0,1870.0,6899.0,0.762,0.231,-0.341,0.501
3806357,9238.0,-148.0,6357.0,0.752,0.247,-0.356,0.497
3806373,9206.0,562.0,6575.0,0.742,0.264,-0.37,0.492
3806389,9066.0,2070.0,6801.0,0.732,0.281,-0.383,0.488
3806405,9542.0,1292.0,6741.0,0.722,0.296,-0.397,0.483
3806422,9778.0,874.0,5897.0,0.712,0.311,-0.411,0.477
3806439,10272.0,406.0,5965.0,0.703,0.326,-0.423,0.471
3806456,9892.0,1394.0,6197.0,0.693,0.34,-0.433,0.465
3806473,9892.0,1618.0,6335.0,0.683,0.354,-0.444,0.459
3806490,10354.0,1688.0,5081.0,0.674,0.367,-0.454,0.453
3806507,10562.0,84.0,4797.0,0.666,0.378,-0.461,0.448
3806533,9704.0,916.0,5093.0,0.657,0.39,-0.467,0.445
3806549,9064.0,1738.0,5333.0,0.649,0.402,-0.473,0.441
3806565,8950.0,1790.0,5145.0,0.641,0.412,-0.479,0.436
3806582,9110.0,1148.0,4105.0,0.634,0.421,-0.485,0.431
3806599,8962.0,-220.0,3853.0,0.627,0.429,-0.49,0.426
3806615,8472.0,1128.0,4551.0,0.621,0.438,-0.494,0.422
3806632,8128.0,1656.0,4767.0,0.616,0.447,-0.498,0.416
3806649,8868.0,1398.0,4435.0,0.61,0.454,-0.503,0.411
3806665,9004.0,-326.0,4201.0,0.606,0.46,-0.507,0.406
3806692,8630.0,298.0,4399.0,0.601,0.467,-0.509,0.402
3806708,8696.0,1004.0,4955.0,0.597,0.473,-0.511,0.4
3806724,8698.0,966.0,4849.0,0.593,0.478,-0.512,0.397
3806740,9062.0,342.0,4837.0,0.59,0.482,-0.514,0.395
3806756,9180.0,950.0,4891.0,0.588,0.485,-0.514,0.394
3806772,9444.0,358.0,5169.0,0.587,0.487,-0.513,0.393
3806798,9108.0,-336.0,5561.0,0.586,0.488,-0.512,0.395
3806814,9078.0,384.0,5987.0,0.587,0.489,-0.509,0.397
3806830,9680.0,84.0,5487.0,0.588,0.488,-0.506,0.4
3806846,9924.0,-160.0,5877.0,0.591,0.486,-0.501,0.405
3806863,9644.0,1384.0,6411.0,0.594,0.483,-0.496,0.41
3806879,9538.0,1406.0,7077.0,0.599,0.477,-0.491,0.415
3806895,10562.0,-290.0,6791.0,0.604,0.469,-0.487,0.421
3806922,11118.0,-474.0,6531.0,0.61,0.462,-0.48,0.429
3806939,10836.0,1160.0,7637.0,0.616,0.454,-0.47,0.439
3806956,10430.0,3934.0,8769.0,0.623,0.444,-0.463,0.448
3806972,11424.0,3252.0,7987.0,0.632,0.429,-0.458,0.455
3806988,12280.0,-408.0,6909.0,0.643,0.411,-0.452,0.462
3807004,13166.0,672.0,6841.0,0.653,0.395,-0.441,0.472
3807020,13992.0,3040.0,6435.0,0.664,0.377,-0.428,0.484
3807046,13762.0,1230.0,7123.0,0.677,0.355,-0.411,0.497
3807062,13678.0,3014.0,6667.0,0.691,0.333,-0.392,0.508
3807078,13298.0,2002.0,6929.0,0.705,0.309,-0.372,0.519
3807094,12882.0,2398.0,7329.0,0.719,0.286,-0.35,0.528
3807110,13046.0,4224.0,6441.0,0.734,0.26,-0.328,0.535
3807136,12362.0,2604.0,6889.0,0.749,0.233,-0.305,0.54
3807152,12128.0,3290.0,6865.0,0.764,0.205,-0.283,0.543
3807169,11494.0,1816.0,6137.0,0.778,0.176,-0.261,0.544
3807185,10886.0,1260.0,5475.0,0.791,0.147,-0.237,0.544
3807201,9338.0,1866.0,5527.0,0.804,0.12,-0.212,0.543
3807217,8236.0,2684.0,5811.0,0.815,0.093,-0.188,0.54
3807233,7402.0,2338.0,6073.0,0.825,0.064,-0.167,0.536
3807249,7218.0,1722.0,5165.0,0.833,0.036,-0.147,0.532
3807275,7604.0,-140.0,3591.0,0.841,0.008,-0.129,0.526
3807291,6528.0,-1300.0,3153.0,0.847,-0.018,-0.106,0.52
3807307,4620.0,568.0,3135.0,0.853,-0.041,-0.082,0.513
3807323,3704.0,802.0,3583.0,0.858,-0.063,-0.059,0.507
3807340,3232.0,456.0,2613.0,0.861,-0.083,-0.037,0.5
3807356,2658.0,198.0,1943.0,0.864,-0.103,-0.017,0.493
3807382,1746.0,-448.0,2065.0,0.865,-0.122,0.002,0.486
3807398,866.0,-1794.0,2021.0,0.867,-0.138,0.019,0.479
3807414,90.0,-1104.0,1751.0,0.869,-0.15,0.036,0.471
3807430,132.0,1192.0,1411.0,0.87,-0.162,0.048,0.464
3807446,-652.0,-1068.0,1125.0,0.87,-0.176,0.058,0.458
3807472,-962.0,-4274.0,1039.0,0.87,-0.187,0.066,0.452
3807488,-1532.0,-3064.0,671.0,0.871,-0.191,0.075,0.446
3807504,-1292.0,148.0,179.0,0.871,-0.197,0.081,0.442
3807520,-2106.0,-2728.0,145.0,0.871,-0.204,0.085,0.439
3807536,-3022.0,-4704.0,1105.0,0.871,-0.207,0.086,0.438
3807553,-2856.0,-3156.0,699.0,0.871,-0.207,0.085,0.437
3807569,-2748.0,-3828.0,477.0,0.872,-0.205,0.082,0.438
3807595,-2480.0,-3890.0,657.0,0.872,-0.201,0.078,0.44
3807612,-2272.0,-4640.0,783.0,0.873,-0.194,0.073,0.442
3807628,-2036.0,-3868.0,1517.0,0.874,-0.183,0.068,0.445
3807645,-1800.0,-2808.0,1973.0,0.875,-0.17,0.061,0.449
3807661,-1138.0,-2900.0,2267.0,0.876,-0.158,0.053,0.453
3807677,-696.0,-2446.0,2653.0,0.876,-0.144,0.044,0.457
3807693,-484.0,-2178.0,3365.0,0.877,-0.13,0.035,0.462
3807719,126.0,-1712.0,3435.0,0.876,-0.115,0.024,0.467
3807735,-30.0,-2168.0,4381.0,0.876,-0.099,0.014,0.473
3807751,402.0,-1298.0,4725.0,0.874,-0.081,0.003,0.478
3807767,786.0,500.0,5105.0,0.873,-0.064,-0.01,0.484
3807783,1520.0,-634.0,5059.0,0.87,-0.049,-0.025,0.49
3807799,1738.0,-1172.0,5783.0,0.867,-0.032,-0.039,0.496
3807825,2330.0,1292.0,6553.0,0.863,-0.014,-0.055,0.502
3807841,2964.0,506.0,6317.0,0.858,0.002,-0.072,0.508
3807857,3946.0,-1422.0,6121.0,0.853,0.019,-0.09,0.513
3807873,4530.0,142.0,6417.0,0.848,0.038,-0.105,0.517
3807890,4558.0,1254.0,7337.0,0.842,0.057,-0.12,0.522
3807906,4766.0,1238.0,7139.0,0.836,0.075,-0.136,0.527
3807923,5714.0,-90.0,6611.0,0.829,0.093,-0.152,0.531
3807949,6122.0,-960.0,6021.0,0.822,0.113,-0.165,0.534
3807965,6280.0,-84.0,7027.0,0.814,0.136,-0.173,0.537
3807981,5840.0,3450.0,7657.0,0.806,0.16,-0.181,0.54
3807997,6590.0,4574.0,7139.0,0.798,0.179,-0.193,0.542
3808013,6944.0,950.0,6323.0,0.79,0.194,-0.207,0.543
3808029,7432.0,828.0,6525.0,0.782,0.213,-0.218,0.544
3808046,6516.0,2918.0,7203.0,0.772,0.231,-0.228,0.546
3808072,6532.0,4306.0,7281.0,0.761,0.248,-0.243,0.548
3808088,7566.0,2350.0,5929.0,0.751,0.262,-0.26,0.547
3808104,8588.0,-578.0,5717.0,0.741,0.278,-0.274,0.546
3808120,8754.0,2216.0,6407.0,0.731,0.297,-0.284,0.545
3808137,8214.0,4156.0,6773.0,0.72,0.314,-0.297,0.543
3808154,8618.0,3386.0,6477.0,0.709,0.329,-0.312,0.539
3808180,8778.0,1886.0,5085.0,0.698,0.344,-0.328,0.536
3808197,9432.0,2834.0,5217.0,0.686,0.359,-0.341,0.533
3808214,9938.0,3728.0,6101.0,0.675,0.373,-0.354,0.529
3808230,9490.0,2702.0,6143.0,0.665,0.385,-0.368,0.524
3808246,9774.0,1572.0,5625.0,0.655,0.397,-0.38,0.518
3808263,10032.0,1386.0,5221.0,0.645,0.41,-0.39,0.513
3808279,9692.0,2090.0,5711.0,0.636,0.421,-0.399,0.509
3808296,9146.0,3426.0,6007.0,0.626,0.432,-0.409,0.504
3808313,9370.0,2506.0,5661.0,0.618,0.44,-0.419,0.498
3808329,9428.0,1214.0,4843.0,0.611,0.448,-0.429,0.492
3808355,9074.0,402.0,5005.0,0.603,0.456,-0.437,0.487
3808371,8966.0,1880.0,5295.0,0.596,0.465,-0.442,0.482
3808387,8744.0,2474.0,5409.0,0.59,0.472,-0.449,0.477
3808403,8648.0,1672.0,5073.0,0.585,0.478,-0.456,0.471
3808419,8596.0,734.0,5073.0,0.58,0.484,-0.461,0.465
3808435,8504.0,1104.0,5307.0,0.575,0.491,-0.466,0.46
3808461,8606.0,1522.0,5505.0,0.571,0.497,-0.47,0.455
3808478,8602.0,1638.0,5913.0,0.567,0.501,-0.473,0.451
3808494,9248.0,1646.0,6185.0,0.566,0.505,-0.476,0.446
3808510,9246.0,1636.0,6259.0,0.565,0.507,-0.478,0.442
3808527,9182.0,910.0,6519.0,0.565,0.509,-0.477,0.44
3808544,9090.0,1706.0,7363.0,0.566,0.51,-0.476,0.44
3808560,8926.0,1646.0,7945.0,0.569,0.508,-0.474,0.44
3808586,9232.0,1828.0,7963.0,0.574,0.505,-0.473,0.439
3808602,9954.0,1052.0,7523.0,0.58,0.499,-0.472,0.438
3808618,9944.0,206.0,7447.0,0.588,0.492,-0.467,0.441
3808634,10486.0,268.0,7873.0,0.596,0.485,-0.46,0.446
3808650,10628.0,2138.0,8161.0,0.605,0.476,-0.451,0.452
3808666,10584.0,1552.0,8037.0,0.616,0.464,-0.442,0.459
3808692,10756.0,1682.0,8473.0,0.627,0.45,-0.432,0.466
3808708,11396.0,2816.0,8207.0,0.639,0.435,-0.422,0.474
3808724,12378.0,2994.0,8371.0,0.652,0.418,-0.411,0.48
3808740,12668.0,2178.0,7705.0,0.667,0.399,-0.399,0.487
3808756,13176.0,1660.0,7701.0,0.681,0.379,-0.385,0.494
3808772,13372.0,2648.0,7527.0,0.695,0.359,-0.368,0.503
3808789,12990.0,3634.0,7791.0,0.709,0.336,-0.349,0.512
3808816,13054.0,3660.0,7567.0,0.724,0.312,-0.33,0.519
3808833,12806.0,3450.0,7161.0,0.739,0.286,-0.311,0.525
3808849,12838.0,2540.0,7535.0,0.753,0.261,-0.291,0.529
3808865,13404.0,3828.0,6479.0,0.768,0.235,-0.27,0.531
3808881,12456.0,1996.0,5861.0,0.782,0.207,-0.247,0.533
3808897,11342.0,2680.0,6055.0,0.796,0.181,-0.221,0.534
3808914,9400.0,3280.0,6541.0,0.808,0.154,-0.197,0.533
3808940,9198.0,3516.0,6039.0,0.82,0.126,-0.175,0.531
3808957,9836.0,932.0,4979.0,0.831,0.096,-0.155,0.526
3808973,8078.0,558.0,4651.0,0.84,0.07,-0.131,0.522
3808989,6610.0,2158.0,4857.0,0.848,0.047,-0.107,0.517
3809006,5428.0,2760.0,5341.0,0.855,0.023,-0.086,0.511
3809023,5692.0,2464.0,3207.0,0.86,-0.004,-0.067,0.505
3809040,4734.0,-826.0,2205.0,0.865,-0.03,-0.049,0.499
3809057,3172.0,-788.0,2975.0,0.869,-0.053,-0.03,0.491
3809074,2472.0,22.0,3015.0,0.872,-0.073,-0.011,0.484
3809091,2084.0,1068.0,2155.0,0.874,-0.092,0.005,0.477
3809112,1584.0,676.0,1387.0,0.875,-0.113,0.018,0.47
3809128,130.0,-2192.0,1639.0,0.875,-0.132,0.029,0.464
3809144,-238.0,-1500.0,1607.0,0.876,-0.147,0.04,0.458
3809170,-652.0,-480.0,687.0,0.875,-0.161,0.048,0.453
3809187,-1008.0,-1972.0,487.0,0.874,-0.174,0.055,0.45
3809204,-1372.0,-2666.0,401.0,0.874,-0.184,0.06,0.446
3809221,-1416.0,-2562.0,707.0,0.873,-0.193,0.064,0.443
3809238,-1758.0,-2080.0,797.0,0.873,-0.2,0.066,0.44
3809255,-1818.0,-2450.0,669.0,0.872,-0.205,0.066,0.439
3809272,-1952.0,-3628.0,657.0,0.872,-0.209,0.065,0.438
3809288,-2356.0,-2738.0,1023.0,0.872,-0.21,0.062,0.438
3809304,-2192.0,-2526.0,1369.0,0.872,-0.21,0.058,0.439
3809320,-2032.0,-3126.0,1837.0,0.872,-0.209,0.051,0.44
3809346,-1456.0,-3366.0,1779.0,0.872,-0.207,0.042,0.442
3809362,-806.0,-4122.0,2009.0,0.873,-0.203,0.033,0.442
3809378,-828.0,-2854.0,2549.0,0.874,-0.197,0.024,0.443
3809394,-844.0,-2750.0,2635.0,0.875,-0.191,0.014,0.444
3809410,-1128.0,-4202.0,2893.0,0.877,-0.182,0.004,0.445
3809427,-648.0,-2252.0,2917.0,0.878,-0.172,-0.006,0.447
3809453,-956.0,-2826.0,3799.0,0.879,-0.162,-0.017,0.449
3809469,-710.0,-2982.0,4187.0,0.879,-0.15,-0.03,0.452
3809485,-170.0,-1682.0,4243.0,0.879,-0.136,-0.043,0.456
3809502,484.0,-2220.0,4497.0,0.878,-0.124,-0.059,0.459
3809518,944.0,-2658.0,4859.0,0.877,-0.109,-0.074,0.463
3809535,1474.0,-978.0,5229.0,0.875,-0.093,-0.089,0.467
3809551,2018.0,-932.0,5693.0,0.873,-0.077,-0.106,0.471
3809577,2898.0,-1396.0,5371.0,0.87,-0.06,-0.123,0.474
3809593,3516.0,-1148.0,6013.0,0.867,-0.043,-0.139,0.477
3809609,3382.0,-344.0,6497.0,0.863,-0.024,-0.155,0.481
3809625,4032.0,168.0,6773.0,0.858,-0.004,-0.172,0.484
3809641,4776.0,278.0,6647.0,0.853,0.015,-0.189,0.486
3809667,5988.0,-660.0,6315.0,0.847,0.033,-0.206,0.488
3809683,5614.0,-820.0,6647.0,0.842,0.054,-0.22,0.49
3809700,6068.0,796.0,7101.0,0.836,0.075,-0.233,0.492
3809717,6208.0,2118.0,7021.0,0.829,0.095,-0.247,0.493
3809733,6470.0,1106.0,7087.0,0.821,0.113,-0.262,0.494
3809750,6842.0,-6.0,6801.0,0.814,0.132,-0.277,0.494
3809767,7200.0,108.0,6531.0,0.806,0.152,-0.29,0.494
3809784,7616.0,1736.0,6729.0,0.796,0.174,-0.302,0.494
3809800,7578.0,2010.0,7211.0,0.787,0.194,-0.314,0.494
3809826,8258.0,1940.0,6547.0,0.777,0.213,-0.328,0.493
3809842,8642.0,1072.0,6865.0,0.767,0.232,-0.34,0.492
3809858,8864.0,1454.0,6765.0,0.757,0.252,-0.352,0.49
3809874,9116.0,1896.0,6309.0,0.746,0.271,-0.362,0.488
3809890,9582.0,1532.0,6627.0,0.736,0.289,-0.372,0.486
3809906,9290.0,2026.0,6117.0,0.725,0.308,-0.38,0.485
3809922,9354.0,2162.0,6323.0,0.715,0.325,-0.388,0.482
3809949,9116.0,2158.0,6515.0,0.705,0.341,-0.397,0.479
3809965,9662.0,1698.0,5547.0,0.695,0.356,-0.405,0.476
3809981,9600.0,1214.0,5497.0,0.686,0.37,-0.411,0.472
3809997,9294.0,1818.0,5733.0,0.677,0.384,-0.416,0.47
3810013,8922.0,2334.0,5585.0,0.668,0.397,-0.422,0.467
3810030,9084.0,2270.0,5351.0,0.66,0.408,-0.428,0.464
3810046,9436.0,1370.0,5071.0,0.651,0.419,-0.433,0.461
3810072,9182.0,1292.0,4817.0,0.643,0.43,-0.437,0.458
3810089,8904.0,1946.0,4999.0,0.636,0.44,-0.441,0.456
3810105,8506.0,1552.0,5105.0,0.629,0.449,-0.444,0.453
3810122,8220.0,1734.0,4889.0,0.622,0.458,-0.448,0.451
3810140,8242.0,1606.0,4807.0,0.615,0.466,-0.451,0.447
3810157,8074.0,1414.0,5073.0,0.609,0.474,-0.455,0.444
3810174,7942.0,1626.0,5185.0,0.603,0.481,-0.459,0.44
3810190,8302.0,1354.0,5171.0,0.598,0.488,-0.463,0.436
3810207,8994.0,1662.0,5409.0,0.594,0.494,-0.467,0.431
3810224,9114.0,1404.0,5489.0,0.59,0.498,-0.47,0.428
3810250,9236.0,728.0,5345.0,0.588,0.501,-0.472,0.425
3810266,9412.0,210.0,5743.0,0.586,0.504,-0.473,0.423
3810282,9496.0,1546.0,6361.0,0.584,0.507,-0.472,0.423
3810298,9592.0,1452.0,6501.0,0.585,0.507,-0.471,0.423
3810314,9244.0,1324.0,6851.0,0.587,0.506,-0.469,0.424
3810331,9350.0,1058.0,6679.0,0.59,0.503,-0.467,0.425
3810347,9426.0,-692.0,7445.0,0.594,0.499,-0.463,0.428
3810374,9488.0,586.0,7709.0,0.599,0.496,-0.457,0.432
3810390,9694.0,2064.0,7691.0,0.605,0.49,-0.45,0.437
3810406,9616.0,1712.0,7487.0,0.612,0.482,-0.443,0.443
3810422,10758.0,2176.0,7799.0,0.621,0.472,-0.434,0.451
3810438,10694.0,2506.0,8709.0,0.631,0.459,-0.423,0.46
3810455,10494.0,4014.0,7543.0,0.643,0.443,-0.412,0.47
3810472,10748.0,1488.0,7425.0,0.656,0.425,-0.4,0.479
3810489,11508.0,4756.0,8381.0,0.669,0.406,-0.385,0.489
3810506,12022.0,4960.0,7599.0,0.684,0.384,-0.372,0.497
3810532,12080.0,1960.0,7851.0,0.699,0.36,-0.356,0.505
3810548,12510.0,5348.0,7925.0,0.715,0.337,-0.338,0.511
3810564,12026.0,4124.0,8681.0,0.732,0.31,-0.322,0.514
3810580,12870.0,4538.0,7717.0,0.749,0.282,-0.305,0.516
3810596,13150.0,2854.0,7595.0,0.766,0.254,-0.284,0.517
3810622,12094.0,2940.0,7413.0,0.783,0.226,-0.261,0.517
3810638,10366.0,2926.0,7667.0,0.799,0.198,-0.237,0.516
3810655,9382.0,2982.0,6161.0,0.815,0.169,-0.213,0.513
3810672,7598.0,1590.0,7363.0,0.829,0.141,-0.188,0.508
3810689,7156.0,3468.0,7175.0,0.841,0.114,-0.165,0.502
3810706,6612.0,3434.0,6517.0,0.852,0.086,-0.146,0.495
3810722,6428.0,1502.0,5517.0,0.862,0.057,-0.129,0.488
3810738,5254.0,-1204.0,4991.0,0.87,0.031,-0.11,0.48
3810756,4796.0,-1066.0,4757.0,0.877,0.009,-0.089,0.472
3810773,3430.0,1264.0,4893.0,0.883,-0.011,-0.068,0.464
3810800,2638.0,3054.0,4751.0,0.888,-0.032,-0.051,0.457
3810817,2292.0,1004.0,3979.0,0.891,-0.055,-0.037,0.45
3810834,2380.0,-2236.0,2877.0,0.892,-0.076,-0.024,0.444
3810851,2008.0,-1688.0,2685.0,0.894,-0.09,-0.009,0.438
3810868,1918.0,396.0,2323.0,0.896,-0.103,0.005,0.433
3810885,1346.0,612.0,2353.0,0.896,-0.116,0.018,0.428
3810901,1004.0,54.0,2327.0,0.896,-0.13,0.029,0.423
3810917,1014.0,-1002.0,1849.0,0.896,-0.143,0.038,0.419
3810934,684.0,-1518.0,1583.0,0.895,-0.154,0.046,0.416
3810950,194.0,-1540.0,1367.0,0.895,-0.164,0.054,0.412
3810966,22.0,-834.0,1137.0,0.894,-0.174,0.059,0.409
3810993,-266.0,-2704.0,1127.0,0.893,-0.183,0.063,0.406
3811009,-730.0,-2336.0,733.0,0.892,-0.188,0.067,0.405
3811025,-1122.0,-2626.0,577.0,0.892,-0.192,0.068,0.404
3811041,-1288.0,-3622.0,393.0,0.892,-0.194,0.068,0.403
3811057,-1520.0,-3358.0,743.0,0.893,-0.192,0.067,0.402
3811073,-1824.0,-3466.0,953.0,0.894,-0.187,0.065,0.403
3811099,-1492.0,-3828.0,883.0,0.895,-0.18,0.061,0.404
3811116,-1170.0,-4088.0,891.0,0.897,-0.169,0.058,0.406
3811132,-1032.0,-3606.0,1793.0,0.899,-0.155,0.053,0.407
3811149,-1228.0,-2440.0,2631.0,0.9,-0.139,0.047,0.41
3811165,-862.0,-2118.0,2895.0,0.902,-0.123,0.038,0.413
3811181,-218.0,-1990.0,3299.0,0.902,-0.106,0.028,0.417
3811199,364.0,-1800.0,3937.0,0.903,-0.089,0.016,0.421
3811215,774.0,-1038.0,4295.0,0.902,-0.071,0.005,0.426
3811241,764.0,-736.0,5257.0,0.9,-0.054,-0.008,0.432
3811258,1260.0,-114.0,5471.0,0.898,-0.036,-0.022,0.437
3811275,1898.0,-64.0,6079.0,0.895,-0.019,-0.038,0.443
3811292,2660.0,174.0,6403.0,0.892,-0.002,-0.054,0.45
3811309,3136.0,350.0,6557.0,0.887,0.015,-0.071,0.455
3811325,3736.0,-6.0,6667.0,0.883,0.033,-0.088,0.461
3811342,4488.0,478.0,6713.0,0.877,0.051,-0.103,0.466
3811358,5030.0,1840.0,7583.0,0.872,0.069,-0.117,0.47
3811374,5378.0,3386.0,8283.0,0.866,0.083,-0.132,0.475
3811400,5094.0,874.0,8575.0,0.861,0.095,-0.148,0.478
3811416,5762.0,256.0,7849.0,0.855,0.107,-0.163,0.481
3811432,7046.0,-132.0,6197.0,0.849,0.121,-0.176,0.483
3811448,5682.0,706.0,8137.0,0.842,0.139,-0.186,0.488
3811464,5204.0,5024.0,8867.0,0.834,0.155,-0.197,0.492
3811480,5292.0,2590.0,8259.0,0.825,0.165,-0.214,0.496
3811506,6316.0,-2086.0,7111.0,0.817,0.178,-0.229,0.499
3811522,7234.0,1162.0,7513.0,0.807,0.196,-0.241,0.502
3811538,6672.0,3414.0,8189.0,0.798,0.212,-0.254,0.504
3811554,6442.0,2938.0,7935.0,0.788,0.226,-0.269,0.506
3811570,7136.0,262.0,7137.0,0.778,0.239,-0.286,0.506
3811596,8008.0,1144.0,6709.0,0.767,0.255,-0.3,0.506
3811612,8222.0,2530.0,7127.0,0.757,0.27,-0.313,0.506
3811628,7688.0,2690.0,7205.0,0.747,0.285,-0.327,0.505
3811644,8170.0,2180.0,6279.0,0.736,0.298,-0.341,0.503
3811660,8118.0,398.0,6059.0,0.726,0.312,-0.354,0.5
3811676,8250.0,2072.0,6639.0,0.715,0.328,-0.365,0.499
3811692,8384.0,3444.0,6487.0,0.703,0.343,-0.376,0.496
3811718,8176.0,2720.0,6037.0,0.692,0.355,-0.389,0.493
3811734,8720.0,618.0,5621.0,0.682,0.368,-0.4,0.49
3811750,8720.0,1194.0,5381.0,0.672,0.381,-0.408,0.487
3811766,7812.0,2428.0,5887.0,0.661,0.395,-0.415,0.485
3811782,7966.0,3254.0,5943.0,0.65,0.407,-0.423,0.482
3811808,8472.0,2426.0,4965.0,0.641,0.418,-0.433,0.477
3811824,8794.0,200.0,5015.0,0.632,0.428,-0.44,0.473
3811841,8260.0,1572.0,5643.0,0.622,0.44,-0.445,0.469
3811858,8176.0,3082.0,5741.0,0.614,0.451,-0.451,0.465
3811875,8644.0,1478.0,5401.0,0.606,0.46,-0.457,0.461
3811891,9132.0,790.0,5399.0,0.599,0.47,-0.461,0.457
3811908,8948.0,1296.0,6147.0,0.592,0.478,-0.464,0.454
3811925,8718.0,2334.0,6309.0,0.586,0.486,-0.466,0.452
3811942,9488.0,1770.0,6547.0,0.582,0.491,-0.468,0.449
3811968,9632.0,342.0,6331.0,0.579,0.495,-0.468,0.448
3811984,9528.0,1012.0,7073.0,0.577,0.5,-0.465,0.449
3812000,8802.0,2216.0,7443.0,0.576,0.502,-0.461,0.451
3812016,8528.0,1382.0,8123.0,0.577,0.503,-0.457,0.453
3812032,8578.0,1292.0,7769.0,0.579,0.501,-0.454,0.455
3812048,8280.0,668.0,7613.0,0.584,0.499,-0.449,0.457
3812064,8472.0,1920.0,9043.0,0.589,0.495,-0.443,0.461
3812090,6722.0,3224.0,9703.0,0.594,0.491,-0.438,0.463
3812107,7530.0,4676.0,9033.0,0.6,0.483,-0.438,0.462
3812123,9742.0,846.0,7621.0,0.609,0.472,-0.44,0.461
3812140,10836.0,-1056.0,6811.0,0.617,0.462,-0.436,0.465
3812156,11424.0,3472.0,7355.0,0.623,0.452,-0.428,0.473
3812173,11606.0,5082.0,7773.0,0.633,0.438,-0.421,0.481
3812190,12088.0,1798.0,7243.0,0.644,0.42,-0.412,0.488
3812207,12522.0,1904.0,6863.0,0.656,0.404,-0.4,0.496
3812224,12354.0,2820.0,7467.0,0.668,0.388,-0.386,0.504
3812241,12530.0,4610.0,7015.0,0.681,0.37,-0.372,0.511
3812268,12778.0,4352.0,6107.0,0.696,0.347,-0.359,0.516
3812285,11958.0,982.0,6579.0,0.712,0.324,-0.345,0.519
3812301,11290.0,2176.0,6405.0,0.726,0.302,-0.33,0.522
3812318,11682.0,4020.0,6447.0,0.74,0.28,-0.315,0.524
3812335,11356.0,2320.0,5341.0,0.755,0.254,-0.302,0.524
3812351,9766.0,1096.0,4967.0,0.768,0.228,-0.288,0.524
3812368,8604.0,2928.0,6903.0,0.781,0.204,-0.275,0.523
3812384,8180.0,3236.0,6417.0,0.792,0.178,-0.266,0.52
3812400,10848.0,1508.0,4477.0,0.802,0.152,-0.258,0.516
3812426,11112.0,-28.0,3583.0,0.812,0.127,-0.246,0.513
3812442,10230.0,1718.0,4497.0,0.823,0.103,-0.229,0.51
3812458,8192.0,1442.0,4683.0,0.833,0.077,-0.211,0.505
3812474,8046.0,-388.0,4281.0,0.843,0.053,-0.19,0.5
3812490,6710.0,134.0,4133.0,0.852,0.033,-0.169,0.494
3812516,5504.0,1882.0,3537.0,0.861,0.011,-0.147,0.487
3812533,4030.0,1296.0,3843.0,0.869,-0.012,-0.127,0.479
3812549,3594.0,-90.0,3913.0,0.875,-0.035,-0.109,0.471
3812565,2982.0,-1472.0,3321.0,0.88,-0.055,-0.091,0.463
3812581,2520.0,-2104.0,2341.0,0.884,-0.072,-0.072,0.456
3812598,2070.0,-144.0,2373.0,0.888,-0.088,-0.053,0.448
3812614,1172.0,726.0,2867.0,0.891,-0.104,-0.037,0.44
3812630,154.0,-1036.0,2963.0,0.893,-0.122,-0.025,0.434
3812656,552.0,-4024.0,1955.0,0.894,-0.136,-0.013,0.427
3812673,514.0,-3112.0,961.0,0.896,-0.146,-0.001,0.42
3812690,-690.0,-854.0,1593.0,0.897,-0.155,0.01,0.414
3812707,-1400.0,-2824.0,1333.0,0.897,-0.165,0.018,0.41
3812724,-2182.0,-3946.0,1973.0,0.897,-0.17,0.025,0.407
3812741,-1616.0,-1782.0,555.0,0.897,-0.174,0.028,0.406
3812758,-1386.0,-4414.0,611.0,0.896,-0.178,0.03,0.406
3812775,-1764.0,-4478.0,921.0,0.896,-0.177,0.032,0.406
3812792,-2132.0,-2318.0,1379.0,0.896,-0.174,0.032,0.407
3812809,-1914.0,-3346.0,1601.0,0.895,-0.17,0.03,0.41
3812825,-1240.0,-4186.0,1089.0,0.895,-0.163,0.026,0.414
3812852,-1192.0,-3276.0,1919.0,0.895,-0.153,0.021,0.418
3812871,-1174.0,-2382.0,2651.0,0.895,-0.141,0.015,0.422
3812888,-906.0,-1810.0,3379.0,0.895,-0.128,0.007,0.427
3812905,-276.0,-2002.0,3139.0,0.894,-0.116,-0.003,0.433
3812922,360.0,-3634.0,3619.0,0.893,-0.101,-0.014,0.439
3812938,630.0,-1616.0,4315.0,0.892,-0.084,-0.024,0.444
3812954,828.0,-296.0,5041.0,0.889,-0.067,-0.035,0.451
3812970,1398.0,-1014.0,5011.0,0.886,-0.05,-0.047,0.458
3812986,2530.0,-2362.0,4647.0,0.883,-0.033,-0.059,0.464
3813002,2920.0,-1260.0,5649.0,0.88,-0.013,-0.069,0.47
3813028,2198.0,1432.0,6781.0,0.875,0.007,-0.08,0.477
3813044,2830.0,1936.0,6543.0,0.87,0.026,-0.094,0.484
3813060,4064.0,-906.0,5931.0,0.864,0.043,-0.109,0.489
3813076,5068.0,-920.0,5847.0,0.859,0.062,-0.122,0.494
3813092,4308.0,996.0,6827.0,0.852,0.082,-0.133,0.5
3813118,4106.0,2632.0,7303.0,0.844,0.103,-0.146,0.506
3813134,5286.0,2492.0,6371.0,0.836,0.12,-0.161,0.511
3813151,6294.0,514.0,6079.0,0.827,0.137,-0.175,0.516
3813168,5978.0,306.0,6577.0,0.818,0.155,-0.189,0.521
3813185,5334.0,1042.0,7081.0,0.809,0.175,-0.201,0.524
3813201,6120.0,3940.0,6557.0,0.798,0.195,-0.215,0.528
3813217,6812.0,2450.0,6239.0,0.788,0.212,-0.231,0.531
3813233,7466.0,1338.0,6421.0,0.777,0.229,-0.246,0.533
3813259,7374.0,2206.0,6495.0,0.765,0.247,-0.261,0.534
3813276,7752.0,3192.0,6627.0,0.753,0.265,-0.276,0.535
3813292,8434.0,1572.0,5809.0,0.741,0.281,-0.291,0.535
3813308,8902.0,1522.0,6089.0,0.73,0.299,-0.304,0.535
3813324,8612.0,2884.0,6609.0,0.717,0.317,-0.315,0.534
3813340,8412.0,4132.0,6501.0,0.705,0.333,-0.329,0.532
3813366,9200.0,2662.0,5969.0,0.693,0.348,-0.343,0.529
3813382,9352.0,2012.0,6149.0,0.681,0.363,-0.357,0.526
3813399,9746.0,1966.0,5727.0,0.67,0.378,-0.369,0.522
3813415,9636.0,2554.0,5823.0,0.658,0.393,-0.38,0.518
3813431,9236.0,2998.0,5937.0,0.646,0.406,-0.39,0.515
3813447,9136.0,2612.0,5737.0,0.635,0.419,-0.401,0.511
3813463,9558.0,2536.0,5715.0,0.623,0.43,-0.411,0.507
3813489,9504.0,1212.0,5437.0,0.613,0.441,-0.421,0.502
3813505,9326.0,1878.0,5463.0,0.603,0.453,-0.429,0.498
3813521,9052.0,2354.0,5697.0,0.593,0.463,-0.436,0.494
3813537,9358.0,2422.0,6061.0,0.583,0.473,-0.444,0.49
3813553,9562.0,1292.0,5465.0,0.574,0.481,-0.45,0.486
3813569,9488.0,1172.0,6593.0,0.567,0.49,-0.454,0.482
3813595,9566.0,2572.0,7075.0,0.56,0.498,-0.458,0.479
3813612,9900.0,2102.0,6833.0,0.555,0.503,-0.462,0.475
3813628,10158.0,552.0,6625.0,0.553,0.507,-0.464,0.472
3813645,8992.0,92.0,8123.0,0.55,0.512,-0.463,0.471
3813661,8384.0,2084.0,8999.0,0.548,0.515,-0.461,0.47
3813677,9912.0,3346.0,7879.0,0.549,0.516,-0.461,0.468
3813694,10106.0,86.0,8071.0,0.554,0.514,-0.459,0.467
3813711,9142.0,-478.0,8525.0,0.558,0.513,-0.454,0.47
3813728,8530.0,3588.0,9619.0,0.561,0.511,-0.447,0.474
3813754,9630.0,1344.0,9027.0,0.568,0.505,-0.44,0.477
3813770,10112.0,2018.0,8923.0,0.577,0.498,-0.431,0.482
3813787,9376.0,1750.0,9219.0,0.587,0.489,-0.422,0.488
3813803,9414.0,4508.0,9921.0,0.597,0.479,-0.412,0.495
3813819,11536.0,3924.0,8361.0,0.609,0.465,-0.402,0.501
3813835,11702.0,2486.0,8519.0,0.623,0.449,-0.389,0.508
3813862,11508.0,3384.0,8775.0,0.639,0.432,-0.374,0.515
3813879,11764.0,4512.0,9259.0,0.655,0.415,-0.358,0.521
3813896,13856.0,6918.0,8405.0,0.672,0.394,-0.342,0.525
3813912,14234.0,4932.0,7231.0,0.692,0.369,-0.325,0.529
3813929,13116.0,3456.0,7653.0,0.711,0.344,-0.303,0.532
3813946,12494.0,5270.0,8497.0,0.731,0.318,-0.28,0.535
3813963,13210.0,6486.0,7343.0,0.75,0.291,-0.258,0.535
3813979,12720.0,3294.0,6835.0,0.77,0.262,-0.233,0.533
3813995,11498.0,4836.0,7281.0,0.789,0.233,-0.206,0.53
3814012,9702.0,4612.0,7115.0,0.806,0.203,-0.18,0.525
3814038,7990.0,3462.0,7555.0,0.822,0.173,-0.157,0.52
3814055,9330.0,1636.0,5609.0,0.836,0.143,-0.135,0.512
3814071,8214.0,1456.0,5219.0,0.849,0.116,-0.112,0.504
3814087,6286.0,1154.0,5659.0,0.86,0.092,-0.088,0.495
3814103,5184.0,2658.0,5761.0,0.869,0.071,-0.066,0.486
3814119,5848.0,3118.0,4053.0,0.876,0.049,-0.047,0.477
3814145,5154.0,284.0,3645.0,0.883,0.025,-0.029,0.468
3814161,3134.0,268.0,4093.0,0.889,0.004,-0.011,0.459
3814177,2680.0,1926.0,4667.0,0.893,-0.016,0.005,0.451
3814193,3464.0,260.0,2515.0,0.896,-0.036,0.019,0.443
3814209,2986.0,-494.0,1541.0,0.898,-0.054,0.033,0.435
3814225,1810.0,598.0,2045.0,0.9,-0.072,0.048,0.427
3814241,1920.0,-18.0,1561.0,0.901,-0.09,0.061,0.42
3814267,2060.0,-488.0,-337.0,0.901,-0.106,0.073,0.414
3814284,2064.0,-2632.0,-1303.0,0.901,-0.122,0.087,0.408
3814300,1250.0,-1844.0,-1609.0,0.9,-0.134,0.1,0.402
3814316,-512.0,-834.0,-1697.0,0.899,-0.145,0.109,0.397
3814333,-628.0,-2562.0,-2543.0,0.898,-0.157,0.113,0.394
3814349,-1008.0,-4362.0,-3359.0,0.898,-0.164,0.113,0.393
3814365,-1722.0,-4040.0,-2565.0,0.898,-0.167,0.111,0.391
3814392,-2166.0,-2262.0,-2325.0,0.898,-0.166,0.105,0.393
3814408,-1644.0,-3794.0,-1667.0,0.898,-0.164,0.096,0.396
3814424,-1168.0,-3886.0,-1321.0,0.899,-0.158,0.085,0.4
3814441,-526.0,-3530.0,-359.0,0.899,-0.148,0.074,0.405
3814457,-476.0,-2136.0,905.0,0.9,-0.137,0.062,0.41
3814473,-542.0,-3418.0,2147.0,0.9,-0.124,0.048,0.415
3814499,-172.0,-1614.0,2747.0,0.901,-0.109,0.033,0.42
3814515,88.0,-1854.0,3477.0,0.9,-0.093,0.017,0.425
3814531,784.0,-1402.0,3857.0,0.899,-0.076,-0.001,0.431
3814547,1326.0,-810.0,4889.0,0.897,-0.058,-0.019,0.437
3814564,1590.0,-880.0,5813.0,0.895,-0.039,-0.037,0.443
3814581,2556.0,132.0,5683.0,0.891,-0.019,-0.056,0.449
3814598,3414.0,-628.0,5941.0,0.888,0.002,-0.076,0.454
3814615,3996.0,1358.0,6405.0,0.883,0.024,-0.094,0.459
3814632,3956.0,1198.0,7261.0,0.877,0.046,-0.113,0.464
3814648,4922.0,2158.0,7017.0,0.87,0.068,-0.132,0.47
3814674,5500.0,322.0,6989.0,0.862,0.09,-0.15,0.475
3814691,6608.0,1326.0,7267.0,0.855,0.111,-0.167,0.479
3814707,6878.0,2360.0,6823.0,0.846,0.132,-0.182,0.483
3814724,7416.0,2208.0,7047.0,0.837,0.153,-0.195,0.489
3814740,6814.0,2156.0,7683.0,0.826,0.174,-0.208,0.494
3814757,7314.0,4746.0,7973.0,0.816,0.194,-0.222,0.497
3814774,8014.0,2416.0,7273.0,0.807,0.211,-0.239,0.497
3814790,8642.0,2184.0,7369.0,0.797,0.23,-0.255,0.496
3814816,8104.0,4476.0,7125.0,0.786,0.249,-0.271,0.496
3814832,8426.0,1818.0,6629.0,0.775,0.267,-0.287,0.496
3814849,8556.0,1560.0,6917.0,0.763,0.287,-0.3,0.496
3814865,8750.0,3322.0,6807.0,0.751,0.306,-0.313,0.495
3814881,8694.0,3890.0,7023.0,0.739,0.323,-0.327,0.493
3814897,9086.0,3342.0,6989.0,0.726,0.339,-0.341,0.491
3814923,9202.0,1270.0,6663.0,0.713,0.355,-0.355,0.489
3814939,9590.0,1994.0,5971.0,0.7,0.372,-0.367,0.487
3814956,9384.0,3506.0,6331.0,0.688,0.387,-0.377,0.485
3814972,9098.0,2896.0,6129.0,0.675,0.401,-0.388,0.483
3814989,8968.0,3050.0,6387.0,0.663,0.414,-0.399,0.48
3815006,9606.0,1278.0,5745.0,0.651,0.427,-0.409,0.476
3815023,9502.0,2286.0,5485.0,0.639,0.44,-0.417,0.473
3815040,9136.0,2884.0,5505.0,0.628,0.452,-0.425,0.469
3815057,9040.0,2092.0,5513.0,0.617,0.464,-0.433,0.466
3815074,9038.0,1814.0,5425.0,0.606,0.475,-0.44,0.462
3815091,8824.0,2530.0,5913.0,0.595,0.486,-0.446,0.459
3815117,8916.0,2306.0,5891.0,0.585,0.496,-0.452,0.455
3815133,9102.0,1760.0,5847.0,0.576,0.505,-0.458,0.451
3815149,9272.0,1632.0,6095.0,0.567,0.513,-0.464,0.448
3815165,9416.0,1392.0,6181.0,0.56,0.519,-0.468,0.445
3815181,9592.0,2518.0,6515.0,0.554,0.525,-0.47,0.443
3815197,9520.0,2296.0,6589.0,0.549,0.529,-0.472,0.442
3815223,9202.0,812.0,6985.0,0.547,0.532,-0.473,0.441
3815240,9656.0,2026.0,6999.0,0.545,0.534,-0.472,0.441
3815257,9290.0,1442.0,7703.0,0.546,0.535,-0.469,0.442
3815273,9448.0,2166.0,7437.0,0.549,0.533,-0.466,0.444
3815289,8788.0,2024.0,8307.0,0.552,0.53,-0.463,0.447
3815305,9570.0,1976.0,7893.0,0.558,0.525,-0.459,0.451
3815321,9520.0,1924.0,7901.0,0.565,0.519,-0.453,0.455
3815347,9046.0,2508.0,8015.0,0.573,0.51,-0.446,0.461
3815363,9592.0,2574.0,8263.0,0.582,0.5,-0.439,0.468
3815379,10264.0,3114.0,8309.0,0.593,0.488,-0.431,0.474
3815395,9866.0,3098.0,8047.0,0.605,0.474,-0.423,0.481
3815411,10496.0,2918.0,8277.0,0.618,0.458,-0.414,0.487
3815437,10858.0,4272.0,8425.0,0.633,0.442,-0.404,0.491
3815453,11598.0,4864.0,8737.0,0.648,0.423,-0.396,0.495
3815469,12850.0,4608.0,7695.0,0.664,0.402,-0.388,0.497
3815485,13408.0,1858.0,6579.0,0.681,0.379,-0.377,0.501
3815501,13538.0,3318.0,7021.0,0.697,0.357,-0.361,0.507
3815517,13162.0,4304.0,7203.0,0.713,0.334,-0.343,0.513
3815543,13492.0,4696.0,7525.0,0.729,0.31,-0.324,0.517
3815559,13934.0,2904.0,5859.0,0.747,0.282,-0.304,0.52
3815575,13382.0,2428.0,6489.0,0.763,0.257,-0.281,0.522
3815591,12700.0,4212.0,6703.0,0.78,0.23,-0.257,0.523
3815607,12836.0,2356.0,5935.0,0.795,0.202,-0.232,0.523
3815623,11994.0,2000.0,4907.0,0.81,0.175,-0.205,0.521
3815639,9596.0,1142.0,5919.0,0.823,0.148,-0.178,0.518
3815665,8862.0,3012.0,6319.0,0.836,0.123,-0.15,0.514
3815681,8168.0,2940.0,6171.0,0.846,0.095,-0.127,0.509
3815697,8928.0,2342.0,3567.0,0.855,0.067,-0.105,0.503
3815713,6786.0,-1646.0,4447.0,0.863,0.039,-0.083,0.497
3815729,5144.0,1114.0,5705.0,0.87,0.017,-0.06,0.49
3815755,5700.0,1722.0,4589.0,0.875,-0.004,-0.039,0.483
3815771,5872.0,1892.0,3231.0,0.879,-0.027,-0.018,0.476
3815787,4934.0,-696.0,2215.0,0.883,-0.054,0.001,0.467
3815803,2598.0,-466.0,4051.0,0.886,-0.078,0.022,0.457
3815819,2666.0,1374.0,3933.0,0.888,-0.1,0.041,0.446
3815835,1832.0,-1094.0,3033.0,0.889,-0.123,0.058,0.437
3815861,2018.0,-248.0,611.0,0.89,-0.144,0.076,0.426
3815877,-510.0,-1386.0,1183.0,0.889,-0.166,0.093,0.416
3815893,-2156.0,-3040.0,1537.0,0.888,-0.185,0.109,0.406
3815909,-3970.0,-3752.0,1831.0,0.888,-0.2,0.122,0.397
3815925,-4380.0,30.0,-2087.0,0.886,-0.213,0.129,0.391
3815941,-2970.0,-6670.0,-3977.0,0.883,-0.229,0.134,0.388
3815967,-4812.0,-5592.0,-2763.0,0.882,-0.236,0.137,0.383
3815984,-4788.0,-4676.0,-3117.0,0.882,-0.237,0.135,0.384
3816001,-4176.0,-4936.0,-3799.0,0.883,-0.234,0.127,0.387
3816018,-2228.0,-2776.0,-4837.0,0.884,-0.225,0.116,0.392
3816035,-1622.0,-3650.0,-3365.0,0.885,-0.215,0.103,0.399
3816052,-1144.0,-2876.0,-2245.0,0.886,-0.202,0.091,0.407
3816068,-644.0,-2210.0,-1853.0,0.886,-0.188,0.079,0.416
3816084,-576.0,-2822.0,-853.0,0.886,-0.171,0.068,0.425
3816100,-132.0,-1568.0,-57.0,0.886,-0.154,0.057,0.433
3816126,-452.0,-700.0,1645.0,0.886,-0.136,0.046,0.442
3816142,-550.0,-1446.0,3065.0,0.884,-0.115,0.033,0.453
3816158,472.0,-1844.0,3045.0,0.881,-0.093,0.018,0.463
3816174,1678.0,-272.0,3137.0,0.879,-0.069,0.003,0.472
3816190,2362.0,-326.0,3839.0,0.875,-0.044,-0.014,0.482
3816206,2990.0,754.0,5069.0,0.87,-0.017,-0.03,0.492
3816232,3776.0,494.0,5103.0,0.864,0.009,-0.049,0.5
3816248,5748.0,142.0,4401.0,0.858,0.037,-0.066,0.508
3816264,5868.0,1998.0,5343.0,0.851,0.067,-0.082,0.515
3816280,6154.0,3232.0,6359.0,0.841,0.096,-0.098,0.523
3816296,6622.0,3012.0,5599.0,0.831,0.123,-0.117,0.529
3816313,8726.0,318.0,5459.0,0.821,0.15,-0.133,0.534
3816339,9472.0,3218.0,5385.0,0.81,0.181,-0.145,0.539
3816355,9482.0,4570.0,6285.0,0.797,0.211,-0.156,0.544
3816371,8906.0,4616.0,6853.0,0.784,0.239,-0.168,0.549
3816387,10230.0,2406.0,5655.0,0.769,0.267,-0.179,0.553
3816403,9382.0,5678.0,7327.0,0.754,0.296,-0.189,0.556
3816419,8586.0,7202.0,7221.0,0.737,0.322,-0.204,0.558
3816445,10224.0,3912.0,6147.0,0.721,0.346,-0.222,0.558
3816462,11004.0,1790.0,6355.0,0.703,0.372,-0.234,0.559
3816478,10366.0,6278.0,7185.0,0.685,0.398,-0.245,0.559
3816494,10464.0,6346.0,7389.0,0.667,0.42,-0.257,0.559
3816510,10362.0,5184.0,7863.0,0.649,0.44,-0.269,0.559
3816526,10294.0,4566.0,6851.0,0.632,0.458,-0.28,0.559
3816552,10794.0,3156.0,6601.0,0.615,0.477,-0.287,0.558
3816568,10014.0,6628.0,7387.0,0.598,0.494,-0.292,0.559
3816585,9094.0,5336.0,8245.0,0.582,0.51,-0.297,0.56
3816601,9468.0,5940.0,8081.0,0.567,0.524,-0.304,0.559
3816617,10570.0,4776.0,7633.0,0.553,0.535,-0.31,0.558
3816633,9996.0,3036.0,6543.0,0.541,0.545,-0.313,0.559
3816649,9098.0,3574.0,7215.0,0.529,0.556,-0.312,0.56
3816675,8764.0,6166.0,7287.0,0.517,0.565,-0.31,0.563
3816691,8440.0,4666.0,6483.0,0.507,0.572,-0.309,0.566
3816707,8436.0,3150.0,6853.0,0.498,0.578,-0.306,0.569
3816723,7638.0,4254.0,6921.0,0.489,0.583,-0.302,0.574
3816739,7538.0,5212.0,6775.0,0.482,0.588,-0.298,0.578
3816755,7556.0,3914.0,5997.0,0.475,0.591,-0.295,0.581
3816781,7506.0,2410.0,5385.0,0.47,0.593,-0.29,0.586
3816797,7440.0,3626.0,5503.0,0.465,0.596,-0.282,0.591
3816813,6942.0,4502.0,5511.0,0.461,0.597,-0.274,0.597
3816829,7264.0,4146.0,5099.0,0.457,0.598,-0.265,0.602
