timeMs,ax,ay,az,q0,q1,q2,q3
6158824,3458.0,3465.0,6804.0,0.767,0.278,-0.052,0.576
6158840,3538.0,3665.0,6732.0,0.767,0.279,-0.051,0.576
6158856,3594.0,3661.0,6722.0,0.767,0.278,-0.052,0.575
6158872,3550.0,3303.0,6860.0,0.768,0.277,-0.053,0.575
6158898,3466.0,2803.0,6892.0,0.769,0.276,-0.055,0.575
6158914,3424.0,2389.0,6984.0,0.769,0.274,-0.056,0.575
6158930,3346.0,2227.0,7080.0,0.769,0.273,-0.056,0.575
6158946,3200.0,2189.0,7068.0,0.769,0.273,-0.056,0.575
6158962,3086.0,2295.0,7070.0,0.769,0.272,-0.056,0.575
6158988,3120.0,2471.0,7060.0,0.769,0.273,-0.056,0.576
6159004,3196.0,2777.0,6922.0,0.768,0.274,-0.055,0.576
6159020,3358.0,3189.0,6830.0,0.767,0.275,-0.054,0.577
6159036,3582.0,3459.0,6798.0,0.767,0.276,-0.053,0.577
6159052,3716.0,3643.0,6770.0,0.767,0.277,-0.052,0.577
6159068,3706.0,3507.0,6748.0,0.767,0.277,-0.052,0.577
6159094,3552.0,3345.0,6812.0,0.767,0.277,-0.052,0.577
6159110,3304.0,3027.0,6932.0,0.767,0.276,-0.052,0.577
6159126,3108.0,2733.0,7080.0,0.767,0.275,-0.052,0.577
6159142,3022.0,2477.0,7134.0,0.768,0.274,-0.052,0.577
6159158,2924.0,2427.0,7130.0,0.768,0.274,-0.052,0.577
6159174,2910.0,2505.0,7106.0,0.767,0.274,-0.052,0.577
6159200,3044.0,2657.0,6980.0,0.767,0.275,-0.052,0.578
6159216,3152.0,3057.0,6856.0,0.766,0.276,-0.051,0.578
6159232,3328.0,3341.0,6788.0,0.766,0.277,-0.05,0.578
6159248,3498.0,3651.0,6780.0,0.766,0.278,-0.05,0.578
6159264,3556.0,3753.0,6728.0,0.766,0.278,-0.05,0.578
6159280,3594.0,3583.0,6764.0,0.766,0.278,-0.05,0.578
6159297,3544.0,3249.0,6850.0,0.766,0.277,-0.05,0.577
6159323,3406.0,2931.0,6820.0,0.767,0.276,-0.051,0.577
6159339,3380.0,2463.0,7002.0,0.767,0.275,-0.051,0.577
6159355,3236.0,2257.0,7002.0,0.767,0.274,-0.051,0.577
6159371,3152.0,2383.0,7086.0,0.767,0.274,-0.051,0.577
6159387,2992.0,2475.0,7062.0,0.767,0.274,-0.05,0.578
6159403,2886.0,2763.0,7098.0,0.767,0.275,-0.049,0.578
6159429,2940.0,2999.0,6996.0,0.766,0.276,-0.048,0.578
6159445,3098.0,3379.0,6830.0,0.766,0.278,-0.047,0.578
6159461,3378.0,3845.0,6762.0,0.765,0.279,-0.046,0.578
6159477,3584.0,4009.0,6692.0,0.765,0.28,-0.046,0.578
6159493,3600.0,3749.0,6736.0,0.765,0.279,-0.046,0.578
6159519,3604.0,3271.0,6770.0,0.766,0.278,-0.047,0.578
6159535,3460.0,2789.0,6902.0,0.766,0.277,-0.048,0.578
6159551,3314.0,2445.0,7030.0,0.767,0.276,-0.048,0.578
6159567,3132.0,2149.0,7182.0,0.767,0.275,-0.049,0.578
6159583,3018.0,2211.0,7194.0,0.767,0.275,-0.049,0.578
6159600,2912.0,2353.0,7128.0,0.766,0.276,-0.048,0.578
6159616,2948.0,2659.0,7024.0,0.766,0.277,-0.047,0.579
6159642,3040.0,2979.0,6892.0,0.765,0.278,-0.046,0.58
6159658,3130.0,3379.0,6800.0,0.764,0.279,-0.045,0.58
6159674,3388.0,3825.0,6734.0,0.763,0.281,-0.044,0.58
6159690,3656.0,4063.0,6638.0,0.763,0.282,-0.044,0.58
6159706,3690.0,4081.0,6596.0,0.763,0.282,-0.044,0.58
6159722,3716.0,3741.0,6680.0,0.763,0.281,-0.045,0.58
6159748,3546.0,3179.0,6852.0,0.764,0.28,-0.045,0.58
6159764,3294.0,2677.0,7012.0,0.765,0.278,-0.046,0.58
6159780,3118.0,2411.0,7116.0,0.765,0.277,-0.046,0.58
6159796,2962.0,2369.0,7122.0,0.765,0.277,-0.046,0.58
6159812,2808.0,2437.0,7118.0,0.765,0.277,-0.046,0.58
6159828,2720.0,2547.0,7084.0,0.764,0.277,-0.045,0.581
6159854,2714.0,2807.0,6996.0,0.763,0.278,-0.044,0.581
6159870,2978.0,3175.0,6898.0,0.763,0.28,-0.043,0.582
6159886,3266.0,3575.0,6810.0,0.762,0.281,-0.042,0.582
6159902,3552.0,4093.0,6674.0,0.762,0.283,-0.041,0.581
6159918,3830.0,4377.0,6584.0,0.761,0.285,-0.04,0.581
6159934,3790.0,4215.0,6552.0,0.762,0.285,-0.04,0.58
6159960,3702.0,3647.0,6682.0,0.763,0.284,-0.041,0.58
6159976,3470.0,3109.0,6850.0,0.764,0.282,-0.042,0.579
6159992,3180.0,2513.0,6952.0,0.764,0.28,-0.042,0.579
6160008,2982.0,2187.0,7100.0,0.765,0.279,-0.043,0.579
6160024,2976.0,2065.0,7168.0,0.765,0.279,-0.043,0.579
6160050,2902.0,2155.0,7246.0,0.765,0.279,-0.042,0.579
6160066,2816.0,2339.0,7082.0,0.764,0.28,-0.041,0.58
6160082,2958.0,2719.0,6948.0,0.763,0.281,-0.039,0.58
6160098,3050.0,3081.0,6812.0,0.763,0.283,-0.038,0.58
6160114,3402.0,3667.0,6766.0,0.762,0.286,-0.036,0.58
6160130,3580.0,4077.0,6646.0,0.761,0.288,-0.034,0.58
6160156,3694.0,4353.0,6526.0,0.761,0.29,-0.033,0.58
6160172,3642.0,4219.0,6514.0,0.761,0.29,-0.033,0.579
6160188,3580.0,3719.0,6696.0,0.762,0.289,-0.033,0.579
6160204,3280.0,3089.0,6856.0,0.763,0.288,-0.033,0.578
6160220,3088.0,2671.0,6978.0,0.763,0.287,-0.033,0.578
6160236,2958.0,2385.0,7096.0,0.763,0.286,-0.033,0.578
6160253,2924.0,2285.0,7148.0,0.763,0.286,-0.033,0.578
6160279,2812.0,2381.0,7074.0,0.763,0.287,-0.032,0.578
6160295,2916.0,2707.0,6988.0,0.762,0.288,-0.03,0.579
6160311,3064.0,3237.0,6804.0,0.761,0.29,-0.029,0.579
6160327,3246.0,3637.0,6680.0,0.76,0.292,-0.027,0.58
6160343,3384.0,4071.0,6696.0,0.759,0.294,-0.026,0.58
6160359,3408.0,4345.0,6568.0,0.759,0.295,-0.025,0.58
6160385,3400.0,4485.0,6528.0,0.759,0.296,-0.025,0.58
6160401,3276.0,4187.0,6606.0,0.759,0.296,-0.025,0.58
6160417,3088.0,3663.0,6694.0,0.76,0.294,-0.026,0.579
6160433,2998.0,3347.0,6804.0,0.76,0.293,-0.026,0.579
6160449,2918.0,2975.0,6884.0,0.76,0.292,-0.027,0.579
6160465,2872.0,2791.0,6990.0,0.76,0.292,-0.028,0.58
6160492,2892.0,2721.0,7040.0,0.76,0.292,-0.028,0.58
6160508,2854.0,2855.0,6982.0,0.76,0.292,-0.028,0.58
6160524,3062.0,3207.0,6844.0,0.759,0.293,-0.027,0.58
6160540,3226.0,3529.0,6744.0,0.758,0.294,-0.026,0.581
6160556,3340.0,3871.0,6618.0,0.758,0.296,-0.025,0.581
6160572,3452.0,4219.0,6536.0,0.757,0.297,-0.025,0.581
6160598,3430.0,4295.0,6576.0,0.757,0.297,-0.025,0.581
6160614,3342.0,4143.0,6570.0,0.758,0.297,-0.025,0.581
6160630,3208.0,3903.0,6676.0,0.758,0.296,-0.025,0.581
6160646,3080.0,3591.0,6772.0,0.759,0.295,-0.026,0.581
6160662,2986.0,3245.0,6864.0,0.759,0.293,-0.027,0.58
6160678,2912.0,2971.0,6962.0,0.759,0.292,-0.028,0.581
6160704,2942.0,2813.0,7066.0,0.76,0.291,-0.028,0.581
6160720,2848.0,2795.0,7006.0,0.759,0.291,-0.029,0.581
6160736,2950.0,2845.0,6906.0,0.759,0.291,-0.029,0.582
6160752,3098.0,3035.0,6840.0,0.759,0.292,-0.028,0.582
6160768,3238.0,3303.0,6728.0,0.758,0.293,-0.028,0.582
6160784,3402.0,3675.0,6660.0,0.757,0.294,-0.027,0.583
6160810,3458.0,4143.0,6662.0,0.757,0.295,-0.027,0.583
6160826,3532.0,4421.0,6604.0,0.757,0.295,-0.026,0.583
6160842,3366.0,4261.0,6656.0,0.757,0.295,-0.027,0.582
6160858,3244.0,3793.0,6704.0,0.758,0.293,-0.028,0.582
6160874,3208.0,3303.0,6798.0,0.758,0.291,-0.03,0.582
6160890,3158.0,2759.0,6852.0,0.759,0.29,-0.031,0.582
6160916,3128.0,2399.0,6862.0,0.759,0.288,-0.032,0.582
6160932,3076.0,2387.0,6900.0,0.759,0.288,-0.032,0.583
6160948,3016.0,2479.0,6940.0,0.759,0.288,-0.031,0.583
6160964,2880.0,2727.0,7010.0,0.759,0.289,-0.03,0.583
6160980,2774.0,3237.0,6846.0,0.758,0.29,-0.028,0.583
6160996,2838.0,3747.0,6786.0,0.758,0.291,-0.027,0.584
6161022,2964.0,4171.0,6734.0,0.757,0.293,-0.026,0.584
6161038,3080.0,4485.0,6698.0,0.757,0.293,-0.026,0.583
6161054,3194.0,4407.0,6686.0,0.757,0.293,-0.026,0.583
6161070,3236.0,4109.0,6700.0,0.758,0.292,-0.028,0.583
6161086,3318.0,3593.0,6752.0,0.759,0.291,-0.03,0.582
6161112,3368.0,3181.0,6808.0,0.76,0.289,-0.032,0.582
6161128,3342.0,2955.0,6928.0,0.76,0.287,-0.034,0.582
6161144,3342.0,2649.0,6940.0,0.761,0.286,-0.036,0.581
6161160,3236.0,2511.0,7004.0,0.761,0.285,-0.037,0.582
6161176,3196.0,2513.0,6950.0,0.761,0.284,-0.038,0.582
6161192,3296.0,2743.0,6870.0,0.761,0.285,-0.038,0.582
6161218,3344.0,3065.0,6776.0,0.76,0.286,-0.038,0.583
6161235,3444.0,3383.0,6706.0,0.759,0.287,-0.037,0.583
6161251,3512.0,3779.0,6742.0,0.759,0.288,-0.036,0.583
6161267,3708.0,4069.0,6682.0,0.758,0.29,-0.035,0.583
6161283,3730.0,3883.0,6670.0,0.758,0.29,-0.035,0.583
6161299,3690.0,3347.0,6624.0,0.759,0.289,-0.034,0.582
6161315,3498.0,2973.0,6742.0,0.759,0.289,-0.033,0.582
6161341,3190.0,2773.0,6858.0,0.76,0.288,-0.032,0.582
6161357,2906.0,2593.0,6966.0,0.76,0.288,-0.031,0.582
6161373,2638.0,2507.0,7134.0,0.76,0.288,-0.029,0.582
6161389,2382.0,2463.0,7180.0,0.76,0.288,-0.027,0.582
6161405,2274.0,2493.0,7106.0,0.76,0.289,-0.025,0.582
6161421,2662.0,2891.0,6970.0,0.759,0.291,-0.023,0.582
6161447,2854.0,3515.0,6840.0,0.758,0.294,-0.021,0.582
6161463,3030.0,4059.0,6630.0,0.757,0.297,-0.018,0.582
6161479,3196.0,4501.0,6520.0,0.757,0.299,-0.016,0.581
6161495,3304.0,4737.0,6456.0,0.757,0.3,-0.016,0.58
6161511,3332.0,4721.0,6544.0,0.757,0.301,-0.016,0.58
6161527,3316.0,4199.0,6672.0,0.758,0.299,-0.017,0.579
6161554,3256.0,3511.0,6776.0,0.759,0.297,-0.019,0.579
6161570,3278.0,3059.0,6868.0,0.76,0.295,-0.021,0.579
6161586,3338.0,2749.0,6880.0,0.76,0.294,-0.023,0.579
6161602,3200.0,2453.0,6944.0,0.76,0.293,-0.024,0.579
6161618,3210.0,2427.0,6944.0,0.76,0.293,-0.024,0.58
6161634,3242.0,2689.0,6858.0,0.759,0.293,-0.023,0.58
6161660,3238.0,2949.0,6688.0,0.758,0.295,-0.022,0.581
6161676,3256.0,3483.0,6688.0,0.757,0.296,-0.02,0.582
6161692,3312.0,4029.0,6614.0,0.756,0.298,-0.019,0.582
6161708,3196.0,4479.0,6504.0,0.755,0.3,-0.017,0.583
6161724,3096.0,4751.0,6524.0,0.755,0.3,-0.016,0.583
6161740,2962.0,4579.0,6618.0,0.755,0.3,-0.016,0.583
6161766,2708.0,4199.0,6754.0,0.755,0.299,-0.016,0.584
6161782,2594.0,3709.0,6792.0,0.755,0.297,-0.018,0.584
6161798,2638.0,3387.0,6890.0,0.756,0.295,-0.019,0.584
6161814,2772.0,3167.0,6914.0,0.756,0.294,-0.02,0.585
6161830,2888.0,3131.0,6948.0,0.756,0.293,-0.022,0.585
6161846,3062.0,2971.0,6880.0,0.756,0.293,-0.023,0.585
6161872,3146.0,3063.0,6710.0,0.756,0.293,-0.023,0.585
6161888,3232.0,3287.0,6704.0,0.755,0.293,-0.024,0.586
6161904,3292.0,3617.0,6718.0,0.755,0.293,-0.024,0.586
6161920,3474.0,3941.0,6668.0,0.755,0.294,-0.024,0.586
6161936,3458.0,4131.0,6606.0,0.755,0.294,-0.024,0.586
6161952,3424.0,4001.0,6658.0,0.755,0.293,-0.024,0.586
6161978,3278.0,3631.0,6676.0,0.756,0.292,-0.025,0.586
6161994,3214.0,3311.0,6794.0,0.756,0.29,-0.026,0.586
6162010,3086.0,2925.0,6884.0,0.757,0.289,-0.027,0.586
6162026,2982.0,2699.0,7012.0,0.757,0.288,-0.028,0.586
6162042,2920.0,2601.0,7114.0,0.757,0.287,-0.029,0.586
6162068,2850.0,2619.0,7060.0,0.757,0.286,-0.029,0.586
6162084,2808.0,2709.0,6958.0,0.757,0.287,-0.029,0.587
6162100,2956.0,3025.0,6878.0,0.756,0.287,-0.029,0.587
6162116,3130.0,3363.0,6808.0,0.756,0.288,-0.028,0.588
6162132,3330.0,3845.0,6710.0,0.755,0.29,-0.027,0.588
6162148,3510.0,4255.0,6638.0,0.755,0.291,-0.027,0.588
6162174,3562.0,4375.0,6630.0,0.755,0.291,-0.027,0.587
6162190,3494.0,3955.0,6682.0,0.755,0.29,-0.028,0.587
6162206,3358.0,3425.0,6736.0,0.756,0.289,-0.029,0.586
6162222,3214.0,2981.0,6870.0,0.757,0.288,-0.03,0.586
6162238,3112.0,2585.0,6988.0,0.757,0.287,-0.031,0.586
6162254,2984.0,2533.0,7100.0,0.757,0.286,-0.031,0.586
6162280,2944.0,2529.0,7090.0,0.757,0.286,-0.031,0.586
6162296,2908.0,2671.0,6950.0,0.757,0.287,-0.03,0.587
6162312,2924.0,2975.0,6828.0,0.756,0.288,-0.029,0.587
6162328,3090.0,3533.0,6734.0,0.755,0.29,-0.027,0.587
6162344,3294.0,3977.0,6698.0,0.755,0.292,-0.026,0.587
6162360,3452.0,4269.0,6668.0,0.754,0.293,-0.025,0.587
6162386,3530.0,4171.0,6602.0,0.755,0.293,-0.025,0.587
6162402,3434.0,3765.0,6658.0,0.755,0.293,-0.025,0.586
6162418,3346.0,3261.0,6780.0,0.756,0.292,-0.026,0.586
6162434,3168.0,2933.0,6838.0,0.756,0.291,-0.026,0.586
6162450,3056.0,2733.0,7014.0,0.756,0.29,-0.026,0.586
6162466,2976.0,2583.0,7054.0,0.756,0.29,-0.027,0.586
6162492,2936.0,2559.0,7084.0,0.756,0.29,-0.026,0.586
6162508,2946.0,2665.0,6968.0,0.755,0.29,-0.025,0.587
6162524,3000.0,3011.0,6820.0,0.755,0.292,-0.024,0.587
6162540,3124.0,3421.0,6710.0,0.754,0.293,-0.023,0.588
6162556,3230.0,3947.0,6588.0,0.753,0.295,-0.022,0.588
6162572,3354.0,4361.0,6572.0,0.752,0.296,-0.021,0.588
6162598,3312.0,4577.0,6588.0,0.752,0.297,-0.02,0.588
6162614,3288.0,4389.0,6586.0,0.753,0.296,-0.02,0.588
6162635,3198.0,3897.0,6720.0,0.753,0.295,-0.021,0.587
6162651,3064.0,3401.0,6766.0,0.754,0.294,-0.022,0.587
6162667,3026.0,2973.0,6914.0,0.754,0.292,-0.023,0.587
6162683,2988.0,2771.0,6952.0,0.754,0.291,-0.024,0.588
6162699,2996.0,2669.0,7018.0,0.754,0.291,-0.024,0.588
6162715,2978.0,2727.0,7064.0,0.754,0.291,-0.024,0.588
6162731,2946.0,2901.0,6896.0,0.754,0.291,-0.024,0.589
6162757,3028.0,3213.0,6798.0,0.753,0.292,-0.023,0.589
6162773,3154.0,3511.0,6660.0,0.752,0.293,-0.023,0.59
6162789,3334.0,3903.0,6638.0,0.751,0.294,-0.022,0.59
6162805,3386.0,4263.0,6592.0,0.751,0.295,-0.021,0.591
6162821,3382.0,4441.0,6574.0,0.751,0.295,-0.021,0.59
6162837,3380.0,4269.0,6658.0,0.751,0.294,-0.021,0.59
6162863,3180.0,3811.0,6774.0,0.752,0.293,-0.022,0.59
6162879,3070.0,3311.0,6886.0,0.752,0.291,-0.023,0.59
6162895,2974.0,2957.0,6940.0,0.753,0.29,-0.024,0.59
6162911,2900.0,2747.0,6998.0,0.753,0.289,-0.025,0.59
6162927,2938.0,2731.0,7026.0,0.753,0.289,-0.026,0.59
6162953,2954.0,2873.0,6994.0,0.753,0.289,-0.026,0.59
6162969,3016.0,2997.0,6914.0,0.753,0.289,-0.026,0.591
6162985,3008.0,3231.0,6794.0,0.752,0.29,-0.025,0.591
6163001,3170.0,3475.0,6726.0,0.752,0.291,-0.025,0.591
6163017,3312.0,3789.0,6716.0,0.751,0.292,-0.025,0.591
6163033,3418.0,4037.0,6696.0,0.751,0.292,-0.024,0.591
6163059,3402.0,4265.0,6606.0,0.751,0.293,-0.024,0.591
6163075,3464.0,4057.0,6636.0,0.752,0.292,-0.025,0.59
6163091,3354.0,3457.0,6744.0,0.753,0.291,-0.026,0.59
6163107,3254.0,2929.0,6920.0,0.753,0.29,-0.027,0.59
6163123,3068.0,2651.0,6934.0,0.754,0.289,-0.027,0.589
6163139,3098.0,2523.0,7012.0,0.754,0.288,-0.027,0.589
6163165,3022.0,2719.0,7030.0,0.754,0.289,-0.027,0.589
6163181,2968.0,2897.0,6960.0,0.754,0.289,-0.026,0.59
6163197,3008.0,3127.0,6812.0,0.753,0.29,-0.026,0.59
6163213,3036.0,3409.0,6756.0,0.753,0.29,-0.025,0.59
6163229,3076.0,3483.0,6772.0,0.752,0.291,-0.024,0.591
6163245,3174.0,3751.0,6786.0,0.752,0.292,-0.023,0.591
6163271,3352.0,4019.0,6712.0,0.751,0.293,-0.022,0.591
6163287,3394.0,4161.0,6628.0,0.751,0.294,-0.022,0.591
6163303,3378.0,4041.0,6602.0,0.752,0.294,-0.021,0.59
6163319,3344.0,3561.0,6704.0,0.752,0.293,-0.022,0.59
6163335,3220.0,3141.0,6820.0,0.753,0.292,-0.022,0.59
6163351,3082.0,2823.0,6846.0,0.753,0.292,-0.022,0.589
6163377,2972.0,2713.0,6982.0,0.753,0.292,-0.022,0.589
6163393,2960.0,2763.0,7074.0,0.753,0.292,-0.022,0.589
6163409,2828.0,2833.0,6964.0,0.753,0.293,-0.021,0.589
6163425,2874.0,3111.0,6834.0,0.753,0.294,-0.02,0.589
6163441,2950.0,3401.0,6764.0,0.752,0.295,-0.019,0.589
6163457,3078.0,3723.0,6736.0,0.752,0.296,-0.017,0.589
6163483,3208.0,4105.0,6660.0,0.751,0.297,-0.016,0.589
6163499,3382.0,4373.0,6552.0,0.751,0.299,-0.016,0.589
6163515,3398.0,4413.0,6536.0,0.751,0.299,-0.015,0.589
6163531,3298.0,4011.0,6648.0,0.752,0.298,-0.016,0.588
6163547,3208.0,3589.0,6720.0,0.752,0.297,-0.017,0.588
6163563,3084.0,3133.0,6850.0,0.753,0.295,-0.018,0.588
6163589,3006.0,2821.0,6948.0,0.753,0.294,-0.019,0.588
6163605,3018.0,2719.0,7014.0,0.753,0.294,-0.019,0.588
6163621,2998.0,2705.0,7052.0,0.753,0.293,-0.019,0.588
6163637,2970.0,2889.0,6952.0,0.753,0.294,-0.019,0.589
6163653,3040.0,3113.0,6810.0,0.752,0.294,-0.018,0.589
6163669,3094.0,3407.0,6746.0,0.751,0.295,-0.018,0.59
6163695,3216.0,3735.0,6670.0,0.751,0.296,-0.017,0.59
6163711,3318.0,4007.0,6602.0,0.75,0.297,-0.016,0.591
6163727,3394.0,4367.0,6572.0,0.749,0.298,-0.016,0.591
6163743,3368.0,4499.0,6534.0,0.749,0.298,-0.016,0.591
6163759,3186.0,4017.0,6654.0,0.75,0.297,-0.017,0.591
6163775,3046.0,3485.0,6764.0,0.75,0.295,-0.018,0.591
6163801,2980.0,3105.0,6892.0,0.751,0.294,-0.019,0.591
6163817,2876.0,2923.0,6948.0,0.751,0.293,-0.02,0.591
6163833,2868.0,2911.0,7006.0,0.751,0.293,-0.02,0.591
6163849,2868.0,2965.0,6978.0,0.751,0.293,-0.021,0.592
6163866,2920.0,3141.0,6948.0,0.751,0.293,-0.021,0.592
6163882,2918.0,3297.0,6796.0,0.75,0.293,-0.021,0.593
6163899,3036.0,3443.0,6696.0,0.749,0.294,-0.021,0.593
6163925,3150.0,3683.0,6712.0,0.749,0.294,-0.021,0.593
6163941,3350.0,3959.0,6662.0,0.749,0.295,-0.02,0.593
6163957,3442.0,4167.0,6630.0,0.748,0.296,-0.02,0.593
6163973,3482.0,4201.0,6564.0,0.749,0.296,-0.021,0.593
6163989,3454.0,3875.0,6630.0,0.749,0.295,-0.021,0.593
6164015,3300.0,3427.0,6774.0,0.75,0.294,-0.022,0.592
6164031,3150.0,3105.0,6864.0,0.75,0.293,-0.023,0.592
6164047,2974.0,2851.0,6896.0,0.751,0.292,-0.024,0.592
6164063,2932.0,2857.0,7010.0,0.751,0.292,-0.024,0.592
6164079,2884.0,2915.0,7008.0,0.751,0.292,-0.024,0.592
6164095,2938.0,3019.0,6936.0,0.751,0.292,-0.024,0.592
6164121,2970.0,3215.0,6826.0,0.75,0.293,-0.023,0.592
6164137,3054.0,3395.0,6730.0,0.75,0.294,-0.023,0.592
6164153,3182.0,3579.0,6736.0,0.75,0.294,-0.023,0.592
6164169,3324.0,3739.0,6728.0,0.75,0.295,-0.022,0.592
6164185,3402.0,3989.0,6636.0,0.749,0.296,-0.022,0.592
6164201,3444.0,4037.0,6612.0,0.75,0.296,-0.022,0.592
6164227,3416.0,3729.0,6692.0,0.75,0.296,-0.022,0.591
6164243,3264.0,3329.0,6772.0,0.751,0.295,-0.023,0.591
6164259,3172.0,3029.0,6778.0,0.751,0.294,-0.023,0.591
6164275,3048.0,2883.0,6902.0,0.751,0.293,-0.024,0.591
6164291,3038.0,2833.0,6976.0,0.752,0.293,-0.024,0.59
6164307,3010.0,2887.0,6966.0,0.751,0.293,-0.024,0.591
6164333,3028.0,2963.0,6868.0,0.751,0.294,-0.023,0.591
6164349,3134.0,3215.0,6746.0,0.75,0.295,-0.023,0.591
6164365,3196.0,3473.0,6724.0,0.75,0.295,-0.022,0.591
6164381,3244.0,3755.0,6684.0,0.75,0.296,-0.021,0.592
6164397,3340.0,3929.0,6654.0,0.749,0.297,-0.02,0.592
6164413,3336.0,4025.0,6634.0,0.749,0.298,-0.02,0.591
6164439,3334.0,4005.0,6666.0,0.749,0.297,-0.02,0.591
6164455,3264.0,3719.0,6734.0,0.75,0.297,-0.02,0.591
6164471,3062.0,3355.0,6798.0,0.75,0.296,-0.02,0.591
6164487,3006.0,3075.0,6852.0,0.75,0.295,-0.021,0.591
6164503,2944.0,2917.0,6952.0,0.751,0.295,-0.021,0.591
6164519,2944.0,2951.0,6956.0,0.751,0.295,-0.021,0.591
6164545,2966.0,3017.0,6928.0,0.75,0.295,-0.021,0.591
6164561,3052.0,3199.0,6752.0,0.75,0.296,-0.02,0.592
6164577,3076.0,3537.0,6678.0,0.749,0.296,-0.02,0.592
6164593,3114.0,3747.0,6614.0,0.749,0.297,-0.019,0.592
6164609,3248.0,3927.0,6634.0,0.748,0.297,-0.019,0.592
6164625,3306.0,4127.0,6582.0,0.748,0.298,-0.018,0.592
6164651,3324.0,4223.0,6564.0,0.748,0.298,-0.018,0.592
6164667,3344.0,4011.0,6652.0,0.749,0.297,-0.019,0.592
6164683,3208.0,3631.0,6736.0,0.749,0.296,-0.02,0.592
6164699,3122.0,3119.0,6878.0,0.75,0.295,-0.021,0.592
6164715,3010.0,2827.0,6952.0,0.75,0.294,-0.021,0.592
6164731,3004.0,2813.0,6956.0,0.75,0.294,-0.022,0.592
6164757,3056.0,2937.0,6932.0,0.75,0.294,-0.022,0.592
6164773,3030.0,3109.0,6874.0,0.75,0.294,-0.022,0.592
6164789,2990.0,3189.0,6812.0,0.75,0.294,-0.022,0.593
6164805,3008.0,3439.0,6712.0,0.749,0.295,-0.021,0.593
6164821,3130.0,3639.0,6692.0,0.749,0.295,-0.021,0.593
6164837,3282.0,3901.0,6678.0,0.748,0.295,-0.021,0.594
6164863,3420.0,4195.0,6664.0,0.748,0.296,-0.021,0.594
6164879,3422.0,4177.0,6636.0,0.748,0.295,-0.021,0.594
6164895,3344.0,3903.0,6636.0,0.749,0.294,-0.022,0.594
6164911,3226.0,3445.0,6814.0,0.749,0.293,-0.023,0.594
6164927,3110.0,3099.0,6898.0,0.75,0.292,-0.024,0.593
6164953,3048.0,2813.0,6908.0,0.75,0.291,-0.025,0.593
6164969,3028.0,2803.0,6946.0,0.75,0.291,-0.025,0.593
6164985,2992.0,2883.0,7006.0,0.75,0.291,-0.025,0.593
6165001,2950.0,2979.0,6946.0,0.75,0.291,-0.025,0.593
6165017,2956.0,3061.0,6850.0,0.75,0.291,-0.024,0.594
6165033,3040.0,3313.0,6752.0,0.749,0.292,-0.024,0.594
6165059,3268.0,3507.0,6750.0,0.749,0.292,-0.024,0.594
6165075,3370.0,3729.0,6732.0,0.748,0.293,-0.023,0.595
6165091,3488.0,3935.0,6630.0,0.748,0.293,-0.023,0.594
6165107,3530.0,3997.0,6606.0,0.748,0.293,-0.023,0.594
6165123,3414.0,3709.0,6730.0,0.749,0.293,-0.023,0.594
6165139,3256.0,3213.0,6800.0,0.749,0.292,-0.024,0.594
6165165,3122.0,2927.0,6910.0,0.75,0.291,-0.024,0.594
6165181,2974.0,2907.0,6920.0,0.75,0.291,-0.024,0.594
6165197,2924.0,3011.0,6950.0,0.75,0.291,-0.024,0.594
6165213,2904.0,3037.0,6984.0,0.75,0.291,-0.024,0.594
6165229,2896.0,3133.0,6914.0,0.749,0.292,-0.024,0.594
6165245,2998.0,3349.0,6822.0,0.749,0.292,-0.023,0.595
6165271,3146.0,3563.0,6698.0,0.748,0.293,-0.022,0.595
6165287,3306.0,3925.0,6656.0,0.748,0.294,-0.022,0.595
6165303,3442.0,4099.0,6622.0,0.748,0.295,-0.021,0.595
6165319,3478.0,4149.0,6620.0,0.748,0.295,-0.021,0.595
6165336,3374.0,3791.0,6672.0,0.748,0.294,-0.022,0.594
6165352,3218.0,3345.0,6816.0,0.749,0.293,-0.022,0.594
6165378,3096.0,3029.0,6904.0,0.749,0.292,-0.023,0.594
6165394,3054.0,2843.0,6922.0,0.75,0.292,-0.023,0.593
6165410,2998.0,2861.0,6942.0,0.75,0.292,-0.023,0.593
6165426,2992.0,2951.0,7016.0,0.75,0.292,-0.022,0.593
6165442,2968.0,2951.0,6940.0,0.75,0.293,-0.022,0.593
6165458,3014.0,3159.0,6784.0,0.749,0.294,-0.021,0.593
6165484,3082.0,3389.0,6692.0,0.749,0.295,-0.02,0.594
6165500,3174.0,3667.0,6694.0,0.748,0.296,-0.019,0.594
6165516,3338.0,4055.0,6670.0,0.748,0.297,-0.019,0.594
6165532,3296.0,4305.0,6608.0,0.748,0.297,-0.018,0.593
6165548,3308.0,4171.0,6598.0,0.748,0.297,-0.019,0.593
6165564,3254.0,3727.0,6726.0,0.749,0.295,-0.02,0.593
6165590,3166.0,3263.0,6806.0,0.749,0.294,-0.021,0.593
6165606,3072.0,2933.0,6922.0,0.75,0.293,-0.021,0.593
6165622,3042.0,2831.0,6940.0,0.75,0.292,-0.022,0.593
6165638,3038.0,2847.0,6984.0,0.75,0.292,-0.022,0.593
6165654,2954.0,2931.0,6964.0,0.75,0.292,-0.022,0.593
6165670,3012.0,2979.0,6886.0,0.749,0.292,-0.022,0.594
6165696,3084.0,3157.0,6804.0,0.749,0.292,-0.022,0.594
6165712,3184.0,3379.0,6788.0,0.748,0.293,-0.022,0.595
6165728,3290.0,3643.0,6732.0,0.748,0.293,-0.022,0.596
6165744,3428.0,3951.0,6632.0,0.747,0.294,-0.021,0.596
6165760,3550.0,4139.0,6598.0,0.747,0.294,-0.021,0.596
6165776,3516.0,4113.0,6634.0,0.747,0.294,-0.021,0.596
6165802,3408.0,3649.0,6720.0,0.747,0.293,-0.022,0.596
6165818,3178.0,3155.0,6782.0,0.747,0.292,-0.022,0.596
6165834,3080.0,2913.0,6944.0,0.748,0.292,-0.022,0.596
6165850,2926.0,2901.0,6944.0,0.748,0.291,-0.022,0.596
6165866,2854.0,2993.0,6952.0,0.747,0.291,-0.022,0.597
6165882,2854.0,3203.0,6936.0,0.747,0.292,-0.021,0.597
6165908,2826.0,3225.0,6908.0,0.747,0.292,-0.021,0.597
6165924,2914.0,3281.0,6904.0,0.746,0.292,-0.02,0.598
6165940,2998.0,3397.0,6796.0,0.745,0.293,-0.02,0.598
6165956,3188.0,3617.0,6740.0,0.745,0.294,-0.019,0.599
6165972,3374.0,3915.0,6672.0,0.744,0.295,-0.018,0.599
6165988,3492.0,4151.0,6604.0,0.744,0.296,-0.017,0.599
6166014,3452.0,4161.0,6580.0,0.744,0.296,-0.017,0.598
6166030,3368.0,3839.0,6622.0,0.745,0.295,-0.018,0.598
6166046,3156.0,3363.0,6804.0,0.745,0.294,-0.018,0.598
6166062,3004.0,3043.0,6918.0,0.746,0.294,-0.018,0.597
6166078,2934.0,2865.0,6958.0,0.746,0.293,-0.018,0.597
6166094,2874.0,2987.0,6952.0,0.746,0.294,-0.018,0.597
6166120,2850.0,3135.0,6980.0,0.746,0.294,-0.017,0.597
6166136,2868.0,3213.0,6930.0,0.746,0.294,-0.017,0.597
6166152,2920.0,3323.0,6848.0,0.746,0.294,-0.017,0.598
6166168,3040.0,3505.0,6696.0,0.745,0.295,-0.017,0.598
6166184,3230.0,3653.0,6714.0,0.745,0.295,-0.016,0.598
6166200,3314.0,3925.0,6666.0,0.745,0.296,-0.016,0.598
6166226,3462.0,4163.0,6600.0,0.745,0.297,-0.016,0.598
6166242,3416.0,4039.0,6588.0,0.745,0.296,-0.016,0.598
6166258,3370.0,3649.0,6724.0,0.745,0.295,-0.017,0.597
6166274,3162.0,3229.0,6842.0,0.746,0.294,-0.017,0.597
6166290,3066.0,2937.0,6884.0,0.746,0.294,-0.018,0.597
6166316,2972.0,2911.0,6908.0,0.746,0.293,-0.018,0.597
6166332,2936.0,3035.0,6970.0,0.746,0.293,-0.018,0.597
6166348,2940.0,3167.0,6960.0,0.746,0.294,-0.018,0.597
6166364,2984.0,3249.0,6844.0,0.746,0.294,-0.017,0.598
6166380,3042.0,3375.0,6760.0,0.745,0.294,-0.017,0.598
6166396,3124.0,3567.0,6666.0,0.745,0.295,-0.017,0.598
6166422,3242.0,3771.0,6750.0,0.745,0.295,-0.016,0.599
6166438,3310.0,3945.0,6718.0,0.744,0.296,-0.016,0.599
6166454,3370.0,4053.0,6642.0,0.744,0.296,-0.016,0.598
6166470,3306.0,3893.0,6670.0,0.745,0.295,-0.017,0.598
6166486,3196.0,3575.0,6766.0,0.745,0.294,-0.017,0.598
6166502,3064.0,3217.0,6860.0,0.746,0.293,-0.018,0.598
6166528,2946.0,2999.0,6848.0,0.746,0.293,-0.019,0.597
6166544,2932.0,2967.0,6938.0,0.746,0.293,-0.019,0.597
6166560,2960.0,3095.0,6978.0,0.747,0.293,-0.019,0.597
6166576,2966.0,3205.0,6884.0,0.746,0.293,-0.019,0.597
6166592,2980.0,3259.0,6848.0,0.746,0.293,-0.018,0.598
6166608,3070.0,3431.0,6710.0,0.746,0.294,-0.018,0.598
6166634,3190.0,3593.0,6708.0,0.746,0.294,-0.018,0.598
6166650,3318.0,3787.0,6728.0,0.745,0.295,-0.017,0.598
6166667,3494.0,3995.0,6634.0,0.745,0.295,-0.017,0.597
6166683,3382.0,3967.0,6620.0,0.746,0.295,-0.017,0.597
6166699,3346.0,3691.0,6754.0,0.746,0.295,-0.017,0.597
6166715,3136.0,3283.0,6814.0,0.747,0.294,-0.018,0.596
6166731,3004.0,3075.0,6868.0,0.747,0.293,-0.018,0.596
6166757,2962.0,2979.0,6856.0,0.747,0.293,-0.018,0.596
6166773,2922.0,3013.0,6964.0,0.747,0.293,-0.018,0.596
6166789,2898.0,3101.0,6942.0,0.747,0.293,-0.018,0.596
6166805,2894.0,3153.0,6850.0,0.747,0.293,-0.018,0.596
6166821,3032.0,3383.0,6792.0,0.747,0.294,-0.017,0.596
6166847,3086.0,3525.0,6764.0,0.747,0.294,-0.017,0.597
6166863,3272.0,3659.0,6742.0,0.746,0.294,-0.017,0.597
6166879,3384.0,3901.0,6676.0,0.746,0.295,-0.017,0.597
6166895,3448.0,4107.0,6646.0,0.746,0.295,-0.018,0.597
6166911,3424.0,3977.0,6634.0,0.746,0.295,-0.018,0.597
6166927,3316.0,3653.0,6678.0,0.747,0.294,-0.019,0.596
6166953,3136.0,3305.0,6768.0,0.747,0.293,-0.02,0.596
6166969,3002.0,3065.0,6942.0,0.748,0.292,-0.021,0.596
6166986,2984.0,2959.0,6980.0,0.748,0.291,-0.021,0.596
6167002,2922.0,3019.0,6982.0,0.748,0.291,-0.021,0.596
6167018,2918.0,3065.0,6966.0,0.748,0.291,-0.021,0.596
6167035,2960.0,3195.0,6902.0,0.748,0.291,-0.022,0.597
6167051,3034.0,3331.0,6798.0,0.747,0.291,-0.021,0.597
6167077,3142.0,3497.0,6744.0,0.747,0.292,-0.021,0.597
6167093,3326.0,3741.0,6702.0,0.747,0.292,-0.021,0.597
6167109,3430.0,3951.0,6648.0,0.746,0.293,-0.021,0.597
6167125,3488.0,4083.0,6654.0,0.747,0.293,-0.022,0.597
6167141,3358.0,3807.0,6716.0,0.747,0.292,-0.022,0.596
6167157,3250.0,3403.0,6822.0,0.748,0.291,-0.023,0.596
6167183,3024.0,3067.0,6880.0,0.749,0.29,-0.024,0.596
6167199,2902.0,2933.0,6932.0,0.749,0.289,-0.025,0.596
6167215,2914.0,2837.0,6996.0,0.749,0.289,-0.025,0.596
6167232,2950.0,2937.0,6970.0,0.749,0.289,-0.025,0.596
6167248,3026.0,2937.0,6932.0,0.749,0.289,-0.025,0.596
6167264,3094.0,3121.0,6886.0,0.749,0.289,-0.025,0.596
6167280,3178.0,3287.0,6794.0,0.748,0.29,-0.025,0.596
6167306,3298.0,3581.0,6768.0,0.748,0.29,-0.025,0.596
6167322,3494.0,3931.0,6698.0,0.748,0.291,-0.025,0.596
6167338,3508.0,4003.0,6660.0,0.748,0.291,-0.025,0.596
6167354,3390.0,3777.0,6666.0,0.748,0.291,-0.026,0.596
6167370,3278.0,3345.0,6754.0,0.749,0.29,-0.026,0.595
6167386,3232.0,3047.0,6872.0,0.75,0.289,-0.027,0.595
6167412,3056.0,2811.0,7026.0,0.75,0.288,-0.028,0.595
6167428,3044.0,2743.0,7030.0,0.75,0.288,-0.028,0.595
6167444,2934.0,2799.0,6994.0,0.75,0.288,-0.028,0.595
6167460,3018.0,2813.0,6944.0,0.75,0.288,-0.028,0.595
6167476,2998.0,2973.0,6920.0,0.75,0.288,-0.027,0.595
6167502,3084.0,3239.0,6830.0,0.749,0.289,-0.027,0.595
6167518,3236.0,3463.0,6774.0,0.749,0.29,-0.027,0.595
6167534,3444.0,3801.0,6708.0,0.749,0.291,-0.026,0.595
6167550,3568.0,4075.0,6666.0,0.748,0.292,-0.026,0.595
6167566,3542.0,4021.0,6646.0,0.749,0.292,-0.026,0.595
6167582,3366.0,3605.0,6688.0,0.749,0.291,-0.027,0.594
6167608,3202.0,3187.0,6828.0,0.75,0.289,-0.027,0.594
6167624,2998.0,2907.0,6938.0,0.75,0.288,-0.028,0.594
6167640,2942.0,2763.0,6992.0,0.75,0.288,-0.028,0.594
6167656,2954.0,2749.0,7034.0,0.75,0.287,-0.028,0.594
6167672,2972.0,2805.0,7062.0,0.75,0.287,-0.028,0.595
6167688,3016.0,2835.0,7016.0,0.75,0.288,-0.028,0.595
6167706,3198.0,3065.0,6916.0,0.749,0.288,-0.028,0.595
6167732,3308.0,3287.0,6750.0,0.749,0.289,-0.028,0.596
6167748,3398.0,3617.0,6646.0,0.748,0.29,-0.027,0.596
6167764,3494.0,4017.0,6598.0,0.748,0.291,-0.027,0.596
6167780,3408.0,4149.0,6614.0,0.748,0.291,-0.026,0.596
6167796,3350.0,3885.0,6684.0,0.748,0.291,-0.027,0.596
6167812,3234.0,3387.0,6778.0,0.749,0.29,-0.028,0.596
6167838,3174.0,3045.0,6896.0,0.749,0.289,-0.028,0.595
6167854,3048.0,2861.0,6978.0,0.749,0.288,-0.028,0.596
6167870,3028.0,2725.0,7040.0,0.75,0.287,-0.029,0.596
6167886,3032.0,2679.0,7006.0,0.749,0.287,-0.028,0.596
6167902,3082.0,2715.0,6990.0,0.749,0.287,-0.028,0.596
6167918,3036.0,2925.0,6910.0,0.749,0.288,-0.027,0.597
6167944,3102.0,3151.0,6800.0,0.748,0.289,-0.027,0.597
6167960,3274.0,3549.0,6772.0,0.747,0.29,-0.026,0.597
6167976,3316.0,3911.0,6718.0,0.747,0.291,-0.025,0.597
6167992,3414.0,4207.0,6608.0,0.747,0.292,-0.024,0.597
6168008,3452.0,4281.0,6590.0,0.747,0.292,-0.024,0.597
6168024,3354.0,3851.0,6706.0,0.747,0.291,-0.025,0.597
6168050,3146.0,3349.0,6828.0,0.748,0.289,-0.026,0.597
6168066,3052.0,2939.0,6896.0,0.749,0.288,-0.026,0.597
6168082,2966.0,2811.0,6960.0,0.749,0.287,-0.027,0.597
6168098,2942.0,2749.0,6996.0,0.749,0.287,-0.027,0.597
6168114,2974.0,2757.0,7068.0,0.749,0.287,-0.027,0.597
6168130,2926.0,2891.0,6968.0,0.749,0.287,-0.027,0.597
6168156,3028.0,3101.0,6874.0,0.748,0.288,-0.026,0.597
6168172,3088.0,3357.0,6780.0,0.748,0.288,-0.026,0.597
6168188,3268.0,3745.0,6748.0,0.747,0.289,-0.025,0.597
6168204,3406.0,4123.0,6654.0,0.747,0.29,-0.025,0.597
6168220,3492.0,4271.0,6630.0,0.747,0.29,-0.025,0.597
6168236,3500.0,3937.0,6642.0,0.748,0.29,-0.026,0.597
6168262,3346.0,3375.0,6806.0,0.749,0.288,-0.027,0.596
6168278,3174.0,2907.0,6888.0,0.749,0.287,-0.028,0.596
6168294,3082.0,2675.0,6978.0,0.75,0.286,-0.029,0.596
6168310,3022.0,2535.0,7038.0,0.75,0.285,-0.029,0.596
6168326,3028.0,2561.0,7100.0,0.75,0.285,-0.029,0.596
6168342,3030.0,2661.0,7026.0,0.75,0.285,-0.029,0.596
6168368,3042.0,2811.0,6918.0,0.75,0.286,-0.028,0.596
6168384,3080.0,3049.0,6826.0,0.749,0.287,-0.028,0.597
6168400,3238.0,3319.0,6794.0,0.749,0.288,-0.027,0.597
6168416,3350.0,3651.0,6800.0,0.748,0.289,-0.026,0.597
6168433,3450.0,3973.0,6688.0,0.748,0.29,-0.026,0.597
6168449,3506.0,4077.0,6626.0,0.748,0.29,-0.026,0.597
6168475,3360.0,3699.0,6740.0,0.748,0.289,-0.026,0.597
6168491,3242.0,3213.0,6834.0,0.749,0.288,-0.027,0.597
6168507,3130.0,2893.0,6880.0,0.749,0.287,-0.027,0.597
6168523,3030.0,2669.0,6946.0,0.749,0.287,-0.027,0.597
6168539,2978.0,2657.0,7038.0,0.749,0.286,-0.027,0.597
6168555,2976.0,2741.0,7062.0,0.749,0.286,-0.027,0.597
6168581,3026.0,2791.0,6980.0,0.748,0.287,-0.027,0.598
6168597,3052.0,2971.0,6914.0,0.748,0.287,-0.027,0.598
6168613,3118.0,3215.0,6836.0,0.747,0.288,-0.026,0.598
6168629,3194.0,3459.0,6766.0,0.747,0.289,-0.025,0.599
6168649,3302.0,3681.0,6772.0,0.746,0.29,-0.025,0.599
6168665,3414.0,3941.0,6678.0,0.746,0.29,-0.024,0.599
6168681,3394.0,4105.0,6666.0,0.746,0.291,-0.024,0.599
6168697,3384.0,3861.0,6744.0,0.746,0.29,-0.024,0.599
6168723,3200.0,3397.0,6798.0,0.747,0.289,-0.025,0.599
6168739,3138.0,2991.0,6882.0,0.747,0.288,-0.025,0.599
6168755,3008.0,2789.0,6952.0,0.747,0.288,-0.026,0.599
6168771,3014.0,2783.0,6972.0,0.747,0.287,-0.026,0.599
6168787,3026.0,2849.0,7010.0,0.747,0.288,-0.026,0.599
6168803,3048.0,3031.0,6956.0,0.747,0.288,-0.025,0.599
6168829,2992.0,3085.0,6886.0,0.746,0.288,-0.025,0.599
6168845,3098.0,3311.0,6824.0,0.746,0.289,-0.024,0.6
6168861,3214.0,3505.0,6774.0,0.745,0.289,-0.024,0.6
6168877,3222.0,3619.0,6744.0,0.745,0.289,-0.024,0.601
6168893,3272.0,3867.0,6734.0,0.745,0.29,-0.024,0.601
6168909,3378.0,3945.0,6696.0,0.745,0.29,-0.024,0.601
6168935,3334.0,3813.0,6678.0,0.745,0.29,-0.024,0.6
6168951,3238.0,3463.0,6804.0,0.745,0.289,-0.025,0.6
6168967,3154.0,3067.0,6890.0,0.746,0.288,-0.025,0.6
6168983,3044.0,2793.0,6964.0,0.746,0.287,-0.026,0.6
6168999,3006.0,2751.0,7008.0,0.746,0.287,-0.026,0.6
6169015,3004.0,2953.0,6968.0,0.746,0.287,-0.026,0.6
6169041,2986.0,3081.0,6930.0,0.746,0.287,-0.025,0.6
6169057,3046.0,3255.0,6844.0,0.746,0.288,-0.025,0.6
6169073,3126.0,3467.0,6748.0,0.746,0.288,-0.025,0.601
6169089,3204.0,3539.0,6768.0,0.745,0.288,-0.025,0.601
6169105,3296.0,3705.0,6814.0,0.745,0.288,-0.026,0.601
6169121,3350.0,3691.0,6834.0,0.746,0.288,-0.026,0.601
6169147,3298.0,3565.0,6896.0,0.746,0.287,-0.027,0.6
6169163,3272.0,3069.0,6856.0,0.747,0.286,-0.028,0.6
6169179,3222.0,2765.0,6930.0,0.747,0.285,-0.029,0.6
6169195,3074.0,2673.0,6886.0,0.747,0.285,-0.029,0.6
6169211,3058.0,2705.0,6912.0,0.747,0.285,-0.029,0.6
6169227,3042.0,2945.0,6926.0,0.747,0.285,-0.028,0.6
6169253,3036.0,3151.0,6928.0,0.747,0.286,-0.028,0.6
6169269,3040.0,3235.0,6902.0,0.746,0.286,-0.028,0.601
6169285,3188.0,3241.0,6832.0,0.746,0.286,-0.027,0.601
6169301,3392.0,3341.0,6818.0,0.745,0.286,-0.027,0.601
6169317,3442.0,3455.0,6786.0,0.745,0.286,-0.027,0.602
6169333,3486.0,3625.0,6768.0,0.745,0.287,-0.027,0.602
6169359,3418.0,3589.0,6764.0,0.745,0.287,-0.027,0.602
6169375,3338.0,3381.0,6820.0,0.745,0.286,-0.027,0.602
6169391,3228.0,3119.0,6896.0,0.745,0.286,-0.027,0.602
6169407,3100.0,2921.0,6920.0,0.746,0.285,-0.028,0.601
6169423,3036.0,2913.0,6966.0,0.746,0.285,-0.028,0.601
6169449,2992.0,2917.0,7000.0,0.746,0.285,-0.028,0.601
6169465,2966.0,2941.0,7022.0,0.746,0.285,-0.027,0.602
6169481,2948.0,3005.0,7000.0,0.746,0.285,-0.027,0.602
6169497,2970.0,3087.0,6908.0,0.745,0.285,-0.027,0.602
6169513,3064.0,3233.0,6858.0,0.745,0.286,-0.027,0.602
6169529,3216.0,3445.0,6804.0,0.745,0.286,-0.027,0.602
6169555,3336.0,3657.0,6760.0,0.744,0.287,-0.027,0.603
6169571,3358.0,3763.0,6712.0,0.744,0.287,-0.027,0.602
6169587,3412.0,3829.0,6730.0,0.744,0.287,-0.027,0.602
6169603,3322.0,3535.0,6828.0,0.745,0.287,-0.027,0.602
6169619,3244.0,3103.0,6864.0,0.745,0.286,-0.028,0.602
6169635,3170.0,2891.0,6958.0,0.745,0.286,-0.028,0.602
6169661,3080.0,2867.0,6912.0,0.745,0.286,-0.028,0.602
6169677,3100.0,2937.0,6980.0,0.745,0.286,-0.028,0.602
6169693,3058.0,3081.0,6964.0,0.745,0.286,-0.027,0.602
6169709,2988.0,3111.0,6862.0,0.745,0.286,-0.027,0.602
6169725,3002.0,3191.0,6846.0,0.745,0.286,-0.027,0.602
6169741,3072.0,3311.0,6856.0,0.744,0.286,-0.027,0.603
6169767,3206.0,3447.0,6842.0,0.744,0.287,-0.027,0.603
6169783,3302.0,3553.0,6776.0,0.744,0.287,-0.027,0.603
6169799,3352.0,3655.0,6748.0,0.744,0.287,-0.027,0.603
6169815,3392.0,3581.0,6790.0,0.744,0.287,-0.028,0.602
6169831,3330.0,3329.0,6806.0,0.745,0.287,-0.028,0.602
6169847,3266.0,3077.0,6886.0,0.745,0.286,-0.029,0.602
6169873,3156.0,2913.0,6904.0,0.745,0.286,-0.029,0.602
6169889,3082.0,2921.0,6918.0,0.745,0.286,-0.029,0.601
6169905,3062.0,3035.0,6942.0,0.745,0.286,-0.028,0.601
6169921,3090.0,3139.0,6872.0,0.745,0.286,-0.028,0.601
6169937,3096.0,3173.0,6916.0,0.745,0.287,-0.028,0.601
6169953,3156.0,3259.0,6908.0,0.745,0.287,-0.028,0.601
6169979,3250.0,3253.0,6884.0,0.745,0.287,-0.028,0.601
6169995,3218.0,3313.0,6824.0,0.745,0.288,-0.027,0.601
6170011,3310.0,3411.0,6770.0,0.745,0.288,-0.027,0.601
6170027,3368.0,3585.0,6752.0,0.745,0.289,-0.027,0.6
6170043,3284.0,3555.0,6790.0,0.746,0.289,-0.027,0.6
6170059,3182.0,3309.0,6786.0,0.746,0.288,-0.027,0.6
6170085,3108.0,3093.0,6876.0,0.746,0.288,-0.027,0.599
6170101,3070.0,3029.0,6950.0,0.747,0.288,-0.027,0.599
6170117,3036.0,3011.0,6914.0,0.747,0.288,-0.027,0.599
6170133,3116.0,3049.0,6936.0,0.747,0.288,-0.027,0.599
6170149,3170.0,3073.0,6866.0,0.747,0.288,-0.027,0.599
6170165,3218.0,3073.0,6886.0,0.746,0.288,-0.027,0.599
6170191,3226.0,3207.0,6828.0,0.746,0.288,-0.027,0.599
6170207,3316.0,3353.0,6784.0,0.746,0.288,-0.027,0.599
6170223,3358.0,3471.0,6834.0,0.746,0.289,-0.027,0.6
6170239,3334.0,3615.0,6800.0,0.746,0.289,-0.027,0.6
6170255,3268.0,3587.0,6780.0,0.746,0.289,-0.028,0.6
6170271,3210.0,3395.0,6784.0,0.746,0.288,-0.028,0.6
6170298,3126.0,3211.0,6850.0,0.746,0.288,-0.029,0.6
6170314,3142.0,3043.0,6890.0,0.746,0.287,-0.029,0.6
6170330,3082.0,2945.0,6892.0,0.746,0.287,-0.029,0.6
6170346,3142.0,3077.0,6896.0,0.746,0.287,-0.029,0.6
6170362,3120.0,3111.0,6906.0,0.746,0.287,-0.03,0.6
6170378,3204.0,3065.0,6914.0,0.746,0.287,-0.03,0.6
6170404,3184.0,3153.0,6904.0,0.746,0.287,-0.03,0.6
6170420,3270.0,3245.0,6838.0,0.746,0.287,-0.03,0.601
6170436,3358.0,3377.0,6814.0,0.746,0.287,-0.029,0.601
6170452,3370.0,3417.0,6798.0,0.746,0.287,-0.029,0.601
6170468,3376.0,3431.0,6808.0,0.746,0.287,-0.029,0.601
6170484,3304.0,3335.0,6782.0,0.746,0.287,-0.03,0.601
6170510,3216.0,3161.0,6898.0,0.746,0.286,-0.03,0.601
6170526,3180.0,2943.0,6926.0,0.746,0.286,-0.03,0.6
6170542,3142.0,2861.0,6952.0,0.746,0.286,-0.03,0.601
6170558,3096.0,2857.0,6948.0,0.746,0.286,-0.03,0.601
6170574,3106.0,3017.0,6888.0,0.746,0.286,-0.03,0.601
6170590,3148.0,3157.0,6888.0,0.746,0.287,-0.03,0.601
6170616,3212.0,3257.0,6880.0,0.745,0.287,-0.029,0.601
6170632,3286.0,3331.0,6788.0,0.745,0.287,-0.029,0.601
6170648,3322.0,3389.0,6768.0,0.745,0.287,-0.029,0.601
6170664,3314.0,3395.0,6786.0,0.745,0.287,-0.029,0.601
6170680,3322.0,3437.0,6820.0,0.745,0.287,-0.029,0.602
6170696,3308.0,3377.0,6784.0,0.745,0.287,-0.029,0.602
6170722,3222.0,3293.0,6898.0,0.745,0.287,-0.029,0.602
6170738,3180.0,3147.0,6932.0,0.745,0.287,-0.029,0.602
6170754,3138.0,3011.0,6948.0,0.745,0.286,-0.029,0.602
6170770,3134.0,3017.0,6902.0,0.745,0.286,-0.029,0.602
6170786,3090.0,3035.0,6874.0,0.745,0.286,-0.029,0.602
6170812,3114.0,3105.0,6902.0,0.745,0.287,-0.029,0.602
6170828,3218.0,3275.0,6836.0,0.744,0.287,-0.029,0.603
6170844,3246.0,3341.0,6792.0,0.744,0.287,-0.029,0.603
6170860,3274.0,3379.0,6792.0,0.744,0.287,-0.029,0.603
6170876,3276.0,3413.0,6814.0,0.744,0.287,-0.029,0.603
6170892,3252.0,3395.0,6870.0,0.744,0.287,-0.029,0.603
6170918,3206.0,3431.0,6856.0,0.744,0.286,-0.029,0.603
6170934,3132.0,3365.0,6824.0,0.744,0.286,-0.029,0.603
6170950,3126.0,3251.0,6882.0,0.744,0.286,-0.03,0.603
6170966,3176.0,3089.0,6888.0,0.744,0.285,-0.03,0.603
6170982,3166.0,3033.0,6892.0,0.744,0.285,-0.03,0.603
6170998,3224.0,3031.0,6852.0,0.744,0.285,-0.03,0.603
6171024,3280.0,3017.0,6864.0,0.744,0.285,-0.03,0.603
6171040,3264.0,3163.0,6860.0,0.744,0.286,-0.03,0.603
6171056,3268.0,3219.0,6828.0,0.744,0.286,-0.03,0.603
6171072,3244.0,3319.0,6804.0,0.744,0.286,-0.029,0.603
6171088,3268.0,3297.0,6824.0,0.744,0.286,-0.029,0.603
6171104,3294.0,3247.0,6832.0,0.744,0.286,-0.029,0.603
6171130,3306.0,3051.0,6888.0,0.744,0.286,-0.029,0.603
6171146,3294.0,2933.0,6914.0,0.744,0.286,-0.028,0.603
6171162,3300.0,2925.0,6908.0,0.744,0.286,-0.028,0.603
6171178,3182.0,2903.0,6944.0,0.744,0.286,-0.028,0.603
6171194,3186.0,3055.0,6908.0,0.744,0.287,-0.028,0.603
6171210,3192.0,3141.0,6878.0,0.743,0.287,-0.027,0.604
6171236,3178.0,3271.0,6870.0,0.743,0.287,-0.027,0.604
6171252,3182.0,3285.0,6822.0,0.743,0.287,-0.027,0.604
6171268,3222.0,3257.0,6862.0,0.743,0.287,-0.027,0.604
6171284,3242.0,3187.0,6882.0,0.742,0.287,-0.026,0.605
6171300,3266.0,3207.0,6888.0,0.742,0.287,-0.026,0.605
6171316,3252.0,3169.0,6846.0,0.742,0.287,-0.026,0.605
6171342,3306.0,3217.0,6876.0,0.742,0.288,-0.026,0.606
6171358,3282.0,3233.0,6802.0,0.741,0.288,-0.026,0.606
6171374,3268.0,3197.0,6798.0,0.741,0.288,-0.026,0.606
6171390,3282.0,3183.0,6878.0,0.741,0.288,-0.025,0.607
6171406,3296.0,3161.0,6878.0,0.74,0.288,-0.025,0.607
6171422,3246.0,3157.0,6904.0,0.74,0.288,-0.025,0.608
6171448,3258.0,3191.0,6834.0,0.74,0.288,-0.025,0.608
6171464,3218.0,3135.0,6862.0,0.739,0.287,-0.025,0.609
6171480,3216.0,2935.0,6898.0,0.739,0.287,-0.025,0.61
6171496,3186.0,2999.0,6912.0,0.738,0.287,-0.025,0.61
6171512,3092.0,3131.0,6878.0,0.737,0.287,-0.024,0.611
6171528,3134.0,3337.0,6820.0,0.736,0.288,-0.024,0.612
6171555,3176.0,3509.0,6766.0,0.736,0.288,-0.024,0.612
6171571,3194.0,3479.0,6796.0,0.735,0.288,-0.024,0.613
6171587,3194.0,3339.0,6844.0,0.735,0.288,-0.024,0.614
6171603,3134.0,3181.0,6952.0,0.734,0.288,-0.024,0.614
6171619,3182.0,3177.0,6902.0,0.734,0.288,-0.023,0.615
6171635,3112.0,3373.0,6866.0,0.733,0.289,-0.023,0.615
6171661,3134.0,3637.0,6736.0,0.733,0.289,-0.022,0.615
6171677,3174.0,3807.0,6718.0,0.733,0.29,-0.022,0.615
6171693,3166.0,3737.0,6730.0,0.733,0.29,-0.021,0.615
6171709,3120.0,3449.0,6810.0,0.733,0.29,-0.021,0.615
6171725,3110.0,3345.0,6860.0,0.733,0.29,-0.021,0.615
6171741,3170.0,3409.0,6822.0,0.733,0.29,-0.021,0.615
6171767,3248.0,3445.0,6774.0,0.733,0.291,-0.02,0.614
6171784,3206.0,3593.0,6796.0,0.733,0.291,-0.02,0.614
6171800,3248.0,3387.0,6834.0,0.734,0.291,-0.02,0.614
6171816,3160.0,3211.0,6852.0,0.734,0.29,-0.02,0.614
6171832,3112.0,3063.0,6828.0,0.734,0.29,-0.02,0.613
6171848,3094.0,3077.0,6808.0,0.734,0.29,-0.019,0.613
6171874,3150.0,3187.0,6870.0,0.734,0.29,-0.019,0.613
6171890,3188.0,3263.0,6872.0,0.735,0.29,-0.019,0.613
6171906,3212.0,3189.0,6862.0,0.735,0.29,-0.02,0.613
6171922,3248.0,3073.0,6866.0,0.735,0.289,-0.02,0.613
6171938,3270.0,2981.0,6884.0,0.735,0.289,-0.02,0.613
6171954,3260.0,2957.0,6880.0,0.735,0.289,-0.02,0.614
6171980,3318.0,3117.0,6826.0,0.734,0.289,-0.02,0.614
6171996,3332.0,3281.0,6818.0,0.734,0.289,-0.02,0.614
6172013,3258.0,3351.0,6800.0,0.734,0.289,-0.02,0.615
6172029,3232.0,3339.0,6850.0,0.734,0.289,-0.02,0.615
6172045,3204.0,3325.0,6806.0,0.733,0.289,-0.02,0.615
6172061,3142.0,3305.0,6828.0,0.733,0.289,-0.02,0.615
6172077,3172.0,3367.0,6842.0,0.733,0.289,-0.02,0.616
6172103,3148.0,3405.0,6832.0,0.733,0.289,-0.02,0.616
6172119,3162.0,3429.0,6876.0,0.733,0.289,-0.02,0.616
6172135,3128.0,3381.0,6822.0,0.733,0.289,-0.02,0.616
6172151,3126.0,3295.0,6834.0,0.733,0.289,-0.02,0.616
6172167,3136.0,3289.0,6858.0,0.733,0.288,-0.02,0.616
6172183,3144.0,3273.0,6878.0,0.732,0.288,-0.021,0.616
6172209,3166.0,3275.0,6856.0,0.732,0.288,-0.021,0.617
6172225,3194.0,3295.0,6842.0,0.732,0.288,-0.021,0.617
6172241,3194.0,3233.0,6806.0,0.732,0.288,-0.021,0.617
6172257,3210.0,3223.0,6836.0,0.732,0.288,-0.021,0.617
6172273,3188.0,3239.0,6846.0,0.732,0.288,-0.021,0.617
6172289,3220.0,3201.0,6908.0,0.732,0.288,-0.021,0.617
6172315,3176.0,3219.0,6858.0,0.732,0.287,-0.021,0.617
6172331,3158.0,3217.0,6846.0,0.732,0.287,-0.021,0.617
6172347,3204.0,3215.0,6834.0,0.732,0.287,-0.021,0.618
6172363,3200.0,3231.0,6870.0,0.732,0.287,-0.021,0.618
6172379,3212.0,3317.0,6840.0,0.732,0.287,-0.021,0.618
6172405,3186.0,3313.0,6862.0,0.732,0.287,-0.022,0.618
6172421,3194.0,3187.0,6834.0,0.732,0.287,-0.022,0.618
6172437,3252.0,3219.0,6898.0,0.732,0.287,-0.022,0.618
6172453,3246.0,3151.0,6868.0,0.732,0.287,-0.022,0.618
6172469,3224.0,3177.0,6838.0,0.732,0.287,-0.022,0.618
6172485,3178.0,3187.0,6888.0,0.732,0.287,-0.022,0.618
6172511,3252.0,3165.0,6860.0,0.732,0.287,-0.022,0.618
6172527,3206.0,3223.0,6848.0,0.732,0.287,-0.022,0.618
6172543,3198.0,3199.0,6802.0,0.732,0.287,-0.023,0.618
6172559,3206.0,3287.0,6846.0,0.732,0.287,-0.023,0.618
6172575,3238.0,3237.0,6860.0,0.732,0.287,-0.023,0.618
6172591,3216.0,3253.0,6880.0,0.732,0.286,-0.023,0.618
6172617,3158.0,3205.0,6868.0,0.732,0.286,-0.023,0.618
6172633,3210.0,3219.0,6852.0,0.732,0.286,-0.023,0.618
6172649,3272.0,3229.0,6826.0,0.732,0.286,-0.023,0.618
6172665,3212.0,3193.0,6884.0,0.732,0.286,-0.023,0.618
6172681,3198.0,3157.0,6836.0,0.732,0.286,-0.024,0.618
6172697,3228.0,3163.0,6898.0,0.732,0.286,-0.024,0.619
6172723,3214.0,3171.0,6856.0,0.732,0.286,-0.024,0.619
6172739,3190.0,3119.0,6880.0,0.732,0.285,-0.024,0.619
6172755,3218.0,3175.0,6810.0,0.732,0.285,-0.024,0.619
6172771,3248.0,3189.0,6866.0,0.732,0.285,-0.024,0.619
6172787,3220.0,3209.0,6894.0,0.732,0.285,-0.024,0.619
6172803,3216.0,3191.0,6872.0,0.732,0.285,-0.024,0.619
6172829,3146.0,3185.0,6872.0,0.732,0.285,-0.024,0.619
6172845,3152.0,3161.0,6890.0,0.732,0.285,-0.024,0.619
6172861,3198.0,3125.0,6948.0,0.732,0.285,-0.025,0.619
6172877,3250.0,3175.0,6898.0,0.732,0.285,-0.025,0.619
6172893,3258.0,3155.0,6862.0,0.732,0.285,-0.025,0.619
6172909,3264.0,3175.0,6890.0,0.732,0.285,-0.025,0.619
6172935,3252.0,3213.0,6918.0,0.732,0.285,-0.025,0.618
6172951,3254.0,3187.0,6894.0,0.732,0.285,-0.025,0.618
6172967,3290.0,3129.0,6912.0,0.732,0.285,-0.025,0.618
6172983,3270.0,3147.0,6924.0,0.732,0.285,-0.025,0.618
6172999,3202.0,3123.0,6898.0,0.732,0.285,-0.025,0.618
6173016,3240.0,3191.0,6884.0,0.732,0.285,-0.025,0.619
6173042,3224.0,3105.0,6876.0,0.732,0.285,-0.025,0.619
6173058,3218.0,3211.0,6914.0,0.732,0.285,-0.025,0.619
6173074,3190.0,3189.0,6862.0,0.732,0.285,-0.025,0.619
6173090,3232.0,3199.0,6896.0,0.732,0.285,-0.026,0.619
6173106,3246.0,3193.0,6866.0,0.732,0.285,-0.026,0.619
6173122,3212.0,3161.0,6820.0,0.732,0.285,-0.026,0.619
6173148,3218.0,3175.0,6910.0,0.732,0.285,-0.026,0.619
6173164,3220.0,3175.0,6848.0,0.732,0.285,-0.026,0.619
6173180,3204.0,3145.0,6826.0,0.732,0.285,-0.026,0.619
6173196,3176.0,3173.0,6890.0,0.732,0.284,-0.026,0.619
6173212,3244.0,3197.0,6878.0,0.732,0.284,-0.026,0.619
6173228,3204.0,3137.0,6914.0,0.732,0.284,-0.027,0.619
6173254,3196.0,3153.0,6908.0,0.732,0.284,-0.027,0.619
6173270,3206.0,3111.0,6912.0,0.732,0.284,-0.027,0.619
6173286,3226.0,3145.0,6898.0,0.732,0.284,-0.027,0.618
6173303,3206.0,3197.0,6862.0,0.732,0.284,-0.027,0.618
6173319,3238.0,3067.0,6862.0,0.732,0.284,-0.028,0.618
6173336,3296.0,3071.0,6864.0,0.732,0.284,-0.028,0.618
6173352,3246.0,3103.0,6918.0,0.732,0.284,-0.028,0.618
6173378,3260.0,3041.0,6876.0,0.732,0.284,-0.028,0.618
6173395,3332.0,3059.0,6874.0,0.732,0.284,-0.028,0.618
6173411,3286.0,3151.0,6908.0,0.732,0.284,-0.028,0.618
6173427,3240.0,3143.0,6950.0,0.733,0.284,-0.028,0.618
6173443,3236.0,3121.0,6938.0,0.732,0.284,-0.028,0.618
6173459,3266.0,3125.0,6898.0,0.733,0.284,-0.028,0.618
6173475,3282.0,3101.0,6884.0,0.733,0.284,-0.029,0.618
6173501,3196.0,3087.0,6898.0,0.733,0.284,-0.029,0.618
6173517,3220.0,3097.0,6886.0,0.733,0.284,-0.029,0.618
6173533,3236.0,3063.0,6868.0,0.733,0.284,-0.029,0.618
6173549,3288.0,3157.0,6866.0,0.733,0.284,-0.029,0.618
6173565,3298.0,3097.0,6906.0,0.733,0.284,-0.029,0.618
6173581,3264.0,3123.0,6864.0,0.733,0.283,-0.029,0.618
6173607,3264.0,3127.0,6868.0,0.733,0.283,-0.029,0.618
6173623,3246.0,3017.0,6892.0,0.733,0.283,-0.03,0.618
6173639,3228.0,3053.0,6910.0,0.733,0.283,-0.03,0.618
6173655,3268.0,3123.0,6868.0,0.733,0.283,-0.03,0.618
6173671,3242.0,3107.0,6860.0,0.733,0.283,-0.03,0.618
6173697,3290.0,3123.0,6876.0,0.733,0.283,-0.03,0.618
6173713,3216.0,3115.0,6894.0,0.733,0.283,-0.03,0.618
6173729,3258.0,3125.0,6920.0,0.733,0.283,-0.03,0.618
6173745,3190.0,3071.0,6852.0,0.733,0.283,-0.03,0.618
6173761,3202.0,3075.0,6896.0,0.733,0.283,-0.03,0.618
6173777,3298.0,3083.0,6920.0,0.733,0.283,-0.03,0.618
6173803,3226.0,3121.0,6930.0,0.733,0.283,-0.03,0.618
6173819,3282.0,3119.0,6918.0,0.733,0.283,-0.03,0.618
6173835,3302.0,3059.0,6888.0,0.733,0.283,-0.03,0.618
6173851,3306.0,3057.0,6932.0,0.733,0.283,-0.03,0.618
6173867,3290.0,3041.0,6916.0,0.733,0.283,-0.03,0.618
6173883,3324.0,3023.0,6898.0,0.733,0.283,-0.03,0.618
6173909,3302.0,3033.0,6878.0,0.733,0.283,-0.03,0.617
6173925,3320.0,2997.0,6918.0,0.733,0.283,-0.03,0.617
6173941,3328.0,3043.0,6856.0,0.733,0.283,-0.03,0.617
6173957,3306.0,3083.0,6872.0,0.733,0.283,-0.029,0.617
6173973,3282.0,3063.0,6912.0,0.733,0.283,-0.029,0.617
6173989,3272.0,3093.0,6922.0,0.733,0.284,-0.029,0.617
6174015,3240.0,3115.0,6894.0,0.733,0.284,-0.029,0.617
6174031,3204.0,3135.0,6876.0,0.733,0.284,-0.028,0.618
6174047,3200.0,3179.0,6906.0,0.733,0.284,-0.028,0.618
6174063,3176.0,3111.0,6902.0,0.733,0.284,-0.028,0.618
6174079,3208.0,3173.0,6884.0,0.733,0.284,-0.027,0.618
6174095,3262.0,3183.0,6890.0,0.733,0.284,-0.027,0.617
6174121,3208.0,3131.0,6854.0,0.733,0.284,-0.027,0.617
6174137,3228.0,3185.0,6894.0,0.733,0.284,-0.027,0.617
6174153,3246.0,3143.0,6898.0,0.733,0.284,-0.027,0.617
6174169,3260.0,3093.0,6884.0,0.733,0.284,-0.027,0.617
6174185,3250.0,3111.0,6908.0,0.733,0.284,-0.026,0.617
6174201,3222.0,3103.0,6880.0,0.733,0.285,-0.026,0.617
6174227,3274.0,3099.0,6910.0,0.733,0.285,-0.026,0.617
6174244,3224.0,3133.0,6894.0,0.733,0.285,-0.026,0.617
6174260,3252.0,3119.0,6890.0,0.733,0.285,-0.025,0.617
6174276,3258.0,3145.0,6884.0,0.733,0.285,-0.025,0.618
6174292,3228.0,3097.0,6918.0,0.733,0.285,-0.025,0.618
6174308,3238.0,3087.0,6904.0,0.733,0.285,-0.025,0.618
6174334,3206.0,3169.0,6838.0,0.732,0.285,-0.024,0.618
6174350,3168.0,3169.0,6868.0,0.732,0.285,-0.024,0.618
6174366,3190.0,3259.0,6906.0,0.732,0.286,-0.024,0.618
6174382,3204.0,3223.0,6864.0,0.732,0.286,-0.024,0.618
6174398,3194.0,3193.0,6880.0,0.732,0.286,-0.024,0.618
6174414,3248.0,3259.0,6852.0,0.732,0.286,-0.023,0.618
6174440,3294.0,3257.0,6840.0,0.732,0.286,-0.023,0.618
6174456,3254.0,3141.0,6846.0,0.732,0.286,-0.023,0.618
6174472,3222.0,3239.0,6858.0,0.732,0.286,-0.023,0.618
6174488,3172.0,3245.0,6884.0,0.732,0.286,-0.023,0.618
6174504,3182.0,3249.0,6892.0,0.732,0.286,-0.022,0.618
6174520,3192.0,3201.0,6848.0,0.732,0.286,-0.022,0.618
6174546,3180.0,3199.0,6872.0,0.732,0.287,-0.022,0.618
6174562,3166.0,3227.0,6914.0,0.732,0.287,-0.022,0.618
6174578,3144.0,3253.0,6850.0,0.732,0.287,-0.021,0.618
6174594,3190.0,3231.0,6836.0,0.732,0.287,-0.021,0.618
6174610,3146.0,3205.0,6800.0,0.732,0.287,-0.021,0.618
6174626,3200.0,3221.0,6892.0,0.732,0.287,-0.021,0.618
6174652,3164.0,3277.0,6876.0,0.732,0.287,-0.021,0.618
6174668,3220.0,3283.0,6874.0,0.732,0.287,-0.02,0.618
6174684,3198.0,3267.0,6844.0,0.732,0.288,-0.02,0.618
6174700,3166.0,3257.0,6846.0,0.732,0.288,-0.02,0.618
6174716,3196.0,3211.0,6852.0,0.732,0.288,-0.02,0.618
6174732,3170.0,3193.0,6792.0,0.732,0.288,-0.02,0.617
6174758,3136.0,3285.0,6810.0,0.732,0.288,-0.02,0.617
6174774,3184.0,3361.0,6844.0,0.732,0.288,-0.019,0.617
6174790,3188.0,3265.0,6802.0,0.732,0.288,-0.019,0.617
6174806,3228.0,3247.0,6890.0,0.732,0.288,-0.019,0.617
6174822,3192.0,3299.0,6906.0,0.732,0.288,-0.019,0.617
6174838,3204.0,3267.0,6878.0,0.732,0.288,-0.019,0.617
6174865,3190.0,3245.0,6860.0,0.732,0.288,-0.019,0.617
6174882,3142.0,3305.0,6866.0,0.732,0.288,-0.019,0.617
6174898,3168.0,3327.0,6860.0,0.732,0.288,-0.019,0.617
6174914,3164.0,3303.0,6892.0,0.732,0.288,-0.019,0.617
6174931,3166.0,3257.0,6888.0,0.732,0.288,-0.019,0.617
6174947,3208.0,3207.0,6858.0,0.732,0.288,-0.019,0.617
6174963,3184.0,3295.0,6808.0,0.732,0.288,-0.019,0.617
6174989,3204.0,3365.0,6876.0,0.732,0.288,-0.019,0.617
6175005,3228.0,3287.0,6860.0,0.732,0.288,-0.018,0.617
6175021,3228.0,3231.0,6840.0,0.732,0.288,-0.018,0.617
6175037,3160.0,3287.0,6854.0,0.732,0.288,-0.018,0.617
6175054,3164.0,3315.0,6886.0,0.732,0.288,-0.018,0.617
6175070,3242.0,3225.0,6882.0,0.732,0.288,-0.018,0.617
6175086,3178.0,3249.0,6834.0,0.732,0.288,-0.018,0.617
6175112,3164.0,3269.0,6868.0,0.732,0.288,-0.018,0.617
6175128,3170.0,3315.0,6882.0,0.732,0.288,-0.019,0.617
6175144,3214.0,3283.0,6896.0,0.732,0.288,-0.019,0.617
6175160,3188.0,3245.0,6868.0,0.732,0.288,-0.019,0.617
6175177,3154.0,3309.0,6830.0,0.732,0.288,-0.018,0.617
6175193,3118.0,3375.0,6866.0,0.732,0.288,-0.018,0.617
6175219,3172.0,3275.0,6846.0,0.732,0.288,-0.019,0.617
6175235,3206.0,3269.0,6818.0,0.732,0.288,-0.019,0.617
6175251,3194.0,3239.0,6860.0,0.732,0.288,-0.019,0.617
6175267,3232.0,3341.0,6880.0,0.732,0.288,-0.019,0.617
6175283,3192.0,3315.0,6848.0,0.732,0.288,-0.019,0.617
6175299,3188.0,3293.0,6862.0,0.732,0.288,-0.019,0.617
6175325,3168.0,3279.0,6854.0,0.732,0.288,-0.019,0.617
6175341,3182.0,3293.0,6874.0,0.732,0.288,-0.019,0.617
6175357,3140.0,3263.0,6834.0,0.732,0.288,-0.019,0.617
6175374,3164.0,3285.0,6822.0,0.732,0.288,-0.019,0.617
6175390,3188.0,3259.0,6844.0,0.732,0.288,-0.019,0.617
6175406,3150.0,3269.0,6872.0,0.732,0.288,-0.019,0.617
6175422,3196.0,3295.0,6908.0,0.732,0.288,-0.019,0.617
6175448,3152.0,3309.0,6858.0,0.732,0.288,-0.019,0.617
6175464,3148.0,3275.0,6878.0,0.732,0.288,-0.019,0.617
6175480,3200.0,3313.0,6862.0,0.732,0.288,-0.019,0.617
6175496,3178.0,3251.0,6862.0,0.732,0.288,-0.019,0.617
6175512,3202.0,3257.0,6856.0,0.732,0.288,-0.019,0.617
6175538,3190.0,3199.0,6850.0,0.732,0.288,-0.019,0.617
6175554,3152.0,3225.0,6846.0,0.732,0.288,-0.019,0.617
6175570,3202.0,3231.0,6896.0,0.732,0.288,-0.019,0.617
6175586,3154.0,3255.0,6830.0,0.732,0.288,-0.019,0.617
6175602,3184.0,3307.0,6852.0,0.732,0.288,-0.019,0.617
6175618,3196.0,3297.0,6884.0,0.732,0.288,-0.019,0.617
6175644,3168.0,3265.0,6900.0,0.732,0.288,-0.019,0.617
6175660,3182.0,3223.0,6910.0,0.732,0.288,-0.019,0.617
6175676,3174.0,3279.0,6832.0,0.732,0.288,-0.019,0.617
6175692,3194.0,3269.0,6892.0,0.732,0.288,-0.019,0.617
6175708,3166.0,3291.0,6872.0,0.732,0.288,-0.019,0.617
6175724,3162.0,3241.0,6876.0,0.732,0.288,-0.019,0.617
6175750,3176.0,3283.0,6860.0,0.732,0.288,-0.019,0.617
6175766,3116.0,3247.0,6852.0,0.732,0.288,-0.019,0.617
6175782,3146.0,3261.0,6928.0,0.732,0.288,-0.019,0.617
6175798,3164.0,3315.0,6864.0,0.732,0.288,-0.019,0.617
6175814,3200.0,3285.0,6882.0,0.732,0.288,-0.02,0.617
6175830,3170.0,3269.0,6870.0,0.732,0.288,-0.02,0.617
6175856,3130.0,3265.0,6872.0,0.733,0.288,-0.02,0.617
6175872,3168.0,3263.0,6846.0,0.733,0.288,-0.02,0.617
6175888,3174.0,3229.0,6880.0,0.733,0.287,-0.02,0.617
6175904,3160.0,3209.0,6848.0,0.733,0.287,-0.02,0.617
6175920,3182.0,3215.0,6870.0,0.733,0.287,-0.021,0.617
6175936,3236.0,3243.0,6842.0,0.733,0.287,-0.021,0.617
6175962,3238.0,3257.0,6860.0,0.733,0.287,-0.021,0.617
6175978,3262.0,3247.0,6854.0,0.733,0.287,-0.021,0.617
6175994,3152.0,3311.0,6874.0,0.733,0.287,-0.021,0.616
6176010,3152.0,3263.0,6860.0,0.733,0.287,-0.021,0.617
6176026,3160.0,3171.0,6872.0,0.733,0.287,-0.022,0.616
6176042,3210.0,3129.0,6948.0,0.733,0.287,-0.022,0.616
6176068,3184.0,3255.0,6876.0,0.733,0.287,-0.022,0.616
6176084,3184.0,3227.0,6888.0,0.733,0.287,-0.022,0.616
6176100,3190.0,3207.0,6870.0,0.733,0.286,-0.023,0.616
6176116,3182.0,3199.0,6876.0,0.733,0.286,-0.023,0.616
6176132,3196.0,3223.0,6888.0,0.733,0.286,-0.023,0.616
6176148,3242.0,3197.0,6854.0,0.733,0.286,-0.023,0.616
6176174,3274.0,3221.0,6866.0,0.733,0.286,-0.023,0.616
6176190,3264.0,3207.0,6918.0,0.733,0.286,-0.024,0.617
6176206,3206.0,3181.0,6900.0,0.733,0.286,-0.024,0.617
6176222,3198.0,3161.0,6902.0,0.733,0.285,-0.024,0.616
6176238,3146.0,3143.0,6848.0,0.734,0.285,-0.025,0.616
6176254,3196.0,3191.0,6886.0,0.734,0.285,-0.025,0.616
6176280,3190.0,3149.0,6894.0,0.734,0.285,-0.025,0.616
6176296,3188.0,3189.0,6856.0,0.734,0.285,-0.025,0.616
6176312,3178.0,3229.0,6928.0,0.734,0.285,-0.025,0.616
6176328,3234.0,3223.0,6904.0,0.734,0.285,-0.026,0.616
6176344,3188.0,3159.0,6880.0,0.734,0.284,-0.026,0.616
6176360,3230.0,3127.0,6902.0,0.734,0.284,-0.026,0.616
6176386,3250.0,3199.0,6912.0,0.734,0.284,-0.027,0.616
6176402,3228.0,3267.0,6894.0,0.734,0.284,-0.027,0.616
6176418,3222.0,3209.0,6874.0,0.735,0.283,-0.028,0.616
6176434,3202.0,3165.0,6968.0,0.735,0.283,-0.028,0.616
6176450,3234.0,2919.0,6932.0,0.735,0.283,-0.029,0.615
6176476,3214.0,2797.0,6996.0,0.735,0.282,-0.029,0.615
6176492,3196.0,2811.0,6916.0,0.735,0.282,-0.03,0.615
6176508,3192.0,2967.0,6878.0,0.735,0.283,-0.03,0.615
6176524,3202.0,3153.0,6868.0,0.735,0.283,-0.029,0.615
6176540,3246.0,3283.0,6854.0,0.735,0.283,-0.029,0.615
6176556,3248.0,3291.0,6846.0,0.735,0.283,-0.029,0.616
6176582,3368.0,3213.0,6880.0,0.735,0.283,-0.029,0.616
6176598,3448.0,3069.0,6924.0,0.735,0.283,-0.029,0.616
6176614,3292.0,3019.0,6876.0,0.735,0.283,-0.029,0.616
6176630,3372.0,3037.0,6952.0,0.734,0.283,-0.029,0.616
6176646,3260.0,3059.0,6878.0,0.734,0.283,-0.029,0.616
6176662,3160.0,3147.0,6874.0,0.734,0.283,-0.029,0.616
6176688,3088.0,3197.0,6918.0,0.734,0.284,-0.028,0.616
6176704,3150.0,3277.0,6992.0,0.734,0.284,-0.028,0.616
6176720,3096.0,3275.0,6932.0,0.734,0.284,-0.029,0.616
6176736,3054.0,3217.0,6872.0,0.734,0.284,-0.029,0.616
6176752,3176.0,3167.0,6906.0,0.734,0.283,-0.029,0.616
6176768,3222.0,3095.0,6890.0,0.735,0.283,-0.03,0.616
6176794,3288.0,2999.0,6882.0,0.735,0.283,-0.03,0.616
6176810,3326.0,3023.0,6882.0,0.735,0.283,-0.031,0.616
6176826,3312.0,3031.0,6868.0,0.735,0.283,-0.031,0.616
6176842,3384.0,3031.0,6900.0,0.735,0.283,-0.031,0.616
6176858,3354.0,3045.0,6854.0,0.735,0.282,-0.031,0.616
6176874,3304.0,3025.0,6904.0,0.735,0.282,-0.031,0.616
6176900,3286.0,2959.0,6922.0,0.735,0.282,-0.031,0.616
6176916,3284.0,2973.0,6924.0,0.735,0.282,-0.031,0.616
6176932,3244.0,3029.0,6892.0,0.735,0.282,-0.03,0.616
6176948,3232.0,3093.0,6922.0,0.734,0.282,-0.03,0.617
6176964,3150.0,3101.0,6902.0,0.734,0.283,-0.029,0.617
6176980,3226.0,3175.0,6900.0,0.734,0.283,-0.029,0.617
6177006,3162.0,3267.0,6880.0,0.734,0.283,-0.029,0.617
6177022,3242.0,3343.0,6848.0,0.734,0.283,-0.029,0.617
6177038,3208.0,3241.0,6864.0,0.734,0.283,-0.029,0.617
6177054,3214.0,3189.0,6902.0,0.734,0.283,-0.029,0.617
6177070,3188.0,3143.0,6872.0,0.734,0.283,-0.029,0.617
6177086,3200.0,3097.0,6934.0,0.734,0.283,-0.029,0.617
6177112,3228.0,3105.0,6912.0,0.734,0.283,-0.029,0.617
6177128,3184.0,3057.0,6924.0,0.734,0.283,-0.029,0.617
6177144,3200.0,3037.0,6868.0,0.734,0.282,-0.029,0.617
6177160,3266.0,3065.0,6936.0,0.734,0.282,-0.029,0.617
6177176,3288.0,3029.0,6918.0,0.734,0.282,-0.029,0.617
6177192,3264.0,3037.0,6930.0,0.734,0.282,-0.029,0.617
6177218,3224.0,3049.0,6892.0,0.734,0.282,-0.029,0.617
6177234,3198.0,3055.0,6908.0,0.734,0.282,-0.029,0.617
6177251,3220.0,3057.0,6888.0,0.734,0.282,-0.029,0.617
6177267,3240.0,3057.0,6926.0,0.734,0.282,-0.029,0.617
6177283,3214.0,3079.0,6960.0,0.734,0.282,-0.029,0.617
6177299,3272.0,3017.0,6890.0,0.734,0.282,-0.029,0.617
6177325,3262.0,3115.0,6888.0,0.734,0.282,-0.029,0.617
6177341,3232.0,3113.0,6894.0,0.734,0.282,-0.029,0.617
6177357,3234.0,3059.0,6870.0,0.734,0.283,-0.029,0.617
6177373,3180.0,3139.0,6902.0,0.734,0.283,-0.028,0.617
6177389,3186.0,3095.0,6924.0,0.734,0.283,-0.028,0.617
6177405,3180.0,3107.0,6904.0,0.734,0.283,-0.028,0.617
6177431,3186.0,3147.0,6846.0,0.734,0.283,-0.028,0.617
6177447,3212.0,3175.0,6900.0,0.734,0.283,-0.028,0.617
6177463,3262.0,3171.0,6868.0,0.734,0.283,-0.027,0.617
6177479,3220.0,3159.0,6906.0,0.734,0.284,-0.027,0.617
6177495,3208.0,3145.0,6874.0,0.734,0.284,-0.027,0.617
6177511,3222.0,3209.0,6854.0,0.734,0.284,-0.027,0.617
6177537,3200.0,3173.0,6884.0,0.734,0.284,-0.027,0.617
6177553,3196.0,3159.0,6896.0,0.734,0.284,-0.026,0.617
6177569,3210.0,3179.0,6874.0,0.734,0.284,-0.026,0.617
6177585,3214.0,3107.0,6878.0,0.734,0.284,-0.026,0.617
6177601,3198.0,3211.0,6834.0,0.734,0.284,-0.026,0.617
6177617,3178.0,3179.0,6836.0,0.734,0.284,-0.026,0.617
6177643,3228.0,3169.0,6860.0,0.734,0.284,-0.026,0.617
6177659,3214.0,3159.0,6880.0,0.734,0.284,-0.026,0.617
6177675,3196.0,3209.0,6914.0,0.734,0.285,-0.026,0.617
6177691,3218.0,3243.0,6898.0,0.734,0.285,-0.026,0.617
6177707,3202.0,3201.0,6920.0,0.734,0.284,-0.026,0.617
6177723,3224.0,3217.0,6876.0,0.734,0.284,-0.026,0.617
6177749,3248.0,3143.0,6906.0,0.734,0.284,-0.026,0.617
6177765,3250.0,3133.0,6934.0,0.734,0.284,-0.026,0.617
6177781,3190.0,3171.0,6896.0,0.734,0.284,-0.026,0.617
6177797,3196.0,3091.0,6846.0,0.734,0.284,-0.026,0.617
6177813,3226.0,3137.0,6938.0,0.734,0.284,-0.026,0.617
6177839,3206.0,3139.0,6920.0,0.734,0.284,-0.026,0.617
6177855,3204.0,3143.0,6874.0,0.734,0.284,-0.026,0.617
6177871,3260.0,3123.0,6948.0,0.734,0.284,-0.026,0.617
6177887,3244.0,3175.0,6900.0,0.734,0.284,-0.026,0.617
6177903,3140.0,3165.0,6894.0,0.734,0.284,-0.026,0.617
6177919,3238.0,3081.0,6868.0,0.734,0.284,-0.026,0.617
6177945,3228.0,3115.0,6860.0,0.734,0.284,-0.026,0.617
6177961,3190.0,3165.0,6880.0,0.734,0.284,-0.026,0.617
6177977,3232.0,3177.0,6876.0,0.734,0.284,-0.025,0.617
6177993,3228.0,3199.0,6830.0,0.734,0.284,-0.025,0.617
6178009,3178.0,3119.0,6848.0,0.734,0.285,-0.025,0.617
6178025,3228.0,3129.0,6896.0,0.734,0.285,-0.025,0.616
6178051,3188.0,3179.0,6872.0,0.734,0.285,-0.025,0.616
6178067,3142.0,3155.0,6852.0,0.734,0.285,-0.025,0.616
6178083,3178.0,3213.0,6856.0,0.734,0.285,-0.024,0.616
6178099,3138.0,3175.0,6868.0,0.734,0.285,-0.024,0.616
6178115,3242.0,3199.0,6918.0,0.734,0.285,-0.024,0.616
6178131,3236.0,3185.0,6844.0,0.734,0.285,-0.024,0.616
6178157,3244.0,3191.0,6900.0,0.734,0.285,-0.024,0.616
6178173,3304.0,3169.0,6898.0,0.734,0.285,-0.023,0.616
6178189,3146.0,3167.0,6850.0,0.733,0.286,-0.023,0.616
6178205,3228.0,3251.0,6836.0,0.733,0.286,-0.023,0.616
6178221,3204.0,3267.0,6836.0,0.733,0.286,-0.022,0.616
6178237,3176.0,3217.0,6866.0,0.733,0.286,-0.022,0.616
6178263,3202.0,3225.0,6846.0,0.733,0.286,-0.022,0.616
6178279,3170.0,3267.0,6816.0,0.733,0.286,-0.022,0.617
6178295,3172.0,3255.0,6920.0,0.733,0.286,-0.022,0.616
6178311,3170.0,3225.0,6842.0,0.733,0.286,-0.022,0.616
6178327,3162.0,3269.0,6880.0,0.733,0.286,-0.021,0.616
6178343,3170.0,3279.0,6878.0,0.733,0.286,-0.021,0.616
6178369,3178.0,3233.0,6846.0,0.733,0.287,-0.021,0.616
6178385,3150.0,3227.0,6890.0,0.733,0.287,-0.021,0.616
6178401,3174.0,3235.0,6898.0,0.733,0.286,-0.021,0.616
6178417,3198.0,3245.0,6836.0,0.733,0.287,-0.021,0.616
6178433,3178.0,3215.0,6872.0,0.733,0.287,-0.021,0.616
6178449,3178.0,3223.0,6850.0,0.733,0.287,-0.021,0.616
6178475,3166.0,3263.0,6868.0,0.733,0.287,-0.021,0.616
6178491,3198.0,3241.0,6784.0,0.733,0.287,-0.021,0.616
6178507,3186.0,3275.0,6864.0,0.733,0.287,-0.021,0.616
6178523,3222.0,3227.0,6882.0,0.733,0.287,-0.021,0.616
6178539,3162.0,3219.0,6904.0,0.733,0.287,-0.021,0.616
6178555,3206.0,3199.0,6892.0,0.733,0.287,-0.02,0.617
6178581,3196.0,3239.0,6836.0,0.733,0.287,-0.02,0.617
6178597,3164.0,3293.0,6854.0,0.733,0.287,-0.02,0.617
6178613,3198.0,3283.0,6864.0,0.733,0.287,-0.02,0.617
6178629,3192.0,3255.0,6842.0,0.733,0.287,-0.02,0.617
6178645,3176.0,3227.0,6858.0,0.733,0.287,-0.02,0.616
6178661,3146.0,3251.0,6896.0,0.733,0.287,-0.019,0.616
6178682,3222.0,3273.0,6848.0,0.733,0.288,-0.019,0.616
6178698,3104.0,3265.0,6826.0,0.733,0.288,-0.019,0.616
6178724,3144.0,3243.0,6878.0,0.733,0.288,-0.019,0.616
6178740,3164.0,3287.0,6872.0,0.733,0.288,-0.018,0.616
6178756,3176.0,3279.0,6856.0,0.733,0.288,-0.018,0.616
6178772,3212.0,3311.0,6822.0,0.733,0.288,-0.018,0.616
6178788,3184.0,3279.0,6830.0,0.732,0.289,-0.018,0.616
6178804,3224.0,3393.0,6846.0,0.732,0.289,-0.017,0.616
6178830,3216.0,3365.0,6888.0,0.732,0.289,-0.017,0.616
6178846,3138.0,3337.0,6826.0,0.732,0.289,-0.017,0.616
6178862,3132.0,3347.0,6814.0,0.732,0.289,-0.017,0.616
6178878,3168.0,3331.0,6840.0,0.732,0.289,-0.017,0.616
6178894,3092.0,3383.0,6848.0,0.732,0.289,-0.017,0.616
6178910,3118.0,3395.0,6830.0,0.732,0.289,-0.017,0.616
6178936,3124.0,3351.0,6788.0,0.732,0.289,-0.017,0.616
6178952,3146.0,3399.0,6826.0,0.732,0.289,-0.017,0.616
6178968,3158.0,3363.0,6852.0,0.732,0.289,-0.018,0.617
6178984,3162.0,3341.0,6832.0,0.732,0.288,-0.018,0.617
6179000,3164.0,3237.0,6820.0,0.732,0.288,-0.018,0.617
6179016,3138.0,3235.0,6872.0,0.733,0.288,-0.018,0.617
6179042,3160.0,3201.0,6842.0,0.733,0.288,-0.019,0.617
6179058,3216.0,3249.0,6858.0,0.733,0.287,-0.019,0.617
6179074,3148.0,3263.0,6852.0,0.733,0.287,-0.019,0.617
6179090,3204.0,3199.0,6842.0,0.733,0.287,-0.02,0.617
6179106,3162.0,3237.0,6842.0,0.733,0.287,-0.02,0.617
6179122,3160.0,3309.0,6852.0,0.733,0.287,-0.02,0.617
6179148,3204.0,3295.0,6846.0,0.733,0.287,-0.02,0.617
6179164,3152.0,3215.0,6870.0,0.733,0.286,-0.021,0.617
6179180,3162.0,3173.0,6888.0,0.733,0.286,-0.021,0.617
6179196,3218.0,3127.0,6890.0,0.733,0.286,-0.021,0.617
6179212,3170.0,3199.0,6868.0,0.733,0.286,-0.022,0.617
6179228,3166.0,3167.0,6856.0,0.733,0.286,-0.022,0.617
6179254,3156.0,3243.0,6848.0,0.733,0.286,-0.022,0.617
6179270,3212.0,3195.0,6872.0,0.733,0.286,-0.022,0.617
6179286,3226.0,3205.0,6878.0,0.733,0.286,-0.022,0.617
6179302,3260.0,3201.0,6878.0,0.733,0.286,-0.022,0.617
6179318,3262.0,3213.0,6904.0,0.733,0.285,-0.023,0.617
6179334,3152.0,3207.0,6890.0,0.733,0.285,-0.023,0.617
6179360,3220.0,3229.0,6878.0,0.733,0.285,-0.023,0.617
6179376,3196.0,3209.0,6844.0,0.733,0.285,-0.023,0.617
6179392,3130.0,3225.0,6898.0,0.733,0.285,-0.023,0.617
6179408,3198.0,3193.0,6860.0,0.733,0.285,-0.023,0.617
6179424,3168.0,3203.0,6876.0,0.733,0.285,-0.024,0.617
6179440,3222.0,3167.0,6884.0,0.733,0.285,-0.024,0.617
6179466,3200.0,3205.0,6854.0,0.733,0.285,-0.024,0.617
6179482,3180.0,3177.0,6888.0,0.733,0.285,-0.024,0.617
6179498,3224.0,3211.0,6872.0,0.733,0.285,-0.024,0.617
6179514,3226.0,3231.0,6910.0,0.733,0.285,-0.024,0.617
6179530,3170.0,3097.0,6878.0,0.733,0.285,-0.024,0.617
6179556,3256.0,3175.0,6900.0,0.733,0.285,-0.024,0.617
6179572,3220.0,3191.0,6884.0,0.733,0.285,-0.024,0.617
6179588,3244.0,3249.0,6920.0,0.733,0.285,-0.025,0.617
6179604,3256.0,3227.0,6874.0,0.733,0.285,-0.025,0.617
6179620,3248.0,3223.0,6890.0,0.733,0.284,-0.025,0.617
6179636,3176.0,3205.0,6870.0,0.733,0.284,-0.025,0.617
6179662,3260.0,3135.0,6942.0,0.733,0.284,-0.025,0.617
6179678,3208.0,3133.0,6934.0,0.733,0.284,-0.026,0.617
6179694,3218.0,3169.0,6836.0,0.733,0.284,-0.026,0.617
6179710,3170.0,3179.0,6838.0,0.733,0.284,-0.026,0.617
6179726,3204.0,3161.0,6860.0,0.733,0.284,-0.026,0.617
6179742,3218.0,3171.0,6894.0,0.733,0.284,-0.026,0.617
6179768,3270.0,3179.0,6928.0,0.734,0.284,-0.026,0.617
6179784,3224.0,3203.0,6834.0,0.733,0.284,-0.026,0.617
6179800,3216.0,3173.0,6894.0,0.734,0.283,-0.027,0.617
6179816,3240.0,3157.0,6896.0,0.734,0.283,-0.027,0.617
6179832,3288.0,3155.0,6900.0,0.734,0.283,-0.027,0.617
6179848,3224.0,3131.0,6882.0,0.734,0.283,-0.027,0.617
6179874,3222.0,3115.0,6886.0,0.734,0.283,-0.027,0.617
6179890,3228.0,3141.0,6896.0,0.734,0.283,-0.028,0.617
6179906,3196.0,3109.0,6874.0,0.734,0.283,-0.028,0.617
6179922,3258.0,3109.0,6896.0,0.734,0.283,-0.028,0.617
6179938,3202.0,3117.0,6952.0,0.734,0.282,-0.028,0.617
6179954,3224.0,3137.0,6932.0,0.734,0.282,-0.028,0.617
6179980,3204.0,3207.0,6868.0,0.734,0.282,-0.028,0.617
6179996,3238.0,3159.0,6908.0,0.734,0.282,-0.029,0.617
6180012,3196.0,3113.0,6918.0,0.734,0.282,-0.029,0.617
6180028,3266.0,3081.0,6924.0,0.734,0.282,-0.029,0.617
6180044,3240.0,3035.0,6894.0,0.734,0.282,-0.029,0.617
6180060,3280.0,3021.0,6892.0,0.734,0.282,-0.03,0.617
6180086,3290.0,3105.0,6936.0,0.734,0.282,-0.03,0.617
6180102,3290.0,3055.0,6918.0,0.734,0.282,-0.03,0.617
6180118,3276.0,3031.0,6848.0,0.734,0.281,-0.03,0.617
6180134,3218.0,3023.0,6890.0,0.734,0.281,-0.03,0.617
6180150,3276.0,3059.0,6940.0,0.734,0.281,-0.03,0.617
6180166,3256.0,3119.0,6944.0,0.734,0.281,-0.03,0.618
6180192,3286.0,3169.0,6918.0,0.734,0.281,-0.03,0.618
6180208,3198.0,3029.0,6884.0,0.734,0.281,-0.03,0.618
6180224,3290.0,3145.0,6930.0,0.734,0.281,-0.029,0.618
6180240,3106.0,3029.0,6894.0,0.734,0.281,-0.029,0.618
6180256,3222.0,3111.0,6910.0,0.734,0.281,-0.029,0.618
6180272,3216.0,3095.0,6886.0,0.734,0.281,-0.029,0.618
6180298,3170.0,3069.0,6904.0,0.734,0.281,-0.029,0.618
6180314,3242.0,3165.0,6926.0,0.734,0.281,-0.029,0.618
6180330,3208.0,3123.0,6894.0,0.734,0.281,-0.029,0.618
6180346,3234.0,3119.0,6902.0,0.734,0.281,-0.029,0.618
6180362,3204.0,3077.0,6922.0,0.734,0.281,-0.029,0.618
6180378,3262.0,3025.0,6932.0,0.734,0.281,-0.029,0.618
6180404,3186.0,3023.0,6954.0,0.734,0.281,-0.029,0.618
6180420,3224.0,3103.0,6908.0,0.734,0.281,-0.028,0.618
6180436,3252.0,3121.0,6886.0,0.734,0.281,-0.028,0.618
6180452,3242.0,3109.0,6928.0,0.734,0.281,-0.028,0.618
6180468,3246.0,3113.0,6902.0,0.734,0.281,-0.028,0.618
6180494,3212.0,3119.0,6898.0,0.734,0.281,-0.027,0.618
6180510,3218.0,3041.0,6942.0,0.734,0.281,-0.027,0.618
6180526,3206.0,3101.0,6930.0,0.734,0.281,-0.027,0.618
6180542,3216.0,3053.0,6950.0,0.734,0.281,-0.027,0.618
6180558,3154.0,3063.0,6882.0,0.734,0.282,-0.027,0.618
6180574,3196.0,3095.0,6926.0,0.733,0.282,-0.026,0.618
6180600,3186.0,3093.0,6928.0,0.733,0.282,-0.026,0.618
6180616,3200.0,3187.0,6886.0,0.733,0.282,-0.026,0.618
6180632,3212.0,3179.0,6864.0,0.733,0.282,-0.026,0.618
6180648,3226.0,3205.0,6876.0,0.733,0.282,-0.026,0.618
6180664,3152.0,3215.0,6900.0,0.733,0.282,-0.025,0.618
6180680,3202.0,3225.0,6862.0,0.733,0.283,-0.025,0.618
6180706,3156.0,3153.0,6884.0,0.733,0.283,-0.025,0.618
6180722,3144.0,3171.0,6916.0,0.733,0.283,-0.025,0.618
6180738,3146.0,3175.0,6910.0,0.733,0.283,-0.025,0.618
6180754,3204.0,3177.0,6864.0,0.733,0.283,-0.025,0.618
6180770,3188.0,3181.0,6902.0,0.733,0.283,-0.025,0.618
6180786,3190.0,3175.0,6914.0,0.733,0.283,-0.025,0.618
6180812,3148.0,3175.0,6880.0,0.733,0.283,-0.024,0.618
6180828,3180.0,3169.0,6844.0,0.733,0.283,-0.024,0.618
6180844,3190.0,3137.0,6900.0,0.733,0.283,-0.024,0.618
6180860,3190.0,3167.0,6890.0,0.733,0.283,-0.024,0.618
6180876,3226.0,3187.0,6946.0,0.733,0.283,-0.024,0.618
6180892,3188.0,3141.0,6846.0,0.733,0.283,-0.024,0.618
6180918,3198.0,3097.0,6898.0,0.733,0.283,-0.024,0.618
6180934,3178.0,3095.0,6890.0,0.733,0.283,-0.024,0.618
6180950,3176.0,3143.0,6906.0,0.733,0.283,-0.024,0.618
6180966,3204.0,3145.0,6872.0,0.733,0.283,-0.024,0.618
6180982,3198.0,3157.0,6876.0,0.733,0.284,-0.024,0.618
6180998,3208.0,3191.0,6928.0,0.733,0.284,-0.023,0.618
6181024,3200.0,3197.0,6904.0,0.733,0.284,-0.023,0.618
6181040,3148.0,3165.0,6866.0,0.733,0.284,-0.023,0.618
6181056,3150.0,3231.0,6864.0,0.733,0.284,-0.023,0.618
6181072,3240.0,3201.0,6910.0,0.733,0.284,-0.023,0.618
6181088,3218.0,3221.0,6896.0,0.733,0.284,-0.023,0.618
6181104,3184.0,3167.0,6856.0,0.733,0.284,-0.023,0.618
6181130,3192.0,3161.0,6864.0,0.733,0.284,-0.023,0.618
6181146,3198.0,3151.0,6900.0,0.733,0.284,-0.023,0.618
6181162,3236.0,3177.0,6854.0,0.733,0.284,-0.023,0.618
6181178,3182.0,3179.0,6844.0,0.733,0.284,-0.023,0.618
6181194,3198.0,3119.0,6890.0,0.733,0.284,-0.023,0.618
6181210,3168.0,3123.0,6926.0,0.733,0.284,-0.023,0.618
6181236,3198.0,3115.0,6872.0,0.733,0.284,-0.023,0.618
6181252,3240.0,3149.0,6902.0,0.733,0.284,-0.023,0.618
6181268,3202.0,3165.0,6906.0,0.733,0.284,-0.023,0.618
6181284,3180.0,3219.0,6912.0,0.733,0.284,-0.023,0.618
6181300,3170.0,3171.0,6858.0,0.733,0.284,-0.023,0.618
6181326,3170.0,3181.0,6848.0,0.733,0.284,-0.022,0.618
6181342,3166.0,3193.0,6882.0,0.733,0.284,-0.022,0.618
6181358,3166.0,3197.0,6926.0,0.733,0.284,-0.022,0.618
6181374,3184.0,3131.0,6884.0,0.733,0.284,-0.022,0.618
6181390,3204.0,3099.0,6898.0,0.733,0.284,-0.022,0.618
6181406,3190.0,3209.0,6876.0,0.733,0.285,-0.022,0.618
6181432,3210.0,3231.0,6944.0,0.733,0.285,-0.021,0.618
6181448,3106.0,3279.0,6864.0,0.733,0.285,-0.021,0.618
6181464,3146.0,3289.0,6874.0,0.733,0.285,-0.021,0.618
6181480,3172.0,3257.0,6812.0,0.733,0.285,-0.021,0.618
6181496,3218.0,3293.0,6864.0,0.733,0.285,-0.021,0.618
6181512,3202.0,3303.0,6844.0,0.733,0.285,-0.021,0.618
6181538,3176.0,3271.0,6910.0,0.733,0.285,-0.021,0.618
6181554,3218.0,3279.0,6874.0,0.733,0.285,-0.021,0.618
6181570,3156.0,3273.0,6878.0,0.733,0.285,-0.021,0.618
6181586,3162.0,3151.0,6886.0,0.733,0.285,-0.021,0.618
6181602,3108.0,3277.0,6864.0,0.733,0.285,-0.021,0.618
6181618,3126.0,3267.0,6870.0,0.733,0.285,-0.021,0.618
6181644,3168.0,3225.0,6890.0,0.733,0.285,-0.022,0.618
6181660,3162.0,3109.0,6934.0,0.733,0.284,-0.022,0.618
6181676,3134.0,3155.0,6920.0,0.733,0.284,-0.022,0.618
6181692,3226.0,3215.0,6878.0,0.733,0.284,-0.022,0.618
6181708,3242.0,3183.0,6910.0,0.733,0.284,-0.022,0.618
6181724,3198.0,3143.0,6910.0,0.733,0.284,-0.023,0.618
6181750,3216.0,3153.0,6882.0,0.733,0.284,-0.023,0.618
6181766,3200.0,3147.0,6892.0,0.733,0.284,-0.023,0.618
6181782,3174.0,3181.0,6904.0,0.733,0.284,-0.023,0.618
6181798,3236.0,3197.0,6884.0,0.733,0.284,-0.023,0.618
6181814,3214.0,3169.0,6894.0,0.733,0.284,-0.023,0.618
6181830,3144.0,3137.0,6918.0,0.733,0.284,-0.023,0.618
6181856,3178.0,3173.0,6914.0,0.733,0.284,-0.023,0.618
6181872,3172.0,3185.0,6918.0,0.733,0.284,-0.023,0.618
6181888,3210.0,3173.0,6898.0,0.733,0.284,-0.023,0.618
6181904,3196.0,3167.0,6916.0,0.733,0.284,-0.023,0.618
6181920,3142.0,3159.0,6946.0,0.733,0.284,-0.023,0.618
6181936,3182.0,3147.0,6888.0,0.733,0.284,-0.023,0.618
6181962,3212.0,3151.0,6876.0,0.733,0.284,-0.023,0.618
6181978,3168.0,3159.0,6906.0,0.733,0.284,-0.022,0.618
6181994,3180.0,3183.0,6864.0,0.733,0.284,-0.022,0.618
6182010,3190.0,3173.0,6894.0,0.733,0.284,-0.022,0.618
6182026,3156.0,3151.0,6910.0,0.733,0.284,-0.022,0.618
6182042,3154.0,3161.0,6884.0,0.733,0.284,-0.022,0.618
6182068,3148.0,3165.0,6890.0,0.733,0.284,-0.022,0.618
6182084,3232.0,3131.0,6900.0,0.733,0.284,-0.022,0.618
6182100,3182.0,3175.0,6844.0,0.733,0.284,-0.021,0.618
6182116,3234.0,3225.0,6904.0,0.733,0.284,-0.021,0.618
6182132,3152.0,3155.0,6878.0,0.732,0.284,-0.021,0.618
6182148,3140.0,3239.0,6898.0,0.732,0.284,-0.021,0.618
6182174,3148.0,3267.0,6896.0,0.732,0.285,-0.021,0.618
6182190,3148.0,3253.0,6908.0,0.732,0.285,-0.02,0.618
6182206,3150.0,3259.0,6896.0,0.733,0.285,-0.02,0.618
6182222,3134.0,3315.0,6844.0,0.733,0.285,-0.02,0.618
6182238,3100.0,3273.0,6916.0,0.733,0.285,-0.02,0.618
6182264,3142.0,3255.0,6854.0,0.732,0.285,-0.02,0.618
6182280,3134.0,3237.0,6888.0,0.732,0.285,-0.02,0.618
6182296,3186.0,3267.0,6906.0,0.732,0.285,-0.02,0.618
6182312,3162.0,3267.0,6898.0,0.732,0.285,-0.02,0.618
6182328,3108.0,3261.0,6858.0,0.732,0.285,-0.02,0.618
6182344,3116.0,3249.0,6894.0,0.732,0.285,-0.02,0.618
6182370,3192.0,3227.0,6894.0,0.732,0.285,-0.02,0.618
6182386,3162.0,3231.0,6832.0,0.732,0.285,-0.02,0.618
6182402,3128.0,3215.0,6856.0,0.732,0.285,-0.02,0.618
6182418,3086.0,3283.0,6882.0,0.732,0.285,-0.02,0.618
6182434,3160.0,3299.0,6860.0,0.732,0.284,-0.02,0.618
6182450,3172.0,3277.0,6890.0,0.732,0.284,-0.02,0.618
6182476,3116.0,3233.0,6876.0,0.732,0.284,-0.02,0.618
6182492,3142.0,3203.0,6918.0,0.732,0.284,-0.021,0.618
6182508,3182.0,3221.0,6918.0,0.732,0.284,-0.021,0.619
6182524,3164.0,3223.0,6860.0,0.732,0.284,-0.021,0.619
6182541,3158.0,3159.0,6878.0,0.732,0.284,-0.021,0.619
6182557,3170.0,3091.0,6908.0,0.732,0.283,-0.021,0.619
6182573,3176.0,3185.0,6914.0,0.732,0.283,-0.021,0.619
6182599,3154.0,3219.0,6886.0,0.732,0.283,-0.021,0.619
6182615,3180.0,3175.0,6898.0,0.732,0.283,-0.021,0.619
6182631,3170.0,3185.0,6936.0,0.732,0.283,-0.022,0.619
6182647,3168.0,3231.0,6912.0,0.732,0.283,-0.022,0.619
6182663,3134.0,3201.0,6918.0,0.732,0.283,-0.022,0.619
6182679,3128.0,3173.0,6890.0,0.732,0.283,-0.022,0.619
6182706,3136.0,3157.0,6910.0,0.732,0.283,-0.022,0.619
6182722,3142.0,3119.0,6906.0,0.732,0.283,-0.022,0.619
6182738,3164.0,3219.0,6900.0,0.732,0.283,-0.022,0.619
6182754,3162.0,3217.0,6870.0,0.732,0.283,-0.022,0.619
6182770,3204.0,3157.0,6946.0,0.732,0.283,-0.022,0.619
6182786,3168.0,3161.0,6916.0,0.732,0.283,-0.022,0.619
6182812,3106.0,3143.0,6894.0,0.733,0.283,-0.022,0.619
6182828,3144.0,3181.0,6924.0,0.733,0.283,-0.022,0.619
6182844,3148.0,3209.0,6932.0,0.733,0.283,-0.022,0.619
6182860,3206.0,3169.0,6880.0,0.733,0.283,-0.022,0.619
6182876,3110.0,3139.0,6902.0,0.733,0.283,-0.022,0.619
6182892,3164.0,3115.0,6916.0,0.733,0.283,-0.022,0.619
6182918,3146.0,3175.0,6936.0,0.733,0.283,-0.022,0.619
6182934,3194.0,3203.0,6938.0,0.733,0.283,-0.022,0.619
6182950,3138.0,3199.0,6928.0,0.733,0.283,-0.022,0.619
6182966,3114.0,3179.0,6898.0,0.733,0.283,-0.022,0.619
6182982,3178.0,3155.0,6902.0,0.733,0.283,-0.022,0.619
6182998,3164.0,3135.0,6880.0,0.733,0.283,-0.022,0.618
6183024,3192.0,3181.0,6886.0,0.733,0.283,-0.022,0.618
6183040,3204.0,3149.0,6908.0,0.733,0.283,-0.022,0.618
6183056,3172.0,3199.0,6928.0,0.733,0.283,-0.022,0.618
6183072,3222.0,3195.0,6866.0,0.733,0.283,-0.022,0.618
6183088,3198.0,3189.0,6886.0,0.733,0.284,-0.022,0.618
6183104,3172.0,3227.0,6898.0,0.733,0.284,-0.022,0.618
6183130,3104.0,3259.0,6880.0,0.733,0.284,-0.022,0.618
6183146,3108.0,3381.0,6898.0,0.733,0.284,-0.022,0.618
6183162,3020.0,3407.0,6890.0,0.733,0.284,-0.022,0.618
6183178,3056.0,3405.0,6958.0,0.733,0.283,-0.023,0.618
6183194,3120.0,3359.0,6916.0,0.733,0.283,-0.024,0.618
6183210,3194.0,3267.0,6878.0,0.733,0.283,-0.025,0.619
6183236,3322.0,3101.0,6832.0,0.733,0.282,-0.026,0.619
6183252,3404.0,2997.0,6818.0,0.733,0.282,-0.027,0.619
6183268,3402.0,2831.0,6872.0,0.733,0.281,-0.027,0.619
6183284,3318.0,2671.0,6898.0,0.733,0.281,-0.027,0.619
6183300,3312.0,2711.0,6884.0,0.733,0.282,-0.027,0.619
6183326,3228.0,2815.0,6878.0,0.733,0.282,-0.025,0.619
6183342,3148.0,3117.0,6928.0,0.732,0.283,-0.024,0.619
6183359,3142.0,3285.0,6928.0,0.732,0.284,-0.022,0.619
6183375,2994.0,3359.0,6912.0,0.732,0.284,-0.021,0.619
6183391,3010.0,3253.0,7030.0,0.732,0.284,-0.021,0.619
6183407,2956.0,3173.0,7006.0,0.732,0.285,-0.02,0.619
6183423,3060.0,3075.0,7012.0,0.732,0.285,-0.02,0.619
6183449,3162.0,3219.0,6908.0,0.732,0.285,-0.02,0.618
6183465,3242.0,3273.0,6864.0,0.732,0.286,-0.021,0.618
6183481,3310.0,3381.0,6832.0,0.732,0.286,-0.021,0.618
6183497,3358.0,3449.0,6838.0,0.732,0.286,-0.021,0.618
6183513,3392.0,3411.0,6828.0,0.732,0.286,-0.022,0.618
6183529,3338.0,3277.0,6806.0,0.732,0.286,-0.022,0.618
6183555,3368.0,3203.0,6790.0,0.732,0.285,-0.023,0.618
6183571,3364.0,3107.0,6818.0,0.732,0.285,-0.023,0.618
6183587,3354.0,2987.0,6794.0,0.732,0.285,-0.023,0.619
6183603,3300.0,3099.0,6818.0,0.732,0.285,-0.022,0.619
6183619,3162.0,3131.0,6836.0,0.731,0.285,-0.021,0.619
6183635,3028.0,3237.0,6896.0,0.731,0.286,-0.02,0.619
6183661,2860.0,3301.0,6908.0,0.731,0.286,-0.019,0.619
6183677,2898.0,3361.0,6884.0,0.731,0.286,-0.019,0.619
6183693,2852.0,3245.0,6962.0,0.731,0.286,-0.018,0.619
6183709,2926.0,3263.0,6930.0,0.731,0.287,-0.018,0.619
6183725,3078.0,3199.0,6890.0,0.731,0.287,-0.017,0.619
6183741,3112.0,3129.0,6854.0,0.731,0.287,-0.017,0.619
6183767,3202.0,3211.0,6852.0,0.731,0.288,-0.016,0.618
6183783,3214.0,3201.0,6884.0,0.731,0.288,-0.016,0.618
6183799,3394.0,3319.0,6884.0,0.731,0.288,-0.015,0.618
6183815,3186.0,3299.0,6842.0,0.731,0.289,-0.015,0.618
6183831,3252.0,3333.0,6814.0,0.731,0.289,-0.014,0.618
6183857,3292.0,3401.0,6832.0,0.731,0.29,-0.014,0.618
6183873,3308.0,3433.0,6774.0,0.731,0.29,-0.014,0.618
6183889,3216.0,3477.0,6790.0,0.731,0.29,-0.014,0.617
6183905,3186.0,3443.0,6822.0,0.731,0.29,-0.014,0.617
6183921,3150.0,3493.0,6818.0,0.731,0.29,-0.015,0.618
6183937,3174.0,3509.0,6782.0,0.731,0.289,-0.015,0.618
6183963,3136.0,3427.0,6792.0,0.731,0.289,-0.016,0.618
6183979,3150.0,3389.0,6862.0,0.731,0.288,-0.016,0.618
6183995,3068.0,3357.0,6830.0,0.731,0.288,-0.017,0.618
6184011,3052.0,3345.0,6796.0,0.731,0.287,-0.017,0.618
6184027,2950.0,3319.0,6872.0,0.731,0.287,-0.018,0.619
6184043,2948.0,3351.0,6898.0,0.731,0.286,-0.018,0.619
6184069,3040.0,3291.0,6914.0,0.731,0.286,-0.018,0.619
6184085,3090.0,3291.0,6838.0,0.731,0.285,-0.019,0.619
6184101,3180.0,3245.0,6884.0,0.731,0.285,-0.019,0.619
6184117,3240.0,3141.0,6828.0,0.731,0.285,-0.02,0.62
6184133,3324.0,3083.0,6802.0,0.731,0.285,-0.02,0.619
6184149,3258.0,2997.0,6898.0,0.731,0.284,-0.02,0.619
6184175,3136.0,3035.0,6866.0,0.731,0.285,-0.02,0.619
6184191,3156.0,3147.0,6950.0,0.731,0.285,-0.02,0.619
6184207,3042.0,3183.0,6950.0,0.732,0.285,-0.02,0.619
6184223,3002.0,3167.0,6938.0,0.732,0.285,-0.02,0.619
6184239,3060.0,3145.0,6930.0,0.732,0.285,-0.02,0.619
6184256,3104.0,3141.0,6968.0,0.732,0.285,-0.02,0.619
6184282,3238.0,3095.0,6940.0,0.732,0.284,-0.021,0.619
6184298,3304.0,3117.0,6848.0,0.732,0.285,-0.021,0.619
6184314,3360.0,3125.0,6834.0,0.732,0.285,-0.022,0.619
6184330,3412.0,3123.0,6888.0,0.732,0.285,-0.022,0.619
6184346,3360.0,3249.0,6906.0,0.731,0.285,-0.022,0.619
6184362,3306.0,3213.0,6880.0,0.731,0.285,-0.022,0.619
6184388,3254.0,3281.0,6808.0,0.731,0.285,-0.021,0.619
6184404,3252.0,3203.0,6888.0,0.731,0.285,-0.021,0.62
6184420,3144.0,3351.0,6826.0,0.731,0.285,-0.021,0.62
6184436,3082.0,3333.0,6876.0,0.73,0.285,-0.021,0.62
6184452,3036.0,3395.0,6842.0,0.73,0.285,-0.021,0.62
6184468,3042.0,3439.0,6876.0,0.73,0.285,-0.021,0.62
6184494,3128.0,3443.0,6850.0,0.73,0.285,-0.021,0.621
6184510,3010.0,3383.0,6850.0,0.73,0.285,-0.021,0.621
6184527,3048.0,3435.0,6852.0,0.73,0.285,-0.022,0.621
6184543,3054.0,3381.0,6924.0,0.73,0.285,-0.022,0.621
6184559,3104.0,3371.0,6870.0,0.73,0.284,-0.023,0.621
6184575,3104.0,3205.0,6868.0,0.73,0.283,-0.024,0.621
6184591,3088.0,3129.0,6898.0,0.73,0.283,-0.025,0.621
6184617,3198.0,3025.0,6898.0,0.73,0.282,-0.026,0.621
6184633,3346.0,2997.0,6952.0,0.73,0.282,-0.026,0.622
6184649,3372.0,3017.0,6868.0,0.73,0.282,-0.027,0.622
6184665,3344.0,2897.0,6932.0,0.731,0.281,-0.027,0.622
6184681,3258.0,2905.0,6968.0,0.731,0.281,-0.027,0.622
6184698,3304.0,2899.0,6892.0,0.731,0.281,-0.027,0.622
6184724,3304.0,2897.0,6974.0,0.731,0.281,-0.027,0.622
6184740,3272.0,2975.0,6936.0,0.731,0.281,-0.027,0.622
6184756,3336.0,2895.0,6938.0,0.731,0.281,-0.027,0.622
6184772,3314.0,2955.0,6922.0,0.731,0.281,-0.027,0.622
6184788,3272.0,2937.0,6970.0,0.731,0.281,-0.026,0.622
6184804,3244.0,2999.0,6946.0,0.731,0.281,-0.026,0.622
6184830,3250.0,3025.0,6900.0,0.73,0.282,-0.025,0.622
6184846,3192.0,3137.0,6922.0,0.73,0.282,-0.025,0.622
6184862,3200.0,3209.0,6896.0,0.73,0.282,-0.025,0.622
6184878,3148.0,3229.0,6856.0,0.73,0.283,-0.024,0.622
6184894,3230.0,3259.0,6916.0,0.73,0.283,-0.024,0.622
6184910,3194.0,3241.0,6862.0,0.73,0.283,-0.023,0.622
6184936,3106.0,3199.0,6860.0,0.73,0.283,-0.023,0.622
6184952,3128.0,3263.0,6834.0,0.73,0.283,-0.023,0.622
6184968,3130.0,3307.0,6902.0,0.73,0.284,-0.022,0.622
6184984,3110.0,3203.0,6908.0,0.73,0.284,-0.022,0.621
6185000,3136.0,3253.0,6876.0,0.73,0.284,-0.022,0.621
6185016,3106.0,3259.0,6908.0,0.73,0.284,-0.022,0.621
6185042,3164.0,3311.0,6904.0,0.73,0.284,-0.022,0.621
6185058,3202.0,3243.0,6914.0,0.73,0.284,-0.022,0.621
6185074,3238.0,3227.0,6862.0,0.73,0.285,-0.022,0.621
6185090,3294.0,3147.0,6848.0,0.73,0.285,-0.022,0.621
6185106,3284.0,3089.0,6880.0,0.73,0.285,-0.021,0.62
6185122,3286.0,3127.0,6836.0,0.73,0.285,-0.021,0.62
6185148,3308.0,3167.0,6808.0,0.73,0.286,-0.021,0.62
6185164,3220.0,3183.0,6868.0,0.73,0.286,-0.02,0.62
6185180,3180.0,3193.0,6880.0,0.73,0.286,-0.02,0.62
6185196,3120.0,3219.0,6916.0,0.73,0.286,-0.02,0.62
6185212,3126.0,3211.0,6924.0,0.73,0.286,-0.02,0.62
6185228,3168.0,3187.0,6974.0,0.73,0.286,-0.02,0.62
6185254,3166.0,3149.0,6904.0,0.73,0.286,-0.02,0.62
6185270,3174.0,3143.0,6862.0,0.73,0.286,-0.02,0.621
6185286,3192.0,3203.0,6816.0,0.73,0.286,-0.02,0.621
6185302,3182.0,3271.0,6856.0,0.73,0.286,-0.019,0.621
6185318,3122.0,3241.0,6908.0,0.73,0.286,-0.019,0.621
6185344,3176.0,3239.0,6892.0,0.729,0.287,-0.019,0.621
6185360,3156.0,3263.0,6876.0,0.729,0.287,-0.019,0.621
6185376,3118.0,3373.0,6844.0,0.729,0.287,-0.018,0.621
6185392,3156.0,3325.0,6874.0,0.729,0.287,-0.018,0.621
6185408,3160.0,3313.0,6810.0,0.729,0.287,-0.018,0.621
6185424,3146.0,3375.0,6866.0,0.729,0.287,-0.018,0.621
6185450,3168.0,3343.0,6858.0,0.729,0.287,-0.018,0.621
6185466,3196.0,3277.0,6882.0,0.729,0.288,-0.018,0.62
6185482,3156.0,3255.0,6868.0,0.729,0.288,-0.018,0.62
6185498,3190.0,3261.0,6864.0,0.729,0.288,-0.017,0.62
6185514,3136.0,3239.0,6832.0,0.73,0.288,-0.017,0.62
6185530,3196.0,3237.0,6844.0,0.73,0.288,-0.017,0.62
6185556,3204.0,3301.0,6860.0,0.73,0.288,-0.017,0.62
6185572,3152.0,3273.0,6846.0,0.73,0.288,-0.017,0.62
6185588,3190.0,3227.0,6884.0,0.73,0.288,-0.017,0.62
6185604,3152.0,3235.0,6882.0,0.73,0.288,-0.016,0.62
6185620,3158.0,3265.0,6844.0,0.729,0.288,-0.016,0.62
6185636,3156.0,3309.0,6834.0,0.729,0.288,-0.016,0.62
6185662,3170.0,3349.0,6838.0,0.729,0.288,-0.015,0.62
6185678,3176.0,3271.0,6824.0,0.729,0.288,-0.015,0.62
6185694,3124.0,3301.0,6886.0,0.729,0.288,-0.015,0.62
6185710,3102.0,3303.0,6868.0,0.729,0.288,-0.015,0.62
6185726,3140.0,3333.0,6854.0,0.729,0.288,-0.015,0.62
6185742,3182.0,3275.0,6890.0,0.729,0.288,-0.015,0.62
6185768,3096.0,3303.0,6880.0,0.729,0.288,-0.015,0.621
6185784,3100.0,3299.0,6888.0,0.729,0.288,-0.015,0.621
6185800,3080.0,3329.0,6852.0,0.729,0.288,-0.015,0.621
6185816,3180.0,3385.0,6856.0,0.729,0.288,-0.015,0.621
6185832,3126.0,3349.0,6852.0,0.729,0.288,-0.015,0.621
6185848,3136.0,3335.0,6842.0,0.729,0.288,-0.015,0.62
6185874,3112.0,3339.0,6844.0,0.729,0.288,-0.015,0.62
6185890,3150.0,3303.0,6886.0,0.729,0.288,-0.015,0.62
6185906,3160.0,3319.0,6892.0,0.729,0.288,-0.015,0.62
6185922,3180.0,3337.0,6868.0,0.729,0.288,-0.015,0.62
6185938,3150.0,3329.0,6838.0,0.73,0.288,-0.015,0.62
6185954,3116.0,3289.0,6858.0,0.73,0.288,-0.015,0.62
6185980,3120.0,3269.0,6888.0,0.73,0.288,-0.015,0.62
6185996,3164.0,3317.0,6852.0,0.73,0.288,-0.016,0.62
6186012,3156.0,3297.0,6854.0,0.73,0.288,-0.016,0.62
6186028,3190.0,3275.0,6872.0,0.73,0.288,-0.016,0.62
6186044,3168.0,3269.0,6876.0,0.73,0.288,-0.016,0.62
6186060,3158.0,3223.0,6840.0,0.73,0.287,-0.017,0.62
6186086,3192.0,3287.0,6864.0,0.73,0.287,-0.017,0.62
6186102,3124.0,3289.0,6874.0,0.73,0.287,-0.017,0.62
6186118,3142.0,3337.0,6878.0,0.73,0.287,-0.017,0.62
6186134,3170.0,3309.0,6832.0,0.73,0.287,-0.017,0.62
6186150,3146.0,3317.0,6832.0,0.73,0.287,-0.017,0.62
6186166,3198.0,3319.0,6852.0,0.73,0.287,-0.018,0.62
6186192,3180.0,3319.0,6872.0,0.73,0.287,-0.018,0.62
6186208,3150.0,3275.0,6854.0,0.73,0.286,-0.018,0.62
6186224,3110.0,3217.0,6898.0,0.73,0.286,-0.018,0.62
6186240,3120.0,3251.0,6902.0,0.73,0.286,-0.019,0.62
6186256,3134.0,3231.0,6868.0,0.73,0.286,-0.019,0.62
6186282,3128.0,3277.0,6876.0,0.73,0.286,-0.019,0.62
6186298,3138.0,3261.0,6872.0,0.731,0.286,-0.02,0.62
6186314,3124.0,3219.0,6842.0,0.731,0.285,-0.02,0.62
6186330,3180.0,3317.0,6880.0,0.731,0.285,-0.02,0.62
6186346,3188.0,3233.0,6856.0,0.731,0.285,-0.021,0.62
6186362,3186.0,3203.0,6930.0,0.731,0.285,-0.021,0.62
6186388,3150.0,3313.0,6896.0,0.731,0.284,-0.022,0.62
6186404,3200.0,3267.0,6948.0,0.731,0.284,-0.022,0.62
6186420,3192.0,3065.0,6976.0,0.732,0.283,-0.023,0.62
6186436,3194.0,2925.0,6960.0,0.732,0.283,-0.024,0.619
6186452,3144.0,2867.0,6948.0,0.732,0.283,-0.024,0.619
6186468,3140.0,2995.0,6932.0,0.732,0.283,-0.024,0.619
6186494,3134.0,3067.0,6850.0,0.732,0.283,-0.024,0.619
6186510,3174.0,3245.0,6816.0,0.732,0.283,-0.024,0.62
6186526,3196.0,3297.0,6872.0,0.731,0.283,-0.024,0.62
6186542,3302.0,3177.0,6898.0,0.731,0.283,-0.024,0.62
6186558,3342.0,3191.0,6862.0,0.731,0.283,-0.023,0.62
6186574,3364.0,3131.0,6838.0,0.731,0.284,-0.023,0.62
6186600,3356.0,3205.0,6908.0,0.731,0.284,-0.023,0.62
6186616,3246.0,3145.0,6894.0,0.731,0.284,-0.023,0.62
6186632,3186.0,3171.0,6928.0,0.731,0.284,-0.023,0.62
6186648,3076.0,3241.0,6958.0,0.731,0.284,-0.022,0.62
6186664,3064.0,3261.0,6948.0,0.731,0.284,-0.022,0.62
6186680,2974.0,3269.0,6892.0,0.731,0.284,-0.022,0.62
6186706,3082.0,3329.0,6864.0,0.731,0.284,-0.022,0.62
6186722,3108.0,3377.0,6894.0,0.731,0.284,-0.022,0.62
6186738,3128.0,3179.0,6912.0,0.731,0.284,-0.023,0.62
6186754,3248.0,3035.0,6886.0,0.731,0.283,-0.023,0.62
6186770,3336.0,2997.0,6876.0,0.731,0.283,-0.023,0.62
6186786,3324.0,3109.0,6890.0,0.731,0.283,-0.023,0.62
6186812,3290.0,3137.0,6876.0,0.731,0.283,-0.023,0.62
6186828,3304.0,3115.0,6882.0,0.731,0.283,-0.023,0.62
6186844,3196.0,3135.0,6884.0,0.731,0.283,-0.023,0.62
6186860,3132.0,3183.0,6946.0,0.731,0.283,-0.022,0.621
6186876,3092.0,3165.0,6922.0,0.731,0.283,-0.022,0.621
6186892,3124.0,3135.0,6968.0,0.731,0.283,-0.022,0.621
6186918,3110.0,3173.0,6896.0,0.731,0.283,-0.022,0.621
6186934,3148.0,3133.0,6910.0,0.731,0.284,-0.022,0.621
6186950,3162.0,3189.0,6914.0,0.73,0.284,-0.021,0.621
6186966,3280.0,3171.0,6894.0,0.73,0.284,-0.021,0.621
6186982,3228.0,3233.0,6858.0,0.73,0.284,-0.021,0.621
6186998,3180.0,3217.0,6858.0,0.73,0.284,-0.021,0.621
6187024,3214.0,3243.0,6890.0,0.73,0.285,-0.02,0.621
6187040,3170.0,3249.0,6886.0,0.73,0.285,-0.02,0.621
6187056,3136.0,3223.0,6868.0,0.73,0.285,-0.02,0.621
6187072,3110.0,3233.0,6880.0,0.73,0.285,-0.019,0.621
6187088,3118.0,3219.0,6912.0,0.73,0.285,-0.019,0.621
6187114,3108.0,3263.0,6900.0,0.73,0.285,-0.019,0.621
6187130,3154.0,3307.0,6852.0,0.73,0.286,-0.019,0.621
6187146,3134.0,3253.0,6882.0,0.73,0.286,-0.018,0.621
6187162,3132.0,3321.0,6912.0,0.73,0.286,-0.018,0.621
6187178,3102.0,3353.0,6876.0,0.73,0.286,-0.018,0.621
6187194,3098.0,3281.0,6872.0,0.73,0.286,-0.018,0.621
6187220,3172.0,3317.0,6882.0,0.73,0.286,-0.018,0.621
6187236,3176.0,3189.0,6836.0,0.73,0.286,-0.019,0.621
6187252,3178.0,3199.0,6904.0,0.73,0.286,-0.019,0.621
6187268,3174.0,3157.0,6850.0,0.73,0.285,-0.019,0.621
6187284,3166.0,3171.0,6856.0,0.73,0.285,-0.019,0.621
6187300,3184.0,3235.0,6894.0,0.73,0.285,-0.019,0.621
6187326,3146.0,3223.0,6846.0,0.73,0.285,-0.019,0.621
6187342,3148.0,3253.0,6882.0,0.73,0.285,-0.018,0.621
6187358,3146.0,3237.0,6838.0,0.73,0.285,-0.018,0.621
6187374,3124.0,3253.0,6856.0,0.73,0.285,-0.018,0.621
6187390,3160.0,3263.0,6900.0,0.73,0.285,-0.019,0.621
6187406,3130.0,3285.0,6858.0,0.73,0.285,-0.019,0.621
6187432,3134.0,3241.0,6868.0,0.73,0.285,-0.019,0.621
6187448,3126.0,3263.0,6898.0,0.73,0.285,-0.019,0.621
6187464,3162.0,3269.0,6884.0,0.73,0.285,-0.019,0.621
6187480,3126.0,3233.0,6890.0,0.73,0.285,-0.019,0.621
6187496,3150.0,3219.0,6884.0,0.73,0.285,-0.019,0.621
6187512,3100.0,3307.0,6876.0,0.73,0.285,-0.019,0.62
6187538,3118.0,3283.0,6894.0,0.73,0.285,-0.019,0.62
6187554,3148.0,3205.0,6888.0,0.73,0.285,-0.019,0.62
6187570,3206.0,3185.0,6868.0,0.73,0.285,-0.019,0.62
6187586,3278.0,3175.0,6874.0,0.73,0.286,-0.019,0.62
6187602,3220.0,3191.0,6902.0,0.73,0.286,-0.019,0.62
6187618,3206.0,3199.0,6896.0,0.73,0.286,-0.019,0.62
6187644,3120.0,3231.0,6882.0,0.73,0.286,-0.018,0.62
6187660,3114.0,3175.0,6906.0,0.73,0.286,-0.018,0.62
6187676,3168.0,3203.0,6896.0,0.73,0.286,-0.018,0.62
6187692,3152.0,3305.0,6898.0,0.73,0.286,-0.018,0.62
6187708,3098.0,3301.0,6844.0,0.73,0.286,-0.017,0.62
6187724,3146.0,3319.0,6888.0,0.73,0.286,-0.017,0.62
6187750,3136.0,3259.0,6896.0,0.73,0.287,-0.017,0.62
6187766,3108.0,3277.0,6858.0,0.73,0.287,-0.017,0.62
6187782,3122.0,3327.0,6876.0,0.73,0.287,-0.017,0.62
6187798,3114.0,3383.0,6862.0,0.73,0.287,-0.017,0.62
6187814,3156.0,3379.0,6888.0,0.73,0.287,-0.017,0.62
6187830,3158.0,3363.0,6850.0,0.73,0.287,-0.017,0.62
6187856,3186.0,3271.0,6890.0,0.73,0.287,-0.017,0.62
6187872,3182.0,3169.0,6912.0,0.73,0.287,-0.017,0.62
6187888,3174.0,3173.0,6838.0,0.73,0.287,-0.017,0.62
6187904,3176.0,3213.0,6812.0,0.73,0.287,-0.017,0.62
6187920,3240.0,3237.0,6842.0,0.73,0.287,-0.017,0.62
6187936,3154.0,3303.0,6832.0,0.73,0.287,-0.017,0.62
6187962,3188.0,3239.0,6892.0,0.73,0.287,-0.017,0.62
6187978,3154.0,3253.0,6852.0,0.73,0.287,-0.017,0.62
6187994,3138.0,3227.0,6884.0,0.73,0.287,-0.017,0.62
6188010,3102.0,3317.0,6894.0,0.73,0.287,-0.016,0.62
6188026,3168.0,3371.0,6896.0,0.73,0.287,-0.016,0.62
6188052,3130.0,3371.0,6842.0,0.73,0.288,-0.016,0.62
6188068,3132.0,3365.0,6794.0,0.73,0.288,-0.016,0.62
6188084,3168.0,3323.0,6902.0,0.73,0.288,-0.016,0.62
6188100,3144.0,3373.0,6866.0,0.73,0.287,-0.017,0.62
6188116,3146.0,3323.0,6846.0,0.73,0.287,-0.017,0.62
6188132,3196.0,3279.0,6858.0,0.73,0.287,-0.017,0.62
6188158,3124.0,3311.0,6872.0,0.73,0.287,-0.017,0.62
6188174,3088.0,3315.0,6906.0,0.73,0.287,-0.017,0.62
6188190,3070.0,3271.0,6864.0,0.73,0.287,-0.017,0.62
6188206,3106.0,3243.0,6864.0,0.73,0.287,-0.017,0.62
6188222,3162.0,3229.0,6904.0,0.73,0.287,-0.017,0.62
6188238,3164.0,3207.0,6882.0,0.73,0.287,-0.017,0.62
6188264,3148.0,3179.0,6838.0,0.73,0.287,-0.017,0.62
6188280,3138.0,3257.0,6874.0,0.73,0.286,-0.017,0.62
6188296,3134.0,3281.0,6900.0,0.73,0.286,-0.018,0.62
6188312,3158.0,3313.0,6848.0,0.73,0.286,-0.018,0.621
6188328,3122.0,3307.0,6872.0,0.73,0.286,-0.018,0.621
6188344,3202.0,3327.0,6852.0,0.73,0.286,-0.018,0.621
6188370,3110.0,3295.0,6860.0,0.73,0.286,-0.018,0.621
6188386,3138.0,3273.0,6888.0,0.73,0.286,-0.018,0.621
6188402,3168.0,3253.0,6846.0,0.73,0.286,-0.018,0.621
6188418,3134.0,3243.0,6870.0,0.73,0.286,-0.019,0.621
6188434,3172.0,3281.0,6834.0,0.73,0.286,-0.019,0.621
6188450,3192.0,3275.0,6866.0,0.73,0.285,-0.019,0.621
6188476,3110.0,3221.0,6900.0,0.73,0.285,-0.019,0.621
6188492,3102.0,3179.0,6914.0,0.73,0.285,-0.019,0.621
6188508,3148.0,3191.0,6936.0,0.73,0.285,-0.019,0.621
6188524,3150.0,3257.0,6904.0,0.73,0.285,-0.019,0.621
6188540,3130.0,3229.0,6866.0,0.73,0.285,-0.019,0.621
6188556,3160.0,3253.0,6852.0,0.73,0.285,-0.019,0.621
6188582,3190.0,3267.0,6908.0,0.73,0.285,-0.019,0.621
6188598,3178.0,3239.0,6892.0,0.73,0.285,-0.019,0.621
6188614,3206.0,3239.0,6834.0,0.73,0.285,-0.019,0.621
6188630,3148.0,3185.0,6906.0,0.73,0.285,-0.019,0.621
6188646,3154.0,3211.0,6980.0,0.73,0.285,-0.019,0.621
6188662,3158.0,3173.0,6844.0,0.73,0.285,-0.019,0.621
6188688,3118.0,3223.0,6892.0,0.73,0.285,-0.019,0.621
6188704,3142.0,3301.0,6900.0,0.73,0.285,-0.019,0.621
6188720,3174.0,3275.0,6900.0,0.73,0.285,-0.019,0.621
6188736,3116.0,3233.0,6918.0,0.73,0.285,-0.018,0.621
6188752,3170.0,3253.0,6890.0,0.73,0.285,-0.018,0.621
6188768,3142.0,3271.0,6900.0,0.73,0.286,-0.018,0.621
6188794,3122.0,3313.0,6940.0,0.73,0.286,-0.018,0.621
6188810,3176.0,3291.0,6876.0,0.73,0.286,-0.018,0.621
6188826,3158.0,3249.0,6856.0,0.73,0.286,-0.018,0.621
6188842,3214.0,3227.0,6878.0,0.73,0.286,-0.018,0.621
6188858,3152.0,3321.0,6904.0,0.73,0.286,-0.018,0.621
6188884,3210.0,3347.0,6874.0,0.73,0.286,-0.018,0.621
6188900,3174.0,3249.0,6892.0,0.73,0.286,-0.018,0.621
6188916,3188.0,3281.0,6874.0,0.73,0.286,-0.019,0.621
6188932,3194.0,3235.0,6860.0,0.729,0.286,-0.019,0.621
6188948,3200.0,3287.0,6814.0,0.73,0.286,-0.019,0.621
6188964,3240.0,3217.0,6848.0,0.729,0.286,-0.019,0.621
6188990,3168.0,3251.0,6872.0,0.73,0.286,-0.019,0.621
6189006,3130.0,3205.0,6884.0,0.73,0.286,-0.019,0.621
6189022,3082.0,3201.0,6886.0,0.729,0.286,-0.019,0.621
6189038,3100.0,3261.0,6878.0,0.729,0.286,-0.019,0.621
6189054,3108.0,3301.0,6898.0,0.729,0.286,-0.018,0.621
6189070,3152.0,3281.0,6932.0,0.729,0.286,-0.018,0.621
6189096,3182.0,3273.0,6854.0,0.729,0.286,-0.018,0.621
6189112,3206.0,3193.0,6850.0,0.729,0.286,-0.018,0.621
6189128,3190.0,3267.0,6836.0,0.729,0.287,-0.018,0.621
6189144,3188.0,3245.0,6884.0,0.73,0.287,-0.018,0.621
6189160,3180.0,3241.0,6902.0,0.73,0.287,-0.018,0.621
6189176,3136.0,3307.0,6844.0,0.73,0.287,-0.018,0.621
6189202,3106.0,3289.0,6870.0,0.73,0.287,-0.018,0.621
6189218,3164.0,3255.0,6902.0,0.73,0.287,-0.018,0.621
6189234,3114.0,3197.0,6882.0,0.73,0.287,-0.018,0.621
6189250,3188.0,3193.0,6874.0,0.73,0.287,-0.017,0.62
6189266,3184.0,3183.0,6840.0,0.73,0.287,-0.017,0.62
6189282,3188.0,3251.0,6876.0,0.73,0.287,-0.016,0.62
6189308,3164.0,3261.0,6886.0,0.73,0.288,-0.016,0.62
6189324,3122.0,3307.0,6854.0,0.73,0.288,-0.016,0.62
6189340,3084.0,3299.0,6862.0,0.73,0.288,-0.016,0.62
6189356,3188.0,3281.0,6920.0,0.73,0.288,-0.015,0.62
6189372,3132.0,3329.0,6838.0,0.73,0.289,-0.015,0.62
6189388,3164.0,3265.0,6826.0,0.73,0.289,-0.015,0.62
6189414,3170.0,3253.0,6838.0,0.73,0.289,-0.015,0.62
6189430,3164.0,3271.0,6866.0,0.729,0.289,-0.015,0.62
6189446,3156.0,3279.0,6866.0,0.729,0.289,-0.014,0.62
6189462,3180.0,3323.0,6818.0,0.729,0.289,-0.014,0.62
6189478,3126.0,3425.0,6848.0,0.729,0.29,-0.013,0.62
6189494,3100.0,3433.0,6842.0,0.729,0.29,-0.013,0.62
6189520,3106.0,3481.0,6810.0,0.729,0.29,-0.013,0.62
6189536,3064.0,3485.0,6808.0,0.729,0.29,-0.012,0.62
6189552,3102.0,3459.0,6812.0,0.729,0.29,-0.012,0.62
6189568,3070.0,3429.0,6870.0,0.729,0.29,-0.012,0.62
6189584,3086.0,3347.0,6830.0,0.729,0.29,-0.012,0.62
6189600,3122.0,3373.0,6810.0,0.729,0.29,-0.012,0.62
6189626,3132.0,3393.0,6840.0,0.729,0.29,-0.012,0.619
6189642,3132.0,3423.0,6816.0,0.729,0.29,-0.012,0.619
6189658,3100.0,3387.0,6838.0,0.729,0.29,-0.012,0.619
6189674,3132.0,3341.0,6860.0,0.73,0.29,-0.013,0.619
6189690,3160.0,3247.0,6818.0,0.73,0.29,-0.013,0.619
6189707,3190.0,3289.0,6848.0,0.73,0.29,-0.013,0.619
6189733,3180.0,3309.0,6872.0,0.73,0.289,-0.013,0.619
6189749,3142.0,3331.0,6818.0,0.73,0.289,-0.013,0.619
6189765,3154.0,3249.0,6820.0,0.73,0.289,-0.013,0.619
6189781,3156.0,3295.0,6850.0,0.73,0.289,-0.013,0.619
6189797,3142.0,3293.0,6832.0,0.73,0.289,-0.013,0.619
6189813,3082.0,3389.0,6854.0,0.73,0.289,-0.013,0.62
6189839,3120.0,3407.0,6864.0,0.73,0.289,-0.013,0.62
6189855,3070.0,3317.0,6866.0,0.73,0.289,-0.013,0.62
6189871,3076.0,3317.0,6878.0,0.73,0.289,-0.013,0.62
6189887,3100.0,3347.0,6852.0,0.73,0.289,-0.013,0.62
6189903,3140.0,3365.0,6806.0,0.73,0.289,-0.013,0.62
6189919,3128.0,3243.0,6854.0,0.73,0.289,-0.013,0.62
6189945,3146.0,3283.0,6862.0,0.73,0.289,-0.013,0.62
6189961,3098.0,3301.0,6850.0,0.729,0.29,-0.012,0.62
6189977,3210.0,3281.0,6796.0,0.729,0.29,-0.012,0.619
6189993,3144.0,3335.0,6836.0,0.729,0.29,-0.012,0.619
6190009,3180.0,3371.0,6860.0,0.729,0.29,-0.012,0.619
6190025,3150.0,3355.0,6850.0,0.729,0.291,-0.011,0.619
6190051,3124.0,3379.0,6812.0,0.729,0.291,-0.011,0.619
6190067,3086.0,3459.0,6846.0,0.729,0.291,-0.01,0.619
6190083,3118.0,3463.0,6798.0,0.729,0.292,-0.01,0.619
6190099,3110.0,3597.0,6796.0,0.729,0.292,-0.009,0.619
6190116,3118.0,3463.0,6772.0,0.729,0.292,-0.009,0.619
6190132,3070.0,3539.0,6808.0,0.729,0.292,-0.009,0.619
6190158,3034.0,3503.0,6838.0,0.729,0.292,-0.009,0.619
6190174,3060.0,3457.0,6790.0,0.729,0.292,-0.009,0.619
6190190,3062.0,3451.0,6834.0,0.729,0.292,-0.009,0.619
6190206,3090.0,3371.0,6858.0,0.729,0.291,-0.01,0.619
6190222,3110.0,3325.0,6846.0,0.729,0.291,-0.01,0.619
6190238,3146.0,3377.0,6794.0,0.729,0.291,-0.01,0.619
6190264,3130.0,3381.0,6800.0,0.729,0.291,-0.01,0.619
6190280,3222.0,3357.0,6880.0,0.729,0.291,-0.011,0.619
6190296,3172.0,3347.0,6864.0,0.729,0.29,-0.011,0.619
6190312,3116.0,3329.0,6812.0,0.729,0.29,-0.011,0.619
6190328,3086.0,3357.0,6796.0,0.729,0.29,-0.012,0.619
6190344,3132.0,3315.0,6824.0,0.729,0.29,-0.012,0.62
6190370,3102.0,3427.0,6836.0,0.729,0.29,-0.012,0.62
6190386,3082.0,3389.0,6804.0,0.729,0.29,-0.012,0.62
6190403,3102.0,3393.0,6850.0,0.729,0.289,-0.013,0.62
6190419,3098.0,3441.0,6838.0,0.729,0.289,-0.013,0.62
6190435,3112.0,3383.0,6828.0,0.729,0.289,-0.013,0.62
6190451,3078.0,3385.0,6822.0,0.729,0.288,-0.013,0.62
6190477,3086.0,3309.0,6870.0,0.729,0.288,-0.014,0.62
6190493,3044.0,3337.0,6862.0,0.73,0.288,-0.014,0.62
6190509,3122.0,3299.0,6886.0,0.73,0.288,-0.014,0.62
6190525,3120.0,3287.0,6890.0,0.73,0.288,-0.014,0.62
6190541,3166.0,3311.0,6848.0,0.73,0.287,-0.015,0.62
6190557,3162.0,3265.0,6910.0,0.73,0.287,-0.015,0.62
6190583,3164.0,3175.0,6914.0,0.73,0.287,-0.015,0.62
6190599,3138.0,3139.0,6856.0,0.73,0.287,-0.015,0.62
6190615,3148.0,3127.0,6854.0,0.73,0.287,-0.015,0.62
6190631,3172.0,3281.0,6888.0,0.73,0.287,-0.015,0.62
6190647,3146.0,3299.0,6864.0,0.73,0.287,-0.015,0.62
6190663,3168.0,3295.0,6874.0,0.73,0.287,-0.016,0.62
6190689,3210.0,3303.0,6870.0,0.73,0.287,-0.016,0.62
6190705,3116.0,3245.0,6888.0,0.73,0.287,-0.016,0.62
6190721,3122.0,3241.0,6922.0,0.73,0.287,-0.016,0.62
6190737,3120.0,3307.0,6822.0,0.73,0.287,-0.016,0.62
6190753,3148.0,3271.0,6890.0,0.73,0.287,-0.016,0.621
6190769,3112.0,3303.0,6898.0,0.73,0.287,-0.016,0.621
6190795,3094.0,3287.0,6884.0,0.73,0.287,-0.016,0.621
6190811,3172.0,3243.0,6880.0,0.73,0.287,-0.016,0.621
6190827,3148.0,3351.0,6840.0,0.73,0.287,-0.016,0.621
6190843,3148.0,3303.0,6908.0,0.73,0.287,-0.016,0.621
6190859,3134.0,3325.0,6864.0,0.73,0.287,-0.015,0.621
6190875,3112.0,3239.0,6834.0,0.73,0.287,-0.015,0.621
6190901,3130.0,3305.0,6844.0,0.73,0.287,-0.015,0.621
6190917,3100.0,3243.0,6848.0,0.73,0.287,-0.015,0.621
6190933,3146.0,3301.0,6874.0,0.73,0.287,-0.015,0.621
6190949,3136.0,3249.0,6860.0,0.729,0.287,-0.015,0.621
6190965,3152.0,3231.0,6866.0,0.729,0.288,-0.014,0.621
6190981,3126.0,3299.0,6864.0,0.729,0.288,-0.014,0.62
6191007,3132.0,3275.0,6880.0,0.729,0.288,-0.014,0.62
6191023,3118.0,3255.0,6870.0,0.729,0.288,-0.014,0.62
6191039,3120.0,3273.0,6870.0,0.729,0.288,-0.014,0.62
6191055,3146.0,3259.0,6878.0,0.729,0.288,-0.013,0.62
6191071,3128.0,3291.0,6844.0,0.729,0.288,-0.013,0.62
6191087,3148.0,3347.0,6842.0,0.729,0.289,-0.013,0.62
6191113,3100.0,3377.0,6870.0,0.729,0.289,-0.013,0.62
6191129,3104.0,3391.0,6828.0,0.729,0.289,-0.013,0.62
6191145,3128.0,3383.0,6844.0,0.729,0.289,-0.012,0.621
6191161,3098.0,3389.0,6826.0,0.729,0.289,-0.012,0.62
6191177,3082.0,3403.0,6810.0,0.729,0.289,-0.012,0.62
6191193,3096.0,3403.0,6840.0,0.729,0.289,-0.012,0.62
6191219,3106.0,3389.0,6786.0,0.729,0.289,-0.012,0.62
6191235,3136.0,3395.0,6834.0,0.729,0.289,-0.012,0.62
6191251,3110.0,3363.0,6870.0,0.729,0.29,-0.012,0.62
6191267,3108.0,3397.0,6824.0,0.729,0.29,-0.012,0.62
6191283,3090.0,3403.0,6838.0,0.729,0.29,-0.012,0.62
6191309,3124.0,3395.0,6848.0,0.729,0.29,-0.012,0.62
6191325,3150.0,3405.0,6836.0,0.729,0.29,-0.012,0.62
6191341,3186.0,3295.0,6884.0,0.729,0.289,-0.012,0.62
6191357,3162.0,3309.0,6900.0,0.729,0.289,-0.012,0.62
6191373,3170.0,3357.0,6828.0,0.729,0.289,-0.012,0.62
6191389,3130.0,3319.0,6838.0,0.729,0.289,-0.012,0.62
6191415,3128.0,3357.0,6866.0,0.729,0.289,-0.013,0.62
6191431,3116.0,3309.0,6838.0,0.729,0.289,-0.013,0.62
6191448,3082.0,3305.0,6800.0,0.729,0.289,-0.013,0.62
6191464,3094.0,3331.0,6854.0,0.729,0.289,-0.013,0.62
6191480,3124.0,3347.0,6868.0,0.729,0.289,-0.013,0.62
6191496,3160.0,3351.0,6900.0,0.729,0.289,-0.013,0.62
6191512,3148.0,3275.0,6858.0,0.729,0.289,-0.013,0.62
6191538,3148.0,3315.0,6826.0,0.729,0.289,-0.013,0.62
6191554,3190.0,3343.0,6820.0,0.729,0.289,-0.013,0.62
6191570,3102.0,3195.0,6892.0,0.729,0.289,-0.012,0.62
6191586,3044.0,3271.0,6832.0,0.729,0.289,-0.012,0.62
6191602,3234.0,3293.0,6860.0,0.729,0.29,-0.011,0.62
6191618,3160.0,3293.0,6700.0,0.729,0.29,-0.011,0.62
6191644,3486.0,3559.0,6710.0,0.729,0.29,-0.01,0.62
6191660,3266.0,3395.0,7068.0,0.729,0.289,-0.009,0.621
6191676,3122.0,2999.0,7312.0,0.728,0.289,-0.009,0.622
6191692,2832.0,2811.0,6798.0,0.727,0.289,-0.007,0.622
6191708,3018.0,3451.0,6780.0,0.726,0.29,-0.006,0.623
6191724,3074.0,3449.0,6754.0,0.725,0.291,-0.006,0.624
6191750,3238.0,3583.0,6982.0,0.724,0.291,-0.005,0.625
6191766,3212.0,3639.0,7218.0,0.724,0.291,-0.003,0.626
6191782,3128.0,3151.0,7128.0,0.723,0.291,-0.001,0.627
6191798,2954.0,3411.0,6758.0,0.722,0.291,0.002,0.628
6191814,2892.0,3451.0,6642.0,0.721,0.292,0.005,0.628
6191840,3176.0,3549.0,6780.0,0.72,0.293,0.007,0.63
6191856,3120.0,3397.0,6968.0,0.718,0.293,0.01,0.631
6191872,3006.0,3355.0,6898.0,0.716,0.293,0.013,0.633
6191888,2790.0,3349.0,6648.0,0.714,0.293,0.016,0.635
6191904,2920.0,3627.0,6896.0,0.712,0.293,0.019,0.637
6191920,2792.0,3593.0,6920.0,0.71,0.293,0.021,0.64
6191946,2718.0,3793.0,6786.0,0.708,0.293,0.024,0.642
6191962,2698.0,3859.0,6626.0,0.706,0.294,0.026,0.644
6191978,2762.0,3991.0,6594.0,0.705,0.294,0.027,0.645
6191994,2838.0,4059.0,6686.0,0.703,0.293,0.029,0.647
6192010,2804.0,3953.0,6760.0,0.702,0.293,0.03,0.648
6192026,2772.0,3757.0,6682.0,0.702,0.292,0.03,0.649
6192052,2760.0,3721.0,6742.0,0.701,0.291,0.031,0.65
6192068,2658.0,3697.0,6738.0,0.7,0.291,0.032,0.651
6192084,2758.0,3769.0,6696.0,0.699,0.291,0.032,0.652
6192100,2828.0,3795.0,6896.0,0.699,0.29,0.032,0.653
6192116,2696.0,3643.0,6922.0,0.698,0.289,0.032,0.654
6192132,2582.0,3607.0,6842.0,0.698,0.288,0.033,0.655
6192158,2640.0,3475.0,6788.0,0.697,0.288,0.033,0.656
6192174,2658.0,3591.0,6736.0,0.697,0.289,0.033,0.656
6192190,2782.0,3837.0,6706.0,0.697,0.289,0.033,0.656
6192206,2944.0,4033.0,6800.0,0.697,0.289,0.033,0.656
6192222,2914.0,3887.0,6930.0,0.697,0.288,0.032,0.656
6192238,2802.0,3713.0,6922.0,0.697,0.287,0.031,0.656
6192264,2684.0,3501.0,6892.0,0.697,0.286,0.031,0.656
6192280,2632.0,3515.0,6762.0,0.697,0.286,0.031,0.656
6192296,2744.0,3539.0,6714.0,0.697,0.286,0.031,0.656
6192312,2990.0,3597.0,6930.0,0.697,0.286,0.03,0.657
6192328,2866.0,3631.0,7060.0,0.697,0.285,0.03,0.657
6192344,2814.0,3617.0,6946.0,0.698,0.284,0.03,0.657
6192370,2606.0,3573.0,6768.0,0.698,0.284,0.03,0.657
6192386,2662.0,3511.0,6672.0,0.698,0.284,0.03,0.657
6192402,2644.0,3567.0,6910.0,0.698,0.283,0.03,0.657
6192418,2682.0,3501.0,6850.0,0.698,0.284,0.03,0.656
6192434,2790.0,3525.0,6902.0,0.699,0.284,0.03,0.656
6192450,3006.0,3563.0,7042.0,0.699,0.285,0.03,0.656
6192476,2902.0,3663.0,6994.0,0.699,0.285,0.031,0.655
6192492,2870.0,3497.0,6996.0,0.699,0.285,0.031,0.656
6192508,3096.0,3611.0,6742.0,0.698,0.285,0.032,0.656
6192524,3226.0,4221.0,7022.0,0.696,0.283,0.032,0.659
6192540,2402.0,2461.0,7138.0,0.694,0.28,0.031,0.663
6192556,2238.0,2257.0,7014.0,0.691,0.28,0.033,0.666
6192582,2386.0,2869.0,6802.0,0.687,0.282,0.035,0.669
6192598,2550.0,3461.0,6738.0,0.683,0.284,0.036,0.672
6192614,2644.0,3631.0,6676.0,0.68,0.287,0.038,0.674
6192630,2760.0,3877.0,6696.0,0.676,0.289,0.039,0.677
6192646,2764.0,4133.0,6624.0,0.674,0.291,0.039,0.678
6192672,3046.0,4523.0,6670.0,0.672,0.293,0.039,0.68
6192688,3114.0,4349.0,6794.0,0.67,0.294,0.039,0.681
6192704,3076.0,4093.0,6774.0,0.669,0.294,0.038,0.681
6192720,3008.0,3919.0,6784.0,0.669,0.293,0.037,0.682
6192736,2868.0,3721.0,6730.0,0.669,0.293,0.037,0.682
6192752,2838.0,3627.0,6684.0,0.669,0.293,0.036,0.682
6192778,2838.0,3505.0,6710.0,0.67,0.293,0.035,0.682
6192794,3132.0,3677.0,6756.0,0.669,0.293,0.034,0.682
6192810,3110.0,3747.0,7146.0,0.668,0.292,0.033,0.683
6192826,2886.0,3237.0,7038.0,0.668,0.292,0.032,0.684
6192842,2854.0,3365.0,6748.0,0.667,0.292,0.033,0.685
6192858,2838.0,3587.0,6526.0,0.666,0.293,0.033,0.686
6192884,2980.0,3979.0,6482.0,0.665,0.293,0.033,0.687
6192900,3080.0,3985.0,6916.0,0.663,0.293,0.032,0.688
6192916,2728.0,3343.0,7078.0,0.661,0.292,0.031,0.69
6192932,2932.0,3623.0,7252.0,0.66,0.293,0.031,0.691
6192948,3274.0,4147.0,7352.0,0.659,0.294,0.032,0.692
6192964,3504.0,4603.0,7300.0,0.658,0.295,0.033,0.692
6192990,3548.0,4707.0,7136.0,0.659,0.295,0.034,0.691
6193006,3404.0,4507.0,6962.0,0.661,0.293,0.035,0.69
6193022,3286.0,4205.0,6730.0,0.663,0.292,0.037,0.689
6193038,3098.0,3895.0,6432.0,0.665,0.291,0.039,0.687
6193054,3096.0,3907.0,6412.0,0.668,0.29,0.041,0.684
6193070,2890.0,3829.0,6376.0,0.67,0.29,0.043,0.682
6193096,2774.0,3951.0,6386.0,0.673,0.289,0.044,0.679
6193112,2526.0,3863.0,6354.0,0.676,0.289,0.046,0.676
6193128,2286.0,3899.0,6314.0,0.679,0.288,0.047,0.673
6193144,2072.0,4005.0,6272.0,0.682,0.289,0.047,0.67
6193160,1862.0,3383.0,5826.0,0.685,0.29,0.047,0.666
6193176,2872.0,4767.0,6720.0,0.688,0.292,0.047,0.662
6193202,2662.0,4345.0,7032.0,0.691,0.293,0.047,0.659
6193218,2456.0,4501.0,6798.0,0.694,0.293,0.046,0.656
6193234,2184.0,4425.0,6292.0,0.698,0.293,0.046,0.652
6193250,2130.0,4297.0,6020.0,0.702,0.293,0.044,0.648
6193266,2094.0,4217.0,5928.0,0.706,0.294,0.041,0.643
6193282,2292.0,3529.0,5938.0,0.71,0.295,0.037,0.639
6193308,2564.0,4223.0,6432.0,0.712,0.298,0.034,0.635
6193324,3416.0,5027.0,7260.0,0.716,0.298,0.03,0.631
6193340,3124.0,4239.0,7418.0,0.721,0.295,0.026,0.627
6193356,2736.0,3717.0,6932.0,0.726,0.292,0.023,0.622
6193372,2376.0,3359.0,6352.0,0.732,0.289,0.02,0.617
6193388,2984.0,4091.0,6414.0,0.738,0.287,0.014,0.611
6193414,3684.0,3547.0,7108.0,0.744,0.28,0.009,0.607
6193430,2362.0,1585.0,7148.0,0.749,0.276,0.005,0.603
6193446,3084.0,1989.0,7302.0,0.752,0.273,0.002,0.6
6193462,2982.0,2191.0,7294.0,0.755,0.272,-0.001,0.596
6193478,3048.0,2359.0,7210.0,0.758,0.271,-0.003,0.593
6193494,3288.0,2037.0,7634.0,0.761,0.271,-0.003,0.59
6193520,2804.0,2415.0,7096.0,0.763,0.271,-0.003,0.587
6193536,3154.0,2969.0,7124.0,0.764,0.273,-0.004,0.585
6193552,2930.0,3421.0,6972.0,0.765,0.274,-0.004,0.583
6193568,2834.0,3595.0,6922.0,0.766,0.275,-0.004,0.581
6193584,2650.0,3927.0,6860.0,0.767,0.276,-0.004,0.579
6193610,2584.0,4109.0,6838.0,0.769,0.276,-0.005,0.577
6193626,2540.0,4043.0,6778.0,0.771,0.276,-0.007,0.574
6193642,2526.0,3851.0,6778.0,0.773,0.275,-0.009,0.572
6193658,2556.0,3669.0,6800.0,0.775,0.274,-0.011,0.569
6193674,2774.0,3565.0,6890.0,0.777,0.275,-0.012,0.566
6193690,3332.0,4067.0,6898.0,0.779,0.276,-0.013,0.563
6193716,3572.0,4823.0,6710.0,0.781,0.277,-0.013,0.56
6193732,3298.0,5161.0,6830.0,0.783,0.277,-0.013,0.557
6193748,3334.0,5603.0,6858.0,0.787,0.274,-0.014,0.552
6193765,3414.0,5437.0,6906.0,0.792,0.27,-0.018,0.547
6193781,3486.0,4609.0,6602.0,0.799,0.264,-0.022,0.539
6193797,3174.0,3863.0,6232.0,0.807,0.257,-0.027,0.531
6193813,2740.0,3041.0,6160.0,0.814,0.249,-0.033,0.523
6193839,2236.0,2225.0,6446.0,0.822,0.244,-0.038,0.514
6193855,2230.0,2123.0,6780.0,0.829,0.239,-0.042,0.504
6193871,2244.0,2003.0,7062.0,0.836,0.235,-0.047,0.493
6193887,1888.0,1491.0,7076.0,0.844,0.229,-0.053,0.482
6193904,1822.0,875.0,7100.0,0.852,0.223,-0.06,0.47
6193920,1968.0,319.0,7252.0,0.859,0.216,-0.068,0.459
6193946,2114.0,-819.0,7506.0,0.865,0.209,-0.078,0.45
6193962,2458.0,-1467.0,7924.0,0.868,0.205,-0.086,0.443
6193978,3160.0,-1293.0,8244.0,0.869,0.205,-0.093,0.44
6193994,4284.0,-263.0,8568.0,0.869,0.208,-0.097,0.439
6194010,4852.0,425.0,8674.0,0.867,0.21,-0.097,0.441
6194026,4296.0,347.0,8216.0,0.865,0.215,-0.093,0.444
6194052,3638.0,1059.0,7498.0,0.862,0.221,-0.086,0.448
6194068,3352.0,2311.0,6962.0,0.859,0.23,-0.078,0.451
6194084,3182.0,3725.0,6672.0,0.856,0.237,-0.07,0.455
6194100,2928.0,4581.0,6600.0,0.853,0.241,-0.065,0.457
6194116,2692.0,4699.0,6624.0,0.852,0.243,-0.061,0.46
6194142,2546.0,4415.0,6802.0,0.851,0.243,-0.06,0.461
6194158,2612.0,4001.0,6930.0,0.851,0.242,-0.059,0.462
6194174,2586.0,3667.0,7050.0,0.851,0.242,-0.06,0.462
6194190,2546.0,3521.0,7142.0,0.851,0.241,-0.06,0.462
6194206,2418.0,3387.0,7208.0,0.851,0.239,-0.06,0.463
6194222,2330.0,3107.0,7284.0,0.852,0.238,-0.061,0.463
6194238,2272.0,2983.0,7248.0,0.852,0.237,-0.061,0.463
6194264,2250.0,2917.0,7220.0,0.852,0.237,-0.061,0.463
6194280,2272.0,3137.0,7170.0,0.851,0.238,-0.061,0.464
6194296,2170.0,3383.0,7116.0,0.851,0.238,-0.061,0.464
6194312,2230.0,3633.0,7122.0,0.851,0.239,-0.061,0.464
6194328,2384.0,3601.0,7120.0,0.851,0.24,-0.062,0.463
6194344,2480.0,3333.0,7046.0,0.851,0.24,-0.063,0.463
6194370,2662.0,3045.0,6992.0,0.851,0.239,-0.065,0.463
6194386,2750.0,2703.0,7008.0,0.851,0.238,-0.067,0.463
6194402,2918.0,2525.0,7086.0,0.851,0.237,-0.069,0.463
6194418,3064.0,2335.0,7068.0,0.852,0.235,-0.071,0.463
6194434,3070.0,1937.0,7080.0,0.852,0.233,-0.074,0.463
6194450,3158.0,1505.0,7014.0,0.852,0.23,-0.078,0.464
6194476,3254.0,1115.0,7020.0,0.852,0.227,-0.081,0.464
6194492,3464.0,829.0,7146.0,0.852,0.225,-0.084,0.465
6194508,3698.0,957.0,7484.0,0.851,0.223,-0.087,0.467
6194524,3912.0,1253.0,7756.0,0.85,0.222,-0.089,0.469
6194540,3922.0,1585.0,7982.0,0.849,0.221,-0.09,0.472
6194556,3720.0,1941.0,8054.0,0.847,0.221,-0.09,0.475
6194582,3384.0,2173.0,7946.0,0.845,0.221,-0.088,0.478
6194598,2914.0,2381.0,7628.0,0.844,0.222,-0.086,0.481
6194614,2646.0,2625.0,7368.0,0.842,0.223,-0.083,0.484
6194630,2536.0,2885.0,7082.0,0.84,0.225,-0.08,0.486
6194646,2404.0,3171.0,6926.0,0.839,0.227,-0.077,0.488
6194672,2426.0,3385.0,6858.0,0.838,0.229,-0.074,0.49
6194688,2510.0,3643.0,6898.0,0.836,0.232,-0.072,0.491
6194704,2646.0,3887.0,7124.0,0.836,0.233,-0.071,0.492
6194720,2806.0,3987.0,7506.0,0.835,0.234,-0.07,0.494
6194736,2858.0,3697.0,7740.0,0.834,0.233,-0.07,0.495
6194752,3012.0,3277.0,7812.0,0.834,0.231,-0.07,0.496
6194778,2884.0,2951.0,7632.0,0.834,0.23,-0.069,0.497
6194794,2716.0,2539.0,7452.0,0.834,0.229,-0.069,0.498
6194810,2542.0,2335.0,7178.0,0.833,0.229,-0.069,0.498
6194826,2436.0,2201.0,6922.0,0.833,0.229,-0.069,0.499
6194842,2464.0,2009.0,6772.0,0.833,0.229,-0.07,0.499
6194858,2578.0,1861.0,6820.0,0.833,0.229,-0.07,0.499
6194884,2650.0,2009.0,7022.0,0.832,0.231,-0.07,0.499
6194900,2676.0,2527.0,7188.0,0.832,0.233,-0.07,0.499
6194916,2404.0,2781.0,6900.0,0.831,0.237,-0.069,0.498
6194937,2192.0,2779.0,6144.0,0.83,0.241,-0.068,0.497
6194953,2188.0,2807.0,5382.0,0.829,0.245,-0.069,0.497
6194969,2398.0,3031.0,5140.0,0.828,0.249,-0.07,0.497
6194985,2584.0,3451.0,5426.0,0.827,0.251,-0.074,0.497
6195002,2928.0,3385.0,5926.0,0.827,0.25,-0.08,0.498
6195018,3846.0,3275.0,6790.0,0.827,0.246,-0.088,0.498
6195034,4434.0,3247.0,7784.0,0.827,0.241,-0.096,0.499
6195060,5050.0,3415.0,8968.0,0.828,0.234,-0.103,0.499
6195076,4830.0,2949.0,9452.0,0.83,0.225,-0.11,0.499
6195092,4488.0,1579.0,9464.0,0.832,0.215,-0.115,0.499
6195108,4174.0,431.0,8904.0,0.833,0.207,-0.118,0.499
6195124,3594.0,-445.0,8128.0,0.833,0.202,-0.117,0.501
6195150,2988.0,-345.0,7046.0,0.833,0.201,-0.114,0.503
6195166,2848.0,757.0,6294.0,0.832,0.203,-0.111,0.505
6195182,2564.0,1509.0,5938.0,0.83,0.205,-0.109,0.507
6195198,2444.0,1949.0,5836.0,0.829,0.206,-0.108,0.508
6195214,2748.0,2271.0,6300.0,0.828,0.207,-0.109,0.51
6195230,2962.0,2397.0,7020.0,0.827,0.207,-0.111,0.511
6195247,3136.0,2403.0,7566.0,0.826,0.206,-0.114,0.512
6195273,3398.0,2181.0,7888.0,0.826,0.205,-0.116,0.513
6195289,3562.0,2005.0,8016.0,0.825,0.203,-0.119,0.514
6195305,3656.0,1703.0,8088.0,0.824,0.201,-0.122,0.516
6195321,3604.0,1377.0,8024.0,0.823,0.199,-0.124,0.518
6195337,3622.0,1259.0,7888.0,0.822,0.197,-0.125,0.519
6195354,3748.0,1397.0,7772.0,0.821,0.197,-0.125,0.521
6195380,3790.0,1473.0,7438.0,0.82,0.198,-0.125,0.522
6195396,3744.0,1323.0,7116.0,0.819,0.199,-0.124,0.524
6195412,3680.0,1259.0,6844.0,0.818,0.202,-0.122,0.525
6195428,3442.0,1779.0,6822.0,0.816,0.205,-0.12,0.526
6195445,3444.0,2331.0,6986.0,0.815,0.208,-0.118,0.527
6195461,3234.0,2535.0,7096.0,0.814,0.21,-0.117,0.528
6195487,3236.0,2397.0,7160.0,0.814,0.212,-0.116,0.529
6195503,3266.0,2393.0,7216.0,0.813,0.212,-0.116,0.53
6195519,3230.0,2011.0,7260.0,0.812,0.211,-0.116,0.532
6195535,3292.0,1731.0,7402.0,0.811,0.21,-0.117,0.533
6195551,3372.0,1535.0,7468.0,0.81,0.21,-0.117,0.535
6195567,3512.0,1429.0,7564.0,0.809,0.21,-0.118,0.537
6195583,3604.0,1543.0,7550.0,0.807,0.21,-0.117,0.539
6195609,3640.0,1611.0,7422.0,0.806,0.212,-0.116,0.54
6195625,3632.0,1671.0,7238.0,0.805,0.213,-0.115,0.542
6195641,3546.0,1833.0,7086.0,0.804,0.216,-0.114,0.543
6195658,3500.0,1867.0,7110.0,0.803,0.218,-0.112,0.544
6195674,3484.0,1921.0,7126.0,0.801,0.221,-0.11,0.545
6195690,3520.0,2253.0,7172.0,0.8,0.225,-0.108,0.545
6195716,3564.0,2635.0,7342.0,0.8,0.228,-0.106,0.546
6195732,3650.0,2877.0,7526.0,0.799,0.231,-0.104,0.546
6195749,3682.0,2941.0,7562.0,0.799,0.233,-0.102,0.545
6195765,3686.0,3007.0,7304.0,0.799,0.236,-0.099,0.544
6195781,3514.0,3015.0,7018.0,0.799,0.24,-0.096,0.543
6195797,3348.0,3131.0,6794.0,0.799,0.243,-0.093,0.542
6195813,3238.0,3257.0,6658.0,0.8,0.247,-0.09,0.539
6195839,3192.0,3327.0,6502.0,0.801,0.25,-0.088,0.537
6195856,3084.0,3295.0,6566.0,0.802,0.252,-0.086,0.535
6195872,3074.0,3157.0,6772.0,0.803,0.253,-0.086,0.533
6195888,3042.0,2847.0,7006.0,0.805,0.252,-0.087,0.531
6195904,3150.0,2323.0,7212.0,0.806,0.25,-0.089,0.529
6195920,3162.0,1715.0,7306.0,0.807,0.247,-0.091,0.528
6195946,3172.0,1155.0,7272.0,0.808,0.243,-0.094,0.528
6195963,3318.0,707.0,7314.0,0.808,0.239,-0.097,0.529
6195979,3488.0,373.0,7280.0,0.808,0.236,-0.099,0.531
6195995,3634.0,231.0,7296.0,0.807,0.234,-0.102,0.533
6196011,3858.0,321.0,7402.0,0.805,0.233,-0.103,0.535
6196027,3964.0,577.0,7436.0,0.803,0.234,-0.103,0.538
6196043,4014.0,1243.0,7392.0,0.801,0.236,-0.101,0.54
6196069,3988.0,1943.0,7330.0,0.799,0.24,-0.099,0.542
6196085,3960.0,2573.0,7216.0,0.797,0.244,-0.095,0.544
6196101,3802.0,3035.0,6980.0,0.795,0.249,-0.091,0.545
6196117,3552.0,3585.0,6724.0,0.794,0.255,-0.087,0.546
6196133,3480.0,4161.0,6514.0,0.792,0.26,-0.082,0.546
6196149,3288.0,4585.0,6474.0,0.792,0.265,-0.078,0.545
6196176,3118.0,4647.0,6432.0,0.792,0.268,-0.075,0.544
6196192,3004.0,4317.0,6470.0,0.792,0.269,-0.074,0.543
6196208,2988.0,3841.0,6586.0,0.793,0.268,-0.074,0.542
6196225,3020.0,3293.0,6830.0,0.794,0.266,-0.075,0.541
6196241,3096.0,2805.0,7114.0,0.796,0.264,-0.076,0.54
6196257,3184.0,2241.0,7294.0,0.797,0.261,-0.078,0.539
6196273,3290.0,1801.0,7378.0,0.797,0.259,-0.08,0.539
6196299,3330.0,1463.0,7358.0,0.798,0.257,-0.082,0.54
6196315,3412.0,1429.0,7316.0,0.797,0.256,-0.082,0.54
6196331,3450.0,1603.0,7164.0,0.797,0.257,-0.082,0.541
6196349,3500.0,1987.0,7068.0,0.796,0.258,-0.081,0.542
6196365,3608.0,2445.0,6942.0,0.795,0.26,-0.08,0.542
6196381,3658.0,2899.0,6884.0,0.794,0.262,-0.078,0.543
6196397,3632.0,3243.0,6840.0,0.793,0.264,-0.077,0.543
6196423,3600.0,3471.0,6874.0,0.793,0.266,-0.075,0.544
6196439,3500.0,3577.0,6836.0,0.792,0.267,-0.074,0.544
6196455,3490.0,3517.0,6780.0,0.792,0.267,-0.074,0.544
6196471,3390.0,3311.0,6846.0,0.792,0.267,-0.074,0.544
6196487,3356.0,3043.0,6894.0,0.793,0.266,-0.074,0.544
6196503,3264.0,2711.0,6948.0,0.793,0.265,-0.074,0.544
6196529,3262.0,2541.0,7016.0,0.793,0.265,-0.074,0.544
6196545,3238.0,2469.0,7024.0,0.793,0.264,-0.074,0.544
6196561,3218.0,2481.0,7100.0,0.793,0.264,-0.075,0.544
6196577,3210.0,2373.0,7136.0,0.793,0.264,-0.075,0.544
6196593,3300.0,2405.0,7024.0,0.793,0.263,-0.076,0.544
6196619,3310.0,2515.0,7004.0,0.793,0.263,-0.076,0.544
6196635,3422.0,2639.0,6954.0,0.793,0.264,-0.076,0.544
6196651,3444.0,2721.0,6978.0,0.793,0.264,-0.076,0.544
6196667,3444.0,2885.0,6976.0,0.792,0.264,-0.077,0.545
6196683,3456.0,2931.0,6942.0,0.792,0.264,-0.077,0.545
6196699,3512.0,2953.0,6900.0,0.792,0.264,-0.077,0.545
6196725,3478.0,2955.0,6948.0,0.792,0.265,-0.076,0.545
6196741,3418.0,2997.0,6852.0,0.792,0.265,-0.076,0.545
6196757,3368.0,2987.0,6850.0,0.792,0.265,-0.076,0.545
6196773,3356.0,3009.0,6916.0,0.792,0.265,-0.076,0.545
6196789,3296.0,2953.0,6982.0,0.792,0.265,-0.076,0.545
6196805,3304.0,2841.0,7008.0,0.792,0.265,-0.076,0.545
6196831,3258.0,2665.0,7024.0,0.792,0.265,-0.076,0.544
6196847,3324.0,2569.0,6996.0,0.793,0.264,-0.076,0.544
6196863,3334.0,2519.0,7028.0,0.793,0.264,-0.076,0.544
6196879,3398.0,2451.0,6988.0,0.793,0.264,-0.076,0.544
6196895,3454.0,2563.0,6974.0,0.792,0.265,-0.076,0.544
6196911,3446.0,2641.0,6970.0,0.792,0.265,-0.075,0.545
6196937,3482.0,2853.0,6936.0,0.792,0.265,-0.075,0.545
6196953,3480.0,2877.0,6904.0,0.792,0.266,-0.075,0.545
6196969,3450.0,2903.0,6892.0,0.792,0.266,-0.075,0.545
6196985,3466.0,2847.0,6972.0,0.792,0.265,-0.075,0.545
6197001,3404.0,2731.0,7012.0,0.792,0.265,-0.075,0.545
6197017,3432.0,2759.0,6972.0,0.792,0.265,-0.075,0.545
6197043,3362.0,2761.0,6944.0,0.791,0.266,-0.075,0.545
6197059,3362.0,2899.0,6918.0,0.791,0.266,-0.075,0.546
6197075,3314.0,2883.0,6972.0,0.791,0.266,-0.075,0.546
6197091,3324.0,2841.0,6942.0,0.791,0.266,-0.075,0.546
6197107,3296.0,2849.0,6936.0,0.791,0.265,-0.075,0.545
6197123,3288.0,2793.0,7010.0,0.791,0.265,-0.076,0.545
6197149,3336.0,2699.0,7024.0,0.792,0.265,-0.076,0.546
6197165,3408.0,2643.0,7024.0,0.792,0.265,-0.076,0.546
6197181,3440.0,2681.0,6946.0,0.791,0.265,-0.076,0.546
6197197,3474.0,2659.0,6968.0,0.791,0.265,-0.076,0.546
6197213,3464.0,2717.0,7010.0,0.791,0.265,-0.076,0.546
6197229,3474.0,2759.0,7006.0,0.791,0.265,-0.076,0.546
6197255,3414.0,2775.0,6950.0,0.791,0.265,-0.076,0.546
6197271,3448.0,2799.0,6950.0,0.791,0.265,-0.076,0.546
6197287,3380.0,2795.0,6954.0,0.791,0.265,-0.076,0.546
6197303,3430.0,2819.0,6928.0,0.791,0.266,-0.075,0.546
6197319,3410.0,2809.0,6914.0,0.791,0.266,-0.075,0.546
6197335,3396.0,2791.0,6940.0,0.791,0.266,-0.075,0.546
6197361,3372.0,2697.0,6958.0,0.791,0.266,-0.075,0.546
6197377,3388.0,2663.0,7006.0,0.791,0.266,-0.075,0.546
6197393,3382.0,2771.0,6982.0,0.791,0.266,-0.074,0.546
6197409,3404.0,2759.0,6964.0,0.791,0.266,-0.074,0.546
6197425,3394.0,2865.0,6984.0,0.791,0.267,-0.074,0.546
6197451,3328.0,2861.0,6960.0,0.791,0.267,-0.074,0.546
6197467,3312.0,2825.0,6932.0,0.791,0.267,-0.074,0.546
6197483,3340.0,2841.0,6950.0,0.791,0.267,-0.074,0.546
6197499,3374.0,2795.0,7006.0,0.791,0.267,-0.074,0.546
6197515,3420.0,2845.0,7012.0,0.791,0.267,-0.074,0.546
6197531,3394.0,2871.0,6950.0,0.791,0.267,-0.074,0.546
6197557,3426.0,2953.0,6940.0,0.791,0.267,-0.074,0.546
6197573,3390.0,2861.0,6958.0,0.791,0.267,-0.074,0.546
6197589,3396.0,2867.0,6974.0,0.791,0.267,-0.074,0.546
6197605,3372.0,2785.0,6980.0,0.791,0.266,-0.074,0.546
6197621,3404.0,2667.0,7042.0,0.791,0.266,-0.075,0.546
6197637,3402.0,2641.0,6972.0,0.791,0.266,-0.075,0.546
6197663,3420.0,2737.0,6926.0,0.791,0.266,-0.074,0.546
6197679,3416.0,2897.0,6888.0,0.791,0.267,-0.074,0.546
6197695,3388.0,2973.0,6934.0,0.791,0.267,-0.074,0.546
6197711,3364.0,2823.0,6948.0,0.791,0.266,-0.074,0.546
6197727,3384.0,2751.0,6962.0,0.791,0.266,-0.074,0.546
6197743,3364.0,2677.0,6968.0,0.791,0.266,-0.074,0.546
6197769,3388.0,2701.0,7030.0,0.791,0.266,-0.074,0.546
6197785,3360.0,2695.0,7010.0,0.791,0.266,-0.074,0.546
6197801,3370.0,2719.0,6976.0,0.791,0.266,-0.074,0.546
6197817,3364.0,2755.0,6956.0,0.791,0.266,-0.074,0.546
6197833,3396.0,2751.0,6968.0,0.791,0.266,-0.074,0.546
6197849,3398.0,2837.0,6976.0,0.791,0.266,-0.074,0.546
6197875,3432.0,2797.0,6974.0,0.791,0.266,-0.074,0.546
6197891,3452.0,2791.0,6986.0,0.791,0.266,-0.074,0.546
6197907,3362.0,2707.0,6982.0,0.791,0.266,-0.074,0.546
6197923,3416.0,2775.0,6946.0,0.791,0.266,-0.074,0.546
6197939,3384.0,2841.0,6980.0,0.791,0.266,-0.074,0.546
6197955,3402.0,2807.0,6986.0,0.791,0.266,-0.074,0.546
6197981,3404.0,2769.0,6956.0,0.791,0.266,-0.074,0.546
6197997,3294.0,2763.0,6968.0,0.791,0.266,-0.074,0.546
6198013,3348.0,2759.0,6974.0,0.791,0.266,-0.074,0.546
6198029,3338.0,2785.0,6980.0,0.79,0.267,-0.074,0.546
6198045,3376.0,2775.0,6954.0,0.79,0.267,-0.074,0.547
6198061,3336.0,2763.0,6952.0,0.79,0.267,-0.074,0.547
6198087,3412.0,2809.0,6988.0,0.79,0.267,-0.073,0.547
6198103,3412.0,2809.0,6942.0,0.79,0.267,-0.073,0.547
6198119,3374.0,2821.0,6952.0,0.79,0.267,-0.073,0.547
6198135,3358.0,2809.0,6928.0,0.79,0.267,-0.073,0.547
6198151,3382.0,2851.0,6974.0,0.79,0.267,-0.073,0.547
6198167,3362.0,2891.0,7002.0,0.79,0.267,-0.073,0.547
6198193,3374.0,2821.0,6970.0,0.79,0.267,-0.073,0.547
6198209,3410.0,2823.0,6978.0,0.79,0.267,-0.073,0.547
6198225,3380.0,2809.0,7002.0,0.79,0.267,-0.074,0.547
6198241,3382.0,2727.0,6964.0,0.79,0.267,-0.074,0.547
6198257,3392.0,2721.0,6952.0,0.79,0.267,-0.074,0.547
6198283,3436.0,2701.0,7002.0,0.79,0.267,-0.074,0.547
6198299,3372.0,2751.0,6910.0,0.79,0.267,-0.074,0.547
6198315,3412.0,2843.0,6940.0,0.79,0.267,-0.074,0.547
6198331,3366.0,2859.0,6964.0,0.79,0.267,-0.074,0.547
6198347,3402.0,2869.0,6954.0,0.79,0.267,-0.074,0.547
6198363,3414.0,2771.0,6978.0,0.79,0.267,-0.074,0.547
6198389,3412.0,2755.0,6938.0,0.79,0.267,-0.074,0.547
6198405,3332.0,2793.0,6980.0,0.79,0.267,-0.074,0.547
6198421,3330.0,2757.0,6992.0,0.79,0.267,-0.074,0.547
6198437,3368.0,2835.0,7004.0,0.79,0.267,-0.074,0.547
6198453,3368.0,2819.0,6910.0,0.79,0.267,-0.074,0.547
6198469,3370.0,2875.0,6910.0,0.79,0.267,-0.074,0.547
6198495,3368.0,2847.0,6964.0,0.79,0.267,-0.074,0.547
6198511,3416.0,2781.0,6952.0,0.79,0.266,-0.074,0.547
