timeMs,ax,ay,az,q0,q1,q2,q3
259381,-4352.0,-5902.0,-1902.0,0.147,-0.564,-0.538,0.61
259397,-4268.0,-6868.0,-1690.0,0.142,-0.563,-0.532,0.616
259423,-4068.0,-7512.0,-1402.0,0.137,-0.563,-0.527,0.622
259439,-4496.0,-7186.0,-906.0,0.132,-0.562,-0.523,0.628
259456,-4486.0,-6562.0,-858.0,0.125,-0.56,-0.52,0.633
259472,-4302.0,-7398.0,-896.0,0.116,-0.559,-0.518,0.637
259488,-4056.0,-6860.0,-838.0,0.108,-0.557,-0.515,0.642
259505,-3980.0,-6180.0,-942.0,0.099,-0.555,-0.514,0.647
259521,-3858.0,-6058.0,-1238.0,0.09,-0.553,-0.513,0.651
259538,-3940.0,-6134.0,-1792.0,0.08,-0.55,-0.512,0.654
259565,-4474.0,-5248.0,-1702.0,0.072,-0.548,-0.509,0.66
259582,-3988.0,-5768.0,-1306.0,0.065,-0.546,-0.507,0.664
259599,-4186.0,-5616.0,-818.0,0.058,-0.543,-0.503,0.67
259615,-4202.0,-5246.0,-764.0,0.052,-0.541,-0.5,0.674
259632,-4198.0,-5880.0,-136.0,0.045,-0.539,-0.498,0.678
259649,-4674.0,-4450.0,-1124.0,0.039,-0.536,-0.496,0.682
259666,-4584.0,-5286.0,-566.0,0.034,-0.533,-0.493,0.687
259683,-4638.0,-4326.0,-592.0,0.029,-0.53,-0.491,0.691
259700,-4742.0,-4034.0,-308.0,0.024,-0.526,-0.489,0.696
259716,-4708.0,-4276.0,-218.0,0.022,-0.521,-0.487,0.7
259733,-4426.0,-4288.0,164.0,0.02,-0.516,-0.487,0.704
259750,-4328.0,-3980.0,56.0,0.018,-0.511,-0.488,0.708
259776,-4444.0,-4596.0,-46.0,0.018,-0.505,-0.49,0.71
259793,-4632.0,-5158.0,-52.0,0.019,-0.5,-0.491,0.713
259810,-4892.0,-3374.0,106.0,0.021,-0.495,-0.493,0.715
259826,-4928.0,-3518.0,-172.0,0.022,-0.49,-0.496,0.717
259843,-4734.0,-5618.0,-540.0,0.025,-0.485,-0.497,0.719
259860,-4830.0,-6110.0,-238.0,0.032,-0.479,-0.496,0.723
259877,-5252.0,-4420.0,546.0,0.04,-0.474,-0.495,0.727
259894,-5166.0,-4024.0,470.0,0.049,-0.468,-0.493,0.732
259911,-5542.0,-5248.0,274.0,0.057,-0.462,-0.489,0.738
259928,-4852.0,-3918.0,712.0,0.067,-0.455,-0.484,0.745
259955,-4292.0,-5206.0,568.0,0.077,-0.448,-0.477,0.752
259971,-4242.0,-4866.0,386.0,0.087,-0.441,-0.469,0.761
259988,-3836.0,-4208.0,70.0,0.096,-0.433,-0.464,0.767
260005,-3234.0,-4522.0,624.0,0.105,-0.426,-0.459,0.773
260022,-2624.0,-6312.0,1900.0,0.115,-0.42,-0.451,0.779
260038,-1046.0,-7326.0,5938.0,0.126,-0.416,-0.439,0.786
260054,-3622.0,-4298.0,7132.0,0.134,-0.415,-0.427,0.792
260071,-4190.0,-5974.0,4586.0,0.141,-0.414,-0.417,0.797
260088,-4466.0,-7800.0,3542.0,0.15,-0.413,-0.403,0.803
260104,-4722.0,-4564.0,3652.0,0.159,-0.41,-0.387,0.811
260131,-5290.0,-5180.0,4148.0,0.165,-0.406,-0.375,0.817
260148,-4562.0,-3746.0,3670.0,0.17,-0.401,-0.366,0.822
260165,-4904.0,-2844.0,3152.0,0.175,-0.395,-0.36,0.827
260182,-5254.0,-4956.0,5252.0,0.178,-0.39,-0.353,0.832
260199,-5714.0,-5766.0,6046.0,0.18,-0.384,-0.345,0.838
260216,-6356.0,-6266.0,4346.0,0.18,-0.378,-0.336,0.844
260232,-4302.0,-7132.0,5136.0,0.181,-0.372,-0.325,0.85
260249,-4584.0,-5948.0,4410.0,0.182,-0.367,-0.314,0.857
260265,-4568.0,-7118.0,5152.0,0.183,-0.362,-0.298,0.864
260281,-4944.0,-5990.0,5240.0,0.186,-0.356,-0.276,0.873
260308,-5276.0,-5290.0,6116.0,0.188,-0.35,-0.252,0.882
260325,-5508.0,-5476.0,7980.0,0.189,-0.344,-0.228,0.891
260342,-5226.0,-5722.0,8122.0,0.189,-0.338,-0.205,0.899
260358,-5444.0,-5498.0,7056.0,0.187,-0.332,-0.182,0.906
260375,-5954.0,-6726.0,8376.0,0.185,-0.328,-0.154,0.914
260391,-8020.0,-7384.0,10424.0,0.179,-0.326,-0.114,0.921
260408,-2654.0,-4188.0,8596.0,0.169,-0.322,-0.079,0.928
260424,-3218.0,-3324.0,6478.0,0.158,-0.316,-0.057,0.934
260450,-4722.0,-1684.0,4116.0,0.147,-0.308,-0.039,0.939
260466,-3184.0,2590.0,462.0,0.143,-0.296,-0.018,0.944
260482,-3510.0,3588.0,5508.0,0.139,-0.284,0.003,0.949
260498,-6456.0,1840.0,11392.0,0.138,-0.272,0.032,0.952
260514,-4506.0,4468.0,9622.0,0.135,-0.262,0.056,0.954
260530,-3318.0,3912.0,8450.0,0.13,-0.255,0.065,0.956
260556,-4466.0,1812.0,7216.0,0.126,-0.248,0.07,0.958
260572,-3200.0,-36.0,7488.0,0.124,-0.242,0.077,0.959
260588,-3594.0,1082.0,8296.0,0.123,-0.236,0.09,0.96
260604,-3182.0,2640.0,8264.0,0.123,-0.229,0.101,0.96
260621,-3284.0,2052.0,8828.0,0.121,-0.223,0.109,0.961
260638,-3264.0,1324.0,8124.0,0.12,-0.216,0.115,0.962
260654,-3288.0,2308.0,7716.0,0.118,-0.21,0.12,0.963
260680,-2576.0,1598.0,7710.0,0.117,-0.202,0.125,0.964
260696,-2774.0,2034.0,7772.0,0.115,-0.195,0.129,0.965
260712,-2934.0,1966.0,7720.0,0.114,-0.187,0.133,0.967
260728,-2278.0,1626.0,7346.0,0.114,-0.177,0.137,0.968
260744,-2414.0,2964.0,7266.0,0.114,-0.167,0.14,0.969
260760,-1684.0,3096.0,7652.0,0.113,-0.155,0.14,0.971
260786,-1872.0,2936.0,9064.0,0.113,-0.144,0.14,0.973
260803,-1758.0,1998.0,10852.0,0.113,-0.135,0.143,0.974
260820,-1560.0,1154.0,13834.0,0.114,-0.131,0.153,0.973
260837,-2784.0,2186.0,15210.0,0.115,-0.134,0.17,0.969
260854,-4452.0,5950.0,13042.0,0.117,-0.141,0.183,0.966
260871,-4430.0,6250.0,9980.0,0.117,-0.149,0.184,0.964
260888,-3170.0,2958.0,7208.0,0.117,-0.157,0.181,0.964
260904,-2642.0,1450.0,5504.0,0.117,-0.162,0.177,0.964
260921,-2896.0,872.0,4792.0,0.118,-0.165,0.174,0.964
260947,-2576.0,504.0,5380.0,0.121,-0.165,0.174,0.963
260963,-2228.0,1578.0,6768.0,0.126,-0.162,0.178,0.962
260979,-2250.0,1534.0,7072.0,0.128,-0.157,0.181,0.962
260995,-1240.0,798.0,7312.0,0.13,-0.153,0.185,0.962
261011,-1214.0,788.0,7476.0,0.132,-0.15,0.193,0.961
261027,-1838.0,1872.0,8082.0,0.135,-0.148,0.204,0.958
261043,-2140.0,3338.0,8314.0,0.137,-0.149,0.215,0.955
261069,-2320.0,3432.0,8332.0,0.137,-0.15,0.224,0.953
261085,-3432.0,3238.0,7734.0,0.136,-0.152,0.23,0.952
261101,-2496.0,3030.0,7290.0,0.134,-0.154,0.232,0.951
261117,-3460.0,2870.0,7330.0,0.132,-0.156,0.232,0.951
261133,-3344.0,2926.0,6832.0,0.131,-0.157,0.231,0.951
261150,-3338.0,2482.0,7232.0,0.13,-0.159,0.229,0.952
261176,-3304.0,2900.0,7716.0,0.129,-0.16,0.228,0.952
261192,-3540.0,3492.0,8010.0,0.129,-0.162,0.229,0.951
261208,-3556.0,4030.0,8006.0,0.127,-0.163,0.229,0.951
261224,-3658.0,3102.0,7588.0,0.125,-0.165,0.229,0.951
261240,-3526.0,2042.0,7298.0,0.123,-0.166,0.229,0.951
261256,-3392.0,1964.0,6996.0,0.121,-0.167,0.231,0.951
261282,-3752.0,2052.0,7054.0,0.119,-0.168,0.233,0.951
261298,-3820.0,2372.0,6918.0,0.116,-0.168,0.233,0.951
261314,-3984.0,2290.0,7072.0,0.113,-0.169,0.232,0.951
261330,-3994.0,2864.0,7246.0,0.11,-0.169,0.231,0.952
261346,-3790.0,3036.0,7420.0,0.107,-0.168,0.228,0.953
261362,-2980.0,2582.0,7298.0,0.104,-0.168,0.224,0.954
261388,-3478.0,2552.0,8034.0,0.101,-0.167,0.221,0.955
261404,-2556.0,3362.0,7672.0,0.099,-0.166,0.22,0.956
261421,-2872.0,3572.0,7556.0,0.097,-0.165,0.219,0.957
261438,-2576.0,3378.0,7390.0,0.095,-0.165,0.218,0.957
261455,-2112.0,3294.0,6744.0,0.093,-0.164,0.217,0.958
261471,-2640.0,2778.0,6830.0,0.092,-0.164,0.218,0.958
261487,-2490.0,3188.0,6794.0,0.091,-0.164,0.219,0.957
261504,-2594.0,3426.0,6776.0,0.091,-0.164,0.221,0.957
261521,-2534.0,3600.0,6920.0,0.09,-0.164,0.223,0.957
261547,-2678.0,3716.0,7010.0,0.089,-0.164,0.224,0.956
261563,-2860.0,3816.0,7124.0,0.089,-0.164,0.225,0.956
261579,-2860.0,3780.0,7256.0,0.088,-0.164,0.226,0.956
261595,-2922.0,3566.0,7238.0,0.088,-0.164,0.225,0.956
261611,-2852.0,3492.0,7236.0,0.087,-0.164,0.225,0.957
261627,-2670.0,3208.0,7344.0,0.086,-0.164,0.225,0.957
261653,-2450.0,2528.0,7578.0,0.086,-0.164,0.224,0.957
261669,-2838.0,3264.0,7620.0,0.085,-0.164,0.225,0.957
261685,-2828.0,3446.0,7404.0,0.085,-0.164,0.225,0.957
261702,-2756.0,3222.0,7412.0,0.084,-0.165,0.225,0.957
261718,-2872.0,3200.0,7354.0,0.083,-0.165,0.226,0.957
261734,-2892.0,3238.0,7292.0,0.082,-0.165,0.226,0.957
261760,-2866.0,3248.0,7344.0,0.082,-0.165,0.225,0.957
261776,-2854.0,2874.0,7546.0,0.081,-0.166,0.224,0.957
261792,-2870.0,3048.0,7512.0,0.081,-0.166,0.222,0.957
261808,-3106.0,3396.0,7356.0,0.08,-0.166,0.22,0.958
261824,-2846.0,3024.0,7102.0,0.079,-0.166,0.217,0.959
261840,-2950.0,3054.0,6930.0,0.078,-0.166,0.217,0.959
261866,-2946.0,3442.0,6856.0,0.078,-0.166,0.217,0.959
261882,-3000.0,3192.0,7050.0,0.077,-0.166,0.217,0.959
261898,-2900.0,2964.0,7176.0,0.077,-0.166,0.217,0.959
261914,-2886.0,2964.0,7184.0,0.076,-0.166,0.217,0.959
261930,-2836.0,3090.0,7200.0,0.076,-0.166,0.217,0.959
261946,-2788.0,3218.0,7278.0,0.076,-0.166,0.217,0.959
261972,-2776.0,3128.0,7264.0,0.076,-0.166,0.217,0.959
261988,-2662.0,2970.0,7336.0,0.075,-0.165,0.217,0.959
262004,-2762.0,2896.0,7320.0,0.075,-0.165,0.218,0.959
262021,-2662.0,3064.0,7342.0,0.075,-0.165,0.219,0.959
262037,-2722.0,3220.0,7354.0,0.075,-0.165,0.219,0.959
262053,-2708.0,3192.0,7358.0,0.074,-0.165,0.219,0.959
262070,-2702.0,3010.0,7428.0,0.074,-0.165,0.218,0.959
262096,-2664.0,3138.0,7446.0,0.073,-0.165,0.218,0.959
262113,-2720.0,3082.0,7326.0,0.073,-0.165,0.218,0.959
262129,-2780.0,3112.0,7320.0,0.072,-0.165,0.219,0.959
262145,-2772.0,3350.0,7298.0,0.071,-0.165,0.219,0.959
262161,-2782.0,3172.0,7334.0,0.071,-0.165,0.218,0.959
262177,-2742.0,3052.0,7352.0,0.07,-0.165,0.218,0.959
262193,-2790.0,2854.0,7286.0,0.07,-0.165,0.218,0.959
262219,-2854.0,3118.0,7254.0,0.07,-0.165,0.218,0.959
262236,-2886.0,3320.0,7282.0,0.069,-0.166,0.219,0.959
262253,-2886.0,3206.0,7282.0,0.069,-0.166,0.219,0.959
262270,-2878.0,3218.0,7222.0,0.068,-0.166,0.219,0.959
262286,-2836.0,3194.0,7218.0,0.068,-0.166,0.22,0.959
262302,-2856.0,3188.0,7240.0,0.068,-0.166,0.22,0.959
262319,-2762.0,3130.0,7166.0,0.068,-0.166,0.22,0.959
262336,-2850.0,3080.0,7242.0,0.067,-0.166,0.22,0.959
262353,-2818.0,3136.0,7244.0,0.067,-0.166,0.221,0.959
262370,-2790.0,3206.0,7228.0,0.067,-0.166,0.221,0.959
262396,-2774.0,3416.0,7242.0,0.067,-0.166,0.221,0.959
262412,-2818.0,3514.0,7184.0,0.066,-0.166,0.221,0.959
262428,-2706.0,2790.0,7134.0,0.066,-0.166,0.221,0.959
262444,-2860.0,3098.0,7366.0,0.066,-0.166,0.221,0.959
262460,-2756.0,3170.0,7278.0,0.065,-0.166,0.222,0.959
262486,-2648.0,2940.0,7298.0,0.065,-0.166,0.222,0.959
262503,-2764.0,3028.0,7284.0,0.065,-0.166,0.223,0.958
262520,-2820.0,3406.0,7262.0,0.064,-0.166,0.224,0.958
262537,-2738.0,3388.0,7274.0,0.064,-0.166,0.224,0.958
262553,-2766.0,3310.0,7246.0,0.064,-0.166,0.225,0.958
262570,-2792.0,3372.0,7256.0,0.064,-0.166,0.225,0.958
262586,-2806.0,3298.0,7260.0,0.063,-0.167,0.225,0.958
262603,-2810.0,3274.0,7200.0,0.063,-0.167,0.225,0.958
262620,-2832.0,3264.0,7184.0,0.063,-0.167,0.226,0.958
262637,-2864.0,3366.0,7190.0,0.063,-0.167,0.226,0.958
262663,-2560.0,2910.0,7154.0,0.063,-0.167,0.226,0.958
262679,-2858.0,3352.0,7322.0,0.063,-0.167,0.226,0.958
262695,-2834.0,3292.0,7328.0,0.063,-0.167,0.226,0.958
262711,-2812.0,3228.0,7206.0,0.062,-0.167,0.226,0.958
262727,-2756.0,3288.0,7170.0,0.062,-0.167,0.226,0.958
262743,-2734.0,3240.0,7150.0,0.062,-0.167,0.226,0.958
262769,-2680.0,3076.0,7212.0,0.062,-0.167,0.226,0.958
262786,-2736.0,3134.0,7194.0,0.062,-0.167,0.226,0.958
262803,-2696.0,3164.0,7276.0,0.061,-0.167,0.226,0.958
262820,-2622.0,3356.0,6444.0,0.061,-0.167,0.226,0.958
262837,-3138.0,3612.0,7376.0,0.061,-0.167,0.227,0.958
262853,-2856.0,3296.0,7140.0,0.06,-0.167,0.227,0.958
262870,-2930.0,3544.0,7238.0,0.059,-0.167,0.227,0.958
262887,-2834.0,3306.0,7264.0,0.059,-0.167,0.227,0.958
262904,-2878.0,3446.0,7124.0,0.059,-0.167,0.227,0.958
262920,-2720.0,3392.0,7096.0,0.059,-0.167,0.227,0.958
262946,-2796.0,3360.0,7226.0,0.059,-0.167,0.227,0.958
262962,-2806.0,3364.0,7200.0,0.058,-0.167,0.227,0.958
262979,-2714.0,3384.0,7186.0,0.058,-0.167,0.227,0.958
262995,-2762.0,3254.0,7160.0,0.058,-0.167,0.227,0.958
263011,-2738.0,3344.0,7140.0,0.058,-0.167,0.227,0.958
263027,-2722.0,3280.0,7216.0,0.058,-0.167,0.227,0.958
263043,-2782.0,3340.0,7178.0,0.058,-0.167,0.227,0.958
263069,-2770.0,3202.0,7214.0,0.058,-0.167,0.227,0.958
263086,-2784.0,3214.0,7300.0,0.058,-0.167,0.227,0.958
263103,-2798.0,3200.0,7280.0,0.058,-0.167,0.227,0.958
263120,-2838.0,3132.0,7260.0,0.058,-0.167,0.227,0.958
263136,-2780.0,3300.0,7200.0,0.058,-0.167,0.227,0.958
263153,-2822.0,3302.0,7238.0,0.057,-0.167,0.227,0.958
263170,-2798.0,3328.0,7226.0,0.057,-0.167,0.227,0.958
263186,-2794.0,3266.0,7206.0,0.057,-0.167,0.227,0.958
263203,-2746.0,3290.0,7186.0,0.057,-0.167,0.227,0.958
263220,-2786.0,3334.0,7238.0,0.057,-0.167,0.227,0.958
263246,-2758.0,3360.0,7216.0,0.056,-0.167,0.227,0.958
263262,-2742.0,3334.0,7200.0,0.056,-0.167,0.227,0.958
263278,-2752.0,3302.0,7166.0,0.056,-0.167,0.227,0.958
263294,-2818.0,3314.0,7134.0,0.056,-0.168,0.227,0.958
263310,-2786.0,3296.0,7210.0,0.056,-0.168,0.227,0.958
263326,-2780.0,3360.0,7182.0,0.056,-0.168,0.227,0.958
263345,-2762.0,3198.0,7174.0,0.056,-0.168,0.227,0.958
263371,-2834.0,3302.0,7234.0,0.056,-0.168,0.227,0.958
263387,-2806.0,3268.0,7178.0,0.056,-0.168,0.227,0.958
263403,-2816.0,3244.0,7172.0,0.055,-0.168,0.226,0.958
263420,-2790.0,3288.0,7206.0,0.055,-0.168,0.227,0.958
263436,-2796.0,3280.0,7176.0,0.055,-0.168,0.227,0.958
263453,-2786.0,3272.0,7226.0,0.055,-0.168,0.227,0.958
263470,-2770.0,3322.0,7214.0,0.055,-0.168,0.227,0.958
263486,-2768.0,3288.0,7264.0,0.055,-0.168,0.227,0.958
263504,-2776.0,3314.0,7258.0,0.055,-0.168,0.227,0.958
263530,-2770.0,3382.0,7242.0,0.055,-0.168,0.227,0.958
263546,-2778.0,3330.0,7146.0,0.054,-0.168,0.227,0.958
263562,-2714.0,3302.0,7150.0,0.054,-0.168,0.227,0.958
263578,-2738.0,3286.0,7158.0,0.054,-0.168,0.227,0.958
263594,-2778.0,3306.0,7198.0,0.054,-0.168,0.227,0.958
263610,-2768.0,3236.0,7152.0,0.054,-0.168,0.227,0.958
263636,-2780.0,3278.0,7184.0,0.054,-0.168,0.227,0.958
263652,-2782.0,3356.0,7176.0,0.053,-0.168,0.227,0.958
263669,-2796.0,3334.0,7202.0,0.053,-0.168,0.227,0.958
263686,-2780.0,3296.0,7162.0,0.053,-0.168,0.227,0.958
263703,-2782.0,3250.0,7188.0,0.053,-0.168,0.227,0.958
263720,-2850.0,3288.0,7248.0,0.053,-0.168,0.227,0.958
263736,-2772.0,3282.0,7226.0,0.052,-0.168,0.227,0.958
263752,-2794.0,3394.0,7182.0,0.052,-0.168,0.227,0.958
263769,-2734.0,3414.0,7122.0,0.052,-0.168,0.227,0.958
263796,-2798.0,3312.0,7258.0,0.052,-0.168,0.227,0.958
263812,-2804.0,3426.0,7178.0,0.052,-0.168,0.227,0.958
263828,-2812.0,3312.0,7186.0,0.051,-0.168,0.227,0.958
263844,-2746.0,3350.0,7182.0,0.051,-0.168,0.227,0.958
263860,-2782.0,3318.0,7192.0,0.051,-0.168,0.227,0.958
263876,-2780.0,3312.0,7190.0,0.051,-0.168,0.228,0.958
263902,-2782.0,3298.0,7216.0,0.051,-0.168,0.228,0.958
263919,-2828.0,3264.0,7190.0,0.051,-0.168,0.228,0.958
263936,-2808.0,3286.0,7184.0,0.051,-0.169,0.228,0.958
263953,-2798.0,3346.0,7202.0,0.051,-0.169,0.228,0.958
263970,-2794.0,3354.0,7168.0,0.05,-0.169,0.228,0.958
263986,-2820.0,3284.0,7182.0,0.05,-0.169,0.228,0.958
264002,-2750.0,3352.0,7212.0,0.05,-0.169,0.228,0.958
264019,-2782.0,3348.0,7146.0,0.05,-0.169,0.228,0.958
264036,-2776.0,3388.0,7152.0,0.05,-0.169,0.228,0.958
264053,-2798.0,3358.0,7204.0,0.05,-0.169,0.228,0.958
264079,-2776.0,3344.0,7254.0,0.049,-0.169,0.228,0.958
264095,-2770.0,3366.0,7220.0,0.049,-0.169,0.228,0.958
264112,-2810.0,3310.0,7162.0,0.049,-0.169,0.228,0.958
264128,-2816.0,3408.0,7166.0,0.049,-0.169,0.229,0.958
264145,-2790.0,3330.0,7194.0,0.049,-0.169,0.228,0.958
264161,-2818.0,3378.0,7190.0,0.049,-0.169,0.229,0.957
264177,-2764.0,3392.0,7110.0,0.049,-0.169,0.229,0.957
264203,-2814.0,3286.0,7120.0,0.049,-0.169,0.229,0.957
264220,-2798.0,3312.0,7168.0,0.049,-0.169,0.229,0.958
264237,-2792.0,3364.0,7156.0,0.049,-0.169,0.228,0.958
264253,-2790.0,3334.0,7176.0,0.048,-0.169,0.228,0.958
264269,-2816.0,3336.0,7174.0,0.048,-0.169,0.228,0.958
264286,-2798.0,3356.0,7180.0,0.048,-0.169,0.228,0.958
264303,-2780.0,3350.0,7198.0,0.048,-0.169,0.228,0.958
264320,-2812.0,3322.0,7168.0,0.048,-0.169,0.228,0.958
264336,-2772.0,3382.0,7164.0,0.048,-0.169,0.228,0.958
264362,-2780.0,3370.0,7188.0,0.047,-0.169,0.228,0.958
264378,-2784.0,3366.0,7194.0,0.047,-0.169,0.228,0.958
264394,-2758.0,3408.0,7170.0,0.047,-0.169,0.228,0.958
264410,-2788.0,3366.0,7242.0,0.047,-0.169,0.228,0.958
264427,-2752.0,3366.0,7222.0,0.047,-0.169,0.228,0.958
264443,-2772.0,3408.0,7182.0,0.047,-0.169,0.228,0.958
264459,-2822.0,3398.0,7180.0,0.047,-0.169,0.228,0.958
264485,-2800.0,3304.0,7146.0,0.047,-0.169,0.228,0.958
264502,-2794.0,3364.0,7228.0,0.047,-0.169,0.228,0.958
264519,-2766.0,3324.0,7164.0,0.047,-0.169,0.228,0.958
264535,-2772.0,3378.0,7152.0,0.047,-0.169,0.228,0.958
264552,-2782.0,3392.0,7160.0,0.047,-0.169,0.228,0.958
264569,-2806.0,3314.0,7176.0,0.046,-0.169,0.228,0.958
264585,-2768.0,3366.0,7170.0,0.046,-0.169,0.228,0.958
264602,-2786.0,3422.0,7164.0,0.046,-0.169,0.228,0.958
264628,-2776.0,3432.0,7124.0,0.046,-0.169,0.228,0.958
264644,-2778.0,3426.0,7150.0,0.046,-0.169,0.228,0.958
264660,-2822.0,3348.0,7190.0,0.046,-0.169,0.227,0.958
264676,-2802.0,3390.0,7182.0,0.046,-0.169,0.227,0.958
264692,-2810.0,3366.0,7194.0,0.046,-0.169,0.227,0.958
264708,-2834.0,3330.0,7224.0,0.046,-0.169,0.227,0.958
264734,-2794.0,3408.0,7214.0,0.046,-0.169,0.227,0.958
264751,-2776.0,3366.0,7136.0,0.045,-0.169,0.227,0.958
264768,-2798.0,3302.0,7172.0,0.045,-0.17,0.227,0.958
264785,-2826.0,3354.0,7154.0,0.045,-0.17,0.227,0.958
264802,-2778.0,3330.0,7186.0,0.045,-0.17,0.227,0.958
264819,-2814.0,3274.0,7176.0,0.045,-0.17,0.227,0.958
264836,-2796.0,3328.0,7170.0,0.045,-0.17,0.227,0.958
264853,-2798.0,3372.0,7172.0,0.045,-0.17,0.226,0.958
264869,-2784.0,3336.0,7210.0,0.045,-0.17,0.226,0.958
264886,-2772.0,3332.0,7132.0,0.045,-0.169,0.226,0.958
264902,-2758.0,3342.0,7194.0,0.045,-0.169,0.226,0.958
264919,-2760.0,3366.0,7194.0,0.045,-0.169,0.226,0.958
264946,-2818.0,3354.0,7214.0,0.045,-0.169,0.226,0.958
264962,-2828.0,3358.0,7228.0,0.045,-0.169,0.226,0.958
264978,-2758.0,3344.0,7194.0,0.045,-0.169,0.226,0.958
264994,-2860.0,3390.0,7222.0,0.045,-0.169,0.225,0.958
265010,-2766.0,3390.0,7180.0,0.045,-0.169,0.225,0.958
265026,-2806.0,3356.0,7174.0,0.045,-0.169,0.225,0.959
265052,-2782.0,3360.0,7196.0,0.045,-0.169,0.225,0.959
265069,-2806.0,3354.0,7240.0,0.044,-0.169,0.224,0.959
265085,-2808.0,3374.0,7226.0,0.044,-0.169,0.224,0.959
265102,-2772.0,3278.0,7142.0,0.044,-0.169,0.224,0.959
265119,-2788.0,3258.0,7172.0,0.044,-0.169,0.223,0.959
265136,-2770.0,3280.0,7230.0,0.044,-0.169,0.223,0.959
265152,-2716.0,3340.0,7172.0,0.044,-0.169,0.223,0.959
265169,-2726.0,3182.0,7272.0,0.044,-0.169,0.222,0.959
265186,-2784.0,2842.0,7184.0,0.045,-0.169,0.222,0.959
265212,-2708.0,3158.0,7550.0,0.045,-0.169,0.223,0.959
265228,-2576.0,3024.0,7646.0,0.046,-0.168,0.223,0.959
265245,-2754.0,3710.0,7310.0,0.047,-0.168,0.224,0.959
265261,-2844.0,3422.0,7266.0,0.048,-0.167,0.224,0.959
265277,-2744.0,3140.0,7050.0,0.049,-0.166,0.224,0.959
265293,-2622.0,3166.0,6958.0,0.05,-0.166,0.226,0.959
265309,-3014.0,3804.0,6438.0,0.051,-0.166,0.23,0.957
265335,-2848.0,3740.0,6686.0,0.052,-0.166,0.234,0.956
265356,-2744.0,3260.0,7170.0,0.053,-0.167,0.239,0.955
265373,-2744.0,3636.0,7306.0,0.055,-0.167,0.243,0.954
265389,-2838.0,3676.0,7210.0,0.055,-0.167,0.245,0.953
265405,-2878.0,3776.0,7152.0,0.056,-0.167,0.245,0.953
265421,-2850.0,3314.0,7188.0,0.055,-0.168,0.246,0.953
265437,-2790.0,3756.0,6892.0,0.055,-0.168,0.248,0.953
265453,-2768.0,3770.0,6740.0,0.055,-0.168,0.249,0.952
265469,-2886.0,3580.0,6930.0,0.055,-0.168,0.249,0.952
265495,-2834.0,3650.0,7050.0,0.054,-0.168,0.25,0.952
265511,-2858.0,3646.0,7150.0,0.054,-0.169,0.25,0.952
265527,-2654.0,3812.0,7138.0,0.053,-0.169,0.25,0.952
265543,-2802.0,3800.0,7004.0,0.052,-0.169,0.25,0.952
265559,-2770.0,3620.0,6918.0,0.052,-0.169,0.25,0.952
265575,-2774.0,3226.0,7134.0,0.051,-0.169,0.25,0.952
265601,-2722.0,3624.0,7106.0,0.051,-0.169,0.25,0.952
265618,-2906.0,3908.0,6868.0,0.051,-0.169,0.25,0.952
265635,-2674.0,4058.0,6980.0,0.051,-0.168,0.247,0.953
265652,-2764.0,3596.0,7018.0,0.051,-0.168,0.245,0.953
265669,-2812.0,3676.0,6958.0,0.051,-0.168,0.244,0.954
265685,-2826.0,4248.0,6736.0,0.05,-0.167,0.242,0.954
265702,-2884.0,3364.0,7318.0,0.05,-0.167,0.24,0.955
265719,-2880.0,3856.0,7154.0,0.049,-0.166,0.236,0.956
265736,-2710.0,2922.0,7452.0,0.048,-0.165,0.233,0.957
265753,-2724.0,3044.0,7388.0,0.048,-0.165,0.23,0.958
265769,-2916.0,3672.0,6984.0,0.047,-0.165,0.23,0.958
265795,-2912.0,3880.0,6762.0,0.046,-0.165,0.228,0.959
265811,-2880.0,3230.0,6848.0,0.045,-0.164,0.226,0.959
265827,-2692.0,3242.0,6964.0,0.044,-0.164,0.225,0.959
265843,-2628.0,3240.0,7088.0,0.043,-0.165,0.224,0.96
265859,-2610.0,3024.0,7298.0,0.042,-0.165,0.224,0.96
265875,-2586.0,3340.0,7340.0,0.042,-0.165,0.225,0.96
265902,-2612.0,3378.0,7416.0,0.041,-0.165,0.224,0.96
265919,-2734.0,3526.0,7306.0,0.04,-0.165,0.224,0.96
265935,-2694.0,3424.0,7224.0,0.04,-0.165,0.223,0.96
265952,-2738.0,3318.0,7172.0,0.039,-0.165,0.222,0.96
265969,-2738.0,3134.0,7208.0,0.039,-0.165,0.222,0.96
265985,-2744.0,3440.0,7194.0,0.039,-0.166,0.223,0.96
266002,-2692.0,3414.0,7184.0,0.039,-0.166,0.223,0.96
266019,-2686.0,3398.0,7204.0,0.038,-0.166,0.223,0.96
266035,-2660.0,3354.0,7226.0,0.038,-0.166,0.223,0.96
266052,-2742.0,3354.0,7280.0,0.038,-0.166,0.223,0.96
266078,-2734.0,3410.0,7204.0,0.038,-0.166,0.223,0.96
266094,-2728.0,3258.0,7200.0,0.038,-0.166,0.223,0.96
266110,-2648.0,3286.0,7154.0,0.038,-0.166,0.222,0.96
266126,-2694.0,3328.0,7182.0,0.038,-0.166,0.222,0.96
266142,-2716.0,3302.0,7196.0,0.038,-0.166,0.222,0.96
266168,-2730.0,3296.0,7244.0,0.038,-0.166,0.223,0.96
266184,-2704.0,3406.0,7198.0,0.038,-0.166,0.223,0.96
266200,-2738.0,3274.0,7264.0,0.038,-0.166,0.223,0.96
266217,-2694.0,3272.0,7218.0,0.037,-0.166,0.223,0.96
266233,-2674.0,3320.0,7206.0,0.037,-0.167,0.223,0.96
266250,-2776.0,3406.0,7176.0,0.037,-0.167,0.223,0.96
266267,-2764.0,3402.0,7258.0,0.037,-0.167,0.224,0.96
266284,-2674.0,3422.0,7180.0,0.037,-0.167,0.224,0.96
266301,-2724.0,3348.0,7164.0,0.037,-0.167,0.224,0.959
266318,-2662.0,3326.0,7152.0,0.037,-0.167,0.224,0.959
266345,-2700.0,3438.0,7162.0,0.037,-0.167,0.224,0.959
266361,-2714.0,3424.0,7134.0,0.037,-0.167,0.225,0.959
266377,-2746.0,3416.0,7126.0,0.037,-0.167,0.225,0.959
266393,-2728.0,3382.0,7136.0,0.037,-0.167,0.225,0.959
266409,-2798.0,3384.0,7156.0,0.037,-0.167,0.225,0.959
266425,-2730.0,3394.0,7220.0,0.037,-0.168,0.225,0.959
266451,-2794.0,3388.0,7160.0,0.036,-0.168,0.225,0.959
266468,-2738.0,3382.0,7168.0,0.037,-0.168,0.225,0.959
266485,-2692.0,3406.0,7186.0,0.036,-0.168,0.225,0.959
266502,-2706.0,3328.0,7192.0,0.036,-0.168,0.225,0.959
266518,-2750.0,3406.0,7204.0,0.036,-0.168,0.225,0.959
266535,-2724.0,3352.0,7148.0,0.036,-0.168,0.225,0.959
266552,-2730.0,3306.0,7220.0,0.036,-0.168,0.225,0.959
266569,-2716.0,3304.0,7188.0,0.036,-0.168,0.225,0.959
266585,-2716.0,3324.0,7172.0,0.036,-0.168,0.225,0.959
266602,-2746.0,3340.0,7160.0,0.036,-0.168,0.225,0.959
266628,-2756.0,3406.0,7192.0,0.036,-0.168,0.225,0.959
266644,-2754.0,3468.0,7196.0,0.035,-0.168,0.225,0.959
266660,-2694.0,3424.0,7184.0,0.035,-0.168,0.225,0.959
266676,-2770.0,3430.0,7142.0,0.035,-0.168,0.225,0.959
266692,-2804.0,3402.0,7170.0,0.035,-0.168,0.225,0.959
266708,-2732.0,3400.0,7200.0,0.035,-0.168,0.225,0.959
266734,-2776.0,3386.0,7146.0,0.035,-0.168,0.224,0.959
266751,-2730.0,3408.0,7144.0,0.035,-0.168,0.224,0.959
266768,-2732.0,3380.0,7170.0,0.035,-0.168,0.225,0.959
266785,-2740.0,3338.0,7194.0,0.035,-0.168,0.225,0.959
266801,-2782.0,3338.0,7176.0,0.035,-0.168,0.225,0.959
266818,-2794.0,3326.0,7216.0,0.035,-0.168,0.225,0.959
266834,-2754.0,3438.0,7204.0,0.035,-0.168,0.225,0.959
266851,-2756.0,3396.0,7196.0,0.035,-0.168,0.225,0.959
266868,-2786.0,3424.0,7148.0,0.034,-0.168,0.225,0.959
266885,-2718.0,3426.0,7172.0,0.034,-0.168,0.225,0.959
266911,-2772.0,3416.0,7196.0,0.034,-0.168,0.225,0.959
266927,-2770.0,3422.0,7142.0,0.034,-0.168,0.225,0.959
266943,-2760.0,3358.0,7186.0,0.034,-0.168,0.225,0.959
266959,-2748.0,3358.0,7156.0,0.034,-0.168,0.225,0.959
266975,-2722.0,3440.0,7130.0,0.034,-0.168,0.225,0.959
266991,-2754.0,3404.0,7190.0,0.034,-0.168,0.225,0.959
267017,-2708.0,3408.0,7132.0,0.034,-0.168,0.225,0.959
267034,-2716.0,3380.0,7122.0,0.034,-0.168,0.225,0.959
267051,-2800.0,3440.0,7170.0,0.033,-0.168,0.225,0.959
267068,-2756.0,3420.0,7136.0,0.033,-0.168,0.225,0.959
267085,-2752.0,3454.0,7180.0,0.033,-0.168,0.225,0.959
267102,-2788.0,3508.0,7112.0,0.033,-0.169,0.225,0.959
267119,-2764.0,3462.0,7142.0,0.033,-0.169,0.225,0.959
267135,-2732.0,3342.0,7230.0,0.033,-0.169,0.225,0.959
267151,-2740.0,3456.0,7230.0,0.033,-0.169,0.225,0.959
267168,-2760.0,3416.0,7216.0,0.033,-0.169,0.225,0.959
267185,-2720.0,3408.0,7218.0,0.033,-0.169,0.225,0.959
267211,-2702.0,3398.0,7192.0,0.033,-0.169,0.225,0.959
267227,-2768.0,3362.0,7162.0,0.033,-0.169,0.224,0.959
267243,-2748.0,3400.0,7130.0,0.032,-0.169,0.224,0.959
267259,-2730.0,3340.0,7132.0,0.032,-0.169,0.224,0.959
267275,-2730.0,3364.0,7180.0,0.032,-0.169,0.224,0.959
267291,-2742.0,3322.0,7168.0,0.032,-0.169,0.224,0.959
267317,-2746.0,3298.0,7196.0,0.032,-0.169,0.224,0.959
267334,-2756.0,3372.0,7190.0,0.032,-0.169,0.224,0.959
267352,-2760.0,3364.0,7096.0,0.031,-0.169,0.224,0.959
267369,-2746.0,3422.0,7092.0,0.031,-0.169,0.224,0.959
267386,-2764.0,3370.0,7236.0,0.031,-0.169,0.224,0.959
267402,-2816.0,3384.0,7274.0,0.031,-0.169,0.224,0.959
267418,-2742.0,3460.0,7232.0,0.031,-0.169,0.224,0.959
267434,-2728.0,3386.0,7192.0,0.031,-0.169,0.224,0.959
267451,-2762.0,3386.0,7166.0,0.031,-0.169,0.224,0.959
267478,-2740.0,3370.0,7190.0,0.031,-0.169,0.224,0.959
267495,-2750.0,3428.0,7184.0,0.031,-0.169,0.224,0.959
267512,-2754.0,3384.0,7200.0,0.031,-0.169,0.224,0.959
267529,-2752.0,3408.0,7196.0,0.031,-0.169,0.224,0.959
267545,-2756.0,3358.0,7232.0,0.031,-0.169,0.223,0.96
267561,-2754.0,3386.0,7188.0,0.031,-0.169,0.223,0.96
267577,-2716.0,3374.0,7194.0,0.03,-0.169,0.223,0.96
267593,-2742.0,3464.0,7150.0,0.03,-0.169,0.223,0.96
267610,-2764.0,3400.0,7188.0,0.03,-0.169,0.223,0.96
267637,-2756.0,3406.0,7150.0,0.03,-0.169,0.223,0.96
267653,-2826.0,3332.0,7172.0,0.03,-0.169,0.222,0.96
267669,-2742.0,3300.0,7180.0,0.03,-0.169,0.222,0.96
267685,-2744.0,3424.0,7198.0,0.03,-0.169,0.222,0.96
267702,-2738.0,3434.0,7224.0,0.03,-0.169,0.222,0.96
267718,-2730.0,3332.0,7234.0,0.03,-0.169,0.222,0.96
267734,-2662.0,3320.0,7204.0,0.03,-0.169,0.222,0.96
267761,-2692.0,3338.0,7210.0,0.03,-0.169,0.221,0.96
267777,-2702.0,3394.0,7176.0,0.03,-0.169,0.221,0.96
267793,-2724.0,3380.0,7166.0,0.03,-0.169,0.221,0.96
267809,-2746.0,3308.0,7172.0,0.03,-0.169,0.221,0.96
267825,-2770.0,3328.0,7230.0,0.03,-0.169,0.221,0.96
267841,-2804.0,3450.0,7240.0,0.029,-0.169,0.221,0.96
267867,-2780.0,3446.0,7182.0,0.029,-0.169,0.221,0.96
267884,-2794.0,3386.0,7210.0,0.029,-0.169,0.22,0.96
267901,-2760.0,3336.0,7232.0,0.029,-0.169,0.22,0.96
267918,-2740.0,3462.0,7226.0,0.029,-0.169,0.22,0.96
267934,-2838.0,3504.0,7102.0,0.029,-0.169,0.219,0.961
267950,-2674.0,3278.0,7252.0,0.028,-0.168,0.218,0.961
267967,-2658.0,3344.0,7234.0,0.028,-0.168,0.216,0.961
267984,-2744.0,3446.0,7330.0,0.027,-0.168,0.214,0.962
268000,-2702.0,3296.0,7262.0,0.027,-0.168,0.213,0.962
268017,-2742.0,3110.0,7122.0,0.026,-0.168,0.212,0.963
268044,-2682.0,3056.0,7210.0,0.026,-0.167,0.211,0.963
268060,-2612.0,3006.0,7294.0,0.025,-0.167,0.211,0.963
268076,-2692.0,2916.0,7324.0,0.025,-0.167,0.212,0.963
268092,-2746.0,3080.0,7266.0,0.024,-0.167,0.212,0.962
268109,-2708.0,3154.0,7446.0,0.024,-0.167,0.213,0.962
268125,-2652.0,3364.0,7302.0,0.023,-0.168,0.213,0.962
268141,-2544.0,3140.0,7334.0,0.023,-0.168,0.214,0.962
268167,-2472.0,3162.0,7496.0,0.023,-0.168,0.216,0.962
268184,-2882.0,3082.0,7400.0,0.022,-0.169,0.217,0.961
268201,-2278.0,2424.0,7248.0,0.021,-0.169,0.217,0.961
268217,-2534.0,2792.0,7310.0,0.02,-0.169,0.218,0.961
268234,-2824.0,3110.0,7260.0,0.019,-0.169,0.22,0.96
268252,-2840.0,3656.0,7240.0,0.018,-0.169,0.221,0.96
268268,-2794.0,3678.0,7062.0,0.017,-0.17,0.222,0.96
268284,-2718.0,3470.0,7062.0,0.016,-0.17,0.222,0.96
268301,-2694.0,3240.0,7144.0,0.015,-0.17,0.223,0.96
268318,-2508.0,3266.0,7336.0,0.014,-0.171,0.224,0.959
268345,-2754.0,3370.0,7288.0,0.013,-0.171,0.226,0.959
268361,-2852.0,3592.0,7118.0,0.012,-0.172,0.227,0.958
268377,-2800.0,3428.0,6918.0,0.011,-0.173,0.228,0.958
268393,-2870.0,3576.0,6912.0,0.011,-0.173,0.228,0.958
268409,-3022.0,3184.0,6772.0,0.01,-0.173,0.229,0.958
268425,-2662.0,3304.0,7062.0,0.01,-0.173,0.23,0.958
268451,-2814.0,3854.0,7364.0,0.009,-0.173,0.232,0.957
268468,-2686.0,4512.0,7424.0,0.009,-0.173,0.233,0.957
268484,-2700.0,4328.0,7014.0,0.01,-0.173,0.233,0.957
268500,-2726.0,3942.0,6822.0,0.01,-0.173,0.232,0.957
268516,-2726.0,3638.0,7222.0,0.012,-0.173,0.231,0.957
268533,-2780.0,3998.0,7710.0,0.013,-0.173,0.23,0.957
268550,-2714.0,4454.0,7832.0,0.015,-0.174,0.229,0.958
268567,-2950.0,4770.0,7720.0,0.017,-0.174,0.228,0.958
268584,-2926.0,4642.0,7920.0,0.019,-0.175,0.225,0.958
268601,-2786.0,4362.0,8240.0,0.022,-0.177,0.222,0.959
268628,-3004.0,4170.0,8068.0,0.024,-0.179,0.218,0.959
268644,-2666.0,4078.0,7810.0,0.027,-0.181,0.214,0.959
268660,-2764.0,4634.0,7646.0,0.03,-0.184,0.209,0.96
268676,-3000.0,4226.0,7912.0,0.034,-0.188,0.203,0.96
268692,-3032.0,3918.0,8020.0,0.037,-0.192,0.197,0.961
268708,-3512.0,3668.0,8246.0,0.042,-0.197,0.191,0.961
268734,-3446.0,2800.0,8508.0,0.046,-0.202,0.184,0.961
268751,-3350.0,3110.0,9172.0,0.05,-0.208,0.178,0.96
268768,-3890.0,3114.0,9450.0,0.054,-0.215,0.17,0.96
268784,-4094.0,3280.0,9540.0,0.059,-0.223,0.161,0.96
268801,-4294.0,2656.0,9594.0,0.063,-0.231,0.151,0.959
268818,-4206.0,2456.0,9570.0,0.068,-0.24,0.141,0.958
268834,-4902.0,2482.0,9386.0,0.073,-0.249,0.129,0.957
268850,-4428.0,3152.0,8576.0,0.08,-0.259,0.116,0.956
268867,-5426.0,1008.0,9632.0,0.085,-0.269,0.102,0.954
268894,-5194.0,1986.0,8806.0,0.092,-0.28,0.087,0.952
268910,-5840.0,1742.0,8614.0,0.098,-0.291,0.07,0.949
268926,-5248.0,-232.0,8588.0,0.105,-0.302,0.054,0.946
268942,-5770.0,1744.0,7458.0,0.112,-0.314,0.036,0.942
268958,-5968.0,164.0,7910.0,0.119,-0.325,0.018,0.938
268974,-5694.0,298.0,7326.0,0.125,-0.337,-0.002,0.933
269000,-6138.0,-1336.0,6740.0,0.13,-0.349,-0.023,0.928
269017,-6998.0,-1766.0,6772.0,0.136,-0.359,-0.042,0.922
269034,-5546.0,830.0,7134.0,0.143,-0.369,-0.06,0.916
269050,-6962.0,-1456.0,6260.0,0.148,-0.379,-0.083,0.91
269067,-7176.0,-828.0,5298.0,0.155,-0.388,-0.101,0.903
269084,-6164.0,-990.0,5884.0,0.162,-0.397,-0.12,0.895
269101,-5536.0,-1348.0,6640.0,0.17,-0.405,-0.138,0.888
269118,-4740.0,-2190.0,6694.0,0.177,-0.414,-0.157,0.879
269135,-5634.0,-2216.0,5288.0,0.182,-0.423,-0.175,0.87
269152,-5212.0,-3988.0,4858.0,0.186,-0.431,-0.194,0.861
269169,-5426.0,-4276.0,4388.0,0.19,-0.439,-0.211,0.852
269186,-4658.0,-4830.0,4836.0,0.193,-0.447,-0.228,0.843
269213,-4396.0,-6830.0,5078.0,0.195,-0.455,-0.241,0.835
269229,-5028.0,-3226.0,4050.0,0.197,-0.463,-0.252,0.827
269245,-5016.0,-3274.0,3482.0,0.197,-0.471,-0.264,0.819
269261,-5178.0,-3766.0,2608.0,0.197,-0.478,-0.275,0.811
269277,-5414.0,-4584.0,2148.0,0.198,-0.485,-0.285,0.803
269294,-5174.0,-5384.0,2312.0,0.199,-0.491,-0.293,0.796
269311,-4968.0,-5538.0,2542.0,0.202,-0.496,-0.298,0.79
269328,-5456.0,-4640.0,2758.0,0.206,-0.502,-0.301,0.785
269354,-5518.0,-3472.0,2926.0,0.209,-0.507,-0.304,0.779
269370,-5292.0,-3876.0,2840.0,0.21,-0.512,-0.308,0.774
269386,-5386.0,-4224.0,2618.0,0.211,-0.518,-0.312,0.768
269403,-5582.0,-5564.0,2424.0,0.211,-0.524,-0.315,0.763
269419,-5676.0,-5898.0,1676.0,0.212,-0.529,-0.316,0.758
269435,-5528.0,-5548.0,2006.0,0.213,-0.534,-0.317,0.754
269461,-5360.0,-4428.0,2362.0,0.213,-0.539,-0.317,0.751
269477,-5346.0,-4422.0,1924.0,0.211,-0.545,-0.318,0.747
269493,-5402.0,-5706.0,1576.0,0.209,-0.549,-0.319,0.744
269509,-5322.0,-5928.0,1234.0,0.207,-0.554,-0.318,0.741
269525,-4978.0,-5346.0,1348.0,0.205,-0.558,-0.315,0.74
269541,-4704.0,-5152.0,1286.0,0.203,-0.562,-0.311,0.739
269567,-4764.0,-5652.0,1192.0,0.202,-0.566,-0.306,0.738
269584,-5048.0,-5098.0,1110.0,0.2,-0.57,-0.3,0.738
269601,-4582.0,-3788.0,1062.0,0.199,-0.573,-0.294,0.738
269618,-4936.0,-4144.0,1096.0,0.198,-0.577,-0.288,0.738
269635,-4780.0,-5174.0,1048.0,0.198,-0.58,-0.282,0.738
269651,-4626.0,-5074.0,1162.0,0.199,-0.583,-0.273,0.738
269667,-4752.0,-4544.0,1330.0,0.202,-0.587,-0.265,0.738
269684,-4794.0,-4942.0,1210.0,0.204,-0.591,-0.257,0.737
269700,-5242.0,-5034.0,1146.0,0.208,-0.595,-0.25,0.735
269717,-4788.0,-4884.0,1182.0,0.211,-0.599,-0.243,0.733
269734,-4660.0,-4642.0,1368.0,0.215,-0.603,-0.235,0.731
269761,-4760.0,-5068.0,1290.0,0.22,-0.608,-0.224,0.729
269777,-5220.0,-5230.0,1066.0,0.226,-0.612,-0.213,0.727
269794,-5824.0,-5684.0,1006.0,0.232,-0.616,-0.203,0.725
269811,-5610.0,-4622.0,1622.0,0.239,-0.619,-0.194,0.723
269827,-5736.0,-3094.0,2372.0,0.246,-0.621,-0.187,0.72
269844,-5872.0,-3032.0,2106.0,0.252,-0.623,-0.183,0.717
269861,-5724.0,-1580.0,1534.0,0.257,-0.625,-0.185,0.713
269877,-5666.0,-4220.0,1776.0,0.257,-0.628,-0.193,0.709
269903,-5516.0,-4876.0,1486.0,0.258,-0.628,-0.203,0.705
269919,-4760.0,-6396.0,1190.0,0.261,-0.628,-0.214,0.701
269936,-4700.0,-6602.0,1206.0,0.265,-0.626,-0.223,0.698
269953,-4526.0,-5562.0,826.0,0.268,-0.625,-0.231,0.696
269970,-4382.0,-4912.0,488.0,0.27,-0.623,-0.242,0.693
269986,-4254.0,-5116.0,200.0,0.271,-0.621,-0.255,0.69
270002,-4406.0,-6110.0,-972.0,0.271,-0.617,-0.27,0.687
270018,-4788.0,-7654.0,-926.0,0.268,-0.613,-0.287,0.686
270035,-4764.0,-9558.0,2202.0,0.268,-0.607,-0.296,0.687
270062,-6216.0,-5668.0,890.0,0.267,-0.603,-0.304,0.688
270078,-6714.0,-5692.0,1108.0,0.259,-0.6,-0.319,0.687
270094,-7750.0,-4354.0,906.0,0.243,-0.597,-0.339,0.685
270110,-6358.0,-8182.0,3010.0,0.231,-0.596,-0.357,0.681
270126,-6008.0,-7550.0,1236.0,0.222,-0.595,-0.37,0.678
270142,-6654.0,-5406.0,-164.0,0.211,-0.595,-0.382,0.675
270159,-6076.0,-5794.0,140.0,0.198,-0.596,-0.395,0.67
270185,-5258.0,-7626.0,182.0,0.185,-0.598,-0.408,0.664
270201,-4528.0,-9058.0,496.0,0.175,-0.6,-0.418,0.659
270218,-5070.0,-7760.0,134.0,0.167,-0.602,-0.425,0.655
270234,-5450.0,-7486.0,32.0,0.16,-0.604,-0.431,0.651
270250,-5686.0,-5498.0,-1148.0,0.151,-0.605,-0.439,0.647
270266,-5032.0,-3712.0,-1804.0,0.143,-0.605,-0.448,0.643
270283,-4966.0,-5306.0,-1070.0,0.136,-0.604,-0.456,0.64
270310,-4570.0,-5566.0,-1072.0,0.132,-0.602,-0.462,0.638
270326,-4586.0,-5310.0,-1412.0,0.127,-0.601,-0.469,0.635
270342,-4908.0,-6182.0,-718.0,0.123,-0.599,-0.477,0.631
270358,-4816.0,-5186.0,-490.0,0.118,-0.597,-0.487,0.626
270374,-5756.0,-6136.0,164.0,0.112,-0.596,-0.497,0.621
270390,-4764.0,-4900.0,-2296.0,0.108,-0.593,-0.507,0.616
270416,-4972.0,-6638.0,-2994.0,0.106,-0.591,-0.516,0.611
270433,-4826.0,-6056.0,-1978.0,0.105,-0.588,-0.524,0.607
270450,-4934.0,-5338.0,-1800.0,0.104,-0.586,-0.533,0.602
270467,-4856.0,-6054.0,-1534.0,0.103,-0.584,-0.541,0.597
270484,-4680.0,-7212.0,-1632.0,0.101,-0.582,-0.55,0.591
270501,-4668.0,-6350.0,-2080.0,0.1,-0.58,-0.558,0.586
270518,-4584.0,-6540.0,-2382.0,0.099,-0.578,-0.566,0.58
270534,-4270.0,-7558.0,-2398.0,0.098,-0.576,-0.572,0.575
270551,-3998.0,-6330.0,-2238.0,0.098,-0.574,-0.579,0.571
270567,-3832.0,-5930.0,-2480.0,0.098,-0.572,-0.585,0.567
270584,-3904.0,-7500.0,-3086.0,0.097,-0.569,-0.591,0.563
270611,-4070.0,-6828.0,-3036.0,0.097,-0.567,-0.596,0.56
270628,-3844.0,-5880.0,-3222.0,0.098,-0.564,-0.602,0.557
270644,-3692.0,-6520.0,-2994.0,0.099,-0.561,-0.606,0.555
270660,-3760.0,-5654.0,-2706.0,0.1,-0.558,-0.611,0.552
270676,-3636.0,-5888.0,-3178.0,0.101,-0.554,-0.616,0.55
270692,-3526.0,-6328.0,-3082.0,0.104,-0.55,-0.62,0.549
270709,-3058.0,-5568.0,-2766.0,0.109,-0.546,-0.624,0.549
270735,-2546.0,-5222.0,-2476.0,0.115,-0.541,-0.627,0.549
270751,-3166.0,-6912.0,-2728.0,0.123,-0.536,-0.63,0.548
270768,-3244.0,-6378.0,-2388.0,0.132,-0.532,-0.632,0.548
270785,-3442.0,-6080.0,-1924.0,0.142,-0.527,-0.635,0.547
270802,-2840.0,-5194.0,-1504.0,0.153,-0.522,-0.638,0.545
270818,-2110.0,-6264.0,-1546.0,0.166,-0.518,-0.64,0.543
270835,-1724.0,-9168.0,-1796.0,0.179,-0.515,-0.641,0.54
270852,-1978.0,-6360.0,-2068.0,0.193,-0.512,-0.642,0.537
270869,-1350.0,-6554.0,-2936.0,0.206,-0.509,-0.643,0.534
270886,-1758.0,-7490.0,-2798.0,0.222,-0.506,-0.642,0.532
270912,-1472.0,-7494.0,-1630.0,0.239,-0.503,-0.64,0.529
270928,-1434.0,-6952.0,-1218.0,0.254,-0.5,-0.64,0.525
270944,-1302.0,-7950.0,-1744.0,0.269,-0.498,-0.64,0.519
270960,-1592.0,-8684.0,-1492.0,0.284,-0.495,-0.64,0.514
270976,-1586.0,-8660.0,-1330.0,0.301,-0.492,-0.64,0.508
270992,-1232.0,-6786.0,-1656.0,0.317,-0.488,-0.639,0.504
271018,-554.0,-7194.0,-2312.0,0.331,-0.484,-0.639,0.498
271035,-616.0,-8292.0,-2242.0,0.344,-0.481,-0.64,0.491
271052,-458.0,-7102.0,-2224.0,0.353,-0.478,-0.644,0.483
271068,606.0,-8248.0,-2782.0,0.361,-0.474,-0.647,0.475
271085,496.0,-8512.0,-1920.0,0.37,-0.47,-0.649,0.47
271102,226.0,-8870.0,-1874.0,0.378,-0.466,-0.652,0.464
271118,284.0,-8374.0,-1238.0,0.386,-0.461,-0.654,0.459
271134,-132.0,-6878.0,-1124.0,0.394,-0.456,-0.657,0.453
271150,926.0,-6950.0,-1340.0,0.4,-0.452,-0.661,0.445
271177,1304.0,-8552.0,-1382.0,0.406,-0.449,-0.665,0.439
271193,2014.0,-9560.0,-1774.0,0.413,-0.444,-0.667,0.432
271209,2090.0,-8154.0,-2202.0,0.421,-0.439,-0.669,0.427
271225,2036.0,-7386.0,-1916.0,0.426,-0.435,-0.673,0.42
271242,2340.0,-7430.0,-2346.0,0.43,-0.431,-0.677,0.412
271258,2796.0,-7766.0,-2866.0,0.435,-0.427,-0.682,0.405
271275,2614.0,-7668.0,-2820.0,0.441,-0.422,-0.684,0.399
271301,2952.0,-8394.0,-1610.0,0.447,-0.416,-0.687,0.393
271317,3116.0,-7786.0,-1668.0,0.453,-0.41,-0.69,0.387
271334,3020.0,-6486.0,-2174.0,0.458,-0.405,-0.693,0.381
271350,4104.0,-8572.0,-2168.0,0.464,-0.401,-0.694,0.377
271370,3368.0,-5374.0,-2206.0,0.47,-0.396,-0.696,0.372
271386,3310.0,-5926.0,-2366.0,0.473,-0.392,-0.7,0.364
271402,3948.0,-8378.0,-2022.0,0.477,-0.389,-0.702,0.358
271418,4140.0,-7968.0,-2122.0,0.481,-0.385,-0.705,0.352
271434,4066.0,-7968.0,-2162.0,0.485,-0.382,-0.707,0.345
271460,3782.0,-8788.0,-2562.0,0.488,-0.379,-0.71,0.339
271476,3860.0,-7770.0,-3128.0,0.491,-0.374,-0.713,0.333
271492,4370.0,-8738.0,-3002.0,0.493,-0.371,-0.716,0.327
271508,4614.0,-9650.0,-3138.0,0.493,-0.368,-0.72,0.321
271524,4584.0,-9912.0,-3006.0,0.493,-0.367,-0.723,0.316
271540,4742.0,-10976.0,-2640.0,0.491,-0.367,-0.726,0.311
271566,4284.0,-11438.0,-3032.0,0.487,-0.369,-0.73,0.306
271582,5398.0,-12012.0,-3100.0,0.482,-0.372,-0.733,0.304
271599,5586.0,-11484.0,-3602.0,0.476,-0.376,-0.734,0.305
271616,5974.0,-11236.0,-4064.0,0.47,-0.38,-0.733,0.311
271633,4980.0,-8712.0,-3522.0,0.462,-0.387,-0.732,0.317
271649,4612.0,-10492.0,-2656.0,0.455,-0.393,-0.729,0.328
271665,4360.0,-7934.0,-3176.0,0.448,-0.4,-0.723,0.341
271681,4208.0,-9560.0,-3120.0,0.441,-0.408,-0.716,0.356
271708,3798.0,-10242.0,-3286.0,0.437,-0.415,-0.706,0.373
271724,3280.0,-8942.0,-2994.0,0.435,-0.421,-0.693,0.392
271740,3130.0,-8082.0,-2418.0,0.433,-0.427,-0.679,0.412
271756,2566.0,-7390.0,-1976.0,0.43,-0.435,-0.665,0.428
271772,1986.0,-7770.0,-2554.0,0.427,-0.443,-0.652,0.444
271798,1784.0,-8204.0,-1912.0,0.423,-0.452,-0.637,0.459
271814,1500.0,-8768.0,-1646.0,0.419,-0.46,-0.623,0.474
271830,754.0,-7458.0,-1136.0,0.415,-0.469,-0.609,0.487
271846,310.0,-6564.0,-1236.0,0.409,-0.478,-0.597,0.498
271862,448.0,-7638.0,-1760.0,0.4,-0.489,-0.587,0.506
271878,102.0,-8956.0,-1848.0,0.39,-0.498,-0.58,0.513
271894,-312.0,-8112.0,-2018.0,0.379,-0.507,-0.573,0.52
271920,-954.0,-8140.0,-1416.0,0.366,-0.515,-0.567,0.528
271936,-986.0,-8192.0,-1792.0,0.352,-0.523,-0.562,0.536
271953,-1614.0,-7514.0,-1420.0,0.336,-0.529,-0.556,0.545
271969,-1762.0,-6300.0,-1302.0,0.318,-0.536,-0.553,0.553
271985,-1858.0,-5710.0,-1378.0,0.297,-0.542,-0.553,0.558
272001,-1900.0,-5874.0,-974.0,0.274,-0.55,-0.556,0.56
272028,-3092.0,-4904.0,-366.0,0.25,-0.555,-0.56,0.562
272045,-2636.0,-2552.0,-670.0,0.225,-0.56,-0.567,0.561
272061,-2808.0,1060.0,-2086.0,0.196,-0.564,-0.579,0.555
272077,-2884.0,1160.0,-3790.0,0.165,-0.567,-0.597,0.543
272093,-3310.0,2370.0,-3374.0,0.133,-0.567,-0.621,0.524
272109,-2890.0,-2404.0,-4306.0,0.103,-0.566,-0.642,0.507
272125,-2308.0,-10706.0,-5006.0,0.09,-0.564,-0.65,0.502
272151,-272.0,-15848.0,-3282.0,0.093,-0.561,-0.646,0.51
272167,598.0,-17350.0,-6690.0,0.101,-0.56,-0.634,0.523
272184,590.0,-3440.0,-2822.0,0.107,-0.558,-0.63,0.53
272200,-828.0,-162.0,-758.0,0.105,-0.557,-0.633,0.527
272217,-1704.0,172.0,2322.0,0.105,-0.555,-0.643,0.518
272233,-2110.0,-3202.0,-892.0,0.11,-0.554,-0.648,0.511
272250,-1614.0,-5270.0,-2082.0,0.119,-0.552,-0.653,0.505
272267,-3056.0,-5910.0,-2762.0,0.127,-0.55,-0.658,0.498
272284,-2144.0,-4624.0,-2930.0,0.138,-0.548,-0.664,0.489
272301,-2222.0,-6306.0,-2654.0,0.152,-0.544,-0.67,0.482
272328,-2968.0,-3964.0,-3660.0,0.167,-0.539,-0.676,0.474
272345,-2108.0,-6122.0,-3310.0,0.18,-0.534,-0.682,0.466
272361,-1684.0,-6730.0,-3516.0,0.192,-0.529,-0.689,0.457
272377,-1902.0,-6884.0,-3398.0,0.206,-0.524,-0.694,0.448
272393,-1548.0,-6050.0,-3620.0,0.22,-0.518,-0.699,0.44
272409,-642.0,-7162.0,-3788.0,0.234,-0.512,-0.705,0.432
272435,-430.0,-7422.0,-4232.0,0.249,-0.504,-0.71,0.423
272452,-190.0,-6828.0,-4110.0,0.264,-0.497,-0.716,0.414
272468,82.0,-7844.0,-3878.0,0.278,-0.49,-0.72,0.406
272485,400.0,-7898.0,-3490.0,0.292,-0.482,-0.723,0.399
272502,740.0,-7062.0,-3618.0,0.305,-0.476,-0.727,0.39
272518,1376.0,-7384.0,-4004.0,0.317,-0.47,-0.731,0.381
272534,1932.0,-7930.0,-4062.0,0.329,-0.464,-0.734,0.372
272551,2198.0,-8806.0,-3922.0,0.341,-0.458,-0.737,0.362
272567,1096.0,-7086.0,-4530.0,0.352,-0.452,-0.74,0.353
272584,2288.0,-8374.0,-4490.0,0.362,-0.446,-0.743,0.343
272610,2064.0,-8218.0,-4700.0,0.372,-0.441,-0.746,0.334
272626,2050.0,-8078.0,-4640.0,0.38,-0.437,-0.748,0.324
272642,3000.0,-8786.0,-4632.0,0.387,-0.433,-0.751,0.315
272658,2278.0,-10056.0,-5350.0,0.393,-0.429,-0.753,0.307
272674,2334.0,-9136.0,-5310.0,0.398,-0.425,-0.755,0.301
272690,2734.0,-10274.0,-5298.0,0.4,-0.423,-0.757,0.295
272717,3436.0,-11432.0,-6032.0,0.401,-0.423,-0.759,0.291
272733,2816.0,-10902.0,-5664.0,0.4,-0.422,-0.76,0.29
272750,3586.0,-12330.0,-5952.0,0.397,-0.424,-0.761,0.29
272767,3272.0,-11638.0,-6022.0,0.392,-0.426,-0.761,0.294
272784,3008.0,-11248.0,-5986.0,0.385,-0.428,-0.76,0.301
272800,2846.0,-9704.0,-6262.0,0.378,-0.431,-0.758,0.311
272817,3044.0,-9958.0,-5996.0,0.369,-0.435,-0.755,0.323
272833,3082.0,-9458.0,-5656.0,0.361,-0.439,-0.751,0.337
272859,2788.0,-8760.0,-5070.0,0.353,-0.443,-0.745,0.351
272875,2746.0,-8756.0,-4504.0,0.346,-0.447,-0.739,0.366
272891,2350.0,-8204.0,-4308.0,0.34,-0.452,-0.732,0.38
272907,1688.0,-7022.0,-3992.0,0.333,-0.457,-0.725,0.393
272924,1488.0,-7672.0,-3870.0,0.327,-0.462,-0.718,0.406
272940,1088.0,-7590.0,-3632.0,0.321,-0.466,-0.71,0.419
272966,692.0,-6716.0,-3206.0,0.316,-0.47,-0.701,0.433
272982,824.0,-8270.0,-2560.0,0.312,-0.473,-0.691,0.448
272999,-178.0,-6052.0,-3706.0,0.306,-0.477,-0.682,0.462
273016,-348.0,-6022.0,-3124.0,0.299,-0.481,-0.674,0.474
273033,-468.0,-6332.0,-2688.0,0.291,-0.486,-0.667,0.484
273049,-770.0,-6842.0,-2622.0,0.281,-0.491,-0.661,0.492
273066,-1442.0,-6864.0,-2328.0,0.269,-0.496,-0.657,0.499
273083,-1884.0,-5930.0,-2574.0,0.257,-0.502,-0.654,0.505
273100,-1976.0,-6544.0,-2382.0,0.243,-0.507,-0.651,0.51
273116,-1640.0,-5388.0,-2470.0,0.228,-0.512,-0.649,0.515
273133,-1306.0,-4832.0,-2316.0,0.213,-0.518,-0.646,0.519
273160,-926.0,-4526.0,-2230.0,0.199,-0.522,-0.644,0.522
273177,-598.0,-3970.0,-1806.0,0.187,-0.526,-0.642,0.525
273193,-392.0,-3920.0,-1438.0,0.177,-0.529,-0.641,0.528
273209,-136.0,-3536.0,-1230.0,0.17,-0.53,-0.639,0.531
273225,-128.0,-3070.0,-1236.0,0.166,-0.531,-0.638,0.533
273241,-162.0,-3496.0,-1834.0,0.164,-0.53,-0.638,0.533
273258,-126.0,-4080.0,-1548.0,0.165,-0.529,-0.641,0.532
273275,-292.0,-3446.0,-1764.0,0.17,-0.526,-0.643,0.529
273292,-316.0,-3758.0,-1466.0,0.178,-0.523,-0.647,0.525
273319,-534.0,-3944.0,-2022.0,0.189,-0.519,-0.651,0.521
273335,-1246.0,-5514.0,-1646.0,0.203,-0.514,-0.654,0.516
273351,-1676.0,-5128.0,-1664.0,0.218,-0.509,-0.657,0.511
273368,-1578.0,-6914.0,-1936.0,0.233,-0.505,-0.66,0.505
273385,-1650.0,-7964.0,-2382.0,0.249,-0.499,-0.663,0.499
273401,-2038.0,-7054.0,-2908.0,0.266,-0.492,-0.666,0.493
273418,-1138.0,-6498.0,-3568.0,0.28,-0.486,-0.67,0.487
273435,-702.0,-8122.0,-2752.0,0.294,-0.48,-0.674,0.479
273461,-902.0,-7968.0,-2370.0,0.306,-0.474,-0.678,0.472
273478,-500.0,-8442.0,-2154.0,0.32,-0.467,-0.682,0.463
273495,-132.0,-6898.0,-2534.0,0.332,-0.46,-0.688,0.452
273512,670.0,-6200.0,-2766.0,0.341,-0.454,-0.696,0.44
273529,1446.0,-6970.0,-2880.0,0.35,-0.448,-0.702,0.428
273546,1946.0,-7620.0,-3608.0,0.36,-0.442,-0.708,0.416
273563,1900.0,-7314.0,-3470.0,0.371,-0.435,-0.714,0.405
273580,1792.0,-7928.0,-3084.0,0.381,-0.428,-0.72,0.392
273597,2052.0,-7906.0,-3100.0,0.389,-0.422,-0.725,0.38
273614,2530.0,-8004.0,-3292.0,0.397,-0.417,-0.731,0.367
273631,2850.0,-8258.0,-3686.0,0.403,-0.411,-0.736,0.355
273648,3418.0,-8502.0,-4268.0,0.41,-0.407,-0.74,0.344
273665,3564.0,-7948.0,-4482.0,0.415,-0.402,-0.744,0.334
273682,3958.0,-9172.0,-4110.0,0.42,-0.399,-0.747,0.325
273709,3970.0,-9362.0,-4098.0,0.426,-0.395,-0.75,0.317
273725,3628.0,-9284.0,-4280.0,0.431,-0.391,-0.751,0.311
273742,3684.0,-10162.0,-4342.0,0.434,-0.388,-0.753,0.306
273758,4122.0,-12098.0,-4848.0,0.435,-0.387,-0.755,0.301
273774,4738.0,-13088.0,-5362.0,0.434,-0.387,-0.756,0.299
273790,4532.0,-12568.0,-5644.0,0.43,-0.391,-0.758,0.297
273806,4208.0,-13216.0,-5248.0,0.422,-0.397,-0.759,0.297
273832,4106.0,-11824.0,-5768.0,0.412,-0.404,-0.76,0.301
273849,4234.0,-11344.0,-6196.0,0.401,-0.411,-0.759,0.307
273866,3782.0,-9688.0,-5886.0,0.389,-0.418,-0.757,0.316
273882,3194.0,-8782.0,-5398.0,0.377,-0.426,-0.755,0.327
273899,2886.0,-8304.0,-4908.0,0.364,-0.434,-0.75,0.34
273916,2678.0,-7928.0,-4598.0,0.353,-0.442,-0.744,0.355
273932,2504.0,-7550.0,-4334.0,0.342,-0.449,-0.738,0.371
273949,2160.0,-7476.0,-4534.0,0.331,-0.456,-0.731,0.386
273966,1234.0,-7656.0,-3776.0,0.321,-0.462,-0.723,0.401
273983,922.0,-6932.0,-3836.0,0.312,-0.467,-0.714,0.418
274010,1248.0,-8726.0,-2742.0,0.304,-0.473,-0.702,0.437
274027,904.0,-7768.0,-3574.0,0.296,-0.478,-0.69,0.456
274044,280.0,-6960.0,-3490.0,0.286,-0.484,-0.68,0.472
274060,-104.0,-7370.0,-2984.0,0.278,-0.488,-0.669,0.487
274076,-132.0,-6046.0,-3024.0,0.268,-0.493,-0.66,0.499
274092,-596.0,-6976.0,-2778.0,0.258,-0.498,-0.653,0.51
274108,-846.0,-7384.0,-2376.0,0.249,-0.502,-0.646,0.518
274124,-1456.0,-7578.0,-2024.0,0.24,-0.506,-0.64,0.526
274142,-2128.0,-5464.0,-2018.0,0.231,-0.511,-0.635,0.532
274168,-2098.0,-5910.0,-1886.0,0.219,-0.516,-0.631,0.537
274184,-2134.0,-6644.0,-2486.0,0.206,-0.521,-0.628,0.54
274201,-2414.0,-5732.0,-2574.0,0.194,-0.526,-0.625,0.544
274217,-1896.0,-3780.0,-2340.0,0.181,-0.53,-0.622,0.547
274234,-1164.0,-3616.0,-1576.0,0.169,-0.535,-0.618,0.551
274250,-368.0,-3516.0,-1382.0,0.158,-0.538,-0.615,0.555
274266,-270.0,-4862.0,-810.0,0.15,-0.539,-0.612,0.559
274293,-672.0,-2992.0,-1432.0,0.146,-0.539,-0.61,0.562
274310,-632.0,-2810.0,-1860.0,0.142,-0.537,-0.612,0.563
274326,-222.0,-3794.0,-1444.0,0.142,-0.534,-0.615,0.562
274342,-704.0,-4264.0,-1390.0,0.145,-0.531,-0.62,0.56
274359,-830.0,-4072.0,-1414.0,0.152,-0.526,-0.625,0.557
274375,-1288.0,-4092.0,-1660.0,0.161,-0.521,-0.631,0.552
274391,-1404.0,-4920.0,-1450.0,0.174,-0.516,-0.636,0.547
274417,-2028.0,-5696.0,-760.0,0.188,-0.512,-0.64,0.542
274434,-2452.0,-6050.0,-894.0,0.203,-0.508,-0.643,0.536
274451,-2652.0,-6192.0,-1226.0,0.217,-0.504,-0.646,0.53
274467,-2722.0,-6420.0,-2386.0,0.23,-0.501,-0.651,0.522
274484,-2042.0,-7302.0,-2800.0,0.242,-0.498,-0.656,0.513
274501,-1876.0,-7862.0,-2386.0,0.253,-0.496,-0.661,0.503
274518,-1226.0,-8048.0,-2174.0,0.264,-0.494,-0.667,0.491
274534,-850.0,-8274.0,-1922.0,0.274,-0.492,-0.674,0.479
274551,-354.0,-6570.0,-2606.0,0.284,-0.489,-0.681,0.465
274568,656.0,-7200.0,-3666.0,0.293,-0.486,-0.689,0.45
274594,1092.0,-8104.0,-3978.0,0.303,-0.483,-0.697,0.436
274610,1032.0,-7760.0,-3924.0,0.314,-0.479,-0.703,0.422
274627,914.0,-6968.0,-3454.0,0.326,-0.475,-0.708,0.41
274644,1384.0,-7858.0,-3624.0,0.337,-0.471,-0.711,0.4
274661,1362.0,-7296.0,-4090.0,0.348,-0.466,-0.713,0.392
274677,1694.0,-8316.0,-4424.0,0.359,-0.461,-0.715,0.385
274694,1750.0,-8328.0,-4226.0,0.369,-0.456,-0.716,0.377
274710,1570.0,-8308.0,-3862.0,0.379,-0.451,-0.719,0.37
274727,1484.0,-8832.0,-3390.0,0.387,-0.446,-0.721,0.363
274744,2032.0,-9434.0,-4186.0,0.395,-0.441,-0.723,0.356
274770,2080.0,-9460.0,-4584.0,0.401,-0.436,-0.726,0.349
274786,2298.0,-10838.0,-4774.0,0.405,-0.433,-0.728,0.343
274802,2328.0,-11398.0,-5076.0,0.408,-0.431,-0.731,0.338
274818,2594.0,-12576.0,-4724.0,0.409,-0.43,-0.732,0.333
274834,2868.0,-12160.0,-4962.0,0.408,-0.431,-0.734,0.33
274850,3186.0,-12002.0,-5076.0,0.405,-0.433,-0.735,0.329
274877,3502.0,-11476.0,-5404.0,0.401,-0.436,-0.735,0.33
274894,3326.0,-10626.0,-5352.0,0.396,-0.439,-0.735,0.332
274910,3106.0,-9472.0,-5292.0,0.39,-0.443,-0.735,0.335
274927,2948.0,-9742.0,-5056.0,0.381,-0.448,-0.733,0.34
274944,2574.0,-9162.0,-5014.0,0.373,-0.453,-0.731,0.348
274961,2270.0,-8716.0,-5170.0,0.363,-0.459,-0.728,0.358
274977,2114.0,-9148.0,-5320.0,0.352,-0.464,-0.724,0.37
274993,1760.0,-9058.0,-5298.0,0.341,-0.47,-0.719,0.383
275019,1342.0,-8400.0,-4690.0,0.329,-0.475,-0.713,0.397
275035,1240.0,-8288.0,-4264.0,0.316,-0.481,-0.707,0.411
275051,824.0,-7994.0,-3810.0,0.303,-0.487,-0.7,0.425
275067,332.0,-7406.0,-3530.0,0.289,-0.493,-0.695,0.437
275084,224.0,-7506.0,-4068.0,0.275,-0.497,-0.689,0.449
275100,-136.0,-7642.0,-3528.0,0.264,-0.5,-0.684,0.461
275117,-1014.0,-5280.0,-3860.0,0.254,-0.501,-0.678,0.474
275134,-1142.0,-4570.0,-3816.0,0.243,-0.503,-0.671,0.487
275161,-870.0,-7212.0,-3266.0,0.232,-0.506,-0.664,0.499
275178,-1032.0,-7036.0,-3112.0,0.223,-0.507,-0.656,0.512
275195,-1110.0,-6398.0,-2580.0,0.216,-0.508,-0.649,0.524
275212,-1804.0,-6182.0,-1960.0,0.208,-0.509,-0.643,0.532
275229,-2154.0,-5958.0,-1972.0,0.199,-0.511,-0.639,0.54
275246,-2796.0,-6570.0,-2350.0,0.19,-0.512,-0.636,0.545
275263,-2740.0,-6066.0,-2380.0,0.18,-0.514,-0.632,0.551
275281,-2706.0,-5472.0,-1832.0,0.17,-0.517,-0.63,0.555
275298,-2654.0,-4732.0,-1494.0,0.159,-0.519,-0.628,0.558
275315,-2056.0,-4102.0,-1250.0,0.148,-0.521,-0.627,0.56
275332,-1358.0,-4862.0,-1158.0,0.138,-0.523,-0.626,0.562
275349,-932.0,-4582.0,-1304.0,0.132,-0.523,-0.624,0.565
275366,-460.0,-4160.0,-1262.0,0.128,-0.523,-0.624,0.566
275385,-254.0,-2712.0,-1164.0,0.128,-0.523,-0.625,0.566
275401,-96.0,-2488.0,-1188.0,0.13,-0.521,-0.627,0.564
275417,-418.0,-3508.0,-1722.0,0.133,-0.519,-0.63,0.563
275443,-716.0,-3938.0,-2328.0,0.141,-0.516,-0.632,0.561
275459,-1100.0,-4628.0,-2112.0,0.152,-0.512,-0.634,0.559
275475,-1032.0,-4420.0,-1280.0,0.165,-0.508,-0.636,0.556
275492,-1252.0,-4946.0,-778.0,0.179,-0.505,-0.639,0.552
275509,-1706.0,-6932.0,-864.0,0.195,-0.501,-0.643,0.546
275525,-2146.0,-5840.0,-1350.0,0.211,-0.496,-0.646,0.54
275551,-2060.0,-5900.0,-1992.0,0.225,-0.492,-0.651,0.533
275567,-1814.0,-8660.0,-2582.0,0.239,-0.488,-0.656,0.524
275584,-2088.0,-7790.0,-2484.0,0.254,-0.483,-0.66,0.517
275600,-1522.0,-5846.0,-2676.0,0.267,-0.479,-0.665,0.508
275617,-586.0,-7118.0,-2758.0,0.278,-0.475,-0.67,0.498
275634,88.0,-9216.0,-2738.0,0.29,-0.471,-0.675,0.489
275651,-374.0,-8440.0,-2792.0,0.303,-0.466,-0.68,0.478
275667,-554.0,-7110.0,-2540.0,0.314,-0.462,-0.687,0.465
275684,122.0,-7278.0,-2566.0,0.324,-0.458,-0.694,0.452
275710,948.0,-8126.0,-3578.0,0.333,-0.454,-0.699,0.441
275726,1286.0,-7810.0,-3722.0,0.343,-0.45,-0.704,0.43
275742,1458.0,-7896.0,-3858.0,0.353,-0.444,-0.709,0.419
275758,1550.0,-8652.0,-3250.0,0.363,-0.439,-0.714,0.408
275774,1674.0,-8434.0,-3164.0,0.373,-0.432,-0.719,0.396
275790,1916.0,-8616.0,-3080.0,0.381,-0.426,-0.723,0.387
275806,2290.0,-8582.0,-3518.0,0.389,-0.42,-0.727,0.378
275832,2790.0,-8944.0,-3798.0,0.397,-0.415,-0.73,0.371
275849,3068.0,-9960.0,-4026.0,0.403,-0.409,-0.733,0.364
275866,3328.0,-11374.0,-3788.0,0.41,-0.403,-0.736,0.357
275883,3646.0,-11852.0,-4416.0,0.417,-0.398,-0.738,0.351
275899,3404.0,-11310.0,-4440.0,0.422,-0.394,-0.739,0.346
275916,3594.0,-11136.0,-4886.0,0.424,-0.393,-0.74,0.344
275933,4334.0,-12802.0,-5294.0,0.424,-0.394,-0.74,0.344
275949,3958.0,-12202.0,-5110.0,0.423,-0.396,-0.738,0.346
275966,3846.0,-11578.0,-4254.0,0.419,-0.399,-0.737,0.35
275983,3660.0,-10878.0,-4210.0,0.413,-0.403,-0.735,0.356
276010,3512.0,-10538.0,-4746.0,0.406,-0.409,-0.732,0.364
276027,3146.0,-9900.0,-4576.0,0.398,-0.414,-0.729,0.373
276044,2634.0,-9448.0,-4108.0,0.389,-0.42,-0.725,0.384
276061,2336.0,-9002.0,-3920.0,0.379,-0.426,-0.719,0.396
276078,2094.0,-8664.0,-3944.0,0.37,-0.432,-0.713,0.41
276095,1822.0,-8286.0,-3558.0,0.36,-0.438,-0.706,0.424
276112,1362.0,-8074.0,-3276.0,0.351,-0.444,-0.699,0.437
276129,890.0,-7876.0,-3062.0,0.341,-0.45,-0.692,0.449
276146,518.0,-7926.0,-3074.0,0.331,-0.457,-0.685,0.461
276163,312.0,-8620.0,-2748.0,0.321,-0.462,-0.678,0.474
276180,42.0,-7976.0,-2718.0,0.312,-0.468,-0.669,0.486
276197,-400.0,-7422.0,-2316.0,0.303,-0.473,-0.662,0.497
276214,-700.0,-6108.0,-2598.0,0.293,-0.478,-0.654,0.507
276240,-532.0,-6274.0,-2648.0,0.281,-0.484,-0.648,0.517
276256,-766.0,-7206.0,-2406.0,0.269,-0.489,-0.642,0.526
276273,-1018.0,-6804.0,-2182.0,0.258,-0.494,-0.636,0.534
276289,-1382.0,-6100.0,-1936.0,0.247,-0.498,-0.631,0.541
276306,-1574.0,-6416.0,-1710.0,0.235,-0.503,-0.626,0.547
276322,-1660.0,-6730.0,-1448.0,0.223,-0.508,-0.622,0.553
276338,-1628.0,-5798.0,-1250.0,0.212,-0.512,-0.619,0.557
276364,-1704.0,-5652.0,-1600.0,0.201,-0.515,-0.616,0.561
276381,-1662.0,-5320.0,-1482.0,0.19,-0.518,-0.615,0.563
276398,-1332.0,-4618.0,-1260.0,0.181,-0.521,-0.613,0.566
276414,-1094.0,-4076.0,-1084.0,0.173,-0.523,-0.611,0.569
276431,-868.0,-3454.0,-1428.0,0.167,-0.524,-0.609,0.571
276448,-668.0,-3464.0,-1648.0,0.164,-0.524,-0.608,0.573
276465,-534.0,-3762.0,-1420.0,0.163,-0.523,-0.608,0.575
276482,-536.0,-3446.0,-1310.0,0.165,-0.521,-0.608,0.576
276498,-790.0,-4474.0,-1154.0,0.171,-0.519,-0.608,0.576
276515,-1048.0,-4332.0,-848.0,0.181,-0.516,-0.608,0.575
276532,-1376.0,-4274.0,-1078.0,0.192,-0.513,-0.61,0.573
276549,-1692.0,-5156.0,-1156.0,0.204,-0.509,-0.612,0.57
276576,-1996.0,-6010.0,-1382.0,0.217,-0.506,-0.615,0.565
276593,-2240.0,-6356.0,-1406.0,0.231,-0.502,-0.617,0.56
276610,-2118.0,-7472.0,-1130.0,0.244,-0.499,-0.621,0.553
276626,-2138.0,-6678.0,-1496.0,0.258,-0.495,-0.624,0.547
276642,-1992.0,-6072.0,-1834.0,0.269,-0.491,-0.629,0.54
276659,-1324.0,-7550.0,-2230.0,0.28,-0.487,-0.636,0.53
276675,-1098.0,-7478.0,-2562.0,0.291,-0.483,-0.643,0.519
276691,-876.0,-7228.0,-2102.0,0.301,-0.478,-0.651,0.507
276717,-384.0,-7828.0,-2066.0,0.31,-0.475,-0.659,0.495
276733,128.0,-7652.0,-2634.0,0.319,-0.472,-0.666,0.483
276749,396.0,-7944.0,-2532.0,0.328,-0.468,-0.673,0.47
276766,622.0,-7646.0,-2836.0,0.337,-0.464,-0.68,0.457
276783,902.0,-8194.0,-2786.0,0.346,-0.46,-0.687,0.443
276799,1140.0,-8098.0,-2840.0,0.354,-0.456,-0.694,0.43
276816,1458.0,-8258.0,-3332.0,0.362,-0.453,-0.7,0.417
276843,1628.0,-8074.0,-3264.0,0.37,-0.449,-0.706,0.405
276859,1830.0,-7226.0,-3602.0,0.377,-0.445,-0.71,0.394
276876,2286.0,-7692.0,-3888.0,0.384,-0.441,-0.714,0.385
276893,2516.0,-8088.0,-3534.0,0.39,-0.437,-0.718,0.376
276910,2744.0,-7764.0,-3534.0,0.397,-0.432,-0.721,0.367
276927,2756.0,-7968.0,-3514.0,0.402,-0.429,-0.725,0.359
276944,2658.0,-8504.0,-3572.0,0.406,-0.426,-0.728,0.352
276961,2888.0,-9588.0,-4324.0,0.408,-0.424,-0.732,0.344
276978,2896.0,-10598.0,-4804.0,0.411,-0.421,-0.735,0.338
276995,3248.0,-11832.0,-4788.0,0.412,-0.419,-0.738,0.333
277012,3538.0,-12834.0,-5270.0,0.412,-0.418,-0.74,0.329
277029,3330.0,-13244.0,-5664.0,0.41,-0.418,-0.742,0.326
277046,3536.0,-13528.0,-5614.0,0.407,-0.42,-0.743,0.326
277063,3664.0,-13228.0,-5798.0,0.402,-0.422,-0.743,0.329
277090,3432.0,-11258.0,-5812.0,0.396,-0.426,-0.742,0.334
277106,3488.0,-11272.0,-5874.0,0.388,-0.43,-0.74,0.342
277123,3240.0,-10952.0,-5362.0,0.381,-0.434,-0.737,0.352
277139,2870.0,-9788.0,-5010.0,0.373,-0.438,-0.732,0.365
277155,2660.0,-9256.0,-4616.0,0.364,-0.443,-0.726,0.38
277171,2248.0,-7846.0,-4430.0,0.356,-0.448,-0.718,0.397
277188,2058.0,-7864.0,-4132.0,0.347,-0.453,-0.71,0.414
277214,1816.0,-8130.0,-3942.0,0.338,-0.458,-0.7,0.431
277231,1260.0,-8564.0,-3456.0,0.331,-0.463,-0.691,0.447
277247,684.0,-8158.0,-3054.0,0.325,-0.466,-0.68,0.463
277264,130.0,-6630.0,-2610.0,0.319,-0.47,-0.669,0.48
277281,184.0,-6528.0,-2682.0,0.31,-0.476,-0.658,0.494
277298,-18.0,-8026.0,-2242.0,0.301,-0.481,-0.648,0.507
277315,-676.0,-6566.0,-2254.0,0.292,-0.486,-0.639,0.52
277332,-1072.0,-5496.0,-2190.0,0.28,-0.492,-0.63,0.531
277349,-1094.0,-6246.0,-2124.0,0.266,-0.498,-0.623,0.541
277366,-1402.0,-7336.0,-1760.0,0.251,-0.505,-0.617,0.549
277383,-2074.0,-7250.0,-1200.0,0.237,-0.51,-0.612,0.556
277409,-2238.0,-6782.0,-854.0,0.222,-0.516,-0.609,0.56
277425,-2058.0,-5882.0,-700.0,0.207,-0.521,-0.606,0.564
277442,-2240.0,-3998.0,-1128.0,0.191,-0.526,-0.605,0.567
277458,-1326.0,-4150.0,-1324.0,0.176,-0.53,-0.604,0.569
277474,-1346.0,-2170.0,-1776.0,0.162,-0.533,-0.603,0.571
277490,-792.0,-4084.0,-1652.0,0.151,-0.534,-0.602,0.573
277506,-574.0,-1326.0,-1278.0,0.144,-0.535,-0.602,0.575
277532,-52.0,-3272.0,-1164.0,0.14,-0.534,-0.602,0.576
277549,-356.0,-3426.0,-1208.0,0.14,-0.533,-0.603,0.577
277566,-546.0,-3198.0,-1022.0,0.144,-0.532,-0.603,0.577
277582,-814.0,-2376.0,-1076.0,0.151,-0.529,-0.606,0.574
277599,-1096.0,-4688.0,-992.0,0.161,-0.526,-0.609,0.571
277616,-1670.0,-4594.0,-1192.0,0.174,-0.522,-0.613,0.567
277633,-2006.0,-4536.0,-1364.0,0.189,-0.518,-0.617,0.562
277649,-2464.0,-5532.0,-1196.0,0.204,-0.515,-0.621,0.555
277666,-1994.0,-7312.0,-1368.0,0.219,-0.512,-0.624,0.548
277683,-2366.0,-7504.0,-2310.0,0.235,-0.509,-0.628,0.54
277709,-2480.0,-7274.0,-1888.0,0.251,-0.505,-0.631,0.532
277725,-2106.0,-7566.0,-1992.0,0.265,-0.501,-0.637,0.522
277742,-1990.0,-8514.0,-1354.0,0.28,-0.497,-0.644,0.509
277759,-1654.0,-7474.0,-2074.0,0.292,-0.493,-0.653,0.495
277775,-834.0,-7698.0,-2614.0,0.302,-0.489,-0.662,0.481
277792,136.0,-6922.0,-2852.0,0.312,-0.485,-0.669,0.468
277808,780.0,-6890.0,-3010.0,0.322,-0.481,-0.675,0.456
277834,1314.0,-6766.0,-3484.0,0.333,-0.477,-0.681,0.444
277850,930.0,-8290.0,-2952.0,0.345,-0.471,-0.688,0.431
277866,760.0,-6392.0,-3002.0,0.356,-0.465,-0.695,0.417
277882,1404.0,-7884.0,-2372.0,0.365,-0.459,-0.702,0.403
277899,1982.0,-9234.0,-3300.0,0.376,-0.453,-0.707,0.392
277916,1772.0,-7578.0,-4040.0,0.386,-0.447,-0.712,0.381
277932,2178.0,-7906.0,-3820.0,0.395,-0.44,-0.716,0.37
277958,2728.0,-8934.0,-3236.0,0.405,-0.432,-0.72,0.361
277974,2410.0,-6332.0,-3398.0,0.413,-0.426,-0.723,0.353
277990,3268.0,-6732.0,-3536.0,0.421,-0.419,-0.727,0.345
278006,3670.0,-8500.0,-3946.0,0.428,-0.412,-0.73,0.337
278022,3594.0,-8362.0,-3930.0,0.435,-0.405,-0.734,0.329
278038,4478.0,-9452.0,-3724.0,0.442,-0.398,-0.737,0.321
278054,3508.0,-9070.0,-4348.0,0.447,-0.392,-0.74,0.315
278080,4270.0,-9530.0,-4574.0,0.449,-0.389,-0.743,0.309
278096,5014.0,-11952.0,-4632.0,0.45,-0.387,-0.745,0.304
278113,4992.0,-11514.0,-5008.0,0.449,-0.385,-0.748,0.3
278130,5084.0,-11716.0,-4794.0,0.447,-0.385,-0.751,0.297
278147,5158.0,-11216.0,-4758.0,0.444,-0.386,-0.752,0.297
278164,5110.0,-10586.0,-4836.0,0.439,-0.388,-0.753,0.299
278181,4900.0,-9818.0,-4956.0,0.433,-0.391,-0.754,0.303
278198,4630.0,-9548.0,-5108.0,0.425,-0.395,-0.753,0.309
278215,4304.0,-9108.0,-4912.0,0.417,-0.4,-0.751,0.318
278232,4264.0,-9092.0,-4982.0,0.409,-0.406,-0.748,0.329
278249,3824.0,-8474.0,-4806.0,0.402,-0.411,-0.743,0.343
278275,3468.0,-8570.0,-4348.0,0.394,-0.416,-0.738,0.357
278291,3084.0,-8756.0,-3550.0,0.386,-0.421,-0.731,0.373
278307,2738.0,-8500.0,-3200.0,0.378,-0.426,-0.724,0.389
278323,1778.0,-8996.0,-2760.0,0.37,-0.431,-0.715,0.408
278339,1572.0,-7878.0,-3176.0,0.36,-0.436,-0.706,0.427
278355,1338.0,-8608.0,-2746.0,0.35,-0.44,-0.696,0.447
278381,306.0,-5806.0,-4238.0,0.339,-0.444,-0.687,0.465
278398,1044.0,-6192.0,-3162.0,0.325,-0.449,-0.679,0.481
278415,1140.0,-6410.0,-3692.0,0.311,-0.454,-0.673,0.495
278431,868.0,-6638.0,-3306.0,0.298,-0.459,-0.666,0.508
278448,-10.0,-7660.0,-2206.0,0.286,-0.463,-0.659,0.519
278465,-738.0,-6738.0,-1732.0,0.274,-0.468,-0.653,0.528
278482,-1212.0,-7570.0,-1450.0,0.262,-0.474,-0.649,0.535
278499,-1548.0,-6772.0,-1880.0,0.25,-0.479,-0.645,0.541
278516,-1632.0,-6026.0,-2030.0,0.235,-0.485,-0.641,0.546
278532,-968.0,-6112.0,-2342.0,0.22,-0.492,-0.639,0.549
278558,-1264.0,-6746.0,-2164.0,0.206,-0.498,-0.635,0.553
278574,-1842.0,-4506.0,-1916.0,0.193,-0.503,-0.633,0.556
278590,-1638.0,-4244.0,-1624.0,0.18,-0.508,-0.632,0.557
278606,-1200.0,-4648.0,-1298.0,0.168,-0.513,-0.631,0.558
278622,-748.0,-4104.0,-1482.0,0.159,-0.516,-0.63,0.558
278648,354.0,-3964.0,-828.0,0.154,-0.519,-0.627,0.56
278664,-272.0,-2738.0,-1326.0,0.152,-0.521,-0.625,0.561
278681,-316.0,-3018.0,-1492.0,0.153,-0.522,-0.623,0.562
278698,-402.0,-3894.0,-1760.0,0.157,-0.522,-0.623,0.561
278714,-746.0,-4156.0,-1516.0,0.165,-0.521,-0.624,0.559
278731,-882.0,-3466.0,-1182.0,0.175,-0.518,-0.626,0.555
278748,-1114.0,-4210.0,-1414.0,0.189,-0.515,-0.629,0.551
278765,-1484.0,-6418.0,-1386.0,0.205,-0.51,-0.632,0.546
278782,-2100.0,-5022.0,-2144.0,0.223,-0.505,-0.634,0.542
278799,-1904.0,-5292.0,-2042.0,0.24,-0.5,-0.637,0.536
278825,-1180.0,-8036.0,-1420.0,0.256,-0.496,-0.639,0.529
278842,-1354.0,-7580.0,-1366.0,0.274,-0.491,-0.642,0.522
278859,-1754.0,-7046.0,-1690.0,0.29,-0.485,-0.646,0.513
278875,-1186.0,-6996.0,-1864.0,0.306,-0.479,-0.651,0.504
278891,-560.0,-7066.0,-2850.0,0.319,-0.472,-0.658,0.493
278907,208.0,-7558.0,-2734.0,0.331,-0.465,-0.664,0.483
278923,822.0,-7374.0,-2396.0,0.342,-0.459,-0.67,0.474
278939,1298.0,-8352.0,-2656.0,0.353,-0.452,-0.675,0.464
278965,628.0,-7290.0,-2036.0,0.366,-0.445,-0.68,0.454
278982,642.0,-6952.0,-2184.0,0.375,-0.438,-0.687,0.441
278999,1450.0,-7926.0,-2328.0,0.383,-0.432,-0.694,0.429
279015,2308.0,-8540.0,-2950.0,0.391,-0.426,-0.701,0.417
279031,2442.0,-7890.0,-3428.0,0.4,-0.419,-0.706,0.406
279048,2522.0,-8340.0,-3540.0,0.409,-0.413,-0.711,0.395
279064,2944.0,-8628.0,-3780.0,0.418,-0.406,-0.716,0.385
279090,3218.0,-9578.0,-3154.0,0.427,-0.398,-0.719,0.377
279106,3098.0,-8036.0,-3444.0,0.434,-0.392,-0.723,0.368
279122,3652.0,-9200.0,-3522.0,0.44,-0.387,-0.726,0.36
279138,4088.0,-9916.0,-3652.0,0.445,-0.382,-0.729,0.352
279154,4580.0,-11492.0,-3712.0,0.449,-0.378,-0.732,0.346
279171,4522.0,-11938.0,-3672.0,0.452,-0.374,-0.734,0.342
279197,4644.0,-12722.0,-3700.0,0.454,-0.372,-0.735,0.34
279213,4892.0,-12556.0,-3848.0,0.454,-0.371,-0.735,0.34
279229,4902.0,-12302.0,-3690.0,0.451,-0.372,-0.736,0.343
279246,4954.0,-11844.0,-3982.0,0.445,-0.375,-0.735,0.348
279263,4610.0,-11156.0,-4134.0,0.438,-0.379,-0.733,0.355
279279,4354.0,-10698.0,-4142.0,0.43,-0.385,-0.731,0.363
279296,3782.0,-10104.0,-4046.0,0.422,-0.39,-0.728,0.373
279313,3500.0,-9814.0,-4270.0,0.412,-0.397,-0.725,0.384
279330,3342.0,-9540.0,-3894.0,0.402,-0.404,-0.72,0.396
279346,3098.0,-9104.0,-3366.0,0.391,-0.411,-0.714,0.41
279373,2584.0,-8454.0,-3034.0,0.381,-0.419,-0.705,0.426
279389,2002.0,-8148.0,-3080.0,0.369,-0.427,-0.697,0.442
279405,1282.0,-8510.0,-2796.0,0.357,-0.435,-0.689,0.457
279422,814.0,-7864.0,-2988.0,0.345,-0.443,-0.681,0.471
279438,646.0,-7970.0,-2708.0,0.333,-0.45,-0.672,0.485
279454,530.0,-8312.0,-2372.0,0.322,-0.456,-0.663,0.499
279480,300.0,-7700.0,-2358.0,0.312,-0.461,-0.653,0.513
279496,174.0,-7566.0,-2252.0,0.304,-0.466,-0.642,0.528
279513,-314.0,-6520.0,-2300.0,0.296,-0.471,-0.63,0.542
279530,-570.0,-6210.0,-2394.0,0.288,-0.476,-0.619,0.554
279547,-1064.0,-5794.0,-2648.0,0.28,-0.482,-0.609,0.565
279564,-1412.0,-5548.0,-2384.0,0.27,-0.487,-0.6,0.575
279581,-1290.0,-6328.0,-1732.0,0.258,-0.493,-0.592,0.583
279598,-1744.0,-5696.0,-1658.0,0.247,-0.498,-0.584,0.591
279615,-1988.0,-6730.0,-746.0,0.236,-0.503,-0.578,0.598
279632,-2554.0,-5630.0,-448.0,0.225,-0.507,-0.573,0.603
279649,-2582.0,-5538.0,442.0,0.213,-0.512,-0.57,0.607
279665,-2296.0,-4372.0,-28.0,0.202,-0.515,-0.567,0.61
279692,-1722.0,-4982.0,-372.0,0.191,-0.518,-0.566,0.613
279709,-1250.0,-4682.0,-618.0,0.182,-0.519,-0.566,0.613
279726,-1354.0,-4172.0,-834.0,0.175,-0.52,-0.568,0.613
279743,-826.0,-3912.0,-1090.0,0.17,-0.519,-0.571,0.613
279760,-806.0,-4090.0,-750.0,0.169,-0.518,-0.573,0.612
279777,-1136.0,-4070.0,-796.0,0.171,-0.517,-0.574,0.612
279794,-1274.0,-4072.0,-800.0,0.177,-0.515,-0.575,0.61
279811,-1612.0,-4586.0,-968.0,0.185,-0.513,-0.577,0.608
279828,-1890.0,-4884.0,-780.0,0.195,-0.51,-0.579,0.605
279845,-2226.0,-5444.0,-410.0,0.208,-0.507,-0.581,0.602
279862,-2618.0,-5698.0,-544.0,0.221,-0.503,-0.585,0.597
279879,-2642.0,-5744.0,-814.0,0.234,-0.5,-0.589,0.591
279896,-2342.0,-6460.0,-1114.0,0.247,-0.495,-0.594,0.584
279922,-2126.0,-6328.0,-1344.0,0.259,-0.491,-0.599,0.577
279938,-1508.0,-6964.0,-1924.0,0.271,-0.487,-0.605,0.569
279954,-1454.0,-8440.0,-1598.0,0.284,-0.481,-0.612,0.56
279970,-1414.0,-7188.0,-1678.0,0.297,-0.476,-0.618,0.55
279986,-888.0,-8212.0,-772.0,0.309,-0.472,-0.624,0.541
280002,-574.0,-6782.0,-1132.0,0.32,-0.467,-0.631,0.53
280028,-216.0,-8624.0,-1284.0,0.331,-0.462,-0.639,0.518
280045,-112.0,-7062.0,-1846.0,0.342,-0.457,-0.648,0.505
280062,358.0,-7634.0,-1890.0,0.351,-0.452,-0.657,0.492
280079,1054.0,-7852.0,-2352.0,0.36,-0.447,-0.664,0.479
280095,1300.0,-7958.0,-2480.0,0.37,-0.442,-0.671,0.467
280112,1428.0,-7618.0,-2658.0,0.38,-0.436,-0.677,0.455
280129,1546.0,-7350.0,-2772.0,0.39,-0.43,-0.684,0.442
280145,1980.0,-8490.0,-2704.0,0.398,-0.424,-0.691,0.43
280162,2294.0,-8434.0,-3068.0,0.406,-0.419,-0.697,0.417
280179,2498.0,-8786.0,-3068.0,0.412,-0.415,-0.703,0.405
280206,2972.0,-8138.0,-3110.0,0.418,-0.411,-0.709,0.393
280222,3188.0,-9174.0,-3356.0,0.423,-0.407,-0.714,0.382
280238,3456.0,-9502.0,-3306.0,0.428,-0.402,-0.719,0.371
280254,3434.0,-10554.0,-3472.0,0.432,-0.397,-0.725,0.361
280270,3546.0,-10024.0,-3454.0,0.435,-0.393,-0.729,0.354
280286,3994.0,-10406.0,-3592.0,0.436,-0.39,-0.732,0.349
280302,4244.0,-10518.0,-4208.0,0.436,-0.388,-0.735,0.345
280328,4288.0,-11226.0,-4420.0,0.435,-0.386,-0.737,0.343
280345,4210.0,-11468.0,-4364.0,0.432,-0.386,-0.739,0.343
280361,4402.0,-11930.0,-4192.0,0.428,-0.388,-0.74,0.345
280378,4100.0,-11352.0,-4456.0,0.421,-0.392,-0.74,0.348
280395,4326.0,-11666.0,-4624.0,0.413,-0.397,-0.74,0.352
280412,4092.0,-11758.0,-4938.0,0.406,-0.402,-0.738,0.358
280429,3684.0,-10012.0,-4960.0,0.399,-0.408,-0.736,0.366
280445,3704.0,-10576.0,-4578.0,0.392,-0.413,-0.731,0.376
280472,2944.0,-9568.0,-4038.0,0.385,-0.419,-0.726,0.387
280488,2406.0,-8942.0,-3796.0,0.378,-0.424,-0.719,0.4
280504,1716.0,-6870.0,-3992.0,0.37,-0.43,-0.712,0.414
280520,1910.0,-7416.0,-4014.0,0.36,-0.437,-0.705,0.428
280536,1894.0,-7406.0,-3476.0,0.35,-0.443,-0.696,0.443
280552,1554.0,-7620.0,-3092.0,0.34,-0.45,-0.688,0.457
280578,814.0,-7428.0,-2902.0,0.331,-0.455,-0.68,0.47
280595,452.0,-7150.0,-2784.0,0.321,-0.461,-0.673,0.482
280612,80.0,-7538.0,-2600.0,0.31,-0.467,-0.666,0.493
280628,16.0,-7096.0,-2588.0,0.298,-0.473,-0.658,0.504
280645,-122.0,-7286.0,-2612.0,0.286,-0.478,-0.652,0.514
280662,-784.0,-7714.0,-2532.0,0.275,-0.484,-0.646,0.523
280678,-1274.0,-6168.0,-2682.0,0.263,-0.489,-0.64,0.531
280695,-1260.0,-6258.0,-2512.0,0.249,-0.494,-0.636,0.538
280712,-1082.0,-6870.0,-2592.0,0.235,-0.499,-0.63,0.546
280729,-1008.0,-7086.0,-2274.0,0.223,-0.504,-0.624,0.554
280746,-1176.0,-5686.0,-1846.0,0.213,-0.508,-0.616,0.563
280763,-1322.0,-5658.0,-1496.0,0.204,-0.512,-0.609,0.571
280789,-1294.0,-4966.0,-1084.0,0.196,-0.514,-0.603,0.578
280805,-932.0,-4660.0,-928.0,0.188,-0.517,-0.598,0.583
280821,-514.0,-4120.0,-1238.0,0.182,-0.518,-0.594,0.588
280837,-572.0,-3730.0,-1382.0,0.178,-0.518,-0.59,0.593
280853,-476.0,-3316.0,-1568.0,0.177,-0.518,-0.587,0.597
280869,-542.0,-3560.0,-1620.0,0.178,-0.516,-0.585,0.6
280895,-778.0,-3986.0,-1358.0,0.181,-0.514,-0.585,0.601
280912,-976.0,-3598.0,-688.0,0.188,-0.511,-0.585,0.6
280929,-1332.0,-3710.0,-372.0,0.197,-0.508,-0.587,0.598
280945,-1422.0,-4446.0,-246.0,0.207,-0.504,-0.59,0.596
280962,-1742.0,-5612.0,-628.0,0.22,-0.5,-0.592,0.592
280979,-1832.0,-6030.0,-600.0,0.235,-0.496,-0.594,0.588
280996,-1950.0,-6376.0,-420.0,0.25,-0.492,-0.596,0.583
281013,-2180.0,-7084.0,-736.0,0.265,-0.488,-0.599,0.577
281030,-2414.0,-6654.0,-1066.0,0.279,-0.484,-0.603,0.57
281047,-2148.0,-7086.0,-1622.0,0.291,-0.48,-0.609,0.561
281064,-1122.0,-8616.0,-1616.0,0.303,-0.476,-0.614,0.552
281081,-1158.0,-9718.0,-1314.0,0.315,-0.471,-0.62,0.543
281107,-1340.0,-7584.0,-812.0,0.326,-0.466,-0.628,0.531
281123,-694.0,-7996.0,-968.0,0.335,-0.463,-0.638,0.517
281139,214.0,-7630.0,-2052.0,0.342,-0.459,-0.647,0.504
281155,884.0,-8292.0,-3016.0,0.349,-0.454,-0.655,0.492
281171,1056.0,-8316.0,-3216.0,0.358,-0.449,-0.663,0.481
281187,1170.0,-8012.0,-2518.0,0.366,-0.443,-0.669,0.471
281214,1322.0,-8066.0,-1658.0,0.374,-0.438,-0.675,0.461
281230,1570.0,-9372.0,-2052.0,0.381,-0.433,-0.681,0.452
281246,1638.0,-8752.0,-2336.0,0.389,-0.427,-0.686,0.444
281262,1838.0,-8210.0,-2482.0,0.396,-0.421,-0.69,0.435
281278,2078.0,-7712.0,-2650.0,0.403,-0.415,-0.694,0.428
281295,2376.0,-7394.0,-2726.0,0.409,-0.41,-0.697,0.422
281312,2656.0,-8448.0,-2718.0,0.415,-0.405,-0.7,0.418
281338,2750.0,-8138.0,-2812.0,0.421,-0.4,-0.702,0.413
281354,2932.0,-9036.0,-2390.0,0.426,-0.396,-0.705,0.406
281370,3224.0,-10574.0,-2448.0,0.43,-0.394,-0.708,0.398
281386,3222.0,-11314.0,-2520.0,0.432,-0.393,-0.711,0.391
281402,3180.0,-11782.0,-3454.0,0.434,-0.393,-0.713,0.385
281418,3298.0,-12736.0,-3800.0,0.432,-0.395,-0.716,0.38
281444,3360.0,-13608.0,-3802.0,0.428,-0.399,-0.717,0.378
281461,3446.0,-12802.0,-3698.0,0.421,-0.404,-0.718,0.378
281478,3162.0,-11444.0,-3844.0,0.412,-0.41,-0.719,0.381
281495,3080.0,-11530.0,-4352.0,0.401,-0.417,-0.718,0.387
281512,2698.0,-10738.0,-4412.0,0.388,-0.424,-0.717,0.394
281529,2728.0,-10270.0,-4524.0,0.375,-0.431,-0.714,0.404
281546,2236.0,-9572.0,-4246.0,0.362,-0.438,-0.709,0.417
281563,2176.0,-9042.0,-4064.0,0.35,-0.445,-0.703,0.431
281579,1816.0,-9360.0,-3618.0,0.337,-0.452,-0.696,0.445
281595,1654.0,-8718.0,-3816.0,0.326,-0.458,-0.688,0.46
281621,654.0,-8882.0,-3142.0,0.315,-0.463,-0.679,0.475
281638,556.0,-7578.0,-3666.0,0.305,-0.467,-0.669,0.491
281654,372.0,-8036.0,-3032.0,0.295,-0.472,-0.658,0.506
281670,88.0,-7698.0,-2698.0,0.285,-0.477,-0.648,0.521
281686,-630.0,-8510.0,-2378.0,0.276,-0.481,-0.637,0.536
281703,-696.0,-7418.0,-2370.0,0.266,-0.484,-0.627,0.55
281719,-1160.0,-7354.0,-2058.0,0.255,-0.487,-0.617,0.563
281745,-1094.0,-7426.0,-2678.0,0.243,-0.491,-0.607,0.576
281761,-1252.0,-7298.0,-2464.0,0.232,-0.494,-0.599,0.587
281778,-1440.0,-7122.0,-2552.0,0.22,-0.497,-0.591,0.596
281795,-1744.0,-7722.0,-2008.0,0.207,-0.501,-0.586,0.602
281812,-1526.0,-7140.0,-2096.0,0.191,-0.507,-0.581,0.607
281828,-2052.0,-7616.0,-1692.0,0.173,-0.513,-0.577,0.611
281845,-3478.0,-8226.0,-1728.0,0.153,-0.519,-0.573,0.616
281862,-3834.0,-5884.0,-1954.0,0.129,-0.524,-0.57,0.62
281879,-3446.0,-5494.0,-2190.0,0.103,-0.527,-0.568,0.624
281896,-2638.0,-3908.0,-2220.0,0.078,-0.528,-0.565,0.629
281913,-2392.0,-5802.0,-3032.0,0.054,-0.529,-0.563,0.633
281939,-2948.0,-4270.0,-2282.0,0.035,-0.528,-0.559,0.638
281955,-3020.0,-6204.0,-1908.0,0.018,-0.527,-0.556,0.642
281971,-3654.0,-4262.0,-1628.0,0.004,-0.526,-0.552,0.647
281987,-2986.0,-3718.0,-1220.0,0.01,0.524,0.549,-0.651
282003,-3320.0,-4816.0,-2000.0,0.021,0.523,0.546,-0.654
282019,-3516.0,-4308.0,-2132.0,0.031,0.522,0.541,-0.659
282046,-4194.0,-3896.0,-1952.0,0.039,0.52,0.536,-0.664
282062,-4520.0,-4020.0,-1576.0,0.046,0.519,0.531,-0.669
282078,-4660.0,-3402.0,-1160.0,0.05,0.517,0.526,-0.674
282095,-5330.0,-3478.0,-964.0,0.054,0.514,0.522,-0.678
282112,-4914.0,-4024.0,-1356.0,0.058,0.51,0.52,-0.682
282128,-4888.0,-4774.0,-960.0,0.06,0.507,0.518,-0.687
