timeMs,ax,ay,az,q0,q1,q2,q3
8249690,4789.0,5851.0,3126.0,0.759,0.529,-0.135,0.354
8249706,4803.0,5843.0,3138.0,0.759,0.53,-0.134,0.355
8249722,4761.0,5925.0,3108.0,0.758,0.53,-0.133,0.355
8249748,4813.0,5939.0,3078.0,0.758,0.53,-0.133,0.356
8249764,4721.0,5977.0,3116.0,0.758,0.53,-0.133,0.356
8249780,4845.0,5817.0,3148.0,0.758,0.53,-0.132,0.357
8249796,4841.0,5645.0,3178.0,0.758,0.53,-0.132,0.358
8249812,4919.0,5661.0,3252.0,0.757,0.53,-0.132,0.358
8249828,4911.0,5623.0,3222.0,0.757,0.53,-0.132,0.359
8249854,4985.0,5733.0,3210.0,0.756,0.53,-0.132,0.36
8249870,4899.0,5791.0,3210.0,0.756,0.53,-0.132,0.361
8249887,4955.0,5785.0,3234.0,0.756,0.53,-0.132,0.362
8249903,4939.0,5755.0,3234.0,0.755,0.53,-0.131,0.363
8249919,4936.0,5719.0,3226.0,0.755,0.53,-0.131,0.364
8249935,4896.0,5714.0,3240.0,0.755,0.53,-0.131,0.364
8249961,4883.0,5736.0,3280.0,0.754,0.53,-0.13,0.365
8249977,4882.0,5819.0,3279.0,0.754,0.53,-0.13,0.366
8249993,4940.0,5873.0,3222.0,0.753,0.531,-0.129,0.367
8250009,4891.0,5876.0,3148.0,0.753,0.531,-0.128,0.368
8250025,4946.0,5883.0,3203.0,0.752,0.531,-0.128,0.369
8250041,4914.0,5748.0,3156.0,0.752,0.531,-0.127,0.369
8250067,4885.0,5773.0,3129.0,0.751,0.532,-0.126,0.37
8250083,4855.0,5771.0,3145.0,0.751,0.532,-0.126,0.371
8250099,4863.0,5823.0,3155.0,0.75,0.532,-0.125,0.371
8250115,4847.0,5823.0,3207.0,0.75,0.532,-0.124,0.372
8250131,4859.0,5843.0,3209.0,0.75,0.532,-0.124,0.373
8250147,4843.0,5791.0,3225.0,0.75,0.533,-0.123,0.373
8250173,4863.0,5795.0,3263.0,0.749,0.533,-0.122,0.374
8250189,4841.0,5767.0,3215.0,0.749,0.533,-0.121,0.375
8250205,4857.0,5793.0,3161.0,0.748,0.533,-0.121,0.376
8250221,4867.0,5803.0,3239.0,0.748,0.534,-0.12,0.376
8250237,4849.0,5835.0,3143.0,0.747,0.534,-0.119,0.377
8250253,4879.0,5857.0,3157.0,0.747,0.534,-0.118,0.378
8250279,4851.0,5779.0,3145.0,0.747,0.535,-0.117,0.378
8250295,4877.0,5809.0,3131.0,0.746,0.535,-0.117,0.379
8250311,4825.0,5855.0,3207.0,0.746,0.535,-0.116,0.379
8250327,4807.0,5791.0,3179.0,0.745,0.535,-0.115,0.38
8250343,4851.0,5813.0,3199.0,0.745,0.536,-0.114,0.381
8250359,4851.0,5901.0,3201.0,0.745,0.536,-0.114,0.381
8250385,4887.0,5895.0,3185.0,0.744,0.536,-0.113,0.382
8250401,4863.0,5885.0,3177.0,0.744,0.536,-0.112,0.383
8250417,4881.0,5857.0,3159.0,0.744,0.536,-0.112,0.383
8250433,4821.0,5793.0,3221.0,0.743,0.537,-0.111,0.384
8250449,4807.0,5851.0,3181.0,0.743,0.537,-0.11,0.385
8250465,4833.0,5843.0,3145.0,0.742,0.537,-0.109,0.385
8250491,4797.0,5879.0,3119.0,0.742,0.537,-0.109,0.386
8250507,4787.0,5913.0,3101.0,0.742,0.538,-0.108,0.386
8250523,4767.0,5997.0,3173.0,0.741,0.538,-0.107,0.387
8250539,4827.0,5927.0,3109.0,0.741,0.538,-0.107,0.387
8250555,4805.0,5877.0,3125.0,0.741,0.538,-0.106,0.388
8250581,4745.0,5833.0,3171.0,0.741,0.538,-0.106,0.389
8250597,4783.0,5855.0,3183.0,0.74,0.538,-0.105,0.389
8250613,4851.0,5847.0,3173.0,0.74,0.538,-0.105,0.39
8250629,4811.0,5919.0,3181.0,0.74,0.538,-0.105,0.39
8250645,4805.0,5847.0,3167.0,0.739,0.538,-0.104,0.391
8250661,4787.0,5877.0,3205.0,0.739,0.538,-0.103,0.392
8250687,4803.0,5877.0,3181.0,0.739,0.538,-0.103,0.392
8250703,4815.0,5861.0,3155.0,0.738,0.539,-0.102,0.393
8250719,4863.0,5861.0,3221.0,0.738,0.539,-0.102,0.393
8250735,4879.0,5871.0,3177.0,0.738,0.539,-0.101,0.394
8250751,4815.0,5937.0,3155.0,0.737,0.539,-0.1,0.395
8250768,4817.0,5879.0,3167.0,0.737,0.539,-0.1,0.395
8250784,4849.0,5899.0,3133.0,0.736,0.54,-0.099,0.396
8250810,4759.0,5903.0,3163.0,0.736,0.54,-0.098,0.396
8250826,4785.0,5881.0,3127.0,0.736,0.54,-0.098,0.397
8250842,4733.0,5839.0,3123.0,0.735,0.54,-0.097,0.397
8250858,4735.0,5875.0,3117.0,0.735,0.54,-0.096,0.398
8250874,4751.0,5889.0,3117.0,0.735,0.54,-0.096,0.399
8250890,4733.0,5931.0,3155.0,0.734,0.541,-0.095,0.399
8250916,4739.0,5903.0,3163.0,0.734,0.541,-0.095,0.4
8250932,4785.0,5901.0,3145.0,0.734,0.541,-0.094,0.4
8250948,4763.0,5897.0,3139.0,0.733,0.541,-0.094,0.401
8250964,4765.0,5903.0,3139.0,0.733,0.541,-0.093,0.402
8250980,4771.0,5913.0,3099.0,0.733,0.541,-0.093,0.402
8250996,4785.0,5845.0,3131.0,0.733,0.541,-0.093,0.403
8251022,4811.0,5891.0,3189.0,0.732,0.541,-0.092,0.403
8251038,4777.0,5951.0,3173.0,0.732,0.541,-0.092,0.404
8251054,4739.0,5907.0,3133.0,0.732,0.541,-0.091,0.404
8251070,4793.0,5931.0,3135.0,0.731,0.542,-0.091,0.405
8251086,4839.0,5939.0,3171.0,0.731,0.542,-0.09,0.405
8251112,4833.0,5909.0,3201.0,0.731,0.542,-0.09,0.406
8251128,4773.0,5909.0,3125.0,0.73,0.542,-0.089,0.406
8251144,4793.0,5907.0,3115.0,0.73,0.542,-0.089,0.407
8251160,4723.0,5893.0,3125.0,0.73,0.542,-0.088,0.407
8251176,4711.0,5903.0,3135.0,0.729,0.542,-0.088,0.408
8251192,4713.0,5859.0,3113.0,0.729,0.542,-0.087,0.408
8251218,4751.0,5957.0,3101.0,0.729,0.542,-0.087,0.409
8251234,4731.0,5951.0,3181.0,0.728,0.542,-0.086,0.409
8251250,4767.0,5873.0,3183.0,0.728,0.542,-0.086,0.41
8251266,4783.0,5873.0,3181.0,0.728,0.543,-0.085,0.411
8251282,4753.0,5883.0,3163.0,0.727,0.543,-0.085,0.411
8251298,4743.0,5953.0,3127.0,0.727,0.543,-0.084,0.412
8251324,4759.0,5965.0,3115.0,0.727,0.543,-0.084,0.412
8251340,4747.0,5965.0,3139.0,0.726,0.543,-0.083,0.413
8251356,4773.0,5945.0,3133.0,0.726,0.543,-0.083,0.414
8251372,4789.0,5947.0,3147.0,0.726,0.543,-0.083,0.414
8251388,4805.0,5867.0,3193.0,0.726,0.543,-0.083,0.415
8251404,4773.0,5861.0,3181.0,0.725,0.543,-0.082,0.415
8251430,4739.0,5927.0,3153.0,0.725,0.543,-0.082,0.416
8251446,4749.0,5915.0,3137.0,0.725,0.543,-0.081,0.416
8251462,4693.0,5923.0,3139.0,0.724,0.543,-0.081,0.417
8251478,4785.0,5949.0,3101.0,0.724,0.544,-0.08,0.417
8251494,4761.0,5919.0,3125.0,0.724,0.544,-0.08,0.418
8251510,4727.0,5943.0,3139.0,0.723,0.544,-0.079,0.418
8251536,4775.0,5937.0,3109.0,0.723,0.544,-0.079,0.419
8251552,4761.0,5921.0,3117.0,0.723,0.544,-0.079,0.419
8251568,4751.0,5913.0,3155.0,0.722,0.544,-0.078,0.42
8251584,4773.0,5951.0,3135.0,0.722,0.544,-0.078,0.42
8251600,4729.0,5979.0,3143.0,0.722,0.544,-0.077,0.421
8251616,4713.0,5971.0,3129.0,0.722,0.544,-0.077,0.421
8251642,4753.0,5955.0,3115.0,0.721,0.544,-0.077,0.422
8251658,4725.0,5929.0,3135.0,0.721,0.544,-0.077,0.422
8251674,4737.0,5937.0,3113.0,0.721,0.544,-0.076,0.423
8251690,4755.0,5905.0,3177.0,0.721,0.544,-0.076,0.423
8251706,4777.0,5859.0,3165.0,0.721,0.544,-0.076,0.424
8251722,4779.0,5865.0,3169.0,0.72,0.544,-0.076,0.424
8251748,4825.0,5897.0,3169.0,0.72,0.544,-0.075,0.425
8251764,4763.0,5883.0,3183.0,0.72,0.544,-0.075,0.425
8251780,4789.0,5897.0,3181.0,0.719,0.544,-0.074,0.426
8251796,4791.0,5957.0,3151.0,0.719,0.544,-0.074,0.426
8251812,4747.0,5931.0,3133.0,0.719,0.544,-0.073,0.426
8251828,4735.0,5899.0,3119.0,0.719,0.544,-0.073,0.427
8251854,4759.0,5927.0,3147.0,0.718,0.544,-0.073,0.427
8251870,4681.0,5845.0,3161.0,0.718,0.544,-0.072,0.428
8251886,4749.0,5905.0,3141.0,0.718,0.544,-0.072,0.428
8251902,4739.0,5927.0,3115.0,0.717,0.544,-0.071,0.429
8251918,4725.0,5939.0,3137.0,0.717,0.544,-0.071,0.429
8251934,4719.0,5953.0,3161.0,0.717,0.544,-0.071,0.43
8251961,4749.0,5897.0,3179.0,0.717,0.544,-0.07,0.43
8251977,4719.0,5855.0,3137.0,0.716,0.544,-0.07,0.431
8251993,4689.0,5895.0,3137.0,0.716,0.544,-0.069,0.431
8252009,4739.0,5969.0,3117.0,0.716,0.545,-0.069,0.432
8252025,4693.0,5945.0,3139.0,0.716,0.545,-0.069,0.432
8252041,4805.0,5983.0,3147.0,0.715,0.545,-0.069,0.433
8252067,4745.0,5929.0,3137.0,0.715,0.544,-0.069,0.433
8252083,4803.0,5931.0,3223.0,0.715,0.544,-0.068,0.433
8252099,4753.0,5955.0,3215.0,0.715,0.544,-0.068,0.434
8252115,4735.0,5885.0,3169.0,0.714,0.544,-0.068,0.434
8252131,4751.0,5893.0,3169.0,0.714,0.544,-0.067,0.435
8252147,4765.0,5941.0,3141.0,0.714,0.545,-0.067,0.435
8252173,4725.0,5929.0,3159.0,0.713,0.545,-0.067,0.436
8252189,4715.0,5925.0,3137.0,0.713,0.545,-0.066,0.436
8252205,4759.0,5899.0,3165.0,0.713,0.545,-0.066,0.437
8252221,4731.0,5877.0,3183.0,0.713,0.545,-0.066,0.437
8252237,4775.0,5945.0,3215.0,0.712,0.545,-0.065,0.438
8252253,4767.0,5957.0,3177.0,0.712,0.545,-0.065,0.438
8252279,4807.0,5927.0,3175.0,0.712,0.545,-0.065,0.439
8252295,4741.0,5925.0,3207.0,0.712,0.545,-0.064,0.439
8252311,4769.0,5897.0,3145.0,0.711,0.545,-0.064,0.44
8252327,4721.0,5889.0,3157.0,0.711,0.545,-0.064,0.44
8252343,4759.0,5897.0,3171.0,0.711,0.545,-0.063,0.44
8252359,4751.0,5895.0,3155.0,0.71,0.545,-0.063,0.441
8252385,4781.0,5901.0,3169.0,0.71,0.545,-0.063,0.441
8252401,4803.0,5915.0,3159.0,0.71,0.545,-0.062,0.442
8252417,4847.0,5943.0,3175.0,0.71,0.545,-0.062,0.442
8252433,4719.0,5941.0,3179.0,0.709,0.545,-0.061,0.443
8252449,4717.0,5933.0,3179.0,0.709,0.545,-0.061,0.443
8252465,4715.0,5941.0,3163.0,0.709,0.545,-0.061,0.443
8252491,4753.0,5943.0,3155.0,0.708,0.545,-0.06,0.444
8252507,4787.0,5945.0,3181.0,0.708,0.545,-0.06,0.444
8252523,4759.0,5947.0,3161.0,0.708,0.545,-0.06,0.445
8252539,4717.0,5935.0,3169.0,0.708,0.545,-0.059,0.445
8252555,4707.0,5953.0,3139.0,0.707,0.545,-0.059,0.446
8252572,4763.0,5905.0,3095.0,0.707,0.545,-0.059,0.446
8252598,4703.0,5875.0,3159.0,0.707,0.545,-0.058,0.446
8252614,4661.0,5933.0,3061.0,0.707,0.546,-0.058,0.447
8252630,4713.0,5927.0,3119.0,0.706,0.546,-0.058,0.447
8252646,4755.0,5951.0,3137.0,0.706,0.546,-0.057,0.448
8252662,4729.0,5903.0,3175.0,0.706,0.545,-0.057,0.448
8252678,4711.0,5833.0,3183.0,0.706,0.545,-0.057,0.448
8252704,4759.0,5889.0,3189.0,0.706,0.545,-0.057,0.449
8252720,4725.0,5917.0,3203.0,0.705,0.546,-0.056,0.449
8252736,4699.0,5937.0,3197.0,0.705,0.546,-0.056,0.45
8252752,4781.0,5969.0,3153.0,0.705,0.546,-0.056,0.45
8252768,4787.0,5905.0,3161.0,0.704,0.546,-0.056,0.451
8252784,4739.0,5961.0,3187.0,0.704,0.546,-0.056,0.451
8252810,4713.0,5953.0,3163.0,0.704,0.546,-0.055,0.451
8252826,4773.0,5953.0,3179.0,0.704,0.546,-0.055,0.452
8252842,4783.0,5895.0,3181.0,0.704,0.546,-0.055,0.452
8252858,4745.0,5943.0,3169.0,0.703,0.546,-0.054,0.452
8252874,4725.0,5973.0,3153.0,0.703,0.546,-0.054,0.453
8252890,4787.0,5915.0,3123.0,0.703,0.546,-0.054,0.453
8252916,4727.0,5891.0,3145.0,0.703,0.546,-0.054,0.454
8252932,4747.0,5887.0,3191.0,0.702,0.546,-0.053,0.454
8252948,4755.0,5941.0,3167.0,0.702,0.546,-0.053,0.454
8252964,4721.0,5891.0,3169.0,0.702,0.546,-0.053,0.455
8252980,4783.0,5881.0,3205.0,0.702,0.546,-0.053,0.455
8252996,4719.0,5921.0,3217.0,0.702,0.546,-0.053,0.455
8253022,4709.0,5957.0,3151.0,0.701,0.546,-0.052,0.456
8253038,4753.0,5935.0,3147.0,0.701,0.546,-0.052,0.456
8253054,4725.0,5953.0,3111.0,0.701,0.546,-0.052,0.456
8253070,4701.0,5895.0,3163.0,0.701,0.546,-0.052,0.457
8253086,4783.0,5911.0,3163.0,0.7,0.546,-0.052,0.457
8253112,4765.0,5885.0,3145.0,0.7,0.546,-0.052,0.458
8253128,4747.0,5903.0,3195.0,0.7,0.546,-0.051,0.458
8253144,4751.0,5919.0,3179.0,0.7,0.546,-0.051,0.458
8253160,4731.0,5871.0,3189.0,0.7,0.546,-0.051,0.459
8253176,4787.0,5873.0,3179.0,0.699,0.546,-0.051,0.459
8253192,4769.0,5919.0,3175.0,0.699,0.545,-0.051,0.459
8253218,4711.0,5891.0,3217.0,0.699,0.545,-0.051,0.46
8253235,4839.0,5893.0,3231.0,0.699,0.545,-0.051,0.46
8253251,4731.0,5947.0,3151.0,0.699,0.545,-0.051,0.46
8253267,4737.0,5949.0,3209.0,0.698,0.545,-0.051,0.461
8253283,4765.0,5875.0,3227.0,0.698,0.545,-0.051,0.461
8253299,4703.0,5865.0,3167.0,0.698,0.545,-0.05,0.462
8253315,4753.0,5881.0,3163.0,0.698,0.545,-0.05,0.462
8253341,4755.0,5929.0,3133.0,0.697,0.545,-0.05,0.462
8253357,4765.0,5929.0,3161.0,0.697,0.545,-0.05,0.463
8253373,4773.0,5907.0,3173.0,0.697,0.545,-0.05,0.463
8253389,4807.0,5839.0,3227.0,0.697,0.545,-0.05,0.463
8253405,4827.0,5857.0,3177.0,0.697,0.545,-0.05,0.464
8253421,4751.0,5853.0,3237.0,0.696,0.545,-0.05,0.464
8253447,4773.0,5857.0,3175.0,0.696,0.545,-0.05,0.464
8253463,4769.0,5813.0,3141.0,0.696,0.545,-0.05,0.465
8253479,4773.0,5879.0,3155.0,0.696,0.545,-0.05,0.465
8253495,4751.0,5869.0,3207.0,0.695,0.545,-0.05,0.465
8253511,4771.0,5937.0,3161.0,0.695,0.545,-0.051,0.466
8253527,4779.0,5865.0,3139.0,0.695,0.545,-0.051,0.466
8253553,4815.0,5907.0,3189.0,0.695,0.545,-0.051,0.466
8253569,4833.0,5855.0,3203.0,0.695,0.545,-0.051,0.467
8253586,4797.0,5845.0,3259.0,0.695,0.544,-0.052,0.467
8253602,4829.0,5809.0,3185.0,0.695,0.544,-0.052,0.467
8253618,4859.0,5855.0,3197.0,0.694,0.544,-0.052,0.468
8253634,4849.0,5799.0,3227.0,0.694,0.544,-0.052,0.468
8253660,4839.0,5793.0,3235.0,0.694,0.544,-0.052,0.468
8253676,4859.0,5833.0,3217.0,0.694,0.544,-0.052,0.469
8253692,4833.0,5831.0,3213.0,0.694,0.544,-0.051,0.469
8253708,4923.0,5827.0,3265.0,0.693,0.544,-0.051,0.469
8253724,4813.0,5829.0,3261.0,0.693,0.544,-0.051,0.47
8253740,4865.0,5869.0,3251.0,0.693,0.545,-0.051,0.47
8253766,4855.0,5785.0,3255.0,0.693,0.545,-0.05,0.47
8253782,4835.0,5803.0,3243.0,0.692,0.545,-0.05,0.471
8253798,4839.0,5859.0,3237.0,0.692,0.545,-0.05,0.471
8253814,4825.0,5837.0,3159.0,0.692,0.545,-0.049,0.471
8253830,4805.0,5803.0,3163.0,0.691,0.545,-0.049,0.472
8253846,4849.0,5845.0,3225.0,0.691,0.545,-0.049,0.472
8253872,4823.0,5835.0,3171.0,0.691,0.545,-0.048,0.472
8253888,4847.0,5793.0,3209.0,0.691,0.545,-0.048,0.473
8253904,4793.0,5839.0,3163.0,0.691,0.545,-0.048,0.473
8253920,4833.0,5843.0,3199.0,0.69,0.545,-0.047,0.473
8253936,4869.0,5869.0,3231.0,0.69,0.545,-0.047,0.473
8253952,4855.0,5871.0,3251.0,0.69,0.545,-0.046,0.474
8253978,4885.0,5849.0,3239.0,0.69,0.545,-0.046,0.474
8253994,4867.0,5901.0,3245.0,0.69,0.545,-0.045,0.474
8254010,4781.0,5835.0,3215.0,0.69,0.545,-0.045,0.474
8254026,4771.0,5841.0,3221.0,0.689,0.545,-0.044,0.475
8254042,4759.0,5799.0,3171.0,0.689,0.546,-0.044,0.475
8254058,4755.0,5837.0,3155.0,0.689,0.546,-0.043,0.475
8254084,4793.0,5865.0,3175.0,0.688,0.546,-0.043,0.476
8254100,4761.0,5895.0,3143.0,0.688,0.546,-0.042,0.476
8254116,4809.0,5843.0,3167.0,0.688,0.546,-0.042,0.476
8254132,4793.0,5847.0,3219.0,0.688,0.546,-0.042,0.476
8254148,4759.0,5809.0,3219.0,0.688,0.546,-0.041,0.477
8254174,4709.0,5853.0,3151.0,0.687,0.546,-0.041,0.477
8254190,4803.0,5861.0,3159.0,0.687,0.546,-0.041,0.477
8254206,4767.0,5951.0,3225.0,0.687,0.546,-0.041,0.478
8254222,4795.0,5951.0,3209.0,0.687,0.546,-0.041,0.478
8254238,4779.0,5923.0,3191.0,0.687,0.546,-0.04,0.478
8254254,4827.0,5845.0,3177.0,0.687,0.546,-0.04,0.478
8254280,4831.0,5823.0,3237.0,0.686,0.546,-0.04,0.479
8254296,4807.0,5863.0,3169.0,0.686,0.546,-0.04,0.479
8254312,4773.0,5889.0,3177.0,0.686,0.546,-0.039,0.479
8254328,4779.0,5865.0,3165.0,0.686,0.546,-0.039,0.48
8254344,4807.0,5925.0,3181.0,0.685,0.546,-0.038,0.48
8254360,4791.0,5917.0,3185.0,0.685,0.546,-0.038,0.48
8254386,4813.0,5879.0,3191.0,0.685,0.546,-0.038,0.48
8254402,4807.0,5861.0,3147.0,0.685,0.547,-0.037,0.48
8254418,4793.0,5823.0,3217.0,0.685,0.547,-0.037,0.481
8254434,4815.0,5819.0,3181.0,0.685,0.547,-0.037,0.481
8254450,4785.0,5837.0,3197.0,0.684,0.547,-0.036,0.481
8254466,4795.0,5921.0,3165.0,0.684,0.547,-0.036,0.481
8254492,4717.0,5909.0,3179.0,0.684,0.547,-0.035,0.482
8254508,4755.0,5913.0,3201.0,0.684,0.547,-0.035,0.482
8254524,4727.0,5877.0,3159.0,0.683,0.547,-0.035,0.482
8254540,4757.0,5887.0,3195.0,0.683,0.547,-0.034,0.482
8254556,4681.0,5883.0,3209.0,0.683,0.547,-0.034,0.483
8254572,4769.0,5923.0,3249.0,0.683,0.547,-0.034,0.483
8254598,4749.0,5851.0,3175.0,0.683,0.547,-0.033,0.483
8254614,4759.0,5935.0,3171.0,0.682,0.547,-0.033,0.484
8254630,4761.0,5885.0,3195.0,0.682,0.547,-0.033,0.484
8254646,4727.0,5929.0,3165.0,0.682,0.547,-0.032,0.484
8254662,4779.0,5883.0,3193.0,0.682,0.547,-0.032,0.484
8254678,4799.0,5931.0,3179.0,0.681,0.547,-0.032,0.485
8254704,4781.0,5933.0,3205.0,0.681,0.547,-0.032,0.485
8254720,4707.0,5931.0,3201.0,0.681,0.547,-0.031,0.485
8254736,4755.0,5903.0,3167.0,0.681,0.548,-0.031,0.485
8254752,4705.0,5899.0,3187.0,0.681,0.548,-0.03,0.486
8254768,4697.0,5803.0,3169.0,0.681,0.548,-0.03,0.486
8254784,4707.0,5949.0,3137.0,0.68,0.548,-0.03,0.486
8254810,4701.0,5911.0,3105.0,0.68,0.548,-0.029,0.486
8254826,4767.0,5965.0,3153.0,0.68,0.548,-0.029,0.487
8254842,4699.0,5925.0,3127.0,0.68,0.548,-0.029,0.487
8254858,4749.0,5921.0,3159.0,0.679,0.548,-0.029,0.487
8254874,4743.0,5911.0,3139.0,0.679,0.548,-0.029,0.487
8254890,4767.0,5883.0,3163.0,0.679,0.548,-0.028,0.487
8254916,4759.0,5947.0,3249.0,0.679,0.548,-0.028,0.488
8254932,4713.0,5923.0,3171.0,0.679,0.548,-0.028,0.488
8254948,4759.0,5949.0,3179.0,0.679,0.548,-0.028,0.488
8254964,4775.0,5865.0,3173.0,0.679,0.548,-0.028,0.488
8254980,4775.0,5905.0,3247.0,0.679,0.548,-0.028,0.488
8255006,4821.0,5899.0,3177.0,0.678,0.548,-0.027,0.489
8255022,4779.0,5915.0,3149.0,0.678,0.548,-0.027,0.489
8255038,4741.0,5917.0,3141.0,0.678,0.548,-0.027,0.489
8255054,4767.0,5987.0,3133.0,0.678,0.548,-0.027,0.489
8255070,4735.0,5941.0,3163.0,0.678,0.548,-0.026,0.49
8255086,4717.0,5887.0,3163.0,0.677,0.548,-0.026,0.49
8255112,4755.0,5839.0,3171.0,0.677,0.548,-0.026,0.49
8255128,4731.0,5911.0,3155.0,0.677,0.548,-0.026,0.49
8255144,4765.0,5943.0,3217.0,0.677,0.548,-0.025,0.49
8255160,4723.0,5913.0,3177.0,0.677,0.548,-0.025,0.491
8255176,4715.0,5921.0,3179.0,0.677,0.548,-0.025,0.491
8255192,4739.0,5877.0,3143.0,0.676,0.548,-0.024,0.491
8255218,4751.0,5931.0,3145.0,0.676,0.548,-0.024,0.491
8255234,4705.0,5945.0,3103.0,0.676,0.548,-0.024,0.492
8255250,4681.0,5929.0,3139.0,0.676,0.548,-0.023,0.492
8255266,4765.0,5917.0,3159.0,0.676,0.548,-0.023,0.492
8255282,4753.0,5911.0,3149.0,0.675,0.549,-0.023,0.492
8255298,4733.0,5933.0,3171.0,0.675,0.549,-0.023,0.493
8255324,4789.0,5959.0,3167.0,0.675,0.549,-0.022,0.493
8255340,4753.0,5899.0,3157.0,0.675,0.549,-0.022,0.493
8255356,4775.0,5959.0,3179.0,0.675,0.549,-0.022,0.493
8255372,4709.0,5925.0,3135.0,0.674,0.549,-0.021,0.493
8255388,4689.0,5947.0,3129.0,0.674,0.549,-0.021,0.494
8255404,4733.0,5947.0,3189.0,0.674,0.549,-0.021,0.494
8255430,4771.0,5967.0,3167.0,0.674,0.549,-0.021,0.494
8255446,4711.0,5919.0,3145.0,0.674,0.549,-0.021,0.494
8255462,4717.0,5891.0,3151.0,0.674,0.549,-0.021,0.494
8255478,4673.0,5901.0,3149.0,0.674,0.549,-0.02,0.494
8255494,4721.0,5911.0,3161.0,0.674,0.549,-0.02,0.495
8255510,4757.0,5903.0,3147.0,0.673,0.549,-0.02,0.495
8255536,4753.0,5951.0,3125.0,0.673,0.549,-0.02,0.495
8255552,4707.0,5961.0,3177.0,0.673,0.549,-0.02,0.495
8255568,4747.0,5873.0,3155.0,0.673,0.549,-0.019,0.496
8255584,4745.0,5903.0,3141.0,0.673,0.549,-0.019,0.496
8255600,4717.0,5921.0,3121.0,0.672,0.549,-0.019,0.496
8255616,4721.0,5961.0,3161.0,0.672,0.549,-0.019,0.496
8255643,4697.0,5945.0,3145.0,0.672,0.549,-0.018,0.496
8255659,4713.0,5943.0,3149.0,0.672,0.549,-0.018,0.497
8255675,4741.0,5957.0,3143.0,0.672,0.549,-0.018,0.497
8255691,4751.0,5933.0,3205.0,0.672,0.549,-0.018,0.497
8255707,4705.0,5953.0,3179.0,0.672,0.549,-0.018,0.497
8255723,4723.0,5927.0,3187.0,0.671,0.549,-0.018,0.497
8255749,4751.0,5935.0,3129.0,0.671,0.549,-0.018,0.498
8255765,4747.0,5973.0,3137.0,0.671,0.549,-0.017,0.498
8255781,4687.0,5977.0,3143.0,0.671,0.549,-0.017,0.498
8255797,4725.0,5991.0,3103.0,0.671,0.549,-0.017,0.498
8255813,4683.0,5955.0,3123.0,0.67,0.549,-0.017,0.498
8255829,4735.0,5967.0,3161.0,0.67,0.549,-0.017,0.499
8255855,4675.0,5927.0,3143.0,0.67,0.549,-0.017,0.499
8255871,4707.0,5895.0,3133.0,0.67,0.549,-0.017,0.499
8255887,4695.0,5973.0,3159.0,0.67,0.549,-0.017,0.499
8255908,4749.0,5925.0,3181.0,0.67,0.549,-0.017,0.5
8255924,4739.0,5951.0,3153.0,0.669,0.549,-0.017,0.5
8255940,4717.0,5901.0,3135.0,0.669,0.549,-0.017,0.5
8255956,4751.0,5885.0,3169.0,0.669,0.55,-0.016,0.5
8255972,4727.0,5967.0,3151.0,0.669,0.55,-0.016,0.501
8255988,4697.0,5971.0,3133.0,0.669,0.55,-0.016,0.501
8256014,4683.0,5959.0,3147.0,0.668,0.55,-0.016,0.501
8256030,4765.0,5913.0,3125.0,0.668,0.55,-0.016,0.501
8256046,4743.0,5941.0,3149.0,0.668,0.55,-0.016,0.501
8256062,4817.0,5969.0,3165.0,0.668,0.549,-0.016,0.502
8256078,4787.0,5879.0,3177.0,0.668,0.549,-0.016,0.502
8256094,4773.0,5953.0,3207.0,0.668,0.549,-0.016,0.502
8256120,4739.0,5951.0,3163.0,0.668,0.549,-0.016,0.502
8256136,4767.0,5981.0,3171.0,0.667,0.549,-0.015,0.502
8256152,4735.0,5941.0,3175.0,0.667,0.549,-0.015,0.503
8256168,4745.0,5945.0,3155.0,0.667,0.549,-0.015,0.503
8256184,4799.0,5953.0,3157.0,0.667,0.549,-0.015,0.503
8256200,4737.0,5923.0,3199.0,0.667,0.549,-0.015,0.503
8256226,4719.0,5889.0,3193.0,0.667,0.549,-0.015,0.503
8256242,4753.0,5915.0,3183.0,0.667,0.549,-0.014,0.503
8256258,4709.0,5923.0,3153.0,0.667,0.549,-0.014,0.504
8256274,4725.0,5955.0,3165.0,0.667,0.549,-0.014,0.504
8256290,4739.0,5945.0,3129.0,0.667,0.549,-0.014,0.504
8256306,4717.0,5899.0,3155.0,0.667,0.549,-0.014,0.504
8256332,4727.0,5893.0,3149.0,0.666,0.549,-0.013,0.504
8256349,4769.0,5919.0,3139.0,0.666,0.549,-0.013,0.504
8256365,4753.0,5875.0,3131.0,0.666,0.549,-0.013,0.505
8256381,4717.0,5921.0,3135.0,0.666,0.549,-0.013,0.505
8256397,4703.0,5959.0,3189.0,0.666,0.549,-0.013,0.505
8256413,4725.0,5935.0,3189.0,0.666,0.549,-0.013,0.505
8256439,4713.0,5927.0,3185.0,0.666,0.549,-0.013,0.505
8256455,4735.0,5927.0,3205.0,0.666,0.549,-0.013,0.505
8256471,4775.0,5911.0,3205.0,0.665,0.549,-0.013,0.506
8256487,4735.0,5923.0,3169.0,0.665,0.549,-0.012,0.506
8256503,4741.0,5985.0,3159.0,0.665,0.549,-0.012,0.506
8256519,4755.0,5945.0,3139.0,0.665,0.549,-0.012,0.506
8256545,4715.0,5923.0,3149.0,0.665,0.549,-0.012,0.506
8256561,4783.0,5957.0,3141.0,0.665,0.549,-0.012,0.506
8256577,4727.0,5895.0,3125.0,0.665,0.549,-0.012,0.506
8256593,4723.0,5953.0,3231.0,0.665,0.549,-0.012,0.506
8256609,4725.0,5897.0,3231.0,0.665,0.549,-0.011,0.507
8256625,4749.0,5865.0,3189.0,0.665,0.549,-0.011,0.507
8256651,4755.0,5881.0,3159.0,0.665,0.549,-0.011,0.507
8256667,4737.0,5905.0,3137.0,0.664,0.549,-0.011,0.507
8256683,4703.0,5907.0,3165.0,0.664,0.549,-0.011,0.507
8256699,4735.0,5971.0,3141.0,0.664,0.549,-0.011,0.507
8256715,4707.0,6101.0,3153.0,0.664,0.549,-0.01,0.507
8256731,4727.0,6171.0,3315.0,0.664,0.549,-0.01,0.507
8256757,4957.0,6501.0,3483.0,0.664,0.55,-0.009,0.507
8256773,4971.0,7087.0,3337.0,0.664,0.55,-0.008,0.507
8256789,5109.0,7565.0,3657.0,0.665,0.549,-0.006,0.506
8256805,5513.0,8035.0,4189.0,0.667,0.548,-0.004,0.506
8256821,5815.0,7985.0,4453.0,0.667,0.548,0.0,0.505
8256837,6313.0,7763.0,4395.0,0.667,0.55,0.008,0.502
8256863,5905.0,7027.0,4013.0,0.663,0.558,0.021,0.499
8256879,5149.0,7561.0,3511.0,0.657,0.57,0.041,0.492
8256895,4627.0,8763.0,3043.0,0.65,0.585,0.066,0.48
8256911,4445.0,11255.0,2659.0,0.645,0.599,0.092,0.467
8256927,4067.0,13401.0,2435.0,0.643,0.607,0.116,0.452
8256953,4421.0,14971.0,2263.0,0.648,0.607,0.135,0.44
8256969,4405.0,13981.0,2075.0,0.661,0.597,0.15,0.429
8256985,4211.0,12113.0,1809.0,0.68,0.58,0.164,0.418
8257001,4147.0,10423.0,2085.0,0.698,0.56,0.178,0.408
8257017,3717.0,9589.0,2541.0,0.715,0.541,0.195,0.397
8257033,2699.0,8959.0,2955.0,0.73,0.524,0.214,0.383
8257059,2139.0,8721.0,3017.0,0.744,0.508,0.233,0.366
8257075,1853.0,8445.0,2741.0,0.757,0.493,0.252,0.346
8257091,1561.0,8367.0,2615.0,0.77,0.478,0.271,0.324
8257107,957.0,8365.0,2369.0,0.783,0.461,0.29,0.302
8257123,821.0,8209.0,2383.0,0.795,0.442,0.307,0.279
8257139,413.0,7833.0,2397.0,0.808,0.42,0.323,0.258
8257165,-103.0,7273.0,2531.0,0.82,0.395,0.339,0.238
8257181,-797.0,6243.0,2337.0,0.833,0.365,0.354,0.218
8257197,-1603.0,5153.0,2381.0,0.844,0.334,0.37,0.198
8257213,-2499.0,4125.0,2311.0,0.853,0.302,0.386,0.178
8257229,-2611.0,3607.0,2307.0,0.861,0.271,0.401,0.157
8257245,-2509.0,3661.0,2589.0,0.866,0.241,0.417,0.136
8257271,-2383.0,3521.0,2661.0,0.87,0.21,0.432,0.115
8257287,-2979.0,2481.0,2651.0,0.872,0.18,0.446,0.094
8257303,-3523.0,1235.0,2655.0,0.873,0.151,0.458,0.074
8257319,-3613.0,359.0,2635.0,0.873,0.124,0.468,0.055
8257335,-3797.0,-297.0,2571.0,0.873,0.099,0.477,0.036
8257361,-4029.0,-1007.0,2701.0,0.871,0.077,0.484,0.02
8257377,-4513.0,-1531.0,2777.0,0.87,0.058,0.49,0.006
8257393,-4745.0,-2165.0,2725.0,0.868,0.042,0.494,-0.005
8257409,-5031.0,-2587.0,2765.0,0.866,0.03,0.498,-0.014
8257425,-5467.0,-2691.0,2719.0,0.865,0.023,0.501,-0.023
8257441,-5737.0,-1995.0,2857.0,0.864,0.021,0.503,-0.029
8257457,-5841.0,-1507.0,2923.0,0.863,0.021,0.503,-0.036
8257483,-5889.0,-917.0,3005.0,0.863,0.024,0.504,-0.043
8257500,-6305.0,-203.0,3227.0,0.862,0.026,0.504,-0.048
8257517,-6355.0,-463.0,3105.0,0.861,0.026,0.505,-0.051
8257533,-7089.0,-607.0,3703.0,0.861,0.025,0.505,-0.051
8257549,-6973.0,-1195.0,3879.0,0.862,0.025,0.504,-0.052
8257566,-7237.0,-1087.0,3829.0,0.862,0.024,0.504,-0.052
8257582,-7513.0,-439.0,3979.0,0.862,0.024,0.504,-0.05
8257599,-7539.0,-37.0,4441.0,0.863,0.023,0.503,-0.048
8257625,-7133.0,-201.0,4943.0,0.864,0.022,0.501,-0.047
8257641,-7537.0,-561.0,5309.0,0.864,0.023,0.501,-0.046
8257657,-7671.0,889.0,5039.0,0.864,0.025,0.501,-0.047
8257673,-7403.0,997.0,4653.0,0.864,0.026,0.501,-0.048
8257689,-7185.0,143.0,4463.0,0.863,0.025,0.502,-0.048
8257705,-7003.0,-403.0,4191.0,0.863,0.024,0.503,-0.049
8257731,-6821.0,7.0,3715.0,0.862,0.024,0.504,-0.05
8257747,-7155.0,819.0,3293.0,0.862,0.022,0.505,-0.051
8257763,-7043.0,959.0,2921.0,0.861,0.019,0.505,-0.052
8257779,-7197.0,-197.0,3195.0,0.861,0.015,0.505,-0.052
8257795,-7097.0,-1111.0,3625.0,0.862,0.011,0.505,-0.053
8257811,-7019.0,-317.0,3661.0,0.862,0.01,0.504,-0.053
8257837,-7075.0,389.0,4039.0,0.863,0.009,0.503,-0.054
8257853,-7059.0,-37.0,4439.0,0.863,0.007,0.503,-0.054
8257869,-7103.0,-531.0,4525.0,0.863,0.004,0.502,-0.053
8257886,-7397.0,243.0,4291.0,0.863,0.0,0.503,-0.051
8257907,-7525.0,17.0,3917.0,0.863,-0.005,0.504,-0.048
8257923,-7621.0,-435.0,3695.0,0.862,-0.012,0.504,-0.044
8257939,-7399.0,-1055.0,3607.0,0.863,-0.018,0.504,-0.041
8257955,-7135.0,-1063.0,3591.0,0.863,-0.023,0.504,-0.038
8257971,-7087.0,-1109.0,3777.0,0.863,-0.026,0.504,-0.036
8257997,-6993.0,-915.0,4019.0,0.863,-0.027,0.504,-0.035
8258013,-6843.0,-725.0,4187.0,0.863,-0.027,0.504,-0.035
8258029,-6723.0,-689.0,4173.0,0.862,-0.026,0.504,-0.034
8258045,-6765.0,-869.0,4063.0,0.862,-0.024,0.505,-0.034
8258061,-6907.0,-679.0,4179.0,0.862,-0.021,0.506,-0.034
8258077,-7187.0,-109.0,4085.0,0.861,-0.018,0.507,-0.035
8258094,-7243.0,-165.0,3841.0,0.861,-0.016,0.508,-0.035
8258120,-7195.0,-159.0,3755.0,0.86,-0.014,0.509,-0.035
8258136,-7085.0,-481.0,3587.0,0.86,-0.013,0.509,-0.035
8258152,-7019.0,-439.0,3627.0,0.859,-0.012,0.51,-0.035
8258169,-6889.0,-481.0,3657.0,0.859,-0.012,0.51,-0.034
8258186,-6791.0,-335.0,3781.0,0.859,-0.013,0.511,-0.032
8258202,-6537.0,-147.0,3881.0,0.859,-0.015,0.511,-0.029
8258218,-6101.0,359.0,3857.0,0.858,-0.02,0.512,-0.025
8258235,-6257.0,-641.0,3737.0,0.858,-0.028,0.513,-0.019
8258262,-6477.0,-2005.0,3633.0,0.858,-0.035,0.513,-0.011
8258278,-6219.0,-2693.0,3399.0,0.858,-0.039,0.512,-0.004
8258295,-6007.0,-1875.0,3209.0,0.859,-0.039,0.51,0.004
8258311,-6065.0,-1799.0,3363.0,0.861,-0.037,0.507,0.012
8258327,-5999.0,-1489.0,3487.0,0.863,-0.032,0.504,0.022
8258343,-6233.0,-789.0,3597.0,0.866,-0.027,0.499,0.033
8258359,-6497.0,-3.0,3653.0,0.868,-0.022,0.493,0.045
8258385,-6005.0,147.0,3801.0,0.871,-0.018,0.486,0.059
8258401,-5653.0,411.0,4035.0,0.875,-0.014,0.478,0.075
8258418,-5267.0,251.0,4025.0,0.879,-0.012,0.468,0.093
8258434,-5833.0,199.0,4257.0,0.882,-0.008,0.458,0.112
8258450,-6005.0,461.0,4487.0,0.885,-0.003,0.446,0.131
8258467,-5361.0,1125.0,4825.0,0.888,0.004,0.435,0.15
8258483,-4693.0,1757.0,5079.0,0.89,0.011,0.423,0.168
8258510,-4753.0,2041.0,5157.0,0.892,0.019,0.413,0.183
8258526,-5339.0,2375.0,5221.0,0.893,0.03,0.403,0.198
8258542,-5519.0,3065.0,5365.0,0.894,0.042,0.394,0.212
8258558,-5035.0,3765.0,5461.0,0.894,0.055,0.383,0.224
8258574,-4593.0,3845.0,5621.0,0.895,0.067,0.373,0.236
8258590,-4225.0,3787.0,5877.0,0.896,0.076,0.363,0.246
8258616,-4283.0,3933.0,6363.0,0.896,0.085,0.353,0.255
8258633,-4565.0,3941.0,6715.0,0.897,0.092,0.344,0.264
8258649,-4301.0,3665.0,7095.0,0.897,0.098,0.334,0.273
8258665,-3979.0,3275.0,7599.0,0.897,0.103,0.325,0.283
8258681,-3817.0,2983.0,7873.0,0.896,0.108,0.316,0.292
8258698,-3639.0,2741.0,8051.0,0.895,0.114,0.309,0.301
8258714,-3355.0,2581.0,8109.0,0.893,0.119,0.303,0.311
8258740,-3261.0,2725.0,8251.0,0.89,0.126,0.299,0.321
8258756,-3009.0,3231.0,8207.0,0.886,0.133,0.296,0.331
8258772,-2855.0,3621.0,8061.0,0.882,0.14,0.294,0.341
8258788,-2905.0,3923.0,7955.0,0.877,0.146,0.294,0.352
8258804,-2921.0,4131.0,7829.0,0.871,0.152,0.295,0.363
8258820,-2947.0,4379.0,7539.0,0.865,0.158,0.296,0.375
8258846,-2781.0,4617.0,7227.0,0.858,0.163,0.298,0.385
8258862,-2833.0,4885.0,6941.0,0.852,0.167,0.3,0.396
8258878,-2787.0,4883.0,6747.0,0.845,0.171,0.303,0.407
8258894,-2645.0,5157.0,6511.0,0.838,0.175,0.306,0.417
8258910,-2679.0,5353.0,6269.0,0.831,0.179,0.31,0.427
8258926,-2731.0,5481.0,5979.0,0.824,0.182,0.313,0.436
8258952,-2605.0,5429.0,5821.0,0.816,0.184,0.316,0.446
8258968,-2717.0,5403.0,5749.0,0.809,0.186,0.319,0.456
8258984,-2853.0,5429.0,5689.0,0.802,0.188,0.322,0.466
8259000,-2819.0,5597.0,5553.0,0.796,0.189,0.323,0.476
8259016,-2853.0,5637.0,5441.0,0.789,0.189,0.324,0.486
8259032,-2851.0,5513.0,5323.0,0.783,0.189,0.325,0.495
8259058,-2787.0,5333.0,5441.0,0.777,0.19,0.326,0.504
8259074,-2679.0,5291.0,5481.0,0.771,0.191,0.328,0.511
8259090,-2979.0,5253.0,5427.0,0.765,0.194,0.332,0.517
8259106,-3195.0,5503.0,5339.0,0.759,0.198,0.336,0.522
8259122,-3209.0,5863.0,5277.0,0.753,0.203,0.34,0.525
8259138,-3177.0,6117.0,4943.0,0.748,0.208,0.343,0.528
8259164,-3175.0,6173.0,4917.0,0.744,0.211,0.345,0.531
8259180,-3467.0,5999.0,4699.0,0.74,0.215,0.347,0.534
8259196,-3477.0,6099.0,4629.0,0.737,0.218,0.348,0.536
8259212,-3321.0,6095.0,4603.0,0.735,0.22,0.348,0.538
8259228,-3345.0,6029.0,4579.0,0.733,0.222,0.349,0.54
8259244,-3429.0,6037.0,4581.0,0.732,0.225,0.35,0.54
8259270,-3559.0,6079.0,4521.0,0.73,0.227,0.352,0.539
8259286,-3663.0,6371.0,4525.0,0.73,0.229,0.354,0.538
8259302,-3715.0,6527.0,4607.0,0.731,0.23,0.356,0.535
8259318,-3691.0,6579.0,4931.0,0.732,0.229,0.356,0.533
8259334,-3401.0,6199.0,5065.0,0.735,0.226,0.355,0.531
8259351,-3131.0,5621.0,5173.0,0.738,0.223,0.354,0.529
8259377,-2983.0,5347.0,5331.0,0.74,0.22,0.355,0.527
8259393,-2939.0,5491.0,5371.0,0.741,0.219,0.358,0.524
8259409,-2801.0,6059.0,5209.0,0.742,0.219,0.363,0.52
8259425,-2937.0,6737.0,5069.0,0.741,0.22,0.368,0.516
8259441,-3093.0,7299.0,4919.0,0.741,0.222,0.374,0.511
8259457,-3101.0,7705.0,4759.0,0.742,0.224,0.379,0.507
8259483,-2845.0,7615.0,4593.0,0.743,0.226,0.382,0.501
8259499,-2565.0,7381.0,4331.0,0.743,0.229,0.385,0.496
8259515,-2569.0,6957.0,4207.0,0.744,0.233,0.389,0.491
8259531,-2595.0,6767.0,4133.0,0.745,0.238,0.392,0.484
8259548,-2645.0,6729.0,3985.0,0.746,0.243,0.395,0.477
8259564,-2593.0,6635.0,4045.0,0.748,0.249,0.397,0.47
8259590,-2495.0,6633.0,4057.0,0.75,0.255,0.397,0.463
8259606,-2453.0,6577.0,4179.0,0.752,0.261,0.397,0.456
8259622,-2423.0,6499.0,4325.0,0.756,0.265,0.396,0.45
8259638,-2359.0,6355.0,4547.0,0.759,0.269,0.393,0.444
8259654,-2389.0,6225.0,4731.0,0.763,0.273,0.389,0.439
8259670,-2261.0,6271.0,4925.0,0.766,0.276,0.385,0.435
8259696,-2345.0,6367.0,5243.0,0.77,0.278,0.38,0.431
8259712,-2495.0,6327.0,6017.0,0.774,0.278,0.374,0.429
8259728,-2521.0,6299.0,6787.0,0.779,0.277,0.365,0.428
8259744,-2355.0,6111.0,7087.0,0.784,0.273,0.354,0.43
8259760,-1889.0,5263.0,6881.0,0.789,0.267,0.341,0.435
8259776,-1549.0,4603.0,6707.0,0.793,0.261,0.329,0.442
8259802,-1229.0,4413.0,6513.0,0.793,0.257,0.318,0.451
8259818,-843.0,4621.0,6253.0,0.791,0.255,0.31,0.461
8259835,-603.0,5373.0,5949.0,0.787,0.255,0.306,0.471
8259851,-449.0,6197.0,5663.0,0.783,0.255,0.303,0.48
8259867,-521.0,6673.0,5293.0,0.778,0.255,0.304,0.487
8259883,-791.0,6729.0,4867.0,0.772,0.256,0.306,0.494
8259899,-1179.0,6669.0,4409.0,0.767,0.257,0.309,0.5
8259925,-1521.0,6797.0,4109.0,0.762,0.259,0.313,0.505
8259941,-1833.0,6809.0,3705.0,0.757,0.263,0.316,0.508
8259957,-1965.0,7071.0,3441.0,0.753,0.267,0.317,0.511
8259973,-2089.0,7263.0,3469.0,0.751,0.272,0.317,0.512
8259989,-1987.0,7473.0,3559.0,0.75,0.275,0.313,0.513
8260015,-1767.0,7381.0,3725.0,0.751,0.278,0.307,0.514
8260031,-1791.0,7103.0,4077.0,0.752,0.281,0.299,0.516
8260048,-1647.0,6911.0,4451.0,0.754,0.283,0.29,0.517
8260064,-1475.0,6807.0,5075.0,0.757,0.284,0.279,0.518
8260080,-1335.0,6665.0,5575.0,0.76,0.285,0.268,0.519
8260096,-1107.0,6447.0,6019.0,0.762,0.286,0.257,0.52
8260112,-1001.0,6361.0,6573.0,0.765,0.287,0.245,0.521
8260138,-935.0,6127.0,6821.0,0.768,0.286,0.234,0.523
8260154,-421.0,5923.0,7093.0,0.77,0.285,0.223,0.525
8260170,-103.0,5703.0,7113.0,0.771,0.283,0.214,0.528
8260186,279.0,5571.0,7079.0,0.771,0.282,0.206,0.532
8260202,481.0,5597.0,6997.0,0.77,0.28,0.202,0.537
8260228,475.0,5619.0,6925.0,0.768,0.277,0.2,0.541
8260244,355.0,5707.0,6719.0,0.766,0.275,0.2,0.545
8260260,275.0,5909.0,6471.0,0.763,0.274,0.202,0.549
8260276,105.0,6005.0,6323.0,0.761,0.272,0.204,0.552
8260292,97.0,5959.0,6139.0,0.759,0.271,0.206,0.555
8260308,141.0,5907.0,6017.0,0.758,0.27,0.206,0.557
8260324,135.0,5669.0,5989.0,0.758,0.268,0.206,0.558
8260350,237.0,5385.0,6087.0,0.758,0.266,0.204,0.559
8260366,465.0,5037.0,6275.0,0.759,0.263,0.2,0.561
8260382,709.0,4799.0,6465.0,0.76,0.26,0.195,0.563
8260399,905.0,4467.0,6697.0,0.761,0.257,0.189,0.565
8260415,1189.0,4005.0,6823.0,0.761,0.253,0.182,0.568
8260431,1307.0,3543.0,6829.0,0.761,0.25,0.175,0.572
8260458,1355.0,3139.0,6815.0,0.76,0.247,0.17,0.576
8260474,1339.0,2963.0,6827.0,0.758,0.244,0.165,0.581
8260490,1303.0,3183.0,6901.0,0.756,0.242,0.161,0.587
8260506,1307.0,3453.0,6921.0,0.752,0.24,0.158,0.593
8260522,1265.0,3623.0,6891.0,0.748,0.238,0.154,0.6
8260538,1295.0,3723.0,6879.0,0.744,0.236,0.151,0.607
8260554,1311.0,3825.0,6879.0,0.74,0.233,0.148,0.613
8260580,1379.0,3905.0,7015.0,0.735,0.232,0.144,0.62
8260596,1507.0,4067.0,7111.0,0.731,0.23,0.14,0.627
8260612,1679.0,4151.0,7167.0,0.726,0.229,0.137,0.633
8260628,1799.0,4033.0,7069.0,0.722,0.228,0.133,0.64
8260644,1689.0,3935.0,7003.0,0.718,0.227,0.13,0.646
8260670,1607.0,3833.0,6861.0,0.713,0.226,0.127,0.651
8260686,1471.0,3789.0,6541.0,0.709,0.227,0.126,0.656
8260702,1431.0,3747.0,6321.0,0.705,0.228,0.124,0.66
8260718,1227.0,3801.0,6557.0,0.701,0.23,0.123,0.664
8260735,1271.0,3799.0,6527.0,0.698,0.232,0.121,0.667
8260751,1421.0,3669.0,6629.0,0.694,0.234,0.117,0.67
8260767,1465.0,3415.0,6541.0,0.691,0.236,0.114,0.674
8260793,1503.0,2933.0,6643.0,0.687,0.237,0.11,0.678
8260809,1369.0,2671.0,6575.0,0.683,0.239,0.107,0.682
8260825,1379.0,2691.0,6693.0,0.678,0.241,0.106,0.686
8260841,1159.0,2799.0,6717.0,0.674,0.243,0.105,0.69
8260857,1129.0,2957.0,6705.0,0.669,0.246,0.105,0.693
8260883,931.0,2959.0,6629.0,0.665,0.248,0.104,0.697
8260899,707.0,2999.0,6647.0,0.661,0.25,0.104,0.7
8260915,587.0,3107.0,6603.0,0.657,0.253,0.104,0.703
8260931,419.0,3399.0,6655.0,0.653,0.256,0.105,0.705
8260947,409.0,3711.0,6691.0,0.65,0.26,0.105,0.707
8260963,493.0,4043.0,6675.0,0.647,0.264,0.107,0.707
8260979,451.0,4555.0,6529.0,0.645,0.27,0.11,0.706
8261005,483.0,5219.0,6305.0,0.644,0.277,0.115,0.704
8261021,691.0,5855.0,5931.0,0.644,0.284,0.121,0.7
8261037,671.0,6515.0,5587.0,0.645,0.293,0.129,0.694
8261053,553.0,7163.0,5327.0,0.647,0.301,0.139,0.686
8261069,385.0,7593.0,5205.0,0.651,0.311,0.148,0.677
8261085,217.0,8029.0,5271.0,0.656,0.321,0.157,0.665
8261111,547.0,8307.0,5095.0,0.663,0.331,0.164,0.651
8261127,891.0,8517.0,4995.0,0.672,0.34,0.171,0.635
8261143,1279.0,8783.0,4759.0,0.683,0.349,0.177,0.617
8261159,1571.0,8657.0,4647.0,0.695,0.357,0.183,0.597
8261175,1247.0,8285.0,3947.0,0.708,0.365,0.189,0.574
8261201,1375.0,8499.0,3571.0,0.721,0.376,0.196,0.548
8261217,1543.0,8727.0,3579.0,0.735,0.387,0.203,0.519
8261233,1549.0,8933.0,3669.0,0.749,0.398,0.206,0.487
8261249,1931.0,8721.0,3651.0,0.764,0.409,0.207,0.455
8261265,2301.0,8201.0,3457.0,0.778,0.418,0.206,0.421
8261281,2469.0,7599.0,3997.0,0.792,0.426,0.204,0.388
8261307,2757.0,7301.0,4277.0,0.804,0.433,0.201,0.355
8261323,2217.0,6861.0,4505.0,0.815,0.438,0.197,0.323
8261339,1731.0,6343.0,5027.0,0.825,0.443,0.192,0.293
8261355,1801.0,5689.0,5285.0,0.834,0.446,0.186,0.266
8261371,1433.0,4661.0,5503.0,0.841,0.449,0.179,0.241
8261387,1925.0,3653.0,7043.0,0.848,0.45,0.172,0.221
8261413,809.0,3461.0,7107.0,0.852,0.451,0.164,0.209
8261429,2197.0,3783.0,8333.0,0.853,0.453,0.158,0.203
8261445,855.0,3263.0,7543.0,0.854,0.455,0.157,0.196
8261461,-73.0,4143.0,6155.0,0.852,0.46,0.158,0.191
8261477,-1557.0,6251.0,4319.0,0.849,0.468,0.159,0.186
8261493,-1831.0,8851.0,2643.0,0.848,0.472,0.159,0.182
8261519,-1341.0,9005.0,1839.0,0.85,0.47,0.156,0.178
8261535,-873.0,5107.0,1927.0,0.853,0.466,0.155,0.176
8261551,-817.0,5351.0,2847.0,0.854,0.466,0.152,0.172
8261567,115.0,7233.0,3883.0,0.855,0.468,0.15,0.169
8261583,179.0,9187.0,4989.0,0.854,0.47,0.15,0.166
8261599,-133.0,9043.0,6011.0,0.853,0.473,0.151,0.162
8261625,-1433.0,9935.0,5441.0,0.852,0.475,0.154,0.159
8261641,-1153.0,8287.0,5967.0,0.851,0.475,0.157,0.158
8261657,-955.0,8027.0,7177.0,0.85,0.475,0.161,0.158
8261673,-597.0,9535.0,7903.0,0.852,0.471,0.166,0.159
8261689,-959.0,9047.0,8695.0,0.854,0.463,0.174,0.163
8261705,-2147.0,13633.0,3563.0,0.861,0.447,0.181,0.164
8261731,4713.0,1697.0,4299.0,0.871,0.424,0.184,0.165
8261747,-2633.0,13907.0,6047.0,0.877,0.409,0.19,0.163
8261764,-1425.0,7287.0,6385.0,0.885,0.392,0.196,0.161
8261781,-2893.0,9727.0,6357.0,0.891,0.374,0.203,0.158
8261797,-2675.0,8193.0,6883.0,0.898,0.353,0.211,0.154
8261813,-3165.0,7625.0,7271.0,0.905,0.331,0.22,0.151
8261839,-3623.0,7293.0,7419.0,0.911,0.308,0.231,0.148
8261855,-3859.0,6385.0,7875.0,0.916,0.285,0.243,0.146
8261871,-4317.0,7135.0,7883.0,0.919,0.262,0.256,0.143
8261887,-4241.0,5541.0,7823.0,0.922,0.239,0.271,0.141
8261905,-4605.0,5691.0,7915.0,0.924,0.215,0.285,0.139
8261921,-4455.0,5475.0,7829.0,0.925,0.191,0.3,0.137
8261937,-4507.0,4815.0,7689.0,0.925,0.166,0.315,0.134
8261963,-4827.0,5139.0,7319.0,0.925,0.14,0.329,0.131
8261979,-4879.0,4761.0,7155.0,0.924,0.113,0.343,0.127
8261995,-5047.0,4431.0,6785.0,0.922,0.084,0.357,0.123
8262011,-5341.0,3631.0,6315.0,0.919,0.054,0.371,0.119
8262027,-5943.0,2683.0,5557.0,0.916,0.024,0.384,0.116
8262043,-6427.0,2389.0,4891.0,0.911,-0.007,0.396,0.112
8262059,-6461.0,1789.0,5417.0,0.906,-0.038,0.408,0.106
8262085,-5747.0,939.0,6307.0,0.899,-0.067,0.42,0.1
8262101,-5597.0,3103.0,6957.0,0.892,-0.096,0.433,0.092
8262117,-6063.0,-1363.0,5537.0,0.883,-0.121,0.445,0.085
8262133,-6055.0,819.0,4339.0,0.874,-0.142,0.458,0.076
8262149,-5585.0,-2119.0,3559.0,0.865,-0.159,0.471,0.067
8262166,-6275.0,-2507.0,2587.0,0.857,-0.167,0.485,0.055
8262192,-6149.0,-1555.0,2579.0,0.849,-0.17,0.499,0.04
8262208,-6599.0,-2575.0,2853.0,0.841,-0.17,0.513,0.025
8262224,-7001.0,-2667.0,3185.0,0.834,-0.167,0.526,0.008
8262240,-6895.0,-3287.0,3625.0,0.827,-0.159,0.539,-0.01
8262256,-7435.0,-2607.0,3969.0,0.82,-0.151,0.551,-0.027
8262272,-7763.0,-2267.0,3403.0,0.814,-0.142,0.562,-0.045
8262289,-7491.0,-913.0,2645.0,0.807,-0.136,0.571,-0.062
8262315,-6661.0,73.0,1553.0,0.801,-0.133,0.579,-0.078
8262332,-6925.0,251.0,841.0,0.795,-0.132,0.585,-0.092
8262349,-6903.0,-363.0,1199.0,0.79,-0.131,0.589,-0.105
8262366,-7471.0,-1409.0,1503.0,0.787,-0.131,0.592,-0.117
8262383,-6177.0,-1177.0,2363.0,0.785,-0.131,0.593,-0.126
8262400,-7091.0,-1291.0,2387.0,0.784,-0.132,0.593,-0.129
8262417,-6795.0,-1709.0,2621.0,0.784,-0.131,0.591,-0.134
8262434,-6657.0,-1455.0,2811.0,0.786,-0.128,0.588,-0.139
8262450,-6773.0,203.0,1805.0,0.789,-0.127,0.585,-0.14
8262466,-7193.0,-1865.0,1791.0,0.792,-0.128,0.582,-0.137
8262493,-7447.0,-2577.0,1681.0,0.795,-0.131,0.577,-0.133
8262509,-7295.0,-2823.0,751.0,0.799,-0.133,0.572,-0.129
8262525,-6605.0,-2729.0,1049.0,0.803,-0.133,0.567,-0.126
8262541,-6841.0,-1221.0,1415.0,0.807,-0.135,0.562,-0.121
8262557,-6475.0,-1521.0,1187.0,0.81,-0.14,0.558,-0.116
8262573,-5589.0,-2547.0,1111.0,0.812,-0.146,0.555,-0.11
8262599,-6277.0,-2961.0,1569.0,0.813,-0.153,0.552,-0.105
8262616,-5391.0,-2563.0,1839.0,0.812,-0.161,0.551,-0.102
8262633,-4869.0,-2379.0,1699.0,0.811,-0.169,0.552,-0.099
8262649,-5169.0,-3291.0,2133.0,0.808,-0.176,0.553,-0.098
8262666,-5207.0,-3019.0,1945.0,0.806,-0.182,0.555,-0.097
8262683,-5601.0,-2221.0,1905.0,0.803,-0.189,0.557,-0.096
8262700,-6011.0,-2889.0,1821.0,0.8,-0.196,0.559,-0.095
8262717,-6259.0,-2813.0,2019.0,0.796,-0.205,0.562,-0.094
8262734,-5591.0,-2127.0,1885.0,0.792,-0.216,0.564,-0.093
8262751,-5189.0,-3009.0,1925.0,0.786,-0.228,0.567,-0.091
8262767,-5483.0,-3765.0,1213.0,0.78,-0.24,0.571,-0.088
8262794,-5489.0,-4623.0,827.0,0.775,-0.251,0.574,-0.087
8262811,-5567.0,-6343.0,1311.0,0.768,-0.262,0.578,-0.087
8262827,-6363.0,-4005.0,375.0,0.761,-0.275,0.581,-0.086
8262843,-5859.0,-5841.0,657.0,0.754,-0.291,0.583,-0.085
8262859,-6581.0,-5455.0,509.0,0.745,-0.308,0.586,-0.085
8262875,-6203.0,-7359.0,-761.0,0.74,-0.32,0.585,-0.089
8262891,-6213.0,-6157.0,129.0,0.738,-0.325,0.583,-0.096
8262917,-5521.0,-3617.0,403.0,0.74,-0.324,0.581,-0.103
8262933,-4493.0,-2075.0,1307.0,0.739,-0.325,0.581,-0.107
8262950,-4983.0,-3855.0,263.0,0.735,-0.333,0.58,-0.109
8262967,-3277.0,-3103.0,-1747.0,0.73,-0.348,0.579,-0.11
8262984,-3145.0,-2677.0,-2543.0,0.721,-0.37,0.576,-0.11
8263001,-2857.0,-1429.0,-3287.0,0.711,-0.397,0.571,-0.106
8263017,-2851.0,-1633.0,-3511.0,0.702,-0.425,0.562,-0.104
8263033,-2483.0,-9997.0,3047.0,0.691,-0.45,0.556,-0.104
8263060,-4451.0,-10871.0,2885.0,0.69,-0.458,0.551,-0.109
8263076,-5777.0,-1627.0,-627.0,0.683,-0.475,0.544,-0.109
8263092,-5587.0,-1975.0,-4001.0,0.665,-0.509,0.537,-0.1
8263109,-5929.0,-10751.0,-5423.0,0.64,-0.551,0.53,-0.082
8263125,-6047.0,-17783.0,471.0,0.622,-0.576,0.525,-0.071
8263141,-6989.0,-12979.0,1467.0,0.614,-0.586,0.524,-0.068
8263157,-6507.0,-5121.0,3097.0,0.608,-0.591,0.525,-0.068
8263183,-5895.0,-3941.0,327.0,0.6,-0.598,0.527,-0.069
8263199,-5035.0,-4531.0,-2419.0,0.591,-0.604,0.53,-0.069
8263216,-4429.0,-5337.0,-3089.0,0.582,-0.61,0.533,-0.069
8263233,-3895.0,-4553.0,-4015.0,0.573,-0.617,0.535,-0.07
8263250,-2099.0,-5923.0,-4185.0,0.564,-0.624,0.537,-0.073
8263267,-2377.0,-7003.0,-2795.0,0.557,-0.628,0.537,-0.079
8263284,-3051.0,-7107.0,-1593.0,0.552,-0.631,0.538,-0.086
8263300,-2825.0,-7467.0,-1171.0,0.551,-0.632,0.537,-0.096
8263317,-2877.0,-5611.0,-1903.0,0.549,-0.633,0.535,-0.105
8263334,-3219.0,-7763.0,-3183.0,0.546,-0.636,0.533,-0.115
8263360,-2607.0,-5911.0,-3685.0,0.543,-0.639,0.53,-0.125
8263377,-2805.0,-5087.0,-2777.0,0.538,-0.643,0.528,-0.134
8263393,-2611.0,-6445.0,-2167.0,0.535,-0.646,0.525,-0.143
8263410,-2161.0,-5867.0,-2505.0,0.533,-0.647,0.523,-0.155
8263426,-1971.0,-6407.0,-2891.0,0.53,-0.649,0.52,-0.166
8263443,-2037.0,-7289.0,-3137.0,0.525,-0.652,0.517,-0.178
8263459,-1959.0,-5927.0,-3635.0,0.519,-0.657,0.513,-0.189
8263475,-2169.0,-6953.0,-2885.0,0.513,-0.661,0.51,-0.201
8263501,-2141.0,-7177.0,-3067.0,0.509,-0.663,0.506,-0.213
8263517,-1945.0,-6887.0,-3033.0,0.505,-0.665,0.501,-0.226
8263534,-1857.0,-7387.0,-3107.0,0.499,-0.669,0.498,-0.237
8263550,-1387.0,-7161.0,-3799.0,0.491,-0.674,0.493,-0.247
8263566,-1263.0,-8311.0,-4485.0,0.483,-0.68,0.489,-0.254
8263583,-1245.0,-8827.0,-3977.0,0.475,-0.685,0.486,-0.261
8263599,-873.0,-9007.0,-2851.0,0.468,-0.69,0.482,-0.267
8263616,-479.0,-8195.0,-3373.0,0.462,-0.695,0.479,-0.273
8263643,-249.0,-8605.0,-4035.0,0.455,-0.7,0.475,-0.277
8263660,59.0,-7999.0,-4355.0,0.45,-0.704,0.472,-0.281
8263676,167.0,-7977.0,-3629.0,0.446,-0.708,0.468,-0.285
8263692,61.0,-8219.0,-3897.0,0.442,-0.71,0.465,-0.289
8263708,319.0,-7675.0,-4051.0,0.44,-0.713,0.462,-0.293
8263724,205.0,-7683.0,-4265.0,0.437,-0.715,0.458,-0.295
8263740,495.0,-7861.0,-4249.0,0.436,-0.717,0.454,-0.299
8263766,621.0,-8355.0,-4027.0,0.437,-0.717,0.451,-0.303
8263782,445.0,-7837.0,-3493.0,0.436,-0.718,0.448,-0.306
8263798,383.0,-8397.0,-3363.0,0.432,-0.72,0.447,-0.308
8263814,297.0,-8629.0,-3725.0,0.429,-0.722,0.446,-0.309
8263831,61.0,-9075.0,-4039.0,0.426,-0.724,0.445,-0.31
8263848,-133.0,-9271.0,-4377.0,0.423,-0.725,0.445,-0.311
8263865,-267.0,-10079.0,-4787.0,0.42,-0.727,0.445,-0.311
8263882,-295.0,-10947.0,-4849.0,0.419,-0.727,0.446,-0.311
8263909,-31.0,-11155.0,-5107.0,0.42,-0.726,0.448,-0.31
8263926,151.0,-11387.0,-5345.0,0.422,-0.725,0.451,-0.307
8263942,73.0,-10869.0,-5355.0,0.425,-0.723,0.455,-0.301
8263958,129.0,-10471.0,-5231.0,0.429,-0.72,0.46,-0.294
8263974,-37.0,-9649.0,-5173.0,0.435,-0.716,0.466,-0.285
8263990,-525.0,-8683.0,-5203.0,0.441,-0.712,0.473,-0.275
8264006,-69.0,-8751.0,-4925.0,0.448,-0.707,0.48,-0.263
8264032,-295.0,-8211.0,-5195.0,0.456,-0.702,0.487,-0.248
8264049,-843.0,-8105.0,-5145.0,0.463,-0.698,0.495,-0.231
8264066,-1097.0,-8125.0,-4387.0,0.469,-0.694,0.503,-0.214
8264083,-1721.0,-7231.0,-3449.0,0.475,-0.689,0.511,-0.196
8264100,-1779.0,-7351.0,-3095.0,0.481,-0.684,0.519,-0.18
8264116,-2445.0,-6147.0,-3755.0,0.488,-0.677,0.525,-0.165
8264133,-2175.0,-6747.0,-4069.0,0.494,-0.671,0.532,-0.149
8264150,-2345.0,-6717.0,-3609.0,0.5,-0.666,0.537,-0.134
8264166,-2621.0,-5477.0,-3301.0,0.504,-0.662,0.542,-0.118
8264183,-3113.0,-6041.0,-3529.0,0.509,-0.658,0.546,-0.104
8264209,-3105.0,-5341.0,-3443.0,0.514,-0.653,0.549,-0.092
8264225,-3333.0,-4591.0,-3673.0,0.519,-0.648,0.551,-0.082
8264241,-3445.0,-5161.0,-3457.0,0.523,-0.644,0.553,-0.072
8264257,-4443.0,-5427.0,-3125.0,0.528,-0.641,0.554,-0.062
8264273,-4675.0,-4505.0,-2501.0,0.531,-0.638,0.555,-0.05
8264289,-5177.0,-5747.0,-2661.0,0.532,-0.638,0.556,-0.035
8264315,-4835.0,-4511.0,-2997.0,0.532,-0.639,0.556,-0.02
8264332,-4491.0,-5153.0,-2667.0,0.532,-0.639,0.556,-0.006
8264349,-3933.0,-4209.0,-1563.0,0.532,-0.638,0.557,0.006
8264365,-4723.0,-3585.0,-295.0,0.529,-0.639,0.558,0.017
8264381,-3831.0,-2093.0,-1003.0,0.524,-0.643,0.558,0.026
8264397,-3583.0,-3635.0,-2447.0,0.517,-0.648,0.558,0.036
8264414,-3079.0,-4051.0,-1707.0,0.511,-0.652,0.558,0.044
8264431,-3323.0,-2293.0,-1629.0,0.507,-0.655,0.558,0.05
8264448,-2959.0,-3335.0,-2801.0,0.502,-0.659,0.557,0.053
8264474,-2267.0,-5103.0,-3529.0,0.498,-0.664,0.556,0.056
8264490,-2509.0,-3743.0,-2615.0,0.494,-0.668,0.554,0.056
8264506,-3675.0,-4209.0,-2995.0,0.491,-0.672,0.551,0.054
8264522,-3089.0,-3285.0,-3391.0,0.488,-0.677,0.548,0.051
8264538,-3895.0,-3491.0,-3829.0,0.485,-0.682,0.545,0.046
8264554,-3729.0,-3017.0,-3623.0,0.482,-0.687,0.542,0.038
8264581,-4017.0,-4129.0,-3843.0,0.48,-0.691,0.54,0.028
8264598,-3269.0,-4483.0,-2315.0,0.477,-0.695,0.538,0.016
8264614,-3571.0,-5133.0,-2165.0,0.471,-0.7,0.537,0.003
8264631,-4279.0,-6023.0,-3755.0,0.465,-0.705,0.535,-0.011
8264648,-3965.0,-4557.0,-3605.0,0.458,-0.71,0.534,-0.025
8264665,-3569.0,-4753.0,-3807.0,0.451,-0.715,0.533,-0.038
8264682,-2941.0,-5821.0,-4927.0,0.445,-0.718,0.532,-0.053
8264699,-3061.0,-6515.0,-5205.0,0.439,-0.721,0.532,-0.068
8264716,-2875.0,-5569.0,-4847.0,0.432,-0.724,0.531,-0.084
8264733,-2905.0,-5747.0,-4617.0,0.426,-0.726,0.531,-0.098
8264750,-2399.0,-5957.0,-4985.0,0.422,-0.727,0.531,-0.113
8264776,-2327.0,-7035.0,-5503.0,0.417,-0.727,0.53,-0.127
8264792,-2383.0,-6069.0,-5013.0,0.411,-0.728,0.53,-0.142
8264808,-2195.0,-6201.0,-5059.0,0.407,-0.729,0.528,-0.155
8264824,-1979.0,-6337.0,-5311.0,0.405,-0.729,0.526,-0.168
8264840,-1193.0,-6565.0,-6047.0,0.405,-0.728,0.523,-0.18
8264856,-1329.0,-6969.0,-5095.0,0.404,-0.728,0.52,-0.191
8264873,-1479.0,-6891.0,-5493.0,0.402,-0.728,0.517,-0.202
8264899,-1079.0,-6591.0,-4933.0,0.401,-0.729,0.513,-0.212
8264916,-525.0,-6665.0,-5301.0,0.399,-0.73,0.51,-0.221
8264933,-143.0,-6489.0,-5411.0,0.396,-0.731,0.506,-0.229
8264949,-63.0,-6445.0,-5251.0,0.393,-0.732,0.503,-0.237
8264966,137.0,-7091.0,-5233.0,0.389,-0.734,0.5,-0.243
8264983,-91.0,-7629.0,-4765.0,0.384,-0.736,0.498,-0.25
8265000,-155.0,-7091.0,-4739.0,0.379,-0.738,0.495,-0.256
8265016,-35.0,-7307.0,-5325.0,0.373,-0.741,0.494,-0.261
8265033,-25.0,-6855.0,-6215.0,0.368,-0.743,0.492,-0.266
8265050,-189.0,-6975.0,-6493.0,0.364,-0.745,0.489,-0.27
8265076,-221.0,-7241.0,-6761.0,0.36,-0.747,0.487,-0.274
8265093,-199.0,-9861.0,-7457.0,0.357,-0.749,0.485,-0.277
8265110,-381.0,-13237.0,-7719.0,0.352,-0.752,0.481,-0.281
8265126,-375.0,-11791.0,-7479.0,0.35,-0.753,0.478,-0.285
8265142,-1263.0,-8557.0,-6219.0,0.348,-0.755,0.477,-0.286
8265159,-65.0,-11097.0,-7193.0,0.347,-0.756,0.479,-0.281
8265175,589.0,-10559.0,-7355.0,0.348,-0.757,0.481,-0.274
8265201,637.0,-10423.0,-6927.0,0.351,-0.756,0.485,-0.265
8265217,871.0,-10087.0,-6843.0,0.355,-0.755,0.489,-0.254
8265233,833.0,-8561.0,-7047.0,0.361,-0.753,0.494,-0.241
8265250,249.0,-8085.0,-6291.0,0.37,-0.749,0.5,-0.227
8265266,325.0,-7831.0,-6343.0,0.38,-0.744,0.506,-0.212
8265283,-337.0,-8127.0,-6267.0,0.39,-0.739,0.513,-0.196
8265299,-783.0,-6587.0,-6103.0,0.401,-0.733,0.52,-0.18
8265318,-1059.0,-7181.0,-6173.0,0.411,-0.726,0.527,-0.164
8265334,-1243.0,-6967.0,-6579.0,0.421,-0.719,0.533,-0.149
8265360,-1431.0,-6115.0,-5583.0,0.431,-0.711,0.539,-0.135
8265376,-2295.0,-5819.0,-5121.0,0.443,-0.702,0.545,-0.123
8265393,-2453.0,-4427.0,-3237.0,0.454,-0.692,0.55,-0.11
8265409,-2669.0,-5599.0,-4037.0,0.466,-0.683,0.554,-0.096
8265425,-2905.0,-5819.0,-4079.0,0.478,-0.674,0.558,-0.084
8265441,-3109.0,-5093.0,-4227.0,0.49,-0.664,0.56,-0.073
8265457,-3017.0,-3725.0,-3459.0,0.503,-0.654,0.562,-0.062
8265483,-4053.0,-4141.0,-2609.0,0.516,-0.643,0.563,-0.051
8265500,-3979.0,-4601.0,-2177.0,0.526,-0.634,0.565,-0.039
8265517,-4547.0,-4745.0,-2061.0,0.537,-0.625,0.566,-0.028
8265533,-4563.0,-6413.0,-2239.0,0.548,-0.616,0.566,-0.019
8265549,-5543.0,-4429.0,-2205.0,0.558,-0.609,0.564,-0.01
8265566,-5375.0,-3009.0,-2883.0,0.565,-0.604,0.562,0.001
8265583,-4961.0,-2357.0,-2099.0,0.57,-0.6,0.561,0.014
8265599,-5403.0,-5171.0,-3235.0,0.576,-0.595,0.56,0.024
8265626,-4941.0,-3653.0,-1917.0,0.577,-0.593,0.56,0.035
8265642,-3525.0,-1157.0,-81.0,0.578,-0.592,0.56,0.045
8265658,-3913.0,-707.0,417.0,0.576,-0.592,0.561,0.055
8265674,-4147.0,-2343.0,1091.0,0.574,-0.59,0.564,0.06
8265690,-3753.0,-961.0,251.0,0.572,-0.588,0.569,0.062
8265706,-4811.0,-7551.0,-1857.0,0.569,-0.587,0.572,0.065
8265723,-3325.0,-9933.0,-8973.0,0.567,-0.585,0.576,0.066
8265749,-2925.0,-373.0,-3179.0,0.558,-0.595,0.574,0.072
8265766,-1807.0,-1461.0,-631.0,0.548,-0.605,0.573,0.073
8265782,-3391.0,-5339.0,-1777.0,0.545,-0.608,0.573,0.066
8265798,-3325.0,-5009.0,-2295.0,0.549,-0.606,0.573,0.053
8265814,-2539.0,-1643.0,-723.0,0.549,-0.606,0.574,0.039
8265831,-4839.0,-1559.0,-2365.0,0.541,-0.613,0.575,0.026
8265848,-5545.0,-4229.0,-2235.0,0.53,-0.624,0.574,0.016
8265865,-4797.0,-3423.0,-2725.0,0.514,-0.637,0.574,0.006
8265882,-4933.0,-6101.0,-2653.0,0.501,-0.646,0.575,-0.007
8265909,-4187.0,-4907.0,-3321.0,0.494,-0.65,0.576,-0.021
8265925,-4559.0,-5427.0,-3891.0,0.489,-0.653,0.577,-0.035
8265942,-3997.0,-7109.0,-4459.0,0.485,-0.655,0.577,-0.051
8265958,-4273.0,-5293.0,-4487.0,0.479,-0.658,0.577,-0.068
8265975,-4731.0,-6265.0,-3811.0,0.474,-0.66,0.577,-0.083
8265992,-4071.0,-5841.0,-4329.0,0.47,-0.662,0.575,-0.097
8266008,-2833.0,-7083.0,-5315.0,0.465,-0.665,0.574,-0.111
8266025,-2963.0,-5657.0,-4879.0,0.46,-0.667,0.573,-0.124
8266051,-3237.0,-6475.0,-4525.0,0.455,-0.669,0.572,-0.136
8266067,-2635.0,-6355.0,-4975.0,0.451,-0.67,0.572,-0.146
8266083,-2357.0,-6981.0,-4915.0,0.447,-0.671,0.571,-0.157
8266099,-2837.0,-7375.0,-4517.0,0.443,-0.671,0.57,-0.168
8266116,-2777.0,-6289.0,-4633.0,0.439,-0.673,0.569,-0.178
8266133,-2583.0,-6719.0,-4553.0,0.435,-0.674,0.568,-0.186
8266149,-1933.0,-6909.0,-4877.0,0.431,-0.675,0.567,-0.194
8266165,-1649.0,-6397.0,-4945.0,0.428,-0.675,0.566,-0.201
8266192,-1717.0,-6937.0,-4603.0,0.424,-0.677,0.565,-0.209
8266208,-1525.0,-6683.0,-4977.0,0.419,-0.679,0.563,-0.215
8266224,-1823.0,-7279.0,-4859.0,0.415,-0.681,0.562,-0.221
8266240,-1795.0,-7021.0,-4517.0,0.41,-0.683,0.56,-0.227
8266256,-1481.0,-6321.0,-4811.0,0.405,-0.685,0.56,-0.232
8266272,-1359.0,-7297.0,-4981.0,0.401,-0.686,0.559,-0.236
8266298,-1231.0,-8015.0,-5235.0,0.396,-0.689,0.557,-0.241
8266315,-1465.0,-7353.0,-5223.0,0.391,-0.692,0.555,-0.246
8266332,-1513.0,-8329.0,-5049.0,0.386,-0.695,0.553,-0.249
8266349,-1331.0,-8843.0,-5469.0,0.383,-0.697,0.552,-0.253
8266366,-1379.0,-8525.0,-5565.0,0.38,-0.699,0.55,-0.255
8266382,-1067.0,-9147.0,-6187.0,0.378,-0.7,0.549,-0.257
8266398,-1139.0,-10389.0,-6917.0,0.376,-0.701,0.547,-0.259
8266415,-1429.0,-10407.0,-7443.0,0.375,-0.702,0.546,-0.261
8266432,-2045.0,-10481.0,-7153.0,0.376,-0.702,0.546,-0.261
8266449,-1677.0,-11013.0,-7549.0,0.377,-0.702,0.547,-0.257
8266466,-1571.0,-10225.0,-7249.0,0.38,-0.7,0.55,-0.251
8266492,-1375.0,-10285.0,-6975.0,0.384,-0.698,0.554,-0.243
8266509,-1159.0,-10167.0,-6861.0,0.39,-0.694,0.558,-0.235
8266526,-919.0,-9525.0,-6695.0,0.397,-0.689,0.563,-0.226
8266543,-1491.0,-8913.0,-5663.0,0.405,-0.683,0.567,-0.217
8266560,-1997.0,-7539.0,-5133.0,0.415,-0.677,0.571,-0.207
8266576,-1989.0,-6349.0,-4897.0,0.426,-0.671,0.575,-0.195
8266593,-1773.0,-6751.0,-5265.0,0.436,-0.664,0.579,-0.182
8266610,-1809.0,-5929.0,-5177.0,0.447,-0.658,0.583,-0.17
8266627,-1999.0,-6769.0,-5029.0,0.458,-0.65,0.585,-0.158
8266643,-2507.0,-5969.0,-4367.0,0.469,-0.643,0.587,-0.148
8266670,-3511.0,-5937.0,-3401.0,0.481,-0.635,0.588,-0.139
8266686,-4017.0,-4375.0,-2897.0,0.491,-0.63,0.588,-0.128
8266703,-3913.0,-5429.0,-3359.0,0.5,-0.625,0.588,-0.114
8266719,-3787.0,-5491.0,-3515.0,0.508,-0.621,0.588,-0.101
8266736,-3947.0,-5347.0,-3135.0,0.516,-0.617,0.587,-0.088
8266752,-4347.0,-4525.0,-2773.0,0.523,-0.614,0.586,-0.074
8266768,-4535.0,-5455.0,-2935.0,0.528,-0.613,0.584,-0.061
8266794,-4665.0,-4037.0,-2589.0,0.531,-0.614,0.582,-0.047
8266811,-4289.0,-3947.0,-2975.0,0.532,-0.617,0.578,-0.032
8266828,-3961.0,-5107.0,-3033.0,0.533,-0.62,0.575,-0.017
8266845,-3725.0,-5223.0,-3279.0,0.533,-0.623,0.572,-0.003
8266862,-4125.0,-4143.0,-2033.0,0.534,-0.625,0.57,0.009
8266879,-3843.0,-3993.0,-2071.0,0.534,-0.626,0.568,0.021
8266896,-3725.0,-3765.0,-655.0,0.534,-0.627,0.566,0.033
8266913,-3147.0,-4099.0,-2327.0,0.533,-0.628,0.565,0.043
8266930,-3275.0,-4141.0,-2195.0,0.533,-0.629,0.564,0.051
8266947,-2849.0,-3397.0,-1367.0,0.532,-0.63,0.563,0.057
8266964,-2575.0,-3549.0,-1379.0,0.53,-0.631,0.563,0.061
8266981,-2587.0,-2395.0,-1531.0,0.528,-0.634,0.562,0.062
8266998,-2539.0,-2697.0,-1789.0,0.524,-0.638,0.561,0.06
8267015,-3641.0,-1625.0,-2215.0,0.52,-0.642,0.56,0.056
8267041,-4077.0,-4733.0,-2707.0,0.516,-0.648,0.558,0.052
8267057,-4839.0,-3679.0,-2569.0,0.513,-0.653,0.556,0.044
8267073,-5021.0,-2265.0,-2455.0,0.508,-0.659,0.554,0.037
8267089,-4611.0,-3431.0,-3191.0,0.502,-0.666,0.551,0.031
8267106,-4207.0,-6881.0,-4557.0,0.497,-0.672,0.548,0.022
8267122,-5027.0,-4637.0,-3727.0,0.493,-0.677,0.546,0.009
8267148,-4791.0,-4351.0,-3867.0,0.488,-0.683,0.544,-0.001
8267164,-3423.0,-4779.0,-3737.0,0.483,-0.688,0.542,-0.011
8267181,-2987.0,-7329.0,-5069.0,0.478,-0.692,0.541,-0.022
8267198,-3495.0,-5389.0,-3923.0,0.475,-0.694,0.54,-0.035
8267215,-3573.0,-4705.0,-3669.0,0.47,-0.697,0.539,-0.046
8267232,-2621.0,-4983.0,-4151.0,0.465,-0.7,0.539,-0.056
8267249,-2183.0,-7911.0,-5459.0,0.46,-0.702,0.539,-0.065
8267265,-3127.0,-6595.0,-4341.0,0.458,-0.703,0.539,-0.079
8267282,-3587.0,-5737.0,-4091.0,0.454,-0.705,0.537,-0.09
8267299,-2919.0,-5257.0,-4559.0,0.45,-0.707,0.537,-0.098
8267325,-2253.0,-6693.0,-5221.0,0.446,-0.709,0.536,-0.106
8267341,-2617.0,-6309.0,-4701.0,0.443,-0.71,0.535,-0.115
8267358,-2385.0,-6441.0,-5485.0,0.44,-0.711,0.534,-0.124
8267374,-2799.0,-6591.0,-5145.0,0.437,-0.712,0.533,-0.133
8267390,-2987.0,-7845.0,-5441.0,0.435,-0.713,0.531,-0.142
8267406,-3241.0,-6537.0,-5255.0,0.434,-0.714,0.529,-0.15
8267422,-3229.0,-7121.0,-5259.0,0.431,-0.715,0.526,-0.158
8267448,-2833.0,-6489.0,-5493.0,0.429,-0.717,0.524,-0.166
8267465,-2353.0,-6655.0,-5753.0,0.427,-0.718,0.522,-0.172
8267482,-1719.0,-6783.0,-5749.0,0.424,-0.719,0.521,-0.177
8267498,-1983.0,-7021.0,-5445.0,0.421,-0.721,0.52,-0.183
8267515,-1717.0,-6541.0,-4851.0,0.418,-0.721,0.519,-0.187
8267532,-1255.0,-6531.0,-4493.0,0.415,-0.722,0.519,-0.19
8267548,-771.0,-6965.0,-5099.0,0.413,-0.723,0.519,-0.195
8267565,-953.0,-7195.0,-4835.0,0.411,-0.723,0.517,-0.2
8267582,-1279.0,-7257.0,-4479.0,0.41,-0.724,0.516,-0.206
8267609,-1183.0,-6281.0,-4629.0,0.409,-0.724,0.514,-0.21
8267625,-1149.0,-6703.0,-4921.0,0.408,-0.724,0.514,-0.213
8267642,-971.0,-8223.0,-4855.0,0.406,-0.725,0.513,-0.217
8267659,-719.0,-6973.0,-5359.0,0.405,-0.725,0.512,-0.22
8267675,-1141.0,-7761.0,-5479.0,0.404,-0.725,0.511,-0.224
8267692,-1065.0,-9331.0,-5907.0,0.403,-0.725,0.51,-0.227
8267708,-1541.0,-9431.0,-6475.0,0.402,-0.725,0.509,-0.231
8267724,-2221.0,-10037.0,-6617.0,0.401,-0.726,0.508,-0.234
8267750,-2387.0,-10159.0,-6809.0,0.399,-0.726,0.509,-0.234
8267767,-2455.0,-10959.0,-7149.0,0.396,-0.726,0.511,-0.232
8267783,-2061.0,-10673.0,-7491.0,0.395,-0.726,0.514,-0.228
8267799,-1771.0,-10501.0,-7471.0,0.394,-0.726,0.518,-0.222
8267815,-1481.0,-10155.0,-7291.0,0.394,-0.725,0.523,-0.213
8267832,-879.0,-10197.0,-7269.0,0.396,-0.723,0.528,-0.204
8267848,-701.0,-9255.0,-6741.0,0.4,-0.721,0.532,-0.196
8267865,-1487.0,-7705.0,-5547.0,0.406,-0.716,0.536,-0.187
8267882,-1609.0,-6801.0,-5125.0,0.415,-0.712,0.539,-0.176
8267908,-1219.0,-6223.0,-5157.0,0.424,-0.707,0.542,-0.164
8267924,-1091.0,-5753.0,-4807.0,0.434,-0.701,0.545,-0.153
8267941,-1895.0,-6037.0,-4721.0,0.444,-0.696,0.547,-0.141
8267957,-2405.0,-4837.0,-3877.0,0.455,-0.69,0.549,-0.129
8267974,-2647.0,-6207.0,-3989.0,0.465,-0.684,0.55,-0.117
8267990,-2675.0,-6305.0,-4215.0,0.474,-0.679,0.551,-0.106
8268016,-3155.0,-5485.0,-3841.0,0.482,-0.674,0.552,-0.097
8268032,-3775.0,-5379.0,-3567.0,0.489,-0.669,0.553,-0.086
8268049,-4083.0,-5301.0,-3441.0,0.495,-0.665,0.554,-0.074
8268065,-3829.0,-5653.0,-3713.0,0.5,-0.662,0.555,-0.063
8268082,-3775.0,-4319.0,-2975.0,0.504,-0.659,0.556,-0.051
8268098,-3743.0,-5755.0,-2945.0,0.507,-0.657,0.557,-0.039
8268114,-3837.0,-5793.0,-3557.0,0.508,-0.656,0.557,-0.027
8268131,-4157.0,-4313.0,-2249.0,0.509,-0.656,0.558,-0.015
8268148,-4171.0,-3797.0,-2531.0,0.508,-0.656,0.558,-0.002
8268165,-3655.0,-2037.0,-3143.0,0.504,-0.659,0.558,0.013
8268192,-3557.0,-6455.0,-3581.0,0.501,-0.661,0.558,0.027
8268209,-3461.0,-5537.0,-3729.0,0.5,-0.66,0.559,0.038
8268225,-4061.0,-4619.0,-3335.0,0.5,-0.659,0.56,0.046
8268241,-4577.0,-3697.0,-2285.0,0.498,-0.659,0.561,0.055
8268257,-4359.0,-3631.0,-2419.0,0.497,-0.66,0.56,0.064
8268273,-3655.0,-3695.0,-2601.0,0.496,-0.661,0.559,0.071
8268289,-2827.0,-3763.0,-2641.0,0.495,-0.661,0.559,0.076
8268315,-3279.0,-4653.0,-2793.0,0.495,-0.66,0.559,0.077
8268332,-3199.0,-2681.0,-1539.0,0.496,-0.66,0.559,0.076
8268348,-3415.0,-3119.0,-2035.0,0.497,-0.66,0.559,0.074
8268365,-3661.0,-3667.0,-2309.0,0.498,-0.66,0.558,0.068
8268381,-3735.0,-3091.0,-2189.0,0.498,-0.661,0.558,0.061
8268398,-4029.0,-3639.0,-2619.0,0.499,-0.662,0.557,0.052
8268414,-4173.0,-3347.0,-2443.0,0.5,-0.662,0.557,0.042
8268431,-4361.0,-4141.0,-2623.0,0.501,-0.663,0.556,0.031
8268457,-4491.0,-4137.0,-3023.0,0.501,-0.664,0.555,0.018
8268473,-4107.0,-4647.0,-2895.0,0.5,-0.665,0.555,0.006
8268489,-4393.0,-5967.0,-2851.0,0.497,-0.667,0.554,-0.007
8268505,-4033.0,-5773.0,-3393.0,0.494,-0.67,0.555,-0.02
8268521,-4391.0,-5547.0,-3045.0,0.49,-0.672,0.554,-0.033
8268538,-4385.0,-5949.0,-3637.0,0.484,-0.676,0.554,-0.044
8268564,-3761.0,-6387.0,-4387.0,0.478,-0.68,0.553,-0.056
8268581,-3761.0,-6453.0,-4149.0,0.473,-0.683,0.553,-0.068
8268598,-3545.0,-5877.0,-4535.0,0.468,-0.685,0.552,-0.079
8268615,-3051.0,-5533.0,-4593.0,0.463,-0.687,0.552,-0.09
8268631,-3381.0,-7205.0,-4775.0,0.458,-0.689,0.553,-0.1
8268648,-3267.0,-6873.0,-4961.0,0.453,-0.691,0.552,-0.111
8268665,-3223.0,-5175.0,-4873.0,0.448,-0.693,0.552,-0.121
8268681,-2695.0,-5903.0,-4849.0,0.443,-0.695,0.552,-0.129
8268698,-2067.0,-6713.0,-5205.0,0.437,-0.696,0.552,-0.136
8268714,-2031.0,-5995.0,-4741.0,0.432,-0.698,0.553,-0.144
8268741,-2359.0,-6909.0,-4727.0,0.429,-0.698,0.552,-0.153
8268757,-2593.0,-5469.0,-4307.0,0.425,-0.699,0.552,-0.161
8268773,-1685.0,-5589.0,-4605.0,0.422,-0.699,0.552,-0.168
8268789,-1821.0,-8985.0,-4761.0,0.418,-0.699,0.552,-0.177
8268805,-2187.0,-5953.0,-4655.0,0.415,-0.7,0.551,-0.187
8268822,-2619.0,-5833.0,-4427.0,0.411,-0.7,0.55,-0.195
8268838,-1781.0,-5821.0,-4823.0,0.406,-0.701,0.55,-0.202
8268864,-969.0,-9239.0,-5831.0,0.401,-0.702,0.55,-0.211
8268881,-1765.0,-7417.0,-5535.0,0.397,-0.703,0.548,-0.221
8268898,-2079.0,-7333.0,-5253.0,0.392,-0.704,0.546,-0.231
8268914,-1317.0,-6613.0,-5057.0,0.387,-0.705,0.544,-0.238
8268931,-625.0,-6487.0,-5553.0,0.382,-0.706,0.543,-0.244
8268948,-541.0,-7025.0,-5325.0,0.377,-0.708,0.543,-0.25
8268965,-323.0,-6419.0,-5177.0,0.371,-0.71,0.542,-0.254
8268981,-89.0,-6535.0,-4775.0,0.366,-0.712,0.541,-0.259
8268998,285.0,-7451.0,-5283.0,0.361,-0.713,0.54,-0.263
8269024,81.0,-8055.0,-5423.0,0.358,-0.714,0.538,-0.269
8269040,-247.0,-7411.0,-5551.0,0.355,-0.715,0.536,-0.274
8269056,-299.0,-7739.0,-6073.0,0.352,-0.717,0.534,-0.278
8269072,-223.0,-9203.0,-6437.0,0.348,-0.718,0.533,-0.281
8269088,-577.0,-9185.0,-6917.0,0.345,-0.719,0.532,-0.284
8269104,-729.0,-10073.0,-7341.0,0.342,-0.72,0.533,-0.284
8269130,-609.0,-10609.0,-7721.0,0.34,-0.721,0.534,-0.283
8269147,-801.0,-10631.0,-7557.0,0.338,-0.721,0.536,-0.28
8269164,-637.0,-10149.0,-7549.0,0.337,-0.721,0.54,-0.275
8269181,59.0,-10363.0,-7905.0,0.337,-0.72,0.544,-0.267
8269198,279.0,-9947.0,-7701.0,0.339,-0.719,0.548,-0.26
8269215,-433.0,-8859.0,-6885.0,0.343,-0.716,0.553,-0.252
8269232,-627.0,-8237.0,-6635.0,0.349,-0.713,0.557,-0.242
8269248,-911.0,-7463.0,-6305.0,0.358,-0.71,0.56,-0.232
8269264,-443.0,-6631.0,-6659.0,0.368,-0.706,0.563,-0.221
8269290,-439.0,-5813.0,-6173.0,0.378,-0.702,0.566,-0.21
8269306,-561.0,-6511.0,-5769.0,0.389,-0.697,0.569,-0.199
8269322,-915.0,-5831.0,-4909.0,0.4,-0.691,0.572,-0.189
8269338,-1249.0,-5779.0,-4461.0,0.41,-0.684,0.576,-0.177
8269355,-1925.0,-5219.0,-3731.0,0.42,-0.678,0.58,-0.166
8269371,-2403.0,-5997.0,-3831.0,0.429,-0.673,0.582,-0.155
8269388,-2409.0,-5029.0,-4093.0,0.436,-0.668,0.585,-0.144
8269414,-2427.0,-4273.0,-4075.0,0.443,-0.664,0.587,-0.133
8269431,-2655.0,-5123.0,-3929.0,0.449,-0.661,0.589,-0.122
8269448,-2375.0,-4591.0,-4311.0,0.455,-0.657,0.591,-0.11
8269464,-3075.0,-5225.0,-3599.0,0.46,-0.653,0.594,-0.1
8269481,-3447.0,-5237.0,-3821.0,0.464,-0.649,0.596,-0.091
8269497,-3627.0,-5381.0,-3451.0,0.468,-0.646,0.597,-0.082
8269514,-3893.0,-4855.0,-3761.0,0.471,-0.644,0.598,-0.073
8269531,-3943.0,-4539.0,-3859.0,0.473,-0.642,0.6,-0.064
8269548,-4343.0,-4403.0,-3963.0,0.474,-0.641,0.601,-0.055
8269564,-3961.0,-4319.0,-3773.0,0.475,-0.64,0.602,-0.045
8269581,-3189.0,-3929.0,-3167.0,0.477,-0.638,0.604,-0.036
8269608,-3593.0,-5701.0,-3377.0,0.478,-0.636,0.605,-0.028
8269624,-3367.0,-3841.0,-2733.0,0.479,-0.635,0.606,-0.021
8269640,-3297.0,-4257.0,-2439.0,0.479,-0.634,0.606,-0.014
8269656,-2997.0,-4793.0,-3147.0,0.48,-0.634,0.606,-0.009
8269672,-2755.0,-3119.0,-2381.0,0.482,-0.633,0.606,-0.006
8269688,-2389.0,-3487.0,-2371.0,0.483,-0.633,0.605,-0.003
8269714,-2469.0,-3803.0,-2431.0,0.484,-0.633,0.604,-0.003
8269731,-2925.0,-4283.0,-2233.0,0.484,-0.634,0.603,-0.006
8269748,-3193.0,-3553.0,-1987.0,0.484,-0.636,0.601,-0.011
8269765,-3367.0,-3621.0,-2285.0,0.483,-0.638,0.599,-0.016
8269782,-3469.0,-4273.0,-3049.0,0.481,-0.641,0.597,-0.022
8269799,-3563.0,-4299.0,-3375.0,0.479,-0.644,0.596,-0.029
8269815,-4097.0,-5705.0,-3869.0,0.477,-0.646,0.595,-0.038
8269831,-4295.0,-4383.0,-3441.0,0.473,-0.648,0.595,-0.048
8269847,-4217.0,-4815.0,-3631.0,0.469,-0.652,0.594,-0.056
8269874,-3547.0,-5193.0,-4095.0,0.464,-0.655,0.593,-0.065
8269890,-2975.0,-6469.0,-5201.0,0.458,-0.659,0.593,-0.074
8269906,-3565.0,-5767.0,-4435.0,0.453,-0.661,0.592,-0.085
8269922,-3531.0,-5417.0,-4487.0,0.448,-0.663,0.592,-0.094
8269938,-2865.0,-5471.0,-4727.0,0.444,-0.666,0.59,-0.102
8269954,-2953.0,-7451.0,-5215.0,0.441,-0.668,0.589,-0.111
8269971,-3103.0,-5255.0,-4785.0,0.438,-0.67,0.587,-0.12
8269997,-3051.0,-6365.0,-5011.0,0.434,-0.672,0.586,-0.127
8270013,-2491.0,-5569.0,-5071.0,0.43,-0.674,0.586,-0.133
8270030,-2165.0,-6113.0,-5213.0,0.426,-0.675,0.586,-0.139
8270047,-2123.0,-5471.0,-5027.0,0.422,-0.676,0.586,-0.146
8270064,-2767.0,-6451.0,-4773.0,0.418,-0.676,0.587,-0.153
8270081,-2775.0,-5797.0,-5181.0,0.414,-0.677,0.587,-0.161
8270097,-2713.0,-6089.0,-4823.0,0.411,-0.677,0.586,-0.169
8270114,-2377.0,-5945.0,-4915.0,0.407,-0.678,0.586,-0.176
8270131,-2163.0,-5811.0,-5095.0,0.403,-0.679,0.586,-0.183
8270157,-2213.0,-7205.0,-4795.0,0.399,-0.68,0.586,-0.191
8270174,-1947.0,-7403.0,-5269.0,0.394,-0.68,0.585,-0.2
8270190,-2195.0,-6869.0,-4835.0,0.391,-0.681,0.583,-0.209
8270206,-1843.0,-6045.0,-4875.0,0.387,-0.682,0.581,-0.218
8270222,-1481.0,-6059.0,-4977.0,0.382,-0.684,0.579,-0.227
8270238,-1321.0,-6245.0,-4719.0,0.377,-0.685,0.577,-0.235
8270264,-831.0,-6207.0,-4925.0,0.372,-0.687,0.575,-0.242
8270281,-891.0,-6509.0,-4755.0,0.366,-0.689,0.574,-0.249
8270298,-617.0,-5893.0,-4553.0,0.361,-0.691,0.572,-0.255
8270315,141.0,-6311.0,-5197.0,0.355,-0.692,0.571,-0.262
8270332,-127.0,-6757.0,-5195.0,0.35,-0.694,0.569,-0.268
8270348,-363.0,-7257.0,-5411.0,0.344,-0.696,0.567,-0.276
8270364,-591.0,-6685.0,-5353.0,0.339,-0.698,0.565,-0.282
8270381,-403.0,-6977.0,-5481.0,0.335,-0.699,0.562,-0.288
8270397,393.0,-7653.0,-6375.0,0.331,-0.7,0.56,-0.293
8270414,103.0,-8087.0,-6241.0,0.328,-0.702,0.558,-0.299
8270431,185.0,-8751.0,-6755.0,0.324,-0.703,0.556,-0.304
8270457,-291.0,-9645.0,-6711.0,0.321,-0.703,0.554,-0.309
8270473,-547.0,-9909.0,-6787.0,0.319,-0.704,0.553,-0.312
8270490,-455.0,-10537.0,-7163.0,0.317,-0.704,0.553,-0.314
8270506,-389.0,-10589.0,-7325.0,0.315,-0.704,0.554,-0.313
8270522,-305.0,-10371.0,-7307.0,0.313,-0.704,0.556,-0.31
8270538,29.0,-9819.0,-7491.0,0.313,-0.704,0.56,-0.306
8270564,85.0,-9633.0,-7243.0,0.313,-0.702,0.565,-0.3
8270580,127.0,-9521.0,-7081.0,0.315,-0.7,0.569,-0.293
8270597,253.0,-8837.0,-7025.0,0.32,-0.698,0.574,-0.286
8270613,-91.0,-8315.0,-6471.0,0.326,-0.694,0.578,-0.279
8270630,-327.0,-7609.0,-6227.0,0.334,-0.69,0.581,-0.272
8270647,-767.0,-6843.0,-5449.0,0.343,-0.686,0.585,-0.265
8270664,-661.0,-7099.0,-5131.0,0.353,-0.681,0.588,-0.256
8270681,-449.0,-7065.0,-5225.0,0.362,-0.677,0.591,-0.247
8270698,-815.0,-6205.0,-5219.0,0.372,-0.672,0.595,-0.237
8270714,-1117.0,-5889.0,-5055.0,0.381,-0.667,0.599,-0.226
8270740,-1135.0,-6163.0,-5033.0,0.39,-0.662,0.602,-0.215
8270756,-1295.0,-6233.0,-5035.0,0.4,-0.657,0.605,-0.205
8270772,-1725.0,-5419.0,-4563.0,0.409,-0.653,0.607,-0.196
8270789,-1959.0,-4743.0,-4265.0,0.417,-0.648,0.61,-0.185
8270806,-2225.0,-5967.0,-4153.0,0.424,-0.645,0.612,-0.174
8270822,-2289.0,-5223.0,-4083.0,0.432,-0.641,0.613,-0.164
8270838,-2387.0,-4721.0,-4079.0,0.438,-0.638,0.615,-0.154
8270864,-2635.0,-5617.0,-4015.0,0.442,-0.635,0.616,-0.144
8270880,-2603.0,-4535.0,-4091.0,0.446,-0.633,0.619,-0.135
8270897,-2815.0,-4633.0,-4461.0,0.448,-0.631,0.621,-0.125
8270913,-3235.0,-5861.0,-4421.0,0.45,-0.628,0.624,-0.116
8270930,-3527.0,-4339.0,-4023.0,0.452,-0.625,0.627,-0.107
8270947,-3667.0,-4769.0,-3555.0,0.454,-0.623,0.63,-0.097
8270964,-3159.0,-5195.0,-3929.0,0.456,-0.621,0.631,-0.088
8270980,-3047.0,-4387.0,-3591.0,0.458,-0.62,0.632,-0.08
8271007,-2815.0,-3771.0,-3409.0,0.459,-0.62,0.632,-0.072
8271023,-2591.0,-3931.0,-3025.0,0.46,-0.622,0.631,-0.064
8271040,-1759.0,-3771.0,-3083.0,0.462,-0.623,0.629,-0.057
8271057,-1297.0,-4113.0,-2795.0,0.464,-0.624,0.627,-0.052
8271074,-1165.0,-4207.0,-2693.0,0.466,-0.624,0.625,-0.05
8271090,-1455.0,-4267.0,-2381.0,0.469,-0.624,0.623,-0.052
8271106,-1857.0,-4167.0,-2297.0,0.47,-0.624,0.622,-0.056
8271122,-2675.0,-4083.0,-2113.0,0.471,-0.624,0.621,-0.062
8271148,-3427.0,-3463.0,-2279.0,0.47,-0.625,0.62,-0.07
8271164,-3827.0,-4087.0,-2889.0,0.468,-0.626,0.619,-0.078
8271181,-3923.0,-4825.0,-3489.0,0.466,-0.627,0.618,-0.086
8271198,-3865.0,-4623.0,-3473.0,0.464,-0.628,0.617,-0.095
8271215,-4059.0,-5055.0,-3429.0,0.46,-0.629,0.617,-0.104
8271231,-3825.0,-5405.0,-3957.0,0.456,-0.631,0.617,-0.114
8271247,-3849.0,-5595.0,-3815.0,0.45,-0.633,0.617,-0.123
8271263,-3511.0,-5259.0,-3991.0,0.444,-0.636,0.617,-0.132
8271290,-3103.0,-5341.0,-4325.0,0.438,-0.639,0.616,-0.142
8271306,-2775.0,-6101.0,-4857.0,0.432,-0.642,0.615,-0.152
8271323,-2405.0,-6391.0,-5243.0,0.425,-0.644,0.615,-0.162
8271339,-2649.0,-6487.0,-4533.0,0.421,-0.645,0.614,-0.173
8271355,-2261.0,-6097.0,-4385.0,0.416,-0.646,0.613,-0.184
8271371,-1717.0,-5439.0,-4507.0,0.411,-0.647,0.612,-0.194
8271387,-1823.0,-6849.0,-4707.0,0.407,-0.648,0.611,-0.205
8271413,-1993.0,-5955.0,-4739.0,0.402,-0.648,0.609,-0.215
8271430,-1709.0,-6573.0,-4759.0,0.399,-0.649,0.607,-0.226
8271446,-1747.0,-7527.0,-4879.0,0.395,-0.649,0.605,-0.236
8271463,-1923.0,-6153.0,-4715.0,0.392,-0.65,0.603,-0.246
8271480,-1567.0,-6223.0,-4613.0,0.389,-0.651,0.6,-0.255
8271497,-863.0,-6757.0,-5107.0,0.385,-0.652,0.598,-0.263
8271513,-735.0,-7609.0,-5235.0,0.381,-0.653,0.596,-0.272
8271529,-1121.0,-6971.0,-5005.0,0.377,-0.654,0.593,-0.28
8271546,-1171.0,-6719.0,-4757.0,0.373,-0.654,0.591,-0.288
8271573,-753.0,-7119.0,-4741.0,0.371,-0.655,0.589,-0.295
8271590,-123.0,-7417.0,-4865.0,0.368,-0.655,0.587,-0.302
8271607,-263.0,-7177.0,-4795.0,0.366,-0.655,0.584,-0.309
8271623,-145.0,-6923.0,-4659.0,0.365,-0.656,0.581,-0.315
8271639,157.0,-7937.0,-4829.0,0.363,-0.656,0.578,-0.322
8271655,55.0,-8025.0,-4871.0,0.362,-0.656,0.575,-0.329
8271671,-313.0,-8471.0,-4303.0,0.361,-0.656,0.572,-0.334
8271697,-129.0,-8239.0,-4715.0,0.36,-0.657,0.57,-0.339
8271714,99.0,-8597.0,-5321.0,0.36,-0.657,0.568,-0.342
8271730,-47.0,-9087.0,-5317.0,0.358,-0.657,0.567,-0.344
8271746,-179.0,-9531.0,-5477.0,0.355,-0.657,0.567,-0.345
8271763,-451.0,-10755.0,-5659.0,0.353,-0.658,0.568,-0.346
8271780,-619.0,-10755.0,-5865.0,0.35,-0.658,0.57,-0.346
8271797,-569.0,-10415.0,-6275.0,0.348,-0.657,0.573,-0.344
8271814,-851.0,-10593.0,-6361.0,0.346,-0.657,0.577,-0.34
8271830,-941.0,-10577.0,-6237.0,0.345,-0.656,0.582,-0.334
8271856,-643.0,-10427.0,-6293.0,0.346,-0.655,0.587,-0.326
8271872,-469.0,-9705.0,-6497.0,0.348,-0.654,0.592,-0.317
8271889,85.0,-9539.0,-6769.0,0.352,-0.651,0.597,-0.308
8271905,-217.0,-8929.0,-5887.0,0.357,-0.649,0.602,-0.298
8271922,-819.0,-8211.0,-4963.0,0.363,-0.645,0.607,-0.287
8271938,-1337.0,-7557.0,-4903.0,0.372,-0.642,0.612,-0.275
8271954,-807.0,-6975.0,-5445.0,0.382,-0.638,0.616,-0.261
8271980,-775.0,-6493.0,-5127.0,0.392,-0.633,0.619,-0.249
8271996,-761.0,-6937.0,-5077.0,0.403,-0.629,0.621,-0.238
8272013,-1415.0,-6507.0,-4705.0,0.413,-0.624,0.623,-0.228
8272030,-2269.0,-5881.0,-3971.0,0.424,-0.618,0.625,-0.219
8272047,-2581.0,-5871.0,-3835.0,0.433,-0.614,0.627,-0.208
8272064,-2813.0,-6303.0,-3709.0,0.442,-0.609,0.628,-0.198
8272080,-2787.0,-6177.0,-3583.0,0.449,-0.605,0.63,-0.188
8272096,-2939.0,-6103.0,-3447.0,0.455,-0.602,0.631,-0.179
8272113,-3133.0,-5341.0,-3317.0,0.46,-0.599,0.633,-0.169
8272130,-3571.0,-6771.0,-3433.0,0.464,-0.596,0.636,-0.16
8272156,-3867.0,-6407.0,-3553.0,0.467,-0.594,0.638,-0.15
8272173,-3515.0,-4991.0,-3729.0,0.47,-0.592,0.64,-0.139
8272190,-3245.0,-4321.0,-3427.0,0.472,-0.591,0.642,-0.126
8272206,-2715.0,-5009.0,-3757.0,0.473,-0.59,0.644,-0.113
8272223,-2857.0,-4175.0,-3745.0,0.475,-0.591,0.645,-0.1
8272239,-2927.0,-5419.0,-4115.0,0.476,-0.591,0.645,-0.088
8272255,-3419.0,-4623.0,-4037.0,0.479,-0.591,0.644,-0.077
8272281,-3577.0,-3101.0,-3601.0,0.482,-0.591,0.643,-0.065
8272297,-3371.0,-4191.0,-3503.0,0.485,-0.593,0.641,-0.053
8272313,-3589.0,-6261.0,-4039.0,0.487,-0.594,0.639,-0.042
8272330,-3555.0,-3269.0,-2631.0,0.49,-0.594,0.637,-0.033
8272346,-3347.0,-2851.0,-2421.0,0.492,-0.596,0.634,-0.023
8272363,-2789.0,-3189.0,-2297.0,0.493,-0.599,0.631,-0.015
8272380,-2225.0,-3409.0,-2583.0,0.494,-0.602,0.628,-0.008
8272397,-2225.0,-4437.0,-2857.0,0.495,-0.603,0.626,-0.006
8272423,-2465.0,-4577.0,-2375.0,0.497,-0.603,0.624,-0.009
8272439,-2903.0,-3127.0,-1525.0,0.499,-0.601,0.624,-0.016
8272455,-3567.0,-3405.0,-1261.0,0.499,-0.602,0.623,-0.024
8272471,-4065.0,-4621.0,-2101.0,0.498,-0.603,0.623,-0.033
8272487,-4343.0,-3899.0,-2201.0,0.496,-0.604,0.622,-0.044
8272503,-4235.0,-3507.0,-2399.0,0.492,-0.607,0.622,-0.054
8272529,-3749.0,-4823.0,-3025.0,0.487,-0.61,0.622,-0.063
8272546,-3659.0,-6985.0,-3833.0,0.483,-0.611,0.622,-0.075
8272562,-4143.0,-3489.0,-3287.0,0.478,-0.613,0.623,-0.088
8272579,-4389.0,-3671.0,-3227.0,0.47,-0.617,0.624,-0.098
8272596,-3829.0,-5649.0,-4279.0,0.461,-0.621,0.624,-0.106
8272613,-3361.0,-6623.0,-4749.0,0.454,-0.624,0.625,-0.116
8272629,-3275.0,-5551.0,-4695.0,0.446,-0.627,0.626,-0.127
8272646,-3599.0,-5159.0,-4601.0,0.439,-0.63,0.626,-0.139
8272663,-3325.0,-6037.0,-5139.0,0.432,-0.632,0.626,-0.149
8272679,-3237.0,-6337.0,-5011.0,0.426,-0.634,0.625,-0.16
8272705,-3115.0,-7015.0,-5409.0,0.42,-0.636,0.625,-0.17
8272721,-3167.0,-5831.0,-5001.0,0.415,-0.638,0.624,-0.18
8272738,-2945.0,-6675.0,-5045.0,0.41,-0.639,0.623,-0.189
8272755,-2301.0,-6409.0,-5317.0,0.407,-0.64,0.621,-0.198
8272772,-1977.0,-7287.0,-5331.0,0.404,-0.641,0.619,-0.208
8272788,-1905.0,-7213.0,-5671.0,0.401,-0.641,0.617,-0.218
8272805,-2317.0,-6967.0,-5007.0,0.398,-0.642,0.614,-0.228
8272821,-1931.0,-6429.0,-4879.0,0.396,-0.643,0.612,-0.236
8272847,-1433.0,-6925.0,-5019.0,0.394,-0.643,0.61,-0.243
8272863,-1137.0,-7443.0,-4875.0,0.391,-0.643,0.608,-0.251
8272879,-1075.0,-6825.0,-4763.0,0.389,-0.644,0.607,-0.258
8272896,-1203.0,-6559.0,-4387.0,0.387,-0.644,0.605,-0.265
8272913,-815.0,-6877.0,-4673.0,0.384,-0.645,0.603,-0.271
8272929,-667.0,-6741.0,-4625.0,0.382,-0.645,0.6,-0.278
8272946,-537.0,-7451.0,-4937.0,0.38,-0.645,0.598,-0.285
8272963,-865.0,-7259.0,-4859.0,0.377,-0.646,0.596,-0.292
8272989,-1081.0,-7071.0,-4689.0,0.374,-0.647,0.594,-0.298
8273005,-751.0,-7523.0,-5129.0,0.37,-0.647,0.593,-0.303
8273022,-737.0,-8493.0,-5333.0,0.367,-0.648,0.593,-0.307
8273039,-767.0,-9577.0,-6045.0,0.362,-0.649,0.592,-0.311
8273055,-1027.0,-9737.0,-6791.0,0.357,-0.65,0.592,-0.316
8273071,-1995.0,-11607.0,-7183.0,0.352,-0.651,0.592,-0.319
8273087,-1595.0,-9135.0,-7495.0,0.351,-0.65,0.593,-0.321
8273113,-1979.0,-10993.0,-7793.0,0.346,-0.651,0.597,-0.316
8273130,-1341.0,-12247.0,-7595.0,0.344,-0.651,0.602,-0.309
8273147,-939.0,-10337.0,-6985.0,0.344,-0.651,0.607,-0.301
8273163,-91.0,-10435.0,-7023.0,0.346,-0.649,0.612,-0.291
8273180,485.0,-10195.0,-6709.0,0.349,-0.647,0.617,-0.283
8273196,37.0,-8381.0,-5783.0,0.355,-0.643,0.62,-0.276
8273212,-1169.0,-6013.0,-4675.0,0.363,-0.639,0.623,-0.266
8273229,-969.0,-6519.0,-4693.0,0.373,-0.635,0.626,-0.255
8273246,-813.0,-7153.0,-4681.0,0.384,-0.631,0.629,-0.243
8273272,-997.0,-6561.0,-4495.0,0.395,-0.626,0.631,-0.233
8273289,-1303.0,-5371.0,-4357.0,0.407,-0.62,0.633,-0.222
8273305,-1735.0,-6017.0,-4261.0,0.417,-0.615,0.635,-0.212
8273322,-2223.0,-5671.0,-4275.0,0.426,-0.61,0.637,-0.202
8273338,-2755.0,-5073.0,-4049.0,0.435,-0.605,0.638,-0.193
8273354,-3195.0,-6019.0,-3967.0,0.443,-0.601,0.639,-0.183
8273370,-3285.0,-5403.0,-4219.0,0.451,-0.597,0.641,-0.172
8273387,-3477.0,-5059.0,-3883.0,0.457,-0.593,0.643,-0.162
8273413,-3631.0,-5849.0,-3923.0,0.462,-0.59,0.644,-0.151
8273429,-3611.0,-5423.0,-4253.0,0.467,-0.588,0.646,-0.14
8273446,-3837.0,-5437.0,-4113.0,0.471,-0.586,0.647,-0.129
8273463,-4331.0,-5747.0,-3967.0,0.474,-0.585,0.648,-0.117
8273479,-4047.0,-4353.0,-3789.0,0.477,-0.584,0.648,-0.104
8273495,-4161.0,-5725.0,-4355.0,0.48,-0.584,0.648,-0.09
8273512,-4247.0,-4627.0,-4109.0,0.483,-0.585,0.648,-0.076
8273538,-3879.0,-4863.0,-4503.0,0.485,-0.586,0.647,-0.061
8273555,-4059.0,-5205.0,-3807.0,0.488,-0.586,0.645,-0.047
8273571,-3635.0,-4889.0,-3853.0,0.492,-0.587,0.642,-0.034
8273587,-3627.0,-3647.0,-2957.0,0.498,-0.587,0.638,-0.023
8273603,-3613.0,-4587.0,-2997.0,0.502,-0.588,0.634,-0.013
8273619,-2781.0,-2343.0,-2077.0,0.507,-0.589,0.63,-0.004
8273635,-2109.0,-2973.0,-1333.0,0.51,-0.59,0.625,0.004
8273661,-1685.0,-3507.0,-1259.0,0.513,-0.592,0.621,0.009
8273677,-2031.0,-4175.0,-1349.0,0.515,-0.593,0.618,0.01
8273694,-2613.0,-3327.0,-627.0,0.517,-0.595,0.616,0.007
8273710,-3555.0,-3991.0,-781.0,0.518,-0.596,0.614,0.001
8273726,-3869.0,-2965.0,-875.0,0.518,-0.598,0.612,-0.006
8273742,-4815.0,-4579.0,-1871.0,0.516,-0.6,0.611,-0.014
8273759,-4807.0,-3621.0,-1915.0,0.514,-0.602,0.61,-0.023
8273776,-5057.0,-5173.0,-2423.0,0.511,-0.605,0.61,-0.033
8273803,-4643.0,-4095.0,-2421.0,0.506,-0.608,0.61,-0.043
8273819,-4721.0,-5347.0,-2629.0,0.501,-0.611,0.61,-0.053
8273835,-4145.0,-6125.0,-3575.0,0.494,-0.615,0.611,-0.063
8273851,-4167.0,-4991.0,-3217.0,0.487,-0.618,0.613,-0.075
8273867,-4169.0,-6053.0,-3959.0,0.479,-0.621,0.614,-0.087
8273893,-3641.0,-4719.0,-4143.0,0.472,-0.624,0.615,-0.099
8273909,-3781.0,-7075.0,-4821.0,0.465,-0.627,0.615,-0.111
8273925,-3525.0,-5413.0,-4511.0,0.458,-0.629,0.616,-0.123
8273942,-3271.0,-5611.0,-4295.0,0.451,-0.631,0.616,-0.134
8273958,-2793.0,-6085.0,-4513.0,0.445,-0.634,0.616,-0.144
8273974,-2173.0,-6411.0,-5287.0,0.438,-0.636,0.616,-0.154
8273990,-2461.0,-6613.0,-4785.0,0.434,-0.637,0.615,-0.166
8274007,-2683.0,-6013.0,-4461.0,0.429,-0.638,0.614,-0.176
8274033,-2497.0,-5423.0,-4095.0,0.426,-0.639,0.614,-0.186
8274049,-2043.0,-6171.0,-4481.0,0.422,-0.639,0.613,-0.195
8274066,-2025.0,-8047.0,-5247.0,0.419,-0.638,0.612,-0.205
8274083,-2535.0,-6055.0,-4675.0,0.418,-0.637,0.61,-0.217
8274100,-2693.0,-5579.0,-4337.0,0.416,-0.636,0.609,-0.227
8274117,-2257.0,-7043.0,-4757.0,0.414,-0.635,0.608,-0.236
8274134,-1901.0,-6693.0,-4623.0,0.411,-0.635,0.607,-0.244
8274150,-1847.0,-7013.0,-4579.0,0.408,-0.635,0.606,-0.254
8274167,-1593.0,-6813.0,-4755.0,0.404,-0.635,0.604,-0.262
8274194,-1539.0,-6981.0,-4519.0,0.4,-0.635,0.603,-0.27
8274210,-1095.0,-7035.0,-4675.0,0.396,-0.636,0.602,-0.278
8274226,-769.0,-6935.0,-4677.0,0.391,-0.636,0.601,-0.285
8274242,-447.0,-6211.0,-4503.0,0.387,-0.637,0.6,-0.292
8274258,-55.0,-7181.0,-4579.0,0.382,-0.638,0.599,-0.298
8274274,-211.0,-7717.0,-4753.0,0.377,-0.639,0.598,-0.305
8274291,-523.0,-7807.0,-4605.0,0.371,-0.64,0.596,-0.312
8274307,-507.0,-7263.0,-4583.0,0.366,-0.642,0.594,-0.319
8274334,-267.0,-7977.0,-5037.0,0.361,-0.644,0.592,-0.324
8274350,-273.0,-8187.0,-5489.0,0.355,-0.646,0.59,-0.329
8274367,-163.0,-8937.0,-5897.0,0.348,-0.648,0.59,-0.332
8274383,-493.0,-9853.0,-6093.0,0.343,-0.651,0.589,-0.334
8274399,-363.0,-10253.0,-6579.0,0.337,-0.653,0.589,-0.336
8274416,-503.0,-11293.0,-7017.0,0.333,-0.654,0.589,-0.338
8274433,-969.0,-10489.0,-6769.0,0.329,-0.655,0.59,-0.339
8274449,-795.0,-10919.0,-6859.0,0.328,-0.655,0.592,-0.336
8274476,-187.0,-11227.0,-7245.0,0.328,-0.655,0.594,-0.333
8274493,-497.0,-10803.0,-6997.0,0.331,-0.653,0.597,-0.329
8274509,-465.0,-10221.0,-6597.0,0.336,-0.65,0.6,-0.324
8274525,-89.0,-10027.0,-6277.0,0.343,-0.646,0.603,-0.318
8274541,39.0,-10043.0,-5889.0,0.351,-0.642,0.606,-0.312
8274557,-269.0,-9199.0,-5603.0,0.361,-0.636,0.609,-0.307
8274574,-821.0,-7793.0,-4879.0,0.373,-0.629,0.612,-0.301
8274591,-689.0,-7519.0,-4787.0,0.384,-0.623,0.616,-0.292
8274617,-759.0,-7125.0,-4783.0,0.396,-0.615,0.62,-0.282
8274634,-1049.0,-6599.0,-4255.0,0.408,-0.608,0.624,-0.273
8274650,-1223.0,-6119.0,-4031.0,0.419,-0.601,0.628,-0.262
8274667,-1397.0,-6179.0,-3765.0,0.43,-0.594,0.631,-0.252
8274684,-1637.0,-6663.0,-3887.0,0.441,-0.588,0.633,-0.242
8274700,-2115.0,-5861.0,-3527.0,0.453,-0.581,0.635,-0.232
8274717,-2185.0,-5911.0,-3633.0,0.464,-0.575,0.636,-0.223
8274734,-2229.0,-5373.0,-3753.0,0.475,-0.568,0.637,-0.215
8274750,-2481.0,-7251.0,-4059.0,0.487,-0.56,0.637,-0.208
8274776,-2953.0,-4813.0,-3853.0,0.5,-0.552,0.636,-0.201
8274793,-3331.0,-3519.0,-3201.0,0.51,-0.545,0.637,-0.191
8274810,-3573.0,-5369.0,-2963.0,0.519,-0.54,0.638,-0.179
8274826,-3939.0,-6629.0,-3111.0,0.526,-0.537,0.638,-0.166
8274842,-4419.0,-5807.0,-2765.0,0.532,-0.534,0.638,-0.154
8274858,-4499.0,-4097.0,-2241.0,0.537,-0.534,0.638,-0.14
8274875,-3961.0,-4549.0,-2769.0,0.54,-0.535,0.637,-0.124
8274901,-4093.0,-6523.0,-3359.0,0.543,-0.537,0.636,-0.109
8274918,-4275.0,-4585.0,-2703.0,0.546,-0.538,0.635,-0.095
8274934,-4271.0,-4253.0,-1929.0,0.546,-0.541,0.635,-0.08
8274951,-3999.0,-4217.0,-1791.0,0.545,-0.545,0.634,-0.063
8274967,-3255.0,-4379.0,-2443.0,0.542,-0.549,0.634,-0.046
8274983,-2445.0,-6065.0,-2917.0,0.54,-0.552,0.635,-0.032
8274999,-3001.0,-2989.0,-2125.0,0.535,-0.555,0.636,-0.019
8275016,-3161.0,-4377.0,-2007.0,0.532,-0.558,0.637,-0.007
8275033,-2677.0,-3653.0,-2153.0,0.528,-0.561,0.637,0.001
8275060,-2669.0,-2521.0,-1175.0,0.525,-0.565,0.637,0.006
8275076,-2795.0,-4705.0,-1859.0,0.521,-0.569,0.636,0.007
8275093,-3393.0,-2467.0,-703.0,0.517,-0.574,0.635,0.006
8275110,-4113.0,-3443.0,-1399.0,0.512,-0.581,0.633,0.004
8275126,-4709.0,-5567.0,-2411.0,0.509,-0.587,0.63,-0.002
8275142,-5155.0,-2417.0,-2703.0,0.506,-0.591,0.628,-0.008
8275158,-5613.0,-3869.0,-3109.0,0.503,-0.596,0.626,-0.015
8275175,-5421.0,-4055.0,-3067.0,0.499,-0.601,0.624,-0.021
8275192,-4821.0,-5445.0,-3451.0,0.496,-0.605,0.622,-0.029
8275219,-4537.0,-4543.0,-2835.0,0.492,-0.61,0.621,-0.037
8275235,-4301.0,-5669.0,-3183.0,0.487,-0.614,0.619,-0.046
8275251,-3899.0,-6323.0,-4063.0,0.482,-0.618,0.619,-0.056
8275267,-4673.0,-6147.0,-3739.0,0.478,-0.621,0.618,-0.068
8275283,-4553.0,-4685.0,-3281.0,0.473,-0.624,0.617,-0.079
8275300,-3829.0,-5215.0,-3735.0,0.468,-0.627,0.616,-0.088
8275316,-3089.0,-6313.0,-4417.0,0.463,-0.63,0.616,-0.098
8275343,-3101.0,-6257.0,-4565.0,0.459,-0.631,0.615,-0.11
8275360,-3361.0,-5745.0,-4157.0,0.455,-0.633,0.615,-0.121
8275377,-3303.0,-6395.0,-3999.0,0.451,-0.633,0.614,-0.133
8275394,-2995.0,-5565.0,-3837.0,0.448,-0.634,0.614,-0.143
8275411,-2563.0,-5745.0,-4257.0,0.444,-0.634,0.615,-0.152
8275427,-2395.0,-6437.0,-4371.0,0.441,-0.633,0.616,-0.162
8275443,-2987.0,-6163.0,-4505.0,0.437,-0.632,0.617,-0.172
8275459,-2961.0,-5117.0,-3753.0,0.433,-0.632,0.617,-0.181
8275485,-2519.0,-5931.0,-4069.0,0.428,-0.632,0.618,-0.188
8275502,-2231.0,-6987.0,-4677.0,0.424,-0.632,0.618,-0.195
8275518,-2411.0,-6621.0,-5101.0,0.42,-0.632,0.619,-0.203
8275534,-2999.0,-6035.0,-4605.0,0.416,-0.632,0.618,-0.211
8275550,-2519.0,-5911.0,-4897.0,0.411,-0.633,0.618,-0.218
8275566,-2153.0,-7213.0,-5403.0,0.406,-0.634,0.619,-0.224
8275582,-2443.0,-7459.0,-4865.0,0.402,-0.635,0.619,-0.23
8275609,-2107.0,-6565.0,-4943.0,0.397,-0.636,0.619,-0.236
8275625,-2001.0,-6527.0,-4809.0,0.392,-0.637,0.619,-0.241
8275641,-1413.0,-6095.0,-5039.0,0.387,-0.637,0.62,-0.246
8275657,-1263.0,-7367.0,-5327.0,0.382,-0.638,0.62,-0.25
8275673,-1545.0,-7647.0,-4805.0,0.377,-0.639,0.62,-0.256
8275690,-1267.0,-6913.0,-5243.0,0.374,-0.639,0.619,-0.262
8275707,-1721.0,-7435.0,-5001.0,0.371,-0.64,0.617,-0.268
8275724,-1729.0,-6259.0,-5157.0,0.369,-0.641,0.614,-0.275
8275750,-1145.0,-7197.0,-5683.0,0.367,-0.642,0.612,-0.28
8275767,-467.0,-9519.0,-5957.0,0.366,-0.643,0.609,-0.286
8275783,-1133.0,-9947.0,-6097.0,0.364,-0.644,0.606,-0.293
8275799,-1319.0,-11121.0,-6485.0,0.362,-0.644,0.604,-0.299
8275816,-1887.0,-9597.0,-6277.0,0.359,-0.645,0.603,-0.304
8275832,-1365.0,-10721.0,-6867.0,0.355,-0.645,0.604,-0.305
8275849,-1305.0,-11709.0,-7129.0,0.351,-0.646,0.606,-0.304
8275866,-1737.0,-10735.0,-6855.0,0.348,-0.645,0.61,-0.3
8275883,-1263.0,-10445.0,-7265.0,0.346,-0.645,0.615,-0.294
8275900,-1043.0,-9877.0,-7327.0,0.345,-0.643,0.621,-0.286
8275927,-649.0,-10801.0,-7821.0,0.347,-0.64,0.627,-0.278
8275943,-1711.0,-9603.0,-7021.0,0.351,-0.636,0.632,-0.27
8275960,-1475.0,-8613.0,-6797.0,0.358,-0.631,0.637,-0.261
8275977,-1409.0,-8953.0,-6589.0,0.367,-0.625,0.641,-0.253
8275994,-1187.0,-8163.0,-6571.0,0.376,-0.62,0.643,-0.246
8276011,-2087.0,-5257.0,-5253.0,0.387,-0.613,0.647,-0.238
8276028,-1851.0,-6481.0,-5271.0,0.397,-0.607,0.651,-0.226
8276044,-1571.0,-6891.0,-4995.0,0.408,-0.6,0.654,-0.214
8276070,-1561.0,-5965.0,-4883.0,0.419,-0.594,0.656,-0.203
8276086,-1979.0,-5619.0,-4139.0,0.431,-0.587,0.658,-0.192
8276102,-2059.0,-4537.0,-3745.0,0.441,-0.581,0.659,-0.182
8276118,-2241.0,-4825.0,-3477.0,0.451,-0.577,0.66,-0.17
8276134,-2101.0,-5567.0,-3745.0,0.459,-0.573,0.661,-0.16
8276150,-2561.0,-5585.0,-3453.0,0.466,-0.569,0.661,-0.15
8276166,-2929.0,-4779.0,-3715.0,0.473,-0.564,0.661,-0.141
8276192,-3343.0,-4687.0,-3645.0,0.481,-0.56,0.662,-0.132
8276208,-3457.0,-4227.0,-4623.0,0.486,-0.557,0.662,-0.121
8276224,-4651.0,-4187.0,-3937.0,0.491,-0.555,0.662,-0.11
8276241,-4467.0,-4251.0,-4325.0,0.496,-0.553,0.663,-0.096
8276257,-4453.0,-5127.0,-4013.0,0.5,-0.552,0.663,-0.08
8276273,-4569.0,-5623.0,-4041.0,0.504,-0.551,0.662,-0.066
8276299,-4281.0,-2983.0,-3567.0,0.508,-0.55,0.66,-0.051
8276315,-3873.0,-4791.0,-3633.0,0.512,-0.551,0.658,-0.034
8276332,-3711.0,-4813.0,-3445.0,0.516,-0.552,0.655,-0.019
8276348,-3565.0,-4177.0,-3141.0,0.519,-0.552,0.652,-0.005
8276364,-3379.0,-3479.0,-2929.0,0.522,-0.553,0.649,0.008
8276380,-3069.0,-3349.0,-2181.0,0.526,-0.553,0.646,0.018
8276396,-3023.0,-3369.0,-2565.0,0.53,-0.554,0.642,0.027
8276422,-3039.0,-3639.0,-2585.0,0.533,-0.554,0.639,0.033
8276438,-3831.0,-4747.0,-3121.0,0.536,-0.554,0.636,0.036
8276454,-4007.0,-3103.0,-1867.0,0.538,-0.554,0.634,0.037
8276470,-4235.0,-3827.0,-2317.0,0.539,-0.555,0.633,0.039
8276486,-4683.0,-4805.0,-3613.0,0.541,-0.555,0.631,0.039
8276502,-5403.0,-4861.0,-3429.0,0.543,-0.554,0.63,0.038
8276528,-5803.0,-4249.0,-3037.0,0.544,-0.553,0.63,0.038
8276544,-6083.0,-4987.0,-3843.0,0.545,-0.553,0.629,0.039
8276560,-6377.0,-4119.0,-3647.0,0.548,-0.552,0.627,0.04
8276576,-6409.0,-4797.0,-4141.0,0.55,-0.552,0.625,0.042
8276592,-6601.0,-4497.0,-3999.0,0.553,-0.551,0.624,0.044
8276608,-6401.0,-4547.0,-3857.0,0.556,-0.55,0.621,0.047
8276635,-6175.0,-4365.0,-3723.0,0.56,-0.548,0.619,0.051
8276651,-5885.0,-4287.0,-3391.0,0.564,-0.547,0.616,0.055
8276667,-5321.0,-4225.0,-2893.0,0.568,-0.546,0.613,0.059
8276683,-5287.0,-3317.0,-2981.0,0.572,-0.545,0.61,0.063
8276699,-5009.0,-3875.0,-2943.0,0.575,-0.545,0.607,0.067
8276715,-5051.0,-3223.0,-2591.0,0.578,-0.545,0.603,0.071
8276741,-4985.0,-2847.0,-2407.0,0.582,-0.545,0.599,0.074
