timeMs,ax,ay,az,q0,q1,q2,q3
6690241,-3331.0,5627.0,4991.0,0.896,0.373,0.239,0.026
6690257,-3341.0,5635.0,4991.0,0.896,0.373,0.239,0.026
6690273,-3327.0,5649.0,5021.0,0.896,0.373,0.239,0.026
6690299,-3361.0,5613.0,5005.0,0.896,0.373,0.239,0.026
6690315,-3299.0,5643.0,5009.0,0.896,0.373,0.239,0.027
6690331,-3303.0,5647.0,4947.0,0.896,0.373,0.239,0.027
6690347,-3335.0,5675.0,4999.0,0.896,0.373,0.24,0.027
6690363,-3333.0,5661.0,4973.0,0.896,0.374,0.24,0.028
6690379,-3297.0,5679.0,4995.0,0.896,0.374,0.24,0.028
6690405,-3377.0,5673.0,5003.0,0.895,0.374,0.24,0.028
6690421,-3359.0,5693.0,5001.0,0.895,0.374,0.241,0.029
6690437,-3399.0,5663.0,4961.0,0.895,0.374,0.241,0.029
6690453,-3389.0,5669.0,5053.0,0.895,0.374,0.241,0.03
6690469,-3441.0,5631.0,5035.0,0.895,0.374,0.241,0.03
6690492,-3431.0,5673.0,4975.0,0.895,0.374,0.242,0.03
6690508,-3403.0,5637.0,4997.0,0.895,0.374,0.242,0.031
6690524,-3409.0,5637.0,5013.0,0.895,0.374,0.242,0.031
6690540,-3417.0,5585.0,4979.0,0.895,0.374,0.242,0.031
6690556,-3375.0,5677.0,4973.0,0.895,0.374,0.242,0.032
6690582,-3379.0,5705.0,4917.0,0.894,0.374,0.242,0.032
6690598,-3387.0,5651.0,4973.0,0.894,0.374,0.243,0.033
6690614,-3329.0,5669.0,4979.0,0.894,0.374,0.243,0.033
6690630,-3399.0,5693.0,4975.0,0.894,0.374,0.243,0.034
6690646,-3333.0,5683.0,4927.0,0.894,0.374,0.243,0.034
6690662,-3375.0,5749.0,4915.0,0.894,0.375,0.244,0.034
6690688,-3347.0,5637.0,4867.0,0.894,0.375,0.244,0.034
6690704,-3387.0,5775.0,4927.0,0.894,0.375,0.244,0.035
6690720,-3343.0,5869.0,4947.0,0.894,0.374,0.244,0.035
6690736,-3373.0,5823.0,4925.0,0.894,0.374,0.245,0.036
6690752,-3497.0,5701.0,4955.0,0.894,0.372,0.245,0.036
6690768,-3401.0,5661.0,4987.0,0.895,0.372,0.245,0.036
6690794,-3411.0,5791.0,5027.0,0.895,0.371,0.246,0.037
6690810,-3437.0,5769.0,4975.0,0.895,0.369,0.246,0.037
6690826,-3367.0,5683.0,4935.0,0.896,0.368,0.246,0.038
6690842,-3421.0,5457.0,4981.0,0.896,0.367,0.246,0.038
6690858,-3441.0,5441.0,4949.0,0.897,0.366,0.247,0.039
6690874,-3419.0,5587.0,5021.0,0.897,0.365,0.247,0.039
6690900,-3469.0,5587.0,5031.0,0.897,0.365,0.247,0.039
6690916,-3473.0,5573.0,5031.0,0.897,0.364,0.247,0.04
6690932,-3457.0,5681.0,5033.0,0.897,0.364,0.247,0.04
6690948,-3417.0,5579.0,5009.0,0.897,0.364,0.247,0.04
6690964,-3373.0,5513.0,5047.0,0.897,0.363,0.247,0.04
6690990,-3397.0,5529.0,5039.0,0.898,0.363,0.247,0.041
6691006,-3355.0,5473.0,5061.0,0.898,0.363,0.247,0.041
6691022,-3357.0,5565.0,5049.0,0.898,0.363,0.247,0.041
6691038,-3447.0,5521.0,5087.0,0.898,0.363,0.248,0.041
6691054,-3411.0,5577.0,5131.0,0.898,0.362,0.248,0.041
6691070,-3449.0,5499.0,5109.0,0.898,0.362,0.248,0.041
6691096,-3503.0,5471.0,5055.0,0.897,0.362,0.248,0.041
6691112,-3431.0,5605.0,5047.0,0.897,0.362,0.249,0.041
6691128,-3491.0,5559.0,5111.0,0.897,0.362,0.249,0.041
6691144,-3505.0,5575.0,5087.0,0.897,0.363,0.249,0.041
6691160,-3479.0,5525.0,5039.0,0.897,0.363,0.249,0.041
6691176,-3427.0,5579.0,5021.0,0.897,0.363,0.249,0.041
6691202,-3489.0,5643.0,5051.0,0.897,0.364,0.249,0.041
6691218,-3443.0,5569.0,5055.0,0.896,0.364,0.249,0.041
6691234,-3389.0,5629.0,5009.0,0.896,0.364,0.25,0.041
6691250,-3403.0,5597.0,4975.0,0.896,0.364,0.25,0.042
6691266,-3437.0,5603.0,5087.0,0.896,0.364,0.25,0.042
6691282,-3469.0,5611.0,5049.0,0.896,0.364,0.25,0.042
6691308,-3413.0,5655.0,5027.0,0.897,0.363,0.25,0.042
6691324,-3407.0,5587.0,5027.0,0.897,0.363,0.25,0.042
6691340,-3445.0,5675.0,5079.0,0.897,0.362,0.25,0.042
6691356,-3469.0,5513.0,5095.0,0.897,0.362,0.25,0.043
6691372,-3415.0,5525.0,5013.0,0.897,0.361,0.25,0.043
6691388,-3473.0,5565.0,5089.0,0.897,0.361,0.25,0.043
6691414,-3465.0,5585.0,5103.0,0.897,0.361,0.25,0.043
6691430,-3431.0,5503.0,5103.0,0.897,0.361,0.25,0.043
6691446,-3425.0,5469.0,5061.0,0.897,0.36,0.251,0.044
6691462,-3477.0,5365.0,5113.0,0.897,0.361,0.251,0.044
6691478,-3469.0,5467.0,5109.0,0.897,0.361,0.251,0.044
6691494,-3469.0,5429.0,5103.0,0.897,0.361,0.251,0.044
6691520,-3525.0,5457.0,5053.0,0.897,0.36,0.251,0.045
6691536,-3493.0,5547.0,5043.0,0.897,0.36,0.251,0.045
6691552,-3485.0,5543.0,5053.0,0.897,0.36,0.252,0.045
6691568,-3525.0,5443.0,5065.0,0.897,0.361,0.252,0.046
6691584,-3501.0,5583.0,5023.0,0.897,0.361,0.252,0.046
6691600,-3421.0,5571.0,5053.0,0.897,0.361,0.252,0.046
6691626,-3449.0,5593.0,5065.0,0.897,0.361,0.252,0.047
6691642,-3463.0,5549.0,5033.0,0.897,0.361,0.252,0.047
6691658,-3451.0,5577.0,5067.0,0.897,0.36,0.252,0.047
6691674,-3411.0,5625.0,5053.0,0.897,0.36,0.252,0.048
6691690,-3427.0,5585.0,5053.0,0.897,0.36,0.252,0.048
6691706,-3477.0,5583.0,5079.0,0.897,0.36,0.252,0.048
6691732,-3431.0,5607.0,5059.0,0.897,0.36,0.252,0.048
6691748,-3447.0,5609.0,5053.0,0.897,0.36,0.253,0.049
6691764,-3493.0,5575.0,5061.0,0.897,0.36,0.253,0.049
6691780,-3467.0,5513.0,5069.0,0.897,0.36,0.253,0.049
6691796,-3467.0,5481.0,5073.0,0.897,0.36,0.253,0.049
6691822,-3463.0,5551.0,5025.0,0.897,0.36,0.253,0.049
6691838,-3483.0,5577.0,5051.0,0.897,0.36,0.253,0.049
6691854,-3501.0,5563.0,5073.0,0.897,0.36,0.253,0.049
6691870,-3537.0,5523.0,5037.0,0.897,0.36,0.253,0.049
6691886,-3471.0,5551.0,5085.0,0.897,0.36,0.253,0.049
6691902,-3515.0,5539.0,5031.0,0.897,0.36,0.253,0.05
6691928,-3447.0,5561.0,5107.0,0.897,0.36,0.253,0.05
6691944,-3489.0,5481.0,5033.0,0.897,0.36,0.253,0.05
6691960,-3433.0,5559.0,5089.0,0.897,0.36,0.253,0.05
6691977,-3467.0,5565.0,5017.0,0.896,0.36,0.253,0.05
6691993,-3453.0,5561.0,5103.0,0.897,0.36,0.253,0.05
6692009,-3457.0,5571.0,5103.0,0.897,0.36,0.253,0.05
6692025,-3497.0,5533.0,5089.0,0.897,0.36,0.254,0.05
6692051,-3479.0,5525.0,5107.0,0.897,0.359,0.254,0.051
6692067,-3501.0,5539.0,5059.0,0.897,0.359,0.254,0.051
6692083,-3457.0,5537.0,4979.0,0.897,0.359,0.254,0.051
6692099,-3461.0,5507.0,5035.0,0.897,0.359,0.254,0.051
6692115,-3481.0,5565.0,5083.0,0.897,0.359,0.254,0.051
6692131,-3417.0,5485.0,5107.0,0.897,0.359,0.254,0.051
6692157,-3467.0,5481.0,5065.0,0.897,0.359,0.254,0.051
6692173,-3439.0,5487.0,5049.0,0.897,0.359,0.253,0.051
6692189,-3467.0,5541.0,5065.0,0.897,0.359,0.253,0.051
6692205,-3393.0,5509.0,5111.0,0.897,0.359,0.253,0.052
6692221,-3357.0,5553.0,5079.0,0.897,0.359,0.253,0.052
6692237,-3381.0,5521.0,5077.0,0.897,0.359,0.253,0.052
6692263,-3429.0,5545.0,5093.0,0.897,0.359,0.253,0.052
6692279,-3427.0,5571.0,5081.0,0.897,0.359,0.253,0.052
6692295,-3441.0,5555.0,5085.0,0.897,0.359,0.253,0.053
6692311,-3445.0,5521.0,5055.0,0.897,0.359,0.254,0.053
6692327,-3493.0,5471.0,5057.0,0.897,0.359,0.254,0.053
6692353,-3471.0,5645.0,5051.0,0.897,0.359,0.254,0.053
6692369,-3503.0,5527.0,5073.0,0.897,0.359,0.254,0.053
6692385,-3441.0,5529.0,5053.0,0.897,0.359,0.254,0.053
6692401,-3463.0,5487.0,5039.0,0.897,0.359,0.254,0.053
6692417,-3465.0,5497.0,5075.0,0.897,0.359,0.254,0.053
6692433,-3407.0,5581.0,5047.0,0.897,0.359,0.254,0.054
6692459,-3429.0,5473.0,5083.0,0.897,0.359,0.254,0.054
6692475,-3435.0,5551.0,5075.0,0.896,0.359,0.254,0.054
6692491,-3427.0,5539.0,5047.0,0.896,0.359,0.254,0.054
6692507,-3453.0,5557.0,4991.0,0.896,0.36,0.254,0.054
6692523,-3439.0,5581.0,5031.0,0.896,0.36,0.254,0.054
6692539,-3481.0,5557.0,5079.0,0.896,0.361,0.254,0.054
6692565,-3463.0,5611.0,5015.0,0.896,0.361,0.254,0.054
6692581,-3469.0,5561.0,5063.0,0.896,0.36,0.255,0.054
6692597,-3441.0,5567.0,5043.0,0.896,0.36,0.255,0.054
6692613,-3449.0,5509.0,5087.0,0.896,0.36,0.255,0.054
6692629,-3379.0,5503.0,5099.0,0.896,0.36,0.255,0.054
6692645,-3397.0,5571.0,5017.0,0.896,0.36,0.255,0.054
6692671,-3467.0,5611.0,5029.0,0.896,0.36,0.255,0.055
6692687,-3463.0,5619.0,5043.0,0.895,0.361,0.255,0.055
6692703,-3441.0,5597.0,5045.0,0.895,0.361,0.255,0.055
6692719,-3413.0,5603.0,5021.0,0.895,0.361,0.255,0.055
6692735,-3519.0,5469.0,5025.0,0.895,0.36,0.256,0.055
6692751,-3423.0,5505.0,5045.0,0.895,0.36,0.256,0.055
6692777,-3469.0,5549.0,5091.0,0.895,0.361,0.256,0.055
6692793,-3483.0,5549.0,5037.0,0.895,0.361,0.256,0.055
6692809,-3433.0,5615.0,5031.0,0.895,0.361,0.256,0.056
6692825,-3423.0,5611.0,5019.0,0.895,0.361,0.256,0.056
6692841,-3405.0,5583.0,5061.0,0.895,0.361,0.256,0.056
6692857,-3421.0,5587.0,5003.0,0.895,0.361,0.256,0.056
6692883,-3417.0,5671.0,5019.0,0.895,0.361,0.256,0.057
6692899,-3439.0,5615.0,5021.0,0.895,0.361,0.256,0.057
6692915,-3441.0,5651.0,5077.0,0.895,0.361,0.256,0.057
6692931,-3447.0,5587.0,5073.0,0.895,0.361,0.256,0.057
6692947,-3483.0,5521.0,5019.0,0.895,0.361,0.257,0.057
6692963,-3481.0,5561.0,5051.0,0.895,0.361,0.257,0.057
6692989,-3463.0,5541.0,5049.0,0.895,0.361,0.257,0.057
6693005,-3429.0,5527.0,5011.0,0.895,0.361,0.257,0.057
6693021,-3499.0,5547.0,4983.0,0.895,0.361,0.257,0.057
6693037,-3437.0,5511.0,5031.0,0.895,0.361,0.257,0.057
6693053,-3485.0,5545.0,5051.0,0.895,0.361,0.257,0.057
6693070,-3461.0,5589.0,4971.0,0.895,0.361,0.257,0.057
6693096,-3433.0,5555.0,5019.0,0.895,0.361,0.257,0.057
6693112,-3429.0,5607.0,5059.0,0.895,0.361,0.257,0.057
6693128,-3473.0,5571.0,5005.0,0.895,0.361,0.257,0.058
6693144,-3435.0,5605.0,4995.0,0.895,0.361,0.257,0.058
6693160,-3515.0,5617.0,5017.0,0.894,0.361,0.257,0.058
6693176,-3493.0,5571.0,5025.0,0.894,0.361,0.257,0.058
6693202,-3435.0,5571.0,5045.0,0.894,0.361,0.257,0.058
6693218,-3447.0,5553.0,5007.0,0.894,0.361,0.257,0.058
6693234,-3443.0,5585.0,5013.0,0.894,0.361,0.257,0.058
6693250,-3479.0,5577.0,5095.0,0.894,0.361,0.257,0.058
6693266,-3397.0,5589.0,5057.0,0.894,0.361,0.257,0.058
6693282,-3439.0,5627.0,5015.0,0.894,0.361,0.257,0.058
6693308,-3473.0,5639.0,5021.0,0.894,0.361,0.257,0.058
6693324,-3451.0,5653.0,5031.0,0.894,0.361,0.257,0.059
6693340,-3449.0,5565.0,5001.0,0.894,0.361,0.257,0.059
6693356,-3427.0,5575.0,4983.0,0.894,0.361,0.257,0.059
6693372,-3413.0,5563.0,4997.0,0.894,0.361,0.257,0.059
6693388,-3465.0,5575.0,5035.0,0.894,0.361,0.258,0.059
6693414,-3447.0,5599.0,5043.0,0.894,0.361,0.258,0.059
6693430,-3399.0,5567.0,5019.0,0.894,0.361,0.258,0.059
6693446,-3469.0,5603.0,5045.0,0.894,0.361,0.258,0.059
6693462,-3417.0,5497.0,5029.0,0.894,0.361,0.258,0.059
6693478,-3465.0,5557.0,5011.0,0.894,0.361,0.258,0.059
6693494,-3419.0,5525.0,5031.0,0.894,0.361,0.258,0.059
6693520,-3471.0,5593.0,4999.0,0.894,0.361,0.258,0.059
6693536,-3475.0,5577.0,4989.0,0.894,0.362,0.258,0.06
6693552,-3449.0,5615.0,5019.0,0.894,0.362,0.258,0.06
6693568,-3459.0,5597.0,5023.0,0.894,0.362,0.258,0.06
6693584,-3433.0,5589.0,4993.0,0.894,0.362,0.258,0.06
6693600,-3505.0,5609.0,5015.0,0.894,0.362,0.258,0.06
6693626,-3487.0,5541.0,4981.0,0.894,0.362,0.258,0.06
6693642,-3423.0,5587.0,4969.0,0.894,0.362,0.258,0.06
6693658,-3433.0,5633.0,5007.0,0.894,0.362,0.258,0.06
6693674,-3473.0,5617.0,5025.0,0.894,0.362,0.258,0.06
6693690,-3469.0,5571.0,5019.0,0.894,0.363,0.258,0.06
6693706,-3423.0,5627.0,5009.0,0.894,0.363,0.258,0.06
6693732,-3405.0,5631.0,4985.0,0.894,0.363,0.257,0.06
6693748,-3415.0,5623.0,5037.0,0.894,0.363,0.257,0.06
6693764,-3453.0,5589.0,5001.0,0.893,0.363,0.257,0.06
6693780,-3425.0,5689.0,5035.0,0.893,0.363,0.257,0.06
6693796,-3439.0,5627.0,4967.0,0.893,0.363,0.257,0.06
6693822,-3411.0,5635.0,5045.0,0.893,0.364,0.257,0.06
6693838,-3447.0,5557.0,5019.0,0.893,0.364,0.257,0.06
6693854,-3399.0,5597.0,4997.0,0.893,0.364,0.257,0.06
6693870,-3455.0,5571.0,4933.0,0.893,0.364,0.257,0.06
6693886,-3393.0,5577.0,4987.0,0.893,0.364,0.257,0.06
6693902,-3399.0,5605.0,5007.0,0.893,0.364,0.257,0.061
6693928,-3441.0,5639.0,5007.0,0.893,0.364,0.257,0.061
6693944,-3443.0,5675.0,5029.0,0.893,0.364,0.256,0.061
6693960,-3445.0,5725.0,5027.0,0.893,0.364,0.256,0.061
6693976,-3425.0,5693.0,4995.0,0.893,0.364,0.256,0.061
6693992,-3381.0,5631.0,4949.0,0.893,0.364,0.256,0.061
6694008,-3427.0,5601.0,4979.0,0.893,0.365,0.256,0.061
6694034,-3389.0,5579.0,5033.0,0.893,0.364,0.256,0.061
6694050,-3359.0,5635.0,4995.0,0.893,0.365,0.256,0.061
6694066,-3409.0,5611.0,4993.0,0.893,0.365,0.256,0.061
6694082,-3395.0,5593.0,5029.0,0.893,0.365,0.256,0.061
6694098,-3391.0,5651.0,5017.0,0.893,0.365,0.256,0.061
6694114,-3367.0,5639.0,4993.0,0.893,0.365,0.256,0.061
6694140,-3399.0,5599.0,4975.0,0.893,0.365,0.255,0.061
6694156,-3397.0,5555.0,5007.0,0.893,0.365,0.255,0.061
6694172,-3377.0,5667.0,5027.0,0.893,0.365,0.255,0.061
6694188,-3435.0,5683.0,5027.0,0.893,0.365,0.255,0.062
6694204,-3423.0,5657.0,5003.0,0.893,0.365,0.255,0.062
6694220,-3385.0,5617.0,4985.0,0.893,0.365,0.255,0.062
6694246,-3411.0,5643.0,4981.0,0.893,0.365,0.255,0.062
6694262,-3421.0,5623.0,4953.0,0.893,0.365,0.255,0.062
6694278,-3357.0,5619.0,4981.0,0.893,0.365,0.255,0.062
6694294,-3347.0,5593.0,4977.0,0.893,0.365,0.255,0.062
6694310,-3365.0,5673.0,5031.0,0.893,0.366,0.255,0.062
6694326,-3393.0,5629.0,5011.0,0.893,0.366,0.255,0.062
6694352,-3383.0,5605.0,4995.0,0.893,0.366,0.255,0.062
6694369,-3373.0,5669.0,4985.0,0.893,0.366,0.255,0.062
6694385,-3397.0,5663.0,4979.0,0.893,0.366,0.254,0.062
6694401,-3409.0,5663.0,5003.0,0.893,0.366,0.254,0.062
6694417,-3367.0,5619.0,4999.0,0.893,0.366,0.255,0.062
6694433,-3411.0,5673.0,5027.0,0.893,0.366,0.255,0.062
6694459,-3359.0,5627.0,5003.0,0.893,0.366,0.255,0.062
6694475,-3331.0,5647.0,5017.0,0.893,0.366,0.255,0.062
6694491,-3329.0,5639.0,4979.0,0.893,0.366,0.255,0.062
6694507,-3343.0,5697.0,4947.0,0.893,0.366,0.255,0.062
6694523,-3353.0,5705.0,4995.0,0.893,0.366,0.255,0.063
6694539,-3341.0,5659.0,4987.0,0.893,0.366,0.255,0.063
6694565,-3337.0,5711.0,4987.0,0.893,0.366,0.255,0.063
6694581,-3397.0,5649.0,5037.0,0.893,0.366,0.255,0.063
6694597,-3445.0,5635.0,5021.0,0.893,0.366,0.255,0.063
6694613,-3401.0,5667.0,5029.0,0.893,0.366,0.255,0.063
6694629,-3435.0,5673.0,5023.0,0.893,0.365,0.255,0.063
6694645,-3469.0,5623.0,5031.0,0.893,0.365,0.255,0.063
6694671,-3471.0,5573.0,5025.0,0.893,0.365,0.255,0.063
6694687,-3475.0,5569.0,5001.0,0.893,0.365,0.255,0.063
6694703,-3425.0,5613.0,4959.0,0.893,0.365,0.255,0.063
6694719,-3451.0,5597.0,4997.0,0.893,0.365,0.254,0.063
6694735,-3433.0,5655.0,5029.0,0.894,0.365,0.254,0.063
6694751,-3461.0,5677.0,5051.0,0.894,0.365,0.253,0.063
6694777,-3437.0,5709.0,4981.0,0.894,0.364,0.253,0.063
6694793,-3387.0,5625.0,5007.0,0.894,0.364,0.252,0.064
6694809,-3309.0,5585.0,5005.0,0.895,0.363,0.252,0.064
6694825,-3279.0,5589.0,4979.0,0.895,0.363,0.252,0.065
6694841,-3191.0,5625.0,4959.0,0.895,0.362,0.251,0.065
6694857,-3175.0,5631.0,4991.0,0.895,0.362,0.251,0.066
6694884,-3155.0,5677.0,5057.0,0.895,0.362,0.251,0.066
6694900,-3107.0,5663.0,5087.0,0.895,0.362,0.251,0.066
6694916,-3129.0,5617.0,5069.0,0.895,0.362,0.251,0.067
6694932,-3165.0,5545.0,5073.0,0.895,0.362,0.251,0.067
6694948,-3169.0,5599.0,5119.0,0.895,0.362,0.252,0.067
6694964,-3267.0,5597.0,5101.0,0.895,0.361,0.252,0.067
6694990,-3373.0,5569.0,5065.0,0.895,0.361,0.252,0.068
6695006,-3407.0,5543.0,5111.0,0.895,0.361,0.253,0.068
6695022,-3397.0,5571.0,5077.0,0.895,0.361,0.253,0.068
6695039,-3379.0,5557.0,5057.0,0.895,0.361,0.254,0.068
6695055,-3377.0,5549.0,5083.0,0.895,0.361,0.254,0.068
6695071,-3395.0,5587.0,5065.0,0.895,0.362,0.254,0.068
6695087,-3323.0,5603.0,5093.0,0.894,0.362,0.254,0.068
6695113,-3371.0,5531.0,5151.0,0.894,0.362,0.255,0.068
6695129,-3353.0,5469.0,5115.0,0.894,0.362,0.255,0.068
6695145,-3405.0,5525.0,5037.0,0.894,0.362,0.255,0.068
6695161,-3361.0,5573.0,5033.0,0.894,0.362,0.255,0.068
6695177,-3443.0,5639.0,4999.0,0.894,0.362,0.256,0.068
6695193,-3345.0,5779.0,5033.0,0.894,0.362,0.256,0.068
6695219,-3413.0,5613.0,5071.0,0.893,0.363,0.256,0.068
6695236,-3335.0,5623.0,5075.0,0.893,0.363,0.257,0.068
6695252,-3335.0,5599.0,4993.0,0.893,0.363,0.257,0.068
6695268,-3379.0,5679.0,5033.0,0.893,0.363,0.257,0.068
6695284,-3319.0,5727.0,5061.0,0.893,0.363,0.257,0.068
6695300,-3375.0,5641.0,5093.0,0.893,0.363,0.257,0.069
6695326,-3319.0,5847.0,4941.0,0.893,0.363,0.257,0.069
6695342,-3261.0,5805.0,5075.0,0.893,0.363,0.258,0.069
6695358,-3307.0,5637.0,4889.0,0.893,0.363,0.258,0.07
6695374,-3381.0,5371.0,5183.0,0.893,0.363,0.258,0.071
6695390,-3345.0,5907.0,4895.0,0.893,0.363,0.258,0.071
6695406,-3419.0,5475.0,4965.0,0.893,0.363,0.258,0.071
6695432,-3427.0,5813.0,5029.0,0.893,0.363,0.258,0.072
6695448,-3359.0,5823.0,4953.0,0.893,0.362,0.258,0.072
6695464,-3345.0,5799.0,4899.0,0.893,0.362,0.258,0.072
6695480,-3357.0,5753.0,4887.0,0.893,0.362,0.258,0.073
6695496,-3353.0,5619.0,4941.0,0.893,0.361,0.258,0.073
6695512,-3373.0,5595.0,5023.0,0.893,0.36,0.259,0.073
6695538,-3339.0,5631.0,5091.0,0.893,0.36,0.259,0.073
6695554,-3305.0,5663.0,5009.0,0.893,0.36,0.259,0.073
6695570,-3305.0,5637.0,5101.0,0.893,0.36,0.259,0.072
6695587,-3337.0,5545.0,5169.0,0.893,0.359,0.26,0.072
6695603,-3335.0,5421.0,5127.0,0.893,0.359,0.26,0.072
6695619,-3423.0,5409.0,5115.0,0.893,0.359,0.26,0.072
6695645,-3425.0,5521.0,5069.0,0.893,0.36,0.26,0.072
6695661,-3525.0,5469.0,5081.0,0.893,0.36,0.26,0.072
6695677,-3423.0,5549.0,5053.0,0.893,0.36,0.261,0.072
6695693,-3455.0,5577.0,4993.0,0.893,0.36,0.261,0.072
6695709,-3443.0,5607.0,4981.0,0.893,0.361,0.261,0.073
6695725,-3421.0,5659.0,4975.0,0.892,0.361,0.261,0.073
6695751,-3415.0,5713.0,4971.0,0.892,0.361,0.261,0.073
6695767,-3405.0,5765.0,4973.0,0.892,0.361,0.261,0.073
6695783,-3347.0,5717.0,4991.0,0.892,0.361,0.261,0.073
6695799,-3411.0,5613.0,5027.0,0.892,0.361,0.261,0.073
6695815,-3297.0,5613.0,4999.0,0.892,0.361,0.261,0.073
6695831,-3325.0,5649.0,5005.0,0.892,0.361,0.261,0.073
6695857,-3383.0,5605.0,5045.0,0.892,0.361,0.261,0.073
6695873,-3351.0,5577.0,5027.0,0.892,0.361,0.261,0.073
6695889,-3417.0,5659.0,5045.0,0.892,0.361,0.262,0.073
6695905,-3441.0,5563.0,5011.0,0.892,0.361,0.262,0.073
6695921,-3405.0,5629.0,4991.0,0.892,0.361,0.262,0.073
6695937,-3443.0,5671.0,4991.0,0.892,0.361,0.262,0.073
6695963,-3465.0,5621.0,5005.0,0.892,0.362,0.262,0.073
6695979,-3415.0,5641.0,5015.0,0.892,0.362,0.262,0.074
6695995,-3465.0,5649.0,4987.0,0.892,0.362,0.262,0.074
6696011,-3441.0,5713.0,5025.0,0.892,0.362,0.262,0.074
6696027,-3445.0,5669.0,4979.0,0.892,0.362,0.262,0.074
6696043,-3429.0,5613.0,4907.0,0.892,0.362,0.262,0.074
6696069,-3393.0,5583.0,4931.0,0.892,0.362,0.262,0.074
6696085,-3399.0,5573.0,4979.0,0.892,0.362,0.262,0.074
6696102,-3383.0,5689.0,4999.0,0.892,0.362,0.262,0.074
6696118,-3381.0,5593.0,4947.0,0.892,0.362,0.262,0.074
6696134,-3417.0,5637.0,5007.0,0.892,0.362,0.262,0.074
6696150,-3417.0,5583.0,4987.0,0.892,0.362,0.262,0.074
6696176,-3475.0,5601.0,5011.0,0.891,0.362,0.262,0.074
6696192,-3435.0,5651.0,4947.0,0.891,0.362,0.262,0.074
6696208,-3429.0,5631.0,4945.0,0.891,0.362,0.262,0.074
6696224,-3401.0,5651.0,5033.0,0.891,0.362,0.262,0.074
6696240,-3437.0,5687.0,4969.0,0.891,0.362,0.262,0.074
6696256,-3467.0,5659.0,4975.0,0.891,0.362,0.262,0.074
6696282,-3431.0,5763.0,4997.0,0.891,0.362,0.262,0.074
6696298,-3483.0,5641.0,5007.0,0.891,0.362,0.262,0.074
6696314,-3391.0,5597.0,5001.0,0.891,0.362,0.262,0.074
6696330,-3385.0,5615.0,4947.0,0.891,0.362,0.262,0.074
6696346,-3351.0,5597.0,4967.0,0.891,0.362,0.262,0.074
6696362,-3381.0,5617.0,4981.0,0.891,0.362,0.263,0.074
6696388,-3385.0,5581.0,4997.0,0.891,0.362,0.263,0.074
6696405,-3461.0,5667.0,4987.0,0.891,0.362,0.263,0.074
6696421,-3471.0,5659.0,5015.0,0.891,0.363,0.263,0.074
6696438,-3395.0,5667.0,4975.0,0.891,0.363,0.263,0.074
6696454,-3357.0,5643.0,4939.0,0.891,0.363,0.263,0.074
6696470,-3409.0,5697.0,4951.0,0.891,0.363,0.263,0.074
6696486,-3435.0,5671.0,5015.0,0.891,0.363,0.263,0.074
6696512,-3415.0,5667.0,5003.0,0.891,0.362,0.263,0.074
6696528,-3399.0,5649.0,4973.0,0.891,0.362,0.263,0.075
6696544,-3381.0,5663.0,4965.0,0.891,0.362,0.263,0.075
6696560,-3353.0,5713.0,4965.0,0.891,0.362,0.263,0.075
6696576,-3297.0,5861.0,5071.0,0.891,0.362,0.263,0.075
6696592,-3373.0,5811.0,5065.0,0.892,0.361,0.263,0.075
6696618,-3465.0,5921.0,5321.0,0.892,0.361,0.262,0.076
6696634,-3339.0,6157.0,5563.0,0.893,0.359,0.261,0.076
6696650,-3023.0,6005.0,5793.0,0.895,0.356,0.259,0.077
6696666,-3251.0,6193.0,5991.0,0.897,0.35,0.258,0.079
6696682,-3203.0,6435.0,6205.0,0.901,0.341,0.256,0.082
6696698,-2951.0,5295.0,5775.0,0.905,0.33,0.253,0.086
6696724,-2087.0,5231.0,4225.0,0.911,0.317,0.249,0.089
6696740,-2545.0,4271.0,5569.0,0.917,0.301,0.245,0.093
6696756,-3121.0,4169.0,6049.0,0.922,0.286,0.24,0.097
6696772,-3399.0,3635.0,6145.0,0.928,0.271,0.235,0.101
6696788,-3243.0,2871.0,6891.0,0.933,0.258,0.228,0.105
6696804,-2603.0,2537.0,7071.0,0.937,0.247,0.221,0.11
6696830,-2683.0,2407.0,7147.0,0.94,0.24,0.215,0.114
6696846,-2899.0,2993.0,7109.0,0.942,0.236,0.209,0.118
6696862,-1657.0,2489.0,7179.0,0.942,0.233,0.206,0.125
6696878,-2125.0,1257.0,6801.0,0.941,0.232,0.204,0.136
6696894,-2237.0,2919.0,6795.0,0.941,0.231,0.2,0.147
6696910,-2345.0,1245.0,6755.0,0.94,0.229,0.196,0.162
6696936,-2661.0,741.0,6563.0,0.938,0.229,0.189,0.18
6696952,-2219.0,1477.0,6501.0,0.935,0.231,0.18,0.198
6696968,-1703.0,2515.0,6565.0,0.933,0.235,0.168,0.216
6696984,-1069.0,3015.0,6573.0,0.93,0.238,0.153,0.234
6697000,-295.0,3575.0,6427.0,0.928,0.24,0.138,0.25
6697016,101.0,4265.0,6291.0,0.926,0.238,0.12,0.267
6697042,241.0,4165.0,6055.0,0.924,0.233,0.1,0.286
6697058,273.0,3723.0,6029.0,0.922,0.224,0.078,0.306
6697074,373.0,3257.0,6259.0,0.919,0.213,0.054,0.327
6697090,777.0,2379.0,6181.0,0.915,0.201,0.028,0.349
6697106,1273.0,1407.0,6121.0,0.909,0.191,0.001,0.37
6697132,1689.0,797.0,6395.0,0.902,0.182,-0.024,0.391
6697148,2299.0,299.0,6453.0,0.893,0.177,-0.049,0.411
6697164,2827.0,553.0,6759.0,0.883,0.176,-0.072,0.429
6697180,3653.0,329.0,6567.0,0.872,0.176,-0.094,0.448
6697196,4187.0,311.0,6249.0,0.86,0.178,-0.113,0.465
6697212,4395.0,201.0,6205.0,0.847,0.182,-0.13,0.482
6697238,4941.0,1037.0,6525.0,0.834,0.187,-0.145,0.498
6697254,5617.0,1083.0,6203.0,0.821,0.192,-0.159,0.514
6697270,5491.0,677.0,5993.0,0.807,0.196,-0.171,0.53
6697286,5429.0,345.0,6121.0,0.793,0.199,-0.181,0.546
6697302,5805.0,725.0,6097.0,0.779,0.204,-0.191,0.561
6697318,6043.0,797.0,6251.0,0.764,0.209,-0.201,0.576
6697344,9599.0,-821.0,9463.0,0.748,0.219,-0.199,0.594
6697360,12567.0,3477.0,9331.0,0.748,0.23,-0.175,0.597
6697376,6109.0,7099.0,10543.0,0.747,0.24,-0.15,0.601
6697392,3497.0,10579.0,9463.0,0.742,0.246,-0.138,0.608
6697408,3669.0,7755.0,8247.0,0.732,0.242,-0.141,0.622
6697424,3881.0,3193.0,7939.0,0.72,0.236,-0.151,0.635
6697450,3577.0,1343.0,6201.0,0.706,0.234,-0.162,0.649
6697466,4471.0,-61.0,5961.0,0.692,0.237,-0.17,0.66
6697482,5259.0,-1039.0,5605.0,0.68,0.247,-0.171,0.669
6697498,5011.0,1047.0,5721.0,0.669,0.261,-0.167,0.676
6697514,4571.0,1635.0,5777.0,0.658,0.274,-0.162,0.683
6697540,4693.0,2097.0,5493.0,0.647,0.286,-0.16,0.689
6697556,4821.0,2237.0,5263.0,0.636,0.295,-0.161,0.695
6697572,5165.0,1777.0,5225.0,0.626,0.301,-0.165,0.7
6697588,5465.0,1735.0,4907.0,0.616,0.306,-0.17,0.706
6697604,5503.0,2633.0,4605.0,0.607,0.309,-0.177,0.71
6697620,5347.0,2661.0,4577.0,0.6,0.309,-0.189,0.713
6697637,5329.0,2357.0,4587.0,0.595,0.308,-0.204,0.714
6697664,5639.0,1357.0,4665.0,0.589,0.306,-0.221,0.714
6697680,5739.0,1603.0,4513.0,0.584,0.305,-0.241,0.713
6697696,5613.0,2453.0,3949.0,0.58,0.302,-0.264,0.709
6697712,6149.0,2395.0,3827.0,0.578,0.298,-0.293,0.702
6697728,6665.0,455.0,4283.0,0.576,0.293,-0.322,0.692
6697744,6949.0,-1025.0,4635.0,0.573,0.29,-0.349,0.682
6697760,7367.0,-1163.0,4401.0,0.57,0.291,-0.372,0.672
6697786,8137.0,397.0,3409.0,0.568,0.293,-0.39,0.663
6697802,8637.0,1761.0,3003.0,0.569,0.291,-0.407,0.653
6697818,8207.0,2031.0,3837.0,0.573,0.286,-0.426,0.64
6697834,7727.0,627.0,4065.0,0.58,0.278,-0.448,0.622
6697850,7995.0,-877.0,3607.0,0.588,0.27,-0.471,0.6
6697866,8023.0,-2215.0,3077.0,0.596,0.261,-0.493,0.577
6697892,8261.0,-2503.0,2951.0,0.603,0.254,-0.513,0.555
6697908,8441.0,-2441.0,2987.0,0.609,0.247,-0.532,0.534
6697924,8639.0,-2651.0,2731.0,0.615,0.239,-0.549,0.513
6697940,8563.0,-2971.0,2343.0,0.621,0.232,-0.564,0.493
6697956,8311.0,-3783.0,1899.0,0.627,0.225,-0.576,0.473
6697972,7879.0,-4207.0,1909.0,0.633,0.219,-0.586,0.455
6697998,7571.0,-4487.0,2105.0,0.638,0.216,-0.594,0.439
6698014,7523.0,-3939.0,1983.0,0.64,0.215,-0.602,0.426
6698030,7605.0,-3117.0,1847.0,0.641,0.214,-0.609,0.415
6698046,8001.0,-2667.0,1273.0,0.642,0.213,-0.616,0.404
6698062,8177.0,-2409.0,1073.0,0.642,0.21,-0.623,0.394
6698078,8183.0,-2243.0,1147.0,0.643,0.207,-0.63,0.384
6698104,8121.0,-2307.0,981.0,0.643,0.204,-0.636,0.374
6698120,8223.0,-2421.0,855.0,0.644,0.202,-0.643,0.363
6698136,8339.0,-2691.0,953.0,0.644,0.2,-0.649,0.354
6698152,8453.0,-2469.0,923.0,0.643,0.199,-0.654,0.345
6698168,8375.0,-2383.0,869.0,0.643,0.198,-0.659,0.337
6698185,8543.0,-2285.0,847.0,0.642,0.197,-0.663,0.33
6698202,8569.0,-2587.0,787.0,0.642,0.196,-0.667,0.323
6698228,8557.0,-2995.0,635.0,0.642,0.195,-0.67,0.316
6698244,8273.0,-3249.0,475.0,0.642,0.195,-0.672,0.312
6698260,8079.0,-3301.0,353.0,0.642,0.196,-0.674,0.309
6698276,8035.0,-3029.0,191.0,0.641,0.197,-0.675,0.307
6698292,7869.0,-2893.0,171.0,0.64,0.198,-0.677,0.306
6698318,7761.0,-2939.0,201.0,0.638,0.198,-0.679,0.306
6698334,7955.0,-2801.0,-37.0,0.635,0.198,-0.681,0.306
6698351,7859.0,-3139.0,-101.0,0.632,0.197,-0.684,0.306
6698368,7869.0,-3103.0,53.0,0.629,0.196,-0.687,0.308
6698384,8075.0,-2779.0,261.0,0.624,0.195,-0.69,0.309
6698400,8299.0,-2795.0,83.0,0.62,0.194,-0.694,0.311
6698416,8269.0,-3207.0,-9.0,0.615,0.192,-0.697,0.314
6698432,8249.0,-2849.0,201.0,0.611,0.191,-0.7,0.317
6698458,8317.0,-2453.0,385.0,0.606,0.19,-0.703,0.321
6698474,8479.0,-2209.0,533.0,0.602,0.188,-0.705,0.324
6698490,8607.0,-2269.0,261.0,0.599,0.186,-0.707,0.327
6698506,8287.0,-2781.0,137.0,0.596,0.184,-0.708,0.33
6698522,8011.0,-2783.0,157.0,0.594,0.183,-0.709,0.334
6698548,7929.0,-2559.0,221.0,0.591,0.181,-0.71,0.338
6698564,7873.0,-2119.0,195.0,0.588,0.179,-0.711,0.342
6698580,8029.0,-2085.0,35.0,0.585,0.177,-0.712,0.346
6698596,7861.0,-2435.0,-159.0,0.583,0.174,-0.713,0.349
6698612,7841.0,-2591.0,-121.0,0.581,0.172,-0.713,0.353
6698628,7803.0,-2479.0,-73.0,0.578,0.17,-0.714,0.357
6698654,7779.0,-2289.0,-125.0,0.575,0.169,-0.714,0.361
6698670,7855.0,-1985.0,-75.0,0.573,0.168,-0.714,0.365
6698687,8009.0,-2025.0,-331.0,0.571,0.166,-0.714,0.369
6698704,7811.0,-2231.0,-281.0,0.57,0.166,-0.714,0.373
6698721,7725.0,-2367.0,-319.0,0.568,0.165,-0.713,0.377
6698737,7623.0,-2311.0,-451.0,0.567,0.165,-0.712,0.381
6698754,7575.0,-2293.0,-455.0,0.566,0.165,-0.71,0.385
6698771,7569.0,-1885.0,-335.0,0.565,0.165,-0.709,0.389
6698787,7683.0,-1907.0,-265.0,0.564,0.166,-0.708,0.392
6698804,7723.0,-2155.0,-85.0,0.563,0.166,-0.707,0.394
6698830,7929.0,-2889.0,-157.0,0.562,0.169,-0.705,0.398
6698846,7761.0,-3389.0,-255.0,0.562,0.173,-0.701,0.404
6698862,7635.0,-3523.0,-207.0,0.561,0.18,-0.695,0.412
6698878,7509.0,-3475.0,21.0,0.559,0.19,-0.688,0.422
6698894,7369.0,-3999.0,345.0,0.555,0.201,-0.679,0.436
6698910,7205.0,-5203.0,823.0,0.549,0.217,-0.668,0.453
6698936,7209.0,-5865.0,233.0,0.541,0.238,-0.652,0.475
6698952,7623.0,-4903.0,-563.0,0.53,0.264,-0.629,0.503
6698969,7377.0,-2975.0,29.0,0.517,0.293,-0.603,0.532
6698985,7593.0,-1467.0,809.0,0.504,0.32,-0.577,0.558
6699001,7845.0,-1393.0,761.0,0.491,0.345,-0.551,0.58
6699027,8475.0,-955.0,-659.0,0.479,0.366,-0.524,0.601
6699043,8033.0,519.0,485.0,0.471,0.383,-0.5,0.618
6699059,7499.0,1261.0,1777.0,0.465,0.395,-0.481,0.63
6699075,7721.0,377.0,2301.0,0.462,0.404,-0.469,0.636
6699091,7839.0,-2043.0,2519.0,0.461,0.41,-0.46,0.639
6699107,7881.0,-3745.0,2439.0,0.459,0.417,-0.45,0.643
6699133,7599.0,-4369.0,2743.0,0.453,0.427,-0.435,0.65
6699149,7479.0,-3957.0,3099.0,0.443,0.44,-0.416,0.661
6699165,7913.0,-2643.0,3067.0,0.431,0.455,-0.393,0.673
6699181,8105.0,-1255.0,3287.0,0.419,0.471,-0.367,0.684
6699197,8433.0,-297.0,3203.0,0.407,0.485,-0.341,0.695
6699213,8505.0,443.0,3389.0,0.396,0.497,-0.315,0.705
6699239,8485.0,391.0,3287.0,0.387,0.507,-0.29,0.713
6699255,8473.0,1033.0,3207.0,0.38,0.516,-0.266,0.72
6699271,8209.0,1607.0,3603.0,0.375,0.522,-0.244,0.726
6699287,8069.0,1713.0,3925.0,0.372,0.527,-0.225,0.73
6699303,8115.0,1435.0,3935.0,0.371,0.531,-0.209,0.733
6699319,8149.0,1179.0,3989.0,0.37,0.534,-0.194,0.735
6699335,7997.0,1077.0,4325.0,0.369,0.538,-0.179,0.737
6699361,8317.0,457.0,3867.0,0.366,0.543,-0.161,0.738
6699377,7983.0,1665.0,4101.0,0.363,0.548,-0.142,0.74
6699393,8401.0,2179.0,3937.0,0.361,0.554,-0.12,0.741
6699409,8629.0,2719.0,3823.0,0.36,0.559,-0.096,0.741
6699425,8719.0,3059.0,3449.0,0.358,0.562,-0.071,0.742
6699451,8101.0,3417.0,3489.0,0.356,0.565,-0.044,0.743
6699467,8213.0,3735.0,3229.0,0.353,0.569,-0.014,0.743
6699484,8411.0,5823.0,3283.0,0.35,0.57,0.014,0.743
6699500,8885.0,2627.0,2655.0,0.349,0.566,0.039,0.746
6699516,6647.0,2829.0,3183.0,0.347,0.562,0.063,0.748
6699532,6387.0,5745.0,2863.0,0.347,0.561,0.09,0.746
6699548,7191.0,8367.0,1525.0,0.35,0.561,0.114,0.741
6699574,7993.0,9295.0,1087.0,0.36,0.556,0.131,0.737
6699590,7275.0,8863.0,1457.0,0.376,0.546,0.141,0.736
6699606,6143.0,7625.0,1839.0,0.396,0.532,0.145,0.734
6699622,5355.0,6079.0,1741.0,0.418,0.518,0.146,0.732
6699638,5187.0,4735.0,1749.0,0.441,0.504,0.147,0.728
6699664,5119.0,4843.0,1659.0,0.462,0.492,0.149,0.723
6699680,4639.0,4895.0,1919.0,0.482,0.481,0.15,0.717
6699696,4605.0,5443.0,1983.0,0.501,0.471,0.15,0.711
6699712,4415.0,5899.0,1827.0,0.52,0.459,0.146,0.705
6699728,3977.0,5139.0,1709.0,0.541,0.444,0.138,0.701
6699744,3941.0,3907.0,1753.0,0.562,0.429,0.128,0.695
6699760,3683.0,3117.0,2027.0,0.582,0.415,0.118,0.689
6699786,3477.0,3447.0,2389.0,0.599,0.405,0.109,0.682
6699802,3371.0,3227.0,2519.0,0.615,0.397,0.1,0.673
6699818,3197.0,3231.0,2795.0,0.63,0.394,0.091,0.663
6699834,3399.0,4143.0,2713.0,0.644,0.393,0.083,0.651
6699850,3725.0,4669.0,2595.0,0.657,0.393,0.073,0.639
6699867,4075.0,5083.0,2331.0,0.671,0.393,0.062,0.626
6699893,4557.0,5541.0,2547.0,0.684,0.393,0.049,0.612
6699909,4619.0,5565.0,2787.0,0.698,0.391,0.035,0.599
6699925,4905.0,5453.0,2999.0,0.712,0.388,0.019,0.585
6699941,4959.0,4931.0,3517.0,0.727,0.382,0.002,0.571
6699957,5007.0,3833.0,4311.0,0.742,0.375,-0.017,0.556
6699973,5161.0,2863.0,5081.0,0.756,0.37,-0.034,0.539
6699999,5203.0,2449.0,5293.0,0.768,0.367,-0.051,0.522
6700015,5499.0,2751.0,5099.0,0.779,0.367,-0.066,0.505
6700031,5853.0,3135.0,5195.0,0.788,0.367,-0.078,0.488
6700047,5837.0,3319.0,5607.0,0.795,0.369,-0.09,0.473
6700063,6017.0,3657.0,5691.0,0.802,0.371,-0.099,0.458
6700079,6231.0,4143.0,5519.0,0.808,0.372,-0.108,0.443
6700105,6311.0,4293.0,5185.0,0.815,0.372,-0.115,0.429
6700121,6015.0,3939.0,5685.0,0.822,0.372,-0.121,0.415
6700137,5975.0,3551.0,6043.0,0.828,0.371,-0.126,0.4
6700153,5559.0,3045.0,6631.0,0.835,0.371,-0.132,0.385
6700169,5561.0,2945.0,6789.0,0.84,0.373,-0.137,0.369
6700185,5733.0,3525.0,6755.0,0.846,0.373,-0.142,0.353
6700211,6039.0,3729.0,7107.0,0.853,0.367,-0.147,0.34
6700227,5753.0,2905.0,7891.0,0.861,0.354,-0.152,0.332
6700243,5159.0,1071.0,8603.0,0.869,0.336,-0.156,0.328
6700259,4399.0,-1353.0,9003.0,0.876,0.318,-0.159,0.327
6700275,3767.0,-2187.0,9333.0,0.879,0.306,-0.16,0.328
6700291,3509.0,-2453.0,9789.0,0.88,0.301,-0.16,0.33
6700317,3927.0,-1785.0,9527.0,0.878,0.304,-0.158,0.333
6700333,4329.0,-213.0,8853.0,0.875,0.314,-0.153,0.335
6700349,4713.0,1549.0,8181.0,0.871,0.325,-0.146,0.338
6700365,4617.0,2689.0,7759.0,0.868,0.335,-0.137,0.341
6700381,4427.0,2911.0,7633.0,0.865,0.343,-0.127,0.345
6700397,3915.0,2801.0,7063.0,0.862,0.348,-0.116,0.35
6700423,3385.0,2577.0,6399.0,0.86,0.351,-0.106,0.356
6700439,3183.0,2323.0,5791.0,0.857,0.352,-0.096,0.364
6700455,2821.0,2191.0,5333.0,0.854,0.351,-0.087,0.373
6700471,2745.0,2433.0,5215.0,0.851,0.349,-0.078,0.385
6700487,2897.0,2823.0,5137.0,0.847,0.344,-0.071,0.399
6700504,2657.0,2557.0,4905.0,0.843,0.335,-0.066,0.416
6700531,2373.0,2133.0,4819.0,0.838,0.325,-0.064,0.433
6700547,2375.0,2019.0,4877.0,0.833,0.313,-0.064,0.452
6700563,3277.0,3705.0,5595.0,0.826,0.302,-0.068,0.471
6700579,3971.0,4013.0,5855.0,0.818,0.289,-0.077,0.491
6700595,4115.0,2939.0,5743.0,0.809,0.276,-0.089,0.511
6700611,4713.0,1307.0,5421.0,0.798,0.266,-0.1,0.531
6700627,5091.0,907.0,5647.0,0.786,0.262,-0.108,0.55
6700653,6111.0,2671.0,6305.0,0.773,0.262,-0.112,0.567
6700669,6389.0,3061.0,6567.0,0.761,0.261,-0.113,0.583
6700685,5435.0,2231.0,6285.0,0.75,0.262,-0.112,0.597
6700701,4913.0,1549.0,5611.0,0.739,0.267,-0.108,0.609
6700717,4629.0,2067.0,5645.0,0.728,0.274,-0.102,0.62
6700733,4707.0,3191.0,5801.0,0.717,0.281,-0.096,0.631
6700760,4457.0,3353.0,6179.0,0.706,0.286,-0.092,0.641
6700776,4593.0,3611.0,6201.0,0.695,0.29,-0.091,0.651
6700792,4749.0,2797.0,5957.0,0.684,0.293,-0.092,0.662
6700808,4847.0,2227.0,5723.0,0.672,0.296,-0.093,0.672
6700824,4899.0,1367.0,5561.0,0.661,0.3,-0.091,0.682
6700840,4419.0,1277.0,5513.0,0.649,0.306,-0.086,0.691
6700866,4153.0,1551.0,5203.0,0.636,0.316,-0.079,0.7
6700883,4025.0,2211.0,5149.0,0.622,0.33,-0.072,0.707
6700899,4463.0,2985.0,4787.0,0.606,0.346,-0.066,0.713
6700915,4681.0,3617.0,4423.0,0.591,0.364,-0.061,0.718
6700931,6413.0,2833.0,5575.0,0.574,0.384,-0.054,0.721
6700947,6783.0,3067.0,5143.0,0.556,0.408,-0.04,0.723
6700973,6321.0,4599.0,4127.0,0.536,0.434,-0.023,0.723
6700989,6247.0,5577.0,3119.0,0.517,0.46,-0.004,0.722
6701005,6139.0,5895.0,2809.0,0.499,0.483,0.012,0.719
6701021,5885.0,5147.0,2555.0,0.481,0.505,0.027,0.716
6701037,6061.0,5649.0,2749.0,0.464,0.527,0.041,0.711
6701053,5785.0,6045.0,2769.0,0.447,0.547,0.054,0.706
6701079,5741.0,6323.0,2603.0,0.431,0.566,0.063,0.7
6701095,6117.0,6137.0,2861.0,0.417,0.584,0.068,0.693
6701111,6405.0,6175.0,2721.0,0.404,0.6,0.07,0.687
6701127,7057.0,6169.0,2341.0,0.393,0.613,0.071,0.682
6701143,7281.0,6343.0,2025.0,0.383,0.623,0.071,0.678
6701159,7401.0,6361.0,1769.0,0.376,0.629,0.071,0.677
6701185,6711.0,6489.0,1497.0,0.37,0.632,0.068,0.677
6701201,6173.0,6323.0,1129.0,0.368,0.634,0.061,0.678
6701217,6833.0,5121.0,1251.0,0.366,0.634,0.052,0.679
6701233,6361.0,4689.0,1337.0,0.365,0.632,0.043,0.682
6701249,6227.0,4067.0,1775.0,0.365,0.629,0.031,0.686
6701265,6093.0,3913.0,1907.0,0.364,0.625,0.018,0.69
6701291,5893.0,4337.0,1745.0,0.366,0.619,0.0,0.695
6701307,5813.0,4747.0,1505.0,0.37,0.61,-0.023,0.7
6701323,6113.0,3521.0,1515.0,0.376,0.599,-0.052,0.705
6701339,5743.0,5651.0,891.0,0.388,0.585,-0.087,0.707
6701355,6889.0,3257.0,1229.0,0.401,0.569,-0.128,0.706
6701371,7265.0,1551.0,1501.0,0.413,0.552,-0.17,0.704
6701397,7501.0,471.0,1541.0,0.424,0.534,-0.211,0.701
6701413,7883.0,-397.0,1843.0,0.432,0.516,-0.248,0.697
6701429,8273.0,-1071.0,2309.0,0.438,0.5,-0.28,0.692
6701445,8185.0,-1511.0,2689.0,0.442,0.487,-0.307,0.688
6701461,8389.0,-1055.0,2759.0,0.444,0.477,-0.33,0.683
6701477,8475.0,-373.0,2957.0,0.445,0.471,-0.349,0.677
6701503,8709.0,273.0,2863.0,0.446,0.465,-0.368,0.671
6701519,8587.0,367.0,2637.0,0.448,0.459,-0.387,0.662
6701535,8159.0,-651.0,2405.0,0.452,0.452,-0.407,0.652
6701552,8379.0,-1997.0,2579.0,0.456,0.445,-0.427,0.642
6701569,8211.0,-3327.0,2551.0,0.458,0.438,-0.444,0.633
6701585,8473.0,-3737.0,2333.0,0.456,0.435,-0.457,0.628
6701602,8391.0,-2591.0,1723.0,0.452,0.432,-0.466,0.626
6701619,8031.0,-989.0,1103.0,0.447,0.43,-0.474,0.625
6701645,7477.0,-783.0,1217.0,0.443,0.427,-0.485,0.622
6701661,7647.0,-1033.0,1461.0,0.44,0.424,-0.498,0.616
6701677,7679.0,-1969.0,1453.0,0.436,0.421,-0.513,0.607
6701693,7997.0,-2873.0,1217.0,0.433,0.419,-0.53,0.596
6701709,8279.0,-4101.0,1175.0,0.43,0.417,-0.546,0.585
6701725,8453.0,-4383.0,1127.0,0.428,0.414,-0.561,0.575
6701751,8487.0,-4489.0,1149.0,0.425,0.41,-0.574,0.567
6701767,8259.0,-4801.0,1113.0,0.422,0.406,-0.586,0.561
6701783,7857.0,-4815.0,1295.0,0.419,0.4,-0.597,0.555
6701799,7643.0,-4235.0,1551.0,0.414,0.395,-0.608,0.551
6701816,8143.0,-3791.0,1441.0,0.409,0.389,-0.619,0.546
6701832,8515.0,-3551.0,1215.0,0.404,0.383,-0.63,0.542
6701859,8549.0,-4001.0,1313.0,0.401,0.376,-0.639,0.538
6701875,8569.0,-3841.0,1537.0,0.398,0.371,-0.646,0.536
6701891,8625.0,-3159.0,1327.0,0.397,0.367,-0.65,0.535
6701907,8511.0,-3069.0,1067.0,0.397,0.363,-0.651,0.535
6701923,8207.0,-3187.0,1277.0,0.399,0.36,-0.65,0.537
6701940,8051.0,-3061.0,1417.0,0.402,0.359,-0.648,0.539
6701956,7761.0,-4051.0,1653.0,0.404,0.358,-0.643,0.543
6701972,7537.0,-5331.0,1935.0,0.405,0.362,-0.633,0.551
6701998,7879.0,-4939.0,2521.0,0.403,0.371,-0.619,0.563
6702014,8645.0,-4347.0,3455.0,0.399,0.385,-0.597,0.58
6702030,9827.0,-4127.0,3627.0,0.394,0.404,-0.566,0.601
6702046,10537.0,-2811.0,3425.0,0.389,0.426,-0.525,0.626
6702062,11627.0,-937.0,3681.0,0.386,0.449,-0.473,0.653
6702088,12157.0,-207.0,3785.0,0.386,0.471,-0.413,0.677
6702104,11913.0,1683.0,3483.0,0.388,0.492,-0.348,0.698
6702120,12351.0,3805.0,3433.0,0.391,0.509,-0.281,0.714
6702136,12433.0,5021.0,3273.0,0.399,0.52,-0.216,0.724
6702152,11675.0,6381.0,3289.0,0.411,0.524,-0.156,0.73
6702168,10887.0,7773.0,3653.0,0.429,0.522,-0.106,0.73
6702195,10167.0,6351.0,3457.0,0.452,0.513,-0.066,0.726
6702211,9795.0,4645.0,2851.0,0.477,0.502,-0.031,0.721
6702227,8655.0,10009.0,5341.0,0.502,0.489,0.004,0.713
6702243,10043.0,7721.0,-1665.0,0.551,0.429,-0.018,0.715
6702259,9039.0,-12639.0,-1835.0,0.575,0.361,-0.062,0.732
6702275,871.0,-27527.0,6111.0,0.582,0.343,-0.048,0.736
6702291,3631.0,-2913.0,3311.0,0.58,0.372,0.016,0.724
6702317,4563.0,20513.0,-2115.0,0.587,0.409,0.077,0.694
6702333,9889.0,32767.0,-321.0,0.62,0.407,0.101,0.663
6702350,7587.0,17015.0,-935.0,0.663,0.373,0.097,0.641
6702366,3713.0,3699.0,-1999.0,0.706,0.34,0.091,0.615
6702383,1753.0,-619.0,201.0,0.741,0.327,0.097,0.578
6702400,1877.0,2219.0,899.0,0.769,0.33,0.111,0.536
6702416,1247.0,4301.0,201.0,0.795,0.334,0.123,0.491
6702442,1189.0,3331.0,721.0,0.819,0.335,0.13,0.448
6702458,1127.0,2229.0,2251.0,0.84,0.332,0.132,0.409
6702474,2013.0,1411.0,3597.0,0.86,0.325,0.132,0.371
6702490,2681.0,1399.0,4457.0,0.878,0.314,0.131,0.336
6702506,2197.0,643.0,5215.0,0.895,0.3,0.13,0.304
6702522,1257.0,-433.0,6219.0,0.909,0.287,0.13,0.274
6702548,979.0,-229.0,6813.0,0.919,0.278,0.13,0.247
6702565,1603.0,1017.0,7947.0,0.926,0.274,0.128,0.226
6702581,1247.0,4893.0,3617.0,0.93,0.275,0.128,0.206
6702597,9777.0,-7965.0,3123.0,0.928,0.287,0.132,0.196
6702613,5373.0,-5437.0,11167.0,0.916,0.323,0.14,0.192
6702629,3435.0,9145.0,12471.0,0.904,0.353,0.154,0.185
6702645,1905.0,11063.0,10677.0,0.899,0.36,0.164,0.186
6702671,541.0,3765.0,8183.0,0.895,0.365,0.172,0.189
6702687,-623.0,8115.0,5557.0,0.89,0.376,0.179,0.188
6702703,-1579.0,9045.0,5061.0,0.885,0.384,0.186,0.186
6702720,-1969.0,7353.0,5049.0,0.881,0.392,0.191,0.184
6702736,-1761.0,8187.0,4945.0,0.877,0.399,0.197,0.18
6702752,-1569.0,7993.0,4703.0,0.875,0.403,0.201,0.175
6702778,-1297.0,8449.0,5101.0,0.874,0.407,0.206,0.17
6702794,-1215.0,8181.0,4245.0,0.873,0.409,0.211,0.165
6702810,-1913.0,8011.0,2797.0,0.873,0.408,0.214,0.16
6702826,-1799.0,5691.0,5853.0,0.874,0.407,0.215,0.155
6702842,-2047.0,7617.0,7083.0,0.876,0.404,0.218,0.15
6702858,-2193.0,6179.0,7159.0,0.877,0.401,0.221,0.146
6702884,-3075.0,7157.0,8139.0,0.877,0.399,0.225,0.142
6702900,-3413.0,6959.0,7925.0,0.878,0.397,0.229,0.139
6702917,-4141.0,8139.0,7907.0,0.878,0.393,0.235,0.136
6702933,-4733.0,7711.0,7579.0,0.88,0.387,0.241,0.133
6702949,-4821.0,8469.0,7193.0,0.882,0.38,0.248,0.129
6702965,-5025.0,8211.0,6545.0,0.884,0.371,0.256,0.124
6702981,-5131.0,8495.0,6341.0,0.886,0.361,0.266,0.118
6703007,-5213.0,8153.0,6183.0,0.889,0.349,0.276,0.111
6703023,-5283.0,7991.0,6307.0,0.891,0.335,0.288,0.103
6703039,-4915.0,7929.0,7215.0,0.894,0.318,0.301,0.094
6703055,-4797.0,7767.0,7405.0,0.897,0.298,0.314,0.086
6703071,-5081.0,7065.0,6589.0,0.9,0.274,0.329,0.078
6703097,-4963.0,6211.0,6185.0,0.903,0.249,0.344,0.071
6703113,-4921.0,6165.0,5795.0,0.904,0.224,0.359,0.063
6703129,-4989.0,5535.0,5755.0,0.905,0.196,0.373,0.056
6703145,-4717.0,4355.0,5413.0,0.905,0.168,0.387,0.05
6703161,-5703.0,4547.0,4895.0,0.905,0.139,0.4,0.045
6703177,-4859.0,3279.0,5695.0,0.903,0.108,0.413,0.042
6703203,-5437.0,2713.0,5761.0,0.9,0.077,0.427,0.039
6703219,-4951.0,4663.0,5925.0,0.895,0.042,0.442,0.037
6703235,-5401.0,2811.0,3747.0,0.889,0.003,0.457,0.037
6703251,-5421.0,-111.0,887.0,0.881,-0.033,0.47,0.033
6703268,-5701.0,-437.0,327.0,0.875,-0.061,0.479,0.026
6703285,-5965.0,-1943.0,1317.0,0.87,-0.084,0.486,0.016
6703301,-5879.0,-3095.0,2625.0,0.866,-0.1,0.49,0.006
6703327,-4307.0,-7023.0,7293.0,0.863,-0.104,0.494,-0.01
6703343,-5543.0,3079.0,5957.0,0.86,-0.109,0.497,-0.022
6703359,-5017.0,-1939.0,5013.0,0.855,-0.119,0.503,-0.029
6703375,-5937.0,-5985.0,2561.0,0.851,-0.123,0.509,-0.035
6703391,-6243.0,-5739.0,1695.0,0.849,-0.117,0.514,-0.045
6703407,-6285.0,-1367.0,2437.0,0.848,-0.105,0.517,-0.056
6703433,-6529.0,455.0,3747.0,0.846,-0.095,0.522,-0.063
6703449,-7223.0,1031.0,4029.0,0.842,-0.091,0.528,-0.067
6703465,-7193.0,9.0,2805.0,0.837,-0.092,0.534,-0.07
6703481,-7455.0,311.0,2023.0,0.832,-0.095,0.541,-0.075
6703498,-7265.0,153.0,1579.0,0.827,-0.1,0.548,-0.081
6703514,-7519.0,185.0,3493.0,0.821,-0.108,0.553,-0.09
6703530,-9795.0,-3787.0,2799.0,0.816,-0.117,0.557,-0.098
6703556,-9275.0,-1303.0,3235.0,0.813,-0.126,0.558,-0.103
6703572,-9941.0,-5443.0,1701.0,0.813,-0.133,0.556,-0.107
6703588,-7557.0,-3935.0,1537.0,0.815,-0.134,0.552,-0.116
6703604,-7515.0,-2375.0,2481.0,0.817,-0.132,0.547,-0.124
6703621,-7977.0,-2785.0,3749.0,0.821,-0.127,0.541,-0.13
6703637,-6713.0,-2075.0,3485.0,0.825,-0.121,0.535,-0.137
6703663,-5745.0,-1155.0,3567.0,0.827,-0.119,0.531,-0.143
6703680,-5505.0,-2179.0,2495.0,0.827,-0.118,0.529,-0.15
6703696,-5571.0,-1903.0,1669.0,0.825,-0.118,0.53,-0.157
6703712,-5825.0,-1701.0,1703.0,0.823,-0.116,0.531,-0.163
6703728,-6437.0,-2661.0,2305.0,0.822,-0.113,0.531,-0.17
6703745,-5387.0,-2481.0,1761.0,0.822,-0.108,0.53,-0.178
6703761,-5645.0,-1051.0,1991.0,0.821,-0.103,0.53,-0.185
6703787,-5615.0,-1925.0,2007.0,0.821,-0.1,0.529,-0.191
6703803,-5267.0,-2821.0,2099.0,0.82,-0.097,0.527,-0.198
6703820,-5291.0,-1257.0,2719.0,0.82,-0.095,0.526,-0.207
6703836,-4879.0,-945.0,3009.0,0.818,-0.096,0.526,-0.214
6703852,-5251.0,-1379.0,2633.0,0.816,-0.098,0.526,-0.22
6703869,-5035.0,-1815.0,2337.0,0.814,-0.103,0.526,-0.224
6703886,-5137.0,-1937.0,2079.0,0.812,-0.109,0.526,-0.227
6703902,-5029.0,-2317.0,2353.0,0.811,-0.116,0.526,-0.23
6703928,-5257.0,-2757.0,2449.0,0.808,-0.124,0.526,-0.233
6703944,-4739.0,-3213.0,3197.0,0.806,-0.133,0.526,-0.236
6703960,-4831.0,-2475.0,3881.0,0.804,-0.143,0.526,-0.238
6703976,-4993.0,-3545.0,3791.0,0.801,-0.156,0.527,-0.238
6703992,-5243.0,-4443.0,3155.0,0.799,-0.168,0.526,-0.238
6704008,-4763.0,-4691.0,2483.0,0.796,-0.182,0.526,-0.237
6704034,-5529.0,-5743.0,2311.0,0.793,-0.196,0.525,-0.237
6704050,-5667.0,-5913.0,3115.0,0.791,-0.21,0.524,-0.238
6704067,-5283.0,-5421.0,3607.0,0.788,-0.223,0.522,-0.239
6704084,-5063.0,-6339.0,3287.0,0.786,-0.233,0.519,-0.241
6704101,-4729.0,-3967.0,2455.0,0.783,-0.244,0.518,-0.242
6704118,-4829.0,-6057.0,2233.0,0.781,-0.252,0.518,-0.244
6704135,-4513.0,-5689.0,2223.0,0.778,-0.258,0.517,-0.246
6704151,-4375.0,-6361.0,1835.0,0.775,-0.266,0.517,-0.247
6704168,-4245.0,-5987.0,2123.0,0.771,-0.273,0.518,-0.249
6704185,-3801.0,-4965.0,2095.0,0.765,-0.285,0.521,-0.25
6704212,-3635.0,-4197.0,1343.0,0.755,-0.302,0.526,-0.25
6704228,-2309.0,-3991.0,697.0,0.739,-0.326,0.535,-0.248
6704244,-3405.0,-3777.0,537.0,0.718,-0.356,0.545,-0.246
6704260,-3251.0,-5961.0,295.0,0.694,-0.387,0.555,-0.244
6704276,-3295.0,-10361.0,-885.0,0.674,-0.413,0.562,-0.243
6704293,-2381.0,-9703.0,-1117.0,0.659,-0.433,0.563,-0.246
6704319,-2401.0,-6763.0,-1841.0,0.647,-0.451,0.562,-0.249
6704336,-2127.0,-5235.0,-2387.0,0.633,-0.472,0.561,-0.248
6704353,-2341.0,-5917.0,-2049.0,0.618,-0.495,0.559,-0.246
6704369,-2795.0,-5541.0,-1317.0,0.6,-0.52,0.558,-0.24
6704385,-3129.0,-6545.0,-1273.0,0.582,-0.545,0.556,-0.234
6704402,-3141.0,-5935.0,-3133.0,0.561,-0.572,0.555,-0.225
6704419,-3029.0,-4241.0,-3717.0,0.539,-0.597,0.553,-0.216
6704435,-3337.0,-10867.0,-2431.0,0.515,-0.621,0.553,-0.205
6704452,-4045.0,-13313.0,-2397.0,0.504,-0.63,0.555,-0.203
6704478,-2833.0,-7361.0,-1439.0,0.5,-0.631,0.557,-0.204
6704494,-2659.0,-5835.0,-2729.0,0.492,-0.634,0.56,-0.204
6704510,-2819.0,-6237.0,-3003.0,0.485,-0.636,0.564,-0.206
6704526,-2759.0,-8707.0,-3885.0,0.48,-0.636,0.567,-0.21
6704542,-2885.0,-9665.0,-4307.0,0.48,-0.632,0.568,-0.218
6704558,-1947.0,-6651.0,-3817.0,0.484,-0.626,0.567,-0.229
6704574,-1961.0,-5091.0,-3243.0,0.484,-0.623,0.566,-0.239
6704600,-2225.0,-7481.0,-2231.0,0.482,-0.622,0.566,-0.247
6704617,-1875.0,-7537.0,-3921.0,0.481,-0.62,0.565,-0.256
6704634,-503.0,-6921.0,-4121.0,0.478,-0.622,0.562,-0.263
6704651,-911.0,-7993.0,-3763.0,0.476,-0.622,0.56,-0.27
6704668,-769.0,-7011.0,-3593.0,0.475,-0.623,0.557,-0.278
6704685,-665.0,-6427.0,-3181.0,0.473,-0.623,0.554,-0.285
6704702,-937.0,-7017.0,-2643.0,0.471,-0.624,0.551,-0.292
6704718,-813.0,-7035.0,-2755.0,0.469,-0.625,0.547,-0.299
6704735,-637.0,-7743.0,-3439.0,0.469,-0.625,0.543,-0.307
6704752,-505.0,-6137.0,-3291.0,0.468,-0.625,0.539,-0.316
6704769,-363.0,-6673.0,-2473.0,0.466,-0.626,0.535,-0.324
6704796,-101.0,-6799.0,-2703.0,0.464,-0.626,0.532,-0.332
6704812,-303.0,-7159.0,-3509.0,0.46,-0.627,0.528,-0.34
6704828,-297.0,-7933.0,-3443.0,0.456,-0.629,0.525,-0.347
6704844,-513.0,-9175.0,-3593.0,0.452,-0.631,0.521,-0.354
6704861,-459.0,-8365.0,-3395.0,0.448,-0.634,0.517,-0.361
6704877,-595.0,-9503.0,-3253.0,0.442,-0.637,0.514,-0.366
6704893,-419.0,-9967.0,-3557.0,0.437,-0.641,0.511,-0.371
6704920,-605.0,-11137.0,-3505.0,0.431,-0.644,0.509,-0.375
6704937,-71.0,-12219.0,-4199.0,0.426,-0.647,0.508,-0.377
6704953,253.0,-11541.0,-4579.0,0.422,-0.649,0.508,-0.377
6704970,377.0,-11539.0,-4151.0,0.418,-0.651,0.51,-0.375
6704986,329.0,-10919.0,-3411.0,0.416,-0.652,0.513,-0.371
6705002,495.0,-10549.0,-3567.0,0.417,-0.652,0.518,-0.366
6705018,485.0,-11031.0,-4369.0,0.418,-0.651,0.522,-0.358
6705035,527.0,-11039.0,-4935.0,0.422,-0.65,0.527,-0.349
6705052,233.0,-10121.0,-5257.0,0.428,-0.647,0.531,-0.34
6705078,-233.0,-8807.0,-5301.0,0.435,-0.644,0.536,-0.329
6705094,-957.0,-9233.0,-4283.0,0.443,-0.64,0.542,-0.317
6705111,-1499.0,-9175.0,-3803.0,0.452,-0.635,0.548,-0.303
6705127,-837.0,-8991.0,-4341.0,0.463,-0.627,0.556,-0.289
6705144,-1171.0,-8813.0,-4493.0,0.473,-0.62,0.563,-0.274
6705160,-1609.0,-7547.0,-4871.0,0.483,-0.612,0.57,-0.259
6705176,-2035.0,-6197.0,-3973.0,0.492,-0.605,0.576,-0.244
6705203,-2249.0,-7583.0,-3387.0,0.499,-0.6,0.583,-0.227
6705219,-2361.0,-6403.0,-3325.0,0.506,-0.594,0.589,-0.212
6705235,-2501.0,-5665.0,-3271.0,0.512,-0.589,0.594,-0.196
6705251,-2629.0,-5693.0,-3807.0,0.515,-0.586,0.6,-0.179
6705268,-3019.0,-5151.0,-3333.0,0.517,-0.585,0.604,-0.162
6705284,-3123.0,-5011.0,-3191.0,0.517,-0.585,0.608,-0.143
6705301,-3061.0,-3463.0,-3031.0,0.518,-0.585,0.612,-0.123
6705318,-3795.0,-5687.0,-3493.0,0.518,-0.585,0.616,-0.104
6705345,-3967.0,-6129.0,-3693.0,0.52,-0.583,0.618,-0.087
6705362,-4865.0,-6121.0,-2741.0,0.52,-0.583,0.62,-0.069
6705379,-4585.0,-4397.0,-2987.0,0.521,-0.583,0.622,-0.051
6705396,-4425.0,-4237.0,-2207.0,0.524,-0.581,0.622,-0.036
6705412,-4881.0,-5137.0,-2737.0,0.528,-0.578,0.622,-0.023
6705428,-4341.0,-4799.0,-2135.0,0.531,-0.576,0.622,-0.01
6705444,-3861.0,-4933.0,-2889.0,0.533,-0.574,0.622,0.002
6705460,-2817.0,-5129.0,-2969.0,0.538,-0.57,0.622,0.013
6705486,-2929.0,-3205.0,-2445.0,0.541,-0.567,0.621,0.022
6705502,-3789.0,-3469.0,-2153.0,0.542,-0.567,0.619,0.031
6705518,-3771.0,-3389.0,-2013.0,0.544,-0.567,0.618,0.037
6705534,-2965.0,-2951.0,-2075.0,0.546,-0.566,0.617,0.04
6705551,-2483.0,-3161.0,-1445.0,0.549,-0.565,0.615,0.039
6705567,-2287.0,-2099.0,-1481.0,0.553,-0.563,0.613,0.034
6705583,-2341.0,-2141.0,-1611.0,0.555,-0.564,0.611,0.028
6705609,-2581.0,-2173.0,-1939.0,0.556,-0.566,0.609,0.019
6705625,-3207.0,-2603.0,-2323.0,0.553,-0.571,0.606,0.009
6705641,-3485.0,-3189.0,-2227.0,0.547,-0.579,0.604,-0.0
6705657,-3239.0,-2729.0,-1651.0,0.537,-0.591,0.602,-0.01
6705673,-3057.0,-2495.0,-1457.0,0.522,-0.606,0.6,-0.02
6705689,-3795.0,-3067.0,-2089.0,0.507,-0.62,0.598,-0.031
6705716,-4793.0,-4255.0,-3123.0,0.498,-0.628,0.596,-0.046
6705733,-4489.0,-6263.0,-3479.0,0.492,-0.633,0.595,-0.062
6705750,-4013.0,-6413.0,-3873.0,0.486,-0.636,0.594,-0.079
6705767,-4171.0,-6001.0,-3967.0,0.477,-0.641,0.594,-0.094
6705784,-4189.0,-6187.0,-4015.0,0.466,-0.647,0.594,-0.107
6705801,-3611.0,-7339.0,-4877.0,0.456,-0.652,0.594,-0.121
6705818,-3251.0,-5851.0,-4663.0,0.446,-0.657,0.593,-0.136
6705835,-2839.0,-6465.0,-4869.0,0.435,-0.661,0.592,-0.15
6705851,-2571.0,-6177.0,-5021.0,0.426,-0.666,0.591,-0.164
6705868,-2155.0,-7005.0,-5757.0,0.417,-0.669,0.59,-0.176
6705894,-1813.0,-7353.0,-6053.0,0.409,-0.671,0.588,-0.189
6705910,-1829.0,-7397.0,-5899.0,0.401,-0.674,0.587,-0.202
6705926,-2083.0,-7017.0,-5253.0,0.392,-0.676,0.587,-0.213
6705942,-1683.0,-6881.0,-5747.0,0.384,-0.677,0.586,-0.224
6705958,-1025.0,-7511.0,-5997.0,0.378,-0.677,0.586,-0.234
6705974,-859.0,-7029.0,-5481.0,0.372,-0.678,0.586,-0.243
6705990,-699.0,-7519.0,-5691.0,0.367,-0.677,0.586,-0.251
6706016,-801.0,-6591.0,-5369.0,0.362,-0.676,0.587,-0.259
6706033,-659.0,-6459.0,-5299.0,0.358,-0.676,0.587,-0.266
6706049,5.0,-7171.0,-6313.0,0.355,-0.675,0.587,-0.273
6706066,-119.0,-7429.0,-6081.0,0.351,-0.675,0.586,-0.28
6706083,-639.0,-7305.0,-5543.0,0.346,-0.675,0.585,-0.287
6706100,-611.0,-8175.0,-5669.0,0.344,-0.674,0.584,-0.293
6706117,-505.0,-8665.0,-6395.0,0.342,-0.674,0.582,-0.299
6706134,-443.0,-8849.0,-6707.0,0.339,-0.675,0.581,-0.304
6706151,-297.0,-9335.0,-7223.0,0.337,-0.675,0.579,-0.308
6706178,-255.0,-10139.0,-7271.0,0.334,-0.676,0.579,-0.309
6706194,-437.0,-10353.0,-6719.0,0.331,-0.677,0.58,-0.309
6706210,-243.0,-10225.0,-6753.0,0.33,-0.678,0.581,-0.306
6706227,-7.0,-9977.0,-7131.0,0.329,-0.678,0.584,-0.302
6706243,-163.0,-9655.0,-7085.0,0.329,-0.678,0.587,-0.295
6706259,-277.0,-9761.0,-7273.0,0.332,-0.677,0.591,-0.286
6706275,-377.0,-9483.0,-7471.0,0.337,-0.675,0.595,-0.277
6706291,-621.0,-9065.0,-7365.0,0.343,-0.673,0.599,-0.265
6706317,-987.0,-8571.0,-7049.0,0.351,-0.67,0.602,-0.254
6706334,-873.0,-8391.0,-7255.0,0.361,-0.667,0.606,-0.241
6706351,-1157.0,-7409.0,-6689.0,0.373,-0.662,0.609,-0.228
6706367,-1375.0,-7831.0,-6467.0,0.386,-0.657,0.611,-0.215
6706384,-1597.0,-7643.0,-6133.0,0.4,-0.651,0.612,-0.203
6706401,-1803.0,-6665.0,-5629.0,0.413,-0.646,0.613,-0.19
6706417,-1899.0,-5839.0,-5301.0,0.427,-0.64,0.613,-0.177
6706434,-2031.0,-4629.0,-4899.0,0.44,-0.635,0.614,-0.163
6706461,-2069.0,-4733.0,-4645.0,0.452,-0.63,0.614,-0.146
6706477,-2297.0,-5135.0,-4409.0,0.464,-0.624,0.615,-0.13
6706493,-2433.0,-5573.0,-4491.0,0.476,-0.618,0.616,-0.114
6706509,-2693.0,-4521.0,-3967.0,0.485,-0.613,0.616,-0.098
6706525,-2919.0,-4629.0,-3703.0,0.491,-0.61,0.617,-0.081
6706541,-3107.0,-4821.0,-3347.0,0.497,-0.607,0.617,-0.066
6706567,-3327.0,-4941.0,-3641.0,0.503,-0.603,0.617,-0.052
6706584,-3579.0,-4453.0,-3333.0,0.508,-0.599,0.617,-0.039
6706601,-3829.0,-4209.0,-3025.0,0.513,-0.596,0.617,-0.025
6706618,-3279.0,-4685.0,-1217.0,0.519,-0.59,0.618,-0.012
6706634,-3991.0,-4131.0,-2647.0,0.523,-0.587,0.618,0.0
6706651,-4153.0,-3819.0,-1895.0,0.527,-0.583,0.618,0.012
6706667,-3335.0,-2421.0,-1509.0,0.531,-0.58,0.617,0.023
6706684,-2941.0,-2841.0,-1473.0,0.536,-0.576,0.616,0.033
6706700,-2439.0,-3057.0,-1835.0,0.542,-0.571,0.616,0.04
6706717,-2115.0,-2021.0,-1077.0,0.546,-0.567,0.615,0.045
6706734,-2307.0,-2447.0,-861.0,0.549,-0.565,0.614,0.047
6706751,-2617.0,-3181.0,-1143.0,0.552,-0.563,0.613,0.046
6706778,-3019.0,-2987.0,-1793.0,0.552,-0.565,0.612,0.043
6706795,-3327.0,-3089.0,-1483.0,0.551,-0.568,0.61,0.037
6706811,-2963.0,-2371.0,-1323.0,0.546,-0.575,0.608,0.03
6706827,-3229.0,-1837.0,-1475.0,0.54,-0.583,0.607,0.022
6706843,-3391.0,-1839.0,-1519.0,0.533,-0.591,0.605,0.012
6706859,-4079.0,-3815.0,-2473.0,0.527,-0.598,0.604,0.001
6706885,-4217.0,-4419.0,-3409.0,0.52,-0.606,0.603,-0.011
6706901,-4353.0,-4133.0,-2957.0,0.51,-0.614,0.602,-0.025
6706918,-4519.0,-4211.0,-2781.0,0.499,-0.623,0.602,-0.036
6706935,-4549.0,-5597.0,-3507.0,0.489,-0.629,0.602,-0.048
6706951,-4285.0,-6359.0,-4501.0,0.481,-0.635,0.602,-0.062
6706967,-4061.0,-5037.0,-5011.0,0.472,-0.64,0.602,-0.074
6706984,-4195.0,-5443.0,-4275.0,0.461,-0.646,0.602,-0.087
6707000,-3801.0,-6193.0,-4925.0,0.451,-0.651,0.603,-0.098
6707027,-3375.0,-6329.0,-5315.0,0.443,-0.654,0.603,-0.111
6707043,-2969.0,-6113.0,-5341.0,0.435,-0.657,0.603,-0.123
6707060,-2945.0,-6221.0,-4715.0,0.427,-0.661,0.603,-0.135
6707076,-2705.0,-6907.0,-5159.0,0.419,-0.663,0.603,-0.147
6707093,-2385.0,-6151.0,-5101.0,0.41,-0.666,0.603,-0.159
6707109,-1997.0,-6407.0,-6019.0,0.402,-0.668,0.602,-0.17
6707125,-2251.0,-5749.0,-5515.0,0.393,-0.671,0.602,-0.182
6707141,-2049.0,-6063.0,-5845.0,0.384,-0.674,0.601,-0.193
6707167,-1785.0,-6335.0,-5787.0,0.379,-0.674,0.6,-0.204
6707184,-1285.0,-6951.0,-6421.0,0.376,-0.674,0.598,-0.215
6707201,-885.0,-7211.0,-6231.0,0.371,-0.674,0.597,-0.226
6707218,-1225.0,-6637.0,-6489.0,0.364,-0.675,0.598,-0.235
6707234,-1805.0,-7751.0,-6057.0,0.355,-0.676,0.598,-0.243
6707251,-1661.0,-7931.0,-6177.0,0.35,-0.677,0.597,-0.252
6707267,-1037.0,-7691.0,-6761.0,0.349,-0.676,0.595,-0.261
6707284,-717.0,-7579.0,-7183.0,0.349,-0.675,0.592,-0.269
6707300,-591.0,-9573.0,-7629.0,0.348,-0.675,0.589,-0.275
6707327,-987.0,-10221.0,-7377.0,0.345,-0.676,0.587,-0.281
6707343,-1233.0,-10523.0,-7201.0,0.343,-0.676,0.586,-0.285
6707359,-1017.0,-10741.0,-7369.0,0.341,-0.677,0.587,-0.285
6707375,-709.0,-10455.0,-7541.0,0.34,-0.677,0.588,-0.283
6707391,-723.0,-9891.0,-7585.0,0.34,-0.677,0.591,-0.278
6707407,-843.0,-10113.0,-7455.0,0.342,-0.675,0.595,-0.27
6707433,-1017.0,-9687.0,-7547.0,0.346,-0.673,0.6,-0.26
6707450,-1169.0,-9607.0,-7541.0,0.351,-0.671,0.604,-0.249
6707467,-1235.0,-9689.0,-7407.0,0.359,-0.668,0.607,-0.237
6707483,-1193.0,-7897.0,-7165.0,0.367,-0.665,0.61,-0.225
6707500,-1133.0,-6447.0,-7373.0,0.376,-0.662,0.613,-0.212
6707517,-1653.0,-6531.0,-6957.0,0.385,-0.658,0.616,-0.198
6707533,-2229.0,-6013.0,-5963.0,0.395,-0.653,0.62,-0.183
6707550,-2343.0,-6647.0,-5931.0,0.408,-0.648,0.621,-0.168
6707567,-2545.0,-5991.0,-5293.0,0.42,-0.643,0.622,-0.153
6707593,-2677.0,-6047.0,-4909.0,0.432,-0.638,0.622,-0.138
6707609,-2813.0,-4773.0,-4543.0,0.443,-0.634,0.622,-0.122
6707625,-2743.0,-4671.0,-4615.0,0.453,-0.629,0.622,-0.106
6707641,-2849.0,-4909.0,-4597.0,0.464,-0.624,0.622,-0.092
6707657,-2927.0,-4197.0,-3985.0,0.474,-0.619,0.622,-0.077
6707674,-2943.0,-4647.0,-4077.0,0.483,-0.615,0.621,-0.063
6707690,-3311.0,-4851.0,-3829.0,0.49,-0.611,0.62,-0.049
6707707,-3489.0,-4435.0,-3137.0,0.497,-0.608,0.618,-0.036
6707733,-3655.0,-3891.0,-3285.0,0.502,-0.606,0.617,-0.023
6707750,-3993.0,-4431.0,-3415.0,0.506,-0.603,0.616,-0.01
6707767,-4137.0,-4885.0,-2737.0,0.511,-0.599,0.617,0.001
6707784,-4319.0,-3853.0,-3353.0,0.514,-0.596,0.617,0.012
6707800,-4593.0,-4345.0,-2361.0,0.519,-0.591,0.618,0.021
6707816,-4135.0,-2431.0,-2405.0,0.523,-0.586,0.618,0.03
6707833,-4287.0,-4307.0,-2619.0,0.528,-0.58,0.619,0.038
6707849,-4517.0,-3531.0,-2151.0,0.531,-0.575,0.62,0.045
6707875,-4067.0,-2573.0,-1517.0,0.532,-0.573,0.621,0.054
6707891,-3399.0,-2501.0,-1599.0,0.532,-0.571,0.622,0.061
6707907,-3333.0,-3303.0,-2423.0,0.533,-0.569,0.623,0.067
6707923,-3865.0,-3281.0,-2691.0,0.534,-0.566,0.624,0.07
6707939,-3255.0,-2701.0,-1107.0,0.535,-0.565,0.625,0.071
6707955,-2819.0,-2511.0,-1231.0,0.536,-0.564,0.625,0.068
6707981,-3171.0,-3195.0,-1699.0,0.538,-0.564,0.624,0.063
6707997,-3451.0,-2601.0,-1147.0,0.537,-0.566,0.623,0.057
6708014,-3285.0,-2783.0,-1787.0,0.535,-0.57,0.621,0.048
6708031,-3451.0,-3059.0,-1717.0,0.533,-0.575,0.619,0.038
6708048,-3961.0,-3369.0,-1989.0,0.53,-0.581,0.617,0.026
6708065,-3681.0,-3297.0,-1815.0,0.525,-0.588,0.615,0.012
6708081,-4169.0,-3865.0,-1977.0,0.518,-0.596,0.613,-0.001
6708098,-4195.0,-4453.0,-2513.0,0.511,-0.605,0.611,-0.014
6708125,-4417.0,-5235.0,-2979.0,0.503,-0.612,0.609,-0.029
6708141,-4327.0,-5345.0,-3429.0,0.494,-0.62,0.608,-0.044
6708157,-4091.0,-5151.0,-3511.0,0.484,-0.627,0.607,-0.058
6708174,-3991.0,-6579.0,-4827.0,0.474,-0.633,0.608,-0.073
6708190,-4383.0,-5109.0,-4589.0,0.462,-0.639,0.609,-0.087
6708207,-4235.0,-4985.0,-4739.0,0.449,-0.645,0.61,-0.1
6708223,-3549.0,-6179.0,-5775.0,0.439,-0.649,0.611,-0.114
6708239,-3265.0,-6493.0,-5943.0,0.43,-0.651,0.612,-0.129
6708265,-3109.0,-5415.0,-5631.0,0.421,-0.653,0.613,-0.143
6708282,-2933.0,-6061.0,-5169.0,0.413,-0.655,0.614,-0.156
6708299,-2285.0,-6181.0,-5581.0,0.406,-0.656,0.614,-0.169
6708316,-1569.0,-5907.0,-6487.0,0.399,-0.657,0.614,-0.182
6708333,-1849.0,-6487.0,-5913.0,0.39,-0.658,0.614,-0.195
6708349,-1919.0,-6929.0,-5339.0,0.381,-0.66,0.614,-0.206
6708366,-1995.0,-6985.0,-5835.0,0.374,-0.661,0.613,-0.218
6708383,-1525.0,-7443.0,-6233.0,0.369,-0.662,0.612,-0.228
6708400,-1155.0,-6987.0,-6705.0,0.365,-0.662,0.61,-0.238
6708417,-939.0,-7839.0,-6189.0,0.361,-0.662,0.608,-0.248
6708434,-951.0,-6935.0,-5515.0,0.358,-0.662,0.606,-0.257
6708451,-413.0,-8121.0,-6361.0,0.355,-0.662,0.604,-0.265
6708468,-749.0,-6999.0,-5791.0,0.351,-0.663,0.602,-0.273
6708495,-651.0,-7129.0,-5627.0,0.347,-0.664,0.6,-0.28
6708511,-345.0,-6867.0,-5729.0,0.345,-0.665,0.598,-0.287
6708527,-203.0,-6131.0,-5433.0,0.345,-0.664,0.595,-0.293
6708544,-17.0,-8085.0,-6153.0,0.344,-0.665,0.592,-0.298
6708560,-53.0,-8167.0,-6405.0,0.342,-0.666,0.589,-0.304
6708576,-229.0,-8571.0,-6197.0,0.341,-0.667,0.585,-0.309
6708593,-337.0,-10377.0,-6503.0,0.339,-0.668,0.583,-0.314
6708619,-615.0,-9599.0,-6501.0,0.334,-0.669,0.583,-0.317
6708635,-935.0,-10537.0,-6993.0,0.329,-0.671,0.584,-0.317
6708651,-689.0,-11227.0,-7645.0,0.326,-0.671,0.587,-0.314
6708667,-563.0,-11093.0,-8215.0,0.325,-0.67,0.591,-0.309
6708684,-567.0,-10931.0,-7825.0,0.326,-0.668,0.597,-0.302
6708701,-441.0,-11811.0,-7861.0,0.332,-0.664,0.602,-0.294
6708717,-215.0,-10419.0,-7631.0,0.339,-0.659,0.607,-0.286
6708744,-467.0,-7873.0,-6849.0,0.346,-0.655,0.612,-0.276
6708760,-119.0,-6807.0,-6567.0,0.355,-0.65,0.617,-0.265
6708777,-427.0,-6163.0,-6095.0,0.366,-0.644,0.623,-0.251
6708794,-465.0,-6731.0,-5723.0,0.378,-0.639,0.627,-0.237
6708811,-923.0,-6079.0,-5077.0,0.391,-0.633,0.63,-0.223
6708828,-743.0,-6463.0,-5049.0,0.406,-0.626,0.632,-0.21
6708845,-1015.0,-6303.0,-4843.0,0.418,-0.621,0.632,-0.199
6708862,-1347.0,-4563.0,-4587.0,0.428,-0.617,0.633,-0.187
6708879,-1957.0,-4489.0,-4281.0,0.437,-0.614,0.634,-0.174
6708896,-2207.0,-5703.0,-4353.0,0.446,-0.61,0.635,-0.161
6708913,-2115.0,-5603.0,-4763.0,0.454,-0.606,0.636,-0.148
6708930,-2911.0,-5043.0,-4303.0,0.462,-0.603,0.636,-0.135
6708947,-3255.0,-4437.0,-4029.0,0.467,-0.601,0.637,-0.12
6708964,-3483.0,-5139.0,-4105.0,0.473,-0.6,0.637,-0.104
6708991,-3519.0,-5021.0,-4107.0,0.48,-0.597,0.637,-0.089
6709007,-3633.0,-5029.0,-4519.0,0.484,-0.595,0.637,-0.075
6709023,-4099.0,-3557.0,-3595.0,0.486,-0.596,0.637,-0.058
6709039,-3889.0,-5155.0,-3171.0,0.488,-0.595,0.637,-0.042
6709055,-3521.0,-4313.0,-4103.0,0.492,-0.593,0.636,-0.027
6709071,-3703.0,-4833.0,-3875.0,0.497,-0.59,0.636,-0.014
6709097,-3971.0,-4521.0,-3771.0,0.501,-0.587,0.635,-0.001
6709114,-3855.0,-3595.0,-2323.0,0.506,-0.584,0.635,0.011
6709131,-3859.0,-2975.0,-2133.0,0.507,-0.583,0.635,0.023
6709148,-3963.0,-4231.0,-3041.0,0.509,-0.581,0.634,0.034
6709165,-4067.0,-3415.0,-2637.0,0.512,-0.58,0.632,0.043
6709181,-3533.0,-2813.0,-2019.0,0.513,-0.58,0.63,0.05
6709198,-3389.0,-3219.0,-2071.0,0.516,-0.58,0.629,0.055
6709215,-3185.0,-3007.0,-1967.0,0.519,-0.579,0.626,0.058
6709232,-3717.0,-3551.0,-1903.0,0.52,-0.579,0.625,0.058
6709249,-3355.0,-3143.0,-1495.0,0.521,-0.58,0.623,0.057
6709266,-3613.0,-2945.0,-1423.0,0.521,-0.583,0.622,0.053
6709283,-3887.0,-3187.0,-1791.0,0.519,-0.586,0.621,0.047
6709300,-3877.0,-2847.0,-1757.0,0.517,-0.589,0.62,0.04
6709327,-4065.0,-2863.0,-2375.0,0.514,-0.594,0.619,0.031
6709343,-4139.0,-3195.0,-2329.0,0.51,-0.597,0.618,0.019
6709360,-4577.0,-4249.0,-2187.0,0.507,-0.601,0.618,0.007
6709376,-4871.0,-4655.0,-2251.0,0.502,-0.605,0.618,-0.007
6709392,-4645.0,-4421.0,-2463.0,0.496,-0.609,0.619,-0.021
6709408,-4537.0,-4409.0,-3517.0,0.489,-0.613,0.62,-0.035
6709434,-4719.0,-4913.0,-4023.0,0.481,-0.617,0.621,-0.048
6709450,-4631.0,-5147.0,-3237.0,0.472,-0.621,0.622,-0.062
6709467,-4427.0,-4953.0,-3843.0,0.463,-0.626,0.624,-0.074
6709483,-3787.0,-4889.0,-4581.0,0.454,-0.63,0.624,-0.086
6709500,-3561.0,-5691.0,-4999.0,0.446,-0.633,0.625,-0.099
6709517,-3137.0,-5181.0,-5289.0,0.439,-0.636,0.625,-0.112
6709534,-3363.0,-5805.0,-4743.0,0.432,-0.638,0.625,-0.126
6709550,-3067.0,-4849.0,-4875.0,0.424,-0.64,0.625,-0.138
6709567,-2957.0,-5723.0,-5025.0,0.418,-0.642,0.625,-0.151
6709593,-2267.0,-6021.0,-5547.0,0.412,-0.643,0.624,-0.163
6709609,-2115.0,-6047.0,-5157.0,0.407,-0.644,0.623,-0.177
6709625,-2179.0,-5521.0,-5035.0,0.4,-0.645,0.623,-0.191
6709642,-2333.0,-5425.0,-4995.0,0.392,-0.646,0.622,-0.202
6709659,-1677.0,-6889.0,-5851.0,0.386,-0.647,0.621,-0.214
6709675,-1643.0,-6891.0,-5899.0,0.381,-0.648,0.619,-0.227
6709691,-269.0,-8003.0,-4409.0,0.378,-0.647,0.617,-0.24
6709707,-1367.0,-5599.0,-4583.0,0.373,-0.647,0.615,-0.252
6709734,-1077.0,-5587.0,-4573.0,0.368,-0.648,0.613,-0.263
6709750,-543.0,-6417.0,-5189.0,0.363,-0.649,0.611,-0.273
6709767,499.0,-7345.0,-5423.0,0.358,-0.649,0.609,-0.283
6709783,215.0,-6389.0,-4999.0,0.351,-0.651,0.607,-0.292
6709799,323.0,-6415.0,-5479.0,0.343,-0.653,0.606,-0.299
6709816,317.0,-6579.0,-5641.0,0.334,-0.655,0.605,-0.306
6709832,505.0,-7733.0,-6089.0,0.327,-0.657,0.603,-0.312
6709849,-65.0,-7631.0,-6023.0,0.322,-0.659,0.599,-0.319
6709876,569.0,-7809.0,-5989.0,0.321,-0.66,0.596,-0.325
6709892,419.0,-9429.0,-5749.0,0.322,-0.66,0.592,-0.332
6709909,485.0,-8357.0,-5757.0,0.324,-0.661,0.587,-0.338
6709926,401.0,-8537.0,-5797.0,0.324,-0.661,0.584,-0.342
6709942,857.0,-8273.0,-5533.0,0.325,-0.662,0.581,-0.346
6709958,975.0,-8239.0,-6411.0,0.322,-0.663,0.579,-0.349
6709974,223.0,-10205.0,-5733.0,0.317,-0.665,0.578,-0.351
6710000,189.0,-9823.0,-6009.0,0.312,-0.666,0.579,-0.351
6710017,131.0,-10369.0,-6419.0,0.309,-0.667,0.581,-0.35
6710033,313.0,-9481.0,-6699.0,0.306,-0.668,0.584,-0.346
6710050,343.0,-9875.0,-6623.0,0.303,-0.668,0.588,-0.341
6710066,531.0,-10249.0,-7361.0,0.299,-0.667,0.594,-0.335
6710082,-177.0,-10281.0,-7297.0,0.296,-0.667,0.601,-0.328
6710099,-539.0,-10017.0,-7123.0,0.296,-0.665,0.606,-0.32
6710115,67.0,-8393.0,-7861.0,0.299,-0.663,0.612,-0.309
6710132,517.0,-8285.0,-7815.0,0.306,-0.66,0.618,-0.297
6710158,-11.0,-7707.0,-7047.0,0.313,-0.657,0.625,-0.283
6710174,-103.0,-8529.0,-7189.0,0.322,-0.652,0.631,-0.27
6710190,-419.0,-8795.0,-6639.0,0.333,-0.647,0.636,-0.257
6710206,-485.0,-8243.0,-6215.0,0.345,-0.642,0.639,-0.246
6710222,-467.0,-2255.0,-5157.0,0.353,-0.639,0.643,-0.231
6710238,-719.0,-5839.0,-5979.0,0.359,-0.635,0.65,-0.214
6710265,-1285.0,-6181.0,-5633.0,0.37,-0.629,0.654,-0.198
6710281,-1429.0,-4355.0,-5243.0,0.381,-0.624,0.658,-0.181
6710298,-1545.0,-5107.0,-5391.0,0.394,-0.619,0.66,-0.164
6710315,-1787.0,-4593.0,-4641.0,0.406,-0.613,0.661,-0.148
6710332,-1869.0,-3409.0,-4035.0,0.418,-0.607,0.663,-0.131
6710348,-2577.0,-4641.0,-3391.0,0.429,-0.601,0.664,-0.114
6710364,-2527.0,-4209.0,-3573.0,0.442,-0.595,0.664,-0.099
6710390,-2685.0,-3659.0,-4459.0,0.453,-0.588,0.665,-0.084
6710406,-3413.0,-4611.0,-3751.0,0.463,-0.582,0.665,-0.071
6710422,-3813.0,-3261.0,-3739.0,0.47,-0.576,0.666,-0.056
6710439,-4207.0,-4607.0,-3767.0,0.477,-0.571,0.667,-0.042
6710455,-4357.0,-3597.0,-3101.0,0.482,-0.567,0.668,-0.027
6710471,-4501.0,-3245.0,-2719.0,0.485,-0.564,0.668,-0.012
6710487,-5627.0,-5369.0,-5335.0,0.487,-0.562,0.669,0.002
6710513,-5669.0,-4297.0,-4265.0,0.49,-0.56,0.668,0.015
6710529,-4223.0,-1661.0,-2703.0,0.492,-0.559,0.667,0.027
6710545,-5643.0,-1781.0,-2631.0,0.493,-0.558,0.666,0.039
6710562,-4379.0,-2583.0,-3033.0,0.493,-0.56,0.664,0.049
6710578,-3435.0,-2677.0,-2981.0,0.495,-0.56,0.662,0.057
6710594,-2427.0,-2919.0,-2625.0,0.498,-0.559,0.66,0.062
6710610,-2239.0,-5521.0,-2061.0,0.505,-0.554,0.659,0.063
6710636,-2551.0,-2967.0,-2491.0,0.516,-0.546,0.658,0.06
6710652,-2535.0,-1495.0,-3173.0,0.523,-0.542,0.656,0.056
6710669,-3807.0,-3641.0,-3481.0,0.525,-0.543,0.653,0.054
6710685,-3885.0,-4291.0,-3573.0,0.525,-0.547,0.651,0.049
6710701,-4429.0,-4305.0,-3249.0,0.524,-0.551,0.648,0.041
6710717,-5133.0,-4869.0,-3083.0,0.523,-0.557,0.645,0.031
6710743,-4883.0,-4353.0,-2767.0,0.521,-0.563,0.642,0.023
6710759,-2159.0,-1389.0,1267.0,0.515,-0.57,0.641,0.011
6710775,-2849.0,2609.0,5.0,0.499,-0.583,0.642,0.001
6710791,-5547.0,-5909.0,-2711.0,0.487,-0.591,0.642,-0.008
6710807,-5075.0,-4347.0,-3639.0,0.481,-0.596,0.643,-0.019
6710823,-4743.0,-6013.0,-4853.0,0.474,-0.6,0.644,-0.031
6710849,-4503.0,-4333.0,-4587.0,0.467,-0.603,0.645,-0.044
6710865,-4385.0,-5465.0,-3601.0,0.459,-0.607,0.646,-0.056
6710882,-4653.0,-4861.0,-4467.0,0.453,-0.611,0.645,-0.069
6710898,-4195.0,-5105.0,-5013.0,0.449,-0.614,0.644,-0.082
6710914,-3617.0,-5415.0,-5677.0,0.448,-0.616,0.641,-0.096
6710931,-3563.0,-5485.0,-5247.0,0.448,-0.616,0.639,-0.111
6710948,-3647.0,-6277.0,-4383.0,0.447,-0.616,0.637,-0.125
6710964,-3551.0,-6517.0,-4015.0,0.445,-0.616,0.635,-0.138
6710991,-3273.0,-5807.0,-3939.0,0.443,-0.616,0.633,-0.151
6711007,-2681.0,-6065.0,-4441.0,0.44,-0.617,0.632,-0.163
6711023,-2279.0,-5747.0,-4409.0,0.437,-0.617,0.63,-0.174
6711039,-1925.0,-6009.0,-4965.0,0.433,-0.618,0.629,-0.186
6711055,-1999.0,-6335.0,-4529.0,0.427,-0.619,0.629,-0.198
6711081,-2143.0,-5963.0,-4597.0,0.42,-0.62,0.628,-0.209
6711097,-2503.0,-6639.0,-4259.0,0.413,-0.622,0.628,-0.22
6711113,-1609.0,-6559.0,-5173.0,0.406,-0.623,0.627,-0.231
6711129,-1927.0,-5869.0,-4837.0,0.399,-0.625,0.626,-0.242
6711145,-1673.0,-6767.0,-4927.0,0.391,-0.626,0.625,-0.252
6711162,-1521.0,-6525.0,-5079.0,0.385,-0.628,0.624,-0.262
6711179,-775.0,-7039.0,-5611.0,0.377,-0.629,0.624,-0.27
6711195,-1405.0,-8113.0,-5371.0,0.369,-0.632,0.623,-0.278
6711212,-1023.0,-7811.0,-5825.0,0.362,-0.634,0.621,-0.286
6711238,-791.0,-8419.0,-6437.0,0.356,-0.636,0.619,-0.293
6711255,-481.0,-8689.0,-6575.0,0.349,-0.639,0.617,-0.3
6711271,-625.0,-8509.0,-7519.0,0.342,-0.641,0.616,-0.305
6711287,-1343.0,-9885.0,-7537.0,0.336,-0.644,0.614,-0.309
6711303,-1383.0,-11045.0,-7863.0,0.329,-0.646,0.614,-0.311
6711320,-1105.0,-10985.0,-8139.0,0.324,-0.649,0.614,-0.312
6711346,-1457.0,-10035.0,-8087.0,0.32,-0.65,0.616,-0.309
6711363,-1191.0,-10651.0,-8003.0,0.319,-0.651,0.619,-0.303
6711379,-1171.0,-10519.0,-7501.0,0.321,-0.651,0.622,-0.295
6711395,-895.0,-10003.0,-7491.0,0.326,-0.649,0.625,-0.286
6711411,-409.0,-10243.0,-8151.0,0.332,-0.646,0.629,-0.277
6711428,-623.0,-9849.0,-7513.0,0.34,-0.643,0.632,-0.268
6711445,-741.0,-8757.0,-7257.0,0.35,-0.638,0.635,-0.26
6711462,-1889.0,-6171.0,-5583.0,0.362,-0.632,0.638,-0.25
6711478,-1461.0,-7285.0,-6545.0,0.376,-0.625,0.641,-0.238
6711504,-1589.0,-6943.0,-5877.0,0.391,-0.617,0.644,-0.226
6711520,-1481.0,-6463.0,-5379.0,0.406,-0.609,0.647,-0.214
6711537,-1533.0,-7249.0,-5503.0,0.421,-0.6,0.65,-0.203
6711553,-1771.0,-6663.0,-5083.0,0.434,-0.592,0.652,-0.192
6711570,-2319.0,-5531.0,-4311.0,0.445,-0.585,0.653,-0.182
6711586,-2409.0,-4933.0,-4385.0,0.455,-0.579,0.654,-0.171
6711603,-2841.0,-5301.0,-4125.0,0.465,-0.573,0.655,-0.161
6711620,-3059.0,-4961.0,-3831.0,0.476,-0.567,0.655,-0.152
6711637,-3259.0,-4573.0,-3723.0,0.487,-0.561,0.654,-0.143
6711663,-3427.0,-5105.0,-3319.0,0.498,-0.556,0.652,-0.134
6711679,-3357.0,-4907.0,-3557.0,0.508,-0.553,0.649,-0.124
6711695,-3687.0,-4677.0,-3643.0,0.516,-0.552,0.645,-0.115
6711711,-4221.0,-4847.0,-3335.0,0.522,-0.553,0.641,-0.105
6711727,-4477.0,-4777.0,-3735.0,0.527,-0.554,0.637,-0.094
6711743,-4739.0,-4521.0,-2493.0,0.531,-0.557,0.633,-0.083
6711769,-4235.0,-2865.0,-2849.0,0.533,-0.56,0.631,-0.069
6711786,-4115.0,-3595.0,-2119.0,0.533,-0.565,0.628,-0.051
6711803,-3111.0,-3401.0,-2115.0,0.532,-0.57,0.625,-0.033
6711820,-2363.0,-3703.0,-1105.0,0.534,-0.573,0.621,-0.016
6711836,-3253.0,-4177.0,-2581.0,0.533,-0.579,0.617,-0.0
6711853,-2397.0,-3263.0,-2025.0,0.532,-0.584,0.613,0.012
6711869,-2209.0,-3347.0,-1997.0,0.529,-0.589,0.61,0.022
6711885,-2165.0,-3053.0,-1617.0,0.528,-0.593,0.607,0.027
6711911,-2293.0,-3487.0,-2167.0,0.527,-0.597,0.605,0.03
6711927,-2837.0,-3611.0,-2747.0,0.524,-0.6,0.604,0.029
6711943,-3055.0,-3163.0,-2463.0,0.521,-0.604,0.603,0.026
6711959,-3029.0,-2371.0,-2003.0,0.515,-0.609,0.603,0.021
6711976,-3305.0,-3151.0,-2699.0,0.508,-0.615,0.603,0.014
6711992,-4301.0,-4195.0,-2491.0,0.502,-0.62,0.604,0.004
6712008,-4569.0,-3829.0,-2363.0,0.496,-0.623,0.605,-0.006
6712035,-4351.0,-3895.0,-2607.0,0.491,-0.626,0.606,-0.017
6712052,-3955.0,-4631.0,-3355.0,0.486,-0.628,0.607,-0.027
6712068,-3641.0,-4943.0,-3915.0,0.481,-0.63,0.609,-0.039
6712085,-4273.0,-6131.0,-4219.0,0.475,-0.631,0.61,-0.054
6712102,-4267.0,-3769.0,-3423.0,0.469,-0.633,0.612,-0.068
6712119,-4317.0,-5115.0,-3465.0,0.464,-0.635,0.612,-0.08
6712136,-3323.0,-5825.0,-4895.0,0.46,-0.636,0.613,-0.092
6712153,-3285.0,-6667.0,-4871.0,0.455,-0.637,0.613,-0.107
6712170,-3303.0,-5277.0,-4937.0,0.449,-0.638,0.614,-0.121
6712196,-3527.0,-5809.0,-4371.0,0.442,-0.64,0.614,-0.135
6712212,-3191.0,-7143.0,-4929.0,0.436,-0.642,0.613,-0.148
6712229,-2621.0,-6203.0,-5069.0,0.431,-0.643,0.612,-0.163
6712245,-2423.0,-6469.0,-4505.0,0.424,-0.646,0.61,-0.177
6712261,-2203.0,-5367.0,-4641.0,0.418,-0.648,0.608,-0.189
6712277,-1531.0,-6529.0,-5027.0,0.412,-0.649,0.607,-0.201
6712294,-1577.0,-7995.0,-4947.0,0.406,-0.651,0.605,-0.213
6712311,-1687.0,-5601.0,-4881.0,0.399,-0.653,0.604,-0.224
6712337,-1873.0,-6583.0,-4789.0,0.391,-0.656,0.602,-0.234
6712353,-1447.0,-6315.0,-5049.0,0.384,-0.659,0.6,-0.242
6712370,-901.0,-6917.0,-5159.0,0.377,-0.662,0.598,-0.251
6712386,-637.0,-6625.0,-5493.0,0.37,-0.664,0.595,-0.259
6712403,-467.0,-7111.0,-5133.0,0.364,-0.667,0.593,-0.267
6712419,-263.0,-7551.0,-5275.0,0.358,-0.668,0.591,-0.275
6712436,-453.0,-7261.0,-5435.0,0.352,-0.67,0.589,-0.283
6712452,-395.0,-6809.0,-5445.0,0.347,-0.671,0.587,-0.29
6712469,-193.0,-6741.0,-5391.0,0.343,-0.672,0.586,-0.296
6712486,481.0,-7563.0,-5791.0,0.341,-0.672,0.584,-0.302
6712512,347.0,-8661.0,-6185.0,0.338,-0.672,0.582,-0.309
6712529,-171.0,-8153.0,-6089.0,0.336,-0.672,0.581,-0.315
6712545,-623.0,-8409.0,-5923.0,0.333,-0.672,0.579,-0.319
6712561,-153.0,-9263.0,-6509.0,0.332,-0.671,0.579,-0.322
6712577,147.0,-9457.0,-7051.0,0.33,-0.671,0.579,-0.324
6712593,-233.0,-9919.0,-7443.0,0.328,-0.671,0.58,-0.325
6712619,-779.0,-10271.0,-7357.0,0.326,-0.671,0.583,-0.323
6712636,-467.0,-10883.0,-7491.0,0.325,-0.671,0.586,-0.318
6712653,-391.0,-10091.0,-7401.0,0.324,-0.67,0.59,-0.312
6712669,-309.0,-9185.0,-7471.0,0.325,-0.67,0.595,-0.303
6712685,-253.0,-9331.0,-7551.0,0.327,-0.668,0.601,-0.293
6712701,-405.0,-8821.0,-7335.0,0.332,-0.666,0.606,-0.282
6712717,-443.0,-8633.0,-7029.0,0.339,-0.663,0.61,-0.272
6712734,-447.0,-8565.0,-6585.0,0.347,-0.659,0.614,-0.262
6712760,-571.0,-7657.0,-6217.0,0.356,-0.655,0.616,-0.252
6712776,-581.0,-6785.0,-5737.0,0.366,-0.651,0.619,-0.243
6712793,-691.0,-6389.0,-5665.0,0.377,-0.646,0.622,-0.233
6712809,-1543.0,-5221.0,-5111.0,0.388,-0.641,0.624,-0.221
6712825,-1745.0,-6385.0,-5263.0,0.399,-0.636,0.627,-0.209
6712841,-1987.0,-6675.0,-5145.0,0.411,-0.631,0.628,-0.198
6712867,-2215.0,-5795.0,-4677.0,0.423,-0.627,0.628,-0.187
6712883,-2319.0,-4781.0,-4383.0,0.434,-0.622,0.627,-0.175
6712899,-2109.0,-4947.0,-4543.0,0.443,-0.619,0.628,-0.163
6712915,-2259.0,-5279.0,-4567.0,0.453,-0.614,0.628,-0.151
6712932,-2883.0,-5539.0,-3967.0,0.462,-0.61,0.629,-0.139
6712948,-3045.0,-4451.0,-3819.0,0.47,-0.607,0.629,-0.127
6712964,-3389.0,-5635.0,-3873.0,0.477,-0.603,0.628,-0.115
6712990,-3733.0,-5929.0,-4007.0,0.484,-0.601,0.628,-0.103
6713006,-4157.0,-3839.0,-3661.0,0.49,-0.599,0.626,-0.092
6713023,-3267.0,-3421.0,-3131.0,0.496,-0.598,0.625,-0.08
6713039,-3401.0,-4921.0,-3491.0,0.501,-0.596,0.624,-0.068
6713055,-3589.0,-4285.0,-3617.0,0.505,-0.595,0.623,-0.055
6713071,-3749.0,-4617.0,-3409.0,0.509,-0.594,0.622,-0.043
6713098,-4259.0,-4815.0,-3451.0,0.512,-0.593,0.621,-0.032
6713114,-3967.0,-3105.0,-2805.0,0.515,-0.592,0.619,-0.021
6713130,-3461.0,-3527.0,-2333.0,0.517,-0.592,0.618,-0.009
6713146,-3135.0,-3739.0,-2075.0,0.52,-0.591,0.617,0.002
6713162,-2387.0,-3279.0,-1779.0,0.523,-0.59,0.615,0.011
6713178,-2411.0,-2681.0,-1527.0,0.526,-0.589,0.614,0.018
6713194,-2549.0,-3023.0,-1787.0,0.526,-0.59,0.613,0.022
6713220,-2633.0,-3333.0,-1481.0,0.525,-0.591,0.612,0.024
6713237,-3001.0,-3819.0,-2015.0,0.523,-0.595,0.611,0.022
6713253,-2865.0,-2921.0,-1337.0,0.52,-0.598,0.609,0.017
6713269,-3371.0,-2137.0,-1351.0,0.516,-0.603,0.608,0.01
6713285,-3533.0,-1883.0,-1443.0,0.512,-0.608,0.607,0.0
6713301,-3925.0,-4169.0,-1945.0,0.508,-0.612,0.606,-0.01
6713318,-3939.0,-3441.0,-2815.0,0.504,-0.616,0.605,-0.021
6713345,-4499.0,-5169.0,-3301.0,0.499,-0.618,0.606,-0.032
6713361,-4563.0,-5121.0,-3155.0,0.493,-0.62,0.608,-0.044
6713377,-4997.0,-5117.0,-2865.0,0.486,-0.623,0.61,-0.056
6713393,-5005.0,-5109.0,-3785.0,0.478,-0.626,0.612,-0.067
6713410,-4625.0,-5083.0,-4829.0,0.471,-0.629,0.614,-0.078
6713426,-4193.0,-6023.0,-4807.0,0.464,-0.631,0.615,-0.09
6713452,-3625.0,-6803.0,-5063.0,0.457,-0.632,0.618,-0.102
6713469,-4009.0,-6093.0,-4281.0,0.45,-0.633,0.619,-0.115
6713485,-3637.0,-5931.0,-4761.0,0.443,-0.634,0.621,-0.127
6713501,-3197.0,-5425.0,-4913.0,0.437,-0.634,0.622,-0.139
6713518,-2499.0,-5349.0,-4911.0,0.432,-0.634,0.623,-0.151
6713535,-1971.0,-6329.0,-5251.0,0.427,-0.634,0.624,-0.163
6713552,-2215.0,-6677.0,-5111.0,0.422,-0.633,0.624,-0.176
6713569,-2451.0,-6099.0,-4733.0,0.418,-0.633,0.624,-0.189
6713586,-2509.0,-5387.0,-4647.0,0.413,-0.632,0.624,-0.201
6713603,-1923.0,-6373.0,-4921.0,0.409,-0.632,0.623,-0.212
6713620,-1465.0,-6741.0,-5665.0,0.405,-0.632,0.623,-0.222
6713637,-1913.0,-6769.0,-5057.0,0.4,-0.632,0.622,-0.233
6713664,-1797.0,-6487.0,-4843.0,0.395,-0.632,0.621,-0.242
6713680,-1539.0,-7611.0,-5461.0,0.389,-0.633,0.62,-0.25
6713696,-1569.0,-6943.0,-5399.0,0.383,-0.635,0.619,-0.258
6713713,-1391.0,-6295.0,-5163.0,0.376,-0.637,0.618,-0.265
6713729,-1087.0,-6761.0,-5345.0,0.37,-0.639,0.617,-0.271
6713745,-431.0,-7003.0,-5643.0,0.364,-0.641,0.616,-0.277
6713761,-297.0,-7021.0,-5945.0,0.358,-0.644,0.614,-0.283
6713787,-761.0,-7297.0,-5349.0,0.352,-0.646,0.613,-0.289
6713803,-483.0,-7553.0,-5497.0,0.347,-0.648,0.611,-0.294
6713820,-223.0,-7531.0,-5839.0,0.343,-0.65,0.609,-0.299
6713837,-37.0,-7737.0,-6251.0,0.339,-0.652,0.607,-0.304
6713854,-95.0,-8233.0,-6543.0,0.335,-0.653,0.604,-0.308
6713870,-309.0,-9053.0,-6915.0,0.332,-0.655,0.603,-0.312
6713887,-627.0,-9973.0,-7173.0,0.329,-0.656,0.602,-0.315
6713904,-903.0,-9909.0,-7275.0,0.325,-0.657,0.602,-0.316
6713921,-649.0,-9983.0,-7375.0,0.323,-0.659,0.602,-0.315
6713947,-393.0,-9775.0,-7811.0,0.321,-0.659,0.605,-0.311
6713964,-473.0,-9303.0,-7497.0,0.319,-0.66,0.608,-0.304
6713980,-451.0,-9155.0,-7217.0,0.32,-0.659,0.612,-0.296
6713996,-355.0,-9129.0,-7049.0,0.324,-0.658,0.616,-0.287
6714012,-329.0,-9159.0,-7153.0,0.329,-0.655,0.62,-0.279
6714028,-327.0,-8839.0,-6565.0,0.337,-0.652,0.623,-0.271
6714054,-287.0,-8583.0,-6573.0,0.345,-0.648,0.626,-0.265
6714070,-951.0,-7545.0,-6345.0,0.355,-0.642,0.628,-0.258
6714086,-1533.0,-6913.0,-5713.0,0.366,-0.637,0.631,-0.251
6714102,-1465.0,-5719.0,-6091.0,0.377,-0.631,0.633,-0.242
6714119,-1999.0,-6543.0,-5455.0,0.388,-0.625,0.636,-0.233
6714136,-1997.0,-6529.0,-5241.0,0.399,-0.619,0.639,-0.223
6714153,-2253.0,-6443.0,-4747.0,0.41,-0.614,0.64,-0.213
6714170,-2155.0,-6161.0,-4681.0,0.421,-0.609,0.641,-0.204
6714187,-2217.0,-5965.0,-4447.0,0.431,-0.604,0.641,-0.195
6714203,-2505.0,-5631.0,-4357.0,0.44,-0.6,0.642,-0.186
6714230,-2893.0,-4547.0,-3783.0,0.448,-0.597,0.642,-0.176
6714246,-2705.0,-4587.0,-3757.0,0.455,-0.595,0.642,-0.164
6714262,-2491.0,-4677.0,-4037.0,0.461,-0.594,0.641,-0.153
6714278,-2649.0,-5119.0,-4033.0,0.467,-0.593,0.64,-0.142
6714294,-2929.0,-5199.0,-3759.0,0.473,-0.593,0.638,-0.132
6714310,-3361.0,-4323.0,-3543.0,0.477,-0.593,0.637,-0.122
6714337,-3539.0,-4431.0,-3209.0,0.48,-0.594,0.636,-0.111
6714353,-3551.0,-5207.0,-3479.0,0.482,-0.595,0.635,-0.099
6714370,-3755.0,-5461.0,-3827.0,0.485,-0.597,0.634,-0.088
6714386,-3981.0,-4641.0,-3729.0,0.486,-0.598,0.632,-0.078
6714402,-4013.0,-4423.0,-3531.0,0.487,-0.6,0.631,-0.067
6714418,-3883.0,-4605.0,-3753.0,0.488,-0.601,0.631,-0.055
6714434,-4161.0,-5757.0,-3857.0,0.488,-0.602,0.63,-0.045
6714461,-4079.0,-3581.0,-3059.0,0.489,-0.603,0.629,-0.035
6714477,-3569.0,-3875.0,-2749.0,0.491,-0.602,0.629,-0.025
6714494,-3023.0,-3935.0,-2643.0,0.495,-0.602,0.627,-0.016
6714510,-2307.0,-3421.0,-2637.0,0.497,-0.602,0.625,-0.009
6714526,-2179.0,-3335.0,-2181.0,0.5,-0.602,0.623,-0.005
6714542,-2157.0,-3353.0,-2123.0,0.501,-0.602,0.621,-0.003
6714558,-2245.0,-3399.0,-1777.0,0.501,-0.604,0.62,-0.005
6714584,-2435.0,-3435.0,-1995.0,0.501,-0.605,0.619,-0.009
6714601,-2799.0,-3101.0,-1853.0,0.499,-0.608,0.617,-0.017
6714618,-2911.0,-2793.0,-1983.0,0.497,-0.61,0.616,-0.026
6714635,-3117.0,-3105.0,-2183.0,0.495,-0.612,0.615,-0.037
6714651,-3363.0,-4607.0,-2879.0,0.494,-0.613,0.615,-0.048
6714667,-3365.0,-5075.0,-3457.0,0.491,-0.613,0.616,-0.062
6714683,-4039.0,-4537.0,-2659.0,0.487,-0.614,0.617,-0.076
6714700,-4399.0,-5169.0,-3163.0,0.48,-0.615,0.619,-0.088
6714717,-4401.0,-5717.0,-3723.0,0.473,-0.617,0.621,-0.099
6714744,-3929.0,-5319.0,-3943.0,0.467,-0.618,0.623,-0.11
6714760,-3335.0,-6075.0,-4651.0,0.46,-0.619,0.625,-0.121
6714776,-3233.0,-5347.0,-4775.0,0.452,-0.62,0.627,-0.133
6714792,-3571.0,-6313.0,-5015.0,0.444,-0.622,0.629,-0.144
6714808,-3423.0,-5459.0,-5277.0,0.436,-0.623,0.63,-0.155
6714824,-3483.0,-7041.0,-5163.0,0.428,-0.625,0.631,-0.166
6714851,-3151.0,-6059.0,-4827.0,0.42,-0.627,0.632,-0.175
6714867,-2633.0,-6053.0,-4777.0,0.413,-0.629,0.633,-0.183
6714884,-2077.0,-6659.0,-5485.0,0.405,-0.63,0.634,-0.191
6714901,-2175.0,-6841.0,-5633.0,0.398,-0.632,0.635,-0.199
6714918,-2621.0,-6197.0,-5225.0,0.392,-0.633,0.634,-0.207
6714934,-2327.0,-6471.0,-5249.0,0.387,-0.634,0.634,-0.214
6714951,-1691.0,-6563.0,-5197.0,0.383,-0.635,0.634,-0.221
6714967,-1303.0,-6803.0,-5285.0,0.378,-0.635,0.633,-0.229
6714984,-1595.0,-6165.0,-5451.0,0.374,-0.635,0.633,-0.236
6715000,-1943.0,-6657.0,-5007.0,0.371,-0.636,0.631,-0.243
6715027,-1675.0,-6749.0,-5255.0,0.369,-0.636,0.63,-0.251
6715044,-1577.0,-6723.0,-5243.0,0.368,-0.636,0.628,-0.258
6715060,-1099.0,-6777.0,-5327.0,0.366,-0.635,0.627,-0.264
6715076,-1077.0,-6913.0,-5081.0,0.364,-0.635,0.625,-0.271
6715093,-913.0,-6543.0,-5035.0,0.362,-0.635,0.624,-0.277
6715110,-847.0,-6809.0,-5031.0,0.36,-0.634,0.623,-0.283
6715127,-523.0,-7109.0,-5201.0,0.359,-0.634,0.621,-0.289
6715144,-477.0,-7093.0,-5163.0,0.356,-0.634,0.619,-0.296
6715161,-385.0,-7101.0,-5389.0,0.354,-0.634,0.617,-0.302
6715178,-581.0,-6913.0,-5469.0,0.352,-0.634,0.616,-0.307
6715195,-317.0,-7715.0,-5725.0,0.35,-0.635,0.614,-0.313
6715212,-11.0,-7913.0,-6201.0,0.347,-0.636,0.612,-0.318
6715239,-745.0,-9399.0,-6615.0,0.344,-0.637,0.611,-0.322
6715255,-923.0,-9727.0,-7055.0,0.339,-0.638,0.61,-0.325
6715271,-1151.0,-10121.0,-7339.0,0.333,-0.64,0.611,-0.325
6715287,-1261.0,-10809.0,-7533.0,0.327,-0.643,0.614,-0.321
6715303,-483.0,-10097.0,-7947.0,0.321,-0.645,0.618,-0.315
6715319,-215.0,-9779.0,-7847.0,0.316,-0.647,0.623,-0.305
6715345,-151.0,-9925.0,-7659.0,0.314,-0.648,0.628,-0.294
6715362,243.0,-10213.0,-7933.0,0.315,-0.648,0.633,-0.284
6715379,57.0,-9651.0,-7709.0,0.318,-0.647,0.637,-0.274
6715396,-845.0,-9179.0,-6693.0,0.325,-0.644,0.639,-0.266
6715413,-675.0,-6419.0,-6355.0,0.334,-0.642,0.64,-0.259
6715429,-443.0,-5565.0,-6299.0,0.343,-0.638,0.643,-0.248
6715446,-531.0,-6635.0,-6243.0,0.354,-0.634,0.646,-0.237
6715462,-1177.0,-5839.0,-5493.0,0.366,-0.629,0.648,-0.226
6715479,-1257.0,-7025.0,-5403.0,0.379,-0.623,0.649,-0.215
6715496,-2023.0,-5963.0,-4697.0,0.393,-0.618,0.65,-0.205
6715523,-2159.0,-5533.0,-4575.0,0.406,-0.612,0.649,-0.196
6715539,-1883.0,-4213.0,-4543.0,0.419,-0.608,0.649,-0.185
6715556,-1839.0,-4981.0,-4831.0,0.429,-0.604,0.649,-0.174
6715572,-2405.0,-3909.0,-4315.0,0.439,-0.6,0.649,-0.163
6715588,-2733.0,-4579.0,-3911.0,0.448,-0.596,0.649,-0.151
6715604,-2853.0,-5711.0,-3967.0,0.456,-0.593,0.649,-0.14
6715620,-3317.0,-4575.0,-3333.0,0.464,-0.59,0.648,-0.129
6715646,-3347.0,-5043.0,-3835.0,0.469,-0.59,0.647,-0.117
6715663,-3787.0,-3855.0,-3325.0,0.474,-0.589,0.646,-0.106
6715680,-3459.0,-3897.0,-3745.0,0.478,-0.59,0.645,-0.094
6715697,-3773.0,-5231.0,-3885.0,0.48,-0.59,0.644,-0.081
6715714,-4317.0,-5221.0,-3873.0,0.483,-0.591,0.643,-0.07
6715730,-4441.0,-3971.0,-3927.0,0.484,-0.592,0.642,-0.058
6715746,-5225.0,-5025.0,-4069.0,0.484,-0.594,0.641,-0.044
6715763,-4893.0,-3963.0,-3699.0,0.485,-0.596,0.639,-0.03
6715780,-4241.0,-4695.0,-3779.0,0.488,-0.597,0.637,-0.015
6715797,-3171.0,-4129.0,-3737.0,0.49,-0.598,0.634,0.0
6715823,-3265.0,-4243.0,-2809.0,0.493,-0.598,0.632,0.013
6715839,-2833.0,-3219.0,-2203.0,0.494,-0.599,0.629,0.024
6715855,-2431.0,-3515.0,-1945.0,0.496,-0.601,0.627,0.033
6715871,-2267.0,-2979.0,-1555.0,0.497,-0.602,0.624,0.038
6715887,-2281.0,-2675.0,-2029.0,0.498,-0.603,0.622,0.04
6715903,-2251.0,-2725.0,-2173.0,0.498,-0.605,0.62,0.039
6715929,-2437.0,-2547.0,-2105.0,0.497,-0.608,0.618,0.035
6715945,-3061.0,-2931.0,-2217.0,0.495,-0.611,0.617,0.027
6715962,-3469.0,-3039.0,-2329.0,0.492,-0.614,0.617,0.017
6715978,-4025.0,-3223.0,-2181.0,0.489,-0.617,0.616,0.004
6715995,-4445.0,-3509.0,-2779.0,0.486,-0.62,0.616,-0.009
6716012,-4573.0,-4291.0,-2929.0,0.484,-0.622,0.615,-0.023
6716029,-4459.0,-5335.0,-3829.0,0.483,-0.622,0.615,-0.038
6716046,-4487.0,-5061.0,-3201.0,0.479,-0.623,0.616,-0.052
6716063,-4681.0,-6411.0,-3327.0,0.474,-0.624,0.618,-0.065
6716089,-4387.0,-5551.0,-4065.0,0.467,-0.626,0.62,-0.077
6716105,-4251.0,-5645.0,-4309.0,0.461,-0.627,0.621,-0.088
6716121,-3757.0,-5737.0,-5177.0,0.455,-0.628,0.623,-0.1
6716137,-3807.0,-5449.0,-4963.0,0.449,-0.629,0.625,-0.113
6716153,-3719.0,-6671.0,-5087.0,0.443,-0.629,0.627,-0.125
6716169,-3491.0,-5143.0,-4865.0,0.437,-0.629,0.629,-0.137
6716195,-3453.0,-6321.0,-4981.0,0.431,-0.629,0.63,-0.147
6716212,-3073.0,-6179.0,-5389.0,0.426,-0.628,0.632,-0.157
6716229,-2915.0,-6325.0,-5199.0,0.421,-0.628,0.633,-0.166
6716246,-2673.0,-5719.0,-5135.0,0.416,-0.628,0.634,-0.175
6716262,-2373.0,-5815.0,-4971.0,0.412,-0.628,0.635,-0.183
6716279,-2043.0,-6045.0,-4965.0,0.408,-0.627,0.635,-0.191
6716296,-1719.0,-5917.0,-5051.0,0.405,-0.627,0.635,-0.198
6716313,-1819.0,-6971.0,-5239.0,0.401,-0.627,0.635,-0.207
6716330,-2583.0,-6465.0,-4831.0,0.398,-0.627,0.634,-0.216
6716346,-2323.0,-5963.0,-4731.0,0.395,-0.627,0.633,-0.224
6716373,-1963.0,-7157.0,-5097.0,0.392,-0.627,0.633,-0.231
6716389,-1813.0,-6649.0,-5009.0,0.389,-0.627,0.632,-0.238
6716405,-1659.0,-6635.0,-5235.0,0.387,-0.627,0.631,-0.244
6716421,-1747.0,-6897.0,-5043.0,0.384,-0.627,0.629,-0.251
6716437,-1571.0,-7217.0,-4993.0,0.381,-0.627,0.628,-0.259
6716453,-1525.0,-6477.0,-4747.0,0.378,-0.628,0.626,-0.265
6716469,-991.0,-6351.0,-4819.0,0.376,-0.628,0.625,-0.272
6716495,-567.0,-6647.0,-4881.0,0.373,-0.628,0.624,-0.278
6716511,-461.0,-6773.0,-4947.0,0.37,-0.629,0.622,-0.285
6716528,-687.0,-7025.0,-4915.0,0.367,-0.629,0.62,-0.292
6716544,-671.0,-7163.0,-5037.0,0.365,-0.629,0.618,-0.299
6716561,-275.0,-7591.0,-5701.0,0.363,-0.629,0.616,-0.306
6716578,-761.0,-8005.0,-5855.0,0.361,-0.63,0.613,-0.312
6716595,-669.0,-9193.0,-6321.0,0.358,-0.63,0.612,-0.317
6716612,-1201.0,-9895.0,-6661.0,0.354,-0.631,0.611,-0.321
6716629,-1417.0,-10377.0,-7463.0,0.351,-0.632,0.612,-0.322
6716646,-1563.0,-11251.0,-7187.0,0.347,-0.633,0.613,-0.321
6716672,-1039.0,-11537.0,-7647.0,0.342,-0.634,0.617,-0.317
6716688,-1199.0,-9839.0,-7787.0,0.339,-0.635,0.621,-0.31
6716704,-1047.0,-10121.0,-7983.0,0.337,-0.636,0.627,-0.299
6716720,-1027.0,-10089.0,-7393.0,0.338,-0.635,0.632,-0.288
6716736,-937.0,-9287.0,-7115.0,0.343,-0.634,0.637,-0.275
6716752,-731.0,-8849.0,-6993.0,0.349,-0.631,0.641,-0.262
6716778,-837.0,-8171.0,-6519.0,0.358,-0.627,0.644,-0.25
6716795,-1039.0,-7257.0,-5865.0,0.369,-0.623,0.647,-0.239
6716812,-863.0,-6993.0,-5869.0,0.38,-0.617,0.65,-0.228
6716829,-1419.0,-6775.0,-5459.0,0.392,-0.611,0.652,-0.218
6716845,-2253.0,-5849.0,-4843.0,0.405,-0.605,0.654,-0.208
6716862,-2909.0,-5299.0,-4835.0,0.417,-0.598,0.655,-0.197
6716878,-2837.0,-5849.0,-4345.0,0.429,-0.592,0.656,-0.185
6716895,-2473.0,-5231.0,-4511.0,0.44,-0.587,0.657,-0.174
6716912,-2657.0,-4863.0,-4553.0,0.449,-0.583,0.657,-0.162
6716938,-3187.0,-4685.0,-4329.0,0.457,-0.58,0.658,-0.149
6716954,-3585.0,-4539.0,-4419.0,0.464,-0.577,0.659,-0.135
6716970,-4233.0,-4437.0,-4015.0,0.47,-0.575,0.659,-0.12
6716986,-4611.0,-6413.0,-4757.0,0.475,-0.574,0.658,-0.105
6717002,-4891.0,-3121.0,-3863.0,0.48,-0.575,0.657,-0.089
6717028,-4771.0,-2861.0,-3663.0,0.485,-0.576,0.654,-0.072
6717044,-4585.0,-5909.0,-4199.0,0.488,-0.578,0.651,-0.054
6717061,-3745.0,-4999.0,-4317.0,0.493,-0.579,0.648,-0.039
6717078,-3901.0,-3991.0,-4115.0,0.497,-0.58,0.645,-0.024
6717095,-4393.0,-3853.0,-3867.0,0.5,-0.581,0.642,-0.008
6717112,-4501.0,-4493.0,-4083.0,0.503,-0.581,0.64,0.008
6717129,-4475.0,-4507.0,-4149.0,0.506,-0.581,0.637,0.025
6717146,-4309.0,-4583.0,-4025.0,0.508,-0.581,0.635,0.043
6717162,-3629.0,-2315.0,-2921.0,0.512,-0.579,0.632,0.06
6717178,-3171.0,-3311.0,-3193.0,0.516,-0.576,0.629,0.075
6717195,-3825.0,-4149.0,-4105.0,0.52,-0.574,0.627,0.089
6717212,-2957.0,-1927.0,-1951.0,0.523,-0.572,0.624,0.1
6717239,-3299.0,-3061.0,-2171.0,0.524,-0.572,0.621,0.11
6717255,-3759.0,-2853.0,-2651.0,0.526,-0.572,0.619,0.117
6717271,-4477.0,-2377.0,-2043.0,0.527,-0.573,0.616,0.122
6717287,-4301.0,-2485.0,-1833.0,0.527,-0.574,0.614,0.124
6717303,-4839.0,-2909.0,-2571.0,0.528,-0.576,0.612,0.124
6717319,-6285.0,-3399.0,-3005.0,0.529,-0.577,0.61,0.122
6717345,-6597.0,-2849.0,-2169.0,0.529,-0.578,0.609,0.121
6717362,-6923.0,-3679.0,-2597.0,0.529,-0.581,0.608,0.12
6717378,-7463.0,-4417.0,-3459.0,0.528,-0.583,0.607,0.118
6717394,-7671.0,-3831.0,-3309.0,0.526,-0.585,0.606,0.118
6717410,-7525.0,-3949.0,-3469.0,0.525,-0.587,0.605,0.119
6717426,-6903.0,-4021.0,-3759.0,0.524,-0.589,0.604,0.121
6717452,-6805.0,-4351.0,-4241.0,0.523,-0.59,0.602,0.123
6717468,-6427.0,-3637.0,-3801.0,0.523,-0.591,0.601,0.126
6717484,-6207.0,-4049.0,-3875.0,0.523,-0.592,0.6,0.129
6717500,-5951.0,-3751.0,-3659.0,0.524,-0.592,0.598,0.131
6717516,-6183.0,-3999.0,-3845.0,0.525,-0.592,0.597,0.133
6717532,-6161.0,-3727.0,-3561.0,0.527,-0.591,0.596,0.135
6717558,-6103.0,-3575.0,-3277.0,0.529,-0.59,0.594,0.136
6717574,-6025.0,-3637.0,-3431.0,0.531,-0.589,0.593,0.137
6717590,-6353.0,-3907.0,-3535.0,0.534,-0.587,0.593,0.136
6717607,-6283.0,-4777.0,-3125.0,0.538,-0.584,0.593,0.136
6717623,-6511.0,-3835.0,-2869.0,0.541,-0.581,0.593,0.135
6717639,-6671.0,-3679.0,-3257.0,0.544,-0.579,0.592,0.135
6717655,-6575.0,-3775.0,-3245.0,0.546,-0.576,0.593,0.135
6717681,-6591.0,-3569.0,-3085.0,0.549,-0.573,0.593,0.135
6717698,-6623.0,-3711.0,-3255.0,0.552,-0.57,0.594,0.135
6717714,-6525.0,-3581.0,-3067.0,0.554,-0.567,0.594,0.135
6717731,-6545.0,-3229.0,-3173.0,0.557,-0.564,0.594,0.136
6717747,-6151.0,-3107.0,-2993.0,0.559,-0.562,0.594,0.137
6717763,-5973.0,-3331.0,-3015.0,0.562,-0.559,0.594,0.137
6717779,-4825.0,-3769.0,-2625.0,0.564,-0.557,0.593,0.138
6717806,-5335.0,-3627.0,-2709.0,0.567,-0.555,0.593,0.137
6717822,-5673.0,-3111.0,-2745.0,0.571,-0.552,0.592,0.137
6717838,-5633.0,-2991.0,-2679.0,0.574,-0.55,0.591,0.137
6717854,-5505.0,-3127.0,-2819.0,0.578,-0.547,0.59,0.136
6717870,-5735.0,-2769.0,-2907.0,0.582,-0.544,0.589,0.135
6717886,-4795.0,-2897.0,-2009.0,0.586,-0.541,0.588,0.134
6717912,-5213.0,-2857.0,-2049.0,0.59,-0.538,0.587,0.132
6717928,-5581.0,-2905.0,-2453.0,0.595,-0.534,0.586,0.13
6717945,-4499.0,-2405.0,-1509.0,0.601,-0.53,0.585,0.126
6717962,-5779.0,-2821.0,-1779.0,0.605,-0.526,0.585,0.122
6717979,-5753.0,-2743.0,-1981.0,0.609,-0.523,0.584,0.12
6717996,-5353.0,-3157.0,-2313.0,0.614,-0.52,0.582,0.117
6718012,-5255.0,-3809.0,-2233.0,0.619,-0.516,0.582,0.114
6718029,-5047.0,-2833.0,-823.0,0.625,-0.51,0.581,0.109
6718045,-4863.0,-2923.0,-1273.0,0.63,-0.505,0.581,0.104
6718071,-4621.0,-2781.0,-1085.0,0.634,-0.502,0.58,0.099
6718088,-5139.0,-2085.0,-1575.0,0.638,-0.499,0.579,0.093
6718104,-5369.0,-2705.0,-969.0,0.643,-0.496,0.577,0.086
6718120,-5295.0,-3445.0,-1567.0,0.648,-0.493,0.575,0.078
6718136,-6127.0,-4511.0,-1855.0,0.654,-0.49,0.573,0.07
6718152,-5013.0,-2903.0,-759.0,0.66,-0.486,0.57,0.06
6718168,-5319.0,-3683.0,-967.0,0.665,-0.483,0.567,0.052
6718195,-5541.0,-4697.0,-627.0,0.672,-0.479,0.563,0.044
6718211,-6891.0,-7259.0,377.0,0.68,-0.472,0.56,0.037
6718228,-5677.0,-3051.0,-323.0,0.689,-0.463,0.556,0.028
6718244,-5951.0,-3915.0,-323.0,0.696,-0.458,0.552,0.02
6718261,-6385.0,-4947.0,191.0,0.704,-0.451,0.548,0.013
6718278,-6577.0,-5507.0,967.0,0.713,-0.443,0.544,0.005
6718294,-6777.0,-5019.0,1271.0,0.723,-0.431,0.54,-0.003
6718311,-6847.0,-3831.0,1323.0,0.732,-0.419,0.536,-0.011
