timeMs,ax,ay,az,q0,q1,q2,q3
1002678,-4858.0,-6808.0,1334.0,0.048,-0.441,-0.485,0.754
1002694,-5284.0,-6838.0,1098.0,0.045,-0.444,-0.482,0.754
1002720,-5074.0,-6368.0,1308.0,0.041,-0.446,-0.48,0.754
1002736,-4722.0,-7512.0,892.0,0.036,-0.449,-0.478,0.754
1002753,-4872.0,-6952.0,760.0,0.032,-0.452,-0.474,0.755
1002770,-5086.0,-6762.0,1102.0,0.027,-0.455,-0.47,0.756
1002787,-5292.0,-6864.0,1044.0,0.022,-0.457,-0.467,0.756
1002804,-5400.0,-5768.0,344.0,0.016,-0.46,-0.464,0.757
1002821,-4980.0,-6414.0,506.0,0.009,-0.461,-0.461,0.758
1002838,-4718.0,-6852.0,732.0,0.002,-0.463,-0.456,0.76
1002855,-4756.0,-7188.0,966.0,0.005,0.465,0.451,-0.762
1002872,-4976.0,-6564.0,890.0,0.011,0.466,0.447,-0.764
1002889,-5100.0,-6112.0,686.0,0.017,0.467,0.443,-0.765
1002906,-5070.0,-4898.0,228.0,0.022,0.468,0.441,-0.766
1002933,-5678.0,-5090.0,54.0,0.028,0.468,0.438,-0.767
1002950,-5406.0,-5966.0,442.0,0.032,0.469,0.434,-0.769
1002966,-6052.0,-5840.0,898.0,0.036,0.469,0.429,-0.771
1002983,-6082.0,-5150.0,1222.0,0.04,0.469,0.424,-0.774
1003000,-5676.0,-4692.0,1658.0,0.043,0.469,0.419,-0.776
1003017,-6456.0,-2588.0,-214.0,0.046,0.467,0.415,-0.779
1003033,-6502.0,-4628.0,150.0,0.051,0.465,0.413,-0.782
1003050,-5280.0,-5830.0,2140.0,0.056,0.461,0.409,-0.785
1003067,-5392.0,-3804.0,2176.0,0.061,0.458,0.404,-0.79
1003084,-4590.0,-3460.0,872.0,0.067,0.453,0.401,-0.793
1003111,-5882.0,-4836.0,436.0,0.074,0.448,0.398,-0.797
1003127,-4822.0,-5130.0,1666.0,0.08,0.442,0.393,-0.802
1003143,-4850.0,-5606.0,3476.0,0.086,0.436,0.389,-0.807
1003159,-4790.0,-3610.0,3714.0,0.091,0.432,0.384,-0.811
1003175,-5172.0,-3368.0,2574.0,0.097,0.427,0.381,-0.814
1003191,-4786.0,-5426.0,1176.0,0.103,0.425,0.374,-0.818
1003208,-5002.0,-3626.0,1222.0,0.106,0.423,0.362,-0.824
1003225,-6014.0,-2302.0,1852.0,0.109,0.421,0.35,-0.83
1003251,-4470.0,-3780.0,2720.0,0.112,0.419,0.337,-0.836
1003268,-4050.0,-454.0,2614.0,0.11,0.417,0.323,-0.842
1003285,-4398.0,-1036.0,2802.0,0.108,0.415,0.311,-0.848
1003302,-4978.0,-2756.0,3582.0,0.106,0.412,0.298,-0.854
1003319,-4994.0,-3486.0,4540.0,0.103,0.409,0.285,-0.861
1003336,-4904.0,-4626.0,4372.0,0.1,0.406,0.27,-0.867
1003353,-5732.0,-6154.0,3060.0,0.098,0.405,0.25,-0.874
1003370,-5638.0,1330.0,1790.0,0.093,0.4,0.23,-0.882
1003387,-4586.0,3284.0,2614.0,0.089,0.393,0.218,-0.889
1003404,-4554.0,288.0,4528.0,0.084,0.383,0.212,-0.895
1003421,-4646.0,-2888.0,5020.0,0.077,0.374,0.205,-0.901
1003438,-6188.0,-2744.0,4660.0,0.073,0.365,0.194,-0.908
1003464,-6358.0,-2298.0,5316.0,0.072,0.354,0.184,-0.914
1003481,-5664.0,-1326.0,5470.0,0.073,0.342,0.176,-0.92
1003497,-2942.0,-1504.0,5652.0,0.073,0.333,0.168,-0.925
1003513,-4500.0,-2528.0,5630.0,0.075,0.324,0.158,-0.93
1003529,-4772.0,-3472.0,6374.0,0.079,0.317,0.143,-0.934
1003545,-5770.0,-494.0,6622.0,0.083,0.31,0.126,-0.939
1003561,-4962.0,-614.0,6050.0,0.089,0.303,0.112,-0.942
1003588,-5020.0,-2230.0,5400.0,0.096,0.298,0.096,-0.945
1003605,-5194.0,-2002.0,4918.0,0.101,0.293,0.075,-0.948
1003622,-4080.0,-2312.0,4838.0,0.105,0.29,0.048,-0.95
1003639,-3602.0,440.0,5382.0,0.107,0.288,0.016,-0.952
1003655,-4008.0,3644.0,6794.0,0.108,0.287,-0.019,-0.952
1003672,-4660.0,5128.0,7158.0,0.111,0.286,-0.046,-0.951
1003688,-4610.0,5354.0,6528.0,0.113,0.286,-0.07,-0.949
1003704,-5198.0,6944.0,6520.0,0.113,0.286,-0.091,-0.947
1003721,-4964.0,7968.0,6594.0,0.113,0.287,-0.108,-0.945
1003747,-5010.0,6936.0,7894.0,0.114,0.286,-0.121,-0.944
1003764,-5046.0,6370.0,7858.0,0.116,0.283,-0.129,-0.943
1003781,-5382.0,6660.0,7466.0,0.119,0.278,-0.133,-0.944
1003797,-4936.0,6034.0,7626.0,0.122,0.27,-0.133,-0.946
1003813,-3686.0,4086.0,7982.0,0.126,0.262,-0.133,-0.947
1003829,-2994.0,3048.0,8100.0,0.129,0.255,-0.136,-0.949
1003845,-3492.0,2826.0,8236.0,0.133,0.248,-0.143,-0.949
1003871,-3572.0,4192.0,7278.0,0.137,0.242,-0.149,-0.949
1003888,-3966.0,3108.0,7692.0,0.14,0.235,-0.154,-0.949
1003905,-3550.0,2230.0,8272.0,0.144,0.228,-0.16,-0.95
1003922,-3210.0,2056.0,9080.0,0.148,0.221,-0.168,-0.949
1003938,-3072.0,3512.0,8974.0,0.152,0.215,-0.176,-0.948
1003955,-2934.0,2854.0,8872.0,0.157,0.209,-0.186,-0.947
1003972,-2720.0,2828.0,8266.0,0.162,0.203,-0.196,-0.946
1003989,-2750.0,2794.0,7638.0,0.168,0.198,-0.207,-0.943
1004006,-2550.0,3942.0,7766.0,0.173,0.193,-0.22,-0.941
1004023,-1946.0,4176.0,8572.0,0.177,0.191,-0.236,-0.936
1004040,-1348.0,5550.0,8346.0,0.182,0.191,-0.257,-0.93
1004057,-2020.0,7460.0,8026.0,0.185,0.192,-0.279,-0.922
1004074,-2766.0,7612.0,6610.0,0.19,0.192,-0.295,-0.917
1004101,-3216.0,6462.0,5896.0,0.193,0.188,-0.304,-0.914
1004117,-2662.0,7088.0,5850.0,0.194,0.184,-0.313,-0.911
1004134,-2172.0,9096.0,8294.0,0.193,0.183,-0.322,-0.909
1004150,-2122.0,8532.0,10804.0,0.191,0.184,-0.33,-0.906
1004167,-2346.0,8250.0,10926.0,0.189,0.187,-0.334,-0.904
1004184,-2752.0,7728.0,9922.0,0.187,0.194,-0.337,-0.902
1004201,-3064.0,6924.0,8996.0,0.185,0.203,-0.338,-0.9
1004218,-4032.0,6608.0,6866.0,0.182,0.211,-0.337,-0.899
1004235,-3124.0,4674.0,5770.0,0.181,0.219,-0.333,-0.899
1004251,-2742.0,2840.0,5140.0,0.179,0.227,-0.33,-0.899
1004277,-2594.0,2632.0,4378.0,0.177,0.234,-0.331,-0.897
1004294,-2868.0,3360.0,3340.0,0.176,0.24,-0.333,-0.895
1004311,-2644.0,3624.0,3698.0,0.174,0.245,-0.335,-0.893
1004328,-2722.0,2952.0,4718.0,0.173,0.248,-0.34,-0.89
1004345,-2974.0,3834.0,4872.0,0.172,0.251,-0.345,-0.888
1004361,-3224.0,5368.0,4918.0,0.171,0.253,-0.351,-0.885
1004377,-3420.0,6806.0,5110.0,0.169,0.254,-0.356,-0.883
1004394,-3204.0,7002.0,6612.0,0.168,0.256,-0.36,-0.882
1004411,-3306.0,7640.0,7496.0,0.166,0.26,-0.363,-0.879
1004428,-4018.0,9492.0,6724.0,0.166,0.265,-0.364,-0.877
1004454,-4686.0,8552.0,6312.0,0.167,0.27,-0.36,-0.877
1004470,-5562.0,9314.0,5422.0,0.169,0.272,-0.35,-0.88
1004487,-5708.0,7030.0,5464.0,0.171,0.271,-0.337,-0.885
1004503,-4896.0,5252.0,5994.0,0.174,0.268,-0.324,-0.891
1004520,-3854.0,3652.0,5866.0,0.176,0.262,-0.313,-0.896
1004537,-2032.0,2552.0,5766.0,0.178,0.256,-0.304,-0.9
1004554,-2114.0,1814.0,5592.0,0.178,0.252,-0.298,-0.903
1004571,-2156.0,1898.0,5830.0,0.178,0.249,-0.295,-0.905
1004598,-1914.0,3518.0,6094.0,0.178,0.247,-0.297,-0.905
1004615,-2062.0,5324.0,6094.0,0.179,0.245,-0.3,-0.904
1004632,-2064.0,6344.0,5520.0,0.179,0.244,-0.304,-0.903
1004648,-2148.0,6276.0,4656.0,0.179,0.243,-0.307,-0.903
1004665,-1476.0,6106.0,4468.0,0.179,0.242,-0.309,-0.902
1004682,-1336.0,5244.0,4452.0,0.178,0.242,-0.314,-0.901
1004699,-1924.0,5628.0,4448.0,0.177,0.241,-0.32,-0.899
1004716,-2204.0,6508.0,4290.0,0.174,0.238,-0.325,-0.898
1004733,-2152.0,5090.0,5034.0,0.173,0.234,-0.328,-0.899
1004750,-374.0,4788.0,7586.0,0.171,0.23,-0.33,-0.9
1004767,-1884.0,3684.0,6966.0,0.169,0.228,-0.334,-0.899
1004784,-2166.0,5436.0,6714.0,0.168,0.227,-0.339,-0.897
1004801,-2452.0,5928.0,7140.0,0.168,0.226,-0.345,-0.895
1004818,-2566.0,6254.0,7130.0,0.17,0.224,-0.349,-0.894
1004835,-2596.0,6282.0,6894.0,0.174,0.222,-0.352,-0.893
1004862,-2170.0,5562.0,6964.0,0.178,0.219,-0.353,-0.892
1004878,-2072.0,5858.0,6286.0,0.183,0.215,-0.355,-0.891
1004894,-1878.0,5800.0,5422.0,0.187,0.212,-0.356,-0.89
1004911,-2046.0,5898.0,4738.0,0.191,0.21,-0.358,-0.89
1004928,-1356.0,6044.0,4686.0,0.195,0.207,-0.359,-0.889
1004944,-940.0,5656.0,4812.0,0.197,0.206,-0.362,-0.888
1004960,-756.0,5372.0,5004.0,0.199,0.206,-0.366,-0.885
1004986,-378.0,5174.0,5072.0,0.201,0.209,-0.373,-0.881
1005002,-350.0,4020.0,5056.0,0.202,0.214,-0.383,-0.876
1005019,-1010.0,3418.0,4478.0,0.202,0.222,-0.399,-0.867
1005035,-1196.0,5298.0,3788.0,0.2,0.23,-0.419,-0.855
1005052,-1664.0,6750.0,3530.0,0.199,0.238,-0.439,-0.843
1005069,-2060.0,6762.0,2876.0,0.2,0.243,-0.457,-0.832
1005086,-2054.0,8750.0,2834.0,0.2,0.246,-0.471,-0.823
1005103,-2000.0,10510.0,2998.0,0.201,0.248,-0.478,-0.818
1005120,-2220.0,10628.0,3422.0,0.203,0.249,-0.479,-0.817
1005137,-2328.0,9160.0,3596.0,0.206,0.25,-0.477,-0.817
1005155,-2218.0,8084.0,3534.0,0.208,0.251,-0.475,-0.818
1005172,-1812.0,7630.0,3502.0,0.209,0.253,-0.473,-0.818
1005189,-2098.0,7172.0,3376.0,0.208,0.256,-0.472,-0.817
1005216,-2480.0,6952.0,3378.0,0.207,0.26,-0.472,-0.817
1005233,-2654.0,7190.0,3108.0,0.207,0.264,-0.472,-0.815
1005250,-2810.0,6920.0,3102.0,0.206,0.269,-0.472,-0.814
1005266,-3116.0,7054.0,3136.0,0.205,0.274,-0.473,-0.812
1005283,-3354.0,7414.0,3284.0,0.204,0.28,-0.474,-0.81
1005299,-3672.0,7470.0,3296.0,0.202,0.285,-0.475,-0.808
1005316,-3800.0,8406.0,3270.0,0.201,0.29,-0.474,-0.807
1005333,-4108.0,8194.0,3090.0,0.202,0.292,-0.471,-0.808
1005350,-3720.0,7148.0,3344.0,0.202,0.294,-0.465,-0.81
1005367,-3084.0,6418.0,3614.0,0.202,0.294,-0.461,-0.813
1005384,-2954.0,5776.0,3750.0,0.2,0.293,-0.457,-0.815
1005411,-3172.0,6216.0,3756.0,0.199,0.292,-0.456,-0.817
1005427,-3276.0,7206.0,3624.0,0.197,0.29,-0.454,-0.819
1005444,-3386.0,7438.0,3634.0,0.196,0.287,-0.451,-0.822
1005461,-3292.0,7470.0,3626.0,0.196,0.284,-0.448,-0.825
1005477,-2840.0,6878.0,3856.0,0.195,0.281,-0.444,-0.828
1005494,-2628.0,6912.0,3810.0,0.193,0.279,-0.44,-0.831
1005511,-3144.0,9162.0,3026.0,0.191,0.276,-0.435,-0.835
1005528,-2726.0,7746.0,3210.0,0.19,0.272,-0.428,-0.841
1005545,-2910.0,7162.0,2974.0,0.189,0.268,-0.419,-0.847
1005561,-2178.0,5874.0,3310.0,0.188,0.263,-0.41,-0.853
1005587,-2184.0,5106.0,3456.0,0.188,0.257,-0.401,-0.859
1005604,-2136.0,5072.0,3870.0,0.188,0.252,-0.393,-0.864
1005621,-2200.0,5258.0,4058.0,0.187,0.246,-0.388,-0.868
1005638,-2066.0,5900.0,4450.0,0.186,0.241,-0.385,-0.871
1005655,-1904.0,6328.0,4562.0,0.185,0.236,-0.384,-0.873
1005672,-1614.0,6154.0,5386.0,0.184,0.232,-0.382,-0.875
1005688,-1586.0,5912.0,5724.0,0.183,0.227,-0.381,-0.877
1005705,-1634.0,5868.0,5512.0,0.183,0.223,-0.379,-0.88
1005721,-1330.0,6174.0,5358.0,0.182,0.219,-0.376,-0.882
1005738,-1214.0,5846.0,5946.0,0.182,0.215,-0.373,-0.884
1005765,-714.0,5452.0,6390.0,0.182,0.213,-0.371,-0.885
1005782,-562.0,5090.0,6642.0,0.181,0.214,-0.371,-0.885
1005799,-900.0,5188.0,6506.0,0.181,0.218,-0.373,-0.884
1005815,-1434.0,5798.0,6438.0,0.181,0.223,-0.377,-0.881
1005831,-2358.0,7132.0,6086.0,0.182,0.227,-0.379,-0.878
1005847,-2196.0,7158.0,5744.0,0.183,0.23,-0.38,-0.877
1005863,-1598.0,6302.0,5626.0,0.182,0.235,-0.379,-0.876
1005889,-1642.0,5358.0,5588.0,0.181,0.244,-0.38,-0.874
1005906,-2632.0,5650.0,5080.0,0.178,0.256,-0.384,-0.869
1005923,-3762.0,6620.0,4304.0,0.176,0.268,-0.39,-0.864
1005940,-3798.0,7042.0,4136.0,0.174,0.277,-0.394,-0.859
1005957,-3324.0,6880.0,3850.0,0.172,0.285,-0.397,-0.855
1005974,-3910.0,6508.0,3242.0,0.171,0.292,-0.398,-0.853
1005990,-3994.0,6706.0,3170.0,0.169,0.296,-0.399,-0.851
1006007,-3328.0,6470.0,3640.0,0.167,0.299,-0.399,-0.85
1006024,-2306.0,6088.0,4342.0,0.167,0.302,-0.399,-0.85
1006040,-2376.0,6394.0,5458.0,0.167,0.304,-0.397,-0.849
1006057,-3096.0,6298.0,5550.0,0.171,0.305,-0.394,-0.85
1006074,-3244.0,6178.0,4618.0,0.176,0.304,-0.388,-0.852
1006100,-2952.0,5676.0,4210.0,0.181,0.303,-0.383,-0.854
1006117,-3084.0,4944.0,4192.0,0.184,0.303,-0.379,-0.855
1006134,-3618.0,5030.0,4502.0,0.186,0.305,-0.378,-0.854
1006151,-3708.0,5208.0,4642.0,0.187,0.308,-0.381,-0.852
1006168,-3418.0,5904.0,4332.0,0.188,0.31,-0.385,-0.849
1006184,-3320.0,6294.0,4214.0,0.188,0.313,-0.39,-0.845
1006201,-3306.0,7046.0,3862.0,0.189,0.315,-0.393,-0.843
1006218,-3482.0,6960.0,3680.0,0.19,0.316,-0.393,-0.842
1006235,-3442.0,6888.0,3578.0,0.192,0.316,-0.392,-0.842
1006251,-3468.0,6584.0,3588.0,0.193,0.315,-0.391,-0.843
1006278,-3324.0,6252.0,3816.0,0.194,0.314,-0.392,-0.843
1006295,-3266.0,6798.0,3526.0,0.193,0.314,-0.393,-0.843
1006311,-3274.0,7640.0,3388.0,0.193,0.313,-0.392,-0.843
1006328,-3064.0,6872.0,4842.0,0.192,0.313,-0.39,-0.845
1006344,-3726.0,6732.0,4876.0,0.191,0.313,-0.388,-0.845
1006361,-3898.0,6690.0,4974.0,0.189,0.313,-0.389,-0.845
1006377,-4038.0,7436.0,4306.0,0.188,0.314,-0.389,-0.845
1006393,-4258.0,8218.0,3472.0,0.187,0.313,-0.387,-0.847
1006419,-4458.0,8242.0,3234.0,0.186,0.309,-0.383,-0.851
1006436,-3768.0,7898.0,3340.0,0.186,0.303,-0.377,-0.856
1006453,-3818.0,7520.0,3070.0,0.187,0.294,-0.369,-0.861
1006470,-3414.0,6548.0,2796.0,0.189,0.285,-0.36,-0.868
1006487,-3882.0,5554.0,3260.0,0.19,0.275,-0.35,-0.875
1006504,-3382.0,5080.0,3772.0,0.191,0.264,-0.341,-0.882
1006521,-2566.0,4538.0,4084.0,0.191,0.254,-0.333,-0.887
1006538,-2612.0,4162.0,4304.0,0.191,0.245,-0.328,-0.892
1006555,-2732.0,4290.0,4324.0,0.189,0.236,-0.324,-0.897
1006572,-2450.0,3776.0,4912.0,0.188,0.226,-0.321,-0.9
1006589,-1760.0,2524.0,6304.0,0.187,0.217,-0.321,-0.903
1006606,-1576.0,1430.0,7390.0,0.184,0.21,-0.325,-0.904
1006633,-868.0,1406.0,8040.0,0.181,0.207,-0.335,-0.901
1006650,-1128.0,3162.0,8060.0,0.175,0.209,-0.351,-0.896
1006667,-1248.0,6200.0,7690.0,0.169,0.214,-0.368,-0.889
1006684,-1774.0,9218.0,7054.0,0.165,0.22,-0.379,-0.883
1006701,-1894.0,9854.0,6698.0,0.164,0.225,-0.382,-0.881
1006718,-1974.0,8528.0,6090.0,0.165,0.228,-0.377,-0.882
1006735,-1750.0,6704.0,5470.0,0.168,0.23,-0.369,-0.885
1006752,-1566.0,5700.0,5088.0,0.171,0.232,-0.36,-0.888
1006768,-1630.0,5504.0,4784.0,0.174,0.234,-0.352,-0.889
1006784,-1546.0,5466.0,4828.0,0.177,0.237,-0.347,-0.89
1006800,-1694.0,5768.0,5872.0,0.181,0.241,-0.343,-0.89
1006826,-1216.0,2182.0,6906.0,0.191,0.247,-0.345,-0.885
1006843,-2346.0,3288.0,6654.0,0.2,0.255,-0.35,-0.879
1006860,-2548.0,4856.0,6356.0,0.209,0.264,-0.358,-0.871
1006877,-3370.0,5778.0,5378.0,0.217,0.272,-0.365,-0.863
1006894,-3748.0,6408.0,4914.0,0.226,0.279,-0.372,-0.856
1006910,-3520.0,6740.0,4184.0,0.236,0.284,-0.378,-0.849
1006926,-3578.0,6172.0,3634.0,0.247,0.288,-0.382,-0.843
1006943,-3246.0,5216.0,3282.0,0.259,0.288,-0.386,-0.837
1006960,-3202.0,4472.0,2564.0,0.27,0.285,-0.39,-0.833
1006977,-3048.0,4090.0,1960.0,0.281,0.278,-0.393,-0.83
1007003,-2822.0,4352.0,1560.0,0.291,0.267,-0.398,-0.828
1007020,-2382.0,5268.0,1602.0,0.3,0.252,-0.405,-0.826
1007037,-1660.0,6602.0,1904.0,0.31,0.233,-0.415,-0.823
1007054,-1010.0,7818.0,2412.0,0.32,0.212,-0.425,-0.82
1007071,-172.0,9504.0,2842.0,0.332,0.188,-0.435,-0.816
1007088,604.0,10228.0,3454.0,0.342,0.164,-0.44,-0.814
1007105,1130.0,10284.0,4076.0,0.351,0.14,-0.441,-0.814
1007122,1646.0,9776.0,4812.0,0.356,0.119,-0.438,-0.817
1007139,2032.0,8870.0,5324.0,0.358,0.101,-0.435,-0.82
1007156,2200.0,7804.0,5756.0,0.357,0.089,-0.432,-0.823
1007172,2166.0,7214.0,6124.0,0.354,0.082,-0.431,-0.826
1007199,2048.0,7092.0,6306.0,0.348,0.079,-0.431,-0.829
1007216,1862.0,6732.0,6356.0,0.342,0.079,-0.432,-0.831
1007232,1698.0,6226.0,6176.0,0.336,0.079,-0.433,-0.833
1007248,1546.0,6034.0,6054.0,0.33,0.081,-0.433,-0.835
1007264,1474.0,5662.0,5918.0,0.325,0.082,-0.434,-0.836
1007280,1412.0,5420.0,5788.0,0.321,0.082,-0.434,-0.838
1007296,1322.0,5338.0,5700.0,0.319,0.082,-0.433,-0.839
1007322,1212.0,5272.0,5662.0,0.318,0.081,-0.432,-0.84
1007339,1218.0,5450.0,5666.0,0.319,0.08,-0.431,-0.84
1007356,1212.0,5532.0,5560.0,0.32,0.078,-0.43,-0.84
1007373,1308.0,5780.0,5580.0,0.322,0.076,-0.429,-0.84
1007390,1264.0,6090.0,5552.0,0.325,0.075,-0.429,-0.84
1007407,1350.0,6324.0,5462.0,0.327,0.074,-0.429,-0.839
1007423,1400.0,6630.0,5330.0,0.33,0.073,-0.429,-0.838
1007440,1394.0,6768.0,5228.0,0.332,0.073,-0.429,-0.837
1007457,1318.0,6820.0,5168.0,0.334,0.074,-0.429,-0.836
1007474,1370.0,6860.0,5068.0,0.336,0.074,-0.429,-0.835
1007491,1296.0,6744.0,5012.0,0.337,0.075,-0.428,-0.835
1007508,1226.0,6638.0,4932.0,0.338,0.077,-0.428,-0.835
1007535,1216.0,6322.0,5008.0,0.338,0.078,-0.428,-0.835
1007551,1018.0,6232.0,4834.0,0.338,0.08,-0.428,-0.834
1007567,830.0,6018.0,4666.0,0.338,0.081,-0.43,-0.834
1007583,822.0,6326.0,4648.0,0.337,0.081,-0.431,-0.833
1007599,1010.0,6724.0,4764.0,0.337,0.08,-0.431,-0.833
1007616,1020.0,6760.0,4848.0,0.338,0.079,-0.431,-0.833
1007632,1132.0,6678.0,4924.0,0.338,0.077,-0.43,-0.834
1007658,1154.0,6428.0,5028.0,0.338,0.075,-0.429,-0.835
1007674,1206.0,6332.0,5116.0,0.337,0.073,-0.428,-0.835
1007690,1234.0,6318.0,5214.0,0.337,0.072,-0.427,-0.836
1007706,1200.0,6350.0,5248.0,0.336,0.07,-0.427,-0.837
1007722,1304.0,6374.0,5282.0,0.335,0.069,-0.426,-0.837
1007738,1352.0,6358.0,5378.0,0.335,0.067,-0.426,-0.838
1007764,1364.0,6278.0,5444.0,0.334,0.066,-0.425,-0.839
1007780,1438.0,6140.0,5406.0,0.333,0.065,-0.424,-0.839
1007796,1510.0,6112.0,5440.0,0.333,0.064,-0.424,-0.84
1007812,1450.0,6026.0,5480.0,0.332,0.063,-0.423,-0.84
1007828,1442.0,5998.0,5622.0,0.332,0.063,-0.424,-0.841
1007854,1510.0,5686.0,5726.0,0.332,0.063,-0.425,-0.84
1007870,1322.0,5632.0,5214.0,0.332,0.064,-0.428,-0.838
1007886,1344.0,6236.0,4940.0,0.332,0.064,-0.431,-0.837
1007902,1494.0,6910.0,4858.0,0.331,0.064,-0.433,-0.836
1007919,1566.0,6916.0,4972.0,0.331,0.063,-0.434,-0.836
1007936,1442.0,6810.0,5122.0,0.331,0.063,-0.433,-0.836
1007953,1290.0,6436.0,5214.0,0.331,0.062,-0.432,-0.837
1007969,1272.0,6140.0,5214.0,0.331,0.062,-0.43,-0.838
1007995,1256.0,6168.0,5238.0,0.331,0.061,-0.429,-0.838
1008011,1294.0,6196.0,5266.0,0.331,0.061,-0.429,-0.838
1008027,1286.0,6236.0,5270.0,0.331,0.061,-0.428,-0.839
1008044,1318.0,6258.0,5296.0,0.331,0.061,-0.428,-0.839
1008060,1342.0,6230.0,5278.0,0.33,0.061,-0.428,-0.839
1008077,1432.0,6208.0,5292.0,0.33,0.06,-0.427,-0.84
1008093,1390.0,6180.0,5294.0,0.33,0.06,-0.427,-0.84
1008119,1420.0,6254.0,5240.0,0.33,0.06,-0.427,-0.84
1008136,1444.0,6242.0,5252.0,0.33,0.06,-0.427,-0.84
1008152,1424.0,6316.0,5280.0,0.33,0.059,-0.426,-0.84
1008169,1498.0,6306.0,5296.0,0.33,0.059,-0.426,-0.84
1008185,1442.0,6342.0,5304.0,0.329,0.059,-0.426,-0.841
1008201,1448.0,6242.0,5298.0,0.329,0.06,-0.426,-0.841
1008217,1440.0,6198.0,5312.0,0.329,0.06,-0.426,-0.841
1008243,1396.0,6168.0,5350.0,0.329,0.06,-0.426,-0.841
1008259,1344.0,6164.0,5336.0,0.328,0.061,-0.426,-0.841
1008275,1424.0,6148.0,5326.0,0.328,0.061,-0.426,-0.841
1008291,1408.0,6248.0,5296.0,0.328,0.061,-0.426,-0.841
1008307,1370.0,6324.0,5330.0,0.327,0.062,-0.426,-0.841
1008323,1394.0,6316.0,5294.0,0.327,0.062,-0.426,-0.841
1008349,1340.0,6310.0,5318.0,0.327,0.063,-0.426,-0.841
1008366,1302.0,6234.0,5230.0,0.326,0.064,-0.426,-0.841
1008382,1312.0,6220.0,5252.0,0.326,0.064,-0.427,-0.841
1008398,1236.0,6154.0,5186.0,0.326,0.065,-0.427,-0.841
1008414,1228.0,6250.0,5138.0,0.325,0.066,-0.428,-0.841
1008430,1080.0,6280.0,5128.0,0.325,0.066,-0.428,-0.841
1008446,1144.0,6186.0,5202.0,0.324,0.067,-0.429,-0.84
1008472,1222.0,6240.0,5010.0,0.323,0.067,-0.43,-0.84
1008488,1148.0,6474.0,4916.0,0.323,0.067,-0.432,-0.84
1008504,1330.0,6594.0,5032.0,0.322,0.067,-0.432,-0.84
1008520,1274.0,6498.0,5094.0,0.321,0.067,-0.433,-0.84
1008537,1188.0,6454.0,5194.0,0.321,0.067,-0.432,-0.84
1008553,1232.0,6246.0,5214.0,0.321,0.067,-0.432,-0.84
1008579,1262.0,6190.0,5246.0,0.32,0.068,-0.432,-0.841
1008595,1268.0,6246.0,5266.0,0.32,0.068,-0.432,-0.841
1008611,1236.0,6310.0,5248.0,0.32,0.068,-0.432,-0.841
1008627,1278.0,6312.0,5178.0,0.32,0.068,-0.432,-0.841
1008643,1200.0,6340.0,5140.0,0.319,0.069,-0.431,-0.841
1008659,1196.0,6346.0,5154.0,0.319,0.069,-0.431,-0.841
1008685,1180.0,6320.0,5080.0,0.319,0.069,-0.431,-0.841
1008701,1178.0,6326.0,5066.0,0.319,0.069,-0.431,-0.841
1008717,1162.0,6382.0,5094.0,0.319,0.069,-0.431,-0.841
1008733,1130.0,6380.0,5120.0,0.319,0.069,-0.431,-0.841
1008749,1142.0,6348.0,5088.0,0.319,0.069,-0.431,-0.841
1008765,1240.0,6310.0,5120.0,0.318,0.069,-0.431,-0.842
1008791,1174.0,6412.0,5106.0,0.318,0.069,-0.431,-0.842
1008807,1228.0,6346.0,5166.0,0.318,0.069,-0.431,-0.842
1008823,1254.0,6326.0,5206.0,0.318,0.069,-0.431,-0.842
1008839,1244.0,6374.0,5150.0,0.318,0.069,-0.431,-0.842
1008855,1208.0,6360.0,5150.0,0.317,0.069,-0.431,-0.842
1008871,1156.0,6416.0,5192.0,0.317,0.069,-0.431,-0.842
1008897,1220.0,6370.0,5166.0,0.317,0.068,-0.43,-0.842
1008913,1220.0,6294.0,5118.0,0.316,0.068,-0.43,-0.843
1008929,1234.0,6346.0,5154.0,0.316,0.068,-0.43,-0.843
1008946,1226.0,6342.0,5166.0,0.316,0.068,-0.431,-0.843
1008962,1234.0,6274.0,5146.0,0.315,0.068,-0.431,-0.843
1008978,1218.0,6260.0,5146.0,0.315,0.068,-0.431,-0.843
1009004,1176.0,6316.0,5186.0,0.315,0.068,-0.431,-0.843
1009020,1174.0,6380.0,5164.0,0.314,0.068,-0.431,-0.843
1009037,1194.0,6430.0,5132.0,0.314,0.068,-0.431,-0.843
1009053,1172.0,6440.0,5148.0,0.314,0.068,-0.431,-0.843
1009069,1144.0,6398.0,5192.0,0.314,0.068,-0.43,-0.844
1009085,1152.0,6320.0,5218.0,0.314,0.067,-0.43,-0.844
1009101,1172.0,6268.0,5166.0,0.313,0.067,-0.43,-0.844
1009127,1182.0,6308.0,5098.0,0.313,0.067,-0.43,-0.844
1009143,1206.0,6316.0,5126.0,0.313,0.067,-0.43,-0.844
1009159,1178.0,6390.0,5170.0,0.312,0.067,-0.43,-0.844
1009175,1192.0,6386.0,5164.0,0.312,0.067,-0.43,-0.844
1009191,1150.0,6366.0,5176.0,0.312,0.067,-0.43,-0.845
1009217,1210.0,6280.0,5206.0,0.312,0.066,-0.43,-0.845
1009233,1248.0,6330.0,5190.0,0.312,0.066,-0.43,-0.845
1009249,1186.0,6324.0,5170.0,0.311,0.066,-0.43,-0.845
1009265,1230.0,6336.0,5160.0,0.311,0.066,-0.43,-0.845
1009281,1218.0,6352.0,5152.0,0.311,0.066,-0.43,-0.845
1009297,1208.0,6336.0,5184.0,0.311,0.066,-0.43,-0.845
1009323,1210.0,6308.0,5218.0,0.31,0.066,-0.43,-0.845
1009339,1200.0,6320.0,5174.0,0.31,0.066,-0.43,-0.845
1009356,1208.0,6356.0,5180.0,0.31,0.066,-0.43,-0.846
1009372,1198.0,6368.0,5152.0,0.31,0.066,-0.43,-0.846
1009388,1240.0,6360.0,5194.0,0.309,0.065,-0.43,-0.846
1009405,1198.0,6350.0,5192.0,0.309,0.065,-0.43,-0.846
1009422,1184.0,6288.0,5174.0,0.309,0.065,-0.43,-0.846
1009438,1166.0,6348.0,5156.0,0.308,0.065,-0.43,-0.846
1009455,1154.0,6376.0,5194.0,0.308,0.065,-0.43,-0.846
1009481,1194.0,6370.0,5170.0,0.308,0.065,-0.43,-0.846
1009497,1148.0,6324.0,5166.0,0.308,0.065,-0.43,-0.847
1009513,1178.0,6292.0,5218.0,0.307,0.065,-0.43,-0.847
1009529,1162.0,6310.0,5192.0,0.307,0.065,-0.43,-0.847
1009545,1156.0,6342.0,5134.0,0.307,0.065,-0.43,-0.847
1009571,1174.0,6394.0,5158.0,0.306,0.065,-0.43,-0.847
1009587,1180.0,6332.0,5206.0,0.306,0.065,-0.43,-0.847
1009604,1164.0,6288.0,5184.0,0.306,0.064,-0.429,-0.847
1009621,1192.0,6330.0,5190.0,0.306,0.064,-0.429,-0.847
1009637,1222.0,6330.0,5190.0,0.306,0.064,-0.429,-0.847
1009654,1180.0,6322.0,5214.0,0.305,0.064,-0.429,-0.848
1009671,1168.0,6316.0,5160.0,0.305,0.064,-0.429,-0.848
1009688,1158.0,6348.0,5158.0,0.305,0.064,-0.429,-0.848
1009704,1196.0,6276.0,5156.0,0.305,0.064,-0.43,-0.848
1009721,1156.0,6274.0,5202.0,0.304,0.064,-0.43,-0.848
1009747,1150.0,6390.0,5174.0,0.304,0.063,-0.43,-0.848
1009764,1122.0,6408.0,5100.0,0.304,0.063,-0.43,-0.848
1009780,1150.0,6412.0,5180.0,0.304,0.063,-0.43,-0.848
1009796,1188.0,6342.0,5192.0,0.304,0.063,-0.43,-0.848
1009812,1170.0,6264.0,5150.0,0.303,0.063,-0.43,-0.848
1009828,1202.0,6298.0,5130.0,0.303,0.062,-0.43,-0.848
1009854,1198.0,6308.0,5176.0,0.303,0.062,-0.43,-0.848
1009870,1202.0,6360.0,5190.0,0.302,0.062,-0.43,-0.849
1009886,1186.0,6320.0,5226.0,0.302,0.062,-0.43,-0.849
1009902,1228.0,6374.0,5212.0,0.302,0.061,-0.429,-0.849
1009918,1236.0,6336.0,5166.0,0.302,0.061,-0.429,-0.849
1009934,1260.0,6376.0,5216.0,0.302,0.061,-0.429,-0.849
1009960,1288.0,6294.0,5220.0,0.301,0.061,-0.43,-0.849
1009976,1248.0,6152.0,5208.0,0.301,0.061,-0.43,-0.849
1009993,1242.0,6322.0,5138.0,0.3,0.062,-0.432,-0.848
1010009,1068.0,6334.0,5096.0,0.299,0.063,-0.434,-0.847
1010025,1050.0,6470.0,5082.0,0.298,0.064,-0.436,-0.847
1010042,1098.0,6460.0,5076.0,0.298,0.064,-0.437,-0.846
1010059,1140.0,6494.0,5082.0,0.297,0.064,-0.437,-0.846
1010075,1222.0,6498.0,5130.0,0.297,0.064,-0.437,-0.846
1010101,1234.0,6490.0,5040.0,0.297,0.064,-0.437,-0.847
1010117,1188.0,6416.0,4996.0,0.297,0.064,-0.437,-0.847
1010133,1166.0,6386.0,5010.0,0.297,0.063,-0.436,-0.847
1010149,1210.0,6382.0,5008.0,0.297,0.063,-0.436,-0.847
1010165,1174.0,6412.0,5056.0,0.297,0.063,-0.435,-0.847
1010181,1146.0,6444.0,5070.0,0.297,0.062,-0.435,-0.848
1010207,1158.0,6382.0,5156.0,0.297,0.062,-0.434,-0.848
1010223,1138.0,6398.0,5208.0,0.297,0.061,-0.433,-0.849
1010239,1156.0,6302.0,5220.0,0.297,0.061,-0.433,-0.849
1010255,1112.0,6294.0,5226.0,0.297,0.061,-0.432,-0.849
1010271,1148.0,6230.0,5160.0,0.297,0.061,-0.432,-0.85
1010287,1192.0,6370.0,5152.0,0.297,0.06,-0.432,-0.85
1010313,1184.0,6412.0,5110.0,0.297,0.06,-0.432,-0.85
1010329,1226.0,6410.0,5076.0,0.297,0.06,-0.431,-0.85
1010345,1204.0,6368.0,5092.0,0.296,0.06,-0.431,-0.85
1010361,1264.0,6402.0,5146.0,0.296,0.059,-0.431,-0.85
1010378,1248.0,6386.0,5162.0,0.296,0.059,-0.431,-0.851
1010395,1242.0,6312.0,5156.0,0.296,0.059,-0.431,-0.851
1010412,1198.0,6362.0,5162.0,0.295,0.058,-0.43,-0.851
1010438,1168.0,6272.0,5220.0,0.295,0.058,-0.43,-0.851
1010455,1194.0,6272.0,5188.0,0.295,0.058,-0.431,-0.851
1010471,1176.0,6230.0,5160.0,0.295,0.057,-0.431,-0.851
1010487,1174.0,6276.0,5116.0,0.294,0.057,-0.431,-0.851
1010504,1142.0,6368.0,5144.0,0.294,0.057,-0.431,-0.851
1010520,1146.0,6394.0,5136.0,0.294,0.056,-0.431,-0.851
1010537,1156.0,6400.0,5138.0,0.293,0.056,-0.431,-0.852
1010553,1232.0,6418.0,5130.0,0.293,0.055,-0.431,-0.852
1010570,1232.0,6350.0,5220.0,0.293,0.055,-0.431,-0.852
1010597,1246.0,6308.0,5180.0,0.292,0.055,-0.431,-0.852
1010613,1238.0,6314.0,5212.0,0.292,0.054,-0.431,-0.852
1010629,1262.0,6282.0,5214.0,0.292,0.054,-0.431,-0.852
1010645,1318.0,6268.0,5212.0,0.291,0.054,-0.431,-0.852
1010662,1294.0,6294.0,5198.0,0.291,0.053,-0.431,-0.853
1010679,1316.0,6308.0,5198.0,0.291,0.053,-0.43,-0.853
1010695,1268.0,6288.0,5240.0,0.291,0.053,-0.43,-0.853
1010721,1240.0,6274.0,5216.0,0.291,0.052,-0.43,-0.853
1010738,1286.0,6300.0,5214.0,0.29,0.052,-0.43,-0.853
1010755,1264.0,6332.0,5192.0,0.29,0.052,-0.43,-0.853
1010771,1276.0,6382.0,5232.0,0.29,0.051,-0.43,-0.853
1010788,1272.0,6334.0,5230.0,0.29,0.051,-0.43,-0.854
1010805,1324.0,6274.0,5216.0,0.29,0.051,-0.43,-0.854
1010821,1262.0,6272.0,5190.0,0.289,0.051,-0.43,-0.854
1010838,1282.0,6330.0,5216.0,0.289,0.051,-0.43,-0.854
1010854,1292.0,6314.0,5222.0,0.289,0.051,-0.43,-0.854
1010871,1256.0,6312.0,5190.0,0.289,0.051,-0.43,-0.854
1010898,1272.0,6282.0,5172.0,0.288,0.051,-0.43,-0.854
1010914,1220.0,6298.0,5194.0,0.288,0.051,-0.43,-0.854
1010930,1228.0,6300.0,5174.0,0.288,0.051,-0.43,-0.854
1010946,1196.0,6282.0,5152.0,0.288,0.051,-0.43,-0.854
1010962,1194.0,6340.0,5118.0,0.288,0.051,-0.43,-0.854
1010979,1228.0,6308.0,5184.0,0.288,0.051,-0.43,-0.854
1010996,1280.0,6330.0,5224.0,0.288,0.051,-0.43,-0.854
1011022,1238.0,6272.0,5236.0,0.287,0.051,-0.43,-0.855
1011038,1228.0,6296.0,5172.0,0.287,0.051,-0.43,-0.855
1011054,1242.0,6328.0,5228.0,0.287,0.051,-0.43,-0.855
1011071,1256.0,6360.0,5204.0,0.287,0.051,-0.43,-0.855
1011088,1292.0,6322.0,5188.0,0.287,0.051,-0.43,-0.855
1011104,1276.0,6320.0,5212.0,0.287,0.051,-0.429,-0.855
1011120,1280.0,6304.0,5170.0,0.287,0.051,-0.429,-0.855
1011146,1292.0,6288.0,5250.0,0.287,0.051,-0.429,-0.855
1011162,1286.0,6326.0,5206.0,0.287,0.051,-0.429,-0.855
1011178,1246.0,6252.0,5220.0,0.286,0.051,-0.429,-0.855
1011195,1252.0,6288.0,5184.0,0.286,0.051,-0.43,-0.855
1011211,1230.0,6320.0,5172.0,0.286,0.051,-0.43,-0.855
1011228,1214.0,6222.0,5196.0,0.286,0.051,-0.43,-0.855
1011244,1234.0,6264.0,5228.0,0.286,0.051,-0.43,-0.855
1011261,1186.0,6360.0,5192.0,0.286,0.051,-0.43,-0.855
1011288,1220.0,6342.0,5222.0,0.286,0.051,-0.43,-0.855
1011304,1270.0,6326.0,5210.0,0.286,0.051,-0.43,-0.855
1011320,1254.0,6288.0,5226.0,0.285,0.051,-0.43,-0.855
1011337,1238.0,6252.0,5200.0,0.285,0.051,-0.43,-0.855
1011354,1200.0,6288.0,5214.0,0.285,0.052,-0.43,-0.855
1011371,1208.0,6326.0,5162.0,0.285,0.052,-0.43,-0.855
1011388,1202.0,6350.0,5138.0,0.285,0.052,-0.43,-0.855
1011405,1230.0,6388.0,5184.0,0.285,0.051,-0.43,-0.855
1011421,1210.0,6314.0,5200.0,0.285,0.051,-0.429,-0.855
1011447,1246.0,6322.0,5220.0,0.285,0.051,-0.429,-0.855
1011463,1264.0,6292.0,5170.0,0.285,0.051,-0.429,-0.855
1011479,1248.0,6354.0,5172.0,0.285,0.052,-0.43,-0.855
1011495,1206.0,6360.0,5216.0,0.285,0.052,-0.43,-0.855
1011512,1222.0,6312.0,5210.0,0.285,0.052,-0.43,-0.855
1011528,1224.0,6300.0,5210.0,0.284,0.052,-0.43,-0.855
1011544,1238.0,6292.0,5148.0,0.284,0.052,-0.43,-0.856
1011570,1190.0,6306.0,5192.0,0.284,0.052,-0.43,-0.856
1011586,1252.0,6338.0,5154.0,0.284,0.052,-0.43,-0.856
1011603,1218.0,6322.0,5168.0,0.284,0.052,-0.43,-0.856
1011619,1238.0,6366.0,5184.0,0.284,0.052,-0.43,-0.856
1011635,1234.0,6318.0,5198.0,0.284,0.052,-0.43,-0.856
1011651,1196.0,6302.0,5240.0,0.284,0.052,-0.43,-0.856
1011668,1222.0,6368.0,5210.0,0.284,0.052,-0.43,-0.856
1011695,1284.0,6322.0,5224.0,0.283,0.052,-0.429,-0.856
1011711,1204.0,6326.0,5220.0,0.283,0.052,-0.429,-0.856
1011727,1200.0,6292.0,5186.0,0.283,0.052,-0.429,-0.856
1011744,1178.0,6290.0,5212.0,0.283,0.052,-0.429,-0.856
1011761,1192.0,6298.0,5224.0,0.283,0.052,-0.429,-0.856
1011778,1192.0,6304.0,5196.0,0.283,0.052,-0.429,-0.856
1011794,1198.0,6354.0,5204.0,0.283,0.052,-0.429,-0.856
1011811,1234.0,6336.0,5188.0,0.283,0.052,-0.429,-0.856
1011827,1220.0,6286.0,5178.0,0.283,0.052,-0.429,-0.856
1011854,1200.0,6344.0,5238.0,0.283,0.052,-0.429,-0.856
1011871,1234.0,6334.0,5224.0,0.282,0.052,-0.429,-0.856
1011887,1200.0,6294.0,5214.0,0.282,0.052,-0.429,-0.857
1011904,1246.0,6340.0,5264.0,0.282,0.052,-0.429,-0.857
1011920,1230.0,6346.0,5300.0,0.282,0.052,-0.429,-0.857
1011937,1236.0,6296.0,5224.0,0.282,0.053,-0.429,-0.857
1011954,1166.0,6266.0,5200.0,0.282,0.053,-0.429,-0.857
1011970,1222.0,6326.0,5228.0,0.281,0.053,-0.429,-0.857
1011996,1186.0,6300.0,5244.0,0.281,0.053,-0.429,-0.857
1012012,1176.0,6282.0,5196.0,0.281,0.054,-0.429,-0.857
1012029,1156.0,6342.0,5170.0,0.281,0.054,-0.429,-0.857
1012046,1136.0,6372.0,5178.0,0.281,0.054,-0.429,-0.857
1012062,1142.0,6428.0,5206.0,0.281,0.054,-0.429,-0.857
1012079,1164.0,6376.0,5138.0,0.281,0.054,-0.429,-0.857
1012096,1170.0,6340.0,5192.0,0.281,0.054,-0.429,-0.857
1012112,1152.0,6304.0,5190.0,0.28,0.054,-0.429,-0.857
1012129,1194.0,6290.0,5188.0,0.28,0.054,-0.429,-0.857
1012146,1190.0,6340.0,5154.0,0.28,0.055,-0.429,-0.857
1012173,1134.0,6372.0,5168.0,0.28,0.055,-0.43,-0.857
1012190,1160.0,6306.0,5192.0,0.28,0.055,-0.429,-0.857
1012206,1176.0,6310.0,5236.0,0.28,0.055,-0.429,-0.857
1012222,1094.0,6342.0,5184.0,0.28,0.055,-0.429,-0.857
1012238,1084.0,6334.0,5146.0,0.28,0.055,-0.429,-0.857
1012254,1102.0,6296.0,5146.0,0.28,0.055,-0.429,-0.857
1012271,1178.0,6322.0,5168.0,0.28,0.056,-0.429,-0.857
1012287,1118.0,6376.0,5212.0,0.28,0.056,-0.429,-0.857
1012314,1120.0,6342.0,5152.0,0.28,0.056,-0.429,-0.857
1012330,1154.0,6340.0,5152.0,0.28,0.056,-0.429,-0.857
1012347,1114.0,6326.0,5134.0,0.28,0.056,-0.429,-0.857
1012363,1058.0,6322.0,5146.0,0.279,0.056,-0.429,-0.857
1012380,1098.0,6370.0,5132.0,0.279,0.056,-0.429,-0.857
1012397,1130.0,6362.0,5144.0,0.279,0.056,-0.429,-0.857
1012414,1130.0,6382.0,5202.0,0.279,0.056,-0.429,-0.857
1012431,1168.0,6370.0,5216.0,0.278,0.056,-0.429,-0.857
1012448,1170.0,6330.0,5184.0,0.278,0.056,-0.43,-0.857
1012465,1144.0,6304.0,5202.0,0.278,0.056,-0.43,-0.857
1012482,1118.0,6332.0,5224.0,0.278,0.056,-0.43,-0.857
1012508,1086.0,6318.0,5212.0,0.278,0.056,-0.429,-0.857
1012525,1120.0,6292.0,5166.0,0.278,0.056,-0.429,-0.858
1012542,1162.0,6336.0,5190.0,0.277,0.056,-0.429,-0.858
1012559,1154.0,6348.0,5204.0,0.277,0.056,-0.429,-0.858
1012576,1162.0,6342.0,5214.0,0.277,0.056,-0.429,-0.858
1012593,1046.0,6378.0,5162.0,0.277,0.056,-0.429,-0.858
1012610,1100.0,6362.0,5188.0,0.277,0.056,-0.429,-0.858
1012627,1110.0,6386.0,5186.0,0.277,0.056,-0.429,-0.858
1012644,1118.0,6368.0,5176.0,0.277,0.056,-0.429,-0.858
1012661,1180.0,6362.0,5098.0,0.277,0.056,-0.429,-0.858
1012678,1160.0,6358.0,5188.0,0.276,0.056,-0.429,-0.858
1012695,1170.0,6368.0,5170.0,0.276,0.056,-0.429,-0.858
1012712,1120.0,6318.0,5190.0,0.276,0.056,-0.429,-0.858
1012739,1112.0,6392.0,5158.0,0.276,0.056,-0.43,-0.858
1012755,1096.0,6342.0,5190.0,0.275,0.057,-0.43,-0.858
1012771,1088.0,6352.0,5240.0,0.275,0.057,-0.43,-0.858
1012787,1062.0,6320.0,5176.0,0.275,0.057,-0.43,-0.858
1012804,1100.0,6352.0,5150.0,0.275,0.057,-0.43,-0.858
1012820,1128.0,6280.0,5180.0,0.274,0.057,-0.43,-0.858
1012837,1040.0,6350.0,5172.0,0.274,0.057,-0.43,-0.858
1012854,1070.0,6432.0,5172.0,0.274,0.058,-0.431,-0.858
1012880,1050.0,6454.0,5122.0,0.274,0.058,-0.431,-0.858
1012896,1050.0,6402.0,5116.0,0.274,0.058,-0.431,-0.858
1012912,1050.0,6350.0,5180.0,0.273,0.058,-0.431,-0.858
1012928,1070.0,6388.0,5174.0,0.273,0.058,-0.43,-0.858
1012945,1076.0,6330.0,5126.0,0.273,0.057,-0.43,-0.858
1012962,1080.0,6296.0,5146.0,0.273,0.057,-0.43,-0.858
1012978,984.0,6408.0,5140.0,0.273,0.057,-0.43,-0.858
1013004,1062.0,6394.0,5188.0,0.273,0.057,-0.43,-0.858
1013020,1110.0,6342.0,5160.0,0.273,0.057,-0.43,-0.859
1013037,1024.0,6386.0,5172.0,0.273,0.057,-0.43,-0.859
1013053,1132.0,6338.0,5172.0,0.273,0.057,-0.43,-0.859
1013070,1036.0,6350.0,5144.0,0.273,0.057,-0.43,-0.859
1013087,1052.0,6342.0,5200.0,0.273,0.057,-0.43,-0.859
1013103,1074.0,6324.0,5176.0,0.272,0.056,-0.43,-0.859
1013120,1104.0,6360.0,5204.0,0.272,0.056,-0.43,-0.859
1013146,1098.0,6358.0,5228.0,0.272,0.056,-0.43,-0.859
1013162,1120.0,6360.0,5156.0,0.272,0.056,-0.43,-0.859
1013179,1110.0,6288.0,5228.0,0.272,0.056,-0.43,-0.859
1013195,1096.0,6348.0,5208.0,0.272,0.056,-0.43,-0.859
1013212,1104.0,6366.0,5218.0,0.272,0.056,-0.43,-0.859
1013228,1066.0,6340.0,5222.0,0.272,0.056,-0.43,-0.859
1013244,1154.0,6398.0,5152.0,0.271,0.056,-0.43,-0.859
1013270,1098.0,6378.0,5178.0,0.271,0.056,-0.43,-0.859
1013286,1072.0,6334.0,5148.0,0.271,0.056,-0.43,-0.859
1013302,1104.0,6352.0,5148.0,0.271,0.056,-0.43,-0.859
1013318,1122.0,6406.0,5126.0,0.271,0.056,-0.43,-0.859
1013335,1056.0,6368.0,5224.0,0.27,0.056,-0.43,-0.859
1013352,1042.0,6382.0,5176.0,0.27,0.056,-0.43,-0.859
1013368,1076.0,6350.0,5124.0,0.27,0.056,-0.43,-0.86
1013394,1122.0,6326.0,5138.0,0.27,0.055,-0.43,-0.86
1013411,1102.0,6392.0,5162.0,0.27,0.055,-0.43,-0.86
1013427,1102.0,6350.0,5166.0,0.269,0.055,-0.43,-0.86
1013444,1074.0,6336.0,5194.0,0.269,0.055,-0.43,-0.86
1013461,1120.0,6364.0,5154.0,0.269,0.055,-0.43,-0.86
1013477,1118.0,6354.0,5218.0,0.269,0.055,-0.43,-0.86
1013493,1092.0,6374.0,5150.0,0.269,0.055,-0.43,-0.86
1013510,1070.0,6370.0,5134.0,0.269,0.055,-0.43,-0.86
1013527,1082.0,6390.0,5140.0,0.269,0.055,-0.43,-0.86
1013544,1038.0,6386.0,5200.0,0.268,0.054,-0.43,-0.86
1013570,1076.0,6350.0,5184.0,0.268,0.054,-0.43,-0.86
1013587,1074.0,6410.0,5126.0,0.268,0.054,-0.43,-0.86
1013603,1094.0,6444.0,5168.0,0.268,0.054,-0.43,-0.86
1013620,1056.0,6348.0,5196.0,0.267,0.054,-0.43,-0.86
1013636,1078.0,6380.0,5176.0,0.267,0.054,-0.43,-0.861
1013652,1084.0,6412.0,5164.0,0.267,0.053,-0.43,-0.861
1013669,1096.0,6340.0,5158.0,0.267,0.053,-0.43,-0.861
1013686,1154.0,6372.0,5248.0,0.266,0.053,-0.43,-0.861
1013703,1152.0,6340.0,5212.0,0.266,0.053,-0.43,-0.861
1013730,1122.0,6320.0,5284.0,0.266,0.053,-0.43,-0.861
1013746,1150.0,6238.0,5264.0,0.265,0.053,-0.43,-0.861
1013762,1178.0,6280.0,5260.0,0.265,0.053,-0.431,-0.861
1013778,1154.0,6422.0,5172.0,0.265,0.053,-0.431,-0.861
1013794,1058.0,6424.0,5128.0,0.265,0.054,-0.431,-0.861
1013811,984.0,6416.0,5114.0,0.265,0.054,-0.431,-0.861
1013827,968.0,6390.0,5076.0,0.265,0.054,-0.431,-0.861
1013854,996.0,6384.0,5104.0,0.265,0.054,-0.431,-0.861
1013870,1002.0,6356.0,5068.0,0.264,0.054,-0.431,-0.861
1013886,1090.0,6352.0,5112.0,0.264,0.054,-0.431,-0.861
1013902,1086.0,6358.0,5130.0,0.264,0.054,-0.431,-0.861
1013918,1074.0,6412.0,5186.0,0.263,0.053,-0.431,-0.861
1013934,1108.0,6320.0,5208.0,0.263,0.053,-0.431,-0.862
1013951,1128.0,6406.0,5196.0,0.263,0.053,-0.431,-0.862
1013978,1172.0,6402.0,5304.0,0.262,0.053,-0.431,-0.862
1013994,1108.0,6366.0,5268.0,0.262,0.053,-0.431,-0.862
1014010,1120.0,6346.0,5188.0,0.262,0.053,-0.431,-0.862
1014026,1092.0,6336.0,5220.0,0.261,0.054,-0.431,-0.862
1014043,1080.0,6380.0,5202.0,0.261,0.054,-0.431,-0.862
1014059,1084.0,6336.0,5168.0,0.261,0.054,-0.431,-0.862
1014076,1060.0,6416.0,5152.0,0.261,0.055,-0.431,-0.862
1014093,1026.0,6400.0,5142.0,0.261,0.055,-0.431,-0.862
1014120,972.0,6352.0,5114.0,0.26,0.055,-0.431,-0.862
1014136,926.0,6362.0,5078.0,0.26,0.056,-0.432,-0.862
1014153,908.0,6414.0,5022.0,0.26,0.056,-0.432,-0.862
1014170,890.0,6420.0,4982.0,0.259,0.056,-0.432,-0.862
1014186,914.0,6474.0,5010.0,0.259,0.056,-0.432,-0.862
1014203,1008.0,6548.0,5006.0,0.258,0.056,-0.432,-0.862
1014220,1232.0,7008.0,4992.0,0.257,0.056,-0.432,-0.863
1014236,1414.0,6908.0,5096.0,0.254,0.058,-0.431,-0.864
1014253,1224.0,6586.0,5178.0,0.251,0.062,-0.431,-0.864
1014270,1052.0,6802.0,5150.0,0.246,0.067,-0.434,-0.864
1014296,790.0,6868.0,4872.0,0.24,0.075,-0.438,-0.863
1014312,578.0,6958.0,4666.0,0.233,0.085,-0.445,-0.861
1014328,-68.0,7946.0,4876.0,0.224,0.096,-0.452,-0.858
1014344,-516.0,8244.0,4642.0,0.215,0.107,-0.46,-0.855
1014360,-702.0,7984.0,4286.0,0.206,0.117,-0.467,-0.852
1014377,-788.0,7640.0,4338.0,0.197,0.127,-0.475,-0.848
1014394,-1022.0,8234.0,4492.0,0.187,0.136,-0.483,-0.844
1014420,-1260.0,8864.0,4618.0,0.177,0.146,-0.492,-0.84
1014436,-1546.0,10146.0,4488.0,0.167,0.152,-0.499,-0.837
1014453,-1156.0,10464.0,4218.0,0.156,0.157,-0.501,-0.837
1014470,-462.0,9528.0,4468.0,0.145,0.159,-0.497,-0.84
1014486,-242.0,7908.0,4434.0,0.136,0.162,-0.49,-0.846
1014503,-284.0,6414.0,4656.0,0.129,0.166,-0.48,-0.852
1014520,-524.0,5426.0,4632.0,0.122,0.172,-0.472,-0.856
1014536,-1386.0,4598.0,4078.0,0.116,0.178,-0.465,-0.86
1014553,-588.0,3444.0,3982.0,0.111,0.183,-0.463,-0.86
1014579,-1518.0,5088.0,3086.0,0.105,0.189,-0.463,-0.86
1014596,-1910.0,4516.0,2212.0,0.101,0.191,-0.464,-0.859
1014612,-254.0,3904.0,3162.0,0.101,0.191,-0.467,-0.857
1014628,-738.0,5272.0,3484.0,0.102,0.192,-0.469,-0.856
1014644,-794.0,5562.0,3814.0,0.103,0.193,-0.469,-0.856
1014660,-1104.0,6516.0,3930.0,0.103,0.194,-0.469,-0.855
1014686,-1680.0,7628.0,3772.0,0.104,0.195,-0.468,-0.856
1014703,-1862.0,7932.0,3804.0,0.106,0.195,-0.464,-0.857
1014719,-2044.0,7364.0,3890.0,0.108,0.195,-0.461,-0.859
1014736,-2012.0,6468.0,4104.0,0.109,0.195,-0.458,-0.86
1014753,-2088.0,6240.0,4224.0,0.109,0.196,-0.457,-0.86
1014769,-2164.0,6894.0,4002.0,0.11,0.198,-0.458,-0.86
1014786,-2832.0,7968.0,3658.0,0.11,0.2,-0.457,-0.86
1014802,-2686.0,8110.0,4518.0,0.111,0.2,-0.453,-0.862
1014828,-1970.0,6780.0,5032.0,0.112,0.199,-0.446,-0.865
1014844,-1882.0,5986.0,5108.0,0.113,0.198,-0.44,-0.869
1014861,-1612.0,6266.0,5046.0,0.115,0.198,-0.434,-0.871
1014877,-1554.0,6310.0,5096.0,0.116,0.198,-0.429,-0.874
1014894,-1980.0,5964.0,4774.0,0.117,0.2,-0.424,-0.875
1014910,-3036.0,6796.0,4382.0,0.118,0.201,-0.42,-0.877
1014926,-2794.0,6662.0,4592.0,0.12,0.202,-0.414,-0.879
1014952,-2426.0,6286.0,5058.0,0.122,0.203,-0.408,-0.882
1014968,-2068.0,5774.0,5506.0,0.123,0.205,-0.402,-0.884
1014985,-2416.0,5800.0,5568.0,0.124,0.208,-0.396,-0.885
1015002,-2400.0,6072.0,5756.0,0.127,0.21,-0.389,-0.888
1015019,-2254.0,5572.0,6102.0,0.13,0.212,-0.382,-0.89
1015036,-1986.0,5544.0,6368.0,0.133,0.214,-0.375,-0.892
1015053,-2070.0,5974.0,5818.0,0.136,0.216,-0.37,-0.893
1015069,-1890.0,5722.0,5614.0,0.14,0.217,-0.366,-0.894
1015086,-1958.0,5460.0,5326.0,0.144,0.219,-0.363,-0.894
1015103,-2042.0,6082.0,5074.0,0.148,0.22,-0.362,-0.894
1015119,-2486.0,6800.0,4642.0,0.151,0.22,-0.361,-0.893
1015146,-2498.0,7058.0,4516.0,0.154,0.22,-0.36,-0.893
1015162,-2590.0,7164.0,4772.0,0.157,0.22,-0.361,-0.893
1015179,-2942.0,7612.0,4800.0,0.158,0.22,-0.362,-0.892
1015196,-3102.0,7832.0,4602.0,0.159,0.22,-0.36,-0.893
1015212,-2834.0,6792.0,4300.0,0.159,0.218,-0.355,-0.895
1015228,-2592.0,4952.0,4392.0,0.159,0.215,-0.35,-0.898
1015244,-2698.0,6042.0,4584.0,0.156,0.214,-0.348,-0.899
1015270,-2610.0,6420.0,4942.0,0.153,0.213,-0.347,-0.9
1015286,-2556.0,5898.0,5442.0,0.151,0.213,-0.346,-0.901
1015303,-2380.0,5750.0,5632.0,0.147,0.212,-0.344,-0.903
1015319,-2574.0,6148.0,5762.0,0.143,0.212,-0.343,-0.904
1015336,-2382.0,6194.0,5980.0,0.139,0.212,-0.34,-0.905
1015353,-2532.0,5618.0,5762.0,0.135,0.213,-0.338,-0.907
1015369,-2468.0,5484.0,5920.0,0.13,0.213,-0.336,-0.908
1015386,-2560.0,5742.0,5964.0,0.126,0.214,-0.335,-0.909
1015412,-2424.0,5358.0,6318.0,0.121,0.216,-0.333,-0.91
1015428,-2598.0,5142.0,6478.0,0.116,0.217,-0.332,-0.91
1015445,-2818.0,5720.0,7182.0,0.11,0.22,-0.332,-0.911
1015461,-2758.0,6638.0,7674.0,0.105,0.222,-0.329,-0.912
1015478,-3006.0,6804.0,7834.0,0.101,0.224,-0.324,-0.914
1015494,-2840.0,6874.0,6976.0,0.096,0.226,-0.316,-0.916
1015510,-3540.0,5200.0,7628.0,0.09,0.229,-0.309,-0.919
1015536,-4236.0,5906.0,7976.0,0.083,0.234,-0.302,-0.921
1015552,-4692.0,6894.0,8084.0,0.075,0.239,-0.293,-0.923
1015569,-4548.0,6732.0,8284.0,0.067,0.244,-0.283,-0.925
1015586,-4994.0,6262.0,8276.0,0.06,0.251,-0.271,-0.927
1015603,-4510.0,5262.0,8752.0,0.052,0.258,-0.256,-0.93
1015619,-4230.0,4252.0,8720.0,0.045,0.267,-0.24,-0.932
1015635,-4120.0,4428.0,8538.0,0.038,0.277,-0.225,-0.934
1015651,-4144.0,4772.0,7802.0,0.031,0.288,-0.209,-0.934
1015668,-4410.0,3940.0,7362.0,0.024,0.301,-0.193,-0.934
1015694,-4596.0,3430.0,6838.0,0.017,0.314,-0.177,-0.933
1015711,-5080.0,3374.0,6416.0,0.009,0.328,-0.162,-0.931
1015728,-5436.0,3184.0,6178.0,0.001,0.341,-0.146,-0.929
1015745,-5066.0,2286.0,6180.0,0.006,-0.355,0.13,0.926
1015761,-5360.0,2404.0,5770.0,0.015,-0.368,0.116,0.922
1015777,-5426.0,3006.0,5708.0,0.023,-0.381,0.101,0.919
1015793,-5312.0,2322.0,5556.0,0.03,-0.393,0.085,0.915
1015810,-5432.0,1584.0,5512.0,0.037,-0.405,0.07,0.911
1015836,-5956.0,740.0,4992.0,0.044,-0.416,0.055,0.907
1015852,-5826.0,260.0,5146.0,0.052,-0.427,0.042,0.902
1015869,-5740.0,1290.0,4070.0,0.06,-0.438,0.03,0.896
1015886,-6210.0,1264.0,3416.0,0.068,-0.448,0.02,0.891
1015902,-5878.0,124.0,3520.0,0.076,-0.457,0.011,0.886
1015919,-6158.0,404.0,3316.0,0.084,-0.466,0.003,0.881
1015936,-6044.0,-240.0,4008.0,0.091,-0.474,-0.005,0.876
1015962,-5964.0,-1312.0,4460.0,0.099,-0.482,-0.012,0.871
1015978,-6350.0,-2138.0,4912.0,0.107,-0.489,-0.017,0.866
1015995,-6680.0,-2822.0,5704.0,0.116,-0.496,-0.017,0.86
1016012,-7496.0,-1800.0,5448.0,0.126,-0.503,-0.016,0.855
1016028,-8862.0,-2070.0,4562.0,0.135,-0.511,-0.018,0.849
1016044,-8938.0,-1774.0,4066.0,0.144,-0.518,-0.02,0.843
1016060,-9578.0,860.0,3230.0,0.153,-0.524,-0.025,0.837
1016076,-9832.0,1908.0,5318.0,0.168,-0.53,-0.035,0.83
1016093,-8244.0,-518.0,4058.0,0.178,-0.538,-0.05,0.822
1016119,-8022.0,-1406.0,2690.0,0.186,-0.544,-0.065,0.816
1016135,-5668.0,152.0,-222.0,0.193,-0.547,-0.082,0.81
1016152,-7156.0,-2772.0,426.0,0.202,-0.549,-0.093,0.806
1016169,-8262.0,-2498.0,2396.0,0.209,-0.55,-0.099,0.803
1016186,-7650.0,-2784.0,3654.0,0.216,-0.548,-0.106,0.801
1016203,-6704.0,-6390.0,3382.0,0.225,-0.546,-0.107,0.8
1016220,-6392.0,-3840.0,3460.0,0.238,-0.544,-0.101,0.798
1016237,-7166.0,-1122.0,4230.0,0.253,-0.542,-0.091,0.796
1016254,-8468.0,1446.0,3940.0,0.268,-0.541,-0.085,0.793
1016270,-8236.0,-130.0,3438.0,0.277,-0.541,-0.084,0.79
1016296,-7872.0,-2290.0,2750.0,0.285,-0.54,-0.083,0.787
1016313,-8026.0,-1436.0,3226.0,0.294,-0.539,-0.084,0.785
1016329,-7918.0,-892.0,3514.0,0.303,-0.537,-0.085,0.783
1016345,-7026.0,-526.0,3602.0,0.31,-0.536,-0.092,0.78
1016361,-6838.0,-2368.0,3370.0,0.315,-0.534,-0.102,0.778
1016377,-6398.0,-2662.0,2830.0,0.32,-0.533,-0.112,0.776
1016394,-6154.0,-2448.0,2564.0,0.323,-0.531,-0.124,0.774
1016421,-5874.0,-3374.0,2420.0,0.324,-0.529,-0.137,0.773
1016437,-5180.0,-4232.0,1804.0,0.324,-0.526,-0.149,0.772
1016454,-4848.0,-6090.0,1898.0,0.324,-0.524,-0.159,0.772
1016470,-4462.0,-5666.0,2128.0,0.323,-0.521,-0.166,0.772
1016486,-4636.0,-5376.0,2128.0,0.322,-0.518,-0.172,0.774
1016502,-4878.0,-4748.0,1990.0,0.319,-0.515,-0.177,0.776
1016518,-5072.0,-4430.0,2044.0,0.316,-0.511,-0.182,0.779
1016544,-4760.0,-4252.0,1912.0,0.31,-0.507,-0.188,0.782
1016560,-4734.0,-4528.0,1970.0,0.304,-0.504,-0.195,0.785
1016576,-4614.0,-4860.0,2300.0,0.298,-0.5,-0.203,0.787
1016592,-4642.0,-4336.0,2412.0,0.293,-0.497,-0.21,0.79
1016608,-4262.0,-4306.0,2376.0,0.287,-0.494,-0.218,0.791
1016625,-3920.0,-4762.0,2062.0,0.282,-0.492,-0.227,0.792
1016652,-3400.0,-4742.0,1488.0,0.279,-0.491,-0.236,0.791
1016668,-3456.0,-3468.0,2406.0,0.278,-0.492,-0.245,0.788
1016685,-4762.0,-3518.0,2502.0,0.275,-0.494,-0.258,0.784
1016702,-4942.0,-3720.0,2884.0,0.271,-0.496,-0.273,0.779
1016718,-4948.0,-5654.0,1998.0,0.268,-0.497,-0.292,0.772
1016735,-4522.0,-9884.0,2932.0,0.266,-0.496,-0.307,0.767
1016752,-3522.0,-9536.0,3216.0,0.271,-0.494,-0.313,0.765
1016768,-3296.0,-8404.0,4022.0,0.28,-0.491,-0.312,0.764
1016784,-4070.0,-5466.0,2684.0,0.29,-0.488,-0.31,0.762
1016801,-5698.0,1106.0,148.0,0.297,-0.485,-0.318,0.759
1016828,-3298.0,-4194.0,1406.0,0.3,-0.483,-0.335,0.751
1016845,-2844.0,-6076.0,628.0,0.303,-0.48,-0.354,0.743
1016861,-2296.0,-6454.0,1068.0,0.304,-0.478,-0.375,0.734
1016878,-2538.0,-4918.0,690.0,0.303,-0.474,-0.401,0.723
1016895,-2222.0,-4952.0,236.0,0.299,-0.47,-0.432,0.709
1016912,-2150.0,-8422.0,158.0,0.291,-0.465,-0.468,0.693
1016929,-3790.0,-12368.0,2830.0,0.296,-0.456,-0.484,0.686
1016945,-2076.0,-9496.0,1800.0,0.296,-0.45,-0.497,0.68
1016962,-2636.0,-5430.0,194.0,0.294,-0.444,-0.512,0.674
1016978,-2416.0,-6394.0,-168.0,0.29,-0.436,-0.531,0.666
1017005,-3118.0,-5316.0,-2796.0,0.283,-0.427,-0.552,0.658
1017022,302.0,-12704.0,-3120.0,0.272,-0.418,-0.575,0.649
1017039,950.0,-9992.0,6788.0,0.268,-0.412,-0.59,0.64
1017055,-1572.0,-15252.0,3434.0,0.266,-0.411,-0.592,0.64
1017071,-2516.0,-5894.0,536.0,0.263,-0.409,-0.594,0.641
1017087,-2840.0,-6092.0,-68.0,0.252,-0.412,-0.601,0.637
1017103,-2590.0,-7116.0,-710.0,0.238,-0.416,-0.611,0.631
1017129,-1972.0,-7000.0,-1784.0,0.222,-0.42,-0.621,0.623
1017145,-1468.0,-8450.0,-1794.0,0.206,-0.425,-0.633,0.613
1017162,98.0,-14280.0,-598.0,0.199,-0.429,-0.635,0.611
1017178,-1580.0,-9066.0,-2218.0,0.195,-0.429,-0.635,0.612
1017203,-1270.0,-5732.0,-2648.0,0.192,-0.429,-0.638,0.611
1017219,-1808.0,-5430.0,-2526.0,0.187,-0.428,-0.643,0.606
1017235,-2254.0,-8190.0,-1834.0,0.18,-0.428,-0.65,0.601
1017252,-1214.0,-9226.0,-1674.0,0.177,-0.427,-0.655,0.598
1017268,-1592.0,-8666.0,-1762.0,0.179,-0.423,-0.658,0.596
1017285,-1206.0,-7362.0,-1262.0,0.183,-0.418,-0.661,0.596
1017302,-1636.0,-7004.0,-1456.0,0.189,-0.413,-0.662,0.596
1017318,-1086.0,-5904.0,-2022.0,0.195,-0.407,-0.665,0.596
1017336,-1332.0,-6550.0,-1168.0,0.2,-0.399,-0.668,0.595
1017353,-1530.0,-6170.0,-918.0,0.205,-0.393,-0.671,0.594
1017369,-1516.0,-5490.0,-1078.0,0.208,-0.387,-0.676,0.591
1017385,-658.0,-6272.0,-1208.0,0.212,-0.382,-0.682,0.586
1017411,-740.0,-7334.0,-1088.0,0.217,-0.376,-0.688,0.582
1017427,-572.0,-7432.0,-988.0,0.223,-0.37,-0.692,0.578
1017444,-762.0,-6888.0,-930.0,0.23,-0.364,-0.696,0.575
1017461,-768.0,-7042.0,-940.0,0.239,-0.358,-0.699,0.571
1017478,-644.0,-7200.0,-1074.0,0.248,-0.351,-0.702,0.568
1017495,-454.0,-7324.0,-1238.0,0.258,-0.344,-0.704,0.564
1017512,-364.0,-7842.0,-1186.0,0.269,-0.338,-0.706,0.561
1017529,-456.0,-7694.0,-1222.0,0.28,-0.33,-0.707,0.559
1017546,-544.0,-7484.0,-1126.0,0.291,-0.322,-0.709,0.555
1017563,-372.0,-7006.0,-1412.0,0.302,-0.315,-0.711,0.551
1017580,90.0,-7568.0,-1376.0,0.311,-0.308,-0.714,0.546
1017606,472.0,-7704.0,-1562.0,0.319,-0.301,-0.718,0.54
1017622,664.0,-8104.0,-1684.0,0.327,-0.295,-0.723,0.533
1017638,864.0,-8344.0,-1504.0,0.335,-0.287,-0.728,0.526
1017654,1138.0,-8676.0,-1646.0,0.342,-0.28,-0.733,0.518
1017671,1486.0,-8694.0,-1784.0,0.348,-0.272,-0.738,0.511
1017688,1770.0,-8172.0,-2316.0,0.355,-0.264,-0.743,0.503
1017704,2258.0,-8068.0,-2494.0,0.36,-0.257,-0.748,0.495
1017721,2596.0,-8722.0,-2652.0,0.364,-0.251,-0.753,0.487
1017748,2762.0,-8400.0,-2856.0,0.368,-0.244,-0.757,0.481
1017765,3066.0,-8694.0,-2812.0,0.372,-0.237,-0.761,0.475
1017782,3190.0,-8904.0,-2804.0,0.375,-0.23,-0.765,0.471
1017798,3136.0,-8514.0,-2482.0,0.377,-0.224,-0.768,0.467
1017815,3556.0,-9110.0,-2280.0,0.379,-0.218,-0.771,0.463
1017833,3416.0,-10200.0,-2594.0,0.38,-0.213,-0.773,0.46
1017850,3344.0,-11184.0,-2470.0,0.381,-0.208,-0.776,0.458
1017867,3318.0,-11200.0,-2470.0,0.382,-0.204,-0.777,0.457
1017883,3622.0,-11562.0,-2624.0,0.381,-0.202,-0.778,0.457
1017899,4106.0,-12326.0,-2642.0,0.379,-0.201,-0.779,0.457
1017925,3922.0,-11462.0,-2600.0,0.377,-0.201,-0.78,0.457
1017941,3782.0,-11256.0,-2606.0,0.372,-0.205,-0.781,0.457
1017957,3704.0,-11692.0,-2644.0,0.365,-0.211,-0.782,0.459
1017973,3436.0,-11374.0,-2924.0,0.358,-0.218,-0.782,0.462
1017990,3522.0,-11648.0,-2700.0,0.351,-0.225,-0.78,0.467
1018006,2944.0,-10724.0,-2030.0,0.345,-0.231,-0.775,0.476
1018022,2454.0,-8178.0,-2558.0,0.337,-0.238,-0.77,0.487
1018049,2424.0,-8646.0,-2874.0,0.327,-0.247,-0.765,0.497
1018065,2214.0,-8718.0,-2972.0,0.318,-0.255,-0.758,0.509
1018081,2042.0,-7956.0,-2464.0,0.309,-0.263,-0.75,0.521
1018098,1730.0,-9022.0,-1890.0,0.301,-0.272,-0.743,0.533
1018115,760.0,-7476.0,-1104.0,0.292,-0.28,-0.735,0.544
1018132,310.0,-6628.0,-1412.0,0.28,-0.289,-0.729,0.553
1018149,382.0,-7906.0,-1556.0,0.266,-0.3,-0.726,0.56
1018166,-242.0,-8904.0,-1570.0,0.251,-0.308,-0.723,0.565
1018183,-584.0,-7674.0,-1864.0,0.238,-0.316,-0.72,0.57
1018200,-864.0,-6664.0,-1906.0,0.223,-0.323,-0.719,0.574
1018217,-624.0,-7998.0,-1826.0,0.208,-0.329,-0.718,0.578
1018244,-686.0,-7000.0,-2048.0,0.195,-0.333,-0.716,0.582
1018260,-1122.0,-5876.0,-1688.0,0.181,-0.337,-0.715,0.585
1018277,-1070.0,-5450.0,-1602.0,0.165,-0.341,-0.715,0.587
1018294,-964.0,-5122.0,-1470.0,0.147,-0.345,-0.716,0.589
1018311,-806.0,-5250.0,-1282.0,0.129,-0.35,-0.717,0.589
1018327,-296.0,-6594.0,-1910.0,0.113,-0.354,-0.718,0.589
1018344,-1282.0,-4482.0,-1268.0,0.099,-0.356,-0.72,0.588
1018361,-692.0,-3772.0,-1358.0,0.086,-0.356,-0.723,0.586
1018377,-386.0,-3430.0,-1170.0,0.077,-0.356,-0.726,0.584
1018403,32.0,-3390.0,-1258.0,0.07,-0.355,-0.729,0.581
1018419,-70.0,-4032.0,-1336.0,0.067,-0.354,-0.731,0.579
1018435,-66.0,-4742.0,-1368.0,0.07,-0.351,-0.733,0.578
1018452,-264.0,-5334.0,-1014.0,0.077,-0.348,-0.733,0.579
1018469,-796.0,-3474.0,-1214.0,0.088,-0.343,-0.733,0.581
1018486,-1252.0,-2814.0,-1124.0,0.102,-0.338,-0.732,0.583
1018503,-1402.0,-5588.0,-1498.0,0.116,-0.333,-0.732,0.583
1018520,-1756.0,-5854.0,-1608.0,0.133,-0.327,-0.731,0.585
1018537,-2192.0,-5016.0,-1494.0,0.149,-0.321,-0.73,0.585
1018554,-1954.0,-6794.0,-1792.0,0.164,-0.316,-0.731,0.582
1018571,-2078.0,-8718.0,-1530.0,0.179,-0.31,-0.732,0.58
1018598,-2178.0,-9436.0,-1410.0,0.194,-0.304,-0.734,0.576
1018615,-2142.0,-8308.0,-1192.0,0.209,-0.297,-0.736,0.572
1018632,-1382.0,-8306.0,-1692.0,0.221,-0.29,-0.74,0.565
1018649,-288.0,-7424.0,-2356.0,0.231,-0.284,-0.745,0.558
1018666,584.0,-8374.0,-2726.0,0.24,-0.278,-0.751,0.549
1018683,626.0,-8130.0,-2062.0,0.249,-0.272,-0.755,0.542
1018700,954.0,-8348.0,-1802.0,0.258,-0.266,-0.76,0.534
1018718,1170.0,-8290.0,-1516.0,0.268,-0.26,-0.764,0.526
1018736,1356.0,-8118.0,-2132.0,0.278,-0.253,-0.768,0.519
1018753,1610.0,-7996.0,-2496.0,0.287,-0.245,-0.771,0.513
1018770,1680.0,-7970.0,-2524.0,0.296,-0.238,-0.773,0.508
1018787,1996.0,-8396.0,-2268.0,0.304,-0.231,-0.775,0.504
1018804,1910.0,-8710.0,-2420.0,0.312,-0.225,-0.776,0.5
1018820,2162.0,-8990.0,-2554.0,0.319,-0.219,-0.778,0.496
1018846,2328.0,-9800.0,-2730.0,0.325,-0.213,-0.779,0.493
1018863,2408.0,-8904.0,-2880.0,0.331,-0.208,-0.779,0.49
1018880,2870.0,-11362.0,-2352.0,0.336,-0.203,-0.78,0.488
1018897,2598.0,-11436.0,-2324.0,0.341,-0.197,-0.78,0.486
1018914,2480.0,-11592.0,-2672.0,0.344,-0.193,-0.78,0.486
1018931,2838.0,-12514.0,-2790.0,0.345,-0.191,-0.78,0.485
1018948,3648.0,-14252.0,-3214.0,0.344,-0.19,-0.781,0.485
1018965,3340.0,-12554.0,-3122.0,0.341,-0.191,-0.783,0.485
1018981,3680.0,-12046.0,-3750.0,0.335,-0.195,-0.785,0.483
1018997,3596.0,-11836.0,-3518.0,0.326,-0.201,-0.788,0.483
1019023,3352.0,-11218.0,-3562.0,0.316,-0.207,-0.789,0.484
1019039,3552.0,-11512.0,-2824.0,0.307,-0.214,-0.789,0.487
1019056,3388.0,-11356.0,-2744.0,0.299,-0.22,-0.787,0.492
1019072,2126.0,-8096.0,-3194.0,0.291,-0.226,-0.784,0.5
1019088,1560.0,-8036.0,-3110.0,0.28,-0.234,-0.78,0.508
1019104,1580.0,-8590.0,-3330.0,0.268,-0.243,-0.776,0.517
1019120,1254.0,-8082.0,-3330.0,0.256,-0.251,-0.77,0.527
1019146,826.0,-7876.0,-2824.0,0.244,-0.26,-0.763,0.539
1019162,312.0,-7592.0,-2086.0,0.233,-0.268,-0.755,0.551
1019178,-306.0,-8090.0,-1652.0,0.221,-0.276,-0.748,0.562
1019206,-620.0,-7414.0,-1494.0,0.209,-0.284,-0.741,0.571
1019222,-1122.0,-7818.0,-1598.0,0.196,-0.292,-0.736,0.578
1019238,-1784.0,-6634.0,-2578.0,0.181,-0.301,-0.732,0.584
1019254,-1264.0,-7810.0,-2488.0,0.166,-0.309,-0.729,0.588
1019270,-1266.0,-7442.0,-2766.0,0.15,-0.317,-0.725,0.593
1019288,-1010.0,-7446.0,-2752.0,0.135,-0.324,-0.72,0.599
1019304,-1788.0,-6054.0,-1686.0,0.121,-0.33,-0.715,0.604
1019320,-1344.0,-3400.0,-1850.0,0.105,-0.336,-0.712,0.607
1019336,-110.0,-5352.0,-2468.0,0.088,-0.341,-0.711,0.608
1019352,-864.0,-6308.0,-1492.0,0.075,-0.346,-0.708,0.611
1019368,-1006.0,-4592.0,-1730.0,0.064,-0.349,-0.704,0.616
1019387,-230.0,-5032.0,86.0,0.056,-0.351,-0.701,0.618
1019404,-790.0,-2540.0,-208.0,0.05,-0.352,-0.699,0.621
1019430,-226.0,-2394.0,-68.0,0.045,-0.352,-0.699,0.621
1019446,-72.0,-3892.0,-616.0,0.041,-0.352,-0.7,0.62
1019462,-190.0,-3484.0,-1212.0,0.042,-0.35,-0.701,0.62
1019478,186.0,-4234.0,-1202.0,0.046,-0.349,-0.7,0.621
1019495,-714.0,-7190.0,-796.0,0.055,-0.347,-0.698,0.624
1019511,-1518.0,-6656.0,-378.0,0.07,-0.344,-0.692,0.63
1019528,-2218.0,-3044.0,94.0,0.089,-0.339,-0.688,0.636
1019554,-3314.0,-2978.0,1218.0,0.104,-0.334,-0.689,0.635
1019571,-3594.0,-7284.0,1342.0,0.117,-0.329,-0.692,0.631
1019587,-3414.0,-7432.0,-160.0,0.129,-0.325,-0.696,0.627
1019603,-2882.0,-6342.0,-1044.0,0.141,-0.32,-0.702,0.621
1019619,-2202.0,-7504.0,-1590.0,0.153,-0.315,-0.708,0.613
1019635,-1556.0,-6292.0,-1838.0,0.165,-0.31,-0.714,0.605
1019651,-1270.0,-7788.0,-1446.0,0.175,-0.305,-0.721,0.597
1019679,-1104.0,-9438.0,-1610.0,0.188,-0.3,-0.725,0.59
1019695,-1176.0,-8756.0,-1570.0,0.2,-0.294,-0.729,0.585
1019711,-816.0,-8604.0,-1270.0,0.213,-0.287,-0.731,0.581
1019727,-444.0,-8340.0,-1710.0,0.226,-0.281,-0.733,0.577
1019743,-444.0,-7734.0,-1794.0,0.237,-0.274,-0.735,0.573
1019759,-40.0,-7394.0,-2036.0,0.247,-0.267,-0.738,0.568
1019775,766.0,-9724.0,-1992.0,0.256,-0.262,-0.742,0.562
1019801,504.0,-10494.0,-1134.0,0.265,-0.255,-0.743,0.559
1019817,422.0,-7518.0,-1720.0,0.275,-0.248,-0.744,0.556
1019833,1124.0,-7732.0,-1822.0,0.283,-0.241,-0.746,0.553
1019849,1582.0,-9368.0,-1570.0,0.291,-0.234,-0.748,0.549
1019865,1660.0,-9148.0,-1648.0,0.299,-0.227,-0.749,0.546
1019881,1454.0,-8180.0,-1558.0,0.307,-0.22,-0.749,0.544
1019907,1890.0,-8276.0,-1518.0,0.314,-0.213,-0.751,0.541
1019923,2474.0,-9352.0,-1758.0,0.321,-0.206,-0.753,0.536
1019939,2312.0,-9980.0,-1992.0,0.327,-0.2,-0.756,0.531
1019955,2346.0,-10762.0,-2236.0,0.333,-0.193,-0.758,0.526
1019971,2866.0,-12464.0,-2286.0,0.338,-0.188,-0.762,0.52
1019997,3172.0,-14806.0,-2234.0,0.341,-0.183,-0.765,0.515
1020013,2212.0,-12628.0,-2764.0,0.343,-0.18,-0.767,0.512
1020029,3252.0,-12122.0,-2322.0,0.338,-0.181,-0.772,0.507
1020045,4410.0,-13394.0,-2970.0,0.329,-0.186,-0.778,0.502
1020061,3952.0,-13076.0,-3722.0,0.317,-0.193,-0.783,0.499
1020077,3434.0,-11844.0,-3946.0,0.305,-0.201,-0.786,0.499
1020093,3272.0,-11594.0,-3278.0,0.292,-0.209,-0.786,0.503
1020119,2966.0,-10088.0,-3030.0,0.28,-0.217,-0.785,0.508
1020135,2680.0,-10138.0,-2918.0,0.268,-0.225,-0.781,0.516
1020152,2058.0,-8626.0,-2876.0,0.257,-0.233,-0.776,0.527
1020168,1134.0,-7564.0,-2420.0,0.245,-0.241,-0.769,0.539
1020184,754.0,-7116.0,-1956.0,0.232,-0.25,-0.761,0.552
1020201,642.0,-7656.0,-1984.0,0.219,-0.259,-0.754,0.563
1020217,616.0,-8042.0,-1944.0,0.207,-0.269,-0.745,0.574
1020243,308.0,-6976.0,-1946.0,0.197,-0.278,-0.736,0.585
1020259,-300.0,-7448.0,-1782.0,0.189,-0.287,-0.727,0.595
1020275,-1056.0,-7142.0,-936.0,0.182,-0.295,-0.717,0.605
1020292,-1654.0,-5696.0,-678.0,0.174,-0.303,-0.709,0.613
1020308,-1530.0,-7136.0,-552.0,0.163,-0.311,-0.703,0.618
1020334,-1206.0,-7266.0,-594.0,0.153,-0.32,-0.699,0.621
1020350,-1718.0,-6014.0,-1834.0,0.141,-0.328,-0.696,0.623
1020366,-1616.0,-5072.0,-942.0,0.129,-0.338,-0.694,0.623
1020382,-2316.0,-6458.0,-668.0,0.116,-0.346,-0.693,0.622
1020398,-2522.0,-6986.0,-1110.0,0.104,-0.353,-0.693,0.62
1020414,-2908.0,-6068.0,-688.0,0.094,-0.358,-0.693,0.618
1020430,-2646.0,-4152.0,-658.0,0.083,-0.361,-0.696,0.615
1020456,-2254.0,-3842.0,-1106.0,0.072,-0.363,-0.7,0.611
1020472,-1384.0,-3456.0,-1254.0,0.061,-0.364,-0.705,0.606
1020488,-1080.0,-3288.0,-1476.0,0.051,-0.363,-0.709,0.602
1020504,-182.0,-5396.0,-1268.0,0.044,-0.362,-0.712,0.6
1020520,-692.0,-3666.0,-942.0,0.042,-0.36,-0.714,0.599
1020536,-744.0,-3382.0,-522.0,0.042,-0.358,-0.717,0.597
1020562,-902.0,-4618.0,-580.0,0.045,-0.354,-0.721,0.594
1020578,-1590.0,-4100.0,-490.0,0.051,-0.349,-0.727,0.589
1020594,-1700.0,-3598.0,-474.0,0.06,-0.343,-0.734,0.583
1020610,-2122.0,-4030.0,-864.0,0.07,-0.336,-0.742,0.576
1020626,-1960.0,-5452.0,-1342.0,0.082,-0.328,-0.749,0.57
1020642,-1746.0,-5866.0,-2656.0,0.095,-0.32,-0.754,0.566
1020668,-1678.0,-6464.0,-2910.0,0.11,-0.313,-0.757,0.563
1020684,-1630.0,-7768.0,-2676.0,0.127,-0.305,-0.759,0.561
1020700,-1770.0,-7092.0,-2972.0,0.143,-0.296,-0.76,0.56
1020717,-1550.0,-7676.0,-2794.0,0.159,-0.288,-0.761,0.559
1020734,-1480.0,-8964.0,-2698.0,0.174,-0.28,-0.763,0.556
1020750,-902.0,-8656.0,-2256.0,0.189,-0.272,-0.764,0.553
1020766,-540.0,-8052.0,-1846.0,0.203,-0.265,-0.767,0.548
1020793,638.0,-8462.0,-2128.0,0.215,-0.258,-0.771,0.541
1020809,1174.0,-9662.0,-3244.0,0.228,-0.252,-0.775,0.533
1020825,752.0,-9240.0,-2890.0,0.242,-0.246,-0.776,0.528
1020841,846.0,-7676.0,-2764.0,0.255,-0.239,-0.778,0.522
1020857,1654.0,-8064.0,-2768.0,0.266,-0.233,-0.78,0.516
1020873,2386.0,-7838.0,-2760.0,0.277,-0.228,-0.781,0.511
1020899,2530.0,-7224.0,-2954.0,0.287,-0.223,-0.783,0.505
1020916,2540.0,-8850.0,-2516.0,0.296,-0.219,-0.785,0.499
1020932,2522.0,-8508.0,-2728.0,0.305,-0.214,-0.786,0.493
1020948,2554.0,-8796.0,-2990.0,0.314,-0.208,-0.787,0.488
1020965,2884.0,-9034.0,-3334.0,0.322,-0.203,-0.788,0.484
1020982,2760.0,-9840.0,-3460.0,0.329,-0.198,-0.789,0.48
1020998,3010.0,-11030.0,-3586.0,0.334,-0.194,-0.789,0.478
1021015,3062.0,-11414.0,-3670.0,0.338,-0.19,-0.788,0.477
1021031,3210.0,-12880.0,-3032.0,0.34,-0.187,-0.789,0.477
1021057,3246.0,-11430.0,-3616.0,0.341,-0.186,-0.789,0.476
1021074,3710.0,-13692.0,-3526.0,0.339,-0.187,-0.789,0.477
1021090,3422.0,-12622.0,-2832.0,0.336,-0.189,-0.789,0.479
1021107,3288.0,-11320.0,-3118.0,0.331,-0.193,-0.788,0.482
1021124,3306.0,-11252.0,-3312.0,0.323,-0.199,-0.788,0.485
1021141,3150.0,-11644.0,-3266.0,0.314,-0.206,-0.787,0.49
1021158,2788.0,-10880.0,-3074.0,0.306,-0.212,-0.784,0.496
1021175,2156.0,-9816.0,-2702.0,0.297,-0.219,-0.78,0.505
1021192,1808.0,-9146.0,-2648.0,0.287,-0.226,-0.775,0.516
1021210,1936.0,-9782.0,-2870.0,0.277,-0.233,-0.769,0.527
1021227,1692.0,-8546.0,-2330.0,0.267,-0.24,-0.762,0.538
1021253,1312.0,-8468.0,-1682.0,0.258,-0.248,-0.755,0.549
1021269,948.0,-7782.0,-1702.0,0.248,-0.256,-0.748,0.56
1021285,386.0,-8044.0,-1584.0,0.238,-0.264,-0.741,0.57
1021301,-114.0,-8216.0,-1872.0,0.226,-0.274,-0.734,0.579
1021317,-464.0,-7472.0,-2036.0,0.215,-0.283,-0.727,0.587
1021333,-626.0,-6494.0,-1958.0,0.203,-0.292,-0.721,0.594
1021350,-500.0,-7408.0,-2436.0,0.189,-0.302,-0.716,0.6
1021377,-786.0,-8364.0,-1746.0,0.177,-0.311,-0.711,0.606
1021393,-1642.0,-7318.0,-1258.0,0.165,-0.319,-0.706,0.611
1021409,-1964.0,-7550.0,-696.0,0.153,-0.327,-0.7,0.616
1021426,-1932.0,-7150.0,-1160.0,0.141,-0.335,-0.694,0.622
1021442,-2318.0,-7988.0,-1410.0,0.13,-0.342,-0.688,0.627
1021458,-2186.0,-4182.0,-1918.0,0.118,-0.348,-0.681,0.633
1021474,-1584.0,-3982.0,-1856.0,0.105,-0.354,-0.677,0.637
1021500,-1006.0,-4894.0,-1410.0,0.091,-0.359,-0.672,0.641
1021516,-984.0,-4402.0,-1064.0,0.08,-0.362,-0.667,0.646
1021532,-1072.0,-4750.0,-488.0,0.071,-0.364,-0.662,0.651
1021549,-852.0,-3558.0,104.0,0.065,-0.365,-0.657,0.656
1021566,-818.0,-2886.0,384.0,0.062,-0.364,-0.655,0.66
1021582,-720.0,-3156.0,366.0,0.061,-0.362,-0.653,0.662
1021598,-850.0,-4370.0,228.0,0.062,-0.358,-0.653,0.664
1021624,-1150.0,-4556.0,340.0,0.068,-0.354,-0.652,0.667
1021640,-1494.0,-3700.0,130.0,0.076,-0.349,-0.652,0.669
1021657,-1862.0,-3886.0,64.0,0.086,-0.343,-0.652,0.671
1021673,-2288.0,-4466.0,212.0,0.096,-0.337,-0.653,0.671
1021690,-2414.0,-6598.0,132.0,0.107,-0.33,-0.658,0.668
1021707,-2900.0,-7632.0,94.0,0.121,-0.323,-0.662,0.666
1021724,-2942.0,-6512.0,220.0,0.135,-0.316,-0.666,0.663
1021740,-2964.0,-4796.0,152.0,0.148,-0.309,-0.672,0.657
1021767,-2718.0,-5222.0,-124.0,0.159,-0.301,-0.682,0.647
1021783,-1630.0,-7258.0,-1000.0,0.168,-0.295,-0.695,0.634
1021800,-1006.0,-8136.0,-1568.0,0.178,-0.288,-0.707,0.62
1021816,-824.0,-7854.0,-1584.0,0.189,-0.282,-0.719,0.607
1021833,-608.0,-7936.0,-1694.0,0.199,-0.275,-0.729,0.594
1021850,120.0,-7920.0,-2194.0,0.209,-0.268,-0.739,0.582
1021866,208.0,-9664.0,-2366.0,0.221,-0.26,-0.747,0.571
1021883,462.0,-9046.0,-2112.0,0.233,-0.252,-0.753,0.562
1021900,932.0,-8928.0,-2260.0,0.244,-0.244,-0.758,0.554
1021926,1462.0,-8768.0,-2778.0,0.255,-0.236,-0.762,0.547
1021943,1766.0,-9172.0,-3092.0,0.266,-0.227,-0.764,0.542
1021960,1896.0,-7998.0,-2478.0,0.276,-0.219,-0.765,0.539
1021977,2002.0,-8384.0,-2362.0,0.286,-0.212,-0.766,0.535
1021994,2474.0,-8094.0,-2438.0,0.293,-0.205,-0.768,0.532
1022010,2718.0,-8508.0,-2042.0,0.301,-0.199,-0.769,0.528
1022027,2788.0,-9364.0,-1990.0,0.307,-0.194,-0.77,0.524
1022044,2876.0,-9112.0,-2240.0,0.314,-0.19,-0.771,0.52
1022061,2736.0,-9520.0,-2430.0,0.32,-0.185,-0.773,0.516
1022078,2948.0,-10072.0,-2744.0,0.325,-0.181,-0.773,0.513
1022095,2566.0,-9322.0,-2480.0,0.331,-0.177,-0.773,0.511
1022112,2834.0,-9126.0,-2492.0,0.333,-0.176,-0.776,0.506
1022129,3202.0,-11826.0,-2694.0,0.333,-0.178,-0.78,0.499
1022156,3060.0,-13702.0,-2428.0,0.332,-0.181,-0.784,0.493
1022173,3150.0,-13462.0,-2592.0,0.33,-0.184,-0.787,0.488
1022190,3148.0,-13298.0,-2856.0,0.327,-0.188,-0.79,0.484
1022207,3256.0,-12934.0,-2320.0,0.322,-0.192,-0.792,0.482
1022223,3358.0,-11608.0,-3158.0,0.317,-0.197,-0.793,0.482
1022240,3186.0,-11520.0,-3362.0,0.31,-0.203,-0.793,0.483
1022257,2792.0,-13930.0,-4452.0,0.302,-0.21,-0.793,0.487
1022273,2270.0,-12444.0,-3210.0,0.295,-0.215,-0.788,0.496
1022290,1488.0,-11930.0,-2336.0,0.288,-0.218,-0.781,0.51
1022306,1638.0,-11288.0,-2014.0,0.281,-0.221,-0.771,0.528
1022333,2060.0,-8226.0,-1588.0,0.273,-0.223,-0.759,0.547
1022350,2590.0,-5240.0,-3454.0,0.261,-0.23,-0.752,0.561
1022366,3098.0,-5558.0,-3680.0,0.248,-0.239,-0.746,0.57
1022383,1886.0,-7678.0,-2862.0,0.234,-0.249,-0.74,0.579
1022400,690.0,-7902.0,-2274.0,0.222,-0.259,-0.731,0.591
1022416,80.0,-7406.0,-1606.0,0.211,-0.268,-0.722,0.602
1022432,-924.0,-7384.0,-680.0,0.2,-0.276,-0.713,0.613
1022449,-1610.0,-6318.0,-198.0,0.189,-0.284,-0.705,0.621
1022466,-1522.0,-6120.0,-250.0,0.176,-0.292,-0.7,0.628
1022483,-1214.0,-7490.0,-1054.0,0.162,-0.3,-0.696,0.632
1022509,-1226.0,-7694.0,-1374.0,0.15,-0.308,-0.691,0.636
1022526,-1606.0,-5974.0,-1552.0,0.138,-0.315,-0.687,0.64
1022542,-1778.0,-5912.0,-1486.0,0.125,-0.322,-0.685,0.642
1022559,-2332.0,-6774.0,-1388.0,0.112,-0.329,-0.682,0.643
1022576,-2302.0,-6020.0,-1292.0,0.099,-0.336,-0.68,0.645
1022593,-2766.0,-5408.0,-584.0,0.088,-0.341,-0.677,0.646
1022610,-2608.0,-3468.0,-448.0,0.076,-0.345,-0.677,0.646
1022627,-2064.0,-3544.0,-758.0,0.063,-0.347,-0.678,0.645
1022644,-1426.0,-3400.0,-1186.0,0.052,-0.347,-0.678,0.645
1022660,-886.0,-2988.0,-1264.0,0.045,-0.346,-0.679,0.646
1022687,-464.0,-2924.0,-1014.0,0.041,-0.343,-0.679,0.648
1022704,-92.0,-2834.0,-572.0,0.041,-0.339,-0.679,0.65
1022721,-290.0,-3416.0,-166.0,0.045,-0.335,-0.679,0.652
1022738,-686.0,-4022.0,412.0,0.053,-0.329,-0.677,0.656
1022755,-1122.0,-3950.0,876.0,0.064,-0.323,-0.676,0.659
1022773,-1568.0,-4842.0,1228.0,0.078,-0.317,-0.675,0.662
1022790,-2362.0,-5820.0,1276.0,0.093,-0.31,-0.674,0.664
1022807,-3074.0,-5948.0,1098.0,0.11,-0.302,-0.675,0.664
1022824,-2960.0,-6042.0,716.0,0.126,-0.294,-0.679,0.661
1022841,-2870.0,-7438.0,-448.0,0.141,-0.288,-0.684,0.655
1022857,-2198.0,-8230.0,-1220.0,0.155,-0.281,-0.69,0.648
1022874,-1994.0,-8572.0,-676.0,0.168,-0.276,-0.696,0.641
1022891,-1442.0,-8192.0,-712.0,0.181,-0.27,-0.703,0.633
1022918,-998.0,-7824.0,-1322.0,0.193,-0.263,-0.71,0.623
1022935,-506.0,-8086.0,-1532.0,0.206,-0.256,-0.718,0.614
1022952,-18.0,-8024.0,-1774.0,0.218,-0.248,-0.725,0.604
1022969,398.0,-7972.0,-1886.0,0.231,-0.239,-0.731,0.596
1022986,920.0,-9396.0,-1412.0,0.243,-0.229,-0.736,0.588
1023002,1414.0,-8752.0,-1518.0,0.256,-0.219,-0.74,0.582
1023018,2002.0,-8692.0,-1224.0,0.267,-0.209,-0.744,0.576
1023034,2256.0,-9884.0,-1224.0,0.276,-0.201,-0.748,0.569
1023050,2538.0,-9654.0,-1724.0,0.286,-0.193,-0.751,0.563
1023076,2684.0,-8998.0,-1966.0,0.294,-0.185,-0.754,0.558
1023092,2952.0,-8478.0,-2022.0,0.301,-0.178,-0.756,0.553
1023109,3224.0,-8306.0,-2130.0,0.306,-0.172,-0.758,0.549
1023125,3342.0,-8372.0,-1942.0,0.311,-0.167,-0.76,0.546
1023141,3126.0,-8806.0,-1606.0,0.316,-0.162,-0.76,0.544
1023158,2806.0,-8762.0,-1420.0,0.321,-0.157,-0.76,0.542
1023175,3032.0,-9556.0,-1058.0,0.326,-0.151,-0.76,0.542
1023191,2746.0,-8974.0,-1650.0,0.331,-0.146,-0.758,0.543
1023218,3148.0,-8682.0,-1784.0,0.334,-0.142,-0.756,0.545
1023236,2904.0,-8358.0,-1964.0,0.335,-0.14,-0.755,0.546
1023252,3148.0,-11438.0,-1530.0,0.336,-0.138,-0.756,0.544
1023268,3214.0,-12552.0,-772.0,0.337,-0.135,-0.757,0.543
1023285,2990.0,-12536.0,-1178.0,0.337,-0.134,-0.759,0.542
1023301,3438.0,-14278.0,-1002.0,0.335,-0.134,-0.76,0.54
1023317,3776.0,-13360.0,-1496.0,0.332,-0.136,-0.762,0.539
1023333,3386.0,-12242.0,-1684.0,0.327,-0.139,-0.764,0.538
1023359,3346.0,-12160.0,-1778.0,0.32,-0.145,-0.766,0.538
1023376,3270.0,-13430.0,-1476.0,0.312,-0.151,-0.767,0.54
1023392,2816.0,-12808.0,-1028.0,0.304,-0.156,-0.765,0.546
1023408,2974.0,-12340.0,-1038.0,0.297,-0.16,-0.76,0.556
1023424,3052.0,-8952.0,-1856.0,0.29,-0.165,-0.752,0.568
1023441,2528.0,-7358.0,-2776.0,0.281,-0.172,-0.746,0.578
1023458,2272.0,-8422.0,-2118.0,0.27,-0.182,-0.74,0.588
1023474,1706.0,-8522.0,-1880.0,0.258,-0.192,-0.734,0.598
1023500,1350.0,-7786.0,-1014.0,0.246,-0.203,-0.726,0.609
1023516,1172.0,-7652.0,-570.0,0.233,-0.214,-0.719,0.619
1023532,636.0,-7630.0,-628.0,0.221,-0.225,-0.712,0.628
1023548,40.0,-7434.0,-478.0,0.208,-0.236,-0.705,0.635
1023565,-414.0,-8000.0,-372.0,0.197,-0.246,-0.7,0.641
1023581,-978.0,-7060.0,-544.0,0.187,-0.256,-0.695,0.646
1023598,-1200.0,-5614.0,-812.0,0.174,-0.266,-0.691,0.649
1023625,-876.0,-7296.0,-978.0,0.16,-0.276,-0.689,0.651
1023641,-870.0,-7038.0,-808.0,0.147,-0.285,-0.686,0.653
1023658,-1980.0,-7212.0,-686.0,0.133,-0.293,-0.685,0.654
1023675,-2014.0,-6440.0,-728.0,0.12,-0.3,-0.683,0.654
1023692,-2308.0,-6056.0,-750.0,0.107,-0.306,-0.683,0.654
1023708,-2546.0,-7302.0,-626.0,0.093,-0.311,-0.685,0.652
1023725,-2934.0,-5498.0,-918.0,0.081,-0.313,-0.687,0.651
1023741,-2542.0,-4028.0,-1142.0,0.069,-0.315,-0.691,0.648
1023758,-1814.0,-3358.0,-1822.0,0.054,-0.316,-0.694,0.644
1023775,-836.0,-2848.0,-2256.0,0.041,-0.315,-0.697,0.642
1023801,264.0,-4546.0,-1966.0,0.03,-0.313,-0.699,0.642
1023817,466.0,-5370.0,-1054.0,0.026,-0.311,-0.697,0.646
1023833,12.0,-3830.0,-378.0,0.026,-0.308,-0.693,0.652
1023849,-500.0,-4266.0,458.0,0.03,-0.304,-0.689,0.657
1023865,-1060.0,-5462.0,898.0,0.037,-0.301,-0.685,0.662
1023882,-1740.0,-5588.0,1184.0,0.046,-0.297,-0.682,0.667
1023899,-2016.0,-5028.0,1040.0,0.057,-0.293,-0.679,0.67
1023925,-2178.0,-5574.0,694.0,0.069,-0.29,-0.677,0.673
1023941,-2206.0,-5930.0,-30.0,0.08,-0.287,-0.676,0.674
1023958,-2336.0,-6808.0,-518.0,0.093,-0.283,-0.676,0.675
1023975,-2754.0,-5684.0,-126.0,0.107,-0.279,-0.676,0.674
1023992,-2828.0,-4730.0,48.0,0.12,-0.274,-0.679,0.67
1024009,-2272.0,-6158.0,68.0,0.129,-0.269,-0.687,0.663
1024025,-2078.0,-10212.0,250.0,0.139,-0.264,-0.696,0.653
1024042,-1870.0,-9030.0,120.0,0.152,-0.257,-0.702,0.646
1024059,-1530.0,-6922.0,-474.0,0.164,-0.251,-0.709,0.638
1024085,-932.0,-7432.0,-1220.0,0.175,-0.244,-0.716,0.63
1024102,86.0,-8490.0,-1388.0,0.185,-0.237,-0.723,0.622
1024118,-198.0,-9334.0,-538.0,0.198,-0.23,-0.727,0.616
1024134,-478.0,-7422.0,-820.0,0.21,-0.222,-0.732,0.609
1024150,14.0,-7746.0,-860.0,0.221,-0.214,-0.737,0.601
1024166,848.0,-8400.0,-1400.0,0.232,-0.206,-0.741,0.595
1024182,1374.0,-8238.0,-1912.0,0.243,-0.197,-0.745,0.589
1024208,1444.0,-8906.0,-1412.0,0.255,-0.189,-0.748,0.583
1024224,1290.0,-7892.0,-1480.0,0.265,-0.181,-0.75,0.578
1024240,1592.0,-8360.0,-1648.0,0.274,-0.173,-0.753,0.573
1024256,2272.0,-9570.0,-1504.0,0.283,-0.165,-0.755,0.568
1024272,2552.0,-10518.0,-1818.0,0.292,-0.157,-0.755,0.566
1024288,2364.0,-9940.0,-1416.0,0.301,-0.148,-0.754,0.565
1024314,2426.0,-8660.0,-1870.0,0.309,-0.138,-0.752,0.565
1024330,3126.0,-8556.0,-982.0,0.316,-0.13,-0.752,0.564
1024346,3198.0,-9934.0,-1668.0,0.32,-0.123,-0.753,0.562
1024362,3576.0,-12448.0,-662.0,0.325,-0.116,-0.754,0.559
1024378,3826.0,-12396.0,-2056.0,0.329,-0.109,-0.755,0.557
1024404,3914.0,-13498.0,-540.0,0.33,-0.105,-0.757,0.554
1024420,4392.0,-13550.0,-594.0,0.328,-0.104,-0.761,0.55
1024436,4460.0,-12314.0,-2280.0,0.324,-0.105,-0.766,0.546
1024452,4066.0,-11782.0,-3092.0,0.316,-0.109,-0.771,0.542
1024468,3950.0,-11900.0,-3152.0,0.305,-0.116,-0.776,0.54
1024485,3696.0,-11272.0,-2754.0,0.293,-0.123,-0.778,0.542
1024501,3452.0,-10918.0,-2608.0,0.28,-0.131,-0.779,0.546
1024527,3210.0,-11482.0,-2054.0,0.268,-0.138,-0.777,0.552
1024543,3030.0,-11112.0,-1904.0,0.259,-0.145,-0.772,0.562
1024559,2360.0,-8526.0,-1752.0,0.25,-0.152,-0.765,0.574
1024575,1700.0,-7574.0,-1602.0,0.239,-0.161,-0.758,0.585
1024591,1726.0,-7608.0,-2510.0,0.227,-0.172,-0.751,0.596
1024607,1614.0,-8576.0,-1864.0,0.215,-0.184,-0.742,0.608
1024633,1328.0,-7804.0,-976.0,0.205,-0.196,-0.731,0.621
1024649,538.0,-6436.0,-864.0,0.194,-0.208,-0.722,0.631
1024665,-106.0,-7696.0,-124.0,0.184,-0.22,-0.713,0.64
1024681,-278.0,-6762.0,-568.0,0.174,-0.231,-0.703,0.65
1024698,-816.0,-7788.0,-110.0,0.164,-0.242,-0.695,0.657
1024715,-1492.0,-6124.0,-96.0,0.154,-0.252,-0.688,0.663
1024731,-1726.0,-6454.0,22.0,0.142,-0.262,-0.686,0.664
1024758,-1790.0,-7214.0,-850.0,0.129,-0.272,-0.685,0.663
1024774,-1772.0,-7564.0,-1100.0,0.116,-0.281,-0.684,0.663
1024790,-2270.0,-5816.0,-1242.0,0.102,-0.29,-0.684,0.662
1024807,-2302.0,-7072.0,-1294.0,0.086,-0.299,-0.685,0.659
1024823,-2134.0,-8456.0,-1082.0,0.072,-0.307,-0.684,0.658
1024839,-2278.0,-7812.0,-670.0,0.058,-0.313,-0.683,0.657
1024856,-2546.0,-4726.0,-804.0,0.044,-0.319,-0.683,0.656
1024872,-1874.0,-3742.0,240.0,0.029,-0.324,-0.683,0.654
1024899,-1094.0,-2068.0,-188.0,0.012,-0.328,-0.685,0.65
1024915,-578.0,-1574.0,60.0,0.003,0.331,0.687,-0.647
1024931,-862.0,-1610.0,-780.0,0.015,0.331,0.692,-0.641
1024947,-750.0,-4178.0,-1360.0,0.024,0.328,0.699,-0.635
1024963,-1698.0,-6252.0,-2270.0,0.028,0.322,0.707,-0.629
1024980,-702.0,-9768.0,-1934.0,0.029,0.316,0.714,-0.624
1024997,-38.0,-9336.0,-608.0,0.025,0.311,0.716,-0.625
1025023,-958.0,-5580.0,144.0,0.013,0.304,0.716,-0.628
1025039,-2792.0,-314.0,204.0,0.003,-0.296,-0.718,0.63
1025055,-3612.0,-410.0,66.0,0.016,-0.289,-0.721,0.629
1025072,-2930.0,-6224.0,72.0,0.025,-0.283,-0.726,0.627
1025089,-2328.0,-8018.0,-1596.0,0.037,-0.277,-0.728,0.626
1025105,-2840.0,-7900.0,-1226.0,0.051,-0.271,-0.729,0.627
1025122,-3264.0,-5482.0,-110.0,0.066,-0.265,-0.73,0.626
1025139,-2918.0,-4928.0,-192.0,0.077,-0.259,-0.736,0.621
1025165,-2148.0,-8242.0,-726.0,0.087,-0.254,-0.743,0.614
1025181,-1662.0,-8846.0,-1642.0,0.099,-0.248,-0.749,0.607
1025198,-2088.0,-9110.0,-856.0,0.113,-0.241,-0.753,0.601
1025215,-1916.0,-6656.0,-1310.0,0.126,-0.234,-0.758,0.595
1025231,-1134.0,-7536.0,-2066.0,0.137,-0.228,-0.764,0.588
1025248,-342.0,-9048.0,-2262.0,0.148,-0.222,-0.77,0.58
1025265,-384.0,-8804.0,-2322.0,0.16,-0.216,-0.774,0.573
1025282,-338.0,-9202.0,-2028.0,0.171,-0.21,-0.778,0.567
1025298,-134.0,-9024.0,-2182.0,0.182,-0.204,-0.782,0.56
1025315,436.0,-9236.0,-2352.0,0.193,-0.198,-0.785,0.555
1025342,762.0,-8652.0,-2750.0,0.204,-0.193,-0.787,0.55
1025358,1042.0,-7990.0,-2698.0,0.214,-0.188,-0.789,0.544
1025374,1558.0,-8220.0,-3002.0,0.223,-0.184,-0.791,0.539
1025390,1808.0,-9404.0,-2994.0,0.232,-0.179,-0.793,0.534
1025406,1780.0,-9332.0,-2522.0,0.243,-0.174,-0.793,0.531
1025422,1630.0,-8204.0,-2698.0,0.253,-0.168,-0.793,0.529
1025448,1964.0,-7646.0,-2358.0,0.261,-0.162,-0.793,0.526
1025464,2334.0,-8078.0,-3120.0,0.269,-0.158,-0.793,0.523
1025481,2706.0,-10114.0,-3328.0,0.276,-0.153,-0.793,0.521
1025498,2354.0,-10016.0,-2642.0,0.283,-0.146,-0.793,0.52
1025514,2622.0,-9510.0,-2704.0,0.289,-0.141,-0.792,0.519
1025531,3142.0,-11340.0,-2860.0,0.294,-0.136,-0.791,0.518
1025548,3296.0,-11862.0,-2844.0,0.299,-0.132,-0.791,0.517
1025565,2998.0,-10972.0,-2638.0,0.302,-0.13,-0.791,0.516
1025581,3348.0,-11210.0,-2782.0,0.302,-0.13,-0.792,0.514
1025598,3684.0,-12232.0,-3000.0,0.3,-0.132,-0.794,0.512
1025625,3696.0,-11540.0,-3098.0,0.296,-0.135,-0.796,0.51
1025642,3526.0,-10812.0,-3104.0,0.29,-0.14,-0.798,0.509
1025659,3498.0,-10972.0,-3118.0,0.282,-0.147,-0.8,0.509
1025675,3248.0,-10768.0,-3200.0,0.273,-0.154,-0.8,0.511
1025691,2904.0,-10398.0,-3540.0,0.263,-0.163,-0.8,0.514
1025707,2308.0,-9526.0,-3482.0,0.253,-0.173,-0.798,0.52
1025723,1712.0,-8324.0,-3202.0,0.241,-0.184,-0.794,0.527
1025740,1742.0,-9022.0,-2928.0,0.227,-0.195,-0.791,0.534
1025766,1456.0,-8588.0,-2708.0,0.214,-0.206,-0.786,0.542
1025782,806.0,-8216.0,-2802.0,0.201,-0.218,-0.78,0.551
1025798,446.0,-8802.0,-2374.0,0.189,-0.228,-0.772,0.563
1025815,254.0,-8332.0,-2164.0,0.178,-0.237,-0.761,0.577
1025831,88.0,-6736.0,-2230.0,0.167,-0.246,-0.751,0.59
1025848,-226.0,-5172.0,-2306.0,0.155,-0.255,-0.743,0.599
1025865,-828.0,-7386.0,-1782.0,0.142,-0.263,-0.738,0.605
1025881,-1242.0,-7740.0,-1458.0,0.131,-0.271,-0.733,0.61
1025908,-1430.0,-6482.0,-2262.0,0.119,-0.278,-0.729,0.614
1025924,-1526.0,-6960.0,-1312.0,0.106,-0.285,-0.725,0.618
1025940,-2072.0,-7658.0,-1438.0,0.094,-0.291,-0.721,0.621
1025957,-2024.0,-6598.0,-1656.0,0.081,-0.296,-0.718,0.624
1025973,-2062.0,-7300.0,-1554.0,0.07,-0.301,-0.716,0.626
1025990,-2952.0,-8812.0,-876.0,0.061,-0.304,-0.713,0.629
1026006,-2990.0,-5312.0,-834.0,0.051,-0.307,-0.71,0.632
1026023,-2922.0,-5510.0,-1380.0,0.038,-0.31,-0.711,0.63
1026050,-2728.0,-6370.0,-1332.0,0.025,-0.312,-0.711,0.629
1026066,-2226.0,-3570.0,-1844.0,0.011,-0.315,-0.713,0.627
1026082,-1970.0,-4562.0,-1468.0,0.002,0.316,0.715,-0.624
1026098,-1336.0,-3060.0,-1558.0,0.014,0.316,0.717,-0.621
1026115,-1080.0,-3168.0,-1242.0,0.024,0.316,0.719,-0.618
1026131,-850.0,-3516.0,-864.0,0.03,0.314,0.721,-0.617
1026147,-994.0,-4990.0,-1366.0,0.034,0.311,0.723,-0.615
1026174,-946.0,-5822.0,-1310.0,0.035,0.308,0.725,-0.614
1026190,-1322.0,-6910.0,-554.0,0.033,0.304,0.728,-0.614
1026207,-2044.0,-4972.0,-60.0,0.026,0.299,0.729,-0.615
1026223,-2354.0,-3808.0,142.0,0.018,0.294,0.732,-0.615
1026239,-2472.0,-4014.0,-516.0,0.009,0.288,0.735,-0.614
1026255,-2900.0,-6252.0,-1166.0,0.001,-0.282,-0.739,0.612
1026271,-3086.0,-7444.0,-1550.0,0.012,-0.277,-0.741,0.612
1026297,-2948.0,-5502.0,-1680.0,0.024,-0.271,-0.742,0.612
1026314,-2424.0,-5226.0,-1606.0,0.035,-0.267,-0.745,0.61
1026331,-2294.0,-8726.0,-774.0,0.045,-0.263,-0.748,0.607
1026347,-2386.0,-7246.0,-1198.0,0.058,-0.259,-0.751,0.605
1026364,-2184.0,-6762.0,-956.0,0.07,-0.254,-0.755,0.6
1026380,-1796.0,-7064.0,-850.0,0.082,-0.248,-0.76,0.595
1026397,-1352.0,-8822.0,-1424.0,0.094,-0.242,-0.764,0.59
1026414,-912.0,-7608.0,-1858.0,0.108,-0.236,-0.767,0.587
1026431,-1240.0,-8016.0,-1842.0,0.121,-0.23,-0.769,0.584
1026457,-804.0,-6694.0,-2126.0,0.133,-0.223,-0.772,0.58
1026473,-162.0,-8174.0,-2330.0,0.144,-0.217,-0.775,0.576
1026489,-14.0,-8916.0,-2232.0,0.156,-0.211,-0.777,0.572
1026506,-248.0,-8326.0,-2156.0,0.169,-0.204,-0.779,0.568
1026522,-64.0,-7686.0,-2178.0,0.18,-0.198,-0.781,0.564
1026538,600.0,-8106.0,-2602.0,0.191,-0.192,-0.784,0.559
1026555,1064.0,-8374.0,-2920.0,0.2,-0.187,-0.785,0.556
1026581,1342.0,-8878.0,-2586.0,0.21,-0.182,-0.785,0.553
1026597,1512.0,-8764.0,-2362.0,0.22,-0.177,-0.784,0.552
1026614,1320.0,-9408.0,-1852.0,0.23,-0.171,-0.783,0.552
1026631,1238.0,-7942.0,-2110.0,0.24,-0.165,-0.781,0.552
1026647,1520.0,-7406.0,-2376.0,0.249,-0.159,-0.78,0.552
1026664,2150.0,-8212.0,-2740.0,0.256,-0.154,-0.779,0.551
1026680,2470.0,-9550.0,-2822.0,0.262,-0.149,-0.779,0.55
1026697,2266.0,-9550.0,-2390.0,0.267,-0.144,-0.778,0.551
1026713,2428.0,-10220.0,-2148.0,0.272,-0.14,-0.778,0.55
1026739,2130.0,-10906.0,-2118.0,0.276,-0.135,-0.778,0.548
1026755,2422.0,-11376.0,-2474.0,0.279,-0.132,-0.779,0.545
1026771,2638.0,-12256.0,-2252.0,0.282,-0.129,-0.78,0.543
1026788,2808.0,-12796.0,-2478.0,0.282,-0.128,-0.781,0.542
1026804,2912.0,-13740.0,-2806.0,0.28,-0.129,-0.782,0.542
1026821,2882.0,-13434.0,-2790.0,0.276,-0.131,-0.781,0.544
1026838,2734.0,-12464.0,-2598.0,0.27,-0.134,-0.781,0.547
1026864,2648.0,-12130.0,-2256.0,0.263,-0.14,-0.78,0.55
1026881,2314.0,-11412.0,-2364.0,0.253,-0.147,-0.779,0.555
1026897,2146.0,-11196.0,-2274.0,0.241,-0.155,-0.777,0.56
1026914,1856.0,-11006.0,-2186.0,0.229,-0.163,-0.774,0.568
1026931,1730.0,-9790.0,-2366.0,0.217,-0.172,-0.768,0.577
1026947,1902.0,-9624.0,-2922.0,0.205,-0.18,-0.761,0.589
1026964,814.0,-6820.0,-3016.0,0.192,-0.19,-0.755,0.597
1026981,1342.0,-8490.0,-2000.0,0.18,-0.2,-0.749,0.605
1026997,126.0,-8056.0,-1330.0,0.167,-0.211,-0.742,0.614
1027014,-504.0,-7146.0,-832.0,0.154,-0.222,-0.734,0.623
1027041,-840.0,-8400.0,-846.0,0.139,-0.233,-0.728,0.629
1027057,-1070.0,-8624.0,-842.0,0.125,-0.243,-0.722,0.635
1027074,-1282.0,-8264.0,-1086.0,0.112,-0.253,-0.716,0.641
1027090,-1794.0,-6696.0,-1472.0,0.1,-0.263,-0.711,0.645
1027106,-1886.0,-6814.0,-1160.0,0.087,-0.272,-0.707,0.647
1027122,-1950.0,-6134.0,-1334.0,0.074,-0.281,-0.703,0.649
1027138,-1902.0,-6088.0,-1284.0,0.06,-0.29,-0.7,0.65
1027164,-2206.0,-6612.0,-1136.0,0.047,-0.299,-0.697,0.65
1027180,-2442.0,-6274.0,-596.0,0.034,-0.307,-0.694,0.651
1027197,-2472.0,-4012.0,-684.0,0.021,-0.313,-0.693,0.65
1027214,-2166.0,-4334.0,-436.0,0.006,-0.317,-0.694,0.647
1027231,-1742.0,-3940.0,-724.0,0.007,0.32,0.694,-0.644
1027247,-1184.0,-2398.0,-1090.0,0.02,0.322,0.696,-0.642
1027263,-1230.0,-3008.0,-1102.0,0.032,0.322,0.698,-0.639
1027280,-782.0,-3848.0,-1054.0,0.041,0.322,0.698,-0.638
1027306,-1254.0,-5886.0,-1296.0,0.047,0.321,0.698,-0.639
1027322,-1980.0,-6990.0,-1136.0,0.049,0.318,0.697,-0.641
1027338,-2170.0,-4452.0,-1246.0,0.047,0.315,0.696,-0.643
1027354,-2228.0,-3978.0,-86.0,0.044,0.31,0.698,-0.644
1027371,-2108.0,-4436.0,1058.0,0.04,0.304,0.701,-0.643
1027388,-2348.0,-3636.0,472.0,0.033,0.298,0.706,-0.641
1027404,-2490.0,-4660.0,-830.0,0.026,0.291,0.711,-0.639
1027421,-2674.0,-5386.0,-1226.0,0.018,0.285,0.715,-0.638
1027448,-3136.0,-6942.0,-1448.0,0.008,0.28,0.717,-0.638
1027464,-3212.0,-6642.0,-1358.0,0.003,-0.274,-0.719,0.639
1027481,-3290.0,-6180.0,-446.0,0.016,-0.267,-0.722,0.638
1027497,-3168.0,-7060.0,-358.0,0.028,-0.261,-0.726,0.636
1027514,-3074.0,-7288.0,-318.0,0.041,-0.254,-0.73,0.633
1027530,-2574.0,-7320.0,-664.0,0.053,-0.248,-0.735,0.628
1027547,-2164.0,-7604.0,-970.0,0.065,-0.242,-0.741,0.623
1027563,-1848.0,-8908.0,-1198.0,0.078,-0.236,-0.747,0.617
1027590,-1328.0,-8288.0,-1514.0,0.091,-0.229,-0.751,0.612
1027606,-1220.0,-8542.0,-1392.0,0.105,-0.223,-0.755,0.607
1027622,-916.0,-8122.0,-1656.0,0.118,-0.216,-0.759,0.603
1027638,-546.0,-8166.0,-1578.0,0.131,-0.21,-0.761,0.599
1027654,12.0,-8778.0,-1546.0,0.144,-0.204,-0.763,0.596
1027671,94.0,-8524.0,-1838.0,0.157,-0.198,-0.764,0.594
1027688,118.0,-8478.0,-1306.0,0.17,-0.192,-0.764,0.592
1027714,322.0,-7796.0,-1280.0,0.181,-0.186,-0.764,0.59
1027731,750.0,-8242.0,-1860.0,0.192,-0.181,-0.765,0.588
1027747,600.0,-8382.0,-1770.0,0.203,-0.175,-0.765,0.585
1027763,776.0,-7488.0,-2110.0,0.213,-0.17,-0.767,0.582
1027779,1204.0,-8570.0,-1836.0,0.222,-0.165,-0.768,0.578
1027796,1554.0,-8842.0,-1936.0,0.23,-0.16,-0.769,0.575
1027813,1626.0,-9368.0,-1932.0,0.239,-0.155,-0.769,0.572
1027830,1398.0,-8208.0,-1554.0,0.248,-0.15,-0.769,0.57
1027847,1510.0,-7948.0,-1690.0,0.256,-0.144,-0.769,0.567
1027864,1940.0,-8442.0,-2424.0,0.262,-0.14,-0.77,0.564
1027891,2286.0,-8736.0,-2196.0,0.268,-0.135,-0.771,0.562
1027907,2332.0,-9230.0,-2330.0,0.274,-0.131,-0.772,0.559
1027923,2544.0,-9170.0,-2304.0,0.279,-0.127,-0.772,0.558
1027939,2754.0,-10098.0,-2190.0,0.283,-0.122,-0.772,0.556
1027955,2884.0,-10230.0,-2240.0,0.287,-0.116,-0.772,0.555
1027971,3050.0,-10622.0,-2174.0,0.29,-0.111,-0.773,0.553
1027997,3088.0,-11258.0,-2136.0,0.292,-0.108,-0.775,0.55
1028014,3546.0,-12084.0,-1840.0,0.292,-0.105,-0.776,0.549
1028031,3738.0,-12140.0,-1648.0,0.291,-0.104,-0.778,0.547
1028048,4278.0,-11970.0,-1756.0,0.288,-0.105,-0.779,0.546
1028065,3708.0,-11442.0,-2390.0,0.284,-0.108,-0.782,0.545
1028082,3650.0,-11330.0,-2788.0,0.277,-0.113,-0.783,0.545
1028099,3326.0,-11136.0,-2730.0,0.267,-0.119,-0.784,0.547
1028116,3060.0,-10776.0,-3060.0,0.257,-0.127,-0.785,0.55
1028133,2666.0,-10280.0,-2482.0,0.244,-0.137,-0.784,0.554
1028150,2380.0,-9992.0,-2326.0,0.23,-0.147,-0.782,0.56
1028167,2062.0,-8984.0,-2240.0,0.216,-0.159,-0.778,0.568
1028184,1730.0,-9438.0,-2322.0,0.201,-0.171,-0.774,0.575
1028201,1354.0,-8900.0,-2422.0,0.186,-0.183,-0.77,0.583
1028218,416.0,-8318.0,-2126.0,0.173,-0.194,-0.764,0.591
1028244,428.0,-7098.0,-2140.0,0.159,-0.206,-0.758,0.599
1028260,106.0,-7296.0,-2152.0,0.144,-0.218,-0.751,0.607
1028276,-390.0,-7826.0,-2044.0,0.129,-0.23,-0.743,0.615
1028293,-690.0,-7268.0,-1776.0,0.116,-0.241,-0.734,0.624
1028309,-1086.0,-6832.0,-1414.0,0.103,-0.251,-0.726,0.632
1028325,-1508.0,-7246.0,-1286.0,0.091,-0.261,-0.719,0.638
1028352,-1786.0,-7102.0,-1298.0,0.079,-0.269,-0.712,0.644
1028368,-2030.0,-6168.0,-1236.0,0.067,-0.278,-0.706,0.648
1028384,-1852.0,-5890.0,-1208.0,0.053,-0.286,-0.7,0.652
1028400,-1788.0,-6608.0,-834.0,0.04,-0.294,-0.696,0.654
1028416,-3000.0,-6616.0,-840.0,0.025,-0.301,-0.693,0.654
1028432,-2940.0,-8682.0,-894.0,0.012,-0.306,-0.692,0.654
1028448,-3272.0,-6948.0,-10.0,0.001,-0.311,-0.69,0.653
1028474,-3420.0,-5102.0,-58.0,0.012,0.316,0.691,-0.65
1028491,-2948.0,-4560.0,-996.0,0.027,0.321,0.694,-0.645
1028507,-3020.0,-6846.0,-2150.0,0.042,0.325,0.696,-0.639
1028523,-3370.0,-6596.0,-2048.0,0.054,0.328,0.696,-0.636
1028539,-3266.0,-4282.0,-1718.0,0.064,0.329,0.697,-0.634
1028555,-3118.0,-5346.0,-1336.0,0.075,0.329,0.698,-0.632
1028581,-3400.0,-5750.0,-924.0,0.085,0.329,0.698,-0.631
1028598,-3684.0,-4982.0,-778.0,0.094,0.328,0.698,-0.629
1028615,-3822.0,-4708.0,-646.0,0.103,0.326,0.699,-0.628
1028632,-3754.0,-4960.0,-828.0,0.111,0.323,0.701,-0.626
1028649,-3748.0,-5336.0,-1012.0,0.119,0.319,0.703,-0.624
1028666,-3926.0,-6186.0,-1374.0,0.125,0.315,0.705,-0.622
1028683,-3742.0,-5502.0,-1316.0,0.13,0.311,0.707,-0.622
1028699,-4028.0,-6508.0,-1314.0,0.135,0.307,0.708,-0.622
1028715,-4164.0,-5944.0,-2076.0,0.138,0.304,0.708,-0.622
1028731,-4436.0,-6122.0,-1678.0,0.141,0.301,0.708,-0.624
1028757,-4586.0,-7554.0,-1624.0,0.143,0.298,0.707,-0.625
1028774,-4958.0,-7302.0,-1220.0,0.144,0.296,0.706,-0.627
