timeMs,ax,ay,az,q0,q1,q2,q3
1326038,-5978.0,-7560.0,-1302.0,0.202,0.341,0.662,-0.636
1326054,-6150.0,-5782.0,-2066.0,0.205,0.34,0.656,-0.641
1326071,-5904.0,-5410.0,-1516.0,0.209,0.34,0.65,-0.647
1326087,-5744.0,-5890.0,-1146.0,0.213,0.34,0.643,-0.652
1326103,-5672.0,-5852.0,-706.0,0.217,0.341,0.634,-0.659
1326120,-5978.0,-4744.0,-524.0,0.222,0.341,0.626,-0.666
1326146,-5992.0,-4934.0,-644.0,0.227,0.34,0.618,-0.671
1326163,-5762.0,-5270.0,-818.0,0.231,0.339,0.611,-0.677
1326180,-4866.0,-3872.0,-596.0,0.234,0.338,0.602,-0.685
1326197,-4592.0,-3860.0,516.0,0.236,0.337,0.592,-0.693
1326214,-4486.0,-3728.0,1256.0,0.237,0.337,0.581,-0.703
1326231,-4442.0,-4334.0,2210.0,0.237,0.333,0.575,-0.709
1326248,-5352.0,-5678.0,684.0,0.237,0.33,0.567,-0.717
1326265,-4894.0,-4428.0,1004.0,0.236,0.327,0.56,-0.724
1326282,-3570.0,-3886.0,1984.0,0.235,0.324,0.554,-0.73
1326299,-4396.0,-4680.0,2172.0,0.232,0.321,0.549,-0.736
1326325,-4224.0,-4740.0,2334.0,0.227,0.319,0.543,-0.743
1326342,-4786.0,-4888.0,1126.0,0.222,0.316,0.537,-0.75
1326359,-4626.0,-3434.0,1332.0,0.216,0.313,0.531,-0.757
1326377,-5048.0,-4128.0,2394.0,0.211,0.31,0.526,-0.763
1326394,-5310.0,-6300.0,3006.0,0.205,0.307,0.521,-0.769
1326410,-6148.0,-5618.0,1352.0,0.198,0.305,0.514,-0.777
1326426,-4656.0,-1990.0,294.0,0.192,0.301,0.508,-0.784
1326442,-4016.0,-584.0,1554.0,0.187,0.295,0.506,-0.788
1326459,-3412.0,-3682.0,3936.0,0.185,0.29,0.509,-0.789
1326476,-3874.0,-8426.0,4050.0,0.182,0.288,0.507,-0.792
1326492,-6324.0,-5322.0,1620.0,0.176,0.287,0.5,-0.798
1326519,-7134.0,-2558.0,-628.0,0.175,0.282,0.496,-0.803
1326536,-5398.0,-3798.0,-892.0,0.175,0.272,0.492,-0.808
1326553,1968.0,-1494.0,3418.0,0.17,0.259,0.489,-0.815
1326570,-4718.0,1090.0,3616.0,0.164,0.245,0.496,-0.817
1326587,-4388.0,-2422.0,4720.0,0.166,0.231,0.503,-0.816
1326604,-4266.0,-4724.0,5108.0,0.17,0.219,0.51,-0.814
1326620,-3910.0,-7450.0,4574.0,0.175,0.209,0.512,-0.815
1326637,-3552.0,-7814.0,2330.0,0.175,0.2,0.51,-0.818
1326654,-4106.0,-4888.0,1216.0,0.172,0.19,0.504,-0.825
1326671,-4454.0,-1860.0,2186.0,0.168,0.18,0.501,-0.83
1326688,-4500.0,-5716.0,4612.0,0.169,0.17,0.498,-0.833
1326715,-3644.0,-8962.0,5658.0,0.17,0.162,0.492,-0.838
1326732,-4578.0,-11566.0,7064.0,0.172,0.157,0.483,-0.845
1326749,-5908.0,-11894.0,5688.0,0.174,0.156,0.462,-0.855
1326766,-3558.0,-5146.0,4774.0,0.174,0.154,0.441,-0.867
1326782,-4538.0,-7242.0,6068.0,0.176,0.154,0.42,-0.877
1326799,-4572.0,-8480.0,6816.0,0.18,0.154,0.396,-0.887
1326815,-4606.0,-6214.0,6230.0,0.183,0.154,0.37,-0.898
1326831,-4258.0,-5986.0,5838.0,0.188,0.155,0.341,-0.908
1326847,-4180.0,-5474.0,5380.0,0.193,0.157,0.31,-0.918
1326873,-3316.0,-3290.0,5902.0,0.198,0.159,0.275,-0.927
1326890,-2730.0,-2970.0,8258.0,0.204,0.161,0.24,-0.935
1326907,-3058.0,-1586.0,8754.0,0.21,0.161,0.207,-0.942
1326924,-2758.0,-190.0,8204.0,0.217,0.16,0.179,-0.946
1326940,-2206.0,816.0,6936.0,0.223,0.159,0.154,-0.949
1326957,-1700.0,700.0,7882.0,0.228,0.158,0.128,-0.952
1326974,-1690.0,1190.0,9928.0,0.232,0.158,0.102,-0.954
1326991,-2566.0,2738.0,9944.0,0.235,0.157,0.078,-0.956
1327008,-2504.0,3556.0,9546.0,0.238,0.156,0.058,-0.957
1327025,-2368.0,3446.0,8890.0,0.24,0.154,0.044,-0.958
1327042,-2146.0,2360.0,9942.0,0.241,0.152,0.03,-0.958
1327068,-1882.0,1704.0,10630.0,0.241,0.151,0.016,-0.959
1327085,-2564.0,2604.0,10384.0,0.24,0.151,-0.001,-0.959
1327102,-2592.0,3266.0,9120.0,0.24,0.152,-0.015,-0.959
1327119,-2506.0,2500.0,9330.0,0.239,0.152,-0.025,-0.959
1327135,-2634.0,1260.0,9214.0,0.238,0.151,-0.033,-0.959
1327152,-2650.0,744.0,9580.0,0.236,0.15,-0.04,-0.959
1327169,-2818.0,1068.0,9544.0,0.235,0.15,-0.048,-0.959
1327186,-2458.0,1396.0,9072.0,0.234,0.15,-0.058,-0.959
1327203,-2478.0,1752.0,9176.0,0.232,0.15,-0.068,-0.959
1327220,-2326.0,2648.0,8930.0,0.231,0.15,-0.077,-0.958
1327237,-2148.0,2688.0,8916.0,0.229,0.149,-0.086,-0.958
1327253,-1902.0,2154.0,8792.0,0.228,0.149,-0.093,-0.958
1327280,-1744.0,2250.0,8852.0,0.226,0.148,-0.1,-0.958
1327297,-1642.0,2734.0,8708.0,0.224,0.147,-0.107,-0.957
1327314,-1346.0,3126.0,8418.0,0.222,0.147,-0.114,-0.957
1327330,-1814.0,3398.0,8756.0,0.22,0.146,-0.12,-0.957
1327346,-1814.0,3690.0,8912.0,0.218,0.146,-0.124,-0.957
1327362,-1852.0,3076.0,9206.0,0.215,0.146,-0.127,-0.957
1327378,-2090.0,2676.0,9396.0,0.212,0.146,-0.128,-0.958
1327404,-2154.0,2644.0,9608.0,0.21,0.147,-0.129,-0.958
1327421,-2198.0,1688.0,9994.0,0.208,0.148,-0.131,-0.958
1327438,-2134.0,1614.0,9674.0,0.207,0.151,-0.133,-0.958
1327454,-2396.0,1842.0,9216.0,0.206,0.154,-0.137,-0.957
1327471,-2362.0,2914.0,8168.0,0.205,0.158,-0.142,-0.955
1327488,-2370.0,2704.0,7696.0,0.205,0.162,-0.147,-0.954
1327505,-2016.0,3186.0,7810.0,0.205,0.166,-0.154,-0.952
1327522,-1642.0,3000.0,7666.0,0.204,0.17,-0.16,-0.951
1327539,-838.0,2990.0,7638.0,0.204,0.173,-0.169,-0.949
1327556,-188.0,1520.0,7116.0,0.201,0.179,-0.183,-0.946
1327573,-2312.0,3344.0,6114.0,0.197,0.187,-0.2,-0.941
1327600,-2480.0,5212.0,6002.0,0.193,0.192,-0.212,-0.939
1327617,-2958.0,4548.0,6842.0,0.19,0.196,-0.221,-0.936
1327634,-3098.0,4350.0,7600.0,0.186,0.2,-0.23,-0.934
1327650,-3136.0,4664.0,8056.0,0.182,0.203,-0.24,-0.932
1327667,-2896.0,4966.0,7846.0,0.178,0.208,-0.25,-0.929
1327684,-2896.0,4744.0,6926.0,0.174,0.212,-0.26,-0.926
1327701,-2470.0,4476.0,6322.0,0.17,0.216,-0.269,-0.923
1327718,-2422.0,3990.0,6580.0,0.166,0.22,-0.277,-0.92
1327735,-2162.0,3704.0,6652.0,0.163,0.224,-0.287,-0.917
1327752,-2364.0,3892.0,6788.0,0.16,0.228,-0.299,-0.913
1327768,-2218.0,5440.0,6832.0,0.157,0.233,-0.311,-0.908
1327794,-2038.0,5832.0,6874.0,0.154,0.239,-0.322,-0.903
1327811,-2536.0,5344.0,6074.0,0.151,0.245,-0.332,-0.898
1327828,-2754.0,5174.0,5118.0,0.149,0.252,-0.342,-0.893
1327844,-2646.0,6010.0,4926.0,0.146,0.258,-0.35,-0.889
1327861,-2812.0,6134.0,4984.0,0.145,0.263,-0.355,-0.885
1327878,-2808.0,5852.0,5418.0,0.145,0.268,-0.358,-0.883
1327895,-2644.0,5834.0,5740.0,0.146,0.272,-0.359,-0.881
1327911,-2480.0,6208.0,5972.0,0.148,0.276,-0.358,-0.88
1327927,-2408.0,6046.0,5874.0,0.152,0.28,-0.355,-0.879
1327944,-2312.0,5054.0,5688.0,0.156,0.285,-0.352,-0.878
1327961,-2450.0,4576.0,5332.0,0.162,0.292,-0.35,-0.875
1327988,-2588.0,4688.0,5026.0,0.168,0.3,-0.349,-0.872
1328006,-2576.0,4392.0,4972.0,0.176,0.306,-0.348,-0.869
1328023,-2446.0,4330.0,4828.0,0.187,0.312,-0.346,-0.865
1328040,-1994.0,4092.0,4588.0,0.201,0.317,-0.343,-0.861
1328057,-2044.0,3964.0,4400.0,0.216,0.322,-0.341,-0.856
1328074,-2394.0,6116.0,3218.0,0.231,0.324,-0.34,-0.852
1328091,-2504.0,6574.0,2956.0,0.246,0.326,-0.337,-0.848
1328108,-2858.0,6744.0,2560.0,0.262,0.324,-0.334,-0.845
1328125,-2550.0,6710.0,2282.0,0.278,0.32,-0.331,-0.843
1328142,-4170.0,7122.0,1658.0,0.294,0.313,-0.323,-0.843
1328158,-4054.0,6612.0,1998.0,0.31,0.301,-0.313,-0.845
1328175,-3862.0,5276.0,3138.0,0.323,0.287,-0.305,-0.849
1328191,-4264.0,6560.0,4146.0,0.334,0.273,-0.301,-0.85
1328218,-4074.0,7244.0,4732.0,0.344,0.259,-0.303,-0.85
1328235,-3716.0,6780.0,5162.0,0.352,0.246,-0.308,-0.849
1328252,-3540.0,6918.0,5338.0,0.357,0.235,-0.316,-0.847
1328269,-3332.0,7158.0,5638.0,0.361,0.226,-0.327,-0.844
1328286,-3304.0,7560.0,5882.0,0.363,0.216,-0.337,-0.841
1328303,-1556.0,7476.0,5700.0,0.366,0.205,-0.346,-0.839
1328320,200.0,6846.0,6080.0,0.371,0.193,-0.351,-0.838
1328337,536.0,6340.0,6338.0,0.376,0.18,-0.353,-0.838
1328354,578.0,5756.0,6452.0,0.383,0.167,-0.352,-0.838
1328371,700.0,4866.0,6686.0,0.389,0.155,-0.35,-0.838
1328388,898.0,4176.0,6902.0,0.396,0.144,-0.349,-0.837
1328405,1026.0,4116.0,6980.0,0.401,0.134,-0.35,-0.836
1328422,1166.0,4494.0,6936.0,0.407,0.127,-0.354,-0.833
1328449,1270.0,5340.0,6908.0,0.412,0.122,-0.359,-0.829
1328466,1356.0,6322.0,6778.0,0.416,0.118,-0.365,-0.825
1328482,1546.0,7022.0,6640.0,0.421,0.115,-0.369,-0.821
1328499,1678.0,7402.0,6298.0,0.425,0.112,-0.371,-0.818
1328516,1628.0,6914.0,6136.0,0.43,0.11,-0.371,-0.816
1328533,1510.0,6748.0,5986.0,0.434,0.109,-0.371,-0.814
1328550,1502.0,6518.0,5916.0,0.437,0.109,-0.37,-0.813
1328567,1376.0,6360.0,5822.0,0.44,0.109,-0.369,-0.812
1328584,1214.0,6234.0,5668.0,0.441,0.111,-0.368,-0.811
1328601,1172.0,6106.0,5536.0,0.442,0.112,-0.369,-0.81
1328617,1028.0,6054.0,5374.0,0.443,0.113,-0.369,-0.809
1328643,984.0,6110.0,5284.0,0.443,0.114,-0.37,-0.809
1328660,926.0,6086.0,5276.0,0.443,0.114,-0.37,-0.809
1328677,934.0,5924.0,5296.0,0.443,0.113,-0.369,-0.809
1328693,1036.0,5750.0,5480.0,0.443,0.111,-0.368,-0.81
1328710,1102.0,5674.0,5664.0,0.443,0.108,-0.367,-0.811
1328727,1250.0,5588.0,5732.0,0.443,0.105,-0.366,-0.811
1328743,1342.0,5640.0,5880.0,0.444,0.102,-0.365,-0.812
1328759,1388.0,5700.0,6136.0,0.444,0.098,-0.364,-0.813
1328776,1458.0,5618.0,6296.0,0.444,0.095,-0.363,-0.814
1328802,1424.0,5618.0,6602.0,0.443,0.092,-0.362,-0.815
1328819,1220.0,5730.0,6844.0,0.441,0.088,-0.362,-0.817
1328836,1522.0,5418.0,6572.0,0.437,0.084,-0.362,-0.819
1328852,2014.0,4614.0,6516.0,0.431,0.081,-0.366,-0.821
1328868,2054.0,5626.0,6542.0,0.424,0.081,-0.373,-0.822
1328884,2058.0,7230.0,6440.0,0.416,0.081,-0.381,-0.822
1328901,3182.0,7754.0,6274.0,0.41,0.08,-0.386,-0.822
1328918,2406.0,7076.0,6050.0,0.405,0.081,-0.388,-0.824
1328935,2014.0,6876.0,6394.0,0.402,0.08,-0.386,-0.826
1328952,2792.0,5566.0,6772.0,0.401,0.079,-0.381,-0.83
1328978,2850.0,4664.0,7074.0,0.402,0.081,-0.373,-0.832
1328994,2264.0,4188.0,7366.0,0.405,0.084,-0.364,-0.834
1329010,1856.0,3828.0,7516.0,0.411,0.09,-0.354,-0.836
1329026,1664.0,3354.0,7412.0,0.418,0.097,-0.342,-0.836
1329043,1198.0,3326.0,7288.0,0.429,0.108,-0.331,-0.834
1329059,890.0,3030.0,6718.0,0.443,0.121,-0.32,-0.829
1329085,544.0,3882.0,6402.0,0.459,0.136,-0.309,-0.822
1329102,68.0,3870.0,6440.0,0.476,0.15,-0.298,-0.814
1329118,-594.0,3592.0,6312.0,0.491,0.164,-0.29,-0.805
1329134,-594.0,3828.0,5858.0,0.502,0.177,-0.286,-0.797
1329151,-592.0,4678.0,4996.0,0.51,0.188,-0.287,-0.789
1329168,-782.0,6286.0,4084.0,0.516,0.197,-0.291,-0.781
1329185,-318.0,7540.0,3872.0,0.522,0.203,-0.294,-0.775
1329201,-488.0,7290.0,3840.0,0.527,0.207,-0.295,-0.77
1329228,-740.0,7544.0,4146.0,0.531,0.208,-0.296,-0.766
1329244,364.0,7408.0,3768.0,0.534,0.209,-0.301,-0.762
1329260,282.0,7448.0,3912.0,0.534,0.211,-0.308,-0.758
1329276,58.0,9176.0,4362.0,0.533,0.21,-0.312,-0.758
1329293,-138.0,7512.0,4814.0,0.53,0.208,-0.313,-0.761
1329310,110.0,6394.0,5100.0,0.525,0.206,-0.315,-0.763
1329326,82.0,6650.0,5214.0,0.52,0.204,-0.318,-0.766
1329342,434.0,5986.0,5788.0,0.514,0.203,-0.322,-0.769
1329368,598.0,5558.0,6498.0,0.505,0.203,-0.328,-0.772
1329385,442.0,4770.0,6782.0,0.494,0.207,-0.337,-0.774
1329402,316.0,4674.0,6698.0,0.482,0.212,-0.35,-0.775
1329419,146.0,3846.0,6488.0,0.468,0.22,-0.366,-0.774
1329436,-100.0,3504.0,6016.0,0.452,0.23,-0.389,-0.769
1329453,4.0,5146.0,5190.0,0.434,0.241,-0.414,-0.763
1329470,440.0,6990.0,4624.0,0.418,0.252,-0.44,-0.754
1329487,596.0,8866.0,4140.0,0.404,0.261,-0.461,-0.746
1329504,710.0,8948.0,4222.0,0.394,0.27,-0.474,-0.74
1329521,518.0,8292.0,4344.0,0.387,0.278,-0.484,-0.734
1329538,-16.0,7498.0,4012.0,0.381,0.287,-0.491,-0.729
1329555,-220.0,6832.0,3822.0,0.377,0.297,-0.498,-0.723
1329582,-280.0,6910.0,3260.0,0.372,0.309,-0.506,-0.714
1329599,-798.0,7646.0,2358.0,0.367,0.322,-0.514,-0.705
1329616,-868.0,8562.0,1782.0,0.364,0.334,-0.521,-0.696
1329632,-1310.0,9170.0,1178.0,0.362,0.343,-0.524,-0.69
1329648,-1294.0,9804.0,866.0,0.364,0.348,-0.523,-0.687
1329665,-478.0,9110.0,638.0,0.37,0.349,-0.517,-0.689
1329682,-2344.0,9806.0,88.0,0.379,0.342,-0.506,-0.695
1329698,-1704.0,8956.0,258.0,0.392,0.327,-0.491,-0.706
1329715,-1612.0,8318.0,400.0,0.408,0.306,-0.473,-0.718
1329732,-1642.0,7482.0,630.0,0.425,0.28,-0.453,-0.732
1329749,-1208.0,6762.0,1046.0,0.442,0.249,-0.432,-0.746
1329776,-582.0,6410.0,2060.0,0.458,0.216,-0.412,-0.758
1329793,282.0,5884.0,3652.0,0.471,0.183,-0.393,-0.768
1329810,1276.0,4978.0,5020.0,0.482,0.153,-0.377,-0.776
1329827,1994.0,4312.0,6258.0,0.489,0.128,-0.365,-0.782
1329844,2554.0,4340.0,7176.0,0.493,0.111,-0.359,-0.785
1329861,2940.0,4782.0,7686.0,0.493,0.101,-0.357,-0.787
1329877,2848.0,5060.0,7798.0,0.49,0.098,-0.357,-0.789
1329894,2460.0,5350.0,7556.0,0.485,0.1,-0.36,-0.79
1329911,2152.0,5534.0,7130.0,0.48,0.105,-0.363,-0.792
1329927,1844.0,5508.0,6664.0,0.475,0.111,-0.365,-0.793
1329953,1496.0,5422.0,6394.0,0.471,0.116,-0.367,-0.794
1329969,1296.0,5382.0,6066.0,0.468,0.121,-0.368,-0.795
1329985,1092.0,5210.0,5842.0,0.465,0.124,-0.368,-0.796
1330001,984.0,5114.0,5666.0,0.464,0.126,-0.368,-0.796
1330017,896.0,5188.0,5630.0,0.463,0.126,-0.367,-0.797
1330033,954.0,5362.0,5642.0,0.464,0.125,-0.366,-0.797
1330059,1038.0,5512.0,5706.0,0.464,0.122,-0.366,-0.797
1330076,1110.0,5522.0,5764.0,0.465,0.119,-0.366,-0.797
1330092,1342.0,5624.0,5712.0,0.467,0.117,-0.366,-0.797
1330109,1180.0,5722.0,5800.0,0.467,0.114,-0.367,-0.796
1330125,1720.0,5896.0,5818.0,0.468,0.112,-0.368,-0.796
1330141,1552.0,6050.0,5722.0,0.467,0.111,-0.37,-0.795
1330157,1468.0,6292.0,5702.0,0.465,0.11,-0.372,-0.796
1330183,1598.0,6416.0,5788.0,0.464,0.109,-0.373,-0.796
1330199,1514.0,6262.0,5790.0,0.462,0.109,-0.373,-0.797
1330215,1440.0,6038.0,5774.0,0.461,0.109,-0.373,-0.798
1330231,1312.0,5900.0,5806.0,0.459,0.109,-0.372,-0.799
1330247,1400.0,5764.0,5900.0,0.457,0.108,-0.372,-0.8
1330263,1364.0,5498.0,5884.0,0.456,0.108,-0.372,-0.802
1330289,1358.0,5450.0,5870.0,0.454,0.107,-0.372,-0.803
1330305,1306.0,5468.0,5834.0,0.453,0.107,-0.372,-0.803
1330321,1210.0,5516.0,5858.0,0.451,0.107,-0.372,-0.804
1330338,1296.0,5614.0,5850.0,0.45,0.107,-0.372,-0.805
1330355,1260.0,5556.0,5926.0,0.449,0.106,-0.372,-0.805
1330372,1366.0,5544.0,5970.0,0.449,0.105,-0.372,-0.806
1330391,1340.0,5562.0,5942.0,0.449,0.104,-0.371,-0.806
1330407,1386.0,5566.0,5976.0,0.449,0.103,-0.371,-0.807
1330423,1366.0,5614.0,5990.0,0.449,0.102,-0.37,-0.807
1330439,1436.0,5594.0,5976.0,0.449,0.101,-0.37,-0.807
1330465,1442.0,5700.0,5954.0,0.449,0.101,-0.37,-0.807
1330481,1498.0,5676.0,6008.0,0.448,0.1,-0.37,-0.808
1330497,1306.0,5762.0,5868.0,0.448,0.1,-0.37,-0.808
1330513,1432.0,5744.0,5860.0,0.447,0.1,-0.37,-0.808
1330529,1450.0,5676.0,5864.0,0.446,0.1,-0.371,-0.809
1330555,1314.0,5796.0,5756.0,0.445,0.1,-0.371,-0.809
1330571,1408.0,5772.0,5776.0,0.444,0.1,-0.371,-0.809
1330588,1442.0,5800.0,5786.0,0.443,0.1,-0.372,-0.81
1330605,1344.0,5752.0,5870.0,0.442,0.099,-0.372,-0.811
1330622,1386.0,5702.0,5908.0,0.44,0.099,-0.372,-0.811
1330638,1330.0,5544.0,5834.0,0.438,0.099,-0.372,-0.812
1330654,1400.0,5558.0,5844.0,0.436,0.1,-0.374,-0.813
1330670,1408.0,5684.0,5892.0,0.434,0.101,-0.375,-0.813
1330696,1450.0,5612.0,5966.0,0.432,0.102,-0.378,-0.813
1330713,1370.0,5440.0,5900.0,0.429,0.104,-0.381,-0.812
1330729,1404.0,5408.0,5876.0,0.425,0.107,-0.386,-0.812
1330745,1242.0,6026.0,5652.0,0.421,0.112,-0.393,-0.81
1330761,1214.0,6650.0,5374.0,0.417,0.117,-0.399,-0.808
1330777,1058.0,6848.0,5158.0,0.413,0.121,-0.403,-0.807
1330793,926.0,6800.0,5060.0,0.411,0.124,-0.405,-0.807
1330819,882.0,6630.0,5076.0,0.41,0.125,-0.405,-0.808
1330836,870.0,6408.0,5082.0,0.411,0.124,-0.402,-0.809
1330853,910.0,6276.0,5126.0,0.413,0.121,-0.399,-0.81
1330869,1028.0,6130.0,5220.0,0.415,0.117,-0.394,-0.812
1330886,1070.0,5962.0,5374.0,0.418,0.111,-0.388,-0.814
1330902,1202.0,5766.0,5498.0,0.421,0.105,-0.382,-0.816
1330919,1378.0,5550.0,5782.0,0.424,0.099,-0.376,-0.818
1330936,1442.0,5434.0,5990.0,0.426,0.094,-0.372,-0.819
1330954,1564.0,5390.0,6170.0,0.428,0.089,-0.369,-0.82
1330970,1558.0,5408.0,6226.0,0.429,0.087,-0.368,-0.82
1330997,1676.0,5426.0,6264.0,0.429,0.086,-0.368,-0.82
1331013,1596.0,5556.0,6186.0,0.428,0.087,-0.369,-0.82
1331029,1450.0,5662.0,6098.0,0.427,0.088,-0.371,-0.82
1331045,1354.0,5772.0,5936.0,0.426,0.091,-0.373,-0.819
1331061,1346.0,5860.0,5832.0,0.425,0.092,-0.374,-0.819
1331077,1348.0,5844.0,5794.0,0.425,0.093,-0.374,-0.819
1331103,1282.0,5734.0,5794.0,0.425,0.094,-0.374,-0.819
1331119,1324.0,5648.0,5766.0,0.425,0.093,-0.373,-0.819
1331135,1350.0,5594.0,5798.0,0.426,0.092,-0.372,-0.819
1331151,1412.0,5598.0,5898.0,0.428,0.091,-0.371,-0.819
1331167,1336.0,5654.0,5942.0,0.429,0.09,-0.369,-0.819
1331184,1402.0,5678.0,5892.0,0.43,0.089,-0.368,-0.819
1331200,1410.0,5570.0,5926.0,0.431,0.089,-0.368,-0.819
1331227,1394.0,5640.0,5894.0,0.431,0.089,-0.367,-0.819
1331243,1354.0,5678.0,5918.0,0.432,0.089,-0.367,-0.819
1331260,1410.0,5704.0,5882.0,0.431,0.089,-0.368,-0.819
1331277,1388.0,5682.0,5852.0,0.431,0.089,-0.368,-0.819
1331293,1392.0,5646.0,5870.0,0.431,0.089,-0.368,-0.819
1331309,1396.0,5588.0,5894.0,0.43,0.09,-0.368,-0.819
1331325,1416.0,5602.0,5878.0,0.43,0.089,-0.368,-0.819
1331351,1426.0,5612.0,5902.0,0.43,0.089,-0.368,-0.82
1331367,1460.0,5528.0,5940.0,0.43,0.089,-0.368,-0.82
1331383,1404.0,5560.0,5956.0,0.43,0.089,-0.368,-0.82
1331400,1372.0,5592.0,5968.0,0.429,0.088,-0.368,-0.82
1331416,1306.0,5588.0,5882.0,0.429,0.088,-0.368,-0.82
1331432,1338.0,5544.0,5880.0,0.429,0.088,-0.368,-0.82
1331448,1334.0,5530.0,5898.0,0.429,0.088,-0.368,-0.82
1331474,1404.0,5414.0,6020.0,0.428,0.088,-0.369,-0.82
1331491,1396.0,5000.0,6150.0,0.427,0.089,-0.371,-0.82
1331507,1526.0,5140.0,6084.0,0.424,0.092,-0.377,-0.818
1331524,1642.0,5588.0,5876.0,0.42,0.096,-0.384,-0.816
1331540,1538.0,6126.0,5692.0,0.416,0.102,-0.392,-0.814
1331556,1454.0,6352.0,5660.0,0.412,0.108,-0.399,-0.812
1331572,1264.0,6018.0,5574.0,0.408,0.114,-0.406,-0.81
1331598,1184.0,5450.0,5620.0,0.403,0.121,-0.414,-0.807
1331614,998.0,5810.0,5308.0,0.397,0.129,-0.424,-0.804
1331630,1032.0,6608.0,4902.0,0.391,0.138,-0.435,-0.799
1331646,968.0,7318.0,4566.0,0.385,0.147,-0.446,-0.795
1331662,864.0,7462.0,4540.0,0.38,0.155,-0.454,-0.791
1331678,636.0,7144.0,4418.0,0.375,0.162,-0.46,-0.788
1331704,674.0,6716.0,4296.0,0.371,0.168,-0.467,-0.785
1331721,632.0,6714.0,4138.0,0.367,0.175,-0.473,-0.782
1331737,580.0,7052.0,3920.0,0.363,0.181,-0.48,-0.778
1331753,530.0,7334.0,3796.0,0.359,0.187,-0.486,-0.774
1331769,568.0,7318.0,3740.0,0.356,0.192,-0.492,-0.771
1331785,414.0,7492.0,3542.0,0.353,0.198,-0.498,-0.767
1331811,400.0,7294.0,3458.0,0.35,0.203,-0.503,-0.764
1331828,320.0,7392.0,3244.0,0.346,0.209,-0.509,-0.76
1331844,228.0,7318.0,2994.0,0.343,0.215,-0.516,-0.755
1331860,174.0,7528.0,2814.0,0.338,0.222,-0.523,-0.75
1331876,70.0,7718.0,2628.0,0.334,0.23,-0.53,-0.745
1331892,-70.0,7984.0,2422.0,0.329,0.237,-0.538,-0.739
1331908,-140.0,8064.0,2206.0,0.324,0.244,-0.544,-0.734
1331935,-222.0,7938.0,2042.0,0.319,0.25,-0.55,-0.73
1331951,-164.0,7762.0,1998.0,0.314,0.256,-0.556,-0.725
1331968,-222.0,7628.0,1864.0,0.309,0.263,-0.563,-0.72
1331985,-266.0,7764.0,1570.0,0.304,0.27,-0.569,-0.715
1332001,-298.0,8028.0,1528.0,0.299,0.277,-0.576,-0.709
1332017,-500.0,8232.0,1392.0,0.294,0.283,-0.582,-0.703
1332034,-582.0,8186.0,1244.0,0.289,0.29,-0.588,-0.698
1332060,-650.0,8104.0,1122.0,0.285,0.296,-0.593,-0.692
1332076,-682.0,8204.0,928.0,0.282,0.302,-0.597,-0.688
1332093,-622.0,8124.0,864.0,0.279,0.307,-0.601,-0.683
1332109,-686.0,8002.0,762.0,0.276,0.311,-0.605,-0.679
1332125,-794.0,8064.0,550.0,0.274,0.316,-0.609,-0.674
1332141,-780.0,8318.0,426.0,0.271,0.32,-0.612,-0.67
1332157,-810.0,8530.0,256.0,0.27,0.324,-0.614,-0.667
1332183,-946.0,8654.0,268.0,0.269,0.327,-0.615,-0.665
1332199,-990.0,8794.0,230.0,0.27,0.33,-0.614,-0.664
1332215,-1124.0,8762.0,154.0,0.271,0.33,-0.612,-0.666
1332231,-1104.0,8994.0,56.0,0.274,0.329,-0.608,-0.669
1332247,-1244.0,9708.0,-66.0,0.279,0.325,-0.6,-0.676
1332263,-1338.0,10010.0,-228.0,0.286,0.318,-0.587,-0.687
1332289,-1354.0,9784.0,-168.0,0.298,0.305,-0.569,-0.704
1332305,-1518.0,8702.0,-112.0,0.312,0.287,-0.545,-0.723
1332321,-1500.0,7664.0,58.0,0.329,0.264,-0.518,-0.744
1332338,-1380.0,6806.0,350.0,0.348,0.235,-0.488,-0.765
1332354,-1112.0,5804.0,1132.0,0.368,0.202,-0.456,-0.785
1332370,-576.0,4834.0,2314.0,0.386,0.167,-0.426,-0.801
1332389,84.0,3912.0,3714.0,0.403,0.133,-0.4,-0.813
1332406,932.0,3308.0,5118.0,0.416,0.104,-0.38,-0.82
1332422,1750.0,3742.0,6306.0,0.424,0.081,-0.369,-0.823
1332448,2326.0,4810.0,7040.0,0.427,0.065,-0.364,-0.825
1332464,2840.0,5478.0,7542.0,0.426,0.055,-0.365,-0.826
1332480,3012.0,5714.0,7558.0,0.422,0.051,-0.367,-0.827
1332496,2680.0,5944.0,7350.0,0.416,0.052,-0.372,-0.828
1332512,2552.0,6002.0,7060.0,0.41,0.055,-0.376,-0.829
1332528,2294.0,5994.0,6748.0,0.405,0.059,-0.378,-0.83
1332555,2036.0,5656.0,6462.0,0.4,0.063,-0.379,-0.832
1332571,1802.0,5284.0,6222.0,0.397,0.066,-0.379,-0.833
1332587,1612.0,4942.0,6114.0,0.395,0.068,-0.378,-0.834
1332603,1552.0,4696.0,5978.0,0.394,0.069,-0.377,-0.835
1332619,1448.0,4574.0,5908.0,0.394,0.07,-0.375,-0.836
1332635,1518.0,4530.0,5804.0,0.395,0.07,-0.375,-0.836
1332652,1616.0,4992.0,5816.0,0.396,0.07,-0.377,-0.835
1332678,1762.0,5590.0,5992.0,0.397,0.071,-0.379,-0.833
1332694,1800.0,5612.0,6080.0,0.399,0.073,-0.382,-0.831
1332710,1652.0,5360.0,6270.0,0.399,0.076,-0.387,-0.828
1332726,1416.0,4442.0,6618.0,0.397,0.083,-0.396,-0.824
1332742,1328.0,3912.0,6322.0,0.392,0.095,-0.412,-0.817
1332758,728.0,3686.0,5612.0,0.384,0.113,-0.437,-0.805
1332784,22.0,3762.0,4834.0,0.372,0.136,-0.469,-0.79
1332800,-660.0,6020.0,3928.0,0.358,0.16,-0.503,-0.77
1332816,-818.0,8452.0,3452.0,0.344,0.183,-0.536,-0.749
1332832,-210.0,11708.0,3088.0,0.334,0.2,-0.562,-0.73
1332848,410.0,13410.0,2828.0,0.33,0.211,-0.576,-0.718
1332864,366.0,12972.0,2562.0,0.331,0.217,-0.578,-0.714
1332890,352.0,10972.0,2380.0,0.334,0.218,-0.572,-0.716
1332906,536.0,8960.0,2358.0,0.338,0.219,-0.563,-0.721
1332922,430.0,7548.0,2882.0,0.339,0.222,-0.557,-0.725
1332939,564.0,7524.0,2958.0,0.338,0.228,-0.555,-0.725
1332956,576.0,7852.0,2464.0,0.335,0.237,-0.555,-0.724
1332972,622.0,8568.0,1912.0,0.33,0.246,-0.557,-0.721
1332988,842.0,9142.0,1486.0,0.326,0.255,-0.557,-0.72
1333014,740.0,8950.0,1130.0,0.323,0.263,-0.555,-0.72
1333030,812.0,8526.0,736.0,0.321,0.269,-0.552,-0.721
1333046,786.0,7964.0,622.0,0.32,0.273,-0.546,-0.725
1333062,824.0,7330.0,754.0,0.32,0.276,-0.538,-0.729
1333078,812.0,6584.0,748.0,0.32,0.277,-0.53,-0.735
1333094,520.0,5960.0,492.0,0.321,0.277,-0.522,-0.74
1333120,492.0,5432.0,210.0,0.322,0.274,-0.515,-0.745
1333136,426.0,5328.0,20.0,0.324,0.27,-0.51,-0.75
1333153,498.0,5548.0,-70.0,0.327,0.264,-0.504,-0.754
1333169,268.0,5706.0,-12.0,0.331,0.255,-0.498,-0.76
1333185,98.0,5570.0,198.0,0.336,0.244,-0.489,-0.767
1333202,22.0,5200.0,504.0,0.342,0.23,-0.478,-0.775
1333218,-14.0,4912.0,1086.0,0.348,0.214,-0.467,-0.784
1333244,-170.0,4728.0,1828.0,0.354,0.194,-0.455,-0.794
1333260,-264.0,4512.0,3082.0,0.361,0.172,-0.443,-0.802
1333276,-360.0,4814.0,4386.0,0.367,0.147,-0.434,-0.81
1333292,-218.0,5500.0,5448.0,0.372,0.12,-0.425,-0.816
1333308,530.0,6338.0,6036.0,0.378,0.092,-0.419,-0.821
1333324,1562.0,6682.0,7230.0,0.382,0.067,-0.413,-0.824
1333351,2152.0,7544.0,9334.0,0.385,0.05,-0.411,-0.825
1333368,1750.0,9594.0,11590.0,0.385,0.04,-0.415,-0.823
1333384,1576.0,12696.0,12564.0,0.381,0.037,-0.421,-0.823
1333400,3560.0,9042.0,11576.0,0.373,0.04,-0.425,-0.824
1333416,2758.0,7362.0,9020.0,0.363,0.05,-0.432,-0.824
1333432,2250.0,7060.0,8668.0,0.353,0.068,-0.438,-0.824
1333448,2154.0,7252.0,8188.0,0.345,0.089,-0.443,-0.823
1333474,674.0,7378.0,6786.0,0.341,0.111,-0.445,-0.82
1333490,150.0,7832.0,5452.0,0.339,0.131,-0.444,-0.819
1333506,370.0,8140.0,4178.0,0.337,0.146,-0.437,-0.821
1333522,712.0,7602.0,3902.0,0.337,0.158,-0.424,-0.825
1333538,-268.0,5508.0,4190.0,0.337,0.168,-0.408,-0.832
1333564,-526.0,4222.0,4544.0,0.337,0.176,-0.395,-0.836
1333580,-686.0,4850.0,4450.0,0.335,0.184,-0.387,-0.839
1333596,-796.0,6354.0,4204.0,0.334,0.19,-0.378,-0.842
1333612,-884.0,6708.0,4310.0,0.334,0.192,-0.367,-0.847
1333628,-896.0,5870.0,4788.0,0.336,0.191,-0.354,-0.852
1333644,-708.0,5092.0,5300.0,0.338,0.189,-0.341,-0.857
1333670,-618.0,4500.0,5684.0,0.341,0.187,-0.33,-0.86
1333687,-398.0,4438.0,6078.0,0.343,0.186,-0.32,-0.863
1333703,-376.0,4510.0,6494.0,0.345,0.186,-0.312,-0.866
1333719,-352.0,4456.0,6776.0,0.347,0.186,-0.305,-0.867
1333735,-440.0,4494.0,6712.0,0.349,0.187,-0.298,-0.869
1333752,-144.0,5234.0,6566.0,0.352,0.188,-0.292,-0.869
1333768,-66.0,5732.0,6408.0,0.355,0.189,-0.288,-0.869
1333795,270.0,6422.0,6304.0,0.358,0.19,-0.284,-0.869
1333811,236.0,7134.0,6036.0,0.36,0.192,-0.278,-0.87
1333827,-132.0,6694.0,6082.0,0.361,0.193,-0.272,-0.871
1333843,-560.0,5336.0,6118.0,0.361,0.194,-0.264,-0.873
1333860,-948.0,1758.0,6220.0,0.363,0.195,-0.254,-0.875
1333877,-2990.0,-1916.0,5212.0,0.367,0.197,-0.247,-0.875
1333893,-3196.0,-998.0,5362.0,0.374,0.199,-0.243,-0.872
1333909,-2530.0,-904.0,5498.0,0.384,0.199,-0.242,-0.869
1333935,-1820.0,-700.0,5750.0,0.397,0.197,-0.245,-0.862
1333951,-182.0,2102.0,6042.0,0.411,0.194,-0.253,-0.854
1333968,1458.0,7932.0,5838.0,0.424,0.192,-0.263,-0.845
1333984,3126.0,11126.0,6210.0,0.434,0.188,-0.269,-0.839
1334000,3472.0,11764.0,6668.0,0.44,0.186,-0.269,-0.836
1334016,2920.0,11884.0,6416.0,0.442,0.187,-0.267,-0.836
1334042,1730.0,9930.0,5576.0,0.441,0.19,-0.265,-0.836
1334058,778.0,7802.0,4534.0,0.438,0.195,-0.264,-0.837
1334074,-230.0,6936.0,3514.0,0.433,0.2,-0.265,-0.838
1334090,-620.0,6402.0,3008.0,0.428,0.204,-0.267,-0.839
1334106,-704.0,5460.0,2788.0,0.422,0.204,-0.269,-0.841
1334122,-606.0,4700.0,2448.0,0.415,0.202,-0.273,-0.844
1334148,-530.0,4204.0,2358.0,0.408,0.197,-0.278,-0.847
1334164,-546.0,3942.0,2652.0,0.401,0.187,-0.285,-0.85
1334180,-462.0,3470.0,2852.0,0.393,0.175,-0.291,-0.854
1334196,-254.0,2736.0,3100.0,0.386,0.16,-0.298,-0.858
1334212,-226.0,2230.0,3762.0,0.38,0.144,-0.306,-0.861
1334228,-220.0,2108.0,4680.0,0.376,0.126,-0.315,-0.862
1334254,-62.0,2096.0,5124.0,0.373,0.107,-0.324,-0.863
1334270,128.0,1938.0,5392.0,0.372,0.087,-0.332,-0.863
1334286,414.0,1772.0,6080.0,0.373,0.066,-0.34,-0.861
1334302,-12.0,3594.0,7344.0,0.378,0.042,-0.346,-0.858
1334318,-358.0,5464.0,8890.0,0.382,0.011,-0.346,-0.857
1334335,-862.0,7408.0,13866.0,0.392,-0.029,-0.345,-0.852
1334352,714.0,7954.0,14126.0,0.408,-0.072,-0.348,-0.841
1334378,6892.0,10294.0,13456.0,0.414,-0.108,-0.352,-0.833
1334396,15006.0,5174.0,13830.0,0.407,-0.112,-0.348,-0.837
1334412,6152.0,3220.0,8518.0,0.403,-0.095,-0.342,-0.844
1334429,404.0,872.0,6438.0,0.401,-0.076,-0.341,-0.847
1334445,1228.0,1308.0,6444.0,0.403,-0.061,-0.349,-0.844
1334461,3424.0,3924.0,6016.0,0.406,-0.049,-0.36,-0.838
1334477,3024.0,5848.0,5072.0,0.41,-0.043,-0.367,-0.834
1334494,3528.0,5686.0,4864.0,0.414,-0.042,-0.367,-0.832
1334510,4150.0,5658.0,4898.0,0.419,-0.046,-0.362,-0.831
1334537,4192.0,5102.0,4968.0,0.426,-0.053,-0.355,-0.831
1334554,4542.0,5048.0,5452.0,0.432,-0.061,-0.348,-0.83
1334570,4926.0,5564.0,5940.0,0.437,-0.067,-0.343,-0.829
1334586,4952.0,5530.0,6498.0,0.439,-0.069,-0.341,-0.828
1334602,4614.0,5928.0,6836.0,0.439,-0.069,-0.341,-0.829
1334619,4144.0,5342.0,6720.0,0.437,-0.067,-0.342,-0.83
1334636,3626.0,4700.0,6394.0,0.434,-0.065,-0.343,-0.831
1334653,3270.0,4686.0,6228.0,0.432,-0.062,-0.344,-0.832
1334670,2942.0,4632.0,6114.0,0.43,-0.06,-0.344,-0.833
1334687,2842.0,4578.0,6072.0,0.428,-0.06,-0.343,-0.834
1334714,2754.0,4258.0,6172.0,0.426,-0.061,-0.341,-0.836
1334730,2690.0,3950.0,6252.0,0.425,-0.062,-0.338,-0.837
1334747,2720.0,3686.0,6310.0,0.423,-0.063,-0.336,-0.839
1334764,2670.0,3526.0,6416.0,0.422,-0.064,-0.335,-0.84
1334781,2692.0,3512.0,6492.0,0.421,-0.064,-0.335,-0.841
1334798,2752.0,3500.0,6516.0,0.419,-0.065,-0.335,-0.841
1334815,2942.0,3810.0,6626.0,0.419,-0.066,-0.335,-0.841
1334832,3184.0,4044.0,6654.0,0.418,-0.067,-0.335,-0.842
1334849,3308.0,4022.0,6640.0,0.418,-0.068,-0.334,-0.842
1334866,3416.0,3970.0,6628.0,0.419,-0.069,-0.334,-0.842
1334882,3476.0,4028.0,6540.0,0.419,-0.069,-0.333,-0.842
1334908,3482.0,4322.0,6496.0,0.42,-0.068,-0.334,-0.841
1334925,3472.0,4554.0,6448.0,0.42,-0.068,-0.334,-0.841
1334942,3514.0,4550.0,6388.0,0.42,-0.067,-0.335,-0.841
1334959,3364.0,4538.0,6284.0,0.42,-0.066,-0.335,-0.841
1334975,3262.0,4534.0,6286.0,0.419,-0.065,-0.335,-0.841
1334992,3184.0,4526.0,6322.0,0.419,-0.064,-0.335,-0.842
1335008,3120.0,4404.0,6318.0,0.418,-0.064,-0.334,-0.842
1335024,3048.0,4210.0,6262.0,0.418,-0.063,-0.334,-0.842
1335050,3048.0,4104.0,6292.0,0.418,-0.062,-0.334,-0.843
1335067,3034.0,4154.0,6360.0,0.417,-0.061,-0.334,-0.843
1335083,3046.0,4140.0,6374.0,0.417,-0.06,-0.334,-0.843
1335100,3018.0,4174.0,6340.0,0.417,-0.06,-0.335,-0.843
1335117,2978.0,4174.0,6354.0,0.416,-0.059,-0.335,-0.843
1335134,2968.0,4264.0,6314.0,0.416,-0.059,-0.335,-0.843
1335150,2960.0,4296.0,6364.0,0.416,-0.059,-0.335,-0.843
1335167,3002.0,4394.0,6310.0,0.416,-0.059,-0.335,-0.843
1335184,3028.0,4398.0,6342.0,0.416,-0.059,-0.334,-0.844
1335201,3010.0,4394.0,6368.0,0.416,-0.059,-0.334,-0.844
1335228,3040.0,4424.0,6390.0,0.416,-0.059,-0.334,-0.844
1335244,3108.0,4444.0,6394.0,0.416,-0.059,-0.334,-0.844
1335260,3184.0,4390.0,6430.0,0.415,-0.059,-0.334,-0.844
1335276,3106.0,4370.0,6400.0,0.415,-0.059,-0.334,-0.844
1335292,3108.0,4292.0,6354.0,0.415,-0.058,-0.334,-0.844
1335309,3062.0,4290.0,6348.0,0.414,-0.058,-0.334,-0.845
1335326,3006.0,4288.0,6322.0,0.414,-0.058,-0.334,-0.845
1335343,2976.0,4234.0,6338.0,0.414,-0.058,-0.334,-0.845
1335369,2928.0,4340.0,6320.0,0.414,-0.058,-0.334,-0.845
1335386,2984.0,4405.0,6112.0,0.413,-0.058,-0.334,-0.845
1335404,3017.0,4439.0,6154.0,0.413,-0.058,-0.334,-0.845
1335420,3055.0,4402.0,6170.0,0.413,-0.059,-0.334,-0.845
1335437,3114.0,4322.0,6243.0,0.413,-0.059,-0.334,-0.845
1335454,3150.0,4305.0,6266.0,0.412,-0.059,-0.334,-0.846
1335470,3207.0,4343.0,6238.0,0.412,-0.06,-0.334,-0.846
1335487,3263.0,4351.0,6288.0,0.412,-0.06,-0.334,-0.846
1335504,3199.0,4331.0,6240.0,0.412,-0.06,-0.334,-0.846
1335520,3195.0,4399.0,6194.0,0.412,-0.06,-0.334,-0.846
1335537,3185.0,4381.0,6152.0,0.412,-0.06,-0.334,-0.846
1335564,3101.0,4391.0,6208.0,0.412,-0.06,-0.334,-0.846
1335581,3091.0,4377.0,6162.0,0.411,-0.06,-0.334,-0.846
1335598,3087.0,4423.0,6150.0,0.411,-0.06,-0.334,-0.846
1335615,3095.0,4331.0,6186.0,0.411,-0.06,-0.334,-0.846
1335632,3121.0,4387.0,6250.0,0.411,-0.06,-0.334,-0.846
1335649,3199.0,4359.0,6298.0,0.411,-0.06,-0.334,-0.846
1335666,3167.0,4357.0,6244.0,0.411,-0.061,-0.334,-0.846
1335683,3153.0,4369.0,6240.0,0.411,-0.061,-0.334,-0.846
1335700,3133.0,4387.0,6270.0,0.41,-0.06,-0.334,-0.847
1335717,3113.0,4335.0,6178.0,0.41,-0.06,-0.334,-0.847
1335733,3111.0,4367.0,6200.0,0.41,-0.06,-0.334,-0.847
1335750,3139.0,4325.0,6182.0,0.41,-0.06,-0.334,-0.847
1335767,3079.0,4333.0,6216.0,0.41,-0.06,-0.334,-0.847
1335794,3147.0,4315.0,6226.0,0.409,-0.06,-0.334,-0.847
1335811,3089.0,4391.0,6184.0,0.409,-0.06,-0.334,-0.847
1335827,3101.0,4405.0,6240.0,0.409,-0.06,-0.334,-0.847
1335843,3093.0,4425.0,6274.0,0.409,-0.06,-0.334,-0.847
1335859,3167.0,4343.0,6244.0,0.409,-0.06,-0.334,-0.847
1335875,3153.0,4335.0,6280.0,0.409,-0.061,-0.334,-0.847
1335892,3205.0,4361.0,6268.0,0.408,-0.06,-0.334,-0.847
1335918,3201.0,4387.0,6282.0,0.408,-0.06,-0.334,-0.847
1335935,3181.0,4349.0,6162.0,0.408,-0.06,-0.334,-0.848
1335952,3123.0,4357.0,6208.0,0.408,-0.06,-0.334,-0.848
1335968,3079.0,4369.0,6166.0,0.408,-0.06,-0.334,-0.848
1335984,3107.0,4387.0,6180.0,0.408,-0.06,-0.334,-0.848
1336001,3103.0,4343.0,6168.0,0.407,-0.06,-0.334,-0.848
1336017,3091.0,4387.0,6190.0,0.407,-0.06,-0.334,-0.848
1336034,3113.0,4403.0,6244.0,0.407,-0.06,-0.334,-0.848
1336051,3119.0,4351.0,6290.0,0.407,-0.06,-0.334,-0.848
1336068,3093.0,4325.0,6234.0,0.407,-0.06,-0.334,-0.848
1336086,3055.0,4337.0,6240.0,0.407,-0.06,-0.334,-0.848
1336113,3141.0,4309.0,6204.0,0.407,-0.06,-0.334,-0.848
1336130,3113.0,4327.0,6170.0,0.407,-0.06,-0.335,-0.848
1336147,3085.0,4403.0,6146.0,0.407,-0.06,-0.335,-0.848
1336164,3109.0,4405.0,6166.0,0.406,-0.06,-0.335,-0.848
1336181,3107.0,4427.0,6232.0,0.406,-0.06,-0.335,-0.848
1336198,3141.0,4437.0,6236.0,0.406,-0.061,-0.335,-0.848
1336215,3123.0,4417.0,6266.0,0.406,-0.061,-0.335,-0.848
1336232,3169.0,4453.0,6274.0,0.406,-0.061,-0.335,-0.848
1336249,3061.0,4405.0,6228.0,0.406,-0.061,-0.335,-0.848
1336266,3149.0,4367.0,6280.0,0.406,-0.061,-0.335,-0.848
1336283,3143.0,4439.0,6242.0,0.405,-0.061,-0.335,-0.848
1336299,3125.0,4381.0,6234.0,0.405,-0.061,-0.335,-0.848
1336316,3067.0,4371.0,6216.0,0.405,-0.06,-0.335,-0.848
1336343,3139.0,4357.0,6204.0,0.405,-0.06,-0.335,-0.849
1336360,3121.0,4357.0,6160.0,0.405,-0.06,-0.335,-0.849
1336376,3077.0,4429.0,6160.0,0.404,-0.06,-0.336,-0.849
1336392,3083.0,4415.0,6190.0,0.404,-0.06,-0.336,-0.849
1336410,3073.0,4381.0,6204.0,0.404,-0.06,-0.335,-0.849
1336427,3117.0,4369.0,6208.0,0.404,-0.06,-0.336,-0.849
1336443,3117.0,4323.0,6142.0,0.403,-0.06,-0.336,-0.849
1336460,3085.0,4335.0,6142.0,0.403,-0.06,-0.336,-0.849
1336477,2979.0,4383.0,6204.0,0.403,-0.06,-0.336,-0.849
1336494,3019.0,4533.0,6272.0,0.403,-0.061,-0.336,-0.849
1336511,3155.0,4461.0,6342.0,0.403,-0.061,-0.335,-0.849
1336528,3203.0,4359.0,6322.0,0.403,-0.062,-0.335,-0.85
1336555,3197.0,4323.0,6312.0,0.402,-0.061,-0.335,-0.85
1336571,3075.0,4383.0,6304.0,0.402,-0.061,-0.335,-0.85
1336588,3067.0,4381.0,6226.0,0.402,-0.061,-0.336,-0.85
1336604,3045.0,4389.0,6206.0,0.402,-0.061,-0.335,-0.85
1336621,3083.0,4427.0,6190.0,0.401,-0.061,-0.335,-0.85
1336638,3149.0,4409.0,6158.0,0.401,-0.061,-0.335,-0.85
1336654,3083.0,4297.0,6190.0,0.401,-0.061,-0.335,-0.851
1336671,3095.0,4307.0,6210.0,0.401,-0.061,-0.335,-0.851
1336688,3129.0,4405.0,6178.0,0.4,-0.061,-0.335,-0.851
1336714,3087.0,4405.0,6182.0,0.4,-0.061,-0.335,-0.851
1336731,3079.0,4361.0,6190.0,0.4,-0.061,-0.335,-0.851
1336748,3075.0,4291.0,6226.0,0.4,-0.061,-0.335,-0.851
1336765,3051.0,4395.0,6218.0,0.4,-0.061,-0.335,-0.851
1336782,3035.0,4433.0,6222.0,0.4,-0.061,-0.335,-0.851
1336798,3065.0,4393.0,6234.0,0.399,-0.062,-0.335,-0.851
1336815,3097.0,4405.0,6270.0,0.399,-0.062,-0.335,-0.851
1336832,3081.0,4339.0,6328.0,0.399,-0.062,-0.335,-0.851
1336849,3133.0,4411.0,6320.0,0.399,-0.062,-0.335,-0.851
1336866,3081.0,4395.0,6228.0,0.399,-0.062,-0.335,-0.851
1336883,3125.0,4395.0,6208.0,0.399,-0.062,-0.335,-0.852
1336900,3153.0,4341.0,6216.0,0.398,-0.062,-0.335,-0.852
1336927,3073.0,4325.0,6198.0,0.398,-0.062,-0.335,-0.852
1336944,3107.0,4373.0,6174.0,0.398,-0.062,-0.335,-0.852
1336961,3123.0,4319.0,6244.0,0.398,-0.062,-0.335,-0.852
1336978,3109.0,4365.0,6306.0,0.398,-0.063,-0.335,-0.852
1336995,3095.0,4419.0,6324.0,0.398,-0.063,-0.335,-0.852
1337011,3163.0,4313.0,6246.0,0.397,-0.063,-0.335,-0.852
1337027,3103.0,4331.0,6286.0,0.397,-0.062,-0.335,-0.852
1337043,3079.0,4419.0,6314.0,0.397,-0.062,-0.335,-0.852
1337059,3071.0,4445.0,6218.0,0.397,-0.062,-0.335,-0.852
1337085,3047.0,4313.0,6214.0,0.397,-0.062,-0.335,-0.853
1337101,3025.0,4273.0,6188.0,0.396,-0.062,-0.335,-0.853
1337117,3087.0,4377.0,6206.0,0.396,-0.061,-0.335,-0.853
1337134,3055.0,4425.0,6188.0,0.396,-0.061,-0.335,-0.853
1337151,2997.0,4405.0,6140.0,0.396,-0.061,-0.335,-0.853
1337168,3057.0,4407.0,6180.0,0.396,-0.062,-0.335,-0.853
1337185,3061.0,4377.0,6250.0,0.396,-0.062,-0.335,-0.853
1337202,3055.0,4433.0,6248.0,0.396,-0.062,-0.335,-0.853
1337219,3073.0,4431.0,6230.0,0.395,-0.062,-0.335,-0.853
1337236,3085.0,4397.0,6258.0,0.395,-0.062,-0.335,-0.853
1337263,3075.0,4407.0,6254.0,0.395,-0.062,-0.335,-0.853
1337280,3057.0,4377.0,6244.0,0.395,-0.062,-0.335,-0.853
1337296,3121.0,4327.0,6214.0,0.395,-0.062,-0.335,-0.853
1337312,3043.0,4339.0,6184.0,0.394,-0.062,-0.335,-0.854
1337329,3097.0,4343.0,6264.0,0.394,-0.063,-0.335,-0.854
1337345,3151.0,4359.0,6238.0,0.394,-0.063,-0.335,-0.854
1337362,3213.0,4337.0,6296.0,0.394,-0.063,-0.335,-0.854
1337378,3151.0,4355.0,6354.0,0.394,-0.063,-0.335,-0.854
1337404,3117.0,4435.0,6342.0,0.394,-0.062,-0.335,-0.854
1337421,3055.0,4437.0,6282.0,0.394,-0.062,-0.335,-0.854
1337437,2973.0,4423.0,6252.0,0.394,-0.062,-0.335,-0.854
1337454,2967.0,4409.0,6180.0,0.394,-0.061,-0.335,-0.854
1337471,2949.0,4431.0,6158.0,0.394,-0.061,-0.335,-0.854
1337487,2991.0,4457.0,6122.0,0.393,-0.061,-0.335,-0.854
1337504,2995.0,4395.0,6120.0,0.393,-0.061,-0.335,-0.854
1337521,3045.0,4371.0,6224.0,0.393,-0.062,-0.335,-0.854
1337537,3053.0,4389.0,6256.0,0.393,-0.062,-0.335,-0.854
1337564,3141.0,4393.0,6318.0,0.392,-0.062,-0.335,-0.854
1337581,3203.0,4351.0,6476.0,0.392,-0.062,-0.335,-0.855
1337598,3409.0,4409.0,6732.0,0.392,-0.061,-0.336,-0.855
1337615,3699.0,3835.0,6888.0,0.391,-0.059,-0.338,-0.854
1337632,3669.0,4619.0,7144.0,0.39,-0.055,-0.344,-0.852
1337649,4341.0,5359.0,8034.0,0.386,-0.049,-0.351,-0.852
1337666,4411.0,4943.0,8502.0,0.381,-0.036,-0.36,-0.851
1337683,4157.0,3447.0,8304.0,0.374,-0.016,-0.374,-0.848
1337700,3535.0,5579.0,7608.0,0.366,0.011,-0.396,-0.842
1337717,3121.0,8889.0,6686.0,0.356,0.042,-0.418,-0.834
1337734,3059.0,13427.0,6214.0,0.346,0.072,-0.432,-0.83
1337751,2607.0,13125.0,6176.0,0.337,0.099,-0.432,-0.83
1337768,1953.0,11335.0,5428.0,0.331,0.122,-0.421,-0.836
1337785,1351.0,7245.0,5238.0,0.324,0.143,-0.406,-0.842
1337812,769.0,4555.0,4470.0,0.316,0.165,-0.395,-0.847
1337828,409.0,4141.0,3946.0,0.306,0.189,-0.388,-0.849
1337844,-187.0,4409.0,3320.0,0.297,0.213,-0.381,-0.849
1337860,-1289.0,4097.0,3002.0,0.291,0.235,-0.373,-0.849
1337876,-2423.0,2429.0,1128.0,0.288,0.25,-0.363,-0.85
1337893,-2979.0,1023.0,3984.0,0.287,0.257,-0.355,-0.852
1337910,-2801.0,2419.0,2854.0,0.287,0.257,-0.347,-0.855
1337937,-2467.0,1547.0,3030.0,0.291,0.253,-0.339,-0.858
1337953,-2103.0,-339.0,2692.0,0.296,0.247,-0.332,-0.861
1337969,-867.0,915.0,3386.0,0.301,0.243,-0.331,-0.861
1337985,-1133.0,2127.0,3886.0,0.305,0.24,-0.335,-0.858
1338002,-1125.0,4985.0,4150.0,0.308,0.239,-0.344,-0.854
1338019,-861.0,7977.0,4178.0,0.311,0.236,-0.354,-0.85
1338036,-741.0,9425.0,4312.0,0.315,0.23,-0.359,-0.848
1338053,-697.0,9031.0,4638.0,0.319,0.222,-0.361,-0.848
1338070,-933.0,8201.0,5102.0,0.322,0.214,-0.361,-0.848
1338087,-1167.0,7737.0,5476.0,0.325,0.207,-0.361,-0.849
1338114,-1327.0,7251.0,5700.0,0.328,0.199,-0.36,-0.85
1338131,-1289.0,6377.0,5516.0,0.332,0.191,-0.358,-0.852
1338148,-1477.0,5211.0,5080.0,0.336,0.181,-0.355,-0.853
1338165,-1509.0,4271.0,4694.0,0.341,0.17,-0.354,-0.854
1338182,-1353.0,3727.0,4482.0,0.348,0.158,-0.354,-0.854
1338199,-993.0,4095.0,4402.0,0.355,0.143,-0.355,-0.853
1338216,-519.0,4709.0,4558.0,0.362,0.127,-0.357,-0.852
1338233,57.0,5399.0,4892.0,0.37,0.107,-0.358,-0.85
1338250,617.0,6015.0,5500.0,0.379,0.086,-0.358,-0.849
1338267,1333.0,6235.0,6328.0,0.387,0.064,-0.356,-0.848
1338284,2033.0,6743.0,7228.0,0.394,0.043,-0.352,-0.848
1338301,2787.0,6777.0,7750.0,0.401,0.023,-0.347,-0.847
1338318,3373.0,6059.0,7968.0,0.407,0.006,-0.341,-0.847
1338335,3775.0,5615.0,8110.0,0.412,-0.005,-0.334,-0.848
1338352,3753.0,5165.0,8100.0,0.416,-0.012,-0.328,-0.848
1338369,3513.0,4987.0,7888.0,0.418,-0.014,-0.325,-0.848
1338396,3273.0,4989.0,7562.0,0.42,-0.012,-0.323,-0.848
1338412,2965.0,4941.0,7098.0,0.42,-0.008,-0.322,-0.848
1338428,2769.0,4933.0,6694.0,0.419,-0.003,-0.323,-0.849
1338444,2561.0,4957.0,6360.0,0.418,0.002,-0.324,-0.849
1338461,2441.0,4835.0,6190.0,0.416,0.007,-0.325,-0.849
1338477,2331.0,4775.0,6042.0,0.415,0.01,-0.325,-0.85
1338493,2213.0,4523.0,5960.0,0.413,0.012,-0.325,-0.851
1338520,2157.0,4411.0,6004.0,0.412,0.013,-0.325,-0.851
1338536,2143.0,4361.0,6092.0,0.411,0.012,-0.325,-0.852
1338552,2171.0,4341.0,6190.0,0.41,0.011,-0.324,-0.852
1338568,2123.0,4363.0,6304.0,0.41,0.009,-0.324,-0.853
1338585,2155.0,4499.0,6486.0,0.41,0.007,-0.323,-0.853
1338601,2221.0,4599.0,6606.0,0.41,0.005,-0.322,-0.853
1338617,2219.0,4693.0,6712.0,0.411,0.003,-0.321,-0.853
1338644,2281.0,4639.0,6728.0,0.411,0.002,-0.32,-0.854
1338661,2223.0,4603.0,6824.0,0.411,0.002,-0.32,-0.854
1338677,2207.0,4567.0,6808.0,0.411,0.002,-0.32,-0.854
1338694,2165.0,4613.0,6662.0,0.411,0.002,-0.32,-0.854
1338710,2129.0,4567.0,6516.0,0.41,0.003,-0.32,-0.854
1338726,2065.0,4575.0,6464.0,0.41,0.005,-0.321,-0.854
1338742,2061.0,4605.0,6424.0,0.409,0.005,-0.321,-0.854
1338768,2043.0,4567.0,6356.0,0.409,0.006,-0.321,-0.854
1338785,2041.0,4555.0,6308.0,0.409,0.007,-0.321,-0.854
1338802,2061.0,4563.0,6282.0,0.409,0.007,-0.321,-0.854
1338819,2241.0,4591.0,6312.0,0.409,0.007,-0.321,-0.854
1338836,2309.0,4705.0,6366.0,0.409,0.006,-0.321,-0.854
1338853,2241.0,4645.0,6366.0,0.409,0.006,-0.321,-0.854
1338870,2213.0,4577.0,6420.0,0.409,0.005,-0.32,-0.855
1338886,2153.0,4607.0,6456.0,0.408,0.005,-0.321,-0.855
1338903,2107.0,4567.0,6458.0,0.408,0.005,-0.321,-0.855
1338920,2161.0,4619.0,6464.0,0.408,0.005,-0.321,-0.855
1338936,2007.0,4629.0,6422.0,0.407,0.005,-0.322,-0.855
1338953,2053.0,4715.0,6424.0,0.407,0.005,-0.323,-0.855
1338980,2039.0,4755.0,6400.0,0.406,0.005,-0.323,-0.855
1338996,2043.0,4747.0,6388.0,0.406,0.005,-0.323,-0.855
1339012,2025.0,4653.0,6392.0,0.406,0.005,-0.323,-0.855
1339029,1941.0,4513.0,6428.0,0.406,0.004,-0.323,-0.855
1339046,1965.0,4447.0,6432.0,0.405,0.004,-0.323,-0.855
1339063,2007.0,4439.0,6348.0,0.405,0.004,-0.323,-0.855
1339080,2059.0,4565.0,6304.0,0.405,0.003,-0.324,-0.855
1339096,2117.0,4789.0,6262.0,0.404,0.003,-0.325,-0.855
1339122,2139.0,4867.0,6346.0,0.404,0.002,-0.325,-0.855
1339138,2155.0,4717.0,6382.0,0.403,0.001,-0.325,-0.855
1339155,2211.0,4545.0,6418.0,0.403,-0.001,-0.325,-0.855
1339172,2255.0,4557.0,6452.0,0.403,-0.001,-0.325,-0.856
1339189,2255.0,4641.0,6386.0,0.403,-0.002,-0.325,-0.856
1339206,2271.0,4807.0,6382.0,0.402,-0.003,-0.326,-0.856
1339222,2359.0,4827.0,6448.0,0.401,-0.004,-0.326,-0.856
1339238,2261.0,4669.0,6520.0,0.401,-0.004,-0.326,-0.856
1339254,2361.0,4529.0,6480.0,0.401,-0.005,-0.325,-0.857
1339281,2327.0,4487.0,6436.0,0.4,-0.006,-0.325,-0.857
1339298,2229.0,4511.0,6432.0,0.4,-0.006,-0.326,-0.857
1339315,2227.0,4497.0,6458.0,0.399,-0.006,-0.326,-0.857
1339332,2223.0,4545.0,6468.0,0.399,-0.007,-0.326,-0.857
1339349,2229.0,4557.0,6428.0,0.399,-0.007,-0.326,-0.857
1339366,2285.0,4589.0,6456.0,0.398,-0.008,-0.326,-0.857
1339383,2249.0,4609.0,6482.0,0.398,-0.008,-0.326,-0.857
1339400,2323.0,4605.0,6520.0,0.398,-0.009,-0.326,-0.858
1339417,2329.0,4551.0,6420.0,0.398,-0.009,-0.325,-0.858
1339434,2355.0,4559.0,6500.0,0.398,-0.009,-0.325,-0.858
1339451,2333.0,4583.0,6484.0,0.398,-0.01,-0.325,-0.858
1339468,2351.0,4563.0,6504.0,0.397,-0.01,-0.325,-0.858
1339485,2381.0,4489.0,6432.0,0.397,-0.01,-0.325,-0.858
1339502,2409.0,4553.0,6476.0,0.397,-0.01,-0.325,-0.858
1339529,2311.0,4611.0,6492.0,0.397,-0.01,-0.325,-0.858
1339546,2249.0,4545.0,6452.0,0.397,-0.01,-0.324,-0.858
1339563,2263.0,4505.0,6406.0,0.397,-0.01,-0.324,-0.859
1339580,2273.0,4513.0,6444.0,0.397,-0.01,-0.324,-0.858
1339596,2237.0,4521.0,6450.0,0.397,-0.01,-0.325,-0.858
1339613,2249.0,4599.0,6400.0,0.397,-0.01,-0.325,-0.858
1339630,2249.0,4781.0,6386.0,0.397,-0.01,-0.325,-0.858
1339647,2273.0,4699.0,6418.0,0.397,-0.01,-0.325,-0.858
1339664,2215.0,4547.0,6470.0,0.396,-0.01,-0.325,-0.859
1339681,2225.0,4515.0,6496.0,0.396,-0.011,-0.325,-0.859
1339698,2253.0,4497.0,6416.0,0.396,-0.011,-0.325,-0.859
1339715,2365.0,4563.0,6410.0,0.396,-0.011,-0.325,-0.859
1339741,2269.0,4639.0,6412.0,0.396,-0.011,-0.326,-0.859
1339758,2313.0,4657.0,6424.0,0.395,-0.011,-0.326,-0.859
1339775,2291.0,4661.0,6446.0,0.395,-0.011,-0.326,-0.859
1339792,2339.0,4561.0,6452.0,0.395,-0.011,-0.325,-0.859
1339809,2309.0,4465.0,6482.0,0.395,-0.012,-0.325,-0.859
1339825,2315.0,4529.0,6526.0,0.394,-0.012,-0.325,-0.859
1339841,2397.0,4535.0,6512.0,0.394,-0.012,-0.325,-0.859
1339857,2323.0,4603.0,6464.0,0.394,-0.012,-0.326,-0.859
1339883,2389.0,4629.0,6500.0,0.394,-0.012,-0.326,-0.859
1339900,2315.0,4531.0,6468.0,0.394,-0.012,-0.326,-0.86
1339917,2313.0,4461.0,6428.0,0.394,-0.012,-0.326,-0.86
1339934,2285.0,4535.0,6402.0,0.394,-0.012,-0.326,-0.86
1339951,2249.0,4557.0,6354.0,0.393,-0.012,-0.326,-0.86
1339967,2211.0,4617.0,6344.0,0.393,-0.012,-0.326,-0.86
1339984,2239.0,4709.0,6408.0,0.393,-0.012,-0.326,-0.86
1340001,2293.0,4671.0,6462.0,0.393,-0.012,-0.326,-0.86
1340017,2289.0,4539.0,6448.0,0.393,-0.012,-0.325,-0.86
1340034,2287.0,4543.0,6438.0,0.393,-0.012,-0.326,-0.86
1340051,2361.0,4607.0,6408.0,0.393,-0.012,-0.326,-0.86
1340078,2297.0,4577.0,6432.0,0.393,-0.012,-0.326,-0.86
1340095,2243.0,4515.0,6424.0,0.393,-0.012,-0.326,-0.86
1340111,2317.0,4581.0,6392.0,0.393,-0.012,-0.326,-0.86
1340128,2269.0,4653.0,6386.0,0.392,-0.012,-0.326,-0.86
1340145,2351.0,4635.0,6432.0,0.392,-0.012,-0.326,-0.86
1340162,2231.0,4637.0,6452.0,0.392,-0.012,-0.326,-0.86
1340179,2241.0,4645.0,6472.0,0.392,-0.012,-0.325,-0.86
1340196,2267.0,4591.0,6472.0,0.392,-0.012,-0.325,-0.861
1340213,2241.0,4555.0,6432.0,0.391,-0.012,-0.325,-0.861
1340230,2259.0,4545.0,6400.0,0.391,-0.012,-0.325,-0.861
1340246,2235.0,4575.0,6378.0,0.391,-0.012,-0.326,-0.861
1340272,2267.0,4569.0,6350.0,0.391,-0.012,-0.326,-0.861
1340289,2269.0,4613.0,6352.0,0.39,-0.012,-0.326,-0.861
1340306,2355.0,4591.0,6398.0,0.39,-0.013,-0.325,-0.861
1340323,2323.0,4553.0,6424.0,0.39,-0.013,-0.325,-0.861
1340340,2413.0,4529.0,6466.0,0.39,-0.013,-0.325,-0.862
1340356,2393.0,4533.0,6496.0,0.39,-0.014,-0.325,-0.862
1340372,2339.0,4585.0,6548.0,0.39,-0.014,-0.325,-0.862
1340388,2367.0,4575.0,6520.0,0.389,-0.014,-0.325,-0.862
1340405,2325.0,4631.0,6470.0,0.389,-0.014,-0.325,-0.862
1340432,2281.0,4605.0,6468.0,0.389,-0.013,-0.325,-0.862
1340449,2211.0,4485.0,6404.0,0.389,-0.013,-0.325,-0.862
1340466,2233.0,4493.0,6406.0,0.389,-0.013,-0.325,-0.862
1340482,2215.0,4553.0,6362.0,0.388,-0.013,-0.325,-0.862
1340499,2305.0,4567.0,6380.0,0.388,-0.013,-0.325,-0.862
1340516,2249.0,4617.0,6388.0,0.388,-0.013,-0.325,-0.862
1340533,2303.0,4633.0,6404.0,0.388,-0.014,-0.325,-0.862
1340550,2309.0,4621.0,6364.0,0.388,-0.014,-0.325,-0.862
1340567,2321.0,4593.0,6368.0,0.388,-0.014,-0.325,-0.863
1340584,2241.0,4559.0,6434.0,0.387,-0.014,-0.325,-0.863
1340601,2305.0,4593.0,6454.0,0.387,-0.014,-0.325,-0.863
1340618,2327.0,4633.0,6430.0,0.387,-0.015,-0.325,-0.863
1340635,2343.0,4631.0,6478.0,0.387,-0.015,-0.325,-0.863
1340662,2363.0,4561.0,6444.0,0.387,-0.015,-0.325,-0.863
1340679,2283.0,4541.0,6464.0,0.386,-0.015,-0.325,-0.863
1340696,2269.0,4605.0,6424.0,0.386,-0.015,-0.325,-0.863
1340713,2283.0,4637.0,6416.0,0.386,-0.016,-0.325,-0.863
1340730,2273.0,4617.0,6406.0,0.386,-0.016,-0.325,-0.864
1340747,2317.0,4543.0,6428.0,0.385,-0.016,-0.324,-0.864
1340764,2287.0,4557.0,6450.0,0.385,-0.017,-0.324,-0.864
1340781,2383.0,4651.0,6484.0,0.384,-0.017,-0.324,-0.864
1340798,2343.0,4607.0,6552.0,0.384,-0.017,-0.324,-0.865
1340815,2407.0,4531.0,6518.0,0.383,-0.017,-0.324,-0.865
1340832,2463.0,4487.0,6462.0,0.383,-0.017,-0.323,-0.865
1340849,2371.0,4469.0,6422.0,0.382,-0.017,-0.323,-0.866
1340866,2241.0,4425.0,6448.0,0.382,-0.017,-0.323,-0.866
1340883,2185.0,4407.0,6390.0,0.382,-0.017,-0.323,-0.866
1340910,2295.0,4467.0,6372.0,0.381,-0.017,-0.322,-0.866
1340927,2245.0,4509.0,6402.0,0.381,-0.017,-0.322,-0.866
1340944,2257.0,4469.0,6456.0,0.381,-0.017,-0.322,-0.867
1340961,2305.0,4509.0,6462.0,0.381,-0.018,-0.322,-0.867
1340978,2227.0,4495.0,6432.0,0.381,-0.018,-0.322,-0.867
1340995,2287.0,4441.0,6462.0,0.381,-0.018,-0.322,-0.867
1341012,2207.0,4569.0,6468.0,0.381,-0.018,-0.322,-0.866
1341029,2297.0,4589.0,6466.0,0.381,-0.019,-0.323,-0.866
1341046,2313.0,4603.0,6448.0,0.381,-0.019,-0.323,-0.866
1341063,2331.0,4555.0,6468.0,0.38,-0.02,-0.323,-0.867
1341080,2359.0,4597.0,6510.0,0.38,-0.02,-0.323,-0.867
1341097,2297.0,4579.0,6438.0,0.38,-0.02,-0.322,-0.867
1341114,2305.0,4559.0,6450.0,0.38,-0.02,-0.322,-0.867
1341131,2253.0,4457.0,6458.0,0.379,-0.021,-0.322,-0.867
1341148,2295.0,4491.0,6516.0,0.379,-0.021,-0.322,-0.867
1341175,2325.0,4573.0,6432.0,0.378,-0.022,-0.323,-0.867
1341192,2317.0,4529.0,6428.0,0.378,-0.022,-0.323,-0.867
1341209,2361.0,4525.0,6392.0,0.377,-0.023,-0.323,-0.868
1341226,2311.0,4589.0,6460.0,0.377,-0.023,-0.323,-0.868
1341243,2355.0,4581.0,6484.0,0.376,-0.024,-0.323,-0.868
1341260,2365.0,4449.0,6508.0,0.376,-0.025,-0.323,-0.868
1341277,2321.0,4413.0,6546.0,0.376,-0.025,-0.323,-0.868
1341294,2433.0,4387.0,6600.0,0.375,-0.026,-0.323,-0.868
1341311,2427.0,4465.0,6596.0,0.375,-0.026,-0.323,-0.868
1341327,2363.0,4375.0,6462.0,0.375,-0.026,-0.323,-0.868
1341343,2401.0,4355.0,6542.0,0.374,-0.026,-0.324,-0.868
1341369,2403.0,4449.0,6620.0,0.374,-0.026,-0.324,-0.868
1341385,2493.0,4497.0,6580.0,0.374,-0.026,-0.325,-0.868
1341402,2505.0,4385.0,6628.0,0.374,-0.026,-0.325,-0.868
1341419,2575.0,4509.0,6642.0,0.375,-0.026,-0.325,-0.868
1341435,2507.0,4471.0,6622.0,0.375,-0.025,-0.325,-0.868
1341452,2411.0,4439.0,6548.0,0.375,-0.024,-0.324,-0.868
1341469,2227.0,4267.0,6396.0,0.376,-0.023,-0.325,-0.868
1341485,2253.0,4397.0,6244.0,0.376,-0.023,-0.325,-0.867
1341502,2279.0,4731.0,6164.0,0.377,-0.022,-0.326,-0.867
1341528,2303.0,4935.0,6124.0,0.377,-0.022,-0.327,-0.867
1341545,2255.0,4971.0,6122.0,0.377,-0.022,-0.327,-0.867
1341561,2309.0,4845.0,6148.0,0.377,-0.022,-0.326,-0.867
1341578,2329.0,4641.0,6272.0,0.376,-0.022,-0.326,-0.867
1341595,2297.0,4545.0,6320.0,0.376,-0.023,-0.326,-0.867
1341611,2345.0,4515.0,6324.0,0.375,-0.023,-0.326,-0.867
1341627,2403.0,4583.0,6340.0,0.375,-0.023,-0.326,-0.867
1341644,2385.0,4571.0,6374.0,0.375,-0.024,-0.326,-0.868
1341671,2417.0,4525.0,6508.0,0.374,-0.025,-0.326,-0.868
1341688,2429.0,4401.0,6510.0,0.374,-0.025,-0.326,-0.868
1341705,2477.0,4427.0,6538.0,0.374,-0.026,-0.325,-0.868
1341722,2395.0,4523.0,6602.0,0.374,-0.026,-0.326,-0.868
1341739,2409.0,4549.0,6604.0,0.373,-0.026,-0.326,-0.868
1341756,2327.0,4575.0,6570.0,0.373,-0.026,-0.326,-0.868
1341772,2317.0,4481.0,6538.0,0.373,-0.026,-0.325,-0.869
1341788,2361.0,4483.0,6520.0,0.373,-0.026,-0.325,-0.869
1341804,2371.0,4523.0,6508.0,0.373,-0.026,-0.325,-0.869
1341830,2401.0,4473.0,6448.0,0.373,-0.026,-0.325,-0.869
1341846,2355.0,4503.0,6402.0,0.372,-0.026,-0.325,-0.869
1341862,2329.0,4431.0,6368.0,0.372,-0.026,-0.325,-0.869
1341878,2425.0,4533.0,6316.0,0.372,-0.026,-0.325,-0.869
1341895,2373.0,4581.0,6228.0,0.372,-0.026,-0.325,-0.869
1341912,2405.0,4653.0,6328.0,0.372,-0.026,-0.325,-0.869
1341929,2415.0,4615.0,6410.0,0.372,-0.026,-0.325,-0.869
1341945,2411.0,4535.0,6490.0,0.372,-0.026,-0.325,-0.869
1341971,2401.0,4483.0,6492.0,0.372,-0.027,-0.325,-0.869
1341987,2399.0,4535.0,6540.0,0.372,-0.027,-0.325,-0.869
1342003,2383.0,4493.0,6584.0,0.372,-0.027,-0.325,-0.869
1342020,2329.0,4491.0,6556.0,0.372,-0.026,-0.325,-0.869
1342036,2361.0,4481.0,6582.0,0.372,-0.026,-0.325,-0.869
1342052,2391.0,4505.0,6526.0,0.371,-0.026,-0.325,-0.869
1342069,2381.0,4477.0,6478.0,0.371,-0.026,-0.325,-0.869
1342095,2407.0,4507.0,6452.0,0.371,-0.026,-0.325,-0.87
1342112,2365.0,4545.0,6352.0,0.371,-0.025,-0.325,-0.87
1342128,2339.0,4507.0,6390.0,0.371,-0.025,-0.325,-0.87
1342144,2291.0,4583.0,6324.0,0.371,-0.025,-0.325,-0.87
1342161,2339.0,4627.0,6392.0,0.371,-0.025,-0.324,-0.87
1342178,2307.0,4593.0,6370.0,0.371,-0.025,-0.324,-0.87
1342195,2363.0,4547.0,6390.0,0.371,-0.025,-0.324,-0.87
1342212,2393.0,4541.0,6426.0,0.37,-0.026,-0.325,-0.87
1342229,2375.0,4473.0,6418.0,0.37,-0.026,-0.325,-0.87
1342246,2383.0,4471.0,6474.0,0.37,-0.026,-0.325,-0.87
1342263,2401.0,4491.0,6496.0,0.37,-0.026,-0.325,-0.87
1342290,2327.0,4455.0,6498.0,0.37,-0.026,-0.324,-0.87
1342307,2363.0,4509.0,6496.0,0.37,-0.026,-0.324,-0.87
1342324,2365.0,4539.0,6458.0,0.37,-0.026,-0.324,-0.87
1342341,2349.0,4523.0,6508.0,0.369,-0.026,-0.324,-0.871
1342358,2395.0,4571.0,6548.0,0.369,-0.026,-0.323,-0.871
1342374,2363.0,4519.0,6502.0,0.369,-0.026,-0.323,-0.871
1342390,2411.0,4407.0,6464.0,0.369,-0.026,-0.322,-0.871
1342406,2389.0,4439.0,6554.0,0.369,-0.025,-0.322,-0.871
1342432,2327.0,4521.0,6526.0,0.37,-0.025,-0.322,-0.871
1342449,2253.0,4545.0,6444.0,0.369,-0.025,-0.321,-0.871
1342466,2281.0,4485.0,6390.0,0.37,-0.024,-0.321,-0.872
1342483,2265.0,4519.0,6414.0,0.37,-0.024,-0.321,-0.872
1342500,2267.0,4491.0,6486.0,0.37,-0.024,-0.321,-0.872
1342517,2311.0,4441.0,6434.0,0.37,-0.024,-0.321,-0.872
1342534,2355.0,4503.0,6472.0,0.369,-0.024,-0.321,-0.872
1342551,2345.0,4559.0,6500.0,0.369,-0.023,-0.321,-0.872
1342568,2331.0,4473.0,6500.0,0.369,-0.023,-0.321,-0.872
1342585,2267.0,4543.0,6472.0,0.369,-0.023,-0.321,-0.872
1342601,2177.0,4469.0,6434.0,0.369,-0.022,-0.321,-0.872
1342618,2169.0,4379.0,6458.0,0.369,-0.022,-0.32,-0.872
1342635,2261.0,4441.0,6462.0,0.369,-0.022,-0.32,-0.872
1342661,2291.0,4445.0,6502.0,0.369,-0.022,-0.32,-0.872
1342678,2285.0,4509.0,6518.0,0.369,-0.022,-0.32,-0.872
1342695,2319.0,4513.0,6504.0,0.369,-0.022,-0.32,-0.872
1342712,2331.0,4527.0,6470.0,0.369,-0.022,-0.32,-0.872
1342729,2321.0,4533.0,6470.0,0.369,-0.022,-0.32,-0.872
1342746,2237.0,4561.0,6486.0,0.369,-0.022,-0.32,-0.872
1342763,2221.0,4575.0,6504.0,0.369,-0.022,-0.32,-0.872
1342780,2229.0,4469.0,6528.0,0.369,-0.022,-0.32,-0.872
1342796,2277.0,4417.0,6480.0,0.369,-0.023,-0.321,-0.872
1342812,2247.0,4469.0,6472.0,0.369,-0.022,-0.321,-0.872
1342838,2245.0,4523.0,6512.0,0.368,-0.022,-0.321,-0.872
1342855,2225.0,4483.0,6532.0,0.368,-0.023,-0.321,-0.872
1342872,2313.0,4447.0,6524.0,0.368,-0.023,-0.321,-0.872
1342889,2385.0,4429.0,6564.0,0.368,-0.023,-0.321,-0.872
1342906,2329.0,4489.0,6548.0,0.368,-0.023,-0.321,-0.873
1342922,2273.0,4541.0,6560.0,0.368,-0.023,-0.321,-0.873
1342938,2259.0,4529.0,6484.0,0.368,-0.022,-0.321,-0.873
1342954,2171.0,4539.0,6454.0,0.367,-0.022,-0.321,-0.873
1342981,2189.0,4449.0,6352.0,0.367,-0.022,-0.321,-0.873
1342998,2293.0,4439.0,6394.0,0.367,-0.022,-0.321,-0.873
1343015,2311.0,4511.0,6424.0,0.367,-0.022,-0.321,-0.873
1343031,2277.0,4505.0,6390.0,0.367,-0.022,-0.321,-0.873
1343048,2247.0,4567.0,6418.0,0.367,-0.022,-0.321,-0.873
1343065,2231.0,4431.0,6492.0,0.367,-0.023,-0.321,-0.873
1343082,2275.0,4455.0,6506.0,0.367,-0.023,-0.321,-0.873
1343099,2225.0,4499.0,6496.0,0.367,-0.023,-0.321,-0.873
1343115,2251.0,4563.0,6522.0,0.367,-0.023,-0.321,-0.873
1343132,2271.0,4545.0,6580.0,0.366,-0.024,-0.321,-0.873
1343149,2255.0,4499.0,6538.0,0.366,-0.024,-0.321,-0.873
1343166,2239.0,4495.0,6594.0,0.366,-0.024,-0.321,-0.873
1343193,2261.0,4463.0,6556.0,0.366,-0.024,-0.32,-0.873
1343210,2289.0,4423.0,6540.0,0.366,-0.024,-0.321,-0.873
1343227,2273.0,4435.0,6560.0,0.366,-0.024,-0.321,-0.873
1343244,2299.0,4469.0,6512.0,0.366,-0.024,-0.321,-0.873
1343261,2299.0,4517.0,6484.0,0.366,-0.024,-0.321,-0.874
1343278,2339.0,4413.0,6506.0,0.366,-0.024,-0.32,-0.874
1343295,2327.0,4475.0,6510.0,0.366,-0.024,-0.321,-0.874
1343312,2237.0,4595.0,6472.0,0.365,-0.024,-0.321,-0.874
1343329,2233.0,4541.0,6498.0,0.365,-0.024,-0.321,-0.874
1343346,2297.0,4473.0,6526.0,0.365,-0.024,-0.321,-0.874
1343363,2309.0,4533.0,6516.0,0.365,-0.024,-0.321,-0.874
1343379,2257.0,4475.0,6448.0,0.365,-0.023,-0.321,-0.874
1343396,2257.0,4507.0,6464.0,0.365,-0.023,-0.322,-0.873
1343423,2269.0,4451.0,6482.0,0.365,-0.023,-0.322,-0.873
1343440,2259.0,4491.0,6528.0,0.365,-0.023,-0.322,-0.873
1343457,2279.0,4543.0,6490.0,0.364,-0.023,-0.322,-0.873
1343474,2273.0,4497.0,6518.0,0.364,-0.023,-0.322,-0.873
1343491,2213.0,4509.0,6536.0,0.364,-0.022,-0.322,-0.873
1343507,2217.0,4569.0,6546.0,0.365,-0.022,-0.322,-0.873
1343524,2201.0,4541.0,6456.0,0.365,-0.022,-0.322,-0.873
1343541,2131.0,4521.0,6420.0,0.365,-0.022,-0.322,-0.873
1343558,2241.0,4541.0,6450.0,0.365,-0.022,-0.322,-0.873
1343575,2295.0,4527.0,6448.0,0.364,-0.022,-0.322,-0.874
1343592,2313.0,4613.0,6432.0,0.364,-0.022,-0.322,-0.874
1343609,2249.0,4533.0,6472.0,0.364,-0.022,-0.322,-0.874
1343635,2221.0,4449.0,6444.0,0.364,-0.022,-0.322,-0.874
1343651,2217.0,4455.0,6434.0,0.364,-0.022,-0.322,-0.874
1343668,2203.0,4467.0,6420.0,0.363,-0.022,-0.322,-0.874
1343684,2167.0,4551.0,6480.0,0.363,-0.022,-0.322,-0.874
1343701,2263.0,4597.0,6516.0,0.363,-0.022,-0.322,-0.874
1343717,2307.0,4497.0,6558.0,0.363,-0.023,-0.322,-0.874
1343734,2333.0,4487.0,6542.0,0.363,-0.023,-0.321,-0.874
1343751,2295.0,4453.0,6560.0,0.363,-0.023,-0.321,-0.874
1343768,2147.0,4457.0,6552.0,0.363,-0.022,-0.321,-0.874
1343794,2123.0,4465.0,6430.0,0.363,-0.022,-0.322,-0.874
1343810,2157.0,4481.0,6344.0,0.363,-0.022,-0.322,-0.874
1343826,2241.0,4533.0,6392.0,0.363,-0.022,-0.322,-0.874
1343843,2221.0,4535.0,6442.0,0.363,-0.022,-0.322,-0.874
1343860,2255.0,4493.0,6418.0,0.363,-0.023,-0.321,-0.874
1343877,2331.0,4465.0,6504.0,0.363,-0.023,-0.321,-0.874
1343894,2357.0,4459.0,6564.0,0.363,-0.023,-0.322,-0.874
1343911,2357.0,4581.0,6614.0,0.363,-0.023,-0.322,-0.874
1343928,2323.0,4657.0,6590.0,0.363,-0.023,-0.322,-0.874
1343945,2275.0,4603.0,6536.0,0.363,-0.023,-0.322,-0.874
1343972,2173.0,4563.0,6506.0,0.362,-0.023,-0.321,-0.875
1343988,2043.0,4467.0,6454.0,0.362,-0.023,-0.321,-0.875
1344005,1967.0,4491.0,6410.0,0.362,-0.023,-0.321,-0.875
1344021,1931.0,4471.0,6322.0,0.361,-0.023,-0.321,-0.875
1344038,2069.0,4429.0,6390.0,0.361,-0.023,-0.321,-0.875
1344055,2193.0,4507.0,6476.0,0.361,-0.024,-0.321,-0.875
1344072,2389.0,4443.0,6526.0,0.361,-0.025,-0.321,-0.875
1344088,2479.0,4419.0,6554.0,0.361,-0.025,-0.32,-0.875
1344104,2515.0,4387.0,6672.0,0.361,-0.026,-0.32,-0.876
1344131,2523.0,4351.0,6696.0,0.361,-0.026,-0.32,-0.876
1344148,2489.0,4383.0,6648.0,0.361,-0.025,-0.32,-0.875
1344165,2409.0,4515.0,6614.0,0.361,-0.025,-0.321,-0.875
1344182,2327.0,4553.0,6522.0,0.361,-0.024,-0.321,-0.875
1344199,2207.0,4593.0,6452.0,0.361,-0.024,-0.321,-0.875
1344216,2149.0,4547.0,6406.0,0.361,-0.023,-0.321,-0.875
1344233,2081.0,4471.0,6310.0,0.361,-0.023,-0.321,-0.875
1344250,2035.0,4535.0,6314.0,0.361,-0.023,-0.321,-0.875
1344267,2079.0,4611.0,6388.0,0.361,-0.023,-0.321,-0.875
1344284,2145.0,4581.0,6500.0,0.36,-0.023,-0.321,-0.875
1344301,2193.0,4547.0,6470.0,0.36,-0.024,-0.321,-0.876
1344317,2167.0,4447.0,6518.0,0.36,-0.024,-0.321,-0.876
1344334,2239.0,4465.0,6606.0,0.359,-0.024,-0.321,-0.876
1344361,2251.0,4439.0,6566.0,0.359,-0.024,-0.321,-0.876
1344377,2287.0,4429.0,6522.0,0.359,-0.024,-0.321,-0.876
1344394,2303.0,4485.0,6514.0,0.359,-0.024,-0.321,-0.876
1344411,2309.0,4451.0,6506.0,0.359,-0.024,-0.321,-0.876
1344428,2295.0,4493.0,6428.0,0.358,-0.024,-0.321,-0.876
1344445,2205.0,4543.0,6386.0,0.358,-0.025,-0.321,-0.876
1344462,2211.0,4545.0,6454.0,0.358,-0.025,-0.321,-0.876
1344479,2171.0,4461.0,6502.0,0.358,-0.025,-0.321,-0.876
1344496,2237.0,4485.0,6560.0,0.358,-0.025,-0.321,-0.876
1344513,2167.0,4455.0,6510.0,0.358,-0.025,-0.321,-0.877
1344530,2197.0,4455.0,6496.0,0.357,-0.025,-0.321,-0.877
1344547,2203.0,4521.0,6518.0,0.357,-0.025,-0.321,-0.877
1344574,2189.0,4513.0,6512.0,0.357,-0.025,-0.321,-0.877
1344591,2231.0,4477.0,6470.0,0.357,-0.025,-0.321,-0.877
1344608,2259.0,4503.0,6480.0,0.357,-0.026,-0.321,-0.877
1344625,2249.0,4487.0,6512.0,0.356,-0.026,-0.321,-0.877
1344642,2245.0,4507.0,6522.0,0.356,-0.026,-0.321,-0.877
1344659,2287.0,4489.0,6502.0,0.356,-0.026,-0.321,-0.877
1344676,2283.0,4549.0,6494.0,0.356,-0.026,-0.321,-0.877
1344693,2235.0,4499.0,6494.0,0.356,-0.027,-0.321,-0.877
1344710,2237.0,4455.0,6490.0,0.356,-0.027,-0.321,-0.877
1344727,2223.0,4485.0,6458.0,0.355,-0.027,-0.321,-0.877
1344744,2297.0,4477.0,6540.0,0.355,-0.027,-0.321,-0.877
1344761,2247.0,4509.0,6494.0,0.355,-0.027,-0.321,-0.877
1344778,2255.0,4479.0,6522.0,0.355,-0.027,-0.321,-0.878
1344795,2231.0,4451.0,6542.0,0.355,-0.028,-0.321,-0.878
1344812,2239.0,4423.0,6504.0,0.355,-0.028,-0.321,-0.878
1344839,2291.0,4471.0,6520.0,0.355,-0.028,-0.321,-0.878
1344856,2233.0,4507.0,6468.0,0.355,-0.028,-0.321,-0.878
1344873,2275.0,4523.0,6420.0,0.355,-0.028,-0.321,-0.878
1344890,2265.0,4475.0,6470.0,0.354,-0.029,-0.321,-0.878
1344907,2245.0,4469.0,6502.0,0.354,-0.029,-0.321,-0.878
1344924,2269.0,4469.0,6558.0,0.354,-0.029,-0.321,-0.878
1344941,2347.0,4497.0,6522.0,0.354,-0.029,-0.322,-0.878
1344958,2299.0,4569.0,6552.0,0.354,-0.029,-0.322,-0.878
1344975,2293.0,4525.0,6528.0,0.354,-0.029,-0.321,-0.878
1344992,2317.0,4465.0,6562.0,0.354,-0.029,-0.321,-0.878
1345009,2349.0,4427.0,6586.0,0.354,-0.029,-0.321,-0.878
1345025,2337.0,4479.0,6596.0,0.354,-0.029,-0.321,-0.878
1345042,2343.0,4479.0,6594.0,0.354,-0.029,-0.321,-0.878
1345069,2285.0,4415.0,6518.0,0.354,-0.029,-0.321,-0.878
1345086,2121.0,4443.0,6452.0,0.354,-0.029,-0.321,-0.878
1345103,2113.0,4487.0,6432.0,0.354,-0.029,-0.321,-0.878
1345120,2149.0,4483.0,6444.0,0.354,-0.029,-0.321,-0.878
1345136,2235.0,4507.0,6464.0,0.353,-0.029,-0.321,-0.878
1345152,2357.0,4575.0,6500.0,0.353,-0.029,-0.321,-0.878
1345168,2429.0,4557.0,6532.0,0.353,-0.029,-0.321,-0.878
1345185,2519.0,4507.0,6590.0,0.353,-0.029,-0.321,-0.878
1345202,2437.0,4467.0,6608.0,0.353,-0.029,-0.321,-0.878
1345228,2363.0,4467.0,6536.0,0.353,-0.029,-0.321,-0.878
1345245,2237.0,4469.0,6498.0,0.353,-0.028,-0.322,-0.878
1345262,2173.0,4485.0,6452.0,0.353,-0.028,-0.322,-0.878
1345279,2193.0,4511.0,6358.0,0.353,-0.028,-0.322,-0.878
1345296,2105.0,4591.0,6402.0,0.353,-0.028,-0.322,-0.878
1345313,2171.0,4567.0,6418.0,0.353,-0.028,-0.321,-0.878
1345330,2221.0,4515.0,6512.0,0.353,-0.028,-0.321,-0.878
1345347,2203.0,4505.0,6542.0,0.352,-0.029,-0.321,-0.879
1345364,2231.0,4495.0,6502.0,0.352,-0.029,-0.321,-0.879
1345381,2205.0,4479.0,6454.0,0.352,-0.029,-0.321,-0.879
1345397,2285.0,4491.0,6504.0,0.352,-0.029,-0.321,-0.879
1345414,2287.0,4505.0,6546.0,0.352,-0.029,-0.321,-0.879
1345441,2365.0,4443.0,6540.0,0.352,-0.029,-0.321,-0.879
1345457,2385.0,4423.0,6540.0,0.352,-0.029,-0.321,-0.879
1345474,2351.0,4441.0,6534.0,0.352,-0.029,-0.321,-0.879
1345491,2361.0,4445.0,6576.0,0.352,-0.029,-0.321,-0.879
1345508,2311.0,4535.0,6534.0,0.352,-0.029,-0.321,-0.879
1345525,2227.0,4565.0,6512.0,0.351,-0.029,-0.322,-0.879
1345542,2227.0,4467.0,6448.0,0.351,-0.028,-0.322,-0.879
1345559,2245.0,4341.0,6546.0,0.351,-0.027,-0.324,-0.878
1345576,2253.0,4453.0,6416.0,0.349,-0.026,-0.328,-0.878
1345593,2445.0,4581.0,6542.0,0.347,-0.023,-0.335,-0.876
1345610,2451.0,4227.0,6790.0,0.342,-0.018,-0.347,-0.873
1345627,2293.0,3407.0,6572.0,0.334,-0.009,-0.369,-0.868
1345644,2367.0,2743.0,6144.0,0.319,0.005,-0.405,-0.857
1345670,1423.0,6037.0,3558.0,0.296,0.023,-0.456,-0.839
1345686,1073.0,8461.0,1208.0,0.266,0.043,-0.511,-0.816
1345703,485.0,11313.0,-480.0,0.23,0.063,-0.561,-0.793
1345719,1519.0,13105.0,-518.0,0.198,0.081,-0.599,-0.772
1345735,2325.0,15027.0,820.0,0.173,0.095,-0.62,-0.759
1345761,1393.0,12539.0,2130.0,0.157,0.106,-0.624,-0.758
1345777,871.0,8217.0,2740.0,0.148,0.111,-0.617,-0.765
1345793,735.0,4671.0,3070.0,0.143,0.115,-0.607,-0.773
1345810,509.0,2963.0,3224.0,0.141,0.118,-0.599,-0.779
1345827,205.0,2867.0,3536.0,0.142,0.121,-0.592,-0.784
1345844,-193.0,4397.0,3872.0,0.146,0.123,-0.586,-0.788
1345861,-671.0,6355.0,3948.0,0.154,0.122,-0.575,-0.794
1345877,-1081.0,7477.0,3824.0,0.168,0.116,-0.556,-0.806
1345894,-1249.0,7411.0,3500.0,0.187,0.104,-0.527,-0.823
1345911,-1167.0,6671.0,3128.0,0.21,0.084,-0.489,-0.843
1345938,-1015.0,5599.0,3106.0,0.235,0.059,-0.443,-0.863
1345955,-589.0,4461.0,3760.0,0.261,0.028,-0.394,-0.881
1345971,199.0,3085.0,5250.0,0.288,-0.005,-0.348,-0.892
1345987,1579.0,1551.0,7462.0,0.312,-0.035,-0.312,-0.897
1346004,3457.0,797.0,9146.0,0.334,-0.057,-0.291,-0.895
1346021,4779.0,2641.0,9586.0,0.35,-0.069,-0.286,-0.889
1346038,5653.0,4953.0,9328.0,0.359,-0.071,-0.291,-0.884
1346054,5175.0,6535.0,8444.0,0.362,-0.064,-0.302,-0.88
1346070,4531.0,7061.0,7002.0,0.361,-0.051,-0.316,-0.876
1346096,3957.0,7519.0,6066.0,0.357,-0.035,-0.329,-0.874
1346113,3173.0,7111.0,5310.0,0.351,-0.019,-0.339,-0.872
1346130,2405.0,6633.0,4886.0,0.346,-0.003,-0.348,-0.872
1346147,1673.0,5993.0,4676.0,0.34,0.009,-0.354,-0.871
1346164,1265.0,5471.0,4546.0,0.335,0.018,-0.356,-0.872
1346181,949.0,5013.0,4566.0,0.331,0.024,-0.357,-0.873
1346197,723.0,4669.0,4774.0,0.328,0.025,-0.356,-0.874
1346214,653.0,4445.0,4972.0,0.327,0.023,-0.355,-0.876
1346231,837.0,4491.0,5262.0,0.326,0.018,-0.352,-0.877
1346248,1111.0,4585.0,5740.0,0.326,0.011,-0.348,-0.879
1346265,1403.0,4803.0,6266.0,0.326,0.003,-0.344,-0.88
1346282,1747.0,4893.0,6710.0,0.327,-0.006,-0.34,-0.882
1346299,2021.0,4593.0,7104.0,0.328,-0.014,-0.335,-0.883
1346326,2311.0,4339.0,7298.0,0.329,-0.02,-0.332,-0.884
1346343,2489.0,4243.0,7420.0,0.329,-0.024,-0.33,-0.884
1346360,2477.0,4383.0,7394.0,0.329,-0.025,-0.329,-0.885
1346377,2483.0,4553.0,7306.0,0.329,-0.024,-0.33,-0.884
1346394,2407.0,4659.0,7062.0,0.329,-0.022,-0.332,-0.884
1346411,2325.0,4699.0,6628.0,0.328,-0.019,-0.333,-0.884
1346429,2199.0,4815.0,6322.0,0.328,-0.016,-0.335,-0.883
1346446,2087.0,4831.0,6108.0,0.328,-0.013,-0.336,-0.883
1346463,2041.0,4785.0,5968.0,0.328,-0.011,-0.337,-0.883
1346480,1969.0,4841.0,5872.0,0.329,-0.01,-0.337,-0.882
1346497,1945.0,4933.0,5860.0,0.329,-0.009,-0.337,-0.882
1346514,1895.0,4975.0,5970.0,0.33,-0.01,-0.336,-0.882
1346531,1989.0,4915.0,6152.0,0.33,-0.011,-0.335,-0.882
1346548,1895.0,4921.0,6256.0,0.33,-0.012,-0.335,-0.883
1346565,1915.0,4889.0,6246.0,0.329,-0.013,-0.335,-0.883
1346582,2003.0,5011.0,6322.0,0.328,-0.014,-0.336,-0.883
1346609,2059.0,5135.0,6392.0,0.327,-0.014,-0.337,-0.883
1346626,2025.0,5087.0,6376.0,0.326,-0.014,-0.337,-0.883
1346643,1993.0,4959.0,6434.0,0.325,-0.014,-0.337,-0.883
1346660,1949.0,4871.0,6424.0,0.325,-0.014,-0.337,-0.884
1346677,1963.0,4701.0,6402.0,0.324,-0.014,-0.337,-0.884
1346694,1927.0,4563.0,6380.0,0.324,-0.014,-0.337,-0.884
1346711,1965.0,4611.0,6372.0,0.324,-0.014,-0.336,-0.884
1346727,1987.0,4581.0,6408.0,0.324,-0.014,-0.336,-0.884
1346744,2033.0,4703.0,6440.0,0.324,-0.015,-0.336,-0.884
1346761,2095.0,4743.0,6430.0,0.325,-0.015,-0.336,-0.884
1346778,2103.0,4853.0,6418.0,0.325,-0.015,-0.336,-0.884
1346795,2007.0,4837.0,6378.0,0.325,-0.015,-0.335,-0.884
1346822,2049.0,4859.0,6378.0,0.326,-0.015,-0.335,-0.884
1346839,1993.0,4891.0,6326.0,0.326,-0.015,-0.335,-0.884
1346856,2015.0,4881.0,6278.0,0.326,-0.014,-0.335,-0.884
1346873,1951.0,4935.0,6240.0,0.326,-0.014,-0.336,-0.884
1346889,1917.0,4937.0,6280.0,0.325,-0.014,-0.336,-0.884
1346905,1893.0,4859.0,6288.0,0.325,-0.014,-0.336,-0.884
1346921,2005.0,4827.0,6250.0,0.325,-0.014,-0.336,-0.884
1346937,2015.0,4805.0,6328.0,0.325,-0.015,-0.335,-0.884
1346954,2011.0,4811.0,6366.0,0.325,-0.015,-0.335,-0.884
1346981,2037.0,4743.0,6398.0,0.324,-0.015,-0.335,-0.884
1346997,2089.0,4687.0,6370.0,0.324,-0.015,-0.336,-0.884
1347014,2079.0,4803.0,6356.0,0.324,-0.015,-0.336,-0.884
1347030,1997.0,4853.0,6362.0,0.324,-0.015,-0.336,-0.884
1347047,1939.0,4941.0,6366.0,0.324,-0.015,-0.336,-0.884
1347064,1915.0,4861.0,6352.0,0.324,-0.015,-0.336,-0.884
1347081,2021.0,4893.0,6380.0,0.324,-0.015,-0.336,-0.884
1347098,2077.0,4905.0,6438.0,0.324,-0.015,-0.336,-0.884
1347115,2119.0,4845.0,6466.0,0.324,-0.015,-0.336,-0.884
1347132,2089.0,4713.0,6346.0,0.324,-0.015,-0.336,-0.885
1347149,2037.0,4663.0,6280.0,0.324,-0.015,-0.336,-0.884
1347176,1859.0,4849.0,6234.0,0.324,-0.014,-0.336,-0.884
1347193,1771.0,5003.0,6212.0,0.323,-0.014,-0.336,-0.884
1347210,1755.0,4911.0,6152.0,0.323,-0.015,-0.336,-0.884
1347227,1851.0,4815.0,6258.0,0.323,-0.015,-0.336,-0.885
1347243,1943.0,4813.0,6360.0,0.323,-0.016,-0.335,-0.885
1347260,2077.0,4789.0,6392.0,0.323,-0.017,-0.335,-0.885
1347277,2243.0,4801.0,6406.0,0.323,-0.017,-0.335,-0.885
1347294,2229.0,4823.0,6412.0,0.323,-0.017,-0.335,-0.885
1347311,2233.0,4783.0,6472.0,0.323,-0.017,-0.335,-0.885
1347328,2207.0,4811.0,6428.0,0.323,-0.017,-0.335,-0.885
1347345,2069.0,4811.0,6368.0,0.323,-0.017,-0.335,-0.885
1347362,2017.0,4827.0,6326.0,0.323,-0.016,-0.336,-0.885
1347379,1993.0,4797.0,6324.0,0.323,-0.016,-0.336,-0.885
1347406,1937.0,4811.0,6340.0,0.323,-0.016,-0.336,-0.885
1347423,1935.0,4795.0,6308.0,0.323,-0.016,-0.336,-0.885
1347440,1921.0,4849.0,6312.0,0.322,-0.016,-0.336,-0.885
1347456,1901.0,4861.0,6332.0,0.322,-0.016,-0.336,-0.885
1347472,1953.0,4859.0,6320.0,0.322,-0.017,-0.336,-0.885
1347488,1967.0,4919.0,6296.0,0.322,-0.017,-0.336,-0.885
1347504,2045.0,4835.0,6348.0,0.322,-0.017,-0.335,-0.885
1347521,2059.0,4753.0,6370.0,0.322,-0.017,-0.335,-0.885
1347538,2109.0,4771.0,6396.0,0.321,-0.017,-0.335,-0.885
1347565,2093.0,4705.0,6360.0,0.321,-0.017,-0.336,-0.885
1347581,2153.0,4807.0,6288.0,0.321,-0.017,-0.336,-0.885
1347598,2061.0,4827.0,6318.0,0.321,-0.017,-0.336,-0.885
1347615,1969.0,4915.0,6324.0,0.322,-0.017,-0.335,-0.885
1347632,2023.0,4833.0,6328.0,0.322,-0.017,-0.335,-0.885
1347649,2067.0,4785.0,6472.0,0.322,-0.018,-0.335,-0.885
1347666,2053.0,4731.0,6488.0,0.321,-0.018,-0.335,-0.885
1347682,2051.0,4811.0,6504.0,0.321,-0.017,-0.336,-0.885
1347699,1991.0,4825.0,6412.0,0.321,-0.017,-0.336,-0.885
1347716,1959.0,4845.0,6400.0,0.321,-0.016,-0.336,-0.885
1347742,1955.0,4823.0,6354.0,0.321,-0.016,-0.336,-0.885
1347758,1953.0,4737.0,6304.0,0.321,-0.016,-0.336,-0.885
1347774,1977.0,4681.0,6264.0,0.321,-0.016,-0.336,-0.885
1347791,2035.0,4761.0,6222.0,0.321,-0.015,-0.336,-0.885
1347808,1937.0,4925.0,6236.0,0.321,-0.015,-0.336,-0.885
1347825,1919.0,4991.0,6194.0,0.321,-0.015,-0.337,-0.885
1347842,1913.0,5007.0,6194.0,0.321,-0.016,-0.336,-0.885
1347859,1975.0,4939.0,6272.0,0.32,-0.016,-0.336,-0.885
1347876,2027.0,4889.0,6352.0,0.32,-0.016,-0.336,-0.886
1347893,2067.0,4729.0,6318.0,0.32,-0.016,-0.336,-0.886
1347910,2083.0,4707.0,6300.0,0.32,-0.017,-0.336,-0.886
1347937,2035.0,4791.0,6356.0,0.32,-0.017,-0.336,-0.886
1347954,1917.0,4907.0,6330.0,0.32,-0.017,-0.336,-0.886
1347971,1911.0,4801.0,6306.0,0.32,-0.017,-0.336,-0.886
1347988,1963.0,4743.0,6384.0,0.32,-0.018,-0.336,-0.886
1348005,1995.0,4779.0,6414.0,0.32,-0.018,-0.336,-0.886
1348022,2045.0,4871.0,6472.0,0.32,-0.018,-0.336,-0.886
1348039,2127.0,4809.0,6442.0,0.32,-0.018,-0.336,-0.886
1348055,2201.0,4829.0,6436.0,0.32,-0.018,-0.336,-0.886
1348072,2103.0,4773.0,6372.0,0.32,-0.018,-0.336,-0.886
1348089,2037.0,4699.0,6362.0,0.32,-0.018,-0.336,-0.886
1348106,1925.0,4659.0,6272.0,0.32,-0.018,-0.336,-0.885
1348123,1797.0,4671.0,6182.0,0.321,-0.018,-0.337,-0.885
1348140,1889.0,4677.0,6198.0,0.321,-0.018,-0.338,-0.884
1348167,1923.0,4789.0,6184.0,0.322,-0.018,-0.339,-0.884
1348183,2129.0,5193.0,6116.0,0.322,-0.018,-0.341,-0.883
1348199,2301.0,5335.0,6298.0,0.321,-0.019,-0.343,-0.883
1348216,2219.0,5323.0,6314.0,0.321,-0.019,-0.343,-0.883
1348232,2179.0,4957.0,6420.0,0.321,-0.019,-0.342,-0.883
1348249,2183.0,4743.0,6460.0,0.321,-0.019,-0.341,-0.883
1348266,2107.0,4489.0,6380.0,0.321,-0.019,-0.341,-0.884
1348282,2079.0,4629.0,6372.0,0.321,-0.018,-0.341,-0.884
1348299,2007.0,4805.0,6342.0,0.32,-0.018,-0.341,-0.884
1348326,2037.0,4803.0,6308.0,0.32,-0.018,-0.341,-0.884
1348343,2025.0,4765.0,6258.0,0.32,-0.018,-0.341,-0.883
1348361,2023.0,4887.0,6236.0,0.321,-0.017,-0.341,-0.883
1348378,1969.0,4945.0,6258.0,0.321,-0.017,-0.341,-0.883
1348395,1923.0,5027.0,6182.0,0.321,-0.017,-0.341,-0.883
1348413,2007.0,4935.0,6202.0,0.321,-0.017,-0.341,-0.883
1348430,1989.0,4959.0,6186.0,0.321,-0.017,-0.342,-0.883
1348448,1941.0,4979.0,6136.0,0.321,-0.017,-0.342,-0.883
1348465,2027.0,5009.0,6198.0,0.321,-0.017,-0.342,-0.883
1348482,2113.0,4981.0,6148.0,0.32,-0.017,-0.342,-0.883
1348498,2119.0,4951.0,6264.0,0.32,-0.017,-0.342,-0.883
1348515,2161.0,4891.0,6308.0,0.32,-0.018,-0.341,-0.884
1348531,2147.0,4725.0,6376.0,0.32,-0.018,-0.341,-0.884
1348547,2127.0,4647.0,6338.0,0.32,-0.018,-0.341,-0.884
1348574,1987.0,4705.0,6400.0,0.32,-0.018,-0.341,-0.884
1348590,2079.0,4839.0,6360.0,0.32,-0.018,-0.341,-0.884
1348606,1987.0,4909.0,6352.0,0.319,-0.018,-0.342,-0.884
1348623,2003.0,4895.0,6340.0,0.319,-0.018,-0.342,-0.884
1348640,2011.0,4861.0,6314.0,0.319,-0.018,-0.341,-0.884
1348656,2003.0,4803.0,6314.0,0.32,-0.018,-0.341,-0.884
1348672,1971.0,4811.0,6232.0,0.32,-0.018,-0.341,-0.884
1348689,2061.0,4955.0,6252.0,0.319,-0.018,-0.342,-0.884
1348716,2067.0,5027.0,6228.0,0.319,-0.018,-0.342,-0.884
1348732,2117.0,4895.0,6270.0,0.319,-0.018,-0.342,-0.884
1348749,2117.0,4853.0,6240.0,0.319,-0.018,-0.342,-0.884
1348766,1991.0,4805.0,6208.0,0.319,-0.018,-0.343,-0.883
1348782,2079.0,4957.0,6236.0,0.319,-0.018,-0.343,-0.883
1348798,2013.0,4885.0,6304.0,0.319,-0.018,-0.343,-0.883
1348815,2081.0,4865.0,6238.0,0.319,-0.019,-0.343,-0.883
1348832,2015.0,4847.0,6228.0,0.319,-0.019,-0.344,-0.883
1348849,2059.0,4971.0,6222.0,0.319,-0.019,-0.344,-0.883
1348875,2061.0,4933.0,6206.0,0.319,-0.019,-0.344,-0.883
1348892,2155.0,4905.0,6280.0,0.319,-0.019,-0.344,-0.883
1348909,2091.0,4915.0,6260.0,0.319,-0.019,-0.344,-0.883
1348926,2165.0,4957.0,6286.0,0.319,-0.019,-0.344,-0.883
1348944,2149.0,4959.0,6286.0,0.319,-0.019,-0.344,-0.883
1348961,2047.0,4799.0,6320.0,0.319,-0.019,-0.343,-0.883
1348977,2081.0,4691.0,6326.0,0.319,-0.019,-0.343,-0.883
1348993,2047.0,4753.0,6294.0,0.319,-0.019,-0.344,-0.883
1349009,2079.0,4815.0,6268.0,0.319,-0.019,-0.344,-0.883
1349026,2081.0,5025.0,6246.0,0.319,-0.019,-0.345,-0.883
1349052,2099.0,5167.0,6182.0,0.319,-0.019,-0.345,-0.883
1349069,2073.0,5113.0,6216.0,0.319,-0.019,-0.344,-0.883
1349086,2079.0,4989.0,6288.0,0.318,-0.019,-0.343,-0.883
1349103,2097.0,4753.0,6280.0,0.318,-0.019,-0.342,-0.884
1349119,1969.0,4615.0,6304.0,0.318,-0.019,-0.342,-0.884
1349136,2127.0,4665.0,6312.0,0.318,-0.019,-0.342,-0.884
1349153,2123.0,4839.0,6248.0,0.318,-0.019,-0.342,-0.884
1349170,2175.0,4955.0,6220.0,0.318,-0.019,-0.342,-0.884
1349187,2187.0,5029.0,6216.0,0.318,-0.019,-0.342,-0.884
1349204,2077.0,5083.0,6224.0,0.318,-0.019,-0.341,-0.884
1349220,2037.0,4995.0,6210.0,0.318,-0.019,-0.341,-0.885
1349247,2021.0,4871.0,6266.0,0.318,-0.019,-0.34,-0.885
1349264,1893.0,4805.0,6278.0,0.318,-0.02,-0.339,-0.885
1349281,1827.0,4733.0,6416.0,0.318,-0.02,-0.339,-0.885
1349298,1865.0,4775.0,6414.0,0.318,-0.02,-0.338,-0.885
1349315,1937.0,4709.0,6510.0,0.318,-0.02,-0.338,-0.885
1349331,2087.0,4823.0,6456.0,0.318,-0.02,-0.339,-0.885
1349347,2219.0,4945.0,6420.0,0.318,-0.02,-0.339,-0.885
1349364,2223.0,4785.0,6404.0,0.318,-0.02,-0.34,-0.885
1349381,2261.0,4527.0,6282.0,0.318,-0.02,-0.34,-0.885
1349398,2229.0,4847.0,6158.0,0.317,-0.019,-0.342,-0.884
1349415,2093.0,5141.0,6184.0,0.317,-0.019,-0.343,-0.884
1349432,2051.0,5065.0,6204.0,0.317,-0.019,-0.343,-0.884
1349458,1951.0,4869.0,6198.0,0.317,-0.019,-0.342,-0.884
1349474,1979.0,4813.0,6230.0,0.317,-0.019,-0.342,-0.885
1349491,1965.0,4865.0,6286.0,0.317,-0.019,-0.341,-0.885
1349507,1963.0,4809.0,6350.0,0.317,-0.02,-0.341,-0.885
1349524,2013.0,4863.0,6392.0,0.317,-0.02,-0.34,-0.885
1349541,2031.0,4843.0,6398.0,0.316,-0.02,-0.34,-0.885
1349558,2093.0,4829.0,6394.0,0.316,-0.019,-0.34,-0.885
1349575,2099.0,4825.0,6380.0,0.316,-0.019,-0.34,-0.886
1349592,2083.0,4763.0,6260.0,0.316,-0.019,-0.34,-0.886
1349609,2047.0,4849.0,6222.0,0.316,-0.019,-0.34,-0.886
1349636,2037.0,4817.0,6258.0,0.316,-0.019,-0.34,-0.886
1349652,2055.0,4785.0,6206.0,0.316,-0.019,-0.34,-0.886
1349668,2033.0,4821.0,6166.0,0.316,-0.019,-0.34,-0.886
1349684,2065.0,4941.0,6160.0,0.316,-0.019,-0.34,-0.885
1349700,2015.0,5147.0,6252.0,0.316,-0.019,-0.34,-0.885
1349716,2007.0,5149.0,6336.0,0.316,-0.019,-0.34,-0.886
1349733,1901.0,4943.0,6288.0,0.316,-0.019,-0.339,-0.886
1349760,1939.0,4805.0,6320.0,0.315,-0.019,-0.338,-0.886
1349777,2051.0,4607.0,6474.0,0.315,-0.02,-0.338,-0.887
1349794,2115.0,4565.0,6428.0,0.315,-0.02,-0.338,-0.887
1349811,2089.0,4697.0,6372.0,0.315,-0.019,-0.339,-0.887
1349827,2017.0,4985.0,6272.0,0.314,-0.019,-0.339,-0.886
1349844,2039.0,5029.0,6278.0,0.314,-0.02,-0.339,-0.887
1349861,1973.0,4913.0,6314.0,0.314,-0.02,-0.339,-0.887
1349878,2059.0,4781.0,6344.0,0.314,-0.02,-0.338,-0.887
1349895,2027.0,4795.0,6356.0,0.314,-0.02,-0.338,-0.887
1349912,2095.0,4759.0,6346.0,0.314,-0.02,-0.338,-0.887
1349929,1927.0,4795.0,6218.0,0.313,-0.02,-0.339,-0.887
1349946,1993.0,4977.0,6236.0,0.313,-0.02,-0.339,-0.887
1349972,2039.0,4885.0,6256.0,0.313,-0.02,-0.339,-0.887
1349989,2075.0,4901.0,6316.0,0.313,-0.021,-0.338,-0.887
1350006,2067.0,4739.0,6352.0,0.313,-0.021,-0.338,-0.887
1350022,2079.0,4703.0,6334.0,0.313,-0.021,-0.338,-0.887
1350039,2049.0,4771.0,6340.0,0.313,-0.021,-0.338,-0.887
1350055,2017.0,4851.0,6338.0,0.313,-0.021,-0.338,-0.887
1350071,2067.0,4919.0,6356.0,0.313,-0.021,-0.338,-0.887
1350087,2085.0,4797.0,6352.0,0.312,-0.021,-0.338,-0.887
1350113,2023.0,4763.0,6318.0,0.312,-0.021,-0.338,-0.888
1350130,1993.0,4801.0,6350.0,0.312,-0.021,-0.338,-0.888
1350147,2011.0,4839.0,6324.0,0.312,-0.021,-0.338,-0.888
1350163,2037.0,4843.0,6328.0,0.312,-0.021,-0.338,-0.888
1350180,2085.0,4797.0,6380.0,0.312,-0.021,-0.338,-0.888
1350196,2143.0,4809.0,6352.0,0.312,-0.021,-0.338,-0.888
1350212,2063.0,4789.0,6386.0,0.312,-0.021,-0.338,-0.888
1350229,2059.0,4841.0,6340.0,0.312,-0.021,-0.338,-0.888
1350256,1947.0,4841.0,6276.0,0.312,-0.021,-0.338,-0.888
1350273,1965.0,4883.0,6290.0,0.312,-0.021,-0.338,-0.888
1350290,1959.0,4841.0,6328.0,0.312,-0.021,-0.338,-0.888
1350307,2025.0,4841.0,6342.0,0.312,-0.021,-0.338,-0.888
1350323,2085.0,4881.0,6352.0,0.312,-0.021,-0.338,-0.888
1350339,2061.0,4865.0,6288.0,0.312,-0.021,-0.338,-0.888
1350356,2033.0,4761.0,6322.0,0.312,-0.02,-0.338,-0.888
1350372,1969.0,4835.0,6286.0,0.311,-0.02,-0.339,-0.888
1350388,1927.0,4801.0,6242.0,0.311,-0.02,-0.339,-0.887
1350415,1959.0,4975.0,6252.0,0.311,-0.02,-0.34,-0.887
1350431,1993.0,4969.0,6322.0,0.311,-0.02,-0.34,-0.887
1350450,2069.0,4897.0,6296.0,0.311,-0.02,-0.339,-0.887
1350467,2143.0,4795.0,6340.0,0.311,-0.021,-0.339,-0.887
1350483,2141.0,4795.0,6330.0,0.311,-0.021,-0.339,-0.887
1350499,2061.0,4865.0,6310.0,0.311,-0.02,-0.339,-0.887
1350515,2021.0,4881.0,6316.0,0.311,-0.02,-0.339,-0.887
1350531,2005.0,4817.0,6258.0,0.312,-0.02,-0.339,-0.887
1350548,1977.0,4801.0,6296.0,0.312,-0.02,-0.339,-0.887
1350565,2017.0,4707.0,6352.0,0.312,-0.02,-0.339,-0.887
1350591,2077.0,4809.0,6404.0,0.312,-0.02,-0.339,-0.887
1350608,1989.0,4671.0,6302.0,0.313,-0.02,-0.34,-0.887
1350625,2029.0,5167.0,6224.0,0.312,-0.02,-0.341,-0.886
1350642,2107.0,5199.0,6252.0,0.312,-0.02,-0.342,-0.886
1350659,2007.0,5047.0,6254.0,0.312,-0.02,-0.341,-0.886
1350675,1919.0,4819.0,6312.0,0.312,-0.02,-0.34,-0.887
1350692,1887.0,4701.0,6320.0,0.312,-0.021,-0.34,-0.887
1350709,1965.0,4591.0,6322.0,0.313,-0.021,-0.34,-0.887
1350726,2027.0,4795.0,6270.0,0.313,-0.022,-0.34,-0.886
1350744,2003.0,4951.0,6248.0,0.313,-0.021,-0.341,-0.886
1350760,2105.0,5159.0,6276.0,0.313,-0.021,-0.342,-0.886
1350787,2071.0,5059.0,6320.0,0.313,-0.022,-0.342,-0.886
1350804,2123.0,4915.0,6286.0,0.313,-0.022,-0.341,-0.886
1350821,2095.0,4713.0,6332.0,0.313,-0.022,-0.341,-0.886
1350838,2133.0,4773.0,6386.0,0.313,-0.022,-0.34,-0.886
1350854,2143.0,4881.0,6400.0,0.313,-0.022,-0.341,-0.886
1350871,2081.0,4835.0,6356.0,0.313,-0.022,-0.341,-0.886
1350887,2167.0,4853.0,6416.0,0.312,-0.022,-0.341,-0.887
1350903,2085.0,4781.0,6338.0,0.312,-0.021,-0.34,-0.887
1350919,1959.0,4739.0,6360.0,0.312,-0.021,-0.34,-0.887
1350945,2009.0,4745.0,6328.0,0.312,-0.021,-0.34,-0.887
1350962,1941.0,4807.0,6304.0,0.312,-0.021,-0.34,-0.887
1350979,2005.0,4869.0,6260.0,0.313,-0.021,-0.34,-0.887
1350996,2033.0,4901.0,6296.0,0.313,-0.021,-0.34,-0.887
1351012,2075.0,4955.0,6250.0,0.313,-0.021,-0.34,-0.887
1351029,2053.0,4839.0,6276.0,0.313,-0.021,-0.34,-0.887
1351046,2045.0,4921.0,6256.0,0.313,-0.021,-0.341,-0.887
1351063,1981.0,4905.0,6262.0,0.312,-0.021,-0.341,-0.887
1351080,1981.0,4905.0,6208.0,0.312,-0.021,-0.341,-0.887
1351097,1985.0,4885.0,6156.0,0.312,-0.021,-0.341,-0.887
1351114,2009.0,4991.0,6208.0,0.312,-0.021,-0.341,-0.887
1351141,1977.0,4997.0,6208.0,0.311,-0.021,-0.341,-0.887
1351158,2023.0,4963.0,6280.0,0.311,-0.021,-0.34,-0.887
1351175,1999.0,4843.0,6302.0,0.311,-0.022,-0.34,-0.887
1351192,2057.0,4825.0,6400.0,0.311,-0.022,-0.339,-0.888
1351209,2099.0,4833.0,6414.0,0.31,-0.023,-0.339,-0.888
1351226,1935.0,4825.0,6386.0,0.31,-0.023,-0.339,-0.888
1351243,1821.0,4707.0,6402.0,0.31,-0.023,-0.339,-0.888
1351260,1885.0,4631.0,6236.0,0.31,-0.024,-0.341,-0.887
1351277,2127.0,4879.0,6168.0,0.31,-0.025,-0.342,-0.887
1351294,2083.0,5373.0,6102.0,0.309,-0.025,-0.345,-0.886
1351311,2357.0,5803.0,6502.0,0.309,-0.026,-0.345,-0.886
1351328,1973.0,5185.0,6376.0,0.309,-0.027,-0.345,-0.886
1351345,2423.0,4915.0,6390.0,0.308,-0.028,-0.345,-0.886
1351362,2145.0,4645.0,6204.0,0.308,-0.028,-0.345,-0.886
1351388,2213.0,4765.0,6214.0,0.308,-0.028,-0.345,-0.886
1351405,2121.0,4705.0,6064.0,0.308,-0.027,-0.344,-0.887
1351422,2127.0,4629.0,6094.0,0.307,-0.027,-0.344,-0.887
1351439,2169.0,4599.0,6066.0,0.307,-0.027,-0.344,-0.887
1351455,2171.0,4553.0,6064.0,0.307,-0.027,-0.343,-0.887
1351471,2205.0,4589.0,6180.0,0.307,-0.027,-0.343,-0.887
1351488,2165.0,4693.0,6408.0,0.307,-0.028,-0.343,-0.887
1351505,2293.0,4841.0,6400.0,0.308,-0.029,-0.343,-0.887
1351521,2259.0,4959.0,6348.0,0.308,-0.03,-0.343,-0.887
1351548,2439.0,4935.0,6450.0,0.308,-0.03,-0.343,-0.887
1351564,2349.0,4951.0,6434.0,0.308,-0.03,-0.343,-0.887
1351581,2171.0,4959.0,6416.0,0.308,-0.03,-0.343,-0.887
1351597,2015.0,4861.0,6294.0,0.308,-0.029,-0.343,-0.887
1351614,1829.0,4939.0,6188.0,0.308,-0.029,-0.343,-0.887
1351631,1849.0,4929.0,6198.0,0.308,-0.029,-0.343,-0.887
1351647,2049.0,4831.0,6136.0,0.308,-0.029,-0.343,-0.887
1351664,2051.0,4781.0,6138.0,0.308,-0.03,-0.343,-0.887
1351681,2115.0,5047.0,6238.0,0.308,-0.03,-0.344,-0.887
1351698,2265.0,5091.0,6302.0,0.308,-0.031,-0.344,-0.886
1351724,2325.0,4971.0,6272.0,0.309,-0.032,-0.344,-0.886
1351741,2319.0,4897.0,6334.0,0.309,-0.033,-0.345,-0.886
1351758,2395.0,4711.0,6190.0,0.309,-0.033,-0.345,-0.886
1351775,2317.0,4869.0,6284.0,0.309,-0.034,-0.346,-0.885
1351792,2163.0,4953.0,6242.0,0.31,-0.034,-0.346,-0.885
1351808,2157.0,5005.0,6238.0,0.31,-0.034,-0.347,-0.884
1351824,2191.0,4891.0,6118.0,0.31,-0.035,-0.347,-0.884
1351840,2253.0,4783.0,6098.0,0.31,-0.036,-0.348,-0.884
1351857,2283.0,4787.0,6064.0,0.31,-0.036,-0.348,-0.884
1351884,2297.0,4835.0,6070.0,0.31,-0.037,-0.348,-0.884
1351901,2283.0,4741.0,6092.0,0.31,-0.037,-0.348,-0.884
1351918,2285.0,4605.0,6222.0,0.31,-0.038,-0.347,-0.884
1351935,2231.0,4777.0,6290.0,0.31,-0.039,-0.347,-0.884
1351951,2287.0,4785.0,6312.0,0.31,-0.039,-0.347,-0.884
1351967,2447.0,4783.0,6290.0,0.31,-0.04,-0.347,-0.884
1351983,2561.0,4767.0,6268.0,0.31,-0.04,-0.346,-0.884
1352000,2525.0,4811.0,6226.0,0.31,-0.04,-0.346,-0.884
1352017,2477.0,4831.0,6236.0,0.31,-0.04,-0.346,-0.885
1352034,2385.0,4807.0,6222.0,0.311,-0.039,-0.345,-0.885
1352060,2391.0,4759.0,6236.0,0.311,-0.039,-0.345,-0.885
1352077,2417.0,4675.0,6130.0,0.311,-0.038,-0.345,-0.885
1352093,2385.0,4623.0,5980.0,0.311,-0.037,-0.345,-0.885
1352110,2329.0,4505.0,5986.0,0.31,-0.035,-0.345,-0.885
1352127,2045.0,4495.0,6158.0,0.31,-0.033,-0.345,-0.885
1352144,1675.0,5135.0,6384.0,0.31,-0.032,-0.345,-0.885
1352161,1937.0,5503.0,6384.0,0.31,-0.033,-0.345,-0.885
1352178,2281.0,5067.0,6236.0,0.311,-0.034,-0.345,-0.885
1352195,2239.0,4663.0,6166.0,0.311,-0.034,-0.345,-0.885
1352212,2259.0,4883.0,6270.0,0.311,-0.034,-0.345,-0.885
1352229,2309.0,5153.0,6244.0,0.311,-0.033,-0.346,-0.885
1352256,2199.0,5359.0,6284.0,0.31,-0.033,-0.346,-0.885
1352273,2301.0,5193.0,6178.0,0.31,-0.033,-0.346,-0.885
1352290,2307.0,4847.0,6140.0,0.31,-0.033,-0.345,-0.885
1352307,2187.0,4691.0,6144.0,0.31,-0.032,-0.345,-0.886
1352324,2243.0,4695.0,6252.0,0.309,-0.032,-0.345,-0.886
1352341,2169.0,4747.0,6388.0,0.309,-0.032,-0.345,-0.886
1352358,2151.0,4865.0,6346.0,0.309,-0.032,-0.344,-0.886
1352374,2261.0,4753.0,6322.0,0.309,-0.032,-0.344,-0.886
1352390,2289.0,4725.0,6268.0,0.309,-0.033,-0.344,-0.886
1352406,2239.0,4715.0,6268.0,0.309,-0.033,-0.344,-0.886
1352432,2259.0,4887.0,6262.0,0.309,-0.032,-0.344,-0.886
1352449,2283.0,4891.0,6226.0,0.309,-0.032,-0.344,-0.886
1352466,2219.0,4829.0,6210.0,0.309,-0.032,-0.344,-0.886
1352483,2197.0,4847.0,6288.0,0.309,-0.032,-0.344,-0.886
1352500,2137.0,4795.0,6260.0,0.309,-0.032,-0.344,-0.886
1352516,2183.0,4853.0,6296.0,0.309,-0.031,-0.344,-0.886
1352532,2187.0,4919.0,6206.0,0.309,-0.031,-0.344,-0.886
1352549,2175.0,4863.0,6194.0,0.309,-0.031,-0.344,-0.886
1352566,2119.0,4917.0,6218.0,0.309,-0.031,-0.344,-0.886
1352592,2183.0,4929.0,6206.0,0.309,-0.031,-0.345,-0.886
1352609,2203.0,4833.0,6132.0,0.309,-0.031,-0.345,-0.886
1352625,2133.0,4903.0,6220.0,0.309,-0.031,-0.345,-0.886
1352642,2181.0,4867.0,6178.0,0.309,-0.03,-0.345,-0.886
1352659,2067.0,4861.0,6224.0,0.309,-0.031,-0.344,-0.886
1352676,2185.0,4837.0,6236.0,0.309,-0.031,-0.344,-0.886
1352693,2179.0,4835.0,6232.0,0.309,-0.031,-0.344,-0.886
1352710,2189.0,4855.0,6340.0,0.309,-0.031,-0.344,-0.886
1352727,2253.0,4799.0,6256.0,0.309,-0.031,-0.344,-0.886
1352744,2185.0,4773.0,6320.0,0.309,-0.031,-0.344,-0.886
1352761,2159.0,4819.0,6288.0,0.309,-0.031,-0.344,-0.886
1352778,2161.0,4817.0,6244.0,0.309,-0.031,-0.344,-0.886
1352795,2171.0,4913.0,6210.0,0.309,-0.031,-0.344,-0.886
1352822,2173.0,4877.0,6234.0,0.309,-0.031,-0.344,-0.886
1352839,2159.0,4865.0,6254.0,0.309,-0.031,-0.344,-0.886
1352855,2135.0,4789.0,6254.0,0.309,-0.031,-0.344,-0.886
1352872,2125.0,4857.0,6244.0,0.308,-0.031,-0.345,-0.886
1352889,2139.0,4957.0,6220.0,0.308,-0.031,-0.345,-0.886
1352906,2111.0,5035.0,6274.0,0.308,-0.031,-0.345,-0.886
1352923,2195.0,4909.0,6278.0,0.308,-0.031,-0.345,-0.886
1352939,2179.0,4859.0,6236.0,0.308,-0.031,-0.344,-0.886
1352956,2225.0,4875.0,6284.0,0.308,-0.031,-0.344,-0.886
1352973,2255.0,4875.0,6268.0,0.308,-0.031,-0.344,-0.886
1352990,2271.0,4877.0,6238.0,0.308,-0.031,-0.344,-0.886
1353016,2267.0,4871.0,6246.0,0.308,-0.031,-0.344,-0.886
1353033,2165.0,4847.0,6222.0,0.308,-0.031,-0.344,-0.886
1353050,2215.0,4851.0,6256.0,0.308,-0.031,-0.344,-0.886
1353067,2187.0,4869.0,6298.0,0.308,-0.031,-0.344,-0.886
1353084,2177.0,4831.0,6294.0,0.308,-0.031,-0.344,-0.886
1353100,2133.0,4839.0,6272.0,0.308,-0.031,-0.344,-0.886
1353116,2113.0,4753.0,6224.0,0.308,-0.031,-0.344,-0.886
1353133,2093.0,4851.0,6158.0,0.308,-0.03,-0.344,-0.886
1353150,2113.0,4955.0,6198.0,0.308,-0.03,-0.344,-0.886
1353167,2177.0,5005.0,6240.0,0.308,-0.03,-0.344,-0.886
1353193,2189.0,4909.0,6302.0,0.308,-0.031,-0.344,-0.886
1353210,2139.0,4809.0,6274.0,0.308,-0.031,-0.344,-0.887
1353227,2211.0,4849.0,6286.0,0.308,-0.031,-0.344,-0.887
1353244,2141.0,4855.0,6288.0,0.308,-0.03,-0.344,-0.887
1353261,2155.0,4839.0,6274.0,0.308,-0.03,-0.344,-0.887
1353278,2193.0,4853.0,6222.0,0.308,-0.03,-0.344,-0.887
1353295,2159.0,4837.0,6256.0,0.307,-0.03,-0.344,-0.887
1353312,2289.0,4847.0,6208.0,0.308,-0.03,-0.344,-0.887
1353329,2159.0,4869.0,6260.0,0.308,-0.03,-0.344,-0.887
1353346,2137.0,4879.0,6250.0,0.308,-0.03,-0.344,-0.887
1353363,2133.0,4879.0,6238.0,0.308,-0.03,-0.344,-0.887
1353380,2159.0,4871.0,6224.0,0.308,-0.03,-0.344,-0.887
1353406,2197.0,4933.0,6288.0,0.307,-0.03,-0.344,-0.887
1353422,2117.0,4925.0,6234.0,0.307,-0.03,-0.344,-0.887
1353439,2113.0,4881.0,6200.0,0.307,-0.03,-0.344,-0.887
1353456,2147.0,4875.0,6234.0,0.307,-0.03,-0.344,-0.887
1353473,2159.0,4831.0,6260.0,0.307,-0.03,-0.344,-0.887
1353490,2193.0,4857.0,6240.0,0.307,-0.03,-0.344,-0.887
1353507,2169.0,4871.0,6232.0,0.307,-0.03,-0.344,-0.887
1353523,2151.0,4841.0,6260.0,0.307,-0.03,-0.344,-0.887
1353540,2175.0,4823.0,6260.0,0.307,-0.03,-0.344,-0.887
1353557,2141.0,4807.0,6260.0,0.307,-0.03,-0.344,-0.887
1353574,2167.0,4907.0,6256.0,0.307,-0.031,-0.343,-0.887
1353601,2129.0,4869.0,6232.0,0.307,-0.031,-0.343,-0.887
1353618,2207.0,4871.0,6298.0,0.307,-0.031,-0.343,-0.887
1353635,2157.0,4791.0,6258.0,0.307,-0.031,-0.343,-0.887
1353652,2119.0,4895.0,6262.0,0.307,-0.03,-0.344,-0.887
1353669,2107.0,4957.0,6256.0,0.307,-0.03,-0.344,-0.887
1353686,2091.0,4911.0,6246.0,0.307,-0.03,-0.344,-0.887
1353703,2151.0,4871.0,6256.0,0.307,-0.03,-0.344,-0.887
1353720,2157.0,4875.0,6244.0,0.306,-0.031,-0.344,-0.887
1353737,2133.0,4899.0,6244.0,0.306,-0.031,-0.344,-0.887
1353753,2149.0,4901.0,6238.0,0.306,-0.031,-0.344,-0.887
1353769,2145.0,4927.0,6230.0,0.306,-0.031,-0.344,-0.887
1353795,2177.0,4841.0,6246.0,0.306,-0.031,-0.344,-0.887
1353812,2155.0,4851.0,6240.0,0.306,-0.031,-0.344,-0.887
1353829,2171.0,4873.0,6262.0,0.306,-0.031,-0.344,-0.887
1353846,2195.0,4903.0,6258.0,0.306,-0.031,-0.344,-0.887
1353863,2209.0,4891.0,6222.0,0.306,-0.032,-0.344,-0.887
1353880,2177.0,4813.0,6256.0,0.306,-0.032,-0.344,-0.887
1353896,2171.0,4817.0,6274.0,0.305,-0.032,-0.344,-0.887
1353913,2135.0,4843.0,6264.0,0.305,-0.032,-0.344,-0.888
1353930,2159.0,4789.0,6264.0,0.305,-0.032,-0.344,-0.888
1353946,2171.0,4805.0,6278.0,0.305,-0.032,-0.344,-0.888
1353972,2149.0,4873.0,6266.0,0.305,-0.032,-0.344,-0.888
1353989,2171.0,4897.0,6276.0,0.305,-0.032,-0.344,-0.888
1354005,2147.0,4909.0,6224.0,0.305,-0.032,-0.344,-0.888
1354021,2199.0,4863.0,6164.0,0.305,-0.032,-0.344,-0.888
1354038,2149.0,4851.0,6226.0,0.305,-0.032,-0.344,-0.888
1354055,2221.0,4909.0,6184.0,0.305,-0.032,-0.344,-0.888
1354072,2149.0,4953.0,6200.0,0.305,-0.032,-0.344,-0.888
1354089,2233.0,4911.0,6288.0,0.305,-0.033,-0.344,-0.888
1354106,2205.0,4871.0,6236.0,0.304,-0.033,-0.344,-0.888
1354123,2179.0,4861.0,6212.0,0.304,-0.033,-0.344,-0.888
1354150,2125.0,4853.0,6202.0,0.304,-0.033,-0.344,-0.888
1354166,2155.0,4789.0,6214.0,0.304,-0.033,-0.344,-0.888
1354183,2213.0,4789.0,6242.0,0.304,-0.033,-0.344,-0.888
1354199,2183.0,4885.0,6230.0,0.304,-0.033,-0.344,-0.888
1354215,2151.0,4927.0,6254.0,0.304,-0.033,-0.344,-0.888
1354231,2149.0,4883.0,6328.0,0.304,-0.033,-0.344,-0.888
1354247,2111.0,4835.0,6280.0,0.303,-0.034,-0.344,-0.888
1354273,2237.0,4755.0,6350.0,0.303,-0.034,-0.344,-0.888
1354289,2271.0,4823.0,6308.0,0.303,-0.034,-0.344,-0.888
1354305,2241.0,4841.0,6296.0,0.303,-0.034,-0.344,-0.888
1354321,2183.0,5029.0,6350.0,0.303,-0.034,-0.344,-0.888
1354337,2013.0,4845.0,6190.0,0.303,-0.034,-0.344,-0.888
1354353,2221.0,4615.0,6116.0,0.303,-0.034,-0.344,-0.888
1354379,2183.0,4711.0,6060.0,0.303,-0.034,-0.345,-0.888
1354396,2153.0,5109.0,6168.0,0.303,-0.034,-0.346,-0.887
1354413,2261.0,5189.0,6200.0,0.302,-0.035,-0.346,-0.887
1354429,2335.0,4937.0,6250.0,0.302,-0.035,-0.346,-0.887
1354446,2299.0,4855.0,6262.0,0.302,-0.036,-0.346,-0.888
1354464,2319.0,4867.0,6310.0,0.302,-0.036,-0.345,-0.888
1354480,2297.0,4839.0,6332.0,0.302,-0.036,-0.345,-0.888
1354496,2299.0,4835.0,6328.0,0.302,-0.036,-0.345,-0.888
1354513,2207.0,4791.0,6314.0,0.302,-0.036,-0.345,-0.888
1354530,2209.0,4789.0,6276.0,0.302,-0.035,-0.345,-0.888
1354556,2175.0,4865.0,6264.0,0.302,-0.035,-0.345,-0.888
1354573,2179.0,4759.0,6228.0,0.302,-0.035,-0.345,-0.888
1354590,2097.0,4901.0,6208.0,0.302,-0.035,-0.345,-0.888
1354607,2155.0,4989.0,6208.0,0.303,-0.035,-0.345,-0.888
1354624,2227.0,4891.0,6202.0,0.303,-0.035,-0.345,-0.888
1354641,2247.0,4841.0,6216.0,0.303,-0.035,-0.345,-0.888
1354658,2241.0,4889.0,6204.0,0.303,-0.035,-0.345,-0.888
1354675,2165.0,4951.0,6256.0,0.302,-0.035,-0.345,-0.888
1354692,2169.0,4959.0,6262.0,0.302,-0.035,-0.345,-0.888
1354709,2179.0,4889.0,6252.0,0.302,-0.035,-0.345,-0.888
1354726,2323.0,4871.0,6262.0,0.302,-0.036,-0.345,-0.888
1354743,2341.0,4831.0,6324.0,0.302,-0.036,-0.345,-0.888
1354760,2367.0,4793.0,6330.0,0.302,-0.035,-0.345,-0.888
1354787,2333.0,4803.0,6286.0,0.302,-0.035,-0.345,-0.888
1354804,2265.0,4769.0,6242.0,0.302,-0.035,-0.345,-0.888
1354821,2193.0,4793.0,6186.0,0.302,-0.034,-0.345,-0.888
1354838,2095.0,4751.0,6190.0,0.302,-0.034,-0.345,-0.888
1354855,2113.0,4781.0,6210.0,0.303,-0.033,-0.345,-0.888
1354872,2075.0,4645.0,6214.0,0.303,-0.033,-0.345,-0.888
1354888,2013.0,4739.0,6248.0,0.303,-0.033,-0.345,-0.888
1354905,2115.0,4915.0,6204.0,0.303,-0.033,-0.345,-0.887
1354922,2245.0,4815.0,6196.0,0.303,-0.033,-0.346,-0.887
1354939,2235.0,4871.0,6164.0,0.304,-0.033,-0.346,-0.887
1354955,2373.0,5169.0,6236.0,0.304,-0.033,-0.346,-0.887
1354982,2299.0,5113.0,6236.0,0.304,-0.033,-0.346,-0.887
1354999,2395.0,5269.0,6184.0,0.304,-0.034,-0.346,-0.887
1355016,2363.0,5193.0,6188.0,0.304,-0.034,-0.346,-0.887
1355033,2341.0,5213.0,6232.0,0.303,-0.034,-0.346,-0.887
1355050,2267.0,5191.0,6204.0,0.303,-0.034,-0.345,-0.888
1355067,2157.0,4989.0,6198.0,0.302,-0.033,-0.344,-0.888
1355083,2157.0,4877.0,6216.0,0.301,-0.033,-0.344,-0.889
1355099,2053.0,4789.0,6272.0,0.3,-0.033,-0.343,-0.889
1355115,2029.0,4741.0,6246.0,0.3,-0.032,-0.343,-0.89
1355132,2111.0,4761.0,6276.0,0.299,-0.032,-0.343,-0.89
1355159,2205.0,4723.0,6338.0,0.299,-0.032,-0.342,-0.89
1355176,2197.0,4671.0,6398.0,0.298,-0.032,-0.341,-0.891
1355193,2149.0,4597.0,6444.0,0.298,-0.032,-0.34,-0.891
1355210,2077.0,4543.0,6440.0,0.298,-0.032,-0.339,-0.892
1355227,1975.0,4443.0,6408.0,0.298,-0.031,-0.339,-0.892
1355244,2093.0,4663.0,6426.0,0.299,-0.031,-0.339,-0.892
1355261,1997.0,4681.0,6346.0,0.299,-0.031,-0.339,-0.891
1355278,2165.0,4909.0,6312.0,0.299,-0.031,-0.339,-0.891
1355295,2067.0,4817.0,6310.0,0.3,-0.031,-0.339,-0.891
1355312,2157.0,4905.0,6330.0,0.3,-0.031,-0.339,-0.891
1355329,2097.0,4955.0,6248.0,0.3,-0.03,-0.339,-0.891
1355346,2043.0,5003.0,6188.0,0.3,-0.03,-0.339,-0.891
1355362,2007.0,5045.0,6142.0,0.3,-0.03,-0.339,-0.891
1355389,2027.0,4921.0,6154.0,0.3,-0.03,-0.34,-0.891
1355406,2037.0,4945.0,6166.0,0.3,-0.03,-0.34,-0.891
1355423,2063.0,4933.0,6224.0,0.299,-0.03,-0.34,-0.891
1355440,2051.0,4811.0,6256.0,0.299,-0.03,-0.34,-0.891
1355457,2065.0,4685.0,6238.0,0.299,-0.031,-0.34,-0.891
1355474,2107.0,4697.0,6262.0,0.299,-0.031,-0.34,-0.891
1355490,2169.0,4697.0,6352.0,0.299,-0.032,-0.34,-0.891
1355507,2239.0,4787.0,6422.0,0.299,-0.032,-0.34,-0.891
1355523,2137.0,4829.0,6296.0,0.3,-0.033,-0.34,-0.891
1355539,2047.0,4761.0,6148.0,0.299,-0.034,-0.342,-0.89
1355566,2073.0,4759.0,6006.0,0.299,-0.035,-0.343,-0.89
1355583,2193.0,5219.0,6086.0,0.299,-0.036,-0.344,-0.889
1355599,2153.0,5235.0,6102.0,0.298,-0.037,-0.345,-0.889
1355615,2237.0,5059.0,6182.0,0.298,-0.038,-0.345,-0.889
1355631,2249.0,4907.0,6214.0,0.297,-0.039,-0.344,-0.89
1355647,2137.0,4789.0,6304.0,0.297,-0.041,-0.344,-0.89
1355663,1961.0,4677.0,6284.0,0.296,-0.042,-0.345,-0.89
1355689,2207.0,4577.0,6126.0,0.296,-0.044,-0.346,-0.889
1355705,2263.0,4697.0,6016.0,0.295,-0.045,-0.347,-0.889
1355721,2427.0,5057.0,6038.0,0.295,-0.047,-0.348,-0.889
1355738,2467.0,5033.0,6204.0,0.294,-0.048,-0.348,-0.889
1355755,2489.0,5021.0,6260.0,0.294,-0.05,-0.348,-0.889
1355772,2419.0,4839.0,6310.0,0.294,-0.052,-0.347,-0.889
1355788,2469.0,4751.0,6358.0,0.294,-0.054,-0.347,-0.889
1355805,2387.0,4563.0,6282.0,0.294,-0.056,-0.347,-0.889
1355822,2497.0,4701.0,6156.0,0.293,-0.058,-0.348,-0.888
1355849,2387.0,4747.0,6022.0,0.293,-0.061,-0.35,-0.888
1355865,2353.0,4951.0,5956.0,0.293,-0.064,-0.351,-0.887
1355881,2607.0,4949.0,5846.0,0.292,-0.067,-0.352,-0.887
1355898,2697.0,4905.0,5816.0,0.292,-0.07,-0.353,-0.886
1355915,2801.0,5037.0,5954.0,0.292,-0.074,-0.353,-0.886
1355932,2789.0,4879.0,6180.0,0.292,-0.077,-0.352,-0.886
1355948,2779.0,4725.0,6354.0,0.292,-0.08,-0.351,-0.886
1355964,2783.0,4529.0,6280.0,0.292,-0.083,-0.352,-0.886
1355990,2947.0,4533.0,6062.0,0.292,-0.086,-0.353,-0.885
1356006,3131.0,4627.0,5938.0,0.292,-0.089,-0.354,-0.884
1356023,3141.0,4753.0,5994.0,0.291,-0.091,-0.354,-0.884
1356040,3111.0,4787.0,6104.0,0.291,-0.093,-0.354,-0.884
1356057,3163.0,4805.0,6180.0,0.291,-0.095,-0.353,-0.884
1356074,3193.0,4623.0,6214.0,0.291,-0.096,-0.352,-0.884
1356091,3213.0,4445.0,6216.0,0.291,-0.097,-0.351,-0.885
1356108,3271.0,4481.0,6322.0,0.291,-0.098,-0.35,-0.885
1356124,3125.0,4603.0,6386.0,0.291,-0.098,-0.35,-0.885
1356150,3001.0,4419.0,6250.0,0.291,-0.098,-0.35,-0.885
1356166,3091.0,4443.0,6098.0,0.291,-0.099,-0.35,-0.885
1356182,3045.0,4639.0,5946.0,0.291,-0.099,-0.351,-0.885
1356199,3145.0,4711.0,5934.0,0.291,-0.1,-0.351,-0.884
1356216,3203.0,4631.0,5866.0,0.291,-0.1,-0.351,-0.884
1356233,3317.0,4783.0,6026.0,0.291,-0.1,-0.351,-0.884
1356249,3153.0,4795.0,6216.0,0.291,-0.1,-0.35,-0.885
1356265,2943.0,4465.0,6106.0,0.291,-0.1,-0.35,-0.885
1356291,3019.0,4453.0,6038.0,0.292,-0.1,-0.35,-0.885
1356308,3103.0,4617.0,5920.0,0.292,-0.101,-0.35,-0.884
1356325,3123.0,4765.0,5936.0,0.292,-0.101,-0.351,-0.884
1356342,3069.0,4705.0,5960.0,0.292,-0.101,-0.35,-0.884
1356359,3135.0,4529.0,6096.0,0.292,-0.102,-0.35,-0.884
1356376,3203.0,4491.0,6032.0,0.292,-0.103,-0.35,-0.884
1356393,3197.0,4617.0,5748.0,0.292,-0.103,-0.351,-0.884
1356410,3233.0,4621.0,6012.0,0.292,-0.103,-0.351,-0.884
1356427,3229.0,4651.0,6020.0,0.291,-0.103,-0.351,-0.884
1356444,3185.0,4723.0,6230.0,0.292,-0.103,-0.351,-0.884
1356461,3033.0,4571.0,6168.0,0.292,-0.103,-0.351,-0.884
1356478,3089.0,4355.0,6100.0,0.292,-0.104,-0.351,-0.884
1356495,2867.0,4799.0,6054.0,0.292,-0.105,-0.352,-0.883
1356522,3113.0,5039.0,6082.0,0.292,-0.106,-0.353,-0.882
1356539,3271.0,4787.0,6144.0,0.292,-0.107,-0.354,-0.882
1356556,3447.0,4807.0,5994.0,0.292,-0.107,-0.355,-0.882
1356572,3285.0,4543.0,5950.0,0.293,-0.107,-0.354,-0.882
1356589,3323.0,4433.0,5932.0,0.293,-0.106,-0.354,-0.882
1356606,3353.0,4383.0,5854.0,0.293,-0.106,-0.354,-0.882
1356623,3213.0,4315.0,5854.0,0.293,-0.105,-0.353,-0.882
1356640,3293.0,4437.0,5838.0,0.293,-0.103,-0.353,-0.883
1356657,3541.0,4151.0,5788.0,0.293,-0.101,-0.352,-0.883
1356674,3415.0,4251.0,5834.0,0.293,-0.098,-0.351,-0.884
1356691,3205.0,4571.0,6182.0,0.293,-0.094,-0.349,-0.885
1356708,3081.0,4863.0,6560.0,0.294,-0.089,-0.347,-0.886
1356725,2963.0,4621.0,6628.0,0.294,-0.086,-0.344,-0.888
1356752,3053.0,4655.0,6766.0,0.293,-0.082,-0.341,-0.889
1356769,2661.0,4409.0,6742.0,0.294,-0.079,-0.339,-0.89
1356785,2645.0,4609.0,6678.0,0.295,-0.076,-0.337,-0.891
1356801,2783.0,4565.0,6418.0,0.295,-0.073,-0.336,-0.891
1356818,2679.0,4399.0,6286.0,0.296,-0.069,-0.336,-0.892
1356834,2547.0,4407.0,6116.0,0.296,-0.066,-0.337,-0.891
1356850,2477.0,4725.0,6050.0,0.296,-0.062,-0.338,-0.891
1356867,2467.0,4929.0,5936.0,0.296,-0.059,-0.339,-0.891
1356884,2373.0,4951.0,5842.0,0.296,-0.056,-0.339,-0.891
1356911,2357.0,4995.0,5856.0,0.296,-0.055,-0.339,-0.891
1356927,2331.0,4881.0,5916.0,0.296,-0.054,-0.339,-0.892
1356944,2389.0,4919.0,6008.0,0.296,-0.053,-0.338,-0.892
1356961,2311.0,4875.0,6102.0,0.296,-0.053,-0.337,-0.892
1356978,2407.0,4761.0,6178.0,0.296,-0.053,-0.336,-0.893
1356995,2391.0,4525.0,6294.0,0.296,-0.053,-0.335,-0.893
1357011,2333.0,4609.0,6342.0,0.295,-0.053,-0.335,-0.893
1357028,2409.0,4687.0,6416.0,0.295,-0.053,-0.335,-0.893
1357045,2373.0,4793.0,6378.0,0.294,-0.053,-0.335,-0.893
1357061,2365.0,4837.0,6466.0,0.294,-0.052,-0.335,-0.894
1357088,2349.0,4681.0,6450.0,0.294,-0.052,-0.334,-0.894
1357105,2325.0,4499.0,6406.0,0.294,-0.051,-0.334,-0.894
1357122,2339.0,4573.0,6316.0,0.294,-0.051,-0.334,-0.894
1357139,2397.0,4559.0,6370.0,0.293,-0.05,-0.334,-0.894
1357156,2313.0,4605.0,6344.0,0.293,-0.05,-0.334,-0.895
1357173,2311.0,4637.0,6376.0,0.293,-0.049,-0.334,-0.895
1357190,2425.0,4623.0,6336.0,0.293,-0.049,-0.333,-0.895
1357207,2357.0,4675.0,6278.0,0.294,-0.049,-0.333,-0.895
1357224,2305.0,4713.0,6278.0,0.294,-0.049,-0.333,-0.895
1357241,2287.0,4741.0,6268.0,0.294,-0.048,-0.333,-0.895
1357258,2249.0,4699.0,6204.0,0.294,-0.048,-0.333,-0.895
1357275,2221.0,4737.0,6266.0,0.293,-0.048,-0.333,-0.895
1357292,2327.0,4827.0,6298.0,0.293,-0.048,-0.334,-0.895
1357309,2307.0,4811.0,6314.0,0.293,-0.048,-0.333,-0.895
1357336,2285.0,4809.0,6276.0,0.293,-0.048,-0.333,-0.895
1357353,2297.0,4669.0,6350.0,0.293,-0.049,-0.333,-0.895
1357370,2291.0,4513.0,6328.0,0.293,-0.049,-0.332,-0.895
1357387,2317.0,4517.0,6404.0,0.293,-0.049,-0.332,-0.895
1357404,2325.0,4615.0,6420.0,0.293,-0.049,-0.332,-0.895
1357421,2309.0,4653.0,6398.0,0.293,-0.049,-0.332,-0.895
1357438,2327.0,4637.0,6392.0,0.293,-0.049,-0.332,-0.895
1357455,2291.0,4733.0,6362.0,0.293,-0.049,-0.331,-0.895
1357472,2279.0,4753.0,6358.0,0.293,-0.05,-0.331,-0.896
1357488,2287.0,4761.0,6350.0,0.293,-0.05,-0.331,-0.896
1357504,2275.0,4739.0,6344.0,0.293,-0.05,-0.331,-0.896
1357530,2327.0,4637.0,6340.0,0.293,-0.05,-0.331,-0.896
1357547,2311.0,4657.0,6346.0,0.292,-0.05,-0.331,-0.896
1357564,2349.0,4651.0,6364.0,0.292,-0.05,-0.331,-0.896
1357580,2349.0,4609.0,6436.0,0.292,-0.05,-0.331,-0.896
1357596,2399.0,4583.0,6388.0,0.291,-0.051,-0.331,-0.896
1357612,2435.0,4547.0,6454.0,0.291,-0.051,-0.33,-0.896
1357628,2437.0,4479.0,6516.0,0.291,-0.051,-0.33,-0.897
1357654,2427.0,4493.0,6528.0,0.291,-0.051,-0.33,-0.897
1357671,2415.0,4493.0,6516.0,0.291,-0.051,-0.329,-0.897
1357688,2397.0,4565.0,6510.0,0.291,-0.051,-0.329,-0.897
1357705,2301.0,4655.0,6412.0,0.292,-0.051,-0.329,-0.897
1357721,2257.0,4711.0,6400.0,0.292,-0.051,-0.329,-0.897
1357738,2273.0,4709.0,6336.0,0.292,-0.051,-0.33,-0.897
1357754,2215.0,4719.0,6322.0,0.291,-0.05,-0.33,-0.897
1357771,2281.0,4729.0,6276.0,0.291,-0.05,-0.33,-0.897
1357788,2325.0,4663.0,6314.0,0.291,-0.05,-0.33,-0.897
1357805,2279.0,4669.0,6362.0,0.291,-0.05,-0.33,-0.897
1357822,2327.0,4535.0,6382.0,0.29,-0.051,-0.33,-0.897
1357840,2341.0,4581.0,6386.0,0.29,-0.051,-0.33,-0.897
1357867,2377.0,4525.0,6432.0,0.29,-0.051,-0.33,-0.897
1357883,2353.0,4541.0,6440.0,0.29,-0.051,-0.33,-0.897
1357900,2405.0,4641.0,6418.0,0.29,-0.052,-0.329,-0.897
1357917,2343.0,4589.0,6404.0,0.29,-0.052,-0.329,-0.897
1357934,2307.0,4655.0,6426.0,0.29,-0.052,-0.329,-0.897
1357951,2279.0,4671.0,6386.0,0.29,-0.052,-0.329,-0.897
1357968,2281.0,4695.0,6344.0,0.29,-0.052,-0.329,-0.897
1357985,2263.0,4609.0,6336.0,0.29,-0.052,-0.329,-0.897
1358002,2315.0,4649.0,6356.0,0.29,-0.052,-0.33,-0.897
1358019,2351.0,4663.0,6366.0,0.289,-0.052,-0.33,-0.897
1358036,2309.0,4661.0,6388.0,0.289,-0.052,-0.33,-0.897
1358062,2305.0,4519.0,6428.0,0.289,-0.053,-0.33,-0.897
1358078,2353.0,4553.0,6420.0,0.289,-0.053,-0.33,-0.897
1358094,2363.0,4587.0,6374.0,0.289,-0.053,-0.33,-0.897
1358111,2321.0,4667.0,6396.0,0.289,-0.053,-0.33,-0.897
1358127,2369.0,4689.0,6442.0,0.289,-0.053,-0.33,-0.897
1358143,2313.0,4623.0,6484.0,0.289,-0.054,-0.33,-0.897
1358160,2319.0,4513.0,6448.0,0.289,-0.054,-0.329,-0.897
1358177,2319.0,4563.0,6436.0,0.289,-0.054,-0.33,-0.897
1358194,2359.0,4615.0,6418.0,0.288,-0.054,-0.33,-0.897
1358221,2349.0,4603.0,6378.0,0.288,-0.054,-0.33,-0.897
1358238,2385.0,4639.0,6410.0,0.288,-0.054,-0.33,-0.897
1358255,2359.0,4649.0,6312.0,0.288,-0.054,-0.33,-0.897
1358272,2363.0,4617.0,6374.0,0.288,-0.054,-0.33,-0.897
1358289,2353.0,4569.0,6466.0,0.288,-0.054,-0.33,-0.897
1358306,2419.0,4487.0,6386.0,0.288,-0.054,-0.33,-0.897
1358323,2415.0,4659.0,6374.0,0.288,-0.054,-0.33,-0.897
1358340,2381.0,4695.0,6394.0,0.288,-0.054,-0.33,-0.897
1358357,2321.0,4647.0,6388.0,0.288,-0.054,-0.331,-0.897
1358374,2333.0,4621.0,6388.0,0.287,-0.054,-0.33,-0.897
1358391,2317.0,4543.0,6374.0,0.287,-0.054,-0.33,-0.897
1358408,2365.0,4599.0,6392.0,0.287,-0.055,-0.331,-0.897
1358425,2347.0,4609.0,6396.0,0.287,-0.055,-0.331,-0.897
1358442,2397.0,4653.0,6380.0,0.287,-0.055,-0.331,-0.897
1358468,2347.0,4647.0,6376.0,0.287,-0.055,-0.331,-0.897
1358484,2329.0,4657.0,6350.0,0.287,-0.055,-0.331,-0.897
1358500,2349.0,4605.0,6392.0,0.287,-0.055,-0.331,-0.897
1358516,2377.0,4587.0,6376.0,0.287,-0.055,-0.331,-0.897
1358532,2315.0,4675.0,6316.0,0.286,-0.055,-0.331,-0.897
1358548,2311.0,4705.0,6368.0,0.286,-0.055,-0.331,-0.897
1358575,2341.0,4631.0,6376.0,0.286,-0.055,-0.331,-0.897
1358592,2331.0,4647.0,6366.0,0.286,-0.055,-0.332,-0.897
1358608,2365.0,4687.0,6388.0,0.286,-0.055,-0.332,-0.897
1358624,2375.0,4665.0,6428.0,0.286,-0.055,-0.332,-0.897
1358640,2407.0,4637.0,6422.0,0.286,-0.056,-0.332,-0.897
1358657,2443.0,4571.0,6410.0,0.285,-0.056,-0.332,-0.897
1358674,2321.0,4615.0,6370.0,0.285,-0.056,-0.332,-0.897
1358691,2341.0,4623.0,6398.0,0.285,-0.056,-0.332,-0.897
1358717,2389.0,4619.0,6366.0,0.285,-0.056,-0.332,-0.897
1358734,2421.0,4665.0,6356.0,0.285,-0.056,-0.333,-0.897
1358751,2389.0,4665.0,6314.0,0.285,-0.056,-0.333,-0.897
1358767,2377.0,4657.0,6286.0,0.285,-0.056,-0.333,-0.897
1358783,2377.0,4669.0,6360.0,0.285,-0.056,-0.333,-0.897
1358799,2329.0,4687.0,6304.0,0.284,-0.056,-0.333,-0.897
1358816,2357.0,4735.0,6282.0,0.284,-0.056,-0.333,-0.897
1358832,2389.0,4713.0,6328.0,0.284,-0.056,-0.334,-0.897
1358858,2319.0,4659.0,6354.0,0.284,-0.056,-0.333,-0.897
1358875,2363.0,4647.0,6424.0,0.284,-0.056,-0.333,-0.897
1358892,2369.0,4573.0,6442.0,0.283,-0.056,-0.333,-0.897
1358909,2399.0,4631.0,6354.0,0.283,-0.056,-0.333,-0.898
1358926,2437.0,4595.0,6386.0,0.283,-0.056,-0.333,-0.898
1358943,2383.0,4631.0,6322.0,0.283,-0.056,-0.333,-0.898
1358960,2467.0,4691.0,6380.0,0.282,-0.056,-0.333,-0.898
1358976,2385.0,4581.0,6364.0,0.282,-0.056,-0.333,-0.898
1358992,2351.0,4595.0,6356.0,0.283,-0.056,-0.333,-0.898
1359009,2299.0,4711.0,6254.0,0.283,-0.056,-0.333,-0.898
1359026,2373.0,4675.0,6254.0,0.283,-0.056,-0.333,-0.898
1359053,2433.0,4737.0,6346.0,0.283,-0.056,-0.333,-0.898
1359070,2391.0,4701.0,6344.0,0.283,-0.056,-0.332,-0.898
1359087,2391.0,4643.0,6370.0,0.282,-0.056,-0.332,-0.898
1359104,2335.0,4609.0,6362.0,0.282,-0.056,-0.332,-0.898
1359121,2281.0,4641.0,6380.0,0.282,-0.056,-0.333,-0.898
1359138,2297.0,4669.0,6366.0,0.281,-0.056,-0.333,-0.898
1359154,2355.0,4679.0,6412.0,0.281,-0.056,-0.333,-0.898
1359171,2461.0,4663.0,6330.0,0.281,-0.056,-0.333,-0.898
1359188,2409.0,4587.0,6400.0,0.281,-0.056,-0.333,-0.898
1359205,2403.0,4627.0,6374.0,0.281,-0.056,-0.333,-0.898
1359221,2355.0,4581.0,6322.0,0.281,-0.056,-0.333,-0.898
1359247,2299.0,4643.0,6242.0,0.281,-0.056,-0.333,-0.898
1359264,2281.0,4727.0,6268.0,0.281,-0.055,-0.333,-0.898
1359281,2341.0,4783.0,6284.0,0.281,-0.055,-0.333,-0.898
1359298,2403.0,4685.0,6314.0,0.281,-0.056,-0.333,-0.898
1359315,2359.0,4661.0,6320.0,0.281,-0.056,-0.333,-0.898
1359331,2381.0,4621.0,6338.0,0.281,-0.056,-0.333,-0.898
1359347,2313.0,4567.0,6386.0,0.28,-0.056,-0.333,-0.899
1359363,2335.0,4651.0,6386.0,0.28,-0.056,-0.333,-0.899
1359380,2325.0,4743.0,6348.0,0.28,-0.055,-0.333,-0.899
1359407,2339.0,4611.0,6390.0,0.28,-0.055,-0.333,-0.899
1359424,2309.0,4601.0,6412.0,0.28,-0.055,-0.333,-0.899
1359440,2359.0,4551.0,6420.0,0.28,-0.055,-0.333,-0.899
1359456,2351.0,4567.0,6336.0,0.28,-0.055,-0.333,-0.899
1359473,2445.0,4611.0,6256.0,0.28,-0.055,-0.333,-0.899
1359489,2373.0,4713.0,6286.0,0.28,-0.055,-0.333,-0.899
1359505,2403.0,4743.0,6298.0,0.28,-0.055,-0.333,-0.899
1359531,2335.0,4651.0,6294.0,0.28,-0.055,-0.333,-0.898
1359548,2405.0,4645.0,6320.0,0.28,-0.055,-0.334,-0.898
1359565,2293.0,4667.0,6342.0,0.28,-0.055,-0.334,-0.898
1359582,2301.0,4721.0,6320.0,0.28,-0.055,-0.334,-0.898
1359598,2253.0,4743.0,6262.0,0.28,-0.055,-0.334,-0.898
1359614,2209.0,4725.0,6286.0,0.28,-0.055,-0.334,-0.898
1359631,2287.0,4643.0,6388.0,0.28,-0.055,-0.334,-0.898
1359648,2355.0,4619.0,6322.0,0.28,-0.055,-0.334,-0.898
1359664,2395.0,4667.0,6308.0,0.28,-0.055,-0.334,-0.898
1359690,2343.0,4667.0,6350.0,0.28,-0.055,-0.334,-0.898
1359707,2367.0,4715.0,6350.0,0.28,-0.055,-0.334,-0.898
1359723,2381.0,4715.0,6352.0,0.28,-0.055,-0.334,-0.898
1359739,2381.0,4711.0,6334.0,0.28,-0.055,-0.334,-0.898
1359756,2429.0,4771.0,6380.0,0.28,-0.055,-0.334,-0.898
1359773,2415.0,4745.0,6426.0,0.28,-0.055,-0.334,-0.898
1359789,2475.0,4617.0,6400.0,0.281,-0.055,-0.334,-0.898
1359806,2471.0,4615.0,6400.0,0.28,-0.055,-0.334,-0.898
1359823,2359.0,4679.0,6346.0,0.28,-0.054,-0.334,-0.898
1359840,2265.0,4677.0,6304.0,0.28,-0.054,-0.335,-0.898
1359867,2249.0,4707.0,6284.0,0.28,-0.054,-0.335,-0.898
1359883,2215.0,4641.0,6268.0,0.28,-0.054,-0.335,-0.898
1359899,2241.0,4711.0,6350.0,0.28,-0.053,-0.335,-0.898
1359915,2187.0,4669.0,6346.0,0.28,-0.053,-0.334,-0.898
1359931,2251.0,4671.0,6354.0,0.28,-0.053,-0.334,-0.898
1359948,2247.0,4667.0,6310.0,0.28,-0.053,-0.334,-0.898
1359964,2209.0,4687.0,6262.0,0.28,-0.053,-0.334,-0.898
1359991,2435.0,4633.0,6382.0,0.28,-0.053,-0.334,-0.899
1360008,2299.0,4827.0,6324.0,0.279,-0.053,-0.334,-0.899
1360025,2379.0,4763.0,6364.0,0.279,-0.053,-0.334,-0.899
1360042,2333.0,4567.0,6420.0,0.279,-0.053,-0.333,-0.899
1360058,2321.0,4513.0,6370.0,0.279,-0.053,-0.333,-0.899
1360075,2295.0,4619.0,6296.0,0.279,-0.053,-0.333,-0.899
1360092,2315.0,4625.0,6288.0,0.279,-0.053,-0.333,-0.899
1360109,2347.0,4665.0,6284.0,0.279,-0.053,-0.333,-0.899
1360126,2307.0,4677.0,6302.0,0.28,-0.053,-0.333,-0.899
1360143,2259.0,4747.0,6300.0,0.28,-0.053,-0.333,-0.899
1360160,2317.0,4753.0,6338.0,0.28,-0.053,-0.333,-0.899
1360177,2345.0,4639.0,6342.0,0.28,-0.053,-0.333,-0.899
1360203,2277.0,4725.0,6422.0,0.28,-0.053,-0.333,-0.899
1360220,2315.0,4721.0,6406.0,0.279,-0.053,-0.333,-0.899
1360237,2301.0,4653.0,6368.0,0.279,-0.053,-0.333,-0.899
1360254,2245.0,4657.0,6342.0,0.279,-0.052,-0.333,-0.899
1360271,2223.0,4645.0,6342.0,0.279,-0.052,-0.333,-0.899
1360288,2247.0,4575.0,6296.0,0.279,-0.052,-0.333,-0.899
1360305,2329.0,4681.0,6326.0,0.279,-0.052,-0.334,-0.899
1360322,2307.0,4761.0,6374.0,0.279,-0.052,-0.334,-0.899
1360339,2297.0,4845.0,6410.0,0.279,-0.052,-0.334,-0.899
1360356,2365.0,4675.0,6440.0,0.279,-0.052,-0.333,-0.899
1360373,2269.0,4583.0,6360.0,0.279,-0.052,-0.333,-0.899
1360390,2331.0,4551.0,6388.0,0.279,-0.052,-0.333,-0.899
1360407,2345.0,4647.0,6316.0,0.279,-0.052,-0.333,-0.899
1360434,2309.0,4701.0,6292.0,0.279,-0.051,-0.333,-0.899
1360451,2255.0,4693.0,6252.0,0.279,-0.051,-0.333,-0.899
1360468,2215.0,4717.0,6294.0,0.279,-0.051,-0.333,-0.899
1360485,2253.0,4629.0,6348.0,0.279,-0.051,-0.333,-0.899
1360502,2269.0,4693.0,6326.0,0.279,-0.051,-0.333,-0.899
1360519,2275.0,4669.0,6324.0,0.279,-0.052,-0.333,-0.899
1360536,2251.0,4695.0,6366.0,0.279,-0.052,-0.333,-0.899
1360553,2271.0,4673.0,6404.0,0.279,-0.052,-0.333,-0.899
1360570,2293.0,4713.0,6380.0,0.279,-0.052,-0.333,-0.899
1360587,2277.0,4727.0,6372.0,0.279,-0.052,-0.333,-0.899
1360604,2219.0,4739.0,6302.0,0.279,-0.052,-0.333,-0.899
1360621,2305.0,4703.0,6382.0,0.279,-0.052,-0.333,-0.899
1360638,2285.0,4675.0,6388.0,0.279,-0.052,-0.333,-0.899
1360655,2331.0,4675.0,6398.0,0.279,-0.052,-0.333,-0.899
1360672,2377.0,4687.0,6434.0,0.279,-0.052,-0.333,-0.899
1360699,2329.0,4701.0,6436.0,0.279,-0.052,-0.333,-0.899
1360716,2289.0,4675.0,6340.0,0.279,-0.052,-0.333,-0.899
1360733,2297.0,4651.0,6344.0,0.28,-0.052,-0.333,-0.899
1360750,2221.0,4649.0,6304.0,0.28,-0.052,-0.333,-0.899
1360767,2247.0,4725.0,6256.0,0.28,-0.052,-0.333,-0.899
1360784,2307.0,4725.0,6318.0,0.28,-0.052,-0.332,-0.899
1360801,2299.0,4669.0,6362.0,0.28,-0.052,-0.332,-0.899
1360817,2297.0,4683.0,6398.0,0.28,-0.052,-0.332,-0.899
1360834,2295.0,4685.0,6430.0,0.28,-0.052,-0.332,-0.899
1360850,2295.0,4683.0,6416.0,0.28,-0.052,-0.332,-0.899
1360876,2309.0,4661.0,6348.0,0.28,-0.052,-0.332,-0.899
1360893,2289.0,4681.0,6400.0,0.279,-0.052,-0.332,-0.899
1360910,2379.0,4657.0,6386.0,0.28,-0.052,-0.332,-0.899
1360926,2341.0,4609.0,6330.0,0.28,-0.052,-0.332,-0.899
1360943,2281.0,4603.0,6354.0,0.28,-0.052,-0.332,-0.899
1360959,2255.0,4671.0,6334.0,0.28,-0.052,-0.332,-0.899
1360975,2269.0,4673.0,6352.0,0.28,-0.052,-0.332,-0.899
1360992,2295.0,4725.0,6352.0,0.28,-0.052,-0.332,-0.899
1361009,2307.0,4679.0,6296.0,0.28,-0.052,-0.332,-0.899
1361035,2341.0,4639.0,6338.0,0.28,-0.052,-0.332,-0.899
1361052,2325.0,4687.0,6390.0,0.28,-0.051,-0.333,-0.899
1361069,2293.0,4653.0,6320.0,0.28,-0.051,-0.333,-0.899
1361086,2237.0,4711.0,6372.0,0.28,-0.051,-0.333,-0.899
1361103,2287.0,4695.0,6350.0,0.28,-0.05,-0.333,-0.899
1361120,2277.0,4677.0,6380.0,0.281,-0.05,-0.333,-0.899
1361137,2297.0,4789.0,6390.0,0.281,-0.05,-0.333,-0.899
1361154,2219.0,4805.0,6370.0,0.281,-0.05,-0.333,-0.899
1361171,2185.0,4649.0,6416.0,0.28,-0.05,-0.333,-0.899
1361188,2125.0,4541.0,6320.0,0.28,-0.05,-0.333,-0.899
1361205,2053.0,4653.0,6214.0,0.28,-0.05,-0.334,-0.899
1361222,1989.0,4729.0,6114.0,0.279,-0.05,-0.334,-0.899
1361239,2091.0,4769.0,6186.0,0.279,-0.05,-0.334,-0.899
1361256,2327.0,4709.0,6212.0,0.279,-0.051,-0.334,-0.899
1361283,2473.0,4727.0,6276.0,0.279,-0.051,-0.334,-0.899
1361300,2591.0,4787.0,6328.0,0.279,-0.052,-0.333,-0.899
1361317,2573.0,4743.0,6416.0,0.279,-0.052,-0.333,-0.899
1361334,2511.0,4579.0,6494.0,0.279,-0.052,-0.333,-0.899
1361351,2493.0,4573.0,6474.0,0.279,-0.052,-0.334,-0.899
1361368,2437.0,4635.0,6396.0,0.279,-0.052,-0.334,-0.899
1361385,2305.0,4663.0,6368.0,0.279,-0.051,-0.334,-0.899
1361402,2227.0,4735.0,6378.0,0.279,-0.051,-0.334,-0.899
1361419,2191.0,4675.0,6380.0,0.279,-0.051,-0.334,-0.899
1361436,2127.0,4631.0,6368.0,0.279,-0.051,-0.334,-0.899
1361452,2077.0,4677.0,6348.0,0.279,-0.051,-0.334,-0.899
1361469,2089.0,4679.0,6354.0,0.279,-0.051,-0.334,-0.899
1361495,2145.0,4827.0,6270.0,0.279,-0.051,-0.334,-0.899
1361511,2135.0,4799.0,6318.0,0.279,-0.051,-0.334,-0.899
1361528,2283.0,4803.0,6300.0,0.279,-0.051,-0.334,-0.899
1361545,2289.0,4653.0,6266.0,0.279,-0.051,-0.334,-0.899
1361562,2393.0,4665.0,6292.0,0.279,-0.051,-0.334,-0.899
1361578,2385.0,4727.0,6246.0,0.279,-0.051,-0.334,-0.899
1361595,2397.0,4711.0,6298.0,0.279,-0.051,-0.334,-0.899
1361612,2481.0,4753.0,6366.0,0.279,-0.052,-0.334,-0.899
1361629,2537.0,4743.0,6394.0,0.279,-0.052,-0.334,-0.899
1361655,2487.0,4773.0,6438.0,0.279,-0.052,-0.334,-0.899
1361672,2451.0,4687.0,6488.0,0.279,-0.052,-0.334,-0.899
1361689,2377.0,4513.0,6490.0,0.279,-0.051,-0.334,-0.899
1361705,2119.0,4571.0,6448.0,0.279,-0.051,-0.334,-0.899
1361721,2077.0,4511.0,6328.0,0.279,-0.05,-0.334,-0.899
1361738,2019.0,4699.0,6264.0,0.279,-0.05,-0.334,-0.899
1361755,2013.0,4769.0,6290.0,0.28,-0.05,-0.334,-0.899
1361772,2189.0,4789.0,6276.0,0.28,-0.05,-0.334,-0.899
1361789,2195.0,4837.0,6286.0,0.28,-0.05,-0.334,-0.899
1361806,2175.0,4949.0,6282.0,0.28,-0.05,-0.333,-0.899
1361823,2291.0,4915.0,6288.0,0.28,-0.05,-0.333,-0.899
1361850,2287.0,4859.0,6294.0,0.28,-0.05,-0.333,-0.899
1361867,2293.0,4789.0,6238.0,0.279,-0.05,-0.334,-0.899
1361884,2355.0,4699.0,6332.0,0.279,-0.05,-0.334,-0.899
1361901,2443.0,4573.0,6376.0,0.278,-0.05,-0.334,-0.899
1361918,2433.0,4497.0,6340.0,0.278,-0.05,-0.334,-0.899
1361935,2339.0,4503.0,6388.0,0.278,-0.05,-0.334,-0.899
1361952,2343.0,4543.0,6340.0,0.278,-0.05,-0.334,-0.899
1361969,2281.0,4511.0,6368.0,0.279,-0.051,-0.333,-0.899
1361986,2281.0,4621.0,6366.0,0.279,-0.051,-0.333,-0.899
1362002,2317.0,4667.0,6438.0,0.279,-0.051,-0.333,-0.899
1362019,2359.0,4679.0,6472.0,0.28,-0.051,-0.333,-0.899
1362036,2267.0,4799.0,6454.0,0.28,-0.051,-0.333,-0.899
1362053,2189.0,4897.0,6356.0,0.28,-0.05,-0.333,-0.899
1362080,2091.0,4847.0,6248.0,0.281,-0.05,-0.333,-0.899
1362096,2163.0,4837.0,6158.0,0.28,-0.049,-0.334,-0.899
1362112,2019.0,4807.0,6182.0,0.28,-0.049,-0.334,-0.899
1362128,2113.0,4793.0,6170.0,0.28,-0.049,-0.334,-0.899
1362145,2175.0,4699.0,6194.0,0.279,-0.05,-0.334,-0.899
1362162,2233.0,4657.0,6302.0,0.279,-0.05,-0.334,-0.899
1362178,2303.0,4565.0,6432.0,0.279,-0.051,-0.333,-0.899
1362204,2373.0,4621.0,6360.0,0.279,-0.051,-0.333,-0.899
1362221,2423.0,4589.0,6484.0,0.279,-0.052,-0.333,-0.899
1362237,2395.0,4573.0,6548.0,0.279,-0.052,-0.333,-0.899
1362253,2373.0,4675.0,6444.0,0.279,-0.052,-0.332,-0.899
1362269,2297.0,4545.0,6414.0,0.279,-0.052,-0.333,-0.899
1362285,2367.0,4643.0,6406.0,0.279,-0.051,-0.333,-0.899
1362302,2211.0,4595.0,6292.0,0.279,-0.051,-0.334,-0.899
1362319,2191.0,4947.0,6188.0,0.279,-0.051,-0.334,-0.899
1362336,2165.0,4803.0,6174.0,0.279,-0.051,-0.335,-0.899
1362362,2145.0,4777.0,6188.0,0.279,-0.051,-0.335,-0.899
1362379,2185.0,4775.0,6238.0,0.279,-0.051,-0.335,-0.898
1362395,2251.0,4845.0,6236.0,0.279,-0.051,-0.335,-0.898
1362412,2337.0,4775.0,6376.0,0.278,-0.052,-0.336,-0.898
1362429,2373.0,4817.0,6390.0,0.278,-0.052,-0.336,-0.898
1362445,2329.0,4683.0,6384.0,0.278,-0.052,-0.335,-0.899
1362461,2335.0,4683.0,6434.0,0.278,-0.052,-0.335,-0.899
1362487,2395.0,4475.0,6418.0,0.278,-0.052,-0.334,-0.899
1362506,2441.0,4545.0,6392.0,0.278,-0.052,-0.335,-0.899
1362523,2469.0,5009.0,6508.0,0.279,-0.051,-0.334,-0.899
1362540,2381.0,4793.0,6554.0,0.28,-0.05,-0.333,-0.899
1362556,2239.0,4567.0,6490.0,0.28,-0.049,-0.332,-0.899
1362573,2065.0,4481.0,6368.0,0.281,-0.048,-0.331,-0.9
1362590,2033.0,4573.0,6302.0,0.281,-0.047,-0.331,-0.9
1362607,2047.0,4589.0,6210.0,0.281,-0.046,-0.331,-0.9
1362624,2101.0,4735.0,6190.0,0.281,-0.046,-0.332,-0.899
1362641,2175.0,4877.0,6268.0,0.28,-0.045,-0.332,-0.899
1362658,2285.0,4903.0,6350.0,0.28,-0.045,-0.332,-0.9
1362675,2369.0,4727.0,6446.0,0.28,-0.044,-0.332,-0.9
1362691,2415.0,4541.0,6464.0,0.281,-0.043,-0.331,-0.9
1362708,2497.0,4351.0,6402.0,0.282,-0.042,-0.332,-0.899
1362734,2685.0,4467.0,6250.0,0.283,-0.039,-0.334,-0.898
1362751,2867.0,5163.0,6570.0,0.286,-0.034,-0.335,-0.897
1362768,2019.0,5983.0,7018.0,0.287,-0.028,-0.334,-0.897
1362785,1829.0,5571.0,7250.0,0.287,-0.023,-0.33,-0.899
1362802,1767.0,4349.0,6902.0,0.288,-0.017,-0.327,-0.9
1362819,1047.0,3227.0,6164.0,0.288,-0.012,-0.327,-0.9
1362836,1067.0,4329.0,5900.0,0.289,-0.007,-0.331,-0.898
1362853,1439.0,5197.0,6058.0,0.288,-0.004,-0.334,-0.897
1362870,1295.0,5377.0,6040.0,0.288,-0.003,-0.336,-0.897
1362887,1491.0,4891.0,6084.0,0.288,-0.003,-0.335,-0.897
1362904,1561.0,4699.0,6030.0,0.288,-0.004,-0.334,-0.898
1362921,1563.0,4767.0,6226.0,0.288,-0.005,-0.333,-0.898
1362938,1485.0,4841.0,6294.0,0.289,-0.007,-0.332,-0.898
1362965,1601.0,4747.0,6386.0,0.289,-0.01,-0.331,-0.898
1362982,1745.0,5037.0,6464.0,0.288,-0.012,-0.33,-0.899
1362999,1739.0,4881.0,6378.0,0.288,-0.015,-0.329,-0.899
1363016,1653.0,4529.0,6208.0,0.287,-0.018,-0.328,-0.9
1363033,1633.0,4267.0,5930.0,0.286,-0.022,-0.329,-0.9
1363050,1695.0,4503.0,5716.0,0.285,-0.027,-0.331,-0.899
1363066,1815.0,5039.0,5696.0,0.285,-0.032,-0.334,-0.898
1363082,2025.0,5855.0,5902.0,0.284,-0.038,-0.335,-0.898
1363098,2339.0,5983.0,6320.0,0.282,-0.045,-0.335,-0.898
1363124,2629.0,5575.0,6676.0,0.281,-0.05,-0.332,-0.899
1363141,2891.0,5109.0,7038.0,0.28,-0.054,-0.329,-0.9
1363158,2851.0,4505.0,7384.0,0.279,-0.055,-0.325,-0.902
1363175,2597.0,3909.0,7444.0,0.279,-0.055,-0.323,-0.903
1363192,2469.0,3577.0,7310.0,0.278,-0.053,-0.321,-0.904
1363209,2215.0,3579.0,6948.0,0.278,-0.05,-0.322,-0.904
1363225,2149.0,3877.0,6624.0,0.277,-0.047,-0.324,-0.903
1363242,2071.0,4235.0,6312.0,0.277,-0.045,-0.326,-0.903
1363259,1991.0,4517.0,6110.0,0.278,-0.043,-0.328,-0.902
1363276,2043.0,4735.0,6110.0,0.278,-0.042,-0.329,-0.902
1363292,2037.0,4859.0,6196.0,0.279,-0.043,-0.328,-0.902
1363319,2117.0,4827.0,6282.0,0.28,-0.044,-0.327,-0.902
1363336,2237.0,4765.0,6378.0,0.281,-0.045,-0.325,-0.902
1363353,2225.0,4811.0,6402.0,0.282,-0.045,-0.325,-0.902
1363370,2237.0,4827.0,6446.0,0.283,-0.045,-0.325,-0.901
1363386,2131.0,4817.0,6384.0,0.283,-0.045,-0.325,-0.901
1363402,2049.0,4829.0,6330.0,0.282,-0.044,-0.326,-0.901
1363418,2013.0,4813.0,6278.0,0.282,-0.044,-0.326,-0.901
1363435,2013.0,4665.0,6262.0,0.281,-0.043,-0.327,-0.901
1363452,2055.0,4637.0,6240.0,0.281,-0.043,-0.327,-0.901
1363469,2113.0,4567.0,6332.0,0.281,-0.043,-0.327,-0.901
1363496,2151.0,4555.0,6432.0,0.281,-0.044,-0.326,-0.902
1363513,2251.0,4493.0,6568.0,0.281,-0.045,-0.326,-0.902
1363530,2319.0,4409.0,6636.0,0.281,-0.045,-0.325,-0.902
1363547,2331.0,4389.0,6644.0,0.281,-0.045,-0.325,-0.902
1363564,2265.0,4539.0,6624.0,0.281,-0.045,-0.326,-0.902
1363580,2227.0,4703.0,6586.0,0.281,-0.045,-0.326,-0.902
1363596,2123.0,4673.0,6532.0,0.281,-0.044,-0.326,-0.902
1363612,2051.0,4649.0,6442.0,0.281,-0.044,-0.326,-0.902
1363629,2033.0,4625.0,6440.0,0.281,-0.044,-0.326,-0.902
1363646,2067.0,4681.0,6382.0,0.281,-0.044,-0.326,-0.902
1363672,2109.0,4671.0,6402.0,0.281,-0.044,-0.326,-0.902
1363689,2097.0,4733.0,6394.0,0.281,-0.043,-0.326,-0.902
1363706,2141.0,4691.0,6380.0,0.281,-0.043,-0.326,-0.902
1363723,2167.0,4681.0,6392.0,0.281,-0.043,-0.326,-0.902
1363740,2129.0,4693.0,6384.0,0.281,-0.043,-0.326,-0.902
1363757,2149.0,4709.0,6378.0,0.281,-0.044,-0.326,-0.902
1363774,2127.0,4621.0,6450.0,0.281,-0.044,-0.326,-0.902
1363791,2171.0,4537.0,6436.0,0.281,-0.044,-0.325,-0.902
1363808,2191.0,4587.0,6424.0,0.28,-0.044,-0.326,-0.902
1363825,2209.0,4605.0,6462.0,0.28,-0.044,-0.326,-0.902
1363842,2203.0,4645.0,6472.0,0.28,-0.044,-0.326,-0.902
1363858,2183.0,4571.0,6460.0,0.28,-0.044,-0.325,-0.902
1363885,2137.0,4571.0,6424.0,0.28,-0.045,-0.325,-0.902
1363902,2165.0,4579.0,6436.0,0.28,-0.045,-0.325,-0.902
1363919,2133.0,4619.0,6378.0,0.28,-0.045,-0.325,-0.902
1363936,2215.0,4677.0,6358.0,0.28,-0.045,-0.325,-0.902
1363953,2275.0,4219.0,6554.0,0.28,-0.044,-0.325,-0.902
1363970,2315.0,4571.0,6696.0,0.28,-0.043,-0.327,-0.902
1363987,2081.0,5199.0,6404.0,0.28,-0.042,-0.328,-0.901
1364003,2183.0,5029.0,6282.0,0.28,-0.041,-0.329,-0.901
1364019,2023.0,4779.0,6308.0,0.28,-0.041,-0.328,-0.901
1364036,1979.0,4597.0,6348.0,0.28,-0.041,-0.328,-0.902
1364053,1981.0,4453.0,6376.0,0.28,-0.041,-0.327,-0.902
1364080,2027.0,4527.0,6490.0,0.28,-0.042,-0.327,-0.902
1364096,2119.0,4597.0,6550.0,0.28,-0.043,-0.326,-0.902
1364113,2135.0,4673.0,6520.0,0.28,-0.043,-0.326,-0.902
1364129,2131.0,4655.0,6502.0,0.28,-0.044,-0.326,-0.902
1364145,2129.0,4649.0,6466.0,0.28,-0.044,-0.325,-0.902
1364161,2117.0,4615.0,6518.0,0.28,-0.044,-0.325,-0.902
1364178,2169.0,4603.0,6486.0,0.281,-0.044,-0.325,-0.902
1364195,2197.0,4627.0,6424.0,0.281,-0.044,-0.325,-0.902
1364221,2217.0,4613.0,6466.0,0.281,-0.044,-0.325,-0.902
1364238,2207.0,4671.0,6482.0,0.28,-0.044,-0.325,-0.902
1364254,2175.0,4651.0,6424.0,0.28,-0.044,-0.325,-0.902
1364270,2137.0,4635.0,6404.0,0.28,-0.044,-0.326,-0.902
1364287,2117.0,4607.0,6412.0,0.28,-0.044,-0.325,-0.902
1364303,2067.0,4541.0,6476.0,0.28,-0.044,-0.325,-0.902
1364320,2105.0,4503.0,6410.0,0.28,-0.044,-0.325,-0.902
1364337,2113.0,4697.0,6432.0,0.28,-0.044,-0.326,-0.902
1364354,2139.0,4677.0,6428.0,0.28,-0.044,-0.326,-0.902
1364381,2083.0,4719.0,6474.0,0.28,-0.044,-0.326,-0.902
1364397,2145.0,4647.0,6544.0,0.28,-0.045,-0.325,-0.902
