timeMs,ax,ay,az,q0,q1,q2,q3
1028806,-4874.0,-7694.0,-1380.0,0.149,0.293,0.703,-0.631
1028822,-4904.0,-7584.0,-1892.0,0.152,0.293,0.7,-0.634
1028838,-5130.0,-7616.0,-1642.0,0.153,0.293,0.695,-0.638
1028864,-4914.0,-6506.0,-1610.0,0.156,0.294,0.692,-0.641
1028880,-4874.0,-6220.0,-1420.0,0.16,0.294,0.688,-0.644
1028896,-4730.0,-6306.0,-1322.0,0.164,0.294,0.683,-0.648
1028912,-4850.0,-6486.0,-1322.0,0.169,0.294,0.678,-0.652
1028929,-4638.0,-6418.0,-880.0,0.174,0.294,0.673,-0.656
1028946,-4620.0,-6032.0,-770.0,0.179,0.294,0.668,-0.66
1028963,-4858.0,-6324.0,-154.0,0.184,0.292,0.664,-0.663
1028980,-4838.0,-5458.0,-212.0,0.189,0.29,0.661,-0.666
1029006,-4748.0,-5734.0,-398.0,0.193,0.288,0.658,-0.668
1029022,-4852.0,-6018.0,-504.0,0.197,0.287,0.654,-0.671
1029039,-5208.0,-6190.0,-630.0,0.2,0.285,0.65,-0.675
1029056,-4962.0,-5108.0,-112.0,0.203,0.283,0.646,-0.679
1029073,-5214.0,-5454.0,202.0,0.205,0.28,0.643,-0.682
1029090,-5106.0,-5768.0,38.0,0.208,0.277,0.641,-0.685
1029107,-5362.0,-6056.0,-354.0,0.211,0.273,0.639,-0.688
1029123,-4860.0,-5366.0,-346.0,0.213,0.269,0.637,-0.69
1029140,-4594.0,-5768.0,192.0,0.216,0.264,0.636,-0.692
1029157,-4958.0,-5188.0,406.0,0.218,0.259,0.634,-0.695
1029174,-5216.0,-5594.0,-12.0,0.221,0.253,0.633,-0.698
1029191,-4844.0,-5210.0,52.0,0.224,0.246,0.632,-0.7
1029218,-5026.0,-4582.0,-290.0,0.226,0.239,0.631,-0.703
1029234,-4182.0,-6306.0,672.0,0.23,0.23,0.631,-0.705
1029250,-4048.0,-5116.0,568.0,0.232,0.222,0.629,-0.707
1029267,-3938.0,-5876.0,1010.0,0.235,0.214,0.628,-0.711
1029284,-3832.0,-5040.0,1384.0,0.236,0.206,0.625,-0.715
1029300,-3812.0,-4928.0,1702.0,0.237,0.197,0.623,-0.719
1029317,-4100.0,-7460.0,1600.0,0.236,0.19,0.618,-0.726
1029334,-4440.0,-5278.0,1702.0,0.232,0.184,0.609,-0.736
1029351,-4082.0,-4624.0,2776.0,0.227,0.179,0.6,-0.746
1029377,-4462.0,-7578.0,3020.0,0.221,0.175,0.59,-0.757
1029393,-6012.0,-7052.0,2146.0,0.214,0.172,0.578,-0.768
1029409,-5432.0,-5394.0,3060.0,0.208,0.168,0.569,-0.778
1029426,76.0,-19158.0,10570.0,0.203,0.172,0.555,-0.788
1029443,-9844.0,4934.0,1270.0,0.192,0.169,0.542,-0.801
1029460,-5820.0,-6042.0,2140.0,0.187,0.162,0.543,-0.803
1029477,-3330.0,-6516.0,2594.0,0.182,0.154,0.541,-0.806
1029494,-3840.0,-7630.0,4022.0,0.179,0.147,0.541,-0.809
1029511,-3794.0,-7832.0,4156.0,0.178,0.14,0.539,-0.812
1029528,-3858.0,-9448.0,2754.0,0.178,0.135,0.534,-0.815
1029545,-3238.0,-8400.0,2448.0,0.177,0.134,0.524,-0.822
1029572,-3072.0,-674.0,2080.0,0.173,0.13,0.517,-0.828
1029589,-3270.0,-4722.0,4392.0,0.17,0.125,0.515,-0.831
1029606,-3530.0,-6232.0,4972.0,0.167,0.121,0.51,-0.835
1029623,-2382.0,-5542.0,4494.0,0.166,0.119,0.503,-0.84
1029639,-2068.0,-4104.0,3390.0,0.162,0.117,0.496,-0.845
1029656,-1700.0,-4556.0,3992.0,0.158,0.115,0.489,-0.85
1029673,-1796.0,-4230.0,5086.0,0.154,0.114,0.482,-0.855
1029690,-2120.0,-3710.0,5792.0,0.149,0.112,0.475,-0.86
1029707,-1812.0,-4144.0,6138.0,0.145,0.109,0.47,-0.864
1029724,-1766.0,-4774.0,5624.0,0.141,0.105,0.465,-0.868
1029740,-1466.0,-5998.0,4550.0,0.135,0.102,0.459,-0.872
1029767,-1920.0,-5678.0,4664.0,0.127,0.1,0.451,-0.878
1029783,-1890.0,-4326.0,4830.0,0.119,0.097,0.442,-0.884
1029799,-1804.0,-5286.0,5490.0,0.112,0.093,0.436,-0.888
1029816,-1886.0,-6996.0,5510.0,0.106,0.09,0.43,-0.892
1029833,-2068.0,-6914.0,5768.0,0.1,0.087,0.422,-0.897
1029850,-2308.0,-6346.0,6454.0,0.094,0.084,0.413,-0.902
1029866,-2162.0,-7082.0,6918.0,0.09,0.08,0.405,-0.906
1029882,-2034.0,-6874.0,6458.0,0.087,0.077,0.398,-0.91
1029908,-2008.0,-7214.0,6324.0,0.084,0.074,0.389,-0.914
1029924,-1786.0,-6650.0,6180.0,0.082,0.072,0.378,-0.919
1029941,-1652.0,-6682.0,6690.0,0.079,0.07,0.366,-0.925
1029958,-1426.0,-6678.0,7008.0,0.078,0.068,0.353,-0.93
1029975,-1640.0,-6234.0,7006.0,0.078,0.066,0.339,-0.935
1029992,-1590.0,-5842.0,7180.0,0.078,0.066,0.323,-0.941
1030009,-1288.0,-5598.0,7708.0,0.08,0.065,0.306,-0.946
1030026,-1352.0,-5212.0,7750.0,0.082,0.065,0.287,-0.952
1030043,-1336.0,-5074.0,7784.0,0.085,0.066,0.267,-0.958
1030060,-1344.0,-4062.0,7612.0,0.088,0.066,0.246,-0.963
1030086,-1228.0,-3478.0,8204.0,0.091,0.067,0.225,-0.968
1030103,-962.0,-3130.0,8058.0,0.094,0.067,0.206,-0.972
1030120,-1012.0,-1994.0,7574.0,0.096,0.068,0.187,-0.975
1030137,-1490.0,-1658.0,7108.0,0.097,0.069,0.17,-0.978
1030154,-1304.0,-1494.0,8268.0,0.096,0.07,0.155,-0.981
1030171,-1680.0,-1268.0,9598.0,0.096,0.072,0.142,-0.983
1030188,-1592.0,-1416.0,9806.0,0.095,0.073,0.13,-0.984
1030205,-1998.0,-1680.0,9810.0,0.095,0.075,0.119,-0.985
1030222,-2198.0,-1604.0,9254.0,0.095,0.076,0.109,-0.987
1030238,-2122.0,-1858.0,8890.0,0.094,0.078,0.099,-0.988
1030254,-2190.0,-1514.0,8942.0,0.093,0.079,0.089,-0.989
1030280,-2070.0,-1518.0,9394.0,0.09,0.081,0.08,-0.989
1030296,-3790.0,-972.0,9402.0,0.086,0.084,0.068,-0.99
1030312,-3210.0,-24.0,8836.0,0.083,0.085,0.059,-0.991
1030329,-2504.0,-728.0,8672.0,0.08,0.087,0.052,-0.992
1030346,-2136.0,-858.0,8174.0,0.076,0.088,0.045,-0.992
1030362,-1942.0,-376.0,7842.0,0.072,0.09,0.037,-0.993
1030379,-1584.0,-730.0,7790.0,0.067,0.091,0.029,-0.993
1030395,-1780.0,-848.0,7302.0,0.064,0.092,0.019,-0.994
1030421,-1942.0,-574.0,6518.0,0.061,0.092,0.01,-0.994
1030438,-1034.0,-1730.0,6708.0,0.059,0.091,-0.003,-0.994
1030454,-1298.0,-550.0,6666.0,0.057,0.092,-0.023,-0.994
1030471,-1136.0,862.0,7866.0,0.057,0.093,-0.046,-0.993
1030488,-1058.0,962.0,10548.0,0.058,0.095,-0.073,-0.991
1030505,-1846.0,2842.0,11184.0,0.061,0.099,-0.099,-0.988
1030521,-1516.0,2696.0,13672.0,0.064,0.105,-0.121,-0.985
1030538,-1924.0,3536.0,14188.0,0.069,0.114,-0.141,-0.981
1030555,-3240.0,4688.0,12466.0,0.073,0.124,-0.155,-0.977
1030582,-3396.0,4794.0,10564.0,0.077,0.132,-0.162,-0.975
1030598,-2480.0,3484.0,9166.0,0.079,0.138,-0.165,-0.973
1030615,-2524.0,2232.0,8664.0,0.08,0.146,-0.171,-0.971
1030632,-2210.0,3398.0,7984.0,0.08,0.154,-0.181,-0.968
1030648,-2610.0,4840.0,7608.0,0.082,0.159,-0.187,-0.966
1030664,-492.0,3372.0,9796.0,0.083,0.165,-0.187,-0.965
1030680,-274.0,3792.0,10920.0,0.082,0.174,-0.191,-0.963
1030696,496.0,438.0,13708.0,0.076,0.196,-0.206,-0.955
1030722,-4262.0,3744.0,9928.0,0.068,0.225,-0.238,-0.943
1030738,-3460.0,11596.0,8742.0,0.058,0.249,-0.255,-0.932
1030754,-4326.0,12368.0,8852.0,0.052,0.272,-0.256,-0.926
1030771,-4106.0,10066.0,8712.0,0.049,0.292,-0.241,-0.924
1030788,-3784.0,6312.0,8496.0,0.046,0.314,-0.22,-0.922
1030805,-4128.0,5372.0,7516.0,0.041,0.337,-0.202,-0.919
1030822,-4426.0,5318.0,6760.0,0.034,0.36,-0.183,-0.914
1030839,-4878.0,5516.0,5962.0,0.026,0.383,-0.163,-0.909
1030856,-4980.0,5432.0,4692.0,0.018,0.405,-0.141,-0.903
1030883,-5218.0,4414.0,3510.0,0.009,0.426,-0.116,-0.897
1030899,-5326.0,3420.0,2656.0,0.001,-0.444,0.089,0.892
1030915,-5038.0,1380.0,1864.0,0.012,-0.46,0.065,0.885
1030931,-5526.0,484.0,528.0,0.025,-0.474,0.044,0.879
1030947,-5612.0,-148.0,-392.0,0.039,-0.485,0.025,0.873
1030964,-5658.0,-1108.0,-458.0,0.052,-0.492,0.006,0.869
1030980,-5474.0,-1870.0,-452.0,0.061,-0.496,-0.012,0.866
1031006,-5298.0,-2364.0,-30.0,0.07,-0.497,-0.029,0.864
1031023,-5602.0,-2972.0,654.0,0.078,-0.497,-0.043,0.863
1031040,-5682.0,-2968.0,1226.0,0.083,-0.496,-0.055,0.863
1031057,-5458.0,-3638.0,1794.0,0.086,-0.494,-0.066,0.863
1031074,-4996.0,-4420.0,2692.0,0.087,-0.49,-0.075,0.864
1031091,-4500.0,-4964.0,2920.0,0.085,-0.488,-0.082,0.865
1031108,-4428.0,-6086.0,3408.0,0.083,-0.486,-0.086,0.866
1031125,-5226.0,-6194.0,3432.0,0.08,-0.485,-0.082,0.867
1031142,-6038.0,-4590.0,2640.0,0.076,-0.484,-0.073,0.869
1031159,-6308.0,-2718.0,2274.0,0.068,-0.48,-0.061,0.872
1031175,-6740.0,-1138.0,2042.0,0.055,-0.476,-0.049,0.876
1031192,-7404.0,-432.0,3338.0,0.041,-0.47,-0.037,0.881
1031209,-7704.0,656.0,4354.0,0.026,-0.463,-0.027,0.886
1031235,-7916.0,1566.0,4898.0,0.013,-0.453,-0.021,0.891
1031251,-7364.0,1512.0,5260.0,0.002,-0.442,-0.018,0.897
1031268,-6362.0,522.0,5222.0,0.005,0.432,0.017,-0.902
1031284,-6022.0,-592.0,5644.0,0.007,0.425,0.015,-0.905
1031300,-6348.0,-326.0,6420.0,0.004,0.42,0.01,-0.907
1031316,-6710.0,84.0,6964.0,0.001,-0.417,-0.004,0.909
1031342,-6618.0,-146.0,7014.0,0.008,-0.413,0.002,0.911
1031358,-6156.0,-634.0,6548.0,0.013,-0.41,0.008,0.912
1031374,-5698.0,-840.0,6210.0,0.018,-0.407,0.015,0.913
1031390,-5194.0,-390.0,6272.0,0.022,-0.405,0.023,0.914
1031406,-4846.0,574.0,6486.0,0.027,-0.403,0.029,0.914
1031422,-5034.0,1046.0,6574.0,0.033,-0.403,0.034,0.914
1031448,-4968.0,1208.0,6474.0,0.039,-0.403,0.039,0.914
1031465,-5028.0,1342.0,6442.0,0.046,-0.404,0.042,0.913
1031482,-5178.0,814.0,6072.0,0.052,-0.406,0.045,0.911
1031499,-5376.0,108.0,6234.0,0.057,-0.408,0.047,0.91
1031515,-6072.0,-238.0,6000.0,0.06,-0.411,0.049,0.908
1031531,-6306.0,-158.0,5758.0,0.061,-0.412,0.049,0.908
1031547,-6036.0,92.0,5238.0,0.062,-0.413,0.048,0.907
1031563,-6360.0,1142.0,5414.0,0.062,-0.414,0.047,0.907
1031589,-6662.0,2042.0,5522.0,0.061,-0.415,0.043,0.907
1031605,-6600.0,2268.0,5286.0,0.059,-0.415,0.035,0.907
1031621,-6932.0,1264.0,5508.0,0.056,-0.415,0.024,0.908
1031637,-6508.0,110.0,5508.0,0.052,-0.414,0.012,0.909
1031653,-6464.0,-342.0,5674.0,0.05,-0.413,0.001,0.909
1031669,-6500.0,-738.0,5738.0,0.048,-0.412,-0.01,0.91
1031696,-6616.0,-966.0,5784.0,0.045,-0.411,-0.019,0.91
1031713,-6676.0,-428.0,5880.0,0.043,-0.41,-0.028,0.911
1031730,-6228.0,-186.0,5754.0,0.041,-0.408,-0.038,0.911
1031747,-6046.0,-832.0,5986.0,0.038,-0.407,-0.048,0.911
1031764,-5712.0,-1484.0,5660.0,0.035,-0.407,-0.058,0.911
1031781,-5636.0,-1718.0,5916.0,0.034,-0.407,-0.065,0.91
1031798,-5272.0,-1704.0,6068.0,0.036,-0.408,-0.07,0.909
1031815,-6908.0,-50.0,6258.0,0.042,-0.411,-0.071,0.908
1031831,-6708.0,-100.0,5148.0,0.046,-0.413,-0.071,0.907
1031847,-6858.0,-1082.0,4812.0,0.049,-0.415,-0.073,0.906
1031873,-6718.0,-1670.0,4224.0,0.05,-0.415,-0.076,0.905
1031890,-6918.0,-2728.0,3802.0,0.049,-0.415,-0.079,0.905
1031906,-5990.0,-3404.0,4122.0,0.047,-0.413,-0.083,0.906
1031922,-5222.0,-4026.0,4920.0,0.047,-0.411,-0.084,0.906
1031939,-5500.0,-3266.0,5512.0,0.048,-0.41,-0.082,0.907
1031955,-5892.0,-2020.0,5868.0,0.049,-0.409,-0.078,0.908
1031971,-5776.0,-766.0,6010.0,0.05,-0.408,-0.074,0.909
1031997,-5986.0,-18.0,6182.0,0.049,-0.407,-0.071,0.91
1032013,-6114.0,-184.0,6332.0,0.049,-0.406,-0.069,0.91
1032029,-6244.0,-364.0,5926.0,0.05,-0.406,-0.068,0.91
1032045,-6424.0,-656.0,5570.0,0.05,-0.407,-0.068,0.91
1032061,-6502.0,-1436.0,5310.0,0.05,-0.407,-0.068,0.909
1032078,-6466.0,-1736.0,5270.0,0.051,-0.408,-0.069,0.909
1032095,-6126.0,-2078.0,5404.0,0.052,-0.408,-0.069,0.909
1032121,-6072.0,-2016.0,5660.0,0.053,-0.409,-0.068,0.908
1032138,-6068.0,-1830.0,5854.0,0.054,-0.41,-0.067,0.908
1032155,-6006.0,-1626.0,5782.0,0.055,-0.411,-0.065,0.908
1032171,-5988.0,-1084.0,5580.0,0.056,-0.412,-0.062,0.908
1032187,-5980.0,-620.0,5430.0,0.056,-0.412,-0.061,0.907
1032204,-6002.0,-734.0,5376.0,0.056,-0.413,-0.061,0.907
1032220,-6104.0,-1200.0,5360.0,0.056,-0.414,-0.061,0.907
1032237,-6398.0,-1508.0,5312.0,0.057,-0.415,-0.061,0.906
1032263,-6356.0,-1530.0,5280.0,0.057,-0.416,-0.06,0.906
1032279,-6184.0,-1356.0,5178.0,0.057,-0.417,-0.06,0.905
1032296,-6076.0,-954.0,5194.0,0.056,-0.418,-0.061,0.905
1032312,-6148.0,-1214.0,5196.0,0.055,-0.419,-0.062,0.904
1032328,-6158.0,-1394.0,4976.0,0.054,-0.42,-0.064,0.904
1032344,-6012.0,-1302.0,4714.0,0.054,-0.421,-0.065,0.903
1032360,-5918.0,-1302.0,4674.0,0.054,-0.422,-0.065,0.903
1032386,-6134.0,-1424.0,4754.0,0.054,-0.422,-0.066,0.902
1032403,-6062.0,-1416.0,4806.0,0.054,-0.422,-0.067,0.902
1032419,-6252.0,-1494.0,4746.0,0.053,-0.421,-0.067,0.903
1032435,-6136.0,-1738.0,4746.0,0.052,-0.42,-0.067,0.904
1032451,-6240.0,-1448.0,4752.0,0.051,-0.417,-0.066,0.905
1032467,-6140.0,-1008.0,4912.0,0.049,-0.414,-0.064,0.907
1032493,-5982.0,-1056.0,5224.0,0.047,-0.41,-0.063,0.909
1032509,-5618.0,-552.0,5170.0,0.045,-0.405,-0.063,0.911
1032525,-4758.0,-744.0,5540.0,0.042,-0.4,-0.064,0.913
1032541,-5120.0,-334.0,5024.0,0.039,-0.393,-0.067,0.916
1032557,-5626.0,520.0,3812.0,0.034,-0.383,-0.076,0.92
1032573,-4736.0,-934.0,4338.0,0.03,-0.372,-0.087,0.924
1032599,-4326.0,-4196.0,6284.0,0.028,-0.36,-0.095,0.928
1032615,-3890.0,-5750.0,6934.0,0.026,-0.351,-0.092,0.932
1032631,-3646.0,-5086.0,6768.0,0.025,-0.342,-0.082,0.936
1032647,-3030.0,-4428.0,6462.0,0.023,-0.334,-0.067,0.94
1032664,-2700.0,-3522.0,5792.0,0.018,-0.327,-0.047,0.944
1032681,-2570.0,-2324.0,5324.0,0.01,-0.32,-0.025,0.947
1032697,-2624.0,-910.0,4832.0,0.001,-0.313,-0.004,0.95
1032714,-2514.0,2.0,4642.0,0.013,0.304,-0.016,-0.952
1032740,-2510.0,780.0,4792.0,0.03,0.294,-0.034,-0.955
1032756,-2410.0,860.0,5178.0,0.049,0.281,-0.05,-0.957
1032772,-2386.0,1346.0,5458.0,0.071,0.266,-0.065,-0.959
1032788,-2240.0,1544.0,5710.0,0.095,0.249,-0.08,-0.96
1032805,-2064.0,2236.0,6078.0,0.12,0.231,-0.095,-0.961
1032821,-1876.0,2758.0,6716.0,0.144,0.21,-0.11,-0.961
1032847,-1546.0,3442.0,7200.0,0.168,0.189,-0.124,-0.96
1032863,-988.0,4358.0,7604.0,0.192,0.167,-0.137,-0.957
1032879,-806.0,4120.0,8156.0,0.215,0.146,-0.148,-0.954
1032896,-498.0,4008.0,8342.0,0.236,0.127,-0.158,-0.95
1032913,-284.0,4080.0,8702.0,0.256,0.111,-0.169,-0.945
1032930,-326.0,4598.0,9180.0,0.275,0.099,-0.182,-0.939
1032947,-382.0,5200.0,9232.0,0.293,0.09,-0.197,-0.932
1032964,-460.0,6084.0,8938.0,0.309,0.083,-0.211,-0.924
1032981,-288.0,5828.0,8596.0,0.325,0.079,-0.223,-0.916
1032998,-430.0,5844.0,7930.0,0.34,0.077,-0.233,-0.908
1033025,-596.0,5184.0,7526.0,0.353,0.077,-0.242,-0.901
1033041,-1098.0,5326.0,7748.0,0.366,0.079,-0.25,-0.893
1033057,-1688.0,6998.0,8756.0,0.378,0.078,-0.256,-0.886
1033073,-1204.0,5612.0,10630.0,0.389,0.074,-0.264,-0.879
1033089,-930.0,5446.0,12678.0,0.403,0.068,-0.281,-0.868
1033105,966.0,8450.0,10642.0,0.413,0.063,-0.305,-0.856
1033131,2802.0,9536.0,9460.0,0.416,0.058,-0.321,-0.849
1033147,3152.0,8114.0,7460.0,0.415,0.058,-0.325,-0.848
1033163,1902.0,5150.0,6294.0,0.412,0.062,-0.321,-0.85
1033179,740.0,3564.0,6424.0,0.409,0.071,-0.317,-0.853
1033195,-262.0,3208.0,6498.0,0.408,0.082,-0.316,-0.853
1033211,-878.0,3722.0,6550.0,0.407,0.091,-0.32,-0.851
1033228,-926.0,4582.0,6294.0,0.405,0.097,-0.327,-0.848
1033245,-378.0,5640.0,5800.0,0.403,0.1,-0.335,-0.846
1033272,238.0,6704.0,5416.0,0.402,0.098,-0.341,-0.844
1033288,932.0,6524.0,5410.0,0.402,0.094,-0.345,-0.843
1033304,1342.0,5240.0,5498.0,0.401,0.09,-0.348,-0.842
1033321,1636.0,6296.0,5680.0,0.402,0.087,-0.352,-0.841
1033338,1938.0,5940.0,5830.0,0.402,0.084,-0.355,-0.84
1033354,1878.0,6032.0,5916.0,0.402,0.083,-0.357,-0.839
1033370,1842.0,5780.0,6018.0,0.402,0.081,-0.359,-0.839
1033396,1636.0,5616.0,6094.0,0.402,0.08,-0.36,-0.838
1033413,1568.0,5412.0,6062.0,0.402,0.079,-0.362,-0.837
1033429,1378.0,5136.0,5936.0,0.402,0.078,-0.364,-0.836
1033445,1374.0,5692.0,6110.0,0.402,0.077,-0.367,-0.835
1033462,1448.0,6226.0,6810.0,0.402,0.075,-0.37,-0.834
1033479,1068.0,4738.0,5852.0,0.401,0.073,-0.375,-0.833
1033496,952.0,5554.0,5352.0,0.399,0.071,-0.383,-0.83
1033513,1260.0,6378.0,5498.0,0.397,0.07,-0.39,-0.828
1033529,1176.0,6080.0,5902.0,0.395,0.07,-0.394,-0.827
1033555,696.0,6562.0,6092.0,0.392,0.07,-0.396,-0.827
1033571,624.0,5946.0,6952.0,0.387,0.071,-0.399,-0.828
1033587,330.0,6600.0,8484.0,0.383,0.071,-0.399,-0.83
1033604,288.0,5778.0,9728.0,0.38,0.072,-0.396,-0.833
1033620,1016.0,4240.0,10074.0,0.379,0.074,-0.39,-0.836
1033636,1814.0,2696.0,9746.0,0.381,0.08,-0.384,-0.837
1033653,2090.0,2760.0,9640.0,0.385,0.092,-0.379,-0.836
1033679,-204.0,3626.0,9444.0,0.391,0.108,-0.376,-0.833
1033696,-436.0,3328.0,9926.0,0.395,0.126,-0.377,-0.828
1033713,-124.0,5300.0,9518.0,0.4,0.145,-0.378,-0.822
1033730,-460.0,5834.0,8134.0,0.406,0.165,-0.377,-0.816
1033747,106.0,6662.0,7146.0,0.414,0.182,-0.373,-0.81
1033764,832.0,6276.0,7018.0,0.425,0.201,-0.364,-0.804
1033781,966.0,5964.0,6768.0,0.437,0.219,-0.354,-0.797
1033798,334.0,6250.0,5878.0,0.45,0.235,-0.341,-0.791
1033814,116.0,5760.0,4160.0,0.466,0.245,-0.328,-0.785
1033831,832.0,6984.0,2538.0,0.484,0.248,-0.315,-0.778
1033857,1654.0,7862.0,1938.0,0.506,0.244,-0.304,-0.769
1033873,2958.0,9410.0,1832.0,0.529,0.234,-0.294,-0.761
1033889,3834.0,9004.0,1264.0,0.549,0.22,-0.283,-0.755
1033905,4178.0,6964.0,948.0,0.562,0.207,-0.276,-0.752
1033922,4598.0,5228.0,344.0,0.567,0.199,-0.273,-0.751
1033938,3606.0,5566.0,76.0,0.565,0.196,-0.276,-0.753
1033955,2590.0,5566.0,434.0,0.557,0.195,-0.283,-0.756
1033972,2544.0,6026.0,1098.0,0.544,0.193,-0.295,-0.761
1033989,2072.0,6360.0,2190.0,0.529,0.19,-0.309,-0.767
1034006,1694.0,6852.0,3476.0,0.514,0.184,-0.325,-0.772
1034032,1314.0,7238.0,4912.0,0.5,0.174,-0.34,-0.777
1034048,1170.0,7434.0,6082.0,0.487,0.161,-0.352,-0.783
1034064,1572.0,7920.0,6808.0,0.476,0.145,-0.361,-0.789
1034081,2042.0,7632.0,7060.0,0.467,0.128,-0.366,-0.795
1034098,2016.0,6466.0,7150.0,0.461,0.112,-0.367,-0.8
1034114,2092.0,6280.0,7134.0,0.455,0.099,-0.367,-0.805
1034130,2200.0,5382.0,7310.0,0.45,0.089,-0.366,-0.81
1034157,2058.0,5070.0,7510.0,0.446,0.084,-0.364,-0.813
1034173,1740.0,4300.0,7730.0,0.44,0.081,-0.363,-0.817
1034190,1518.0,4084.0,7550.0,0.435,0.082,-0.364,-0.819
1034206,1108.0,3848.0,7376.0,0.43,0.084,-0.366,-0.821
1034223,1104.0,4502.0,7074.0,0.424,0.088,-0.371,-0.821
1034240,786.0,4744.0,6650.0,0.42,0.092,-0.376,-0.821
1034257,464.0,4568.0,6280.0,0.416,0.096,-0.38,-0.821
1034274,-26.0,4388.0,6108.0,0.412,0.099,-0.384,-0.82
1034290,-570.0,4536.0,6204.0,0.408,0.101,-0.389,-0.82
1034316,-956.0,5214.0,6700.0,0.403,0.1,-0.394,-0.82
1034332,-800.0,6640.0,7192.0,0.4,0.096,-0.398,-0.82
1034348,-676.0,6782.0,7260.0,0.397,0.088,-0.399,-0.822
1034365,-276.0,5738.0,7362.0,0.394,0.079,-0.398,-0.825
1034381,-30.0,4848.0,7670.0,0.39,0.071,-0.395,-0.829
1034397,524.0,4236.0,7562.0,0.387,0.064,-0.392,-0.832
1034413,1200.0,4302.0,7472.0,0.383,0.058,-0.39,-0.835
1034439,1412.0,5054.0,7216.0,0.381,0.054,-0.389,-0.837
1034455,1690.0,5578.0,7016.0,0.379,0.049,-0.388,-0.839
1034471,2042.0,5790.0,6800.0,0.378,0.045,-0.386,-0.84
1034487,2238.0,5380.0,6572.0,0.377,0.041,-0.384,-0.842
1034503,2498.0,5222.0,6366.0,0.376,0.039,-0.383,-0.843
1034519,2740.0,5390.0,6170.0,0.375,0.038,-0.383,-0.843
1034545,2826.0,5440.0,5952.0,0.374,0.038,-0.384,-0.843
1034561,2810.0,5472.0,5852.0,0.373,0.039,-0.385,-0.843
1034577,2740.0,5500.0,5776.0,0.373,0.041,-0.386,-0.843
1034593,2634.0,5528.0,5616.0,0.373,0.044,-0.387,-0.842
1034609,2376.0,5516.0,5510.0,0.373,0.046,-0.388,-0.842
1034635,2068.0,5566.0,5562.0,0.374,0.048,-0.388,-0.841
1034651,1872.0,5552.0,5508.0,0.375,0.049,-0.388,-0.84
1034668,1686.0,5692.0,5510.0,0.376,0.049,-0.388,-0.84
1034684,1578.0,5754.0,5556.0,0.377,0.05,-0.388,-0.84
1034700,1452.0,5780.0,5664.0,0.378,0.05,-0.387,-0.839
1034716,1346.0,5796.0,5764.0,0.379,0.05,-0.387,-0.839
1034733,1268.0,5702.0,5778.0,0.38,0.049,-0.386,-0.839
1034750,1112.0,5608.0,5880.0,0.381,0.049,-0.386,-0.839
1034767,1124.0,5688.0,5944.0,0.381,0.049,-0.385,-0.839
1034793,1112.0,5706.0,5960.0,0.38,0.049,-0.385,-0.839
1034810,1184.0,5686.0,5998.0,0.38,0.048,-0.385,-0.84
1034827,1344.0,5504.0,6012.0,0.379,0.047,-0.384,-0.84
1034843,1458.0,5432.0,5992.0,0.379,0.045,-0.384,-0.841
1034859,1608.0,5482.0,6000.0,0.379,0.044,-0.384,-0.841
1034875,1710.0,5456.0,5976.0,0.378,0.043,-0.384,-0.842
1034891,1790.0,5468.0,5914.0,0.377,0.042,-0.383,-0.842
1034918,1886.0,5460.0,5898.0,0.377,0.041,-0.383,-0.842
1034934,1932.0,5556.0,5918.0,0.377,0.04,-0.383,-0.842
1034950,1994.0,5620.0,5948.0,0.376,0.039,-0.383,-0.843
1034967,1968.0,5582.0,5900.0,0.376,0.038,-0.383,-0.843
1034984,1936.0,5632.0,5900.0,0.376,0.038,-0.383,-0.843
1035001,1960.0,5666.0,5906.0,0.376,0.037,-0.383,-0.843
1035017,1826.0,5556.0,5848.0,0.376,0.037,-0.382,-0.844
1035033,1774.0,5448.0,5958.0,0.376,0.036,-0.381,-0.844
1035050,1796.0,5372.0,5938.0,0.375,0.036,-0.381,-0.844
1035076,1754.0,5400.0,5984.0,0.375,0.035,-0.381,-0.844
1035093,1672.0,5434.0,5996.0,0.375,0.035,-0.381,-0.844
1035110,1676.0,5490.0,5996.0,0.375,0.035,-0.381,-0.845
1035127,1686.0,5490.0,6014.0,0.375,0.034,-0.381,-0.845
1035144,1712.0,5436.0,6026.0,0.374,0.034,-0.381,-0.845
1035161,1732.0,5458.0,5988.0,0.374,0.033,-0.381,-0.845
1035177,1716.0,5430.0,5980.0,0.374,0.033,-0.381,-0.845
1035194,1786.0,5458.0,6004.0,0.374,0.033,-0.381,-0.845
1035211,1814.0,5580.0,5958.0,0.374,0.032,-0.381,-0.845
1035228,1852.0,5560.0,5952.0,0.373,0.032,-0.381,-0.845
1035245,1912.0,5506.0,5908.0,0.373,0.032,-0.381,-0.845
1035272,1950.0,5500.0,5914.0,0.373,0.031,-0.381,-0.846
1035289,1912.0,5468.0,5938.0,0.373,0.031,-0.381,-0.846
1035306,1856.0,5564.0,5900.0,0.372,0.031,-0.38,-0.846
1035322,1794.0,5434.0,5886.0,0.372,0.03,-0.38,-0.846
1035339,1734.0,5390.0,5972.0,0.372,0.03,-0.379,-0.847
1035356,1816.0,5370.0,5962.0,0.372,0.029,-0.379,-0.847
1035372,1840.0,5452.0,5994.0,0.371,0.029,-0.379,-0.847
1035389,1794.0,5464.0,6020.0,0.371,0.029,-0.379,-0.847
1035406,1860.0,5454.0,6056.0,0.371,0.028,-0.379,-0.847
1035423,1858.0,5406.0,6062.0,0.37,0.028,-0.379,-0.847
1035440,1880.0,5320.0,6048.0,0.37,0.028,-0.379,-0.848
1035466,1860.0,5344.0,6044.0,0.37,0.027,-0.379,-0.848
1035482,1836.0,5398.0,6066.0,0.37,0.027,-0.379,-0.848
1035499,1908.0,5440.0,6050.0,0.37,0.027,-0.379,-0.848
1035515,1942.0,5488.0,5984.0,0.37,0.027,-0.379,-0.848
1035532,1922.0,5516.0,5996.0,0.369,0.027,-0.379,-0.848
1035548,1886.0,5494.0,5910.0,0.369,0.027,-0.379,-0.848
1035565,1858.0,5514.0,5978.0,0.369,0.027,-0.379,-0.848
1035582,1812.0,5460.0,5920.0,0.369,0.027,-0.379,-0.848
1035599,1806.0,5482.0,5926.0,0.368,0.027,-0.379,-0.848
1035625,1846.0,5378.0,5978.0,0.368,0.027,-0.379,-0.849
1035641,1830.0,5408.0,5986.0,0.368,0.026,-0.379,-0.849
1035657,1818.0,5418.0,6006.0,0.368,0.026,-0.379,-0.849
1035674,1852.0,5378.0,6018.0,0.368,0.026,-0.379,-0.849
1035691,1846.0,5420.0,6010.0,0.367,0.026,-0.379,-0.849
1035707,1826.0,5466.0,6036.0,0.367,0.026,-0.379,-0.849
1035724,1836.0,5452.0,5974.0,0.367,0.026,-0.379,-0.849
1035741,1874.0,5466.0,5984.0,0.367,0.026,-0.379,-0.849
1035767,1820.0,5444.0,5950.0,0.366,0.026,-0.379,-0.85
1035783,1836.0,5396.0,5962.0,0.366,0.026,-0.379,-0.85
1035799,1870.0,5444.0,5988.0,0.366,0.026,-0.379,-0.85
1035816,1842.0,5444.0,5974.0,0.366,0.026,-0.379,-0.85
1035833,1850.0,5406.0,5994.0,0.365,0.026,-0.379,-0.85
1035849,1820.0,5428.0,6048.0,0.365,0.026,-0.379,-0.85
1035865,1842.0,5494.0,6016.0,0.365,0.025,-0.379,-0.85
1035891,1886.0,5504.0,5974.0,0.365,0.025,-0.378,-0.85
1035908,1872.0,5462.0,6034.0,0.365,0.025,-0.378,-0.851
1035925,1870.0,5490.0,6084.0,0.364,0.025,-0.378,-0.851
1035942,1892.0,5420.0,6010.0,0.364,0.025,-0.378,-0.851
1035959,1924.0,5398.0,5974.0,0.364,0.025,-0.378,-0.851
1035976,1832.0,5370.0,6000.0,0.363,0.025,-0.378,-0.851
1035993,1796.0,5422.0,5960.0,0.363,0.025,-0.378,-0.851
1036010,1784.0,5360.0,5906.0,0.363,0.026,-0.378,-0.851
1036026,1784.0,5408.0,5940.0,0.363,0.026,-0.378,-0.851
1036043,1796.0,5460.0,5948.0,0.362,0.026,-0.378,-0.851
1036060,1780.0,5468.0,6032.0,0.362,0.026,-0.378,-0.852
1036077,1772.0,5490.0,5974.0,0.362,0.025,-0.378,-0.852
1036104,1882.0,5492.0,5976.0,0.362,0.025,-0.378,-0.852
1036120,1792.0,5488.0,5978.0,0.361,0.025,-0.378,-0.852
1036136,1816.0,5382.0,6044.0,0.361,0.025,-0.378,-0.852
1036152,1800.0,5402.0,5994.0,0.361,0.025,-0.378,-0.852
1036168,1806.0,5390.0,5976.0,0.361,0.025,-0.378,-0.852
1036185,1826.0,5428.0,5988.0,0.36,0.025,-0.378,-0.853
1036201,1856.0,5470.0,6008.0,0.36,0.025,-0.378,-0.853
1036227,1852.0,5474.0,5946.0,0.36,0.025,-0.378,-0.853
1036243,1850.0,5530.0,5954.0,0.36,0.025,-0.378,-0.853
1036259,1868.0,5480.0,5974.0,0.359,0.025,-0.378,-0.853
1036275,1834.0,5476.0,5968.0,0.359,0.025,-0.378,-0.853
1036291,1816.0,5482.0,5984.0,0.359,0.025,-0.378,-0.853
1036307,1834.0,5408.0,5976.0,0.358,0.025,-0.378,-0.853
1036333,1784.0,5542.0,5970.0,0.358,0.025,-0.378,-0.854
1036349,1870.0,5578.0,6012.0,0.358,0.024,-0.377,-0.854
1036365,1850.0,5420.0,5972.0,0.357,0.024,-0.377,-0.854
1036381,1750.0,5260.0,5938.0,0.357,0.024,-0.377,-0.854
1036397,1666.0,5144.0,5934.0,0.357,0.024,-0.376,-0.855
1036413,1626.0,5228.0,5994.0,0.357,0.024,-0.377,-0.855
1036439,1696.0,5398.0,5942.0,0.357,0.024,-0.377,-0.855
1036456,1762.0,5538.0,5988.0,0.356,0.023,-0.377,-0.855
1036473,1850.0,5548.0,6038.0,0.356,0.023,-0.377,-0.855
1036489,1918.0,5550.0,6062.0,0.356,0.022,-0.377,-0.855
1036505,1994.0,5534.0,6098.0,0.356,0.022,-0.377,-0.855
1036522,1940.0,5422.0,6014.0,0.355,0.022,-0.376,-0.855
1036539,1898.0,5350.0,6094.0,0.355,0.022,-0.376,-0.855
1036556,1852.0,5328.0,6046.0,0.355,0.022,-0.376,-0.856
1036573,1812.0,5272.0,6046.0,0.355,0.022,-0.376,-0.856
1036590,1762.0,5306.0,5976.0,0.355,0.021,-0.376,-0.856
1036617,1820.0,5340.0,5974.0,0.355,0.021,-0.376,-0.856
1036633,1758.0,5344.0,5952.0,0.355,0.021,-0.376,-0.856
1036650,1788.0,5268.0,5960.0,0.355,0.021,-0.377,-0.855
1036667,1814.0,5366.0,5934.0,0.355,0.021,-0.377,-0.855
1036684,1864.0,5434.0,5984.0,0.355,0.021,-0.378,-0.855
1036700,1900.0,5494.0,6040.0,0.355,0.021,-0.378,-0.855
1036716,1894.0,5528.0,6082.0,0.355,0.02,-0.378,-0.855
1036732,1890.0,5490.0,6066.0,0.355,0.02,-0.378,-0.855
1036759,1886.0,5406.0,6042.0,0.355,0.02,-0.378,-0.855
1036776,1892.0,5400.0,6054.0,0.355,0.02,-0.379,-0.855
1036793,1814.0,5444.0,5974.0,0.355,0.02,-0.379,-0.855
1036810,1812.0,5440.0,5902.0,0.355,0.02,-0.379,-0.855
1036826,1854.0,5420.0,5882.0,0.355,0.02,-0.379,-0.855
1036843,1864.0,5356.0,5952.0,0.354,0.02,-0.379,-0.855
1036859,1822.0,5506.0,5920.0,0.354,0.02,-0.379,-0.854
1036876,1900.0,5526.0,5968.0,0.354,0.02,-0.379,-0.854
1036893,1936.0,5478.0,5970.0,0.354,0.019,-0.38,-0.855
1036910,1874.0,5520.0,5976.0,0.354,0.019,-0.379,-0.855
1036927,1956.0,5472.0,6010.0,0.354,0.019,-0.379,-0.855
1036944,1964.0,5456.0,5940.0,0.354,0.019,-0.379,-0.855
1036971,1950.0,5436.0,5942.0,0.353,0.019,-0.379,-0.855
1036988,1882.0,5438.0,5990.0,0.353,0.019,-0.379,-0.855
1037005,1892.0,5442.0,5988.0,0.353,0.018,-0.379,-0.855
1037021,1936.0,5458.0,5962.0,0.353,0.018,-0.379,-0.855
1037038,1846.0,5388.0,5962.0,0.352,0.018,-0.379,-0.855
1037055,1926.0,5392.0,5974.0,0.352,0.018,-0.379,-0.856
1037072,1864.0,5412.0,6000.0,0.352,0.018,-0.379,-0.856
1037089,1890.0,5416.0,5972.0,0.352,0.018,-0.379,-0.856
1037106,1954.0,5498.0,6008.0,0.352,0.018,-0.379,-0.856
1037123,1936.0,5490.0,6038.0,0.352,0.018,-0.379,-0.856
1037139,1976.0,5468.0,5970.0,0.351,0.018,-0.379,-0.856
1037166,1888.0,5470.0,5974.0,0.351,0.018,-0.379,-0.856
1037182,1896.0,5418.0,5994.0,0.351,0.018,-0.379,-0.856
1037198,1918.0,5464.0,6042.0,0.351,0.018,-0.379,-0.856
1037215,1978.0,5600.0,5918.0,0.35,0.018,-0.379,-0.856
1037232,1956.0,5582.0,5974.0,0.35,0.018,-0.379,-0.856
1037249,2016.0,5720.0,5946.0,0.35,0.018,-0.379,-0.857
1037266,2030.0,5678.0,5946.0,0.349,0.019,-0.379,-0.857
1037283,1940.0,5472.0,5974.0,0.349,0.019,-0.378,-0.857
1037299,1850.0,5356.0,5992.0,0.348,0.019,-0.378,-0.858
1037325,1866.0,5316.0,5980.0,0.347,0.019,-0.377,-0.858
1037342,1734.0,5300.0,6032.0,0.347,0.02,-0.377,-0.858
1037359,1674.0,5218.0,6032.0,0.347,0.02,-0.377,-0.859
1037376,1748.0,5158.0,5986.0,0.347,0.02,-0.377,-0.859
1037393,1724.0,5238.0,6008.0,0.347,0.02,-0.377,-0.859
1037410,1764.0,5330.0,6048.0,0.347,0.02,-0.377,-0.859
1037427,1796.0,5436.0,6052.0,0.347,0.02,-0.377,-0.859
1037443,1762.0,5484.0,6038.0,0.346,0.02,-0.377,-0.859
1037460,1832.0,5492.0,5996.0,0.346,0.02,-0.377,-0.859
1037477,1812.0,5576.0,5992.0,0.346,0.021,-0.378,-0.859
1037493,1836.0,5586.0,5992.0,0.346,0.021,-0.378,-0.859
1037519,1920.0,5568.0,5958.0,0.345,0.021,-0.378,-0.859
1037535,1896.0,5578.0,5982.0,0.345,0.021,-0.378,-0.859
1037551,1858.0,5576.0,6014.0,0.345,0.021,-0.378,-0.859
1037567,1842.0,5494.0,5942.0,0.344,0.021,-0.377,-0.859
1037583,1740.0,5386.0,5874.0,0.344,0.021,-0.377,-0.86
1037599,1696.0,5348.0,5924.0,0.344,0.022,-0.377,-0.86
1037625,1654.0,5350.0,5974.0,0.343,0.022,-0.377,-0.86
1037641,1662.0,5358.0,5982.0,0.343,0.022,-0.377,-0.86
1037658,1700.0,5322.0,5986.0,0.343,0.022,-0.377,-0.86
1037674,1732.0,5398.0,5960.0,0.343,0.022,-0.377,-0.86
1037690,1614.0,5408.0,6020.0,0.343,0.022,-0.377,-0.86
1037707,1740.0,5458.0,5982.0,0.343,0.021,-0.377,-0.86
1037724,1786.0,5568.0,5964.0,0.342,0.021,-0.377,-0.86
1037750,1814.0,5574.0,5956.0,0.342,0.021,-0.377,-0.86
1037766,1806.0,5504.0,5976.0,0.342,0.021,-0.377,-0.861
1037782,1840.0,5408.0,5946.0,0.341,0.02,-0.377,-0.861
1037799,1784.0,5436.0,5996.0,0.341,0.02,-0.377,-0.861
1037815,1860.0,5462.0,6000.0,0.341,0.02,-0.377,-0.861
1037832,1820.0,5474.0,5972.0,0.341,0.02,-0.377,-0.861
1037848,1820.0,5492.0,6034.0,0.341,0.02,-0.377,-0.861
1037874,1802.0,5502.0,5996.0,0.34,0.019,-0.377,-0.861
1037892,1858.0,5536.0,6012.0,0.34,0.019,-0.377,-0.861
1037909,1820.0,5446.0,6004.0,0.34,0.019,-0.377,-0.861
1037927,1722.0,5390.0,6026.0,0.34,0.019,-0.377,-0.862
1037944,1754.0,5418.0,5992.0,0.339,0.019,-0.377,-0.862
1037961,1748.0,5424.0,5998.0,0.339,0.019,-0.377,-0.862
1037978,1764.0,5510.0,5998.0,0.339,0.019,-0.377,-0.862
1037994,1808.0,5530.0,5982.0,0.339,0.019,-0.377,-0.862
1038010,1854.0,5536.0,6018.0,0.339,0.019,-0.377,-0.862
1038026,1902.0,5732.0,6050.0,0.338,0.019,-0.377,-0.862
1038042,1982.0,5856.0,6152.0,0.338,0.019,-0.376,-0.862
1038068,2208.0,5872.0,6202.0,0.337,0.019,-0.376,-0.863
1038084,2280.0,5734.0,6238.0,0.335,0.02,-0.377,-0.863
1038100,2352.0,5708.0,6444.0,0.333,0.023,-0.379,-0.863
1038116,2454.0,5614.0,6504.0,0.33,0.029,-0.383,-0.862
1038132,2148.0,6184.0,6374.0,0.326,0.038,-0.391,-0.86
1038148,1820.0,7404.0,6532.0,0.32,0.05,-0.399,-0.858
1038174,1490.0,8236.0,6660.0,0.314,0.062,-0.407,-0.855
1038190,1452.0,8200.0,6098.0,0.307,0.075,-0.414,-0.854
1038207,1044.0,8726.0,6052.0,0.3,0.088,-0.419,-0.853
1038223,666.0,9646.0,6046.0,0.293,0.101,-0.419,-0.854
1038239,460.0,9176.0,6176.0,0.286,0.113,-0.414,-0.857
1038255,256.0,7916.0,6002.0,0.279,0.123,-0.407,-0.861
1038281,250.0,6796.0,5694.0,0.271,0.133,-0.399,-0.866
1038297,24.0,5630.0,5382.0,0.262,0.145,-0.393,-0.869
1038313,-450.0,5470.0,5012.0,0.251,0.157,-0.39,-0.872
1038329,-766.0,6036.0,4574.0,0.238,0.171,-0.39,-0.873
1038345,-1232.0,6134.0,4212.0,0.225,0.184,-0.39,-0.874
1038361,-1758.0,5652.0,3904.0,0.212,0.197,-0.389,-0.875
1038387,-2368.0,5702.0,3830.0,0.198,0.208,-0.388,-0.876
1038404,-2620.0,5242.0,3674.0,0.185,0.216,-0.388,-0.877
1038420,-2678.0,4824.0,3426.0,0.172,0.221,-0.386,-0.879
1038437,-2700.0,4582.0,3526.0,0.16,0.225,-0.385,-0.881
1038454,-2702.0,3860.0,3780.0,0.148,0.227,-0.384,-0.883
1038471,-2592.0,3966.0,4060.0,0.137,0.229,-0.384,-0.884
1038488,-2840.0,3496.0,4024.0,0.126,0.229,-0.386,-0.885
1038505,-2838.0,3168.0,4018.0,0.117,0.229,-0.389,-0.884
1038521,-2676.0,4040.0,3772.0,0.108,0.228,-0.394,-0.884
1038537,-1772.0,4072.0,5290.0,0.103,0.227,-0.395,-0.884
1038564,-1042.0,2812.0,7244.0,0.104,0.224,-0.392,-0.886
1038580,-1738.0,2572.0,7014.0,0.108,0.221,-0.389,-0.888
1038596,-938.0,2308.0,6486.0,0.111,0.22,-0.392,-0.886
1038612,-492.0,5152.0,6014.0,0.113,0.221,-0.4,-0.882
1038628,-2246.0,8120.0,4692.0,0.116,0.224,-0.406,-0.878
1038644,-2886.0,9130.0,3070.0,0.116,0.225,-0.409,-0.877
1038661,-2998.0,9586.0,2916.0,0.116,0.224,-0.409,-0.877
1038688,-2466.0,8240.0,3754.0,0.116,0.223,-0.406,-0.879
1038705,-2118.0,5642.0,4980.0,0.116,0.22,-0.402,-0.881
1038721,-1988.0,5402.0,5732.0,0.114,0.22,-0.401,-0.882
1038738,-3074.0,8056.0,4746.0,0.112,0.221,-0.401,-0.882
1038754,-2676.0,8418.0,4850.0,0.11,0.221,-0.398,-0.884
1038771,-2310.0,6546.0,6088.0,0.108,0.222,-0.395,-0.885
1038788,-2402.0,5386.0,6234.0,0.105,0.226,-0.394,-0.885
1038805,-2098.0,6650.0,5922.0,0.103,0.229,-0.393,-0.884
1038822,-3074.0,7746.0,6384.0,0.101,0.233,-0.391,-0.885
1038839,-3184.0,7744.0,7298.0,0.099,0.236,-0.387,-0.886
1038865,-2988.0,9782.0,3560.0,0.095,0.235,-0.38,-0.889
1038882,-1820.0,3284.0,8666.0,0.091,0.235,-0.374,-0.892
1038899,-4036.0,10016.0,7496.0,0.085,0.236,-0.367,-0.896
1038915,-2892.0,5778.0,7878.0,0.081,0.237,-0.356,-0.9
1038932,-3782.0,6506.0,7634.0,0.078,0.239,-0.344,-0.905
1038949,-4160.0,6994.0,7334.0,0.075,0.241,-0.331,-0.909
1038965,-4154.0,6952.0,7116.0,0.072,0.244,-0.319,-0.913
1038981,-4170.0,6974.0,7212.0,0.069,0.248,-0.306,-0.917
1039007,-4080.0,6902.0,7790.0,0.065,0.252,-0.292,-0.92
1039024,-4088.0,6838.0,7974.0,0.062,0.258,-0.276,-0.924
1039042,-4158.0,6374.0,7864.0,0.059,0.263,-0.257,-0.928
1039059,-4174.0,6026.0,7452.0,0.056,0.269,-0.236,-0.932
1039076,-4110.0,5004.0,7090.0,0.052,0.275,-0.214,-0.936
1039093,-4132.0,4482.0,7266.0,0.048,0.282,-0.192,-0.939
1039110,-4202.0,4058.0,7592.0,0.043,0.289,-0.17,-0.941
1039127,-4174.0,2878.0,7592.0,0.039,0.297,-0.147,-0.943
1039144,-4098.0,1766.0,7362.0,0.035,0.305,-0.125,-0.943
1039161,-4180.0,1574.0,7210.0,0.031,0.315,-0.104,-0.943
1039178,-4762.0,1808.0,6402.0,0.026,0.327,-0.085,-0.941
1039195,-5030.0,1536.0,5834.0,0.022,0.339,-0.066,-0.938
1039212,-5258.0,-818.0,5736.0,0.017,0.353,-0.05,-0.934
1039229,-6326.0,-156.0,5700.0,0.011,0.367,-0.038,-0.929
1039245,-5928.0,2306.0,6070.0,0.006,0.382,-0.026,-0.924
1039272,-6398.0,2204.0,6982.0,0.002,0.396,-0.009,-0.918
1039289,-5608.0,278.0,5374.0,0.0,0.41,0.008,-0.912
1039306,-5926.0,180.0,5092.0,0.003,-0.424,-0.024,0.906
1039323,-5384.0,-784.0,4078.0,0.007,-0.437,-0.038,0.899
1039340,-6508.0,-588.0,4888.0,0.012,-0.45,-0.048,0.892
1039358,-6344.0,1364.0,5038.0,0.017,-0.462,-0.059,0.885
1039376,-6128.0,-218.0,5410.0,0.02,-0.474,-0.072,0.877
1039393,-6656.0,1188.0,4732.0,0.023,-0.487,-0.085,0.869
1039410,-6850.0,750.0,4138.0,0.025,-0.499,-0.099,0.861
1039427,-6738.0,124.0,6146.0,0.032,-0.509,-0.111,0.853
1039444,-7008.0,-618.0,2144.0,0.033,-0.52,-0.132,0.843
1039461,-8358.0,32.0,1112.0,0.04,-0.531,-0.144,0.834
1039478,-7824.0,-3840.0,1436.0,0.047,-0.54,-0.157,0.826
1039495,-8602.0,-5204.0,2608.0,0.059,-0.547,-0.162,0.819
1039512,-9094.0,-2854.0,2788.0,0.072,-0.553,-0.164,0.814
1039529,-9208.0,-2288.0,2560.0,0.083,-0.557,-0.168,0.809
1039555,-8774.0,-2788.0,1030.0,0.094,-0.558,-0.17,0.807
1039571,-8334.0,-4102.0,1252.0,0.107,-0.558,-0.169,0.806
1039588,-7992.0,-2488.0,2366.0,0.122,-0.556,-0.163,0.805
1039605,-7674.0,-1814.0,3608.0,0.138,-0.554,-0.158,0.806
1039621,-7608.0,222.0,3168.0,0.151,-0.552,-0.155,0.805
1039637,-7176.0,1414.0,3142.0,0.161,-0.551,-0.16,0.803
1039654,-6654.0,-1734.0,3744.0,0.17,-0.551,-0.168,0.8
1039670,-7234.0,-2200.0,3356.0,0.18,-0.551,-0.177,0.796
1039696,-5998.0,-2850.0,3014.0,0.19,-0.55,-0.185,0.792
1039712,-6156.0,-2596.0,2614.0,0.2,-0.55,-0.192,0.788
1039729,-5994.0,-2690.0,1542.0,0.21,-0.549,-0.198,0.785
1039746,-6512.0,-3706.0,1840.0,0.219,-0.548,-0.203,0.782
1039762,-6704.0,-4220.0,2188.0,0.229,-0.546,-0.208,0.779
1039779,-5810.0,-3348.0,2400.0,0.239,-0.543,-0.215,0.775
1039796,-6130.0,-4040.0,2380.0,0.247,-0.541,-0.221,0.773
1039812,-6190.0,-3724.0,2204.0,0.253,-0.538,-0.226,0.772
1039838,-6022.0,-4488.0,2156.0,0.258,-0.536,-0.231,0.77
1039854,-5992.0,-4780.0,2464.0,0.263,-0.533,-0.237,0.768
1039871,-5726.0,-4482.0,1768.0,0.266,-0.531,-0.243,0.767
1039888,-5242.0,-3912.0,1614.0,0.268,-0.529,-0.251,0.765
1039905,-5270.0,-4278.0,1530.0,0.268,-0.528,-0.26,0.763
1039922,-5228.0,-4830.0,1238.0,0.267,-0.526,-0.27,0.761
1039939,-4690.0,-5982.0,926.0,0.265,-0.524,-0.281,0.759
1039956,-4274.0,-5952.0,730.0,0.264,-0.521,-0.29,0.758
1039973,-4456.0,-6182.0,814.0,0.264,-0.518,-0.298,0.757
1039989,-4126.0,-5812.0,1538.0,0.265,-0.514,-0.305,0.756
1040006,-4162.0,-4592.0,1678.0,0.265,-0.511,-0.312,0.756
1040033,-4246.0,-5458.0,2018.0,0.263,-0.508,-0.321,0.755
1040049,-3940.0,-5902.0,2098.0,0.261,-0.505,-0.332,0.753
1040065,-3804.0,-5482.0,1462.0,0.26,-0.502,-0.342,0.751
1040082,-3686.0,-6246.0,1316.0,0.26,-0.499,-0.352,0.748
1040099,-3684.0,-6070.0,1428.0,0.261,-0.496,-0.362,0.745
1040115,-3550.0,-6586.0,1514.0,0.261,-0.492,-0.373,0.742
1040131,-3468.0,-6664.0,1378.0,0.261,-0.489,-0.384,0.739
1040157,-3106.0,-6120.0,668.0,0.26,-0.486,-0.394,0.736
1040174,-3458.0,-7894.0,1356.0,0.258,-0.483,-0.405,0.733
1040190,-3276.0,-7780.0,962.0,0.257,-0.479,-0.414,0.731
1040207,-3350.0,-8056.0,1876.0,0.256,-0.475,-0.422,0.728
1040224,-3196.0,-6086.0,1194.0,0.254,-0.472,-0.432,0.726
1040241,-3056.0,-6860.0,1154.0,0.252,-0.469,-0.443,0.721
1040258,-2764.0,-7248.0,1346.0,0.249,-0.465,-0.456,0.716
1040274,-2976.0,-8300.0,1684.0,0.246,-0.463,-0.469,0.711
1040290,-2914.0,-8380.0,988.0,0.244,-0.459,-0.479,0.707
1040316,-2510.0,-8068.0,324.0,0.243,-0.456,-0.486,0.705
1040333,-2358.0,-8344.0,424.0,0.242,-0.453,-0.491,0.703
1040350,-2394.0,-8852.0,948.0,0.241,-0.451,-0.496,0.702
1040367,-2148.0,-8750.0,1018.0,0.239,-0.449,-0.499,0.701
1040384,-2156.0,-7818.0,424.0,0.237,-0.447,-0.503,0.701
1040400,-2358.0,-8292.0,-84.0,0.233,-0.444,-0.508,0.701
1040416,-2164.0,-8642.0,1020.0,0.233,-0.437,-0.509,0.704
1040432,-1860.0,-8564.0,1278.0,0.234,-0.43,-0.507,0.709
1040449,-1750.0,-9926.0,1640.0,0.237,-0.424,-0.499,0.717
1040475,-1704.0,-6648.0,-192.0,0.242,-0.418,-0.49,0.726
1040492,-2440.0,-60.0,-1824.0,0.243,-0.411,-0.49,0.729
1040509,-2600.0,-980.0,-1888.0,0.234,-0.405,-0.51,0.722
1040526,-1888.0,-8824.0,484.0,0.224,-0.399,-0.532,0.712
1040543,-3882.0,-6414.0,-740.0,0.218,-0.389,-0.548,0.708
1040560,-3710.0,-7606.0,-390.0,0.211,-0.382,-0.563,0.702
1040577,-4086.0,-7532.0,-380.0,0.203,-0.374,-0.577,0.697
1040594,-1284.0,-18368.0,8012.0,0.195,-0.376,-0.579,0.697
1040611,-4364.0,-10058.0,6986.0,0.202,-0.377,-0.568,0.703
1040628,-3676.0,-2008.0,1178.0,0.203,-0.383,-0.568,0.699
1040645,-3742.0,-6256.0,140.0,0.195,-0.392,-0.579,0.688
1040662,-3760.0,-8392.0,-988.0,0.185,-0.401,-0.59,0.676
1040679,-3334.0,-9390.0,-1878.0,0.176,-0.407,-0.6,0.666
1040705,-1940.0,-6734.0,-884.0,0.168,-0.412,-0.609,0.657
1040721,328.0,-3938.0,426.0,0.163,-0.415,-0.619,0.647
1040738,1278.0,-7152.0,592.0,0.163,-0.416,-0.631,0.635
1040754,-1260.0,-10448.0,958.0,0.163,-0.415,-0.638,0.628
1040770,-1908.0,-9114.0,114.0,0.165,-0.413,-0.644,0.623
1040786,-2460.0,-8716.0,-1036.0,0.167,-0.409,-0.65,0.619
1040803,-1906.0,-8782.0,-1566.0,0.168,-0.407,-0.655,0.614
1040830,-2558.0,-6404.0,-3286.0,0.173,-0.403,-0.659,0.611
1040846,-2016.0,-4614.0,-2454.0,0.181,-0.398,-0.662,0.61
1040862,-2240.0,-7086.0,640.0,0.187,-0.394,-0.663,0.609
1040878,-1628.0,-9350.0,336.0,0.195,-0.39,-0.664,0.608
1040895,-1298.0,-8998.0,-920.0,0.202,-0.385,-0.665,0.607
1040912,-1608.0,-7882.0,-1206.0,0.209,-0.381,-0.667,0.606
1040928,-1410.0,-8812.0,-272.0,0.215,-0.378,-0.669,0.603
1040954,-972.0,-6948.0,-1148.0,0.221,-0.374,-0.672,0.6
1040970,-1390.0,-7640.0,-484.0,0.226,-0.371,-0.674,0.597
1040987,-1212.0,-7220.0,-896.0,0.231,-0.369,-0.678,0.592
1041004,-990.0,-7904.0,-1192.0,0.234,-0.367,-0.684,0.586
1041021,-1272.0,-8710.0,-1014.0,0.236,-0.366,-0.689,0.579
1041038,-1638.0,-7776.0,-786.0,0.24,-0.364,-0.693,0.574
1041055,-994.0,-7210.0,-1726.0,0.245,-0.361,-0.698,0.568
1041072,-616.0,-7270.0,-1936.0,0.249,-0.358,-0.702,0.563
1041089,-340.0,-7658.0,-1992.0,0.253,-0.356,-0.707,0.556
1041106,-310.0,-6010.0,-3120.0,0.255,-0.352,-0.714,0.549
1041123,-110.0,-7494.0,-2800.0,0.258,-0.348,-0.72,0.541
1041140,296.0,-7588.0,-3302.0,0.262,-0.344,-0.725,0.536
1041157,436.0,-8670.0,-3184.0,0.267,-0.338,-0.728,0.534
1041184,368.0,-8310.0,-2994.0,0.274,-0.332,-0.729,0.533
1041200,-62.0,-7166.0,-2580.0,0.281,-0.324,-0.73,0.533
1041216,148.0,-7230.0,-2246.0,0.287,-0.317,-0.73,0.533
1041232,612.0,-8230.0,-2108.0,0.294,-0.309,-0.729,0.535
1041249,818.0,-7692.0,-1960.0,0.301,-0.302,-0.729,0.536
1041265,584.0,-7596.0,-1876.0,0.307,-0.295,-0.729,0.536
1041281,466.0,-7748.0,-1496.0,0.313,-0.288,-0.731,0.535
1041307,594.0,-7738.0,-1358.0,0.319,-0.281,-0.732,0.533
1041323,708.0,-7904.0,-1202.0,0.325,-0.274,-0.734,0.53
1041339,962.0,-7752.0,-1324.0,0.331,-0.267,-0.736,0.527
1041355,1470.0,-7846.0,-1482.0,0.336,-0.261,-0.738,0.523
1041372,1752.0,-8100.0,-1594.0,0.342,-0.255,-0.742,0.517
1041388,1866.0,-7952.0,-2014.0,0.347,-0.249,-0.746,0.51
1041414,2054.0,-7678.0,-2260.0,0.352,-0.242,-0.751,0.504
1041430,2242.0,-7914.0,-2566.0,0.355,-0.235,-0.756,0.497
1041446,2748.0,-7990.0,-2570.0,0.358,-0.228,-0.761,0.491
1041462,3184.0,-8530.0,-2392.0,0.362,-0.222,-0.764,0.486
1041478,3194.0,-7852.0,-2198.0,0.365,-0.215,-0.767,0.482
1041494,3246.0,-8104.0,-2030.0,0.367,-0.208,-0.77,0.478
1041511,3514.0,-8410.0,-2050.0,0.369,-0.202,-0.774,0.473
1041537,3794.0,-9006.0,-2114.0,0.371,-0.197,-0.777,0.469
1041553,3954.0,-9322.0,-2420.0,0.372,-0.191,-0.78,0.466
1041570,4016.0,-10378.0,-2216.0,0.374,-0.186,-0.781,0.464
1041586,3664.0,-10582.0,-1980.0,0.376,-0.181,-0.782,0.463
1041602,3494.0,-10966.0,-2210.0,0.376,-0.178,-0.783,0.462
1041618,3090.0,-10920.0,-1926.0,0.374,-0.178,-0.784,0.462
1041644,3570.0,-11714.0,-1982.0,0.369,-0.18,-0.785,0.464
1041660,3748.0,-11930.0,-1780.0,0.362,-0.185,-0.785,0.467
1041677,4070.0,-11454.0,-2376.0,0.355,-0.19,-0.785,0.471
1041694,3624.0,-11784.0,-2464.0,0.349,-0.197,-0.783,0.476
1041711,3768.0,-10314.0,-3500.0,0.343,-0.203,-0.78,0.483
1041728,3034.0,-9108.0,-3378.0,0.337,-0.21,-0.777,0.489
1041745,2592.0,-9160.0,-3356.0,0.329,-0.218,-0.773,0.497
1041761,2412.0,-8904.0,-2834.0,0.322,-0.225,-0.768,0.506
1041777,2180.0,-8006.0,-2432.0,0.313,-0.233,-0.763,0.516
1041803,1942.0,-7786.0,-2254.0,0.304,-0.241,-0.758,0.525
1041820,1916.0,-8044.0,-2282.0,0.295,-0.25,-0.753,0.533
1041836,2004.0,-8352.0,-2604.0,0.287,-0.259,-0.749,0.539
1041852,1620.0,-8966.0,-2686.0,0.282,-0.266,-0.744,0.545
1041869,336.0,-6230.0,-850.0,0.276,-0.272,-0.737,0.553
1041885,-128.0,-5718.0,-1292.0,0.267,-0.28,-0.733,0.559
1041902,-182.0,-8012.0,-1562.0,0.256,-0.288,-0.73,0.564
1041919,384.0,-8988.0,-1648.0,0.246,-0.296,-0.726,0.57
1041945,222.0,-8752.0,-1324.0,0.238,-0.303,-0.72,0.577
1041961,-772.0,-6736.0,-702.0,0.229,-0.309,-0.716,0.583
1041977,-890.0,-6894.0,-918.0,0.216,-0.316,-0.714,0.586
1041993,-820.0,-8090.0,-1382.0,0.203,-0.323,-0.712,0.59
1042009,-1136.0,-7540.0,-1892.0,0.19,-0.328,-0.711,0.592
1042026,-1120.0,-6834.0,-1742.0,0.177,-0.333,-0.711,0.594
1042042,-822.0,-5224.0,-1972.0,0.163,-0.337,-0.711,0.595
1042068,-256.0,-6248.0,-2416.0,0.147,-0.342,-0.711,0.596
1042085,-480.0,-7448.0,-1920.0,0.134,-0.345,-0.71,0.599
1042101,-1092.0,-6198.0,-1266.0,0.123,-0.347,-0.709,0.601
1042117,-1384.0,-4626.0,-950.0,0.113,-0.349,-0.71,0.601
1042133,-1206.0,-4610.0,-1226.0,0.103,-0.35,-0.712,0.601
1042149,-502.0,-4410.0,-1840.0,0.096,-0.351,-0.711,0.602
1042175,-240.0,-4578.0,-2104.0,0.093,-0.352,-0.707,0.607
1042192,-102.0,-4642.0,-1710.0,0.096,-0.352,-0.699,0.614
1042209,-320.0,-3630.0,-970.0,0.103,-0.352,-0.691,0.623
1042226,-296.0,-4334.0,-460.0,0.112,-0.35,-0.684,0.63
1042243,-546.0,-4850.0,82.0,0.121,-0.346,-0.68,0.634
1042260,-904.0,-4544.0,-112.0,0.132,-0.342,-0.678,0.637
1042277,-1678.0,-3496.0,-918.0,0.144,-0.336,-0.678,0.637
1042293,-1814.0,-4418.0,-1332.0,0.158,-0.328,-0.679,0.637
1042309,-1734.0,-6830.0,-730.0,0.172,-0.32,-0.679,0.638
1042325,-1856.0,-6432.0,-650.0,0.188,-0.312,-0.678,0.639
1042351,-2084.0,-6396.0,-62.0,0.202,-0.304,-0.679,0.637
1042367,-1712.0,-7028.0,368.0,0.216,-0.295,-0.683,0.632
1042384,-1256.0,-8036.0,434.0,0.228,-0.287,-0.689,0.625
1042400,-1138.0,-8126.0,30.0,0.24,-0.278,-0.695,0.618
1042416,-494.0,-8998.0,-240.0,0.251,-0.269,-0.702,0.61
1042432,-370.0,-8898.0,-740.0,0.261,-0.261,-0.707,0.603
1042458,-12.0,-8742.0,-1256.0,0.27,-0.252,-0.713,0.595
1042474,564.0,-8386.0,-1402.0,0.279,-0.244,-0.719,0.588
1042490,998.0,-9158.0,-1288.0,0.287,-0.236,-0.725,0.58
1042507,1144.0,-9626.0,-1048.0,0.294,-0.227,-0.731,0.573
1042523,1212.0,-8660.0,-1348.0,0.301,-0.218,-0.736,0.565
1042540,1624.0,-8866.0,-1414.0,0.308,-0.21,-0.741,0.558
1042557,2040.0,-10228.0,-1422.0,0.314,-0.202,-0.745,0.552
1042573,2098.0,-9040.0,-1900.0,0.321,-0.193,-0.748,0.548
1042599,2308.0,-8748.0,-1778.0,0.326,-0.186,-0.75,0.544
1042616,2676.0,-9164.0,-1818.0,0.331,-0.179,-0.752,0.541
1042633,2860.0,-8764.0,-1842.0,0.335,-0.174,-0.753,0.539
1042649,2906.0,-8150.0,-1642.0,0.339,-0.168,-0.753,0.538
1042666,3146.0,-7976.0,-1796.0,0.343,-0.164,-0.754,0.536
1042683,3672.0,-8844.0,-2134.0,0.346,-0.16,-0.755,0.534
1042700,3506.0,-8596.0,-1766.0,0.35,-0.156,-0.756,0.53
1042716,3172.0,-10206.0,-442.0,0.352,-0.154,-0.758,0.527
1042733,2992.0,-10894.0,-8.0,0.354,-0.152,-0.759,0.525
1042759,3138.0,-11714.0,-668.0,0.353,-0.153,-0.761,0.522
1042775,3444.0,-13292.0,-1568.0,0.351,-0.156,-0.763,0.52
1042791,3352.0,-13720.0,-1300.0,0.349,-0.16,-0.765,0.518
1042807,3544.0,-12816.0,-1756.0,0.345,-0.164,-0.765,0.518
1042823,3250.0,-11682.0,-2766.0,0.339,-0.171,-0.767,0.518
1042840,3336.0,-12156.0,-3102.0,0.332,-0.178,-0.768,0.518
1042856,2900.0,-12050.0,-2688.0,0.324,-0.187,-0.767,0.521
1042882,2514.0,-11702.0,-2032.0,0.315,-0.196,-0.766,0.525
1042898,2340.0,-11886.0,-1822.0,0.305,-0.205,-0.764,0.531
1042914,2150.0,-11756.0,-2094.0,0.296,-0.213,-0.76,0.538
1042930,1978.0,-8904.0,-3896.0,0.287,-0.221,-0.754,0.547
1042946,1630.0,-7828.0,-2780.0,0.276,-0.231,-0.749,0.556
1042972,1340.0,-7560.0,-1606.0,0.263,-0.242,-0.744,0.564
1042988,1142.0,-7064.0,-1410.0,0.249,-0.255,-0.739,0.572
1043004,1706.0,-7490.0,-1896.0,0.233,-0.267,-0.733,0.58
1043020,686.0,-8946.0,-1996.0,0.219,-0.278,-0.728,0.588
1043036,388.0,-6974.0,-2150.0,0.207,-0.286,-0.721,0.596
1043052,-412.0,-5044.0,-2542.0,0.195,-0.295,-0.717,0.601
1043069,-622.0,-6364.0,-2012.0,0.182,-0.303,-0.713,0.606
1043096,-888.0,-7304.0,-1412.0,0.171,-0.31,-0.707,0.612
1043112,-1148.0,-6818.0,-1294.0,0.16,-0.317,-0.702,0.618
1043128,-1502.0,-7270.0,-1364.0,0.148,-0.323,-0.698,0.622
1043144,-1606.0,-6794.0,-776.0,0.136,-0.328,-0.695,0.625
1043160,-1806.0,-5410.0,-366.0,0.124,-0.335,-0.691,0.628
1043177,-1382.0,-5410.0,-110.0,0.111,-0.342,-0.689,0.63
1043193,-1338.0,-6770.0,-564.0,0.099,-0.349,-0.687,0.63
1043210,-1008.0,-5846.0,-684.0,0.089,-0.354,-0.684,0.631
1043237,-1492.0,-3052.0,-1086.0,0.081,-0.359,-0.684,0.63
1043254,-1306.0,-2968.0,-574.0,0.073,-0.362,-0.686,0.627
1043271,-742.0,-3664.0,128.0,0.068,-0.365,-0.686,0.625
1043288,-1066.0,-3378.0,-380.0,0.068,-0.367,-0.683,0.628
1043305,-1006.0,-2066.0,-1132.0,0.072,-0.368,-0.679,0.632
1043321,-516.0,-2350.0,-1380.0,0.076,-0.367,-0.678,0.632
1043338,-82.0,-5982.0,-554.0,0.08,-0.363,-0.683,0.629
1043355,-1212.0,-6396.0,-234.0,0.09,-0.358,-0.685,0.628
1043372,-1666.0,-2698.0,-1110.0,0.102,-0.352,-0.687,0.628
1043388,-2174.0,-3584.0,-1134.0,0.113,-0.345,-0.692,0.624
1043414,-2358.0,-8250.0,-946.0,0.125,-0.338,-0.696,0.621
1043430,-2934.0,-6832.0,-1122.0,0.14,-0.33,-0.697,0.621
1043446,-2956.0,-5074.0,-1410.0,0.154,-0.321,-0.701,0.618
1043462,-2134.0,-8128.0,-846.0,0.167,-0.313,-0.706,0.613
1043478,-1724.0,-8080.0,-840.0,0.18,-0.305,-0.71,0.608
1043494,-1308.0,-7418.0,-710.0,0.193,-0.296,-0.716,0.601
1043520,-774.0,-8464.0,-790.0,0.205,-0.288,-0.724,0.593
1043537,-568.0,-8240.0,-1060.0,0.216,-0.279,-0.731,0.584
1043554,-146.0,-7822.0,-1720.0,0.228,-0.271,-0.739,0.573
1043571,548.0,-7558.0,-2264.0,0.238,-0.263,-0.747,0.563
1043588,914.0,-9762.0,-2010.0,0.249,-0.254,-0.754,0.553
1043605,838.0,-8836.0,-2308.0,0.26,-0.245,-0.759,0.544
1043622,1072.0,-8000.0,-2314.0,0.271,-0.236,-0.765,0.535
1043638,1538.0,-8438.0,-2516.0,0.28,-0.227,-0.771,0.525
1043655,2098.0,-8638.0,-2884.0,0.289,-0.218,-0.776,0.517
1043671,2216.0,-8422.0,-2894.0,0.297,-0.209,-0.78,0.509
1043697,2588.0,-8412.0,-3230.0,0.305,-0.201,-0.784,0.502
1043713,3002.0,-9114.0,-3288.0,0.313,-0.192,-0.787,0.496
1043729,3148.0,-8984.0,-3338.0,0.32,-0.184,-0.79,0.49
1043745,3816.0,-8370.0,-3852.0,0.326,-0.177,-0.792,0.485
1043761,4052.0,-8880.0,-3204.0,0.332,-0.17,-0.794,0.479
1043777,3974.0,-8146.0,-3318.0,0.338,-0.165,-0.796,0.475
1043803,4248.0,-9576.0,-2730.0,0.343,-0.161,-0.796,0.471
1043820,4022.0,-10606.0,-2774.0,0.347,-0.157,-0.797,0.469
1043837,4048.0,-11468.0,-2792.0,0.35,-0.154,-0.796,0.468
1043854,4050.0,-11894.0,-3154.0,0.351,-0.153,-0.797,0.468
1043871,4040.0,-12106.0,-3344.0,0.35,-0.153,-0.797,0.468
1043888,4300.0,-12226.0,-3204.0,0.347,-0.155,-0.798,0.468
1043905,4376.0,-11592.0,-3454.0,0.341,-0.16,-0.799,0.469
1043922,4146.0,-11462.0,-3448.0,0.334,-0.168,-0.8,0.469
1043939,3660.0,-11002.0,-3238.0,0.325,-0.177,-0.801,0.47
1043956,3382.0,-11104.0,-3122.0,0.315,-0.187,-0.801,0.473
1043973,3068.0,-11456.0,-3006.0,0.303,-0.197,-0.8,0.479
1043990,2728.0,-9570.0,-3162.0,0.292,-0.207,-0.796,0.488
1044007,1808.0,-7860.0,-3524.0,0.278,-0.218,-0.792,0.497
1044024,2180.0,-8370.0,-3616.0,0.264,-0.23,-0.788,0.507
1044051,1670.0,-8348.0,-3150.0,0.248,-0.241,-0.782,0.518
1044068,1208.0,-7452.0,-2960.0,0.233,-0.252,-0.776,0.529
1044085,908.0,-8554.0,-2502.0,0.218,-0.262,-0.769,0.541
1044101,266.0,-7510.0,-1922.0,0.205,-0.272,-0.761,0.553
1044117,-162.0,-7190.0,-1788.0,0.19,-0.281,-0.752,0.564
1044133,-576.0,-6570.0,-2240.0,0.177,-0.291,-0.743,0.577
1044149,-566.0,-7746.0,-1768.0,0.165,-0.299,-0.733,0.589
1044175,-918.0,-6402.0,-2520.0,0.153,-0.307,-0.724,0.599
1044191,-1052.0,-6048.0,-2488.0,0.141,-0.314,-0.716,0.607
1044207,-1894.0,-5998.0,-1888.0,0.129,-0.32,-0.71,0.613
1044223,-1806.0,-4668.0,-1590.0,0.117,-0.327,-0.706,0.618
1044239,-2490.0,-6296.0,-1490.0,0.105,-0.333,-0.7,0.623
1044256,-2622.0,-6498.0,-1590.0,0.096,-0.339,-0.693,0.629
1044273,-3322.0,-6700.0,-1542.0,0.089,-0.346,-0.685,0.635
1044299,-3542.0,-6664.0,-306.0,0.08,-0.353,-0.68,0.638
1044315,-3456.0,-5198.0,610.0,0.071,-0.36,-0.678,0.637
1044332,-3160.0,-4404.0,402.0,0.061,-0.368,-0.676,0.636
1044349,-3012.0,-3616.0,318.0,0.053,-0.377,-0.672,0.635
1044366,-2928.0,-1182.0,282.0,0.05,-0.384,-0.666,0.638
1044382,-2774.0,-182.0,144.0,0.049,-0.391,-0.661,0.639
1044398,-2534.0,-2772.0,1174.0,0.05,-0.396,-0.658,0.638
1044415,1528.0,-9460.0,2456.0,0.056,-0.401,-0.652,0.641
1044442,-124.0,-11218.0,24.0,0.067,-0.405,-0.642,0.648
1044459,-524.0,-5178.0,-2604.0,0.076,-0.404,-0.638,0.651
1044476,-588.0,-4520.0,-2302.0,0.082,-0.401,-0.642,0.648
1044493,-696.0,-4322.0,-1110.0,0.088,-0.397,-0.65,0.642
1044509,-2652.0,-4628.0,-76.0,0.096,-0.391,-0.656,0.638
1044527,-3356.0,-5012.0,-272.0,0.106,-0.383,-0.658,0.639
1044543,-2456.0,-5606.0,-1066.0,0.113,-0.376,-0.665,0.636
1044560,-2838.0,-7328.0,-1006.0,0.12,-0.368,-0.673,0.63
1044576,-2744.0,-5640.0,-1170.0,0.128,-0.361,-0.682,0.623
1044592,-2330.0,-6810.0,-870.0,0.136,-0.353,-0.693,0.613
1044609,-2282.0,-8544.0,-538.0,0.147,-0.346,-0.703,0.604
1044626,-1886.0,-7972.0,-1132.0,0.159,-0.338,-0.711,0.596
1044652,-1534.0,-7308.0,-1822.0,0.171,-0.329,-0.718,0.589
1044669,-924.0,-8520.0,-2180.0,0.184,-0.32,-0.725,0.582
1044686,46.0,-11078.0,-1594.0,0.197,-0.31,-0.731,0.575
1044703,-54.0,-9104.0,-1956.0,0.212,-0.298,-0.734,0.572
1044720,-266.0,-6528.0,-2976.0,0.226,-0.286,-0.739,0.567
1044737,98.0,-6740.0,-2934.0,0.238,-0.274,-0.744,0.56
1044753,780.0,-8278.0,-2434.0,0.249,-0.263,-0.751,0.552
1044770,1278.0,-9460.0,-2142.0,0.26,-0.251,-0.757,0.545
1044787,1304.0,-9768.0,-2196.0,0.272,-0.239,-0.761,0.538
1044804,1464.0,-9622.0,-2118.0,0.283,-0.227,-0.765,0.533
1044830,2116.0,-9610.0,-2536.0,0.294,-0.216,-0.767,0.529
1044846,2072.0,-8104.0,-2550.0,0.305,-0.204,-0.767,0.527
1044862,2136.0,-7106.0,-2644.0,0.314,-0.194,-0.767,0.524
1044878,2098.0,-7310.0,-2246.0,0.323,-0.185,-0.769,0.52
1044894,2894.0,-9070.0,-2286.0,0.33,-0.177,-0.77,0.517
1044910,3124.0,-9830.0,-2468.0,0.336,-0.17,-0.77,0.515
1044936,3514.0,-9824.0,-2784.0,0.343,-0.162,-0.77,0.513
1044953,2160.0,-9560.0,-2240.0,0.348,-0.156,-0.77,0.512
1044970,3290.0,-10804.0,-2484.0,0.352,-0.151,-0.77,0.511
1044987,3808.0,-11794.0,-2712.0,0.354,-0.147,-0.769,0.511
1045003,4106.0,-12464.0,-2398.0,0.354,-0.146,-0.77,0.511
1045020,4340.0,-12372.0,-2136.0,0.351,-0.148,-0.771,0.51
1045036,4392.0,-11908.0,-2218.0,0.346,-0.152,-0.772,0.51
1045052,4276.0,-11604.0,-2430.0,0.339,-0.158,-0.774,0.51
1045069,3874.0,-10960.0,-2648.0,0.329,-0.166,-0.776,0.511
1045095,3630.0,-10628.0,-2878.0,0.317,-0.176,-0.778,0.513
1045111,3166.0,-9944.0,-2916.0,0.302,-0.186,-0.781,0.514
1045127,3432.0,-10254.0,-3054.0,0.285,-0.197,-0.782,0.517
1045143,2616.0,-9810.0,-3074.0,0.268,-0.208,-0.782,0.523
1045159,2232.0,-9568.0,-3170.0,0.251,-0.219,-0.779,0.531
1045176,1768.0,-8844.0,-2990.0,0.233,-0.229,-0.775,0.541
1045202,1532.0,-7732.0,-3160.0,0.214,-0.239,-0.77,0.552
1045219,1368.0,-7470.0,-3748.0,0.195,-0.247,-0.765,0.562
1045236,1018.0,-8552.0,-3566.0,0.175,-0.256,-0.759,0.573
1045253,432.0,-7050.0,-3278.0,0.155,-0.262,-0.753,0.583
1045269,-310.0,-6620.0,-2240.0,0.136,-0.269,-0.746,0.594
1045286,-1098.0,-7094.0,-1906.0,0.117,-0.276,-0.738,0.604
1045303,-2034.0,-5358.0,-1548.0,0.099,-0.282,-0.733,0.612
1045320,-3004.0,-4876.0,-296.0,0.081,-0.287,-0.729,0.616
1045337,-3334.0,-5276.0,-360.0,0.063,-0.294,-0.724,0.62
1045354,-3036.0,-8100.0,-960.0,0.047,-0.301,-0.719,0.625
1045372,-2802.0,-9280.0,-674.0,0.032,-0.307,-0.714,0.628
1045390,-2808.0,-6658.0,-668.0,0.019,-0.313,-0.71,0.631
1045407,-3052.0,-6226.0,-796.0,0.005,-0.319,-0.708,0.63
1045424,-2670.0,-5888.0,-260.0,0.009,0.325,0.708,-0.627
1045440,-2280.0,-4284.0,-684.0,0.022,0.33,0.707,-0.625
1045467,-1830.0,-3328.0,-1058.0,0.033,0.334,0.706,-0.623
1045484,-1862.0,-3252.0,-1384.0,0.043,0.337,0.705,-0.622
1045500,-1302.0,-3240.0,-1240.0,0.049,0.339,0.704,-0.623
1045517,-1294.0,-3362.0,-1360.0,0.053,0.338,0.704,-0.623
1045533,-768.0,-4280.0,-954.0,0.054,0.335,0.705,-0.622
1045550,-788.0,-4874.0,-614.0,0.052,0.332,0.707,-0.623
1045566,-1662.0,-5760.0,-554.0,0.046,0.327,0.708,-0.624
1045583,-1904.0,-4454.0,80.0,0.037,0.322,0.708,-0.627
1045609,-2260.0,-2912.0,62.0,0.026,0.315,0.709,-0.63
1045625,-2638.0,-3016.0,-826.0,0.013,0.307,0.713,-0.63
1045641,-2862.0,-5724.0,-174.0,0.0,-0.3,-0.717,0.629
1045657,-3568.0,-5246.0,6.0,0.015,-0.293,-0.722,0.627
1045673,-3336.0,-5012.0,124.0,0.03,-0.287,-0.728,0.622
1045689,-2524.0,-5974.0,114.0,0.044,-0.281,-0.737,0.614
1045715,-2394.0,-7262.0,114.0,0.058,-0.275,-0.745,0.605
1045732,-2138.0,-7580.0,-732.0,0.072,-0.271,-0.753,0.595
1045749,-2110.0,-6868.0,-1522.0,0.087,-0.266,-0.761,0.585
1045766,-1654.0,-7832.0,-2232.0,0.102,-0.26,-0.769,0.575
1045783,-1098.0,-7686.0,-2626.0,0.117,-0.255,-0.775,0.566
1045800,-1240.0,-7406.0,-2598.0,0.133,-0.249,-0.781,0.557
1045816,-960.0,-7836.0,-2864.0,0.148,-0.243,-0.786,0.549
1045832,-364.0,-8448.0,-3214.0,0.163,-0.236,-0.79,0.542
1045849,-74.0,-9176.0,-3304.0,0.178,-0.229,-0.793,0.536
1045866,24.0,-8200.0,-3006.0,0.193,-0.221,-0.794,0.532
1045892,424.0,-7688.0,-2752.0,0.207,-0.214,-0.796,0.527
1045908,986.0,-7814.0,-2966.0,0.219,-0.208,-0.797,0.522
1045924,1712.0,-8600.0,-3590.0,0.231,-0.201,-0.799,0.518
1045940,1946.0,-8928.0,-3138.0,0.243,-0.194,-0.8,0.513
1045962,2036.0,-7726.0,-2884.0,0.255,-0.186,-0.8,0.51
1045978,2492.0,-7312.0,-2746.0,0.266,-0.18,-0.801,0.506
1045994,2842.0,-7328.0,-3290.0,0.276,-0.173,-0.802,0.501
1046010,3074.0,-7600.0,-3538.0,0.286,-0.167,-0.803,0.495
1046026,3408.0,-9010.0,-3912.0,0.295,-0.16,-0.805,0.489
1046042,2860.0,-9224.0,-3844.0,0.305,-0.153,-0.806,0.483
1046068,3314.0,-9540.0,-4334.0,0.312,-0.146,-0.807,0.479
1046085,3500.0,-9640.0,-4040.0,0.318,-0.14,-0.807,0.477
1046101,4008.0,-10436.0,-3812.0,0.323,-0.135,-0.807,0.475
1046117,4100.0,-10766.0,-3742.0,0.326,-0.132,-0.808,0.473
1046133,4456.0,-12230.0,-3796.0,0.327,-0.13,-0.809,0.471
1046150,4590.0,-12600.0,-3830.0,0.328,-0.129,-0.81,0.47
1046166,4356.0,-12180.0,-3862.0,0.327,-0.129,-0.81,0.469
1046193,4504.0,-11278.0,-3914.0,0.323,-0.13,-0.811,0.469
1046209,4642.0,-10888.0,-3810.0,0.317,-0.134,-0.813,0.469
1046225,4414.0,-10784.0,-3578.0,0.308,-0.14,-0.815,0.471
1046241,4196.0,-10696.0,-3574.0,0.298,-0.148,-0.816,0.474
1046257,3962.0,-11382.0,-3900.0,0.285,-0.157,-0.815,0.48
1046273,3412.0,-11268.0,-3658.0,0.273,-0.165,-0.811,0.489
1046299,2858.0,-9052.0,-3528.0,0.261,-0.173,-0.806,0.503
1046315,2110.0,-7282.0,-3552.0,0.247,-0.182,-0.8,0.515
1046331,1890.0,-6998.0,-3402.0,0.23,-0.194,-0.796,0.525
1046347,1566.0,-8538.0,-3380.0,0.213,-0.205,-0.792,0.534
1046363,1064.0,-8164.0,-3366.0,0.196,-0.216,-0.787,0.544
1046379,534.0,-7554.0,-3240.0,0.179,-0.227,-0.781,0.554
1046405,292.0,-7830.0,-2990.0,0.162,-0.237,-0.775,0.563
1046421,-292.0,-8426.0,-2718.0,0.146,-0.247,-0.768,0.572
1046437,-658.0,-7126.0,-2230.0,0.131,-0.256,-0.762,0.58
1046453,-1166.0,-6142.0,-1974.0,0.116,-0.265,-0.755,0.588
1046469,-1190.0,-6138.0,-2058.0,0.101,-0.274,-0.748,0.595
1046485,-1316.0,-6936.0,-2166.0,0.087,-0.282,-0.741,0.604
1046511,-1624.0,-6694.0,-2690.0,0.073,-0.29,-0.732,0.612
1046528,-2196.0,-6736.0,-2832.0,0.059,-0.297,-0.727,0.616
1046544,-2536.0,-8246.0,-1530.0,0.045,-0.304,-0.723,0.619
1046560,-2734.0,-6248.0,-1580.0,0.033,-0.31,-0.717,0.623
1046576,-2192.0,-5830.0,-688.0,0.02,-0.317,-0.712,0.627
1046592,-2354.0,-5418.0,-480.0,0.007,-0.324,-0.706,0.63
1046618,-2096.0,-4068.0,-354.0,0.006,0.329,0.702,-0.631
1046634,-1664.0,-3520.0,-378.0,0.018,0.333,0.701,-0.63
1046650,-1394.0,-3210.0,-740.0,0.029,0.335,0.702,-0.628
1046667,-1140.0,-2512.0,-1136.0,0.038,0.335,0.703,-0.626
1046684,-688.0,-2172.0,-1498.0,0.045,0.333,0.704,-0.625
1046700,-808.0,-2188.0,-1430.0,0.048,0.33,0.704,-0.627
1046717,-828.0,-2472.0,-944.0,0.047,0.325,0.704,-0.63
1046734,-1416.0,-3140.0,-1012.0,0.041,0.319,0.702,-0.636
1046750,-910.0,-3874.0,-622.0,0.033,0.312,0.699,-0.642
1046777,-1146.0,-5856.0,26.0,0.022,0.306,0.695,-0.65
1046793,-2236.0,-6564.0,334.0,0.007,0.298,0.69,-0.659
1046809,-3180.0,-4388.0,630.0,0.009,-0.289,-0.689,0.664
1046825,-3830.0,-3676.0,1524.0,0.022,-0.28,-0.695,0.662
1046842,-3694.0,-5808.0,2652.0,0.034,-0.271,-0.705,0.654
1046858,-3388.0,-7776.0,1168.0,0.046,-0.263,-0.717,0.644
1046875,-2966.0,-8940.0,4.0,0.06,-0.257,-0.728,0.633
1046901,-2688.0,-8732.0,-358.0,0.075,-0.251,-0.737,0.623
1046918,-2534.0,-7512.0,-1196.0,0.089,-0.246,-0.746,0.613
1046935,-2260.0,-8174.0,-1888.0,0.103,-0.242,-0.755,0.601
1046951,-2054.0,-8060.0,-1676.0,0.117,-0.237,-0.762,0.591
1046968,-1454.0,-7532.0,-1854.0,0.131,-0.233,-0.769,0.581
1046984,-672.0,-8214.0,-2588.0,0.144,-0.228,-0.776,0.571
1047001,-358.0,-9072.0,-2678.0,0.159,-0.222,-0.78,0.563
1047018,-36.0,-8448.0,-2692.0,0.174,-0.215,-0.784,0.556
1047035,254.0,-8458.0,-2316.0,0.189,-0.208,-0.786,0.55
1047052,708.0,-7328.0,-2438.0,0.203,-0.201,-0.789,0.544
1047069,1404.0,-8222.0,-2848.0,0.216,-0.194,-0.791,0.539
1047096,1696.0,-8952.0,-3180.0,0.228,-0.187,-0.793,0.533
1047112,1698.0,-10030.0,-3040.0,0.239,-0.178,-0.795,0.527
1047128,1832.0,-9180.0,-2988.0,0.251,-0.169,-0.797,0.523
1047145,2324.0,-8644.0,-3100.0,0.262,-0.159,-0.798,0.52
1047162,2796.0,-7932.0,-3968.0,0.271,-0.15,-0.798,0.517
1047178,2958.0,-8230.0,-3826.0,0.28,-0.142,-0.798,0.514
1047194,3530.0,-9504.0,-3456.0,0.288,-0.134,-0.798,0.512
1047220,3566.0,-10248.0,-3628.0,0.295,-0.126,-0.798,0.51
1047237,3466.0,-11046.0,-3586.0,0.301,-0.118,-0.798,0.508
1047254,3784.0,-12632.0,-3846.0,0.305,-0.112,-0.798,0.507
1047272,4642.0,-13480.0,-3710.0,0.307,-0.108,-0.798,0.507
1047289,5302.0,-12452.0,-3266.0,0.306,-0.106,-0.799,0.506
1047306,4936.0,-11552.0,-3004.0,0.302,-0.107,-0.801,0.505
1047323,4442.0,-11964.0,-3288.0,0.295,-0.111,-0.804,0.504
1047340,4070.0,-12668.0,-3732.0,0.284,-0.117,-0.807,0.505
1047357,4114.0,-12590.0,-3712.0,0.271,-0.123,-0.808,0.509
1047374,3704.0,-10994.0,-3794.0,0.256,-0.13,-0.806,0.517
1047391,3464.0,-9718.0,-3778.0,0.241,-0.138,-0.803,0.527
1047408,3050.0,-9604.0,-2716.0,0.224,-0.148,-0.798,0.54
1047425,1946.0,-8410.0,-2400.0,0.208,-0.159,-0.789,0.556
1047441,1704.0,-9398.0,-2594.0,0.191,-0.17,-0.779,0.573
1047458,1434.0,-12332.0,-2448.0,0.175,-0.181,-0.763,0.595
1047485,1116.0,-10812.0,-1820.0,0.164,-0.191,-0.742,0.622
1047502,432.0,-2860.0,-2432.0,0.151,-0.202,-0.721,0.645
1047518,-1200.0,692.0,-2694.0,0.135,-0.214,-0.714,0.653
1047535,-1020.0,-5594.0,-2180.0,0.115,-0.226,-0.715,0.652
1047552,-926.0,-9582.0,-1728.0,0.097,-0.237,-0.712,0.654
1047569,-972.0,-6832.0,-2138.0,0.083,-0.246,-0.705,0.66
1047586,-1584.0,-6646.0,-1008.0,0.07,-0.254,-0.698,0.665
1047602,-1846.0,-4992.0,-998.0,0.058,-0.262,-0.694,0.669
1047619,-1562.0,-6226.0,-436.0,0.045,-0.269,-0.692,0.669
1047636,-2072.0,-6678.0,-834.0,0.033,-0.276,-0.689,0.669
1047653,-2504.0,-7374.0,-582.0,0.025,-0.282,-0.684,0.672
1047680,-2990.0,-5138.0,-226.0,0.018,-0.288,-0.679,0.675
1047697,-2876.0,-4842.0,936.0,0.01,-0.294,-0.676,0.676
1047713,-2476.0,-6308.0,1864.0,0.002,-0.3,-0.674,0.675
1047729,-2170.0,-4484.0,1436.0,0.004,0.305,0.674,-0.673
1047745,-2194.0,-2208.0,1032.0,0.01,0.309,0.675,-0.67
1047761,-1956.0,-1752.0,656.0,0.014,0.312,0.677,-0.667
1047777,-2736.0,-1206.0,188.0,0.013,0.313,0.677,-0.666
1047803,-786.0,-3116.0,-652.0,0.015,0.31,0.684,-0.66
1047820,-3118.0,-5784.0,-1614.0,0.01,0.309,0.683,-0.661
1047837,-3876.0,-3466.0,-2798.0,0.003,0.307,0.68,-0.666
1047854,-2434.0,-5750.0,-876.0,0.01,-0.3,-0.673,0.676
1047871,-2918.0,-1602.0,-2470.0,0.022,-0.29,-0.667,0.685
1047888,-3826.0,-6980.0,-2922.0,0.03,-0.281,-0.664,0.692
1047905,-4150.0,-3678.0,-3758.0,0.036,-0.265,-0.668,0.695
1047922,7380.0,-9228.0,5478.0,0.041,-0.258,-0.686,0.679
1047939,-3134.0,-15504.0,6522.0,0.049,-0.257,-0.69,0.675
1047956,-1874.0,-4564.0,1136.0,0.062,-0.252,-0.697,0.669
1047973,-2150.0,-4606.0,428.0,0.069,-0.252,-0.711,0.652
1047990,-2534.0,-8316.0,-1136.0,0.079,-0.251,-0.727,0.634
1048007,-2550.0,-8946.0,-1022.0,0.093,-0.248,-0.738,0.621
1048034,-2384.0,-8818.0,-1284.0,0.113,-0.242,-0.74,0.617
1048051,-1018.0,-7140.0,-1868.0,0.131,-0.238,-0.742,0.613
1048068,-704.0,-7946.0,-2084.0,0.147,-0.232,-0.745,0.608
1048085,-692.0,-9090.0,-1856.0,0.163,-0.226,-0.748,0.603
1048102,-604.0,-10736.0,-1720.0,0.177,-0.22,-0.749,0.599
1048119,-792.0,-9860.0,-806.0,0.192,-0.212,-0.749,0.597
1048136,-666.0,-7368.0,-1406.0,0.206,-0.205,-0.749,0.595
1048153,430.0,-7868.0,-1620.0,0.218,-0.198,-0.75,0.592
1048170,990.0,-8828.0,-1386.0,0.23,-0.192,-0.751,0.588
1048186,1176.0,-8850.0,-1812.0,0.242,-0.186,-0.752,0.584
1048212,1398.0,-8734.0,-2212.0,0.253,-0.179,-0.752,0.582
1048229,1660.0,-8478.0,-2298.0,0.263,-0.172,-0.752,0.58
1048246,1920.0,-8966.0,-2050.0,0.273,-0.166,-0.751,0.578
1048262,2062.0,-9120.0,-1640.0,0.282,-0.159,-0.751,0.576
1048278,2056.0,-8776.0,-1462.0,0.29,-0.153,-0.75,0.574
1048294,2274.0,-9564.0,-1598.0,0.298,-0.147,-0.75,0.572
1048310,3022.0,-9768.0,-1904.0,0.304,-0.141,-0.751,0.569
1048326,3276.0,-10756.0,-2098.0,0.31,-0.136,-0.752,0.565
1048352,3160.0,-12044.0,-2176.0,0.313,-0.132,-0.754,0.562
1048369,2986.0,-11864.0,-1824.0,0.315,-0.13,-0.757,0.557
1048386,3208.0,-13204.0,-1660.0,0.314,-0.129,-0.762,0.552
1048403,3334.0,-12974.0,-1712.0,0.311,-0.13,-0.766,0.547
1048420,3410.0,-11726.0,-2552.0,0.305,-0.132,-0.772,0.541
1048437,3612.0,-11966.0,-2904.0,0.298,-0.137,-0.778,0.536
1048454,2982.0,-11450.0,-2886.0,0.288,-0.143,-0.783,0.533
1048471,2734.0,-11376.0,-2986.0,0.277,-0.149,-0.786,0.532
1048488,2684.0,-10796.0,-3186.0,0.264,-0.155,-0.788,0.534
1048505,2706.0,-10596.0,-2712.0,0.252,-0.161,-0.787,0.54
1048522,2684.0,-10228.0,-2358.0,0.24,-0.167,-0.784,0.547
1048539,2230.0,-8204.0,-1960.0,0.229,-0.174,-0.78,0.556
1048566,1464.0,-7018.0,-1956.0,0.218,-0.182,-0.776,0.564
1048582,964.0,-8198.0,-1666.0,0.206,-0.191,-0.772,0.571
1048598,510.0,-7942.0,-2086.0,0.193,-0.2,-0.767,0.579
1048614,332.0,-7378.0,-2260.0,0.18,-0.209,-0.761,0.587
1048630,268.0,-7478.0,-2350.0,0.168,-0.217,-0.754,0.596
1048646,-172.0,-7108.0,-1780.0,0.157,-0.225,-0.747,0.606
1048662,-694.0,-6580.0,-2056.0,0.146,-0.233,-0.739,0.615
1048689,-930.0,-6570.0,-1630.0,0.135,-0.241,-0.731,0.624
1048706,-1002.0,-7616.0,-1088.0,0.124,-0.248,-0.722,0.634
1048723,-1700.0,-8416.0,170.0,0.115,-0.255,-0.712,0.644
1048740,-2088.0,-5028.0,-190.0,0.107,-0.26,-0.702,0.654
1048757,-1748.0,-4802.0,-370.0,0.097,-0.267,-0.695,0.661
1048774,-1186.0,-5882.0,-416.0,0.088,-0.273,-0.686,0.669
1048791,-1102.0,-5962.0,-828.0,0.081,-0.279,-0.678,0.675
1048808,-774.0,-5130.0,-856.0,0.075,-0.284,-0.672,0.68
1048824,-990.0,-3646.0,-1134.0,0.071,-0.288,-0.667,0.683
1048841,-716.0,-3256.0,-818.0,0.068,-0.291,-0.665,0.685
1048857,-706.0,-3246.0,-350.0,0.066,-0.292,-0.665,0.684
1048874,-432.0,-4554.0,334.0,0.066,-0.291,-0.666,0.683
1048901,-202.0,-6104.0,420.0,0.07,-0.289,-0.666,0.684
1048917,-242.0,-5728.0,-240.0,0.077,-0.286,-0.665,0.686
1048934,-662.0,-4366.0,-12.0,0.088,-0.28,-0.664,0.688
1048951,-1322.0,-3492.0,-82.0,0.099,-0.275,-0.663,0.689
1048967,-1200.0,-3600.0,-136.0,0.11,-0.269,-0.664,0.689
1048983,-1814.0,-5110.0,62.0,0.122,-0.262,-0.667,0.687
1048999,-1766.0,-5744.0,254.0,0.135,-0.254,-0.67,0.684
1049025,-1904.0,-6232.0,426.0,0.147,-0.246,-0.675,0.68
1049042,-1660.0,-6920.0,1126.0,0.159,-0.239,-0.681,0.674
1049058,-1348.0,-7186.0,1198.0,0.17,-0.232,-0.689,0.666
1049074,-1022.0,-7520.0,422.0,0.181,-0.224,-0.699,0.655
1049091,-444.0,-7632.0,-454.0,0.192,-0.216,-0.709,0.643
1049107,-106.0,-8338.0,-594.0,0.202,-0.208,-0.72,0.63
1049123,330.0,-7568.0,-1046.0,0.213,-0.199,-0.731,0.617
1049149,772.0,-7360.0,-1448.0,0.224,-0.19,-0.74,0.605
1049166,1292.0,-8906.0,-1432.0,0.235,-0.181,-0.749,0.592
1049183,1672.0,-9064.0,-1706.0,0.247,-0.171,-0.756,0.582
1049199,1946.0,-8326.0,-1828.0,0.259,-0.161,-0.762,0.572
1049215,2358.0,-8560.0,-1788.0,0.27,-0.151,-0.767,0.563
1049232,2818.0,-8872.0,-1988.0,0.28,-0.143,-0.77,0.555
1049249,2932.0,-9460.0,-2028.0,0.291,-0.134,-0.773,0.548
1049265,3046.0,-9158.0,-2174.0,0.302,-0.124,-0.774,0.543
1049291,3342.0,-8506.0,-2376.0,0.312,-0.115,-0.774,0.54
1049307,3740.0,-9408.0,-2498.0,0.321,-0.106,-0.773,0.536
1049327,4016.0,-9662.0,-2572.0,0.33,-0.097,-0.773,0.533
1049343,3912.0,-10144.0,-2288.0,0.337,-0.089,-0.773,0.53
1049359,4026.0,-11076.0,-2052.0,0.342,-0.082,-0.773,0.528
1049375,4842.0,-11574.0,-1908.0,0.346,-0.076,-0.772,0.528
1049392,5002.0,-12230.0,-1722.0,0.349,-0.071,-0.77,0.529
1049408,5286.0,-12072.0,-1920.0,0.348,-0.068,-0.77,0.531
1049424,5928.0,-12856.0,-1812.0,0.346,-0.069,-0.77,0.532
1049441,5762.0,-12378.0,-1844.0,0.342,-0.073,-0.77,0.533
1049467,5226.0,-12050.0,-1776.0,0.337,-0.078,-0.771,0.535
1049483,4734.0,-11540.0,-1998.0,0.33,-0.086,-0.771,0.538
1049500,4580.0,-11938.0,-1996.0,0.322,-0.094,-0.769,0.544
1049516,4216.0,-11148.0,-1948.0,0.314,-0.103,-0.766,0.552
1049532,3404.0,-9578.0,-1724.0,0.306,-0.112,-0.76,0.563
1049548,2590.0,-7842.0,-1848.0,0.295,-0.124,-0.754,0.574
1049575,2584.0,-8680.0,-1882.0,0.282,-0.136,-0.748,0.585
1049591,2080.0,-8520.0,-1500.0,0.269,-0.149,-0.741,0.597
1049607,1832.0,-8082.0,-1258.0,0.257,-0.161,-0.734,0.608
1049624,1350.0,-7844.0,-1016.0,0.244,-0.173,-0.727,0.618
1049640,874.0,-7492.0,-886.0,0.232,-0.184,-0.72,0.628
1049656,594.0,-7198.0,-530.0,0.219,-0.195,-0.713,0.636
1049672,186.0,-6928.0,-278.0,0.205,-0.206,-0.707,0.644
1049698,60.0,-7642.0,58.0,0.192,-0.217,-0.702,0.651
1049714,-158.0,-6904.0,-174.0,0.179,-0.226,-0.698,0.656
1049730,-790.0,-6972.0,-958.0,0.166,-0.236,-0.694,0.659
1049747,-1022.0,-7556.0,-750.0,0.153,-0.245,-0.692,0.662
1049764,-1308.0,-7494.0,-342.0,0.141,-0.253,-0.689,0.664
1049780,-1428.0,-5720.0,-752.0,0.13,-0.261,-0.686,0.667
1049796,-1344.0,-6498.0,-710.0,0.118,-0.269,-0.684,0.668
1049822,-1172.0,-7234.0,-532.0,0.107,-0.275,-0.682,0.669
1049838,-1000.0,-6700.0,-336.0,0.098,-0.279,-0.68,0.671
1049854,-1208.0,-5238.0,-544.0,0.092,-0.283,-0.677,0.673
1049871,-1276.0,-3536.0,-22.0,0.085,-0.286,-0.674,0.676
1049888,-838.0,-4088.0,-10.0,0.079,-0.288,-0.672,0.678
1049904,-546.0,-4312.0,-96.0,0.074,-0.289,-0.668,0.682
1049920,-530.0,-4022.0,-250.0,0.07,-0.289,-0.665,0.685
1049937,-708.0,-4266.0,-10.0,0.069,-0.288,-0.661,0.689
1049963,-824.0,-3822.0,-176.0,0.071,-0.285,-0.659,0.692
1049979,-1004.0,-4900.0,268.0,0.075,-0.281,-0.659,0.694
1049995,-1350.0,-4608.0,378.0,0.082,-0.275,-0.659,0.696
1050012,-1608.0,-4228.0,-210.0,0.09,-0.269,-0.659,0.696
1050029,-2014.0,-5398.0,-336.0,0.101,-0.261,-0.66,0.697
1050046,-2102.0,-6756.0,332.0,0.115,-0.254,-0.66,0.698
1050062,-2232.0,-6236.0,382.0,0.129,-0.246,-0.659,0.699
1050079,-2474.0,-5774.0,800.0,0.144,-0.238,-0.66,0.698
1050105,-2020.0,-7408.0,1574.0,0.158,-0.231,-0.663,0.694
1050121,-1974.0,-7868.0,1256.0,0.171,-0.223,-0.668,0.689
1050137,-1610.0,-7244.0,502.0,0.185,-0.215,-0.675,0.681
1050153,-848.0,-8230.0,100.0,0.197,-0.206,-0.683,0.672
1050169,-206.0,-8198.0,-446.0,0.21,-0.197,-0.691,0.663
1050185,-2.0,-8492.0,-438.0,0.223,-0.186,-0.7,0.652
1050202,598.0,-8678.0,-332.0,0.235,-0.176,-0.709,0.641
1050228,1126.0,-8774.0,-362.0,0.246,-0.166,-0.717,0.63
1050244,1508.0,-8280.0,-594.0,0.256,-0.156,-0.725,0.62
1050261,2152.0,-9302.0,-826.0,0.265,-0.146,-0.733,0.609
1050277,2504.0,-9108.0,-1130.0,0.273,-0.136,-0.74,0.6
1050294,2922.0,-8886.0,-1428.0,0.281,-0.127,-0.746,0.591
1050311,3248.0,-9044.0,-1472.0,0.288,-0.118,-0.751,0.583
1050327,3438.0,-9064.0,-1718.0,0.295,-0.109,-0.755,0.575
1050345,3520.0,-8732.0,-1564.0,0.301,-0.101,-0.758,0.569
1050361,3672.0,-8772.0,-1736.0,0.306,-0.094,-0.761,0.565
1050387,3962.0,-8682.0,-1768.0,0.311,-0.087,-0.762,0.561
1050404,3880.0,-8592.0,-1782.0,0.316,-0.081,-0.762,0.559
1050421,3868.0,-7998.0,-2140.0,0.32,-0.075,-0.762,0.558
1050437,3964.0,-8618.0,-1902.0,0.324,-0.07,-0.762,0.556
1050453,3892.0,-8764.0,-1824.0,0.328,-0.064,-0.762,0.555
1050469,4338.0,-9212.0,-2080.0,0.331,-0.059,-0.761,0.555
1050486,4296.0,-11072.0,-2160.0,0.334,-0.055,-0.761,0.554
1050512,4356.0,-13092.0,-2416.0,0.336,-0.05,-0.762,0.552
1050528,4214.0,-12426.0,-2320.0,0.338,-0.045,-0.761,0.552
1050545,5016.0,-11364.0,-1686.0,0.337,-0.044,-0.761,0.553
1050561,5804.0,-11880.0,-828.0,0.332,-0.047,-0.763,0.552
1050578,5228.0,-10966.0,-428.0,0.326,-0.054,-0.767,0.551
1050595,4640.0,-10526.0,-1196.0,0.317,-0.065,-0.771,0.548
1050612,4152.0,-10424.0,-1480.0,0.306,-0.076,-0.776,0.546
1050629,4050.0,-9792.0,-2136.0,0.293,-0.089,-0.78,0.546
1050646,3638.0,-9882.0,-2310.0,0.28,-0.101,-0.782,0.547
1050663,3234.0,-9348.0,-2372.0,0.266,-0.113,-0.783,0.551
1050690,2564.0,-8440.0,-2564.0,0.253,-0.125,-0.782,0.556
1050706,1884.0,-8370.0,-2452.0,0.238,-0.137,-0.78,0.562
1050723,1484.0,-7712.0,-2162.0,0.223,-0.149,-0.777,0.569
1050739,1328.0,-8122.0,-2220.0,0.207,-0.161,-0.772,0.579
1050755,830.0,-7538.0,-2160.0,0.192,-0.172,-0.766,0.589
1050771,72.0,-7140.0,-1358.0,0.178,-0.183,-0.759,0.599
1050787,-138.0,-7134.0,-978.0,0.166,-0.193,-0.751,0.61
1050813,-284.0,-8326.0,-684.0,0.155,-0.202,-0.743,0.619
1050830,-554.0,-7164.0,-784.0,0.146,-0.21,-0.735,0.628
1050847,-586.0,-7190.0,-678.0,0.139,-0.217,-0.727,0.636
1050864,-662.0,-9406.0,64.0,0.133,-0.224,-0.719,0.644
1050881,-874.0,-7316.0,-532.0,0.129,-0.23,-0.71,0.653
1050898,-680.0,-4504.0,-1604.0,0.122,-0.236,-0.704,0.659
1050915,-120.0,-6380.0,-1150.0,0.115,-0.244,-0.7,0.662
1050932,30.0,-7004.0,-786.0,0.108,-0.252,-0.696,0.664
1050949,-398.0,-6244.0,-766.0,0.101,-0.259,-0.692,0.666
1050966,-1204.0,-7564.0,-356.0,0.095,-0.266,-0.689,0.667
1050983,-1756.0,-5728.0,-782.0,0.089,-0.272,-0.686,0.669
1050999,-1924.0,-4728.0,-1184.0,0.081,-0.277,-0.686,0.669
1051016,-1506.0,-5256.0,-1216.0,0.072,-0.281,-0.685,0.668
1051043,-1282.0,-4818.0,-1026.0,0.064,-0.284,-0.685,0.668
1051059,-1118.0,-4130.0,-600.0,0.058,-0.286,-0.684,0.668
1051075,-1004.0,-3948.0,-96.0,0.052,-0.286,-0.685,0.668
1051092,-1006.0,-3496.0,-16.0,0.048,-0.285,-0.687,0.667
1051109,-1090.0,-3850.0,-328.0,0.046,-0.282,-0.69,0.665
1051126,-1320.0,-5730.0,80.0,0.048,-0.278,-0.692,0.664
1051143,-1800.0,-5044.0,12.0,0.053,-0.272,-0.694,0.665
1051160,-2174.0,-4672.0,-70.0,0.059,-0.266,-0.695,0.665
1051177,-2158.0,-5032.0,-316.0,0.065,-0.259,-0.698,0.664
1051194,-2232.0,-7314.0,-68.0,0.073,-0.252,-0.701,0.664
1051211,-2466.0,-6176.0,58.0,0.083,-0.244,-0.703,0.663
1051238,-2594.0,-5912.0,130.0,0.091,-0.235,-0.707,0.66
1051255,-1898.0,-6488.0,262.0,0.1,-0.227,-0.714,0.655
1051272,-1358.0,-7868.0,254.0,0.109,-0.218,-0.72,0.65
1051289,-1364.0,-8114.0,124.0,0.12,-0.209,-0.727,0.643
1051306,-1372.0,-6992.0,-304.0,0.132,-0.2,-0.734,0.636
1051323,-890.0,-7448.0,-596.0,0.143,-0.191,-0.741,0.628
1051341,-268.0,-8830.0,-770.0,0.155,-0.182,-0.748,0.62
1051357,-162.0,-7540.0,-1432.0,0.167,-0.172,-0.753,0.613
1051374,74.0,-7380.0,-1510.0,0.18,-0.162,-0.758,0.605
1051391,910.0,-8052.0,-1496.0,0.191,-0.153,-0.763,0.598
1051407,1486.0,-9012.0,-1408.0,0.203,-0.144,-0.767,0.592
1051423,1378.0,-9304.0,-936.0,0.216,-0.135,-0.768,0.587
1051449,1308.0,-7960.0,-1492.0,0.229,-0.126,-0.769,0.583
1051465,2190.0,-8774.0,-1684.0,0.243,-0.117,-0.77,0.578
1051481,2728.0,-9104.0,-1824.0,0.256,-0.109,-0.769,0.575
1051497,2720.0,-8104.0,-1876.0,0.27,-0.102,-0.767,0.573
1051513,2692.0,-7472.0,-2242.0,0.284,-0.095,-0.766,0.569
1051539,3190.0,-8528.0,-2316.0,0.296,-0.088,-0.765,0.565
1051556,3420.0,-9340.0,-1904.0,0.307,-0.082,-0.763,0.562
1051572,3726.0,-9424.0,-1934.0,0.317,-0.076,-0.762,0.56
1051588,3844.0,-9634.0,-1774.0,0.325,-0.07,-0.761,0.557
1051604,4328.0,-10406.0,-1962.0,0.332,-0.066,-0.76,0.554
1051620,4550.0,-10638.0,-2120.0,0.337,-0.061,-0.76,0.553
1051636,5058.0,-11432.0,-1900.0,0.34,-0.057,-0.76,0.551
1051662,5054.0,-11256.0,-1544.0,0.341,-0.053,-0.76,0.551
1051678,5082.0,-11038.0,-1198.0,0.34,-0.051,-0.761,0.551
1051694,5746.0,-11468.0,-1416.0,0.337,-0.05,-0.762,0.551
1051710,5786.0,-10940.0,-1718.0,0.332,-0.05,-0.764,0.551
1051726,5704.0,-10458.0,-2062.0,0.326,-0.053,-0.767,0.551
1051742,5362.0,-10408.0,-2292.0,0.318,-0.058,-0.769,0.551
1051768,5154.0,-10580.0,-2668.0,0.308,-0.066,-0.771,0.554
1051786,4710.0,-11552.0,-2696.0,0.296,-0.074,-0.771,0.559
1051803,3848.0,-10632.0,-2620.0,0.284,-0.084,-0.768,0.568
1051820,2932.0,-9356.0,-2174.0,0.269,-0.095,-0.765,0.578
1051837,2516.0,-9518.0,-1906.0,0.251,-0.108,-0.76,0.59
1051854,2396.0,-10164.0,-1440.0,0.233,-0.122,-0.752,0.604
1051871,2184.0,-9490.0,-1288.0,0.215,-0.136,-0.744,0.618
1051887,1000.0,-9388.0,-1306.0,0.197,-0.15,-0.734,0.632
1051903,850.0,-9190.0,-1040.0,0.181,-0.163,-0.725,0.644
1051920,958.0,-9292.0,-1236.0,0.166,-0.174,-0.713,0.658
1051946,106.0,-7056.0,-1516.0,0.152,-0.186,-0.702,0.671
1051962,-168.0,-7244.0,-1194.0,0.137,-0.196,-0.693,0.68
1051978,-486.0,-6516.0,58.0,0.123,-0.206,-0.684,0.689
1051994,-1004.0,-6774.0,16.0,0.106,-0.217,-0.677,0.696
1052010,-1380.0,-7352.0,-14.0,0.089,-0.226,-0.672,0.7
1052026,-1130.0,-8572.0,-34.0,0.072,-0.235,-0.667,0.703
1052052,-1964.0,-6580.0,-70.0,0.056,-0.244,-0.663,0.706
1052069,-2058.0,-6490.0,-190.0,0.039,-0.254,-0.661,0.705
1052086,-2158.0,-6842.0,502.0,0.022,-0.262,-0.66,0.704
1052103,-2034.0,-7388.0,1192.0,0.004,-0.27,-0.659,0.702
1052120,-2008.0,-7262.0,992.0,0.013,0.278,0.659,-0.698
1052137,-2666.0,-6990.0,-342.0,0.031,0.286,0.66,-0.694
1052154,-2838.0,-6140.0,-1276.0,0.048,0.292,0.662,-0.688
1052171,-2976.0,-6314.0,-348.0,0.066,0.298,0.664,-0.683
1052188,-3528.0,-6486.0,-1424.0,0.084,0.303,0.665,-0.677
1052205,-3820.0,-5892.0,-944.0,0.101,0.307,0.665,-0.674
1052221,-3746.0,-1602.0,-2392.0,0.119,0.31,0.665,-0.67
1052247,-3438.0,-4588.0,-2024.0,0.137,0.312,0.665,-0.665
1052264,-3434.0,-4820.0,-838.0,0.152,0.314,0.66,-0.665
1052281,-3282.0,-4248.0,-768.0,0.164,0.315,0.656,-0.666
1052297,-2644.0,-9216.0,-288.0,0.175,0.317,0.651,-0.667
1052313,-3042.0,-5856.0,-430.0,0.182,0.318,0.646,-0.67
1052329,-3562.0,-1330.0,-268.0,0.19,0.317,0.645,-0.669
1052345,-3800.0,-4348.0,1184.0,0.198,0.316,0.647,-0.666
1052361,-4276.0,-6222.0,-306.0,0.203,0.315,0.647,-0.664
1052388,-4914.0,-5708.0,-698.0,0.205,0.314,0.649,-0.662
1052405,-4892.0,-4542.0,-402.0,0.206,0.313,0.651,-0.66
