timeMs,ax,ay,az,q0,q1,q2,q3
1281112,-5824.0,-7378.0,-1002.0,0.129,0.332,0.676,-0.646
1281128,-4958.0,-5448.0,-1212.0,0.136,0.331,0.675,-0.645
1281144,-5036.0,-6482.0,-1358.0,0.145,0.33,0.676,-0.643
1281160,-5792.0,-9204.0,-1988.0,0.154,0.329,0.675,-0.642
1281186,-5020.0,-5342.0,-1892.0,0.162,0.329,0.672,-0.643
1281202,-4796.0,-3840.0,-1202.0,0.171,0.328,0.671,-0.643
1281219,-5160.0,-7528.0,-1780.0,0.182,0.327,0.67,-0.641
1281236,-5766.0,-9364.0,-2220.0,0.19,0.325,0.667,-0.643
1281252,-5010.0,-3698.0,-1606.0,0.199,0.323,0.664,-0.644
1281268,-4812.0,-2990.0,-394.0,0.207,0.321,0.662,-0.645
1281285,-5192.0,-5798.0,-918.0,0.217,0.317,0.661,-0.645
1281302,-5226.0,-7300.0,-1884.0,0.225,0.314,0.658,-0.647
1281328,-4816.0,-3658.0,-1272.0,0.232,0.311,0.654,-0.65
1281345,-5310.0,-5858.0,-244.0,0.239,0.307,0.651,-0.652
1281361,-5422.0,-5974.0,-554.0,0.246,0.303,0.648,-0.654
1281377,-5416.0,-4328.0,-432.0,0.251,0.299,0.644,-0.657
1281394,-5508.0,-5060.0,82.0,0.257,0.295,0.642,-0.66
1281410,-5772.0,-5760.0,-222.0,0.262,0.29,0.639,-0.663
1281427,-5630.0,-4946.0,-152.0,0.265,0.286,0.635,-0.667
1281445,-5716.0,-3470.0,94.0,0.268,0.281,0.631,-0.671
1281462,-5222.0,-4496.0,676.0,0.271,0.276,0.628,-0.675
1281479,-5578.0,-6420.0,814.0,0.273,0.271,0.624,-0.68
1281505,-5576.0,-3514.0,428.0,0.274,0.265,0.62,-0.686
1281522,-5180.0,-3886.0,1054.0,0.275,0.258,0.617,-0.69
1281539,-4910.0,-4494.0,1544.0,0.277,0.251,0.615,-0.694
1281556,-3712.0,-7396.0,2056.0,0.276,0.245,0.611,-0.701
1281572,-4296.0,-5852.0,1218.0,0.275,0.239,0.608,-0.706
1281589,-3806.0,-7998.0,1498.0,0.273,0.235,0.601,-0.713
1281605,-5240.0,-3774.0,294.0,0.272,0.232,0.594,-0.721
1281622,-3992.0,-3224.0,1078.0,0.27,0.228,0.586,-0.729
1281639,-4386.0,-2586.0,846.0,0.271,0.224,0.58,-0.735
1281656,-2992.0,522.0,348.0,0.268,0.217,0.575,-0.742
1281683,-3714.0,-1288.0,330.0,0.267,0.207,0.576,-0.744
1281699,-2670.0,-6242.0,1456.0,0.266,0.196,0.577,-0.747
1281716,-3252.0,-9060.0,1564.0,0.263,0.187,0.574,-0.753
1281733,-2108.0,-6616.0,2946.0,0.258,0.179,0.565,-0.763
1281750,-538.0,-1802.0,3842.0,0.25,0.173,0.555,-0.774
1281767,-1040.0,1832.0,1952.0,0.24,0.165,0.55,-0.782
1281784,-2648.0,-3286.0,3226.0,0.229,0.157,0.551,-0.787
1281800,-5232.0,-5262.0,5280.0,0.22,0.149,0.551,-0.791
1281817,-4090.0,-5890.0,4774.0,0.214,0.143,0.55,-0.795
1281834,-3720.0,-6034.0,2644.0,0.209,0.137,0.548,-0.798
1281860,-3608.0,-7484.0,3036.0,0.204,0.133,0.545,-0.802
1281877,-3844.0,-7992.0,3482.0,0.198,0.13,0.539,-0.809
1281894,-4056.0,-7106.0,4652.0,0.192,0.127,0.53,-0.816
1281910,-3176.0,-8116.0,4820.0,0.189,0.126,0.52,-0.823
1281926,-3442.0,-7342.0,3986.0,0.186,0.128,0.506,-0.833
1281942,-3318.0,-6764.0,3930.0,0.184,0.13,0.488,-0.843
1281959,-3886.0,-5942.0,6040.0,0.183,0.133,0.469,-0.854
1281976,-3612.0,-6758.0,6488.0,0.185,0.135,0.452,-0.862
1281993,-2914.0,-6194.0,5830.0,0.187,0.138,0.432,-0.871
1282020,-3382.0,-5234.0,5730.0,0.189,0.141,0.411,-0.88
1282037,-3852.0,-5098.0,6090.0,0.192,0.145,0.388,-0.89
1282054,-3590.0,-4468.0,6858.0,0.196,0.149,0.364,-0.898
1282071,-3436.0,-5510.0,7416.0,0.201,0.153,0.341,-0.906
1282088,-3436.0,-5602.0,6792.0,0.206,0.158,0.314,-0.913
1282105,-3686.0,-5456.0,7110.0,0.212,0.166,0.283,-0.921
1282121,-3650.0,-1270.0,6578.0,0.216,0.175,0.247,-0.928
1282137,-4320.0,1666.0,7918.0,0.219,0.181,0.218,-0.933
1282153,-4352.0,-2254.0,9398.0,0.224,0.187,0.193,-0.937
1282169,-3972.0,-310.0,8348.0,0.228,0.193,0.166,-0.94
1282196,-4440.0,498.0,7784.0,0.232,0.198,0.141,-0.942
1282213,-4780.0,-710.0,9324.0,0.235,0.202,0.116,-0.944
1282229,-4322.0,684.0,9080.0,0.237,0.204,0.094,-0.945
1282246,-4152.0,520.0,8912.0,0.24,0.205,0.076,-0.946
1282263,-3932.0,-4.0,8466.0,0.243,0.205,0.058,-0.946
1282279,-3618.0,136.0,8712.0,0.245,0.205,0.043,-0.947
1282295,-3820.0,272.0,8738.0,0.246,0.205,0.029,-0.947
1282311,-4106.0,1028.0,8634.0,0.246,0.204,0.019,-0.947
1282337,-3918.0,742.0,9292.0,0.247,0.203,0.008,-0.948
1282353,-3616.0,320.0,10056.0,0.247,0.202,-0.006,-0.948
1282370,-3618.0,1948.0,9602.0,0.249,0.203,-0.022,-0.947
1282387,-3956.0,2040.0,9236.0,0.251,0.203,-0.039,-0.946
1282403,-3254.0,2138.0,8896.0,0.253,0.203,-0.054,-0.944
1282419,-3854.0,2814.0,8808.0,0.255,0.203,-0.067,-0.943
1282436,-3588.0,2658.0,8750.0,0.256,0.202,-0.079,-0.942
1282453,-3376.0,2404.0,8688.0,0.257,0.2,-0.09,-0.941
1282470,-3020.0,2374.0,8544.0,0.257,0.198,-0.101,-0.94
1282497,-2892.0,2310.0,8368.0,0.258,0.195,-0.112,-0.94
1282513,-2878.0,2866.0,8568.0,0.258,0.194,-0.123,-0.938
1282529,-2828.0,3920.0,9134.0,0.257,0.195,-0.136,-0.937
1282546,-2680.0,3542.0,10086.0,0.256,0.198,-0.149,-0.935
1282563,-3178.0,4196.0,10218.0,0.253,0.203,-0.164,-0.931
1282580,-3218.0,5762.0,10448.0,0.251,0.212,-0.178,-0.928
1282597,-3978.0,6494.0,9354.0,0.249,0.218,-0.188,-0.925
1282613,-2958.0,5956.0,8188.0,0.248,0.223,-0.191,-0.923
1282639,-2738.0,4492.0,6992.0,0.248,0.225,-0.191,-0.923
1282655,-1942.0,2026.0,5988.0,0.248,0.225,-0.189,-0.923
1282671,-1546.0,1222.0,6098.0,0.247,0.226,-0.193,-0.922
1282687,-1434.0,1840.0,6316.0,0.247,0.228,-0.201,-0.92
1282703,-1180.0,1986.0,6624.0,0.246,0.229,-0.212,-0.918
1282719,-890.0,2282.0,6768.0,0.247,0.231,-0.225,-0.914
1282736,-706.0,2564.0,6814.0,0.249,0.232,-0.24,-0.909
1282753,-720.0,3546.0,6728.0,0.253,0.234,-0.257,-0.903
1282780,-808.0,4690.0,6412.0,0.258,0.236,-0.273,-0.896
1282796,-858.0,5844.0,6194.0,0.264,0.236,-0.288,-0.89
1282812,-1036.0,6710.0,6160.0,0.272,0.234,-0.299,-0.884
1282829,-1038.0,6822.0,6420.0,0.282,0.228,-0.305,-0.881
1282846,-1234.0,6432.0,6018.0,0.291,0.221,-0.309,-0.878
1282862,134.0,6118.0,5842.0,0.299,0.214,-0.311,-0.877
1282879,-838.0,5968.0,4694.0,0.305,0.207,-0.314,-0.875
1282895,-1330.0,6888.0,4596.0,0.312,0.199,-0.315,-0.874
1282921,-1144.0,6540.0,4614.0,0.319,0.189,-0.314,-0.874
1282937,-1238.0,5422.0,4942.0,0.325,0.18,-0.314,-0.874
1282953,-900.0,4754.0,5802.0,0.329,0.173,-0.315,-0.873
1282969,-1130.0,5234.0,6510.0,0.332,0.17,-0.321,-0.871
1282985,-1554.0,6672.0,6730.0,0.333,0.17,-0.328,-0.868
1283001,-1786.0,7296.0,6664.0,0.334,0.17,-0.334,-0.865
1283027,-1872.0,7068.0,6474.0,0.336,0.171,-0.339,-0.862
1283043,-1758.0,6632.0,6248.0,0.338,0.172,-0.341,-0.86
1283059,-1636.0,5944.0,6176.0,0.34,0.175,-0.343,-0.858
1283075,-1506.0,5374.0,6126.0,0.342,0.178,-0.345,-0.856
1283092,-1452.0,5076.0,6062.0,0.343,0.182,-0.347,-0.854
1283108,-1528.0,5004.0,5996.0,0.345,0.186,-0.35,-0.851
1283134,-1566.0,5124.0,6016.0,0.348,0.19,-0.353,-0.848
1283150,-1768.0,5516.0,6098.0,0.351,0.193,-0.356,-0.844
1283166,-1950.0,6336.0,6346.0,0.355,0.194,-0.359,-0.841
1283183,-1974.0,7278.0,6530.0,0.36,0.191,-0.361,-0.839
1283199,-1376.0,7898.0,6610.0,0.366,0.184,-0.359,-0.838
1283216,-370.0,7462.0,6684.0,0.371,0.176,-0.355,-0.84
1283232,630.0,6058.0,6620.0,0.375,0.169,-0.348,-0.843
1283249,664.0,4194.0,6582.0,0.376,0.166,-0.343,-0.845
1283275,118.0,3860.0,6560.0,0.376,0.167,-0.342,-0.845
1283292,-132.0,4636.0,6200.0,0.376,0.171,-0.347,-0.842
1283309,-144.0,5268.0,5778.0,0.375,0.177,-0.354,-0.838
1283326,-240.0,5940.0,5390.0,0.375,0.182,-0.362,-0.834
1283342,-352.0,6524.0,5132.0,0.374,0.186,-0.369,-0.83
1283358,-380.0,6880.0,5032.0,0.375,0.189,-0.374,-0.827
1283374,-350.0,7090.0,4926.0,0.377,0.19,-0.378,-0.824
1283400,-368.0,6830.0,4866.0,0.381,0.19,-0.38,-0.821
1283416,-376.0,6450.0,4850.0,0.386,0.188,-0.381,-0.819
1283433,-324.0,6186.0,4844.0,0.391,0.184,-0.381,-0.817
1283449,-356.0,6084.0,4904.0,0.397,0.181,-0.381,-0.815
1283465,-250.0,6218.0,4948.0,0.402,0.176,-0.381,-0.813
1283481,-150.0,6480.0,5000.0,0.408,0.171,-0.382,-0.811
1283497,2.0,6662.0,5032.0,0.413,0.166,-0.383,-0.809
1283523,136.0,6808.0,5088.0,0.417,0.161,-0.384,-0.808
1283539,254.0,6844.0,5090.0,0.42,0.156,-0.385,-0.807
1283555,432.0,6698.0,5168.0,0.423,0.152,-0.385,-0.806
1283571,514.0,6418.0,5296.0,0.424,0.148,-0.385,-0.806
1283587,558.0,6334.0,5382.0,0.425,0.144,-0.386,-0.806
1283603,648.0,6284.0,5390.0,0.425,0.141,-0.387,-0.806
1283629,630.0,6260.0,5496.0,0.424,0.139,-0.388,-0.806
1283645,752.0,6308.0,5478.0,0.424,0.136,-0.389,-0.807
1283661,838.0,6254.0,5564.0,0.424,0.134,-0.389,-0.807
1283677,884.0,6096.0,5564.0,0.424,0.131,-0.389,-0.807
1283694,958.0,5982.0,5540.0,0.424,0.128,-0.389,-0.808
1283710,998.0,5932.0,5734.0,0.424,0.125,-0.388,-0.809
1283736,1072.0,5866.0,5864.0,0.424,0.122,-0.388,-0.809
1283752,1258.0,5864.0,6278.0,0.425,0.118,-0.387,-0.81
1283768,1482.0,5530.0,6452.0,0.426,0.114,-0.386,-0.81
1283784,1676.0,5322.0,6474.0,0.427,0.111,-0.385,-0.81
1283801,1690.0,5292.0,6430.0,0.429,0.109,-0.385,-0.81
1283817,1682.0,5504.0,6308.0,0.432,0.108,-0.384,-0.809
1283833,1588.0,5566.0,6172.0,0.434,0.108,-0.384,-0.808
1283859,1454.0,5604.0,6102.0,0.437,0.109,-0.384,-0.807
1283875,1302.0,5624.0,6010.0,0.439,0.109,-0.383,-0.805
1283891,1330.0,5750.0,5830.0,0.442,0.11,-0.382,-0.804
1283907,1268.0,5810.0,5658.0,0.445,0.11,-0.382,-0.803
1283923,1200.0,5920.0,5502.0,0.448,0.111,-0.382,-0.801
1283939,1056.0,6040.0,5390.0,0.45,0.112,-0.381,-0.8
1283965,1060.0,6158.0,5268.0,0.452,0.112,-0.381,-0.799
1283981,988.0,6230.0,5158.0,0.454,0.112,-0.38,-0.798
1283997,914.0,6238.0,5122.0,0.456,0.111,-0.38,-0.797
1284013,986.0,6274.0,5124.0,0.457,0.11,-0.379,-0.797
1284029,822.0,6262.0,5086.0,0.457,0.108,-0.379,-0.797
1284055,1152.0,6114.0,5186.0,0.457,0.105,-0.379,-0.798
1284071,1222.0,6256.0,5300.0,0.457,0.103,-0.379,-0.798
1284087,1362.0,6402.0,5466.0,0.456,0.099,-0.378,-0.8
1284103,1602.0,6272.0,5700.0,0.454,0.095,-0.378,-0.801
1284119,1802.0,5924.0,5840.0,0.453,0.091,-0.377,-0.803
1284135,1968.0,5508.0,6030.0,0.451,0.087,-0.376,-0.805
1284161,1990.0,5240.0,6156.0,0.449,0.085,-0.375,-0.806
1284178,1848.0,5202.0,6120.0,0.447,0.083,-0.376,-0.807
1284195,1804.0,5388.0,6174.0,0.445,0.082,-0.376,-0.808
1284212,1780.0,5572.0,6208.0,0.444,0.081,-0.377,-0.809
1284228,1828.0,5534.0,6216.0,0.443,0.08,-0.376,-0.81
1284245,1936.0,5404.0,6212.0,0.442,0.078,-0.376,-0.811
1284262,1910.0,5098.0,6196.0,0.442,0.077,-0.375,-0.811
1284279,1858.0,5084.0,6254.0,0.442,0.076,-0.374,-0.812
1284296,1776.0,5148.0,6282.0,0.442,0.076,-0.374,-0.812
1284313,1736.0,5294.0,6180.0,0.442,0.076,-0.375,-0.812
1284329,1674.0,5474.0,6084.0,0.442,0.076,-0.375,-0.811
1284355,1604.0,5584.0,6078.0,0.442,0.076,-0.375,-0.811
1284371,1568.0,5688.0,6012.0,0.443,0.076,-0.375,-0.811
1284387,1568.0,5584.0,5968.0,0.443,0.076,-0.375,-0.811
1284403,1562.0,5642.0,5894.0,0.443,0.076,-0.375,-0.811
1284419,1606.0,5628.0,5918.0,0.443,0.076,-0.375,-0.811
1284435,1662.0,5656.0,5890.0,0.443,0.077,-0.375,-0.811
1284461,1610.0,5636.0,5850.0,0.443,0.077,-0.375,-0.811
1284477,1666.0,5676.0,5830.0,0.442,0.077,-0.375,-0.811
1284493,1664.0,5596.0,5868.0,0.442,0.076,-0.375,-0.811
1284509,1684.0,5590.0,5916.0,0.441,0.076,-0.375,-0.812
1284525,1690.0,5440.0,5842.0,0.441,0.076,-0.375,-0.812
1284541,1598.0,5228.0,5836.0,0.44,0.076,-0.375,-0.812
1284567,1560.0,5240.0,5902.0,0.44,0.076,-0.376,-0.812
1284583,1756.0,5464.0,6092.0,0.44,0.075,-0.377,-0.812
1284599,1944.0,5764.0,6120.0,0.44,0.075,-0.378,-0.811
1284615,2114.0,6094.0,6138.0,0.44,0.074,-0.378,-0.811
1284631,2064.0,6066.0,6076.0,0.44,0.074,-0.378,-0.811
1284647,1856.0,5700.0,6028.0,0.44,0.074,-0.377,-0.812
1284673,1540.0,5364.0,5876.0,0.439,0.075,-0.377,-0.812
1284689,1314.0,5308.0,5704.0,0.438,0.077,-0.377,-0.812
1284705,1130.0,5270.0,5586.0,0.437,0.077,-0.377,-0.813
1284722,1062.0,5184.0,5572.0,0.437,0.077,-0.377,-0.813
1284738,1190.0,5258.0,5634.0,0.436,0.076,-0.377,-0.813
1284754,1444.0,5364.0,5744.0,0.436,0.075,-0.377,-0.814
1284780,1646.0,5388.0,5880.0,0.436,0.073,-0.377,-0.814
1284796,1830.0,5426.0,6038.0,0.437,0.071,-0.376,-0.814
1284812,1990.0,5480.0,6130.0,0.437,0.07,-0.376,-0.814
1284828,2088.0,5608.0,6186.0,0.437,0.069,-0.377,-0.814
1284844,2152.0,5716.0,6180.0,0.437,0.068,-0.377,-0.814
1284860,2110.0,5710.0,6160.0,0.437,0.068,-0.377,-0.814
1284886,2064.0,5750.0,6082.0,0.437,0.068,-0.376,-0.814
1284902,1908.0,5784.0,5992.0,0.437,0.068,-0.376,-0.814
1284918,1724.0,5740.0,5922.0,0.437,0.068,-0.375,-0.814
1284934,1578.0,5632.0,5882.0,0.437,0.068,-0.375,-0.815
1284950,1540.0,5566.0,5864.0,0.436,0.068,-0.375,-0.815
1284966,1494.0,5428.0,5858.0,0.436,0.068,-0.374,-0.816
1284992,1594.0,5332.0,5880.0,0.435,0.068,-0.374,-0.816
1285009,1578.0,5344.0,5930.0,0.435,0.067,-0.373,-0.817
1285025,1672.0,5282.0,6014.0,0.434,0.067,-0.373,-0.817
1285041,1770.0,5380.0,6056.0,0.434,0.066,-0.373,-0.817
1285057,1890.0,5510.0,6070.0,0.434,0.066,-0.373,-0.817
1285074,1900.0,5472.0,6088.0,0.434,0.066,-0.373,-0.817
1285090,1886.0,5422.0,6074.0,0.434,0.066,-0.373,-0.817
1285117,1826.0,5436.0,6032.0,0.434,0.067,-0.374,-0.817
1285133,1746.0,5444.0,6000.0,0.434,0.067,-0.374,-0.817
1285149,1852.0,5442.0,5968.0,0.434,0.068,-0.374,-0.817
1285165,1756.0,5546.0,5942.0,0.435,0.069,-0.374,-0.816
1285182,1892.0,5452.0,5978.0,0.436,0.07,-0.374,-0.815
1285198,2088.0,5408.0,5958.0,0.439,0.071,-0.374,-0.814
1285214,2082.0,5202.0,5774.0,0.444,0.073,-0.373,-0.811
1285240,1790.0,6396.0,5956.0,0.451,0.075,-0.371,-0.808
1285257,1598.0,5976.0,6460.0,0.46,0.074,-0.365,-0.806
1285273,1560.0,4240.0,6674.0,0.47,0.071,-0.358,-0.804
1285289,1202.0,3528.0,6740.0,0.48,0.069,-0.355,-0.799
1285305,1364.0,5034.0,6676.0,0.488,0.068,-0.357,-0.794
1285321,1750.0,7346.0,6710.0,0.496,0.063,-0.354,-0.791
1285347,1724.0,4128.0,7166.0,0.502,0.055,-0.35,-0.789
1285363,2484.0,3310.0,6572.0,0.507,0.051,-0.348,-0.787
1285379,2366.0,4082.0,6416.0,0.51,0.051,-0.351,-0.784
1285395,2358.0,4430.0,6082.0,0.51,0.053,-0.356,-0.782
1285411,2188.0,5880.0,5912.0,0.508,0.057,-0.362,-0.78
1285427,1966.0,5638.0,5608.0,0.503,0.061,-0.369,-0.779
1285453,2170.0,6166.0,5462.0,0.497,0.064,-0.375,-0.78
1285469,2032.0,6398.0,5276.0,0.49,0.068,-0.38,-0.782
1285485,2028.0,6262.0,5158.0,0.481,0.071,-0.383,-0.785
1285501,1948.0,6328.0,4958.0,0.472,0.074,-0.387,-0.789
1285517,1790.0,6488.0,4788.0,0.464,0.078,-0.39,-0.792
1285543,1838.0,6694.0,4688.0,0.457,0.081,-0.393,-0.794
1285560,1832.0,6898.0,4806.0,0.451,0.083,-0.394,-0.796
1285577,1776.0,6636.0,5106.0,0.448,0.082,-0.392,-0.799
1285594,1774.0,6122.0,5472.0,0.446,0.079,-0.387,-0.803
1285611,1868.0,5474.0,5786.0,0.445,0.074,-0.381,-0.807
1285628,1926.0,4634.0,6074.0,0.445,0.068,-0.374,-0.81
1285645,1980.0,4176.0,6330.0,0.445,0.063,-0.37,-0.813
1285661,2140.0,4278.0,6452.0,0.445,0.06,-0.368,-0.814
1285678,2182.0,4706.0,6594.0,0.444,0.057,-0.368,-0.815
1285694,2182.0,5106.0,6592.0,0.443,0.056,-0.369,-0.815
1285711,2074.0,5362.0,6522.0,0.442,0.056,-0.369,-0.815
1285728,2000.0,5374.0,6502.0,0.442,0.056,-0.369,-0.816
1285745,1916.0,5336.0,6406.0,0.442,0.056,-0.368,-0.816
1285771,1804.0,5132.0,6324.0,0.442,0.056,-0.368,-0.816
1285787,1706.0,5128.0,6164.0,0.442,0.057,-0.368,-0.816
1285803,1678.0,5322.0,6030.0,0.442,0.058,-0.368,-0.816
1285819,1680.0,5434.0,5892.0,0.441,0.058,-0.369,-0.816
1285835,1700.0,5520.0,5830.0,0.441,0.059,-0.369,-0.816
1285852,1830.0,5386.0,5844.0,0.441,0.059,-0.369,-0.816
1285878,2114.0,5240.0,5954.0,0.442,0.059,-0.369,-0.816
1285895,1922.0,5388.0,5884.0,0.443,0.06,-0.369,-0.815
1285912,1920.0,5314.0,6008.0,0.445,0.061,-0.369,-0.814
1285928,2020.0,5424.0,6120.0,0.446,0.061,-0.37,-0.813
1285944,1580.0,5114.0,5966.0,0.447,0.062,-0.371,-0.812
1285961,1830.0,5232.0,5846.0,0.447,0.062,-0.373,-0.811
1285978,1808.0,5646.0,5756.0,0.447,0.062,-0.375,-0.81
1285994,1780.0,5764.0,5754.0,0.446,0.062,-0.376,-0.81
1286011,1808.0,5816.0,5746.0,0.445,0.061,-0.377,-0.81
1286037,1780.0,5742.0,5754.0,0.444,0.061,-0.377,-0.81
1286054,1780.0,5606.0,5868.0,0.443,0.06,-0.377,-0.811
1286070,1818.0,5562.0,5988.0,0.442,0.059,-0.376,-0.812
1286087,1798.0,5396.0,5986.0,0.441,0.058,-0.375,-0.813
1286103,1936.0,5362.0,6030.0,0.44,0.057,-0.375,-0.814
1286119,1904.0,5324.0,6096.0,0.439,0.056,-0.374,-0.815
1286135,1984.0,5182.0,6144.0,0.438,0.054,-0.373,-0.816
1286161,2102.0,5176.0,6194.0,0.437,0.053,-0.372,-0.817
1286177,2134.0,5168.0,6216.0,0.437,0.052,-0.371,-0.818
1286194,2110.0,5186.0,6286.0,0.437,0.052,-0.371,-0.818
1286211,2034.0,5170.0,6310.0,0.438,0.052,-0.37,-0.818
1286228,2064.0,5076.0,6286.0,0.439,0.052,-0.369,-0.817
1286247,2032.0,5196.0,6216.0,0.439,0.053,-0.37,-0.817
1286264,2064.0,5284.0,6196.0,0.44,0.054,-0.37,-0.817
1286281,2030.0,5466.0,6102.0,0.44,0.055,-0.371,-0.816
1286297,1894.0,5450.0,5946.0,0.44,0.057,-0.372,-0.815
1286314,1812.0,5534.0,5820.0,0.441,0.058,-0.372,-0.815
1286331,1748.0,5556.0,5774.0,0.44,0.059,-0.373,-0.815
1286347,1760.0,5624.0,5770.0,0.44,0.06,-0.374,-0.814
1286364,1770.0,5708.0,5680.0,0.44,0.061,-0.374,-0.814
1286390,1736.0,5690.0,5652.0,0.439,0.061,-0.374,-0.814
1286406,1686.0,5568.0,5762.0,0.439,0.06,-0.374,-0.815
1286422,1730.0,5512.0,5898.0,0.438,0.06,-0.374,-0.815
1286438,1860.0,5370.0,6084.0,0.437,0.059,-0.374,-0.816
1286454,1814.0,5366.0,5976.0,0.436,0.058,-0.374,-0.817
1286480,1972.0,5434.0,6034.0,0.435,0.057,-0.374,-0.817
1286496,1970.0,5310.0,6170.0,0.434,0.057,-0.374,-0.818
1286512,2000.0,5326.0,6150.0,0.434,0.056,-0.374,-0.818
1286528,1890.0,5294.0,6050.0,0.433,0.056,-0.373,-0.818
1286545,1882.0,5304.0,5968.0,0.433,0.056,-0.373,-0.819
1286562,1778.0,5402.0,5982.0,0.433,0.056,-0.373,-0.819
1286578,1778.0,5430.0,5928.0,0.433,0.056,-0.373,-0.819
1286595,1886.0,5472.0,5872.0,0.432,0.056,-0.373,-0.819
1286612,1790.0,5506.0,5870.0,0.432,0.056,-0.373,-0.819
1286639,1818.0,5536.0,5880.0,0.432,0.055,-0.372,-0.82
1286656,1856.0,5478.0,5946.0,0.431,0.055,-0.372,-0.82
1286673,1814.0,5344.0,5952.0,0.431,0.055,-0.372,-0.82
1286690,1860.0,5382.0,6056.0,0.431,0.054,-0.372,-0.82
1286707,1890.0,5200.0,6006.0,0.431,0.054,-0.372,-0.82
1286724,1886.0,5474.0,6038.0,0.43,0.054,-0.373,-0.82
1286741,2010.0,5570.0,6054.0,0.43,0.054,-0.373,-0.82
1286758,1964.0,5440.0,6008.0,0.43,0.054,-0.373,-0.821
1286774,1924.0,5318.0,6058.0,0.43,0.054,-0.373,-0.821
1286790,1774.0,5476.0,5920.0,0.429,0.054,-0.373,-0.821
1286807,1746.0,5586.0,5836.0,0.429,0.054,-0.374,-0.821
1286834,1798.0,5568.0,5896.0,0.428,0.054,-0.374,-0.821
1286850,1802.0,5462.0,5878.0,0.428,0.053,-0.373,-0.821
1286867,1754.0,5244.0,5874.0,0.427,0.053,-0.373,-0.822
1286884,1712.0,5246.0,5942.0,0.427,0.052,-0.373,-0.822
1286900,1772.0,5260.0,6012.0,0.427,0.051,-0.373,-0.822
1286916,1836.0,5350.0,6044.0,0.427,0.05,-0.372,-0.823
1286932,1922.0,5408.0,6106.0,0.426,0.049,-0.372,-0.823
1286949,1976.0,5292.0,6080.0,0.426,0.048,-0.372,-0.823
1286975,1976.0,5298.0,6092.0,0.426,0.048,-0.372,-0.824
1286991,1916.0,5344.0,6046.0,0.426,0.047,-0.372,-0.824
1287007,1928.0,5426.0,6100.0,0.426,0.046,-0.372,-0.824
1287023,1962.0,5404.0,6020.0,0.425,0.046,-0.372,-0.824
1287039,2018.0,5348.0,6032.0,0.425,0.045,-0.372,-0.824
1287056,2026.0,5488.0,6020.0,0.425,0.045,-0.371,-0.824
1287072,2008.0,5442.0,6106.0,0.425,0.044,-0.371,-0.825
1287099,2054.0,5408.0,6064.0,0.425,0.043,-0.37,-0.825
1287115,2008.0,5388.0,6124.0,0.424,0.043,-0.37,-0.825
1287131,2110.0,5330.0,6192.0,0.424,0.042,-0.369,-0.826
1287147,2030.0,5176.0,6168.0,0.424,0.042,-0.368,-0.826
1287163,2048.0,5144.0,6170.0,0.424,0.042,-0.367,-0.827
1287180,1970.0,5204.0,6156.0,0.424,0.042,-0.367,-0.827
1287197,1994.0,5204.0,6066.0,0.424,0.042,-0.367,-0.827
1287214,1942.0,5280.0,6020.0,0.424,0.042,-0.367,-0.827
1287240,1804.0,5176.0,5920.0,0.424,0.042,-0.367,-0.827
1287256,1812.0,5394.0,5824.0,0.424,0.043,-0.368,-0.826
1287273,1788.0,5734.0,5860.0,0.423,0.043,-0.37,-0.826
1287290,1822.0,5750.0,5806.0,0.422,0.043,-0.371,-0.826
1287306,1904.0,5606.0,5872.0,0.42,0.043,-0.371,-0.827
1287322,1930.0,5432.0,5900.0,0.419,0.042,-0.371,-0.827
1287339,1974.0,5328.0,6034.0,0.419,0.042,-0.371,-0.828
1287356,1966.0,5234.0,6176.0,0.418,0.041,-0.37,-0.829
1287373,2034.0,5046.0,6228.0,0.418,0.039,-0.369,-0.829
1287399,2072.0,4902.0,6344.0,0.417,0.038,-0.368,-0.83
1287415,2136.0,5024.0,6352.0,0.418,0.038,-0.367,-0.83
1287432,2130.0,5104.0,6328.0,0.418,0.037,-0.367,-0.83
1287448,2002.0,5222.0,6260.0,0.418,0.038,-0.367,-0.83
1287464,1972.0,5326.0,6064.0,0.418,0.038,-0.366,-0.83
1287480,1874.0,5198.0,6074.0,0.418,0.038,-0.366,-0.83
1287497,1730.0,5018.0,5980.0,0.418,0.039,-0.366,-0.83
1287523,1692.0,5170.0,5916.0,0.417,0.041,-0.368,-0.83
1287539,1574.0,5844.0,5826.0,0.416,0.042,-0.37,-0.83
1287556,1788.0,5824.0,6174.0,0.414,0.044,-0.372,-0.83
1287573,2502.0,6080.0,7340.0,0.409,0.047,-0.377,-0.83
1287590,2834.0,5030.0,8408.0,0.403,0.056,-0.384,-0.829
1287607,1268.0,5032.0,8990.0,0.394,0.071,-0.393,-0.828
1287624,550.0,5162.0,9476.0,0.384,0.089,-0.405,-0.825
1287640,-506.0,6048.0,9288.0,0.375,0.111,-0.418,-0.82
1287667,-296.0,7224.0,8664.0,0.365,0.134,-0.433,-0.813
1287683,-866.0,8238.0,7544.0,0.356,0.158,-0.447,-0.806
1287699,-1228.0,9782.0,6942.0,0.346,0.179,-0.458,-0.799
1287715,-1386.0,9874.0,5912.0,0.336,0.202,-0.465,-0.794
1287731,-1472.0,9502.0,4798.0,0.324,0.225,-0.47,-0.79
1287747,-898.0,10894.0,3626.0,0.31,0.248,-0.47,-0.788
1287763,-1332.0,12500.0,1968.0,0.293,0.27,-0.462,-0.792
1287789,-2202.0,11740.0,1250.0,0.275,0.289,-0.449,-0.8
1287806,-2332.0,10002.0,1060.0,0.256,0.304,-0.435,-0.808
1287823,-3348.0,9584.0,1166.0,0.238,0.316,-0.421,-0.816
1287839,-3612.0,7712.0,1280.0,0.222,0.324,-0.406,-0.825
1287855,-3654.0,6808.0,1406.0,0.208,0.327,-0.393,-0.834
1287871,-3490.0,6212.0,1478.0,0.196,0.328,-0.378,-0.843
1287887,-3192.0,6134.0,1646.0,0.185,0.325,-0.362,-0.854
1287913,-2840.0,4952.0,3066.0,0.177,0.32,-0.346,-0.864
1287929,-2654.0,4094.0,3670.0,0.171,0.312,-0.329,-0.875
1287945,-2056.0,2552.0,3794.0,0.168,0.303,-0.313,-0.884
1287961,-2060.0,1600.0,4172.0,0.166,0.295,-0.302,-0.891
1287977,-1678.0,1844.0,4778.0,0.163,0.287,-0.294,-0.897
1287993,-1290.0,2096.0,4826.0,0.161,0.281,-0.289,-0.901
1288019,-782.0,2318.0,5136.0,0.16,0.277,-0.285,-0.903
1288035,-906.0,2474.0,5500.0,0.159,0.276,-0.283,-0.905
1288051,-1098.0,2650.0,5888.0,0.158,0.277,-0.282,-0.905
1288067,-1454.0,2710.0,4920.0,0.158,0.279,-0.283,-0.904
1288083,-1526.0,2850.0,4264.0,0.158,0.281,-0.287,-0.902
1288099,-1798.0,5532.0,3346.0,0.158,0.282,-0.291,-0.9
1288125,-2700.0,8656.0,2670.0,0.16,0.28,-0.288,-0.902
1288142,-2330.0,8280.0,2652.0,0.166,0.271,-0.275,-0.907
1288159,-1268.0,4946.0,3776.0,0.173,0.257,-0.259,-0.915
1288175,-338.0,2762.0,4812.0,0.18,0.244,-0.245,-0.921
1288192,4.0,2416.0,5332.0,0.183,0.233,-0.239,-0.925
1288208,-26.0,3588.0,5734.0,0.186,0.222,-0.237,-0.927
1288225,-96.0,4022.0,6098.0,0.188,0.213,-0.237,-0.929
1288242,28.0,3906.0,6622.0,0.192,0.202,-0.237,-0.931
1288258,-144.0,3630.0,6730.0,0.197,0.192,-0.237,-0.932
1288285,292.0,2476.0,6986.0,0.202,0.183,-0.237,-0.932
1288302,142.0,2480.0,6708.0,0.208,0.176,-0.241,-0.932
1288319,184.0,2550.0,6298.0,0.214,0.171,-0.247,-0.93
1288335,-160.0,2674.0,5952.0,0.22,0.167,-0.257,-0.926
1288351,-328.0,4104.0,5640.0,0.226,0.164,-0.269,-0.922
1288367,-680.0,5298.0,5282.0,0.233,0.161,-0.28,-0.917
1288383,-1430.0,5464.0,5064.0,0.242,0.155,-0.287,-0.914
1288409,-1476.0,4322.0,4932.0,0.252,0.149,-0.296,-0.909
1288425,-868.0,3120.0,7094.0,0.262,0.146,-0.308,-0.903
1288441,-2044.0,6690.0,4676.0,0.273,0.143,-0.32,-0.896
1288457,-2752.0,9948.0,5346.0,0.282,0.136,-0.325,-0.893
1288474,-2776.0,11418.0,5080.0,0.291,0.118,-0.316,-0.895
1288490,-1670.0,7944.0,6018.0,0.301,0.094,-0.299,-0.901
1288507,6.0,4052.0,7036.0,0.31,0.072,-0.284,-0.905
1288533,650.0,2654.0,7348.0,0.316,0.055,-0.274,-0.906
1288549,788.0,3076.0,7048.0,0.32,0.044,-0.272,-0.906
1288565,516.0,3148.0,7014.0,0.322,0.038,-0.275,-0.905
1288581,-192.0,3420.0,7770.0,0.323,0.035,-0.284,-0.902
1288597,-318.0,4484.0,8390.0,0.323,0.03,-0.295,-0.899
1288614,-140.0,5736.0,9094.0,0.322,0.023,-0.307,-0.895
1288630,-82.0,6702.0,9720.0,0.322,0.013,-0.317,-0.892
1288657,332.0,7828.0,10698.0,0.322,-0.002,-0.323,-0.89
1288673,1184.0,7998.0,11162.0,0.321,-0.018,-0.325,-0.889
1288689,2816.0,6486.0,11054.0,0.319,-0.032,-0.324,-0.89
1288706,4428.0,3418.0,10922.0,0.313,-0.038,-0.322,-0.893
1288722,3658.0,1738.0,10870.0,0.308,-0.035,-0.323,-0.894
1288738,2398.0,1932.0,10728.0,0.306,-0.026,-0.329,-0.893
1288755,1868.0,2694.0,10470.0,0.307,-0.014,-0.341,-0.888
1288772,2264.0,4246.0,9790.0,0.31,0.003,-0.357,-0.881
1288798,1962.0,6354.0,8352.0,0.312,0.023,-0.373,-0.874
1288814,1174.0,8376.0,6884.0,0.314,0.045,-0.384,-0.867
1288830,954.0,9432.0,6006.0,0.315,0.066,-0.389,-0.863
1288846,436.0,11468.0,5056.0,0.317,0.086,-0.387,-0.862
1288862,-1370.0,12782.0,4632.0,0.321,0.1,-0.372,-0.865
1288878,-1682.0,9884.0,5092.0,0.325,0.107,-0.348,-0.873
1288905,-1834.0,5850.0,5638.0,0.327,0.111,-0.325,-0.88
1288922,-1458.0,3924.0,5984.0,0.324,0.116,-0.31,-0.886
1288938,-654.0,3944.0,6186.0,0.318,0.125,-0.304,-0.889
1288954,-552.0,5188.0,5902.0,0.31,0.137,-0.304,-0.89
1288970,-856.0,5474.0,5552.0,0.301,0.149,-0.305,-0.891
1288986,-1132.0,5168.0,5534.0,0.292,0.161,-0.307,-0.891
1289003,-1062.0,4300.0,5448.0,0.283,0.172,-0.31,-0.891
1289020,-1228.0,3430.0,5332.0,0.273,0.183,-0.316,-0.89
1289046,-1320.0,3190.0,5204.0,0.262,0.194,-0.328,-0.887
1289062,-1492.0,3934.0,4792.0,0.25,0.204,-0.343,-0.882
1289078,-1420.0,4560.0,4234.0,0.239,0.214,-0.359,-0.877
1289094,-1758.0,5396.0,3738.0,0.229,0.221,-0.373,-0.872
1289110,-1838.0,6000.0,3934.0,0.221,0.226,-0.383,-0.868
1289127,-1650.0,5660.0,4096.0,0.215,0.228,-0.39,-0.866
1289144,-1232.0,5442.0,4318.0,0.211,0.227,-0.395,-0.865
1289170,-866.0,5632.0,4368.0,0.207,0.225,-0.399,-0.864
1289187,-626.0,5646.0,4220.0,0.204,0.223,-0.403,-0.864
1289203,-802.0,6154.0,3898.0,0.203,0.221,-0.406,-0.863
1289219,-640.0,6400.0,4480.0,0.202,0.219,-0.408,-0.863
1289235,-622.0,6096.0,4848.0,0.201,0.216,-0.409,-0.863
1289252,-620.0,5388.0,4950.0,0.201,0.215,-0.411,-0.863
1289268,-496.0,5334.0,4906.0,0.2,0.214,-0.416,-0.861
1289294,-484.0,6454.0,4694.0,0.2,0.213,-0.422,-0.858
1289310,-962.0,7908.0,4284.0,0.2,0.213,-0.424,-0.857
1289326,-1078.0,8026.0,4334.0,0.204,0.21,-0.421,-0.859
1289343,-1172.0,6240.0,4698.0,0.209,0.205,-0.412,-0.863
1289359,-1174.0,4446.0,4972.0,0.214,0.199,-0.404,-0.867
1289375,-884.0,4036.0,5178.0,0.22,0.193,-0.399,-0.869
1289391,-442.0,4552.0,5314.0,0.224,0.19,-0.398,-0.869
1289417,-138.0,5352.0,5318.0,0.228,0.187,-0.4,-0.868
1289433,218.0,6090.0,5234.0,0.231,0.186,-0.404,-0.866
1289449,442.0,7124.0,5054.0,0.233,0.186,-0.409,-0.862
1289465,536.0,8112.0,4580.0,0.234,0.188,-0.414,-0.859
1289482,436.0,8494.0,4312.0,0.234,0.189,-0.418,-0.857
1289498,240.0,8174.0,4220.0,0.234,0.189,-0.419,-0.857
1289524,172.0,7448.0,4212.0,0.234,0.189,-0.42,-0.856
1289540,-84.0,6904.0,4122.0,0.233,0.189,-0.421,-0.856
1289556,-24.0,6672.0,4196.0,0.231,0.188,-0.422,-0.856
1289572,180.0,6662.0,4270.0,0.23,0.186,-0.423,-0.856
1289588,674.0,6846.0,4362.0,0.228,0.184,-0.424,-0.857
1289604,1280.0,6946.0,4396.0,0.227,0.181,-0.426,-0.857
1289630,1454.0,6626.0,4430.0,0.226,0.177,-0.427,-0.857
1289646,1054.0,6016.0,4198.0,0.225,0.174,-0.427,-0.858
1289663,418.0,5366.0,4132.0,0.225,0.17,-0.428,-0.859
1289679,256.0,5424.0,4068.0,0.224,0.166,-0.429,-0.859
1289695,552.0,5560.0,3996.0,0.224,0.16,-0.429,-0.86
1289711,788.0,5738.0,4242.0,0.224,0.153,-0.429,-0.861
1289737,700.0,5418.0,4496.0,0.225,0.145,-0.429,-0.863
1289753,64.0,5236.0,4760.0,0.227,0.137,-0.427,-0.864
1289769,72.0,5572.0,4858.0,0.23,0.129,-0.427,-0.865
1289785,572.0,6232.0,4862.0,0.235,0.121,-0.427,-0.865
1289801,856.0,6606.0,4934.0,0.24,0.115,-0.427,-0.864
1289817,864.0,7192.0,5354.0,0.245,0.109,-0.428,-0.863
1289843,556.0,7236.0,5470.0,0.249,0.106,-0.429,-0.862
1289859,474.0,7238.0,5412.0,0.253,0.104,-0.432,-0.86
1289876,306.0,7342.0,5066.0,0.257,0.103,-0.436,-0.856
1289892,176.0,7706.0,4982.0,0.26,0.103,-0.441,-0.853
1289909,208.0,8234.0,5008.0,0.262,0.103,-0.445,-0.85
1289925,392.0,8706.0,4972.0,0.265,0.103,-0.447,-0.848
1289942,176.0,8136.0,5092.0,0.268,0.101,-0.446,-0.848
1289958,212.0,7246.0,5134.0,0.271,0.101,-0.444,-0.848
1289984,-16.0,7250.0,5100.0,0.274,0.101,-0.443,-0.848
1290000,6.0,7248.0,5212.0,0.278,0.101,-0.441,-0.847
1290016,-190.0,6872.0,5100.0,0.281,0.103,-0.44,-0.847
1290033,232.0,6408.0,4990.0,0.285,0.105,-0.438,-0.846
1290049,244.0,6562.0,4582.0,0.29,0.109,-0.436,-0.845
1290066,0.0,6518.0,4508.0,0.296,0.111,-0.432,-0.845
1290082,-434.0,6244.0,4724.0,0.304,0.112,-0.424,-0.846
1290099,-976.0,5422.0,5116.0,0.315,0.111,-0.413,-0.847
1290126,-1268.0,5322.0,5508.0,0.327,0.107,-0.402,-0.849
1290142,-1754.0,5422.0,6182.0,0.341,0.101,-0.39,-0.849
1290158,-2150.0,6270.0,7972.0,0.356,0.093,-0.383,-0.847
1290175,-1916.0,7114.0,8522.0,0.371,0.086,-0.381,-0.843
1290191,-834.0,8180.0,8202.0,0.382,0.082,-0.38,-0.839
1290207,68.0,6708.0,7504.0,0.388,0.083,-0.379,-0.836
1290233,-408.0,6848.0,7036.0,0.392,0.089,-0.378,-0.834
1290249,-1138.0,6810.0,6536.0,0.393,0.096,-0.378,-0.833
1290266,-1000.0,6818.0,6134.0,0.394,0.104,-0.377,-0.832
1290283,-454.0,5852.0,5332.0,0.395,0.11,-0.374,-0.832
1290299,-200.0,5500.0,4996.0,0.395,0.116,-0.372,-0.832
1290316,-590.0,5642.0,4916.0,0.396,0.119,-0.371,-0.832
1290333,-470.0,5824.0,4836.0,0.396,0.12,-0.37,-0.832
1290349,-126.0,5894.0,4712.0,0.395,0.118,-0.37,-0.833
1290366,126.0,5642.0,4644.0,0.394,0.115,-0.37,-0.833
1290383,662.0,6358.0,4598.0,0.393,0.111,-0.371,-0.834
1290409,772.0,5366.0,4724.0,0.39,0.107,-0.372,-0.835
1290425,1170.0,4972.0,4874.0,0.388,0.103,-0.375,-0.836
1290442,1400.0,6272.0,5084.0,0.386,0.098,-0.379,-0.835
1290459,1292.0,6362.0,5324.0,0.383,0.093,-0.383,-0.835
1290476,1998.0,7194.0,5248.0,0.382,0.085,-0.384,-0.836
1290492,2130.0,6682.0,5226.0,0.382,0.077,-0.383,-0.837
1290509,2088.0,5928.0,5140.0,0.383,0.068,-0.38,-0.84
1290525,1676.0,4892.0,5318.0,0.383,0.059,-0.377,-0.841
1290542,1810.0,5210.0,5454.0,0.382,0.051,-0.376,-0.843
1290559,1682.0,5408.0,5692.0,0.38,0.044,-0.377,-0.844
1290586,1542.0,5294.0,6022.0,0.378,0.036,-0.377,-0.845
1290602,1710.0,5174.0,6402.0,0.377,0.027,-0.377,-0.846
1290618,2036.0,5168.0,6666.0,0.375,0.019,-0.377,-0.846
1290634,2522.0,5356.0,6970.0,0.373,0.012,-0.377,-0.848
1290650,2790.0,5132.0,7278.0,0.371,0.006,-0.376,-0.849
1290666,2806.0,4832.0,7430.0,0.369,0.002,-0.375,-0.85
1290692,2854.0,4768.0,7568.0,0.367,0.001,-0.375,-0.851
1290709,2898.0,5246.0,7338.0,0.364,0.002,-0.376,-0.852
1290725,2920.0,5318.0,7022.0,0.362,0.004,-0.377,-0.852
1290742,2664.0,5338.0,6734.0,0.36,0.009,-0.378,-0.853
1290758,2732.0,5472.0,6508.0,0.357,0.015,-0.381,-0.852
1290775,2718.0,5440.0,6246.0,0.353,0.024,-0.387,-0.852
1290791,2392.0,5864.0,6048.0,0.346,0.037,-0.397,-0.849
1290807,1896.0,7180.0,5454.0,0.335,0.054,-0.411,-0.846
1290834,1336.0,8350.0,5270.0,0.321,0.074,-0.427,-0.842
1290850,30.0,9736.0,4670.0,0.306,0.096,-0.443,-0.837
1290867,-1060.0,9888.0,4496.0,0.29,0.117,-0.457,-0.833
1290883,-2208.0,9424.0,4200.0,0.274,0.133,-0.469,-0.829
1290899,-1446.0,8682.0,3802.0,0.256,0.147,-0.481,-0.825
1290916,-1340.0,7664.0,3608.0,0.238,0.158,-0.491,-0.823
1290933,-1646.0,6174.0,3142.0,0.22,0.168,-0.501,-0.82
1290949,-1572.0,5866.0,3496.0,0.203,0.178,-0.511,-0.816
1290976,-1236.0,6364.0,3728.0,0.187,0.187,-0.521,-0.812
1290992,-1320.0,7000.0,3504.0,0.172,0.194,-0.529,-0.808
1291008,-1172.0,6998.0,3186.0,0.159,0.2,-0.534,-0.806
1291024,-1072.0,6330.0,2972.0,0.147,0.206,-0.537,-0.805
1291040,-652.0,4730.0,4468.0,0.138,0.212,-0.539,-0.804
1291056,804.0,3058.0,4272.0,0.13,0.219,-0.545,-0.799
1291073,560.0,3770.0,3596.0,0.124,0.226,-0.554,-0.792
1291099,2080.0,5874.0,2582.0,0.12,0.232,-0.562,-0.785
1291116,1148.0,9082.0,1630.0,0.117,0.236,-0.568,-0.78
1291133,-774.0,10140.0,2204.0,0.115,0.238,-0.571,-0.777
1291149,-774.0,10198.0,2352.0,0.114,0.24,-0.574,-0.774
1291165,-1590.0,9854.0,2066.0,0.112,0.241,-0.577,-0.772
1291181,-1836.0,8258.0,1870.0,0.111,0.243,-0.578,-0.771
1291197,-2216.0,7232.0,1198.0,0.111,0.243,-0.578,-0.771
1291223,-2434.0,7138.0,1178.0,0.112,0.242,-0.577,-0.772
1291239,-2066.0,7756.0,1266.0,0.113,0.239,-0.573,-0.776
1291255,-1632.0,7480.0,1712.0,0.114,0.236,-0.569,-0.78
1291272,-1136.0,6016.0,2842.0,0.113,0.237,-0.569,-0.779
1291288,-2168.0,9986.0,1942.0,0.112,0.239,-0.571,-0.777
1291305,-1880.0,9312.0,1720.0,0.113,0.242,-0.569,-0.778
1291321,-2578.0,7484.0,1726.0,0.115,0.244,-0.565,-0.78
1291347,-2064.0,5802.0,1098.0,0.116,0.245,-0.561,-0.782
1291364,-2466.0,4930.0,1542.0,0.116,0.247,-0.56,-0.782
1291381,-2842.0,7332.0,1616.0,0.114,0.251,-0.562,-0.78
1291398,-3082.0,9398.0,2576.0,0.112,0.253,-0.563,-0.779
1291415,-3344.0,10530.0,3382.0,0.11,0.255,-0.562,-0.779
1291432,-3360.0,9898.0,3648.0,0.11,0.256,-0.557,-0.783
1291449,-3540.0,9160.0,2534.0,0.109,0.257,-0.55,-0.787
1291465,-3844.0,9020.0,1112.0,0.107,0.259,-0.544,-0.791
1291482,-3478.0,9896.0,1476.0,0.103,0.261,-0.537,-0.795
1291499,-2898.0,9364.0,2500.0,0.098,0.263,-0.531,-0.8
1291516,-2984.0,9324.0,2916.0,0.092,0.266,-0.524,-0.804
1291542,-3428.0,9702.0,3664.0,0.085,0.27,-0.515,-0.809
1291558,-3700.0,11354.0,4714.0,0.079,0.274,-0.504,-0.816
1291575,-4062.0,11232.0,5702.0,0.074,0.277,-0.486,-0.825
1291591,-4118.0,9160.0,6074.0,0.07,0.281,-0.464,-0.837
1291608,-4578.0,7952.0,6112.0,0.065,0.285,-0.44,-0.849
1291625,-4344.0,7634.0,6908.0,0.061,0.29,-0.416,-0.86
1291642,-4682.0,8412.0,6418.0,0.055,0.296,-0.391,-0.87
1291659,-4880.0,7916.0,6312.0,0.049,0.304,-0.366,-0.878
1291675,-4978.0,7468.0,6096.0,0.042,0.314,-0.342,-0.885
1291701,-4812.0,6220.0,5492.0,0.034,0.324,-0.318,-0.89
1291717,-5294.0,6184.0,4610.0,0.025,0.335,-0.294,-0.895
1291733,-5178.0,5578.0,4736.0,0.016,0.346,-0.271,-0.898
1291749,-5456.0,4560.0,5108.0,0.006,0.357,-0.248,-0.9
1291765,-5812.0,4084.0,4976.0,0.005,-0.369,0.227,0.901
1291781,-5930.0,3998.0,4626.0,0.016,-0.38,0.206,0.902
1291807,-6766.0,4150.0,3832.0,0.026,-0.391,0.184,0.901
1291823,-7258.0,4130.0,3994.0,0.035,-0.399,0.157,0.903
1291839,-6528.0,1068.0,4914.0,0.043,-0.406,0.131,0.904
1291856,-6116.0,32.0,6438.0,0.052,-0.412,0.107,0.903
1291872,-4346.0,380.0,8004.0,0.064,-0.421,0.09,0.9
1291888,-6014.0,492.0,6410.0,0.074,-0.431,0.073,0.896
1291914,-7552.0,1424.0,5284.0,0.085,-0.442,0.061,0.891
1291930,-5992.0,-368.0,3256.0,0.094,-0.452,0.049,0.886
1291947,-8134.0,-2392.0,3154.0,0.11,-0.461,0.052,0.879
1291964,-6610.0,1610.0,3830.0,0.131,-0.47,0.058,0.871
1291981,-6658.0,3792.0,2886.0,0.151,-0.479,0.063,0.862
1291998,-9090.0,7852.0,4374.0,0.171,-0.489,0.059,0.854
1292015,-8038.0,1834.0,6240.0,0.188,-0.5,0.046,0.844
1292032,-6118.0,-3064.0,4638.0,0.205,-0.512,0.032,0.834
1292048,-5362.0,-2270.0,2346.0,0.221,-0.52,0.023,0.825
1292065,-6826.0,1818.0,544.0,0.236,-0.527,0.013,0.817
1292082,-6302.0,-2766.0,2262.0,0.248,-0.532,0.006,0.81
1292099,-6982.0,-1470.0,2782.0,0.259,-0.534,0.002,0.805
1292126,-6884.0,-826.0,3420.0,0.267,-0.536,-0.003,0.801
1292143,-7406.0,408.0,2660.0,0.272,-0.539,-0.009,0.797
1292159,-5642.0,-1622.0,2348.0,0.274,-0.542,-0.02,0.795
1292176,-5238.0,-2462.0,872.0,0.275,-0.544,-0.03,0.792
1292192,-5378.0,-1880.0,870.0,0.278,-0.544,-0.036,0.791
1292208,-6192.0,-610.0,1972.0,0.278,-0.543,-0.042,0.791
1292225,-6192.0,-528.0,2260.0,0.275,-0.542,-0.052,0.793
1292241,-5746.0,-1396.0,2286.0,0.268,-0.541,-0.065,0.794
1292260,-5830.0,-3104.0,2008.0,0.261,-0.54,-0.079,0.797
1292276,-5154.0,-3860.0,1502.0,0.253,-0.538,-0.091,0.799
1292302,-5154.0,-3530.0,1414.0,0.247,-0.536,-0.101,0.801
1292319,-5474.0,-3280.0,1574.0,0.242,-0.533,-0.108,0.803
1292335,-5852.0,-3258.0,1756.0,0.237,-0.531,-0.116,0.806
1292351,-5856.0,-3104.0,1070.0,0.232,-0.528,-0.122,0.808
1292367,-5538.0,-3472.0,1962.0,0.229,-0.525,-0.13,0.809
1292383,-4814.0,-3750.0,2398.0,0.228,-0.522,-0.137,0.811
1292400,-6786.0,-1582.0,2926.0,0.229,-0.519,-0.147,0.81
1292426,-5732.0,-4316.0,3156.0,0.229,-0.517,-0.161,0.809
1292442,-4266.0,-5444.0,2194.0,0.23,-0.514,-0.172,0.808
1292458,-5048.0,-3714.0,2526.0,0.235,-0.509,-0.179,0.808
1292475,-5586.0,-2394.0,2684.0,0.242,-0.506,-0.186,0.807
1292492,-4724.0,-4314.0,3872.0,0.249,-0.503,-0.194,0.805
1292509,-4732.0,-5624.0,3724.0,0.256,-0.5,-0.203,0.802
1292526,-4354.0,-5366.0,3448.0,0.263,-0.496,-0.211,0.8
1292552,-4878.0,-3542.0,2648.0,0.27,-0.492,-0.22,0.798
1292568,-4028.0,-5486.0,2418.0,0.276,-0.488,-0.23,0.795
1292585,-3970.0,-5656.0,2758.0,0.283,-0.483,-0.241,0.793
1292601,-3268.0,-1576.0,1894.0,0.287,-0.478,-0.257,0.789
1292617,-3464.0,-2692.0,2524.0,0.286,-0.474,-0.284,0.783
1292633,-3326.0,-6908.0,4270.0,0.283,-0.469,-0.315,0.775
1292649,-3314.0,-7504.0,2972.0,0.278,-0.463,-0.345,0.767
1292675,-2724.0,-7578.0,2804.0,0.273,-0.457,-0.371,0.76
1292691,-3466.0,-6128.0,1232.0,0.267,-0.452,-0.397,0.753
1292708,-2904.0,-7742.0,3058.0,0.26,-0.445,-0.422,0.746
1292725,-2984.0,-10058.0,2944.0,0.254,-0.44,-0.441,0.74
1292742,-3076.0,-6940.0,1030.0,0.247,-0.434,-0.458,0.735
1292758,-3218.0,-8066.0,1486.0,0.236,-0.429,-0.479,0.729
1292775,-3530.0,-9446.0,1996.0,0.225,-0.423,-0.496,0.724
1292791,-4218.0,-6674.0,538.0,0.215,-0.418,-0.51,0.72
1292808,-4214.0,-5756.0,1512.0,0.204,-0.412,-0.526,0.716
1292834,-4276.0,-7046.0,2306.0,0.194,-0.407,-0.539,0.711
1292850,-3984.0,-5160.0,2134.0,0.186,-0.403,-0.55,0.708
1292866,-3166.0,-4436.0,434.0,0.179,-0.399,-0.562,0.702
1292882,-2618.0,-6758.0,-686.0,0.173,-0.396,-0.576,0.694
1292898,-1994.0,-7550.0,-1018.0,0.167,-0.392,-0.59,0.686
1292915,-1452.0,-9388.0,-546.0,0.165,-0.387,-0.602,0.679
1292932,-1226.0,-9374.0,456.0,0.17,-0.38,-0.607,0.677
1292949,-1488.0,-3962.0,-306.0,0.173,-0.373,-0.614,0.674
1292975,-1564.0,-5198.0,-14.0,0.176,-0.366,-0.623,0.668
1292991,-946.0,-6370.0,-616.0,0.179,-0.358,-0.633,0.663
1293008,-736.0,-8516.0,-440.0,0.182,-0.35,-0.643,0.657
1293024,-724.0,-7906.0,-574.0,0.189,-0.341,-0.651,0.651
1293041,-1020.0,-6064.0,-628.0,0.196,-0.332,-0.66,0.645
1293058,-444.0,-6556.0,-688.0,0.203,-0.323,-0.669,0.637
1293075,-210.0,-8034.0,-672.0,0.21,-0.314,-0.679,0.629
1293091,-656.0,-7354.0,-968.0,0.219,-0.305,-0.689,0.62
1293117,-284.0,-7758.0,-1288.0,0.228,-0.297,-0.697,0.611
1293133,12.0,-8232.0,-1392.0,0.237,-0.288,-0.705,0.603
1293150,42.0,-8356.0,-1540.0,0.247,-0.279,-0.711,0.596
1293166,170.0,-8040.0,-2064.0,0.257,-0.271,-0.718,0.588
1293182,446.0,-8428.0,-1754.0,0.267,-0.262,-0.723,0.581
1293198,752.0,-8828.0,-1524.0,0.277,-0.253,-0.728,0.574
1293215,1076.0,-9936.0,-1606.0,0.286,-0.244,-0.732,0.568
1293232,1120.0,-10278.0,-1524.0,0.295,-0.235,-0.735,0.563
1293258,1172.0,-10046.0,-1520.0,0.305,-0.226,-0.737,0.559
1293275,1736.0,-10878.0,-1478.0,0.314,-0.216,-0.738,0.557
1293292,2426.0,-11644.0,-1438.0,0.323,-0.207,-0.737,0.557
1293309,2346.0,-12906.0,-584.0,0.331,-0.198,-0.735,0.558
1293326,1920.0,-11478.0,-506.0,0.337,-0.191,-0.734,0.557
1293342,2448.0,-12338.0,-672.0,0.34,-0.187,-0.735,0.556
1293358,3088.0,-13246.0,-1038.0,0.341,-0.186,-0.735,0.556
1293374,3184.0,-12556.0,-1140.0,0.339,-0.187,-0.735,0.557
1293401,3218.0,-12668.0,-1352.0,0.334,-0.19,-0.735,0.558
1293417,2840.0,-11746.0,-1474.0,0.328,-0.195,-0.735,0.561
1293433,2350.0,-11128.0,-1508.0,0.32,-0.201,-0.733,0.565
1293449,2074.0,-10662.0,-1422.0,0.31,-0.209,-0.732,0.569
1293465,1440.0,-10192.0,-1178.0,0.298,-0.219,-0.731,0.574
1293481,1244.0,-10186.0,-1064.0,0.285,-0.228,-0.729,0.579
1293498,940.0,-9950.0,-1056.0,0.271,-0.239,-0.728,0.583
1293525,700.0,-9446.0,-1018.0,0.257,-0.249,-0.726,0.587
1293541,708.0,-10220.0,-1592.0,0.242,-0.26,-0.725,0.59
1293558,-512.0,-8122.0,-1788.0,0.226,-0.271,-0.723,0.593
1293575,-628.0,-8142.0,-2092.0,0.209,-0.281,-0.723,0.596
1293592,-1028.0,-7556.0,-1988.0,0.192,-0.29,-0.721,0.599
1293608,-1096.0,-8024.0,-1790.0,0.175,-0.299,-0.72,0.601
1293625,-1286.0,-8140.0,-1464.0,0.159,-0.307,-0.719,0.604
1293642,-1480.0,-6172.0,-1562.0,0.143,-0.314,-0.718,0.604
1293658,-1730.0,-6562.0,-844.0,0.127,-0.321,-0.718,0.604
1293685,-1726.0,-4942.0,-1964.0,0.11,-0.327,-0.718,0.604
1293702,-2256.0,-6662.0,-1866.0,0.091,-0.333,-0.719,0.603
1293718,-2062.0,-6938.0,-1336.0,0.073,-0.338,-0.72,0.602
1293735,-1626.0,-4468.0,-406.0,0.056,-0.343,-0.72,0.601
1293752,-1704.0,-3588.0,-16.0,0.04,-0.348,-0.721,0.597
1293768,-1710.0,-1658.0,-794.0,0.026,-0.352,-0.723,0.594
1293785,-1654.0,-1776.0,-1278.0,0.012,-0.355,-0.726,0.589
1293802,-1126.0,-582.0,-1602.0,0.001,-0.355,-0.73,0.584
1293819,-2108.0,-1136.0,-2870.0,0.008,0.354,0.734,-0.579
1293835,-1036.0,-4134.0,-3406.0,0.014,0.351,0.739,-0.575
1293861,-1362.0,-8440.0,-3246.0,0.018,0.347,0.742,-0.573
1293878,-824.0,-7988.0,-2500.0,0.016,0.339,0.744,-0.575
1293895,-2126.0,-6814.0,-3134.0,0.011,0.33,0.746,-0.579
1293912,-2168.0,-5836.0,-3054.0,0.003,0.32,0.748,-0.581
1293929,-1228.0,-4298.0,-196.0,0.01,-0.311,-0.751,0.583
1293946,-1332.0,-1590.0,332.0,0.025,-0.302,-0.755,0.582
1293963,-2852.0,-4432.0,268.0,0.035,-0.297,-0.76,0.577
1293980,-2388.0,-9126.0,-1120.0,0.045,-0.292,-0.763,0.574
1293997,-2062.0,-8230.0,-2598.0,0.058,-0.287,-0.766,0.572
1294014,-2508.0,-5928.0,-3676.0,0.07,-0.282,-0.77,0.568
1294031,-2064.0,-6588.0,-3662.0,0.083,-0.278,-0.774,0.563
1294048,-1636.0,-7644.0,-2716.0,0.095,-0.273,-0.777,0.56
1294065,-1290.0,-7440.0,-2638.0,0.107,-0.269,-0.779,0.556
1294082,-1266.0,-7824.0,-2756.0,0.118,-0.265,-0.782,0.552
1294108,-1064.0,-7946.0,-2724.0,0.129,-0.26,-0.785,0.548
1294124,-812.0,-6886.0,-3020.0,0.139,-0.255,-0.788,0.543
1294141,-652.0,-8070.0,-2820.0,0.149,-0.251,-0.791,0.537
1294158,-394.0,-7530.0,-2894.0,0.159,-0.247,-0.794,0.533
1294174,-88.0,-7094.0,-3462.0,0.169,-0.242,-0.796,0.528
1294191,144.0,-9496.0,-3202.0,0.18,-0.238,-0.798,0.524
1294207,22.0,-8634.0,-2522.0,0.193,-0.233,-0.798,0.521
1294224,-4.0,-7842.0,-1930.0,0.204,-0.229,-0.798,0.518
1294251,232.0,-9782.0,-2646.0,0.215,-0.226,-0.798,0.515
1294267,184.0,-9070.0,-3020.0,0.224,-0.223,-0.799,0.512
1294283,500.0,-10022.0,-2938.0,0.233,-0.22,-0.801,0.506
1294300,774.0,-11546.0,-3728.0,0.24,-0.218,-0.802,0.502
1294316,1084.0,-13088.0,-3926.0,0.247,-0.215,-0.803,0.498
1294332,422.0,-12234.0,-3606.0,0.253,-0.212,-0.804,0.494
1294349,462.0,-11572.0,-3850.0,0.256,-0.211,-0.806,0.49
1294365,1290.0,-12820.0,-4470.0,0.256,-0.211,-0.808,0.487
1294391,1384.0,-12514.0,-4394.0,0.254,-0.212,-0.809,0.485
1294408,1316.0,-11600.0,-3962.0,0.249,-0.213,-0.811,0.485
1294424,1434.0,-11304.0,-4188.0,0.242,-0.216,-0.812,0.486
1294441,1476.0,-11038.0,-4374.0,0.233,-0.219,-0.812,0.488
1294458,1338.0,-10942.0,-4340.0,0.223,-0.223,-0.811,0.493
1294475,978.0,-10306.0,-4056.0,0.213,-0.228,-0.809,0.498
1294491,526.0,-8556.0,-3726.0,0.201,-0.232,-0.807,0.505
1294507,292.0,-8440.0,-3826.0,0.187,-0.238,-0.805,0.511
1294534,324.0,-8720.0,-3862.0,0.173,-0.244,-0.802,0.517
1294551,274.0,-8790.0,-4172.0,0.16,-0.25,-0.799,0.523
1294568,-54.0,-8704.0,-3084.0,0.148,-0.256,-0.796,0.529
1294585,-630.0,-7372.0,-2624.0,0.135,-0.261,-0.791,0.536
1294601,-794.0,-6390.0,-2828.0,0.121,-0.268,-0.788,0.541
1294617,-858.0,-7270.0,-2874.0,0.107,-0.275,-0.785,0.545
1294633,-854.0,-7032.0,-2698.0,0.093,-0.281,-0.782,0.549
1294650,-860.0,-5584.0,-2874.0,0.08,-0.288,-0.779,0.551
1294667,-1906.0,-7130.0,-3324.0,0.071,-0.294,-0.774,0.556
1294693,-1016.0,-5222.0,-1938.0,0.061,-0.299,-0.771,0.559
1294710,-1772.0,-7178.0,-2076.0,0.051,-0.303,-0.768,0.562
1294727,-1890.0,-6330.0,-1260.0,0.043,-0.307,-0.765,0.565
1294744,-2112.0,-1944.0,-1298.0,0.034,-0.31,-0.763,0.566
1294761,-1000.0,-4508.0,-984.0,0.024,-0.313,-0.763,0.565
1294778,-860.0,-3498.0,-1610.0,0.016,-0.316,-0.761,0.567
1294795,-1170.0,-3674.0,-2084.0,0.01,-0.317,-0.759,0.569
1294812,-1178.0,-4768.0,-1994.0,0.006,-0.317,-0.758,0.57
1294829,-1034.0,-4478.0,-1262.0,0.006,-0.316,-0.757,0.572
1294846,-1012.0,-3488.0,-768.0,0.008,-0.313,-0.757,0.574
1294863,-844.0,-3976.0,-710.0,0.011,-0.31,-0.758,0.574
1294880,-664.0,-5414.0,-1210.0,0.018,-0.307,-0.76,0.573
1294897,-1020.0,-4514.0,-1536.0,0.027,-0.302,-0.761,0.573
1294914,-1448.0,-4254.0,-1524.0,0.039,-0.297,-0.764,0.571
1294941,-1266.0,-4756.0,-1866.0,0.051,-0.292,-0.767,0.569
1294958,-1578.0,-5712.0,-1682.0,0.064,-0.286,-0.771,0.566
1294975,-1944.0,-5278.0,-2478.0,0.078,-0.28,-0.773,0.564
1294992,-1642.0,-6838.0,-2496.0,0.093,-0.275,-0.774,0.562
1295009,-1504.0,-7232.0,-2886.0,0.109,-0.27,-0.776,0.56
1295026,-1620.0,-6894.0,-2126.0,0.124,-0.264,-0.778,0.557
1295043,-1330.0,-6352.0,-2510.0,0.138,-0.258,-0.782,0.551
1295060,-846.0,-8126.0,-3052.0,0.15,-0.252,-0.786,0.544
1295077,-816.0,-7980.0,-2770.0,0.163,-0.246,-0.79,0.537
1295094,-686.0,-7238.0,-3100.0,0.175,-0.24,-0.795,0.529
1295111,32.0,-7994.0,-3794.0,0.185,-0.234,-0.8,0.521
1295128,668.0,-8466.0,-3710.0,0.196,-0.229,-0.803,0.514
1295145,628.0,-8188.0,-3534.0,0.207,-0.223,-0.807,0.507
1295162,536.0,-7936.0,-3664.0,0.217,-0.217,-0.81,0.5
1295179,888.0,-8116.0,-3424.0,0.226,-0.21,-0.814,0.492
1295206,1602.0,-8428.0,-3892.0,0.235,-0.204,-0.817,0.485
1295223,1924.0,-8462.0,-3882.0,0.244,-0.198,-0.82,0.479
1295239,2118.0,-8086.0,-3894.0,0.252,-0.192,-0.821,0.474
1295255,2210.0,-9042.0,-3576.0,0.26,-0.186,-0.823,0.47
1295273,2094.0,-9238.0,-3644.0,0.268,-0.18,-0.824,0.466
1295289,2300.0,-8938.0,-4238.0,0.275,-0.173,-0.824,0.463
1295306,2542.0,-9496.0,-4416.0,0.282,-0.166,-0.824,0.463
1295323,2584.0,-9312.0,-3996.0,0.288,-0.159,-0.823,0.464
1295340,2996.0,-10170.0,-4062.0,0.293,-0.153,-0.821,0.465
1295356,3188.0,-12436.0,-3698.0,0.296,-0.148,-0.821,0.466
1295383,3158.0,-12802.0,-3746.0,0.298,-0.145,-0.821,0.465
1295400,2928.0,-12956.0,-3950.0,0.297,-0.145,-0.821,0.465
1295416,3610.0,-12840.0,-4306.0,0.293,-0.147,-0.822,0.466
1295432,3674.0,-12342.0,-4414.0,0.287,-0.153,-0.822,0.468
1295449,3072.0,-11864.0,-4054.0,0.279,-0.161,-0.822,0.47
1295466,2792.0,-10948.0,-3882.0,0.269,-0.17,-0.822,0.473
1295482,2358.0,-10448.0,-4186.0,0.257,-0.18,-0.821,0.478
1295498,2100.0,-10064.0,-4482.0,0.245,-0.19,-0.819,0.483
1295524,1438.0,-9072.0,-3964.0,0.233,-0.199,-0.816,0.49
1295540,702.0,-8002.0,-3386.0,0.219,-0.209,-0.813,0.498
1295557,730.0,-8130.0,-3302.0,0.205,-0.218,-0.81,0.504
1295573,726.0,-8116.0,-3802.0,0.19,-0.228,-0.807,0.511
1295590,130.0,-7614.0,-3686.0,0.175,-0.237,-0.804,0.517
1295607,-440.0,-6292.0,-3206.0,0.16,-0.245,-0.8,0.524
1295623,-636.0,-5658.0,-3224.0,0.144,-0.254,-0.796,0.53
1295640,-712.0,-7750.0,-3436.0,0.128,-0.261,-0.793,0.536
1295667,-600.0,-6908.0,-3174.0,0.113,-0.268,-0.79,0.541
1295683,-1088.0,-7052.0,-2132.0,0.099,-0.274,-0.786,0.545
1295699,-1620.0,-6562.0,-2144.0,0.084,-0.28,-0.783,0.549
1295715,-1848.0,-5450.0,-2754.0,0.069,-0.287,-0.78,0.552
1295732,-1568.0,-5942.0,-3158.0,0.052,-0.294,-0.776,0.555
1295749,-1358.0,-5320.0,-3526.0,0.036,-0.301,-0.772,0.559
1295765,-1192.0,-5166.0,-2316.0,0.022,-0.309,-0.766,0.563
1295782,-1124.0,-5072.0,-1588.0,0.01,-0.316,-0.761,0.567
1295799,-208.0,-5326.0,-1448.0,0.002,-0.322,-0.756,0.571
1295825,84.0,-4702.0,-1290.0,0.005,0.325,0.752,-0.573
1295841,-434.0,-2836.0,-1514.0,0.009,0.326,0.751,-0.574
1295857,-686.0,-2420.0,-1662.0,0.01,0.326,0.75,-0.575
1295873,318.0,-2144.0,-1118.0,0.01,0.325,0.751,-0.575
1295890,-158.0,-3194.0,-1514.0,0.007,0.323,0.751,-0.576
1295907,-856.0,-3858.0,-2078.0,0.001,0.321,0.751,-0.578
1295923,-1390.0,-3852.0,-1308.0,0.008,-0.317,-0.75,0.58
1295940,-1148.0,-5358.0,-806.0,0.019,-0.312,-0.75,0.582
1295967,-1750.0,-5440.0,-746.0,0.03,-0.308,-0.751,0.583
1295983,-2430.0,-7406.0,-376.0,0.042,-0.303,-0.753,0.583
1296000,-2920.0,-6224.0,-1292.0,0.055,-0.298,-0.756,0.581
1296016,-3454.0,-5524.0,-1972.0,0.067,-0.293,-0.759,0.577
1296033,-2662.0,-7478.0,-2758.0,0.079,-0.289,-0.762,0.574
1296050,-2194.0,-7228.0,-3186.0,0.093,-0.283,-0.764,0.571
1296066,-2164.0,-7416.0,-2588.0,0.107,-0.278,-0.766,0.57
1296082,-1872.0,-8984.0,-2480.0,0.121,-0.272,-0.765,0.571
1296108,-1762.0,-7812.0,-1988.0,0.136,-0.264,-0.764,0.572
1296125,-1430.0,-7296.0,-1808.0,0.15,-0.257,-0.767,0.569
1296142,-1076.0,-6668.0,-2346.0,0.162,-0.25,-0.771,0.563
1296159,-248.0,-7738.0,-2212.0,0.174,-0.243,-0.776,0.556
1296175,466.0,-8070.0,-3004.0,0.186,-0.235,-0.78,0.55
1296192,804.0,-8672.0,-2690.0,0.199,-0.228,-0.782,0.544
1296208,854.0,-8656.0,-2380.0,0.213,-0.22,-0.785,0.539
1296225,682.0,-7528.0,-2522.0,0.226,-0.213,-0.788,0.532
1296241,964.0,-7814.0,-2586.0,0.238,-0.206,-0.792,0.524
1296267,1244.0,-8328.0,-2618.0,0.249,-0.198,-0.795,0.516
1296283,1506.0,-7536.0,-3126.0,0.26,-0.191,-0.798,0.509
1296300,2204.0,-8478.0,-3132.0,0.269,-0.185,-0.801,0.503
1296317,2670.0,-9656.0,-3538.0,0.278,-0.179,-0.802,0.497
1296333,2534.0,-11158.0,-3090.0,0.286,-0.174,-0.803,0.493
1296349,1890.0,-10080.0,-2666.0,0.293,-0.169,-0.804,0.489
1296365,1878.0,-9354.0,-2868.0,0.298,-0.164,-0.806,0.485
1296391,2248.0,-10162.0,-4052.0,0.301,-0.16,-0.807,0.482
1296407,2524.0,-11580.0,-4294.0,0.303,-0.158,-0.809,0.479
1296423,2856.0,-12546.0,-3792.0,0.302,-0.157,-0.81,0.478
1296439,2794.0,-12776.0,-3358.0,0.3,-0.157,-0.811,0.477
1296456,3048.0,-13386.0,-3596.0,0.297,-0.159,-0.812,0.477
1296472,2804.0,-12754.0,-3690.0,0.293,-0.161,-0.813,0.478
1296489,2848.0,-11834.0,-3644.0,0.286,-0.164,-0.813,0.48
1296516,2992.0,-11262.0,-4112.0,0.278,-0.168,-0.812,0.485
1296532,2728.0,-10610.0,-3992.0,0.269,-0.174,-0.811,0.49
1296548,2390.0,-10670.0,-3834.0,0.258,-0.18,-0.809,0.497
1296564,2028.0,-10492.0,-3416.0,0.248,-0.186,-0.805,0.505
1296580,1738.0,-9678.0,-3052.0,0.237,-0.192,-0.801,0.515
1296596,1350.0,-7958.0,-3174.0,0.225,-0.2,-0.796,0.525
1296613,1198.0,-7624.0,-3168.0,0.212,-0.208,-0.793,0.532
1296640,804.0,-7544.0,-3176.0,0.198,-0.217,-0.79,0.539
1296656,454.0,-8198.0,-2586.0,0.183,-0.226,-0.786,0.546
1296673,-112.0,-7652.0,-2714.0,0.168,-0.236,-0.782,0.551
1296690,-498.0,-6966.0,-2424.0,0.152,-0.245,-0.779,0.557
1296707,-372.0,-7266.0,-2792.0,0.136,-0.255,-0.775,0.562
1296724,-614.0,-8458.0,-2682.0,0.122,-0.264,-0.771,0.567
1296741,-1182.0,-7660.0,-1936.0,0.108,-0.272,-0.766,0.572
1296757,-2016.0,-5510.0,-1542.0,0.093,-0.28,-0.763,0.575
1296773,-1694.0,-6166.0,-2078.0,0.076,-0.288,-0.761,0.577
1296799,-1874.0,-6986.0,-3252.0,0.059,-0.295,-0.758,0.579
1296816,-1934.0,-4156.0,-3180.0,0.043,-0.302,-0.754,0.582
1296832,-1386.0,-3294.0,-3012.0,0.027,-0.308,-0.751,0.584
1296848,-528.0,-3388.0,-2122.0,0.013,-0.314,-0.747,0.586
1296865,-354.0,-4228.0,-1916.0,0.001,-0.319,-0.742,0.59
1296882,-458.0,-4232.0,-1932.0,0.008,0.322,0.737,-0.594
1296898,-504.0,-3468.0,-1302.0,0.013,0.324,0.733,-0.598
1296914,-872.0,-2368.0,-1022.0,0.017,0.324,0.729,-0.602
1296941,-214.0,-3448.0,-1054.0,0.017,0.322,0.726,-0.607
1296957,454.0,-4058.0,-1082.0,0.015,0.32,0.724,-0.612
1296973,-824.0,-5650.0,-1006.0,0.01,0.316,0.722,-0.616
1296989,-1304.0,-4436.0,-216.0,0.002,0.311,0.72,-0.62
1297006,-2432.0,-2944.0,220.0,0.007,-0.305,-0.72,0.623
1297023,-3098.0,-4280.0,-310.0,0.016,-0.298,-0.724,0.622
1297040,-2858.0,-5996.0,-638.0,0.026,-0.29,-0.728,0.62
1297056,-3400.0,-4962.0,-1488.0,0.037,-0.283,-0.734,0.616
1297082,-2686.0,-6272.0,-606.0,0.047,-0.277,-0.741,0.61
1297099,-2480.0,-8744.0,-866.0,0.058,-0.273,-0.749,0.601
1297116,-2968.0,-8488.0,-1674.0,0.069,-0.268,-0.758,0.591
1297133,-3010.0,-6618.0,-1652.0,0.08,-0.262,-0.766,0.582
1297150,-2010.0,-6840.0,-2328.0,0.09,-0.257,-0.774,0.571
1297166,-1004.0,-7908.0,-2808.0,0.1,-0.252,-0.783,0.56
1297183,-622.0,-8120.0,-2748.0,0.112,-0.246,-0.791,0.549
1297199,-506.0,-7990.0,-2722.0,0.124,-0.24,-0.798,0.538
1297216,-98.0,-7546.0,-2874.0,0.136,-0.234,-0.804,0.529
1297242,242.0,-9158.0,-3144.0,0.148,-0.228,-0.81,0.52
1297259,86.0,-7552.0,-2986.0,0.161,-0.221,-0.814,0.512
1297276,528.0,-6986.0,-3402.0,0.173,-0.214,-0.818,0.505
1297293,1020.0,-8556.0,-4454.0,0.185,-0.208,-0.82,0.5
1297310,886.0,-7762.0,-4396.0,0.198,-0.201,-0.822,0.495
1297327,748.0,-9096.0,-3620.0,0.21,-0.193,-0.823,0.492
1297344,766.0,-8064.0,-3422.0,0.221,-0.187,-0.823,0.489
1297361,1092.0,-8126.0,-3484.0,0.229,-0.181,-0.822,0.488
1297378,1940.0,-9770.0,-4204.0,0.237,-0.176,-0.822,0.487
1297395,1558.0,-9458.0,-4606.0,0.243,-0.171,-0.822,0.486
1297412,1424.0,-9576.0,-3906.0,0.249,-0.166,-0.822,0.485
1297429,1904.0,-9574.0,-4080.0,0.253,-0.161,-0.822,0.485
1297446,2204.0,-10062.0,-4076.0,0.257,-0.157,-0.822,0.483
1297463,2540.0,-11468.0,-4166.0,0.26,-0.153,-0.823,0.48
1297480,2314.0,-11286.0,-3850.0,0.263,-0.15,-0.825,0.477
1297507,2232.0,-11576.0,-3538.0,0.264,-0.149,-0.826,0.476
1297524,2868.0,-12108.0,-4070.0,0.263,-0.149,-0.826,0.476
1297540,3064.0,-11944.0,-4980.0,0.26,-0.15,-0.827,0.476
1297556,3034.0,-11640.0,-4420.0,0.256,-0.152,-0.828,0.476
1297572,3596.0,-12356.0,-4056.0,0.252,-0.156,-0.827,0.477
1297589,3504.0,-12394.0,-3910.0,0.247,-0.16,-0.826,0.48
1297606,3194.0,-12148.0,-3932.0,0.244,-0.164,-0.824,0.485
1297622,1842.0,-10342.0,-4026.0,0.24,-0.169,-0.819,0.494
1297649,1698.0,-7524.0,-3250.0,0.234,-0.174,-0.812,0.505
1297665,1532.0,-7832.0,-3648.0,0.223,-0.183,-0.806,0.516
1297681,1922.0,-7986.0,-4250.0,0.212,-0.192,-0.799,0.529
1297697,1298.0,-8148.0,-3672.0,0.2,-0.201,-0.791,0.542
1297713,1046.0,-7442.0,-3222.0,0.189,-0.21,-0.783,0.554
1297730,844.0,-7968.0,-2776.0,0.179,-0.22,-0.775,0.565
1297747,358.0,-8322.0,-2372.0,0.169,-0.229,-0.767,0.575
1297773,-984.0,-7296.0,-2004.0,0.159,-0.237,-0.761,0.582
1297789,-1632.0,-5610.0,-1686.0,0.148,-0.245,-0.755,0.59
1297805,-1264.0,-7610.0,-2000.0,0.135,-0.254,-0.749,0.597
1297822,-1438.0,-7368.0,-2004.0,0.122,-0.261,-0.744,0.603
1297839,-1946.0,-7284.0,-1654.0,0.111,-0.268,-0.74,0.606
1297855,-1842.0,-5162.0,-1732.0,0.099,-0.275,-0.738,0.609
1297872,-1416.0,-4204.0,-1104.0,0.086,-0.282,-0.735,0.61
1297889,-498.0,-2742.0,-1660.0,0.073,-0.288,-0.733,0.612
1297906,322.0,-3952.0,-1962.0,0.062,-0.293,-0.731,0.613
1297933,90.0,-4370.0,-1288.0,0.055,-0.296,-0.728,0.616
1297949,-64.0,-2106.0,-308.0,0.051,-0.297,-0.726,0.619
1297965,-178.0,-294.0,706.0,0.048,-0.296,-0.726,0.619
1297981,606.0,-2108.0,916.0,0.047,-0.294,-0.729,0.616
1297998,230.0,-4830.0,-920.0,0.048,-0.292,-0.733,0.612
1298014,-84.0,-6064.0,-1992.0,0.052,-0.288,-0.736,0.611
1298031,-786.0,-6080.0,-1628.0,0.059,-0.284,-0.736,0.611
1298047,-1638.0,-3962.0,-806.0,0.067,-0.28,-0.738,0.611
1298074,-1966.0,-4320.0,-1200.0,0.078,-0.274,-0.74,0.609
1298091,-1822.0,-6826.0,-1286.0,0.088,-0.268,-0.743,0.607
1298108,-2298.0,-7252.0,-1362.0,0.1,-0.262,-0.745,0.605
1298125,-2272.0,-5880.0,-664.0,0.112,-0.256,-0.748,0.602
1298142,-1682.0,-7866.0,-1160.0,0.123,-0.251,-0.753,0.596
1298159,-1512.0,-8396.0,-1618.0,0.134,-0.245,-0.758,0.59
1298176,-1674.0,-7352.0,-2256.0,0.146,-0.238,-0.763,0.583
1298193,-832.0,-7264.0,-2334.0,0.157,-0.232,-0.768,0.576
1298209,-534.0,-8364.0,-2262.0,0.168,-0.225,-0.773,0.569
1298226,-234.0,-7544.0,-2698.0,0.178,-0.219,-0.778,0.562
1298243,204.0,-7838.0,-2468.0,0.189,-0.212,-0.782,0.555
1298260,612.0,-8190.0,-2702.0,0.198,-0.205,-0.786,0.548
1298286,920.0,-7740.0,-3000.0,0.208,-0.198,-0.79,0.542
1298302,1126.0,-7722.0,-2736.0,0.218,-0.191,-0.793,0.536
1298318,1436.0,-9588.0,-2832.0,0.227,-0.184,-0.796,0.53
1298335,1058.0,-7776.0,-2748.0,0.237,-0.176,-0.799,0.524
1298352,1736.0,-7732.0,-2922.0,0.246,-0.169,-0.801,0.519
1298369,2498.0,-8680.0,-3772.0,0.254,-0.163,-0.802,0.515
1298386,2112.0,-9528.0,-3032.0,0.263,-0.156,-0.803,0.512
1298402,1964.0,-9380.0,-3264.0,0.272,-0.148,-0.803,0.509
1298419,2504.0,-10516.0,-3516.0,0.28,-0.141,-0.803,0.507
1298446,3104.0,-12074.0,-3302.0,0.288,-0.133,-0.802,0.506
1298462,3120.0,-12470.0,-3668.0,0.296,-0.125,-0.799,0.507
1298478,3306.0,-11234.0,-3128.0,0.302,-0.119,-0.797,0.509
1298494,3840.0,-12718.0,-2298.0,0.305,-0.117,-0.796,0.509
1298510,4030.0,-13178.0,-2436.0,0.304,-0.117,-0.797,0.509
1298526,4094.0,-13008.0,-2694.0,0.301,-0.12,-0.797,0.509
1298542,4130.0,-12350.0,-3202.0,0.295,-0.125,-0.797,0.511
1298569,3654.0,-11222.0,-3616.0,0.288,-0.131,-0.797,0.514
1298585,3396.0,-11112.0,-3526.0,0.278,-0.14,-0.796,0.519
1298601,3012.0,-10436.0,-3242.0,0.267,-0.149,-0.794,0.525
1298618,2486.0,-10330.0,-2824.0,0.254,-0.158,-0.792,0.533
1298634,1912.0,-9272.0,-2984.0,0.241,-0.168,-0.789,0.54
1298651,1342.0,-8642.0,-3026.0,0.227,-0.178,-0.785,0.548
1298668,1362.0,-8590.0,-2940.0,0.212,-0.188,-0.782,0.556
1298685,1194.0,-7748.0,-2818.0,0.198,-0.198,-0.777,0.564
1298712,576.0,-7286.0,-2662.0,0.182,-0.208,-0.774,0.57
1298728,32.0,-7900.0,-2434.0,0.166,-0.218,-0.77,0.576
1298744,-392.0,-7410.0,-2728.0,0.15,-0.227,-0.766,0.582
1298760,-588.0,-6796.0,-2398.0,0.134,-0.236,-0.763,0.587
1298776,-1090.0,-6720.0,-2032.0,0.118,-0.244,-0.76,0.591
1298792,-1212.0,-6110.0,-1438.0,0.103,-0.252,-0.757,0.594
1298809,-1246.0,-6234.0,-1386.0,0.087,-0.26,-0.754,0.596
1298835,-1504.0,-6374.0,-1044.0,0.072,-0.266,-0.753,0.598
1298851,-1634.0,-5604.0,-1074.0,0.057,-0.271,-0.752,0.599
1298867,-1676.0,-4586.0,-520.0,0.043,-0.275,-0.752,0.598
1298884,-1404.0,-3394.0,-656.0,0.029,-0.278,-0.752,0.597
1298900,-1090.0,-3400.0,-846.0,0.016,-0.28,-0.753,0.596
1298916,-682.0,-2940.0,-1128.0,0.005,-0.281,-0.754,0.594
1298932,-384.0,-4674.0,-1484.0,0.004,0.282,0.756,-0.591
1298958,-606.0,-6024.0,-1486.0,0.008,0.281,0.757,-0.59
1298974,-850.0,-4060.0,-1730.0,0.009,0.279,0.757,-0.591
1298990,-888.0,-2808.0,-1272.0,0.007,0.277,0.756,-0.593
1299007,-1196.0,-3606.0,-1084.0,0.002,0.275,0.755,-0.595
1299023,-1318.0,-6286.0,-1282.0,0.005,-0.271,-0.755,0.597
1299040,-1660.0,-6382.0,-1018.0,0.016,-0.267,-0.754,0.599
1299057,-1986.0,-3914.0,-482.0,0.029,-0.263,-0.754,0.602
1299074,-2310.0,-4416.0,-588.0,0.043,-0.259,-0.756,0.6
1299100,-2122.0,-5942.0,-2114.0,0.056,-0.254,-0.758,0.598
1299117,-2162.0,-6996.0,-2218.0,0.069,-0.25,-0.761,0.595
1299134,-2022.0,-6054.0,-1942.0,0.082,-0.246,-0.763,0.592
1299150,-1622.0,-7934.0,-1722.0,0.096,-0.241,-0.766,0.588
1299166,-1358.0,-7192.0,-2222.0,0.11,-0.235,-0.769,0.584
1299183,-1508.0,-7780.0,-1878.0,0.124,-0.229,-0.773,0.579
1299200,-966.0,-7054.0,-2304.0,0.137,-0.222,-0.777,0.573
1299217,-160.0,-7466.0,-2576.0,0.149,-0.216,-0.78,0.568
1299234,260.0,-8312.0,-2996.0,0.162,-0.21,-0.783,0.563
1299260,24.0,-8272.0,-2718.0,0.175,-0.202,-0.785,0.559
1299277,276.0,-7730.0,-2452.0,0.188,-0.194,-0.787,0.555
1299293,804.0,-7882.0,-2418.0,0.2,-0.186,-0.789,0.551
1299309,1360.0,-8604.0,-2324.0,0.212,-0.177,-0.79,0.547
1299325,1294.0,-9074.0,-2976.0,0.224,-0.168,-0.793,0.542
1299341,1220.0,-9168.0,-2574.0,0.237,-0.158,-0.795,0.536
1299357,1504.0,-9528.0,-2706.0,0.249,-0.149,-0.796,0.531
1299383,2350.0,-9224.0,-3218.0,0.259,-0.141,-0.797,0.527
1299399,2514.0,-9394.0,-3146.0,0.267,-0.134,-0.799,0.522
1299415,2702.0,-10452.0,-3690.0,0.273,-0.129,-0.802,0.515
1299432,2756.0,-11604.0,-3938.0,0.278,-0.124,-0.805,0.509
1299449,3224.0,-12652.0,-4188.0,0.281,-0.12,-0.808,0.503
1299466,3526.0,-12684.0,-3976.0,0.283,-0.115,-0.81,0.5
1299482,3692.0,-12678.0,-3568.0,0.283,-0.113,-0.812,0.497
1299498,3728.0,-12466.0,-2972.0,0.279,-0.113,-0.814,0.496
1299524,3870.0,-12090.0,-3478.0,0.272,-0.117,-0.817,0.495
1299540,3966.0,-12500.0,-3990.0,0.262,-0.123,-0.819,0.496
1299556,3930.0,-12854.0,-4820.0,0.251,-0.129,-0.819,0.499
1299573,2946.0,-9592.0,-4484.0,0.239,-0.136,-0.818,0.505
1299589,3028.0,-10128.0,-4382.0,0.225,-0.145,-0.817,0.511
1299605,2036.0,-9252.0,-4294.0,0.21,-0.154,-0.814,0.519
1299631,1366.0,-9236.0,-4222.0,0.193,-0.165,-0.811,0.527
1299647,910.0,-8454.0,-3818.0,0.175,-0.175,-0.807,0.536
1299663,882.0,-8138.0,-3172.0,0.158,-0.185,-0.802,0.545
1299679,734.0,-8338.0,-3070.0,0.141,-0.196,-0.796,0.555
1299695,-28.0,-6476.0,-3024.0,0.125,-0.205,-0.79,0.564
1299711,-598.0,-6664.0,-2376.0,0.109,-0.215,-0.785,0.571
1299728,-646.0,-6726.0,-2030.0,0.094,-0.223,-0.78,0.577
1299755,-684.0,-6736.0,-1750.0,0.08,-0.232,-0.775,0.582
1299772,-1206.0,-7310.0,-2008.0,0.068,-0.24,-0.77,0.587
1299789,-1302.0,-7664.0,-1116.0,0.058,-0.247,-0.765,0.592
1299806,-2190.0,-5744.0,-842.0,0.048,-0.254,-0.76,0.596
1299823,-1814.0,-4228.0,-942.0,0.037,-0.262,-0.756,0.599
1299840,-1850.0,-5160.0,-1414.0,0.025,-0.269,-0.754,0.599
1299857,-1532.0,-3856.0,-1990.0,0.013,-0.275,-0.752,0.599
1299874,-1290.0,-4842.0,-1664.0,0.001,-0.28,-0.751,0.598
1299891,-1488.0,-5040.0,-1174.0,0.008,0.284,0.749,-0.598
1299908,-1388.0,-3628.0,-1122.0,0.016,0.287,0.749,-0.597
1299925,-1128.0,-2784.0,-1168.0,0.023,0.288,0.75,-0.595
1299941,-844.0,-2690.0,-964.0,0.028,0.288,0.751,-0.594
1299959,-852.0,-2986.0,-1224.0,0.031,0.287,0.752,-0.592
1299985,-774.0,-4430.0,-1886.0,0.032,0.285,0.754,-0.591
1300002,-1316.0,-7284.0,-2058.0,0.029,0.281,0.755,-0.591
1300018,-1846.0,-5146.0,-1810.0,0.022,0.276,0.755,-0.595
1300035,-2012.0,-3374.0,-1190.0,0.014,0.27,0.756,-0.597
1300051,-2334.0,-3512.0,-640.0,0.003,0.262,0.757,-0.598
1300067,-2350.0,-5850.0,-1482.0,0.009,-0.255,-0.759,0.599
1300084,-2502.0,-5974.0,-1868.0,0.022,-0.247,-0.76,0.601
1300101,-2456.0,-5690.0,-1796.0,0.035,-0.24,-0.761,0.602
1300118,-2054.0,-7340.0,-1598.0,0.049,-0.233,-0.762,0.602
1300145,-2118.0,-7178.0,-1096.0,0.062,-0.225,-0.765,0.6
1300161,-2244.0,-7138.0,-904.0,0.075,-0.218,-0.769,0.596
1300177,-2014.0,-8734.0,-580.0,0.087,-0.212,-0.773,0.591
1300194,-1276.0,-8488.0,-1616.0,0.099,-0.206,-0.779,0.585
1300210,-852.0,-7978.0,-2282.0,0.112,-0.2,-0.783,0.579
1300226,32.0,-8834.0,-3030.0,0.124,-0.195,-0.786,0.573
1300242,-96.0,-8842.0,-2272.0,0.138,-0.189,-0.788,0.569
1300269,-150.0,-7906.0,-2638.0,0.151,-0.183,-0.791,0.564
1300286,28.0,-7760.0,-2246.0,0.164,-0.176,-0.793,0.56
1300302,834.0,-8654.0,-3112.0,0.177,-0.17,-0.795,0.556
1300319,856.0,-9504.0,-3360.0,0.19,-0.163,-0.795,0.553
1300335,678.0,-8458.0,-3042.0,0.203,-0.155,-0.795,0.551
1300351,998.0,-9562.0,-2486.0,0.215,-0.147,-0.795,0.549
1300367,1612.0,-10764.0,-2798.0,0.225,-0.141,-0.794,0.546
1300393,1586.0,-10946.0,-2088.0,0.235,-0.133,-0.794,0.545
1300409,1848.0,-10906.0,-2462.0,0.244,-0.128,-0.794,0.543
1300425,2482.0,-12692.0,-3098.0,0.251,-0.123,-0.793,0.541
1300441,2308.0,-13768.0,-2950.0,0.256,-0.119,-0.793,0.539
1300458,2294.0,-12884.0,-2880.0,0.259,-0.117,-0.793,0.539
1300474,2722.0,-12066.0,-2896.0,0.258,-0.118,-0.793,0.539
1300500,3386.0,-12802.0,-3434.0,0.254,-0.122,-0.793,0.54
1300516,3012.0,-12148.0,-3056.0,0.248,-0.127,-0.794,0.541
1300533,2896.0,-11712.0,-3094.0,0.239,-0.133,-0.794,0.543
1300549,2886.0,-10848.0,-3494.0,0.229,-0.141,-0.793,0.546
1300565,2218.0,-10360.0,-3524.0,0.216,-0.15,-0.792,0.55
1300581,1760.0,-10082.0,-3504.0,0.202,-0.16,-0.791,0.555
1300598,1240.0,-9094.0,-3176.0,0.187,-0.17,-0.789,0.56
1300615,970.0,-8688.0,-2780.0,0.171,-0.181,-0.787,0.565
1300632,604.0,-8166.0,-2816.0,0.155,-0.191,-0.784,0.569
1300659,338.0,-7780.0,-2712.0,0.139,-0.201,-0.781,0.574
1300675,-20.0,-7170.0,-2540.0,0.123,-0.21,-0.778,0.578
1300691,-494.0,-8306.0,-2262.0,0.109,-0.219,-0.776,0.582
1300708,-1060.0,-5940.0,-1900.0,0.095,-0.226,-0.772,0.586
1300724,-1064.0,-5212.0,-2122.0,0.081,-0.234,-0.77,0.587
1300741,-1378.0,-8634.0,-1740.0,0.067,-0.241,-0.769,0.589
1300758,-1862.0,-6730.0,-2160.0,0.054,-0.247,-0.767,0.59
1300774,-2246.0,-4398.0,-2118.0,0.042,-0.253,-0.766,0.59
1300790,-1702.0,-4686.0,-1272.0,0.029,-0.259,-0.765,0.589
1300817,-1468.0,-6048.0,-1876.0,0.015,-0.265,-0.766,0.585
1300833,-2134.0,-6938.0,-1686.0,0.004,-0.27,-0.766,0.584
1300849,-1938.0,-4066.0,-1896.0,0.005,0.273,0.766,-0.582
1300866,-1664.0,-3544.0,-894.0,0.012,0.276,0.767,-0.579
1300882,-1678.0,-1392.0,-628.0,0.018,0.278,0.768,-0.576
1300899,-1232.0,-1656.0,-982.0,0.023,0.279,0.771,-0.572
1300915,-612.0,-3132.0,-1848.0,0.025,0.279,0.774,-0.568
1300941,-270.0,-4656.0,-2546.0,0.025,0.278,0.776,-0.566
1300957,-532.0,-6460.0,-2776.0,0.021,0.275,0.777,-0.566
1300973,-1130.0,-5372.0,-2336.0,0.014,0.27,0.777,-0.569
1300989,-1596.0,-2856.0,-1568.0,0.004,0.263,0.777,-0.572
1301006,-1818.0,-3024.0,-788.0,0.009,-0.256,-0.777,0.575
1301022,-1966.0,-5148.0,-1500.0,0.022,-0.248,-0.778,0.577
1301038,-1972.0,-6722.0,-1882.0,0.036,-0.24,-0.778,0.579
1301064,-2014.0,-6250.0,-1720.0,0.05,-0.233,-0.778,0.581
1301081,-1446.0,-6716.0,-1072.0,0.065,-0.227,-0.778,0.582
1301097,-1514.0,-7188.0,-1400.0,0.08,-0.221,-0.778,0.582
1301113,-1320.0,-7558.0,-2468.0,0.094,-0.215,-0.78,0.58
1301129,-1024.0,-7360.0,-2584.0,0.109,-0.207,-0.782,0.578
1301145,-746.0,-8056.0,-2566.0,0.124,-0.2,-0.784,0.575
1301171,-448.0,-7506.0,-2348.0,0.14,-0.192,-0.785,0.572
1301188,-124.0,-7688.0,-2382.0,0.155,-0.183,-0.787,0.569
1301204,618.0,-8790.0,-2838.0,0.169,-0.175,-0.789,0.564
1301220,750.0,-8198.0,-2446.0,0.183,-0.166,-0.79,0.561
1301237,864.0,-7482.0,-1966.0,0.196,-0.158,-0.791,0.557
1301254,1604.0,-7310.0,-2494.0,0.208,-0.151,-0.793,0.552
1301270,1982.0,-8040.0,-2630.0,0.219,-0.143,-0.795,0.547
1301287,2166.0,-9074.0,-2820.0,0.231,-0.134,-0.797,0.542
1301313,2068.0,-7838.0,-2214.0,0.242,-0.125,-0.797,0.539
1301329,2522.0,-7248.0,-2258.0,0.252,-0.117,-0.798,0.535
1301345,3254.0,-8430.0,-2546.0,0.261,-0.111,-0.799,0.531
1301361,2962.0,-8740.0,-2886.0,0.269,-0.103,-0.8,0.527
1301378,3136.0,-10240.0,-3256.0,0.278,-0.095,-0.801,0.522
1301394,3248.0,-9464.0,-3398.0,0.287,-0.088,-0.8,0.52
1301410,3378.0,-10272.0,-3348.0,0.293,-0.081,-0.8,0.517
1301436,4002.0,-11698.0,-3422.0,0.298,-0.077,-0.8,0.515
1301452,3632.0,-11606.0,-2728.0,0.301,-0.073,-0.8,0.514
1301469,4076.0,-11742.0,-2506.0,0.302,-0.072,-0.799,0.514
1301486,5010.0,-13880.0,-2692.0,0.301,-0.074,-0.8,0.514
1301502,4492.0,-13746.0,-2388.0,0.299,-0.077,-0.8,0.514
1301519,4326.0,-11876.0,-2286.0,0.295,-0.081,-0.801,0.515
1301536,4404.0,-11186.0,-2764.0,0.289,-0.088,-0.801,0.516
1301553,3844.0,-10930.0,-3936.0,0.28,-0.096,-0.802,0.519
1301570,3218.0,-10694.0,-3694.0,0.27,-0.105,-0.8,0.525
1301596,3060.0,-9836.0,-3718.0,0.258,-0.114,-0.798,0.533
1301612,3282.0,-10714.0,-2984.0,0.245,-0.125,-0.792,0.546
1301628,2218.0,-9026.0,-2464.0,0.232,-0.136,-0.784,0.559
1301645,2460.0,-10060.0,-1378.0,0.22,-0.146,-0.777,0.571
1301662,2326.0,-10346.0,-1840.0,0.209,-0.157,-0.768,0.585
1301678,1450.0,-8552.0,-2468.0,0.199,-0.165,-0.757,0.6
1301695,590.0,-4228.0,-2820.0,0.189,-0.175,-0.748,0.612
1301711,200.0,-6074.0,-2112.0,0.177,-0.186,-0.741,0.62
1301737,382.0,-8112.0,-1456.0,0.164,-0.197,-0.735,0.628
1301753,-488.0,-6952.0,-1822.0,0.152,-0.207,-0.728,0.635
1301771,-672.0,-7574.0,-1026.0,0.141,-0.216,-0.723,0.64
1301788,-1020.0,-7828.0,108.0,0.13,-0.225,-0.719,0.645
1301805,-1480.0,-6564.0,-64.0,0.119,-0.233,-0.715,0.648
1301822,-1492.0,-7034.0,-734.0,0.107,-0.241,-0.713,0.65
1301839,-1280.0,-6834.0,-1202.0,0.095,-0.25,-0.71,0.651
1301856,-1474.0,-5034.0,-1576.0,0.083,-0.257,-0.708,0.653
1301873,-1100.0,-3300.0,-1472.0,0.071,-0.264,-0.705,0.654
1301890,-816.0,-5110.0,-904.0,0.058,-0.27,-0.703,0.656
1301907,-1580.0,-3838.0,-788.0,0.049,-0.274,-0.701,0.656
1301924,-1298.0,-4868.0,92.0,0.041,-0.275,-0.701,0.657
1301950,-568.0,-4088.0,94.0,0.035,-0.275,-0.701,0.657
1301967,-904.0,-3342.0,122.0,0.032,-0.274,-0.701,0.658
1301984,-582.0,-3298.0,500.0,0.03,-0.271,-0.702,0.658
1302001,-646.0,-3970.0,-234.0,0.031,-0.268,-0.702,0.659
1302018,-732.0,-5470.0,-500.0,0.034,-0.262,-0.702,0.661
1302034,-708.0,-4480.0,-588.0,0.04,-0.256,-0.701,0.664
1302050,-1480.0,-4694.0,-444.0,0.047,-0.249,-0.701,0.666
1302066,-1930.0,-5118.0,-378.0,0.057,-0.241,-0.702,0.668
1302083,-2076.0,-4184.0,0.0,0.07,-0.232,-0.703,0.669
1302109,-2058.0,-5428.0,192.0,0.082,-0.224,-0.706,0.667
1302125,-1858.0,-7820.0,440.0,0.095,-0.217,-0.708,0.665
1302141,-1890.0,-8102.0,396.0,0.109,-0.21,-0.711,0.663
1302157,-2066.0,-7010.0,-466.0,0.123,-0.203,-0.714,0.659
1302174,-1164.0,-6980.0,-1212.0,0.136,-0.195,-0.719,0.653
1302190,-438.0,-10110.0,-798.0,0.15,-0.188,-0.724,0.646
1302217,-626.0,-8026.0,-684.0,0.166,-0.18,-0.727,0.641
1302234,-470.0,-6714.0,-580.0,0.181,-0.171,-0.732,0.635
1302250,804.0,-8494.0,-1424.0,0.194,-0.162,-0.736,0.627
1302267,1346.0,-9018.0,-1900.0,0.208,-0.153,-0.74,0.621
1302284,1548.0,-8814.0,-1148.0,0.222,-0.143,-0.744,0.614
1302301,1584.0,-7908.0,-1128.0,0.235,-0.134,-0.748,0.607
1302318,2110.0,-8898.0,-1538.0,0.246,-0.125,-0.751,0.6
1302335,2764.0,-10004.0,-1940.0,0.256,-0.117,-0.753,0.595
1302352,2900.0,-9124.0,-2024.0,0.267,-0.108,-0.754,0.591
1302369,3128.0,-9622.0,-1712.0,0.276,-0.099,-0.754,0.588
1302386,3030.0,-9420.0,-2008.0,0.284,-0.09,-0.754,0.585
1302402,3068.0,-10048.0,-1934.0,0.29,-0.082,-0.754,0.583
1302428,3478.0,-11136.0,-1348.0,0.296,-0.074,-0.753,0.582
1302444,3942.0,-11330.0,-1296.0,0.301,-0.067,-0.751,0.583
1302461,4546.0,-12240.0,-1074.0,0.305,-0.062,-0.748,0.586
1302478,4414.0,-12052.0,-816.0,0.309,-0.058,-0.745,0.589
1302494,4272.0,-11994.0,-786.0,0.311,-0.055,-0.743,0.589
1302510,4124.0,-12212.0,-362.0,0.312,-0.055,-0.743,0.59
1302526,4114.0,-12650.0,-640.0,0.309,-0.058,-0.744,0.59
1302543,4378.0,-12042.0,-834.0,0.305,-0.062,-0.744,0.591
1302569,4384.0,-12002.0,-536.0,0.299,-0.069,-0.745,0.593
1302585,3766.0,-11352.0,-478.0,0.291,-0.078,-0.746,0.595
1302602,3434.0,-11570.0,-1016.0,0.281,-0.089,-0.747,0.596
1302619,3298.0,-10684.0,-1420.0,0.27,-0.1,-0.746,0.601
1302635,3052.0,-10450.0,-1602.0,0.258,-0.112,-0.743,0.607
1302652,2390.0,-9268.0,-1266.0,0.245,-0.124,-0.739,0.615
1302668,1536.0,-9228.0,-850.0,0.231,-0.137,-0.733,0.624
1302685,1538.0,-8008.0,-1124.0,0.217,-0.151,-0.728,0.632
1302711,1382.0,-9236.0,-730.0,0.202,-0.165,-0.724,0.638
1302728,736.0,-8482.0,-1188.0,0.187,-0.179,-0.72,0.644
1302745,416.0,-8336.0,-1236.0,0.171,-0.193,-0.716,0.649
1302761,2.0,-7848.0,-1376.0,0.155,-0.207,-0.711,0.654
1302777,-644.0,-7762.0,-1024.0,0.137,-0.222,-0.706,0.658
1302794,-610.0,-7846.0,-930.0,0.12,-0.236,-0.7,0.663
1302811,-1304.0,-7968.0,-680.0,0.103,-0.249,-0.694,0.667
1302828,-1694.0,-6742.0,-684.0,0.088,-0.261,-0.689,0.671
1302845,-1844.0,-5696.0,-832.0,0.072,-0.272,-0.684,0.673
1302862,-1952.0,-6654.0,-842.0,0.055,-0.283,-0.68,0.674
1302879,-1980.0,-5988.0,-620.0,0.04,-0.293,-0.675,0.676
1302906,-2254.0,-5608.0,-896.0,0.024,-0.302,-0.671,0.677
1302923,-2282.0,-5018.0,-848.0,0.01,-0.31,-0.667,0.677
1302939,-2362.0,-4596.0,-888.0,0.005,0.316,0.665,-0.677
1302956,-2138.0,-4272.0,-904.0,0.018,0.321,0.664,-0.676
1302973,-2282.0,-5106.0,-974.0,0.031,0.324,0.663,-0.674
1302990,-2344.0,-5130.0,-1322.0,0.043,0.325,0.663,-0.673
1303007,-2832.0,-5452.0,-1560.0,0.053,0.326,0.662,-0.672
1303024,-3150.0,-6504.0,-1502.0,0.062,0.326,0.662,-0.672
1303041,-3246.0,-5616.0,-936.0,0.07,0.325,0.661,-0.673
1303058,-3484.0,-3750.0,-986.0,0.077,0.323,0.66,-0.674
1303074,-3978.0,-7140.0,-744.0,0.084,0.321,0.661,-0.673
1303100,-4264.0,-7608.0,-840.0,0.089,0.319,0.66,-0.675
1303116,-4174.0,-4396.0,-1182.0,0.094,0.317,0.659,-0.675
1303132,-4010.0,-6092.0,-714.0,0.1,0.315,0.659,-0.675
1303149,-4720.0,-11242.0,-1158.0,0.106,0.314,0.659,-0.675
1303166,-5240.0,-8300.0,-1396.0,0.109,0.314,0.656,-0.678
