timeMs,ax,ay,az,q0,q1,q2,q3
1315122,-4314.0,2418.0,-5755.0,0.132,0.886,-0.059,-0.44
1315139,-4704.0,1876.0,-4727.0,0.128,0.878,-0.058,-0.458
1315156,-4980.0,3750.0,-4095.0,0.123,0.87,-0.057,-0.475
1315173,-5366.0,2644.0,-4071.0,0.119,0.861,-0.056,-0.492
1315190,-5792.0,2274.0,-3647.0,0.115,0.851,-0.055,-0.509
1315206,-5518.0,1694.0,-3639.0,0.112,0.842,-0.053,-0.525
1315223,-6228.0,2264.0,-3037.0,0.109,0.832,-0.051,-0.541
1315239,-5768.0,2206.0,-3041.0,0.105,0.823,-0.049,-0.556
1315255,-6416.0,2512.0,-2383.0,0.102,0.813,-0.047,-0.571
1315271,-6304.0,2034.0,-2239.0,0.1,0.804,-0.044,-0.585
1315297,-6598.0,1730.0,-1809.0,0.099,0.795,-0.04,-0.597
1315313,-6828.0,2124.0,-1353.0,0.097,0.786,-0.037,-0.609
1315329,-6646.0,1616.0,-953.0,0.097,0.778,-0.033,-0.62
1315345,-6702.0,1706.0,-829.0,0.096,0.771,-0.028,-0.629
1315361,-6648.0,1476.0,-439.0,0.097,0.764,-0.024,-0.637
1315377,-6806.0,1436.0,45.0,0.098,0.759,-0.019,-0.643
1315403,-6678.0,1464.0,61.0,0.099,0.755,-0.013,-0.648
1315419,-6942.0,1070.0,213.0,0.101,0.752,-0.008,-0.651
1315435,-7306.0,1058.0,621.0,0.102,0.75,-0.002,-0.653
1315451,-6990.0,1256.0,293.0,0.104,0.749,0.003,-0.654
1315467,-7094.0,718.0,287.0,0.106,0.749,0.009,-0.654
1315483,-7002.0,902.0,155.0,0.108,0.75,0.015,-0.653
1315509,-7036.0,722.0,113.0,0.109,0.752,0.02,-0.65
1315526,-7186.0,866.0,149.0,0.111,0.755,0.025,-0.645
1315543,-7378.0,740.0,153.0,0.113,0.759,0.029,-0.64
1315559,-7002.0,566.0,-121.0,0.114,0.764,0.033,-0.634
1315576,-7068.0,752.0,-421.0,0.116,0.77,0.036,-0.627
1315593,-7184.0,600.0,-343.0,0.118,0.776,0.037,-0.618
1315610,-6790.0,706.0,-747.0,0.12,0.783,0.038,-0.609
1315627,-7032.0,802.0,-781.0,0.122,0.791,0.038,-0.598
1315644,-6972.0,478.0,-1229.0,0.124,0.8,0.037,-0.586
1315661,-6968.0,782.0,-1125.0,0.125,0.809,0.036,-0.572
1315678,-6678.0,810.0,-1373.0,0.127,0.819,0.035,-0.558
1315705,-6870.0,1178.0,-1503.0,0.129,0.829,0.032,-0.543
1315721,-5770.0,1436.0,-2847.0,0.132,0.839,0.03,-0.527
1315737,-4640.0,826.0,-3887.0,0.134,0.851,0.028,-0.508
1315753,-6618.0,1572.0,-2885.0,0.136,0.861,0.026,-0.489
1315770,-5398.0,1094.0,-3547.0,0.139,0.871,0.023,-0.471
1315787,-4004.0,1984.0,-5539.0,0.141,0.88,0.021,-0.453
1315804,-4596.0,1738.0,-4849.0,0.145,0.889,0.017,-0.434
1315821,-4982.0,1278.0,-4601.0,0.148,0.898,0.012,-0.415
1315838,-4456.0,1532.0,-5571.0,0.152,0.905,0.007,-0.397
1315855,-4416.0,2086.0,-5821.0,0.155,0.913,0.002,-0.377
1315882,-4496.0,1518.0,-6191.0,0.158,0.92,-0.002,-0.358
1315898,-5320.0,2568.0,-5515.0,0.16,0.927,-0.006,-0.339
1315915,-4214.0,3056.0,-6039.0,0.164,0.933,-0.011,-0.319
1315932,-4242.0,2244.0,-6533.0,0.169,0.939,-0.016,-0.299
1315949,-4340.0,2600.0,-5983.0,0.172,0.945,-0.022,-0.279
1315966,-3182.0,2830.0,-6529.0,0.176,0.95,-0.027,-0.257
1315983,-3352.0,3246.0,-6133.0,0.18,0.954,-0.033,-0.236
1316000,-3248.0,2534.0,-6569.0,0.186,0.958,-0.038,-0.216
1316017,-2440.0,2502.0,-6983.0,0.191,0.961,-0.044,-0.194
1316034,-1352.0,3136.0,-7225.0,0.195,0.965,-0.048,-0.171
1316051,-2716.0,3604.0,-6589.0,0.2,0.967,-0.053,-0.148
1316068,-2344.0,3138.0,-6393.0,0.204,0.969,-0.058,-0.127
1316085,128.0,2818.0,-8307.0,0.208,0.97,-0.063,-0.105
1316112,-964.0,3138.0,-7727.0,0.21,0.972,-0.067,-0.082
1316129,-1030.0,3648.0,-7057.0,0.212,0.973,-0.073,-0.059
1316146,1228.0,2898.0,-8537.0,0.212,0.973,-0.079,-0.036
1316162,926.0,3472.0,-9177.0,0.211,0.974,-0.085,-0.014
1316178,1232.0,3832.0,-8501.0,0.211,0.973,-0.091,0.01
1316195,1236.0,3116.0,-8223.0,0.209,0.972,-0.096,0.033
1316212,1826.0,3400.0,-8427.0,0.209,0.971,-0.101,0.053
1316228,2386.0,3682.0,-8739.0,0.21,0.969,-0.105,0.072
1316245,2268.0,3192.0,-7653.0,0.21,0.967,-0.109,0.092
1316271,2544.0,3206.0,-7297.0,0.209,0.965,-0.114,0.11
1316288,3316.0,3514.0,-7737.0,0.208,0.963,-0.119,0.127
1316305,3028.0,2858.0,-7215.0,0.207,0.96,-0.123,0.144
1316321,3916.0,2698.0,-6993.0,0.205,0.957,-0.127,0.163
1316337,3426.0,3116.0,-6803.0,0.203,0.953,-0.131,0.181
1316353,3852.0,3100.0,-7621.0,0.202,0.949,-0.134,0.199
1316369,4834.0,2450.0,-7767.0,0.201,0.945,-0.137,0.22
1316386,4504.0,3010.0,-7201.0,0.2,0.94,-0.139,0.24
1316412,4280.0,2420.0,-7169.0,0.199,0.934,-0.142,0.26
1316429,6124.0,2298.0,-8499.0,0.199,0.929,-0.144,0.278
1316445,5206.0,3066.0,-7311.0,0.199,0.923,-0.145,0.296
1316462,5736.0,3308.0,-7257.0,0.201,0.917,-0.148,0.312
1316478,5814.0,3354.0,-7293.0,0.204,0.911,-0.151,0.325
1316494,6848.0,2508.0,-7615.0,0.207,0.906,-0.154,0.336
1316511,6892.0,2244.0,-7311.0,0.209,0.901,-0.155,0.347
1316528,6684.0,3878.0,-6925.0,0.21,0.897,-0.157,0.355
1316545,6746.0,4046.0,-7347.0,0.211,0.894,-0.161,0.362
1316572,6784.0,3066.0,-7637.0,0.212,0.891,-0.166,0.366
1316589,6476.0,2498.0,-7527.0,0.213,0.888,-0.169,0.37
1316606,5758.0,3040.0,-7195.0,0.213,0.887,-0.17,0.373
1316622,5094.0,3870.0,-6637.0,0.214,0.885,-0.172,0.375
1316639,5266.0,3040.0,-6911.0,0.215,0.885,-0.175,0.375
1316656,5592.0,2564.0,-7183.0,0.215,0.885,-0.177,0.374
1316673,5820.0,2618.0,-7463.0,0.215,0.885,-0.178,0.372
1316690,5206.0,2908.0,-7071.0,0.215,0.886,-0.178,0.37
1316708,5464.0,2770.0,-7355.0,0.214,0.888,-0.178,0.366
1316725,5826.0,2422.0,-7705.0,0.213,0.89,-0.178,0.361
1316742,5532.0,2168.0,-7727.0,0.212,0.893,-0.176,0.355
1316759,5096.0,2332.0,-7535.0,0.209,0.897,-0.174,0.347
1316776,5152.0,2566.0,-7681.0,0.206,0.902,-0.171,0.338
1316793,5818.0,2290.0,-8195.0,0.203,0.907,-0.169,0.328
1316820,5124.0,2238.0,-7699.0,0.198,0.913,-0.166,0.316
1316836,5116.0,2568.0,-8059.0,0.193,0.919,-0.163,0.303
1316852,4964.0,2332.0,-7851.0,0.188,0.925,-0.16,0.289
1316868,5026.0,2356.0,-8177.0,0.183,0.931,-0.158,0.274
1316884,4714.0,2390.0,-8121.0,0.176,0.937,-0.155,0.258
1316900,4578.0,2534.0,-8365.0,0.17,0.943,-0.153,0.241
1316917,3910.0,2152.0,-7979.0,0.164,0.949,-0.151,0.223
1316943,4190.0,2344.0,-8337.0,0.157,0.955,-0.15,0.204
1316960,3970.0,2278.0,-8521.0,0.151,0.96,-0.148,0.184
1316977,3016.0,2546.0,-8127.0,0.145,0.965,-0.146,0.164
1316994,3238.0,1852.0,-8161.0,0.14,0.969,-0.145,0.144
1317010,2794.0,2674.0,-8279.0,0.134,0.973,-0.145,0.123
1317027,2498.0,1960.0,-8167.0,0.13,0.976,-0.144,0.102
1317044,2210.0,2438.0,-8147.0,0.127,0.978,-0.143,0.081
1317061,2262.0,2300.0,-8349.0,0.125,0.98,-0.143,0.059
1317078,1872.0,1896.0,-8419.0,0.123,0.981,-0.143,0.038
1317095,1204.0,2120.0,-7775.0,0.122,0.982,-0.142,0.017
1317121,1536.0,1466.0,-8323.0,0.119,0.983,-0.143,-0.004
1317138,1116.0,2140.0,-9025.0,0.116,0.982,-0.145,-0.027
1317155,714.0,1276.0,-9169.0,0.112,0.982,-0.147,-0.05
1317172,-96.0,1670.0,-8779.0,0.107,0.98,-0.149,-0.074
1317189,-8.0,1662.0,-8923.0,0.102,0.978,-0.152,-0.098
1317205,-418.0,1072.0,-8873.0,0.097,0.976,-0.156,-0.121
1317222,-826.0,1468.0,-8679.0,0.09,0.972,-0.159,-0.144
1317238,-1734.0,1036.0,-8015.0,0.083,0.969,-0.162,-0.168
1317254,-2442.0,1352.0,-7623.0,0.075,0.965,-0.165,-0.191
1317281,-2674.0,1402.0,-7455.0,0.067,0.96,-0.168,-0.214
1317297,-2998.0,1550.0,-7165.0,0.059,0.955,-0.17,-0.237
1317313,-3242.0,1506.0,-6621.0,0.051,0.949,-0.172,-0.26
1317329,-2806.0,1488.0,-6809.0,0.043,0.943,-0.173,-0.282
1317346,-3566.0,2020.0,-6059.0,0.036,0.936,-0.174,-0.304
1317363,-3058.0,1746.0,-6231.0,0.03,0.929,-0.174,-0.325
1317380,-3256.0,1652.0,-5947.0,0.024,0.922,-0.175,-0.345
1317397,-3976.0,1532.0,-5691.0,0.019,0.914,-0.175,-0.365
1317414,-4484.0,1604.0,-5443.0,0.015,0.907,-0.175,-0.384
1317431,-4630.0,1470.0,-5191.0,0.01,0.899,-0.175,-0.402
1317458,-4352.0,1548.0,-5251.0,0.007,0.891,-0.174,-0.419
1317475,-4264.0,936.0,-5521.0,0.004,0.883,-0.173,-0.436
1317492,-5062.0,1400.0,-5373.0,0.001,0.875,-0.173,-0.452
1317509,-5428.0,1126.0,-5233.0,0.001,-0.867,0.172,0.468
1317526,-5758.0,964.0,-4831.0,0.004,-0.858,0.171,0.484
1317543,-6124.0,1240.0,-4623.0,0.006,-0.849,0.17,0.5
1317560,-6398.0,1312.0,-4293.0,0.009,-0.84,0.168,0.516
1317577,-6810.0,262.0,-3971.0,0.012,-0.83,0.165,0.532
1317594,-6682.0,1458.0,-3407.0,0.015,-0.82,0.163,0.548
1317610,-7138.0,1724.0,-2757.0,0.018,-0.81,0.16,0.564
1317626,-6266.0,1698.0,-2451.0,0.021,-0.8,0.156,0.579
1317653,-6716.0,1604.0,-1963.0,0.023,-0.79,0.151,0.594
1317670,-6420.0,1470.0,-1917.0,0.026,-0.78,0.146,0.608
1317687,-6744.0,2018.0,-1161.0,0.027,-0.771,0.141,0.62
1317703,-6360.0,1634.0,-903.0,0.028,-0.763,0.136,0.631
1317719,-6354.0,1474.0,-509.0,0.028,-0.757,0.13,0.64
1317735,-6904.0,1698.0,11.0,0.028,-0.752,0.124,0.647
1317751,-6546.0,920.0,-87.0,0.026,-0.747,0.118,0.654
1317767,-6716.0,1332.0,-15.0,0.025,-0.744,0.112,0.658
1317784,-7164.0,1280.0,225.0,0.023,-0.742,0.106,0.662
1317811,-6926.0,800.0,15.0,0.021,-0.74,0.1,0.665
1317827,-6952.0,884.0,45.0,0.019,-0.74,0.094,0.666
1317843,-6868.0,668.0,-51.0,0.016,-0.741,0.089,0.666
1317859,-7046.0,816.0,-173.0,0.014,-0.743,0.083,0.664
1317876,-7160.0,730.0,-127.0,0.011,-0.746,0.079,0.661
1317893,-7214.0,524.0,-75.0,0.008,-0.75,0.074,0.657
1317910,-7458.0,536.0,37.0,0.005,-0.754,0.07,0.653
1317927,-7544.0,434.0,33.0,0.002,-0.759,0.067,0.648
1317944,-6940.0,422.0,-507.0,0.002,0.764,-0.064,-0.642
1317961,-6876.0,306.0,-639.0,0.004,0.771,-0.062,-0.634
1317988,-7282.0,576.0,-523.0,0.007,0.777,-0.06,-0.626
1318004,-7296.0,584.0,-459.0,0.011,0.785,-0.059,-0.617
1318020,-6632.0,622.0,-1239.0,0.014,0.792,-0.058,-0.607
1318037,-7454.0,778.0,-909.0,0.018,0.8,-0.058,-0.596
1318054,-6478.0,704.0,-1365.0,0.022,0.809,-0.058,-0.584
1318071,-6944.0,922.0,-1193.0,0.026,0.818,-0.058,-0.571
1318088,-6746.0,1128.0,-1273.0,0.032,0.828,-0.058,-0.557
1318104,-6752.0,2692.0,-1405.0,0.04,0.837,-0.059,-0.543
1318120,-5862.0,992.0,-2815.0,0.052,0.846,-0.057,-0.527
1318147,-6150.0,-20.0,-3299.0,0.06,0.856,-0.055,-0.51
1318163,-6082.0,1742.0,-3369.0,0.066,0.866,-0.055,-0.493
1318179,-5734.0,2544.0,-4463.0,0.075,0.875,-0.053,-0.475
1318195,-6208.0,1252.0,-4559.0,0.084,0.884,-0.05,-0.458
1318211,-4946.0,1272.0,-4941.0,0.091,0.893,-0.047,-0.439
1318227,-5288.0,2066.0,-5721.0,0.1,0.901,-0.043,-0.42
1318253,-5802.0,2496.0,-5159.0,0.11,0.908,-0.04,-0.402
1318270,-4264.0,1510.0,-5937.0,0.121,0.915,-0.036,-0.383
1318287,-4908.0,944.0,-5903.0,0.129,0.922,-0.034,-0.363
1318304,-5192.0,2410.0,-5555.0,0.136,0.928,-0.032,-0.345
1318320,-5090.0,2800.0,-6153.0,0.144,0.933,-0.031,-0.327
1318336,-4926.0,2078.0,-6437.0,0.152,0.938,-0.033,-0.31
1318352,-3854.0,2086.0,-6769.0,0.158,0.943,-0.034,-0.292
1318368,-4334.0,2818.0,-6245.0,0.163,0.947,-0.035,-0.274
1318394,-4456.0,3702.0,-6253.0,0.168,0.951,-0.037,-0.257
1318411,-2636.0,2704.0,-7261.0,0.174,0.955,-0.04,-0.238
1318428,-2822.0,2376.0,-7271.0,0.177,0.959,-0.042,-0.219
1318444,-2992.0,3482.0,-6743.0,0.18,0.962,-0.045,-0.2
1318460,-1650.0,2950.0,-7629.0,0.183,0.965,-0.048,-0.182
1318477,-1382.0,2424.0,-8105.0,0.186,0.968,-0.051,-0.163
1318494,-1664.0,2864.0,-7775.0,0.188,0.97,-0.054,-0.144
1318510,-1144.0,3316.0,-7539.0,0.189,0.972,-0.056,-0.126
1318537,-422.0,2570.0,-7951.0,0.191,0.974,-0.059,-0.108
1318554,-582.0,2648.0,-8327.0,0.191,0.975,-0.062,-0.09
1318570,-1332.0,3246.0,-7477.0,0.191,0.977,-0.064,-0.073
1318586,72.0,2682.0,-7639.0,0.19,0.978,-0.065,-0.054
1318603,156.0,3084.0,-8063.0,0.188,0.979,-0.067,-0.037
1318620,22.0,2692.0,-7883.0,0.186,0.98,-0.068,-0.019
1318637,-92.0,3698.0,-7973.0,0.182,0.981,-0.07,-0.002
1318654,108.0,3626.0,-7543.0,0.181,0.981,-0.071,0.015
1318671,2096.0,2198.0,-8461.0,0.178,0.981,-0.072,0.034
1318688,1320.0,2904.0,-8055.0,0.175,0.981,-0.073,0.052
1318714,664.0,4066.0,-7423.0,0.172,0.98,-0.075,0.069
1318730,2044.0,3474.0,-7857.0,0.171,0.978,-0.077,0.085
1318746,2850.0,1730.0,-8503.0,0.171,0.977,-0.078,0.103
1318762,1770.0,3116.0,-7815.0,0.17,0.975,-0.078,0.12
1318778,1508.0,3454.0,-6885.0,0.17,0.973,-0.079,0.136
1318794,3856.0,2620.0,-8489.0,0.171,0.97,-0.08,0.153
1318820,3588.0,2646.0,-8419.0,0.172,0.967,-0.081,0.17
1318837,2832.0,2972.0,-7659.0,0.174,0.964,-0.081,0.186
1318853,3106.0,3274.0,-7239.0,0.175,0.96,-0.082,0.202
1318870,4126.0,2712.0,-7903.0,0.178,0.956,-0.084,0.216
1318887,4180.0,2784.0,-8141.0,0.181,0.952,-0.085,0.23
1318904,4444.0,2290.0,-7963.0,0.183,0.948,-0.086,0.245
1318921,5064.0,2824.0,-8121.0,0.185,0.944,-0.086,0.26
1318937,4990.0,3514.0,-7773.0,0.187,0.94,-0.087,0.272
1318953,5100.0,2470.0,-7953.0,0.189,0.937,-0.088,0.281
1318979,4794.0,2780.0,-8057.0,0.191,0.934,-0.088,0.289
1318995,4122.0,3296.0,-7715.0,0.194,0.932,-0.09,0.294
1319011,4264.0,3064.0,-8079.0,0.196,0.929,-0.091,0.299
1319027,4422.0,2900.0,-7561.0,0.198,0.928,-0.093,0.302
1319044,4370.0,3150.0,-7587.0,0.2,0.926,-0.095,0.305
1319060,4318.0,3064.0,-7403.0,0.201,0.925,-0.097,0.307
1319076,4300.0,2812.0,-7247.0,0.202,0.924,-0.098,0.308
1319103,4570.0,2918.0,-7491.0,0.203,0.924,-0.099,0.31
1319120,4670.0,2876.0,-7451.0,0.202,0.923,-0.1,0.312
1319137,4640.0,3196.0,-7251.0,0.202,0.923,-0.101,0.312
1319153,5254.0,2932.0,-7819.0,0.201,0.923,-0.102,0.311
1319169,4996.0,2898.0,-7789.0,0.199,0.924,-0.103,0.31
1319185,4866.0,3014.0,-7745.0,0.198,0.925,-0.103,0.307
1319201,5080.0,2874.0,-7939.0,0.196,0.927,-0.103,0.303
1319227,4960.0,2952.0,-8021.0,0.193,0.929,-0.103,0.298
1319244,4936.0,3138.0,-8355.0,0.19,0.932,-0.104,0.29
1319260,4758.0,3114.0,-8499.0,0.187,0.935,-0.104,0.282
1319277,4406.0,3020.0,-8599.0,0.184,0.939,-0.104,0.271
1319294,4032.0,3038.0,-8899.0,0.18,0.943,-0.105,0.26
1319310,3512.0,3130.0,-8791.0,0.176,0.947,-0.105,0.247
1319326,3418.0,3082.0,-8849.0,0.172,0.951,-0.105,0.233
1319343,3230.0,3008.0,-8857.0,0.168,0.956,-0.105,0.218
1319360,2974.0,3130.0,-8731.0,0.165,0.96,-0.104,0.202
1319387,2754.0,2932.0,-8719.0,0.161,0.964,-0.104,0.185
1319403,2812.0,2852.0,-8875.0,0.158,0.968,-0.103,0.168
1319420,2510.0,2820.0,-8615.0,0.154,0.971,-0.103,0.15
1319437,2776.0,2778.0,-8913.0,0.152,0.974,-0.102,0.131
1319453,2542.0,2724.0,-8761.0,0.149,0.977,-0.101,0.112
1319470,2156.0,2628.0,-8541.0,0.147,0.98,-0.1,0.092
1319487,2116.0,2488.0,-8635.0,0.145,0.982,-0.099,0.072
1319504,1798.0,2604.0,-8435.0,0.144,0.983,-0.098,0.052
1319521,1908.0,2422.0,-8785.0,0.143,0.984,-0.097,0.032
1319538,1056.0,2338.0,-8211.0,0.142,0.985,-0.096,0.011
1319564,830.0,2306.0,-8147.0,0.141,0.985,-0.095,-0.01
1319581,568.0,2304.0,-8263.0,0.141,0.985,-0.094,-0.031
1319597,198.0,2182.0,-8099.0,0.14,0.984,-0.093,-0.052
1319613,254.0,2072.0,-8035.0,0.139,0.983,-0.092,-0.073
1319629,-492.0,2362.0,-7631.0,0.138,0.982,-0.091,-0.093
1319645,-564.0,2182.0,-7677.0,0.138,0.98,-0.09,-0.114
1319662,-460.0,1748.0,-7701.0,0.137,0.977,-0.089,-0.134
1319679,-834.0,2050.0,-7755.0,0.136,0.975,-0.088,-0.154
1319696,-1764.0,2488.0,-7179.0,0.134,0.972,-0.087,-0.174
1319722,-1646.0,1862.0,-7271.0,0.133,0.968,-0.087,-0.194
1319739,-2238.0,2266.0,-7095.0,0.132,0.964,-0.086,-0.213
1319757,-2386.0,2184.0,-6777.0,0.131,0.96,-0.085,-0.232
1319775,-2272.0,2330.0,-7009.0,0.129,0.956,-0.084,-0.251
1319792,-2980.0,2458.0,-6695.0,0.128,0.951,-0.083,-0.27
1319809,-3038.0,1980.0,-6229.0,0.126,0.946,-0.083,-0.288
1319826,-3190.0,2236.0,-6565.0,0.125,0.94,-0.082,-0.307
1319843,-3938.0,2220.0,-6455.0,0.123,0.934,-0.082,-0.325
1319860,-4890.0,2574.0,-5277.0,0.122,0.928,-0.081,-0.343
1319877,-3928.0,1932.0,-5969.0,0.121,0.921,-0.08,-0.361
1319894,-5042.0,2270.0,-5701.0,0.119,0.914,-0.079,-0.379
1319910,-5820.0,2484.0,-4777.0,0.119,0.907,-0.077,-0.398
1319926,-5324.0,2068.0,-5167.0,0.119,0.898,-0.075,-0.416
1319953,-4398.0,1858.0,-6013.0,0.118,0.89,-0.072,-0.434
1319970,-5718.0,1996.0,-4923.0,0.116,0.882,-0.069,-0.451
1319987,-6044.0,2800.0,-4597.0,0.114,0.874,-0.067,-0.468
1320004,-6328.0,2480.0,-4783.0,0.113,0.865,-0.064,-0.485
1320020,-6436.0,2106.0,-4313.0,0.112,0.856,-0.061,-0.501
1320036,-6886.0,2184.0,-3965.0,0.111,0.846,-0.058,-0.518
1320053,-6972.0,2002.0,-3553.0,0.11,0.836,-0.055,-0.535
1320069,-6556.0,2202.0,-3323.0,0.109,0.826,-0.052,-0.551
1320086,-7368.0,2246.0,-2329.0,0.107,0.815,-0.049,-0.567
1320103,-6554.0,2090.0,-2343.0,0.105,0.804,-0.045,-0.583
1320130,-6496.0,1946.0,-1817.0,0.103,0.793,-0.042,-0.598
1320147,-6708.0,1808.0,-1549.0,0.1,0.783,-0.039,-0.613
1320164,-6224.0,1862.0,-1371.0,0.097,0.773,-0.036,-0.625
1320181,-6680.0,1842.0,-689.0,0.095,0.764,-0.033,-0.637
1320198,-6382.0,1444.0,-343.0,0.092,0.756,-0.031,-0.647
1320215,-6166.0,362.0,-259.0,0.09,0.749,-0.028,-0.656
1320231,-6502.0,1138.0,75.0,0.087,0.743,-0.026,-0.663
1320247,-6272.0,1410.0,161.0,0.083,0.738,-0.025,-0.669
1320263,-7004.0,1234.0,461.0,0.08,0.734,-0.024,-0.674
1320289,-6768.0,956.0,241.0,0.076,0.73,-0.022,-0.678
1320306,-7362.0,944.0,635.0,0.072,0.728,-0.021,-0.681
1320323,-7188.0,952.0,509.0,0.069,0.727,-0.021,-0.683
1320340,-7488.0,884.0,647.0,0.065,0.726,-0.021,-0.685
1320357,-7508.0,1000.0,527.0,0.061,0.726,-0.022,-0.685
1320374,-7462.0,758.0,423.0,0.057,0.726,-0.023,-0.685
1320391,-7590.0,1156.0,569.0,0.054,0.728,-0.024,-0.683
1320408,-7594.0,770.0,517.0,0.051,0.73,-0.026,-0.682
1320425,-7700.0,818.0,395.0,0.048,0.732,-0.028,-0.679
1320442,-7502.0,702.0,261.0,0.046,0.735,-0.03,-0.676
1320458,-7444.0,868.0,231.0,0.043,0.739,-0.033,-0.672
1320484,-7310.0,954.0,203.0,0.042,0.743,-0.036,-0.667
1320500,-7360.0,862.0,129.0,0.041,0.748,-0.039,-0.661
1320516,-7064.0,978.0,-129.0,0.041,0.753,-0.041,-0.655
1320532,-6952.0,922.0,-361.0,0.041,0.76,-0.044,-0.647
1320548,-7230.0,912.0,-211.0,0.042,0.767,-0.046,-0.639
1320564,-6764.0,976.0,-787.0,0.043,0.775,-0.048,-0.629
1320590,-6386.0,536.0,-1375.0,0.044,0.783,-0.051,-0.618
1320607,-6134.0,410.0,-1979.0,0.045,0.794,-0.053,-0.603
1320624,-7440.0,1290.0,-1713.0,0.045,0.806,-0.056,-0.588
1320641,-7128.0,1030.0,-2173.0,0.046,0.816,-0.058,-0.573
1320658,-7390.0,952.0,-2301.0,0.048,0.827,-0.06,-0.557
1320675,-7524.0,840.0,-2173.0,0.049,0.836,-0.063,-0.542
1320692,-7534.0,834.0,-2155.0,0.051,0.845,-0.065,-0.528
1320709,-6874.0,1048.0,-2551.0,0.052,0.853,-0.067,-0.515
1320726,-6020.0,862.0,-3257.0,0.053,0.862,-0.069,-0.5
1320743,-5602.0,1254.0,-3709.0,0.053,0.87,-0.071,-0.485
1320760,-5762.0,1604.0,-3655.0,0.054,0.878,-0.073,-0.469
1320776,-5342.0,1742.0,-4115.0,0.055,0.887,-0.075,-0.453
1320793,-4810.0,1350.0,-4593.0,0.057,0.895,-0.078,-0.435
1320820,-4736.0,1660.0,-4651.0,0.059,0.904,-0.08,-0.415
1320836,-4628.0,2158.0,-4731.0,0.062,0.912,-0.084,-0.396
1320852,-3246.0,2240.0,-6053.0,0.066,0.92,-0.088,-0.376
1320869,-3116.0,1294.0,-6869.0,0.07,0.928,-0.092,-0.355
1320885,-3864.0,1594.0,-6337.0,0.074,0.936,-0.095,-0.332
1320902,-3466.0,1860.0,-7079.0,0.078,0.942,-0.097,-0.311
1320918,-3888.0,2136.0,-7359.0,0.082,0.948,-0.099,-0.292
1320945,-3976.0,1806.0,-7015.0,0.087,0.953,-0.102,-0.272
1320962,-2918.0,1316.0,-7717.0,0.092,0.958,-0.105,-0.253
1320978,-4332.0,2092.0,-6701.0,0.096,0.962,-0.107,-0.234
1320994,-3538.0,2214.0,-6949.0,0.101,0.965,-0.109,-0.216
1321010,-2852.0,1746.0,-7813.0,0.107,0.968,-0.111,-0.197
1321026,-3214.0,2092.0,-7253.0,0.111,0.972,-0.113,-0.177
1321043,-2846.0,2454.0,-6955.0,0.115,0.974,-0.115,-0.156
1321060,-2436.0,2138.0,-7127.0,0.12,0.977,-0.117,-0.135
1321087,-1746.0,1972.0,-7871.0,0.124,0.979,-0.119,-0.114
1321103,-1144.0,1786.0,-7637.0,0.126,0.98,-0.12,-0.091
1321119,-964.0,2346.0,-7811.0,0.129,0.982,-0.121,-0.069
1321135,-108.0,1804.0,-8221.0,0.134,0.983,-0.121,-0.046
1321152,486.0,1990.0,-8433.0,0.137,0.983,-0.121,-0.025
1321168,324.0,2446.0,-8127.0,0.139,0.983,-0.122,-0.005
1321184,1256.0,2254.0,-8625.0,0.141,0.982,-0.123,0.014
1321200,384.0,2034.0,-8277.0,0.143,0.981,-0.125,0.034
1321226,1332.0,2146.0,-8263.0,0.146,0.98,-0.126,0.053
1321243,1744.0,2408.0,-8203.0,0.147,0.978,-0.127,0.073
1321259,2400.0,2264.0,-8341.0,0.148,0.976,-0.127,0.093
1321276,2758.0,2420.0,-9077.0,0.15,0.974,-0.128,0.114
1321293,1860.0,2812.0,-8451.0,0.152,0.971,-0.13,0.134
1321309,1910.0,2176.0,-7723.0,0.153,0.967,-0.131,0.153
1321326,3316.0,2200.0,-7717.0,0.154,0.964,-0.132,0.172
1321343,3944.0,1786.0,-9313.0,0.158,0.96,-0.132,0.19
1321360,2974.0,2654.0,-7355.0,0.159,0.956,-0.132,0.207
1321386,4240.0,2796.0,-7427.0,0.162,0.952,-0.133,0.223
1321402,5452.0,2020.0,-7999.0,0.165,0.948,-0.134,0.238
1321418,5060.0,2220.0,-7817.0,0.171,0.943,-0.137,0.252
1321435,5452.0,2520.0,-7541.0,0.176,0.937,-0.14,0.266
1321451,5006.0,2512.0,-6755.0,0.181,0.932,-0.144,0.28
1321467,5494.0,2158.0,-7091.0,0.186,0.926,-0.148,0.293
1321483,5374.0,2214.0,-7373.0,0.192,0.92,-0.153,0.304
1321510,5406.0,2420.0,-6815.0,0.198,0.914,-0.156,0.317
1321526,5038.0,2734.0,-5909.0,0.203,0.909,-0.16,0.328
1321543,6126.0,2496.0,-6553.0,0.209,0.902,-0.164,0.339
1321559,6230.0,1938.0,-6291.0,0.215,0.896,-0.169,0.351
1321576,6420.0,2662.0,-6259.0,0.22,0.889,-0.173,0.363
1321593,6576.0,2788.0,-5803.0,0.224,0.883,-0.176,0.373
1321609,7728.0,2220.0,-6663.0,0.228,0.877,-0.18,0.382
1321626,7190.0,2378.0,-6295.0,0.232,0.872,-0.183,0.39
1321643,7104.0,2570.0,-6015.0,0.234,0.868,-0.186,0.396
1321669,6510.0,3792.0,-5893.0,0.236,0.866,-0.189,0.399
1321686,6438.0,3346.0,-6337.0,0.238,0.864,-0.194,0.399
1321703,6294.0,2454.0,-6473.0,0.24,0.863,-0.198,0.399
1321720,6308.0,2618.0,-6665.0,0.24,0.863,-0.2,0.398
1321736,5836.0,3566.0,-6449.0,0.239,0.863,-0.202,0.396
1321752,5746.0,3298.0,-6457.0,0.238,0.864,-0.204,0.394
1321768,5582.0,3114.0,-6607.0,0.236,0.866,-0.206,0.391
1321784,5700.0,2580.0,-6591.0,0.233,0.868,-0.207,0.387
1321810,5868.0,2748.0,-6717.0,0.229,0.871,-0.206,0.383
1321826,5758.0,3066.0,-6409.0,0.225,0.875,-0.205,0.377
1321842,6286.0,2886.0,-6847.0,0.221,0.879,-0.204,0.37
1321858,6600.0,2842.0,-7387.0,0.217,0.884,-0.203,0.362
1321874,6358.0,2650.0,-7299.0,0.212,0.889,-0.201,0.352
1321900,6386.0,2616.0,-7677.0,0.207,0.895,-0.199,0.341
1321916,5792.0,2826.0,-7369.0,0.202,0.901,-0.196,0.329
1321932,5726.0,2722.0,-7667.0,0.197,0.908,-0.194,0.314
1321949,5488.0,2646.0,-7885.0,0.192,0.915,-0.193,0.298
1321966,5288.0,2570.0,-8205.0,0.186,0.922,-0.191,0.281
1321983,4886.0,2764.0,-8371.0,0.18,0.929,-0.189,0.263
1321999,4514.0,2516.0,-8407.0,0.174,0.935,-0.188,0.244
1322025,4168.0,2362.0,-8395.0,0.167,0.942,-0.186,0.225
1322042,4060.0,2408.0,-8555.0,0.161,0.948,-0.184,0.204
1322059,3576.0,2060.0,-8595.0,0.154,0.954,-0.183,0.183
1322076,3232.0,2072.0,-8423.0,0.148,0.959,-0.18,0.162
1322092,3410.0,2022.0,-8929.0,0.141,0.964,-0.178,0.139
1322109,2756.0,2064.0,-8697.0,0.134,0.968,-0.176,0.116
1322126,2374.0,1962.0,-8629.0,0.128,0.972,-0.174,0.092
1322143,2218.0,1946.0,-8427.0,0.122,0.975,-0.172,0.069
1322160,1876.0,1742.0,-8503.0,0.116,0.977,-0.17,0.045
1322177,1326.0,2094.0,-8275.0,0.11,0.979,-0.169,0.02
1322193,612.0,1562.0,-8023.0,0.104,0.98,-0.168,-0.005
1322219,108.0,2088.0,-7839.0,0.099,0.981,-0.167,-0.03
1322235,1112.0,950.0,-8723.0,0.093,0.98,-0.166,-0.054
1322252,-330.0,1826.0,-7933.0,0.087,0.979,-0.165,-0.078
1322269,-550.0,1778.0,-8067.0,0.081,0.978,-0.165,-0.103
1322286,-1140.0,1276.0,-8229.0,0.076,0.975,-0.165,-0.128
1322303,-1304.0,1088.0,-8141.0,0.07,0.972,-0.164,-0.153
1322320,-1624.0,1148.0,-8333.0,0.064,0.969,-0.163,-0.177
1322337,-2366.0,1336.0,-7633.0,0.057,0.965,-0.161,-0.201
1322354,-2422.0,1354.0,-7469.0,0.051,0.96,-0.16,-0.225
1322372,-2412.0,1562.0,-7847.0,0.045,0.954,-0.16,-0.249
1322389,-2854.0,1012.0,-7471.0,0.04,0.948,-0.16,-0.273
1322405,-3462.0,1864.0,-7035.0,0.035,0.941,-0.159,-0.296
1322431,-3606.0,1288.0,-6273.0,0.03,0.934,-0.158,-0.32
1322448,-3508.0,1256.0,-6401.0,0.027,0.926,-0.156,-0.343
1322464,-3626.0,1466.0,-6191.0,0.023,0.918,-0.155,-0.365
1322480,-4094.0,1522.0,-5723.0,0.02,0.909,-0.153,-0.387
1322496,-4198.0,1294.0,-5255.0,0.017,0.9,-0.151,-0.409
1322513,-4438.0,1324.0,-5073.0,0.014,0.891,-0.149,-0.429
1322530,-4716.0,1484.0,-4477.0,0.012,0.882,-0.147,-0.448
1322546,-5104.0,1266.0,-4181.0,0.01,0.872,-0.144,-0.467
1322572,-5120.0,956.0,-3835.0,0.008,0.863,-0.141,-0.484
1322589,-5110.0,1056.0,-3569.0,0.005,0.855,-0.138,-0.5
1322606,-4822.0,1336.0,-3529.0,0.002,0.847,-0.136,-0.514
1322623,-5390.0,1510.0,-3289.0,0.001,-0.839,0.134,0.528
1322640,-5990.0,1418.0,-2745.0,0.003,-0.832,0.131,0.54
1322657,-5678.0,1230.0,-3023.0,0.006,-0.824,0.128,0.552
1322674,-6746.0,1330.0,-2561.0,0.01,-0.817,0.124,0.563
1322691,-6842.0,1262.0,-2289.0,0.015,-0.809,0.12,0.575
1322708,-7170.0,1168.0,-2093.0,0.02,-0.801,0.115,0.587
1322724,-7050.0,1398.0,-2473.0,0.027,-0.792,0.111,0.599
1322741,-7432.0,952.0,-1971.0,0.033,-0.784,0.106,0.611
1322758,-7428.0,1392.0,-1557.0,0.041,-0.776,0.102,0.622
1322785,-7532.0,1218.0,-1151.0,0.047,-0.767,0.098,0.632
1322801,-7476.0,950.0,-941.0,0.053,-0.759,0.094,0.642
1322817,-7176.0,626.0,-527.0,0.058,-0.753,0.09,0.65
1322833,-7552.0,-124.0,495.0,0.063,-0.747,0.086,0.657
1322849,-7290.0,232.0,283.0,0.067,-0.742,0.083,0.662
1322865,-7044.0,182.0,195.0,0.07,-0.738,0.081,0.667
1322891,-7352.0,-364.0,535.0,0.073,-0.735,0.079,0.67
1322907,-7078.0,-264.0,533.0,0.076,-0.733,0.078,0.671
1322923,-6998.0,-146.0,611.0,0.077,-0.733,0.076,0.672
1322939,-6920.0,-230.0,431.0,0.078,-0.733,0.075,0.671
1322955,-6902.0,-546.0,541.0,0.079,-0.735,0.075,0.669
1322971,-7040.0,-360.0,209.0,0.079,-0.738,0.075,0.666
1322997,-7502.0,-390.0,353.0,0.078,-0.741,0.075,0.662
1323013,-7116.0,-464.0,91.0,0.077,-0.746,0.074,0.657
1323029,-7470.0,-166.0,-67.0,0.076,-0.751,0.075,0.651
1323045,-7800.0,-386.0,-81.0,0.074,-0.757,0.075,0.645
1323061,-8322.0,-242.0,-365.0,0.072,-0.763,0.075,0.638
1323077,-8886.0,258.0,-285.0,0.069,-0.769,0.075,0.632
1323103,-8242.0,-90.0,-707.0,0.066,-0.774,0.076,0.625
1323120,-8422.0,124.0,-737.0,0.062,-0.78,0.077,0.618
1323137,-7678.0,106.0,-1167.0,0.058,-0.786,0.077,0.61
1323153,-8046.0,388.0,-925.0,0.054,-0.793,0.079,0.602
1323169,-6936.0,248.0,-1199.0,0.05,-0.8,0.08,0.592
1323186,-7052.0,522.0,-1405.0,0.045,-0.808,0.081,0.582
1323202,-6830.0,634.0,-1371.0,0.04,-0.816,0.082,0.571
1323218,-6066.0,218.0,-1797.0,0.034,-0.825,0.083,0.559
1323244,-5864.0,238.0,-2403.0,0.028,-0.834,0.084,0.545
1323261,-6190.0,696.0,-1977.0,0.022,-0.843,0.085,0.53
1323278,-4936.0,442.0,-2781.0,0.015,-0.854,0.086,0.514
1323294,-5674.0,750.0,-2595.0,0.008,-0.864,0.087,0.496
1323310,-4266.0,544.0,-3609.0,0.001,0.874,-0.087,-0.477
1323326,-4656.0,436.0,-3881.0,0.009,0.885,-0.088,-0.457
1323342,-3684.0,894.0,-5165.0,0.019,0.895,-0.09,-0.437
1323368,-3860.0,126.0,-5903.0,0.028,0.905,-0.092,-0.415
1323385,-3834.0,672.0,-5807.0,0.036,0.914,-0.094,-0.393
1323402,-4552.0,734.0,-6269.0,0.044,0.922,-0.096,-0.372
1323419,-3748.0,1158.0,-6971.0,0.052,0.93,-0.098,-0.35
1323436,-4426.0,1434.0,-6731.0,0.059,0.937,-0.099,-0.331
1323452,-4298.0,1760.0,-6655.0,0.067,0.943,-0.1,-0.312
1323468,-3898.0,894.0,-6779.0,0.074,0.948,-0.101,-0.292
1323485,-3178.0,2016.0,-7631.0,0.08,0.953,-0.102,-0.272
1323502,-4324.0,2534.0,-6911.0,0.087,0.958,-0.104,-0.253
1323528,-2970.0,2378.0,-7393.0,0.094,0.962,-0.107,-0.233
1323544,-2304.0,1926.0,-8003.0,0.1,0.966,-0.111,-0.211
1323560,-2180.0,2592.0,-8323.0,0.105,0.97,-0.115,-0.187
1323576,-3156.0,1994.0,-7529.0,0.108,0.973,-0.118,-0.165
1323592,-2668.0,2384.0,-7835.0,0.112,0.975,-0.121,-0.146
1323608,-1852.0,3136.0,-8473.0,0.116,0.977,-0.126,-0.125
1323634,-1628.0,1434.0,-8571.0,0.119,0.979,-0.131,-0.105
1323651,-2682.0,1872.0,-7409.0,0.121,0.98,-0.136,-0.085
1323667,-462.0,1804.0,-8027.0,0.123,0.98,-0.139,-0.067
1323684,-432.0,1468.0,-8037.0,0.123,0.981,-0.143,-0.048
1323701,600.0,1890.0,-8987.0,0.122,0.981,-0.146,-0.029
1323717,-1152.0,2554.0,-8069.0,0.121,0.981,-0.149,-0.009
1323734,1064.0,1276.0,-7967.0,0.121,0.981,-0.151,0.013
1323751,1520.0,1732.0,-8347.0,0.119,0.98,-0.153,0.033
1323768,1082.0,1788.0,-8167.0,0.118,0.98,-0.154,0.053
1323795,1716.0,1502.0,-8301.0,0.117,0.978,-0.155,0.073
1323811,2068.0,2320.0,-8235.0,0.118,0.976,-0.155,0.094
1323827,2026.0,1858.0,-8223.0,0.119,0.974,-0.157,0.112
1323843,2280.0,1050.0,-7769.0,0.12,0.971,-0.158,0.13
1323859,4570.0,378.0,-9021.0,0.119,0.968,-0.159,0.151
1323875,3136.0,2708.0,-7797.0,0.118,0.965,-0.159,0.171
1323891,3750.0,1648.0,-8233.0,0.119,0.961,-0.161,0.189
1323917,4088.0,1656.0,-8343.0,0.12,0.958,-0.162,0.205
1323933,4212.0,1194.0,-7955.0,0.121,0.954,-0.162,0.222
1323949,4342.0,1570.0,-8281.0,0.122,0.95,-0.162,0.239
1323965,3368.0,2576.0,-6745.0,0.124,0.945,-0.161,0.255
1323981,5368.0,2290.0,-7473.0,0.127,0.94,-0.162,0.272
1323997,5276.0,1874.0,-7155.0,0.131,0.934,-0.163,0.288
1324023,6164.0,1068.0,-7433.0,0.135,0.928,-0.163,0.306
1324040,5332.0,2574.0,-6701.0,0.139,0.922,-0.163,0.321
1324057,6946.0,1720.0,-7517.0,0.145,0.916,-0.164,0.335
1324074,6596.0,1012.0,-7175.0,0.149,0.911,-0.164,0.348
1324091,6948.0,1358.0,-7369.0,0.152,0.906,-0.164,0.358
1324108,6186.0,2016.0,-6565.0,0.155,0.903,-0.166,0.364
1324125,6538.0,2172.0,-7353.0,0.16,0.901,-0.169,0.366
1324142,6398.0,1150.0,-7555.0,0.164,0.899,-0.174,0.368
1324159,5840.0,1642.0,-7579.0,0.167,0.897,-0.177,0.368
1324175,5518.0,1356.0,-7563.0,0.17,0.896,-0.181,0.367
1324192,5552.0,1770.0,-7613.0,0.171,0.896,-0.185,0.366
1324218,5840.0,1664.0,-7741.0,0.172,0.896,-0.188,0.364
1324235,5254.0,1806.0,-7519.0,0.172,0.896,-0.191,0.362
1324252,4812.0,1930.0,-7147.0,0.173,0.897,-0.193,0.359
1324268,4992.0,2194.0,-7087.0,0.173,0.898,-0.195,0.355
1324285,5200.0,2172.0,-7189.0,0.173,0.899,-0.196,0.351
1324301,5422.0,1552.0,-7093.0,0.172,0.901,-0.198,0.346
1324317,5818.0,2004.0,-7469.0,0.172,0.903,-0.198,0.34
1324333,5806.0,2104.0,-7531.0,0.171,0.906,-0.198,0.334
1324360,5762.0,2016.0,-7449.0,0.169,0.909,-0.197,0.326
1324376,5898.0,2030.0,-7769.0,0.167,0.912,-0.196,0.318
1324392,5356.0,2110.0,-7771.0,0.165,0.916,-0.195,0.309
1324408,5400.0,2370.0,-7767.0,0.163,0.92,-0.193,0.299
1324424,5108.0,2350.0,-7977.0,0.161,0.924,-0.192,0.288
1324440,4720.0,2176.0,-7595.0,0.158,0.928,-0.191,0.277
1324466,4792.0,2362.0,-8093.0,0.153,0.933,-0.19,0.265
1324482,4082.0,2208.0,-7927.0,0.147,0.937,-0.19,0.252
1324498,4348.0,1998.0,-8413.0,0.141,0.942,-0.189,0.239
1324514,3908.0,1806.0,-8451.0,0.134,0.947,-0.189,0.224
1324531,3504.0,1454.0,-8305.0,0.127,0.951,-0.188,0.21
1324547,3480.0,1548.0,-8471.0,0.12,0.956,-0.186,0.194
1324573,3518.0,1580.0,-8655.0,0.112,0.96,-0.185,0.177
1324590,3204.0,1424.0,-8747.0,0.105,0.964,-0.184,0.16
1324607,2718.0,1118.0,-8619.0,0.099,0.968,-0.182,0.142
1324624,2548.0,960.0,-8695.0,0.091,0.972,-0.18,0.124
1324641,2252.0,1498.0,-8927.0,0.084,0.975,-0.178,0.105
1324658,1490.0,1236.0,-8291.0,0.078,0.978,-0.175,0.086
1324674,1436.0,1128.0,-8365.0,0.072,0.98,-0.172,0.067
1324691,1452.0,1166.0,-8633.0,0.067,0.982,-0.169,0.047
1324708,742.0,1386.0,-8329.0,0.062,0.984,-0.166,0.027
1324725,368.0,1356.0,-8001.0,0.058,0.985,-0.163,0.006
1324742,84.0,714.0,-8145.0,0.054,0.985,-0.16,-0.013
1324759,-324.0,892.0,-8281.0,0.049,0.986,-0.157,-0.033
1324785,-1004.0,192.0,-8219.0,0.044,0.986,-0.152,-0.053
1324802,-1440.0,730.0,-8281.0,0.038,0.986,-0.147,-0.072
1324819,-1640.0,1306.0,-8515.0,0.033,0.985,-0.142,-0.091
1324836,-1762.0,818.0,-8639.0,0.028,0.984,-0.138,-0.111
1324853,-1976.0,640.0,-8631.0,0.022,0.982,-0.135,-0.132
1324870,-1826.0,444.0,-9075.0,0.017,0.979,-0.132,-0.154
1324887,-1986.0,710.0,-9003.0,0.012,0.976,-0.129,-0.176
1324904,-2270.0,220.0,-8753.0,0.008,0.972,-0.125,-0.199
1324921,-2518.0,478.0,-8715.0,0.003,0.967,-0.123,-0.222
1324938,-2872.0,558.0,-8347.0,0.002,-0.962,0.12,0.246
1324955,-3160.0,622.0,-8077.0,0.006,-0.955,0.118,0.271
1324972,-3378.0,526.0,-7821.0,0.01,-0.948,0.116,0.295
1324989,-3526.0,754.0,-7575.0,0.013,-0.94,0.114,0.32
1325006,-3588.0,212.0,-6965.0,0.016,-0.931,0.113,0.345
1325033,-3692.0,370.0,-6677.0,0.019,-0.922,0.112,0.37
1325050,-4330.0,574.0,-6133.0,0.021,-0.912,0.112,0.395
1325067,-4146.0,280.0,-5803.0,0.023,-0.901,0.111,0.419
1325084,-4622.0,394.0,-5219.0,0.025,-0.889,0.109,0.443
1325101,-4470.0,-290.0,-4741.0,0.026,-0.878,0.108,0.465
1325118,-4456.0,310.0,-4837.0,0.028,-0.867,0.105,0.486
1325135,-5148.0,614.0,-3601.0,0.029,-0.856,0.103,0.506
1325151,-4920.0,256.0,-3337.0,0.03,-0.845,0.1,0.524
1325168,-5444.0,440.0,-3111.0,0.03,-0.834,0.097,0.542
1325184,-5756.0,536.0,-2807.0,0.03,-0.823,0.094,0.56
1325210,-6038.0,750.0,-2215.0,0.03,-0.812,0.089,0.576
1325227,-5988.0,568.0,-2183.0,0.03,-0.801,0.085,0.591
1325243,-6542.0,710.0,-1855.0,0.031,-0.79,0.08,0.607
1325259,-6650.0,898.0,-1595.0,0.032,-0.779,0.075,0.621
1325275,-6528.0,804.0,-1261.0,0.034,-0.769,0.069,0.635
1325291,-6908.0,732.0,-513.0,0.035,-0.759,0.064,0.647
1325307,-6678.0,654.0,-117.0,0.037,-0.75,0.059,0.658
1325333,-7070.0,950.0,-185.0,0.039,-0.741,0.054,0.669
1325350,-6948.0,576.0,373.0,0.041,-0.733,0.049,0.678
1325366,-7206.0,380.0,871.0,0.043,-0.726,0.045,0.685
1325383,-7290.0,260.0,1177.0,0.044,-0.719,0.042,0.692
1325399,-7336.0,262.0,1449.0,0.046,-0.714,0.04,0.698
1325415,-7146.0,-140.0,1119.0,0.047,-0.71,0.039,0.702
1325431,-7268.0,-724.0,1601.0,0.05,-0.708,0.038,0.704
1325458,-7248.0,144.0,1437.0,0.053,-0.707,0.037,0.705
1325474,-7464.0,-382.0,1301.0,0.055,-0.707,0.038,0.704
1325490,-7860.0,-732.0,1207.0,0.057,-0.708,0.039,0.703
1325506,-7540.0,-698.0,773.0,0.06,-0.711,0.04,0.7
1325522,-7872.0,-426.0,817.0,0.064,-0.714,0.042,0.696
1325539,-7784.0,-678.0,599.0,0.067,-0.717,0.044,0.692
1325555,-7400.0,-518.0,387.0,0.07,-0.721,0.048,0.688
1325581,-7594.0,-162.0,323.0,0.072,-0.725,0.051,0.683
1325598,-7334.0,-388.0,153.0,0.075,-0.73,0.055,0.677
1325615,-7204.0,-260.0,165.0,0.077,-0.736,0.059,0.67
1325632,-7218.0,-86.0,219.0,0.079,-0.741,0.063,0.663
1325649,-7138.0,-4.0,-27.0,0.08,-0.748,0.067,0.656
1325665,-6990.0,-114.0,-287.0,0.081,-0.754,0.071,0.647
1325681,-7052.0,76.0,-335.0,0.082,-0.762,0.074,0.638
1325698,-6998.0,220.0,-449.0,0.081,-0.77,0.077,0.628
1325714,-6870.0,156.0,-1013.0,0.08,-0.779,0.079,0.617
1325740,-7278.0,168.0,-1359.0,0.077,-0.789,0.081,0.604
1325757,-7650.0,-324.0,-1673.0,0.074,-0.8,0.082,0.59
1325774,-7788.0,-342.0,-2311.0,0.071,-0.81,0.082,0.576
1325791,-8598.0,222.0,-2295.0,0.069,-0.82,0.082,0.562
1325807,-8474.0,6.0,-2781.0,0.066,-0.829,0.08,0.55
1325823,-8088.0,-242.0,-2885.0,0.063,-0.837,0.076,0.538
1325840,-7514.0,330.0,-2771.0,0.059,-0.845,0.073,0.527
1325856,-6312.0,-26.0,-3395.0,0.055,-0.852,0.069,0.515
1325882,-6354.0,130.0,-3575.0,0.05,-0.86,0.066,0.504
1325898,-5992.0,282.0,-3383.0,0.045,-0.868,0.063,0.491
1325915,-5708.0,540.0,-3643.0,0.039,-0.876,0.06,0.478
1325931,-5360.0,514.0,-3551.0,0.032,-0.884,0.057,0.463
1325947,-4810.0,314.0,-3957.0,0.025,-0.892,0.057,0.447
1325963,-5346.0,578.0,-3991.0,0.017,-0.901,0.057,0.43
1325979,-4674.0,660.0,-4177.0,0.008,-0.909,0.057,0.413
1326005,-4318.0,862.0,-4879.0,0.002,0.917,-0.056,-0.395
1326022,-4222.0,1308.0,-5221.0,0.014,0.924,-0.058,-0.378
1326039,-2946.0,386.0,-7099.0,0.027,0.931,-0.06,-0.36
1326056,-3044.0,188.0,-7211.0,0.039,0.938,-0.062,-0.34
1326073,-3968.0,1726.0,-6229.0,0.051,0.944,-0.064,-0.32
1326090,-3522.0,1422.0,-7119.0,0.065,0.949,-0.066,-0.302
1326107,-2956.0,586.0,-7471.0,0.078,0.953,-0.068,-0.283
1326124,-2808.0,932.0,-7507.0,0.089,0.958,-0.071,-0.264
1326141,-3328.0,2282.0,-7219.0,0.101,0.962,-0.074,-0.244
1326158,-2960.0,1984.0,-7307.0,0.113,0.965,-0.077,-0.225
1326175,-2118.0,1134.0,-8459.0,0.124,0.967,-0.082,-0.206
1326201,-2782.0,1928.0,-7969.0,0.132,0.97,-0.085,-0.186
1326218,-2974.0,2882.0,-7167.0,0.14,0.972,-0.089,-0.167
1326235,-1462.0,2468.0,-8363.0,0.148,0.973,-0.093,-0.149
1326251,-2636.0,2094.0,-7841.0,0.156,0.974,-0.098,-0.131
1326268,-1362.0,1876.0,-7995.0,0.16,0.976,-0.101,-0.111
1326285,-1210.0,3028.0,-8041.0,0.164,0.977,-0.104,-0.091
1326302,-2000.0,3364.0,-7555.0,0.168,0.977,-0.107,-0.073
1326319,-522.0,2956.0,-7709.0,0.172,0.977,-0.111,-0.053
1326336,580.0,2268.0,-8049.0,0.173,0.978,-0.114,-0.031
1326352,458.0,3288.0,-8619.0,0.173,0.978,-0.117,-0.009
1326369,-122.0,3262.0,-7803.0,0.172,0.978,-0.12,0.012
1326395,628.0,2686.0,-8101.0,0.17,0.977,-0.124,0.033
1326411,1514.0,2742.0,-8431.0,0.167,0.976,-0.127,0.054
1326427,788.0,3154.0,-7839.0,0.164,0.975,-0.13,0.073
1326443,1782.0,2522.0,-7919.0,0.16,0.974,-0.133,0.093
1326459,2404.0,2172.0,-7913.0,0.156,0.972,-0.134,0.113
1326475,2736.0,3264.0,-7833.0,0.153,0.97,-0.135,0.132
1326502,2554.0,2520.0,-7893.0,0.151,0.967,-0.137,0.15
1326518,2824.0,2640.0,-7091.0,0.147,0.964,-0.139,0.17
1326535,4458.0,2270.0,-7717.0,0.146,0.961,-0.14,0.189
1326552,4828.0,2034.0,-8221.0,0.146,0.957,-0.141,0.209
1326568,4948.0,860.0,-8207.0,0.144,0.952,-0.141,0.23
1326584,4730.0,2260.0,-8091.0,0.142,0.948,-0.139,0.249
1326600,5248.0,2084.0,-7917.0,0.14,0.944,-0.139,0.266
1326616,6142.0,1130.0,-8613.0,0.139,0.939,-0.14,0.281
1326643,5622.0,1076.0,-8257.0,0.138,0.935,-0.14,0.294
1326659,4936.0,1570.0,-7983.0,0.136,0.932,-0.14,0.305
1326675,5222.0,1532.0,-7789.0,0.135,0.929,-0.141,0.313
1326691,4978.0,1730.0,-7541.0,0.134,0.927,-0.141,0.32
1326707,4544.0,2326.0,-7145.0,0.134,0.925,-0.143,0.326
1326723,4300.0,1796.0,-6891.0,0.135,0.923,-0.144,0.332
1326750,4554.0,1228.0,-6777.0,0.134,0.92,-0.145,0.339
1326766,4802.0,2262.0,-6643.0,0.135,0.917,-0.144,0.348
1326782,5086.0,2290.0,-6559.0,0.136,0.913,-0.144,0.356
1326798,5402.0,2014.0,-6299.0,0.138,0.909,-0.144,0.365
1326814,5986.0,1688.0,-6381.0,0.139,0.906,-0.144,0.374
1326830,6290.0,2320.0,-6609.0,0.141,0.902,-0.144,0.381
1326856,6634.0,1524.0,-6407.0,0.143,0.9,-0.145,0.386
1326873,6982.0,1506.0,-6757.0,0.145,0.897,-0.146,0.39
1326890,6278.0,1802.0,-6415.0,0.147,0.897,-0.147,0.391
1326907,6670.0,1942.0,-6947.0,0.149,0.896,-0.15,0.39
1326923,6318.0,1202.0,-7289.0,0.15,0.897,-0.153,0.387
1326940,5676.0,1138.0,-7007.0,0.151,0.897,-0.157,0.384
1326957,5474.0,1220.0,-7207.0,0.152,0.898,-0.159,0.38
1326974,5316.0,1448.0,-7453.0,0.151,0.9,-0.162,0.376
1326990,5306.0,1626.0,-7379.0,0.15,0.901,-0.165,0.372
1327007,5338.0,1146.0,-7459.0,0.149,0.903,-0.168,0.368
1327033,5286.0,1040.0,-7403.0,0.147,0.905,-0.17,0.362
1327050,5828.0,1130.0,-7731.0,0.146,0.907,-0.172,0.356
1327067,5736.0,1114.0,-7723.0,0.144,0.91,-0.174,0.349
1327083,5966.0,1422.0,-8019.0,0.142,0.913,-0.176,0.34
1327100,5872.0,1268.0,-8193.0,0.14,0.917,-0.178,0.329
1327117,5786.0,1304.0,-8297.0,0.138,0.921,-0.179,0.317
1327134,5078.0,1636.0,-8273.0,0.136,0.926,-0.179,0.304
1327150,4990.0,1372.0,-8479.0,0.134,0.931,-0.18,0.289
1327167,4590.0,2102.0,-8605.0,0.131,0.936,-0.181,0.273
1327183,4316.0,1826.0,-8825.0,0.128,0.941,-0.181,0.256
1327209,3886.0,2156.0,-8827.0,0.125,0.946,-0.182,0.238
1327225,3436.0,2048.0,-9057.0,0.122,0.951,-0.182,0.219
1327241,3132.0,1900.0,-9097.0,0.117,0.956,-0.183,0.199
1327257,3022.0,2176.0,-9201.0,0.112,0.96,-0.183,0.178
1327273,2516.0,1872.0,-8979.0,0.105,0.965,-0.183,0.157
1327290,2604.0,1880.0,-9191.0,0.099,0.969,-0.184,0.136
1327307,2512.0,1044.0,-9073.0,0.093,0.972,-0.183,0.113
1327333,2376.0,1356.0,-9441.0,0.086,0.975,-0.183,0.091
1327350,1728.0,1340.0,-9279.0,0.078,0.978,-0.181,0.067
1327366,1536.0,1238.0,-9151.0,0.071,0.98,-0.18,0.043
1327382,1382.0,1104.0,-9245.0,0.064,0.982,-0.178,0.018
1327398,1046.0,892.0,-9069.0,0.058,0.983,-0.176,-0.007
1327414,494.0,974.0,-8651.0,0.051,0.983,-0.174,-0.032
1327440,450.0,1188.0,-8953.0,0.045,0.983,-0.171,-0.058
1327457,48.0,642.0,-8837.0,0.04,0.981,-0.169,-0.084
1327474,-472.0,1176.0,-8551.0,0.034,0.979,-0.166,-0.11
1327490,-952.0,870.0,-8125.0,0.028,0.977,-0.164,-0.137
1327506,-962.0,954.0,-8121.0,0.023,0.973,-0.162,-0.163
1327523,-1082.0,908.0,-8183.0,0.018,0.969,-0.161,-0.189
1327540,-1682.0,738.0,-7911.0,0.013,0.963,-0.16,-0.215
1327557,-2114.0,586.0,-7589.0,0.009,0.958,-0.159,-0.24
1327573,-2492.0,522.0,-7197.0,0.004,0.951,-0.157,-0.265
1327590,-2906.0,546.0,-6999.0,0.001,-0.944,0.156,0.289
1327617,-3336.0,472.0,-6969.0,0.006,-0.936,0.155,0.315
1327634,-3516.0,408.0,-6705.0,0.011,-0.928,0.154,0.339
1327650,-3940.0,672.0,-6285.0,0.016,-0.919,0.153,0.363
1327667,-4046.0,502.0,-5899.0,0.02,-0.909,0.152,0.387
1327684,-4418.0,746.0,-5407.0,0.026,-0.899,0.15,0.41
1327701,-4734.0,878.0,-5121.0,0.03,-0.889,0.149,0.433
1327718,-4524.0,884.0,-5205.0,0.035,-0.877,0.147,0.455
1327735,-4850.0,274.0,-4801.0,0.039,-0.866,0.145,0.477
1327751,-5396.0,738.0,-4333.0,0.044,-0.855,0.143,0.496
1327767,-5738.0,938.0,-3925.0,0.048,-0.844,0.14,0.516
1327793,-6254.0,990.0,-3307.0,0.052,-0.832,0.138,0.534
1327809,-5852.0,834.0,-3205.0,0.056,-0.821,0.135,0.552
1327825,-5884.0,304.0,-3039.0,0.06,-0.809,0.133,0.569
1327841,-6618.0,1160.0,-2343.0,0.064,-0.798,0.13,0.585
1327857,-6288.0,828.0,-2047.0,0.068,-0.787,0.126,0.601
1327883,-6824.0,742.0,-1607.0,0.072,-0.775,0.121,0.616
1327900,-6754.0,716.0,-1213.0,0.076,-0.764,0.116,0.63
1327916,-6510.0,590.0,-827.0,0.08,-0.753,0.111,0.644
1327932,-6796.0,782.0,-399.0,0.083,-0.742,0.107,0.657
1327948,-6406.0,324.0,-161.0,0.086,-0.731,0.102,0.669
1327964,-6192.0,652.0,197.0,0.089,-0.722,0.098,0.679
1327980,-6228.0,600.0,349.0,0.091,-0.714,0.093,0.687
1328006,-6538.0,342.0,847.0,0.093,-0.708,0.089,0.694
1328022,-6726.0,398.0,1183.0,0.095,-0.703,0.086,0.7
1328038,-6774.0,318.0,1249.0,0.096,-0.699,0.082,0.704
1328054,-7130.0,212.0,1491.0,0.096,-0.696,0.079,0.707
1328071,-7188.0,-88.0,1479.0,0.096,-0.695,0.076,0.709
1328087,-7210.0,-18.0,1435.0,0.096,-0.694,0.074,0.709
1328104,-7352.0,-8.0,1469.0,0.095,-0.695,0.073,0.709
1328121,-7282.0,-194.0,1301.0,0.094,-0.697,0.072,0.707
1328148,-7556.0,-318.0,1369.0,0.093,-0.7,0.071,0.705
1328165,-7726.0,-154.0,1229.0,0.092,-0.704,0.071,0.701
1328182,-7518.0,-456.0,1069.0,0.091,-0.708,0.071,0.696
1328199,-7402.0,-304.0,813.0,0.089,-0.714,0.072,0.691
1328215,-7534.0,-242.0,797.0,0.088,-0.72,0.073,0.685
1328231,-7420.0,-212.0,551.0,0.086,-0.727,0.075,0.678
1328247,-7624.0,-238.0,443.0,0.084,-0.734,0.076,0.67
1328273,-7372.0,-92.0,113.0,0.082,-0.741,0.078,0.661
1328290,-7540.0,-104.0,125.0,0.08,-0.75,0.081,0.652
1328307,-7328.0,-96.0,-259.0,0.077,-0.758,0.083,0.642
1328323,-7188.0,4.0,-459.0,0.074,-0.767,0.085,0.632
1328339,-7044.0,350.0,-595.0,0.071,-0.776,0.088,0.62
1328356,-6576.0,250.0,-929.0,0.066,-0.787,0.091,0.607
1328372,-6438.0,384.0,-1275.0,0.062,-0.797,0.094,0.593
1328389,-5860.0,834.0,-1841.0,0.056,-0.808,0.098,0.578
1328406,-5436.0,868.0,-1953.0,0.05,-0.82,0.101,0.561
1328422,-5034.0,1310.0,-2611.0,0.042,-0.833,0.105,0.542
1328449,-5014.0,696.0,-2885.0,0.034,-0.846,0.11,0.521
1328465,-5708.0,434.0,-3103.0,0.025,-0.858,0.114,0.5
1328482,-5300.0,0.0,-3707.0,0.017,-0.871,0.117,0.477
1328498,-5822.0,50.0,-3981.0,0.011,-0.883,0.12,0.453
1328514,-5620.0,134.0,-4629.0,0.006,-0.895,0.122,0.43
1328530,-6108.0,150.0,-4349.0,0.002,-0.906,0.125,0.405
1328546,-5166.0,-112.0,-5329.0,0.001,0.916,-0.126,-0.382
1328573,-4536.0,306.0,-6315.0,0.003,0.925,-0.128,-0.357
1328589,-4616.0,826.0,-6375.0,0.005,0.934,-0.13,-0.332
1328606,-4280.0,728.0,-6415.0,0.007,0.942,-0.133,-0.309
1328623,-2642.0,380.0,-7349.0,0.009,0.949,-0.136,-0.284
1328640,-1840.0,942.0,-8093.0,0.011,0.956,-0.139,-0.258
1328656,-3664.0,1086.0,-6605.0,0.013,0.962,-0.143,-0.234
1328673,-1758.0,34.0,-7925.0,0.015,0.967,-0.146,-0.21
1328689,-1792.0,1050.0,-8339.0,0.016,0.971,-0.15,-0.186
1328706,-2440.0,1652.0,-7455.0,0.018,0.974,-0.154,-0.162
1328733,-762.0,898.0,-8879.0,0.022,0.977,-0.158,-0.139
1328750,-1268.0,1812.0,-8349.0,0.026,0.98,-0.161,-0.117
1328767,-476.0,12.0,-8557.0,0.03,0.982,-0.164,-0.092
1328784,-384.0,2226.0,-8893.0,0.035,0.983,-0.166,-0.07
1328801,-616.0,1964.0,-8677.0,0.043,0.984,-0.169,-0.05
1328818,-132.0,1270.0,-8459.0,0.051,0.984,-0.171,-0.029
1328835,1068.0,1312.0,-9421.0,0.06,0.983,-0.173,-0.008
1328852,-132.0,1596.0,-8407.0,0.069,0.982,-0.175,0.013
1328870,1142.0,1522.0,-8699.0,0.079,0.98,-0.177,0.034
1328887,1898.0,1066.0,-9793.0,0.09,0.978,-0.179,0.053
1328904,434.0,2126.0,-8635.0,0.1,0.976,-0.18,0.072
1328921,2324.0,2232.0,-9505.0,0.111,0.973,-0.182,0.09
1328938,2622.0,1550.0,-9889.0,0.122,0.969,-0.184,0.107
1328955,1958.0,2054.0,-8845.0,0.132,0.966,-0.186,0.123
1328972,2760.0,1778.0,-8787.0,0.141,0.962,-0.189,0.138
1328989,2710.0,1902.0,-8435.0,0.149,0.958,-0.191,0.152
1329015,2270.0,2160.0,-7731.0,0.157,0.954,-0.193,0.167
1329032,3654.0,1736.0,-7631.0,0.164,0.949,-0.195,0.184
1329049,3496.0,2754.0,-7225.0,0.171,0.945,-0.197,0.199
1329066,3974.0,2238.0,-7309.0,0.178,0.939,-0.199,0.215
1329082,4452.0,2004.0,-6907.0,0.184,0.933,-0.201,0.233
1329098,5690.0,1900.0,-7469.0,0.189,0.927,-0.203,0.252
1329114,6208.0,1668.0,-7695.0,0.193,0.921,-0.204,0.27
1329130,5624.0,1734.0,-6949.0,0.195,0.915,-0.204,0.289
1329156,5098.0,3078.0,-6817.0,0.195,0.91,-0.206,0.303
1329173,6540.0,2308.0,-8187.0,0.195,0.905,-0.209,0.315
1329189,5686.0,1456.0,-7751.0,0.193,0.901,-0.212,0.326
1329206,6076.0,1342.0,-7785.0,0.191,0.898,-0.213,0.336
1329223,6060.0,1748.0,-7771.0,0.186,0.895,-0.214,0.344
1329241,6034.0,2490.0,-7799.0,0.182,0.893,-0.215,0.351
1329260,5904.0,2024.0,-7509.0,0.179,0.891,-0.216,0.358
1329276,5670.0,1614.0,-7253.0,0.176,0.889,-0.218,0.363
1329293,5244.0,1828.0,-7063.0,0.173,0.887,-0.218,0.368
1329309,5502.0,1754.0,-6813.0,0.171,0.886,-0.218,0.371
1329325,5384.0,2232.0,-6405.0,0.169,0.886,-0.217,0.374
1329351,6068.0,1706.0,-6783.0,0.169,0.885,-0.216,0.376
1329367,5834.0,2254.0,-6635.0,0.168,0.885,-0.215,0.376
1329383,6038.0,2182.0,-6533.0,0.169,0.886,-0.215,0.375
1329399,6528.0,1562.0,-6897.0,0.171,0.886,-0.215,0.373
1329416,6140.0,1982.0,-6603.0,0.172,0.887,-0.215,0.371
1329432,6108.0,2360.0,-6783.0,0.173,0.888,-0.215,0.367
1329449,6370.0,2006.0,-7157.0,0.175,0.89,-0.216,0.361
1329475,6338.0,1860.0,-7125.0,0.176,0.893,-0.216,0.354
1329491,5728.0,2394.0,-7111.0,0.177,0.896,-0.216,0.346
1329507,6070.0,2654.0,-7801.0,0.178,0.899,-0.217,0.336
1329524,5968.0,2074.0,-7809.0,0.178,0.903,-0.219,0.325
1329540,6058.0,1978.0,-7965.0,0.178,0.907,-0.22,0.312
1329556,5608.0,2462.0,-7991.0,0.177,0.911,-0.221,0.299
1329572,5410.0,2018.0,-8273.0,0.175,0.916,-0.222,0.285
1329598,4856.0,1944.0,-8177.0,0.174,0.92,-0.223,0.27
1329614,4374.0,1978.0,-8047.0,0.171,0.925,-0.223,0.254
1329630,4062.0,2142.0,-8273.0,0.168,0.93,-0.222,0.238
1329646,3806.0,2154.0,-8445.0,0.165,0.935,-0.221,0.221
1329663,3404.0,2476.0,-8405.0,0.161,0.94,-0.22,0.203
1329679,3362.0,1774.0,-8625.0,0.157,0.945,-0.219,0.184
1329696,2878.0,1856.0,-8491.0,0.152,0.95,-0.216,0.165
1329723,2644.0,2092.0,-8481.0,0.148,0.955,-0.214,0.145
1329739,2298.0,2048.0,-8503.0,0.143,0.959,-0.21,0.125
1329755,2154.0,2098.0,-8601.0,0.138,0.963,-0.207,0.105
1329771,2326.0,1814.0,-8871.0,0.132,0.966,-0.204,0.084
1329787,1458.0,2226.0,-8487.0,0.127,0.97,-0.2,0.062
1329813,1652.0,2024.0,-8671.0,0.122,0.972,-0.197,0.04
1329829,1032.0,1778.0,-8387.0,0.116,0.974,-0.195,0.018
1329845,722.0,1630.0,-8303.0,0.11,0.975,-0.192,-0.003
1329862,398.0,1876.0,-8245.0,0.103,0.976,-0.19,-0.025
1329878,110.0,2012.0,-8459.0,0.096,0.976,-0.188,-0.048
1329895,124.0,1226.0,-8359.0,0.09,0.976,-0.187,-0.07
1329912,-150.0,1790.0,-8651.0,0.084,0.975,-0.185,-0.092
1329929,-396.0,1786.0,-8733.0,0.077,0.973,-0.184,-0.115
1329946,-1244.0,1354.0,-8275.0,0.071,0.971,-0.182,-0.138
1329963,-1446.0,1202.0,-8353.0,0.065,0.968,-0.181,-0.161
1329980,-1960.0,1310.0,-8107.0,0.06,0.964,-0.18,-0.185
1330007,-2334.0,1288.0,-7959.0,0.054,0.96,-0.178,-0.21
1330023,-2638.0,1192.0,-7645.0,0.048,0.955,-0.177,-0.234
1330039,-2934.0,1038.0,-7289.0,0.043,0.95,-0.175,-0.257
1330055,-3224.0,1410.0,-7097.0,0.038,0.944,-0.173,-0.28
1330071,-3304.0,1214.0,-7241.0,0.033,0.937,-0.172,-0.303
1330087,-4124.0,1240.0,-6487.0,0.028,0.93,-0.17,-0.326
1330104,-3986.0,1312.0,-6607.0,0.024,0.922,-0.168,-0.348
1330121,-4760.0,1606.0,-6087.0,0.019,0.913,-0.167,-0.371
1330147,-4602.0,1400.0,-5983.0,0.015,0.904,-0.165,-0.394
1330163,-4846.0,1052.0,-5437.0,0.01,0.894,-0.163,-0.417
1330182,-4538.0,1380.0,-5073.0,0.005,0.884,-0.162,-0.438
1330199,-4820.0,1688.0,-4945.0,0.001,0.874,-0.159,-0.46
1330216,-5190.0,1416.0,-4235.0,0.004,-0.863,0.157,0.481
1330232,-5118.0,1648.0,-3953.0,0.009,-0.852,0.155,0.5
1330248,-5290.0,1182.0,-3587.0,0.013,-0.841,0.153,0.519
1330264,-5534.0,1558.0,-3325.0,0.018,-0.83,0.15,0.536
1330280,-5458.0,1608.0,-3043.0,0.023,-0.82,0.147,0.553
1330307,-5962.0,1574.0,-2365.0,0.027,-0.809,0.144,0.57
1330323,-5852.0,1284.0,-2437.0,0.031,-0.798,0.141,0.586
1330339,-6002.0,1256.0,-2139.0,0.035,-0.787,0.137,0.6
1330355,-6194.0,1520.0,-1667.0,0.04,-0.777,0.133,0.614
1330371,-6568.0,1490.0,-1037.0,0.043,-0.768,0.129,0.626
1330387,-6424.0,1530.0,-985.0,0.046,-0.758,0.125,0.638
1330413,-6718.0,1116.0,-629.0,0.049,-0.75,0.12,0.649
1330429,-6576.0,1288.0,-641.0,0.052,-0.742,0.116,0.658
1330445,-7158.0,1150.0,-119.0,0.055,-0.736,0.111,0.666
1330462,-7306.0,1272.0,65.0,0.058,-0.729,0.107,0.674
1330478,-7218.0,894.0,153.0,0.06,-0.723,0.103,0.68
1330494,-7322.0,730.0,325.0,0.062,-0.718,0.099,0.686
1330520,-7354.0,650.0,589.0,0.064,-0.714,0.095,0.691
1330536,-7366.0,472.0,763.0,0.066,-0.71,0.092,0.695
1330554,-7454.0,452.0,833.0,0.067,-0.707,0.088,0.698
1330571,-7458.0,366.0,867.0,0.068,-0.705,0.085,0.7
1330587,-7604.0,244.0,1085.0,0.069,-0.704,0.082,0.702
1330605,-7532.0,198.0,1101.0,0.07,-0.704,0.08,0.702
1330621,-7350.0,208.0,983.0,0.07,-0.705,0.078,0.702
1330637,-7332.0,156.0,1045.0,0.07,-0.707,0.076,0.7
1330653,-7270.0,158.0,1017.0,0.069,-0.71,0.075,0.697
1330679,-7314.0,126.0,1067.0,0.068,-0.713,0.074,0.694
1330695,-7216.0,12.0,775.0,0.067,-0.718,0.074,0.689
1330711,-6964.0,90.0,701.0,0.065,-0.724,0.074,0.683
1330727,-6992.0,176.0,651.0,0.062,-0.731,0.075,0.676
1330743,-6900.0,278.0,487.0,0.06,-0.739,0.076,0.667
1330759,-6990.0,350.0,295.0,0.056,-0.747,0.077,0.658
1330785,-6888.0,296.0,69.0,0.052,-0.756,0.078,0.647
1330801,-6942.0,280.0,-29.0,0.047,-0.766,0.08,0.636
1330817,-6890.0,400.0,-245.0,0.042,-0.777,0.081,0.623
1330833,-6950.0,596.0,-297.0,0.036,-0.788,0.083,0.608
1330849,-6762.0,696.0,-653.0,0.029,-0.8,0.085,0.593
1330865,-6598.0,594.0,-1049.0,0.022,-0.813,0.087,0.576
1330891,-6416.0,756.0,-1309.0,0.014,-0.825,0.089,0.557
1330907,-5702.0,540.0,-2129.0,0.006,-0.839,0.092,0.537
1330925,-4470.0,788.0,-3497.0,0.001,0.853,-0.097,-0.513
1330941,-4658.0,1156.0,-3725.0,0.008,0.867,-0.104,-0.488
1330957,-5686.0,2462.0,-4043.0,0.015,0.878,-0.113,-0.465
1330974,-3962.0,1548.0,-6029.0,0.025,0.888,-0.118,-0.444
1330990,-4642.0,-206.0,-5745.0,0.032,0.898,-0.123,-0.422
1331006,-4456.0,850.0,-6009.0,0.037,0.907,-0.127,-0.4
1331032,-4622.0,1020.0,-6131.0,0.041,0.915,-0.13,-0.379
1331048,-4484.0,1276.0,-6297.0,0.045,0.922,-0.134,-0.36
1331066,-4052.0,1300.0,-6727.0,0.049,0.929,-0.137,-0.34
1331083,-4004.0,1300.0,-7101.0,0.053,0.935,-0.14,-0.321
1331100,-4398.0,1992.0,-6577.0,0.057,0.941,-0.144,-0.3
1331118,-2636.0,2426.0,-7325.0,0.063,0.947,-0.149,-0.279
1331134,-3242.0,1112.0,-7687.0,0.069,0.952,-0.153,-0.256
1331150,-3728.0,1948.0,-7613.0,0.074,0.957,-0.157,-0.234
1331166,-4356.0,2026.0,-6361.0,0.079,0.961,-0.159,-0.211
1331192,-2398.0,2226.0,-7129.0,0.084,0.965,-0.162,-0.19
1331208,-1290.0,1746.0,-9115.0,0.091,0.968,-0.164,-0.169
1331225,-2972.0,2300.0,-7347.0,0.097,0.97,-0.165,-0.147
1331243,-2134.0,2352.0,-6797.0,0.104,0.973,-0.166,-0.125
1331260,120.0,2582.0,-8149.0,0.111,0.974,-0.166,-0.106
1331276,-864.0,2492.0,-7983.0,0.119,0.975,-0.168,-0.085
1331293,-994.0,2486.0,-7309.0,0.126,0.975,-0.169,-0.063
1331309,1416.0,2184.0,-8735.0,0.133,0.976,-0.169,-0.042
1331335,-744.0,2928.0,-7979.0,0.139,0.975,-0.169,-0.02
1331351,-992.0,3484.0,-6777.0,0.147,0.974,-0.171,0.0
1331368,2990.0,1304.0,-9155.0,0.156,0.972,-0.172,0.022
1331385,252.0,2216.0,-8093.0,0.163,0.97,-0.173,0.044
1331401,2508.0,2976.0,-9103.0,0.169,0.968,-0.174,0.066
1331417,1058.0,3474.0,-8307.0,0.176,0.965,-0.176,0.089
1331433,3126.0,1958.0,-8567.0,0.182,0.961,-0.178,0.111
1331459,3932.0,1350.0,-8097.0,0.187,0.957,-0.177,0.135
1331475,3502.0,4148.0,-8293.0,0.192,0.952,-0.179,0.156
1331491,3256.0,2488.0,-7609.0,0.198,0.947,-0.183,0.176
1331507,4712.0,1708.0,-8129.0,0.203,0.941,-0.187,0.196
1331523,4762.0,1964.0,-7475.0,0.208,0.935,-0.189,0.217
1331542,4844.0,2614.0,-7241.0,0.211,0.929,-0.192,0.237
1331558,6258.0,1558.0,-8207.0,0.215,0.922,-0.195,0.257
1331574,5026.0,2838.0,-6955.0,0.216,0.916,-0.198,0.276
1331590,6104.0,2858.0,-7077.0,0.218,0.909,-0.201,0.294
1331616,7098.0,1430.0,-7815.0,0.22,0.902,-0.204,0.311
1331632,5310.0,2726.0,-6535.0,0.22,0.896,-0.207,0.326
1331648,6946.0,2574.0,-7005.0,0.221,0.889,-0.21,0.341
1331664,6748.0,1894.0,-7097.0,0.222,0.883,-0.213,0.355
1331680,5930.0,2470.0,-6315.0,0.221,0.877,-0.216,0.368
1331696,6966.0,2736.0,-6637.0,0.221,0.872,-0.219,0.379
1331722,7114.0,1950.0,-6905.0,0.221,0.867,-0.222,0.388
1331739,6760.0,1716.0,-6097.0,0.22,0.862,-0.223,0.398
1331756,6490.0,3072.0,-6105.0,0.219,0.859,-0.225,0.405
1331773,6484.0,2732.0,-6291.0,0.219,0.856,-0.227,0.41
1331790,6710.0,2204.0,-6267.0,0.218,0.853,-0.23,0.414
1331806,6540.0,2244.0,-6253.0,0.217,0.852,-0.232,0.417
1331823,6590.0,2218.0,-6049.0,0.216,0.851,-0.233,0.418
1331840,6394.0,2580.0,-6093.0,0.215,0.851,-0.234,0.419
1331856,6238.0,2556.0,-6241.0,0.213,0.851,-0.235,0.418
1331882,6524.0,2094.0,-6373.0,0.212,0.852,-0.236,0.417
1331898,6204.0,2448.0,-5815.0,0.211,0.853,-0.236,0.416
1331914,6752.0,2922.0,-6447.0,0.209,0.854,-0.237,0.413
1331930,6230.0,2856.0,-6269.0,0.209,0.855,-0.239,0.41
1331946,6088.0,2404.0,-6027.0,0.208,0.857,-0.24,0.405
1331962,6620.0,1948.0,-6445.0,0.206,0.86,-0.241,0.4
1331988,6266.0,2316.0,-6435.0,0.205,0.863,-0.241,0.394
1332005,6220.0,2540.0,-6255.0,0.203,0.867,-0.24,0.387
1332022,6536.0,2310.0,-6897.0,0.201,0.871,-0.24,0.379
1332039,6306.0,1988.0,-7003.0,0.199,0.876,-0.239,0.37
1332055,6114.0,1990.0,-7063.0,0.196,0.881,-0.238,0.36
1332071,6112.0,1968.0,-7231.0,0.193,0.886,-0.236,0.349
1332088,5678.0,2266.0,-7233.0,0.19,0.892,-0.234,0.337
1332104,5434.0,1922.0,-7301.0,0.186,0.898,-0.233,0.324
1332130,5608.0,1590.0,-7681.0,0.181,0.904,-0.231,0.31
1332146,4848.0,1882.0,-7429.0,0.175,0.911,-0.228,0.296
1332162,5074.0,2036.0,-8017.0,0.169,0.917,-0.226,0.281
1332178,4812.0,1298.0,-8147.0,0.162,0.924,-0.224,0.265
1332194,4250.0,1864.0,-8025.0,0.155,0.93,-0.222,0.248
1332210,4228.0,1392.0,-8177.0,0.146,0.936,-0.22,0.231
1332236,4228.0,1688.0,-8437.0,0.138,0.942,-0.218,0.214
1332252,3916.0,1148.0,-8477.0,0.129,0.948,-0.215,0.196
1332268,3646.0,1648.0,-8751.0,0.119,0.953,-0.213,0.177
1332284,2860.0,1412.0,-8135.0,0.109,0.959,-0.211,0.158
1332301,3126.0,1398.0,-8475.0,0.099,0.963,-0.209,0.138
1332318,2612.0,1344.0,-8515.0,0.09,0.967,-0.208,0.118
1332335,2440.0,1196.0,-8805.0,0.081,0.97,-0.206,0.097
1332351,1990.0,1344.0,-8679.0,0.072,0.973,-0.205,0.076
1332378,1426.0,1450.0,-8319.0,0.064,0.975,-0.204,0.056
1332394,1846.0,820.0,-8895.0,0.056,0.977,-0.204,0.036
1332410,1008.0,888.0,-8649.0,0.047,0.978,-0.203,0.015
1332427,318.0,970.0,-8477.0,0.039,0.978,-0.204,-0.006
1332444,-258.0,990.0,-8537.0,0.031,0.978,-0.205,-0.028
1332461,-280.0,358.0,-8879.0,0.023,0.977,-0.206,-0.051
1332477,-854.0,506.0,-9207.0,0.014,0.975,-0.207,-0.075
1332494,-1132.0,-6.0,-9209.0,0.005,0.973,-0.208,-0.101
1332511,-1064.0,1044.0,-9589.0,0.005,-0.97,0.208,0.128
1332537,-1584.0,866.0,-9083.0,0.012,-0.966,0.208,0.155
1332554,-912.0,610.0,-9269.0,0.017,-0.961,0.207,0.182
1332571,-1478.0,702.0,-8861.0,0.02,-0.956,0.205,0.208
1332587,-2030.0,668.0,-8389.0,0.024,-0.951,0.203,0.234
1332603,-2934.0,602.0,-7783.0,0.026,-0.944,0.201,0.26
1332619,-3120.0,616.0,-7567.0,0.027,-0.937,0.197,0.286
1332635,-3714.0,1204.0,-7217.0,0.028,-0.929,0.193,0.314
1332661,-4198.0,1344.0,-6557.0,0.027,-0.921,0.189,0.341
1332677,-3990.0,936.0,-6101.0,0.024,-0.911,0.184,0.368
1332694,-4410.0,756.0,-5729.0,0.022,-0.901,0.179,0.395
1332710,-4094.0,654.0,-5521.0,0.02,-0.89,0.174,0.42
1332726,-4774.0,994.0,-4833.0,0.018,-0.88,0.167,0.444
1332742,-4810.0,994.0,-4377.0,0.015,-0.869,0.161,0.467
1332758,-5450.0,864.0,-3917.0,0.013,-0.858,0.154,0.49
1332777,-5408.0,934.0,-3571.0,0.011,-0.847,0.147,0.511
1332803,-5404.0,738.0,-3263.0,0.01,-0.835,0.14,0.532
1332819,-5722.0,880.0,-2735.0,0.009,-0.823,0.132,0.552
1332835,-5478.0,816.0,-2589.0,0.01,-0.812,0.126,0.57
1332851,-5930.0,988.0,-1903.0,0.011,-0.801,0.119,0.587
1332867,-5502.0,1080.0,-1583.0,0.012,-0.791,0.112,0.602
1332884,-5628.0,244.0,-1543.0,0.015,-0.781,0.105,0.615
1332900,-6274.0,930.0,-1019.0,0.019,-0.772,0.1,0.628
1332927,-6152.0,934.0,-635.0,0.022,-0.763,0.095,0.639
1332943,-6240.0,1010.0,-571.0,0.026,-0.755,0.09,0.649
1332960,-6466.0,258.0,-365.0,0.03,-0.747,0.087,0.658
1332976,-6718.0,452.0,17.0,0.035,-0.741,0.084,0.665
1332992,-6638.0,638.0,-157.0,0.041,-0.735,0.082,0.672
1333008,-7138.0,654.0,13.0,0.046,-0.729,0.081,0.678
1333024,-6834.0,426.0,-79.0,0.051,-0.725,0.08,0.682
1333050,-7136.0,436.0,221.0,0.057,-0.721,0.081,0.686
1333066,-7622.0,530.0,517.0,0.062,-0.717,0.082,0.689
1333082,-7228.0,138.0,289.0,0.067,-0.715,0.082,0.691
1333098,-7412.0,474.0,469.0,0.071,-0.713,0.083,0.693
1333115,-7408.0,444.0,655.0,0.075,-0.711,0.084,0.694
1333131,-7608.0,256.0,869.0,0.079,-0.71,0.086,0.694
1333157,-7638.0,266.0,731.0,0.082,-0.71,0.088,0.694
1333173,-7534.0,-152.0,621.0,0.084,-0.711,0.089,0.693
1333190,-7546.0,448.0,523.0,0.087,-0.712,0.091,0.691
1333206,-7754.0,374.0,809.0,0.089,-0.714,0.093,0.688
1333222,-7586.0,446.0,475.0,0.089,-0.717,0.094,0.685
1333239,-7668.0,-2.0,561.0,0.09,-0.72,0.096,0.681
1333256,-7594.0,220.0,417.0,0.09,-0.724,0.097,0.677
1333272,-7526.0,286.0,413.0,0.089,-0.729,0.098,0.671
1333289,-7458.0,260.0,263.0,0.087,-0.735,0.099,0.665
1333316,-7440.0,250.0,77.0,0.085,-0.741,0.1,0.658
1333332,-7194.0,274.0,-63.0,0.082,-0.748,0.1,0.651
1333348,-7086.0,466.0,-203.0,0.078,-0.756,0.101,0.642
1333364,-6914.0,366.0,-443.0,0.073,-0.765,0.101,0.632
1333380,-7370.0,660.0,-453.0,0.068,-0.774,0.101,0.621
1333396,-6714.0,330.0,-971.0,0.061,-0.784,0.102,0.609
1333413,-6176.0,398.0,-1709.0,0.055,-0.795,0.102,0.595
1333439,-6328.0,668.0,-2157.0,0.049,-0.808,0.103,0.578
1333456,-7162.0,810.0,-2173.0,0.044,-0.82,0.103,0.561
1333473,-7390.0,600.0,-2837.0,0.038,-0.831,0.103,0.546
1333490,-6724.0,140.0,-3621.0,0.033,-0.841,0.101,0.531
1333507,-7014.0,634.0,-3609.0,0.03,-0.85,0.099,0.516
1333524,-6746.0,694.0,-3633.0,0.025,-0.859,0.097,0.502
1333541,-6282.0,680.0,-3923.0,0.02,-0.867,0.095,0.488
1333558,-5452.0,68.0,-4463.0,0.016,-0.875,0.094,0.474
1333575,-5414.0,1188.0,-4199.0,0.012,-0.883,0.092,0.459
1333591,-5358.0,922.0,-3939.0,0.007,-0.892,0.092,0.443
1333608,-5200.0,874.0,-4349.0,0.001,-0.9,0.093,0.426
1333635,-5196.0,888.0,-4231.0,0.006,0.908,-0.094,-0.408
1333651,-4628.0,434.0,-4451.0,0.013,0.917,-0.096,-0.387
1333667,-4506.0,718.0,-4407.0,0.02,0.926,-0.099,-0.365
1333684,-4608.0,1746.0,-4249.0,0.029,0.933,-0.103,-0.343
1333701,-3214.0,630.0,-5149.0,0.039,0.941,-0.107,-0.32
1333717,-3166.0,-240.0,-6231.0,0.048,0.948,-0.111,-0.295
1333734,-3692.0,2136.0,-5461.0,0.055,0.954,-0.117,-0.269
1333750,-3084.0,1130.0,-6039.0,0.065,0.959,-0.123,-0.245
1333776,-838.0,888.0,-8517.0,0.074,0.964,-0.13,-0.22
1333792,-1338.0,650.0,-7961.0,0.083,0.968,-0.134,-0.194
1333809,-1738.0,1566.0,-7979.0,0.09,0.972,-0.138,-0.169
1333826,-788.0,1644.0,-8881.0,0.097,0.974,-0.144,-0.146
1333843,-970.0,1938.0,-8215.0,0.105,0.976,-0.149,-0.12
1333859,482.0,1964.0,-8857.0,0.113,0.977,-0.155,-0.094
1333875,1026.0,1204.0,-8775.0,0.12,0.978,-0.159,-0.066
1333901,-78.0,2304.0,-8285.0,0.126,0.978,-0.163,-0.039
1333917,-242.0,2344.0,-7989.0,0.131,0.977,-0.167,-0.013
1333933,1060.0,1904.0,-8553.0,0.136,0.976,-0.172,0.013
1333949,2702.0,1700.0,-9181.0,0.139,0.974,-0.177,0.042
1333965,540.0,2580.0,-8135.0,0.142,0.971,-0.18,0.068
1333981,2180.0,2114.0,-8693.0,0.145,0.968,-0.183,0.092
1334007,3156.0,2150.0,-8367.0,0.147,0.964,-0.186,0.119
1334024,4402.0,1946.0,-9313.0,0.148,0.96,-0.189,0.144
1334041,3348.0,2872.0,-8985.0,0.149,0.955,-0.191,0.169
1334058,3650.0,2028.0,-8183.0,0.15,0.95,-0.194,0.194
1334074,5396.0,1516.0,-8515.0,0.15,0.944,-0.195,0.218
1334091,5336.0,2814.0,-8821.0,0.15,0.939,-0.197,0.239
1334108,4710.0,1830.0,-8003.0,0.15,0.933,-0.2,0.259
1334124,5896.0,1898.0,-7933.0,0.15,0.927,-0.201,0.277
1334141,6022.0,2096.0,-8173.0,0.151,0.921,-0.204,0.295
1334158,5178.0,2344.0,-7091.0,0.153,0.915,-0.208,0.311
1334174,6258.0,1498.0,-7229.0,0.156,0.908,-0.211,0.326
1334201,5948.0,1668.0,-7047.0,0.159,0.901,-0.214,0.342
1334217,6332.0,2110.0,-7137.0,0.163,0.894,-0.216,0.357
1334233,6144.0,2040.0,-6371.0,0.167,0.887,-0.219,0.372
1334249,6494.0,1602.0,-6397.0,0.17,0.88,-0.22,0.386
1334265,6364.0,2262.0,-6363.0,0.175,0.873,-0.222,0.398
1334281,7024.0,1666.0,-6401.0,0.18,0.866,-0.224,0.409
1334307,7138.0,1722.0,-6541.0,0.184,0.86,-0.226,0.419
1334324,7000.0,1532.0,-6185.0,0.189,0.855,-0.227,0.427
1334341,6950.0,1726.0,-6245.0,0.193,0.85,-0.228,0.433
1334357,6828.0,1902.0,-6329.0,0.197,0.847,-0.229,0.438
1334374,6828.0,1778.0,-6247.0,0.201,0.843,-0.23,0.442
1334391,6908.0,1646.0,-6379.0,0.203,0.841,-0.231,0.445
1334408,6554.0,1518.0,-6175.0,0.205,0.839,-0.232,0.447
1334425,6630.0,1936.0,-6065.0,0.205,0.839,-0.232,0.448
1334441,6648.0,1596.0,-6157.0,0.205,0.839,-0.233,0.448
1334458,6778.0,1424.0,-6165.0,0.204,0.84,-0.233,0.446
1334484,6784.0,1562.0,-6151.0,0.202,0.842,-0.232,0.443
1334500,6842.0,1776.0,-6243.0,0.198,0.845,-0.232,0.439
1334517,7050.0,1820.0,-6649.0,0.194,0.85,-0.232,0.432
1334534,6708.0,1916.0,-6639.0,0.188,0.855,-0.232,0.424
1334550,6784.0,2014.0,-6991.0,0.183,0.861,-0.232,0.414
1334566,6776.0,1948.0,-7065.0,0.176,0.867,-0.232,0.404
1334582,6506.0,1998.0,-7333.0,0.17,0.873,-0.231,0.394
1334608,5978.0,2370.0,-7267.0,0.162,0.88,-0.23,0.383
1334624,5336.0,2580.0,-6837.0,0.155,0.886,-0.229,0.372
1334641,5388.0,2184.0,-7125.0,0.148,0.893,-0.227,0.36
1334658,5698.0,1812.0,-7441.0,0.142,0.899,-0.225,0.348
1334674,5128.0,1866.0,-7331.0,0.135,0.906,-0.223,0.335
1334691,5214.0,1844.0,-7669.0,0.128,0.912,-0.22,0.321
1334708,5204.0,1276.0,-7781.0,0.122,0.919,-0.218,0.305
1334724,5418.0,1042.0,-8075.0,0.116,0.926,-0.215,0.289
1334750,5062.0,1110.0,-8119.0,0.111,0.932,-0.212,0.271
1334766,4958.0,1022.0,-8331.0,0.106,0.939,-0.209,0.253
1334784,4786.0,644.0,-8619.0,0.101,0.945,-0.207,0.233
1334800,4592.0,628.0,-8725.0,0.096,0.951,-0.204,0.213
1334816,4248.0,650.0,-8755.0,0.091,0.956,-0.201,0.192
1334832,3414.0,926.0,-8661.0,0.087,0.961,-0.199,0.17
1334848,3270.0,384.0,-8857.0,0.083,0.966,-0.197,0.148
1334874,2964.0,688.0,-8999.0,0.079,0.97,-0.196,0.125
1334891,2434.0,974.0,-9001.0,0.075,0.973,-0.195,0.101
1334907,1702.0,804.0,-8755.0,0.071,0.975,-0.194,0.077
1334924,1544.0,700.0,-8961.0,0.068,0.977,-0.195,0.052
1334941,1010.0,592.0,-8979.0,0.064,0.978,-0.197,0.028
1334957,1130.0,690.0,-9355.0,0.061,0.978,-0.199,0.003
1334974,160.0,224.0,-8659.0,0.057,0.978,-0.2,-0.02
1334991,278.0,1004.0,-9083.0,0.052,0.977,-0.202,-0.045
1335017,-172.0,238.0,-8937.0,0.048,0.976,-0.203,-0.07
1335033,-50.0,1082.0,-9019.0,0.043,0.973,-0.204,-0.095
1335050,-1370.0,1130.0,-8301.0,0.038,0.971,-0.205,-0.12
1335066,-1030.0,914.0,-8291.0,0.033,0.967,-0.206,-0.146
1335083,-650.0,738.0,-9051.0,0.028,0.962,-0.207,-0.173
1335100,-1382.0,1090.0,-8723.0,0.024,0.957,-0.208,-0.199
1335116,-1558.0,1322.0,-8115.0,0.02,0.952,-0.208,-0.224
1335133,-1842.0,1178.0,-7667.0,0.018,0.946,-0.208,-0.249
1335150,-2074.0,1222.0,-7625.0,0.016,0.939,-0.208,-0.274
1335167,-2904.0,1286.0,-7591.0,0.015,0.931,-0.208,-0.298
1335184,-3588.0,892.0,-6967.0,0.013,0.924,-0.207,-0.322
1335210,-3632.0,1294.0,-6857.0,0.011,0.915,-0.205,-0.346
1335226,-4580.0,1924.0,-5883.0,0.009,0.906,-0.203,-0.37
1335242,-4342.0,1572.0,-5719.0,0.008,0.896,-0.202,-0.395
1335258,-4192.0,1170.0,-5627.0,0.006,0.885,-0.2,-0.419
1335275,-4660.0,1260.0,-5139.0,0.004,0.875,-0.198,-0.443
1335292,-5180.0,1612.0,-4625.0,0.001,0.864,-0.195,-0.465
1335309,-5576.0,1960.0,-4291.0,0.003,-0.852,0.192,0.487
1335325,-5684.0,1352.0,-3785.0,0.006,-0.84,0.189,0.509
1335351,-5382.0,1468.0,-3305.0,0.01,-0.827,0.186,0.53
1335367,-5424.0,1810.0,-2897.0,0.014,-0.815,0.182,0.549
1335383,-6170.0,1558.0,-2043.0,0.019,-0.803,0.178,0.568
1335400,-5570.0,1826.0,-1961.0,0.024,-0.791,0.174,0.586
1335416,-5588.0,966.0,-1779.0,0.028,-0.779,0.17,0.602
1335432,-5782.0,1744.0,-1359.0,0.034,-0.769,0.166,0.617
1335458,-5770.0,1398.0,-943.0,0.039,-0.759,0.161,0.629
1335474,-6392.0,1772.0,-481.0,0.045,-0.75,0.157,0.641
1335491,-6256.0,1688.0,-615.0,0.049,-0.741,0.153,0.652
1335508,-5972.0,974.0,-361.0,0.054,-0.733,0.149,0.662
1335525,-6848.0,1304.0,169.0,0.059,-0.726,0.145,0.669
1335541,-6632.0,1254.0,133.0,0.064,-0.72,0.142,0.676
1335557,-6926.0,1318.0,277.0,0.068,-0.714,0.139,0.683
1335574,-6626.0,794.0,399.0,0.072,-0.71,0.136,0.688
1335591,-7144.0,550.0,433.0,0.076,-0.706,0.133,0.691
1335608,-7600.0,960.0,781.0,0.08,-0.702,0.132,0.695
1335635,-7752.0,970.0,921.0,0.083,-0.699,0.13,0.698
1335651,-7322.0,690.0,781.0,0.085,-0.696,0.129,0.701
1335667,-7354.0,486.0,759.0,0.088,-0.694,0.129,0.703
1335683,-7532.0,724.0,853.0,0.09,-0.693,0.129,0.703
1335699,-7622.0,700.0,967.0,0.092,-0.692,0.13,0.704
1335715,-7488.0,544.0,767.0,0.093,-0.692,0.13,0.704
1335732,-7434.0,486.0,907.0,0.094,-0.693,0.131,0.703
1335758,-7488.0,614.0,831.0,0.094,-0.694,0.132,0.701
1335775,-7876.0,518.0,1067.0,0.094,-0.696,0.133,0.699
1335792,-7604.0,624.0,693.0,0.094,-0.698,0.134,0.697
1335809,-7468.0,392.0,733.0,0.093,-0.701,0.135,0.694
1335825,-7262.0,686.0,597.0,0.091,-0.706,0.135,0.689
1335842,-7492.0,816.0,853.0,0.089,-0.711,0.136,0.684
1335858,-7072.0,612.0,411.0,0.086,-0.717,0.137,0.679
1335875,-6580.0,494.0,131.0,0.082,-0.724,0.138,0.671
1335892,-6240.0,714.0,-21.0,0.077,-0.733,0.14,0.662
1335909,-6710.0,1076.0,201.0,0.071,-0.743,0.141,0.651
1335936,-6492.0,668.0,-13.0,0.063,-0.753,0.142,0.64
1335952,-6652.0,764.0,-335.0,0.056,-0.763,0.144,0.627
1335968,-6472.0,728.0,-593.0,0.048,-0.775,0.146,0.613
1335984,-6676.0,1170.0,-687.0,0.039,-0.787,0.147,0.598
1336000,-6474.0,1228.0,-1049.0,0.029,-0.799,0.149,0.582
1336016,-6544.0,1300.0,-1493.0,0.019,-0.811,0.152,0.565
1336042,-6284.0,1586.0,-2075.0,0.009,-0.823,0.155,0.546
1336058,-5526.0,1112.0,-3151.0,0.003,0.836,-0.158,-0.525
1336075,-5964.0,1886.0,-3233.0,0.012,0.849,-0.161,-0.503
1336092,-5212.0,2266.0,-4077.0,0.022,0.862,-0.164,-0.48
1336109,-4964.0,1856.0,-4985.0,0.032,0.873,-0.168,-0.456
1336126,-5674.0,2360.0,-4499.0,0.041,0.884,-0.173,-0.433
1336142,-4084.0,2034.0,-5305.0,0.05,0.893,-0.178,-0.41
1336158,-4844.0,2032.0,-5443.0,0.058,0.902,-0.182,-0.388
1336175,-3858.0,1672.0,-5739.0,0.065,0.91,-0.187,-0.365
1336192,-3162.0,2502.0,-6395.0,0.071,0.918,-0.191,-0.342
1336218,-2668.0,1862.0,-7065.0,0.076,0.925,-0.195,-0.318
1336234,-2506.0,2222.0,-7735.0,0.081,0.932,-0.197,-0.294
1336250,-3484.0,1868.0,-7231.0,0.084,0.938,-0.2,-0.271
1336266,-2950.0,2238.0,-7501.0,0.086,0.943,-0.202,-0.248
1336282,-2372.0,2434.0,-7721.0,0.089,0.949,-0.205,-0.225
1336298,-2040.0,2094.0,-8189.0,0.091,0.953,-0.207,-0.203
1336325,-3070.0,2030.0,-7489.0,0.092,0.956,-0.21,-0.181
1336342,-1818.0,2162.0,-7777.0,0.094,0.959,-0.212,-0.16
1336359,-1400.0,2040.0,-7943.0,0.095,0.962,-0.214,-0.139
1336375,-1372.0,2292.0,-8241.0,0.096,0.964,-0.216,-0.117
1336391,-1048.0,2244.0,-8173.0,0.098,0.967,-0.217,-0.094
1336408,-112.0,2140.0,-8437.0,0.1,0.968,-0.217,-0.07
1336425,-538.0,2438.0,-8615.0,0.101,0.97,-0.217,-0.047
1336442,-144.0,2414.0,-8219.0,0.103,0.97,-0.218,-0.024
1336459,1074.0,2166.0,-8973.0,0.104,0.97,-0.218,-0.002
1336475,538.0,1718.0,-8667.0,0.107,0.97,-0.218,0.019
1336502,994.0,1918.0,-8335.0,0.109,0.969,-0.217,0.04
1336518,1712.0,1836.0,-8547.0,0.111,0.968,-0.216,0.06
1336534,1128.0,2970.0,-8463.0,0.113,0.967,-0.216,0.078
1336550,1862.0,2310.0,-8213.0,0.117,0.964,-0.219,0.097
1336566,3164.0,666.0,-8671.0,0.12,0.961,-0.221,0.117
1336582,2324.0,1438.0,-8717.0,0.122,0.958,-0.221,0.135
1336599,2594.0,2336.0,-8595.0,0.124,0.955,-0.222,0.153
1336626,3612.0,818.0,-9219.0,0.127,0.952,-0.223,0.169
1336642,3268.0,1098.0,-8995.0,0.129,0.948,-0.224,0.184
1336658,3992.0,1242.0,-8727.0,0.131,0.945,-0.224,0.199
1336675,5028.0,1052.0,-8959.0,0.133,0.942,-0.223,0.213
1336691,4478.0,1538.0,-8453.0,0.136,0.938,-0.222,0.226
1336708,4084.0,1722.0,-7745.0,0.14,0.935,-0.221,0.24
1336725,4828.0,1546.0,-7699.0,0.144,0.931,-0.22,0.253
1336742,4680.0,1642.0,-7819.0,0.149,0.927,-0.219,0.266
1336768,4300.0,1580.0,-6749.0,0.154,0.922,-0.218,0.28
1336784,5006.0,1902.0,-6825.0,0.16,0.918,-0.216,0.292
1336800,5386.0,1488.0,-6975.0,0.166,0.913,-0.215,0.305
1336816,5204.0,1792.0,-6453.0,0.172,0.907,-0.213,0.318
1336832,5174.0,1960.0,-6385.0,0.179,0.901,-0.213,0.332
1336849,5478.0,1350.0,-6219.0,0.185,0.895,-0.212,0.346
1336865,5672.0,1394.0,-6575.0,0.19,0.888,-0.212,0.36
1336892,6196.0,1060.0,-6537.0,0.194,0.881,-0.21,0.376
1336908,5404.0,1490.0,-5807.0,0.197,0.875,-0.207,0.392
1336925,6714.0,1548.0,-5799.0,0.199,0.868,-0.205,0.406
1336941,7116.0,1728.0,-6277.0,0.2,0.862,-0.204,0.419
1336958,7210.0,1208.0,-5923.0,0.199,0.858,-0.204,0.428
1336975,7754.0,1064.0,-6107.0,0.198,0.855,-0.205,0.434
1336992,7934.0,796.0,-6503.0,0.196,0.853,-0.206,0.438
1337009,7578.0,962.0,-6477.0,0.192,0.852,-0.207,0.44
1337025,7282.0,1242.0,-6407.0,0.188,0.853,-0.209,0.44
1337051,6952.0,1478.0,-6427.0,0.183,0.854,-0.211,0.439
1337067,6580.0,1424.0,-6517.0,0.178,0.856,-0.214,0.436
1337083,6486.0,1034.0,-6501.0,0.174,0.858,-0.216,0.433
1337099,5920.0,1634.0,-6243.0,0.169,0.86,-0.217,0.429
1337115,5762.0,1846.0,-6285.0,0.165,0.863,-0.218,0.425
1337141,6100.0,1602.0,-6381.0,0.162,0.866,-0.219,0.42
1337158,6158.0,1770.0,-6317.0,0.16,0.869,-0.221,0.414
1337175,6716.0,1580.0,-6677.0,0.157,0.872,-0.222,0.408
1337191,6540.0,1434.0,-6503.0,0.155,0.875,-0.223,0.401
1337208,6742.0,1440.0,-6811.0,0.153,0.879,-0.224,0.393
1337225,6666.0,1850.0,-7015.0,0.151,0.883,-0.225,0.383
1337241,6518.0,1524.0,-7141.0,0.149,0.888,-0.226,0.373
1337258,6350.0,1642.0,-7203.0,0.148,0.892,-0.227,0.361
1337274,6102.0,1772.0,-7317.0,0.146,0.897,-0.228,0.349
1337291,5924.0,1696.0,-7733.0,0.144,0.902,-0.23,0.335
1337307,5380.0,1450.0,-7555.0,0.142,0.907,-0.232,0.321
1337334,5098.0,1168.0,-7697.0,0.139,0.912,-0.233,0.307
1337350,4668.0,1116.0,-7777.0,0.135,0.917,-0.234,0.293
1337366,4146.0,1080.0,-8027.0,0.129,0.923,-0.234,0.278
1337382,3808.0,1388.0,-8091.0,0.123,0.928,-0.234,0.262
1337398,3818.0,1018.0,-8333.0,0.117,0.933,-0.234,0.246
1337415,3842.0,1114.0,-8371.0,0.109,0.939,-0.233,0.23
1337432,3686.0,1170.0,-8611.0,0.102,0.944,-0.232,0.212
1337449,3440.0,1096.0,-8619.0,0.093,0.949,-0.231,0.195
1337475,3366.0,1038.0,-8709.0,0.085,0.953,-0.23,0.177
1337491,2884.0,1082.0,-8579.0,0.077,0.957,-0.228,0.159
1337508,2822.0,718.0,-8725.0,0.07,0.961,-0.227,0.141
1337525,2524.0,1098.0,-8669.0,0.062,0.965,-0.224,0.122
1337541,2496.0,766.0,-8771.0,0.054,0.968,-0.222,0.103
1337558,2180.0,836.0,-8681.0,0.047,0.971,-0.22,0.083
1337575,1872.0,790.0,-8689.0,0.04,0.973,-0.218,0.063
1337592,1434.0,732.0,-8487.0,0.034,0.975,-0.217,0.043
1337608,1326.0,994.0,-8541.0,0.029,0.976,-0.215,0.022
1337634,954.0,532.0,-8325.0,0.024,0.976,-0.215,0.002
1337650,700.0,666.0,-8253.0,0.02,0.977,-0.214,-0.018
1337666,564.0,574.0,-8545.0,0.017,0.976,-0.212,-0.039
1337682,-134.0,782.0,-8243.0,0.014,0.976,-0.211,-0.06
1337698,-420.0,424.0,-8307.0,0.012,0.974,-0.21,-0.08
1337724,-758.0,778.0,-8445.0,0.01,0.973,-0.208,-0.101
1337741,-1120.0,460.0,-8101.0,0.009,0.971,-0.206,-0.122
1337758,-1318.0,988.0,-8231.0,0.008,0.968,-0.205,-0.143
1337774,-1756.0,958.0,-7969.0,0.008,0.965,-0.203,-0.165
1337791,-2104.0,992.0,-7563.0,0.007,0.962,-0.2,-0.186
1337808,-2388.0,1184.0,-7515.0,0.009,0.958,-0.197,-0.207
1337825,-2832.0,522.0,-7327.0,0.01,0.954,-0.194,-0.227
1337841,-2808.0,896.0,-7873.0,0.01,0.95,-0.191,-0.248
1337858,-3682.0,1020.0,-7521.0,0.011,0.945,-0.187,-0.269
1337875,-3878.0,976.0,-7277.0,0.011,0.939,-0.182,-0.29
1337892,-3980.0,860.0,-7129.0,0.01,0.933,-0.178,-0.311
1337918,-4326.0,720.0,-7099.0,0.009,0.927,-0.173,-0.333
1337935,-4576.0,1014.0,-6883.0,0.006,0.92,-0.168,-0.354
1337952,-4746.0,1024.0,-6271.0,0.004,0.912,-0.164,-0.376
1337968,-4852.0,1208.0,-5829.0,0.001,0.903,-0.159,-0.398
1337985,-4638.0,1030.0,-5669.0,0.002,-0.894,0.155,0.42
1338001,-4880.0,792.0,-5255.0,0.006,-0.885,0.151,0.441
1338018,-5100.0,1070.0,-4693.0,0.01,-0.875,0.147,0.462
1338035,-5432.0,1130.0,-4149.0,0.014,-0.864,0.143,0.482
1338052,-5398.0,960.0,-3893.0,0.018,-0.853,0.139,0.502
1338069,-5560.0,996.0,-3467.0,0.022,-0.843,0.135,0.521
1338095,-5298.0,870.0,-3255.0,0.026,-0.832,0.131,0.539
1338112,-6014.0,982.0,-2567.0,0.029,-0.821,0.127,0.556
1338129,-5664.0,852.0,-2441.0,0.033,-0.811,0.123,0.572
1338146,-6344.0,908.0,-1803.0,0.036,-0.8,0.12,0.586
1338162,-6194.0,674.0,-1937.0,0.039,-0.791,0.116,0.6
1338178,-6730.0,626.0,-1635.0,0.042,-0.781,0.112,0.612
1338194,-7000.0,998.0,-1181.0,0.045,-0.773,0.108,0.624
1338211,-7204.0,894.0,-981.0,0.048,-0.764,0.104,0.635
1338237,-7030.0,874.0,-859.0,0.05,-0.756,0.1,0.645
1338253,-7010.0,988.0,-597.0,0.052,-0.748,0.095,0.655
1338269,-7202.0,862.0,-153.0,0.054,-0.741,0.09,0.663
1338285,-6904.0,786.0,-39.0,0.055,-0.735,0.085,0.67
1338301,-7300.0,550.0,283.0,0.057,-0.729,0.08,0.677
1338318,-6894.0,426.0,139.0,0.058,-0.724,0.074,0.683
1338334,-7170.0,284.0,507.0,0.059,-0.72,0.069,0.687
1338361,-7238.0,162.0,727.0,0.061,-0.717,0.064,0.691
1338378,-6914.0,258.0,765.0,0.061,-0.715,0.06,0.693
1338395,-7086.0,-90.0,993.0,0.061,-0.715,0.056,0.695
1338412,-7118.0,-22.0,933.0,0.061,-0.715,0.053,0.694
1338428,-7284.0,-352.0,1127.0,0.06,-0.716,0.05,0.693
1338445,-7464.0,-216.0,1097.0,0.058,-0.719,0.048,0.691
1338461,-7400.0,-282.0,931.0,0.056,-0.722,0.047,0.688
1338477,-7426.0,-592.0,939.0,0.055,-0.726,0.047,0.684
1338493,-7458.0,-214.0,783.0,0.053,-0.731,0.047,0.678
1338519,-7542.0,-250.0,631.0,0.05,-0.737,0.048,0.672
1338535,-7708.0,-144.0,555.0,0.047,-0.743,0.05,0.665
1338551,-7442.0,-134.0,303.0,0.044,-0.75,0.053,0.658
1338568,-7548.0,-266.0,87.0,0.041,-0.758,0.056,0.649
1338584,-7380.0,60.0,-61.0,0.037,-0.766,0.059,0.639
1338600,-7312.0,144.0,-251.0,0.032,-0.775,0.063,0.628
1338626,-7286.0,218.0,-379.0,0.027,-0.784,0.067,0.616
1338642,-7206.0,270.0,-655.0,0.022,-0.794,0.072,0.603
1338659,-6902.0,274.0,-1065.0,0.016,-0.804,0.077,0.589
1338675,-6474.0,462.0,-1273.0,0.01,-0.815,0.082,0.573
1338691,-5858.0,728.0,-1869.0,0.004,-0.827,0.088,0.556
1338707,-5666.0,864.0,-2183.0,0.003,0.839,-0.094,-0.536
1338723,-5400.0,744.0,-2669.0,0.01,0.851,-0.101,-0.515
1338749,-5110.0,524.0,-3279.0,0.015,0.864,-0.109,-0.491
1338766,-4948.0,1442.0,-3377.0,0.02,0.877,-0.116,-0.466
1338783,-5840.0,2282.0,-2711.0,0.026,0.888,-0.124,-0.441
1338800,-4428.0,918.0,-4415.0,0.032,0.899,-0.132,-0.417
1338817,-3944.0,836.0,-4711.0,0.035,0.909,-0.139,-0.39
1338834,-4222.0,1034.0,-5191.0,0.039,0.92,-0.145,-0.363
1338851,-4146.0,2080.0,-5709.0,0.041,0.929,-0.15,-0.336
1338868,-3310.0,1486.0,-6059.0,0.043,0.937,-0.155,-0.311
1338884,-2712.0,1174.0,-6789.0,0.044,0.944,-0.16,-0.284
1338901,-2168.0,1364.0,-7507.0,0.045,0.951,-0.164,-0.258
1338928,-2142.0,1132.0,-7443.0,0.045,0.958,-0.167,-0.231
1338945,-2428.0,1840.0,-7365.0,0.044,0.963,-0.17,-0.205
1338961,-970.0,1124.0,-8273.0,0.043,0.967,-0.173,-0.18
1338978,-1204.0,988.0,-8213.0,0.042,0.972,-0.175,-0.153
1338995,68.0,1570.0,-8891.0,0.043,0.975,-0.177,-0.128
1339012,-576.0,1750.0,-8593.0,0.045,0.977,-0.179,-0.102
1339029,168.0,1252.0,-8381.0,0.048,0.979,-0.181,-0.077
1339046,186.0,1310.0,-8823.0,0.052,0.98,-0.183,-0.052
1339062,524.0,1472.0,-8401.0,0.056,0.981,-0.185,-0.027
1339079,820.0,1590.0,-7927.0,0.062,0.98,-0.188,-0.002
1339095,2116.0,506.0,-9361.0,0.069,0.979,-0.19,0.023
1339122,628.0,1016.0,-7831.0,0.075,0.977,-0.191,0.048
1339138,1910.0,1296.0,-7947.0,0.082,0.975,-0.191,0.074
1339154,3008.0,1450.0,-8753.0,0.09,0.972,-0.191,0.099
1339170,2414.0,1852.0,-7835.0,0.099,0.969,-0.191,0.125
1339187,3708.0,1582.0,-7843.0,0.109,0.964,-0.192,0.151
1339204,4470.0,1484.0,-8797.0,0.119,0.958,-0.192,0.177
1339220,3876.0,2000.0,-8081.0,0.131,0.951,-0.193,0.203
1339246,5154.0,1802.0,-7983.0,0.143,0.943,-0.193,0.229
1339263,5568.0,1980.0,-8045.0,0.155,0.935,-0.194,0.254
1339280,5412.0,2348.0,-7647.0,0.167,0.926,-0.195,0.279
1339297,5962.0,2100.0,-7579.0,0.178,0.916,-0.196,0.302
1339314,6358.0,2004.0,-7677.0,0.191,0.905,-0.196,0.325
1339331,6768.0,2944.0,-6891.0,0.203,0.895,-0.197,0.345
1339348,6858.0,3330.0,-6385.0,0.215,0.884,-0.199,0.364
1339365,7218.0,3970.0,-6247.0,0.228,0.873,-0.203,0.38
1339382,7654.0,3198.0,-6341.0,0.241,0.862,-0.209,0.395
1339399,7480.0,3010.0,-5709.0,0.252,0.851,-0.214,0.409
1339416,7508.0,2820.0,-5757.0,0.262,0.84,-0.219,0.422
1339433,7366.0,4008.0,-5417.0,0.272,0.829,-0.225,0.434
1339450,7874.0,3710.0,-5953.0,0.284,0.818,-0.23,0.445
1339467,7354.0,3164.0,-4861.0,0.295,0.806,-0.236,0.455
1339486,7458.0,4026.0,-4689.0,0.306,0.796,-0.241,0.463
1339503,7250.0,3916.0,-4543.0,0.317,0.786,-0.248,0.469
1339529,7402.0,3588.0,-4535.0,0.328,0.776,-0.255,0.474
1339546,7536.0,3220.0,-4079.0,0.339,0.767,-0.261,0.478
1339563,7412.0,3410.0,-3923.0,0.35,0.758,-0.267,0.482
1339580,7084.0,3326.0,-3471.0,0.361,0.749,-0.272,0.485
1339597,7032.0,3760.0,-3437.0,0.371,0.74,-0.278,0.487
1339614,7666.0,3440.0,-3477.0,0.383,0.731,-0.284,0.488
1339631,7866.0,3184.0,-2997.0,0.395,0.721,-0.291,0.489
1339648,7718.0,2900.0,-2431.0,0.407,0.712,-0.296,0.49
1339665,7772.0,3358.0,-2071.0,0.419,0.702,-0.303,0.49
1339682,8054.0,3138.0,-2023.0,0.433,0.691,-0.31,0.489
1339699,8078.0,2098.0,-1681.0,0.446,0.68,-0.317,0.488
1339716,7790.0,1818.0,-1307.0,0.457,0.671,-0.323,0.486
1339732,7764.0,2546.0,-1167.0,0.469,0.661,-0.329,0.485
