timeMs,ax,ay,az,q0,q1,q2,q3
136008,-4710.0,586.0,-4770.0,0.33,-0.503,0.763,0.236
136025,-5098.0,978.0,-4436.0,0.349,-0.5,0.755,0.243
136041,-5182.0,962.0,-4004.0,0.367,-0.496,0.745,0.251
136057,-5814.0,1146.0,-3444.0,0.384,-0.494,0.736,0.259
136073,-5784.0,974.0,-3024.0,0.401,-0.491,0.726,0.268
136099,-6046.0,682.0,-2456.0,0.416,-0.489,0.716,0.276
136116,-6118.0,958.0,-2066.0,0.429,-0.487,0.706,0.284
136132,-6288.0,978.0,-1416.0,0.44,-0.485,0.697,0.292
136149,-6198.0,460.0,-1160.0,0.449,-0.484,0.689,0.3
136166,-6548.0,228.0,-734.0,0.456,-0.483,0.682,0.307
136182,-6478.0,578.0,-710.0,0.461,-0.482,0.676,0.313
136199,-6794.0,66.0,-860.0,0.464,-0.481,0.672,0.318
136216,-6404.0,-106.0,-846.0,0.467,-0.48,0.67,0.321
136233,-6406.0,-54.0,-904.0,0.467,-0.479,0.669,0.323
136259,-6584.0,-430.0,-854.0,0.467,-0.479,0.669,0.324
136275,-6782.0,-110.0,-888.0,0.466,-0.479,0.67,0.323
136292,-6692.0,-322.0,-1068.0,0.464,-0.48,0.671,0.321
136308,-6892.0,-634.0,-1084.0,0.461,-0.481,0.674,0.318
136325,-7178.0,-268.0,-790.0,0.458,-0.482,0.678,0.314
136341,-6832.0,-400.0,-1094.0,0.455,-0.482,0.682,0.309
136358,-7054.0,-92.0,-862.0,0.45,-0.483,0.688,0.303
136374,-6620.0,44.0,-1222.0,0.443,-0.483,0.695,0.296
136400,-6628.0,-132.0,-1354.0,0.436,-0.483,0.703,0.289
136416,-6410.0,110.0,-1564.0,0.426,-0.484,0.71,0.283
136432,-6228.0,246.0,-1886.0,0.416,-0.484,0.718,0.276
136449,-6088.0,376.0,-2188.0,0.405,-0.484,0.728,0.269
136466,-5810.0,218.0,-2564.0,0.392,-0.487,0.735,0.263
136482,-5706.0,258.0,-2942.0,0.378,-0.489,0.743,0.257
136499,-5460.0,332.0,-3214.0,0.364,-0.492,0.75,0.251
136526,-5170.0,742.0,-3672.0,0.349,-0.495,0.757,0.245
136542,-5144.0,352.0,-3874.0,0.333,-0.499,0.764,0.24
136558,-5036.0,496.0,-4088.0,0.316,-0.502,0.77,0.234
136574,-4920.0,84.0,-4408.0,0.299,-0.505,0.777,0.227
136590,-4260.0,1024.0,-5208.0,0.281,-0.507,0.784,0.221
136606,-4808.0,1026.0,-4554.0,0.263,-0.51,0.79,0.215
136622,-3372.0,82.0,-5710.0,0.245,-0.512,0.797,0.209
136648,-4662.0,758.0,-4978.0,0.226,-0.512,0.804,0.202
136665,-3928.0,1396.0,-5514.0,0.208,-0.512,0.81,0.195
136682,-3380.0,896.0,-5522.0,0.189,-0.513,0.816,0.189
136699,-1968.0,970.0,-6696.0,0.168,-0.513,0.822,0.181
136716,-2736.0,976.0,-6210.0,0.147,-0.512,0.828,0.173
136733,-2876.0,2258.0,-6140.0,0.125,-0.511,0.834,0.165
136749,-2508.0,1614.0,-6108.0,0.104,-0.51,0.839,0.161
136765,598.0,-266.0,-8410.0,0.08,-0.509,0.843,0.153
136782,-2100.0,1880.0,-6932.0,0.057,-0.509,0.847,0.144
136808,-1304.0,2056.0,-7434.0,0.035,-0.507,0.85,0.136
136824,-1054.0,1674.0,-7690.0,0.013,-0.504,0.854,0.132
136840,-1134.0,1216.0,-7448.0,0.009,0.501,-0.856,-0.126
136856,852.0,1136.0,-8610.0,0.031,0.498,-0.859,-0.117
136872,-256.0,2528.0,-7788.0,0.053,0.494,-0.861,-0.109
136888,-814.0,3028.0,-6846.0,0.074,0.489,-0.863,-0.102
136914,1220.0,1264.0,-7910.0,0.094,0.483,-0.865,-0.095
136931,1272.0,1302.0,-7768.0,0.116,0.477,-0.867,-0.084
136948,2964.0,2832.0,-8676.0,0.137,0.472,-0.868,-0.073
136965,2198.0,2204.0,-8230.0,0.159,0.465,-0.869,-0.062
136982,1758.0,2494.0,-7524.0,0.179,0.457,-0.87,-0.052
136999,4404.0,1572.0,-8544.0,0.198,0.451,-0.869,-0.041
137015,3942.0,1866.0,-8466.0,0.218,0.444,-0.869,-0.029
137032,3390.0,3006.0,-7846.0,0.238,0.437,-0.867,-0.017
137048,3490.0,2922.0,-7212.0,0.257,0.43,-0.865,-0.006
137065,5718.0,662.0,-8944.0,0.275,0.424,-0.863,0.003
137082,4210.0,3222.0,-7630.0,0.294,0.417,-0.86,0.015
137108,6162.0,2388.0,-8226.0,0.311,0.411,-0.856,0.025
137124,5110.0,2964.0,-7344.0,0.329,0.405,-0.853,0.033
137140,4970.0,1632.0,-7070.0,0.346,0.399,-0.848,0.039
137156,6656.0,2906.0,-7778.0,0.363,0.393,-0.844,0.047
137173,6584.0,2826.0,-7716.0,0.381,0.387,-0.838,0.054
137189,6534.0,2984.0,-7406.0,0.397,0.38,-0.833,0.06
137206,6040.0,3226.0,-6652.0,0.412,0.373,-0.829,0.064
137232,6776.0,1794.0,-7000.0,0.426,0.365,-0.825,0.068
137249,6786.0,2908.0,-6914.0,0.438,0.359,-0.821,0.071
137266,7594.0,2506.0,-7418.0,0.45,0.352,-0.818,0.074
137282,7120.0,2678.0,-7210.0,0.459,0.347,-0.815,0.077
137298,6874.0,2680.0,-7162.0,0.465,0.341,-0.813,0.079
137314,6780.0,2872.0,-7358.0,0.468,0.337,-0.813,0.08
137331,6758.0,2514.0,-7522.0,0.469,0.332,-0.814,0.08
137358,6398.0,2380.0,-7520.0,0.468,0.329,-0.816,0.08
137374,5892.0,2668.0,-7478.0,0.465,0.327,-0.819,0.08
137391,5226.0,3154.0,-7218.0,0.461,0.325,-0.822,0.08
137407,5500.0,2844.0,-7536.0,0.456,0.324,-0.825,0.08
137424,5404.0,2386.0,-7412.0,0.45,0.323,-0.829,0.08
137440,5222.0,2372.0,-7284.0,0.443,0.324,-0.832,0.081
137456,5312.0,2522.0,-7326.0,0.436,0.327,-0.835,0.081
137473,5124.0,2922.0,-7254.0,0.428,0.33,-0.838,0.08
137499,5438.0,2510.0,-7298.0,0.419,0.334,-0.841,0.08
137515,5882.0,2464.0,-7554.0,0.409,0.339,-0.844,0.079
137531,5744.0,2236.0,-7370.0,0.398,0.344,-0.847,0.077
137547,5720.0,2250.0,-7512.0,0.387,0.35,-0.85,0.076
137563,5418.0,2382.0,-7502.0,0.374,0.356,-0.853,0.075
137580,5524.0,2364.0,-7858.0,0.359,0.362,-0.857,0.073
137596,5848.0,2114.0,-8154.0,0.344,0.368,-0.861,0.07
137623,6112.0,1862.0,-8592.0,0.328,0.374,-0.865,0.068
137640,5366.0,1968.0,-8316.0,0.311,0.38,-0.869,0.066
137656,5342.0,1776.0,-8614.0,0.292,0.385,-0.873,0.062
137672,5426.0,1758.0,-9094.0,0.273,0.39,-0.878,0.058
137688,5250.0,1486.0,-9392.0,0.253,0.395,-0.882,0.053
137704,4752.0,1544.0,-9276.0,0.231,0.4,-0.886,0.048
137720,4148.0,1312.0,-9354.0,0.209,0.405,-0.889,0.042
137746,3378.0,1340.0,-9122.0,0.186,0.41,-0.893,0.035
137763,3270.0,1390.0,-9386.0,0.161,0.414,-0.895,0.027
137780,2872.0,888.0,-9374.0,0.136,0.418,-0.898,0.019
137797,2206.0,1546.0,-8790.0,0.111,0.422,-0.9,0.011
137813,2028.0,1082.0,-8738.0,0.086,0.426,-0.901,0.003
137830,1998.0,784.0,-8892.0,0.061,0.429,-0.901,-0.006
137847,886.0,1074.0,-8262.0,0.035,0.432,-0.901,-0.016
137864,1630.0,956.0,-8644.0,0.011,0.434,-0.9,-0.025
137881,764.0,544.0,-8080.0,0.014,-0.437,0.899,0.035
137897,418.0,878.0,-7892.0,0.039,-0.439,0.897,0.045
137914,-140.0,658.0,-7446.0,0.063,-0.441,0.894,0.055
137941,-284.0,824.0,-7424.0,0.088,-0.442,0.89,0.065
137957,40.0,562.0,-7894.0,0.111,-0.444,0.886,0.076
137973,-888.0,462.0,-7010.0,0.135,-0.445,0.881,0.087
137990,-1278.0,450.0,-6560.0,0.158,-0.446,0.875,0.097
138007,-1304.0,306.0,-6620.0,0.181,-0.447,0.87,0.106
138024,-1412.0,306.0,-6712.0,0.204,-0.447,0.863,0.115
138041,-1922.0,-58.0,-6278.0,0.226,-0.447,0.857,0.124
138057,-2450.0,250.0,-5828.0,0.247,-0.446,0.85,0.132
138073,-2964.0,-10.0,-5284.0,0.268,-0.445,0.843,0.14
138100,-3122.0,224.0,-4944.0,0.289,-0.444,0.836,0.147
138116,-3070.0,-206.0,-4776.0,0.309,-0.44,0.829,0.152
138132,-3116.0,-254.0,-4614.0,0.328,-0.437,0.823,0.157
138148,-3896.0,246.0,-3738.0,0.346,-0.433,0.817,0.161
138164,-3676.0,-194.0,-3846.0,0.362,-0.43,0.81,0.165
138181,-4014.0,-156.0,-3504.0,0.378,-0.427,0.804,0.168
138197,-4614.0,258.0,-3128.0,0.393,-0.424,0.798,0.171
138223,-5088.0,130.0,-2432.0,0.406,-0.421,0.792,0.174
138240,-5252.0,34.0,-2482.0,0.417,-0.419,0.787,0.177
138258,-5922.0,160.0,-1974.0,0.427,-0.418,0.782,0.179
138275,-5962.0,-24.0,-2118.0,0.436,-0.416,0.777,0.181
138292,-6346.0,232.0,-1742.0,0.443,-0.415,0.773,0.183
138309,-6602.0,116.0,-1954.0,0.449,-0.414,0.77,0.186
138326,-6726.0,-68.0,-2034.0,0.453,-0.413,0.768,0.187
138343,-7094.0,-76.0,-1992.0,0.456,-0.412,0.766,0.188
138360,-6958.0,-214.0,-2234.0,0.458,-0.411,0.765,0.189
138377,-6732.0,-100.0,-2220.0,0.458,-0.411,0.765,0.19
138394,-6218.0,-656.0,-2570.0,0.458,-0.411,0.766,0.189
138410,-6790.0,-214.0,-2414.0,0.456,-0.411,0.767,0.188
138436,-7042.0,-430.0,-2054.0,0.453,-0.411,0.769,0.187
138452,-6914.0,-450.0,-1950.0,0.449,-0.411,0.771,0.186
138468,-6466.0,-688.0,-2204.0,0.444,-0.411,0.775,0.184
138484,-6380.0,-608.0,-2292.0,0.437,-0.411,0.779,0.182
138500,-6592.0,-496.0,-2120.0,0.429,-0.411,0.784,0.18
138516,-6156.0,-316.0,-2312.0,0.42,-0.411,0.789,0.178
138542,-5688.0,-464.0,-2668.0,0.41,-0.411,0.795,0.177
138558,-5308.0,-532.0,-3100.0,0.398,-0.41,0.802,0.174
138574,-5304.0,-128.0,-3148.0,0.384,-0.409,0.809,0.172
138590,-5266.0,8.0,-3418.0,0.37,-0.408,0.817,0.169
138606,-5390.0,-98.0,-3250.0,0.356,-0.407,0.825,0.168
138623,-4050.0,-478.0,-4450.0,0.339,-0.405,0.833,0.165
138649,-4562.0,132.0,-4290.0,0.322,-0.403,0.841,0.161
138666,-4710.0,964.0,-4050.0,0.304,-0.401,0.85,0.157
138683,-4092.0,-388.0,-4778.0,0.286,-0.398,0.858,0.155
138700,-4272.0,226.0,-4734.0,0.266,-0.396,0.866,0.151
138717,-3530.0,336.0,-5496.0,0.246,-0.395,0.873,0.146
138733,-4132.0,1164.0,-4924.0,0.225,-0.392,0.88,0.142
138749,-3252.0,-28.0,-5602.0,0.204,-0.39,0.888,0.137
138766,-2774.0,368.0,-6522.0,0.184,-0.386,0.894,0.132
138782,-2548.0,936.0,-6030.0,0.163,-0.383,0.901,0.124
138799,-1518.0,880.0,-6764.0,0.141,-0.38,0.907,0.115
138825,-2754.0,1092.0,-5976.0,0.119,-0.375,0.913,0.107
138841,-632.0,818.0,-7816.0,0.098,-0.37,0.918,0.099
138857,-1708.0,630.0,-6952.0,0.076,-0.366,0.923,0.089
138873,-90.0,1096.0,-7590.0,0.053,-0.362,0.927,0.078
138889,-1218.0,672.0,-6854.0,0.03,-0.358,0.931,0.067
138915,-1826.0,2104.0,-5694.0,0.008,-0.353,0.934,0.057
138931,3470.0,-826.0,-9436.0,0.015,0.347,-0.937,-0.047
138948,420.0,1568.0,-7850.0,0.039,0.343,-0.938,-0.033
138964,500.0,2452.0,-6972.0,0.064,0.338,-0.939,-0.022
138981,1814.0,364.0,-7760.0,0.087,0.331,-0.939,-0.013
138997,942.0,1622.0,-7466.0,0.108,0.325,-0.94,-0.006
139014,3402.0,210.0,-8192.0,0.131,0.319,-0.939,0.004
139031,4150.0,978.0,-9262.0,0.154,0.315,-0.937,0.013
139048,2474.0,2698.0,-7798.0,0.177,0.31,-0.934,0.019
139065,4568.0,796.0,-8882.0,0.199,0.305,-0.931,0.022
139091,6204.0,1460.0,-9476.0,0.225,0.3,-0.927,0.029
139108,5152.0,2046.0,-9370.0,0.25,0.296,-0.921,0.033
139124,4382.0,2886.0,-8376.0,0.275,0.29,-0.916,0.034
139140,6086.0,584.0,-8594.0,0.299,0.285,-0.91,0.034
139157,5914.0,1614.0,-8718.0,0.323,0.28,-0.903,0.034
139173,7290.0,890.0,-9204.0,0.347,0.276,-0.896,0.035
139190,6734.0,2622.0,-8374.0,0.369,0.272,-0.888,0.037
139207,6940.0,2518.0,-7942.0,0.388,0.267,-0.881,0.037
139233,6894.0,2024.0,-7736.0,0.405,0.261,-0.876,0.036
139249,7170.0,1744.0,-7762.0,0.419,0.255,-0.87,0.037
139265,7282.0,1800.0,-7640.0,0.432,0.25,-0.865,0.039
139281,6826.0,2896.0,-7020.0,0.444,0.244,-0.861,0.042
139297,7250.0,1928.0,-7386.0,0.453,0.238,-0.858,0.045
139314,6044.0,2474.0,-6742.0,0.459,0.233,-0.856,0.047
139331,6302.0,1626.0,-6920.0,0.464,0.229,-0.854,0.049
139348,6142.0,2180.0,-6996.0,0.467,0.226,-0.853,0.051
139374,5914.0,2168.0,-6832.0,0.47,0.224,-0.852,0.053
139390,5968.0,2686.0,-6798.0,0.471,0.222,-0.852,0.054
139407,6220.0,2066.0,-6980.0,0.472,0.22,-0.852,0.055
139423,6002.0,1892.0,-7042.0,0.472,0.22,-0.852,0.057
139439,5512.0,2438.0,-6838.0,0.471,0.221,-0.852,0.058
139455,5358.0,2430.0,-6814.0,0.469,0.223,-0.853,0.058
139481,5840.0,1898.0,-7036.0,0.466,0.225,-0.854,0.059
139498,5646.0,2308.0,-7044.0,0.461,0.228,-0.855,0.059
139515,5856.0,2304.0,-7296.0,0.456,0.232,-0.857,0.058
139531,5848.0,2348.0,-7336.0,0.449,0.236,-0.86,0.057
139548,5844.0,2032.0,-7412.0,0.441,0.24,-0.863,0.057
139565,5694.0,2256.0,-7404.0,0.432,0.245,-0.866,0.056
139582,5976.0,1880.0,-7636.0,0.421,0.25,-0.87,0.054
139598,5782.0,2184.0,-7602.0,0.41,0.255,-0.874,0.053
139615,5376.0,2152.0,-7668.0,0.398,0.261,-0.878,0.05
139632,5314.0,2044.0,-7724.0,0.385,0.267,-0.882,0.048
139658,5626.0,1922.0,-8090.0,0.37,0.274,-0.886,0.045
139674,5236.0,1984.0,-8036.0,0.355,0.28,-0.891,0.042
139690,5320.0,1908.0,-8300.0,0.339,0.287,-0.895,0.038
139706,5014.0,1926.0,-8316.0,0.322,0.294,-0.899,0.035
139722,5242.0,2244.0,-8642.0,0.304,0.3,-0.904,0.031
139738,5028.0,1992.0,-8716.0,0.286,0.306,-0.908,0.027
139755,4982.0,1818.0,-8914.0,0.266,0.312,-0.912,0.022
139782,4158.0,1908.0,-8784.0,0.245,0.317,-0.916,0.017
139798,3958.0,2058.0,-8800.0,0.224,0.323,-0.92,0.012
139814,4586.0,1870.0,-9414.0,0.202,0.328,-0.923,0.006
139831,3400.0,2170.0,-8992.0,0.179,0.332,-0.926,0.0
139847,3314.0,1314.0,-8962.0,0.157,0.336,-0.929,-0.006
139864,2446.0,1774.0,-8786.0,0.133,0.34,-0.931,-0.013
139881,2384.0,1572.0,-8994.0,0.108,0.344,-0.933,-0.021
139898,2116.0,1506.0,-8902.0,0.084,0.347,-0.934,-0.03
139915,1872.0,1788.0,-8836.0,0.059,0.351,-0.934,-0.039
139941,910.0,1448.0,-8334.0,0.034,0.354,-0.933,-0.048
139957,650.0,1368.0,-8034.0,0.01,0.358,-0.932,-0.058
139973,542.0,1354.0,-8134.0,0.014,-0.361,0.93,0.068
139989,152.0,1506.0,-7870.0,0.038,-0.365,0.927,0.078
140006,-526.0,828.0,-7360.0,0.061,-0.368,0.924,0.087
140023,-754.0,1484.0,-7392.0,0.085,-0.372,0.919,0.097
140040,-732.0,1072.0,-7454.0,0.108,-0.375,0.914,0.107
140056,-1022.0,1026.0,-7146.0,0.131,-0.378,0.909,0.117
140083,-1416.0,1130.0,-6902.0,0.154,-0.382,0.903,0.126
140099,-1980.0,564.0,-6480.0,0.176,-0.385,0.896,0.134
140115,-2066.0,1026.0,-6330.0,0.198,-0.387,0.889,0.142
140131,-2504.0,610.0,-5634.0,0.22,-0.39,0.882,0.149
140147,-2298.0,480.0,-6074.0,0.241,-0.392,0.874,0.156
140164,-2482.0,332.0,-5648.0,0.261,-0.394,0.867,0.161
140181,-2784.0,620.0,-5672.0,0.281,-0.395,0.859,0.166
140198,-4016.0,678.0,-4722.0,0.301,-0.396,0.851,0.17
140224,-3472.0,214.0,-4916.0,0.321,-0.395,0.843,0.173
140240,-3782.0,232.0,-4858.0,0.34,-0.394,0.835,0.176
140256,-3878.0,28.0,-4590.0,0.359,-0.393,0.828,0.176
140272,-4608.0,180.0,-4246.0,0.377,-0.392,0.82,0.177
140288,-5042.0,218.0,-4004.0,0.396,-0.39,0.812,0.177
140304,-5112.0,-242.0,-4200.0,0.414,-0.388,0.804,0.177
140321,-5884.0,-248.0,-3516.0,0.432,-0.386,0.796,0.176
140347,-5972.0,34.0,-3260.0,0.45,-0.384,0.787,0.175
140364,-6294.0,-116.0,-2966.0,0.468,-0.381,0.778,0.174
140381,-6788.0,-462.0,-2506.0,0.485,-0.379,0.769,0.173
140397,-7008.0,-270.0,-2294.0,0.502,-0.375,0.759,0.172
140414,-7308.0,-26.0,-1814.0,0.519,-0.372,0.75,0.172
140430,-7642.0,-662.0,-1100.0,0.535,-0.371,0.739,0.174
140447,-7786.0,-474.0,-724.0,0.55,-0.37,0.728,0.176
140464,-7876.0,-796.0,-174.0,0.564,-0.369,0.717,0.179
140490,-7390.0,-602.0,118.0,0.577,-0.368,0.706,0.183
140506,-7082.0,-628.0,364.0,0.588,-0.367,0.696,0.186
140523,-7078.0,-906.0,700.0,0.597,-0.368,0.687,0.189
140539,-6892.0,-1090.0,986.0,0.604,-0.368,0.68,0.191
140556,-6850.0,-902.0,1094.0,0.609,-0.37,0.674,0.193
140573,-6560.0,-1056.0,894.0,0.612,-0.373,0.67,0.195
140589,-6782.0,-1368.0,956.0,0.613,-0.375,0.667,0.196
140606,-6662.0,-1518.0,772.0,0.612,-0.379,0.666,0.196
140623,-6744.0,-1720.0,596.0,0.61,-0.382,0.666,0.195
140640,-7080.0,-1562.0,596.0,0.607,-0.385,0.668,0.193
140666,-6960.0,-1898.0,310.0,0.603,-0.388,0.67,0.19
140682,-7158.0,-1670.0,130.0,0.599,-0.391,0.673,0.188
140698,-6756.0,-2008.0,12.0,0.594,-0.394,0.677,0.184
140714,-6592.0,-1310.0,-292.0,0.587,-0.396,0.683,0.181
140731,-6918.0,-1862.0,-152.0,0.58,-0.397,0.689,0.177
140748,-7304.0,-1976.0,-90.0,0.573,-0.398,0.696,0.173
140764,-6740.0,-1490.0,-694.0,0.564,-0.398,0.703,0.17
140790,-6460.0,-1490.0,-1068.0,0.554,-0.397,0.712,0.167
140806,-6598.0,-1544.0,-1252.0,0.543,-0.395,0.723,0.162
140823,-6586.0,-1222.0,-1480.0,0.531,-0.392,0.735,0.158
140840,-6580.0,-1062.0,-1652.0,0.518,-0.388,0.746,0.155
140857,-5974.0,-1064.0,-2052.0,0.504,-0.385,0.758,0.152
140873,-5538.0,-1082.0,-2476.0,0.488,-0.382,0.77,0.149
140889,-6010.0,-608.0,-2510.0,0.472,-0.378,0.783,0.146
140915,-5746.0,-494.0,-2934.0,0.454,-0.374,0.795,0.145
140932,-5940.0,-472.0,-3194.0,0.435,-0.371,0.807,0.144
140948,-5490.0,-692.0,-3606.0,0.415,-0.368,0.819,0.142
140965,-5504.0,-442.0,-3760.0,0.395,-0.365,0.831,0.141
140981,-5644.0,192.0,-3784.0,0.375,-0.362,0.842,0.14
140997,-5092.0,458.0,-4438.0,0.353,-0.36,0.852,0.14
141014,-4782.0,-518.0,-4650.0,0.332,-0.356,0.862,0.14
141030,-4546.0,586.0,-4750.0,0.31,-0.354,0.872,0.139
141047,-3772.0,-78.0,-5420.0,0.286,-0.351,0.881,0.138
141073,-4310.0,760.0,-5042.0,0.263,-0.347,0.889,0.137
141089,-3956.0,342.0,-5286.0,0.24,-0.343,0.898,0.135
141106,-2818.0,506.0,-6076.0,0.215,-0.338,0.907,0.132
141122,-4206.0,1464.0,-5074.0,0.19,-0.333,0.914,0.13
141138,-1788.0,-116.0,-6268.0,0.166,-0.326,0.922,0.126
141155,-2522.0,1168.0,-6874.0,0.142,-0.319,0.929,0.121
141172,-1858.0,1980.0,-6590.0,0.118,-0.313,0.936,0.114
141199,58.0,312.0,-7560.0,0.093,-0.306,0.942,0.107
141215,-2148.0,1412.0,-6210.0,0.068,-0.297,0.947,0.098
141231,316.0,1476.0,-7572.0,0.043,-0.288,0.952,0.089
141247,1528.0,882.0,-8466.0,0.015,-0.281,0.957,0.077
141263,1194.0,1164.0,-8346.0,0.012,0.274,-0.959,-0.064
141280,-720.0,2108.0,-7114.0,0.037,0.267,-0.961,-0.054
141297,2104.0,388.0,-8244.0,0.061,0.26,-0.963,-0.043
141313,3552.0,420.0,-9810.0,0.086,0.254,-0.963,-0.031
141330,2014.0,2248.0,-8826.0,0.11,0.249,-0.962,-0.019
141356,3044.0,1180.0,-8644.0,0.135,0.245,-0.96,-0.008
141372,2468.0,2334.0,-8406.0,0.156,0.241,-0.958,0.001
141388,3960.0,1354.0,-8798.0,0.179,0.238,-0.955,0.008
141404,5380.0,602.0,-9586.0,0.203,0.236,-0.95,0.017
141420,2882.0,3028.0,-7824.0,0.227,0.235,-0.945,0.024
141446,4442.0,1574.0,-8028.0,0.249,0.232,-0.94,0.028
141463,5672.0,974.0,-9728.0,0.271,0.229,-0.934,0.03
141480,4256.0,2052.0,-8032.0,0.295,0.229,-0.927,0.035
141497,6874.0,1752.0,-9032.0,0.317,0.227,-0.92,0.036
141513,5262.0,2074.0,-7954.0,0.337,0.225,-0.914,0.037
141530,6546.0,950.0,-8782.0,0.355,0.224,-0.907,0.037
141547,7670.0,2896.0,-7968.0,0.371,0.221,-0.901,0.037
141563,5948.0,1178.0,-8614.0,0.387,0.219,-0.895,0.037
141579,6532.0,1428.0,-8162.0,0.4,0.215,-0.89,0.037
141606,6004.0,1934.0,-7782.0,0.41,0.212,-0.886,0.038
141622,5610.0,2454.0,-7580.0,0.419,0.208,-0.883,0.038
141639,6306.0,1002.0,-7874.0,0.426,0.203,-0.881,0.038
141655,5622.0,2240.0,-7380.0,0.433,0.2,-0.878,0.039
141671,5816.0,1614.0,-7434.0,0.439,0.197,-0.876,0.04
141687,5262.0,2026.0,-7238.0,0.444,0.194,-0.874,0.041
141704,5692.0,2138.0,-7516.0,0.447,0.191,-0.873,0.041
141720,5778.0,1340.0,-7472.0,0.449,0.189,-0.872,0.042
141746,5448.0,1708.0,-7260.0,0.451,0.189,-0.871,0.042
141763,5420.0,1842.0,-7176.0,0.451,0.189,-0.871,0.043
141780,5788.0,1714.0,-7546.0,0.451,0.19,-0.871,0.043
141796,5328.0,2220.0,-7446.0,0.449,0.191,-0.872,0.044
141813,5806.0,1574.0,-7472.0,0.447,0.192,-0.873,0.045
141830,5494.0,1628.0,-7384.0,0.444,0.195,-0.873,0.045
141846,4890.0,1930.0,-7176.0,0.439,0.199,-0.875,0.046
141862,5354.0,2000.0,-7444.0,0.434,0.202,-0.877,0.046
141879,5876.0,1874.0,-7896.0,0.427,0.206,-0.879,0.047
141905,5906.0,1854.0,-7754.0,0.42,0.21,-0.882,0.047
141921,5322.0,1718.0,-7612.0,0.411,0.214,-0.885,0.048
141938,5716.0,1896.0,-7894.0,0.4,0.218,-0.889,0.048
141954,5632.0,1360.0,-8074.0,0.388,0.223,-0.893,0.047
141971,5760.0,1704.0,-8342.0,0.375,0.229,-0.897,0.047
141988,5494.0,1550.0,-8450.0,0.361,0.235,-0.901,0.047
142005,5276.0,1586.0,-8578.0,0.346,0.24,-0.906,0.047
142022,5208.0,1686.0,-8738.0,0.329,0.245,-0.911,0.046
142038,5068.0,1350.0,-8912.0,0.312,0.25,-0.916,0.045
142064,4734.0,1394.0,-8954.0,0.293,0.256,-0.92,0.042
142081,4480.0,1568.0,-9084.0,0.274,0.261,-0.925,0.039
142097,4182.0,1280.0,-9078.0,0.254,0.266,-0.929,0.036
142114,3938.0,1568.0,-9380.0,0.233,0.271,-0.934,0.031
142131,3476.0,1476.0,-9164.0,0.211,0.276,-0.937,0.026
142147,3692.0,1098.0,-9582.0,0.189,0.28,-0.941,0.02
142163,2660.0,1654.0,-9228.0,0.166,0.284,-0.944,0.014
142180,2682.0,1394.0,-9066.0,0.143,0.288,-0.947,0.007
142206,2854.0,1152.0,-9522.0,0.119,0.291,-0.949,-0.0
142222,2150.0,934.0,-9294.0,0.095,0.294,-0.951,-0.008
142238,1624.0,1348.0,-9056.0,0.07,0.298,-0.952,-0.015
142255,1302.0,658.0,-8656.0,0.046,0.3,-0.953,-0.022
142272,1104.0,1336.0,-8632.0,0.02,0.302,-0.952,-0.03
142289,1098.0,676.0,-8478.0,0.004,-0.304,0.952,0.037
142305,768.0,986.0,-8536.0,0.029,-0.306,0.95,0.044
142322,512.0,698.0,-8190.0,0.053,-0.308,0.949,0.051
142348,336.0,536.0,-7466.0,0.077,-0.31,0.946,0.056
142364,-290.0,674.0,-7822.0,0.101,-0.311,0.943,0.062
142380,-740.0,552.0,-7510.0,0.125,-0.312,0.939,0.068
142396,-982.0,796.0,-7424.0,0.149,-0.313,0.935,0.073
142413,-1532.0,80.0,-6882.0,0.173,-0.314,0.93,0.078
142429,-1828.0,612.0,-6720.0,0.196,-0.315,0.925,0.083
142446,-2228.0,506.0,-6444.0,0.219,-0.316,0.919,0.088
142463,-2310.0,394.0,-6172.0,0.242,-0.316,0.912,0.093
142489,-2552.0,490.0,-5862.0,0.264,-0.317,0.906,0.097
142505,-3220.0,-200.0,-5386.0,0.285,-0.317,0.899,0.102
142522,-3098.0,236.0,-5292.0,0.306,-0.315,0.892,0.105
142538,-3308.0,70.0,-5144.0,0.327,-0.314,0.885,0.109
142555,-3886.0,224.0,-4674.0,0.346,-0.312,0.878,0.112
142572,-3792.0,-18.0,-4524.0,0.364,-0.309,0.871,0.115
142589,-4202.0,-4.0,-4390.0,0.381,-0.307,0.864,0.118
142605,-4590.0,40.0,-3926.0,0.398,-0.304,0.857,0.12
142631,-4906.0,-62.0,-3608.0,0.414,-0.301,0.85,0.122
142647,-5106.0,-222.0,-3946.0,0.43,-0.298,0.843,0.123
142663,-5556.0,-60.0,-3576.0,0.445,-0.295,0.836,0.125
142679,-5584.0,-122.0,-3472.0,0.461,-0.292,0.829,0.126
142696,-6116.0,-342.0,-3160.0,0.476,-0.289,0.821,0.127
142713,-6264.0,-174.0,-3154.0,0.491,-0.287,0.813,0.127
142730,-6674.0,-368.0,-2666.0,0.506,-0.285,0.804,0.127
142747,-6976.0,-110.0,-2580.0,0.522,-0.284,0.794,0.128
142773,-6992.0,-206.0,-2434.0,0.538,-0.283,0.784,0.128
142789,-7330.0,-690.0,-1924.0,0.554,-0.282,0.772,0.128
142806,-7364.0,52.0,-1522.0,0.57,-0.282,0.761,0.128
142822,-7608.0,-502.0,-978.0,0.586,-0.283,0.748,0.13
142838,-7864.0,-440.0,-330.0,0.601,-0.285,0.735,0.132
142855,-7948.0,-500.0,444.0,0.616,-0.286,0.722,0.134
142871,-8150.0,-468.0,886.0,0.629,-0.287,0.709,0.137
142897,-7944.0,-672.0,1398.0,0.641,-0.288,0.697,0.141
142914,-7498.0,-764.0,1682.0,0.652,-0.29,0.686,0.145
142930,-7504.0,-912.0,2036.0,0.661,-0.291,0.676,0.149
142947,-7234.0,-798.0,2310.0,0.667,-0.293,0.668,0.153
142964,-6900.0,-1136.0,2272.0,0.671,-0.294,0.662,0.156
142980,-6760.0,-1270.0,2366.0,0.673,-0.296,0.659,0.158
142996,-7060.0,-1152.0,2462.0,0.673,-0.298,0.658,0.161
143013,-7094.0,-1224.0,2232.0,0.672,-0.3,0.657,0.163
143030,-6998.0,-1398.0,2032.0,0.669,-0.302,0.659,0.165
143056,-6528.0,-1616.0,1612.0,0.666,-0.303,0.662,0.166
143072,-6770.0,-1574.0,1520.0,0.661,-0.305,0.666,0.165
143092,-6836.0,-1336.0,1400.0,0.655,-0.306,0.671,0.165
143109,-6706.0,-1466.0,1084.0,0.649,-0.306,0.677,0.164
143125,-6522.0,-1602.0,780.0,0.641,-0.307,0.684,0.163
143141,-6654.0,-1612.0,680.0,0.633,-0.306,0.693,0.161
143157,-6804.0,-1124.0,412.0,0.624,-0.305,0.702,0.159
143173,-6736.0,-1212.0,230.0,0.614,-0.304,0.712,0.158
143189,-6590.0,-1136.0,-80.0,0.603,-0.302,0.722,0.156
143215,-6578.0,-946.0,-326.0,0.591,-0.297,0.734,0.153
143231,-6378.0,-804.0,-600.0,0.578,-0.292,0.747,0.15
143247,-6236.0,-518.0,-652.0,0.564,-0.286,0.76,0.148
143263,-5924.0,-334.0,-1288.0,0.548,-0.28,0.774,0.147
143279,-6004.0,-498.0,-1424.0,0.531,-0.274,0.788,0.146
143296,-6212.0,170.0,-1524.0,0.513,-0.269,0.802,0.145
143323,-6068.0,118.0,-1814.0,0.494,-0.263,0.816,0.145
143339,-5588.0,426.0,-2154.0,0.474,-0.257,0.829,0.147
143355,-5062.0,226.0,-2768.0,0.452,-0.252,0.843,0.148
143371,-5554.0,538.0,-2726.0,0.428,-0.248,0.856,0.151
143388,-5240.0,858.0,-3190.0,0.404,-0.244,0.868,0.155
143405,-5148.0,534.0,-3418.0,0.379,-0.24,0.879,0.159
143421,-4852.0,1356.0,-3596.0,0.354,-0.236,0.89,0.162
143438,-3816.0,584.0,-4474.0,0.327,-0.232,0.901,0.165
143454,-4546.0,1756.0,-4058.0,0.3,-0.226,0.911,0.168
143481,-3890.0,2266.0,-4488.0,0.273,-0.22,0.921,0.171
143497,-2674.0,290.0,-5654.0,0.247,-0.213,0.929,0.174
143513,-2786.0,2614.0,-5328.0,0.218,-0.207,0.938,0.175
143529,-1644.0,1054.0,-5686.0,0.187,-0.199,0.946,0.175
143546,-1772.0,2336.0,-6092.0,0.158,-0.191,0.953,0.175
143563,-1140.0,2572.0,-6536.0,0.129,-0.181,0.959,0.173
143579,244.0,1308.0,-7518.0,0.099,-0.172,0.965,0.171
143606,-1064.0,2918.0,-6618.0,0.068,-0.164,0.97,0.166
143622,310.0,2138.0,-7036.0,0.037,-0.154,0.974,0.161
143638,-176.0,2742.0,-6902.0,0.007,-0.144,0.977,0.157
143654,4298.0,1452.0,-9738.0,0.023,0.135,-0.979,-0.149
143671,1124.0,2602.0,-8120.0,0.054,0.128,-0.98,-0.141
143688,2622.0,2822.0,-8406.0,0.085,0.122,-0.98,-0.132
143705,3056.0,2164.0,-8870.0,0.113,0.115,-0.979,-0.124
143721,2788.0,3202.0,-8644.0,0.143,0.109,-0.977,-0.114
143738,4660.0,2806.0,-9482.0,0.171,0.105,-0.974,-0.105
143755,3478.0,2942.0,-8650.0,0.199,0.103,-0.97,-0.097
143782,4464.0,2506.0,-9028.0,0.224,0.1,-0.965,-0.089
143798,5434.0,2902.0,-9810.0,0.247,0.099,-0.961,-0.08
143814,4914.0,3642.0,-9480.0,0.271,0.099,-0.955,-0.073
143830,5138.0,2912.0,-9052.0,0.293,0.099,-0.949,-0.067
143846,5130.0,2970.0,-8472.0,0.313,0.099,-0.943,-0.062
143863,6138.0,2172.0,-9040.0,0.331,0.099,-0.937,-0.057
143879,6298.0,3670.0,-9082.0,0.349,0.099,-0.93,-0.052
143905,6642.0,3036.0,-8680.0,0.366,0.097,-0.924,-0.049
143921,6006.0,3038.0,-7866.0,0.38,0.094,-0.919,-0.047
143937,5854.0,3558.0,-7710.0,0.392,0.091,-0.914,-0.046
143953,6332.0,2706.0,-8094.0,0.403,0.089,-0.91,-0.045
143969,6034.0,3152.0,-7672.0,0.413,0.087,-0.906,-0.044
143986,5760.0,3290.0,-7242.0,0.422,0.084,-0.902,-0.044
144003,5920.0,3248.0,-7234.0,0.429,0.081,-0.898,-0.044
144029,6164.0,2582.0,-7426.0,0.436,0.078,-0.895,-0.045
144045,5684.0,2764.0,-7232.0,0.443,0.076,-0.892,-0.045
144062,5722.0,2644.0,-7170.0,0.448,0.075,-0.89,-0.046
144079,5302.0,2880.0,-6944.0,0.452,0.074,-0.888,-0.046
144096,5532.0,2552.0,-7116.0,0.454,0.073,-0.887,-0.047
144113,5686.0,2658.0,-7336.0,0.455,0.073,-0.886,-0.047
144129,5760.0,2550.0,-7514.0,0.455,0.074,-0.886,-0.046
144146,5340.0,2672.0,-7446.0,0.454,0.076,-0.886,-0.046
144162,5018.0,2866.0,-7254.0,0.452,0.077,-0.888,-0.045
144189,5406.0,2642.0,-7472.0,0.448,0.08,-0.889,-0.044
144205,5476.0,2464.0,-7556.0,0.444,0.083,-0.891,-0.042
144222,5328.0,2666.0,-7560.0,0.439,0.088,-0.893,-0.04
144239,5024.0,2734.0,-7432.0,0.432,0.092,-0.896,-0.037
144255,5278.0,2362.0,-7546.0,0.425,0.097,-0.9,-0.035
144271,5836.0,2450.0,-7984.0,0.416,0.101,-0.903,-0.032
144288,5462.0,2194.0,-7928.0,0.406,0.109,-0.907,-0.028
144305,5726.0,2260.0,-8060.0,0.395,0.117,-0.911,-0.025
144321,5194.0,2332.0,-7930.0,0.382,0.126,-0.915,-0.022
144348,5440.0,2402.0,-8316.0,0.368,0.133,-0.92,-0.019
144365,5372.0,2140.0,-8454.0,0.353,0.141,-0.925,-0.016
144382,5464.0,2030.0,-8522.0,0.337,0.148,-0.93,-0.014
144399,5146.0,2474.0,-8502.0,0.32,0.155,-0.935,-0.012
144415,4772.0,1772.0,-8636.0,0.301,0.162,-0.94,-0.011
144432,4788.0,2184.0,-9022.0,0.281,0.168,-0.945,-0.01
144448,4342.0,2056.0,-8976.0,0.26,0.174,-0.95,-0.011
144465,4362.0,1932.0,-9118.0,0.239,0.18,-0.954,-0.012
144481,3904.0,1938.0,-9056.0,0.217,0.186,-0.958,-0.014
144507,3316.0,1858.0,-9092.0,0.194,0.192,-0.962,-0.016
144523,3150.0,1858.0,-9206.0,0.171,0.196,-0.965,-0.019
144539,2718.0,1746.0,-8910.0,0.148,0.2,-0.968,-0.022
144555,2386.0,1602.0,-8836.0,0.124,0.205,-0.971,-0.026
144571,1984.0,1748.0,-8956.0,0.099,0.209,-0.972,-0.031
144587,1714.0,1610.0,-8690.0,0.074,0.213,-0.973,-0.035
144614,1680.0,1554.0,-8896.0,0.05,0.217,-0.974,-0.041
144631,1322.0,1064.0,-8600.0,0.025,0.22,-0.974,-0.045
144648,1304.0,1496.0,-8064.0,0.001,0.224,-0.973,-0.05
144665,272.0,1050.0,-8194.0,0.023,-0.227,0.972,0.055
144681,-72.0,1366.0,-7706.0,0.048,-0.23,0.97,0.06
144698,-268.0,1002.0,-7660.0,0.072,-0.233,0.968,0.065
144714,-410.0,1198.0,-7494.0,0.096,-0.236,0.965,0.07
144731,-818.0,800.0,-7252.0,0.118,-0.238,0.961,0.074
144747,-948.0,1080.0,-7236.0,0.14,-0.241,0.957,0.078
144773,-1322.0,616.0,-6858.0,0.162,-0.244,0.953,0.081
144789,-2188.0,874.0,-6252.0,0.184,-0.246,0.948,0.085
144805,-1834.0,644.0,-6748.0,0.207,-0.248,0.942,0.089
144822,-2410.0,832.0,-6322.0,0.229,-0.251,0.936,0.093
144839,-2432.0,748.0,-6218.0,0.25,-0.253,0.93,0.096
144856,-2530.0,96.0,-6334.0,0.27,-0.255,0.923,0.099
144872,-3446.0,1154.0,-5612.0,0.29,-0.257,0.916,0.101
144898,-3822.0,514.0,-5500.0,0.309,-0.259,0.909,0.104
144914,-3878.0,662.0,-5412.0,0.33,-0.259,0.901,0.107
144930,-4546.0,426.0,-4892.0,0.349,-0.26,0.894,0.11
144946,-3652.0,584.0,-5342.0,0.368,-0.26,0.885,0.113
144963,-4216.0,638.0,-4898.0,0.387,-0.26,0.877,0.116
144979,-4646.0,782.0,-4516.0,0.405,-0.261,0.868,0.118
144995,-5078.0,-134.0,-3952.0,0.423,-0.261,0.859,0.121
145012,-5000.0,240.0,-3970.0,0.441,-0.261,0.85,0.124
145038,-5206.0,96.0,-3640.0,0.458,-0.261,0.841,0.126
145054,-5470.0,204.0,-3418.0,0.474,-0.26,0.831,0.129
145071,-5602.0,-34.0,-3450.0,0.491,-0.259,0.822,0.131
145088,-6244.0,-114.0,-2754.0,0.506,-0.259,0.812,0.132
145104,-6610.0,-226.0,-2412.0,0.522,-0.258,0.802,0.133
145120,-6902.0,-138.0,-2252.0,0.538,-0.257,0.792,0.134
145137,-6880.0,-382.0,-1912.0,0.554,-0.255,0.781,0.134
145154,-7140.0,-448.0,-1416.0,0.57,-0.253,0.77,0.134
145171,-6914.0,-552.0,-1304.0,0.585,-0.251,0.759,0.133
145198,-7394.0,-794.0,-486.0,0.601,-0.248,0.748,0.131
145214,-7474.0,-896.0,10.0,0.615,-0.246,0.737,0.129
145230,-7104.0,-344.0,458.0,0.629,-0.244,0.727,0.127
145246,-7444.0,-624.0,1392.0,0.641,-0.241,0.718,0.125
145262,-7422.0,-580.0,1904.0,0.652,-0.238,0.709,0.124
145278,-7776.0,-380.0,2668.0,0.662,-0.235,0.701,0.122
145305,-7796.0,-608.0,2784.0,0.671,-0.232,0.694,0.121
145321,-7632.0,-754.0,3012.0,0.677,-0.229,0.689,0.119
145337,-7508.0,-182.0,2958.0,0.682,-0.227,0.685,0.117
145354,-7328.0,-464.0,2830.0,0.685,-0.225,0.684,0.116
145371,-7182.0,-458.0,2556.0,0.685,-0.223,0.684,0.114
145387,-7412.0,-664.0,2582.0,0.684,-0.222,0.685,0.112
145404,-7382.0,-610.0,2216.0,0.682,-0.223,0.688,0.112
145420,-6996.0,-878.0,1656.0,0.678,-0.223,0.692,0.111
145437,-6948.0,-652.0,1346.0,0.673,-0.225,0.696,0.111
145454,-6920.0,-768.0,1144.0,0.667,-0.227,0.701,0.111
145480,-7164.0,-822.0,1032.0,0.66,-0.23,0.706,0.112
145496,-7226.0,-834.0,836.0,0.653,-0.234,0.711,0.114
145513,-7348.0,-940.0,634.0,0.645,-0.239,0.716,0.116
145529,-7278.0,-888.0,500.0,0.637,-0.245,0.721,0.12
145545,-7098.0,-1060.0,274.0,0.628,-0.25,0.727,0.123
145562,-6944.0,-676.0,84.0,0.619,-0.254,0.733,0.126
145578,-6598.0,-680.0,-166.0,0.608,-0.258,0.739,0.129
145605,-6608.0,-770.0,-278.0,0.596,-0.262,0.747,0.133
145621,-6520.0,-510.0,-336.0,0.583,-0.266,0.755,0.138
145637,-5982.0,-494.0,-826.0,0.569,-0.269,0.764,0.143
145654,-6306.0,-382.0,-556.0,0.553,-0.272,0.774,0.148
145671,-6278.0,-390.0,-818.0,0.536,-0.273,0.784,0.153
145687,-6312.0,38.0,-1060.0,0.517,-0.273,0.795,0.158
145704,-5854.0,-30.0,-1724.0,0.498,-0.272,0.807,0.164
145721,-6052.0,12.0,-1708.0,0.477,-0.27,0.819,0.168
145737,-6130.0,340.0,-1818.0,0.455,-0.267,0.832,0.172
145764,-6046.0,492.0,-2122.0,0.432,-0.264,0.844,0.177
145780,-5340.0,486.0,-2814.0,0.409,-0.261,0.855,0.182
145796,-5164.0,624.0,-3078.0,0.384,-0.257,0.867,0.185
145813,-4804.0,960.0,-3784.0,0.358,-0.253,0.879,0.186
145829,-5376.0,1838.0,-3542.0,0.332,-0.248,0.89,0.189
145846,-4524.0,1408.0,-4094.0,0.307,-0.242,0.901,0.19
145862,-2946.0,802.0,-5442.0,0.28,-0.237,0.911,0.189
145888,-3558.0,1930.0,-5210.0,0.253,-0.231,0.921,0.186
145905,-3362.0,2064.0,-5236.0,0.226,-0.224,0.93,0.184
145922,-2858.0,2266.0,-5582.0,0.201,-0.216,0.938,0.182
145938,-1078.0,506.0,-6782.0,0.174,-0.21,0.945,0.179
145954,-344.0,2142.0,-7242.0,0.145,-0.204,0.953,0.172
145970,-2014.0,2078.0,-6092.0,0.117,-0.198,0.959,0.166
145987,-1484.0,2904.0,-6250.0,0.09,-0.191,0.964,0.162
146004,1082.0,1822.0,-8038.0,0.062,-0.183,0.969,0.155
146030,1114.0,1250.0,-8284.0,0.032,-0.178,0.973,0.146
146046,226.0,2988.0,-7954.0,0.002,-0.173,0.975,0.137
146062,142.0,2070.0,-7562.0,0.026,0.167,-0.977,-0.127
146078,1888.0,986.0,-9228.0,0.053,0.161,-0.979,-0.116
146094,2254.0,2770.0,-9452.0,0.08,0.155,-0.979,-0.101
146111,3104.0,2084.0,-9382.0,0.109,0.151,-0.979,-0.087
146128,2970.0,1546.0,-9360.0,0.135,0.147,-0.977,-0.074
146145,2240.0,2946.0,-8948.0,0.16,0.144,-0.975,-0.061
146171,4464.0,1334.0,-10254.0,0.182,0.141,-0.972,-0.05
146187,3800.0,2528.0,-9610.0,0.204,0.14,-0.968,-0.04
146203,4212.0,2408.0,-9234.0,0.225,0.141,-0.964,-0.032
146220,4494.0,1706.0,-9364.0,0.244,0.142,-0.959,-0.026
146237,4208.0,3306.0,-8786.0,0.263,0.144,-0.954,-0.021
146253,5110.0,2618.0,-9136.0,0.281,0.144,-0.949,-0.019
146270,4508.0,3236.0,-8652.0,0.299,0.143,-0.943,-0.018
146286,4298.0,3000.0,-8110.0,0.316,0.141,-0.938,-0.02
146312,5110.0,1480.0,-8566.0,0.334,0.14,-0.932,-0.022
146328,4652.0,3346.0,-7814.0,0.351,0.139,-0.926,-0.024
146344,5734.0,1960.0,-8214.0,0.368,0.139,-0.919,-0.026
146361,5300.0,3092.0,-7326.0,0.383,0.137,-0.913,-0.028
146378,5718.0,3102.0,-7656.0,0.396,0.134,-0.908,-0.031
146394,6136.0,1926.0,-7788.0,0.407,0.132,-0.903,-0.034
146411,6450.0,2410.0,-8100.0,0.418,0.128,-0.899,-0.037
146428,5700.0,2224.0,-7628.0,0.427,0.125,-0.895,-0.039
146455,5598.0,2718.0,-7378.0,0.435,0.122,-0.891,-0.04
146472,6040.0,2810.0,-7950.0,0.44,0.119,-0.889,-0.04
146489,5664.0,2648.0,-7688.0,0.445,0.117,-0.887,-0.04
146505,5916.0,1924.0,-7908.0,0.448,0.116,-0.886,-0.038
146522,4978.0,2628.0,-7484.0,0.45,0.116,-0.885,-0.036
146538,5238.0,2294.0,-7732.0,0.45,0.117,-0.885,-0.032
146554,5136.0,2714.0,-7796.0,0.449,0.118,-0.885,-0.029
146571,5198.0,2512.0,-7830.0,0.447,0.119,-0.886,-0.025
146587,5362.0,1900.0,-7910.0,0.444,0.122,-0.887,-0.021
146614,5032.0,2466.0,-7886.0,0.44,0.125,-0.889,-0.017
146630,4908.0,2738.0,-8096.0,0.435,0.131,-0.891,-0.013
146646,5024.0,2706.0,-8272.0,0.427,0.135,-0.894,-0.01
146662,5320.0,2428.0,-8318.0,0.419,0.141,-0.897,-0.007
146678,5238.0,2294.0,-8230.0,0.41,0.145,-0.901,-0.005
146694,4910.0,2514.0,-8122.0,0.399,0.151,-0.904,-0.004
146711,5324.0,2368.0,-8424.0,0.388,0.155,-0.909,-0.002
146737,5644.0,2294.0,-8778.0,0.375,0.16,-0.913,-0.002
146753,5518.0,2318.0,-8734.0,0.361,0.164,-0.918,-0.002
146770,5424.0,1540.0,-8742.0,0.345,0.169,-0.923,-0.004
146786,4654.0,2058.0,-8688.0,0.328,0.173,-0.929,-0.006
146803,4890.0,2014.0,-9046.0,0.31,0.176,-0.934,-0.009
146819,4708.0,1856.0,-9138.0,0.29,0.179,-0.94,-0.012
146845,5034.0,1758.0,-9524.0,0.271,0.182,-0.945,-0.015
146862,3918.0,1346.0,-8986.0,0.251,0.185,-0.95,-0.019
146878,3422.0,1870.0,-8856.0,0.229,0.188,-0.955,-0.022
146894,3284.0,1790.0,-9010.0,0.206,0.191,-0.959,-0.026
146911,3396.0,1636.0,-9322.0,0.183,0.194,-0.963,-0.031
146928,2998.0,1642.0,-8972.0,0.16,0.196,-0.967,-0.035
146944,2594.0,1434.0,-8786.0,0.136,0.198,-0.97,-0.038
146961,2262.0,1330.0,-8734.0,0.112,0.2,-0.972,-0.042
146977,1680.0,1784.0,-8624.0,0.088,0.202,-0.974,-0.045
146994,1934.0,1412.0,-8880.0,0.063,0.205,-0.976,-0.049
147021,1678.0,1234.0,-8596.0,0.039,0.207,-0.976,-0.052
147037,1556.0,908.0,-8918.0,0.015,0.208,-0.976,-0.054
147053,808.0,1492.0,-8566.0,0.009,-0.21,0.976,0.055
147070,806.0,960.0,-9030.0,0.034,-0.212,0.975,0.056
147086,150.0,1166.0,-8550.0,0.06,-0.213,0.974,0.056
147102,-158.0,716.0,-8484.0,0.087,-0.214,0.971,0.057
147118,-996.0,1146.0,-7992.0,0.115,-0.215,0.968,0.058
147145,-1662.0,1304.0,-7586.0,0.143,-0.216,0.964,0.06
147161,-2020.0,588.0,-7062.0,0.171,-0.216,0.959,0.061
147177,-2046.0,1008.0,-6840.0,0.198,-0.216,0.954,0.063
147194,-2688.0,1074.0,-5994.0,0.224,-0.216,0.948,0.065
147210,-2938.0,1056.0,-5740.0,0.248,-0.215,0.942,0.067
147227,-3136.0,902.0,-5538.0,0.272,-0.213,0.936,0.07
147244,-3240.0,834.0,-5344.0,0.295,-0.212,0.929,0.073
147261,-3082.0,504.0,-5368.0,0.316,-0.209,0.922,0.075
147278,-3766.0,974.0,-4736.0,0.337,-0.207,0.915,0.078
147295,-3548.0,466.0,-4792.0,0.357,-0.205,0.908,0.081
147321,-4180.0,324.0,-4154.0,0.376,-0.203,0.9,0.084
147337,-4164.0,598.0,-4308.0,0.394,-0.201,0.893,0.087
147353,-4174.0,394.0,-4452.0,0.413,-0.199,0.884,0.089
147369,-4610.0,520.0,-4010.0,0.431,-0.198,0.876,0.091
147386,-4572.0,264.0,-4124.0,0.449,-0.198,0.866,0.093
147403,-5006.0,138.0,-3512.0,0.467,-0.198,0.857,0.095
147420,-4832.0,190.0,-3342.0,0.484,-0.198,0.847,0.096
147446,-5288.0,204.0,-2956.0,0.501,-0.198,0.837,0.097
147462,-5268.0,124.0,-2818.0,0.517,-0.199,0.827,0.097
147478,-5838.0,116.0,-2212.0,0.533,-0.2,0.816,0.098
147494,-5822.0,-400.0,-2202.0,0.548,-0.201,0.806,0.098
147511,-6050.0,114.0,-1684.0,0.563,-0.201,0.796,0.097
147527,-6256.0,82.0,-1320.0,0.576,-0.202,0.786,0.097
147544,-6610.0,-256.0,-912.0,0.589,-0.202,0.777,0.096
147570,-7284.0,-276.0,-260.0,0.601,-0.202,0.768,0.094
147586,-7726.0,-304.0,274.0,0.612,-0.203,0.758,0.093
147603,-7954.0,-454.0,620.0,0.623,-0.202,0.75,0.091
147619,-8192.0,-484.0,1122.0,0.634,-0.202,0.741,0.091
147636,-8298.0,-372.0,1590.0,0.645,-0.202,0.732,0.09
147653,-8394.0,-542.0,2076.0,0.654,-0.202,0.724,0.09
147670,-8104.0,-494.0,2406.0,0.662,-0.201,0.716,0.09
147686,-7954.0,-978.0,2450.0,0.668,-0.201,0.711,0.089
147703,-7814.0,-112.0,2560.0,0.674,-0.201,0.706,0.088
147729,-7554.0,-80.0,2344.0,0.676,-0.201,0.703,0.089
147745,-7610.0,-706.0,2098.0,0.678,-0.201,0.701,0.09
147761,-7418.0,-548.0,1998.0,0.678,-0.202,0.702,0.09
147778,-7434.0,-384.0,1932.0,0.676,-0.202,0.703,0.09
147794,-7394.0,-650.0,1888.0,0.672,-0.204,0.706,0.091
147810,-7140.0,-600.0,1588.0,0.668,-0.206,0.709,0.093
147827,-7150.0,-646.0,1426.0,0.662,-0.209,0.714,0.095
147844,-6940.0,-676.0,1132.0,0.655,-0.212,0.718,0.097
147861,-6942.0,-922.0,990.0,0.647,-0.216,0.724,0.1
147888,-6912.0,-730.0,912.0,0.639,-0.22,0.73,0.103
147904,-6532.0,-764.0,428.0,0.629,-0.222,0.737,0.105
147920,-6692.0,-914.0,424.0,0.618,-0.224,0.746,0.107
147936,-6586.0,-828.0,208.0,0.607,-0.226,0.754,0.11
147952,-6362.0,-364.0,-86.0,0.594,-0.227,0.763,0.113
147970,-6600.0,-704.0,-238.0,0.58,-0.229,0.773,0.116
147987,-6318.0,-398.0,-500.0,0.566,-0.23,0.783,0.119
148004,-6046.0,-190.0,-860.0,0.55,-0.23,0.794,0.123
148021,-5706.0,-92.0,-1220.0,0.532,-0.229,0.805,0.127
148048,-5836.0,118.0,-1296.0,0.514,-0.228,0.817,0.13
148065,-5674.0,86.0,-1744.0,0.493,-0.227,0.829,0.134
148081,-5864.0,274.0,-1952.0,0.472,-0.225,0.841,0.137
148098,-5512.0,224.0,-2474.0,0.449,-0.223,0.854,0.14
148115,-5336.0,994.0,-2640.0,0.425,-0.219,0.866,0.143
148131,-5094.0,252.0,-3024.0,0.401,-0.215,0.879,0.146
148148,-4542.0,1114.0,-3690.0,0.375,-0.212,0.89,0.149
148165,-4140.0,512.0,-4332.0,0.349,-0.209,0.901,0.151
148182,-4106.0,1332.0,-4458.0,0.321,-0.206,0.912,0.152
148199,-4248.0,1452.0,-4352.0,0.293,-0.201,0.922,0.153
148216,-3272.0,1650.0,-5036.0,0.267,-0.196,0.931,0.154
148233,-2814.0,1506.0,-5166.0,0.239,-0.19,0.939,0.156
148260,-1014.0,960.0,-6526.0,0.21,-0.185,0.948,0.154
148277,-1896.0,1362.0,-6076.0,0.18,-0.179,0.956,0.151
148294,-2930.0,2752.0,-5112.0,0.151,-0.172,0.962,0.148
148310,-1532.0,2608.0,-5650.0,0.123,-0.164,0.968,0.147
148327,2346.0,-204.0,-9176.0,0.093,-0.156,0.973,0.143
148344,316.0,2120.0,-7904.0,0.06,-0.15,0.978,0.133
148360,-966.0,3618.0,-6960.0,0.03,-0.143,0.981,0.126
148377,834.0,2524.0,-8106.0,0.003,-0.134,0.983,0.122
148393,2878.0,532.0,-9596.0,0.025,0.126,-0.985,-0.116
148410,3354.0,1774.0,-9992.0,0.057,0.121,-0.985,-0.105
148437,1948.0,3574.0,-9194.0,0.087,0.116,-0.985,-0.096
148453,2078.0,2098.0,-9114.0,0.114,0.111,-0.983,-0.088
148469,2526.0,2738.0,-9000.0,0.14,0.107,-0.981,-0.08
148486,5552.0,828.0,-11126.0,0.166,0.105,-0.978,-0.072
148502,3006.0,3054.0,-9340.0,0.193,0.105,-0.973,-0.062
148519,3808.0,2480.0,-9340.0,0.217,0.105,-0.969,-0.055
148535,3254.0,3254.0,-8618.0,0.237,0.104,-0.965,-0.051
148552,5980.0,604.0,-9848.0,0.258,0.104,-0.959,-0.045
148569,4338.0,3118.0,-9060.0,0.278,0.105,-0.954,-0.04
148596,5500.0,2736.0,-8956.0,0.299,0.106,-0.948,-0.035
148612,4670.0,2528.0,-8308.0,0.319,0.106,-0.941,-0.032
148628,4494.0,3482.0,-8078.0,0.336,0.105,-0.935,-0.03
148644,5580.0,2450.0,-8574.0,0.353,0.104,-0.929,-0.031
148660,6002.0,1862.0,-8326.0,0.37,0.104,-0.923,-0.031
148677,5482.0,3312.0,-7786.0,0.386,0.105,-0.916,-0.032
148694,5696.0,2700.0,-7102.0,0.4,0.104,-0.91,-0.035
148720,5758.0,2588.0,-7580.0,0.413,0.101,-0.904,-0.039
148736,6430.0,1468.0,-7884.0,0.426,0.099,-0.898,-0.041
148752,6198.0,3310.0,-7718.0,0.437,0.096,-0.893,-0.044
148768,6054.0,2120.0,-7326.0,0.447,0.094,-0.889,-0.045
148784,5896.0,1798.0,-7076.0,0.454,0.092,-0.885,-0.046
148800,6146.0,1986.0,-7284.0,0.459,0.091,-0.882,-0.045
148826,6470.0,2628.0,-7894.0,0.465,0.091,-0.88,-0.043
148843,6272.0,1836.0,-7238.0,0.469,0.091,-0.878,-0.04
148860,5392.0,2276.0,-6762.0,0.471,0.093,-0.877,-0.035
148877,5668.0,1834.0,-7200.0,0.472,0.094,-0.876,-0.03
148893,5264.0,1796.0,-6982.0,0.472,0.097,-0.876,-0.025
148910,5998.0,2078.0,-7646.0,0.472,0.1,-0.876,-0.019
148927,5160.0,2068.0,-7296.0,0.47,0.105,-0.876,-0.013
148944,5324.0,2176.0,-7476.0,0.468,0.109,-0.877,-0.008
148961,5464.0,2280.0,-7822.0,0.463,0.114,-0.879,-0.003
148977,5844.0,2332.0,-8024.0,0.457,0.118,-0.881,0.0
149003,6066.0,2252.0,-8088.0,0.45,0.123,-0.884,0.004
149019,5862.0,1966.0,-8140.0,0.442,0.127,-0.888,0.006
149035,5576.0,2628.0,-8228.0,0.432,0.131,-0.892,0.008
149052,6314.0,2006.0,-8878.0,0.42,0.133,-0.898,0.009
149069,6272.0,2334.0,-8556.0,0.407,0.137,-0.903,0.01
149085,6050.0,1724.0,-8798.0,0.392,0.141,-0.909,0.01
149101,5296.0,2076.0,-8682.0,0.375,0.144,-0.916,0.009
149127,5442.0,1962.0,-9092.0,0.356,0.146,-0.923,0.007
149143,5238.0,1830.0,-9140.0,0.337,0.148,-0.93,0.005
149159,5170.0,1374.0,-9152.0,0.317,0.151,-0.936,0.002
149176,4632.0,1534.0,-9000.0,0.296,0.154,-0.943,-0.001
149193,4334.0,1630.0,-8890.0,0.275,0.156,-0.949,-0.005
149210,4400.0,1394.0,-9216.0,0.252,0.159,-0.954,-0.009
149226,4374.0,1546.0,-9416.0,0.23,0.163,-0.96,-0.012
149243,3584.0,974.0,-8720.0,0.207,0.165,-0.964,-0.015
149270,2894.0,1220.0,-8446.0,0.182,0.168,-0.969,-0.018
149286,2796.0,1212.0,-8582.0,0.158,0.171,-0.972,-0.02
149302,2810.0,1348.0,-8784.0,0.132,0.174,-0.976,-0.022
149319,2540.0,944.0,-8536.0,0.108,0.177,-0.978,-0.023
149336,2166.0,980.0,-8344.0,0.083,0.179,-0.98,-0.023
149352,1684.0,1234.0,-8212.0,0.058,0.181,-0.982,-0.022
149369,1328.0,724.0,-8136.0,0.032,0.182,-0.983,-0.021
149385,900.0,952.0,-8042.0,0.006,0.183,-0.983,-0.021
149402,956.0,302.0,-7952.0,0.02,-0.185,0.982,0.02
149419,6.0,864.0,-7648.0,0.045,-0.185,0.981,0.02
149445,418.0,508.0,-7738.0,0.07,-0.186,0.98,0.019
149461,442.0,712.0,-7758.0,0.095,-0.187,0.978,0.019
149477,-446.0,678.0,-7638.0,0.119,-0.187,0.975,0.019
149493,-970.0,154.0,-7298.0,0.144,-0.188,0.971,0.019
149510,-664.0,198.0,-7662.0,0.167,-0.189,0.967,0.019
149526,-1594.0,90.0,-7170.0,0.192,-0.189,0.963,0.02
149543,-1580.0,104.0,-7596.0,0.216,-0.19,0.957,0.022
149570,-2334.0,320.0,-6992.0,0.241,-0.19,0.951,0.024
149586,-2912.0,122.0,-6546.0,0.266,-0.19,0.945,0.026
149602,-3416.0,266.0,-6040.0,0.291,-0.189,0.937,0.029
149618,-3662.0,-20.0,-5870.0,0.316,-0.188,0.929,0.031
149635,-4034.0,330.0,-5220.0,0.341,-0.187,0.921,0.034
149652,-4054.0,152.0,-4950.0,0.365,-0.187,0.911,0.036
149668,-4246.0,56.0,-4658.0,0.388,-0.186,0.902,0.039
149685,-4340.0,172.0,-4186.0,0.41,-0.185,0.892,0.04
149702,-4810.0,38.0,-3444.0,0.431,-0.185,0.882,0.042
149729,-4596.0,-40.0,-3128.0,0.451,-0.184,0.872,0.043
149746,-4944.0,-264.0,-2894.0,0.469,-0.183,0.863,0.043
149762,-4874.0,-378.0,-2590.0,0.486,-0.181,0.854,0.043
149778,-5048.0,-602.0,-2346.0,0.502,-0.18,0.845,0.042
149794,-5280.0,-556.0,-2056.0,0.516,-0.178,0.837,0.04
149811,-5812.0,-488.0,-1722.0,0.53,-0.175,0.829,0.037
149827,-5862.0,-530.0,-1328.0,0.543,-0.172,0.821,0.034
149844,-6076.0,-802.0,-1276.0,0.555,-0.169,0.814,0.031
149871,-6448.0,-658.0,-1092.0,0.566,-0.165,0.807,0.027
149887,-6876.0,-628.0,-774.0,0.576,-0.163,0.8,0.024
149903,-7372.0,-356.0,-436.0,0.587,-0.161,0.793,0.022
149919,-7330.0,-494.0,-310.0,0.596,-0.159,0.787,0.019
149935,-7638.0,-316.0,118.0,0.606,-0.157,0.78,0.018
149952,-8050.0,-42.0,308.0,0.614,-0.155,0.774,0.017
149968,-8004.0,-106.0,446.0,0.622,-0.153,0.767,0.017
149994,-7946.0,322.0,582.0,0.629,-0.153,0.762,0.019
150011,-7592.0,142.0,428.0,0.634,-0.153,0.758,0.021
150027,-7772.0,364.0,848.0,0.637,-0.154,0.755,0.024
150043,-7934.0,70.0,1020.0,0.639,-0.155,0.753,0.026
150059,-8166.0,-374.0,1074.0,0.64,-0.159,0.751,0.029
150076,-7934.0,-676.0,926.0,0.64,-0.164,0.75,0.031
150093,-8010.0,-478.0,848.0,0.638,-0.169,0.75,0.033
150109,-7894.0,-822.0,640.0,0.636,-0.175,0.75,0.036
150136,-7614.0,-794.0,340.0,0.633,-0.181,0.751,0.038
150152,-7554.0,-1328.0,116.0,0.629,-0.187,0.753,0.041
150169,-7496.0,-1512.0,52.0,0.624,-0.194,0.756,0.043
150185,-7438.0,-1358.0,142.0,0.619,-0.2,0.759,0.044
150202,-7190.0,-1536.0,16.0,0.612,-0.205,0.763,0.045
150218,-7192.0,-1490.0,46.0,0.604,-0.209,0.768,0.045
150235,-6862.0,-1514.0,-78.0,0.596,-0.213,0.773,0.045
150252,-6300.0,-1390.0,-436.0,0.586,-0.214,0.78,0.044
150269,-6468.0,-1486.0,-448.0,0.575,-0.215,0.788,0.042
150295,-6372.0,-1146.0,-672.0,0.564,-0.214,0.797,0.04
150311,-6158.0,-1162.0,-768.0,0.551,-0.212,0.806,0.038
150327,-5764.0,-1356.0,-1210.0,0.537,-0.21,0.816,0.037
150343,-5648.0,-1080.0,-1306.0,0.522,-0.206,0.827,0.035
150359,-5246.0,-1146.0,-1844.0,0.505,-0.202,0.839,0.033
150376,-5562.0,-516.0,-1748.0,0.486,-0.198,0.851,0.031
150393,-5452.0,-424.0,-2182.0,0.466,-0.193,0.863,0.03
150410,-5430.0,-658.0,-2422.0,0.445,-0.188,0.875,0.029
150437,-4962.0,-1002.0,-3434.0,0.422,-0.183,0.888,0.028
150453,-5646.0,-548.0,-3190.0,0.397,-0.178,0.9,0.026
150469,-5456.0,-174.0,-3620.0,0.373,-0.173,0.911,0.026
150485,-5086.0,298.0,-3744.0,0.348,-0.166,0.922,0.026
150501,-3798.0,-662.0,-4894.0,0.323,-0.16,0.932,0.027
150518,-4042.0,70.0,-5164.0,0.296,-0.156,0.942,0.027
150535,-3626.0,124.0,-5310.0,0.268,-0.152,0.951,0.026
150561,-3902.0,278.0,-5248.0,0.242,-0.148,0.958,0.027
150578,-2688.0,-170.0,-6396.0,0.217,-0.143,0.965,0.027
150594,-1968.0,826.0,-7008.0,0.19,-0.138,0.972,0.027
150611,-1902.0,728.0,-6606.0,0.162,-0.134,0.977,0.027
150627,-1000.0,730.0,-7368.0,0.135,-0.13,0.982,0.03
150643,-2088.0,660.0,-6302.0,0.107,-0.126,0.986,0.032
150659,1288.0,244.0,-8452.0,0.079,-0.121,0.989,0.034
150676,-84.0,1738.0,-8252.0,0.051,-0.116,0.991,0.036
150702,1056.0,-354.0,-8274.0,0.021,-0.112,0.993,0.037
150718,1510.0,842.0,-8918.0,0.007,0.109,-0.993,-0.038
150735,384.0,1814.0,-7998.0,0.034,0.105,-0.993,-0.04
150752,1886.0,1266.0,-8328.0,0.06,0.099,-0.992,-0.043
150768,4186.0,-64.0,-9802.0,0.087,0.094,-0.991,-0.045
150785,2392.0,1974.0,-8666.0,0.115,0.091,-0.988,-0.044
150802,2598.0,1878.0,-8060.0,0.142,0.087,-0.985,-0.044
150818,3680.0,1356.0,-8706.0,0.168,0.083,-0.981,-0.045
150835,3246.0,2166.0,-8168.0,0.193,0.08,-0.977,-0.046
150862,5642.0,656.0,-9522.0,0.217,0.077,-0.972,-0.047
150878,4414.0,1592.0,-8568.0,0.242,0.075,-0.966,-0.046
150894,5124.0,1662.0,-8282.0,0.264,0.073,-0.961,-0.045
150910,4660.0,2526.0,-7814.0,0.285,0.071,-0.955,-0.045
150926,5368.0,2266.0,-7612.0,0.306,0.068,-0.949,-0.046
150942,6212.0,1976.0,-8088.0,0.326,0.065,-0.942,-0.047
150959,6678.0,1092.0,-8024.0,0.348,0.062,-0.934,-0.046
150986,6400.0,2876.0,-7496.0,0.368,0.06,-0.927,-0.044
151003,6348.0,2846.0,-7142.0,0.387,0.058,-0.919,-0.045
151019,7442.0,1684.0,-7798.0,0.405,0.053,-0.912,-0.046
151035,7612.0,1266.0,-7938.0,0.422,0.05,-0.904,-0.046
151051,6752.0,2442.0,-7252.0,0.438,0.046,-0.896,-0.047
151068,7242.0,2010.0,-7298.0,0.452,0.044,-0.89,-0.047
151085,6462.0,2164.0,-6966.0,0.462,0.041,-0.884,-0.048
151101,6874.0,1972.0,-7148.0,0.472,0.039,-0.88,-0.048
151118,6164.0,2052.0,-7020.0,0.48,0.036,-0.875,-0.047
151144,6104.0,2362.0,-6976.0,0.487,0.035,-0.872,-0.045
151160,6144.0,3022.0,-8002.0,0.492,0.033,-0.869,-0.043
151176,6248.0,2464.0,-7234.0,0.496,0.031,-0.867,-0.041
151192,6168.0,3150.0,-6984.0,0.498,0.03,-0.866,-0.038
151209,6240.0,2116.0,-7224.0,0.5,0.028,-0.865,-0.036
151226,6164.0,2198.0,-7084.0,0.501,0.028,-0.864,-0.034
151242,5336.0,1860.0,-6914.0,0.5,0.029,-0.865,-0.033
151269,5688.0,2296.0,-6928.0,0.499,0.03,-0.865,-0.032
151285,6102.0,2078.0,-7058.0,0.498,0.032,-0.866,-0.031
151301,6082.0,1658.0,-7016.0,0.496,0.035,-0.867,-0.03
151318,6000.0,2002.0,-6976.0,0.494,0.038,-0.868,-0.029
151335,6258.0,2094.0,-6968.0,0.489,0.042,-0.871,-0.029
151351,5950.0,1722.0,-7036.0,0.483,0.046,-0.874,-0.028
151367,6242.0,1656.0,-7232.0,0.476,0.05,-0.878,-0.028
151384,5740.0,1970.0,-6874.0,0.468,0.054,-0.882,-0.027
151401,6724.0,1704.0,-7584.0,0.459,0.058,-0.886,-0.026
151428,6280.0,1830.0,-7292.0,0.449,0.062,-0.891,-0.025
151445,6908.0,1684.0,-7830.0,0.437,0.068,-0.897,-0.021
151461,6620.0,1608.0,-7820.0,0.424,0.074,-0.903,-0.018
151477,6118.0,1584.0,-7684.0,0.409,0.079,-0.909,-0.014
151493,6208.0,1184.0,-8100.0,0.392,0.085,-0.916,-0.01
151509,6046.0,1266.0,-8428.0,0.375,0.09,-0.923,-0.006
151525,5836.0,1508.0,-8710.0,0.357,0.095,-0.929,-0.002
151552,5438.0,1006.0,-8654.0,0.337,0.099,-0.936,0.002
151568,4898.0,1320.0,-8870.0,0.316,0.104,-0.943,0.006
151584,4980.0,1286.0,-9350.0,0.293,0.108,-0.95,0.009
151601,4610.0,1120.0,-9618.0,0.27,0.112,-0.956,0.011
151618,4042.0,1124.0,-9448.0,0.246,0.115,-0.962,0.013
151634,3876.0,948.0,-9654.0,0.221,0.119,-0.968,0.014
151651,3070.0,846.0,-9522.0,0.195,0.121,-0.973,0.015
151667,2876.0,954.0,-9622.0,0.169,0.122,-0.978,0.014
151693,2546.0,1058.0,-9542.0,0.141,0.124,-0.982,0.012
151709,1818.0,760.0,-9264.0,0.113,0.125,-0.986,0.01
151725,1886.0,1128.0,-9188.0,0.084,0.126,-0.988,0.007
151742,1240.0,736.0,-9036.0,0.055,0.127,-0.99,0.003
151759,592.0,1158.0,-8438.0,0.027,0.129,-0.991,-0.002
151775,458.0,900.0,-8114.0,0.002,-0.13,0.991,0.008
151792,252.0,760.0,-8052.0,0.03,-0.131,0.991,0.015
151818,196.0,532.0,-7906.0,0.057,-0.132,0.989,0.022
151834,-256.0,726.0,-7516.0,0.084,-0.134,0.987,0.028
151850,-1132.0,1230.0,-7540.0,0.109,-0.136,0.984,0.036
151867,-642.0,124.0,-7332.0,0.134,-0.139,0.98,0.042
151883,-1168.0,506.0,-6830.0,0.159,-0.141,0.976,0.047
151899,-1658.0,564.0,-6600.0,0.183,-0.144,0.971,0.052
151915,-1660.0,202.0,-6730.0,0.207,-0.146,0.966,0.056
151941,-2142.0,580.0,-6248.0,0.231,-0.149,0.96,0.059
151958,-2616.0,314.0,-5624.0,0.254,-0.151,0.953,0.061
151975,-2360.0,282.0,-5836.0,0.277,-0.153,0.946,0.062
151992,-2836.0,554.0,-5506.0,0.299,-0.155,0.939,0.063
152008,-3076.0,426.0,-5216.0,0.32,-0.157,0.932,0.061
152025,-2602.0,162.0,-5404.0,0.34,-0.157,0.925,0.059
152042,-3546.0,442.0,-4720.0,0.359,-0.159,0.918,0.057
152059,-3674.0,78.0,-4628.0,0.377,-0.159,0.911,0.053
152075,-4042.0,240.0,-4432.0,0.395,-0.158,0.904,0.049
152092,-4352.0,166.0,-4266.0,0.411,-0.158,0.897,0.045
152118,-4682.0,376.0,-4082.0,0.428,-0.158,0.889,0.041
152134,-4920.0,112.0,-4040.0,0.444,-0.157,0.881,0.037
152151,-5138.0,0.0,-3800.0,0.46,-0.157,0.873,0.033
152167,-5216.0,-216.0,-3730.0,0.476,-0.158,0.865,0.029
152184,-5538.0,52.0,-3556.0,0.491,-0.158,0.856,0.026
152200,-5942.0,-134.0,-3212.0,0.506,-0.159,0.848,0.023
152216,-6008.0,-396.0,-3116.0,0.52,-0.159,0.839,0.02
152242,-6304.0,-376.0,-2804.0,0.535,-0.16,0.83,0.018
152259,-6884.0,-312.0,-2200.0,0.549,-0.161,0.82,0.017
152276,-7036.0,-268.0,-1976.0,0.563,-0.163,0.81,0.016
152292,-7460.0,-662.0,-1540.0,0.576,-0.165,0.8,0.016
152309,-7758.0,-864.0,-1078.0,0.59,-0.166,0.79,0.015
152326,-7968.0,-484.0,-422.0,0.605,-0.168,0.778,0.016
152343,-7754.0,-728.0,-60.0,0.618,-0.169,0.767,0.016
152359,-7538.0,-732.0,232.0,0.631,-0.171,0.757,0.017
152376,-7900.0,-510.0,1018.0,0.643,-0.172,0.746,0.019
152393,-7958.0,-414.0,1314.0,0.654,-0.174,0.736,0.021
152420,-7794.0,-1152.0,1592.0,0.664,-0.175,0.727,0.024
152437,-7486.0,-1022.0,1826.0,0.672,-0.176,0.719,0.026
152453,-7560.0,-774.0,1956.0,0.679,-0.178,0.712,0.028
152469,-7706.0,-1066.0,2244.0,0.684,-0.18,0.706,0.031
152485,-7618.0,-1394.0,2436.0,0.688,-0.182,0.702,0.033
152502,-7416.0,-1276.0,2232.0,0.69,-0.185,0.699,0.035
152518,-7320.0,-1244.0,2200.0,0.691,-0.189,0.697,0.037
152534,-7234.0,-1414.0,2068.0,0.69,-0.194,0.696,0.039
152560,-7288.0,-1598.0,1866.0,0.688,-0.198,0.697,0.041
152576,-7290.0,-1720.0,1794.0,0.685,-0.203,0.698,0.044
152593,-7050.0,-1832.0,1530.0,0.682,-0.209,0.7,0.046
152609,-7288.0,-1810.0,1486.0,0.678,-0.214,0.702,0.048
152625,-7000.0,-2086.0,1136.0,0.673,-0.219,0.705,0.05
152641,-6968.0,-1902.0,1070.0,0.667,-0.224,0.709,0.051
152658,-6962.0,-1892.0,906.0,0.66,-0.228,0.714,0.052
152684,-6962.0,-1870.0,800.0,0.652,-0.233,0.72,0.054
152701,-6952.0,-2022.0,636.0,0.643,-0.236,0.726,0.056
152717,-6808.0,-1652.0,430.0,0.634,-0.239,0.733,0.058
152734,-6676.0,-1874.0,158.0,0.623,-0.241,0.741,0.061
152750,-6704.0,-1602.0,90.0,0.612,-0.239,0.751,0.063
152767,-6510.0,-1318.0,-196.0,0.6,-0.237,0.761,0.064
152784,-6526.0,-990.0,-230.0,0.586,-0.234,0.773,0.066
152801,-6474.0,-1180.0,-448.0,0.572,-0.231,0.784,0.069
152817,-6666.0,-650.0,-472.0,0.556,-0.226,0.797,0.072
152843,-6178.0,-880.0,-1018.0,0.539,-0.222,0.809,0.075
152860,-6030.0,-254.0,-1318.0,0.521,-0.217,0.822,0.079
152876,-6130.0,-526.0,-1412.0,0.501,-0.211,0.835,0.083
152892,-6198.0,-2.0,-1512.0,0.481,-0.205,0.848,0.087
152909,-5868.0,230.0,-1822.0,0.461,-0.198,0.86,0.094
152925,-4752.0,-290.0,-3036.0,0.439,-0.191,0.873,0.099
152941,-4750.0,1112.0,-3076.0,0.415,-0.186,0.885,0.106
152968,-4476.0,308.0,-3690.0,0.389,-0.181,0.896,0.113
152984,-4846.0,1156.0,-3884.0,0.363,-0.174,0.907,0.119
153001,-3850.0,1408.0,-4432.0,0.337,-0.167,0.918,0.126
153017,-3274.0,592.0,-5134.0,0.309,-0.161,0.928,0.132
153033,-2558.0,1366.0,-5904.0,0.281,-0.154,0.938,0.136
153049,-2826.0,1356.0,-5716.0,0.251,-0.144,0.947,0.138
153075,-2828.0,2468.0,-6006.0,0.222,-0.135,0.955,0.14
153091,-3066.0,2308.0,-5962.0,0.194,-0.126,0.962,0.144
153107,-1104.0,866.0,-7278.0,0.165,-0.118,0.968,0.147
153124,-1394.0,1392.0,-7456.0,0.136,-0.109,0.974,0.147
153141,-2750.0,2500.0,-6252.0,0.108,-0.099,0.978,0.146
153158,1084.0,1952.0,-8608.0,0.079,-0.089,0.982,0.144
153175,-786.0,3018.0,-7482.0,0.051,-0.08,0.985,0.142
153192,1054.0,1308.0,-8208.0,0.022,-0.071,0.987,0.14
153208,680.0,1758.0,-8226.0,0.007,0.062,-0.989,-0.135
153234,410.0,2910.0,-7594.0,0.036,0.054,-0.99,-0.129
153250,2410.0,2454.0,-8550.0,0.064,0.045,-0.989,-0.124
153267,1664.0,2956.0,-8410.0,0.091,0.038,-0.988,-0.119
153284,3330.0,1260.0,-8888.0,0.119,0.033,-0.986,-0.112
153300,3320.0,2680.0,-9052.0,0.146,0.029,-0.983,-0.105
153317,2992.0,2812.0,-8550.0,0.173,0.024,-0.98,-0.098
153333,4524.0,1564.0,-9202.0,0.197,0.022,-0.976,-0.091
153350,4046.0,3434.0,-8846.0,0.22,0.02,-0.972,-0.085
153367,5124.0,1738.0,-8894.0,0.244,0.02,-0.967,-0.077
153384,4920.0,2790.0,-8718.0,0.265,0.02,-0.961,-0.071
153410,4398.0,3542.0,-8062.0,0.286,0.02,-0.956,-0.067
153426,5900.0,2204.0,-8312.0,0.306,0.021,-0.95,-0.064
153442,5504.0,2844.0,-8092.0,0.326,0.022,-0.943,-0.062
153458,5030.0,3214.0,-7518.0,0.345,0.022,-0.936,-0.062
153474,6168.0,2364.0,-7832.0,0.364,0.023,-0.929,-0.062
153491,5750.0,2954.0,-7392.0,0.381,0.022,-0.922,-0.062
153517,6578.0,2322.0,-6982.0,0.397,0.021,-0.915,-0.062
153533,7118.0,1254.0,-7504.0,0.413,0.018,-0.908,-0.064
153550,6846.0,2106.0,-7232.0,0.428,0.016,-0.902,-0.064
153567,6970.0,2416.0,-7184.0,0.442,0.014,-0.895,-0.064
153583,7040.0,2158.0,-7242.0,0.454,0.01,-0.889,-0.063
153600,6836.0,1864.0,-7152.0,0.464,0.008,-0.883,-0.062
153617,5784.0,1090.0,-7156.0,0.474,0.005,-0.879,-0.061
153633,6256.0,1940.0,-6998.0,0.481,0.003,-0.875,-0.06
153650,6318.0,2254.0,-6782.0,0.487,0.003,-0.871,-0.057
153676,6070.0,2330.0,-6748.0,0.492,0.002,-0.869,-0.055
153692,5558.0,2240.0,-6466.0,0.496,0.002,-0.867,-0.053
153708,5714.0,2354.0,-6506.0,0.498,0.003,-0.866,-0.051
153724,5830.0,2120.0,-6498.0,0.5,0.004,-0.864,-0.049
153741,5966.0,2286.0,-6614.0,0.503,0.006,-0.863,-0.046
153757,5844.0,2398.0,-6386.0,0.504,0.008,-0.863,-0.044
153774,6054.0,2030.0,-6390.0,0.504,0.01,-0.863,-0.041
153791,6634.0,1916.0,-6848.0,0.504,0.013,-0.863,-0.039
153818,6448.0,1892.0,-6882.0,0.503,0.016,-0.864,-0.036
153834,6506.0,1704.0,-6826.0,0.5,0.02,-0.865,-0.034
153850,6406.0,1960.0,-6872.0,0.495,0.024,-0.868,-0.032
153866,6406.0,1832.0,-6894.0,0.49,0.027,-0.871,-0.03
153883,6528.0,1636.0,-7090.0,0.483,0.029,-0.875,-0.028
153900,6410.0,1698.0,-7124.0,0.475,0.032,-0.879,-0.026
153917,6210.0,1298.0,-6972.0,0.467,0.035,-0.883,-0.024
153933,6292.0,1698.0,-7234.0,0.457,0.04,-0.889,-0.021
153950,6220.0,1408.0,-7498.0,0.445,0.043,-0.894,-0.02
153976,6230.0,1564.0,-7542.0,0.432,0.048,-0.9,-0.017
153995,6630.0,1206.0,-7898.0,0.419,0.053,-0.907,-0.014
154012,6190.0,796.0,-7764.0,0.404,0.058,-0.913,-0.011
154029,6012.0,1228.0,-7990.0,0.387,0.064,-0.92,-0.008
154046,5832.0,1058.0,-8064.0,0.37,0.069,-0.927,-0.004
154063,6298.0,776.0,-8820.0,0.351,0.075,-0.933,-0.001
154080,5682.0,784.0,-8622.0,0.331,0.081,-0.94,0.003
154097,5276.0,830.0,-8672.0,0.309,0.086,-0.947,0.007
154114,4918.0,944.0,-8956.0,0.286,0.091,-0.954,0.011
154131,4634.0,726.0,-9078.0,0.262,0.095,-0.96,0.015
154147,4262.0,648.0,-9172.0,0.238,0.099,-0.966,0.02
154163,3690.0,900.0,-8982.0,0.213,0.102,-0.971,0.024
154189,3028.0,892.0,-8796.0,0.187,0.105,-0.976,0.027
154206,2806.0,896.0,-8952.0,0.161,0.107,-0.981,0.029
154223,2358.0,930.0,-8826.0,0.134,0.109,-0.984,0.031
154240,2608.0,446.0,-9020.0,0.108,0.112,-0.987,0.032
154257,1800.0,1044.0,-8622.0,0.081,0.114,-0.99,0.031
154273,1792.0,556.0,-8638.0,0.055,0.116,-0.991,0.029
154290,1310.0,724.0,-8342.0,0.03,0.117,-0.992,0.026
154307,682.0,686.0,-7934.0,0.004,0.119,-0.993,0.023
154324,520.0,534.0,-8000.0,0.022,-0.121,0.992,-0.018
154341,568.0,240.0,-7948.0,0.046,-0.123,0.991,-0.013
154357,532.0,112.0,-7888.0,0.071,-0.125,0.99,-0.009
154384,-216.0,406.0,-7454.0,0.094,-0.127,0.987,-0.004
154401,-572.0,-202.0,-7098.0,0.118,-0.129,0.985,0.001
154417,-1076.0,528.0,-6954.0,0.142,-0.132,0.981,0.005
154433,-838.0,-348.0,-7158.0,0.166,-0.134,0.977,0.01
154449,-1036.0,296.0,-6904.0,0.189,-0.137,0.972,0.013
154466,-1544.0,-236.0,-6654.0,0.21,-0.139,0.968,0.016
154483,-2170.0,324.0,-6510.0,0.232,-0.142,0.962,0.018
154500,-2596.0,-26.0,-6256.0,0.254,-0.145,0.956,0.02
154526,-2806.0,-84.0,-6166.0,0.275,-0.148,0.95,0.021
154542,-3158.0,354.0,-6152.0,0.296,-0.15,0.943,0.022
154558,-3546.0,320.0,-5702.0,0.317,-0.152,0.936,0.023
154574,-3886.0,-310.0,-5504.0,0.337,-0.153,0.929,0.023
154591,-4428.0,-72.0,-5188.0,0.358,-0.154,0.921,0.022
154608,-4602.0,94.0,-5054.0,0.378,-0.154,0.913,0.021
154625,-4330.0,-156.0,-5064.0,0.398,-0.154,0.904,0.02
154642,-4780.0,-138.0,-4590.0,0.417,-0.154,0.895,0.019
154659,-5040.0,-302.0,-4348.0,0.436,-0.154,0.886,0.017
154676,-5060.0,-396.0,-4164.0,0.455,-0.153,0.877,0.015
154703,-5562.0,-412.0,-3510.0,0.473,-0.152,0.868,0.013
154720,-5382.0,-460.0,-3426.0,0.491,-0.152,0.858,0.011
154737,-5410.0,-490.0,-3076.0,0.509,-0.15,0.848,0.01
154754,-5722.0,-540.0,-2746.0,0.526,-0.15,0.837,0.008
154771,-6106.0,-394.0,-2230.0,0.543,-0.149,0.827,0.007
154788,-6230.0,-328.0,-1868.0,0.559,-0.149,0.816,0.006
154805,-6350.0,-760.0,-1552.0,0.574,-0.149,0.805,0.006
154822,-6824.0,-380.0,-932.0,0.588,-0.148,0.795,0.006
154839,-6580.0,-484.0,-882.0,0.601,-0.149,0.785,0.006
154856,-7050.0,-608.0,-262.0,0.614,-0.149,0.776,0.007
154873,-7112.0,-658.0,106.0,0.625,-0.149,0.766,0.009
154890,-7532.0,-790.0,628.0,0.636,-0.149,0.757,0.011
154907,-7442.0,-418.0,928.0,0.646,-0.149,0.748,0.014
154924,-7502.0,-1158.0,1346.0,0.655,-0.149,0.74,0.017
154941,-7656.0,-718.0,1742.0,0.663,-0.149,0.733,0.02
154968,-7934.0,-662.0,2312.0,0.67,-0.149,0.727,0.023
154984,-7728.0,-722.0,2428.0,0.676,-0.15,0.721,0.026
155000,-7462.0,-1050.0,2320.0,0.679,-0.15,0.718,0.029
155016,-7580.0,-996.0,2482.0,0.681,-0.151,0.716,0.03
155032,-7436.0,-724.0,2316.0,0.681,-0.151,0.716,0.031
155049,-7516.0,-1052.0,2352.0,0.68,-0.152,0.717,0.032
155065,-7272.0,-1076.0,2004.0,0.677,-0.153,0.72,0.032
155092,-7386.0,-868.0,2000.0,0.672,-0.154,0.723,0.032
155108,-7396.0,-922.0,1716.0,0.667,-0.154,0.728,0.031
155124,-7348.0,-980.0,1400.0,0.662,-0.155,0.733,0.03
155141,-7358.0,-1074.0,1122.0,0.655,-0.156,0.739,0.029
155157,-7296.0,-1124.0,912.0,0.648,-0.157,0.745,0.027
155173,-7044.0,-674.0,552.0,0.64,-0.156,0.752,0.024
155190,-7012.0,-774.0,296.0,0.631,-0.155,0.759,0.021
155207,-6772.0,-842.0,50.0,0.622,-0.154,0.768,0.018
155234,-6734.0,-660.0,-14.0,0.611,-0.153,0.777,0.016
155250,-6414.0,-488.0,-378.0,0.6,-0.152,0.786,0.014
155267,-6290.0,-450.0,-580.0,0.587,-0.15,0.796,0.014
155283,-6152.0,-806.0,-802.0,0.573,-0.147,0.806,0.014
155299,-6442.0,-362.0,-784.0,0.557,-0.145,0.817,0.015
155316,-6258.0,-202.0,-1152.0,0.541,-0.142,0.828,0.017
155333,-6052.0,-586.0,-1590.0,0.524,-0.14,0.84,0.02
155349,-5986.0,-248.0,-1848.0,0.505,-0.138,0.852,0.023
155366,-5920.0,46.0,-1968.0,0.485,-0.135,0.864,0.027
155392,-5630.0,46.0,-2402.0,0.464,-0.132,0.875,0.032
155408,-5308.0,-292.0,-3104.0,0.442,-0.129,0.887,0.038
155424,-4904.0,-36.0,-3590.0,0.418,-0.125,0.899,0.044
155440,-5042.0,366.0,-3656.0,0.394,-0.123,0.909,0.05
155457,-4612.0,666.0,-4058.0,0.37,-0.121,0.919,0.058
155474,-3750.0,1462.0,-4382.0,0.345,-0.117,0.929,0.067
155491,-3206.0,-218.0,-5394.0,0.319,-0.115,0.938,0.074
155508,-3608.0,1024.0,-5194.0,0.292,-0.112,0.946,0.081
155534,-4088.0,1072.0,-4742.0,0.266,-0.108,0.954,0.088
155550,-3288.0,1230.0,-5144.0,0.24,-0.102,0.961,0.096
155566,-1280.0,346.0,-7086.0,0.213,-0.095,0.967,0.103
155582,-2048.0,1678.0,-6432.0,0.184,-0.088,0.973,0.105
155599,-1098.0,1904.0,-7284.0,0.153,-0.082,0.979,0.107
155616,-1678.0,1788.0,-7168.0,0.125,-0.075,0.983,0.111
155642,-280.0,1224.0,-7990.0,0.097,-0.066,0.987,0.112
155659,-218.0,1076.0,-8264.0,0.069,-0.057,0.99,0.112
155675,1124.0,1882.0,-8856.0,0.04,-0.049,0.992,0.109
155691,328.0,1394.0,-8222.0,0.012,-0.04,0.994,0.105
155707,812.0,2464.0,-8428.0,0.015,0.031,-0.994,-0.1
155724,1746.0,1572.0,-8630.0,0.04,0.022,-0.994,-0.095
155740,2246.0,2016.0,-8688.0,0.066,0.015,-0.994,-0.089
155757,2498.0,1696.0,-8624.0,0.092,0.008,-0.992,-0.082
155783,2424.0,1610.0,-8300.0,0.118,0.002,-0.99,-0.074
155799,4132.0,1698.0,-9230.0,0.144,-0.002,-0.987,-0.064
155816,3762.0,2214.0,-8550.0,0.17,-0.004,-0.984,-0.055
155833,4400.0,2370.0,-8422.0,0.195,-0.005,-0.98,-0.048
155849,5024.0,1188.0,-8868.0,0.219,-0.004,-0.975,-0.042
155866,4772.0,2196.0,-8378.0,0.243,-0.002,-0.969,-0.036
155882,5452.0,1952.0,-8622.0,0.264,0.0,-0.964,-0.034
155899,4950.0,2104.0,-8148.0,0.285,0.003,-0.958,-0.032
155916,5186.0,1208.0,-7772.0,0.305,0.006,-0.952,-0.032
155942,6956.0,1128.0,-9238.0,0.325,0.01,-0.945,-0.033
155958,4576.0,3144.0,-7460.0,0.345,0.013,-0.938,-0.034
155974,5900.0,1836.0,-7780.0,0.364,0.014,-0.931,-0.037
155990,5352.0,2246.0,-7370.0,0.382,0.015,-0.923,-0.04
156007,6498.0,1704.0,-7774.0,0.399,0.014,-0.916,-0.043
156023,6660.0,1998.0,-7740.0,0.416,0.013,-0.908,-0.047
156040,6658.0,1790.0,-7528.0,0.432,0.013,-0.901,-0.049
156057,6646.0,3214.0,-7312.0,0.445,0.01,-0.894,-0.053
156083,6922.0,1596.0,-7480.0,0.457,0.007,-0.888,-0.056
156099,6942.0,1112.0,-7474.0,0.468,0.004,-0.882,-0.059
156116,6708.0,1926.0,-7270.0,0.478,0.002,-0.876,-0.06
156132,6576.0,1780.0,-6900.0,0.487,0.001,-0.872,-0.06
156149,6558.0,2274.0,-6956.0,0.492,-0.001,-0.868,-0.061
156166,6856.0,1468.0,-7458.0,0.497,-0.003,-0.866,-0.06
156183,6164.0,1728.0,-7332.0,0.5,-0.003,-0.864,-0.059
156199,5908.0,1896.0,-7324.0,0.502,-0.002,-0.863,-0.057
156216,5832.0,1870.0,-7230.0,0.502,-0.002,-0.863,-0.054
156242,5912.0,1916.0,-7294.0,0.5,-0.001,-0.864,-0.051
156259,5744.0,1692.0,-7334.0,0.499,0.001,-0.866,-0.048
156275,5844.0,2072.0,-7172.0,0.496,0.003,-0.867,-0.044
156291,5660.0,1682.0,-7268.0,0.493,0.006,-0.869,-0.04
156307,5404.0,2286.0,-7018.0,0.489,0.009,-0.871,-0.036
156323,6220.0,1622.0,-7314.0,0.484,0.012,-0.874,-0.032
156340,6320.0,1874.0,-7382.0,0.478,0.016,-0.878,-0.028
156357,6454.0,1560.0,-7346.0,0.471,0.021,-0.882,-0.024
156384,6172.0,1816.0,-6958.0,0.462,0.025,-0.886,-0.021
156400,6178.0,1884.0,-7286.0,0.451,0.031,-0.892,-0.018
156416,6846.0,1694.0,-7486.0,0.44,0.036,-0.897,-0.015
156432,6870.0,1294.0,-7516.0,0.427,0.041,-0.903,-0.012
156448,6792.0,1614.0,-7592.0,0.413,0.046,-0.909,-0.011
156465,5960.0,1786.0,-7162.0,0.398,0.05,-0.916,-0.009
156482,6300.0,1586.0,-7494.0,0.382,0.054,-0.923,-0.009
156499,6270.0,998.0,-7788.0,0.365,0.056,-0.929,-0.009
156526,6300.0,1246.0,-7874.0,0.348,0.059,-0.936,-0.008
156542,5776.0,1380.0,-7718.0,0.33,0.062,-0.942,-0.008
156558,5746.0,788.0,-8076.0,0.309,0.065,-0.949,-0.009
156574,5092.0,944.0,-8148.0,0.288,0.068,-0.955,-0.01
156590,4938.0,1104.0,-8424.0,0.266,0.071,-0.961,-0.011
156606,4452.0,998.0,-8518.0,0.244,0.075,-0.967,-0.012
156623,3514.0,1186.0,-8260.0,0.222,0.078,-0.972,-0.013
156649,3154.0,1344.0,-8238.0,0.199,0.081,-0.977,-0.015
156665,3020.0,1028.0,-8360.0,0.176,0.084,-0.981,-0.017
156682,2746.0,1204.0,-8426.0,0.153,0.087,-0.984,-0.018
156698,1836.0,1372.0,-8038.0,0.13,0.091,-0.987,-0.019
156715,2080.0,1112.0,-8484.0,0.106,0.094,-0.99,-0.021
156732,2024.0,1178.0,-8658.0,0.083,0.097,-0.992,-0.022
156748,1344.0,1174.0,-8430.0,0.059,0.1,-0.993,-0.023
156774,1248.0,1138.0,-8550.0,0.036,0.104,-0.994,-0.024
156790,690.0,1038.0,-8548.0,0.011,0.107,-0.994,-0.025
156806,-152.0,1356.0,-8186.0,0.014,-0.111,0.993,0.027
156822,624.0,1132.0,-8466.0,0.038,-0.114,0.992,0.028
156839,210.0,1254.0,-7944.0,0.061,-0.117,0.991,0.029
156856,-630.0,976.0,-8010.0,0.084,-0.12,0.989,0.03
156872,-1460.0,1022.0,-8058.0,0.107,-0.123,0.986,0.031
156889,-1890.0,648.0,-8054.0,0.132,-0.126,0.983,0.032
156916,-2022.0,660.0,-7970.0,0.157,-0.129,0.979,0.034
156932,-2692.0,830.0,-7506.0,0.183,-0.132,0.974,0.036
156948,-3220.0,682.0,-7014.0,0.209,-0.135,0.968,0.039
156965,-3058.0,590.0,-6922.0,0.234,-0.138,0.962,0.041
156982,-2980.0,772.0,-6858.0,0.257,-0.14,0.955,0.044
156999,-3328.0,576.0,-6412.0,0.28,-0.143,0.948,0.046
157015,-3802.0,454.0,-5872.0,0.302,-0.145,0.941,0.048
157031,-3976.0,192.0,-5734.0,0.325,-0.147,0.933,0.05
157048,-3818.0,330.0,-5692.0,0.348,-0.149,0.924,0.053
157065,-3982.0,286.0,-5544.0,0.371,-0.151,0.915,0.055
157092,-4018.0,236.0,-5264.0,0.393,-0.151,0.905,0.056
157108,-4546.0,92.0,-4930.0,0.415,-0.152,0.895,0.057
157124,-4680.0,230.0,-4502.0,0.436,-0.152,0.885,0.058
157140,-4788.0,92.0,-4142.0,0.457,-0.152,0.875,0.058
157156,-4830.0,202.0,-4042.0,0.477,-0.153,0.864,0.058
157173,-5024.0,10.0,-3598.0,0.497,-0.153,0.852,0.058
157190,-5178.0,-88.0,-3168.0,0.516,-0.153,0.841,0.057
157216,-5274.0,66.0,-2664.0,0.535,-0.154,0.829,0.056
157232,-5570.0,52.0,-2068.0,0.553,-0.155,0.817,0.054
157248,-5346.0,-116.0,-1946.0,0.57,-0.156,0.805,0.053
157264,-5504.0,50.0,-1504.0,0.586,-0.158,0.793,0.052
157280,-5840.0,-126.0,-876.0,0.602,-0.159,0.781,0.05
157297,-5764.0,-158.0,-532.0,0.616,-0.16,0.769,0.049
157314,-6292.0,-468.0,42.0,0.63,-0.163,0.758,0.049
157340,-6312.0,-468.0,184.0,0.643,-0.166,0.747,0.048
157357,-6832.0,-596.0,932.0,0.654,-0.168,0.736,0.048
157373,-7028.0,-256.0,1664.0,0.665,-0.171,0.726,0.047
157389,-7308.0,-856.0,2214.0,0.675,-0.173,0.716,0.047
157406,-7694.0,-508.0,3032.0,0.684,-0.175,0.706,0.048
157423,-7604.0,-1250.0,3386.0,0.692,-0.178,0.698,0.048
157440,-7510.0,-826.0,3624.0,0.697,-0.181,0.692,0.048
157456,-7372.0,-1100.0,3844.0,0.7,-0.185,0.688,0.049
157473,-7456.0,-1702.0,3794.0,0.701,-0.188,0.686,0.049
157490,-7372.0,-1322.0,3620.0,0.7,-0.191,0.686,0.049
157516,-7328.0,-1238.0,3242.0,0.697,-0.194,0.689,0.049
157532,-7338.0,-1340.0,2912.0,0.692,-0.196,0.693,0.048
157548,-7250.0,-1702.0,2390.0,0.686,-0.199,0.699,0.048
157564,-7266.0,-1804.0,1994.0,0.679,-0.2,0.705,0.047
157581,-7282.0,-2004.0,1666.0,0.671,-0.202,0.712,0.046
157598,-6974.0,-1698.0,1200.0,0.662,-0.203,0.72,0.045
157614,-6898.0,-1958.0,922.0,0.653,-0.204,0.728,0.044
157641,-6716.0,-1634.0,544.0,0.643,-0.204,0.737,0.043
157657,-6632.0,-1682.0,354.0,0.632,-0.205,0.747,0.042
157673,-6708.0,-1482.0,120.0,0.62,-0.205,0.756,0.041
157689,-6536.0,-1560.0,-164.0,0.608,-0.203,0.767,0.039
157706,-6400.0,-1148.0,-298.0,0.595,-0.2,0.777,0.038
157723,-6160.0,-1038.0,-548.0,0.581,-0.197,0.789,0.038
157739,-6276.0,-554.0,-682.0,0.566,-0.193,0.8,0.039
157756,-6246.0,-790.0,-964.0,0.55,-0.19,0.813,0.042
157773,-5972.0,-528.0,-1296.0,0.532,-0.186,0.825,0.045
157799,-5722.0,-680.0,-1716.0,0.512,-0.182,0.838,0.048
157815,-5864.0,198.0,-1524.0,0.491,-0.177,0.851,0.052
157831,-5452.0,14.0,-2012.0,0.469,-0.171,0.864,0.059
157848,-5178.0,528.0,-2188.0,0.446,-0.166,0.877,0.066
157864,-4412.0,-554.0,-3416.0,0.421,-0.161,0.89,0.073
157882,-4756.0,948.0,-3256.0,0.394,-0.157,0.902,0.081
157898,-4288.0,798.0,-3888.0,0.367,-0.153,0.913,0.09
157915,-4560.0,1314.0,-3736.0,0.34,-0.149,0.923,0.1
157941,-3442.0,1142.0,-4516.0,0.312,-0.144,0.932,0.112
157957,-3050.0,-34.0,-5296.0,0.283,-0.14,0.941,0.121
157973,-2352.0,1324.0,-6002.0,0.253,-0.134,0.949,0.129
157989,-3182.0,2536.0,-5630.0,0.222,-0.128,0.957,0.136
158007,-2386.0,2852.0,-6510.0,0.193,-0.121,0.963,0.145
158024,-1438.0,1808.0,-7500.0,0.164,-0.114,0.968,0.152
158040,-972.0,2172.0,-7620.0,0.134,-0.107,0.973,0.156
158057,-398.0,2690.0,-7682.0,0.105,-0.099,0.976,0.161
158083,-200.0,1436.0,-7860.0,0.076,-0.09,0.98,0.162
158099,308.0,3044.0,-8152.0,0.048,-0.079,0.982,0.162
158115,686.0,2332.0,-7912.0,0.02,-0.069,0.984,0.16
158131,1356.0,2796.0,-7974.0,0.008,0.059,-0.986,-0.158
158147,690.0,2886.0,-7496.0,0.035,0.048,-0.986,-0.155
158164,2142.0,1450.0,-7984.0,0.063,0.037,-0.986,-0.149
158181,2752.0,2576.0,-8314.0,0.091,0.027,-0.985,-0.142
158198,2412.0,3696.0,-7622.0,0.12,0.018,-0.984,-0.134
158225,2942.0,2612.0,-7594.0,0.149,0.009,-0.981,-0.127
158241,3990.0,1676.0,-8340.0,0.177,0.003,-0.977,-0.12
158257,3886.0,2838.0,-8140.0,0.206,-0.001,-0.972,-0.112
158273,5490.0,2696.0,-8348.0,0.234,-0.003,-0.966,-0.105
158289,5140.0,2948.0,-7934.0,0.261,-0.004,-0.96,-0.099
158305,5630.0,2270.0,-7806.0,0.287,-0.006,-0.953,-0.093
158322,6748.0,2178.0,-8380.0,0.313,-0.005,-0.946,-0.086
158349,7328.0,2594.0,-8888.0,0.338,-0.004,-0.938,-0.08
158365,7648.0,2850.0,-8756.0,0.363,-0.003,-0.929,-0.074
158382,7214.0,2872.0,-8058.0,0.385,-0.0,-0.92,-0.068
158398,7690.0,2032.0,-8130.0,0.406,-0.001,-0.912,-0.064
158415,7390.0,1780.0,-7594.0,0.425,-0.0,-0.903,-0.061
158431,7342.0,2324.0,-7948.0,0.443,-0.001,-0.895,-0.058
