timeMs,ax,ay,az,q0,q1,q2,q3
10821270,3632.0,5930.0,-5175.0,0.244,0.539,0.744,0.312
10821286,2966.0,5548.0,-5223.0,0.268,0.535,0.748,0.287
10821302,2478.0,5640.0,-5035.0,0.291,0.531,0.751,0.262
10821328,1760.0,5108.0,-4739.0,0.313,0.527,0.753,0.237
10821344,1706.0,5114.0,-5167.0,0.334,0.523,0.755,0.213
10821360,626.0,4528.0,-4569.0,0.354,0.519,0.755,0.188
10821376,32.0,4176.0,-4357.0,0.372,0.515,0.755,0.163
10821392,-32.0,4408.0,-4631.0,0.39,0.51,0.754,0.139
10821408,-1266.0,3786.0,-3975.0,0.406,0.506,0.752,0.115
10821424,-1260.0,3792.0,-4141.0,0.422,0.503,0.749,0.092
10821450,-1724.0,3574.0,-4129.0,0.435,0.499,0.746,0.069
10821467,-2156.0,3454.0,-3983.0,0.448,0.496,0.742,0.045
10821483,-2612.0,3260.0,-3851.0,0.46,0.492,0.739,0.023
10821500,-3558.0,2996.0,-3099.0,0.471,0.489,0.734,0.001
10821517,-3656.0,3018.0,-2979.0,0.482,0.486,0.729,-0.021
10821534,-4014.0,2792.0,-2613.0,0.492,0.483,0.723,-0.041
10821551,-4214.0,2374.0,-2417.0,0.502,0.48,0.718,-0.059
10821568,-4598.0,2244.0,-1285.0,0.509,0.477,0.713,-0.075
10821585,-4642.0,1422.0,-527.0,0.515,0.474,0.708,-0.088
10821601,-5146.0,1534.0,757.0,0.519,0.473,0.705,-0.098
10821627,-4948.0,1172.0,1285.0,0.521,0.473,0.703,-0.104
10821643,-4902.0,310.0,1753.0,0.52,0.474,0.703,-0.106
10821659,-4884.0,1450.0,1805.0,0.517,0.476,0.704,-0.103
10821675,-4646.0,1490.0,1591.0,0.511,0.479,0.707,-0.095
10821691,-4568.0,1434.0,955.0,0.502,0.484,0.712,-0.082
10821707,-4098.0,1600.0,209.0,0.491,0.489,0.718,-0.066
10821734,-3798.0,2002.0,-655.0,0.478,0.494,0.724,-0.046
10821751,-3492.0,2418.0,-1329.0,0.463,0.5,0.731,-0.023
10821768,-3098.0,2656.0,-2117.0,0.448,0.506,0.737,0.001
10821785,-2976.0,2762.0,-2613.0,0.431,0.511,0.743,0.027
10821802,-2246.0,3168.0,-3279.0,0.413,0.516,0.748,0.055
10821818,-1276.0,3700.0,-4371.0,0.394,0.52,0.753,0.083
10821835,-1696.0,3656.0,-4139.0,0.374,0.525,0.756,0.112
10821851,164.0,4704.0,-5429.0,0.354,0.529,0.759,0.141
10821868,-808.0,4264.0,-4909.0,0.333,0.532,0.76,0.17
10821895,294.0,5040.0,-5557.0,0.31,0.536,0.76,0.2
10821911,1780.0,5944.0,-6605.0,0.286,0.539,0.759,0.228
10821927,112.0,5446.0,-5377.0,0.263,0.542,0.756,0.257
10821943,1500.0,6088.0,-5979.0,0.239,0.545,0.752,0.285
10821959,3618.0,6456.0,-7351.0,0.214,0.547,0.747,0.312
10821975,2596.0,6192.0,-6297.0,0.189,0.549,0.741,0.338
10822001,2936.0,6748.0,-6099.0,0.165,0.55,0.734,0.363
10822018,4602.0,6286.0,-6823.0,0.142,0.551,0.726,0.386
10822035,4568.0,7092.0,-6255.0,0.118,0.552,0.718,0.408
10822051,5692.0,7110.0,-6589.0,0.094,0.552,0.709,0.43
10822068,5560.0,7068.0,-5851.0,0.071,0.552,0.699,0.45
10822085,5490.0,6494.0,-5333.0,0.049,0.551,0.688,0.469
10822101,6722.0,6722.0,-5811.0,0.027,0.55,0.678,0.487
10822118,7520.0,7250.0,-5773.0,0.005,0.549,0.667,0.504
10822135,6734.0,6888.0,-4729.0,0.017,-0.547,-0.655,-0.521
10822152,7918.0,6908.0,-5199.0,0.037,-0.545,-0.644,-0.536
10822168,7120.0,6382.0,-4197.0,0.055,-0.543,-0.632,-0.55
10822195,6738.0,6408.0,-3819.0,0.073,-0.541,-0.621,-0.563
10822211,8052.0,6710.0,-4503.0,0.091,-0.538,-0.609,-0.576
10822227,6808.0,6390.0,-3157.0,0.108,-0.534,-0.596,-0.589
10822243,7574.0,6148.0,-3277.0,0.125,-0.531,-0.583,-0.602
10822259,7708.0,5884.0,-2897.0,0.141,-0.528,-0.569,-0.615
10822276,8212.0,5348.0,-2999.0,0.158,-0.524,-0.554,-0.627
10822292,7860.0,5604.0,-2393.0,0.174,-0.52,-0.539,-0.64
10822319,8438.0,5296.0,-2301.0,0.189,-0.515,-0.524,-0.652
10822335,8410.0,5206.0,-2093.0,0.204,-0.511,-0.508,-0.663
10822351,8174.0,5410.0,-1671.0,0.217,-0.507,-0.493,-0.673
10822368,8876.0,4790.0,-2117.0,0.229,-0.503,-0.479,-0.682
10822385,8592.0,4900.0,-1781.0,0.24,-0.499,-0.465,-0.691
10822402,8180.0,4952.0,-1521.0,0.249,-0.496,-0.452,-0.698
10822419,8260.0,4984.0,-1753.0,0.257,-0.493,-0.44,-0.705
10822436,7946.0,4704.0,-1647.0,0.263,-0.491,-0.43,-0.711
10822453,7432.0,4646.0,-1513.0,0.268,-0.489,-0.421,-0.715
10822479,7356.0,4900.0,-1619.0,0.271,-0.489,-0.414,-0.718
10822495,7216.0,4808.0,-1715.0,0.273,-0.489,-0.409,-0.721
10822511,6972.0,5054.0,-1763.0,0.273,-0.49,-0.406,-0.722
10822527,6746.0,5028.0,-1825.0,0.271,-0.491,-0.404,-0.723
10822543,6774.0,5332.0,-1935.0,0.268,-0.492,-0.404,-0.723
10822559,6640.0,5372.0,-1905.0,0.264,-0.494,-0.406,-0.722
10822575,6838.0,5670.0,-1991.0,0.258,-0.496,-0.41,-0.721
10822601,7070.0,5808.0,-2113.0,0.25,-0.499,-0.415,-0.718
10822618,7188.0,5746.0,-2057.0,0.241,-0.502,-0.422,-0.715
10822635,7658.0,6148.0,-2271.0,0.23,-0.505,-0.432,-0.711
10822652,7856.0,6126.0,-2169.0,0.217,-0.509,-0.442,-0.706
10822669,8160.0,6448.0,-2253.0,0.203,-0.513,-0.455,-0.699
10822686,8506.0,6586.0,-2409.0,0.186,-0.518,-0.468,-0.692
10822703,8750.0,6734.0,-2531.0,0.167,-0.523,-0.482,-0.683
10822720,9036.0,6912.0,-2677.0,0.147,-0.528,-0.498,-0.673
10822737,9206.0,7018.0,-2785.0,0.125,-0.532,-0.513,-0.661
10822754,9332.0,7344.0,-2901.0,0.102,-0.537,-0.53,-0.649
10822770,9628.0,7514.0,-3271.0,0.077,-0.541,-0.546,-0.635
10822797,9256.0,7604.0,-3267.0,0.051,-0.545,-0.563,-0.619
10822813,9478.0,8022.0,-3669.0,0.024,-0.548,-0.58,-0.602
10822829,9228.0,7662.0,-3789.0,0.003,0.551,0.596,0.585
10822845,8906.0,8044.0,-3923.0,0.031,0.553,0.612,0.565
10822861,8534.0,8044.0,-4165.0,0.059,0.554,0.627,0.545
10822877,8036.0,7636.0,-4223.0,0.087,0.555,0.642,0.523
10822903,7394.0,7854.0,-4291.0,0.116,0.555,0.655,0.499
10822919,7164.0,7724.0,-4599.0,0.144,0.555,0.668,0.475
10822936,6648.0,7746.0,-4669.0,0.171,0.553,0.68,0.449
10822952,5706.0,7132.0,-4355.0,0.198,0.552,0.691,0.424
10822968,5382.0,7180.0,-4545.0,0.224,0.549,0.701,0.397
10822984,4538.0,6662.0,-4529.0,0.25,0.546,0.709,0.369
10823001,3720.0,6702.0,-4073.0,0.274,0.543,0.716,0.342
10823018,3440.0,6188.0,-4271.0,0.298,0.539,0.722,0.314
10823035,2804.0,5846.0,-4227.0,0.321,0.536,0.727,0.286
10823061,2144.0,5516.0,-3795.0,0.344,0.531,0.73,0.257
10823077,1820.0,5348.0,-3931.0,0.365,0.527,0.732,0.229
10823093,1008.0,4660.0,-3649.0,0.386,0.522,0.733,0.203
10823109,946.0,4588.0,-3687.0,0.404,0.518,0.733,0.177
10823125,-20.0,4094.0,-3301.0,0.422,0.513,0.731,0.152
10823151,-520.0,3588.0,-3045.0,0.439,0.509,0.729,0.129
10823168,-466.0,3580.0,-3521.0,0.453,0.505,0.727,0.106
10823184,-1154.0,3628.0,-3193.0,0.466,0.501,0.724,0.085
10823201,-1916.0,3266.0,-2587.0,0.478,0.498,0.721,0.065
10823218,-1518.0,3234.0,-3269.0,0.488,0.494,0.718,0.046
10823234,-2818.0,3308.0,-2383.0,0.498,0.491,0.715,0.028
10823251,-3536.0,3154.0,-1965.0,0.507,0.487,0.711,0.012
10823268,-3444.0,3274.0,-1935.0,0.515,0.483,0.708,-0.003
10823284,-4042.0,3166.0,-1431.0,0.522,0.48,0.704,-0.016
10823301,-4130.0,3388.0,-1309.0,0.529,0.477,0.701,-0.027
10823318,-4550.0,2550.0,-237.0,0.535,0.474,0.698,-0.034
10823345,-4500.0,2090.0,87.0,0.54,0.472,0.696,-0.039
10823361,-4686.0,2252.0,539.0,0.543,0.47,0.695,-0.041
10823377,-4568.0,1868.0,715.0,0.543,0.468,0.696,-0.04
10823394,-4402.0,1176.0,713.0,0.541,0.467,0.698,-0.035
10823410,-4402.0,1944.0,879.0,0.537,0.467,0.702,-0.028
10823426,-3990.0,1900.0,655.0,0.53,0.467,0.707,-0.017
10823442,-3766.0,2028.0,357.0,0.521,0.468,0.713,-0.002
10823468,-3686.0,2096.0,-313.0,0.511,0.47,0.72,0.015
10823484,-3778.0,2258.0,-901.0,0.497,0.472,0.727,0.035
10823501,-3566.0,2346.0,-1537.0,0.482,0.475,0.734,0.058
10823518,-3176.0,2950.0,-2245.0,0.463,0.479,0.741,0.083
10823534,-3440.0,3576.0,-2183.0,0.444,0.483,0.747,0.11
10823551,-2644.0,3616.0,-2955.0,0.423,0.488,0.751,0.138
10823568,-1894.0,4280.0,-3797.0,0.4,0.494,0.754,0.168
10823585,-2106.0,4442.0,-3419.0,0.376,0.499,0.755,0.198
10823612,-154.0,5292.0,-5219.0,0.35,0.505,0.756,0.228
10823629,-1372.0,5360.0,-4241.0,0.324,0.509,0.754,0.258
10823645,758.0,6214.0,-5725.0,0.298,0.513,0.752,0.288
10823661,1160.0,5728.0,-5897.0,0.273,0.516,0.748,0.316
10823677,1688.0,7028.0,-6007.0,0.247,0.519,0.742,0.344
10823693,3364.0,6908.0,-6879.0,0.222,0.521,0.736,0.371
10823710,3028.0,7042.0,-5925.0,0.198,0.523,0.728,0.397
10823726,4886.0,8116.0,-6759.0,0.174,0.525,0.719,0.42
10823743,4136.0,6634.0,-5749.0,0.149,0.527,0.709,0.443
10823769,5864.0,8160.0,-6265.0,0.125,0.528,0.7,0.464
10823785,5294.0,6534.0,-5089.0,0.103,0.529,0.689,0.483
10823801,5396.0,7762.0,-4859.0,0.081,0.53,0.68,0.5
10823817,7792.0,7754.0,-5929.0,0.059,0.53,0.67,0.517
10823834,6530.0,7394.0,-4599.0,0.038,0.53,0.659,0.532
10823850,6912.0,8220.0,-4471.0,0.017,0.53,0.648,0.546
10823877,6852.0,6816.0,-4003.0,0.001,-0.53,-0.637,-0.559
10823893,5760.0,7056.0,-3005.0,0.017,-0.531,-0.627,-0.57
10823909,6100.0,5452.0,-3255.0,0.033,-0.531,-0.616,-0.581
10823925,6724.0,7044.0,-3241.0,0.051,-0.53,-0.605,-0.592
10823941,6588.0,6522.0,-2687.0,0.07,-0.529,-0.591,-0.605
10823957,7886.0,6180.0,-2889.0,0.088,-0.527,-0.577,-0.618
10823983,7564.0,5948.0,-2145.0,0.106,-0.524,-0.562,-0.631
10824000,8064.0,5654.0,-2311.0,0.124,-0.52,-0.548,-0.644
10824017,7824.0,5846.0,-1747.0,0.141,-0.515,-0.533,-0.656
10824034,7890.0,5992.0,-1461.0,0.158,-0.511,-0.518,-0.667
10824051,9094.0,6200.0,-1533.0,0.173,-0.507,-0.504,-0.678
10824068,8588.0,5444.0,-1013.0,0.187,-0.505,-0.489,-0.686
10824085,9050.0,5326.0,-1285.0,0.199,-0.502,-0.476,-0.694
10824102,8218.0,4794.0,-827.0,0.211,-0.499,-0.464,-0.701
10824119,7940.0,5122.0,-765.0,0.221,-0.498,-0.453,-0.706
10824136,7790.0,4582.0,-769.0,0.232,-0.496,-0.442,-0.711
10824152,7936.0,4390.0,-1075.0,0.243,-0.494,-0.431,-0.715
10824169,7704.0,4666.0,-877.0,0.253,-0.491,-0.423,-0.718
10824196,7368.0,4450.0,-657.0,0.263,-0.489,-0.415,-0.721
10824212,7622.0,4234.0,-871.0,0.271,-0.487,-0.408,-0.723
10824229,7490.0,4358.0,-871.0,0.278,-0.484,-0.404,-0.725
10824246,7532.0,4340.0,-1153.0,0.283,-0.482,-0.4,-0.726
10824262,7528.0,4574.0,-1439.0,0.288,-0.48,-0.398,-0.726
10824278,7390.0,4476.0,-1589.0,0.292,-0.479,-0.397,-0.726
10824294,7406.0,4588.0,-1811.0,0.293,-0.479,-0.398,-0.725
10824310,7058.0,4686.0,-1861.0,0.293,-0.479,-0.401,-0.724
10824328,7108.0,5122.0,-2083.0,0.291,-0.481,-0.405,-0.721
10824345,7108.0,5282.0,-2121.0,0.286,-0.483,-0.411,-0.718
10824362,7148.0,5402.0,-2145.0,0.279,-0.487,-0.418,-0.714
10824389,7670.0,5794.0,-2609.0,0.269,-0.492,-0.427,-0.71
10824406,7866.0,5926.0,-2625.0,0.258,-0.497,-0.437,-0.704
10824423,8854.0,6292.0,-3091.0,0.244,-0.502,-0.45,-0.697
10824439,8756.0,6482.0,-2577.0,0.227,-0.508,-0.464,-0.689
10824455,9040.0,6706.0,-2855.0,0.207,-0.515,-0.481,-0.679
10824471,8740.0,7226.0,-2823.0,0.185,-0.521,-0.498,-0.668
10824487,9070.0,7628.0,-3039.0,0.161,-0.529,-0.516,-0.655
10824513,9438.0,7314.0,-3189.0,0.135,-0.535,-0.533,-0.641
10824529,9686.0,7746.0,-3305.0,0.108,-0.541,-0.551,-0.626
10824545,9708.0,7942.0,-3513.0,0.08,-0.546,-0.568,-0.61
10824561,9390.0,7888.0,-3615.0,0.051,-0.551,-0.585,-0.593
10824577,9494.0,7898.0,-3927.0,0.022,-0.554,-0.602,-0.574
10824593,9252.0,7968.0,-4023.0,0.008,0.556,0.619,0.555
10824619,8590.0,8130.0,-4047.0,0.038,0.557,0.635,0.534
10824635,8238.0,8002.0,-4183.0,0.069,0.558,0.649,0.512
10824652,8142.0,7832.0,-4553.0,0.099,0.558,0.663,0.489
10824668,7128.0,7430.0,-4333.0,0.129,0.557,0.676,0.464
10824684,6718.0,7320.0,-4589.0,0.157,0.556,0.688,0.439
10824701,6398.0,7180.0,-4773.0,0.185,0.553,0.699,0.413
10824727,5136.0,6470.0,-4283.0,0.211,0.551,0.709,0.386
10824743,4864.0,6758.0,-4593.0,0.236,0.548,0.718,0.359
10824759,4336.0,6066.0,-4715.0,0.259,0.545,0.726,0.331
10824775,3360.0,5716.0,-4477.0,0.281,0.541,0.732,0.304
10824791,2920.0,5860.0,-4607.0,0.303,0.537,0.738,0.276
10824807,2492.0,5506.0,-4421.0,0.323,0.533,0.742,0.248
10824833,1650.0,5108.0,-4217.0,0.342,0.528,0.745,0.22
10824850,1406.0,4918.0,-4513.0,0.361,0.524,0.747,0.192
10824867,892.0,4688.0,-4241.0,0.378,0.519,0.749,0.164
10824883,190.0,4074.0,-4333.0,0.394,0.514,0.749,0.137
10824900,-366.0,4172.0,-4061.0,0.409,0.51,0.749,0.11
10824917,-752.0,3610.0,-4093.0,0.423,0.505,0.748,0.084
10824934,-966.0,3510.0,-3937.0,0.435,0.501,0.746,0.058
10824950,-1352.0,3662.0,-4051.0,0.446,0.497,0.743,0.034
10824966,-1968.0,3010.0,-3603.0,0.457,0.493,0.74,0.01
10824983,-2472.0,2812.0,-3483.0,0.466,0.489,0.737,-0.013
10825000,-3154.0,2700.0,-3181.0,0.474,0.486,0.733,-0.035
10825027,-3662.0,2390.0,-2801.0,0.482,0.482,0.729,-0.055
10825043,-4048.0,2446.0,-2405.0,0.489,0.479,0.725,-0.074
10825059,-4882.0,2034.0,-1493.0,0.496,0.475,0.721,-0.09
10825075,-5240.0,1958.0,-843.0,0.503,0.472,0.717,-0.104
10825091,-5706.0,1428.0,-71.0,0.508,0.469,0.713,-0.115
10825107,-5662.0,1254.0,417.0,0.512,0.467,0.711,-0.122
10825133,-5610.0,1194.0,817.0,0.514,0.466,0.709,-0.125
10825149,-5310.0,614.0,1191.0,0.513,0.467,0.71,-0.123
10825166,-5468.0,838.0,1319.0,0.508,0.469,0.712,-0.119
10825183,-5326.0,836.0,1011.0,0.501,0.473,0.716,-0.11
10825200,-5270.0,1072.0,229.0,0.491,0.478,0.722,-0.098
10825217,-5066.0,1536.0,-523.0,0.479,0.483,0.728,-0.082
10825234,-4838.0,1864.0,-1391.0,0.466,0.488,0.735,-0.064
10825251,-4576.0,2124.0,-2181.0,0.453,0.492,0.742,-0.044
10825268,-4390.0,2008.0,-2855.0,0.439,0.496,0.748,-0.023
10825285,-4590.0,1906.0,-2935.0,0.425,0.5,0.754,-0.001
10825311,-3716.0,2058.0,-4123.0,0.41,0.504,0.76,0.021
10825327,-3306.0,3018.0,-4759.0,0.394,0.509,0.764,0.043
10825343,-3052.0,3394.0,-5035.0,0.377,0.515,0.767,0.065
10825360,-2294.0,3840.0,-5559.0,0.359,0.52,0.77,0.088
10825376,-1812.0,4302.0,-5719.0,0.34,0.526,0.772,0.111
10825393,-978.0,4990.0,-6209.0,0.32,0.532,0.773,0.132
10825409,-1172.0,4694.0,-6051.0,0.301,0.537,0.773,0.153
10825426,-222.0,5220.0,-6581.0,0.281,0.542,0.773,0.174
10825442,526.0,5154.0,-6867.0,0.261,0.546,0.772,0.193
10825468,474.0,5484.0,-6581.0,0.242,0.55,0.77,0.213
10825484,972.0,5436.0,-6661.0,0.222,0.554,0.768,0.233
10825500,1752.0,5398.0,-6771.0,0.202,0.557,0.765,0.253
10825516,2544.0,5978.0,-7031.0,0.181,0.559,0.762,0.272
10825533,2084.0,5410.0,-6377.0,0.161,0.561,0.758,0.291
10825550,2446.0,5466.0,-6227.0,0.141,0.562,0.754,0.309
10825576,3600.0,5966.0,-6795.0,0.121,0.562,0.75,0.327
10825593,3012.0,5822.0,-5985.0,0.102,0.561,0.746,0.344
10825609,4090.0,5802.0,-6469.0,0.082,0.561,0.741,0.361
10825625,4340.0,5902.0,-6117.0,0.063,0.56,0.735,0.377
10825642,3974.0,5682.0,-5517.0,0.044,0.559,0.729,0.394
10825658,5900.0,5998.0,-6499.0,0.024,0.557,0.722,0.41
10825674,4432.0,5966.0,-5009.0,0.005,0.556,0.714,0.426
10825690,5860.0,5730.0,-5559.0,0.015,-0.555,-0.705,-0.441
10825717,6284.0,5310.0,-5291.0,0.033,-0.554,-0.696,-0.455
10825733,5926.0,5280.0,-4833.0,0.051,-0.552,-0.687,-0.47
10825750,7026.0,5094.0,-5203.0,0.068,-0.549,-0.678,-0.484
10825767,6780.0,5548.0,-4821.0,0.086,-0.546,-0.669,-0.497
10825783,6928.0,5240.0,-4567.0,0.103,-0.542,-0.659,-0.511
10825800,7584.0,5060.0,-4525.0,0.119,-0.539,-0.649,-0.524
10825817,6766.0,4840.0,-3685.0,0.135,-0.535,-0.639,-0.536
10825834,6966.0,4826.0,-3595.0,0.15,-0.531,-0.629,-0.548
10825851,7826.0,4752.0,-3993.0,0.166,-0.527,-0.617,-0.559
10825867,8188.0,4396.0,-3739.0,0.183,-0.523,-0.606,-0.571
10825894,8124.0,5036.0,-3317.0,0.2,-0.518,-0.595,-0.581
10825910,7974.0,4532.0,-2691.0,0.216,-0.514,-0.583,-0.591
10825926,8298.0,4014.0,-2459.0,0.231,-0.51,-0.571,-0.6
10825942,8732.0,3876.0,-2669.0,0.247,-0.505,-0.56,-0.609
10825958,8868.0,4104.0,-2607.0,0.263,-0.5,-0.548,-0.617
10825974,8650.0,4296.0,-2185.0,0.278,-0.495,-0.536,-0.625
10826000,8638.0,3788.0,-2037.0,0.291,-0.491,-0.524,-0.632
10826017,8452.0,3802.0,-1745.0,0.303,-0.487,-0.513,-0.639
10826034,8290.0,3570.0,-1575.0,0.314,-0.484,-0.502,-0.644
10826051,8452.0,3672.0,-1723.0,0.325,-0.481,-0.491,-0.65
10826068,8406.0,3668.0,-1711.0,0.335,-0.478,-0.48,-0.655
10826085,8326.0,4020.0,-1709.0,0.344,-0.475,-0.47,-0.659
10826102,7738.0,3712.0,-1415.0,0.353,-0.473,-0.46,-0.663
10826119,7988.0,3418.0,-1537.0,0.359,-0.472,-0.451,-0.667
10826135,8038.0,2954.0,-1631.0,0.364,-0.47,-0.444,-0.671
10826151,7726.0,3782.0,-1487.0,0.368,-0.468,-0.438,-0.674
10826168,7196.0,3774.0,-1283.0,0.369,-0.467,-0.433,-0.677
10826194,7292.0,3860.0,-1543.0,0.367,-0.467,-0.431,-0.679
10826210,7382.0,4134.0,-1591.0,0.363,-0.469,-0.43,-0.681
10826226,7728.0,3948.0,-1851.0,0.357,-0.472,-0.431,-0.681
10826242,7738.0,3776.0,-1883.0,0.349,-0.475,-0.434,-0.681
10826258,7774.0,4216.0,-2003.0,0.34,-0.479,-0.439,-0.681
10826274,7826.0,4408.0,-2029.0,0.328,-0.483,-0.445,-0.679
10826301,8052.0,4520.0,-2281.0,0.316,-0.487,-0.453,-0.677
10826318,7958.0,4468.0,-2163.0,0.302,-0.491,-0.463,-0.673
10826335,8316.0,5022.0,-2357.0,0.287,-0.496,-0.474,-0.668
10826352,8532.0,4964.0,-2439.0,0.27,-0.501,-0.487,-0.662
10826369,8642.0,5330.0,-2383.0,0.252,-0.506,-0.501,-0.655
10826385,9034.0,5480.0,-2641.0,0.233,-0.512,-0.516,-0.646
10826401,9478.0,5466.0,-2767.0,0.213,-0.517,-0.532,-0.636
10826418,10096.0,5718.0,-3245.0,0.192,-0.521,-0.549,-0.625
10826444,9700.0,6388.0,-3107.0,0.17,-0.525,-0.567,-0.612
10826460,9644.0,6262.0,-3363.0,0.146,-0.53,-0.584,-0.598
10826476,9542.0,6290.0,-3833.0,0.121,-0.534,-0.601,-0.582
10826492,9108.0,6908.0,-4001.0,0.095,-0.538,-0.618,-0.565
10826508,8740.0,6772.0,-4189.0,0.069,-0.542,-0.634,-0.547
10826524,8606.0,6912.0,-4649.0,0.042,-0.546,-0.649,-0.528
10826540,7904.0,6978.0,-4585.0,0.015,-0.549,-0.663,-0.508
10826566,7730.0,6526.0,-5055.0,0.013,0.552,0.677,0.487
10826582,7088.0,6582.0,-5021.0,0.04,0.555,0.689,0.464
10826599,6728.0,6312.0,-5379.0,0.068,0.557,0.7,0.441
10826616,6068.0,6300.0,-5261.0,0.095,0.558,0.711,0.417
10826632,5774.0,6330.0,-5565.0,0.121,0.559,0.72,0.392
10826649,5030.0,5914.0,-5575.0,0.146,0.559,0.729,0.367
10826665,4428.0,6128.0,-5485.0,0.171,0.558,0.736,0.342
10826681,3844.0,5600.0,-5543.0,0.195,0.557,0.743,0.316
10826708,2908.0,5420.0,-5227.0,0.219,0.556,0.748,0.29
10826724,2218.0,5536.0,-5009.0,0.242,0.554,0.751,0.265
10826740,2678.0,4694.0,-5683.0,0.263,0.553,0.754,0.239
10826756,1922.0,5264.0,-5311.0,0.283,0.551,0.756,0.214
10826772,1548.0,4504.0,-5479.0,0.302,0.548,0.757,0.187
10826788,476.0,4770.0,-4885.0,0.321,0.545,0.757,0.161
10826814,720.0,4280.0,-5481.0,0.339,0.542,0.757,0.135
10826830,4.0,4262.0,-4983.0,0.357,0.539,0.755,0.109
10826846,-650.0,4212.0,-4795.0,0.373,0.536,0.753,0.084
10826862,-1110.0,3758.0,-4673.0,0.388,0.532,0.75,0.06
10826878,-1574.0,3570.0,-4483.0,0.403,0.529,0.746,0.036
10826894,-2150.0,3316.0,-4179.0,0.416,0.526,0.741,0.013
10826920,-2130.0,3260.0,-4215.0,0.429,0.523,0.736,-0.01
10826936,-3168.0,3050.0,-3265.0,0.441,0.52,0.731,-0.031
10826952,-3136.0,2684.0,-3071.0,0.454,0.517,0.724,-0.05
10826968,-3952.0,2380.0,-2077.0,0.465,0.514,0.718,-0.068
10826984,-4486.0,2066.0,-1379.0,0.476,0.51,0.712,-0.083
10827000,-4706.0,1988.0,-697.0,0.485,0.507,0.706,-0.096
10827027,-4892.0,900.0,23.0,0.493,0.504,0.701,-0.105
10827043,-4620.0,1014.0,441.0,0.498,0.503,0.698,-0.111
10827059,-4458.0,1038.0,779.0,0.5,0.503,0.696,-0.113
10827075,-4538.0,916.0,1055.0,0.498,0.505,0.696,-0.111
10827091,-4378.0,828.0,789.0,0.494,0.509,0.697,-0.105
10827107,-4316.0,1130.0,307.0,0.486,0.514,0.701,-0.095
10827133,-4414.0,1642.0,-263.0,0.476,0.519,0.705,-0.082
10827149,-4372.0,1518.0,-1013.0,0.465,0.525,0.71,-0.065
10827165,-3936.0,2324.0,-1933.0,0.451,0.531,0.715,-0.047
10827182,-4252.0,2086.0,-1907.0,0.437,0.537,0.721,-0.027
10827199,-3464.0,2442.0,-2861.0,0.422,0.543,0.726,-0.005
10827216,-3680.0,2672.0,-2793.0,0.407,0.549,0.73,0.017
10827233,-3010.0,2530.0,-3477.0,0.391,0.555,0.733,0.04
10827249,-1618.0,3568.0,-5045.0,0.371,0.562,0.736,0.063
10827265,-2360.0,3794.0,-4747.0,0.351,0.569,0.738,0.087
10827292,-1906.0,4924.0,-5137.0,0.331,0.575,0.74,0.111
10827308,-1288.0,4584.0,-5439.0,0.312,0.58,0.74,0.135
10827324,-804.0,4542.0,-5161.0,0.293,0.584,0.74,0.16
10827340,1634.0,5126.0,-6873.0,0.271,0.587,0.74,0.185
10827356,1592.0,5558.0,-6757.0,0.249,0.589,0.74,0.211
10827382,2144.0,6178.0,-7193.0,0.227,0.589,0.738,0.237
10827399,1678.0,5922.0,-6519.0,0.207,0.589,0.736,0.262
10827416,1396.0,5954.0,-5981.0,0.189,0.589,0.731,0.287
10827432,2150.0,4596.0,-5927.0,0.171,0.587,0.727,0.311
10827448,4356.0,5992.0,-7145.0,0.15,0.586,0.722,0.336
10827464,4300.0,6456.0,-6737.0,0.128,0.584,0.717,0.358
10827480,4326.0,7592.0,-6313.0,0.108,0.582,0.711,0.38
10827506,4306.0,5600.0,-5553.0,0.09,0.58,0.703,0.401
10827522,5344.0,5462.0,-5809.0,0.07,0.577,0.696,0.421
10827538,5558.0,6354.0,-5287.0,0.049,0.574,0.688,0.441
10827554,5856.0,6970.0,-4995.0,0.029,0.572,0.679,0.46
10827570,7424.0,5864.0,-5695.0,0.009,0.569,0.669,0.478
10827586,7284.0,5776.0,-5041.0,0.011,-0.565,-0.659,-0.496
10827603,6768.0,6080.0,-4225.0,0.03,-0.561,-0.649,-0.514
10827619,6850.0,6036.0,-4063.0,0.049,-0.557,-0.637,-0.53
10827640,7604.0,5520.0,-4337.0,0.068,-0.553,-0.625,-0.546
10827656,7596.0,6032.0,-3627.0,0.085,-0.549,-0.614,-0.561
10827672,8160.0,5916.0,-3409.0,0.101,-0.545,-0.602,-0.574
10827698,7718.0,5468.0,-2609.0,0.116,-0.541,-0.59,-0.587
10827715,9214.0,5192.0,-3677.0,0.133,-0.537,-0.578,-0.6
10827732,8366.0,5192.0,-2705.0,0.15,-0.532,-0.565,-0.613
10827749,8432.0,5748.0,-2561.0,0.167,-0.526,-0.552,-0.625
10827766,8242.0,5128.0,-2001.0,0.183,-0.521,-0.538,-0.636
10827783,8520.0,4866.0,-2089.0,0.199,-0.516,-0.524,-0.647
10827800,8328.0,4654.0,-1515.0,0.214,-0.511,-0.511,-0.657
10827817,8794.0,4660.0,-1999.0,0.229,-0.506,-0.497,-0.667
10827834,8638.0,4666.0,-1373.0,0.243,-0.5,-0.483,-0.676
10827855,8312.0,4724.0,-1233.0,0.255,-0.496,-0.47,-0.684
10827871,8206.0,4290.0,-989.0,0.266,-0.492,-0.457,-0.691
10827887,8460.0,4094.0,-1111.0,0.276,-0.488,-0.445,-0.698
10827913,8734.0,4362.0,-1331.0,0.285,-0.484,-0.434,-0.704
10827930,8020.0,4464.0,-1055.0,0.293,-0.481,-0.424,-0.709
10827947,7838.0,3988.0,-1253.0,0.297,-0.479,-0.416,-0.714
10827963,7636.0,4170.0,-1523.0,0.3,-0.479,-0.409,-0.717
10827979,7260.0,4408.0,-1511.0,0.301,-0.479,-0.404,-0.719
10827995,6966.0,4326.0,-1737.0,0.3,-0.48,-0.4,-0.721
10828011,7100.0,4326.0,-1907.0,0.299,-0.481,-0.397,-0.722
10828027,7116.0,4602.0,-1927.0,0.295,-0.483,-0.396,-0.723
10828053,6886.0,4708.0,-1715.0,0.291,-0.485,-0.397,-0.723
10828069,6896.0,4920.0,-1781.0,0.284,-0.488,-0.4,-0.722
10828085,6962.0,4898.0,-1817.0,0.275,-0.492,-0.405,-0.72
10828101,7420.0,5040.0,-1915.0,0.265,-0.496,-0.411,-0.717
10828117,7714.0,5368.0,-1965.0,0.254,-0.502,-0.418,-0.713
10828134,8176.0,5286.0,-2209.0,0.241,-0.507,-0.427,-0.709
10828151,8232.0,5816.0,-2203.0,0.226,-0.513,-0.438,-0.703
10828168,8282.0,6014.0,-2187.0,0.211,-0.518,-0.451,-0.696
10828194,8394.0,5826.0,-2235.0,0.193,-0.524,-0.464,-0.687
10828210,8816.0,6218.0,-2515.0,0.175,-0.531,-0.478,-0.677
10828226,8862.0,6424.0,-2691.0,0.154,-0.537,-0.494,-0.666
10828243,9066.0,6708.0,-2943.0,0.133,-0.543,-0.51,-0.654
10828259,9006.0,6778.0,-2969.0,0.111,-0.548,-0.526,-0.641
10828275,9248.0,6950.0,-3245.0,0.088,-0.554,-0.542,-0.626
10828301,9380.0,6970.0,-3657.0,0.064,-0.56,-0.558,-0.609
10828317,9290.0,6988.0,-3733.0,0.039,-0.564,-0.575,-0.591
10828334,8926.0,7106.0,-3839.0,0.014,-0.569,-0.59,-0.573
10828350,8890.0,7074.0,-4293.0,0.012,0.573,0.606,0.552
10828366,8438.0,7094.0,-4377.0,0.038,0.576,0.621,0.531
10828385,8120.0,7554.0,-4739.0,0.064,0.579,0.634,0.509
10828401,7152.0,7016.0,-4585.0,0.091,0.582,0.647,0.485
10828417,6798.0,7048.0,-4861.0,0.117,0.584,0.659,0.46
10828443,6130.0,6508.0,-4883.0,0.144,0.585,0.669,0.434
10828459,5850.0,6758.0,-5231.0,0.169,0.586,0.679,0.408
10828475,4810.0,6606.0,-5031.0,0.194,0.586,0.688,0.382
10828491,4252.0,6144.0,-5023.0,0.218,0.586,0.695,0.355
10828507,3614.0,5894.0,-5021.0,0.241,0.585,0.701,0.328
10828523,3422.0,6038.0,-5131.0,0.263,0.584,0.706,0.301
10828549,2902.0,5700.0,-5289.0,0.285,0.582,0.711,0.273
10828565,2538.0,5770.0,-5447.0,0.305,0.58,0.715,0.244
10828581,1864.0,5380.0,-5271.0,0.325,0.578,0.717,0.215
10828597,1262.0,5212.0,-5057.0,0.343,0.575,0.719,0.186
10828613,882.0,5132.0,-4953.0,0.362,0.572,0.719,0.156
10828629,696.0,4960.0,-4977.0,0.378,0.57,0.718,0.127
10828655,-186.0,4390.0,-4743.0,0.394,0.567,0.717,0.098
10828671,-684.0,4786.0,-4471.0,0.409,0.564,0.714,0.069
10828687,-1156.0,3984.0,-4353.0,0.424,0.561,0.71,0.041
10828703,-1720.0,4012.0,-4029.0,0.438,0.557,0.706,0.013
10828719,-1836.0,3924.0,-3987.0,0.451,0.553,0.7,-0.013
10828735,-1984.0,3718.0,-3891.0,0.463,0.55,0.695,-0.037
10828761,-2700.0,3420.0,-3259.0,0.474,0.546,0.688,-0.06
10828777,-3358.0,3054.0,-2731.0,0.485,0.541,0.682,-0.082
10828793,-4120.0,2706.0,-1797.0,0.495,0.537,0.676,-0.102
10828809,-4318.0,2088.0,-1373.0,0.504,0.532,0.67,-0.12
10828825,-4804.0,1538.0,-275.0,0.511,0.528,0.665,-0.136
10828841,-4996.0,1688.0,329.0,0.518,0.523,0.66,-0.149
10828867,-4750.0,1622.0,1043.0,0.523,0.52,0.657,-0.158
10828883,-5012.0,990.0,1413.0,0.526,0.518,0.655,-0.163
10828899,-4754.0,1194.0,1403.0,0.526,0.518,0.654,-0.164
10828915,-4630.0,1054.0,1119.0,0.523,0.52,0.656,-0.161
10828931,-4752.0,1486.0,819.0,0.517,0.523,0.66,-0.154
10828947,-4582.0,1540.0,57.0,0.509,0.527,0.665,-0.143
10828964,-4814.0,1618.0,-591.0,0.5,0.531,0.672,-0.13
10828991,-4986.0,2012.0,-1469.0,0.489,0.535,0.679,-0.115
10829007,-5280.0,2074.0,-1805.0,0.477,0.54,0.687,-0.098
10829023,-5074.0,2404.0,-2461.0,0.465,0.544,0.694,-0.081
10829039,-4948.0,2388.0,-2713.0,0.453,0.547,0.701,-0.063
10829056,-4136.0,2490.0,-3501.0,0.44,0.552,0.707,-0.043
10829072,-3566.0,2960.0,-4235.0,0.426,0.557,0.713,-0.023
10829088,-3926.0,2968.0,-4303.0,0.409,0.562,0.719,-0.002
10829114,-3836.0,3674.0,-4301.0,0.393,0.567,0.724,0.019
10829131,-3938.0,3482.0,-3877.0,0.377,0.572,0.727,0.041
10829148,-1782.0,3760.0,-5615.0,0.36,0.578,0.73,0.064
10829164,-2258.0,3470.0,-5081.0,0.342,0.583,0.732,0.087
10829181,-1708.0,4804.0,-5311.0,0.323,0.588,0.733,0.11
10829198,-332.0,4468.0,-6505.0,0.305,0.592,0.734,0.133
10829215,-920.0,4552.0,-5803.0,0.285,0.597,0.733,0.158
10829231,1174.0,4440.0,-7185.0,0.265,0.6,0.733,0.182
10829257,-176.0,5178.0,-5831.0,0.245,0.602,0.731,0.206
10829273,2158.0,5096.0,-7683.0,0.226,0.603,0.73,0.229
10829289,742.0,5076.0,-6081.0,0.207,0.605,0.727,0.251
10829305,3474.0,5200.0,-7841.0,0.187,0.605,0.724,0.273
10829321,2812.0,5740.0,-7025.0,0.168,0.605,0.72,0.294
10829337,3164.0,5768.0,-6975.0,0.149,0.605,0.716,0.315
10829363,3220.0,5480.0,-6547.0,0.131,0.604,0.712,0.334
10829379,3250.0,5324.0,-6143.0,0.111,0.604,0.706,0.353
10829396,4948.0,5916.0,-6929.0,0.092,0.602,0.701,0.371
10829413,4604.0,6004.0,-6317.0,0.072,0.601,0.695,0.388
10829430,5170.0,5992.0,-6375.0,0.052,0.6,0.687,0.406
10829447,5256.0,5734.0,-5915.0,0.033,0.599,0.68,0.422
10829464,5828.0,5824.0,-5911.0,0.014,0.597,0.672,0.438
10829481,5936.0,5704.0,-5589.0,0.003,-0.596,-0.663,-0.453
10829498,6488.0,5842.0,-5665.0,0.02,-0.594,-0.655,-0.467
10829515,6460.0,6078.0,-5347.0,0.036,-0.591,-0.646,-0.481
10829541,6694.0,5686.0,-5303.0,0.051,-0.589,-0.638,-0.494
10829557,6864.0,5576.0,-5075.0,0.065,-0.587,-0.629,-0.506
10829573,6308.0,5346.0,-4349.0,0.079,-0.584,-0.62,-0.518
10829589,7160.0,5976.0,-4753.0,0.093,-0.58,-0.611,-0.53
10829606,6910.0,5384.0,-4231.0,0.106,-0.577,-0.602,-0.542
10829623,6692.0,5458.0,-3793.0,0.118,-0.574,-0.592,-0.553
10829640,7086.0,4912.0,-3837.0,0.131,-0.57,-0.583,-0.564
10829656,7246.0,5054.0,-3519.0,0.143,-0.567,-0.573,-0.574
10829673,7258.0,4934.0,-3133.0,0.155,-0.563,-0.563,-0.584
10829690,7542.0,4714.0,-3069.0,0.166,-0.56,-0.553,-0.594
10829716,7848.0,4618.0,-3073.0,0.177,-0.557,-0.543,-0.603
10829732,7702.0,4504.0,-2579.0,0.188,-0.553,-0.532,-0.613
10829748,8306.0,4130.0,-2735.0,0.199,-0.55,-0.521,-0.622
10829765,8232.0,4094.0,-2349.0,0.21,-0.545,-0.511,-0.631
10829782,7648.0,3896.0,-1797.0,0.219,-0.542,-0.501,-0.638
10829798,7606.0,4012.0,-1663.0,0.227,-0.538,-0.492,-0.645
10829815,8186.0,4082.0,-1915.0,0.234,-0.536,-0.483,-0.652
10829832,7886.0,3460.0,-1577.0,0.241,-0.533,-0.474,-0.658
10829859,8446.0,4028.0,-2027.0,0.248,-0.53,-0.465,-0.664
10829876,8042.0,3700.0,-1737.0,0.254,-0.527,-0.456,-0.67
10829892,7768.0,3676.0,-1589.0,0.259,-0.524,-0.449,-0.675
10829908,7882.0,3734.0,-1707.0,0.263,-0.522,-0.443,-0.679
10829924,7746.0,4066.0,-1837.0,0.266,-0.521,-0.438,-0.683
10829940,7870.0,3990.0,-1955.0,0.267,-0.52,-0.433,-0.686
10829966,7950.0,4230.0,-2375.0,0.267,-0.52,-0.43,-0.688
10829982,7532.0,4390.0,-2293.0,0.266,-0.521,-0.429,-0.688
10829999,7620.0,4478.0,-2585.0,0.262,-0.522,-0.43,-0.688
10830016,7490.0,4742.0,-2643.0,0.257,-0.524,-0.432,-0.687
10830033,7438.0,5064.0,-2847.0,0.25,-0.527,-0.437,-0.685
10830050,7316.0,5076.0,-2975.0,0.241,-0.531,-0.443,-0.681
10830066,7326.0,5328.0,-3069.0,0.231,-0.534,-0.45,-0.677
10830083,7420.0,5312.0,-3163.0,0.219,-0.539,-0.459,-0.672
10830100,7468.0,5392.0,-3067.0,0.207,-0.543,-0.469,-0.666
10830117,7798.0,5448.0,-3187.0,0.193,-0.547,-0.48,-0.658
10830134,8042.0,5722.0,-3317.0,0.178,-0.552,-0.492,-0.65
10830150,8408.0,5638.0,-3497.0,0.161,-0.557,-0.505,-0.64
10830177,8654.0,5822.0,-3639.0,0.143,-0.562,-0.519,-0.628
10830194,8984.0,6018.0,-4001.0,0.124,-0.567,-0.533,-0.616
10830211,8846.0,6012.0,-4025.0,0.104,-0.571,-0.548,-0.602
10830228,8896.0,6324.0,-4307.0,0.083,-0.576,-0.563,-0.586
10830245,8698.0,6374.0,-4439.0,0.061,-0.581,-0.578,-0.57
10830262,8434.0,6280.0,-4567.0,0.038,-0.585,-0.593,-0.552
10830279,8110.0,6582.0,-4715.0,0.015,-0.59,-0.607,-0.533
10830296,8022.0,6470.0,-5023.0,0.009,0.593,0.62,0.513
10830313,7564.0,6422.0,-5059.0,0.032,0.596,0.633,0.492
10830330,6816.0,6488.0,-5009.0,0.056,0.6,0.645,0.47
10830346,6798.0,6388.0,-5419.0,0.08,0.602,0.657,0.447
10830363,6266.0,6308.0,-5481.0,0.103,0.604,0.667,0.423
10830390,5658.0,5876.0,-5495.0,0.126,0.606,0.677,0.398
10830406,5414.0,5998.0,-5665.0,0.148,0.607,0.686,0.373
10830422,4616.0,5916.0,-5475.0,0.17,0.608,0.693,0.348
10830438,4412.0,5698.0,-5727.0,0.191,0.608,0.7,0.322
10830454,3840.0,5630.0,-5715.0,0.211,0.609,0.705,0.298
10830470,3298.0,5068.0,-5689.0,0.23,0.608,0.709,0.273
10830496,2408.0,4994.0,-5323.0,0.249,0.607,0.712,0.249
10830513,2210.0,4960.0,-5547.0,0.267,0.606,0.715,0.225
10830530,1348.0,4778.0,-5091.0,0.284,0.604,0.717,0.2
10830547,1164.0,4824.0,-5207.0,0.301,0.602,0.718,0.175
10830564,210.0,4480.0,-4839.0,0.318,0.6,0.719,0.151
10830581,164.0,4456.0,-5075.0,0.333,0.597,0.719,0.127
10830597,-292.0,4192.0,-4925.0,0.348,0.594,0.718,0.103
10830614,-628.0,4188.0,-4967.0,0.362,0.591,0.716,0.08
10830631,-1120.0,4104.0,-4725.0,0.374,0.588,0.715,0.058
10830647,-1700.0,3850.0,-4529.0,0.385,0.585,0.713,0.036
10830674,-2232.0,3720.0,-4251.0,0.396,0.582,0.71,0.015
10830690,-2270.0,3570.0,-4465.0,0.405,0.579,0.708,-0.006
10830706,-2614.0,3552.0,-4215.0,0.413,0.576,0.705,-0.026
10830722,-3340.0,3252.0,-3777.0,0.421,0.574,0.701,-0.045
10830738,-3196.0,3446.0,-4009.0,0.428,0.571,0.697,-0.063
10830754,-3958.0,2860.0,-3629.0,0.434,0.569,0.693,-0.08
10830770,-4480.0,2906.0,-3133.0,0.44,0.567,0.689,-0.097
10830796,-4422.0,2796.0,-2925.0,0.446,0.565,0.685,-0.113
10830813,-4816.0,2370.0,-2475.0,0.451,0.563,0.681,-0.127
10830830,-5042.0,2496.0,-2079.0,0.456,0.561,0.677,-0.138
10830847,-5602.0,1846.0,-1311.0,0.46,0.559,0.674,-0.147
10830864,-5736.0,1558.0,-679.0,0.463,0.558,0.672,-0.153
10830881,-5764.0,1108.0,-241.0,0.464,0.557,0.671,-0.155
10830898,-5644.0,1314.0,73.0,0.464,0.558,0.671,-0.154
10830914,-5480.0,1572.0,127.0,0.462,0.56,0.672,-0.149
10830931,-5044.0,1330.0,-343.0,0.459,0.562,0.674,-0.141
10830948,-4830.0,1556.0,-851.0,0.454,0.565,0.677,-0.13
10830974,-4682.0,1696.0,-1549.0,0.447,0.569,0.68,-0.116
10830990,-4624.0,2246.0,-2021.0,0.44,0.572,0.685,-0.101
10831006,-4612.0,1964.0,-2363.0,0.432,0.576,0.689,-0.084
10831022,-4212.0,2360.0,-3033.0,0.424,0.579,0.694,-0.066
10831038,-4348.0,2366.0,-3299.0,0.414,0.582,0.698,-0.047
10831054,-3540.0,3054.0,-4239.0,0.403,0.586,0.703,-0.026
10831080,-3294.0,3304.0,-4793.0,0.39,0.59,0.707,-0.006
10831097,-3268.0,3510.0,-5097.0,0.377,0.594,0.71,0.015
10831114,-3078.0,3830.0,-5557.0,0.362,0.599,0.713,0.037
10831131,-2766.0,4196.0,-5809.0,0.347,0.603,0.716,0.057
10831148,-2854.0,4130.0,-5547.0,0.333,0.607,0.718,0.077
10831164,-1678.0,4632.0,-6355.0,0.318,0.611,0.719,0.097
10831180,-982.0,4488.0,-6721.0,0.302,0.615,0.719,0.116
10831197,-722.0,5094.0,-6859.0,0.285,0.618,0.72,0.136
10831214,-264.0,4852.0,-7175.0,0.268,0.621,0.719,0.156
10831231,-964.0,5108.0,-6341.0,0.252,0.624,0.719,0.175
10831257,80.0,4786.0,-6867.0,0.237,0.625,0.718,0.193
10831273,1022.0,5060.0,-7213.0,0.221,0.627,0.717,0.211
10831289,1706.0,5306.0,-7451.0,0.205,0.627,0.716,0.229
10831305,1378.0,5522.0,-7005.0,0.189,0.627,0.714,0.247
10831321,1802.0,5294.0,-7055.0,0.174,0.627,0.712,0.265
10831337,2262.0,5092.0,-7175.0,0.16,0.625,0.71,0.282
10831363,1906.0,5378.0,-6485.0,0.145,0.624,0.707,0.299
10831380,3356.0,5592.0,-7347.0,0.13,0.623,0.704,0.316
10831397,3546.0,5684.0,-7035.0,0.116,0.622,0.7,0.332
10831414,3384.0,5716.0,-6585.0,0.102,0.62,0.695,0.348
10831430,4128.0,5766.0,-6661.0,0.088,0.619,0.691,0.364
10831447,4216.0,5432.0,-6469.0,0.075,0.617,0.685,0.379
10831464,3756.0,5454.0,-5765.0,0.064,0.616,0.679,0.393
10831480,3996.0,5024.0,-5675.0,0.052,0.615,0.673,0.407
10831496,5294.0,5706.0,-6089.0,0.04,0.615,0.666,0.421
10831513,4640.0,5536.0,-5253.0,0.029,0.614,0.658,0.435
10831539,4972.0,5480.0,-5243.0,0.018,0.613,0.649,0.449
10831555,5048.0,4996.0,-5111.0,0.008,0.612,0.641,0.463
10831571,5958.0,5122.0,-5549.0,0.002,-0.609,-0.633,-0.478
10831587,5808.0,5580.0,-5167.0,0.013,-0.606,-0.624,-0.492
10831603,5802.0,6016.0,-4989.0,0.023,-0.604,-0.616,-0.506
10831629,6092.0,5402.0,-4951.0,0.032,-0.601,-0.607,-0.519
10831648,5330.0,5242.0,-4143.0,0.04,-0.599,-0.598,-0.532
10831665,5810.0,5058.0,-4289.0,0.049,-0.596,-0.589,-0.543
10831682,6484.0,5386.0,-4321.0,0.058,-0.594,-0.58,-0.555
10831699,6396.0,5190.0,-3877.0,0.067,-0.591,-0.571,-0.566
10831716,6204.0,5270.0,-3309.0,0.076,-0.589,-0.562,-0.576
10831733,7282.0,4916.0,-3785.0,0.085,-0.586,-0.552,-0.587
10831749,6662.0,4610.0,-2997.0,0.095,-0.583,-0.543,-0.597
10831766,7144.0,5160.0,-3047.0,0.105,-0.58,-0.533,-0.607
10831782,7184.0,4576.0,-2567.0,0.114,-0.577,-0.524,-0.616
10831798,7458.0,4782.0,-2551.0,0.123,-0.574,-0.514,-0.625
10831814,7954.0,4470.0,-2633.0,0.132,-0.571,-0.505,-0.634
10831841,7838.0,4726.0,-2285.0,0.141,-0.568,-0.496,-0.641
10831857,7760.0,4466.0,-2065.0,0.148,-0.566,-0.487,-0.648
10831873,7636.0,4396.0,-1849.0,0.154,-0.565,-0.48,-0.653
10831889,7474.0,4162.0,-1715.0,0.16,-0.564,-0.472,-0.658
10831905,7866.0,4150.0,-2085.0,0.165,-0.563,-0.464,-0.663
10831922,7248.0,4162.0,-1651.0,0.171,-0.562,-0.457,-0.668
10831938,7532.0,4250.0,-1791.0,0.176,-0.561,-0.449,-0.673
10831964,7274.0,4186.0,-1493.0,0.182,-0.559,-0.442,-0.678
10831980,7236.0,4010.0,-1501.0,0.187,-0.557,-0.434,-0.683
10831997,7300.0,4216.0,-1521.0,0.192,-0.555,-0.428,-0.687
10832013,7320.0,4238.0,-1379.0,0.195,-0.554,-0.422,-0.691
10832030,7484.0,4238.0,-1453.0,0.198,-0.553,-0.416,-0.694
10832047,7626.0,4444.0,-1583.0,0.199,-0.552,-0.412,-0.697
10832064,7648.0,4378.0,-1677.0,0.198,-0.552,-0.409,-0.699
10832080,7792.0,4698.0,-1871.0,0.197,-0.553,-0.407,-0.7
10832097,7546.0,4766.0,-1675.0,0.194,-0.554,-0.406,-0.7
10832124,7430.0,4796.0,-1931.0,0.189,-0.556,-0.407,-0.699
10832140,7510.0,4950.0,-2161.0,0.182,-0.559,-0.41,-0.697
10832156,7404.0,5192.0,-2235.0,0.175,-0.563,-0.414,-0.694
10832172,7342.0,5426.0,-2375.0,0.165,-0.566,-0.419,-0.69
10832188,7484.0,5634.0,-2637.0,0.155,-0.57,-0.426,-0.685
10832204,7512.0,5846.0,-2753.0,0.144,-0.574,-0.435,-0.679
10832230,7470.0,6136.0,-2655.0,0.131,-0.578,-0.444,-0.671
10832247,7962.0,6138.0,-3159.0,0.117,-0.583,-0.455,-0.663
10832264,7932.0,6294.0,-3111.0,0.101,-0.587,-0.468,-0.653
10832280,8004.0,6612.0,-3283.0,0.085,-0.591,-0.481,-0.642
10832297,8200.0,6630.0,-3507.0,0.067,-0.595,-0.494,-0.63
10832314,8348.0,6684.0,-3663.0,0.048,-0.599,-0.509,-0.616
10832331,8342.0,7136.0,-3785.0,0.028,-0.603,-0.524,-0.601
10832347,8296.0,7232.0,-3951.0,0.007,-0.606,-0.539,-0.585
10832364,8184.0,7236.0,-4095.0,0.014,0.61,0.554,0.567
10832390,7826.0,7268.0,-4155.0,0.037,0.612,0.568,0.548
10832406,8048.0,7640.0,-4687.0,0.061,0.614,0.583,0.528
10832422,7516.0,7270.0,-4615.0,0.084,0.616,0.597,0.507
10832438,6732.0,7224.0,-4599.0,0.108,0.617,0.61,0.485
10832454,6612.0,7350.0,-4759.0,0.132,0.618,0.622,0.463
10832470,5784.0,6974.0,-4665.0,0.156,0.618,0.633,0.439
10832496,5574.0,7012.0,-4955.0,0.179,0.618,0.643,0.416
10832513,4694.0,6516.0,-4805.0,0.201,0.617,0.652,0.391
10832530,3804.0,6448.0,-4643.0,0.224,0.616,0.661,0.366
10832546,3848.0,6498.0,-4981.0,0.246,0.614,0.668,0.34
10832563,2820.0,5690.0,-4743.0,0.267,0.613,0.674,0.315
10832580,2886.0,6182.0,-4951.0,0.286,0.61,0.68,0.289
10832597,2046.0,5400.0,-4787.0,0.304,0.607,0.685,0.264
10832613,1572.0,5522.0,-4775.0,0.322,0.605,0.688,0.239
10832630,1176.0,5008.0,-4877.0,0.339,0.601,0.691,0.213
10832656,332.0,4968.0,-4577.0,0.355,0.597,0.694,0.187
10832672,126.0,4970.0,-4643.0,0.371,0.593,0.696,0.162
10832688,-388.0,4718.0,-4565.0,0.385,0.589,0.697,0.137
10832704,-752.0,4454.0,-4717.0,0.4,0.585,0.697,0.111
10832720,-1386.0,4482.0,-4623.0,0.413,0.58,0.697,0.086
10832736,-1490.0,4470.0,-4655.0,0.425,0.576,0.696,0.062
10832752,-1978.0,4304.0,-4605.0,0.436,0.572,0.694,0.038
10832778,-2342.0,3944.0,-4403.0,0.447,0.567,0.691,0.014
10832795,-3108.0,3624.0,-3927.0,0.457,0.563,0.688,-0.01
10832812,-3102.0,3348.0,-3879.0,0.467,0.558,0.685,-0.033
10832829,-3594.0,3420.0,-3425.0,0.476,0.554,0.681,-0.056
10832846,-4044.0,3042.0,-2827.0,0.485,0.55,0.675,-0.077
10832863,-4260.0,2492.0,-2289.0,0.493,0.546,0.67,-0.097
10832880,-4604.0,3032.0,-1833.0,0.502,0.542,0.664,-0.115
10832896,-4738.0,2194.0,-1153.0,0.51,0.537,0.659,-0.13
10832913,-4976.0,1514.0,-581.0,0.517,0.533,0.655,-0.142
10832930,-5188.0,1058.0,309.0,0.521,0.53,0.652,-0.151
10832947,-5346.0,1184.0,967.0,0.524,0.528,0.65,-0.157
10832974,-5108.0,650.0,1299.0,0.525,0.527,0.649,-0.158
10832990,-5314.0,822.0,1495.0,0.523,0.528,0.65,-0.156
10833007,-5162.0,1056.0,1245.0,0.519,0.531,0.653,-0.15
10833023,-5154.0,1542.0,947.0,0.513,0.534,0.657,-0.14
10833039,-4746.0,1442.0,149.0,0.507,0.539,0.661,-0.126
10833055,-4702.0,1848.0,-237.0,0.499,0.544,0.666,-0.11
10833081,-4020.0,2020.0,-1013.0,0.49,0.549,0.671,-0.09
10833097,-3674.0,2576.0,-1795.0,0.48,0.554,0.676,-0.069
10833113,-3598.0,2404.0,-2341.0,0.469,0.56,0.681,-0.045
10833130,-3316.0,2770.0,-2835.0,0.457,0.565,0.687,-0.02
10833146,-2870.0,3432.0,-3457.0,0.443,0.571,0.691,0.007
10833163,-2526.0,3840.0,-4229.0,0.428,0.576,0.695,0.035
10833179,-2918.0,3998.0,-4271.0,0.412,0.581,0.699,0.064
10833196,-2234.0,4024.0,-4843.0,0.396,0.586,0.701,0.092
10833223,-2132.0,4896.0,-5271.0,0.379,0.589,0.703,0.119
10833239,-1494.0,4924.0,-5745.0,0.361,0.593,0.705,0.147
10833255,-1156.0,6012.0,-5853.0,0.343,0.597,0.705,0.173
10833271,-806.0,5254.0,-5979.0,0.325,0.6,0.704,0.198
10833287,722.0,6046.0,-6911.0,0.306,0.603,0.702,0.223
10833303,66.0,5702.0,-6013.0,0.287,0.606,0.7,0.246
10833319,1564.0,6554.0,-6989.0,0.267,0.608,0.698,0.269
10833345,1018.0,6502.0,-5907.0,0.247,0.611,0.694,0.291
10833361,2056.0,6214.0,-6165.0,0.227,0.613,0.689,0.312
10833377,2960.0,6084.0,-6621.0,0.206,0.614,0.685,0.333
10833393,2948.0,6662.0,-6187.0,0.185,0.615,0.68,0.353
10833409,2988.0,6688.0,-5785.0,0.165,0.616,0.675,0.372
10833425,3926.0,6844.0,-5941.0,0.145,0.616,0.668,0.391
10833451,4248.0,5540.0,-5623.0,0.125,0.616,0.661,0.41
10833467,4706.0,5978.0,-5435.0,0.105,0.615,0.653,0.429
10833483,5846.0,6368.0,-5715.0,0.086,0.613,0.646,0.447
10833499,4728.0,6270.0,-4439.0,0.068,0.611,0.637,0.464
10833515,5932.0,6176.0,-4847.0,0.051,0.61,0.628,0.481
10833541,6846.0,5418.0,-5223.0,0.035,0.608,0.618,0.497
10833557,6212.0,6454.0,-4239.0,0.019,0.605,0.609,0.512
10833573,6988.0,6192.0,-4403.0,0.006,0.603,0.599,0.526
10833590,7472.0,5924.0,-4403.0,0.008,-0.601,-0.589,-0.54
10833606,7346.0,5582.0,-4111.0,0.022,-0.598,-0.579,-0.554
10833622,7490.0,5800.0,-3927.0,0.037,-0.594,-0.568,-0.568
10833638,7462.0,5644.0,-3641.0,0.051,-0.591,-0.557,-0.582
10833664,7078.0,5572.0,-3077.0,0.065,-0.587,-0.545,-0.595
10833681,7418.0,5434.0,-3135.0,0.079,-0.583,-0.533,-0.608
10833697,8028.0,5190.0,-3261.0,0.093,-0.579,-0.521,-0.621
10833713,7570.0,5230.0,-2687.0,0.107,-0.575,-0.509,-0.632
10833729,7854.0,5006.0,-2495.0,0.12,-0.571,-0.497,-0.642
10833746,8210.0,5256.0,-2733.0,0.132,-0.567,-0.485,-0.652
10833763,7678.0,4754.0,-2061.0,0.144,-0.563,-0.474,-0.661
10833780,8314.0,5356.0,-2431.0,0.155,-0.559,-0.463,-0.67
10833806,8082.0,4812.0,-2101.0,0.166,-0.555,-0.452,-0.678
10833822,7980.0,5072.0,-1913.0,0.176,-0.551,-0.442,-0.685
10833838,7954.0,4810.0,-1885.0,0.184,-0.548,-0.434,-0.691
10833854,7750.0,4938.0,-1821.0,0.192,-0.546,-0.426,-0.696
10833871,7566.0,4868.0,-1743.0,0.197,-0.544,-0.419,-0.7
10833887,7580.0,4808.0,-1933.0,0.201,-0.543,-0.413,-0.703
10833903,7378.0,4912.0,-1971.0,0.204,-0.543,-0.408,-0.705
10833929,7298.0,5018.0,-2083.0,0.204,-0.543,-0.405,-0.707
10833946,7380.0,5106.0,-2363.0,0.204,-0.543,-0.403,-0.708
10833963,6976.0,5086.0,-2167.0,0.202,-0.544,-0.403,-0.707
10833979,7080.0,5358.0,-2351.0,0.198,-0.546,-0.404,-0.706
10833996,7076.0,5138.0,-2369.0,0.193,-0.549,-0.407,-0.705
10834013,7238.0,5400.0,-2573.0,0.187,-0.551,-0.41,-0.702
10834029,7232.0,5516.0,-2585.0,0.179,-0.554,-0.416,-0.699
10834046,7344.0,5938.0,-2665.0,0.169,-0.558,-0.422,-0.694
10834063,7382.0,5700.0,-2631.0,0.159,-0.561,-0.43,-0.689
10834089,7640.0,5894.0,-2793.0,0.147,-0.565,-0.439,-0.683
10834105,7684.0,6054.0,-2949.0,0.134,-0.569,-0.45,-0.675
10834121,7832.0,6288.0,-2995.0,0.119,-0.573,-0.461,-0.667
10834137,7960.0,6218.0,-3035.0,0.104,-0.578,-0.472,-0.658
10834153,8186.0,6368.0,-3205.0,0.087,-0.582,-0.484,-0.648
10834169,8174.0,6308.0,-3307.0,0.07,-0.586,-0.497,-0.636
10834195,8338.0,6702.0,-3499.0,0.052,-0.59,-0.51,-0.624
10834212,8210.0,6846.0,-3627.0,0.032,-0.593,-0.524,-0.61
10834229,8092.0,6892.0,-3687.0,0.012,-0.597,-0.537,-0.596
10834246,7682.0,7428.0,-3757.0,0.009,0.6,0.551,0.58
10834262,7480.0,6874.0,-3951.0,0.031,0.603,0.564,0.563
10834280,7452.0,7240.0,-4303.0,0.054,0.606,0.577,0.545
10834296,7262.0,7182.0,-4449.0,0.076,0.609,0.589,0.526
10834312,6782.0,7074.0,-4537.0,0.099,0.61,0.6,0.507
10834329,6138.0,6754.0,-4467.0,0.122,0.612,0.611,0.487
10834355,5762.0,6822.0,-4737.0,0.145,0.613,0.622,0.465
10834371,5454.0,6430.0,-4797.0,0.167,0.613,0.632,0.443
10834387,4940.0,6630.0,-4817.0,0.188,0.613,0.641,0.421
10834403,4518.0,6262.0,-4835.0,0.209,0.613,0.65,0.398
10834419,4298.0,6184.0,-5049.0,0.229,0.611,0.658,0.374
10834435,3504.0,5990.0,-4853.0,0.248,0.61,0.666,0.351
10834461,3106.0,5880.0,-4935.0,0.267,0.608,0.673,0.327
10834478,2562.0,5954.0,-4851.0,0.284,0.606,0.679,0.302
10834495,2078.0,5940.0,-4757.0,0.301,0.604,0.684,0.278
10834512,1650.0,5490.0,-4875.0,0.317,0.601,0.688,0.254
10834529,970.0,5382.0,-4681.0,0.333,0.598,0.692,0.229
10834545,664.0,5272.0,-4799.0,0.348,0.595,0.695,0.204
10834562,408.0,5304.0,-4801.0,0.362,0.591,0.698,0.179
10834579,-222.0,4972.0,-4709.0,0.375,0.588,0.699,0.155
10834596,-596.0,5030.0,-4791.0,0.388,0.585,0.7,0.131
10834612,-1140.0,4566.0,-4519.0,0.399,0.582,0.7,0.108
10834628,-1668.0,4674.0,-4237.0,0.411,0.579,0.699,0.085
10834655,-1984.0,4236.0,-4101.0,0.422,0.576,0.697,0.062
10834671,-2338.0,4126.0,-3993.0,0.432,0.574,0.694,0.041
10834687,-2520.0,3742.0,-3987.0,0.441,0.572,0.691,0.02
10834703,-2794.0,3576.0,-3845.0,0.45,0.57,0.688,-0.0
10834720,-2992.0,3878.0,-3729.0,0.457,0.569,0.684,-0.02
10834736,-3296.0,3322.0,-3489.0,0.464,0.567,0.679,-0.037
10834752,-3714.0,2886.0,-3245.0,0.47,0.566,0.675,-0.055
10834778,-4420.0,3050.0,-2643.0,0.476,0.565,0.67,-0.072
10834794,-4586.0,2880.0,-2207.0,0.482,0.564,0.665,-0.087
10834811,-4852.0,2544.0,-1597.0,0.486,0.563,0.661,-0.1
10834828,-5054.0,1972.0,-1199.0,0.49,0.562,0.657,-0.112
10834845,-4696.0,2730.0,-819.0,0.492,0.561,0.655,-0.121
10834862,-5202.0,1522.0,361.0,0.492,0.561,0.654,-0.125
10834879,-4562.0,2758.0,497.0,0.491,0.561,0.654,-0.127
10834896,-4738.0,1366.0,711.0,0.489,0.561,0.656,-0.124
10834912,-4476.0,2062.0,433.0,0.483,0.563,0.66,-0.117
10834929,-4762.0,1932.0,107.0,0.476,0.566,0.664,-0.107
10834955,-4526.0,2024.0,-715.0,0.466,0.57,0.67,-0.093
10834971,-4424.0,2162.0,-1345.0,0.455,0.574,0.676,-0.077
10834987,-4174.0,2684.0,-2043.0,0.442,0.579,0.683,-0.059
10835003,-4504.0,2822.0,-2291.0,0.429,0.583,0.689,-0.038
10835019,-3836.0,3212.0,-3133.0,0.416,0.587,0.695,-0.016
10835045,-3734.0,3240.0,-3447.0,0.402,0.59,0.7,0.008
10835062,-2946.0,3478.0,-4207.0,0.388,0.594,0.704,0.033
10835079,-2918.0,3600.0,-4263.0,0.373,0.598,0.707,0.059
10835096,-1778.0,4390.0,-5225.0,0.358,0.6,0.71,0.086
10835112,-1762.0,3932.0,-5365.0,0.342,0.602,0.712,0.113
10835129,-896.0,5092.0,-5823.0,0.326,0.605,0.713,0.141
10835145,-802.0,4878.0,-5717.0,0.31,0.606,0.713,0.168
10835162,344.0,5372.0,-6341.0,0.294,0.607,0.712,0.196
10835179,530.0,5442.0,-6127.0,0.277,0.608,0.71,0.223
10835195,1170.0,5756.0,-6397.0,0.261,0.608,0.707,0.249
10835222,1824.0,6120.0,-6707.0,0.246,0.608,0.704,0.273
10835238,1772.0,6062.0,-6271.0,0.229,0.609,0.699,0.298
10835254,3252.0,6778.0,-7119.0,0.211,0.609,0.693,0.322
10835270,2914.0,6366.0,-6395.0,0.195,0.609,0.687,0.344
10835286,3072.0,6444.0,-6135.0,0.18,0.609,0.681,0.364
10835302,3628.0,6696.0,-6299.0,0.165,0.609,0.674,0.384
10835328,3690.0,6706.0,-5907.0,0.15,0.61,0.666,0.404
10835345,3876.0,6750.0,-5517.0,0.134,0.61,0.657,0.423
10835362,5316.0,6618.0,-6067.0,0.118,0.609,0.648,0.442
10835378,4960.0,6148.0,-5363.0,0.103,0.609,0.639,0.459
10835395,5100.0,6654.0,-5181.0,0.087,0.608,0.63,0.476
10835411,5678.0,6562.0,-5297.0,0.072,0.606,0.621,0.491
10835428,4718.0,6326.0,-4365.0,0.056,0.605,0.611,0.507
10835445,5670.0,6544.0,-4529.0,0.041,0.604,0.601,0.522
10835462,6758.0,6142.0,-4661.0,0.025,0.602,0.591,0.536
10835479,6294.0,5944.0,-3957.0,0.01,0.6,0.581,0.55
10835505,6118.0,6170.0,-3577.0,0.005,-0.597,-0.571,-0.563
10835521,6756.0,6138.0,-3823.0,0.021,-0.594,-0.561,-0.576
10835537,6314.0,5722.0,-2987.0,0.037,-0.591,-0.55,-0.589
10835553,6842.0,6022.0,-2933.0,0.052,-0.589,-0.538,-0.601
10835569,7610.0,5240.0,-3027.0,0.066,-0.585,-0.526,-0.613
10835585,7368.0,5412.0,-2457.0,0.081,-0.581,-0.514,-0.625
10835611,7652.0,5636.0,-2233.0,0.095,-0.577,-0.502,-0.637
10835628,7894.0,5174.0,-2139.0,0.109,-0.574,-0.489,-0.648
10835646,8068.0,4752.0,-2031.0,0.123,-0.57,-0.475,-0.659
10835663,8624.0,4694.0,-2109.0,0.138,-0.565,-0.462,-0.669
10835679,8222.0,4904.0,-1373.0,0.151,-0.562,-0.448,-0.679
10835696,8436.0,4882.0,-1309.0,0.162,-0.56,-0.434,-0.687
10835713,8454.0,4122.0,-1375.0,0.172,-0.558,-0.42,-0.695
10835729,8272.0,4084.0,-1207.0,0.18,-0.556,-0.407,-0.702
10835746,8554.0,3856.0,-1179.0,0.188,-0.554,-0.396,-0.708
10835763,8064.0,4300.0,-1075.0,0.194,-0.552,-0.384,-0.714
10835779,7814.0,4230.0,-1123.0,0.2,-0.55,-0.374,-0.719
10835806,7648.0,4610.0,-979.0,0.204,-0.55,-0.365,-0.723
10835822,7858.0,4200.0,-1255.0,0.206,-0.55,-0.357,-0.726
10835839,7742.0,4140.0,-1333.0,0.208,-0.55,-0.35,-0.729
10835855,7652.0,4248.0,-1293.0,0.209,-0.55,-0.345,-0.731
10835872,7264.0,4450.0,-1231.0,0.208,-0.551,-0.342,-0.733
10835888,7108.0,4764.0,-1203.0,0.207,-0.552,-0.339,-0.733
10835904,7082.0,4470.0,-1201.0,0.204,-0.554,-0.339,-0.733
10835930,7258.0,4580.0,-1355.0,0.2,-0.556,-0.34,-0.731
10835947,7314.0,4654.0,-1443.0,0.196,-0.559,-0.343,-0.729
10835964,7420.0,4792.0,-1515.0,0.19,-0.562,-0.348,-0.726
10835980,7330.0,4904.0,-1433.0,0.183,-0.565,-0.354,-0.723
10835997,7580.0,4988.0,-1597.0,0.175,-0.569,-0.361,-0.718
10836013,7724.0,5024.0,-1653.0,0.166,-0.572,-0.369,-0.713
10836029,7840.0,5350.0,-1689.0,0.157,-0.576,-0.378,-0.708
10836046,8036.0,5418.0,-1711.0,0.146,-0.58,-0.389,-0.701
10836072,8154.0,5450.0,-1827.0,0.133,-0.584,-0.4,-0.694
10836088,8288.0,5704.0,-1995.0,0.12,-0.588,-0.412,-0.686
10836104,8496.0,5912.0,-2209.0,0.106,-0.592,-0.425,-0.677
10836121,8460.0,5972.0,-2177.0,0.09,-0.596,-0.439,-0.667
10836137,8422.0,6156.0,-2265.0,0.074,-0.6,-0.452,-0.656
10836153,8620.0,6404.0,-2717.0,0.056,-0.604,-0.466,-0.645
10836179,8692.0,6220.0,-2801.0,0.038,-0.607,-0.48,-0.632
10836196,8540.0,6648.0,-2805.0,0.019,-0.61,-0.495,-0.619
10836213,8368.0,6444.0,-3113.0,0.001,0.613,0.509,0.604
10836229,8156.0,6892.0,-3221.0,0.021,0.616,0.523,0.588
10836245,8156.0,6670.0,-3581.0,0.041,0.619,0.537,0.572
10836262,7652.0,6890.0,-3643.0,0.061,0.621,0.551,0.554
10836279,7744.0,6724.0,-4035.0,0.082,0.623,0.563,0.536
10836295,7028.0,6612.0,-4005.0,0.102,0.625,0.576,0.517
10836311,6374.0,6736.0,-4013.0,0.122,0.626,0.588,0.497
10836328,5952.0,6670.0,-4259.0,0.143,0.626,0.6,0.477
10836345,5638.0,6572.0,-4443.0,0.163,0.627,0.61,0.456
10836371,5348.0,6784.0,-4615.0,0.183,0.626,0.621,0.435
10836387,5110.0,6674.0,-4787.0,0.203,0.625,0.63,0.413
10836403,4512.0,6420.0,-4693.0,0.223,0.623,0.639,0.391
10836419,3928.0,6464.0,-4709.0,0.242,0.621,0.647,0.369
10836435,3006.0,6242.0,-4531.0,0.261,0.619,0.655,0.346
10836461,2782.0,6272.0,-4933.0,0.28,0.616,0.662,0.323
10836478,1770.0,5404.0,-4445.0,0.298,0.613,0.667,0.3
10836495,1596.0,6290.0,-4559.0,0.315,0.61,0.672,0.278
10836511,1314.0,5394.0,-4659.0,0.332,0.606,0.676,0.256
10836528,926.0,5374.0,-4327.0,0.348,0.603,0.679,0.233
10836545,484.0,5610.0,-4313.0,0.362,0.599,0.682,0.211
10836561,128.0,5052.0,-4633.0,0.376,0.596,0.684,0.189
10836577,-832.0,4818.0,-4225.0,0.389,0.592,0.686,0.167
10836594,-900.0,5362.0,-4257.0,0.402,0.588,0.687,0.146
10836621,-1900.0,4576.0,-4369.0,0.414,0.585,0.687,0.125
10836637,-1158.0,4156.0,-4615.0,0.425,0.581,0.686,0.105
10836653,-2128.0,4390.0,-4469.0,0.435,0.578,0.685,0.084
10836669,-2668.0,4272.0,-4003.0,0.444,0.575,0.684,0.064
10836685,-3074.0,3942.0,-3595.0,0.453,0.573,0.682,0.044
10836701,-2292.0,3946.0,-4185.0,0.462,0.571,0.679,0.025
10836727,-3320.0,2858.0,-3559.0,0.47,0.568,0.676,0.006
10836744,-3500.0,3772.0,-3689.0,0.477,0.567,0.672,-0.013
10836761,-3658.0,4036.0,-3723.0,0.483,0.566,0.668,-0.03
10836778,-4252.0,3106.0,-3337.0,0.489,0.565,0.663,-0.047
10836795,-4472.0,3234.0,-3565.0,0.494,0.564,0.659,-0.064
10836811,-5194.0,2720.0,-3087.0,0.499,0.562,0.654,-0.081
10836828,-5494.0,2980.0,-2655.0,0.503,0.561,0.65,-0.098
10836845,-5312.0,2616.0,-2243.0,0.507,0.56,0.645,-0.114
10836861,-5614.0,2604.0,-1811.0,0.511,0.559,0.64,-0.129
10836878,-5578.0,2492.0,-1535.0,0.514,0.558,0.636,-0.142
10836894,-5840.0,2636.0,-881.0,0.517,0.557,0.632,-0.152
10836921,-5730.0,1786.0,-271.0,0.518,0.556,0.63,-0.159
10836937,-5342.0,1900.0,-189.0,0.518,0.556,0.629,-0.164
10836953,-5062.0,2626.0,-71.0,0.516,0.557,0.629,-0.165
10836969,-5466.0,2336.0,309.0,0.512,0.56,0.631,-0.162
10836985,-5412.0,2382.0,-17.0,0.508,0.563,0.633,-0.156
10837001,-5340.0,2412.0,-385.0,0.502,0.566,0.637,-0.146
10837027,-5306.0,2416.0,-713.0,0.495,0.57,0.643,-0.134
10837044,-5366.0,2518.0,-887.0,0.487,0.573,0.648,-0.119
10837061,-4820.0,2758.0,-1707.0,0.478,0.577,0.654,-0.101
10837078,-5068.0,2610.0,-1935.0,0.469,0.581,0.661,-0.082
10837095,-4356.0,3054.0,-2683.0,0.458,0.585,0.667,-0.061
10837112,-4262.0,3370.0,-2981.0,0.447,0.588,0.672,-0.038
10837128,-3956.0,3246.0,-3107.0,0.436,0.592,0.677,-0.014
10837145,-2778.0,3730.0,-4171.0,0.424,0.596,0.681,0.011
10837161,-3166.0,3658.0,-4267.0,0.411,0.601,0.685,0.037
10837178,-2836.0,4226.0,-4443.0,0.397,0.605,0.688,0.063
10837204,-1888.0,4760.0,-5553.0,0.383,0.608,0.689,0.089
10837220,-2406.0,4628.0,-4945.0,0.369,0.612,0.69,0.116
10837236,-670.0,4962.0,-6151.0,0.355,0.615,0.69,0.141
10837252,-826.0,4970.0,-5783.0,0.34,0.618,0.689,0.166
10837268,-116.0,5402.0,-6265.0,0.325,0.621,0.687,0.191
10837284,-66.0,5748.0,-6101.0,0.309,0.624,0.685,0.215
10837310,1298.0,5564.0,-6879.0,0.293,0.626,0.682,0.238
10837326,574.0,5644.0,-6057.0,0.278,0.629,0.678,0.26
10837342,1214.0,6048.0,-6353.0,0.261,0.631,0.674,0.282
10837358,2384.0,6350.0,-6951.0,0.245,0.633,0.669,0.302
10837374,1534.0,6620.0,-5997.0,0.229,0.635,0.664,0.321
10837390,2956.0,6500.0,-6551.0,0.214,0.637,0.658,0.339
10837416,2646.0,6034.0,-6021.0,0.198,0.638,0.653,0.357
10837432,3502.0,6484.0,-6377.0,0.181,0.639,0.647,0.375
10837448,3404.0,6694.0,-5979.0,0.165,0.639,0.641,0.392
10837464,3600.0,6746.0,-5707.0,0.15,0.64,0.634,0.408
10837480,4522.0,6500.0,-6067.0,0.135,0.64,0.626,0.424
10837506,4072.0,6062.0,-5317.0,0.12,0.64,0.619,0.44
10837522,4802.0,6644.0,-5461.0,0.106,0.639,0.611,0.454
10837538,4742.0,6468.0,-5079.0,0.092,0.639,0.603,0.469
10837554,4750.0,6194.0,-4697.0,0.079,0.638,0.594,0.483
10837570,5466.0,6142.0,-4815.0,0.065,0.637,0.585,0.498
10837586,5634.0,6170.0,-4557.0,0.052,0.636,0.576,0.512
10837603,5684.0,5752.0,-4151.0,0.038,0.634,0.565,0.526
10837629,6250.0,5584.0,-4131.0,0.024,0.632,0.555,0.54
10837645,6200.0,5808.0,-3761.0,0.01,0.63,0.544,0.554
10837665,6258.0,5504.0,-3399.0,0.004,-0.628,-0.533,-0.567
10837681,6928.0,5322.0,-3487.0,0.017,-0.625,-0.522,-0.58
10837697,7076.0,5592.0,-3391.0,0.03,-0.623,-0.511,-0.592
10837713,6898.0,5434.0,-2913.0,0.043,-0.62,-0.499,-0.604
10837729,7422.0,5370.0,-2795.0,0.055,-0.618,-0.486,-0.615
10837746,7762.0,5162.0,-2755.0,0.067,-0.616,-0.474,-0.626
10837763,7916.0,5356.0,-2687.0,0.078,-0.613,-0.462,-0.636
10837789,7446.0,5142.0,-2153.0,0.088,-0.611,-0.45,-0.645
10837805,7788.0,5090.0,-2189.0,0.097,-0.609,-0.439,-0.653
10837822,7938.0,4846.0,-2131.0,0.105,-0.608,-0.427,-0.661
10837839,7974.0,4620.0,-1873.0,0.113,-0.606,-0.416,-0.669
10837855,8028.0,4670.0,-1637.0,0.12,-0.605,-0.405,-0.675
10837871,7924.0,4476.0,-1391.0,0.125,-0.603,-0.395,-0.682
10837888,7934.0,4484.0,-1371.0,0.129,-0.602,-0.384,-0.688
10837904,7598.0,4318.0,-1015.0,0.133,-0.602,-0.374,-0.693
