timeMs,ax,ay,az,q0,q1,q2,q3
326002,-5392.0,3894.0,322.0,0.117,-0.299,0.496,0.807
326018,-5306.0,4820.0,-326.0,0.117,-0.295,0.505,0.802
326034,-5280.0,5164.0,-496.0,0.116,-0.29,0.517,0.797
326051,-5282.0,5042.0,-282.0,0.117,-0.284,0.531,0.79
326068,-5162.0,4666.0,262.0,0.12,-0.276,0.548,0.78
326084,-4966.0,4826.0,894.0,0.126,-0.267,0.571,0.766
326111,-4980.0,5854.0,1252.0,0.134,-0.257,0.597,0.748
326128,-5112.0,6788.0,1140.0,0.144,-0.247,0.626,0.726
326144,-4716.0,7814.0,936.0,0.155,-0.235,0.656,0.701
326161,-4278.0,9178.0,816.0,0.166,-0.224,0.684,0.674
326177,-11586.0,32767.0,-3272.0,0.16,-0.236,0.675,0.681
326194,-7054.0,-10766.0,296.0,0.157,-0.226,0.68,0.679
326211,1636.0,12318.0,4556.0,0.161,-0.226,0.689,0.67
326227,-6028.0,9682.0,1020.0,0.162,-0.229,0.689,0.668
326244,-3110.0,6460.0,2144.0,0.162,-0.229,0.688,0.669
326260,-3128.0,5986.0,2344.0,0.162,-0.228,0.687,0.67
326277,-3982.0,7724.0,2390.0,0.161,-0.228,0.686,0.672
326304,-4460.0,9626.0,2396.0,0.161,-0.231,0.682,0.676
326321,-4004.0,9436.0,1978.0,0.159,-0.234,0.674,0.683
326338,-4010.0,9806.0,1048.0,0.156,-0.24,0.663,0.692
326355,-5282.0,7482.0,634.0,0.152,-0.246,0.651,0.702
326372,-5238.0,7212.0,132.0,0.148,-0.25,0.64,0.711
326389,-5196.0,8390.0,-158.0,0.144,-0.254,0.627,0.722
326406,-5152.0,8406.0,-130.0,0.138,-0.26,0.61,0.736
326423,-5652.0,7454.0,-244.0,0.131,-0.266,0.589,0.752
326440,-5816.0,7106.0,-304.0,0.125,-0.272,0.568,0.767
326457,-5550.0,6676.0,-164.0,0.119,-0.277,0.548,0.78
326474,-5144.0,6510.0,336.0,0.113,-0.282,0.529,0.792
326491,-5242.0,6516.0,744.0,0.108,-0.286,0.511,0.803
326508,-5040.0,6010.0,916.0,0.103,-0.29,0.493,0.813
326525,-4976.0,4590.0,672.0,0.099,-0.293,0.479,0.822
326552,-5040.0,3114.0,96.0,0.096,-0.294,0.471,0.826
326569,-5004.0,2700.0,-712.0,0.095,-0.292,0.469,0.828
326586,-4880.0,3206.0,-1322.0,0.096,-0.288,0.474,0.827
326603,-4568.0,3694.0,-1466.0,0.098,-0.282,0.483,0.823
326620,-4674.0,4096.0,-1452.0,0.102,-0.275,0.496,0.817
326637,-4992.0,4228.0,-1634.0,0.108,-0.265,0.515,0.808
326654,-5116.0,4754.0,-1860.0,0.116,-0.252,0.538,0.796
326671,-4970.0,5448.0,-2076.0,0.127,-0.239,0.566,0.779
326687,-4968.0,6530.0,-2130.0,0.139,-0.223,0.598,0.757
326703,-4968.0,7906.0,-1722.0,0.153,-0.204,0.633,0.731
326730,-5004.0,8776.0,-1074.0,0.169,-0.183,0.669,0.7
326747,-4486.0,9596.0,-644.0,0.186,-0.161,0.706,0.664
326764,-3790.0,10424.0,-538.0,0.203,-0.139,0.741,0.625
326781,-3154.0,11116.0,-1026.0,0.219,-0.12,0.77,0.587
326797,-30.0,28954.0,-7804.0,0.234,-0.113,0.788,0.558
326814,-5470.0,5818.0,404.0,0.238,-0.105,0.789,0.556
326831,210.0,2568.0,1362.0,0.245,-0.097,0.797,0.543
326847,-3724.0,6310.0,998.0,0.255,-0.088,0.807,0.525
326864,-1782.0,8552.0,514.0,0.263,-0.079,0.817,0.507
326880,-1252.0,14300.0,1138.0,0.27,-0.079,0.821,0.497
326906,-3140.0,13642.0,1230.0,0.27,-0.084,0.816,0.504
326922,-3356.0,8238.0,1854.0,0.269,-0.092,0.806,0.519
326938,-3422.0,4582.0,2606.0,0.267,-0.102,0.797,0.532
326955,-3864.0,4460.0,2796.0,0.265,-0.11,0.791,0.54
326971,-4256.0,7056.0,2580.0,0.263,-0.118,0.787,0.546
326988,-4092.0,8826.0,1882.0,0.259,-0.128,0.782,0.552
327004,-7052.0,3354.0,-4112.0,0.257,-0.137,0.776,0.559
327021,-1504.0,9886.0,-420.0,0.252,-0.142,0.778,0.558
327047,-5170.0,10730.0,846.0,0.246,-0.15,0.777,0.56
327063,-4454.0,10112.0,-160.0,0.237,-0.16,0.772,0.568
327080,-4992.0,9310.0,-852.0,0.226,-0.171,0.762,0.583
327097,-5240.0,8382.0,-1562.0,0.214,-0.182,0.748,0.602
327114,-5718.0,9344.0,-1614.0,0.201,-0.195,0.73,0.623
327131,-6034.0,9540.0,-2446.0,0.188,-0.209,0.709,0.647
327148,-6252.0,9048.0,-2792.0,0.174,-0.222,0.684,0.673
327165,-6194.0,9030.0,-3022.0,0.159,-0.235,0.655,0.7
327182,-6026.0,8092.0,-3058.0,0.143,-0.249,0.622,0.729
327199,-5978.0,6188.0,-2592.0,0.128,-0.262,0.586,0.756
327226,-5692.0,4116.0,-1620.0,0.113,-0.273,0.552,0.78
327243,-5326.0,3286.0,-596.0,0.101,-0.281,0.524,0.797
327260,-4842.0,3306.0,-84.0,0.091,-0.287,0.504,0.81
327276,-4770.0,4226.0,104.0,0.084,-0.291,0.489,0.818
327292,-4794.0,3408.0,-6.0,0.078,-0.292,0.481,0.823
327308,-4502.0,3308.0,-392.0,0.074,-0.29,0.479,0.825
327324,-4168.0,4048.0,-700.0,0.073,-0.287,0.485,0.823
327341,-4114.0,4852.0,-904.0,0.074,-0.283,0.494,0.819
327357,-4156.0,5848.0,-1070.0,0.075,-0.278,0.506,0.813
327383,-4060.0,5746.0,-1210.0,0.078,-0.273,0.521,0.805
327400,-3984.0,5314.0,-1270.0,0.081,-0.267,0.539,0.794
327417,-3914.0,5796.0,-1358.0,0.087,-0.261,0.562,0.78
327433,-4052.0,6078.0,-1412.0,0.094,-0.254,0.588,0.763
327449,-4084.0,6606.0,-1552.0,0.104,-0.245,0.617,0.741
327465,-4300.0,7172.0,-1768.0,0.115,-0.235,0.648,0.715
327491,-4106.0,8162.0,-1970.0,0.129,-0.224,0.681,0.686
327507,-3968.0,9444.0,-1890.0,0.144,-0.211,0.712,0.654
327523,-3606.0,10808.0,-1660.0,0.16,-0.198,0.74,0.623
327539,-5690.0,15268.0,1896.0,0.172,-0.198,0.745,0.613
327556,2774.0,8840.0,12258.0,0.17,-0.2,0.759,0.596
327572,-10890.0,17504.0,5580.0,0.173,-0.198,0.77,0.582
327589,-2144.0,8196.0,-1540.0,0.174,-0.194,0.771,0.581
327606,-3642.0,7772.0,-1648.0,0.175,-0.194,0.767,0.586
327632,-3820.0,7390.0,-1744.0,0.179,-0.192,0.76,0.595
327648,-3484.0,9218.0,158.0,0.183,-0.191,0.752,0.604
327664,-3536.0,10602.0,890.0,0.186,-0.19,0.74,0.617
327680,-3434.0,9330.0,2526.0,0.185,-0.194,0.726,0.634
327697,-3542.0,6382.0,2690.0,0.183,-0.197,0.712,0.649
327713,-3456.0,6594.0,2064.0,0.181,-0.2,0.7,0.661
327729,-3976.0,7950.0,1074.0,0.179,-0.204,0.689,0.672
327755,-4484.0,8018.0,484.0,0.177,-0.208,0.678,0.682
327771,-4610.0,7968.0,38.0,0.174,-0.212,0.667,0.693
327787,-4846.0,8018.0,-156.0,0.171,-0.217,0.655,0.703
327803,-4982.0,8290.0,-474.0,0.167,-0.22,0.643,0.714
327819,-4966.0,7664.0,-1016.0,0.164,-0.223,0.631,0.725
327835,-4726.0,6084.0,-1516.0,0.159,-0.226,0.62,0.735
327862,-4814.0,4052.0,-1736.0,0.156,-0.227,0.612,0.742
327879,-5224.0,3130.0,-2044.0,0.155,-0.226,0.609,0.744
327896,-5580.0,3516.0,-2196.0,0.157,-0.222,0.611,0.743
327913,-5440.0,3356.0,-2096.0,0.16,-0.215,0.619,0.738
327930,-4886.0,3420.0,-1864.0,0.166,-0.204,0.632,0.729
327946,-4578.0,3980.0,-1688.0,0.173,-0.191,0.65,0.715
327962,-4666.0,4266.0,-1768.0,0.182,-0.175,0.673,0.695
327979,-4778.0,3800.0,-1694.0,0.194,-0.157,0.701,0.669
327996,-5100.0,4484.0,-2584.0,0.208,-0.137,0.732,0.634
328013,-4630.0,6104.0,-3250.0,0.223,-0.117,0.764,0.594
328040,-4160.0,7446.0,-3244.0,0.236,-0.097,0.793,0.553
328057,-3918.0,9832.0,-3266.0,0.248,-0.082,0.816,0.516
328074,-3768.0,11100.0,-2644.0,0.256,-0.073,0.831,0.489
328091,-3960.0,10076.0,-1788.0,0.262,-0.07,0.84,0.47
328108,-4120.0,8490.0,-1180.0,0.267,-0.069,0.846,0.456
328125,-3706.0,8616.0,-1018.0,0.27,-0.07,0.852,0.444
328142,-3344.0,9382.0,-876.0,0.272,-0.071,0.856,0.434
328159,-700.0,16864.0,-1858.0,0.276,-0.067,0.864,0.416
328176,2544.0,17090.0,-668.0,0.277,-0.073,0.865,0.412
328193,-6278.0,6204.0,-1348.0,0.277,-0.076,0.862,0.418
328210,-1664.0,842.0,-1254.0,0.275,-0.075,0.859,0.426
328227,-2960.0,7860.0,-1072.0,0.275,-0.079,0.856,0.43
328244,-4942.0,7834.0,-960.0,0.273,-0.085,0.852,0.439
328261,-4718.0,8924.0,-464.0,0.269,-0.093,0.846,0.45
328287,-5464.0,8274.0,-538.0,0.263,-0.1,0.839,0.466
328304,-5074.0,6468.0,-1020.0,0.257,-0.108,0.831,0.482
328321,-3912.0,8908.0,-730.0,0.251,-0.116,0.824,0.495
328338,-4308.0,10266.0,-1802.0,0.243,-0.128,0.812,0.515
328354,-4026.0,10302.0,-2730.0,0.231,-0.143,0.794,0.544
328370,-4726.0,8616.0,-3286.0,0.217,-0.161,0.769,0.58
328386,-5596.0,7462.0,-3622.0,0.201,-0.181,0.74,0.616
328403,-6378.0,7316.0,-3550.0,0.185,-0.198,0.711,0.649
328420,-5800.0,7824.0,-3310.0,0.17,-0.216,0.68,0.68
328437,-5474.0,7586.0,-2370.0,0.153,-0.233,0.648,0.709
328464,-5882.0,6504.0,-1676.0,0.135,-0.251,0.612,0.737
328480,-6204.0,3956.0,-1262.0,0.119,-0.267,0.579,0.761
328497,-5230.0,3152.0,-932.0,0.104,-0.277,0.553,0.778
328514,-4770.0,4626.0,-1142.0,0.091,-0.285,0.535,0.79
328531,-4170.0,6734.0,-1648.0,0.078,-0.292,0.518,0.8
328547,-4520.0,4506.0,-1654.0,0.065,-0.295,0.504,0.809
328564,-4006.0,3468.0,-994.0,0.057,-0.296,0.496,0.814
328581,-3672.0,4696.0,-848.0,0.055,-0.296,0.494,0.816
328599,-3614.0,5480.0,-778.0,0.055,-0.293,0.498,0.814
328616,-3560.0,5422.0,-600.0,0.058,-0.289,0.507,0.81
328633,-3478.0,4948.0,-526.0,0.063,-0.282,0.524,0.802
328650,-3556.0,5402.0,-716.0,0.072,-0.271,0.549,0.788
328677,-3526.0,5996.0,-968.0,0.083,-0.259,0.579,0.769
328694,-3404.0,6128.0,-1022.0,0.097,-0.244,0.613,0.745
328711,-3258.0,6682.0,-1178.0,0.113,-0.227,0.65,0.717
328728,-3396.0,8358.0,-750.0,0.131,-0.209,0.686,0.685
328745,-3342.0,10456.0,-14.0,0.148,-0.19,0.719,0.652
328761,-3314.0,12196.0,962.0,0.163,-0.174,0.744,0.624
328778,-7638.0,27724.0,1238.0,0.17,-0.179,0.745,0.619
328795,-5090.0,3246.0,5450.0,0.173,-0.177,0.743,0.622
328812,-2128.0,9152.0,3604.0,0.175,-0.179,0.744,0.619
328828,-5586.0,6578.0,2914.0,0.175,-0.178,0.748,0.615
328844,-3338.0,8000.0,2862.0,0.176,-0.178,0.752,0.609
328870,-4850.0,8490.0,654.0,0.176,-0.179,0.753,0.609
328886,-3688.0,7950.0,-366.0,0.176,-0.18,0.75,0.612
328902,-3846.0,6844.0,150.0,0.176,-0.181,0.746,0.616
328918,-3638.0,6222.0,518.0,0.176,-0.181,0.744,0.619
328934,-3402.0,6900.0,-90.0,0.175,-0.18,0.743,0.62
328950,-3758.0,8496.0,-588.0,0.172,-0.181,0.741,0.623
328977,-3790.0,7816.0,-300.0,0.168,-0.185,0.737,0.629
328993,-4526.0,6320.0,-438.0,0.164,-0.19,0.734,0.631
329009,-4468.0,6872.0,-168.0,0.16,-0.194,0.734,0.631
329025,-4854.0,7824.0,-860.0,0.157,-0.197,0.736,0.628
329042,-4820.0,8454.0,-1456.0,0.153,-0.201,0.736,0.628
329058,-4862.0,7970.0,-1414.0,0.148,-0.206,0.734,0.63
329074,-5092.0,7602.0,-1384.0,0.143,-0.212,0.731,0.633
329100,-4764.0,7108.0,-1130.0,0.138,-0.217,0.726,0.638
329117,-4426.0,8066.0,-1280.0,0.13,-0.222,0.719,0.646
329133,-4108.0,8010.0,-1586.0,0.121,-0.227,0.708,0.657
329149,-3998.0,7386.0,-1724.0,0.109,-0.234,0.694,0.672
329166,-4506.0,6402.0,-2580.0,0.097,-0.242,0.678,0.687
329183,-4836.0,5826.0,-3802.0,0.085,-0.252,0.661,0.702
329199,-4816.0,6026.0,-4928.0,0.073,-0.262,0.641,0.718
329226,-4874.0,5464.0,-4620.0,0.064,-0.27,0.624,0.73
329242,-5054.0,5466.0,-3618.0,0.061,-0.273,0.612,0.74
329258,-4400.0,5598.0,-2516.0,0.065,-0.271,0.605,0.746
329274,-3352.0,6340.0,-404.0,0.074,-0.263,0.602,0.751
329291,-2806.0,6412.0,2974.0,0.084,-0.251,0.6,0.755
329307,-2188.0,5846.0,5942.0,0.095,-0.238,0.597,0.76
329323,-1812.0,5170.0,8188.0,0.105,-0.227,0.596,0.763
329349,-816.0,5488.0,9932.0,0.112,-0.219,0.597,0.763
329365,-1288.0,6462.0,10174.0,0.114,-0.217,0.597,0.764
329381,-2162.0,7626.0,9290.0,0.109,-0.219,0.59,0.77
329398,-2234.0,5710.0,7236.0,0.098,-0.225,0.576,0.78
329415,-248.0,4154.0,12822.0,0.079,-0.233,0.56,0.791
329432,-7162.0,-4520.0,7020.0,0.061,-0.243,0.547,0.798
329449,-3968.0,4326.0,1062.0,0.055,-0.247,0.564,0.786
329466,-2614.0,20186.0,-1710.0,0.05,-0.25,0.578,0.775
329483,-3732.0,16614.0,-988.0,0.039,-0.259,0.567,0.781
329500,-4238.0,9762.0,-1058.0,0.029,-0.271,0.55,0.789
329517,-5184.0,6150.0,-2152.0,0.021,-0.281,0.539,0.794
329534,-5504.0,7254.0,-4230.0,0.015,-0.288,0.53,0.797
329561,-5334.0,9958.0,-6244.0,0.01,-0.292,0.519,0.803
329577,-4720.0,9412.0,-5188.0,0.007,-0.293,0.501,0.814
329593,-4316.0,8632.0,-2468.0,0.006,-0.292,0.478,0.828
329609,-3988.0,6528.0,368.0,0.007,-0.29,0.455,0.842
329625,-3834.0,5210.0,2626.0,0.012,-0.287,0.435,0.853
329641,-3926.0,2924.0,4978.0,0.022,-0.283,0.424,0.86
329667,-3800.0,1932.0,6454.0,0.039,-0.278,0.425,0.861
329683,-3942.0,1022.0,7884.0,0.058,-0.272,0.437,0.856
329699,-4122.0,-630.0,9916.0,0.076,-0.265,0.463,0.843
329716,-2100.0,-632.0,13900.0,0.087,-0.26,0.487,0.829
329733,-5582.0,-4276.0,12126.0,0.093,-0.253,0.516,0.813
329750,-4214.0,-1316.0,7752.0,0.097,-0.241,0.546,0.796
329766,17886.0,8248.0,31830.0,0.076,-0.236,0.559,0.791
329783,-9300.0,3106.0,7690.0,0.07,-0.254,0.541,0.799
329809,-3196.0,1900.0,3594.0,0.056,-0.257,0.544,0.797
329825,360.0,17736.0,3716.0,0.044,-0.263,0.543,0.796
329842,-3154.0,15114.0,3724.0,0.027,-0.274,0.521,0.808
329859,-3762.0,10612.0,2294.0,0.01,-0.284,0.496,0.821
329875,-5840.0,13024.0,1542.0,0.003,0.294,-0.471,-0.832
329891,-4344.0,12748.0,-3368.0,0.012,0.304,-0.449,-0.84
329908,-7182.0,12206.0,-2978.0,0.017,0.315,-0.429,-0.846
329925,-6904.0,3988.0,-4868.0,0.024,0.32,-0.41,-0.854
329952,-5520.0,2592.0,-4836.0,0.028,0.321,-0.402,-0.857
329968,-5052.0,5160.0,-2960.0,0.03,0.317,-0.399,-0.86
329984,-4654.0,5952.0,-804.0,0.031,0.31,-0.398,-0.863
330000,-3492.0,6492.0,1866.0,0.026,0.303,-0.397,-0.866
330016,-3386.0,4258.0,4484.0,0.013,0.296,-0.406,-0.864
330033,-3726.0,3792.0,5836.0,0.007,-0.289,0.429,0.856
330049,-3964.0,2156.0,6286.0,0.033,-0.279,0.465,0.839
330065,-3648.0,-462.0,6614.0,0.06,-0.266,0.515,0.813
330092,-3402.0,2090.0,7072.0,0.087,-0.251,0.569,0.778
330108,-1632.0,5448.0,7902.0,0.104,-0.235,0.618,0.743
330124,-1484.0,10554.0,8498.0,0.106,-0.226,0.645,0.722
330140,23518.0,32767.0,32767.0,0.065,-0.238,0.617,0.747
330156,-8266.0,-12684.0,8356.0,0.053,-0.259,0.575,0.774
330172,-3844.0,-100.0,2836.0,0.04,-0.259,0.585,0.768
330198,-2602.0,22604.0,1070.0,0.032,-0.269,0.578,0.77
330215,-4710.0,20772.0,-942.0,0.018,-0.28,0.551,0.786
330231,-5468.0,14330.0,-1336.0,0.005,-0.29,0.515,0.807
330248,-5336.0,6910.0,-1034.0,0.006,0.299,-0.486,-0.821
330265,-5870.0,4382.0,-2570.0,0.015,0.307,-0.464,-0.831
330282,-5364.0,5458.0,-3926.0,0.023,0.313,-0.443,-0.84
330299,-5408.0,4784.0,-3410.0,0.031,0.317,-0.422,-0.848
330316,-5400.0,3834.0,-2140.0,0.037,0.319,-0.408,-0.855
330333,-4216.0,2792.0,-834.0,0.037,0.317,-0.406,-0.856
330349,-4458.0,5048.0,84.0,0.029,0.315,-0.418,-0.851
330366,-4006.0,4118.0,14.0,0.011,0.31,-0.443,-0.841
330393,-3998.0,2290.0,-160.0,0.013,-0.302,0.482,0.822
330409,-4274.0,-958.0,-164.0,0.041,-0.289,0.538,0.791
330426,-4604.0,3552.0,-164.0,0.073,-0.27,0.6,0.749
330442,-3186.0,7638.0,2338.0,0.102,-0.248,0.655,0.707
330459,-72.0,11600.0,5504.0,0.121,-0.23,0.691,0.675
330476,2584.0,9952.0,6986.0,0.123,-0.22,0.704,0.664
330492,-11688.0,14686.0,9698.0,0.126,-0.247,0.648,0.709
330509,-1526.0,-17646.0,5578.0,0.101,-0.24,0.636,0.727
330536,510.0,11514.0,6592.0,0.086,-0.254,0.611,0.745
330552,-5990.0,9876.0,6014.0,0.071,-0.268,0.586,0.761
330568,-6638.0,17348.0,2502.0,0.055,-0.28,0.56,0.778
330584,-6442.0,14638.0,-174.0,0.04,-0.293,0.533,0.793
330600,-5754.0,10536.0,-2066.0,0.027,-0.306,0.5,0.81
330616,-7004.0,4730.0,-4124.0,0.015,-0.314,0.47,0.824
330633,-5922.0,3656.0,-5130.0,0.008,-0.32,0.452,0.832
330660,-5128.0,3508.0,-5438.0,0.003,-0.322,0.444,0.836
330676,-3698.0,3242.0,-4442.0,0.001,-0.318,0.444,0.838
330692,-3476.0,5564.0,-1928.0,0.007,-0.312,0.451,0.836
330708,-3200.0,6450.0,98.0,0.02,-0.304,0.466,0.831
330725,-2532.0,3696.0,1668.0,0.042,-0.295,0.492,0.818
330741,-2524.0,1878.0,2234.0,0.071,-0.283,0.535,0.793
330758,-3138.0,-2948.0,2450.0,0.102,-0.264,0.597,0.75
330784,-3556.0,3022.0,3612.0,0.133,-0.241,0.66,0.699
330800,-726.0,12642.0,6710.0,0.154,-0.221,0.708,0.653
330816,-146.0,23670.0,6986.0,0.153,-0.214,0.72,0.642
330833,-11214.0,27708.0,-4052.0,0.155,-0.25,0.666,0.686
330849,-5494.0,-22710.0,3698.0,0.126,-0.246,0.653,0.705
330866,626.0,15064.0,1908.0,0.114,-0.256,0.641,0.714
330882,-7418.0,25852.0,1714.0,0.104,-0.276,0.616,0.73
330898,-8086.0,18322.0,316.0,0.088,-0.288,0.579,0.758
330915,-2636.0,3966.0,-2198.0,0.067,-0.303,0.537,0.784
330942,-8370.0,-624.0,-2710.0,0.054,-0.32,0.504,0.8
330959,-6150.0,994.0,-5108.0,0.046,-0.329,0.488,0.807
330975,-5446.0,4408.0,-6844.0,0.04,-0.331,0.48,0.811
330992,-4976.0,4724.0,-4784.0,0.037,-0.329,0.478,0.813
331009,-4084.0,6486.0,-1992.0,0.039,-0.324,0.483,0.813
331025,-4296.0,8500.0,1038.0,0.049,-0.319,0.496,0.806
331041,-3004.0,5228.0,1152.0,0.069,-0.311,0.523,0.79
331057,-1956.0,1074.0,470.0,0.096,-0.299,0.567,0.761
331083,-3748.0,-3238.0,94.0,0.125,-0.279,0.63,0.714
331099,-4248.0,3460.0,1958.0,0.156,-0.25,0.693,0.658
331115,-2086.0,11912.0,6210.0,0.18,-0.222,0.738,0.611
331131,-13750.0,32767.0,-15114.0,0.199,-0.262,0.698,0.635
331148,-6974.0,-14994.0,10492.0,0.169,-0.242,0.695,0.655
331165,1222.0,14438.0,7432.0,0.162,-0.266,0.668,0.676
331182,-5552.0,11908.0,2896.0,0.145,-0.283,0.64,0.7
331198,-4366.0,9010.0,-1238.0,0.128,-0.301,0.606,0.725
331225,-4600.0,4850.0,-3082.0,0.109,-0.315,0.581,0.742
331242,-7650.0,6660.0,-5818.0,0.095,-0.327,0.562,0.754
331259,-7612.0,13930.0,-9052.0,0.087,-0.336,0.538,0.768
331276,-4544.0,5990.0,-9744.0,0.077,-0.341,0.509,0.786
331292,-4588.0,-3318.0,-8970.0,0.069,-0.343,0.492,0.797
331309,-4956.0,-180.0,-7392.0,0.068,-0.342,0.491,0.798
331325,-4184.0,6794.0,-4062.0,0.072,-0.337,0.497,0.797
331341,-4294.0,6148.0,-456.0,0.083,-0.329,0.506,0.793
331367,-2140.0,-1354.0,2036.0,0.106,-0.317,0.538,0.774
331383,-2184.0,-2898.0,1724.0,0.136,-0.298,0.594,0.735
331399,-2668.0,-516.0,2022.0,0.167,-0.27,0.661,0.68
331416,-2862.0,14510.0,6110.0,0.192,-0.241,0.715,0.627
331432,1428.0,24106.0,14360.0,0.202,-0.228,0.731,0.61
331448,168.0,-1162.0,19424.0,0.188,-0.24,0.703,0.643
331465,-4934.0,5792.0,9002.0,0.17,-0.237,0.697,0.655
331482,1880.0,9046.0,6138.0,0.159,-0.262,0.666,0.68
331508,-7782.0,8030.0,2010.0,0.14,-0.277,0.645,0.698
331525,-5870.0,12330.0,-2444.0,0.126,-0.296,0.62,0.716
331542,-8354.0,18602.0,-4336.0,0.111,-0.314,0.587,0.738
331559,-5020.0,8628.0,-13312.0,0.092,-0.329,0.548,0.764
331575,-6486.0,-1580.0,-14804.0,0.078,-0.339,0.527,0.775
331592,-8758.0,-656.0,-14496.0,0.072,-0.342,0.52,0.779
331608,-5024.0,1718.0,-9692.0,0.073,-0.333,0.522,0.782
331624,-5498.0,15212.0,-2118.0,0.085,-0.33,0.505,0.793
331650,-2068.0,2750.0,3394.0,0.105,-0.32,0.494,0.802
331666,882.0,-3906.0,6690.0,0.133,-0.304,0.52,0.787
331682,-1172.0,-8110.0,7314.0,0.163,-0.28,0.581,0.747
331699,-1708.0,-1040.0,8036.0,0.192,-0.25,0.647,0.694
331715,268.0,10496.0,10796.0,0.208,-0.224,0.699,0.647
331731,-890.0,12256.0,6272.0,0.2,-0.212,0.718,0.633
331757,-11920.0,4770.0,6570.0,0.196,-0.244,0.69,0.653
331774,-11136.0,14376.0,-2332.0,0.175,-0.238,0.694,0.656
331791,596.0,19252.0,-2814.0,0.165,-0.265,0.66,0.683
331808,-8088.0,13360.0,-1944.0,0.149,-0.284,0.628,0.709
331825,-8042.0,13024.0,616.0,0.134,-0.301,0.584,0.742
331842,-1126.0,2600.0,-9676.0,0.114,-0.31,0.549,0.768
331858,-6866.0,-1556.0,-9904.0,0.101,-0.325,0.519,0.784
331874,-8350.0,2840.0,-10770.0,0.093,-0.331,0.506,0.791
331890,-5916.0,4058.0,-10980.0,0.091,-0.327,0.501,0.796
331907,-5220.0,9920.0,-6138.0,0.094,-0.321,0.49,0.805
331924,-4412.0,9492.0,-600.0,0.107,-0.314,0.477,0.814
331950,-1722.0,2528.0,3168.0,0.131,-0.304,0.486,0.809
331966,-1344.0,-4278.0,4500.0,0.161,-0.286,0.526,0.785
331982,-2652.0,-5268.0,4892.0,0.194,-0.259,0.59,0.74
331998,-502.0,4846.0,9202.0,0.221,-0.229,0.653,0.687
332015,7844.0,6718.0,21574.0,0.222,-0.208,0.698,0.648
332031,-9930.0,-3080.0,17190.0,0.21,-0.208,0.675,0.676
332048,5496.0,15076.0,11020.0,0.193,-0.208,0.679,0.678
332075,-8614.0,10838.0,4098.0,0.182,-0.214,0.685,0.673
332092,-8594.0,11856.0,-1674.0,0.18,-0.224,0.681,0.674
332109,-7450.0,12120.0,-3224.0,0.189,-0.237,0.663,0.685
332125,-4352.0,4162.0,-2940.0,0.186,-0.239,0.652,0.695
332141,-5658.0,2044.0,-2500.0,0.182,-0.238,0.648,0.7
332157,-5580.0,4766.0,-2500.0,0.18,-0.236,0.65,0.7
332173,-4574.0,8404.0,-2598.0,0.178,-0.233,0.651,0.7
332189,-4578.0,8936.0,-2198.0,0.175,-0.231,0.649,0.704
332216,-4130.0,7748.0,-1082.0,0.173,-0.229,0.646,0.708
332233,-3816.0,7222.0,-250.0,0.172,-0.227,0.643,0.711
332249,-3330.0,5974.0,522.0,0.172,-0.225,0.642,0.712
332265,-3600.0,5476.0,554.0,0.173,-0.224,0.643,0.711
332282,-3986.0,5084.0,450.0,0.175,-0.224,0.645,0.709
332299,-4308.0,5716.0,594.0,0.177,-0.222,0.649,0.706
332315,-4290.0,6248.0,858.0,0.178,-0.22,0.653,0.702
332332,-4792.0,6226.0,1138.0,0.181,-0.218,0.658,0.698
332358,-4766.0,7100.0,1278.0,0.183,-0.215,0.662,0.694
332375,-4784.0,6722.0,1370.0,0.184,-0.212,0.667,0.69
332391,-4556.0,6436.0,1600.0,0.185,-0.208,0.672,0.686
332408,-4322.0,6550.0,1856.0,0.186,-0.204,0.679,0.68
332424,-4104.0,7080.0,1936.0,0.187,-0.2,0.686,0.674
332441,-3728.0,7360.0,1914.0,0.188,-0.197,0.693,0.668
332458,-3408.0,7422.0,1680.0,0.187,-0.194,0.698,0.663
332475,-3208.0,7524.0,1440.0,0.186,-0.192,0.703,0.659
332492,-3036.0,8466.0,1028.0,0.184,-0.192,0.707,0.655
332508,-3118.0,8614.0,812.0,0.182,-0.193,0.709,0.654
332534,-3194.0,8060.0,776.0,0.178,-0.195,0.709,0.654
332550,-3332.0,7594.0,604.0,0.175,-0.198,0.707,0.656
332566,-3570.0,7448.0,230.0,0.171,-0.201,0.706,0.657
332582,-3814.0,7930.0,-52.0,0.167,-0.205,0.705,0.658
332599,-3984.0,7876.0,-190.0,0.164,-0.209,0.703,0.66
332615,-4198.0,7436.0,-356.0,0.16,-0.213,0.7,0.663
332632,-4258.0,7316.0,-488.0,0.157,-0.216,0.698,0.665
332658,-4258.0,7436.0,-420.0,0.154,-0.218,0.695,0.667
332675,-4262.0,7086.0,-378.0,0.152,-0.221,0.692,0.67
332691,-4322.0,6430.0,-284.0,0.151,-0.223,0.689,0.673
332708,-4274.0,6076.0,-240.0,0.151,-0.224,0.688,0.674
332725,-4178.0,6382.0,-160.0,0.151,-0.224,0.687,0.674
332742,-4168.0,6842.0,-48.0,0.152,-0.225,0.687,0.674
332758,-3936.0,6890.0,100.0,0.153,-0.225,0.687,0.673
332774,-3890.0,6756.0,222.0,0.154,-0.225,0.688,0.673
332800,-3764.0,6884.0,524.0,0.155,-0.225,0.689,0.671
332817,-3772.0,7126.0,728.0,0.156,-0.226,0.69,0.67
332833,-3640.0,7410.0,584.0,0.156,-0.227,0.691,0.669
332849,-3730.0,7178.0,564.0,0.156,-0.229,0.691,0.667
332865,-3898.0,7252.0,598.0,0.155,-0.23,0.692,0.666
332882,-4022.0,7382.0,646.0,0.155,-0.232,0.693,0.664
332898,-4022.0,7452.0,610.0,0.154,-0.234,0.694,0.663
332924,-4000.0,7180.0,582.0,0.153,-0.236,0.695,0.662
332941,-3998.0,7100.0,574.0,0.152,-0.238,0.695,0.661
332957,-4104.0,7144.0,632.0,0.151,-0.24,0.695,0.66
332973,-4318.0,7290.0,546.0,0.151,-0.242,0.695,0.66
332989,-4314.0,7214.0,580.0,0.151,-0.244,0.695,0.659
333005,-4234.0,7096.0,648.0,0.15,-0.246,0.695,0.659
333021,-4150.0,7072.0,622.0,0.149,-0.249,0.694,0.659
333048,-4170.0,7140.0,642.0,0.149,-0.251,0.694,0.659
333065,-4128.0,6988.0,668.0,0.148,-0.253,0.693,0.659
333081,-4170.0,6912.0,668.0,0.146,-0.255,0.692,0.659
333097,-4252.0,6940.0,810.0,0.145,-0.257,0.691,0.66
333113,-4236.0,6866.0,856.0,0.143,-0.259,0.691,0.66
333129,-4130.0,6668.0,850.0,0.142,-0.26,0.69,0.66
333145,-4308.0,7034.0,830.0,0.14,-0.261,0.69,0.66
333171,-4438.0,7056.0,848.0,0.139,-0.263,0.689,0.661
333187,-4374.0,7018.0,764.0,0.137,-0.264,0.689,0.661
333203,-4412.0,6884.0,676.0,0.136,-0.265,0.688,0.661
333219,-4414.0,6818.0,670.0,0.135,-0.266,0.688,0.662
333235,-4438.0,6886.0,648.0,0.133,-0.268,0.687,0.663
333261,-4500.0,6902.0,532.0,0.132,-0.269,0.685,0.664
333277,-4400.0,6852.0,456.0,0.131,-0.271,0.684,0.664
333294,-4450.0,6730.0,456.0,0.13,-0.273,0.683,0.665
333311,-4460.0,6704.0,438.0,0.13,-0.275,0.681,0.666
333327,-4530.0,6666.0,408.0,0.129,-0.277,0.68,0.667
333343,-4606.0,6630.0,330.0,0.129,-0.278,0.679,0.667
333359,-4530.0,6584.0,260.0,0.129,-0.28,0.678,0.667
333375,-4508.0,6528.0,256.0,0.129,-0.281,0.678,0.667
333402,-4516.0,6594.0,172.0,0.13,-0.282,0.677,0.667
333418,-4520.0,6686.0,72.0,0.131,-0.284,0.677,0.666
333434,-4560.0,6552.0,-30.0,0.132,-0.285,0.677,0.665
333450,-4752.0,5990.0,186.0,0.134,-0.286,0.678,0.663
333466,-4806.0,6244.0,242.0,0.137,-0.287,0.68,0.661
333482,-4940.0,6360.0,110.0,0.141,-0.287,0.682,0.657
333508,-4966.0,5978.0,44.0,0.145,-0.286,0.685,0.654
333524,-4994.0,6068.0,46.0,0.149,-0.286,0.689,0.649
333540,-5030.0,6446.0,-168.0,0.154,-0.284,0.694,0.644
333556,-5112.0,6708.0,-302.0,0.158,-0.283,0.698,0.638
333573,-5318.0,6866.0,-368.0,0.161,-0.28,0.703,0.633
333590,-5306.0,7078.0,-344.0,0.164,-0.277,0.708,0.629
333607,-5116.0,7204.0,-294.0,0.167,-0.273,0.712,0.625
333624,-4982.0,7556.0,-480.0,0.17,-0.269,0.717,0.621
333651,-4742.0,7786.0,-490.0,0.172,-0.264,0.721,0.617
333667,-4732.0,7562.0,-704.0,0.175,-0.259,0.725,0.614
333683,-4500.0,7602.0,-772.0,0.178,-0.253,0.728,0.611
333699,-4360.0,6950.0,-826.0,0.181,-0.248,0.732,0.608
333715,-4426.0,6934.0,-948.0,0.184,-0.242,0.738,0.603
333731,-4552.0,7472.0,-1030.0,0.188,-0.236,0.743,0.598
333748,-4334.0,7516.0,-1180.0,0.191,-0.23,0.748,0.593
333765,-4776.0,7716.0,-1520.0,0.195,-0.225,0.752,0.589
333792,-4894.0,8078.0,-1600.0,0.199,-0.221,0.754,0.586
333808,-5170.0,8334.0,-1476.0,0.203,-0.218,0.754,0.586
333824,-5230.0,7972.0,-1610.0,0.208,-0.216,0.752,0.587
333841,-5472.0,7552.0,-1582.0,0.213,-0.214,0.75,0.589
333857,-5168.0,7254.0,-1362.0,0.218,-0.213,0.746,0.592
333874,-5188.0,7484.0,-1324.0,0.224,-0.212,0.743,0.594
333891,-5426.0,9024.0,-1796.0,0.229,-0.213,0.736,0.6
333907,-5832.0,9306.0,-1766.0,0.233,-0.216,0.723,0.614
333924,-5810.0,7356.0,-872.0,0.236,-0.219,0.706,0.631
333951,-5356.0,6022.0,72.0,0.24,-0.22,0.687,0.649
333967,-4984.0,4800.0,908.0,0.243,-0.22,0.67,0.666
333983,-4580.0,3804.0,1654.0,0.246,-0.218,0.656,0.68
333999,-4386.0,3096.0,2184.0,0.249,-0.213,0.648,0.687
334015,-4420.0,2826.0,2410.0,0.252,-0.207,0.649,0.687
334031,-4692.0,4154.0,1484.0,0.256,-0.198,0.656,0.682
334057,-4544.0,5262.0,1210.0,0.261,-0.188,0.667,0.672
334074,-4608.0,5566.0,554.0,0.267,-0.177,0.682,0.658
334090,-4432.0,6428.0,-54.0,0.271,-0.166,0.698,0.641
334107,-4438.0,7662.0,-434.0,0.275,-0.158,0.714,0.625
334124,-5080.0,8076.0,-506.0,0.279,-0.152,0.725,0.611
334140,-5472.0,7064.0,-970.0,0.282,-0.148,0.733,0.601
334156,-4800.0,6222.0,-1270.0,0.285,-0.144,0.741,0.59
334173,-4360.0,6966.0,-1398.0,0.287,-0.141,0.749,0.58
334190,-4376.0,7730.0,-1396.0,0.289,-0.14,0.754,0.573
334216,-3906.0,7320.0,-1498.0,0.29,-0.141,0.757,0.568
334232,-4424.0,6216.0,-1666.0,0.29,-0.141,0.758,0.568
334248,-3426.0,4834.0,-1732.0,0.289,-0.14,0.759,0.567
334264,-3508.0,5058.0,-1860.0,0.287,-0.139,0.76,0.566
334280,-2922.0,5296.0,-1572.0,0.284,-0.137,0.761,0.566
334297,-2836.0,4638.0,-2206.0,0.279,-0.135,0.761,0.57
334314,-1820.0,5336.0,-2268.0,0.274,-0.132,0.76,0.574
334340,-2386.0,6016.0,-1580.0,0.269,-0.13,0.759,0.579
334357,-2162.0,6244.0,-1558.0,0.265,-0.129,0.757,0.583
334374,-2474.0,6662.0,-1152.0,0.26,-0.13,0.756,0.586
334390,-3062.0,6800.0,-1098.0,0.255,-0.13,0.754,0.591
334406,-3164.0,5952.0,-1130.0,0.248,-0.131,0.751,0.598
334423,-3034.0,5124.0,-972.0,0.24,-0.133,0.747,0.606
334439,-3394.0,4766.0,-1134.0,0.231,-0.134,0.744,0.613
334456,-3740.0,5254.0,-1088.0,0.223,-0.137,0.743,0.616
334483,-4788.0,6862.0,-694.0,0.217,-0.138,0.746,0.614
334499,-4762.0,12026.0,-1750.0,0.216,-0.139,0.752,0.607
334515,-4624.0,12146.0,-2374.0,0.217,-0.14,0.756,0.601
334531,-3256.0,10364.0,-2056.0,0.215,-0.144,0.757,0.6
334548,-3942.0,9088.0,-1542.0,0.213,-0.152,0.755,0.601
334564,-4176.0,8350.0,-1358.0,0.21,-0.162,0.752,0.604
334581,-4002.0,7254.0,-1194.0,0.209,-0.171,0.747,0.608
334597,-4072.0,7160.0,-818.0,0.208,-0.182,0.742,0.611
334624,-4360.0,7724.0,-800.0,0.209,-0.192,0.737,0.613
334640,-4646.0,7468.0,-802.0,0.209,-0.201,0.733,0.615
334657,-4734.0,6830.0,-532.0,0.21,-0.209,0.729,0.617
334673,-4670.0,6014.0,-350.0,0.21,-0.217,0.726,0.618
334690,-4840.0,5544.0,-190.0,0.21,-0.223,0.722,0.62
334707,-5210.0,5372.0,-120.0,0.21,-0.229,0.719,0.622
334724,-5096.0,5068.0,86.0,0.209,-0.234,0.716,0.624
334741,-5164.0,5672.0,96.0,0.208,-0.239,0.713,0.625
334757,-5690.0,6724.0,44.0,0.207,-0.244,0.71,0.627
334774,-5892.0,7174.0,106.0,0.205,-0.249,0.707,0.629
334800,-5584.0,7386.0,48.0,0.204,-0.253,0.705,0.63
334816,-5096.0,6692.0,46.0,0.202,-0.256,0.702,0.632
334832,-5110.0,6322.0,204.0,0.2,-0.26,0.699,0.635
334849,-5382.0,5620.0,438.0,0.198,-0.263,0.696,0.638
334865,-5816.0,5768.0,366.0,0.197,-0.265,0.693,0.641
334881,-5662.0,5918.0,200.0,0.197,-0.266,0.691,0.643
334907,-5260.0,5448.0,98.0,0.198,-0.267,0.689,0.645
334923,-4906.0,5568.0,356.0,0.198,-0.267,0.687,0.646
334939,-4906.0,5682.0,882.0,0.199,-0.267,0.686,0.648
334955,-4722.0,5844.0,1522.0,0.199,-0.266,0.685,0.648
334971,-4584.0,5674.0,1790.0,0.2,-0.265,0.686,0.648
334987,-4558.0,5566.0,1702.0,0.2,-0.264,0.687,0.646
335013,-4586.0,5878.0,1440.0,0.201,-0.263,0.689,0.644
335030,-4634.0,6094.0,1172.0,0.201,-0.262,0.692,0.642
335047,-4618.0,6530.0,846.0,0.202,-0.261,0.695,0.639
335064,-4446.0,6736.0,320.0,0.202,-0.261,0.697,0.637
335081,-4476.0,6580.0,-210.0,0.201,-0.261,0.699,0.635
335097,-4684.0,6590.0,-592.0,0.202,-0.261,0.7,0.634
335114,-4752.0,7074.0,-600.0,0.202,-0.261,0.701,0.633
335131,-4348.0,7434.0,-524.0,0.202,-0.261,0.7,0.633
335147,-4338.0,6724.0,-184.0,0.202,-0.261,0.699,0.635
335164,-4544.0,6446.0,-2.0,0.202,-0.26,0.697,0.637
335181,-4574.0,6596.0,36.0,0.202,-0.259,0.695,0.64
335207,-4220.0,5784.0,196.0,0.201,-0.257,0.693,0.642
335224,-4048.0,5636.0,200.0,0.201,-0.254,0.692,0.644
335240,-4134.0,5692.0,364.0,0.201,-0.252,0.692,0.646
335256,-4148.0,5818.0,472.0,0.2,-0.249,0.692,0.647
335272,-3974.0,5688.0,474.0,0.199,-0.247,0.692,0.648
335288,-3910.0,5714.0,524.0,0.198,-0.245,0.693,0.648
335314,-4274.0,6012.0,528.0,0.197,-0.243,0.694,0.648
335330,-4414.0,6324.0,382.0,0.195,-0.242,0.696,0.647
335346,-4530.0,6456.0,150.0,0.193,-0.24,0.698,0.647
335362,-4472.0,6544.0,-188.0,0.191,-0.239,0.699,0.647
335378,-4698.0,7020.0,-492.0,0.188,-0.237,0.7,0.647
335395,-4870.0,7180.0,-636.0,0.185,-0.236,0.701,0.647
335411,-4912.0,7000.0,-624.0,0.182,-0.235,0.701,0.648
335438,-5084.0,6842.0,-442.0,0.18,-0.233,0.701,0.65
335454,-5214.0,7004.0,-380.0,0.178,-0.231,0.7,0.652
335471,-5354.0,6688.0,-242.0,0.177,-0.229,0.7,0.653
335488,-5254.0,7034.0,-274.0,0.176,-0.226,0.7,0.654
335505,-5084.0,7190.0,-288.0,0.175,-0.223,0.701,0.655
335522,-5150.0,7126.0,-230.0,0.175,-0.221,0.701,0.655
335538,-5300.0,7128.0,-34.0,0.175,-0.218,0.701,0.656
335554,-5204.0,7234.0,-44.0,0.175,-0.215,0.702,0.656
335571,-5124.0,7270.0,-182.0,0.175,-0.212,0.703,0.656
335588,-4888.0,7502.0,-450.0,0.175,-0.208,0.705,0.655
335615,-4672.0,7690.0,-686.0,0.175,-0.205,0.706,0.655
335631,-4474.0,7918.0,-784.0,0.175,-0.202,0.706,0.655
335648,-4454.0,7812.0,-810.0,0.175,-0.2,0.707,0.656
335664,-4564.0,7818.0,-700.0,0.175,-0.197,0.707,0.656
335680,-4376.0,7800.0,-578.0,0.175,-0.194,0.708,0.656
335696,-4302.0,7672.0,-516.0,0.176,-0.191,0.708,0.657
335713,-4208.0,7748.0,-440.0,0.177,-0.189,0.709,0.656
335730,-4096.0,7674.0,-348.0,0.178,-0.186,0.71,0.656
335747,-3842.0,7626.0,-370.0,0.179,-0.183,0.71,0.656
335774,-3884.0,7550.0,-346.0,0.18,-0.18,0.711,0.655
335790,-3686.0,7642.0,-312.0,0.18,-0.178,0.712,0.655
335807,-3728.0,7506.0,-470.0,0.18,-0.176,0.712,0.655
335823,-3910.0,7754.0,-304.0,0.18,-0.174,0.712,0.656
335840,-3446.0,7738.0,-198.0,0.179,-0.172,0.712,0.656
335857,-3436.0,7550.0,-204.0,0.179,-0.171,0.712,0.657
335873,-3506.0,7582.0,-272.0,0.178,-0.17,0.712,0.658
335890,-3736.0,7466.0,-308.0,0.177,-0.169,0.711,0.659
335907,-3790.0,7400.0,-102.0,0.176,-0.167,0.71,0.661
335933,-3652.0,7194.0,-98.0,0.175,-0.166,0.71,0.662
335949,-3654.0,7138.0,-78.0,0.174,-0.164,0.709,0.664
335965,-3694.0,6930.0,-66.0,0.173,-0.163,0.708,0.666
335981,-3786.0,6960.0,80.0,0.171,-0.161,0.707,0.668
335997,-3800.0,6462.0,328.0,0.169,-0.158,0.705,0.67
336013,-3708.0,6156.0,464.0,0.167,-0.155,0.705,0.672
336039,-3544.0,6380.0,444.0,0.165,-0.152,0.705,0.673
336056,-3324.0,6332.0,442.0,0.162,-0.149,0.704,0.675
336072,-3340.0,6010.0,388.0,0.159,-0.146,0.704,0.676
336088,-3350.0,5848.0,364.0,0.156,-0.144,0.704,0.678
336105,-3380.0,5814.0,364.0,0.152,-0.141,0.704,0.679
336122,-3274.0,5848.0,580.0,0.148,-0.14,0.704,0.68
336138,-3352.0,6172.0,830.0,0.143,-0.138,0.705,0.681
336155,-3204.0,6360.0,876.0,0.139,-0.136,0.706,0.681
336181,-3072.0,6408.0,850.0,0.134,-0.135,0.707,0.682
336197,-3110.0,6516.0,704.0,0.128,-0.134,0.708,0.682
336213,-3282.0,6916.0,634.0,0.123,-0.133,0.708,0.682
336229,-3004.0,6950.0,680.0,0.117,-0.131,0.709,0.683
336246,-2902.0,7204.0,600.0,0.111,-0.129,0.709,0.684
336262,-2712.0,7630.0,658.0,0.104,-0.127,0.709,0.686
336278,-2508.0,7530.0,468.0,0.097,-0.125,0.709,0.688
336304,-2438.0,7846.0,492.0,0.09,-0.122,0.708,0.69
336320,-2234.0,8604.0,440.0,0.084,-0.12,0.707,0.692
336336,-1880.0,8986.0,606.0,0.077,-0.117,0.706,0.695
336352,-1282.0,9428.0,652.0,0.071,-0.113,0.705,0.697
336369,-938.0,9644.0,458.0,0.065,-0.111,0.703,0.7
336386,-1020.0,9352.0,188.0,0.06,-0.109,0.701,0.702
336402,-1444.0,9562.0,44.0,0.055,-0.108,0.7,0.704
336428,-1696.0,9360.0,40.0,0.051,-0.107,0.698,0.706
336445,-1658.0,9150.0,250.0,0.047,-0.107,0.697,0.707
336461,-1540.0,9120.0,590.0,0.044,-0.107,0.697,0.708
336478,-1804.0,9402.0,960.0,0.042,-0.108,0.696,0.708
336494,-2000.0,9166.0,1144.0,0.04,-0.109,0.697,0.708
336510,-2098.0,8856.0,1112.0,0.039,-0.111,0.697,0.707
336526,-2046.0,8844.0,1022.0,0.039,-0.112,0.699,0.705
336552,-2010.0,8516.0,1134.0,0.04,-0.114,0.7,0.704
336568,-1914.0,8216.0,1174.0,0.041,-0.116,0.701,0.702
336584,-2210.0,7996.0,1180.0,0.042,-0.119,0.702,0.701
336600,-2206.0,7790.0,1206.0,0.043,-0.121,0.703,0.7
336616,-2202.0,7616.0,1286.0,0.044,-0.122,0.704,0.698
336632,-2012.0,7608.0,1404.0,0.045,-0.122,0.705,0.697
336658,-2074.0,7764.0,1512.0,0.047,-0.123,0.706,0.696
336674,-2102.0,7608.0,1572.0,0.049,-0.123,0.706,0.696
336690,-2106.0,7746.0,1456.0,0.051,-0.123,0.707,0.695
336706,-2020.0,7558.0,1166.0,0.052,-0.123,0.707,0.695
336723,-2146.0,7904.0,734.0,0.054,-0.123,0.707,0.694
336740,-2030.0,8298.0,566.0,0.056,-0.123,0.707,0.694
336756,-2006.0,8318.0,508.0,0.057,-0.123,0.706,0.695
336783,-1996.0,8332.0,364.0,0.059,-0.124,0.705,0.696
336799,-2118.0,8356.0,238.0,0.06,-0.124,0.704,0.696
336815,-2140.0,8266.0,24.0,0.062,-0.125,0.704,0.697
336831,-2010.0,8490.0,-170.0,0.064,-0.126,0.703,0.697
336847,-1864.0,8418.0,-220.0,0.066,-0.127,0.703,0.697
336863,-2050.0,8358.0,-270.0,0.068,-0.128,0.702,0.697
336889,-1974.0,8164.0,-46.0,0.07,-0.128,0.702,0.697
336906,-1844.0,7982.0,200.0,0.072,-0.129,0.702,0.697
336923,-1988.0,7792.0,402.0,0.074,-0.13,0.702,0.696
336939,-2218.0,7464.0,356.0,0.075,-0.131,0.702,0.695
336955,-2224.0,7468.0,338.0,0.077,-0.132,0.703,0.695
336972,-2370.0,7316.0,462.0,0.079,-0.133,0.704,0.694
336988,-2558.0,7232.0,688.0,0.08,-0.134,0.704,0.693
337005,-2552.0,7270.0,818.0,0.081,-0.135,0.705,0.692
337022,-2752.0,7446.0,762.0,0.082,-0.136,0.705,0.691
337048,-2748.0,7598.0,534.0,0.083,-0.137,0.706,0.69
337064,-2760.0,7660.0,286.0,0.084,-0.139,0.706,0.69
337080,-2668.0,7520.0,128.0,0.085,-0.14,0.705,0.69
337096,-2670.0,7598.0,136.0,0.086,-0.141,0.705,0.69
337112,-2618.0,7810.0,132.0,0.087,-0.143,0.704,0.69
337129,-2700.0,7626.0,64.0,0.088,-0.144,0.703,0.691
337155,-2682.0,7368.0,86.0,0.089,-0.145,0.702,0.692
337171,-2648.0,7170.0,138.0,0.09,-0.146,0.701,0.692
337187,-2582.0,7096.0,232.0,0.092,-0.147,0.7,0.693
337204,-2714.0,6976.0,246.0,0.093,-0.148,0.7,0.693
337221,-2646.0,6850.0,238.0,0.093,-0.148,0.7,0.693
337238,-2730.0,7024.0,228.0,0.093,-0.148,0.7,0.692
337255,-2504.0,7126.0,402.0,0.093,-0.148,0.701,0.692
337272,-2490.0,7706.0,402.0,0.093,-0.148,0.701,0.691
337289,-2414.0,7936.0,448.0,0.092,-0.147,0.702,0.691
337305,-2418.0,8004.0,548.0,0.091,-0.147,0.702,0.691
337332,-2456.0,8112.0,580.0,0.09,-0.147,0.702,0.691
337348,-2422.0,8030.0,520.0,0.089,-0.147,0.702,0.691
337364,-2590.0,7944.0,452.0,0.089,-0.147,0.701,0.692
337380,-2546.0,7852.0,418.0,0.088,-0.148,0.7,0.693
337396,-2732.0,7714.0,412.0,0.087,-0.149,0.699,0.694
337412,-2796.0,7642.0,446.0,0.087,-0.149,0.698,0.695
337429,-2770.0,7622.0,372.0,0.086,-0.15,0.698,0.695
337455,-2742.0,7542.0,288.0,0.086,-0.151,0.697,0.696
337471,-2798.0,7536.0,268.0,0.086,-0.151,0.697,0.696
337487,-2824.0,7596.0,282.0,0.085,-0.151,0.697,0.696
337503,-2786.0,7568.0,454.0,0.085,-0.152,0.697,0.696
337520,-2848.0,7574.0,504.0,0.084,-0.152,0.697,0.696
337537,-2940.0,7588.0,590.0,0.084,-0.152,0.697,0.695
337554,-3028.0,7658.0,640.0,0.084,-0.152,0.697,0.695
337571,-3066.0,7650.0,744.0,0.084,-0.152,0.697,0.696
337588,-2882.0,7694.0,738.0,0.084,-0.153,0.697,0.696
337615,-2750.0,7702.0,666.0,0.084,-0.153,0.696,0.696
337631,-2696.0,7790.0,480.0,0.083,-0.154,0.696,0.697
337647,-2646.0,7850.0,448.0,0.083,-0.155,0.695,0.697
337663,-2596.0,7522.0,396.0,0.083,-0.156,0.694,0.698
337679,-2598.0,7516.0,456.0,0.083,-0.157,0.694,0.698
337695,-2518.0,7548.0,370.0,0.082,-0.157,0.694,0.698
337712,-2492.0,7426.0,312.0,0.082,-0.157,0.694,0.698
337738,-2464.0,7436.0,286.0,0.081,-0.158,0.694,0.698
337754,-2552.0,7620.0,288.0,0.081,-0.158,0.694,0.698
337770,-2638.0,7652.0,316.0,0.08,-0.159,0.694,0.697
337786,-2620.0,7478.0,312.0,0.079,-0.159,0.695,0.697
337803,-2746.0,7576.0,324.0,0.079,-0.159,0.695,0.697
337819,-2710.0,7538.0,418.0,0.078,-0.159,0.695,0.697
337845,-2782.0,7626.0,340.0,0.078,-0.159,0.695,0.696
337862,-2740.0,7640.0,360.0,0.077,-0.159,0.696,0.696
337878,-2902.0,7524.0,346.0,0.077,-0.159,0.696,0.696
337894,-2880.0,7586.0,376.0,0.077,-0.159,0.696,0.696
337911,-2924.0,7644.0,432.0,0.076,-0.159,0.697,0.695
337927,-2872.0,7594.0,480.0,0.076,-0.158,0.697,0.695
337944,-2956.0,7362.0,484.0,0.076,-0.158,0.697,0.695
337961,-3006.0,7234.0,500.0,0.076,-0.158,0.697,0.695
337978,-2836.0,7044.0,574.0,0.075,-0.157,0.697,0.695
338004,-3006.0,6540.0,580.0,0.074,-0.157,0.697,0.695
338020,-2810.0,6446.0,404.0,0.073,-0.156,0.698,0.695
338036,-2940.0,6206.0,256.0,0.072,-0.156,0.698,0.695
338053,-2720.0,6396.0,280.0,0.07,-0.155,0.699,0.695
338069,-2404.0,7128.0,354.0,0.068,-0.153,0.7,0.695
338086,-2114.0,7182.0,458.0,0.065,-0.15,0.701,0.694
338103,-1782.0,7480.0,434.0,0.062,-0.148,0.703,0.693
338120,-1706.0,7612.0,424.0,0.058,-0.145,0.704,0.693
338146,-1790.0,7324.0,326.0,0.054,-0.142,0.705,0.693
338162,-1816.0,7416.0,316.0,0.05,-0.138,0.706,0.693
338178,-1630.0,7384.0,108.0,0.046,-0.134,0.707,0.693
338194,-1716.0,7426.0,278.0,0.041,-0.13,0.707,0.694
338210,-1502.0,7366.0,460.0,0.037,-0.126,0.708,0.694
338227,-1392.0,7432.0,536.0,0.032,-0.122,0.708,0.695
338244,-1252.0,6722.0,458.0,0.028,-0.117,0.709,0.695
338270,-1732.0,7140.0,390.0,0.023,-0.113,0.71,0.695
338287,-1732.0,7012.0,298.0,0.018,-0.108,0.71,0.695
338304,-1038.0,7072.0,80.0,0.013,-0.103,0.711,0.695
338321,-790.0,6722.0,-236.0,0.008,-0.098,0.711,0.696
338338,-802.0,6690.0,-422.0,0.002,-0.092,0.712,0.696
338355,-758.0,7178.0,-510.0,0.004,0.085,-0.713,-0.696
338372,-416.0,7188.0,-546.0,0.01,0.077,-0.713,-0.697
338389,200.0,6882.0,-204.0,0.017,0.067,-0.714,-0.697
338405,308.0,7552.0,180.0,0.024,0.057,-0.714,-0.697
338421,610.0,7582.0,380.0,0.031,0.047,-0.714,-0.698
338448,962.0,7740.0,244.0,0.039,0.036,-0.713,-0.699
338464,1098.0,6934.0,474.0,0.047,0.025,-0.712,-0.7
338480,1146.0,7398.0,366.0,0.055,0.014,-0.711,-0.7
338496,1368.0,7368.0,386.0,0.064,0.002,-0.71,-0.701
338512,1562.0,7418.0,506.0,0.073,-0.011,-0.708,-0.702
338529,1904.0,6768.0,766.0,0.082,-0.023,-0.706,-0.703
338546,1806.0,6820.0,490.0,0.091,-0.037,-0.703,-0.705
338562,2156.0,7486.0,586.0,0.101,-0.051,-0.699,-0.706
338589,2876.0,8602.0,708.0,0.111,-0.066,-0.694,-0.708
338606,3664.0,7576.0,1186.0,0.121,-0.083,-0.687,-0.712
338622,4404.0,8118.0,1158.0,0.131,-0.1,-0.681,-0.714
338638,5026.0,8272.0,1254.0,0.141,-0.118,-0.674,-0.716
338655,4930.0,7992.0,1076.0,0.149,-0.134,-0.665,-0.719
338671,4738.0,7908.0,902.0,0.157,-0.151,-0.656,-0.722
338688,4666.0,7584.0,1252.0,0.164,-0.168,-0.647,-0.726
338705,4226.0,8118.0,1268.0,0.171,-0.186,-0.637,-0.728
338731,4352.0,8066.0,1024.0,0.176,-0.205,-0.627,-0.731
338747,5086.0,7314.0,1350.0,0.181,-0.225,-0.615,-0.734
338763,5212.0,6968.0,1470.0,0.184,-0.245,-0.603,-0.736
338779,5134.0,5926.0,1854.0,0.188,-0.266,-0.591,-0.738
338796,5372.0,5614.0,2628.0,0.192,-0.286,-0.578,-0.739
338812,4864.0,6072.0,2672.0,0.196,-0.307,-0.564,-0.741
338829,5102.0,6546.0,2984.0,0.2,-0.331,-0.547,-0.742
338846,6080.0,7248.0,2628.0,0.204,-0.356,-0.529,-0.743
338872,6768.0,5950.0,2040.0,0.208,-0.38,-0.51,-0.743
338889,7712.0,6436.0,2060.0,0.21,-0.404,-0.493,-0.742
338906,8650.0,6546.0,2230.0,0.209,-0.424,-0.477,-0.741
338922,8268.0,5776.0,2686.0,0.207,-0.441,-0.465,-0.74
338939,7590.0,6636.0,3484.0,0.203,-0.454,-0.455,-0.739
338955,7918.0,6364.0,3802.0,0.2,-0.463,-0.448,-0.738
338972,7428.0,7044.0,3732.0,0.196,-0.468,-0.445,-0.738
338989,7678.0,6910.0,3920.0,0.192,-0.47,-0.445,-0.738
339005,8396.0,4486.0,4382.0,0.189,-0.467,-0.449,-0.738
339022,7654.0,4918.0,4600.0,0.189,-0.461,-0.456,-0.738
339049,6390.0,7612.0,3874.0,0.191,-0.452,-0.464,-0.737
339065,5508.0,8480.0,3216.0,0.192,-0.443,-0.473,-0.737
339081,6682.0,6108.0,2944.0,0.191,-0.432,-0.482,-0.739
339097,6604.0,4952.0,3536.0,0.19,-0.418,-0.493,-0.739
339113,6802.0,4140.0,3964.0,0.192,-0.402,-0.505,-0.739
339129,6134.0,7410.0,3942.0,0.195,-0.384,-0.52,-0.738
339155,5646.0,9598.0,3324.0,0.195,-0.366,-0.533,-0.738
339171,7756.0,7680.0,2936.0,0.189,-0.348,-0.543,-0.74
339188,7634.0,4090.0,3396.0,0.182,-0.328,-0.555,-0.743
339205,7170.0,4344.0,3922.0,0.179,-0.305,-0.568,-0.744
339221,5682.0,9028.0,3978.0,0.178,-0.282,-0.582,-0.742
339238,5090.0,10866.0,2770.0,0.174,-0.262,-0.591,-0.743
339255,7066.0,7960.0,1612.0,0.167,-0.244,-0.596,-0.747
339272,7542.0,2698.0,2064.0,0.157,-0.223,-0.602,-0.751
339289,5750.0,5334.0,2226.0,0.15,-0.2,-0.608,-0.753
339315,3824.0,7206.0,3690.0,0.146,-0.178,-0.616,-0.753
339331,3184.0,9638.0,3182.0,0.144,-0.158,-0.622,-0.753
339347,4880.0,5198.0,1208.0,0.139,-0.141,-0.623,-0.756
339363,4684.0,4384.0,1674.0,0.132,-0.121,-0.627,-0.758
339379,3500.0,6806.0,2532.0,0.129,-0.1,-0.633,-0.757
339395,2928.0,9092.0,2368.0,0.126,-0.082,-0.637,-0.757
339411,3636.0,8766.0,1850.0,0.122,-0.066,-0.639,-0.757
339438,4842.0,7214.0,1448.0,0.118,-0.05,-0.641,-0.757
339454,3088.0,5466.0,1574.0,0.111,-0.029,-0.644,-0.756
339470,1590.0,9998.0,1080.0,0.105,-0.009,-0.647,-0.755
339486,1068.0,9712.0,834.0,0.098,0.008,-0.648,-0.756
339503,1536.0,9872.0,374.0,0.092,0.023,-0.647,-0.756
339519,2892.0,8750.0,40.0,0.087,0.034,-0.646,-0.758
339535,3768.0,7470.0,62.0,0.08,0.047,-0.646,-0.758
339562,1352.0,6006.0,126.0,0.069,0.064,-0.646,-0.757
339578,-148.0,8536.0,84.0,0.059,0.079,-0.648,-0.755
339595,-32.0,7418.0,464.0,0.051,0.09,-0.648,-0.755
339612,600.0,7092.0,952.0,0.045,0.1,-0.649,-0.753
339628,1422.0,6368.0,782.0,0.038,0.109,-0.651,-0.75
339645,-356.0,4584.0,1376.0,0.03,0.121,-0.653,-0.747
339662,-1530.0,6470.0,1346.0,0.022,0.132,-0.657,-0.742
339678,-1948.0,6520.0,1684.0,0.016,0.14,-0.662,-0.736
339695,-1378.0,6830.0,1168.0,0.01,0.147,-0.666,-0.732
339721,-376.0,7380.0,856.0,0.005,0.152,-0.67,-0.727
339737,82.0,7466.0,256.0,0.0,-0.157,0.673,0.723
339753,-682.0,6534.0,126.0,0.006,-0.162,0.675,0.72
339770,-1368.0,4860.0,-220.0,0.013,-0.168,0.675,0.718
339787,-2702.0,2674.0,-102.0,0.018,-0.174,0.675,0.717
339804,-2884.0,1008.0,386.0,0.023,-0.178,0.674,0.716
339821,-3134.0,-508.0,1324.0,0.026,-0.18,0.674,0.716
339838,-2704.0,-614.0,2036.0,0.026,-0.18,0.675,0.715
339854,-2150.0,-458.0,2428.0,0.024,-0.178,0.677,0.714
339881,-1376.0,324.0,2432.0,0.019,-0.172,0.68,0.713
339897,158.0,1648.0,1572.0,0.013,-0.164,0.684,0.711
339913,1390.0,3490.0,520.0,0.004,-0.154,0.687,0.71
339929,1258.0,6166.0,300.0,0.009,0.143,-0.688,-0.712
339945,926.0,6122.0,192.0,0.025,0.129,-0.687,-0.715
339962,1262.0,6902.0,22.0,0.042,0.112,-0.685,-0.718
339988,1544.0,7832.0,174.0,0.058,0.093,-0.684,-0.722
340005,1738.0,7908.0,130.0,0.075,0.073,-0.681,-0.725
340021,2148.0,9608.0,-78.0,0.092,0.051,-0.677,-0.728
340038,2844.0,9556.0,158.0,0.109,0.028,-0.672,-0.732
340054,2592.0,9432.0,558.0,0.125,0.004,-0.665,-0.736
340070,2884.0,8966.0,570.0,0.141,-0.02,-0.659,-0.739
340087,2712.0,8734.0,1154.0,0.157,-0.046,-0.652,-0.741
340104,3518.0,10348.0,1904.0,0.171,-0.073,-0.644,-0.742
340121,4450.0,10262.0,2688.0,0.184,-0.101,-0.636,-0.743
340138,5642.0,8172.0,2904.0,0.195,-0.128,-0.627,-0.744
340155,5616.0,8476.0,2358.0,0.205,-0.153,-0.618,-0.743
340181,5674.0,8858.0,2032.0,0.215,-0.178,-0.61,-0.741
340197,5712.0,8286.0,1526.0,0.223,-0.202,-0.602,-0.74
340214,5628.0,8300.0,1440.0,0.23,-0.227,-0.593,-0.737
340230,6282.0,8654.0,1308.0,0.235,-0.253,-0.584,-0.735
340246,6512.0,7398.0,2076.0,0.237,-0.279,-0.575,-0.732
340262,6946.0,6508.0,2730.0,0.24,-0.304,-0.565,-0.728
340288,6800.0,6960.0,3460.0,0.242,-0.328,-0.556,-0.724
340304,7108.0,7610.0,3802.0,0.245,-0.349,-0.548,-0.719
340321,6686.0,8502.0,3748.0,0.248,-0.368,-0.541,-0.714
340337,6906.0,9136.0,3880.0,0.249,-0.383,-0.535,-0.711
340354,8160.0,7056.0,4416.0,0.248,-0.394,-0.53,-0.709
340370,8296.0,5828.0,4764.0,0.248,-0.399,-0.528,-0.707
340387,7102.0,7748.0,4964.0,0.25,-0.398,-0.53,-0.705
340403,5874.0,9664.0,4516.0,0.253,-0.394,-0.534,-0.704
340420,5334.0,8968.0,3992.0,0.254,-0.387,-0.538,-0.704
340447,5432.0,8424.0,3950.0,0.254,-0.378,-0.544,-0.705
340463,6074.0,7356.0,4290.0,0.255,-0.366,-0.551,-0.706
340479,6292.0,7030.0,4130.0,0.255,-0.351,-0.559,-0.707
340496,5450.0,8350.0,3618.0,0.254,-0.333,-0.568,-0.708
340512,6090.0,9354.0,3244.0,0.252,-0.314,-0.577,-0.71
340528,6724.0,7858.0,2850.0,0.247,-0.295,-0.586,-0.713
340545,6146.0,6500.0,2626.0,0.242,-0.273,-0.594,-0.717
340562,6242.0,7188.0,2574.0,0.237,-0.251,-0.603,-0.719
340589,5800.0,8546.0,3020.0,0.233,-0.228,-0.612,-0.72
340606,6088.0,8266.0,2554.0,0.226,-0.206,-0.619,-0.723
340622,6596.0,6446.0,2416.0,0.219,-0.184,-0.626,-0.726
340638,5858.0,6768.0,2426.0,0.212,-0.161,-0.632,-0.728
340654,5390.0,7186.0,2138.0,0.205,-0.137,-0.637,-0.73
340671,4756.0,7608.0,2054.0,0.198,-0.115,-0.642,-0.732
340688,4854.0,6802.0,1634.0,0.191,-0.095,-0.645,-0.734
340704,5146.0,6636.0,1376.0,0.184,-0.076,-0.647,-0.736
340730,4490.0,6864.0,1238.0,0.178,-0.058,-0.649,-0.737
340746,4212.0,6906.0,1596.0,0.171,-0.04,-0.651,-0.738
340762,3324.0,7776.0,1468.0,0.165,-0.023,-0.653,-0.739
340778,3878.0,6832.0,1866.0,0.16,-0.007,-0.655,-0.739
340795,4036.0,7174.0,1404.0,0.154,0.01,-0.657,-0.738
340812,2756.0,7068.0,1142.0,0.147,0.028,-0.659,-0.737
340828,1320.0,8798.0,1002.0,0.141,0.045,-0.662,-0.734
340854,742.0,9114.0,1040.0,0.135,0.059,-0.664,-0.733
340870,1434.0,9608.0,1468.0,0.128,0.071,-0.665,-0.732
340887,2492.0,8106.0,1588.0,0.12,0.084,-0.665,-0.733
340903,630.0,8382.0,1132.0,0.111,0.099,-0.664,-0.732
340920,-344.0,10278.0,342.0,0.102,0.112,-0.663,-0.733
340936,-470.0,9816.0,238.0,0.093,0.124,-0.661,-0.735
340952,12.0,8012.0,198.0,0.085,0.135,-0.656,-0.738
340978,4.0,6540.0,-30.0,0.075,0.147,-0.652,-0.74
340994,-1064.0,6152.0,-368.0,0.066,0.158,-0.648,-0.742
341011,-1894.0,5160.0,-302.0,0.057,0.168,-0.644,-0.744
341028,-2088.0,4444.0,272.0,0.049,0.175,-0.642,-0.745
341045,-1058.0,3722.0,698.0,0.042,0.18,-0.642,-0.744
341061,-1378.0,3132.0,1144.0,0.035,0.185,-0.644,-0.742
341077,-1124.0,2282.0,1080.0,0.029,0.189,-0.647,-0.738
341094,-1938.0,1762.0,1064.0,0.024,0.193,-0.651,-0.734
341120,-1886.0,1062.0,772.0,0.021,0.195,-0.654,-0.731
341136,-2094.0,82.0,848.0,0.021,0.196,-0.656,-0.729
341152,-2096.0,-78.0,858.0,0.022,0.194,-0.659,-0.727
341168,-1934.0,36.0,358.0,0.026,0.19,-0.66,-0.726
341185,-1572.0,164.0,138.0,0.034,0.183,-0.663,-0.725
341201,-800.0,2008.0,216.0,0.044,0.172,-0.667,-0.723
341218,518.0,3456.0,636.0,0.057,0.157,-0.67,-0.723
341235,1284.0,4280.0,964.0,0.071,0.142,-0.672,-0.723
341261,1310.0,5432.0,856.0,0.087,0.123,-0.674,-0.724
341277,2156.0,6646.0,896.0,0.102,0.103,-0.674,-0.724
341293,2478.0,7152.0,880.0,0.118,0.081,-0.673,-0.725
341310,3432.0,8306.0,1144.0,0.133,0.059,-0.672,-0.726
341327,3758.0,9134.0,1502.0,0.147,0.036,-0.67,-0.727
341343,3614.0,9462.0,1826.0,0.16,0.013,-0.667,-0.728
341369,3866.0,9502.0,1932.0,0.172,-0.012,-0.664,-0.728
341386,4156.0,8956.0,1964.0,0.183,-0.036,-0.662,-0.726
341402,5006.0,8712.0,1502.0,0.193,-0.059,-0.659,-0.725
341418,5186.0,8342.0,1352.0,0.202,-0.082,-0.657,-0.722
341435,5994.0,10128.0,990.0,0.212,-0.104,-0.654,-0.719
341452,5186.0,9302.0,710.0,0.222,-0.126,-0.65,-0.716
341468,5366.0,8664.0,1162.0,0.231,-0.147,-0.645,-0.714
341485,4960.0,8862.0,1644.0,0.24,-0.168,-0.64,-0.711
341501,5010.0,8818.0,1534.0,0.248,-0.19,-0.634,-0.708
341518,5758.0,7484.0,1840.0,0.256,-0.212,-0.627,-0.704
341545,6756.0,7834.0,2540.0,0.263,-0.234,-0.621,-0.7
341562,6864.0,8290.0,2474.0,0.269,-0.256,-0.614,-0.696
341578,7474.0,7576.0,2862.0,0.274,-0.277,-0.607,-0.693
341594,7212.0,7836.0,2384.0,0.278,-0.298,-0.598,-0.69
341611,7036.0,7446.0,2400.0,0.28,-0.318,-0.589,-0.688
341628,6892.0,7346.0,2508.0,0.281,-0.337,-0.58,-0.686
341644,6970.0,6240.0,2720.0,0.281,-0.355,-0.57,-0.685
341661,6372.0,6798.0,2930.0,0.282,-0.372,-0.562,-0.683
341678,6684.0,6636.0,3642.0,0.283,-0.387,-0.553,-0.681
341704,8244.0,6988.0,4016.0,0.284,-0.397,-0.547,-0.68
341720,8238.0,7612.0,3664.0,0.285,-0.403,-0.543,-0.679
341737,7694.0,7848.0,2810.0,0.286,-0.404,-0.541,-0.68
341753,6700.0,8302.0,3012.0,0.285,-0.404,-0.54,-0.681
341770,6334.0,7364.0,3938.0,0.285,-0.4,-0.541,-0.683
341787,5770.0,8492.0,3532.0,0.286,-0.393,-0.545,-0.684
341804,5654.0,9652.0,3172.0,0.287,-0.381,-0.55,-0.686
341821,5464.0,7798.0,2228.0,0.285,-0.367,-0.556,-0.689
341837,5832.0,7652.0,2228.0,0.282,-0.351,-0.562,-0.694
341854,5640.0,6172.0,2470.0,0.278,-0.333,-0.57,-0.698
341880,5784.0,7658.0,2876.0,0.275,-0.313,-0.58,-0.7
341896,5190.0,8298.0,2690.0,0.271,-0.292,-0.59,-0.703
341912,5754.0,7194.0,2136.0,0.265,-0.271,-0.598,-0.706
341928,6292.0,6842.0,2616.0,0.259,-0.25,-0.607,-0.708
341944,6980.0,6294.0,3780.0,0.253,-0.228,-0.616,-0.711
341960,6950.0,6434.0,3814.0,0.247,-0.206,-0.624,-0.712
341987,5900.0,6906.0,3284.0,0.241,-0.182,-0.632,-0.714
342004,5666.0,8436.0,2776.0,0.235,-0.16,-0.637,-0.716
342020,6092.0,9150.0,2706.0,0.227,-0.139,-0.642,-0.719
342036,6386.0,5754.0,2542.0,0.218,-0.118,-0.644,-0.724
342052,5524.0,6458.0,1992.0,0.211,-0.096,-0.646,-0.727
342069,3422.0,8358.0,1410.0,0.203,-0.074,-0.648,-0.73
342086,3410.0,8610.0,900.0,0.194,-0.055,-0.648,-0.734
342103,4024.0,7658.0,620.0,0.185,-0.038,-0.648,-0.738
342130,4040.0,6924.0,432.0,0.175,-0.02,-0.648,-0.741
342146,3822.0,6930.0,668.0,0.166,-0.003,-0.65,-0.742
342162,2148.0,8056.0,852.0,0.157,0.015,-0.651,-0.742
342178,1742.0,7664.0,398.0,0.148,0.031,-0.652,-0.743
342194,1956.0,7104.0,1070.0,0.14,0.045,-0.654,-0.742
342211,2300.0,7432.0,1134.0,0.132,0.059,-0.657,-0.74
342228,1396.0,7858.0,1050.0,0.123,0.073,-0.662,-0.736
342244,900.0,9162.0,972.0,0.114,0.087,-0.668,-0.731
342270,196.0,8976.0,522.0,0.105,0.099,-0.672,-0.726
342286,326.0,8924.0,816.0,0.095,0.11,-0.675,-0.724
342303,344.0,9550.0,984.0,0.084,0.122,-0.676,-0.721
342319,174.0,8780.0,1036.0,0.072,0.134,-0.677,-0.72
342336,36.0,8084.0,834.0,0.06,0.146,-0.677,-0.719
342353,-460.0,8116.0,330.0,0.048,0.159,-0.676,-0.718
342369,-628.0,7692.0,-210.0,0.037,0.17,-0.675,-0.717
342386,-1046.0,7268.0,-88.0,0.025,0.181,-0.674,-0.716
342413,-1114.0,5320.0,124.0,0.013,0.191,-0.672,-0.716
342429,-926.0,4304.0,508.0,0.002,0.199,-0.671,-0.714
342445,-1404.0,3786.0,1006.0,0.008,-0.206,0.672,0.711
342461,-1494.0,3538.0,926.0,0.017,-0.211,0.675,0.707
342477,-1546.0,2644.0,538.0,0.025,-0.215,0.679,0.702
342494,-1262.0,2386.0,340.0,0.032,-0.218,0.682,0.698
342511,-1676.0,144.0,618.0,0.035,-0.22,0.683,0.696
342527,-2860.0,-1844.0,850.0,0.034,-0.22,0.682,0.696
342553,-2886.0,-2222.0,960.0,0.03,-0.219,0.683,0.697
342569,-2486.0,-2316.0,1090.0,0.021,-0.215,0.684,0.697
342585,-2192.0,-758.0,1174.0,0.01,-0.208,0.687,0.697
342602,-1030.0,2284.0,1190.0,0.005,0.199,-0.691,-0.695
342619,-444.0,4976.0,1194.0,0.021,0.19,-0.694,-0.694
342636,-1040.0,5244.0,1364.0,0.037,0.18,-0.696,-0.694
342653,-526.0,6170.0,1294.0,0.053,0.169,-0.698,-0.694
342670,86.0,8174.0,820.0,0.068,0.156,-0.701,-0.692
342687,358.0,8574.0,24.0,0.081,0.141,-0.702,-0.693
342713,1458.0,9910.0,-208.0,0.093,0.125,-0.702,-0.695
342729,2836.0,10094.0,-462.0,0.106,0.109,-0.7,-0.698
342745,1018.0,9774.0,-496.0,0.12,0.091,-0.696,-0.702
342761,1354.0,9774.0,-100.0,0.135,0.069,-0.693,-0.705
342777,3044.0,8896.0,386.0,0.152,0.046,-0.689,-0.707
342793,4232.0,8908.0,554.0,0.169,0.024,-0.687,-0.707
342810,4196.0,9134.0,746.0,0.185,0.003,-0.685,-0.704
342836,3836.0,9216.0,624.0,0.202,-0.017,-0.684,-0.701
342853,3686.0,8302.0,562.0,0.218,-0.037,-0.683,-0.696
342869,4430.0,8020.0,346.0,0.235,-0.057,-0.683,-0.689
342886,5020.0,8232.0,426.0,0.252,-0.078,-0.682,-0.682
342902,5142.0,8152.0,896.0,0.269,-0.099,-0.679,-0.676
342919,5704.0,10828.0,748.0,0.282,-0.121,-0.674,-0.672
342935,6060.0,9268.0,924.0,0.294,-0.143,-0.667,-0.67
342952,6050.0,7086.0,792.0,0.304,-0.164,-0.658,-0.669
342979,5812.0,8260.0,352.0,0.312,-0.186,-0.649,-0.669
342995,5884.0,8338.0,1268.0,0.318,-0.21,-0.638,-0.669
343011,6890.0,6818.0,2438.0,0.322,-0.235,-0.626,-0.67
343027,7628.0,6204.0,2854.0,0.326,-0.259,-0.614,-0.67
343043,7092.0,5748.0,3266.0,0.331,-0.281,-0.603,-0.669
343060,8054.0,5860.0,3846.0,0.336,-0.301,-0.593,-0.667
343077,7590.0,6900.0,3464.0,0.342,-0.317,-0.585,-0.664
343094,7104.0,7686.0,2928.0,0.347,-0.332,-0.576,-0.662
343120,6944.0,8374.0,2564.0,0.35,-0.345,-0.568,-0.66
343137,6362.0,8152.0,2950.0,0.352,-0.356,-0.561,-0.66
343153,6868.0,8416.0,3216.0,0.352,-0.363,-0.556,-0.659
343170,6788.0,8826.0,3132.0,0.352,-0.366,-0.554,-0.66
343186,6646.0,8196.0,2472.0,0.351,-0.364,-0.554,-0.662
343203,5600.0,9622.0,2310.0,0.348,-0.359,-0.556,-0.664
343220,5376.0,9880.0,2790.0,0.345,-0.351,-0.56,-0.666
343237,5290.0,8884.0,2992.0,0.342,-0.34,-0.566,-0.669
343253,5968.0,7728.0,3344.0,0.339,-0.325,-0.574,-0.671
343270,5920.0,7454.0,2808.0,0.336,-0.306,-0.584,-0.672
343296,4254.0,10250.0,1494.0,0.33,-0.286,-0.594,-0.675
343312,4024.0,9860.0,1780.0,0.321,-0.267,-0.602,-0.68
343328,5094.0,8146.0,3078.0,0.31,-0.249,-0.61,-0.685
343344,6338.0,6772.0,3708.0,0.301,-0.229,-0.619,-0.688
343361,5920.0,5854.0,3244.0,0.292,-0.205,-0.629,-0.691
343378,5320.0,8588.0,2688.0,0.283,-0.181,-0.638,-0.693
343395,5588.0,8034.0,2530.0,0.272,-0.158,-0.647,-0.695
343421,6636.0,7612.0,2802.0,0.261,-0.134,-0.656,-0.696
343438,6556.0,6552.0,2784.0,0.25,-0.111,-0.665,-0.695
343454,5796.0,5832.0,1904.0,0.239,-0.087,-0.672,-0.696
343470,4492.0,8170.0,1658.0,0.227,-0.065,-0.677,-0.697
343486,3722.0,7708.0,1634.0,0.215,-0.045,-0.682,-0.698
343502,4654.0,7380.0,1660.0,0.204,-0.028,-0.685,-0.699
343518,4870.0,6992.0,1872.0,0.192,-0.01,-0.688,-0.7
343544,4966.0,7116.0,1668.0,0.181,0.009,-0.69,-0.7
343560,3482.0,8266.0,796.0,0.171,0.029,-0.693,-0.699
343577,2758.0,8836.0,72.0,0.16,0.048,-0.696,-0.699
343594,1620.0,8024.0,-310.0,0.149,0.066,-0.696,-0.699
343610,1746.0,7722.0,90.0,0.137,0.082,-0.696,-0.7
343627,1522.0,8446.0,136.0,0.125,0.098,-0.695,-0.701
343644,1094.0,7478.0,-92.0,0.113,0.113,-0.695,-0.701
343660,322.0,7234.0,-536.0,0.102,0.128,-0.694,-0.701
343677,-620.0,7332.0,-622.0,0.091,0.141,-0.692,-0.702
343704,-1368.0,7504.0,-336.0,0.079,0.153,-0.691,-0.702
343720,-1184.0,7264.0,282.0,0.069,0.163,-0.69,-0.702
343736,-568.0,6770.0,386.0,0.06,0.172,-0.691,-0.7
343753,-190.0,6434.0,298.0,0.05,0.181,-0.692,-0.697
343770,-1082.0,7048.0,-106.0,0.04,0.19,-0.695,-0.692
343786,-1506.0,7812.0,-140.0,0.03,0.198,-0.698,-0.688
343803,-1442.0,7742.0,-220.0,0.022,0.204,-0.7,-0.684
343820,-682.0,7118.0,-240.0,0.013,0.209,-0.702,-0.681
343846,-886.0,6924.0,-402.0,0.005,0.215,-0.702,-0.679
343862,-1702.0,6936.0,-304.0,0.004,-0.222,0.701,0.678
343878,-2534.0,6108.0,-88.0,0.011,-0.229,0.698,0.678
343894,-2412.0,5368.0,266.0,0.017,-0.234,0.697,0.678
343910,-2030.0,4708.0,146.0,0.023,-0.238,0.695,0.678
343926,-2218.0,3902.0,-162.0,0.027,-0.243,0.694,0.677
343952,-2720.0,2800.0,-456.0,0.03,-0.246,0.692,0.678
343969,-3010.0,846.0,-726.0,0.031,-0.248,0.689,0.68
343986,-3190.0,-1254.0,-708.0,0.028,-0.248,0.687,0.683
344003,-2532.0,-1938.0,-164.0,0.023,-0.245,0.686,0.685
344019,-2674.0,-706.0,726.0,0.015,-0.239,0.688,0.685
344036,-1780.0,-110.0,1160.0,0.003,-0.231,0.69,0.686
344053,-1810.0,1190.0,1554.0,0.011,0.22,-0.694,-0.686
344069,-1038.0,4482.0,1742.0,0.028,0.207,-0.698,-0.685
344085,-222.0,6028.0,1694.0,0.047,0.193,-0.7,-0.686
344102,390.0,6952.0,1090.0,0.067,0.178,-0.7,-0.688
344129,308.0,7820.0,934.0,0.087,0.164,-0.699,-0.691
344145,392.0,9232.0,654.0,0.105,0.148,-0.697,-0.694
344161,1632.0,9010.0,406.0,0.123,0.13,-0.694,-0.697
344177,2458.0,8744.0,356.0,0.139,0.112,-0.691,-0.7
344193,2622.0,8860.0,296.0,0.154,0.093,-0.689,-0.702
344209,2260.0,10060.0,36.0,0.168,0.073,-0.688,-0.702
344226,2704.0,10054.0,134.0,0.183,0.05,-0.686,-0.703
344253,3258.0,9310.0,274.0,0.198,0.026,-0.682,-0.703
344269,3324.0,9496.0,610.0,0.213,0.002,-0.677,-0.704
344285,3528.0,6934.0,1150.0,0.229,-0.025,-0.671,-0.705
344302,5370.0,2098.0,1430.0,0.246,-0.054,-0.665,-0.703
344319,5578.0,6524.0,5722.0,0.266,-0.08,-0.657,-0.7
344336,1690.0,20254.0,1122.0,0.28,-0.098,-0.654,-0.696
344353,3930.0,12408.0,812.0,0.292,-0.119,-0.649,-0.693
344369,5928.0,6862.0,1244.0,0.3,-0.141,-0.64,-0.693
344395,5456.0,6164.0,2124.0,0.309,-0.162,-0.632,-0.693
344411,5622.0,9414.0,2682.0,0.317,-0.181,-0.626,-0.689
344427,4948.0,8396.0,2394.0,0.326,-0.202,-0.619,-0.686
344443,6554.0,7190.0,2414.0,0.332,-0.223,-0.61,-0.684
344460,6290.0,7632.0,2586.0,0.337,-0.242,-0.601,-0.683
344476,5650.0,6872.0,2394.0,0.341,-0.261,-0.592,-0.682
344493,6602.0,6542.0,2662.0,0.346,-0.28,-0.582,-0.68
344509,6972.0,6622.0,2838.0,0.353,-0.297,-0.574,-0.677
344536,7066.0,7316.0,2358.0,0.36,-0.312,-0.566,-0.673
344553,7122.0,6050.0,2534.0,0.367,-0.325,-0.558,-0.669
344572,6808.0,6996.0,2970.0,0.374,-0.335,-0.553,-0.665
344589,5950.0,8554.0,3294.0,0.38,-0.342,-0.549,-0.661
344605,6236.0,8886.0,3360.0,0.386,-0.346,-0.546,-0.658
344621,6722.0,8626.0,3206.0,0.391,-0.345,-0.545,-0.657
344637,6786.0,8448.0,3156.0,0.393,-0.339,-0.546,-0.658
344653,6028.0,9296.0,3036.0,0.391,-0.33,-0.549,-0.661
344669,5866.0,9814.0,2876.0,0.386,-0.318,-0.553,-0.666
344686,5770.0,8828.0,2864.0,0.379,-0.304,-0.559,-0.672
344712,5742.0,8436.0,3130.0,0.372,-0.287,-0.567,-0.677
344728,5678.0,8762.0,2932.0,0.364,-0.268,-0.575,-0.682
344744,5152.0,9370.0,2678.0,0.354,-0.247,-0.584,-0.687
344760,5396.0,8758.0,2610.0,0.341,-0.226,-0.593,-0.693
344776,5384.0,7090.0,2462.0,0.327,-0.205,-0.601,-0.7
344793,4828.0,6604.0,2802.0,0.313,-0.183,-0.609,-0.705
344810,4402.0,6564.0,3490.0,0.3,-0.162,-0.618,-0.709
344836,4622.0,6946.0,3574.0,0.289,-0.141,-0.627,-0.709
344853,5486.0,6128.0,3204.0,0.279,-0.119,-0.636,-0.71
344869,5368.0,5674.0,3468.0,0.269,-0.096,-0.644,-0.71
344886,5026.0,6038.0,3364.0,0.26,-0.073,-0.653,-0.708
344902,3680.0,9146.0,2634.0,0.251,-0.05,-0.66,-0.706
344919,3324.0,9960.0,2726.0,0.241,-0.03,-0.664,-0.707
344936,4078.0,9394.0,2896.0,0.23,-0.012,-0.666,-0.709
344953,4878.0,8198.0,2624.0,0.218,0.005,-0.667,-0.712
344979,5452.0,6896.0,1794.0,0.206,0.026,-0.668,-0.715
344995,3136.0,8598.0,898.0,0.193,0.049,-0.668,-0.717
345011,1182.0,9980.0,388.0,0.18,0.071,-0.666,-0.721
345027,978.0,8742.0,292.0,0.168,0.089,-0.663,-0.724
345043,2168.0,6124.0,74.0,0.156,0.106,-0.659,-0.728
345059,1638.0,5702.0,-146.0,0.142,0.123,-0.658,-0.729
345085,782.0,6734.0,-310.0,0.129,0.139,-0.658,-0.729
345101,96.0,7244.0,-26.0,0.117,0.153,-0.657,-0.729
345118,-180.0,7314.0,340.0,0.105,0.165,-0.657,-0.728
345135,-194.0,7474.0,834.0,0.094,0.177,-0.657,-0.727
345152,72.0,7246.0,858.0,0.082,0.189,-0.658,-0.724
345168,-1184.0,7584.0,928.0,0.072,0.201,-0.659,-0.721
345185,-1436.0,7736.0,968.0,0.062,0.213,-0.66,-0.718
345202,-2204.0,7790.0,978.0,0.052,0.223,-0.66,-0.715
345219,-2536.0,8034.0,830.0,0.043,0.233,-0.659,-0.714
345236,-2374.0,7512.0,704.0,0.035,0.24,-0.657,-0.714
345262,-1986.0,6706.0,518.0,0.026,0.248,-0.654,-0.715
345279,-2106.0,6382.0,444.0,0.018,0.255,-0.651,-0.715
345295,-2216.0,6432.0,342.0,0.01,0.261,-0.649,-0.714
345311,-2002.0,5942.0,226.0,0.002,0.267,-0.648,-0.714
345327,-1890.0,5508.0,128.0,0.006,-0.272,0.646,0.713
345343,-2146.0,5232.0,182.0,0.013,-0.278,0.646,0.711
345359,-2230.0,4946.0,54.0,0.02,-0.283,0.647,0.708
345385,-2604.0,4490.0,-22.0,0.026,-0.288,0.648,0.705
345401,-2628.0,3258.0,8.0,0.032,-0.293,0.647,0.703
345417,-2654.0,2102.0,-122.0,0.036,-0.298,0.646,0.702
345434,-2992.0,782.0,-220.0,0.039,-0.302,0.642,0.704
345450,-3756.0,748.0,-352.0,0.038,-0.303,0.635,0.71
345466,-4396.0,-666.0,-118.0,0.032,-0.3,0.625,0.72
345483,-4428.0,-966.0,662.0,0.023,-0.291,0.616,0.732
345510,-3680.0,-974.0,1058.0,0.011,-0.278,0.611,0.741
345526,-3246.0,570.0,1414.0,0.004,0.262,-0.611,-0.747
345543,-2332.0,3586.0,1830.0,0.021,0.242,-0.615,-0.75
345559,-992.0,6292.0,2132.0,0.039,0.221,-0.62,-0.752
345576,-48.0,7764.0,2002.0,0.057,0.199,-0.624,-0.753
345593,40.0,9032.0,2220.0,0.075,0.178,-0.626,-0.755
345609,110.0,9338.0,2790.0,0.093,0.156,-0.628,-0.757
345626,548.0,9170.0,2702.0,0.11,0.133,-0.629,-0.758
345642,868.0,7666.0,2032.0,0.128,0.11,-0.632,-0.757
345668,1670.0,9300.0,1796.0,0.147,0.087,-0.634,-0.754
345685,1956.0,9378.0,1742.0,0.166,0.064,-0.637,-0.75
345702,3178.0,9170.0,510.0,0.184,0.041,-0.64,-0.745
345719,4108.0,8328.0,634.0,0.202,0.019,-0.641,-0.74
345735,4086.0,9108.0,732.0,0.22,-0.003,-0.642,-0.734
345752,3924.0,9010.0,1556.0,0.236,-0.025,-0.643,-0.728
345769,4078.0,7288.0,1784.0,0.253,-0.048,-0.642,-0.722
345785,3960.0,7602.0,1620.0,0.269,-0.07,-0.643,-0.714
345812,4810.0,7960.0,1886.0,0.286,-0.093,-0.643,-0.704
345828,5392.0,9224.0,2158.0,0.301,-0.116,-0.641,-0.697
345844,5466.0,8646.0,2398.0,0.314,-0.141,-0.635,-0.692
345860,5928.0,8266.0,2722.0,0.324,-0.166,-0.628,-0.688
345876,6782.0,7712.0,2976.0,0.335,-0.191,-0.62,-0.683
345892,6888.0,7060.0,2830.0,0.345,-0.215,-0.612,-0.678
345909,5818.0,8946.0,1904.0,0.352,-0.24,-0.602,-0.675
345926,6432.0,8792.0,1664.0,0.356,-0.266,-0.59,-0.674
345952,6898.0,6822.0,2296.0,0.357,-0.294,-0.577,-0.674
345969,6764.0,5680.0,2732.0,0.357,-0.32,-0.564,-0.672
345985,7894.0,5376.0,3172.0,0.36,-0.343,-0.553,-0.669
346001,7460.0,6522.0,3616.0,0.365,-0.361,-0.545,-0.663
346018,8108.0,7264.0,3170.0,0.369,-0.374,-0.539,-0.658
346035,6274.0,8320.0,2284.0,0.371,-0.384,-0.534,-0.656
346052,6218.0,7850.0,2624.0,0.369,-0.393,-0.53,-0.654
346069,6764.0,7372.0,3274.0,0.368,-0.398,-0.528,-0.653
346086,6782.0,7572.0,3156.0,0.369,-0.398,-0.529,-0.653
346112,6040.0,7690.0,2194.0,0.369,-0.393,-0.532,-0.653
346128,5162.0,8570.0,1810.0,0.366,-0.388,-0.535,-0.655
346144,5734.0,7820.0,2508.0,0.362,-0.381,-0.54,-0.657
346160,6606.0,6972.0,3132.0,0.359,-0.372,-0.546,-0.659
346177,6766.0,7456.0,3372.0,0.358,-0.358,-0.555,-0.66
346193,6140.0,7332.0,2796.0,0.355,-0.341,-0.564,-0.663
346210,5494.0,9542.0,2246.0,0.348,-0.324,-0.573,-0.667
346227,5514.0,8932.0,2708.0,0.338,-0.309,-0.58,-0.673
346253,6452.0,7364.0,4066.0,0.329,-0.293,-0.588,-0.678
346269,6712.0,6596.0,4688.0,0.321,-0.273,-0.598,-0.682
346285,6764.0,6214.0,4190.0,0.315,-0.251,-0.607,-0.685
346301,5842.0,6898.0,3666.0,0.307,-0.228,-0.615,-0.689
346317,4600.0,8812.0,3570.0,0.299,-0.204,-0.623,-0.694
346333,5552.0,8924.0,3312.0,0.29,-0.182,-0.628,-0.699
346359,7240.0,5798.0,3294.0,0.28,-0.161,-0.631,-0.705
346375,7554.0,6316.0,3306.0,0.271,-0.139,-0.635,-0.71
346391,6958.0,7350.0,2410.0,0.261,-0.115,-0.639,-0.715
346408,5800.0,8792.0,1852.0,0.251,-0.093,-0.641,-0.719
346425,5938.0,8398.0,1588.0,0.24,-0.072,-0.642,-0.724
346442,6114.0,6236.0,1538.0,0.23,-0.052,-0.642,-0.729
346459,4858.0,6308.0,1172.0,0.22,-0.031,-0.644,-0.732
346475,3272.0,7888.0,796.0,0.209,-0.009,-0.645,-0.735
346502,2298.0,8086.0,784.0,0.199,0.01,-0.646,-0.737
346518,2820.0,5776.0,852.0,0.19,0.028,-0.647,-0.738
346535,2112.0,6104.0,890.0,0.181,0.045,-0.649,-0.738
346552,568.0,6386.0,474.0,0.172,0.061,-0.651,-0.737
346568,600.0,6600.0,416.0,0.163,0.075,-0.652,-0.736
346584,-148.0,6484.0,786.0,0.154,0.088,-0.653,-0.736
346601,-464.0,7024.0,1192.0,0.145,0.099,-0.654,-0.736
346617,-450.0,7482.0,1344.0,0.137,0.109,-0.654,-0.736
346634,812.0,7450.0,1470.0,0.129,0.118,-0.654,-0.736
346661,1150.0,7420.0,1366.0,0.12,0.128,-0.654,-0.736
346677,198.0,8592.0,934.0,0.112,0.138,-0.654,-0.735
346693,-496.0,9326.0,910.0,0.103,0.148,-0.653,-0.736
346709,-236.0,8188.0,684.0,0.095,0.157,-0.651,-0.736
346726,-468.0,6590.0,408.0,0.087,0.166,-0.651,-0.736
346742,-738.0,6438.0,-22.0,0.078,0.174,-0.651,-0.735
346759,-2178.0,6410.0,-8.0,0.071,0.182,-0.652,-0.732
346776,-2328.0,6162.0,144.0,0.063,0.188,-0.655,-0.729
346802,-2106.0,5820.0,736.0,0.056,0.192,-0.659,-0.725
346819,-2136.0,6610.0,1074.0,0.048,0.196,-0.664,-0.72
346835,-2016.0,7450.0,1312.0,0.04,0.201,-0.668,-0.715
346851,-1500.0,7634.0,1246.0,0.032,0.206,-0.671,-0.711
346868,-1752.0,6470.0,970.0,0.025,0.213,-0.673,-0.708
346884,-2010.0,4856.0,192.0,0.02,0.22,-0.672,-0.707
346901,-3112.0,3890.0,-350.0,0.016,0.227,-0.67,-0.707
346918,-2982.0,688.0,-516.0,0.015,0.23,-0.666,-0.71
346935,-2588.0,-2186.0,-450.0,0.015,0.23,-0.663,-0.712
346952,-2538.0,-3874.0,-228.0,0.017,0.227,-0.665,-0.711
346978,-2072.0,-1506.0,406.0,0.022,0.221,-0.671,-0.708
346994,-1376.0,1248.0,714.0,0.031,0.209,-0.679,-0.703
347010,-18.0,3358.0,1178.0,0.043,0.195,-0.686,-0.7
347026,82.0,5442.0,1506.0,0.058,0.18,-0.692,-0.697
347042,60.0,6586.0,1752.0,0.074,0.164,-0.696,-0.696
347058,-78.0,6496.0,1390.0,0.092,0.147,-0.697,-0.696
347085,-358.0,8238.0,1198.0,0.111,0.128,-0.696,-0.697
347101,916.0,7988.0,990.0,0.13,0.107,-0.694,-0.7
347117,1690.0,7896.0,946.0,0.15,0.085,-0.69,-0.703
347133,2334.0,8824.0,682.0,0.169,0.06,-0.686,-0.705
347149,3308.0,8866.0,756.0,0.188,0.034,-0.682,-0.706
347166,4280.0,8744.0,494.0,0.205,0.007,-0.679,-0.705
347192,4940.0,9052.0,622.0,0.221,-0.02,-0.675,-0.704
347208,5236.0,8608.0,568.0,0.237,-0.048,-0.669,-0.702
347225,5062.0,8768.0,582.0,0.251,-0.075,-0.663,-0.702
347241,4822.0,9082.0,730.0,0.262,-0.103,-0.655,-0.701
347258,5372.0,8588.0,1280.0,0.273,-0.132,-0.646,-0.701
347275,5806.0,7954.0,2168.0,0.282,-0.159,-0.637,-0.7
347292,6564.0,8188.0,2252.0,0.291,-0.186,-0.627,-0.698
347309,6244.0,8472.0,2082.0,0.3,-0.212,-0.617,-0.696
347325,6418.0,7628.0,2290.0,0.307,-0.238,-0.607,-0.693
347341,6942.0,6662.0,2368.0,0.314,-0.264,-0.595,-0.691
347368,6748.0,5220.0,2340.0,0.32,-0.29,-0.583,-0.688
347385,7000.0,6126.0,3444.0,0.329,-0.319,-0.569,-0.682
347401,7304.0,6338.0,4216.0,0.337,-0.351,-0.554,-0.676
347417,10066.0,4488.0,4026.0,0.346,-0.383,-0.537,-0.667
347434,9848.0,6098.0,3760.0,0.352,-0.413,-0.522,-0.658
347451,10890.0,6902.0,3690.0,0.355,-0.439,-0.507,-0.651
347468,10756.0,4782.0,3832.0,0.357,-0.461,-0.493,-0.645
347484,9748.0,5458.0,3158.0,0.36,-0.475,-0.483,-0.641
347510,8008.0,7332.0,2426.0,0.364,-0.483,-0.477,-0.638
347526,6646.0,9026.0,1544.0,0.366,-0.488,-0.473,-0.636
347542,6272.0,7888.0,1600.0,0.366,-0.492,-0.471,-0.635
347558,6656.0,6026.0,2136.0,0.367,-0.492,-0.471,-0.633
347574,6204.0,6716.0,2324.0,0.37,-0.487,-0.476,-0.632
347591,5580.0,9046.0,2248.0,0.371,-0.48,-0.482,-0.632
347608,6166.0,9258.0,2694.0,0.37,-0.47,-0.489,-0.635
347625,6892.0,5602.0,3088.0,0.368,-0.456,-0.499,-0.638
347642,6058.0,6756.0,3378.0,0.367,-0.441,-0.51,-0.641
347668,6504.0,7444.0,3964.0,0.366,-0.423,-0.522,-0.644
347685,7794.0,8856.0,3762.0,0.362,-0.403,-0.534,-0.649
347701,5776.0,7886.0,3428.0,0.356,-0.38,-0.548,-0.655
347718,5986.0,8608.0,4234.0,0.348,-0.358,-0.558,-0.663
347735,6478.0,7036.0,5804.0,0.339,-0.337,-0.568,-0.67
347751,8476.0,7478.0,6308.0,0.334,-0.313,-0.578,-0.675
347768,9014.0,8308.0,5434.0,0.329,-0.286,-0.59,-0.68
347784,9278.0,10262.0,3322.0,0.318,-0.258,-0.597,-0.689
347811,8170.0,5616.0,3044.0,0.302,-0.232,-0.601,-0.703
347827,8810.0,5682.0,4272.0,0.287,-0.205,-0.605,-0.714
347843,6798.0,7064.0,4686.0,0.276,-0.176,-0.612,-0.72
347859,7660.0,8122.0,1898.0,0.265,-0.15,-0.616,-0.726
347875,6822.0,4926.0,1178.0,0.251,-0.124,-0.617,-0.735
347891,5656.0,3478.0,854.0,0.238,-0.097,-0.618,-0.743
347917,3716.0,4236.0,1376.0,0.227,-0.071,-0.621,-0.747
347933,4026.0,5912.0,742.0,0.219,-0.049,-0.626,-0.747
347949,4494.0,7222.0,464.0,0.21,-0.03,-0.63,-0.747
347965,4156.0,6324.0,692.0,0.2,-0.012,-0.634,-0.747
347982,3930.0,5550.0,1640.0,0.191,0.007,-0.638,-0.746
347999,2074.0,7348.0,1486.0,0.181,0.025,-0.643,-0.744
348016,1080.0,10754.0,2016.0,0.172,0.041,-0.646,-0.743
348032,1204.0,9366.0,1828.0,0.164,0.054,-0.647,-0.742
348058,2088.0,8200.0,1416.0,0.157,0.064,-0.648,-0.743
348074,2802.0,6672.0,1096.0,0.149,0.075,-0.649,-0.742
348090,72.0,6106.0,416.0,0.139,0.089,-0.652,-0.74
348107,-1854.0,9124.0,-216.0,0.129,0.1,-0.654,-0.739
348124,-986.0,8306.0,210.0,0.121,0.106,-0.654,-0.739
348141,736.0,5830.0,468.0,0.114,0.111,-0.655,-0.739
348158,1718.0,5020.0,64.0,0.105,0.116,-0.659,-0.736
348175,1522.0,4854.0,4.0,0.096,0.124,-0.663,-0.732
348191,356.0,6822.0,614.0,0.086,0.133,-0.668,-0.727
348218,-784.0,7588.0,918.0,0.077,0.142,-0.671,-0.723
348234,-332.0,7088.0,1376.0,0.07,0.149,-0.675,-0.719
348250,84.0,6700.0,1636.0,0.063,0.156,-0.679,-0.715
348266,-28.0,7106.0,1174.0,0.055,0.164,-0.682,-0.711
348282,-756.0,6806.0,896.0,0.048,0.174,-0.684,-0.707
348298,-1974.0,7204.0,790.0,0.041,0.184,-0.684,-0.705
348315,-1970.0,5738.0,362.0,0.036,0.192,-0.681,-0.706
348342,-2152.0,2224.0,-220.0,0.033,0.2,-0.677,-0.708
348358,-2920.0,534.0,-742.0,0.03,0.206,-0.672,-0.711
348375,-3824.0,-2510.0,-974.0,0.029,0.21,-0.666,-0.715
348392,-3398.0,-2748.0,-354.0,0.031,0.21,-0.664,-0.717
348409,-3632.0,-3726.0,476.0,0.036,0.204,-0.665,-0.717
348425,-2272.0,-1600.0,590.0,0.046,0.191,-0.671,-0.714
348441,190.0,1508.0,618.0,0.061,0.173,-0.679,-0.711
348457,1154.0,3978.0,832.0,0.079,0.153,-0.685,-0.708
348483,2274.0,5686.0,1010.0,0.099,0.131,-0.688,-0.707
348500,2888.0,7412.0,1324.0,0.121,0.108,-0.689,-0.706
348517,3050.0,9010.0,966.0,0.141,0.086,-0.687,-0.707
348534,2874.0,8652.0,636.0,0.161,0.064,-0.682,-0.71
348551,3152.0,8080.0,1064.0,0.18,0.039,-0.676,-0.714
348568,3610.0,8668.0,1216.0,0.197,0.014,-0.67,-0.716
348585,4240.0,10030.0,972.0,0.212,-0.01,-0.665,-0.716
348602,4968.0,9624.0,610.0,0.226,-0.035,-0.661,-0.715
348619,5166.0,9294.0,432.0,0.239,-0.058,-0.655,-0.715
348636,4570.0,9544.0,712.0,0.251,-0.083,-0.65,-0.713
348653,4318.0,10672.0,916.0,0.261,-0.108,-0.645,-0.71
348670,5648.0,8590.0,968.0,0.27,-0.134,-0.641,-0.706
348687,6402.0,8024.0,1280.0,0.277,-0.159,-0.636,-0.703
348704,5528.0,9122.0,1174.0,0.285,-0.183,-0.631,-0.698
348731,4354.0,8988.0,1554.0,0.291,-0.207,-0.625,-0.694
348748,5212.0,7780.0,2262.0,0.297,-0.232,-0.619,-0.689
348765,6226.0,7914.0,2874.0,0.303,-0.256,-0.613,-0.684
348782,7512.0,7406.0,2576.0,0.308,-0.279,-0.606,-0.679
348799,7328.0,6802.0,2432.0,0.313,-0.3,-0.599,-0.674
348816,7212.0,6562.0,2332.0,0.316,-0.32,-0.593,-0.669
348833,8046.0,7252.0,2386.0,0.318,-0.34,-0.585,-0.664
348850,7140.0,6998.0,1608.0,0.319,-0.361,-0.578,-0.659
348867,7068.0,4808.0,1132.0,0.318,-0.382,-0.569,-0.655
348884,7724.0,4472.0,1718.0,0.317,-0.404,-0.561,-0.65
348901,8344.0,5188.0,2304.0,0.318,-0.425,-0.552,-0.643
348918,8554.0,4632.0,2236.0,0.319,-0.444,-0.544,-0.637
348935,8574.0,5862.0,2822.0,0.321,-0.46,-0.536,-0.63
348952,9080.0,7090.0,4250.0,0.324,-0.472,-0.531,-0.625
348979,8720.0,8072.0,5530.0,0.326,-0.477,-0.527,-0.623
348996,8398.0,7928.0,5074.0,0.331,-0.474,-0.528,-0.622
349013,6362.0,9834.0,3822.0,0.334,-0.466,-0.532,-0.623
349030,6390.0,10298.0,3050.0,0.333,-0.457,-0.535,-0.627
349047,6466.0,9066.0,2816.0,0.33,-0.447,-0.539,-0.634
349063,6032.0,7096.0,2210.0,0.326,-0.434,-0.543,-0.641
349079,5080.0,6220.0,2138.0,0.324,-0.418,-0.55,-0.647
349095,4832.0,5348.0,1808.0,0.324,-0.401,-0.558,-0.651
349112,5264.0,6412.0,1136.0,0.324,-0.383,-0.567,-0.654
349129,4578.0,8176.0,684.0,0.321,-0.366,-0.575,-0.658
349156,4976.0,6850.0,1790.0,0.316,-0.348,-0.584,-0.662
349172,5444.0,6962.0,2752.0,0.312,-0.33,-0.594,-0.664
349188,6658.0,5720.0,3582.0,0.308,-0.309,-0.605,-0.666
349204,6666.0,7820.0,4044.0,0.305,-0.286,-0.617,-0.667
349220,5524.0,9492.0,3046.0,0.3,-0.262,-0.627,-0.67
349236,5638.0,7860.0,3000.0,0.292,-0.24,-0.633,-0.676
349262,6638.0,6596.0,4252.0,0.284,-0.22,-0.638,-0.681
349278,7244.0,8622.0,4030.0,0.276,-0.199,-0.645,-0.685
349294,8826.0,8984.0,2960.0,0.267,-0.179,-0.647,-0.691
349310,9970.0,6526.0,2768.0,0.257,-0.158,-0.646,-0.702
349327,7854.0,6794.0,2218.0,0.247,-0.136,-0.645,-0.71
349343,6438.0,8604.0,956.0,0.237,-0.115,-0.646,-0.717
349359,6282.0,6910.0,392.0,0.228,-0.095,-0.645,-0.723
349386,6052.0,7204.0,-18.0,0.219,-0.077,-0.646,-0.728
349403,4916.0,5318.0,-396.0,0.209,-0.058,-0.647,-0.731
349420,3802.0,5938.0,22.0,0.2,-0.04,-0.649,-0.733
349436,2692.0,5382.0,496.0,0.193,-0.022,-0.656,-0.729
349453,3620.0,5810.0,438.0,0.187,-0.005,-0.665,-0.723
349470,2434.0,6624.0,264.0,0.18,0.014,-0.676,-0.714
349487,1240.0,7870.0,308.0,0.175,0.031,-0.688,-0.704
349503,630.0,9428.0,304.0,0.168,0.047,-0.697,-0.695
349520,388.0,10264.0,178.0,0.159,0.061,-0.704,-0.69
349537,236.0,9898.0,470.0,0.149,0.073,-0.706,-0.688
349554,-28.0,9084.0,312.0,0.138,0.085,-0.706,-0.69
349580,-88.0,8954.0,368.0,0.127,0.096,-0.703,-0.693
349597,436.0,7288.0,258.0,0.115,0.107,-0.701,-0.696
349614,-542.0,6960.0,-338.0,0.104,0.119,-0.698,-0.699
349630,-1166.0,6840.0,-668.0,0.093,0.129,-0.694,-0.702
349647,-1170.0,5578.0,-550.0,0.083,0.138,-0.691,-0.705
349664,-968.0,4398.0,-172.0,0.073,0.145,-0.689,-0.706
349681,-1084.0,3856.0,128.0,0.063,0.152,-0.69,-0.705
349698,-1426.0,4644.0,466.0,0.053,0.158,-0.693,-0.701
349714,-1786.0,5782.0,690.0,0.045,0.164,-0.699,-0.695
349732,-1780.0,7098.0,696.0,0.037,0.169,-0.704,-0.689
349749,-1358.0,7234.0,770.0,0.029,0.174,-0.708,-0.684
349766,-1280.0,6898.0,676.0,0.022,0.179,-0.71,-0.681
349793,-1794.0,5696.0,180.0,0.016,0.186,-0.709,-0.68
349810,-2100.0,2860.0,-506.0,0.011,0.192,-0.707,-0.681
349827,-2092.0,686.0,-1404.0,0.009,0.197,-0.704,-0.683
349844,-2782.0,-2534.0,-1724.0,0.01,0.197,-0.701,-0.685
349861,-1444.0,-4290.0,-2260.0,0.013,0.192,-0.702,-0.685
349878,-710.0,-4350.0,-1958.0,0.019,0.184,-0.707,-0.682
349894,-662.0,-1828.0,-1146.0,0.029,0.17,-0.715,-0.677
349910,-112.0,1404.0,44.0,0.044,0.151,-0.725,-0.67
349926,1008.0,5398.0,1346.0,0.063,0.13,-0.736,-0.662
349952,2586.0,7814.0,1774.0,0.084,0.11,-0.744,-0.654
349969,2756.0,11794.0,1894.0,0.105,0.092,-0.748,-0.649
349986,2482.0,12742.0,1886.0,0.127,0.074,-0.744,-0.651
350003,2456.0,10968.0,1370.0,0.148,0.055,-0.736,-0.659
350020,2500.0,10182.0,824.0,0.167,0.034,-0.724,-0.668
350037,3052.0,9442.0,-114.0,0.184,0.013,-0.712,-0.677
350053,3412.0,9742.0,-1044.0,0.2,-0.008,-0.702,-0.684
350070,3048.0,8998.0,-1736.0,0.213,-0.031,-0.692,-0.689
350087,3780.0,8792.0,-1426.0,0.225,-0.056,-0.683,-0.693
350113,4156.0,6836.0,-1126.0,0.236,-0.081,-0.676,-0.693
350130,5128.0,7236.0,-486.0,0.247,-0.107,-0.671,-0.691
350147,5234.0,8408.0,198.0,0.258,-0.132,-0.666,-0.687
350163,5412.0,8076.0,946.0,0.267,-0.157,-0.66,-0.684
350179,5926.0,8142.0,1832.0,0.277,-0.18,-0.654,-0.681
350195,5924.0,8066.0,2250.0,0.286,-0.204,-0.647,-0.677
350212,6826.0,6952.0,2442.0,0.295,-0.226,-0.639,-0.673
350229,6526.0,7754.0,2406.0,0.304,-0.248,-0.631,-0.669
350255,5492.0,8734.0,2036.0,0.31,-0.271,-0.622,-0.666
350271,6632.0,7658.0,2280.0,0.315,-0.296,-0.609,-0.665
350287,7836.0,4660.0,2582.0,0.318,-0.321,-0.597,-0.663
350303,7804.0,6266.0,2090.0,0.322,-0.346,-0.584,-0.66
350320,7794.0,7908.0,1422.0,0.323,-0.372,-0.57,-0.657
350336,8820.0,4560.0,1996.0,0.322,-0.399,-0.555,-0.654
350353,9404.0,4292.0,2694.0,0.325,-0.423,-0.543,-0.648
350370,10374.0,5086.0,3730.0,0.33,-0.443,-0.533,-0.641
350386,8814.0,5160.0,3382.0,0.337,-0.456,-0.526,-0.633
350413,7268.0,6944.0,3158.0,0.344,-0.466,-0.521,-0.627
350429,5884.0,9184.0,3672.0,0.349,-0.472,-0.518,-0.622
350446,5820.0,10134.0,3608.0,0.351,-0.477,-0.515,-0.62
350463,6428.0,7668.0,3328.0,0.352,-0.477,-0.512,-0.621
350480,6062.0,6708.0,2538.0,0.353,-0.473,-0.513,-0.623
350496,5096.0,9268.0,1284.0,0.353,-0.467,-0.515,-0.626
350512,5748.0,8362.0,1884.0,0.35,-0.461,-0.519,-0.629
350528,6758.0,7876.0,2338.0,0.347,-0.451,-0.524,-0.633
350545,6770.0,6516.0,2388.0,0.345,-0.439,-0.53,-0.638
350572,6986.0,6916.0,2182.0,0.341,-0.424,-0.538,-0.644
350588,6668.0,7282.0,2264.0,0.336,-0.408,-0.546,-0.65
350604,7384.0,7548.0,3412.0,0.331,-0.39,-0.556,-0.655
350620,8862.0,6532.0,3128.0,0.326,-0.37,-0.565,-0.661
350636,7680.0,5110.0,2840.0,0.32,-0.348,-0.575,-0.668
350653,7026.0,7462.0,3282.0,0.314,-0.326,-0.585,-0.674
350670,6632.0,8112.0,3760.0,0.307,-0.304,-0.593,-0.679
350696,8466.0,6698.0,3796.0,0.298,-0.283,-0.6,-0.686
350713,7906.0,5040.0,3222.0,0.289,-0.261,-0.605,-0.695
350729,6648.0,5286.0,3390.0,0.28,-0.237,-0.61,-0.703
350746,5734.0,7150.0,3270.0,0.272,-0.213,-0.614,-0.71
350763,5984.0,7026.0,2858.0,0.265,-0.191,-0.617,-0.716
350779,8002.0,6312.0,2982.0,0.259,-0.17,-0.619,-0.721
350796,7840.0,6820.0,2078.0,0.251,-0.149,-0.621,-0.728
350813,6582.0,5498.0,1670.0,0.243,-0.126,-0.621,-0.735
350829,4368.0,6816.0,2322.0,0.236,-0.105,-0.622,-0.739
350856,4060.0,8340.0,1902.0,0.23,-0.085,-0.623,-0.743
350872,5288.0,7578.0,2076.0,0.225,-0.068,-0.622,-0.747
350888,6266.0,5302.0,2510.0,0.221,-0.05,-0.621,-0.75
350904,4384.0,6280.0,2166.0,0.219,-0.03,-0.622,-0.752
350920,1972.0,7506.0,1840.0,0.216,-0.011,-0.623,-0.752
350936,1484.0,7318.0,1494.0,0.213,0.006,-0.622,-0.753
350953,720.0,7144.0,1510.0,0.209,0.021,-0.621,-0.755
350979,380.0,8526.0,1742.0,0.204,0.034,-0.62,-0.757
350995,1758.0,8264.0,1576.0,0.2,0.046,-0.617,-0.76
351011,1434.0,7882.0,1180.0,0.195,0.058,-0.613,-0.763
351028,558.0,7702.0,818.0,0.189,0.071,-0.61,-0.767
351045,-412.0,7520.0,604.0,0.183,0.083,-0.606,-0.77
351062,-436.0,7132.0,296.0,0.178,0.093,-0.602,-0.773
351078,-570.0,6926.0,182.0,0.171,0.102,-0.599,-0.776
351094,-276.0,5724.0,214.0,0.164,0.11,-0.597,-0.778
351121,-282.0,5074.0,384.0,0.156,0.118,-0.596,-0.778
351138,-972.0,4804.0,840.0,0.149,0.125,-0.598,-0.777
351154,-1264.0,5916.0,1284.0,0.143,0.132,-0.602,-0.775
351171,-1070.0,6308.0,1600.0,0.136,0.138,-0.606,-0.771
351187,-614.0,6468.0,2268.0,0.13,0.144,-0.611,-0.768
351203,-1134.0,7470.0,2622.0,0.124,0.149,-0.615,-0.764
351219,-990.0,8666.0,2786.0,0.118,0.155,-0.618,-0.761
351245,-1034.0,8738.0,2814.0,0.112,0.161,-0.62,-0.76
351262,-980.0,8346.0,2626.0,0.107,0.167,-0.62,-0.759
351279,-1520.0,7884.0,2270.0,0.101,0.173,-0.619,-0.76
351296,-2204.0,7256.0,2008.0,0.097,0.177,-0.617,-0.76
351313,-2312.0,6094.0,1348.0,0.094,0.178,-0.616,-0.761
351330,-1476.0,4172.0,516.0,0.093,0.177,-0.615,-0.763
351347,-936.0,2124.0,-40.0,0.091,0.176,-0.613,-0.765
351364,-1282.0,-430.0,-610.0,0.091,0.175,-0.612,-0.766
351381,-2774.0,-1186.0,42.0,0.092,0.173,-0.612,-0.767
351398,-3268.0,-1428.0,1010.0,0.096,0.166,-0.614,-0.766
351415,-2216.0,-732.0,966.0,0.105,0.154,-0.619,-0.763
351432,-836.0,1424.0,828.0,0.117,0.14,-0.626,-0.758
351449,-588.0,4096.0,1210.0,0.13,0.124,-0.631,-0.755
351466,354.0,6234.0,1754.0,0.144,0.107,-0.633,-0.753
351493,922.0,6316.0,1662.0,0.159,0.09,-0.633,-0.753
351509,1116.0,8162.0,2462.0,0.173,0.073,-0.631,-0.753
351525,1192.0,7272.0,2260.0,0.186,0.055,-0.629,-0.753
351541,1940.0,5722.0,1560.0,0.195,0.037,-0.629,-0.752
351557,4082.0,7840.0,876.0,0.204,0.019,-0.633,-0.747
351573,3214.0,12412.0,484.0,0.217,-0.002,-0.633,-0.743
351599,4874.0,9476.0,630.0,0.227,-0.026,-0.628,-0.744
351616,5092.0,5664.0,1570.0,0.237,-0.048,-0.624,-0.743
351633,4726.0,6756.0,2286.0,0.246,-0.07,-0.622,-0.74
351650,4700.0,8610.0,2396.0,0.256,-0.091,-0.623,-0.734
351666,5578.0,9060.0,2652.0,0.266,-0.114,-0.622,-0.727
351682,5686.0,9106.0,3302.0,0.276,-0.135,-0.62,-0.722
351698,5542.0,8602.0,3500.0,0.286,-0.155,-0.617,-0.717
351714,4940.0,7374.0,3094.0,0.295,-0.175,-0.614,-0.711
351740,4944.0,7602.0,3066.0,0.303,-0.191,-0.612,-0.705
351756,4906.0,10154.0,2564.0,0.311,-0.209,-0.61,-0.698
351772,6396.0,8522.0,3086.0,0.318,-0.228,-0.606,-0.692
351788,7560.0,8622.0,2606.0,0.326,-0.245,-0.601,-0.687
351804,6356.0,8614.0,2190.0,0.331,-0.261,-0.596,-0.684
351820,6420.0,7562.0,1956.0,0.335,-0.277,-0.59,-0.68
351846,6084.0,7246.0,2038.0,0.338,-0.294,-0.585,-0.676
351863,6686.0,6042.0,1894.0,0.342,-0.31,-0.58,-0.671
351880,6538.0,6878.0,1852.0,0.344,-0.325,-0.575,-0.667
351897,6282.0,6284.0,1682.0,0.345,-0.342,-0.568,-0.665
351914,6046.0,4484.0,1716.0,0.345,-0.358,-0.561,-0.662
351931,7298.0,3748.0,2446.0,0.346,-0.376,-0.554,-0.657
351947,7986.0,3772.0,2860.0,0.349,-0.393,-0.547,-0.652
351964,7612.0,4594.0,2266.0,0.352,-0.409,-0.539,-0.647
351981,7600.0,3786.0,2448.0,0.353,-0.426,-0.529,-0.643
351999,9186.0,3308.0,3524.0,0.356,-0.442,-0.521,-0.638
352016,8832.0,4108.0,2884.0,0.36,-0.454,-0.514,-0.633
352033,7622.0,5786.0,2082.0,0.363,-0.464,-0.507,-0.629
352050,7696.0,5994.0,2474.0,0.364,-0.474,-0.5,-0.627
352077,8040.0,6580.0,3246.0,0.365,-0.479,-0.496,-0.625
352093,7858.0,7014.0,2696.0,0.368,-0.479,-0.495,-0.625
352109,6464.0,7024.0,1484.0,0.368,-0.475,-0.496,-0.627
352125,5548.0,7782.0,1186.0,0.366,-0.47,-0.499,-0.629
352142,6136.0,6578.0,2322.0,0.365,-0.465,-0.502,-0.631
352158,6272.0,7156.0,2944.0,0.365,-0.457,-0.507,-0.632
352174,6406.0,7210.0,3064.0,0.365,-0.447,-0.513,-0.635
352200,6470.0,6452.0,2978.0,0.363,-0.434,-0.52,-0.64
352217,6714.0,6544.0,2894.0,0.358,-0.422,-0.526,-0.646
352234,7082.0,6786.0,3820.0,0.352,-0.408,-0.533,-0.653
352251,7644.0,7452.0,4418.0,0.346,-0.392,-0.54,-0.659
352268,8960.0,4804.0,3364.0,0.34,-0.375,-0.546,-0.668
352285,7034.0,4676.0,3298.0,0.332,-0.355,-0.553,-0.676
352302,6198.0,6960.0,3846.0,0.326,-0.336,-0.56,-0.683
352319,6414.0,8282.0,3268.0,0.319,-0.316,-0.567,-0.69
352336,8224.0,7766.0,3062.0,0.31,-0.298,-0.572,-0.698
352352,9364.0,5616.0,2382.0,0.3,-0.279,-0.576,-0.708
352369,7640.0,4600.0,2692.0,0.289,-0.257,-0.582,-0.716
352396,6016.0,6640.0,2430.0,0.281,-0.233,-0.589,-0.72
352413,4864.0,8432.0,1942.0,0.274,-0.212,-0.597,-0.724
352429,6904.0,8430.0,1602.0,0.264,-0.193,-0.602,-0.729
352445,6546.0,6718.0,1442.0,0.253,-0.173,-0.607,-0.734
352461,5462.0,5010.0,1828.0,0.242,-0.153,-0.611,-0.738
352478,5336.0,7118.0,1746.0,0.232,-0.131,-0.618,-0.74
352495,3750.0,7788.0,1840.0,0.222,-0.109,-0.626,-0.74
352512,4914.0,8002.0,1158.0,0.212,-0.09,-0.631,-0.741
352528,3694.0,5974.0,1256.0,0.2,-0.07,-0.635,-0.742
352554,2492.0,5512.0,1798.0,0.19,-0.049,-0.641,-0.742
352570,980.0,7108.0,1538.0,0.18,-0.031,-0.648,-0.739
352586,1720.0,8374.0,1986.0,0.171,-0.015,-0.653,-0.738
352602,2694.0,8424.0,2098.0,0.162,-0.001,-0.657,-0.736
352619,4292.0,8548.0,2330.0,0.153,0.012,-0.66,-0.736
352635,3676.0,7338.0,2238.0,0.143,0.027,-0.661,-0.736
352652,1834.0,8652.0,1770.0,0.132,0.043,-0.663,-0.736
352679,786.0,8986.0,1328.0,0.122,0.058,-0.663,-0.736
352696,792.0,8284.0,1122.0,0.113,0.071,-0.664,-0.736
352712,1178.0,8312.0,876.0,0.103,0.083,-0.664,-0.736
352728,1354.0,8694.0,694.0,0.093,0.094,-0.664,-0.736
352744,946.0,8488.0,532.0,0.082,0.105,-0.665,-0.735
352760,144.0,8568.0,772.0,0.07,0.117,-0.666,-0.734
352776,-578.0,8502.0,778.0,0.058,0.128,-0.667,-0.732
352803,-1414.0,8044.0,652.0,0.046,0.14,-0.669,-0.729
352819,-1876.0,7618.0,692.0,0.033,0.151,-0.67,-0.726
352835,-2516.0,7322.0,710.0,0.02,0.163,-0.672,-0.722
352852,-2940.0,6934.0,676.0,0.006,0.176,-0.673,-0.718
352869,-3872.0,5614.0,772.0,0.007,-0.188,0.674,0.714
352885,-4450.0,4298.0,988.0,0.021,-0.199,0.674,0.711
352901,-5006.0,2670.0,1028.0,0.034,-0.209,0.674,0.708
352917,-5742.0,1376.0,1014.0,0.047,-0.219,0.673,0.705
352943,-6302.0,360.0,912.0,0.058,-0.227,0.672,0.703
352960,-6792.0,330.0,604.0,0.067,-0.233,0.671,0.701
352976,-6602.0,1036.0,516.0,0.073,-0.237,0.669,0.7
352992,-5084.0,1792.0,738.0,0.077,-0.239,0.669,0.7
