timeMs,ax,ay,az,q0,q1,q2,q3
1261028,9390.0,2744.0,-934.0,0.332,-0.504,-0.543,-0.583
1261055,9300.0,2498.0,-1242.0,0.333,-0.507,-0.54,-0.584
1261071,9098.0,2668.0,-1074.0,0.334,-0.508,-0.538,-0.584
1261087,8958.0,2650.0,-1056.0,0.334,-0.509,-0.536,-0.585
1261103,8920.0,2756.0,-1280.0,0.335,-0.51,-0.534,-0.585
1261119,8698.0,2668.0,-1440.0,0.336,-0.509,-0.533,-0.587
1261136,8466.0,2866.0,-1174.0,0.336,-0.508,-0.533,-0.588
1261152,8272.0,2968.0,-1164.0,0.336,-0.507,-0.532,-0.59
1261178,8320.0,2936.0,-1132.0,0.335,-0.506,-0.531,-0.591
1261195,8614.0,3192.0,-1344.0,0.334,-0.505,-0.531,-0.593
1261211,8770.0,3454.0,-1240.0,0.333,-0.504,-0.531,-0.595
1261228,8786.0,3282.0,-1182.0,0.33,-0.503,-0.531,-0.596
1261244,8646.0,3240.0,-1108.0,0.328,-0.501,-0.533,-0.598
1261260,8314.0,3112.0,-1162.0,0.325,-0.5,-0.534,-0.599
1261276,7774.0,3194.0,-1076.0,0.323,-0.498,-0.536,-0.6
1261303,7198.0,3040.0,-970.0,0.321,-0.496,-0.538,-0.601
1261320,6698.0,3018.0,-1012.0,0.32,-0.494,-0.54,-0.601
1261337,6308.0,3114.0,-990.0,0.319,-0.494,-0.542,-0.601
1261353,6272.0,3076.0,-1184.0,0.318,-0.494,-0.542,-0.601
1261370,6474.0,3594.0,-1964.0,0.318,-0.494,-0.543,-0.6
1261386,6566.0,3218.0,-1462.0,0.317,-0.494,-0.542,-0.601
1261403,6728.0,3942.0,-1122.0,0.316,-0.494,-0.542,-0.602
1261419,7864.0,4442.0,-1636.0,0.315,-0.493,-0.542,-0.603
1261436,8224.0,4278.0,-1898.0,0.314,-0.491,-0.544,-0.604
1261462,8548.0,5216.0,-1344.0,0.312,-0.488,-0.546,-0.605
1261478,9346.0,5364.0,-1674.0,0.309,-0.484,-0.549,-0.608
1261494,9594.0,6052.0,-1730.0,0.304,-0.479,-0.553,-0.61
1261510,9446.0,6416.0,-1508.0,0.298,-0.473,-0.558,-0.613
1261526,9238.0,6646.0,-1660.0,0.292,-0.467,-0.563,-0.616
1261543,8820.0,6688.0,-1510.0,0.286,-0.46,-0.57,-0.618
1261560,7950.0,7212.0,-1384.0,0.279,-0.452,-0.577,-0.621
1261577,6832.0,7050.0,-1082.0,0.272,-0.444,-0.584,-0.623
1261604,6538.0,6938.0,-1214.0,0.264,-0.437,-0.592,-0.624
1261621,6192.0,7322.0,-1672.0,0.255,-0.429,-0.6,-0.625
1261638,6032.0,7098.0,-1692.0,0.247,-0.42,-0.609,-0.626
1261654,5456.0,6828.0,-1428.0,0.238,-0.411,-0.618,-0.627
1261671,5204.0,6582.0,-1330.0,0.229,-0.401,-0.627,-0.627
1261688,5134.0,7208.0,-760.0,0.22,-0.392,-0.636,-0.627
1261705,4542.0,6386.0,-844.0,0.209,-0.382,-0.645,-0.628
1261722,4542.0,6400.0,-864.0,0.199,-0.372,-0.654,-0.628
1261739,4202.0,6770.0,-1252.0,0.189,-0.361,-0.663,-0.628
1261756,3424.0,6110.0,-460.0,0.179,-0.351,-0.671,-0.628
1261773,3524.0,5980.0,-540.0,0.169,-0.34,-0.68,-0.627
1261790,3188.0,6394.0,-642.0,0.159,-0.329,-0.688,-0.627
1261807,2934.0,6768.0,-814.0,0.149,-0.318,-0.696,-0.627
1261833,2916.0,6128.0,-916.0,0.139,-0.308,-0.703,-0.626
1261850,2712.0,6646.0,-1256.0,0.129,-0.297,-0.71,-0.626
1261866,2514.0,6600.0,-1326.0,0.12,-0.286,-0.715,-0.627
1261882,2540.0,6428.0,-906.0,0.112,-0.276,-0.718,-0.629
1261898,1754.0,5542.0,-198.0,0.104,-0.267,-0.72,-0.632
1261914,1772.0,5458.0,-502.0,0.097,-0.259,-0.722,-0.634
1261931,1450.0,5534.0,-586.0,0.091,-0.251,-0.723,-0.637
1261958,1330.0,5086.0,-300.0,0.085,-0.244,-0.724,-0.639
1261975,2026.0,4226.0,-678.0,0.08,-0.239,-0.726,-0.64
1261992,2190.0,5662.0,-1540.0,0.077,-0.233,-0.726,-0.642
1262009,2056.0,5960.0,-1320.0,0.075,-0.227,-0.724,-0.647
1262025,2152.0,4308.0,114.0,0.075,-0.222,-0.723,-0.65
1262041,1670.0,4610.0,-42.0,0.076,-0.217,-0.723,-0.652
1262058,1962.0,4272.0,-796.0,0.08,-0.213,-0.724,-0.652
1262075,2164.0,5994.0,-1366.0,0.084,-0.21,-0.724,-0.651
1262092,1970.0,5124.0,-1338.0,0.088,-0.209,-0.724,-0.652
1262109,2932.0,5660.0,-970.0,0.094,-0.209,-0.723,-0.652
1262135,3576.0,5418.0,-1558.0,0.101,-0.209,-0.721,-0.653
1262151,3886.0,6824.0,-2150.0,0.11,-0.209,-0.718,-0.655
1262167,4086.0,5444.0,-1284.0,0.117,-0.211,-0.713,-0.658
1262184,4318.0,5404.0,-1562.0,0.125,-0.213,-0.708,-0.661
1262201,4684.0,5330.0,-1536.0,0.133,-0.215,-0.704,-0.664
1262218,4716.0,5438.0,-1344.0,0.142,-0.217,-0.699,-0.667
1262235,5184.0,5488.0,-1404.0,0.15,-0.22,-0.694,-0.669
1262252,5152.0,5568.0,-1172.0,0.158,-0.223,-0.691,-0.67
1262269,5350.0,5714.0,-1254.0,0.166,-0.226,-0.688,-0.67
1262286,5352.0,5328.0,-1366.0,0.173,-0.228,-0.686,-0.669
1262303,7088.0,6488.0,-854.0,0.18,-0.23,-0.684,-0.669
1262320,1172.0,7654.0,-2790.0,0.189,-0.235,-0.685,-0.664
1262347,6450.0,1022.0,-1098.0,0.196,-0.237,-0.685,-0.661
1262364,5324.0,9290.0,-2532.0,0.201,-0.238,-0.686,-0.657
1262381,12076.0,20378.0,-5706.0,0.199,-0.237,-0.689,-0.656
1262397,3330.0,-3818.0,32.0,0.197,-0.238,-0.684,-0.661
1262414,3610.0,13918.0,-5186.0,0.196,-0.235,-0.684,-0.662
1262431,4826.0,5310.0,-400.0,0.197,-0.236,-0.677,-0.669
1262447,3346.0,4240.0,-710.0,0.2,-0.235,-0.67,-0.675
1262464,5144.0,6322.0,-1026.0,0.202,-0.235,-0.665,-0.68
1262480,4124.0,7468.0,-898.0,0.205,-0.234,-0.657,-0.687
1262506,4238.0,8866.0,-38.0,0.208,-0.234,-0.649,-0.693
1262523,3404.0,8632.0,444.0,0.21,-0.236,-0.641,-0.7
1262540,3758.0,6548.0,1030.0,0.212,-0.239,-0.633,-0.705
1262557,3864.0,5552.0,-36.0,0.214,-0.241,-0.627,-0.709
1262574,4522.0,6976.0,4.0,0.217,-0.243,-0.623,-0.711
1262590,4892.0,6554.0,136.0,0.22,-0.244,-0.618,-0.714
1262606,4682.0,7058.0,1170.0,0.223,-0.246,-0.612,-0.718
1262623,4520.0,6662.0,756.0,0.226,-0.248,-0.606,-0.721
1262639,4380.0,5890.0,1174.0,0.229,-0.25,-0.601,-0.724
1262656,4554.0,6122.0,1086.0,0.232,-0.252,-0.598,-0.724
1262682,4964.0,6650.0,728.0,0.236,-0.253,-0.596,-0.724
1262702,5154.0,6846.0,490.0,0.239,-0.255,-0.594,-0.725
1262718,5284.0,6624.0,532.0,0.241,-0.256,-0.592,-0.725
1262734,5234.0,6250.0,708.0,0.244,-0.256,-0.589,-0.727
1262750,4918.0,6324.0,836.0,0.246,-0.256,-0.586,-0.728
1262767,4884.0,5960.0,1220.0,0.249,-0.256,-0.583,-0.73
1262783,4828.0,6134.0,1296.0,0.251,-0.256,-0.581,-0.731
1262799,4796.0,6374.0,1318.0,0.252,-0.256,-0.579,-0.732
1262825,4730.0,6522.0,1344.0,0.254,-0.257,-0.577,-0.732
1262841,4870.0,5972.0,1418.0,0.255,-0.258,-0.576,-0.733
1262857,5070.0,6412.0,1086.0,0.256,-0.259,-0.575,-0.733
1262874,5234.0,6438.0,970.0,0.257,-0.26,-0.574,-0.733
1262891,5290.0,6356.0,980.0,0.259,-0.261,-0.571,-0.734
1262908,5420.0,6140.0,952.0,0.26,-0.262,-0.569,-0.735
1262925,5298.0,6042.0,1036.0,0.262,-0.262,-0.566,-0.736
1262942,5172.0,5926.0,1218.0,0.263,-0.262,-0.564,-0.737
1262959,5036.0,5652.0,1344.0,0.264,-0.262,-0.562,-0.739
1262976,5018.0,5998.0,1376.0,0.265,-0.261,-0.561,-0.74
1262993,5192.0,6088.0,1468.0,0.265,-0.261,-0.559,-0.741
1263019,5216.0,6168.0,1550.0,0.266,-0.26,-0.557,-0.742
1263035,5222.0,6124.0,1570.0,0.267,-0.259,-0.556,-0.743
1263051,5244.0,6184.0,1508.0,0.269,-0.259,-0.554,-0.744
1263068,5168.0,6180.0,1586.0,0.27,-0.258,-0.552,-0.746
1263085,5206.0,6018.0,1784.0,0.272,-0.257,-0.55,-0.747
1263102,5224.0,5842.0,1812.0,0.274,-0.256,-0.548,-0.748
1263119,5214.0,5704.0,1868.0,0.276,-0.255,-0.546,-0.749
1263135,5178.0,5516.0,1954.0,0.278,-0.254,-0.546,-0.749
1263161,5318.0,5926.0,1696.0,0.279,-0.252,-0.546,-0.748
1263178,5298.0,6024.0,1632.0,0.281,-0.251,-0.546,-0.748
1263195,5208.0,5946.0,1664.0,0.283,-0.249,-0.546,-0.748
1263212,5288.0,5960.0,1598.0,0.285,-0.248,-0.545,-0.749
1263229,5286.0,5890.0,1752.0,0.287,-0.246,-0.544,-0.749
1263246,5278.0,6416.0,1660.0,0.289,-0.243,-0.543,-0.75
1263262,5230.0,5978.0,1846.0,0.29,-0.241,-0.542,-0.751
1263279,5170.0,5896.0,1944.0,0.292,-0.239,-0.54,-0.752
1263296,5172.0,5920.0,2064.0,0.294,-0.237,-0.539,-0.753
1263313,5170.0,6044.0,2038.0,0.296,-0.235,-0.537,-0.754
1263330,5156.0,6078.0,2126.0,0.298,-0.233,-0.535,-0.755
1263356,5056.0,6130.0,2140.0,0.301,-0.231,-0.533,-0.757
1263373,5054.0,6066.0,2206.0,0.303,-0.229,-0.531,-0.758
1263390,5082.0,6028.0,2230.0,0.305,-0.228,-0.528,-0.759
1263407,5096.0,5934.0,2302.0,0.308,-0.226,-0.526,-0.76
1263424,5010.0,5786.0,2428.0,0.31,-0.226,-0.523,-0.761
1263441,5062.0,5604.0,2456.0,0.312,-0.225,-0.521,-0.762
1263458,5118.0,5402.0,2574.0,0.315,-0.224,-0.52,-0.762
1263475,5110.0,5574.0,2542.0,0.317,-0.224,-0.519,-0.762
1263492,5230.0,5524.0,2464.0,0.319,-0.223,-0.519,-0.761
1263509,5158.0,5492.0,2604.0,0.321,-0.222,-0.519,-0.761
1263526,5228.0,5858.0,2358.0,0.323,-0.221,-0.519,-0.76
1263543,5178.0,5936.0,2470.0,0.325,-0.22,-0.519,-0.759
1263560,5116.0,6048.0,2356.0,0.328,-0.219,-0.518,-0.759
1263586,5190.0,5804.0,2514.0,0.33,-0.219,-0.517,-0.759
1263602,5174.0,5708.0,2626.0,0.332,-0.219,-0.516,-0.759
1263618,5232.0,5826.0,2528.0,0.334,-0.218,-0.515,-0.759
1263635,5248.0,5786.0,2576.0,0.336,-0.218,-0.514,-0.759
1263651,5270.0,5858.0,2616.0,0.338,-0.218,-0.512,-0.759
1263667,5218.0,5468.0,2680.0,0.34,-0.219,-0.51,-0.759
1263684,5408.0,5690.0,2630.0,0.342,-0.219,-0.509,-0.759
1263701,5430.0,5862.0,2554.0,0.344,-0.22,-0.508,-0.759
1263728,5394.0,5468.0,2694.0,0.346,-0.22,-0.506,-0.759
1263745,5394.0,5558.0,2688.0,0.348,-0.221,-0.504,-0.759
1263762,5484.0,5520.0,2612.0,0.35,-0.221,-0.502,-0.759
1263779,5522.0,5520.0,2700.0,0.352,-0.222,-0.5,-0.76
1263796,5502.0,5476.0,2664.0,0.354,-0.223,-0.497,-0.761
1263812,5414.0,5172.0,2898.0,0.355,-0.223,-0.494,-0.761
1263828,5472.0,5408.0,2916.0,0.357,-0.223,-0.492,-0.762
1263844,5628.0,5310.0,2912.0,0.358,-0.224,-0.489,-0.763
1263861,5512.0,5172.0,3006.0,0.359,-0.224,-0.486,-0.764
1263887,5360.0,5122.0,2860.0,0.36,-0.225,-0.483,-0.766
1263904,5310.0,4896.0,3214.0,0.361,-0.225,-0.48,-0.767
1263921,5338.0,5008.0,3368.0,0.362,-0.226,-0.478,-0.768
1263938,5420.0,5102.0,3300.0,0.363,-0.226,-0.477,-0.768
1263954,5530.0,5092.0,3268.0,0.363,-0.227,-0.476,-0.768
1263970,5534.0,5112.0,3186.0,0.364,-0.228,-0.475,-0.768
1263986,5516.0,4950.0,3234.0,0.364,-0.229,-0.473,-0.769
1264002,5508.0,4972.0,3318.0,0.364,-0.229,-0.473,-0.769
1264028,5470.0,4934.0,3380.0,0.364,-0.23,-0.472,-0.769
1264045,5568.0,5034.0,3292.0,0.364,-0.23,-0.472,-0.77
1264062,5514.0,4862.0,3234.0,0.363,-0.231,-0.472,-0.77
1264079,5334.0,4922.0,3346.0,0.362,-0.231,-0.472,-0.77
1264095,5482.0,5108.0,3218.0,0.361,-0.232,-0.473,-0.769
1264112,5674.0,5262.0,3032.0,0.36,-0.233,-0.474,-0.769
1264129,5648.0,5084.0,3076.0,0.36,-0.234,-0.474,-0.769
1264145,5648.0,5068.0,3090.0,0.359,-0.234,-0.474,-0.769
1264162,5646.0,5154.0,3156.0,0.359,-0.234,-0.473,-0.77
1264179,5576.0,4922.0,3298.0,0.358,-0.234,-0.473,-0.77
1264205,5428.0,4940.0,3332.0,0.358,-0.234,-0.473,-0.77
1264221,5500.0,5124.0,3266.0,0.358,-0.234,-0.473,-0.77
1264237,5540.0,5136.0,3186.0,0.358,-0.235,-0.473,-0.77
1264253,5568.0,5244.0,3148.0,0.358,-0.235,-0.472,-0.77
1264270,5562.0,5240.0,3172.0,0.358,-0.236,-0.472,-0.77
1264286,5502.0,4980.0,3342.0,0.358,-0.238,-0.471,-0.771
1264312,5534.0,4738.0,3304.0,0.357,-0.239,-0.47,-0.771
1264328,5644.0,4806.0,3220.0,0.357,-0.241,-0.47,-0.771
1264344,5620.0,4892.0,3090.0,0.356,-0.242,-0.47,-0.771
1264361,5796.0,5050.0,2990.0,0.355,-0.244,-0.47,-0.771
1264377,5596.0,4832.0,2974.0,0.354,-0.244,-0.47,-0.771
1264393,5662.0,4984.0,3102.0,0.353,-0.244,-0.47,-0.771
1264409,5602.0,4764.0,3186.0,0.352,-0.245,-0.47,-0.771
1264436,5474.0,4958.0,3332.0,0.351,-0.245,-0.471,-0.772
1264453,5498.0,4820.0,3386.0,0.349,-0.245,-0.472,-0.772
1264470,5530.0,5002.0,3222.0,0.348,-0.246,-0.473,-0.771
1264486,5642.0,5122.0,3102.0,0.347,-0.247,-0.474,-0.771
1264502,5686.0,5198.0,3006.0,0.346,-0.247,-0.475,-0.771
1264518,5686.0,5140.0,2968.0,0.345,-0.248,-0.475,-0.771
1264534,5754.0,5018.0,3046.0,0.344,-0.249,-0.476,-0.77
1264550,5630.0,4918.0,3016.0,0.344,-0.249,-0.476,-0.77
1264577,5668.0,4982.0,3114.0,0.343,-0.249,-0.477,-0.77
1264593,5762.0,5124.0,2986.0,0.343,-0.249,-0.477,-0.77
1264610,5678.0,5032.0,2958.0,0.343,-0.249,-0.478,-0.77
1264627,5698.0,5162.0,2952.0,0.342,-0.25,-0.478,-0.769
1264644,5624.0,5150.0,3104.0,0.342,-0.25,-0.478,-0.769
1264660,5596.0,5026.0,2964.0,0.341,-0.25,-0.478,-0.769
1264677,5600.0,5000.0,2910.0,0.341,-0.251,-0.479,-0.769
1264694,5736.0,5136.0,2942.0,0.341,-0.251,-0.479,-0.769
1264711,5718.0,4990.0,3004.0,0.34,-0.251,-0.479,-0.769
1264728,5662.0,5024.0,3044.0,0.34,-0.251,-0.48,-0.769
1264745,5654.0,5054.0,2996.0,0.339,-0.251,-0.48,-0.769
1264772,5626.0,4992.0,2950.0,0.338,-0.251,-0.481,-0.769
1264788,5648.0,5074.0,2998.0,0.337,-0.251,-0.482,-0.769
1264805,5560.0,5120.0,3060.0,0.336,-0.251,-0.482,-0.769
1264822,5578.0,5114.0,2966.0,0.335,-0.252,-0.483,-0.768
1264839,5548.0,5080.0,2920.0,0.335,-0.252,-0.484,-0.768
1264855,5630.0,5164.0,2944.0,0.334,-0.252,-0.485,-0.768
1264871,5682.0,5240.0,2852.0,0.333,-0.252,-0.486,-0.767
1264887,5652.0,5182.0,2882.0,0.333,-0.252,-0.487,-0.767
1264913,5626.0,5182.0,2912.0,0.332,-0.253,-0.488,-0.767
1264930,5550.0,5178.0,2842.0,0.331,-0.253,-0.488,-0.767
1264947,5638.0,5144.0,2826.0,0.331,-0.253,-0.489,-0.766
1264964,5714.0,5144.0,2826.0,0.33,-0.254,-0.49,-0.766
1264981,5722.0,5198.0,2818.0,0.33,-0.254,-0.49,-0.766
1264998,5704.0,5192.0,2758.0,0.329,-0.254,-0.49,-0.766
1265015,5670.0,5164.0,2804.0,0.329,-0.254,-0.491,-0.766
1265031,5600.0,5204.0,2810.0,0.328,-0.255,-0.491,-0.766
1265048,5622.0,5218.0,2880.0,0.328,-0.255,-0.491,-0.766
1265065,5626.0,5334.0,2738.0,0.327,-0.255,-0.492,-0.766
1265082,5668.0,5176.0,2766.0,0.326,-0.256,-0.492,-0.765
1265099,5638.0,5144.0,2630.0,0.326,-0.256,-0.492,-0.765
1265125,5662.0,5372.0,2706.0,0.325,-0.257,-0.493,-0.765
1265141,5638.0,5216.0,2740.0,0.325,-0.257,-0.493,-0.765
1265158,5578.0,5144.0,2744.0,0.324,-0.257,-0.493,-0.766
1265175,5614.0,5242.0,2746.0,0.323,-0.258,-0.493,-0.765
1265192,5628.0,5204.0,2758.0,0.323,-0.258,-0.493,-0.765
1265208,5686.0,5256.0,2782.0,0.322,-0.258,-0.493,-0.765
1265224,5704.0,5366.0,2698.0,0.322,-0.259,-0.493,-0.766
1265250,5650.0,5158.0,2702.0,0.322,-0.259,-0.493,-0.766
1265266,5754.0,5306.0,2702.0,0.322,-0.26,-0.493,-0.766
1265282,5682.0,5168.0,2760.0,0.321,-0.26,-0.492,-0.766
1265299,5650.0,5220.0,2768.0,0.321,-0.26,-0.492,-0.766
1265315,5696.0,5180.0,2790.0,0.321,-0.26,-0.491,-0.767
1265332,5614.0,5178.0,2768.0,0.321,-0.26,-0.491,-0.767
1265348,5598.0,5150.0,2824.0,0.321,-0.261,-0.49,-0.767
1265374,5620.0,5144.0,2796.0,0.321,-0.261,-0.49,-0.767
1265390,5624.0,5120.0,2812.0,0.32,-0.261,-0.49,-0.768
1265406,5680.0,5154.0,2798.0,0.32,-0.261,-0.49,-0.768
1265422,5652.0,5154.0,2792.0,0.319,-0.261,-0.49,-0.768
1265438,5668.0,5236.0,2790.0,0.319,-0.261,-0.49,-0.768
1265454,5638.0,5110.0,2794.0,0.319,-0.261,-0.49,-0.768
1265480,5616.0,5222.0,2812.0,0.318,-0.261,-0.49,-0.768
1265497,5640.0,5328.0,2822.0,0.318,-0.261,-0.49,-0.769
1265514,5628.0,5260.0,2848.0,0.317,-0.261,-0.49,-0.769
1265530,5594.0,5190.0,2806.0,0.317,-0.261,-0.49,-0.769
1265546,5634.0,5158.0,2754.0,0.317,-0.26,-0.49,-0.769
1265562,5638.0,5218.0,2766.0,0.316,-0.26,-0.49,-0.769
1265579,5712.0,5248.0,2768.0,0.316,-0.26,-0.49,-0.77
1265595,5658.0,5142.0,2722.0,0.316,-0.26,-0.49,-0.77
1265612,5610.0,5288.0,2690.0,0.315,-0.26,-0.49,-0.77
1265639,5652.0,5228.0,2776.0,0.315,-0.259,-0.489,-0.771
1265655,5576.0,5308.0,2812.0,0.315,-0.259,-0.489,-0.771
1265671,5550.0,5186.0,2838.0,0.315,-0.259,-0.488,-0.771
1265687,5576.0,5194.0,2854.0,0.315,-0.259,-0.488,-0.772
1265703,5612.0,5208.0,2900.0,0.315,-0.259,-0.488,-0.772
1265719,5636.0,5238.0,2918.0,0.315,-0.258,-0.487,-0.772
1265745,5690.0,5226.0,2912.0,0.315,-0.258,-0.487,-0.773
1265762,5636.0,5162.0,2868.0,0.316,-0.258,-0.486,-0.773
1265778,5584.0,5162.0,2854.0,0.316,-0.258,-0.486,-0.773
1265795,5568.0,5236.0,2886.0,0.316,-0.257,-0.485,-0.774
1265812,5658.0,5192.0,3044.0,0.317,-0.257,-0.484,-0.774
1265828,5624.0,5214.0,2954.0,0.317,-0.257,-0.484,-0.774
1265844,5504.0,5112.0,3026.0,0.317,-0.256,-0.483,-0.775
1265860,5548.0,5208.0,2984.0,0.317,-0.256,-0.483,-0.775
1265886,5480.0,5094.0,3026.0,0.317,-0.256,-0.482,-0.775
1265902,5520.0,5092.0,3104.0,0.317,-0.256,-0.482,-0.775
1265918,5586.0,5230.0,2976.0,0.318,-0.256,-0.482,-0.775
1265934,5708.0,5280.0,2894.0,0.318,-0.256,-0.482,-0.776
1265950,5704.0,5270.0,2912.0,0.318,-0.256,-0.481,-0.776
1265966,5676.0,5244.0,2954.0,0.319,-0.256,-0.479,-0.777
1265992,5562.0,5180.0,3068.0,0.319,-0.255,-0.477,-0.778
1266009,5546.0,5096.0,3068.0,0.32,-0.255,-0.476,-0.778
1266025,5640.0,5078.0,3158.0,0.321,-0.255,-0.474,-0.779
1266041,5576.0,5056.0,3156.0,0.322,-0.254,-0.473,-0.78
1266058,5586.0,4976.0,3192.0,0.323,-0.254,-0.471,-0.781
1266074,5632.0,4964.0,3166.0,0.323,-0.253,-0.47,-0.781
1266090,5664.0,4994.0,3204.0,0.324,-0.253,-0.468,-0.782
1266116,5606.0,5034.0,3222.0,0.324,-0.253,-0.467,-0.783
1266132,5580.0,5162.0,3244.0,0.325,-0.252,-0.466,-0.784
1266148,5582.0,5156.0,3318.0,0.325,-0.252,-0.464,-0.785
1266165,5584.0,5092.0,3248.0,0.326,-0.251,-0.462,-0.785
1266181,5564.0,5022.0,3354.0,0.327,-0.251,-0.46,-0.786
1266197,5530.0,4942.0,3432.0,0.328,-0.25,-0.458,-0.787
1266214,5504.0,4902.0,3432.0,0.329,-0.25,-0.456,-0.788
1266240,5572.0,4830.0,3508.0,0.33,-0.25,-0.454,-0.789
1266256,5510.0,4834.0,3526.0,0.331,-0.25,-0.452,-0.79
1266272,5478.0,4796.0,3602.0,0.332,-0.249,-0.45,-0.79
1266288,5520.0,4784.0,3656.0,0.333,-0.249,-0.449,-0.791
1266304,5552.0,4782.0,3710.0,0.333,-0.249,-0.447,-0.792
1266320,5562.0,4816.0,3614.0,0.334,-0.249,-0.446,-0.792
1266346,5566.0,4756.0,3670.0,0.335,-0.248,-0.444,-0.793
1266362,5576.0,4792.0,3662.0,0.336,-0.248,-0.443,-0.793
1266379,5526.0,4768.0,3688.0,0.336,-0.248,-0.442,-0.794
1266396,5516.0,4760.0,3738.0,0.337,-0.248,-0.44,-0.794
1266413,5610.0,4830.0,3696.0,0.338,-0.247,-0.439,-0.795
1266430,5612.0,4682.0,3708.0,0.339,-0.247,-0.437,-0.796
1266446,5654.0,4786.0,3816.0,0.34,-0.247,-0.435,-0.796
1266462,5520.0,4616.0,3838.0,0.341,-0.246,-0.434,-0.797
1266488,5602.0,4776.0,4048.0,0.342,-0.246,-0.432,-0.797
1266504,5594.0,4680.0,3894.0,0.343,-0.245,-0.431,-0.798
1266520,5548.0,4688.0,3874.0,0.344,-0.245,-0.429,-0.798
1266536,5546.0,4700.0,4000.0,0.345,-0.244,-0.428,-0.799
1266552,5394.0,4496.0,4002.0,0.346,-0.244,-0.426,-0.799
1266568,5570.0,4586.0,4040.0,0.346,-0.244,-0.425,-0.8
1266594,5500.0,4450.0,4076.0,0.347,-0.243,-0.424,-0.8
1266611,5514.0,4380.0,4164.0,0.348,-0.243,-0.423,-0.801
1266628,5444.0,4268.0,4142.0,0.348,-0.242,-0.423,-0.801
1266645,5502.0,4476.0,3992.0,0.349,-0.241,-0.423,-0.801
1266661,5422.0,4598.0,4058.0,0.349,-0.24,-0.423,-0.801
1266678,5446.0,4712.0,4078.0,0.35,-0.24,-0.422,-0.801
1266695,5530.0,4692.0,4006.0,0.35,-0.24,-0.422,-0.801
1266712,5474.0,4714.0,3978.0,0.351,-0.24,-0.421,-0.801
1266729,5556.0,4646.0,3988.0,0.352,-0.24,-0.42,-0.801
1266745,5636.0,4586.0,4214.0,0.353,-0.239,-0.419,-0.801
1266772,5596.0,4538.0,4142.0,0.355,-0.239,-0.418,-0.801
1266788,5510.0,4510.0,4152.0,0.356,-0.239,-0.416,-0.802
1266804,5542.0,4460.0,4174.0,0.358,-0.238,-0.415,-0.802
1266820,5464.0,4410.0,4232.0,0.359,-0.238,-0.414,-0.802
1266836,5416.0,4238.0,4328.0,0.36,-0.237,-0.412,-0.803
1266852,5374.0,4218.0,4320.0,0.36,-0.237,-0.412,-0.803
1266878,5372.0,4186.0,4372.0,0.36,-0.237,-0.411,-0.803
1266895,5424.0,4066.0,4312.0,0.36,-0.237,-0.411,-0.803
1266912,5402.0,4322.0,4330.0,0.36,-0.237,-0.412,-0.803
1266929,5462.0,4310.0,4312.0,0.359,-0.237,-0.412,-0.803
1266946,5460.0,4384.0,4160.0,0.358,-0.237,-0.413,-0.803
1266963,5554.0,4484.0,4202.0,0.358,-0.237,-0.414,-0.803
1266979,5524.0,4478.0,4202.0,0.357,-0.238,-0.415,-0.803
1266996,5514.0,4488.0,4160.0,0.356,-0.238,-0.415,-0.803
1267012,5602.0,4460.0,4158.0,0.355,-0.238,-0.416,-0.803
1267029,5686.0,4588.0,4504.0,0.354,-0.238,-0.416,-0.803
1267046,5452.0,4370.0,4238.0,0.354,-0.238,-0.417,-0.803
1267073,5486.0,4188.0,4086.0,0.353,-0.238,-0.417,-0.803
1267089,5478.0,4506.0,4184.0,0.352,-0.238,-0.417,-0.803
1267106,5392.0,4596.0,4224.0,0.351,-0.238,-0.418,-0.803
1267123,5470.0,4566.0,4128.0,0.35,-0.238,-0.419,-0.803
1267139,5432.0,4490.0,4086.0,0.349,-0.239,-0.42,-0.803
1267155,5392.0,4318.0,4034.0,0.348,-0.239,-0.421,-0.803
1267171,5510.0,4430.0,4102.0,0.347,-0.24,-0.422,-0.803
1267197,5500.0,4530.0,4144.0,0.346,-0.24,-0.423,-0.802
1267213,5566.0,4590.0,4058.0,0.345,-0.241,-0.424,-0.802
1267229,5564.0,4596.0,3952.0,0.343,-0.241,-0.425,-0.802
1267245,5478.0,4594.0,4002.0,0.342,-0.242,-0.426,-0.802
1267262,5496.0,4684.0,4052.0,0.341,-0.242,-0.426,-0.802
1267279,5456.0,4674.0,4054.0,0.34,-0.243,-0.427,-0.802
1267296,5502.0,4550.0,4014.0,0.339,-0.243,-0.428,-0.801
1267313,5494.0,4636.0,3956.0,0.338,-0.244,-0.429,-0.801
1267330,5564.0,4550.0,3952.0,0.337,-0.244,-0.43,-0.801
1267347,5536.0,4566.0,3952.0,0.336,-0.245,-0.431,-0.801
1267374,5588.0,4644.0,3900.0,0.335,-0.245,-0.432,-0.801
1267390,5536.0,4658.0,3888.0,0.334,-0.245,-0.433,-0.801
1267406,5484.0,4722.0,3866.0,0.333,-0.245,-0.434,-0.801
1267423,5522.0,4796.0,3830.0,0.332,-0.246,-0.435,-0.8
1267439,5572.0,4774.0,3820.0,0.331,-0.246,-0.435,-0.8
1267455,5542.0,4764.0,3804.0,0.33,-0.246,-0.436,-0.8
1267471,5518.0,4704.0,3844.0,0.33,-0.246,-0.436,-0.8
1267497,5566.0,4702.0,3866.0,0.329,-0.246,-0.437,-0.8
1267513,5550.0,4646.0,3828.0,0.329,-0.246,-0.437,-0.8
1267529,5586.0,3872.0,3320.0,0.328,-0.247,-0.437,-0.8
1267546,6674.0,6208.0,6128.0,0.328,-0.246,-0.438,-0.8
1267563,5586.0,7134.0,3402.0,0.327,-0.246,-0.438,-0.8
1267580,3346.0,3698.0,3712.0,0.325,-0.247,-0.439,-0.801
1267596,6982.0,6098.0,4404.0,0.325,-0.247,-0.44,-0.8
1267612,4842.0,4444.0,2976.0,0.324,-0.248,-0.44,-0.8
1267639,5432.0,4418.0,4150.0,0.323,-0.249,-0.441,-0.799
1267655,6180.0,4802.0,3162.0,0.322,-0.249,-0.443,-0.799
1267671,5478.0,4018.0,3610.0,0.321,-0.25,-0.443,-0.799
1267687,5792.0,4728.0,4184.0,0.32,-0.25,-0.444,-0.799
1267703,5542.0,4638.0,3550.0,0.319,-0.25,-0.445,-0.798
1267719,5418.0,4800.0,3988.0,0.318,-0.25,-0.446,-0.798
1267745,5344.0,5040.0,3720.0,0.317,-0.25,-0.447,-0.798
1267762,5212.0,5022.0,3818.0,0.317,-0.251,-0.448,-0.798
1267778,5414.0,5074.0,3748.0,0.316,-0.251,-0.449,-0.797
1267795,5464.0,4902.0,3580.0,0.315,-0.251,-0.45,-0.797
1267812,5582.0,4812.0,3570.0,0.314,-0.252,-0.451,-0.797
1267829,5644.0,4726.0,3560.0,0.313,-0.252,-0.452,-0.797
1267845,5660.0,4854.0,3520.0,0.312,-0.252,-0.452,-0.797
1267861,5542.0,4952.0,3446.0,0.311,-0.252,-0.453,-0.797
1267878,5456.0,5070.0,3324.0,0.31,-0.253,-0.453,-0.797
1267905,5510.0,5036.0,3398.0,0.309,-0.253,-0.454,-0.797
1267921,5502.0,5194.0,3406.0,0.308,-0.253,-0.454,-0.797
1267937,5540.0,5020.0,3490.0,0.308,-0.254,-0.454,-0.797
1267953,5576.0,5010.0,3546.0,0.307,-0.254,-0.454,-0.797
1267969,5554.0,4878.0,3556.0,0.306,-0.254,-0.454,-0.797
1267985,5456.0,4874.0,3610.0,0.306,-0.254,-0.453,-0.798
1268011,5386.0,4706.0,3600.0,0.305,-0.254,-0.453,-0.798
1268028,5446.0,4856.0,3610.0,0.304,-0.254,-0.453,-0.799
1268045,5464.0,4852.0,3536.0,0.304,-0.254,-0.453,-0.799
1268062,5462.0,4954.0,3686.0,0.303,-0.254,-0.453,-0.799
1268079,5504.0,5088.0,3518.0,0.302,-0.253,-0.454,-0.799
1268095,5442.0,5056.0,3460.0,0.3,-0.253,-0.454,-0.8
1268112,5574.0,5084.0,3428.0,0.299,-0.253,-0.455,-0.8
1268128,5538.0,4966.0,3388.0,0.298,-0.252,-0.455,-0.8
1268145,5516.0,4972.0,3450.0,0.297,-0.252,-0.455,-0.801
1268162,5500.0,5028.0,3430.0,0.296,-0.251,-0.455,-0.802
1268188,5460.0,4944.0,3538.0,0.295,-0.25,-0.455,-0.802
1268204,5412.0,5036.0,3614.0,0.294,-0.249,-0.455,-0.803
1268220,5282.0,5032.0,3594.0,0.292,-0.248,-0.455,-0.804
1268236,5250.0,5118.0,3604.0,0.291,-0.247,-0.455,-0.805
1268252,5236.0,5068.0,3728.0,0.289,-0.246,-0.455,-0.805
1268268,5218.0,5236.0,3672.0,0.288,-0.245,-0.456,-0.806
1268294,5210.0,5290.0,3570.0,0.287,-0.245,-0.456,-0.806
1268312,5246.0,5256.0,3538.0,0.286,-0.244,-0.456,-0.807
1268329,5338.0,5284.0,3548.0,0.285,-0.243,-0.456,-0.808
1268345,5288.0,5154.0,3594.0,0.284,-0.243,-0.455,-0.808
1268361,5244.0,5218.0,3600.0,0.283,-0.242,-0.455,-0.809
1268378,5222.0,5342.0,3524.0,0.282,-0.241,-0.454,-0.81
1268395,5200.0,5242.0,3600.0,0.281,-0.241,-0.454,-0.81
1268412,5180.0,5282.0,3644.0,0.281,-0.24,-0.454,-0.811
1268428,5012.0,5310.0,3640.0,0.28,-0.24,-0.453,-0.812
1268444,5058.0,5248.0,3674.0,0.279,-0.239,-0.452,-0.813
1268471,5134.0,5284.0,3766.0,0.279,-0.239,-0.452,-0.813
1268487,5160.0,5134.0,3828.0,0.279,-0.238,-0.451,-0.814
1268504,5158.0,4986.0,3808.0,0.278,-0.238,-0.451,-0.814
1268521,5098.0,4966.0,3778.0,0.277,-0.237,-0.451,-0.815
1268537,5172.0,5122.0,3690.0,0.276,-0.237,-0.451,-0.815
1268553,5178.0,5286.0,3670.0,0.276,-0.237,-0.45,-0.816
1268570,5144.0,5390.0,3624.0,0.274,-0.236,-0.45,-0.816
1268586,5028.0,5318.0,3664.0,0.273,-0.236,-0.45,-0.817
1268612,4988.0,5454.0,3674.0,0.273,-0.235,-0.449,-0.818
1268629,4914.0,5250.0,3768.0,0.272,-0.235,-0.449,-0.818
1268646,4970.0,5376.0,3806.0,0.271,-0.234,-0.448,-0.819
1268663,4888.0,5244.0,3904.0,0.271,-0.234,-0.448,-0.819
1268680,4916.0,5058.0,4012.0,0.27,-0.234,-0.447,-0.82
1268696,4946.0,5220.0,3930.0,0.27,-0.234,-0.447,-0.82
1268715,4960.0,5006.0,3816.0,0.27,-0.234,-0.447,-0.82
1268731,4962.0,5120.0,3862.0,0.27,-0.234,-0.447,-0.82
1268747,4986.0,5204.0,3904.0,0.269,-0.234,-0.447,-0.82
1268763,4958.0,5346.0,3844.0,0.269,-0.234,-0.447,-0.82
1268790,4986.0,5314.0,3740.0,0.268,-0.234,-0.448,-0.82
1268806,5006.0,5386.0,3732.0,0.268,-0.234,-0.448,-0.82
1268823,4958.0,5448.0,3786.0,0.268,-0.234,-0.448,-0.82
1268840,5008.0,5268.0,3806.0,0.268,-0.234,-0.448,-0.82
1268856,4988.0,5292.0,3758.0,0.268,-0.234,-0.447,-0.82
1268872,5076.0,5308.0,3822.0,0.268,-0.234,-0.447,-0.82
1268888,4956.0,5212.0,3678.0,0.268,-0.235,-0.447,-0.82
1268914,5018.0,5234.0,3860.0,0.268,-0.235,-0.447,-0.821
1268930,5120.0,5438.0,3820.0,0.268,-0.235,-0.447,-0.821
1268946,4736.0,5146.0,3804.0,0.268,-0.235,-0.447,-0.821
1268962,4934.0,5152.0,3812.0,0.268,-0.235,-0.447,-0.82
1268979,5112.0,5164.0,3942.0,0.268,-0.235,-0.447,-0.82
1268995,5162.0,5202.0,3782.0,0.268,-0.236,-0.447,-0.82
1269012,5170.0,5226.0,3716.0,0.268,-0.236,-0.447,-0.82
1269038,5106.0,5252.0,3714.0,0.268,-0.236,-0.447,-0.82
1269054,5038.0,5178.0,3638.0,0.268,-0.236,-0.447,-0.82
1269070,5116.0,5328.0,3860.0,0.267,-0.236,-0.447,-0.82
1269086,5018.0,5348.0,3860.0,0.267,-0.236,-0.447,-0.82
1269103,5114.0,5384.0,3870.0,0.267,-0.236,-0.447,-0.821
1269119,5080.0,5226.0,3918.0,0.267,-0.236,-0.447,-0.821
1269136,5216.0,5484.0,3870.0,0.267,-0.236,-0.447,-0.821
1269153,5062.0,5082.0,3794.0,0.266,-0.236,-0.447,-0.821
1269170,4926.0,5036.0,3800.0,0.266,-0.236,-0.447,-0.821
1269197,5018.0,5310.0,3918.0,0.266,-0.236,-0.447,-0.821
1269213,4948.0,5326.0,3786.0,0.266,-0.236,-0.447,-0.821
1269230,4990.0,5308.0,3868.0,0.266,-0.236,-0.447,-0.821
1269247,4966.0,5272.0,3838.0,0.265,-0.236,-0.447,-0.821
1269263,4986.0,5352.0,3892.0,0.265,-0.236,-0.447,-0.821
1269280,5012.0,5204.0,3844.0,0.265,-0.236,-0.447,-0.821
1269297,5032.0,5094.0,3822.0,0.265,-0.236,-0.446,-0.822
1269313,5114.0,5264.0,3748.0,0.265,-0.236,-0.446,-0.822
1269329,5076.0,5298.0,3752.0,0.265,-0.235,-0.446,-0.822
1269356,5010.0,5356.0,3710.0,0.265,-0.235,-0.445,-0.822
1269372,4998.0,5350.0,3762.0,0.265,-0.235,-0.445,-0.823
1269388,5006.0,5318.0,3862.0,0.265,-0.235,-0.444,-0.823
1269404,4910.0,5214.0,3900.0,0.265,-0.235,-0.444,-0.823
1269420,4918.0,5180.0,3906.0,0.265,-0.235,-0.443,-0.823
1269436,5034.0,5228.0,3886.0,0.265,-0.235,-0.443,-0.824
1269462,5054.0,5160.0,4010.0,0.265,-0.235,-0.442,-0.824
1269479,4982.0,5122.0,4004.0,0.265,-0.235,-0.442,-0.824
1269496,4914.0,5016.0,4016.0,0.265,-0.234,-0.442,-0.824
1269512,4930.0,5210.0,3920.0,0.265,-0.234,-0.441,-0.825
1269528,4950.0,5262.0,3952.0,0.265,-0.234,-0.441,-0.825
1269544,4974.0,5250.0,3886.0,0.265,-0.234,-0.441,-0.825
1269561,4988.0,5236.0,3852.0,0.265,-0.234,-0.441,-0.825
1269578,4984.0,5244.0,3840.0,0.265,-0.234,-0.441,-0.825
1269595,5012.0,5260.0,3850.0,0.264,-0.234,-0.441,-0.825
1269622,4984.0,5186.0,3884.0,0.264,-0.234,-0.441,-0.825
1269638,4972.0,5226.0,3858.0,0.264,-0.233,-0.44,-0.826
1269655,4958.0,5136.0,3900.0,0.264,-0.233,-0.44,-0.826
1269672,4982.0,5308.0,3934.0,0.264,-0.233,-0.44,-0.826
1269688,5006.0,5228.0,3958.0,0.264,-0.233,-0.44,-0.826
1269705,4906.0,5196.0,3988.0,0.263,-0.233,-0.44,-0.826
1269721,4932.0,5118.0,3966.0,0.263,-0.233,-0.44,-0.827
1269737,4962.0,5152.0,3996.0,0.263,-0.233,-0.44,-0.827
1269763,4920.0,5098.0,4034.0,0.263,-0.233,-0.44,-0.827
1269779,4904.0,5128.0,4014.0,0.262,-0.233,-0.44,-0.827
1269795,4922.0,5170.0,4018.0,0.262,-0.233,-0.44,-0.827
1269812,4932.0,5208.0,3964.0,0.261,-0.233,-0.441,-0.826
1269829,4948.0,5308.0,3930.0,0.261,-0.233,-0.441,-0.826
1269846,4948.0,5216.0,3984.0,0.26,-0.233,-0.442,-0.826
1269862,4896.0,5286.0,3932.0,0.26,-0.233,-0.442,-0.826
1269878,4948.0,5334.0,3916.0,0.259,-0.233,-0.443,-0.826
1269905,5012.0,5330.0,3868.0,0.259,-0.233,-0.443,-0.826
1269921,4960.0,5252.0,3856.0,0.259,-0.233,-0.443,-0.826
1269937,4944.0,5280.0,3860.0,0.258,-0.233,-0.443,-0.826
1269953,4910.0,5272.0,3950.0,0.258,-0.233,-0.443,-0.826
1269969,4914.0,5282.0,3914.0,0.258,-0.233,-0.444,-0.826
1269986,4924.0,5280.0,3926.0,0.257,-0.233,-0.444,-0.826
1270002,4960.0,5254.0,3914.0,0.257,-0.233,-0.444,-0.826
1270028,4920.0,5320.0,3956.0,0.256,-0.233,-0.444,-0.826
1270044,4928.0,5314.0,3948.0,0.256,-0.233,-0.444,-0.826
1270061,4924.0,5196.0,3914.0,0.256,-0.233,-0.444,-0.827
1270078,4930.0,5250.0,3918.0,0.255,-0.233,-0.444,-0.826
1270094,4894.0,5304.0,3870.0,0.255,-0.233,-0.445,-0.826
1270111,5000.0,5392.0,3850.0,0.255,-0.233,-0.445,-0.826
1270127,4970.0,5418.0,3788.0,0.254,-0.233,-0.445,-0.826
1270144,4932.0,5352.0,3814.0,0.254,-0.233,-0.445,-0.827
1270161,4898.0,5290.0,3850.0,0.254,-0.233,-0.445,-0.827
1270188,4908.0,5298.0,3904.0,0.253,-0.233,-0.445,-0.827
1270204,4942.0,5302.0,3874.0,0.253,-0.233,-0.445,-0.827
1270220,4918.0,5306.0,3894.0,0.253,-0.234,-0.445,-0.827
1270236,4890.0,5280.0,3882.0,0.252,-0.234,-0.445,-0.827
1270252,4902.0,5278.0,3892.0,0.252,-0.234,-0.445,-0.827
1270268,4932.0,5360.0,3894.0,0.252,-0.234,-0.446,-0.827
1270294,4912.0,5316.0,3890.0,0.252,-0.234,-0.446,-0.827
1270311,4900.0,5270.0,3888.0,0.252,-0.234,-0.446,-0.827
1270328,4888.0,5352.0,3882.0,0.251,-0.234,-0.446,-0.827
1270345,4926.0,5260.0,3858.0,0.251,-0.235,-0.446,-0.827
1270362,4944.0,5290.0,3856.0,0.251,-0.235,-0.446,-0.826
1270378,4976.0,5216.0,3856.0,0.251,-0.235,-0.446,-0.826
1270394,4910.0,5202.0,3904.0,0.251,-0.236,-0.446,-0.826
1270411,4844.0,5258.0,3910.0,0.25,-0.236,-0.446,-0.826
1270428,4798.0,5362.0,3956.0,0.25,-0.237,-0.446,-0.826
1270444,4792.0,5328.0,3920.0,0.251,-0.238,-0.446,-0.826
1270471,4856.0,5376.0,3888.0,0.251,-0.239,-0.446,-0.825
1270487,4964.0,5472.0,3824.0,0.252,-0.24,-0.446,-0.825
1270503,5034.0,5490.0,3856.0,0.253,-0.241,-0.445,-0.824
1270519,5168.0,5392.0,3774.0,0.255,-0.242,-0.444,-0.824
1270535,5320.0,5274.0,3724.0,0.257,-0.242,-0.442,-0.825
1270551,5148.0,4936.0,3788.0,0.259,-0.243,-0.44,-0.825
1270577,5010.0,4968.0,3814.0,0.261,-0.243,-0.439,-0.825
1270594,4894.0,5074.0,3968.0,0.263,-0.243,-0.439,-0.824
1270611,4838.0,4944.0,4028.0,0.265,-0.244,-0.438,-0.824
1270628,4998.0,4936.0,3972.0,0.266,-0.245,-0.439,-0.822
1270645,5170.0,4848.0,3944.0,0.267,-0.246,-0.44,-0.821
1270661,5218.0,4866.0,3884.0,0.267,-0.248,-0.441,-0.82
1270677,5158.0,4630.0,3952.0,0.266,-0.249,-0.443,-0.819
1270693,5170.0,4744.0,3866.0,0.266,-0.25,-0.445,-0.818
1270711,5172.0,5048.0,3780.0,0.265,-0.251,-0.448,-0.816
1270728,5196.0,5142.0,3764.0,0.264,-0.252,-0.45,-0.815
1270745,5198.0,5314.0,3546.0,0.264,-0.253,-0.453,-0.813
1270772,5440.0,5664.0,3352.0,0.264,-0.253,-0.455,-0.812
1270788,5566.0,5850.0,3166.0,0.264,-0.253,-0.456,-0.811
1270805,5522.0,5702.0,3226.0,0.265,-0.254,-0.456,-0.811
1270822,5372.0,5404.0,3422.0,0.266,-0.254,-0.455,-0.811
1270838,5166.0,4934.0,3632.0,0.267,-0.254,-0.454,-0.811
1270854,5176.0,4774.0,3656.0,0.269,-0.254,-0.453,-0.811
1270870,5268.0,4790.0,3656.0,0.27,-0.255,-0.453,-0.81
1270896,5208.0,5048.0,3636.0,0.27,-0.256,-0.453,-0.81
1270913,5306.0,5262.0,3592.0,0.271,-0.257,-0.453,-0.809
1270929,5306.0,5270.0,3614.0,0.271,-0.257,-0.453,-0.809
1270945,5256.0,5108.0,3730.0,0.272,-0.258,-0.453,-0.809
1270961,5316.0,4934.0,3708.0,0.272,-0.258,-0.453,-0.809
1270977,5390.0,5008.0,3686.0,0.272,-0.259,-0.453,-0.809
1270994,5552.0,5408.0,3638.0,0.272,-0.259,-0.453,-0.809
1271020,5478.0,5192.0,3550.0,0.273,-0.26,-0.452,-0.809
1271036,5392.0,5124.0,3534.0,0.273,-0.261,-0.45,-0.809
1271053,5158.0,4768.0,3598.0,0.273,-0.261,-0.449,-0.81
1271070,5120.0,4766.0,3682.0,0.274,-0.262,-0.449,-0.81
1271086,5138.0,4838.0,3682.0,0.274,-0.263,-0.449,-0.809
1271102,5166.0,4500.0,3614.0,0.274,-0.263,-0.45,-0.808
1271118,5442.0,4980.0,3478.0,0.274,-0.264,-0.451,-0.807
1271144,5512.0,4936.0,3462.0,0.275,-0.265,-0.453,-0.806
1271161,5726.0,5146.0,3340.0,0.275,-0.266,-0.454,-0.805
1271178,5540.0,4978.0,3424.0,0.275,-0.266,-0.454,-0.804
1271195,5488.0,4880.0,3412.0,0.275,-0.266,-0.455,-0.804
1271211,5506.0,4902.0,3430.0,0.275,-0.266,-0.455,-0.804
1271228,5666.0,4956.0,3366.0,0.275,-0.266,-0.456,-0.803
1271245,5682.0,5186.0,3254.0,0.275,-0.266,-0.457,-0.803
1271262,5566.0,5092.0,3422.0,0.276,-0.265,-0.457,-0.803
1271279,5580.0,5124.0,3418.0,0.276,-0.264,-0.457,-0.803
1271296,5334.0,4942.0,3522.0,0.276,-0.264,-0.457,-0.803
1271313,5402.0,4956.0,3482.0,0.277,-0.263,-0.457,-0.803
1271330,5406.0,5244.0,3450.0,0.277,-0.263,-0.457,-0.803
1271347,5320.0,4996.0,3576.0,0.278,-0.263,-0.458,-0.803
1271373,5376.0,5064.0,3614.0,0.278,-0.263,-0.458,-0.802
1271390,5448.0,5104.0,3528.0,0.278,-0.263,-0.458,-0.802
1271407,5468.0,5030.0,3532.0,0.279,-0.264,-0.458,-0.802
1271424,5536.0,5146.0,3514.0,0.279,-0.263,-0.458,-0.802
1271441,5518.0,5130.0,3596.0,0.28,-0.263,-0.458,-0.802
1271458,5542.0,4894.0,3474.0,0.28,-0.263,-0.458,-0.802
1271475,5632.0,4868.0,3258.0,0.28,-0.263,-0.457,-0.802
1271492,5478.0,4898.0,3346.0,0.28,-0.263,-0.457,-0.802
1271509,5540.0,5034.0,3274.0,0.28,-0.263,-0.457,-0.802
1271526,5538.0,5192.0,3270.0,0.28,-0.262,-0.457,-0.802
1271543,5446.0,5126.0,3412.0,0.28,-0.262,-0.457,-0.803
1271560,5352.0,5022.0,3498.0,0.28,-0.262,-0.456,-0.803
1271577,5376.0,5120.0,3430.0,0.281,-0.262,-0.456,-0.803
1271604,5478.0,4916.0,3660.0,0.281,-0.262,-0.456,-0.803
1271621,5526.0,4836.0,3636.0,0.282,-0.262,-0.455,-0.803
1271637,5408.0,4814.0,3680.0,0.282,-0.262,-0.455,-0.803
1271654,5420.0,4808.0,3720.0,0.282,-0.262,-0.454,-0.803
1271671,5378.0,4922.0,3732.0,0.283,-0.262,-0.454,-0.803
1271687,5352.0,5000.0,3704.0,0.283,-0.263,-0.454,-0.803
1271703,5376.0,4948.0,3474.0,0.283,-0.263,-0.455,-0.803
1271719,5552.0,4956.0,3412.0,0.282,-0.264,-0.455,-0.802
1271745,5594.0,4902.0,3408.0,0.282,-0.264,-0.455,-0.802
1271762,5522.0,4890.0,3278.0,0.282,-0.265,-0.456,-0.802
1271778,5438.0,5108.0,2856.0,0.281,-0.265,-0.457,-0.801
1271795,5578.0,4848.0,3194.0,0.28,-0.266,-0.457,-0.801
1271812,5544.0,4996.0,3210.0,0.279,-0.266,-0.458,-0.801
1271829,5582.0,4694.0,4114.0,0.278,-0.266,-0.459,-0.801
1271846,5910.0,5098.0,3772.0,0.278,-0.266,-0.46,-0.8
1271862,5046.0,5082.0,3248.0,0.276,-0.267,-0.461,-0.8
1271878,5172.0,5286.0,3394.0,0.276,-0.268,-0.462,-0.799
1271904,5622.0,5136.0,3326.0,0.275,-0.268,-0.463,-0.799
1271920,5632.0,5052.0,3704.0,0.274,-0.268,-0.464,-0.799
1271936,5614.0,4760.0,3520.0,0.273,-0.269,-0.464,-0.798
1271952,5398.0,4648.0,3328.0,0.272,-0.269,-0.465,-0.798
1271968,5510.0,4914.0,3184.0,0.271,-0.269,-0.467,-0.798
1271984,5372.0,5066.0,3136.0,0.269,-0.269,-0.468,-0.797
1272010,5434.0,5118.0,3256.0,0.268,-0.269,-0.47,-0.797
1272026,5406.0,5442.0,2748.0,0.266,-0.269,-0.472,-0.796
1272043,5468.0,5350.0,2940.0,0.265,-0.27,-0.473,-0.796
1272060,5500.0,5494.0,3056.0,0.263,-0.27,-0.474,-0.796
1272076,5596.0,5256.0,3240.0,0.262,-0.27,-0.475,-0.796
1272093,5510.0,5140.0,3168.0,0.261,-0.27,-0.476,-0.796
1272110,5374.0,5000.0,3142.0,0.26,-0.27,-0.476,-0.795
1272127,5388.0,5236.0,3334.0,0.258,-0.27,-0.477,-0.795
1272153,5426.0,5124.0,3266.0,0.257,-0.271,-0.478,-0.795
1272169,5342.0,5262.0,3318.0,0.256,-0.271,-0.479,-0.795
1272185,5400.0,5316.0,3136.0,0.254,-0.271,-0.48,-0.795
1272201,5350.0,5376.0,3036.0,0.252,-0.272,-0.481,-0.794
1272217,5468.0,5494.0,3060.0,0.25,-0.272,-0.482,-0.794
1272233,5390.0,5206.0,2922.0,0.249,-0.272,-0.483,-0.794
1272259,5378.0,5348.0,2802.0,0.247,-0.272,-0.484,-0.794
1272276,5326.0,5428.0,2788.0,0.245,-0.273,-0.485,-0.794
1272293,5356.0,5410.0,2876.0,0.243,-0.274,-0.486,-0.794
1272310,5336.0,5586.0,2846.0,0.241,-0.275,-0.487,-0.793
1272326,5252.0,5456.0,2918.0,0.24,-0.276,-0.488,-0.793
1272343,5326.0,5628.0,2716.0,0.239,-0.277,-0.488,-0.792
1272360,5374.0,5628.0,2844.0,0.238,-0.279,-0.489,-0.792
1272376,5376.0,5410.0,2912.0,0.237,-0.28,-0.489,-0.791
1272392,5420.0,5436.0,2970.0,0.237,-0.281,-0.489,-0.791
1272409,5430.0,5268.0,3014.0,0.236,-0.282,-0.489,-0.791
1272436,5364.0,5342.0,2922.0,0.235,-0.282,-0.489,-0.791
1272452,5476.0,5298.0,2816.0,0.234,-0.283,-0.49,-0.791
1272469,5482.0,5462.0,2766.0,0.233,-0.284,-0.49,-0.79
1272486,5516.0,5436.0,2632.0,0.232,-0.285,-0.491,-0.79
1272502,5574.0,5406.0,2690.0,0.23,-0.285,-0.491,-0.79
1272518,5548.0,5460.0,2566.0,0.229,-0.285,-0.492,-0.79
1272534,5564.0,5496.0,2552.0,0.227,-0.285,-0.492,-0.791
1272560,5518.0,5502.0,2586.0,0.225,-0.285,-0.492,-0.791
1272577,5494.0,5460.0,2652.0,0.223,-0.285,-0.493,-0.792
1272593,5308.0,5594.0,2700.0,0.221,-0.284,-0.493,-0.792
1272610,5248.0,5550.0,2802.0,0.219,-0.283,-0.493,-0.793
1272626,5228.0,5672.0,2830.0,0.217,-0.283,-0.493,-0.794
1272643,5240.0,5694.0,2896.0,0.216,-0.282,-0.493,-0.794
1272659,5262.0,5516.0,2910.0,0.214,-0.282,-0.493,-0.795
1272676,5308.0,5458.0,2874.0,0.212,-0.282,-0.493,-0.795
1272693,5392.0,5328.0,2872.0,0.21,-0.281,-0.493,-0.796
1272719,5424.0,5314.0,2700.0,0.208,-0.28,-0.494,-0.797
1272736,5428.0,5290.0,2626.0,0.206,-0.279,-0.494,-0.797
1272752,5240.0,5468.0,2612.0,0.203,-0.277,-0.495,-0.798
1272768,5094.0,5754.0,2668.0,0.2,-0.276,-0.497,-0.798
1272784,4874.0,6114.0,2638.0,0.198,-0.275,-0.498,-0.798
1272801,4508.0,6696.0,2424.0,0.197,-0.275,-0.499,-0.798
1272818,4508.0,6704.0,2510.0,0.196,-0.275,-0.5,-0.798
1272834,4752.0,6380.0,2540.0,0.196,-0.276,-0.499,-0.798
1272861,5120.0,5802.0,2768.0,0.196,-0.276,-0.498,-0.799
1272878,5358.0,5264.0,2976.0,0.196,-0.276,-0.497,-0.799
1272894,5334.0,4986.0,3130.0,0.196,-0.276,-0.496,-0.8
1272911,5370.0,4968.0,3056.0,0.195,-0.276,-0.496,-0.8
1272928,5232.0,5318.0,2938.0,0.193,-0.275,-0.497,-0.8
1272944,5228.0,5428.0,2804.0,0.191,-0.275,-0.499,-0.799
1272961,5418.0,5398.0,2674.0,0.189,-0.273,-0.502,-0.799
1272978,5052.0,6238.0,2226.0,0.186,-0.271,-0.505,-0.798
1272995,4976.0,6340.0,2126.0,0.183,-0.269,-0.508,-0.797
1273011,4692.0,6474.0,1980.0,0.181,-0.267,-0.51,-0.797
1273038,4750.0,6184.0,2316.0,0.179,-0.265,-0.511,-0.797
1273054,5968.0,6374.0,3480.0,0.178,-0.264,-0.514,-0.797
1273071,5248.0,5654.0,1964.0,0.178,-0.263,-0.517,-0.795
1273087,5212.0,5192.0,2700.0,0.177,-0.261,-0.521,-0.793
1273104,4486.0,5656.0,2912.0,0.177,-0.26,-0.527,-0.79
1273120,4574.0,6524.0,2334.0,0.175,-0.258,-0.532,-0.787
1273136,4742.0,6350.0,2214.0,0.174,-0.257,-0.536,-0.785
1273162,6232.0,5508.0,1536.0,0.173,-0.257,-0.538,-0.784
1273178,6594.0,5612.0,1222.0,0.172,-0.257,-0.541,-0.782
1273194,6824.0,5126.0,806.0,0.172,-0.258,-0.543,-0.781
1273211,6792.0,5330.0,782.0,0.171,-0.258,-0.545,-0.779
1273227,6502.0,5156.0,864.0,0.169,-0.259,-0.547,-0.778
1273244,6194.0,4964.0,1018.0,0.166,-0.259,-0.55,-0.777
1273260,5430.0,3664.0,-972.0,0.161,-0.258,-0.551,-0.777
1273277,6138.0,3862.0,378.0,0.155,-0.255,-0.55,-0.78
1273294,6984.0,7438.0,2328.0,0.148,-0.254,-0.546,-0.785
1273321,5524.0,6208.0,2238.0,0.141,-0.252,-0.538,-0.792
1273337,5938.0,6324.0,2798.0,0.136,-0.249,-0.536,-0.795
1273353,5250.0,7066.0,2602.0,0.128,-0.246,-0.538,-0.796
1273369,4554.0,6472.0,2834.0,0.119,-0.244,-0.544,-0.794
1273385,4606.0,7558.0,1782.0,0.108,-0.242,-0.552,-0.791
1273401,5118.0,6868.0,2562.0,0.097,-0.238,-0.561,-0.787
1273427,3778.0,6268.0,2896.0,0.088,-0.234,-0.571,-0.782
1273444,3848.0,6578.0,2536.0,0.081,-0.23,-0.581,-0.776
1273461,-5564.0,-7586.0,-5920.0,0.077,-0.229,-0.604,-0.76
1273478,910.0,21002.0,1908.0,0.075,-0.221,-0.622,-0.747
1273495,5356.0,6236.0,1856.0,0.074,-0.221,-0.626,-0.744
1273511,2624.0,6208.0,784.0,0.076,-0.22,-0.634,-0.738
1273527,2206.0,9288.0,930.0,0.078,-0.221,-0.638,-0.734
1273544,2934.0,7028.0,1192.0,0.079,-0.224,-0.639,-0.732
1273561,2996.0,6374.0,892.0,0.081,-0.227,-0.64,-0.73
1273578,2462.0,7008.0,778.0,0.083,-0.231,-0.64,-0.728
1273595,2282.0,6222.0,1286.0,0.086,-0.236,-0.64,-0.726
1273621,2096.0,5728.0,1400.0,0.09,-0.243,-0.64,-0.724
1273637,1926.0,5458.0,1278.0,0.096,-0.25,-0.64,-0.72
1273653,2346.0,4726.0,720.0,0.104,-0.258,-0.642,-0.715
1273670,2920.0,6094.0,-244.0,0.113,-0.265,-0.644,-0.709
1273687,3092.0,6456.0,-240.0,0.123,-0.273,-0.645,-0.703
1273704,3364.0,6888.0,-94.0,0.133,-0.282,-0.644,-0.698
1273720,3426.0,5960.0,490.0,0.143,-0.292,-0.643,-0.693
1273737,4092.0,5986.0,-262.0,0.154,-0.301,-0.642,-0.688
1273764,4148.0,5638.0,-298.0,0.164,-0.31,-0.64,-0.684
1273781,3996.0,6256.0,-684.0,0.175,-0.319,-0.637,-0.68
1273797,4838.0,6144.0,-938.0,0.185,-0.328,-0.633,-0.676
1273813,4860.0,6008.0,-672.0,0.194,-0.337,-0.629,-0.673
1273830,4806.0,5430.0,-372.0,0.205,-0.346,-0.625,-0.669
1273846,4634.0,5344.0,-606.0,0.215,-0.356,-0.621,-0.664
1273862,5048.0,4674.0,-524.0,0.225,-0.365,-0.618,-0.659
1273878,4808.0,5346.0,-1088.0,0.235,-0.375,-0.614,-0.654
1273904,5834.0,4890.0,-1062.0,0.245,-0.385,-0.61,-0.648
1273920,5348.0,4056.0,-950.0,0.256,-0.394,-0.606,-0.641
1273937,6240.0,4106.0,-864.0,0.269,-0.403,-0.604,-0.632
1273954,6982.0,4930.0,-384.0,0.283,-0.412,-0.603,-0.622
1273971,7372.0,6428.0,-1018.0,0.296,-0.42,-0.6,-0.613
1273988,7792.0,4708.0,-724.0,0.307,-0.429,-0.595,-0.607
1274005,8848.0,3912.0,-986.0,0.317,-0.435,-0.591,-0.6
1274021,8174.0,5940.0,-1586.0,0.327,-0.442,-0.587,-0.594
1274037,8460.0,5284.0,-1416.0,0.333,-0.45,-0.581,-0.59
1274064,8070.0,3888.0,-416.0,0.337,-0.458,-0.576,-0.587
1274081,8114.0,3076.0,-118.0,0.342,-0.466,-0.571,-0.583
1274097,7968.0,3212.0,-312.0,0.347,-0.473,-0.568,-0.577
1274113,7660.0,3228.0,-508.0,0.352,-0.479,-0.565,-0.572
1274129,8088.0,3058.0,-604.0,0.358,-0.484,-0.564,-0.565
1274145,8192.0,3788.0,-990.0,0.365,-0.488,-0.562,-0.559
1274171,7890.0,3644.0,-1148.0,0.37,-0.493,-0.56,-0.553
1274188,8004.0,3130.0,-1008.0,0.376,-0.497,-0.557,-0.549
1274204,7760.0,2966.0,-876.0,0.381,-0.502,-0.553,-0.546
1274220,8196.0,3150.0,-940.0,0.386,-0.506,-0.548,-0.543
1274236,8336.0,2742.0,-1294.0,0.391,-0.51,-0.543,-0.54
1274252,8070.0,3092.0,-1292.0,0.396,-0.514,-0.537,-0.539
1274268,8028.0,2966.0,-830.0,0.4,-0.519,-0.53,-0.539
1274294,8040.0,2006.0,-696.0,0.402,-0.523,-0.522,-0.54
1274311,8126.0,2286.0,-850.0,0.404,-0.527,-0.515,-0.542
1274327,8366.0,2224.0,-628.0,0.405,-0.531,-0.508,-0.544
1274343,8126.0,2032.0,-326.0,0.405,-0.535,-0.502,-0.546
1274360,8228.0,2066.0,-476.0,0.405,-0.538,-0.495,-0.549
1274376,7954.0,1870.0,-566.0,0.404,-0.542,-0.489,-0.552
1274393,7918.0,1766.0,-480.0,0.403,-0.545,-0.484,-0.554
1274410,7966.0,1700.0,-400.0,0.401,-0.547,-0.479,-0.557
1274427,7804.0,1402.0,-424.0,0.4,-0.55,-0.475,-0.559
1274454,7868.0,1168.0,-578.0,0.399,-0.551,-0.472,-0.561
1274470,7636.0,1738.0,-456.0,0.398,-0.553,-0.469,-0.562
1274487,7614.0,1544.0,-408.0,0.396,-0.554,-0.467,-0.564
1274503,7694.0,1252.0,-488.0,0.394,-0.555,-0.465,-0.566
1274519,7600.0,1124.0,-638.0,0.393,-0.556,-0.464,-0.567
1274535,7638.0,1476.0,-568.0,0.391,-0.556,-0.463,-0.569
1274552,7480.0,1594.0,-400.0,0.389,-0.556,-0.463,-0.57
1274568,7532.0,1186.0,-508.0,0.387,-0.557,-0.463,-0.571
1274595,7450.0,1012.0,-494.0,0.386,-0.557,-0.463,-0.571
1274611,7546.0,844.0,-544.0,0.384,-0.557,-0.463,-0.572
1274628,7640.0,1222.0,-658.0,0.382,-0.557,-0.463,-0.574
1274644,7640.0,1190.0,-804.0,0.38,-0.557,-0.463,-0.575
1274661,7608.0,888.0,-756.0,0.377,-0.557,-0.463,-0.577
1274677,8002.0,632.0,-734.0,0.375,-0.557,-0.463,-0.579
1274694,8286.0,1272.0,-778.0,0.372,-0.555,-0.463,-0.582
1274711,8726.0,1678.0,-802.0,0.369,-0.555,-0.462,-0.585
1274731,8866.0,1440.0,-714.0,0.366,-0.554,-0.462,-0.588
1274747,9442.0,1278.0,-556.0,0.361,-0.554,-0.461,-0.591
1274763,10156.0,708.0,-460.0,0.356,-0.554,-0.461,-0.595
1274789,10658.0,604.0,-706.0,0.35,-0.552,-0.462,-0.599
1274806,10896.0,1050.0,-1116.0,0.344,-0.55,-0.464,-0.603
1274823,11056.0,810.0,-912.0,0.338,-0.547,-0.467,-0.607
1274840,11090.0,466.0,-690.0,0.331,-0.544,-0.471,-0.61
1274857,10890.0,812.0,-698.0,0.324,-0.54,-0.477,-0.613
1274874,10850.0,550.0,-796.0,0.318,-0.535,-0.484,-0.616
1274891,10922.0,1502.0,-1012.0,0.312,-0.529,-0.492,-0.617
1274908,10746.0,2190.0,-888.0,0.306,-0.523,-0.5,-0.618
1274925,10998.0,2192.0,-992.0,0.298,-0.518,-0.51,-0.619
1274942,11414.0,1628.0,-1158.0,0.289,-0.512,-0.52,-0.62
1274959,11398.0,2328.0,-1534.0,0.281,-0.505,-0.531,-0.621
1274986,10712.0,3608.0,-1470.0,0.271,-0.497,-0.541,-0.622
1275002,10380.0,3756.0,-1274.0,0.261,-0.489,-0.551,-0.624
1275018,9752.0,4004.0,-1122.0,0.251,-0.481,-0.561,-0.625
1275034,9552.0,4342.0,-1054.0,0.24,-0.475,-0.57,-0.626
1275050,8840.0,4856.0,-1148.0,0.229,-0.469,-0.579,-0.626
1275066,8772.0,4470.0,-1542.0,0.218,-0.464,-0.587,-0.627
1275082,8540.0,4608.0,-1814.0,0.208,-0.458,-0.595,-0.627
1275108,8128.0,4946.0,-1644.0,0.2,-0.453,-0.602,-0.627
1275125,7680.0,5282.0,-1564.0,0.193,-0.448,-0.608,-0.626
1275142,7248.0,4940.0,-1958.0,0.187,-0.443,-0.613,-0.627
1275158,7010.0,4740.0,-1732.0,0.183,-0.439,-0.618,-0.626
1275175,7214.0,4786.0,-1980.0,0.18,-0.434,-0.623,-0.626
1275192,6098.0,4676.0,-1656.0,0.178,-0.428,-0.627,-0.626
1275209,5420.0,4592.0,-868.0,0.177,-0.422,-0.632,-0.625
1275226,4878.0,6078.0,-314.0,0.176,-0.417,-0.637,-0.624
1275243,4862.0,4960.0,-920.0,0.175,-0.414,-0.641,-0.623
1275260,5176.0,4530.0,-1344.0,0.175,-0.411,-0.645,-0.62
1275287,4806.0,5680.0,-1300.0,0.176,-0.41,-0.649,-0.616
1275303,4614.0,5566.0,-1478.0,0.177,-0.409,-0.653,-0.613
1275320,4872.0,5820.0,-1634.0,0.179,-0.409,-0.656,-0.609
1275337,4960.0,5446.0,-1738.0,0.182,-0.41,-0.657,-0.606
1275354,4714.0,6630.0,-1984.0,0.185,-0.411,-0.658,-0.603
1275370,4304.0,5392.0,-2266.0,0.188,-0.413,-0.657,-0.602
1275386,4446.0,4410.0,-2532.0,0.193,-0.414,-0.655,-0.602
1275402,4252.0,5582.0,-3156.0,0.198,-0.412,-0.653,-0.603
1275418,3298.0,4526.0,-1788.0,0.205,-0.41,-0.65,-0.606
1275444,2360.0,2354.0,-378.0,0.211,-0.406,-0.648,-0.609
1275461,1524.0,2872.0,-592.0,0.217,-0.401,-0.647,-0.611
1275477,426.0,3388.0,-1276.0,0.224,-0.393,-0.647,-0.614
1275497,-66.0,2674.0,-1060.0,0.23,-0.384,-0.648,-0.617
1275513,-534.0,1594.0,-436.0,0.235,-0.374,-0.648,-0.62
1275529,-1056.0,3182.0,-584.0,0.239,-0.367,-0.65,-0.621
1275546,-1170.0,2428.0,-296.0,0.24,-0.363,-0.651,-0.622
1275562,-868.0,2066.0,-598.0,0.24,-0.361,-0.653,-0.621
1275578,-62.0,2810.0,-1298.0,0.238,-0.361,-0.655,-0.619
1275595,882.0,2870.0,-1340.0,0.235,-0.362,-0.657,-0.618
1275622,1380.0,3100.0,-1376.0,0.231,-0.364,-0.659,-0.616
1275639,1746.0,3106.0,-1076.0,0.227,-0.366,-0.661,-0.615
1275656,2342.0,4182.0,-926.0,0.223,-0.368,-0.662,-0.614
1275673,2776.0,4388.0,-1354.0,0.217,-0.371,-0.662,-0.614
1275690,3566.0,4512.0,-1516.0,0.212,-0.375,-0.661,-0.614
1275707,4152.0,2918.0,-1228.0,0.208,-0.377,-0.661,-0.614
1275724,4808.0,5554.0,-1728.0,0.206,-0.379,-0.663,-0.612
1275741,4710.0,5818.0,-1560.0,0.205,-0.381,-0.663,-0.611
1275758,5422.0,5116.0,-1690.0,0.204,-0.383,-0.664,-0.609
1275775,5642.0,5490.0,-1578.0,0.204,-0.384,-0.664,-0.608
1275792,5750.0,6282.0,-1668.0,0.204,-0.386,-0.664,-0.607
1275809,6018.0,6770.0,-2080.0,0.205,-0.388,-0.664,-0.606
1275826,6122.0,6036.0,-1634.0,0.206,-0.39,-0.663,-0.605
1275843,6806.0,6128.0,-1836.0,0.207,-0.393,-0.662,-0.604
1275870,6432.0,5144.0,-1872.0,0.208,-0.395,-0.662,-0.603
1275887,6670.0,5448.0,-1888.0,0.21,-0.395,-0.662,-0.601
1275904,6412.0,7186.0,-1920.0,0.212,-0.396,-0.663,-0.599
1275921,6592.0,7378.0,-1602.0,0.213,-0.398,-0.662,-0.599
1275937,6322.0,6498.0,-1616.0,0.213,-0.401,-0.66,-0.598
1275954,6732.0,4356.0,-2448.0,0.213,-0.403,-0.659,-0.599
1275971,6544.0,4688.0,-2212.0,0.213,-0.403,-0.658,-0.599
1275988,6772.0,6030.0,-2388.0,0.214,-0.403,-0.656,-0.601
1276005,6758.0,6404.0,-2518.0,0.217,-0.403,-0.653,-0.604
1276022,6742.0,5088.0,-1966.0,0.219,-0.404,-0.648,-0.607
1276039,5670.0,5076.0,-1102.0,0.222,-0.405,-0.644,-0.61
1276056,6652.0,4632.0,-1526.0,0.223,-0.406,-0.638,-0.614
1276073,7054.0,4956.0,-1516.0,0.226,-0.408,-0.633,-0.617
1276100,6978.0,5066.0,-1370.0,0.229,-0.411,-0.628,-0.62
1276116,6772.0,4292.0,-894.0,0.233,-0.414,-0.623,-0.622
1276132,6204.0,5148.0,-672.0,0.236,-0.418,-0.617,-0.623
1276148,6194.0,4334.0,-280.0,0.239,-0.424,-0.611,-0.624
1276164,7688.0,4068.0,-710.0,0.242,-0.431,-0.605,-0.624
1276180,8182.0,5058.0,-1434.0,0.247,-0.438,-0.599,-0.623
1276206,8060.0,4440.0,-1220.0,0.252,-0.445,-0.592,-0.623
1276223,7688.0,4476.0,-566.0,0.258,-0.452,-0.586,-0.622
1276240,7716.0,4934.0,-486.0,0.262,-0.46,-0.578,-0.621
1276257,8324.0,4034.0,-688.0,0.267,-0.468,-0.57,-0.621
1276274,8558.0,4602.0,-1076.0,0.271,-0.478,-0.561,-0.62
1276291,8470.0,4354.0,-622.0,0.276,-0.488,-0.551,-0.618
1276308,8988.0,3444.0,-930.0,0.28,-0.498,-0.542,-0.616
1276325,9666.0,3340.0,-1298.0,0.284,-0.508,-0.532,-0.615
1276342,10970.0,3120.0,-1374.0,0.288,-0.516,-0.523,-0.614
1276359,11940.0,3290.0,-1714.0,0.291,-0.522,-0.515,-0.614
1276376,12048.0,2432.0,-1504.0,0.294,-0.526,-0.508,-0.615
1276392,12314.0,1610.0,-1038.0,0.295,-0.528,-0.503,-0.617
1276418,12434.0,1318.0,-978.0,0.295,-0.528,-0.501,-0.619
1276434,12056.0,1958.0,-796.0,0.293,-0.526,-0.502,-0.621
1276450,11838.0,2540.0,-670.0,0.29,-0.524,-0.504,-0.623
1276466,11528.0,2684.0,-688.0,0.284,-0.522,-0.507,-0.624
1276482,11418.0,2552.0,-694.0,0.277,-0.52,-0.511,-0.625
1276498,11610.0,3178.0,-1280.0,0.27,-0.519,-0.517,-0.626
1276524,11926.0,4020.0,-2042.0,0.261,-0.517,-0.522,-0.627
1276541,12144.0,3332.0,-1920.0,0.252,-0.514,-0.528,-0.628
1276558,11422.0,3792.0,-1374.0,0.242,-0.509,-0.534,-0.63
1276574,10870.0,4372.0,-1862.0,0.233,-0.504,-0.541,-0.631
1276591,10268.0,5028.0,-1768.0,0.225,-0.498,-0.549,-0.633
1276608,9472.0,5070.0,-1354.0,0.216,-0.492,-0.555,-0.635
1276625,9116.0,4172.0,-1320.0,0.207,-0.486,-0.562,-0.637
1276641,8416.0,4988.0,-1116.0,0.2,-0.479,-0.569,-0.638
1276658,7684.0,4788.0,-962.0,0.192,-0.473,-0.575,-0.639
1276675,7400.0,4528.0,-1208.0,0.186,-0.468,-0.581,-0.64
1276701,6752.0,4626.0,-1000.0,0.18,-0.462,-0.587,-0.64
1276717,5944.0,4928.0,-876.0,0.176,-0.457,-0.594,-0.639
1276733,5890.0,4978.0,-1068.0,0.173,-0.452,-0.599,-0.637
1276749,5434.0,4662.0,-1036.0,0.17,-0.449,-0.605,-0.636
1276765,5502.0,5198.0,-1120.0,0.168,-0.445,-0.61,-0.634
1276781,5458.0,5064.0,-1026.0,0.168,-0.442,-0.615,-0.631
1276807,5236.0,6098.0,-1288.0,0.168,-0.44,-0.619,-0.628
1276824,4990.0,5922.0,-1464.0,0.169,-0.438,-0.622,-0.626
1276841,4970.0,5016.0,-1230.0,0.17,-0.437,-0.625,-0.625
1276858,5164.0,5024.0,-1204.0,0.173,-0.435,-0.627,-0.623
1276875,4380.0,4884.0,-1352.0,0.176,-0.433,-0.629,-0.621
1276892,4646.0,5384.0,-1646.0,0.179,-0.43,-0.631,-0.62
1276909,4106.0,5632.0,-1770.0,0.183,-0.428,-0.632,-0.62
1276925,3760.0,4814.0,-1518.0,0.187,-0.425,-0.631,-0.621
1276942,3200.0,5904.0,-1504.0,0.192,-0.421,-0.631,-0.623
1276959,2000.0,5296.0,-1234.0,0.196,-0.419,-0.628,-0.626
1276976,2150.0,5020.0,-1724.0,0.201,-0.416,-0.626,-0.628
1277002,2482.0,2642.0,-1720.0,0.206,-0.412,-0.623,-0.632
1277018,2058.0,1516.0,-938.0,0.211,-0.407,-0.622,-0.635
1277035,1324.0,3230.0,-906.0,0.216,-0.401,-0.621,-0.638
1277052,936.0,3326.0,-872.0,0.219,-0.396,-0.619,-0.642
1277068,1090.0,1822.0,-1030.0,0.221,-0.391,-0.617,-0.646
1277084,20.0,1878.0,-470.0,0.223,-0.386,-0.616,-0.649
1277100,-530.0,2200.0,174.0,0.224,-0.382,-0.615,-0.652
1277117,-394.0,2218.0,544.0,0.222,-0.381,-0.615,-0.654
1277143,204.0,2952.0,690.0,0.22,-0.381,-0.615,-0.654
1277159,1026.0,4354.0,158.0,0.216,-0.385,-0.615,-0.653
1277175,958.0,4296.0,132.0,0.21,-0.392,-0.612,-0.654
1277191,1184.0,1410.0,-142.0,0.202,-0.4,-0.609,-0.654
1277207,2324.0,976.0,-1180.0,0.195,-0.406,-0.609,-0.653
1277224,3482.0,3644.0,-1810.0,0.19,-0.409,-0.611,-0.651
1277241,4264.0,5556.0,-1132.0,0.187,-0.412,-0.615,-0.646
1277268,3834.0,5566.0,-882.0,0.184,-0.415,-0.616,-0.644
1277284,4720.0,3896.0,-1206.0,0.182,-0.417,-0.618,-0.641
1277301,4780.0,4688.0,-1290.0,0.181,-0.418,-0.622,-0.637
1277317,5118.0,6728.0,-1462.0,0.182,-0.418,-0.626,-0.633
1277333,5192.0,7076.0,-1454.0,0.181,-0.418,-0.628,-0.631
1277349,5574.0,6122.0,-1270.0,0.181,-0.419,-0.628,-0.63
1277375,5720.0,5522.0,-1500.0,0.18,-0.419,-0.629,-0.629
1277392,5812.0,6972.0,-1936.0,0.181,-0.42,-0.63,-0.628
1277409,6174.0,7132.0,-1972.0,0.18,-0.421,-0.629,-0.628
1277425,6666.0,6718.0,-1624.0,0.179,-0.424,-0.627,-0.629
1277441,6932.0,5162.0,-1716.0,0.179,-0.425,-0.626,-0.629
1277458,6992.0,5706.0,-1736.0,0.18,-0.427,-0.625,-0.628
1277475,6214.0,6538.0,-1582.0,0.181,-0.427,-0.624,-0.629
1277492,6446.0,7018.0,-1438.0,0.18,-0.43,-0.621,-0.631
1277508,6876.0,5024.0,-1058.0,0.179,-0.432,-0.618,-0.632
1277524,7046.0,5344.0,-1546.0,0.181,-0.435,-0.616,-0.632
1277550,6548.0,4138.0,-1522.0,0.184,-0.436,-0.616,-0.63
1277566,6064.0,6174.0,-1724.0,0.186,-0.437,-0.614,-0.63
1277582,5962.0,5134.0,-1044.0,0.187,-0.439,-0.611,-0.631
1277598,6800.0,5546.0,-942.0,0.19,-0.441,-0.609,-0.631
1277614,6908.0,4796.0,-1310.0,0.195,-0.444,-0.607,-0.629
1277640,7272.0,4650.0,-1868.0,0.202,-0.447,-0.606,-0.626
1277657,6914.0,5492.0,-2044.0,0.209,-0.449,-0.604,-0.624
1277674,7016.0,5122.0,-1126.0,0.216,-0.452,-0.602,-0.622
1277690,7688.0,4852.0,-884.0,0.222,-0.457,-0.598,-0.62
1277707,8132.0,5014.0,-1238.0,0.228,-0.463,-0.593,-0.618
1277724,8538.0,5152.0,-1318.0,0.235,-0.47,-0.588,-0.615
1277741,8838.0,5058.0,-1376.0,0.24,-0.478,-0.581,-0.613
1277758,7720.0,5044.0,-726.0,0.246,-0.487,-0.573,-0.612
1277774,10724.0,4580.0,-1434.0,0.251,-0.496,-0.565,-0.61
1277791,10912.0,4036.0,-2528.0,0.256,-0.503,-0.558,-0.609
1277808,10782.0,3748.0,-2040.0,0.26,-0.508,-0.551,-0.608
1277834,11218.0,2668.0,-1494.0,0.262,-0.511,-0.546,-0.609
1277850,11362.0,2372.0,-1198.0,0.264,-0.512,-0.544,-0.61
1277866,11616.0,2420.0,-1232.0,0.265,-0.511,-0.544,-0.611
1277882,11448.0,2316.0,-1388.0,0.264,-0.507,-0.546,-0.612
1277898,11266.0,3036.0,-924.0,0.263,-0.503,-0.55,-0.613
1277914,11196.0,3714.0,-998.0,0.259,-0.499,-0.554,-0.614
1277940,11076.0,3934.0,-1596.0,0.253,-0.496,-0.559,-0.615
1277957,11080.0,4088.0,-2010.0,0.245,-0.493,-0.563,-0.616
1277974,10974.0,3510.0,-2092.0,0.235,-0.49,-0.568,-0.618
1277991,10926.0,4398.0,-2144.0,0.226,-0.486,-0.573,-0.619
1278008,10806.0,4764.0,-2382.0,0.216,-0.482,-0.579,-0.621
1278025,10634.0,5018.0,-2106.0,0.207,-0.477,-0.583,-0.624
1278042,10256.0,5798.0,-2010.0,0.199,-0.472,-0.589,-0.626
1278058,9916.0,5788.0,-2042.0,0.191,-0.466,-0.593,-0.628
1278074,9228.0,5334.0,-1964.0,0.184,-0.459,-0.597,-0.632
1278091,8554.0,5462.0,-1500.0,0.177,-0.452,-0.601,-0.635
1278108,7334.0,5530.0,-1156.0,0.171,-0.444,-0.605,-0.638
1278135,6958.0,5542.0,-1224.0,0.166,-0.437,-0.609,-0.641
1278152,6346.0,6306.0,-1056.0,0.161,-0.431,-0.612,-0.643
1278168,6568.0,5708.0,-1072.0,0.157,-0.427,-0.614,-0.645
1278185,5880.0,5354.0,-1288.0,0.153,-0.423,-0.616,-0.646
1278202,5698.0,5418.0,-1254.0,0.15,-0.419,-0.618,-0.648
1278218,5404.0,5652.0,-1098.0,0.148,-0.416,-0.62,-0.649
1278234,4894.0,5688.0,-796.0,0.147,-0.414,-0.62,-0.65
1278250,4540.0,5410.0,-800.0,0.146,-0.412,-0.62,-0.652
1278276,4628.0,6526.0,-798.0,0.145,-0.411,-0.62,-0.653
1278293,4378.0,5842.0,-676.0,0.147,-0.411,-0.618,-0.654
1278309,3728.0,3962.0,-1304.0,0.149,-0.41,-0.617,-0.655
1278326,3500.0,4238.0,-1248.0,0.152,-0.407,-0.618,-0.656
1278343,3696.0,4636.0,-678.0,0.157,-0.404,-0.619,-0.655
1278359,3922.0,6052.0,-1002.0,0.164,-0.401,-0.621,-0.653
1278375,4098.0,5566.0,-1200.0,0.173,-0.399,-0.623,-0.65
1278392,3642.0,4220.0,-1338.0,0.182,-0.396,-0.625,-0.648
1278409,3392.0,5572.0,-1840.0,0.193,-0.391,-0.628,-0.644
1278436,3180.0,4660.0,-1386.0,0.205,-0.386,-0.631,-0.64
1278452,2406.0,5220.0,-1826.0,0.216,-0.381,-0.635,-0.637
1278468,1650.0,5224.0,-1554.0,0.227,-0.375,-0.637,-0.634
1278485,778.0,4400.0,-1066.0,0.236,-0.371,-0.638,-0.632
1278501,216.0,3730.0,-1100.0,0.243,-0.366,-0.639,-0.631
1278518,-406.0,2856.0,-554.0,0.248,-0.361,-0.642,-0.63
1278535,-764.0,2886.0,24.0,0.252,-0.355,-0.644,-0.629
1278552,-890.0,2846.0,-606.0,0.253,-0.351,-0.647,-0.629
1278569,-128.0,2368.0,-612.0,0.252,-0.348,-0.648,-0.629
1278595,746.0,2450.0,-852.0,0.25,-0.346,-0.65,-0.629
1278611,980.0,4168.0,-1120.0,0.248,-0.346,-0.651,-0.628
1278627,1410.0,3822.0,-788.0,0.244,-0.349,-0.652,-0.628
1278643,1438.0,2386.0,-1200.0,0.239,-0.352,-0.653,-0.627
1278659,2176.0,2888.0,-2226.0,0.235,-0.354,-0.656,-0.624
1278675,3404.0,3824.0,-2012.0,0.231,-0.355,-0.661,-0.619
1278701,3270.0,4356.0,-868.0,0.229,-0.356,-0.666,-0.614
1278717,3246.0,5504.0,-714.0,0.227,-0.357,-0.672,-0.608
1278733,3708.0,5774.0,-1594.0,0.224,-0.358,-0.676,-0.604
1278750,3938.0,6090.0,-1932.0,0.221,-0.36,-0.68,-0.599
1278766,4526.0,5640.0,-2480.0,0.218,-0.361,-0.684,-0.595
1278782,4784.0,6510.0,-2016.0,0.215,-0.363,-0.687,-0.592
1278808,5478.0,7124.0,-2056.0,0.212,-0.366,-0.688,-0.59
1278825,5778.0,5962.0,-2212.0,0.208,-0.37,-0.688,-0.588
1278841,5702.0,5696.0,-2264.0,0.205,-0.373,-0.689,-0.587
1278857,6722.0,6208.0,-2032.0,0.202,-0.376,-0.69,-0.585
1278874,6302.0,6392.0,-2210.0,0.201,-0.379,-0.69,-0.584
1278891,6574.0,5626.0,-2424.0,0.2,-0.381,-0.69,-0.582
1278908,5704.0,5686.0,-2092.0,0.199,-0.382,-0.691,-0.581
1278925,5778.0,6234.0,-2284.0,0.199,-0.383,-0.691,-0.58
1278942,5736.0,5988.0,-2292.0,0.198,-0.383,-0.692,-0.579
1278959,6138.0,6442.0,-2556.0,0.199,-0.385,-0.691,-0.579
1278985,6270.0,5466.0,-2684.0,0.199,-0.386,-0.69,-0.58
1279002,5936.0,5294.0,-2404.0,0.201,-0.386,-0.688,-0.581
1279018,5398.0,4980.0,-2202.0,0.203,-0.384,-0.687,-0.582
1279035,6592.0,5576.0,-2328.0,0.206,-0.382,-0.686,-0.584
1279052,6506.0,5294.0,-2596.0,0.209,-0.379,-0.685,-0.586
1279069,6876.0,5626.0,-2670.0,0.214,-0.377,-0.683,-0.588
1279086,5942.0,5376.0,-2084.0,0.219,-0.376,-0.679,-0.591
1279102,5868.0,5698.0,-1926.0,0.224,-0.375,-0.676,-0.593
1279119,5936.0,5256.0,-1958.0,0.23,-0.376,-0.673,-0.594
1279135,6282.0,5652.0,-1838.0,0.236,-0.376,-0.671,-0.594
1279161,6642.0,5764.0,-1818.0,0.241,-0.377,-0.668,-0.594
1279177,6854.0,5862.0,-1762.0,0.246,-0.379,-0.666,-0.594
1279193,7170.0,5222.0,-1550.0,0.25,-0.382,-0.663,-0.593
1279209,7120.0,4968.0,-1562.0,0.255,-0.385,-0.661,-0.591
1279225,6956.0,5130.0,-1264.0,0.26,-0.388,-0.659,-0.589
1279241,7216.0,5066.0,-1358.0,0.265,-0.392,-0.657,-0.587
1279267,7564.0,4662.0,-2096.0,0.27,-0.395,-0.656,-0.585
1279283,7596.0,4848.0,-2076.0,0.276,-0.396,-0.654,-0.582
1279299,7186.0,5240.0,-1788.0,0.282,-0.398,-0.652,-0.58
1279315,6944.0,4998.0,-1768.0,0.287,-0.401,-0.649,-0.579
1279331,7080.0,4628.0,-1810.0,0.293,-0.403,-0.646,-0.578
1279347,7264.0,4642.0,-1898.0,0.3,-0.406,-0.642,-0.577
1279374,7416.0,4268.0,-1988.0,0.308,-0.41,-0.638,-0.575
1279391,8090.0,4460.0,-2192.0,0.316,-0.415,-0.632,-0.573
1279407,8972.0,3996.0,-2260.0,0.324,-0.42,-0.626,-0.571
1279424,10256.0,4036.0,-2282.0,0.33,-0.427,-0.619,-0.57
1279440,11194.0,3762.0,-1782.0,0.334,-0.434,-0.613,-0.57
1279457,11838.0,2796.0,-1816.0,0.336,-0.44,-0.607,-0.57
1279474,11930.0,2302.0,-1726.0,0.336,-0.442,-0.604,-0.571
1279491,11456.0,2478.0,-1016.0,0.334,-0.443,-0.604,-0.572
1279508,11118.0,2862.0,-714.0,0.33,-0.442,-0.607,-0.572
1279525,11106.0,3054.0,-1176.0,0.324,-0.441,-0.611,-0.572
1279542,11526.0,3536.0,-1732.0,0.316,-0.44,-0.616,-0.572
1279569,11656.0,3552.0,-1898.0,0.306,-0.437,-0.623,-0.571
1279585,11594.0,4120.0,-2238.0,0.295,-0.434,-0.631,-0.572
1279602,11212.0,4590.0,-2440.0,0.284,-0.43,-0.638,-0.572
1279618,12066.0,5798.0,-3030.0,0.273,-0.424,-0.647,-0.572
1279635,12366.0,7006.0,-3108.0,0.262,-0.417,-0.657,-0.57
1279651,11776.0,7986.0,-2260.0,0.249,-0.411,-0.667,-0.57
1279668,11238.0,7206.0,-2398.0,0.234,-0.405,-0.674,-0.571
1279685,10348.0,6050.0,-2518.0,0.219,-0.398,-0.682,-0.573
1279711,8836.0,5170.0,-2084.0,0.207,-0.39,-0.69,-0.573
1279727,7012.0,5302.0,-1722.0,0.197,-0.381,-0.699,-0.573
1279744,5752.0,5210.0,-1908.0,0.189,-0.373,-0.706,-0.571
1279760,4994.0,4908.0,-2120.0,0.182,-0.367,-0.713,-0.569
1279776,4312.0,5160.0,-2112.0,0.175,-0.362,-0.719,-0.567
1279792,4186.0,5220.0,-2554.0,0.17,-0.358,-0.724,-0.564
1279808,3772.0,4470.0,-2550.0,0.165,-0.356,-0.728,-0.563
1279834,3594.0,4424.0,-2448.0,0.161,-0.354,-0.731,-0.561
1279850,3276.0,4886.0,-1972.0,0.159,-0.352,-0.733,-0.56
1279866,4334.0,4364.0,-2208.0,0.157,-0.352,-0.735,-0.558
1279882,4936.0,4470.0,-3394.0,0.16,-0.351,-0.736,-0.556
1279898,4788.0,4118.0,-3046.0,0.164,-0.35,-0.737,-0.554
1279914,4112.0,4638.0,-2332.0,0.168,-0.349,-0.737,-0.553
1279940,4150.0,4430.0,-2550.0,0.174,-0.349,-0.737,-0.552
1279957,3556.0,4208.0,-2940.0,0.18,-0.35,-0.737,-0.55
1279973,2852.0,4660.0,-2702.0,0.188,-0.351,-0.737,-0.547
1279989,2350.0,5096.0,-2882.0,0.196,-0.351,-0.736,-0.544
1280006,1482.0,4492.0,-2564.0,0.206,-0.353,-0.735,-0.541
1280022,968.0,3548.0,-2502.0,0.216,-0.353,-0.734,-0.539
1280039,250.0,4036.0,-2134.0,0.226,-0.353,-0.733,-0.536
1280056,-888.0,3358.0,-1708.0,0.235,-0.353,-0.731,-0.534
1280083,-1148.0,2804.0,-1544.0,0.244,-0.353,-0.73,-0.533
1280099,-1466.0,3150.0,-1814.0,0.252,-0.352,-0.728,-0.531
1280115,-1444.0,3182.0,-1998.0,0.259,-0.352,-0.727,-0.53
1280131,-1008.0,3320.0,-2200.0,0.263,-0.353,-0.726,-0.529
1280147,-630.0,3986.0,-1866.0,0.266,-0.355,-0.725,-0.527
1280163,-554.0,3486.0,-1516.0,0.266,-0.358,-0.724,-0.526
1280180,20.0,2838.0,-1500.0,0.263,-0.361,-0.724,-0.526
1280197,654.0,3284.0,-2010.0,0.26,-0.364,-0.725,-0.525
1280224,1240.0,3056.0,-2566.0,0.257,-0.364,-0.727,-0.522
1280240,1824.0,3464.0,-2680.0,0.255,-0.364,-0.73,-0.519
1280257,1736.0,4190.0,-1844.0,0.253,-0.363,-0.733,-0.517
1280274,2096.0,4954.0,-2556.0,0.249,-0.362,-0.736,-0.515
1280291,3010.0,4992.0,-2948.0,0.243,-0.363,-0.738,-0.515
1280308,3554.0,4716.0,-3218.0,0.238,-0.364,-0.739,-0.515
1280325,3904.0,4656.0,-3210.0,0.232,-0.365,-0.74,-0.516
1280342,4534.0,5348.0,-3306.0,0.227,-0.365,-0.74,-0.517
1280359,4454.0,5586.0,-2714.0,0.222,-0.366,-0.74,-0.519
1280375,5718.0,5952.0,-3762.0,0.217,-0.367,-0.739,-0.522
1280401,5408.0,4994.0,-3376.0,0.213,-0.368,-0.737,-0.525
1280417,5696.0,5268.0,-3470.0,0.21,-0.368,-0.737,-0.527
1280433,5170.0,5558.0,-3116.0,0.208,-0.367,-0.735,-0.53
1280450,6066.0,6388.0,-3530.0,0.207,-0.367,-0.734,-0.532
1280466,6070.0,6640.0,-3518.0,0.206,-0.369,-0.731,-0.535
1280482,6976.0,6300.0,-4322.0,0.206,-0.37,-0.729,-0.538
1280498,6094.0,5392.0,-3638.0,0.206,-0.371,-0.726,-0.542
1280524,6806.0,6848.0,-3896.0,0.206,-0.371,-0.723,-0.546
1280541,6510.0,6608.0,-3290.0,0.206,-0.373,-0.718,-0.55
1280558,7770.0,6774.0,-4028.0,0.206,-0.376,-0.713,-0.555
1280574,6828.0,5128.0,-3086.0,0.207,-0.379,-0.708,-0.558
1280591,6698.0,4954.0,-2868.0,0.207,-0.382,-0.704,-0.561
1280607,6314.0,5810.0,-2434.0,0.208,-0.385,-0.701,-0.563
1280624,6474.0,5158.0,-2242.0,0.209,-0.389,-0.698,-0.564
1280641,6384.0,4952.0,-2346.0,0.209,-0.393,-0.695,-0.564
1280658,6110.0,4244.0,-2274.0,0.211,-0.398,-0.692,-0.564
1280675,6054.0,4676.0,-2578.0,0.213,-0.402,-0.69,-0.563
1280702,6652.0,5228.0,-2776.0,0.215,-0.406,-0.687,-0.562
1280718,6276.0,5004.0,-2568.0,0.218,-0.409,-0.684,-0.563
1280735,6144.0,4826.0,-2352.0,0.22,-0.413,-0.681,-0.564
1280751,6306.0,5050.0,-2396.0,0.222,-0.416,-0.677,-0.565
1280767,6068.0,4538.0,-2348.0,0.225,-0.419,-0.673,-0.566
1280783,6884.0,5120.0,-2698.0,0.229,-0.421,-0.669,-0.568
1280799,6862.0,5086.0,-2404.0,0.234,-0.423,-0.664,-0.571
1280825,6926.0,5070.0,-1870.0,0.237,-0.425,-0.659,-0.574
1280842,6922.0,4438.0,-1832.0,0.24,-0.428,-0.652,-0.578
1280858,6794.0,4110.0,-1276.0,0.243,-0.432,-0.645,-0.582
1280874,6898.0,4198.0,-1076.0,0.247,-0.437,-0.637,-0.585
1280891,7576.0,3918.0,-1416.0,0.252,-0.444,-0.628,-0.588
1280907,8184.0,3978.0,-1116.0,0.257,-0.451,-0.618,-0.591
1280923,9274.0,4174.0,-1548.0,0.264,-0.458,-0.607,-0.594
1280940,9130.0,3734.0,-2134.0,0.273,-0.464,-0.596,-0.596
1280967,9438.0,4294.0,-1894.0,0.281,-0.468,-0.586,-0.598
1280983,9290.0,4004.0,-1426.0,0.289,-0.472,-0.577,-0.601
1280999,9576.0,3642.0,-838.0,0.294,-0.474,-0.57,-0.603
1281015,10052.0,3768.0,-470.0,0.297,-0.476,-0.563,-0.606
1281031,10674.0,2964.0,-390.0,0.299,-0.479,-0.558,-0.609
1281047,11342.0,2828.0,-862.0,0.299,-0.481,-0.553,-0.611
1281064,11690.0,3242.0,-1184.0,0.298,-0.481,-0.55,-0.614
1281090,11690.0,3006.0,-1092.0,0.296,-0.48,-0.549,-0.616
1281107,11436.0,3830.0,-746.0,0.293,-0.479,-0.55,-0.619
1281124,11386.0,4484.0,-1324.0,0.287,-0.476,-0.552,-0.621
1281141,11442.0,4440.0,-1630.0,0.281,-0.473,-0.556,-0.623
1281158,11174.0,5560.0,-1786.0,0.274,-0.469,-0.56,-0.625
1281175,11028.0,6290.0,-1986.0,0.265,-0.465,-0.565,-0.628
1281191,11304.0,6834.0,-2738.0,0.256,-0.459,-0.569,-0.632
1281208,11470.0,7300.0,-2928.0,0.247,-0.453,-0.574,-0.636
1281225,11550.0,7864.0,-3192.0,0.237,-0.445,-0.579,-0.641
1281251,10644.0,7750.0,-1786.0,0.227,-0.436,-0.582,-0.648
1281268,9242.0,7140.0,-1390.0,0.216,-0.427,-0.585,-0.655
1281284,7918.0,5796.0,-848.0,0.205,-0.417,-0.588,-0.662
1281300,6996.0,5584.0,-524.0,0.196,-0.406,-0.592,-0.668
1281316,5836.0,5474.0,-320.0,0.189,-0.396,-0.596,-0.673
1281333,5184.0,4700.0,-212.0,0.181,-0.386,-0.601,-0.676
1281350,4372.0,4832.0,-364.0,0.174,-0.377,-0.606,-0.679
1281367,4150.0,4430.0,-286.0,0.166,-0.37,-0.611,-0.68
1281384,3678.0,4514.0,-276.0,0.159,-0.365,-0.616,-0.68
1281401,3300.0,4292.0,-76.0,0.15,-0.361,-0.62,-0.68
1281427,3538.0,4550.0,-208.0,0.142,-0.36,-0.625,-0.678
1281443,3734.0,4442.0,-486.0,0.135,-0.359,-0.63,-0.675
1281459,3872.0,5128.0,-742.0,0.129,-0.359,-0.635,-0.672
1281476,3804.0,4378.0,-444.0,0.123,-0.36,-0.639,-0.668
1281492,3916.0,5306.0,-914.0,0.119,-0.36,-0.644,-0.664
1281508,3938.0,5414.0,-1244.0,0.117,-0.361,-0.648,-0.66
1281525,3568.0,6050.0,-1418.0,0.117,-0.361,-0.651,-0.657
1281551,3410.0,5898.0,-1186.0,0.117,-0.361,-0.653,-0.656
1281568,3050.0,6322.0,-1300.0,0.118,-0.361,-0.654,-0.654
1281585,2856.0,6986.0,-1324.0,0.119,-0.361,-0.654,-0.654
1281601,2268.0,6662.0,-940.0,0.12,-0.362,-0.651,-0.657
1281618,1890.0,6094.0,-264.0,0.12,-0.363,-0.645,-0.661
1281635,1160.0,4932.0,234.0,0.117,-0.365,-0.638,-0.668
1281651,464.0,4582.0,306.0,0.113,-0.366,-0.63,-0.676
1281667,-478.0,3622.0,174.0,0.109,-0.367,-0.62,-0.685
1281694,-1318.0,2704.0,-90.0,0.105,-0.366,-0.609,-0.696
1281711,-1848.0,1150.0,-120.0,0.102,-0.365,-0.6,-0.705
1281727,-1588.0,2606.0,-128.0,0.1,-0.364,-0.594,-0.711
1281743,-992.0,4140.0,186.0,0.098,-0.364,-0.588,-0.716
1281760,-430.0,4518.0,214.0,0.096,-0.367,-0.58,-0.721
1281776,214.0,2922.0,-260.0,0.093,-0.372,-0.572,-0.725
1281793,442.0,1126.0,-996.0,0.09,-0.376,-0.566,-0.728
1281810,876.0,2424.0,-196.0,0.088,-0.38,-0.563,-0.729
1281827,2530.0,4936.0,636.0,0.089,-0.383,-0.561,-0.728
1281843,2000.0,6362.0,2276.0,0.09,-0.386,-0.558,-0.729
1281869,2088.0,4946.0,2700.0,0.088,-0.39,-0.554,-0.731
1281886,2268.0,5088.0,1796.0,0.085,-0.394,-0.55,-0.731
1281903,3134.0,4078.0,232.0,0.083,-0.398,-0.548,-0.731
1281919,4196.0,6554.0,266.0,0.083,-0.401,-0.548,-0.729
1281935,3616.0,6904.0,978.0,0.083,-0.405,-0.547,-0.728
1281952,4106.0,6348.0,984.0,0.084,-0.409,-0.547,-0.726
1281968,4636.0,6818.0,650.0,0.085,-0.413,-0.548,-0.723
1281994,4778.0,7218.0,270.0,0.086,-0.417,-0.547,-0.72
1282010,5418.0,6726.0,28.0,0.086,-0.422,-0.547,-0.718
1282026,6046.0,7434.0,-80.0,0.088,-0.426,-0.547,-0.715
1282042,5954.0,7506.0,-174.0,0.09,-0.43,-0.548,-0.712
1282058,6396.0,7220.0,-176.0,0.093,-0.433,-0.548,-0.709
1282074,6104.0,5774.0,-442.0,0.096,-0.436,-0.548,-0.707
1282101,6664.0,7492.0,40.0,0.099,-0.438,-0.549,-0.705
1282117,6036.0,7184.0,400.0,0.103,-0.44,-0.549,-0.703
1282134,7498.0,7230.0,-144.0,0.108,-0.443,-0.551,-0.699
1282151,6886.0,6864.0,-1038.0,0.113,-0.445,-0.552,-0.696
1282168,7120.0,5752.0,-952.0,0.118,-0.446,-0.553,-0.694
1282184,6352.0,6906.0,-202.0,0.123,-0.447,-0.554,-0.691
1282201,6198.0,5798.0,16.0,0.127,-0.449,-0.555,-0.688
1282217,6960.0,6498.0,-538.0,0.132,-0.452,-0.556,-0.685
1282233,6560.0,5250.0,-582.0,0.137,-0.455,-0.556,-0.682
1282259,6584.0,5470.0,-446.0,0.142,-0.459,-0.555,-0.679
1282275,6284.0,4806.0,-294.0,0.146,-0.463,-0.555,-0.675
1282292,6398.0,4986.0,-450.0,0.151,-0.467,-0.555,-0.671
1282308,6364.0,5082.0,-450.0,0.157,-0.471,-0.555,-0.667
1282324,6426.0,5098.0,-758.0,0.162,-0.477,-0.554,-0.663
1282341,6728.0,4436.0,-804.0,0.168,-0.482,-0.552,-0.659
1282358,7134.0,4540.0,-624.0,0.175,-0.488,-0.549,-0.655
1282374,7414.0,4774.0,-862.0,0.183,-0.495,-0.546,-0.651
1282401,7822.0,4870.0,-1088.0,0.192,-0.501,-0.542,-0.647
1282417,8286.0,4874.0,-964.0,0.201,-0.508,-0.537,-0.642
1282433,8408.0,4806.0,-960.0,0.211,-0.515,-0.532,-0.638
1282449,9278.0,5080.0,-1362.0,0.22,-0.522,-0.526,-0.634
1282465,10022.0,5236.0,-1424.0,0.23,-0.528,-0.521,-0.63
1282481,10232.0,4708.0,-1376.0,0.238,-0.534,-0.514,-0.627
1282507,10762.0,4492.0,-2196.0,0.244,-0.54,-0.507,-0.626
1282524,11006.0,3888.0,-1958.0,0.248,-0.544,-0.5,-0.626
1282540,11204.0,3782.0,-1768.0,0.251,-0.547,-0.494,-0.628
1282557,11254.0,2990.0,-1366.0,0.253,-0.548,-0.489,-0.63
1282574,11134.0,2664.0,-1264.0,0.256,-0.547,-0.486,-0.632
1282591,10980.0,2572.0,-816.0,0.256,-0.545,-0.484,-0.635
1282607,10886.0,2972.0,-618.0,0.255,-0.543,-0.484,-0.637
1282623,10738.0,2700.0,-364.0,0.251,-0.542,-0.485,-0.639
1282649,11092.0,2554.0,-822.0,0.245,-0.54,-0.487,-0.641
1282665,11274.0,2952.0,-1486.0,0.237,-0.538,-0.49,-0.643
1282681,12292.0,3482.0,-1568.0,0.228,-0.536,-0.495,-0.645
1282697,12270.0,3420.0,-1358.0,0.216,-0.533,-0.499,-0.648
1282713,12076.0,3776.0,-1490.0,0.201,-0.53,-0.504,-0.651
1282729,11100.0,3410.0,-1686.0,0.186,-0.526,-0.509,-0.655
1282746,10166.0,4252.0,-1352.0,0.173,-0.519,-0.516,-0.659
1282772,9242.0,5010.0,-1050.0,0.161,-0.513,-0.522,-0.662
1282789,7796.0,5236.0,-1086.0,0.151,-0.506,-0.529,-0.665
1282806,7186.0,5584.0,-1052.0,0.142,-0.499,-0.534,-0.667
1282822,6464.0,5632.0,-1168.0,0.134,-0.492,-0.54,-0.669
1282839,5834.0,5646.0,-1134.0,0.128,-0.485,-0.546,-0.671
1282856,5394.0,5740.0,-836.0,0.123,-0.479,-0.551,-0.672
1282873,5430.0,6396.0,-684.0,0.119,-0.474,-0.555,-0.674
1282889,5042.0,5040.0,-894.0,0.115,-0.469,-0.557,-0.676
1282906,4940.0,5344.0,-862.0,0.113,-0.464,-0.56,-0.677
1282923,4766.0,5792.0,-434.0,0.112,-0.46,-0.562,-0.678
1282949,4704.0,5350.0,-384.0,0.112,-0.456,-0.564,-0.679
1282965,4178.0,5154.0,-632.0,0.112,-0.453,-0.565,-0.68
1282982,4478.0,5028.0,-232.0,0.113,-0.449,-0.567,-0.681
1282999,3982.0,5792.0,-260.0,0.116,-0.445,-0.569,-0.681
1283015,4342.0,5896.0,-24.0,0.118,-0.443,-0.571,-0.681
1283031,4986.0,5534.0,-826.0,0.121,-0.44,-0.573,-0.681
1283047,6318.0,6542.0,-858.0,0.126,-0.438,-0.575,-0.68
1283073,6776.0,7736.0,-574.0,0.131,-0.435,-0.577,-0.679
1283090,5980.0,7074.0,-1686.0,0.136,-0.433,-0.577,-0.679
1283107,6634.0,5094.0,-2482.0,0.142,-0.428,-0.578,-0.68
1283124,4054.0,5964.0,-1400.0,0.149,-0.421,-0.58,-0.681
1283140,2582.0,5566.0,312.0,0.156,-0.415,-0.583,-0.681
1283156,1510.0,5726.0,908.0,0.162,-0.411,-0.584,-0.681
1283173,1282.0,4830.0,-268.0,0.167,-0.408,-0.584,-0.681
1283189,1370.0,3694.0,-794.0,0.172,-0.406,-0.584,-0.682
1283206,782.0,2776.0,-870.0,0.177,-0.402,-0.583,-0.683
1283233,200.0,1856.0,-884.0,0.181,-0.397,-0.584,-0.684
1283249,-516.0,1600.0,-64.0,0.186,-0.391,-0.586,-0.685
1283266,-790.0,1790.0,802.0,0.191,-0.385,-0.59,-0.684
1283282,-302.0,3794.0,1134.0,0.195,-0.38,-0.595,-0.682
1283299,-360.0,4736.0,518.0,0.196,-0.377,-0.597,-0.68
1283315,622.0,2370.0,-32.0,0.196,-0.378,-0.598,-0.679
1283331,906.0,1648.0,-840.0,0.197,-0.378,-0.601,-0.676
1283357,1454.0,3188.0,-1050.0,0.198,-0.378,-0.606,-0.671
1283374,1712.0,3932.0,-796.0,0.199,-0.377,-0.612,-0.666
1283390,1958.0,4584.0,-322.0,0.201,-0.377,-0.617,-0.661
1283407,2250.0,4842.0,-236.0,0.203,-0.377,-0.622,-0.656
1283424,2448.0,4604.0,-236.0,0.205,-0.377,-0.626,-0.652
1283441,3162.0,5174.0,-876.0,0.207,-0.376,-0.63,-0.647
1283458,2666.0,4694.0,-658.0,0.21,-0.375,-0.634,-0.643
1283475,4072.0,5850.0,-574.0,0.213,-0.375,-0.637,-0.639
1283491,4092.0,5578.0,-1056.0,0.216,-0.375,-0.64,-0.635
1283507,5332.0,5968.0,-1224.0,0.219,-0.376,-0.642,-0.631
1283534,5816.0,6234.0,-1516.0,0.222,-0.376,-0.645,-0.627
1283550,6030.0,7296.0,-1224.0,0.224,-0.377,-0.646,-0.624
1283567,6678.0,6998.0,-1182.0,0.225,-0.38,-0.648,-0.621
1283584,6072.0,6260.0,-1508.0,0.225,-0.382,-0.648,-0.619
1283601,7070.0,6258.0,-1956.0,0.226,-0.383,-0.65,-0.616
1283618,6494.0,6180.0,-1688.0,0.228,-0.384,-0.651,-0.613
1283635,7086.0,6488.0,-2120.0,0.231,-0.384,-0.653,-0.61
1283652,6888.0,6590.0,-2414.0,0.234,-0.384,-0.654,-0.608
1283669,6734.0,6544.0,-2282.0,0.237,-0.383,-0.655,-0.606
1283686,6634.0,6226.0,-1928.0,0.241,-0.382,-0.656,-0.605
1283703,6922.0,6616.0,-2232.0,0.244,-0.382,-0.656,-0.604
1283720,6702.0,5634.0,-2058.0,0.247,-0.381,-0.655,-0.604
1283737,6370.0,6168.0,-1804.0,0.251,-0.381,-0.654,-0.603
1283764,6234.0,5480.0,-1522.0,0.253,-0.38,-0.654,-0.603
1283780,6074.0,5892.0,-1414.0,0.255,-0.38,-0.653,-0.603
1283796,6696.0,5366.0,-1550.0,0.257,-0.381,-0.653,-0.602
1283812,6472.0,4870.0,-1496.0,0.26,-0.382,-0.652,-0.601
1283829,6600.0,5110.0,-1410.0,0.262,-0.382,-0.652,-0.6
1283845,5976.0,4902.0,-1072.0,0.264,-0.383,-0.652,-0.599
1283861,6488.0,5458.0,-1242.0,0.267,-0.385,-0.652,-0.597
1283887,7324.0,4860.0,-1696.0,0.269,-0.387,-0.652,-0.594
1283905,7248.0,5224.0,-1988.0,0.273,-0.388,-0.652,-0.592
1283922,7130.0,4822.0,-1564.0,0.275,-0.389,-0.651,-0.591
1283939,6772.0,4942.0,-1286.0,0.278,-0.389,-0.651,-0.59
1283955,6460.0,4536.0,-928.0,0.28,-0.39,-0.65,-0.589
1283972,6392.0,5268.0,-944.0,0.283,-0.39,-0.65,-0.587
1283989,6436.0,5072.0,-958.0,0.286,-0.392,-0.65,-0.585
1284006,6808.0,4928.0,-1298.0,0.289,-0.393,-0.649,-0.584
1284022,6912.0,4752.0,-1704.0,0.291,-0.395,-0.647,-0.583
1284039,6900.0,4736.0,-1636.0,0.295,-0.397,-0.646,-0.582
1284065,6916.0,5180.0,-1420.0,0.299,-0.398,-0.643,-0.581
1284081,6930.0,4912.0,-1350.0,0.304,-0.401,-0.64,-0.581
1284097,7086.0,5138.0,-1280.0,0.308,-0.403,-0.636,-0.581
1284113,7144.0,5136.0,-1052.0,0.313,-0.407,-0.632,-0.581
1284130,7608.0,4924.0,-1040.0,0.317,-0.411,-0.626,-0.581
1284147,8416.0,4684.0,-1240.0,0.321,-0.416,-0.62,-0.582
1284164,8974.0,4250.0,-1466.0,0.325,-0.419,-0.614,-0.584
1284181,9516.0,4364.0,-1590.0,0.329,-0.421,-0.609,-0.586
1284207,10130.0,4648.0,-1572.0,0.333,-0.422,-0.604,-0.588
1284224,10612.0,4510.0,-1380.0,0.336,-0.423,-0.6,-0.591
1284241,11024.0,4572.0,-1374.0,0.336,-0.422,-0.597,-0.594
1284257,11458.0,4312.0,-1250.0,0.334,-0.422,-0.595,-0.597
1284273,11924.0,4416.0,-1424.0,0.33,-0.42,-0.595,-0.601
1284290,12140.0,3988.0,-1634.0,0.324,-0.418,-0.596,-0.604
1284306,11740.0,4264.0,-1250.0,0.316,-0.415,-0.598,-0.608
1284323,11228.0,3856.0,-1382.0,0.307,-0.413,-0.602,-0.611
1284339,11122.0,4328.0,-1776.0,0.298,-0.41,-0.606,-0.614
1284356,10808.0,4328.0,-1710.0,0.287,-0.408,-0.61,-0.616
1284382,10880.0,4936.0,-2052.0,0.277,-0.406,-0.614,-0.618
1284399,10118.0,4856.0,-1850.0,0.266,-0.404,-0.618,-0.619
1284416,9884.0,5058.0,-2370.0,0.255,-0.401,-0.623,-0.621
1284432,9384.0,5520.0,-2066.0,0.245,-0.398,-0.628,-0.622
1284448,8836.0,6002.0,-2016.0,0.235,-0.394,-0.633,-0.624
1284464,7914.0,5632.0,-1804.0,0.225,-0.391,-0.637,-0.625
1284480,7338.0,5824.0,-1572.0,0.215,-0.387,-0.642,-0.626
1284506,6488.0,5688.0,-1456.0,0.206,-0.384,-0.646,-0.626
1284523,6410.0,5034.0,-1596.0,0.198,-0.381,-0.65,-0.626
1284539,5980.0,5318.0,-1478.0,0.191,-0.378,-0.655,-0.626
1284556,5542.0,5282.0,-1232.0,0.184,-0.376,-0.658,-0.626
1284572,5016.0,5212.0,-1162.0,0.177,-0.373,-0.661,-0.626
1284589,4998.0,5044.0,-1266.0,0.171,-0.371,-0.664,-0.626
1284609,4920.0,4772.0,-1322.0,0.166,-0.368,-0.667,-0.626
1284625,4394.0,4982.0,-1282.0,0.161,-0.366,-0.669,-0.626
1284641,4484.0,4918.0,-1328.0,0.158,-0.363,-0.672,-0.626
1284658,3940.0,5670.0,-1270.0,0.157,-0.36,-0.674,-0.625
1284675,4114.0,5286.0,-1368.0,0.155,-0.358,-0.676,-0.625
1284702,3796.0,5230.0,-1248.0,0.155,-0.356,-0.678,-0.624
1284719,3492.0,5094.0,-872.0,0.156,-0.354,-0.679,-0.623
1284736,4124.0,5920.0,-974.0,0.158,-0.352,-0.681,-0.622
1284755,3684.0,5130.0,-1114.0,0.161,-0.35,-0.683,-0.621
1284771,4020.0,5646.0,-1494.0,0.165,-0.349,-0.685,-0.618
1284787,3920.0,5796.0,-1690.0,0.171,-0.347,-0.686,-0.617
1284803,3538.0,5654.0,-1848.0,0.177,-0.344,-0.687,-0.615
1284820,3178.0,5474.0,-1410.0,0.184,-0.341,-0.687,-0.615
1284837,3136.0,5914.0,-1596.0,0.191,-0.338,-0.687,-0.615
1284854,2194.0,5368.0,-1698.0,0.2,-0.334,-0.686,-0.615
1284870,1480.0,5104.0,-1628.0,0.208,-0.329,-0.686,-0.615
1284887,364.0,5352.0,-1220.0,0.216,-0.324,-0.685,-0.615
1284913,-708.0,4754.0,-1054.0,0.223,-0.32,-0.685,-0.616
1284930,-1104.0,3972.0,-1258.0,0.227,-0.316,-0.685,-0.616
1284946,-1674.0,2708.0,-900.0,0.23,-0.312,-0.685,-0.617
1284963,-2210.0,3244.0,-940.0,0.232,-0.309,-0.686,-0.616
1284980,-1674.0,3598.0,-1148.0,0.231,-0.308,-0.688,-0.615
1284997,-1072.0,2706.0,-1630.0,0.23,-0.307,-0.69,-0.614
1285013,-464.0,2884.0,-2064.0,0.227,-0.307,-0.693,-0.612
1285030,114.0,3398.0,-1696.0,0.224,-0.307,-0.695,-0.61
1285047,434.0,4222.0,-1232.0,0.22,-0.308,-0.697,-0.609
1285073,1098.0,4480.0,-1418.0,0.214,-0.31,-0.699,-0.608
1285089,2018.0,4426.0,-1626.0,0.208,-0.311,-0.701,-0.607
1285105,1976.0,4840.0,-1524.0,0.204,-0.312,-0.703,-0.605
1285122,2638.0,5218.0,-1660.0,0.199,-0.313,-0.706,-0.604
1285138,3180.0,6220.0,-2356.0,0.196,-0.313,-0.708,-0.602
1285154,3978.0,7150.0,-2940.0,0.193,-0.313,-0.71,-0.601
1285171,4470.0,7146.0,-2870.0,0.19,-0.315,-0.71,-0.601
1285188,4722.0,6372.0,-2892.0,0.187,-0.317,-0.709,-0.601
1285215,5198.0,7162.0,-2760.0,0.184,-0.319,-0.708,-0.603
1285231,4984.0,7582.0,-2288.0,0.181,-0.321,-0.705,-0.605
1285247,5382.0,6756.0,-2398.0,0.179,-0.324,-0.703,-0.608
1285263,4984.0,6308.0,-2400.0,0.178,-0.326,-0.7,-0.61
1285279,6154.0,7606.0,-2584.0,0.178,-0.329,-0.697,-0.612
1285296,5400.0,5828.0,-2124.0,0.178,-0.331,-0.693,-0.614
1285312,5712.0,7202.0,-2226.0,0.179,-0.333,-0.691,-0.616
1285339,5366.0,6734.0,-1908.0,0.179,-0.336,-0.688,-0.618
1285356,6332.0,7552.0,-2168.0,0.18,-0.34,-0.684,-0.62
1285373,6422.0,5962.0,-2030.0,0.182,-0.344,-0.681,-0.621
1285389,6692.0,6584.0,-1796.0,0.184,-0.347,-0.678,-0.621
1285406,6064.0,6074.0,-1176.0,0.185,-0.35,-0.676,-0.621
1285422,6342.0,7120.0,-1312.0,0.186,-0.355,-0.674,-0.621
1285439,6160.0,6032.0,-1028.0,0.187,-0.36,-0.673,-0.619
1285455,6180.0,6496.0,-1284.0,0.188,-0.365,-0.672,-0.617
1285472,6096.0,5554.0,-1276.0,0.19,-0.37,-0.671,-0.614
1285489,6588.0,6136.0,-1706.0,0.191,-0.374,-0.67,-0.611
1285516,6206.0,5584.0,-1630.0,0.194,-0.379,-0.67,-0.609
1285533,7076.0,6656.0,-2006.0,0.197,-0.383,-0.668,-0.606
1285550,6676.0,5664.0,-1916.0,0.201,-0.387,-0.667,-0.605
1285566,6846.0,5922.0,-2044.0,0.206,-0.389,-0.665,-0.604
1285583,6282.0,5700.0,-1874.0,0.212,-0.391,-0.663,-0.603
1285600,6206.0,5926.0,-1892.0,0.217,-0.393,-0.66,-0.602
1285616,5908.0,5550.0,-1844.0,0.223,-0.394,-0.658,-0.601
1285632,5984.0,5484.0,-1798.0,0.229,-0.395,-0.656,-0.601
1285658,6128.0,5918.0,-1744.0,0.236,-0.397,-0.653,-0.601
1285674,5980.0,4794.0,-1766.0,0.242,-0.399,-0.649,-0.601
1285690,6076.0,4870.0,-1612.0,0.249,-0.401,-0.645,-0.601
1285706,6160.0,4588.0,-1360.0,0.255,-0.402,-0.642,-0.601
1285723,6176.0,4594.0,-1210.0,0.262,-0.404,-0.638,-0.6
1285739,6366.0,4184.0,-1312.0,0.27,-0.407,-0.635,-0.599
1285755,6776.0,3510.0,-1698.0,0.278,-0.409,-0.631,-0.598
1285782,6694.0,3754.0,-1648.0,0.287,-0.411,-0.627,-0.596
1285799,6630.0,3892.0,-1474.0,0.296,-0.414,-0.623,-0.594
1285816,6786.0,3992.0,-1338.0,0.303,-0.419,-0.618,-0.592
1285833,7210.0,3814.0,-1402.0,0.31,-0.426,-0.611,-0.591
1285849,7900.0,3566.0,-1424.0,0.317,-0.433,-0.604,-0.589
1285866,8678.0,3602.0,-1616.0,0.324,-0.44,-0.596,-0.588
1285883,9358.0,3586.0,-1552.0,0.33,-0.448,-0.588,-0.587
1285900,9744.0,3198.0,-1426.0,0.336,-0.454,-0.581,-0.587
1285917,10292.0,2920.0,-1688.0,0.341,-0.458,-0.574,-0.587
1285934,10538.0,2956.0,-1604.0,0.345,-0.46,-0.57,-0.587
1285951,10608.0,3048.0,-1104.0,0.348,-0.46,-0.567,-0.588
1285968,10984.0,3236.0,-1110.0,0.348,-0.46,-0.565,-0.59
1285985,11202.0,3358.0,-1180.0,0.346,-0.46,-0.565,-0.591
1286002,11266.0,3340.0,-1076.0,0.341,-0.46,-0.565,-0.594
1286029,11346.0,3090.0,-1128.0,0.335,-0.46,-0.567,-0.596
1286046,11358.0,3514.0,-1344.0,0.328,-0.459,-0.57,-0.598
1286062,10904.0,3938.0,-1180.0,0.321,-0.457,-0.574,-0.599
1286078,10634.0,4292.0,-1280.0,0.312,-0.456,-0.578,-0.601
1286094,10804.0,4704.0,-1592.0,0.304,-0.454,-0.582,-0.602
1286110,10746.0,5030.0,-1650.0,0.295,-0.452,-0.587,-0.603
1286126,10714.0,5576.0,-1668.0,0.286,-0.45,-0.591,-0.605
1286152,10410.0,5566.0,-1852.0,0.277,-0.448,-0.595,-0.608
1286169,10412.0,5776.0,-2192.0,0.269,-0.444,-0.598,-0.611
1286187,10160.0,5570.0,-2158.0,0.26,-0.44,-0.601,-0.615
1286204,9112.0,5574.0,-1510.0,0.252,-0.434,-0.604,-0.619
1286220,8240.0,5598.0,-946.0,0.244,-0.429,-0.607,-0.623
1286237,7168.0,5706.0,-724.0,0.237,-0.423,-0.61,-0.627
1286254,6762.0,5196.0,-1106.0,0.23,-0.418,-0.613,-0.63
1286271,6616.0,5552.0,-1274.0,0.225,-0.414,-0.616,-0.631
1286288,5790.0,5666.0,-1074.0,0.221,-0.41,-0.618,-0.633
1286304,5750.0,5686.0,-1234.0,0.216,-0.407,-0.621,-0.634
1286330,5190.0,5448.0,-1148.0,0.212,-0.404,-0.622,-0.636
1286347,4736.0,4794.0,-1168.0,0.208,-0.403,-0.624,-0.637
1286363,4496.0,4498.0,-1010.0,0.205,-0.401,-0.625,-0.638
1286380,3986.0,5048.0,-872.0,0.203,-0.4,-0.627,-0.637
1286397,3742.0,4982.0,-840.0,0.203,-0.4,-0.628,-0.637
1286413,4342.0,5346.0,-1226.0,0.203,-0.4,-0.628,-0.636
1286429,4366.0,5316.0,-1330.0,0.204,-0.4,-0.628,-0.635
1286446,4378.0,4444.0,-1234.0,0.206,-0.4,-0.628,-0.635
1286472,4086.0,5136.0,-1208.0,0.209,-0.398,-0.629,-0.634
1286489,2602.0,4702.0,-864.0,0.211,-0.397,-0.629,-0.635
1286506,3468.0,5232.0,-766.0,0.214,-0.396,-0.629,-0.634
1286523,2036.0,5240.0,-544.0,0.218,-0.395,-0.629,-0.633
1286539,2276.0,4792.0,-926.0,0.221,-0.396,-0.628,-0.632
1286555,1850.0,4988.0,-1346.0,0.223,-0.396,-0.628,-0.632
1286571,882.0,4040.0,-1404.0,0.226,-0.394,-0.627,-0.633
1286588,26.0,4202.0,-1126.0,0.229,-0.391,-0.627,-0.634
1286605,-842.0,4582.0,-698.0,0.23,-0.386,-0.627,-0.636
1286631,-1136.0,4428.0,-1296.0,0.231,-0.382,-0.627,-0.639
1286648,-572.0,1806.0,-1692.0,0.231,-0.377,-0.626,-0.643
1286665,-698.0,1366.0,-1072.0,0.23,-0.371,-0.627,-0.645
1286681,-928.0,3402.0,-518.0,0.228,-0.367,-0.629,-0.647
1286698,-312.0,5266.0,-382.0,0.224,-0.367,-0.63,-0.647
1286715,198.0,5652.0,-444.0,0.218,-0.371,-0.629,-0.647
1286731,1306.0,3562.0,-1050.0,0.212,-0.379,-0.627,-0.647
1286747,1644.0,544.0,-946.0,0.205,-0.385,-0.624,-0.648
1286773,2876.0,2078.0,-274.0,0.199,-0.389,-0.626,-0.646
1286790,3056.0,5228.0,-234.0,0.193,-0.392,-0.628,-0.644
1286806,3412.0,5222.0,82.0,0.188,-0.396,-0.629,-0.643
1286822,3560.0,4148.0,-316.0,0.185,-0.398,-0.631,-0.64
1286838,3864.0,4300.0,-1196.0,0.183,-0.399,-0.633,-0.637
1286855,4788.0,5696.0,-2004.0,0.183,-0.4,-0.637,-0.633
1286872,5114.0,7392.0,-1778.0,0.184,-0.402,-0.639,-0.63
1286898,5470.0,7458.0,-1814.0,0.183,-0.406,-0.638,-0.628
1286914,5724.0,5614.0,-1938.0,0.181,-0.41,-0.636,-0.628
1286930,6018.0,6480.0,-2594.0,0.179,-0.414,-0.634,-0.628
1286946,6572.0,6132.0,-2282.0,0.178,-0.418,-0.632,-0.629
1286962,6422.0,7544.0,-1280.0,0.177,-0.421,-0.628,-0.629
1286978,6076.0,6626.0,-712.0,0.177,-0.426,-0.624,-0.631
1286994,6420.0,5484.0,-1372.0,0.177,-0.431,-0.621,-0.631
1287020,7104.0,5834.0,-1790.0,0.179,-0.434,-0.618,-0.63
1287037,6516.0,5356.0,-1786.0,0.182,-0.437,-0.615,-0.63
1287054,7112.0,6822.0,-1422.0,0.186,-0.44,-0.613,-0.629
1287071,5878.0,5618.0,-864.0,0.188,-0.443,-0.611,-0.629
1287088,7118.0,6270.0,-1548.0,0.19,-0.446,-0.608,-0.628
1287105,6618.0,5194.0,-1262.0,0.192,-0.45,-0.606,-0.628
1287122,7082.0,5250.0,-1536.0,0.196,-0.453,-0.604,-0.626
1287138,6296.0,5274.0,-1274.0,0.2,-0.456,-0.602,-0.624
1287154,8066.0,6700.0,-1194.0,0.205,-0.46,-0.601,-0.621
1287180,6822.0,5802.0,-1306.0,0.21,-0.465,-0.597,-0.619
1287196,8968.0,5522.0,-1996.0,0.216,-0.469,-0.595,-0.616
1287212,8104.0,5916.0,-2022.0,0.222,-0.472,-0.593,-0.614
1287228,8994.0,4724.0,-2440.0,0.227,-0.473,-0.591,-0.613
1287244,8510.0,5296.0,-2282.0,0.233,-0.473,-0.589,-0.613
1287260,7878.0,4728.0,-1982.0,0.238,-0.472,-0.586,-0.614
1287286,7102.0,3886.0,-1070.0,0.244,-0.471,-0.584,-0.614
1287303,6558.0,3986.0,-864.0,0.25,-0.471,-0.583,-0.614
1287320,6482.0,4110.0,-476.0,0.255,-0.471,-0.581,-0.612
1287336,6886.0,4046.0,-762.0,0.261,-0.473,-0.58,-0.61
1287352,6986.0,3534.0,-884.0,0.267,-0.474,-0.579,-0.607
1287368,7560.0,3992.0,-1024.0,0.273,-0.476,-0.578,-0.604
1287385,7590.0,4016.0,-938.0,0.28,-0.477,-0.577,-0.601
1287402,7986.0,3834.0,-1192.0,0.287,-0.479,-0.575,-0.597
1287419,7912.0,4068.0,-1188.0,0.294,-0.482,-0.573,-0.594
1287446,8454.0,3876.0,-1220.0,0.299,-0.484,-0.571,-0.592
1287462,9174.0,4040.0,-936.0,0.305,-0.487,-0.568,-0.59
1287478,9238.0,3782.0,-2046.0,0.31,-0.489,-0.565,-0.588
1287494,9550.0,2990.0,-2154.0,0.314,-0.488,-0.563,-0.587
1287511,10166.0,3934.0,-1566.0,0.318,-0.487,-0.562,-0.588
1287528,10744.0,3514.0,-1660.0,0.32,-0.485,-0.561,-0.589
1287544,11560.0,2178.0,-1956.0,0.321,-0.482,-0.562,-0.59
1287560,11434.0,3278.0,-1190.0,0.321,-0.477,-0.563,-0.593
1287586,10982.0,3084.0,-320.0,0.32,-0.473,-0.566,-0.595
1287603,10780.0,3252.0,-268.0,0.316,-0.469,-0.569,-0.597
1287620,10798.0,3554.0,-586.0,0.312,-0.465,-0.573,-0.599
1287637,10864.0,3476.0,-1092.0,0.306,-0.461,-0.578,-0.599
1287654,10944.0,3900.0,-1384.0,0.301,-0.457,-0.585,-0.599
1287671,11040.0,4700.0,-1966.0,0.294,-0.452,-0.592,-0.599
1287688,10598.0,4588.0,-2126.0,0.286,-0.447,-0.599,-0.6
1287705,9992.0,4922.0,-2170.0,0.278,-0.441,-0.606,-0.601
1287721,9476.0,5554.0,-2020.0,0.27,-0.435,-0.612,-0.602
1287747,9044.0,5940.0,-1898.0,0.261,-0.43,-0.619,-0.603
1287763,8422.0,5776.0,-1788.0,0.252,-0.425,-0.624,-0.605
1287779,7936.0,5942.0,-1708.0,0.243,-0.421,-0.629,-0.606
1287795,7342.0,5650.0,-1504.0,0.234,-0.416,-0.634,-0.608
1287811,7000.0,5482.0,-1812.0,0.227,-0.412,-0.639,-0.609
1287828,6734.0,5850.0,-2016.0,0.222,-0.408,-0.643,-0.609
1287845,6146.0,6008.0,-1914.0,0.217,-0.404,-0.646,-0.61
1287871,5710.0,5686.0,-1792.0,0.212,-0.401,-0.649,-0.61
1287888,5620.0,5410.0,-1858.0,0.207,-0.398,-0.652,-0.611
1287905,4974.0,5528.0,-1576.0,0.202,-0.396,-0.654,-0.613
1287922,4544.0,5426.0,-1206.0,0.198,-0.394,-0.655,-0.614
1287939,4572.0,5182.0,-1382.0,0.194,-0.393,-0.656,-0.614
1287955,4674.0,5334.0,-1542.0,0.191,-0.392,-0.657,-0.615
1287971,4590.0,4912.0,-1478.0,0.189,-0.392,-0.657,-0.616
1287987,4578.0,4468.0,-1488.0,0.187,-0.391,-0.658,-0.616
1288004,4686.0,5462.0,-1618.0,0.186,-0.39,-0.658,-0.616
1288021,3922.0,4806.0,-1364.0,0.186,-0.389,-0.658,-0.617
1288038,4370.0,5056.0,-1482.0,0.186,-0.388,-0.659,-0.617
1288065,4450.0,5050.0,-1700.0,0.186,-0.386,-0.658,-0.619
1288081,4296.0,4814.0,-1618.0,0.188,-0.384,-0.658,-0.62
1288098,4358.0,5032.0,-1286.0,0.189,-0.381,-0.658,-0.621
1288115,4042.0,3972.0,-1108.0,0.191,-0.378,-0.658,-0.623
1288131,4538.0,3992.0,-1386.0,0.193,-0.373,-0.659,-0.624
1288147,4020.0,4420.0,-1258.0,0.196,-0.368,-0.66,-0.625
1288164,4008.0,5136.0,-888.0,0.2,-0.362,-0.662,-0.625
1288180,2486.0,4418.0,-1320.0,0.204,-0.356,-0.663,-0.626
1288206,1672.0,4430.0,-1836.0,0.21,-0.349,-0.666,-0.625
1288222,142.0,5148.0,-1830.0,0.218,-0.341,-0.67,-0.622
1288238,-962.0,4916.0,-2336.0,0.226,-0.336,-0.673,-0.619
1288255,-1648.0,4300.0,-2154.0,0.232,-0.333,-0.674,-0.618
1288271,-2410.0,4522.0,-1940.0,0.236,-0.333,-0.674,-0.616
1288288,-2252.0,2776.0,-2054.0,0.236,-0.334,-0.674,-0.615
1288305,-1580.0,2458.0,-1438.0,0.235,-0.337,-0.675,-0.614
1288322,-806.0,3196.0,-1078.0,0.232,-0.339,-0.676,-0.611
1288339,276.0,3284.0,-1112.0,0.229,-0.343,-0.678,-0.609
1288365,1210.0,3134.0,-1334.0,0.225,-0.346,-0.681,-0.605
1288382,1822.0,3368.0,-1594.0,0.223,-0.348,-0.686,-0.599
1288399,2180.0,3494.0,-1466.0,0.221,-0.349,-0.691,-0.593
1288416,2204.0,4746.0,-1726.0,0.22,-0.349,-0.697,-0.587
1288432,2858.0,5210.0,-1966.0,0.218,-0.349,-0.702,-0.581
1288449,3052.0,5682.0,-3082.0,0.216,-0.351,-0.706,-0.576
1288466,3876.0,5932.0,-3504.0,0.214,-0.353,-0.709,-0.572
1288483,3062.0,5866.0,-2688.0,0.211,-0.355,-0.71,-0.57
1288499,4088.0,6364.0,-3090.0,0.207,-0.358,-0.71,-0.57
1288516,4852.0,5804.0,-3392.0,0.203,-0.36,-0.71,-0.57
1288543,5120.0,6462.0,-3020.0,0.201,-0.363,-0.709,-0.57
1288560,4908.0,6184.0,-3038.0,0.199,-0.366,-0.707,-0.571
1288576,4630.0,5856.0,-2694.0,0.197,-0.368,-0.705,-0.573
1288592,5890.0,6748.0,-3186.0,0.195,-0.371,-0.704,-0.574
1288608,6000.0,6608.0,-3242.0,0.193,-0.374,-0.701,-0.575
1288624,6260.0,6782.0,-3058.0,0.192,-0.377,-0.698,-0.577
1288640,5834.0,6492.0,-2730.0,0.19,-0.38,-0.696,-0.579
1288666,6658.0,6666.0,-2996.0,0.19,-0.383,-0.693,-0.58
1288683,6502.0,6472.0,-2650.0,0.19,-0.386,-0.691,-0.581
1288700,6884.0,6896.0,-2942.0,0.19,-0.389,-0.688,-0.582
1288717,6224.0,6436.0,-2298.0,0.19,-0.391,-0.686,-0.584
1288734,6030.0,5530.0,-2210.0,0.188,-0.394,-0.683,-0.585
1288751,6806.0,6062.0,-2558.0,0.189,-0.396,-0.682,-0.585
1288770,6328.0,5580.0,-2112.0,0.191,-0.399,-0.68,-0.585
1288787,6540.0,6710.0,-2330.0,0.193,-0.401,-0.678,-0.585
1288804,6118.0,5718.0,-2204.0,0.196,-0.404,-0.676,-0.585
1288821,6232.0,6038.0,-2280.0,0.198,-0.407,-0.673,-0.585
1288838,5820.0,5468.0,-2090.0,0.2,-0.41,-0.671,-0.585
1288854,6508.0,5356.0,-2382.0,0.203,-0.413,-0.668,-0.584
1288870,6532.0,5618.0,-2080.0,0.207,-0.416,-0.665,-0.584
1288896,6424.0,5426.0,-2026.0,0.211,-0.419,-0.662,-0.585
1288912,6624.0,5294.0,-2168.0,0.214,-0.422,-0.659,-0.585
1288928,6322.0,5020.0,-1826.0,0.218,-0.424,-0.655,-0.586
1288944,6366.0,4948.0,-1680.0,0.221,-0.427,-0.652,-0.587
1288960,6348.0,4510.0,-1768.0,0.225,-0.429,-0.649,-0.587
1288986,6332.0,4356.0,-1858.0,0.229,-0.431,-0.646,-0.587
1289003,6352.0,4540.0,-1766.0,0.234,-0.433,-0.642,-0.587
1289020,6286.0,4748.0,-1576.0,0.24,-0.435,-0.639,-0.587
1289037,6442.0,4902.0,-1516.0,0.246,-0.438,-0.635,-0.587
1289054,6898.0,4600.0,-1680.0,0.251,-0.442,-0.63,-0.587
1289070,7434.0,4486.0,-2018.0,0.258,-0.445,-0.625,-0.587
1289087,7694.0,3966.0,-2242.0,0.265,-0.448,-0.62,-0.587
1289104,7786.0,4650.0,-1894.0,0.273,-0.45,-0.614,-0.588
1289121,7944.0,4408.0,-1860.0,0.28,-0.453,-0.608,-0.589
1289138,8628.0,4288.0,-1896.0,0.286,-0.455,-0.601,-0.591
1289155,9444.0,4230.0,-1872.0,0.292,-0.458,-0.594,-0.593
1289171,10352.0,4086.0,-2022.0,0.298,-0.46,-0.588,-0.595
1289197,10776.0,4228.0,-1960.0,0.304,-0.461,-0.581,-0.597
1289213,10970.0,4390.0,-1758.0,0.309,-0.462,-0.577,-0.599
1289229,11032.0,4522.0,-1502.0,0.311,-0.463,-0.573,-0.601
1289245,11262.0,4304.0,-1554.0,0.309,-0.464,-0.57,-0.603
1289261,11498.0,3708.0,-1572.0,0.305,-0.464,-0.57,-0.605
1289277,11638.0,3828.0,-1732.0,0.299,-0.464,-0.571,-0.608
1289303,11238.0,3314.0,-1704.0,0.292,-0.462,-0.574,-0.609
1289320,10570.0,3866.0,-1600.0,0.285,-0.46,-0.579,-0.61
1289336,9946.0,3616.0,-1514.0,0.277,-0.458,-0.584,-0.611
1289352,9522.0,4654.0,-1652.0,0.27,-0.455,-0.59,-0.61
1289369,9392.0,4526.0,-1904.0,0.263,-0.453,-0.596,-0.609
1289386,9218.0,4950.0,-2202.0,0.255,-0.45,-0.601,-0.609
1289403,8490.0,4828.0,-2036.0,0.249,-0.447,-0.607,-0.608
1289420,8232.0,5142.0,-2212.0,0.242,-0.443,-0.612,-0.608
1289436,8194.0,5196.0,-2156.0,0.237,-0.439,-0.618,-0.608
1289463,8290.0,5506.0,-2146.0,0.232,-0.435,-0.623,-0.607
1289479,8400.0,5512.0,-2318.0,0.228,-0.43,-0.629,-0.606
1289495,7806.0,5314.0,-1696.0,0.224,-0.424,-0.635,-0.605
1289511,7126.0,5292.0,-1678.0,0.22,-0.419,-0.642,-0.604
1289527,6570.0,4904.0,-1602.0,0.216,-0.413,-0.649,-0.601
1289543,6614.0,5072.0,-1820.0,0.214,-0.407,-0.656,-0.598
1289569,5902.0,4930.0,-1838.0,0.211,-0.402,-0.664,-0.594
1289586,5376.0,5302.0,-2266.0,0.209,-0.397,-0.671,-0.59
1289603,5280.0,5294.0,-2522.0,0.208,-0.392,-0.678,-0.586
1289620,5120.0,5714.0,-2496.0,0.207,-0.387,-0.684,-0.582
1289637,4224.0,5486.0,-2346.0,0.207,-0.383,-0.689,-0.579
1289653,3810.0,5566.0,-2342.0,0.207,-0.381,-0.693,-0.575
1289669,4458.0,6120.0,-2484.0,0.208,-0.379,-0.697,-0.572
1289686,3884.0,5514.0,-2510.0,0.21,-0.378,-0.7,-0.569
1289703,5052.0,6158.0,-2860.0,0.212,-0.377,-0.702,-0.566
1289719,4442.0,6512.0,-3036.0,0.213,-0.376,-0.704,-0.564
1289746,4182.0,5966.0,-2832.0,0.215,-0.375,-0.704,-0.563
1289762,4418.0,6448.0,-2554.0,0.217,-0.373,-0.705,-0.563
1289779,3858.0,6588.0,-2148.0,0.219,-0.371,-0.705,-0.563
1289796,3298.0,6128.0,-2462.0,0.22,-0.368,-0.706,-0.564
1289813,3748.0,6238.0,-3050.0,0.222,-0.365,-0.706,-0.565
1289830,3122.0,5988.0,-2450.0,0.226,-0.36,-0.705,-0.568
1289846,1692.0,5348.0,-1988.0,0.229,-0.356,-0.703,-0.572
1289862,-178.0,4476.0,-1304.0,0.23,-0.351,-0.702,-0.576
1289879,-1018.0,4006.0,-1112.0,0.231,-0.348,-0.7,-0.579
1289896,-1106.0,3366.0,-1070.0,0.231,-0.346,-0.698,-0.582
1289923,-1622.0,2160.0,-820.0,0.229,-0.345,-0.697,-0.585
1289940,-1788.0,1892.0,-902.0,0.226,-0.344,-0.697,-0.587
1289957,-1522.0,1258.0,-1166.0,0.222,-0.344,-0.697,-0.589
1289974,-668.0,2004.0,-1350.0,0.218,-0.343,-0.698,-0.59
1289990,-346.0,1920.0,-1298.0,0.214,-0.342,-0.699,-0.591
1290007,200.0,2630.0,-1262.0,0.211,-0.341,-0.7,-0.591
1290024,454.0,2560.0,-1076.0,0.207,-0.34,-0.701,-0.592
1290040,238.0,2736.0,-876.0,0.204,-0.339,-0.702,-0.592
1290066,644.0,3328.0,-610.0,0.201,-0.339,-0.704,-0.591
1290083,1296.0,4356.0,-1526.0,0.199,-0.34,-0.705,-0.59
1290100,1730.0,4104.0,-1866.0,0.198,-0.342,-0.706,-0.588
1290117,2726.0,5990.0,-1824.0,0.197,-0.344,-0.706,-0.586
1290134,2682.0,4524.0,-2548.0,0.197,-0.348,-0.705,-0.585
1290151,3502.0,5180.0,-2496.0,0.198,-0.352,-0.703,-0.585
1290168,4164.0,6200.0,-3122.0,0.2,-0.357,-0.701,-0.585
1290185,4692.0,6616.0,-2690.0,0.203,-0.361,-0.697,-0.585
1290202,4786.0,6696.0,-2170.0,0.205,-0.367,-0.692,-0.587
1290219,4496.0,5320.0,-2130.0,0.208,-0.373,-0.686,-0.589
1290236,6258.0,6216.0,-2890.0,0.211,-0.379,-0.682,-0.589
1290253,5810.0,6056.0,-2384.0,0.217,-0.384,-0.677,-0.589
1290269,7654.0,7718.0,-2806.0,0.222,-0.39,-0.672,-0.589
1290286,6498.0,5776.0,-2140.0,0.228,-0.396,-0.666,-0.589
1290313,7030.0,7568.0,-2438.0,0.233,-0.402,-0.661,-0.589
1290329,6326.0,6278.0,-2098.0,0.239,-0.41,-0.653,-0.59
1290346,8906.0,6512.0,-3488.0,0.245,-0.417,-0.646,-0.59
1290363,9108.0,6120.0,-3378.0,0.251,-0.424,-0.637,-0.592
1290380,9124.0,5848.0,-2052.0,0.258,-0.429,-0.629,-0.595
1290396,8138.0,5444.0,-1544.0,0.262,-0.435,-0.62,-0.598
1290413,7992.0,5060.0,-1290.0,0.266,-0.441,-0.612,-0.6
1290430,7688.0,4592.0,-886.0,0.271,-0.448,-0.603,-0.601
1290446,7520.0,4110.0,-1056.0,0.277,-0.455,-0.595,-0.601
1290472,7476.0,3396.0,-1432.0,0.283,-0.464,-0.587,-0.6
1290488,7702.0,3368.0,-1718.0,0.289,-0.474,-0.578,-0.598
1290504,8054.0,4712.0,-1480.0,0.296,-0.485,-0.568,-0.596
1290521,8224.0,4818.0,-670.0,0.3,-0.499,-0.555,-0.594
1290537,9006.0,5150.0,136.0,0.301,-0.516,-0.539,-0.593
1290553,11274.0,2832.0,-1678.0,0.303,-0.533,-0.522,-0.593
1290570,12378.0,874.0,-3604.0,0.309,-0.543,-0.509,-0.592
1290587,12180.0,2364.0,-3036.0,0.317,-0.547,-0.5,-0.592
1290613,11724.0,3908.0,-2232.0,0.325,-0.547,-0.492,-0.594
1290630,10836.0,3612.0,-1582.0,0.331,-0.545,-0.485,-0.598
1290646,10304.0,3668.0,-830.0,0.333,-0.544,-0.479,-0.603
1290662,10178.0,3446.0,-452.0,0.33,-0.547,-0.472,-0.608
1290679,10100.0,2240.0,-554.0,0.323,-0.551,-0.464,-0.614
1290695,10044.0,2258.0,-902.0,0.315,-0.556,-0.458,-0.619
1290711,9486.0,2250.0,-774.0,0.306,-0.56,-0.452,-0.623
