timeMs,ax,ay,az,q0,q1,q2,q3
1085130,11324.0,2936.0,-1030.0,0.287,-0.547,-0.482,-0.621
1085147,11166.0,3724.0,-1076.0,0.284,-0.546,-0.483,-0.623
1085165,10918.0,4146.0,-1112.0,0.279,-0.544,-0.485,-0.626
1085181,11100.0,4374.0,-1386.0,0.271,-0.541,-0.488,-0.629
1085208,10962.0,4844.0,-1324.0,0.263,-0.536,-0.492,-0.633
1085224,10858.0,5418.0,-1316.0,0.253,-0.531,-0.497,-0.638
1085241,10566.0,5524.0,-1186.0,0.242,-0.525,-0.501,-0.644
1085258,9890.0,5828.0,-684.0,0.23,-0.517,-0.507,-0.65
1085275,9322.0,6724.0,-618.0,0.219,-0.509,-0.512,-0.656
1085291,8748.0,6208.0,-396.0,0.208,-0.501,-0.518,-0.662
1085308,8240.0,6094.0,-290.0,0.197,-0.492,-0.524,-0.667
1085325,7624.0,6614.0,-378.0,0.187,-0.482,-0.531,-0.672
1085342,6830.0,6278.0,-242.0,0.178,-0.471,-0.538,-0.676
1085358,6224.0,6722.0,-166.0,0.169,-0.459,-0.545,-0.68
1085384,5444.0,6138.0,262.0,0.162,-0.447,-0.553,-0.684
1085400,4886.0,6684.0,282.0,0.154,-0.435,-0.56,-0.688
1085417,4378.0,5380.0,618.0,0.148,-0.424,-0.566,-0.691
1085433,3834.0,5550.0,498.0,0.143,-0.412,-0.573,-0.694
1085449,3364.0,5564.0,604.0,0.138,-0.401,-0.58,-0.696
1085465,3018.0,5542.0,550.0,0.133,-0.389,-0.587,-0.697
1085491,2720.0,4666.0,306.0,0.128,-0.378,-0.594,-0.698
1085508,2332.0,5028.0,312.0,0.124,-0.368,-0.6,-0.7
1085525,2102.0,5016.0,550.0,0.12,-0.357,-0.607,-0.7
1085541,1524.0,5488.0,234.0,0.117,-0.347,-0.613,-0.7
1085558,1842.0,5324.0,366.0,0.115,-0.337,-0.618,-0.7
1085574,1506.0,5402.0,332.0,0.113,-0.329,-0.623,-0.7
1085591,2036.0,6236.0,-60.0,0.111,-0.321,-0.628,-0.701
1085608,2224.0,5324.0,-214.0,0.109,-0.313,-0.631,-0.702
1085625,2106.0,5448.0,-14.0,0.106,-0.305,-0.632,-0.704
1085642,2442.0,5180.0,314.0,0.104,-0.298,-0.633,-0.706
1085659,1860.0,5358.0,206.0,0.102,-0.292,-0.634,-0.709
1085685,2388.0,5156.0,466.0,0.101,-0.286,-0.634,-0.711
1085702,2440.0,4600.0,474.0,0.101,-0.281,-0.635,-0.712
1085718,2790.0,4144.0,382.0,0.102,-0.277,-0.637,-0.712
1085735,2828.0,3968.0,254.0,0.103,-0.272,-0.64,-0.711
1085752,3046.0,5816.0,-408.0,0.105,-0.269,-0.643,-0.709
1085769,3410.0,4940.0,12.0,0.108,-0.267,-0.645,-0.708
1085786,3914.0,5330.0,-304.0,0.112,-0.266,-0.648,-0.705
1085803,3978.0,5710.0,-582.0,0.117,-0.265,-0.65,-0.703
1085819,4228.0,5848.0,-584.0,0.123,-0.265,-0.651,-0.7
1085845,4122.0,6514.0,-996.0,0.13,-0.266,-0.651,-0.699
1085862,5418.0,6724.0,-1136.0,0.137,-0.269,-0.649,-0.698
1085879,6156.0,6514.0,-1438.0,0.145,-0.271,-0.646,-0.699
1085895,6258.0,5770.0,-758.0,0.153,-0.273,-0.643,-0.699
1085912,6162.0,5848.0,-544.0,0.161,-0.276,-0.64,-0.699
1085928,6580.0,6230.0,-982.0,0.169,-0.279,-0.637,-0.698
1085945,6908.0,5372.0,-866.0,0.177,-0.282,-0.635,-0.697
1085962,7876.0,4844.0,32.0,0.184,-0.283,-0.633,-0.696
1085979,5304.0,5798.0,-1852.0,0.191,-0.286,-0.635,-0.692
1085995,7066.0,6030.0,-1996.0,0.197,-0.288,-0.635,-0.689
1086022,6686.0,6060.0,-1486.0,0.203,-0.29,-0.634,-0.688
1086039,6308.0,5714.0,-1138.0,0.207,-0.292,-0.632,-0.688
1086056,7662.0,4078.0,534.0,0.213,-0.294,-0.629,-0.688
1086073,5382.0,4982.0,-410.0,0.218,-0.297,-0.627,-0.686
1086090,5422.0,5380.0,-472.0,0.223,-0.299,-0.626,-0.685
1086107,5064.0,5464.0,-172.0,0.228,-0.301,-0.624,-0.684
1086123,4628.0,5062.0,114.0,0.233,-0.303,-0.622,-0.683
1086139,12990.0,10476.0,8182.0,0.239,-0.304,-0.62,-0.683
1086156,1152.0,4842.0,144.0,0.245,-0.305,-0.618,-0.682
1086173,8366.0,4596.0,932.0,0.252,-0.301,-0.621,-0.679
1086199,4812.0,12772.0,-3214.0,0.256,-0.298,-0.626,-0.673
1086216,5668.0,7422.0,-4618.0,0.258,-0.301,-0.624,-0.673
1086233,6112.0,6888.0,-2534.0,0.258,-0.304,-0.618,-0.677
1086249,7112.0,7522.0,1258.0,0.26,-0.305,-0.609,-0.685
1086265,4904.0,4164.0,2372.0,0.261,-0.309,-0.6,-0.691
1086281,6356.0,3754.0,1366.0,0.263,-0.311,-0.596,-0.692
1086297,6932.0,6768.0,-1048.0,0.266,-0.312,-0.596,-0.69
1086323,8376.0,9044.0,-1322.0,0.268,-0.316,-0.593,-0.69
1086340,7948.0,8646.0,-778.0,0.269,-0.322,-0.587,-0.692
1086357,7474.0,6338.0,-832.0,0.268,-0.328,-0.579,-0.697
1086374,8088.0,9990.0,-1418.0,0.263,-0.336,-0.568,-0.704
1086390,11884.0,11274.0,688.0,0.256,-0.345,-0.545,-0.72
1086406,8038.0,8238.0,-76.0,0.243,-0.358,-0.512,-0.742
1086423,9202.0,2824.0,58.0,0.226,-0.369,-0.481,-0.763
1086440,7806.0,2928.0,510.0,0.209,-0.383,-0.451,-0.779
1086457,8990.0,1994.0,1344.0,0.191,-0.393,-0.423,-0.794
1086474,9368.0,1942.0,1938.0,0.174,-0.4,-0.403,-0.805
1086500,9916.0,3630.0,2600.0,0.157,-0.403,-0.389,-0.813
1086517,9284.0,4844.0,2648.0,0.141,-0.404,-0.378,-0.821
1086534,7082.0,3696.0,2052.0,0.123,-0.405,-0.369,-0.827
1086551,6536.0,2476.0,2174.0,0.106,-0.406,-0.366,-0.831
1086568,6044.0,2344.0,2432.0,0.091,-0.407,-0.369,-0.83
1086585,5338.0,3078.0,2432.0,0.078,-0.41,-0.375,-0.828
1086602,4986.0,2638.0,2484.0,0.069,-0.412,-0.386,-0.822
1086619,4684.0,2574.0,2096.0,0.063,-0.415,-0.403,-0.813
1086635,4886.0,3808.0,1210.0,0.061,-0.418,-0.425,-0.8
1086651,5018.0,5416.0,820.0,0.062,-0.418,-0.451,-0.786
1086677,4602.0,9094.0,650.0,0.062,-0.415,-0.476,-0.773
1086694,3818.0,10432.0,1060.0,0.057,-0.41,-0.495,-0.764
1086711,2764.0,9864.0,1368.0,0.047,-0.406,-0.507,-0.759
1086728,2842.0,8238.0,1772.0,0.034,-0.402,-0.514,-0.757
1086745,2692.0,6686.0,2116.0,0.021,-0.399,-0.519,-0.756
1086762,2462.0,5734.0,2484.0,0.007,-0.395,-0.523,-0.755
1086778,2248.0,5128.0,2766.0,0.006,0.392,0.525,0.755
1086795,2208.0,4760.0,3064.0,0.019,0.388,0.527,0.756
1086811,2244.0,4438.0,3354.0,0.031,0.384,0.529,0.756
1086828,2538.0,4394.0,3584.0,0.042,0.379,0.53,0.757
1086845,2648.0,4556.0,3626.0,0.05,0.373,0.532,0.758
1086871,2876.0,4724.0,3642.0,0.057,0.366,0.535,0.759
1086887,2920.0,5274.0,3446.0,0.063,0.359,0.539,0.76
1086903,2858.0,5576.0,3348.0,0.069,0.35,0.543,0.76
1086919,2706.0,5926.0,3160.0,0.074,0.341,0.547,0.761
1086935,2556.0,6548.0,2902.0,0.079,0.332,0.55,0.762
1086951,2478.0,6810.0,2706.0,0.084,0.323,0.553,0.763
1086977,2410.0,7530.0,2406.0,0.089,0.315,0.555,0.765
1086994,2606.0,8128.0,2372.0,0.094,0.307,0.556,0.766
1087010,2660.0,8598.0,2336.0,0.099,0.301,0.556,0.768
1087026,2830.0,9060.0,2102.0,0.103,0.294,0.555,0.771
1087042,2694.0,9080.0,1858.0,0.106,0.287,0.554,0.774
1087068,2318.0,8692.0,1672.0,0.11,0.279,0.552,0.778
1087085,1830.0,8292.0,1562.0,0.113,0.271,0.552,0.781
1087102,1498.0,7232.0,1470.0,0.116,0.263,0.552,0.783
1087119,856.0,7276.0,1136.0,0.119,0.255,0.553,0.785
1087135,642.0,7296.0,1044.0,0.122,0.247,0.553,0.786
1087151,430.0,7172.0,880.0,0.124,0.241,0.553,0.787
1087167,336.0,7262.0,830.0,0.127,0.236,0.553,0.789
1087183,430.0,7056.0,798.0,0.129,0.232,0.552,0.791
1087199,396.0,7018.0,836.0,0.13,0.229,0.551,0.792
1087225,444.0,7278.0,810.0,0.13,0.226,0.55,0.793
1087242,486.0,7754.0,804.0,0.131,0.224,0.55,0.794
1087259,402.0,7928.0,736.0,0.132,0.222,0.55,0.794
1087276,326.0,7824.0,782.0,0.133,0.221,0.55,0.794
1087292,270.0,7530.0,896.0,0.134,0.22,0.55,0.794
1087308,222.0,7462.0,1070.0,0.136,0.22,0.551,0.793
1087324,138.0,7474.0,1152.0,0.136,0.221,0.552,0.793
1087350,262.0,7588.0,1308.0,0.137,0.222,0.552,0.792
1087366,266.0,7412.0,1426.0,0.138,0.223,0.553,0.791
1087382,418.0,7262.0,1606.0,0.138,0.224,0.553,0.79
1087398,408.0,7302.0,1696.0,0.137,0.226,0.554,0.79
1087414,560.0,7502.0,1780.0,0.136,0.228,0.554,0.789
1087430,526.0,7650.0,1838.0,0.135,0.23,0.555,0.788
1087456,664.0,8008.0,1796.0,0.134,0.233,0.555,0.787
1087472,840.0,8314.0,1850.0,0.132,0.235,0.556,0.786
1087488,1062.0,8438.0,1922.0,0.132,0.237,0.556,0.786
1087504,1032.0,8356.0,2004.0,0.131,0.24,0.555,0.785
1087520,1158.0,8138.0,2072.0,0.131,0.242,0.555,0.785
1087537,1108.0,7988.0,2140.0,0.131,0.243,0.554,0.785
1087553,1304.0,8052.0,2106.0,0.131,0.245,0.553,0.785
1087579,1286.0,7952.0,2196.0,0.131,0.247,0.552,0.785
1087595,1300.0,7776.0,2188.0,0.131,0.249,0.551,0.786
1087611,1292.0,7560.0,2158.0,0.131,0.251,0.55,0.785
1087627,1250.0,7486.0,2166.0,0.132,0.253,0.55,0.785
1087643,1148.0,7582.0,2132.0,0.132,0.255,0.55,0.784
1087659,1068.0,7684.0,2084.0,0.132,0.257,0.55,0.784
1087685,1084.0,7714.0,2064.0,0.133,0.259,0.549,0.784
1087701,956.0,7654.0,1972.0,0.134,0.261,0.548,0.783
1087717,910.0,7590.0,1990.0,0.135,0.264,0.547,0.783
1087733,868.0,7712.0,2040.0,0.136,0.266,0.546,0.782
1087749,998.0,8018.0,2008.0,0.137,0.269,0.545,0.782
1087765,978.0,8092.0,1982.0,0.138,0.272,0.544,0.782
1087791,1146.0,8238.0,2006.0,0.14,0.275,0.542,0.782
1087807,1196.0,8200.0,2054.0,0.142,0.278,0.54,0.781
1087823,1360.0,8422.0,2026.0,0.145,0.28,0.538,0.781
1087839,1522.0,8446.0,2066.0,0.147,0.283,0.537,0.781
1087855,1630.0,8442.0,2138.0,0.15,0.285,0.535,0.781
1087881,1728.0,8234.0,2156.0,0.153,0.286,0.533,0.781
1087897,1758.0,7968.0,2156.0,0.156,0.287,0.532,0.781
1087913,1684.0,7584.0,2180.0,0.158,0.288,0.531,0.781
1087929,1618.0,7438.0,2108.0,0.161,0.288,0.531,0.781
1087945,1580.0,7420.0,2024.0,0.164,0.288,0.531,0.78
1087961,1530.0,7336.0,1852.0,0.166,0.288,0.53,0.78
1087987,1582.0,7376.0,1754.0,0.168,0.289,0.53,0.78
1088003,1604.0,7414.0,1690.0,0.17,0.289,0.529,0.779
1088020,1676.0,7552.0,1654.0,0.171,0.29,0.529,0.779
1088036,1836.0,7544.0,1630.0,0.173,0.291,0.528,0.779
1088052,1910.0,7572.0,1592.0,0.175,0.292,0.528,0.778
1088068,1886.0,7530.0,1604.0,0.176,0.293,0.528,0.777
1088084,1748.0,7448.0,1582.0,0.178,0.295,0.529,0.776
1088110,1674.0,7262.0,1588.0,0.179,0.296,0.529,0.775
1088126,1510.0,7218.0,1596.0,0.181,0.299,0.529,0.773
1088142,1430.0,7246.0,1632.0,0.182,0.302,0.529,0.772
1088158,1314.0,7206.0,1638.0,0.184,0.305,0.529,0.77
1088174,1154.0,6948.0,1670.0,0.186,0.308,0.529,0.768
1088190,926.0,6840.0,1714.0,0.188,0.312,0.53,0.766
1088216,700.0,7196.0,1662.0,0.19,0.315,0.531,0.763
1088232,750.0,7824.0,1682.0,0.192,0.32,0.531,0.761
1088248,1192.0,8610.0,1712.0,0.195,0.325,0.53,0.759
1088264,1736.0,9202.0,1874.0,0.199,0.329,0.527,0.758
1088280,2112.0,9210.0,1988.0,0.202,0.333,0.523,0.758
1088296,2394.0,9268.0,2186.0,0.207,0.336,0.518,0.759
1088322,2856.0,9126.0,2434.0,0.21,0.339,0.514,0.759
1088338,3258.0,8664.0,2624.0,0.214,0.341,0.51,0.76
1088354,3502.0,8144.0,2834.0,0.216,0.342,0.508,0.76
1088372,3432.0,7410.0,2840.0,0.218,0.342,0.508,0.76
1088388,3064.0,6950.0,2690.0,0.218,0.342,0.509,0.759
1088404,2658.0,6814.0,2622.0,0.217,0.342,0.511,0.758
1088420,2300.0,6550.0,2484.0,0.215,0.342,0.513,0.757
1088446,1908.0,6490.0,2388.0,0.213,0.342,0.514,0.757
1088462,1702.0,6582.0,2162.0,0.211,0.343,0.515,0.757
1088478,1414.0,6806.0,2016.0,0.209,0.344,0.513,0.758
1088494,1348.0,7110.0,1986.0,0.206,0.346,0.511,0.759
1088510,1334.0,7448.0,1962.0,0.204,0.348,0.508,0.761
1088536,1660.0,7938.0,1938.0,0.202,0.351,0.505,0.763
1088552,1876.0,8464.0,1902.0,0.2,0.353,0.501,0.764
1088568,2038.0,8728.0,1952.0,0.198,0.355,0.499,0.765
1088584,2080.0,8804.0,1948.0,0.198,0.357,0.496,0.767
1088600,2080.0,8572.0,1904.0,0.197,0.357,0.494,0.768
1088616,2042.0,8308.0,1906.0,0.198,0.358,0.493,0.768
1088642,2020.0,8208.0,1942.0,0.198,0.358,0.492,0.768
1088658,2098.0,7938.0,1914.0,0.199,0.357,0.491,0.769
1088674,2190.0,7766.0,1936.0,0.2,0.357,0.49,0.77
1088690,2146.0,7536.0,1982.0,0.201,0.356,0.489,0.77
1088706,2166.0,7196.0,2012.0,0.203,0.355,0.488,0.771
1088722,2174.0,6938.0,2022.0,0.204,0.354,0.487,0.772
1088748,2214.0,6848.0,2002.0,0.205,0.353,0.486,0.773
1088764,2258.0,6828.0,2016.0,0.206,0.352,0.485,0.774
1088780,2338.0,7098.0,2060.0,0.206,0.352,0.484,0.774
1088796,2388.0,7308.0,2032.0,0.206,0.351,0.483,0.775
1088812,2344.0,7316.0,1988.0,0.206,0.351,0.482,0.776
1088828,2258.0,7288.0,2006.0,0.207,0.351,0.482,0.776
1088854,2124.0,7332.0,1986.0,0.207,0.352,0.482,0.776
1088870,2054.0,7396.0,1962.0,0.207,0.352,0.482,0.775
1088886,2096.0,7686.0,1934.0,0.207,0.353,0.482,0.775
1088902,2126.0,7654.0,1978.0,0.208,0.354,0.481,0.774
1088918,2140.0,7526.0,2070.0,0.209,0.355,0.48,0.774
1088934,2148.0,7498.0,2152.0,0.209,0.356,0.479,0.774
1088960,2188.0,7454.0,2190.0,0.21,0.357,0.478,0.774
1088976,2266.0,7446.0,2264.0,0.21,0.358,0.477,0.774
1088992,2272.0,7538.0,2448.0,0.211,0.359,0.477,0.774
1089008,2294.0,7728.0,2470.0,0.211,0.359,0.477,0.774
1089024,2336.0,7794.0,2546.0,0.211,0.359,0.477,0.774
1089040,2378.0,7866.0,2580.0,0.212,0.359,0.477,0.774
1089066,2354.0,7990.0,2646.0,0.213,0.357,0.477,0.775
1089082,2230.0,8184.0,2584.0,0.214,0.356,0.477,0.775
1089098,1990.0,8098.0,2574.0,0.215,0.354,0.477,0.775
1089114,1876.0,8200.0,2516.0,0.216,0.351,0.479,0.775
1089130,1812.0,8532.0,2436.0,0.218,0.349,0.481,0.775
1089146,1632.0,8930.0,2278.0,0.22,0.346,0.483,0.774
1089172,1542.0,9034.0,2232.0,0.223,0.343,0.484,0.774
1089188,1556.0,8878.0,2308.0,0.227,0.339,0.485,0.773
1089204,1940.0,8648.0,2460.0,0.232,0.335,0.487,0.773
1089220,1992.0,8436.0,2582.0,0.237,0.331,0.489,0.772
1089236,2170.0,8244.0,2698.0,0.242,0.327,0.491,0.77
1089252,2574.0,8514.0,2860.0,0.247,0.322,0.495,0.768
1089278,2702.0,8634.0,2870.0,0.252,0.317,0.499,0.766
1089294,2840.0,8286.0,2918.0,0.257,0.311,0.502,0.765
1089310,3192.0,7886.0,3062.0,0.261,0.304,0.505,0.764
1089326,3424.0,7326.0,3184.0,0.265,0.297,0.507,0.765
1089342,3806.0,7062.0,3158.0,0.266,0.289,0.508,0.766
1089358,3990.0,6618.0,3060.0,0.266,0.282,0.509,0.769
1089384,3790.0,5950.0,2856.0,0.264,0.274,0.512,0.77
1089400,3392.0,5796.0,2620.0,0.26,0.266,0.517,0.771
1089416,2956.0,5796.0,2448.0,0.254,0.259,0.524,0.771
1089432,2804.0,6478.0,2226.0,0.246,0.254,0.531,0.77
1089448,2904.0,7136.0,1972.0,0.237,0.249,0.54,0.768
1089474,2268.0,7282.0,1636.0,0.227,0.244,0.55,0.766
1089490,1430.0,7318.0,1326.0,0.217,0.238,0.561,0.763
1089506,176.0,7466.0,956.0,0.207,0.232,0.573,0.758
1089522,-1284.0,7608.0,592.0,0.197,0.227,0.586,0.753
1089538,-2362.0,8082.0,304.0,0.188,0.222,0.598,0.747
1089555,-3600.0,8666.0,32.0,0.181,0.218,0.607,0.743
1089571,-4080.0,9348.0,-160.0,0.176,0.214,0.612,0.741
1089597,-4708.0,9300.0,-122.0,0.173,0.21,0.612,0.742
1089613,-5140.0,9080.0,210.0,0.174,0.207,0.607,0.747
1089629,-5404.0,7900.0,558.0,0.177,0.203,0.598,0.755
1089645,-5056.0,6172.0,830.0,0.183,0.198,0.588,0.763
1089661,-4444.0,4956.0,914.0,0.189,0.194,0.579,0.769
1089677,-4120.0,4738.0,882.0,0.195,0.191,0.573,0.773
1089703,-3994.0,5240.0,926.0,0.201,0.19,0.57,0.774
1089719,-3868.0,5438.0,1122.0,0.207,0.19,0.568,0.774
1089735,-3690.0,4886.0,1238.0,0.214,0.192,0.566,0.772
1089751,-3440.0,3668.0,1452.0,0.221,0.196,0.567,0.769
1089767,-3124.0,2768.0,1764.0,0.226,0.203,0.568,0.764
1089783,-2762.0,2902.0,1896.0,0.229,0.214,0.572,0.758
1089809,-1790.0,3720.0,1764.0,0.228,0.227,0.576,0.751
1089825,-764.0,4900.0,1392.0,0.224,0.243,0.579,0.745
1089841,248.0,5228.0,1076.0,0.217,0.259,0.578,0.742
1089857,1416.0,4934.0,884.0,0.208,0.276,0.572,0.743
1089874,2846.0,4472.0,830.0,0.197,0.294,0.563,0.747
1089890,4492.0,4198.0,850.0,0.183,0.313,0.549,0.753
1089907,5926.0,4348.0,820.0,0.165,0.333,0.531,0.761
1089933,7612.0,4492.0,720.0,0.145,0.356,0.509,0.77
1089949,9652.0,4572.0,638.0,0.125,0.378,0.484,0.779
1089965,11816.0,4556.0,632.0,0.103,0.401,0.46,0.785
1089981,13350.0,5724.0,748.0,0.079,0.423,0.438,0.789
1089997,15244.0,9046.0,680.0,0.058,0.444,0.419,0.79
1090023,15694.0,12866.0,640.0,0.04,0.461,0.402,0.79
1090039,14352.0,13916.0,578.0,0.03,0.474,0.386,0.791
1090055,12992.0,11716.0,726.0,0.028,0.482,0.376,0.791
1090071,11884.0,8250.0,1020.0,0.033,0.484,0.377,0.789
1090087,10944.0,5324.0,1386.0,0.039,0.48,0.392,0.784
1090103,10320.0,5108.0,1292.0,0.044,0.473,0.416,0.775
1090119,9282.0,5772.0,824.0,0.048,0.464,0.445,0.764
1090145,8540.0,6656.0,584.0,0.051,0.454,0.474,0.753
1090161,7168.0,6452.0,358.0,0.053,0.443,0.498,0.743
1090177,5682.0,6050.0,354.0,0.051,0.434,0.519,0.734
1090193,4452.0,6710.0,124.0,0.047,0.425,0.538,0.726
1090209,3924.0,8714.0,-280.0,0.04,0.417,0.554,0.72
1090235,2592.0,9212.0,-356.0,0.034,0.408,0.566,0.716
1090251,1088.0,8776.0,126.0,0.03,0.398,0.575,0.714
1090267,-640.0,7678.0,778.0,0.026,0.39,0.582,0.713
1090283,-2256.0,6896.0,1370.0,0.023,0.384,0.588,0.712
1090299,-2872.0,6886.0,1594.0,0.02,0.381,0.59,0.712
1090315,-3348.0,6866.0,1896.0,0.018,0.38,0.589,0.713
1090341,-3422.0,6570.0,2256.0,0.017,0.381,0.585,0.716
1090357,-3372.0,5346.0,2782.0,0.017,0.383,0.578,0.72
1090373,-3178.0,4018.0,2994.0,0.015,0.386,0.572,0.723
1090389,-2582.0,3650.0,2740.0,0.012,0.39,0.567,0.725
1090405,-1982.0,3754.0,2188.0,0.008,0.396,0.56,0.728
1090421,-1280.0,3100.0,1702.0,0.002,0.405,0.548,0.732
1090447,-226.0,2034.0,1698.0,0.005,-0.417,-0.533,-0.736
1090463,1190.0,2302.0,1374.0,0.016,-0.431,-0.516,-0.74
1090479,2790.0,2354.0,1220.0,0.029,-0.448,-0.494,-0.744
1090495,5124.0,2474.0,946.0,0.045,-0.468,-0.469,-0.748
1090511,8010.0,3126.0,776.0,0.064,-0.489,-0.44,-0.75
1090537,11062.0,4384.0,772.0,0.084,-0.512,-0.407,-0.752
1090553,13786.0,6420.0,952.0,0.103,-0.536,-0.369,-0.752
1090569,16266.0,9382.0,1656.0,0.119,-0.562,-0.322,-0.752
1090585,17360.0,12564.0,2534.0,0.127,-0.589,-0.266,-0.752
1090601,17178.0,12998.0,2220.0,0.123,-0.615,-0.202,-0.752
1090617,16258.0,8706.0,1154.0,0.111,-0.632,-0.138,-0.754
1090633,13670.0,4078.0,1266.0,0.097,-0.636,-0.091,-0.76
1090659,10954.0,1204.0,2028.0,0.084,-0.629,-0.069,-0.77
1090675,10542.0,-376.0,2020.0,0.071,-0.615,-0.076,-0.782
1090691,10422.0,-928.0,1738.0,0.058,-0.597,-0.107,-0.793
1090707,9764.0,-1378.0,994.0,0.048,-0.576,-0.156,-0.801
1090723,8756.0,-892.0,398.0,0.043,-0.556,-0.215,-0.802
1090739,7770.0,1028.0,-414.0,0.042,-0.537,-0.275,-0.796
1090765,6976.0,3346.0,-622.0,0.042,-0.52,-0.328,-0.788
1090781,6376.0,4716.0,-338.0,0.043,-0.506,-0.368,-0.779
1090797,5690.0,5010.0,142.0,0.041,-0.495,-0.393,-0.774
1090813,5106.0,4086.0,498.0,0.037,-0.485,-0.405,-0.774
1090829,4374.0,2566.0,780.0,0.033,-0.477,-0.408,-0.777
1090845,3784.0,1542.0,958.0,0.032,-0.471,-0.408,-0.782
1090871,3338.0,772.0,1072.0,0.033,-0.465,-0.406,-0.786
1090887,3252.0,332.0,1144.0,0.038,-0.461,-0.404,-0.789
1090903,3356.0,230.0,1088.0,0.047,-0.458,-0.406,-0.79
1090919,3542.0,482.0,906.0,0.06,-0.456,-0.409,-0.788
1090935,3946.0,1022.0,660.0,0.075,-0.455,-0.415,-0.784
1090951,4710.0,1900.0,602.0,0.093,-0.456,-0.422,-0.778
1090977,5656.0,2968.0,600.0,0.112,-0.46,-0.426,-0.771
1090993,6756.0,3914.0,762.0,0.131,-0.466,-0.427,-0.764
1091009,7718.0,4686.0,958.0,0.15,-0.474,-0.423,-0.758
1091025,8616.0,5276.0,1244.0,0.167,-0.484,-0.414,-0.753
1091041,9258.0,5702.0,1542.0,0.182,-0.496,-0.401,-0.748
1091067,9698.0,5964.0,1826.0,0.195,-0.509,-0.385,-0.745
1091083,9998.0,5922.0,2124.0,0.205,-0.521,-0.367,-0.743
1091099,10108.0,5612.0,2412.0,0.213,-0.533,-0.35,-0.741
1091115,10116.0,4978.0,2824.0,0.218,-0.541,-0.335,-0.74
1091131,10078.0,4142.0,3082.0,0.222,-0.544,-0.326,-0.74
1091147,9604.0,3566.0,2892.0,0.226,-0.543,-0.324,-0.741
1091173,9280.0,3282.0,2760.0,0.231,-0.538,-0.328,-0.742
1091189,8916.0,3364.0,2362.0,0.235,-0.529,-0.337,-0.742
1091205,8504.0,3456.0,2062.0,0.24,-0.518,-0.349,-0.743
1091221,8196.0,3624.0,1670.0,0.245,-0.506,-0.362,-0.744
1091237,7736.0,3734.0,1462.0,0.249,-0.493,-0.375,-0.744
1091253,7320.0,3674.0,1338.0,0.253,-0.48,-0.388,-0.745
1091279,6834.0,3568.0,1100.0,0.257,-0.468,-0.398,-0.746
1091295,6520.0,3360.0,970.0,0.26,-0.457,-0.408,-0.747
1091311,6258.0,3156.0,892.0,0.263,-0.447,-0.415,-0.748
1091327,5876.0,3024.0,850.0,0.266,-0.437,-0.422,-0.748
1091343,5902.0,2922.0,796.0,0.27,-0.429,-0.428,-0.748
1091359,5658.0,2920.0,916.0,0.274,-0.422,-0.433,-0.748
1091385,5716.0,3074.0,1004.0,0.278,-0.416,-0.438,-0.747
1091402,5488.0,3316.0,1014.0,0.282,-0.412,-0.442,-0.745
1091418,5518.0,3444.0,1136.0,0.286,-0.41,-0.445,-0.743
1091434,5500.0,3752.0,1150.0,0.289,-0.41,-0.446,-0.741
1091450,5730.0,3682.0,1494.0,0.291,-0.412,-0.447,-0.739
1091466,5912.0,3756.0,1820.0,0.293,-0.415,-0.448,-0.736
1091482,6208.0,4180.0,2330.0,0.294,-0.418,-0.448,-0.734
1091508,6164.0,4488.0,2462.0,0.295,-0.421,-0.448,-0.732
1091524,6262.0,4820.0,2560.0,0.295,-0.425,-0.446,-0.73
1091540,6452.0,4842.0,2560.0,0.294,-0.431,-0.443,-0.729
1091556,6596.0,4878.0,2450.0,0.292,-0.437,-0.439,-0.729
1091572,6714.0,4758.0,2344.0,0.288,-0.444,-0.433,-0.729
1091598,6954.0,4616.0,2278.0,0.284,-0.452,-0.426,-0.73
1091615,7236.0,4630.0,2242.0,0.278,-0.461,-0.419,-0.731
1091631,7524.0,4676.0,2244.0,0.271,-0.47,-0.41,-0.733
1091647,7948.0,4602.0,2370.0,0.262,-0.48,-0.399,-0.736
1091663,8122.0,4490.0,2574.0,0.252,-0.489,-0.389,-0.739
1091679,8358.0,4124.0,2686.0,0.24,-0.498,-0.377,-0.743
1091695,8686.0,3202.0,2814.0,0.228,-0.504,-0.366,-0.748
1091721,8500.0,2696.0,2716.0,0.216,-0.508,-0.358,-0.753
1091738,8668.0,2140.0,2868.0,0.206,-0.509,-0.353,-0.758
1091755,8364.0,1968.0,2886.0,0.198,-0.506,-0.352,-0.762
1091771,8068.0,2012.0,2840.0,0.192,-0.502,-0.354,-0.766
1091787,7758.0,2276.0,2484.0,0.188,-0.495,-0.358,-0.769
1091803,7772.0,2524.0,2222.0,0.186,-0.488,-0.365,-0.771
1091829,7538.0,2726.0,2046.0,0.185,-0.481,-0.371,-0.773
1091845,7520.0,3018.0,1858.0,0.184,-0.473,-0.377,-0.774
1091861,7444.0,3094.0,1680.0,0.184,-0.466,-0.383,-0.776
1091877,7428.0,3138.0,1548.0,0.183,-0.459,-0.387,-0.778
1091893,7304.0,3066.0,1440.0,0.184,-0.453,-0.391,-0.78
1091909,7054.0,2876.0,1290.0,0.184,-0.447,-0.394,-0.782
1091925,6884.0,2870.0,1126.0,0.184,-0.44,-0.398,-0.783
1091951,6776.0,2812.0,992.0,0.185,-0.435,-0.402,-0.785
1091967,6716.0,2862.0,950.0,0.186,-0.429,-0.406,-0.785
1091983,6690.0,2864.0,894.0,0.187,-0.424,-0.41,-0.786
1091999,6610.0,2824.0,766.0,0.187,-0.419,-0.414,-0.786
1092015,6514.0,2776.0,660.0,0.188,-0.414,-0.419,-0.786
1092032,6402.0,2732.0,642.0,0.189,-0.411,-0.423,-0.785
1092058,6286.0,2686.0,584.0,0.19,-0.408,-0.427,-0.784
1092074,6106.0,2630.0,576.0,0.191,-0.407,-0.431,-0.782
1092090,6064.0,2678.0,634.0,0.193,-0.407,-0.435,-0.78
1092106,6072.0,2734.0,684.0,0.195,-0.408,-0.438,-0.777
1092122,6076.0,2854.0,750.0,0.197,-0.41,-0.44,-0.774
1092138,6184.0,2982.0,836.0,0.2,-0.414,-0.441,-0.771
1092164,6348.0,3054.0,950.0,0.203,-0.419,-0.441,-0.767
1092180,6454.0,3128.0,1104.0,0.206,-0.425,-0.44,-0.764
1092196,6582.0,3210.0,1230.0,0.21,-0.432,-0.438,-0.76
1092212,6838.0,3262.0,1330.0,0.215,-0.439,-0.436,-0.756
1092229,7048.0,3264.0,1468.0,0.219,-0.446,-0.434,-0.752
1092245,7298.0,3298.0,1488.0,0.225,-0.452,-0.432,-0.747
1092261,7298.0,3494.0,1356.0,0.23,-0.459,-0.43,-0.743
1092287,7112.0,3850.0,1070.0,0.236,-0.465,-0.428,-0.738
1092304,7158.0,4212.0,1028.0,0.241,-0.471,-0.426,-0.734
1092321,7548.0,4418.0,1300.0,0.244,-0.478,-0.423,-0.73
1092337,7664.0,4436.0,1164.0,0.246,-0.485,-0.42,-0.727
1092353,8094.0,3896.0,1326.0,0.248,-0.492,-0.415,-0.724
1092369,8674.0,3732.0,1400.0,0.251,-0.499,-0.411,-0.721
1092385,9108.0,3628.0,1624.0,0.254,-0.505,-0.406,-0.718
1092411,9052.0,3398.0,1834.0,0.259,-0.51,-0.402,-0.715
1092427,8854.0,3166.0,2014.0,0.266,-0.513,-0.4,-0.711
1092444,8072.0,4612.0,1508.0,0.275,-0.515,-0.398,-0.708
1092460,7950.0,3582.0,1754.0,0.283,-0.516,-0.396,-0.705
1092476,7644.0,3506.0,1674.0,0.293,-0.515,-0.397,-0.701
1092492,7536.0,3802.0,1394.0,0.304,-0.51,-0.4,-0.698
1092509,7506.0,3840.0,1256.0,0.316,-0.504,-0.406,-0.694
1092535,7508.0,4026.0,1032.0,0.327,-0.495,-0.413,-0.691
1092551,7472.0,4136.0,744.0,0.339,-0.485,-0.422,-0.687
1092567,7544.0,4082.0,478.0,0.35,-0.474,-0.432,-0.683
1092583,7528.0,4042.0,158.0,0.361,-0.461,-0.443,-0.679
1092599,7448.0,3952.0,-48.0,0.372,-0.448,-0.454,-0.675
1092615,7456.0,3938.0,-336.0,0.382,-0.434,-0.466,-0.67
1092641,7282.0,4062.0,-668.0,0.392,-0.421,-0.478,-0.664
1092657,6980.0,4220.0,-854.0,0.401,-0.408,-0.49,-0.658
1092674,6628.0,4422.0,-964.0,0.409,-0.396,-0.501,-0.652
1092690,6360.0,4724.0,-1108.0,0.415,-0.386,-0.512,-0.646
1092707,6088.0,5044.0,-1074.0,0.418,-0.379,-0.521,-0.64
1092724,6072.0,5482.0,-966.0,0.419,-0.375,-0.528,-0.636
1092742,6204.0,5928.0,-754.0,0.417,-0.376,-0.532,-0.634
1092759,6452.0,6114.0,-422.0,0.411,-0.381,-0.532,-0.635
1092776,6898.0,5802.0,-88.0,0.403,-0.391,-0.528,-0.638
1092792,7408.0,5440.0,222.0,0.392,-0.402,-0.52,-0.643
1092818,7854.0,4900.0,516.0,0.379,-0.415,-0.51,-0.65
1092834,8154.0,4294.0,806.0,0.366,-0.428,-0.499,-0.658
1092850,8338.0,3704.0,1078.0,0.353,-0.44,-0.488,-0.666
1092866,8484.0,3132.0,1410.0,0.341,-0.449,-0.479,-0.673
1092882,8450.0,2616.0,1664.0,0.331,-0.455,-0.472,-0.678
1092898,8326.0,2416.0,1814.0,0.324,-0.458,-0.468,-0.683
1092924,8136.0,2500.0,1760.0,0.319,-0.457,-0.468,-0.686
1092941,7926.0,2848.0,1670.0,0.316,-0.453,-0.47,-0.688
1092957,7702.0,3204.0,1490.0,0.315,-0.448,-0.474,-0.69
1092973,7580.0,3662.0,1210.0,0.314,-0.442,-0.478,-0.691
1092989,7444.0,3862.0,998.0,0.313,-0.436,-0.482,-0.693
1093005,7350.0,4050.0,838.0,0.312,-0.43,-0.484,-0.695
1093031,7472.0,3988.0,716.0,0.31,-0.426,-0.485,-0.698
1093047,7556.0,3782.0,710.0,0.308,-0.422,-0.484,-0.702
1093063,7648.0,3426.0,610.0,0.307,-0.419,-0.482,-0.705
1093079,7570.0,3398.0,496.0,0.306,-0.416,-0.48,-0.709
1093095,7298.0,3288.0,380.0,0.306,-0.414,-0.479,-0.711
1093111,7000.0,3334.0,334.0,0.306,-0.412,-0.477,-0.713
1093137,6738.0,3510.0,256.0,0.305,-0.41,-0.477,-0.715
1093153,6538.0,3698.0,190.0,0.305,-0.409,-0.476,-0.716
1093169,6456.0,3914.0,200.0,0.304,-0.408,-0.475,-0.718
1093185,6390.0,4074.0,180.0,0.301,-0.409,-0.473,-0.72
1093201,6204.0,4192.0,144.0,0.298,-0.412,-0.47,-0.722
1093217,6184.0,4066.0,190.0,0.293,-0.415,-0.465,-0.725
1093243,6266.0,3728.0,304.0,0.288,-0.421,-0.458,-0.728
1093259,6414.0,3466.0,408.0,0.282,-0.426,-0.451,-0.732
1093275,6446.0,3172.0,434.0,0.276,-0.432,-0.444,-0.734
1093291,6370.0,3126.0,508.0,0.271,-0.439,-0.437,-0.737
1093307,6218.0,3254.0,606.0,0.265,-0.445,-0.431,-0.738
1093323,6202.0,3472.0,740.0,0.26,-0.452,-0.425,-0.74
1093349,6246.0,3642.0,868.0,0.254,-0.459,-0.419,-0.741
1093365,6750.0,3836.0,1008.0,0.248,-0.466,-0.412,-0.743
1093381,7566.0,3960.0,1220.0,0.242,-0.473,-0.404,-0.744
1093397,8458.0,3978.0,1368.0,0.235,-0.48,-0.396,-0.746
1093413,9048.0,4014.0,1654.0,0.229,-0.487,-0.388,-0.748
1093429,9156.0,3794.0,1872.0,0.223,-0.492,-0.382,-0.75
1093455,9782.0,2978.0,3018.0,0.217,-0.494,-0.378,-0.752
1093471,9402.0,2464.0,2818.0,0.215,-0.492,-0.381,-0.753
1093487,8054.0,3220.0,2462.0,0.214,-0.487,-0.388,-0.753
1093503,7578.0,3424.0,2064.0,0.211,-0.48,-0.397,-0.753
1093519,7072.0,3364.0,1578.0,0.206,-0.475,-0.406,-0.753
1093545,6524.0,5060.0,998.0,0.198,-0.471,-0.414,-0.753
1093562,7068.0,5668.0,1464.0,0.186,-0.471,-0.414,-0.756
1093579,7438.0,4256.0,1886.0,0.172,-0.475,-0.404,-0.763
1093595,6716.0,3164.0,1838.0,0.155,-0.481,-0.386,-0.772
1093612,6964.0,1136.0,1882.0,0.136,-0.489,-0.365,-0.78
1093628,7204.0,22.0,2378.0,0.12,-0.497,-0.345,-0.787
1093644,7726.0,-418.0,3054.0,0.108,-0.505,-0.328,-0.791
1093660,8062.0,-826.0,3590.0,0.1,-0.51,-0.315,-0.794
1093686,8072.0,-440.0,3786.0,0.096,-0.514,-0.307,-0.795
1093702,8110.0,136.0,3688.0,0.097,-0.517,-0.303,-0.795
1093718,8254.0,1210.0,3608.0,0.099,-0.517,-0.302,-0.795
1093734,8388.0,2156.0,3306.0,0.103,-0.516,-0.302,-0.795
1093750,7992.0,2374.0,2958.0,0.107,-0.514,-0.302,-0.795
1093766,7752.0,2534.0,2434.0,0.112,-0.511,-0.303,-0.796
1093792,7448.0,2552.0,2044.0,0.116,-0.509,-0.304,-0.797
1093808,7202.0,2458.0,1746.0,0.12,-0.506,-0.306,-0.797
1093824,7118.0,2344.0,1626.0,0.124,-0.504,-0.309,-0.797
1093840,6858.0,2426.0,1642.0,0.129,-0.502,-0.313,-0.796
1093856,6636.0,2566.0,1602.0,0.134,-0.5,-0.317,-0.795
1093872,6356.0,2856.0,1574.0,0.139,-0.499,-0.322,-0.792
1093898,6210.0,3166.0,1622.0,0.143,-0.498,-0.328,-0.79
1093914,6094.0,3468.0,1638.0,0.148,-0.498,-0.332,-0.787
1093931,5978.0,3804.0,1600.0,0.152,-0.499,-0.336,-0.784
1093947,5832.0,4146.0,1732.0,0.155,-0.501,-0.338,-0.781
1093964,5856.0,4420.0,1800.0,0.156,-0.505,-0.338,-0.779
1093981,5974.0,4276.0,1546.0,0.155,-0.509,-0.335,-0.777
1093997,6016.0,4410.0,1378.0,0.153,-0.515,-0.33,-0.776
1094014,6118.0,4588.0,1394.0,0.148,-0.523,-0.323,-0.775
1094035,6424.0,4390.0,1660.0,0.14,-0.531,-0.314,-0.774
1094052,7100.0,3784.0,2224.0,0.131,-0.54,-0.305,-0.773
1094068,7598.0,4076.0,2462.0,0.12,-0.548,-0.296,-0.773
1094084,8014.0,3846.0,2696.0,0.109,-0.556,-0.288,-0.772
1094110,8630.0,3680.0,2842.0,0.099,-0.562,-0.281,-0.772
1094127,9354.0,3508.0,2820.0,0.09,-0.566,-0.275,-0.772
1094144,8930.0,3534.0,2936.0,0.083,-0.568,-0.271,-0.773
1094161,8646.0,3764.0,2880.0,0.076,-0.568,-0.269,-0.775
1094177,8320.0,3632.0,2916.0,0.07,-0.566,-0.268,-0.777
1094193,8262.0,3560.0,2692.0,0.065,-0.562,-0.271,-0.779
1094209,7798.0,3832.0,2270.0,0.06,-0.558,-0.278,-0.779
1094226,7898.0,4782.0,1852.0,0.056,-0.553,-0.29,-0.779
1094243,8038.0,6830.0,1436.0,0.052,-0.547,-0.305,-0.778
1094270,8386.0,9274.0,1258.0,0.044,-0.541,-0.319,-0.777
1094286,8382.0,9462.0,1062.0,0.031,-0.533,-0.332,-0.778
1094302,8860.0,9226.0,736.0,0.015,-0.525,-0.345,-0.778
1094318,9038.0,9412.0,584.0,0.004,0.515,0.362,0.777
1094334,9214.0,9920.0,440.0,0.024,0.504,0.381,0.774
1094350,9112.0,10100.0,340.0,0.046,0.492,0.403,0.77
1094376,8018.0,9076.0,276.0,0.069,0.479,0.426,0.764
1094392,7546.0,8952.0,46.0,0.089,0.466,0.457,0.752
1094408,7692.0,10464.0,-824.0,0.109,0.453,0.492,0.735
1094425,6950.0,11444.0,-1154.0,0.133,0.437,0.526,0.717
1094441,5300.0,10202.0,-768.0,0.161,0.421,0.556,0.699
1094458,4630.0,9034.0,-524.0,0.19,0.404,0.582,0.68
1094475,4532.0,9486.0,-518.0,0.219,0.389,0.605,0.66
1094492,3754.0,8770.0,94.0,0.248,0.373,0.623,0.641
1094518,2780.0,8280.0,364.0,0.279,0.356,0.634,0.627
1094534,2918.0,7182.0,630.0,0.311,0.339,0.639,0.616
1094550,2636.0,6140.0,834.0,0.344,0.32,0.639,0.609
1094566,2104.0,4874.0,1066.0,0.377,0.299,0.634,0.606
1094582,1730.0,2856.0,1428.0,0.407,0.277,0.625,0.605
1094598,886.0,1206.0,1654.0,0.433,0.257,0.618,0.604
1094624,-58.0,256.0,1968.0,0.456,0.241,0.613,0.599
1094641,-1502.0,362.0,1856.0,0.474,0.229,0.613,0.589
1094658,-2352.0,742.0,1594.0,0.489,0.221,0.617,0.575
1094675,-3022.0,2406.0,742.0,0.5,0.217,0.624,0.56
1094692,-3572.0,4460.0,-106.0,0.51,0.214,0.629,0.546
1094708,-4022.0,5878.0,-432.0,0.518,0.21,0.631,0.537
1094725,-3898.0,5558.0,-386.0,0.527,0.204,0.629,0.534
1094741,-3804.0,4702.0,-198.0,0.536,0.198,0.625,0.532
1094758,-3868.0,4132.0,462.0,0.543,0.193,0.621,0.531
1094775,-3688.0,4318.0,898.0,0.549,0.189,0.62,0.528
1094792,-3840.0,4762.0,1232.0,0.554,0.186,0.62,0.524
1094819,-4124.0,4778.0,1254.0,0.558,0.184,0.622,0.518
1094835,-4224.0,5166.0,1240.0,0.56,0.183,0.625,0.512
1094851,-4588.0,5540.0,1116.0,0.562,0.182,0.629,0.506
1094867,-4622.0,6216.0,954.0,0.563,0.181,0.633,0.5
1094883,-4770.0,6586.0,840.0,0.563,0.18,0.637,0.495
1094899,-4892.0,6646.0,832.0,0.564,0.179,0.639,0.492
1094925,-4968.0,6358.0,920.0,0.564,0.178,0.639,0.491
1094941,-4890.0,5904.0,1142.0,0.565,0.176,0.64,0.491
1094958,-4938.0,5444.0,1234.0,0.565,0.176,0.64,0.491
1094975,-4826.0,5386.0,1222.0,0.564,0.177,0.64,0.491
1094991,-4932.0,5766.0,1094.0,0.563,0.178,0.641,0.491
1095007,-5122.0,6140.0,988.0,0.561,0.179,0.641,0.492
1095024,-5102.0,6496.0,834.0,0.559,0.181,0.641,0.494
1095041,-5006.0,6654.0,688.0,0.556,0.183,0.641,0.496
1095058,-5302.0,6678.0,574.0,0.554,0.184,0.642,0.498
1095084,-5312.0,6738.0,610.0,0.552,0.187,0.642,0.498
1095100,-5074.0,6824.0,592.0,0.549,0.189,0.643,0.498
1095116,-4888.0,6946.0,520.0,0.547,0.192,0.645,0.498
1095132,-4930.0,6940.0,504.0,0.545,0.195,0.646,0.497
1095148,-4784.0,6884.0,646.0,0.543,0.197,0.648,0.497
1095164,-4956.0,6634.0,542.0,0.541,0.199,0.649,0.497
1095190,-4708.0,6770.0,516.0,0.538,0.202,0.65,0.497
1095206,-4838.0,7002.0,328.0,0.535,0.205,0.651,0.498
1095222,-4700.0,7196.0,322.0,0.532,0.207,0.652,0.498
1095238,-4634.0,7252.0,300.0,0.531,0.209,0.652,0.499
1095254,-4426.0,7230.0,350.0,0.53,0.209,0.652,0.501
1095270,-4442.0,7038.0,490.0,0.529,0.209,0.652,0.502
1095296,-4408.0,6870.0,570.0,0.529,0.208,0.652,0.502
1095312,-4346.0,7012.0,466.0,0.529,0.208,0.652,0.503
1095328,-4404.0,7150.0,378.0,0.528,0.207,0.652,0.503
1095344,-4410.0,6988.0,298.0,0.528,0.205,0.652,0.504
1095360,-4446.0,6792.0,376.0,0.528,0.204,0.653,0.504
1095376,-4484.0,6786.0,348.0,0.527,0.202,0.653,0.504
1095402,-4480.0,6622.0,416.0,0.527,0.201,0.653,0.505
1095418,-4328.0,6470.0,644.0,0.527,0.2,0.654,0.505
1095434,-4118.0,6440.0,764.0,0.526,0.199,0.653,0.507
1095450,-4066.0,6426.0,814.0,0.525,0.199,0.653,0.509
1095466,-4042.0,6438.0,844.0,0.523,0.198,0.652,0.512
1095492,-4086.0,6508.0,872.0,0.521,0.197,0.652,0.515
1095509,-4094.0,6596.0,1156.0,0.519,0.197,0.651,0.518
1095525,-3876.0,6972.0,1630.0,0.516,0.196,0.65,0.523
1095542,-3516.0,7330.0,2288.0,0.514,0.194,0.646,0.53
1095559,-3198.0,7316.0,3126.0,0.511,0.189,0.639,0.543
1095576,-2858.0,6192.0,3938.0,0.508,0.182,0.628,0.561
1095592,-1852.0,5634.0,4636.0,0.502,0.175,0.616,0.582
1095608,-1126.0,5274.0,4850.0,0.492,0.168,0.604,0.604
1095634,-652.0,5248.0,4914.0,0.477,0.16,0.595,0.626
1095650,-194.0,5408.0,4896.0,0.46,0.151,0.588,0.648
1095666,82.0,5328.0,4576.0,0.439,0.142,0.581,0.671
1095682,-50.0,6334.0,3642.0,0.414,0.132,0.575,0.693
1095699,486.0,6766.0,3314.0,0.386,0.123,0.567,0.717
1095715,354.0,6686.0,2922.0,0.355,0.114,0.559,0.741
1095731,460.0,5596.0,2750.0,0.323,0.105,0.549,0.764
1095757,480.0,5248.0,2780.0,0.29,0.098,0.54,0.784
1095774,1214.0,4930.0,3100.0,0.256,0.094,0.537,0.798
1095791,2180.0,5938.0,2902.0,0.222,0.093,0.542,0.805
1095808,2190.0,6552.0,2500.0,0.189,0.092,0.553,0.806
1095825,2464.0,7196.0,2184.0,0.157,0.091,0.569,0.802
1095841,2254.0,7672.0,1622.0,0.126,0.089,0.587,0.795
1095858,2222.0,7314.0,1110.0,0.095,0.086,0.603,0.787
1095874,2888.0,6678.0,980.0,0.064,0.081,0.621,0.777
1095891,3410.0,7466.0,686.0,0.03,0.074,0.641,0.763
1095908,3718.0,9250.0,-270.0,0.005,-0.065,-0.66,-0.748
1095935,3466.0,10728.0,-852.0,0.037,-0.054,-0.674,-0.736
1095951,3490.0,10902.0,-960.0,0.07,-0.043,-0.681,-0.728
1095967,3590.0,10064.0,-1142.0,0.102,-0.033,-0.682,-0.723
1095984,4338.0,8600.0,-1262.0,0.135,-0.02,-0.682,-0.718
1096001,4570.0,8226.0,-1486.0,0.168,-0.006,-0.683,-0.711
1096018,4490.0,8582.0,-1802.0,0.199,0.009,-0.685,-0.701
1096034,4366.0,8898.0,-1986.0,0.229,0.024,-0.685,-0.691
1096050,4322.0,8548.0,-1868.0,0.257,0.037,-0.684,-0.682
1096076,4646.0,7908.0,-1944.0,0.285,0.049,-0.682,-0.672
1096092,4740.0,7362.0,-1952.0,0.314,0.061,-0.68,-0.66
1096109,4788.0,7060.0,-1974.0,0.341,0.071,-0.677,-0.648
1096126,4962.0,6542.0,-1936.0,0.368,0.08,-0.674,-0.636
1096142,5794.0,6036.0,-2146.0,0.394,0.087,-0.67,-0.623
1096159,6434.0,6284.0,-2320.0,0.42,0.094,-0.666,-0.609
1096175,6794.0,6764.0,-2624.0,0.447,0.097,-0.66,-0.596
1096201,6646.0,7134.0,-2788.0,0.472,0.096,-0.653,-0.584
1096217,5996.0,8224.0,-3026.0,0.496,0.09,-0.644,-0.575
1096233,5996.0,9418.0,-2998.0,0.517,0.076,-0.634,-0.57
1096249,5636.0,10458.0,-3116.0,0.535,0.054,-0.62,-0.571
1096266,4410.0,12370.0,-3530.0,0.549,0.022,-0.601,-0.58
1096282,3768.0,13182.0,-3074.0,0.559,-0.026,-0.572,-0.599
1096298,3208.0,11430.0,-2806.0,0.562,-0.088,-0.534,-0.626
1096315,4604.0,9784.0,-2172.0,0.554,-0.158,-0.487,-0.656
1096332,6372.0,8772.0,-1604.0,0.537,-0.231,-0.431,-0.687
1096358,7430.0,4710.0,-460.0,0.512,-0.3,-0.368,-0.716
1096375,7408.0,302.0,282.0,0.482,-0.359,-0.304,-0.739
1096392,7048.0,-2272.0,1352.0,0.45,-0.405,-0.247,-0.757
1096409,7110.0,-1840.0,1382.0,0.419,-0.442,-0.197,-0.769
1096426,7510.0,-2940.0,2404.0,0.387,-0.474,-0.149,-0.777
1096443,8018.0,-3876.0,3144.0,0.356,-0.501,-0.106,-0.782
1096460,7988.0,-2528.0,2912.0,0.325,-0.524,-0.063,-0.785
1096476,7806.0,-2688.0,2836.0,0.293,-0.545,-0.02,-0.785
1096492,7602.0,-5054.0,2664.0,0.263,-0.561,0.018,-0.784
1096509,7372.0,-5736.0,2484.0,0.237,-0.573,0.046,-0.783
1096536,6688.0,-4286.0,2198.0,0.218,-0.582,0.067,-0.781
1096552,7298.0,-4348.0,2206.0,0.202,-0.591,0.081,-0.777
1096569,6348.0,-1384.0,708.0,0.188,-0.601,0.097,-0.771
1096586,6920.0,-1448.0,1066.0,0.171,-0.613,0.118,-0.763
1096602,6836.0,-1574.0,798.0,0.152,-0.625,0.141,-0.752
1096618,8238.0,-3646.0,1420.0,0.133,-0.636,0.162,-0.743
1096634,8144.0,-6032.0,1412.0,0.12,-0.642,0.176,-0.737
1096660,7834.0,-5002.0,1384.0,0.112,-0.645,0.179,-0.734
1096676,7970.0,-4970.0,1348.0,0.108,-0.647,0.177,-0.734
1096693,7574.0,-4326.0,1136.0,0.109,-0.647,0.171,-0.735
1096709,6978.0,-2298.0,240.0,0.111,-0.647,0.165,-0.736
1096726,7538.0,-2002.0,828.0,0.111,-0.648,0.163,-0.736
1096743,7518.0,-2444.0,626.0,0.11,-0.65,0.163,-0.734
1096760,7666.0,-2864.0,752.0,0.109,-0.652,0.163,-0.732
1096776,7854.0,-3340.0,1074.0,0.108,-0.654,0.16,-0.732
1096793,7790.0,-2896.0,940.0,0.108,-0.655,0.157,-0.731
1096819,7900.0,-2624.0,1228.0,0.108,-0.656,0.154,-0.731
1096835,7776.0,-3230.0,1050.0,0.107,-0.657,0.153,-0.73
1096851,7656.0,-3038.0,1070.0,0.107,-0.658,0.152,-0.73
1096867,7796.0,-3502.0,1248.0,0.106,-0.66,0.151,-0.729
1096883,7914.0,-3808.0,1538.0,0.107,-0.661,0.149,-0.728
1096899,8338.0,-4060.0,2030.0,0.11,-0.661,0.144,-0.728
1096925,8136.0,-4312.0,1950.0,0.115,-0.66,0.134,-0.73
1096942,8108.0,-4846.0,2148.0,0.125,-0.658,0.118,-0.733
1096958,8620.0,-5800.0,1872.0,0.142,-0.652,0.094,-0.739
1096974,8842.0,-6284.0,1302.0,0.167,-0.642,0.06,-0.746
1096991,8748.0,-5790.0,334.0,0.2,-0.625,0.015,-0.754
1097008,7896.0,-4182.0,-626.0,0.238,-0.601,-0.04,-0.762
1097025,7194.0,-2132.0,-1440.0,0.279,-0.57,-0.102,-0.766
1097042,6626.0,-80.0,-2250.0,0.319,-0.533,-0.167,-0.766
1097059,6402.0,2898.0,-2152.0,0.355,-0.491,-0.231,-0.761
1097076,6268.0,6378.0,-1306.0,0.383,-0.448,-0.288,-0.755
1097103,6040.0,7274.0,466.0,0.403,-0.408,-0.333,-0.749
1097119,5574.0,7184.0,1282.0,0.416,-0.376,-0.366,-0.743
1097136,5288.0,6838.0,1626.0,0.421,-0.353,-0.391,-0.738
1097153,5396.0,7060.0,1742.0,0.421,-0.34,-0.408,-0.736
1097169,5896.0,6336.0,1858.0,0.413,-0.335,-0.418,-0.736
1097186,6278.0,5396.0,2040.0,0.402,-0.336,-0.423,-0.739
1097203,6810.0,4936.0,2274.0,0.388,-0.341,-0.425,-0.744
1097220,7240.0,4284.0,2578.0,0.372,-0.348,-0.424,-0.749
1097236,7424.0,3566.0,2846.0,0.356,-0.356,-0.422,-0.754
1097262,7568.0,2906.0,3132.0,0.341,-0.363,-0.42,-0.759
1097278,7572.0,2344.0,3188.0,0.327,-0.369,-0.421,-0.761
1097295,7782.0,2372.0,3198.0,0.314,-0.373,-0.426,-0.762
1097311,7890.0,2688.0,3026.0,0.303,-0.375,-0.432,-0.762
1097328,8056.0,3258.0,2682.0,0.293,-0.376,-0.439,-0.762
1097344,8054.0,3708.0,2442.0,0.283,-0.375,-0.447,-0.761
1097360,7744.0,4174.0,2464.0,0.272,-0.376,-0.452,-0.762
1097376,7606.0,4298.0,2482.0,0.261,-0.377,-0.455,-0.763
1097402,7592.0,4020.0,2504.0,0.25,-0.38,-0.455,-0.765
1097418,7450.0,3532.0,2532.0,0.238,-0.385,-0.453,-0.768
1097434,7296.0,2948.0,2588.0,0.226,-0.39,-0.45,-0.771
1097450,6878.0,2730.0,2530.0,0.216,-0.395,-0.446,-0.773
1097466,6724.0,2454.0,2632.0,0.206,-0.402,-0.443,-0.775
1097492,6766.0,2378.0,2666.0,0.198,-0.408,-0.44,-0.775
1097508,6692.0,2394.0,2736.0,0.191,-0.415,-0.437,-0.775
1097524,6506.0,2510.0,2852.0,0.186,-0.421,-0.434,-0.775
1097540,6412.0,2644.0,2844.0,0.182,-0.427,-0.431,-0.774
1097557,6300.0,2882.0,2802.0,0.18,-0.432,-0.428,-0.773
1097574,6192.0,3168.0,2698.0,0.179,-0.438,-0.425,-0.772
1097591,6250.0,3870.0,2538.0,0.178,-0.444,-0.421,-0.77
1097607,6354.0,4228.0,2316.0,0.178,-0.45,-0.418,-0.769
1097624,6504.0,4540.0,2170.0,0.178,-0.456,-0.413,-0.768
1097651,6648.0,4712.0,2008.0,0.177,-0.463,-0.409,-0.767
1097668,6602.0,4776.0,1840.0,0.175,-0.469,-0.405,-0.766
1097684,6456.0,4678.0,1680.0,0.172,-0.475,-0.4,-0.765
1097700,6546.0,4788.0,1586.0,0.169,-0.48,-0.396,-0.764
1097716,6366.0,4796.0,1346.0,0.166,-0.486,-0.392,-0.763
1097732,6504.0,4904.0,1158.0,0.162,-0.493,-0.388,-0.762
1097748,6464.0,4988.0,936.0,0.157,-0.499,-0.384,-0.761
1097774,6542.0,5076.0,758.0,0.152,-0.506,-0.379,-0.759
1097791,6576.0,5226.0,688.0,0.145,-0.514,-0.374,-0.758
1097807,6648.0,5300.0,576.0,0.138,-0.522,-0.368,-0.757
1097824,6704.0,5532.0,404.0,0.129,-0.53,-0.361,-0.756
1097841,6870.0,5892.0,342.0,0.118,-0.539,-0.352,-0.756
1097858,7106.0,6116.0,446.0,0.106,-0.549,-0.342,-0.755
1097875,7404.0,6008.0,546.0,0.091,-0.559,-0.33,-0.755
1097891,7628.0,5804.0,774.0,0.074,-0.569,-0.318,-0.755
1097908,7806.0,5414.0,992.0,0.057,-0.578,-0.305,-0.755
1097925,7814.0,4956.0,1170.0,0.038,-0.585,-0.294,-0.755
1097951,7958.0,4708.0,1458.0,0.02,-0.592,-0.283,-0.755
1097967,7990.0,4480.0,1680.0,0.002,-0.597,-0.275,-0.754
1097983,8052.0,4348.0,1874.0,0.015,0.6,0.267,0.754
1097999,8074.0,4396.0,1994.0,0.031,0.603,0.262,0.753
1098015,8112.0,4566.0,2052.0,0.046,0.604,0.258,0.753
1098031,8050.0,4588.0,2048.0,0.06,0.603,0.255,0.753
1098057,7918.0,4532.0,2066.0,0.073,0.602,0.253,0.754
1098073,7838.0,4416.0,2056.0,0.085,0.6,0.253,0.754
1098090,7792.0,4488.0,2114.0,0.096,0.596,0.254,0.755
1098106,7624.0,4820.0,2030.0,0.106,0.592,0.257,0.756
1098123,7590.0,5062.0,1990.0,0.115,0.588,0.26,0.758
1098140,7332.0,5016.0,2190.0,0.123,0.582,0.264,0.759
1098156,7350.0,4574.0,3164.0,0.13,0.577,0.27,0.76
1098173,7568.0,4514.0,3720.0,0.135,0.571,0.278,0.761
1098200,7632.0,4060.0,3802.0,0.137,0.564,0.289,0.762
1098216,7642.0,4204.0,3360.0,0.136,0.555,0.303,0.763
1098232,7334.0,4808.0,2934.0,0.132,0.544,0.321,0.764
1098248,6892.0,5736.0,2488.0,0.128,0.531,0.341,0.765
1098264,6390.0,6108.0,2086.0,0.125,0.517,0.361,0.766
1098280,5952.0,6326.0,1814.0,0.123,0.501,0.378,0.768
1098306,5546.0,6068.0,1516.0,0.123,0.485,0.393,0.771
1098323,5204.0,5980.0,1248.0,0.122,0.469,0.405,0.775
1098340,4864.0,5930.0,1040.0,0.122,0.455,0.413,0.78
1098356,4700.0,6016.0,858.0,0.123,0.441,0.417,0.785
1098373,4434.0,5770.0,744.0,0.123,0.429,0.418,0.791
1098389,4226.0,5420.0,762.0,0.123,0.419,0.417,0.797
1098405,3760.0,5178.0,790.0,0.123,0.41,0.416,0.802
1098422,3504.0,5220.0,856.0,0.122,0.403,0.416,0.806
1098439,3362.0,5650.0,856.0,0.122,0.397,0.416,0.809
1098456,3138.0,5896.0,962.0,0.122,0.393,0.417,0.81
1098483,3028.0,5948.0,1164.0,0.123,0.39,0.418,0.811
1098499,3022.0,6292.0,1254.0,0.125,0.388,0.418,0.812
1098515,3290.0,6614.0,1446.0,0.126,0.388,0.417,0.812
1098531,3282.0,6890.0,1600.0,0.128,0.387,0.416,0.813
1098547,3478.0,7050.0,1766.0,0.129,0.387,0.415,0.813
1098563,3520.0,7040.0,1836.0,0.13,0.387,0.414,0.814
1098589,3618.0,6890.0,1840.0,0.131,0.386,0.414,0.814
1098606,3482.0,6838.0,1774.0,0.132,0.384,0.416,0.813
1098622,3476.0,6996.0,1772.0,0.134,0.383,0.419,0.813
1098639,3496.0,7124.0,1636.0,0.135,0.382,0.422,0.811
1098655,3438.0,7090.0,1554.0,0.137,0.38,0.426,0.809
1098672,3396.0,7048.0,1464.0,0.14,0.38,0.429,0.808
1098689,3284.0,7086.0,1346.0,0.143,0.38,0.432,0.805
1098706,3434.0,7166.0,1358.0,0.147,0.38,0.434,0.803
1098723,3460.0,6864.0,1476.0,0.152,0.381,0.436,0.801
1098739,3428.0,7024.0,1662.0,0.157,0.383,0.436,0.799
1098765,3598.0,7270.0,1764.0,0.163,0.385,0.435,0.797
1098781,3688.0,7124.0,2014.0,0.17,0.388,0.432,0.796
1098797,3642.0,6732.0,2222.0,0.178,0.391,0.428,0.795
1098813,3654.0,6436.0,2502.0,0.185,0.393,0.424,0.795
1098829,3828.0,6362.0,2810.0,0.193,0.396,0.418,0.795
1098845,3842.0,6184.0,2976.0,0.201,0.397,0.41,0.796
1098871,3618.0,6004.0,2876.0,0.209,0.398,0.401,0.798
1098887,3410.0,5210.0,2994.0,0.217,0.398,0.389,0.802
1098903,3268.0,4310.0,3284.0,0.225,0.398,0.375,0.806
1098919,3250.0,3222.0,3436.0,0.231,0.398,0.361,0.811
1098935,3018.0,2232.0,3574.0,0.236,0.399,0.348,0.815
1098961,2942.0,1596.0,3852.0,0.238,0.401,0.336,0.818
1098977,2924.0,2266.0,3780.0,0.238,0.404,0.325,0.821
1098993,2960.0,3164.0,4004.0,0.236,0.409,0.314,0.824
1099009,3564.0,5078.0,4036.0,0.232,0.416,0.301,0.826
1099025,4066.0,6650.0,4392.0,0.229,0.423,0.285,0.829
1099041,4960.0,8432.0,4836.0,0.229,0.429,0.265,0.833
1099067,5380.0,8086.0,5484.0,0.235,0.432,0.244,0.836
1099083,5432.0,6240.0,6152.0,0.243,0.432,0.228,0.838
1099099,5068.0,4664.0,6350.0,0.249,0.432,0.22,0.838
1099115,4452.0,4028.0,6312.0,0.252,0.433,0.22,0.837
1099131,3956.0,4554.0,5952.0,0.252,0.434,0.227,0.835
1099147,3652.0,5304.0,5510.0,0.252,0.436,0.236,0.831
1099164,3482.0,5456.0,5176.0,0.252,0.438,0.245,0.828
1099190,3402.0,5524.0,4998.0,0.252,0.439,0.251,0.825
1099206,3470.0,5604.0,4830.0,0.252,0.44,0.255,0.823
1099223,3556.0,5994.0,4726.0,0.253,0.441,0.255,0.823
1099239,3736.0,5740.0,4710.0,0.254,0.441,0.251,0.823
1099256,3758.0,5000.0,4636.0,0.256,0.441,0.246,0.825
1099273,3846.0,4086.0,4598.0,0.257,0.44,0.24,0.826
1099289,3826.0,3126.0,4424.0,0.257,0.44,0.236,0.827
1099306,3690.0,2504.0,4526.0,0.256,0.441,0.235,0.828
1099323,4110.0,4300.0,4630.0,0.254,0.442,0.235,0.828
1099349,4616.0,5038.0,4548.0,0.25,0.444,0.235,0.828
1099365,4818.0,4800.0,4202.0,0.247,0.445,0.233,0.828
1099381,4996.0,4022.0,3994.0,0.244,0.446,0.232,0.829
1099397,4842.0,2940.0,3920.0,0.24,0.446,0.233,0.83
1099413,4558.0,1970.0,3824.0,0.235,0.447,0.236,0.83
1099439,4780.0,2484.0,3710.0,0.227,0.448,0.243,0.83
1099456,4976.0,2830.0,3322.0,0.216,0.451,0.25,0.829
1099472,5096.0,3878.0,3160.0,0.204,0.454,0.257,0.828
1099489,5638.0,4042.0,2720.0,0.191,0.458,0.263,0.827
1099505,5710.0,3734.0,2932.0,0.177,0.462,0.267,0.827
1099521,5886.0,3418.0,2876.0,0.162,0.465,0.272,0.827
1099537,6246.0,3544.0,3020.0,0.145,0.469,0.276,0.826
1099564,6604.0,4348.0,3074.0,0.128,0.473,0.279,0.826
1099580,7382.0,5474.0,3072.0,0.111,0.476,0.283,0.825
1099596,7686.0,5218.0,3064.0,0.096,0.479,0.288,0.823
1099612,7912.0,5074.0,2952.0,0.08,0.481,0.296,0.822
1099628,7646.0,5744.0,2904.0,0.065,0.48,0.306,0.82
1099644,7068.0,6412.0,2702.0,0.05,0.478,0.315,0.819
1099660,6466.0,6792.0,2668.0,0.038,0.474,0.32,0.819
1099686,5874.0,6384.0,2558.0,0.028,0.47,0.321,0.822
1099702,5650.0,5062.0,2296.0,0.019,0.467,0.319,0.825
1099718,5618.0,4866.0,1986.0,0.011,0.465,0.317,0.827
1099734,5764.0,4110.0,1704.0,0.003,0.464,0.318,0.827
1099750,4922.0,4146.0,1236.0,0.007,-0.464,-0.321,-0.825
1099766,5242.0,4620.0,1090.0,0.016,-0.467,-0.328,-0.821
1099792,5722.0,4634.0,780.0,0.026,-0.472,-0.337,-0.814
1099808,6488.0,7216.0,624.0,0.034,-0.476,-0.347,-0.807
1099824,6238.0,7854.0,838.0,0.039,-0.481,-0.352,-0.802
1099841,6164.0,6594.0,1202.0,0.04,-0.485,-0.355,-0.798
1099858,6578.0,5568.0,1374.0,0.039,-0.488,-0.361,-0.794
1099874,6428.0,4960.0,1788.0,0.038,-0.49,-0.371,-0.788
1099891,7004.0,4304.0,2224.0,0.04,-0.491,-0.385,-0.781
1099907,6958.0,4238.0,2394.0,0.044,-0.491,-0.401,-0.772
1099934,6506.0,4002.0,2120.0,0.05,-0.489,-0.419,-0.763
1099950,6862.0,2830.0,1496.0,0.058,-0.486,-0.439,-0.753
1099966,6272.0,4476.0,596.0,0.067,-0.484,-0.46,-0.742
1099983,6738.0,4516.0,310.0,0.076,-0.482,-0.478,-0.73
1099999,6416.0,4684.0,-120.0,0.084,-0.481,-0.493,-0.72
1100016,7240.0,5094.0,-86.0,0.091,-0.479,-0.505,-0.712
1100032,6132.0,5066.0,-466.0,0.097,-0.477,-0.513,-0.706
1100049,6914.0,5474.0,-590.0,0.103,-0.477,-0.522,-0.699
1100075,7134.0,6508.0,-590.0,0.108,-0.478,-0.53,-0.692
1100091,7744.0,7494.0,-162.0,0.112,-0.478,-0.536,-0.686
1100108,7460.0,7866.0,-168.0,0.116,-0.477,-0.544,-0.681
1100124,7188.0,8746.0,-580.0,0.118,-0.475,-0.553,-0.674
1100141,6152.0,5416.0,-2152.0,0.118,-0.475,-0.56,-0.668
1100158,5552.0,4700.0,-1710.0,0.116,-0.476,-0.566,-0.663
1100174,6008.0,6266.0,-1478.0,0.111,-0.477,-0.571,-0.659
1100191,6240.0,5912.0,-1480.0,0.106,-0.477,-0.575,-0.656
1100208,6138.0,5984.0,-1362.0,0.101,-0.477,-0.579,-0.654
1100234,6246.0,5674.0,-1570.0,0.097,-0.476,-0.582,-0.652
1100250,6090.0,5610.0,-1490.0,0.093,-0.475,-0.586,-0.651
1100267,5722.0,5800.0,-1188.0,0.088,-0.473,-0.589,-0.649
1100283,5578.0,5740.0,-1028.0,0.084,-0.471,-0.593,-0.647
1100299,5550.0,5672.0,-1280.0,0.081,-0.468,-0.598,-0.645
1100315,5602.0,5854.0,-1566.0,0.077,-0.466,-0.602,-0.643
1100341,5472.0,5822.0,-1602.0,0.074,-0.464,-0.607,-0.641
1100358,5468.0,5838.0,-1790.0,0.071,-0.461,-0.611,-0.64
1100375,5170.0,6028.0,-1714.0,0.068,-0.458,-0.615,-0.638
1100391,4920.0,6360.0,-1872.0,0.064,-0.455,-0.618,-0.637
1100407,4844.0,6040.0,-1776.0,0.061,-0.452,-0.622,-0.636
1100423,4756.0,6552.0,-1976.0,0.058,-0.449,-0.626,-0.635
1100440,4694.0,6908.0,-2168.0,0.055,-0.446,-0.628,-0.635
1100457,4650.0,6622.0,-1982.0,0.053,-0.444,-0.629,-0.636
1100474,5170.0,6190.0,-1612.0,0.051,-0.441,-0.63,-0.637
1100501,6278.0,7008.0,-1292.0,0.049,-0.438,-0.632,-0.638
1100517,6244.0,5712.0,-1650.0,0.047,-0.434,-0.635,-0.638
1100533,5734.0,6520.0,-1426.0,0.044,-0.429,-0.64,-0.636
1100549,5984.0,6902.0,-1696.0,0.04,-0.423,-0.646,-0.634
1100565,5640.0,6932.0,-1814.0,0.035,-0.416,-0.652,-0.633
1100581,5324.0,6980.0,-1964.0,0.029,-0.409,-0.658,-0.631
1100607,5138.0,7062.0,-2192.0,0.022,-0.402,-0.664,-0.63
1100624,4848.0,7344.0,-2390.0,0.015,-0.395,-0.668,-0.63
1100640,4534.0,6804.0,-2276.0,0.008,-0.388,-0.672,-0.631
1100657,4518.0,6940.0,-2328.0,0.0,-0.381,-0.675,-0.632
1100674,4222.0,6266.0,-1976.0,0.006,0.375,0.678,0.633
1100690,4114.0,5794.0,-1998.0,0.013,0.369,0.68,0.634
1100706,4446.0,5836.0,-2108.0,0.019,0.364,0.681,0.635
1100723,4444.0,5530.0,-1976.0,0.024,0.359,0.682,0.636
1100749,3994.0,5070.0,-1734.0,0.028,0.356,0.682,0.638
1100765,4602.0,5284.0,-1946.0,0.031,0.354,0.683,0.639
1100781,3716.0,5024.0,-1604.0,0.033,0.353,0.682,0.64
1100798,3976.0,4554.0,-1494.0,0.033,0.353,0.682,0.64
1100814,4052.0,5148.0,-1580.0,0.032,0.353,0.682,0.639
1100830,4234.0,6722.0,-1694.0,0.032,0.355,0.681,0.64
1100846,4848.0,4274.0,-1166.0,0.034,0.356,0.679,0.641
1100872,3744.0,6800.0,-1668.0,0.037,0.357,0.679,0.641
1100888,4048.0,8270.0,-2198.0,0.04,0.357,0.678,0.641
1100905,3364.0,7796.0,-2168.0,0.043,0.357,0.677,0.642
1100922,2984.0,7724.0,-1892.0,0.045,0.357,0.675,0.644
1100939,2580.0,7840.0,-1766.0,0.046,0.358,0.673,0.645
1100955,2336.0,7640.0,-1682.0,0.046,0.359,0.671,0.647
1100972,1992.0,7610.0,-1616.0,0.045,0.36,0.669,0.649
1100989,1700.0,7664.0,-1540.0,0.043,0.362,0.665,0.651
1101005,1802.0,7578.0,-1616.0,0.041,0.365,0.661,0.654
1101022,2022.0,7046.0,-1566.0,0.037,0.369,0.657,0.656
1101048,1634.0,6842.0,-1038.0,0.033,0.373,0.653,0.659
1101064,1796.0,7150.0,-1066.0,0.03,0.378,0.648,0.66
1101080,1802.0,6690.0,-1000.0,0.025,0.383,0.644,0.662
1101096,1986.0,6694.0,-950.0,0.021,0.389,0.639,0.663
1101112,1842.0,6676.0,-890.0,0.016,0.396,0.635,0.663
1101138,2206.0,6824.0,-1084.0,0.011,0.403,0.631,0.663
1101155,2390.0,7088.0,-1198.0,0.007,0.409,0.627,0.663
1101172,2642.0,7204.0,-1186.0,0.002,0.415,0.623,0.662
1101189,2996.0,7402.0,-1252.0,0.003,-0.421,-0.62,-0.662
1101206,3136.0,7072.0,-972.0,0.007,-0.427,-0.616,-0.662
1101223,3300.0,7254.0,-910.0,0.011,-0.432,-0.613,-0.661
1101240,3550.0,7162.0,-996.0,0.015,-0.437,-0.61,-0.661
1101257,3726.0,7136.0,-1004.0,0.019,-0.442,-0.608,-0.66
1101274,3716.0,7104.0,-1028.0,0.022,-0.446,-0.606,-0.659
1101291,3734.0,7120.0,-1094.0,0.026,-0.449,-0.604,-0.658
1101307,3908.0,7162.0,-1146.0,0.029,-0.453,-0.602,-0.657
1101323,3912.0,7080.0,-1126.0,0.032,-0.456,-0.6,-0.656
1101350,4142.0,7100.0,-1312.0,0.035,-0.459,-0.598,-0.656
1101366,4300.0,6822.0,-1222.0,0.038,-0.461,-0.595,-0.657
1101383,4290.0,6828.0,-1140.0,0.041,-0.464,-0.593,-0.657
1101399,4404.0,6576.0,-992.0,0.044,-0.465,-0.59,-0.658
1101415,4510.0,6602.0,-1052.0,0.047,-0.467,-0.588,-0.659
1101431,4614.0,6472.0,-984.0,0.05,-0.469,-0.586,-0.659
1101447,4606.0,6574.0,-922.0,0.053,-0.47,-0.584,-0.659
1101473,4744.0,6270.0,-976.0,0.055,-0.472,-0.582,-0.66
1101490,4784.0,6082.0,-974.0,0.057,-0.473,-0.58,-0.661
1101507,5056.0,5970.0,-1070.0,0.06,-0.475,-0.578,-0.661
1101524,5054.0,6042.0,-1010.0,0.063,-0.476,-0.576,-0.662
1101541,5106.0,5994.0,-1024.0,0.065,-0.477,-0.574,-0.663
1101558,5184.0,5814.0,-1028.0,0.068,-0.478,-0.572,-0.663
1101574,5268.0,5698.0,-984.0,0.071,-0.478,-0.57,-0.664
1101591,5338.0,5748.0,-952.0,0.074,-0.479,-0.568,-0.665
1101607,5346.0,5510.0,-922.0,0.077,-0.48,-0.567,-0.666
1101633,5376.0,5714.0,-1016.0,0.08,-0.48,-0.565,-0.666
1101649,5574.0,5818.0,-1044.0,0.083,-0.481,-0.563,-0.666
1101665,5718.0,5740.0,-1086.0,0.086,-0.482,-0.562,-0.667
1101681,5696.0,5508.0,-998.0,0.09,-0.484,-0.56,-0.667
1101697,5888.0,5658.0,-1030.0,0.093,-0.485,-0.558,-0.667
1101713,5846.0,5360.0,-1006.0,0.096,-0.486,-0.556,-0.667
1101739,5740.0,5656.0,-888.0,0.099,-0.488,-0.555,-0.667
1101755,5706.0,5456.0,-824.0,0.102,-0.489,-0.553,-0.666
1101772,5848.0,5484.0,-930.0,0.105,-0.491,-0.552,-0.666
1101789,5782.0,5270.0,-858.0,0.108,-0.493,-0.551,-0.665
1101806,5768.0,5484.0,-950.0,0.11,-0.495,-0.549,-0.664
1101823,5822.0,5296.0,-840.0,0.113,-0.497,-0.548,-0.663
1101840,5878.0,5604.0,-990.0,0.116,-0.499,-0.547,-0.662
1101857,6134.0,5320.0,-1024.0,0.118,-0.501,-0.545,-0.661
1101873,6018.0,5412.0,-894.0,0.12,-0.503,-0.544,-0.661
1101890,6010.0,5076.0,-944.0,0.122,-0.505,-0.542,-0.66
1101916,5886.0,5242.0,-826.0,0.124,-0.506,-0.541,-0.66
1101932,6142.0,5140.0,-890.0,0.126,-0.508,-0.54,-0.659
1101948,6294.0,5330.0,-980.0,0.128,-0.509,-0.538,-0.659
1101965,6462.0,5044.0,-932.0,0.13,-0.511,-0.537,-0.659
1101981,6420.0,5120.0,-928.0,0.131,-0.512,-0.535,-0.659
1101997,6340.0,4916.0,-924.0,0.133,-0.513,-0.534,-0.659
1102023,6446.0,4996.0,-908.0,0.134,-0.514,-0.532,-0.659
1102040,6716.0,5090.0,-876.0,0.136,-0.515,-0.531,-0.659
1102061,6784.0,4952.0,-906.0,0.137,-0.516,-0.53,-0.659
1102077,6608.0,4898.0,-814.0,0.138,-0.516,-0.528,-0.66
1102093,6774.0,4892.0,-890.0,0.139,-0.517,-0.527,-0.66
1102109,6660.0,4566.0,-740.0,0.14,-0.518,-0.525,-0.661
1102125,6672.0,4706.0,-846.0,0.141,-0.519,-0.524,-0.661
1102141,6564.0,5038.0,-916.0,0.142,-0.52,-0.523,-0.661
1102157,6604.0,4588.0,-818.0,0.143,-0.521,-0.521,-0.661
1102173,6674.0,4900.0,-876.0,0.145,-0.522,-0.519,-0.661
1102200,6604.0,4414.0,-786.0,0.147,-0.524,-0.516,-0.661
1102216,6830.0,4396.0,-762.0,0.15,-0.525,-0.514,-0.662
1102232,6670.0,4098.0,-734.0,0.152,-0.527,-0.511,-0.662
1102248,6638.0,4038.0,-748.0,0.155,-0.529,-0.508,-0.662
1102264,6636.0,4022.0,-622.0,0.157,-0.531,-0.504,-0.662
1102280,6694.0,3958.0,-668.0,0.16,-0.533,-0.501,-0.663
1102306,7012.0,3690.0,-758.0,0.163,-0.535,-0.498,-0.663
1102322,6914.0,3776.0,-656.0,0.165,-0.537,-0.494,-0.663
1102339,6966.0,3948.0,-710.0,0.168,-0.54,-0.491,-0.663
1102356,7018.0,3856.0,-802.0,0.17,-0.542,-0.488,-0.663
1102372,7120.0,3950.0,-634.0,0.173,-0.544,-0.484,-0.663
1102388,7274.0,3612.0,-718.0,0.176,-0.547,-0.481,-0.663
1102405,6984.0,3436.0,-690.0,0.179,-0.549,-0.477,-0.663
1102421,6938.0,3484.0,-590.0,0.183,-0.552,-0.473,-0.662
1102438,6946.0,3306.0,-540.0,0.186,-0.554,-0.469,-0.662
1102465,6888.0,3336.0,-472.0,0.188,-0.557,-0.465,-0.662
1102481,7112.0,3242.0,-600.0,0.191,-0.559,-0.461,-0.662
1102497,7354.0,3184.0,-602.0,0.193,-0.562,-0.457,-0.662
1102513,7386.0,3182.0,-658.0,0.196,-0.565,-0.452,-0.662
1102529,7358.0,3186.0,-550.0,0.198,-0.567,-0.448,-0.662
1102545,7360.0,3214.0,-440.0,0.2,-0.57,-0.444,-0.662
1102571,7312.0,3210.0,-698.0,0.201,-0.573,-0.44,-0.662
1102588,7668.0,3090.0,-618.0,0.202,-0.576,-0.436,-0.662
1102605,7800.0,3080.0,-600.0,0.203,-0.578,-0.432,-0.662
1102622,7888.0,3142.0,-618.0,0.204,-0.58,-0.429,-0.662
1102639,7866.0,3072.0,-548.0,0.205,-0.582,-0.425,-0.662
1102656,8004.0,2972.0,-512.0,0.205,-0.584,-0.422,-0.662
1102672,8130.0,2884.0,-504.0,0.205,-0.586,-0.418,-0.663
1102689,8232.0,3032.0,-504.0,0.204,-0.588,-0.415,-0.663
1102705,8328.0,2884.0,-518.0,0.204,-0.59,-0.412,-0.664
1102722,8546.0,2984.0,-556.0,0.203,-0.591,-0.41,-0.664
1102739,8674.0,2940.0,-472.0,0.202,-0.592,-0.407,-0.665
1102766,8990.0,2796.0,-564.0,0.201,-0.593,-0.406,-0.666
1102782,9384.0,2908.0,-584.0,0.199,-0.593,-0.404,-0.667
1102798,9768.0,3086.0,-486.0,0.198,-0.593,-0.404,-0.668
1102814,10182.0,3086.0,-658.0,0.195,-0.593,-0.404,-0.669
1102830,10240.0,2952.0,-552.0,0.191,-0.592,-0.405,-0.67
1102846,10452.0,3032.0,-488.0,0.186,-0.591,-0.407,-0.671
1102863,10686.0,3134.0,-672.0,0.18,-0.59,-0.411,-0.672
1102889,10728.0,3392.0,-920.0,0.173,-0.588,-0.415,-0.673
1102906,10672.0,3564.0,-996.0,0.166,-0.585,-0.419,-0.674
1102923,10550.0,3974.0,-1006.0,0.158,-0.583,-0.424,-0.675
1102940,10498.0,3882.0,-950.0,0.15,-0.58,-0.429,-0.676
1102956,10096.0,3986.0,-796.0,0.141,-0.577,-0.435,-0.677
1102973,9738.0,4190.0,-840.0,0.131,-0.573,-0.44,-0.678
1102989,9378.0,4406.0,-796.0,0.122,-0.57,-0.446,-0.679
1103005,9164.0,4810.0,-724.0,0.112,-0.566,-0.452,-0.68
1103031,8930.0,4822.0,-794.0,0.102,-0.563,-0.458,-0.681
1103047,8710.0,4856.0,-900.0,0.091,-0.559,-0.464,-0.681
1103063,8418.0,5196.0,-840.0,0.081,-0.556,-0.47,-0.681
1103079,7954.0,5326.0,-834.0,0.072,-0.552,-0.475,-0.681
1103095,7606.0,4996.0,-858.0,0.063,-0.549,-0.48,-0.682
1103111,7208.0,5296.0,-888.0,0.054,-0.545,-0.485,-0.682
1103137,6820.0,5476.0,-818.0,0.047,-0.542,-0.489,-0.682
1103154,6626.0,5196.0,-824.0,0.04,-0.539,-0.493,-0.682
1103171,6148.0,5156.0,-694.0,0.033,-0.535,-0.497,-0.682
1103188,5650.0,5000.0,-536.0,0.028,-0.532,-0.5,-0.683
1103205,5524.0,5032.0,-612.0,0.024,-0.529,-0.503,-0.683
1103222,5228.0,4934.0,-548.0,0.021,-0.525,-0.506,-0.684
1103239,4750.0,4912.0,-346.0,0.019,-0.522,-0.509,-0.684
1103255,4812.0,5202.0,-528.0,0.018,-0.52,-0.511,-0.684
1103272,4424.0,5074.0,-324.0,0.017,-0.517,-0.514,-0.685
1103289,4452.0,5206.0,-348.0,0.018,-0.514,-0.515,-0.686
1103316,4360.0,4934.0,-328.0,0.019,-0.511,-0.518,-0.686
1103332,4374.0,5306.0,-400.0,0.022,-0.508,-0.52,-0.686
1103348,4394.0,5462.0,-460.0,0.025,-0.505,-0.522,-0.687
1103364,4622.0,5606.0,-496.0,0.029,-0.502,-0.524,-0.688
1103380,4718.0,5838.0,-638.0,0.034,-0.498,-0.525,-0.689
1103396,4476.0,5252.0,-720.0,0.04,-0.494,-0.526,-0.691
1103412,4024.0,5254.0,-618.0,0.045,-0.49,-0.528,-0.693
1103439,3112.0,5470.0,-192.0,0.05,-0.486,-0.529,-0.694
1103456,2344.0,4544.0,-142.0,0.055,-0.482,-0.53,-0.695
1103472,1526.0,4074.0,-206.0,0.06,-0.479,-0.532,-0.696
1103489,554.0,4206.0,-20.0,0.063,-0.475,-0.533,-0.697
1103506,-446.0,3686.0,-14.0,0.065,-0.473,-0.534,-0.698
1103523,-854.0,2780.0,54.0,0.066,-0.47,-0.535,-0.699
1103539,-880.0,3712.0,110.0,0.067,-0.468,-0.537,-0.699
1103556,-716.0,3574.0,436.0,0.067,-0.468,-0.537,-0.699
1103572,-278.0,3738.0,432.0,0.066,-0.469,-0.537,-0.698
1103589,706.0,3322.0,-64.0,0.065,-0.47,-0.537,-0.697
1103616,1548.0,2826.0,-326.0,0.063,-0.472,-0.538,-0.696
1103632,1812.0,3610.0,-160.0,0.062,-0.473,-0.539,-0.694
1103648,2428.0,3904.0,-302.0,0.061,-0.474,-0.541,-0.692
1103664,2318.0,4076.0,-28.0,0.06,-0.475,-0.544,-0.689
1103680,2974.0,6518.0,-42.0,0.059,-0.477,-0.545,-0.687
1103696,2982.0,4598.0,-52.0,0.057,-0.48,-0.544,-0.686
1103722,3930.0,5506.0,-354.0,0.056,-0.483,-0.543,-0.685
1103738,3984.0,3828.0,-590.0,0.055,-0.485,-0.543,-0.683
1103755,4304.0,4608.0,-536.0,0.055,-0.486,-0.546,-0.681
1103772,4770.0,7852.0,-372.0,0.055,-0.487,-0.547,-0.679
1103789,4710.0,7200.0,-156.0,0.055,-0.489,-0.545,-0.679
1103806,5350.0,6078.0,-710.0,0.054,-0.492,-0.543,-0.678
1103822,5384.0,4918.0,-894.0,0.055,-0.495,-0.541,-0.678
1103839,6140.0,5618.0,-960.0,0.056,-0.495,-0.541,-0.677
1103855,5588.0,6234.0,-450.0,0.058,-0.496,-0.541,-0.677
1103881,6202.0,7476.0,-710.0,0.061,-0.497,-0.539,-0.677
1103897,5712.0,5464.0,-932.0,0.064,-0.499,-0.537,-0.677
1103913,6608.0,5348.0,-1190.0,0.068,-0.5,-0.536,-0.677
1103929,5888.0,5554.0,-386.0,0.072,-0.501,-0.535,-0.676
1103945,6676.0,6922.0,-844.0,0.077,-0.502,-0.534,-0.676
1103961,5696.0,5282.0,-538.0,0.081,-0.503,-0.533,-0.675
1103987,7232.0,5826.0,-1150.0,0.086,-0.505,-0.532,-0.674
1104004,7480.0,5564.0,-968.0,0.092,-0.506,-0.531,-0.673
1104021,7802.0,5898.0,-936.0,0.098,-0.508,-0.53,-0.672
1104038,7160.0,5474.0,-682.0,0.104,-0.51,-0.528,-0.67
1104056,7072.0,5502.0,-836.0,0.11,-0.513,-0.527,-0.669
1104073,6694.0,5246.0,-672.0,0.116,-0.516,-0.525,-0.667
1104089,7400.0,5230.0,-1028.0,0.122,-0.519,-0.523,-0.665
1104105,7720.0,4986.0,-1134.0,0.129,-0.522,-0.522,-0.662
1104122,7794.0,5176.0,-1080.0,0.135,-0.524,-0.52,-0.661
1104138,7736.0,4874.0,-966.0,0.141,-0.526,-0.517,-0.66
1104165,7958.0,4814.0,-924.0,0.148,-0.528,-0.515,-0.659
1104181,8632.0,4712.0,-1034.0,0.156,-0.53,-0.511,-0.659
1104197,8976.0,4908.0,-910.0,0.165,-0.532,-0.507,-0.658
1104213,9436.0,4626.0,-1052.0,0.174,-0.533,-0.502,-0.658
1104229,10138.0,4450.0,-1132.0,0.183,-0.534,-0.497,-0.658
1104245,10044.0,4676.0,-1030.0,0.192,-0.535,-0.493,-0.659
1104271,10852.0,4764.0,-1034.0,0.199,-0.535,-0.489,-0.659
1104287,11372.0,4086.0,-1256.0,0.203,-0.535,-0.487,-0.66
1104304,11630.0,4130.0,-982.0,0.206,-0.535,-0.486,-0.66
1104320,11766.0,4026.0,-708.0,0.205,-0.534,-0.487,-0.66
1104337,11850.0,3798.0,-954.0,0.202,-0.534,-0.488,-0.66
1104354,12276.0,4010.0,-1364.0,0.197,-0.534,-0.491,-0.66
1104371,12452.0,4288.0,-1556.0,0.191,-0.533,-0.493,-0.661
1104388,12474.0,4234.0,-1646.0,0.184,-0.531,-0.497,-0.661
1104405,12002.0,4532.0,-1600.0,0.176,-0.529,-0.501,-0.662
1104421,11472.0,4898.0,-1376.0,0.166,-0.526,-0.505,-0.664
1104448,11072.0,5030.0,-1386.0,0.157,-0.523,-0.509,-0.665
1104464,10276.0,5788.0,-1084.0,0.146,-0.521,-0.513,-0.666
1104480,9898.0,5412.0,-1368.0,0.135,-0.518,-0.517,-0.668
1104496,9262.0,5548.0,-1350.0,0.124,-0.516,-0.52,-0.669
1104513,8716.0,6036.0,-1302.0,0.114,-0.513,-0.524,-0.671
1104530,8156.0,5770.0,-1286.0,0.104,-0.51,-0.527,-0.672
1104546,7492.0,5482.0,-1162.0,0.094,-0.508,-0.529,-0.673
1104572,6972.0,5488.0,-918.0,0.086,-0.506,-0.531,-0.674
1104588,6426.0,5584.0,-820.0,0.079,-0.504,-0.532,-0.675
1104605,5880.0,5118.0,-770.0,0.072,-0.503,-0.533,-0.676
1104622,5396.0,5140.0,-728.0,0.067,-0.502,-0.535,-0.677
1104638,5060.0,5296.0,-662.0,0.063,-0.501,-0.535,-0.678
1104655,4656.0,5196.0,-604.0,0.059,-0.5,-0.535,-0.678
1104672,4430.0,5666.0,-520.0,0.057,-0.499,-0.535,-0.679
1104689,4544.0,4910.0,-612.0,0.056,-0.499,-0.534,-0.68
1104706,4458.0,4942.0,-596.0,0.055,-0.499,-0.534,-0.68
1104722,4276.0,5098.0,-478.0,0.055,-0.498,-0.534,-0.681
1104748,4224.0,5666.0,-550.0,0.056,-0.497,-0.533,-0.683
1104764,3976.0,4568.0,-506.0,0.058,-0.495,-0.533,-0.684
1104780,4150.0,5612.0,-510.0,0.061,-0.493,-0.532,-0.686
1104796,3646.0,5536.0,-428.0,0.064,-0.49,-0.531,-0.688
1104812,3196.0,4910.0,-368.0,0.068,-0.487,-0.53,-0.691
1104828,2496.0,4382.0,-346.0,0.071,-0.484,-0.53,-0.693
1104854,1224.0,3848.0,-242.0,0.073,-0.479,-0.53,-0.696
1104871,222.0,3796.0,-140.0,0.076,-0.474,-0.531,-0.698
1104888,-552.0,4398.0,-282.0,0.077,-0.468,-0.531,-0.702
1104905,-1504.0,3650.0,-38.0,0.077,-0.462,-0.53,-0.707
1104922,-2094.0,2950.0,262.0,0.076,-0.457,-0.528,-0.712
1104939,-2166.0,1470.0,742.0,0.074,-0.453,-0.526,-0.716
1104955,-2026.0,1878.0,954.0,0.07,-0.448,-0.528,-0.718
1104972,-1276.0,3284.0,1094.0,0.066,-0.446,-0.53,-0.719
1104989,-616.0,4856.0,1212.0,0.06,-0.446,-0.53,-0.719
1105006,216.0,4384.0,708.0,0.052,-0.448,-0.528,-0.72
1105033,1440.0,776.0,-216.0,0.046,-0.45,-0.526,-0.72
1105049,1920.0,704.0,-810.0,0.044,-0.453,-0.53,-0.715
1105066,3250.0,4498.0,300.0,0.044,-0.454,-0.537,-0.709
1105083,2902.0,6106.0,636.0,0.044,-0.457,-0.542,-0.704
1105100,4086.0,5210.0,-22.0,0.044,-0.46,-0.546,-0.699
1105117,4924.0,5842.0,-162.0,0.045,-0.462,-0.551,-0.693
1105134,5202.0,8396.0,-120.0,0.047,-0.464,-0.555,-0.689
1105151,5576.0,8092.0,-212.0,0.048,-0.466,-0.555,-0.688
1105168,5370.0,6262.0,-454.0,0.05,-0.468,-0.555,-0.686
1105185,5504.0,5732.0,-562.0,0.052,-0.469,-0.556,-0.684
1105202,6148.0,6632.0,-540.0,0.056,-0.469,-0.558,-0.682
1105219,6258.0,8206.0,-206.0,0.061,-0.47,-0.558,-0.681
1105236,6034.0,8266.0,-314.0,0.066,-0.472,-0.556,-0.681
1105253,5998.0,6364.0,-670.0,0.07,-0.474,-0.552,-0.682
1105280,6906.0,4190.0,-1538.0,0.074,-0.475,-0.551,-0.682
1105296,6978.0,5500.0,-1170.0,0.08,-0.474,-0.554,-0.68
1105312,6316.0,7380.0,-408.0,0.087,-0.473,-0.554,-0.68
1105328,6046.0,7576.0,-288.0,0.092,-0.473,-0.553,-0.68
1105344,6580.0,6180.0,-666.0,0.096,-0.474,-0.55,-0.681
1105360,6830.0,4988.0,-1022.0,0.1,-0.476,-0.548,-0.681
1105386,6824.0,5118.0,-1028.0,0.105,-0.476,-0.548,-0.68
1105403,6514.0,6000.0,-586.0,0.11,-0.476,-0.548,-0.679
1105420,6330.0,5970.0,-284.0,0.113,-0.477,-0.546,-0.679
1105437,6406.0,6210.0,-558.0,0.116,-0.479,-0.544,-0.679
1105454,6826.0,5874.0,-894.0,0.121,-0.483,-0.54,-0.679
1105471,6622.0,4954.0,-764.0,0.124,-0.487,-0.536,-0.678
1105488,6552.0,4746.0,-808.0,0.126,-0.49,-0.533,-0.678
1105505,6210.0,5052.0,-346.0,0.128,-0.494,-0.529,-0.678
1105522,6712.0,5932.0,-456.0,0.131,-0.499,-0.525,-0.677
1105539,7058.0,5914.0,-782.0,0.134,-0.505,-0.519,-0.677
1105556,7652.0,5472.0,-1096.0,0.139,-0.511,-0.511,-0.677
1105573,8036.0,5060.0,-1084.0,0.143,-0.516,-0.504,-0.678
1105589,7728.0,5080.0,-850.0,0.148,-0.521,-0.497,-0.678
1105615,8188.0,4588.0,-498.0,0.153,-0.524,-0.49,-0.679
1105631,8284.0,5072.0,-232.0,0.157,-0.528,-0.484,-0.68
1105647,8828.0,5190.0,34.0,0.161,-0.533,-0.477,-0.68
1105663,9652.0,4366.0,-452.0,0.165,-0.538,-0.469,-0.681
1105679,10238.0,4270.0,-600.0,0.17,-0.541,-0.463,-0.681
1105695,12154.0,4952.0,-1084.0,0.174,-0.543,-0.458,-0.682
1105721,12072.0,4382.0,-1022.0,0.176,-0.543,-0.454,-0.684
1105738,11736.0,4310.0,-692.0,0.175,-0.542,-0.453,-0.686
1105754,11896.0,4340.0,-328.0,0.171,-0.541,-0.453,-0.688
1105770,12376.0,3900.0,-644.0,0.165,-0.539,-0.453,-0.69
1105787,12642.0,3670.0,-1080.0,0.157,-0.537,-0.456,-0.692
1105803,12378.0,4350.0,-1054.0,0.149,-0.534,-0.459,-0.694
1105820,12010.0,4540.0,-1042.0,0.14,-0.532,-0.462,-0.696
1105837,11572.0,4764.0,-872.0,0.13,-0.53,-0.465,-0.697
1105864,11180.0,5256.0,-648.0,0.12,-0.528,-0.468,-0.698
1105880,10566.0,5362.0,-770.0,0.111,-0.527,-0.47,-0.7
1105896,9786.0,5196.0,-1114.0,0.101,-0.525,-0.473,-0.701
1105912,9318.0,5816.0,-1076.0,0.093,-0.521,-0.477,-0.702
1105928,8754.0,6342.0,-798.0,0.084,-0.518,-0.48,-0.703
1105945,8004.0,5844.0,-570.0,0.075,-0.516,-0.483,-0.704
1105962,7420.0,5502.0,-294.0,0.067,-0.513,-0.485,-0.705
1105988,6686.0,5486.0,-74.0,0.06,-0.511,-0.488,-0.705
1106005,6232.0,5408.0,-178.0,0.053,-0.509,-0.49,-0.705
1106022,5924.0,5254.0,-344.0,0.047,-0.508,-0.492,-0.706
1106038,5706.0,5948.0,-278.0,0.042,-0.507,-0.493,-0.706
1106055,5372.0,5872.0,-102.0,0.038,-0.507,-0.493,-0.706
1106072,4970.0,5112.0,-28.0,0.034,-0.507,-0.492,-0.707
1106088,4786.0,5000.0,66.0,0.031,-0.507,-0.492,-0.707
1106104,4658.0,5278.0,282.0,0.029,-0.506,-0.493,-0.707
1106120,4382.0,5724.0,466.0,0.028,-0.506,-0.493,-0.707
1106146,4548.0,5598.0,322.0,0.028,-0.507,-0.492,-0.708
1106162,4290.0,5146.0,160.0,0.028,-0.507,-0.49,-0.709
1106178,4464.0,4984.0,-6.0,0.03,-0.506,-0.49,-0.71
1106194,4314.0,5562.0,674.0,0.033,-0.504,-0.49,-0.711
1106210,4666.0,5286.0,-200.0,0.038,-0.501,-0.489,-0.713
1106226,4794.0,5514.0,-308.0,0.044,-0.497,-0.488,-0.716
1106252,3716.0,5450.0,-236.0,0.052,-0.492,-0.485,-0.721
1106270,1820.0,4972.0,308.0,0.059,-0.487,-0.482,-0.726
1106287,680.0,4528.0,76.0,0.067,-0.482,-0.477,-0.732
1106303,-1172.0,4088.0,724.0,0.074,-0.478,-0.473,-0.737
1106320,-2228.0,4102.0,1688.0,0.077,-0.474,-0.468,-0.741
1106337,-2574.0,3834.0,1988.0,0.076,-0.473,-0.463,-0.746
1106354,-2606.0,2104.0,1422.0,0.071,-0.471,-0.456,-0.752
1106371,-2158.0,-2044.0,1288.0,0.065,-0.468,-0.454,-0.756
1106388,-1198.0,-368.0,1046.0,0.063,-0.464,-0.461,-0.753
1106405,-816.0,2992.0,696.0,0.064,-0.463,-0.472,-0.748
1106421,1006.0,3566.0,1370.0,0.065,-0.463,-0.482,-0.741
1106448,1428.0,2554.0,930.0,0.066,-0.463,-0.49,-0.735
1106465,794.0,1622.0,-640.0,0.067,-0.467,-0.497,-0.729
1106482,1716.0,1598.0,766.0,0.07,-0.469,-0.507,-0.72
1106499,2864.0,6906.0,980.0,0.072,-0.472,-0.517,-0.71
1106516,3466.0,8150.0,-548.0,0.071,-0.477,-0.522,-0.703
1106532,4852.0,4732.0,-984.0,0.072,-0.482,-0.524,-0.699
1106548,5624.0,3162.0,-460.0,0.074,-0.485,-0.529,-0.693
1106564,5272.0,6000.0,-800.0,0.078,-0.486,-0.536,-0.686
1106580,5086.0,8756.0,-876.0,0.082,-0.487,-0.541,-0.681
1106606,5116.0,7080.0,-492.0,0.083,-0.489,-0.541,-0.679
1106622,5578.0,5600.0,-564.0,0.084,-0.491,-0.542,-0.677
1106638,6516.0,4974.0,-1232.0,0.087,-0.493,-0.544,-0.674
1106654,6290.0,5294.0,-1072.0,0.093,-0.492,-0.549,-0.67
1106670,6018.0,7202.0,-1100.0,0.098,-0.491,-0.552,-0.667
1106686,5906.0,7468.0,-972.0,0.102,-0.49,-0.554,-0.665
1106713,6562.0,7578.0,-1328.0,0.107,-0.492,-0.552,-0.664
1106729,7394.0,5846.0,-1722.0,0.111,-0.493,-0.551,-0.664
1106745,6844.0,5456.0,-1224.0,0.116,-0.494,-0.55,-0.663
1106762,6858.0,6870.0,-976.0,0.12,-0.494,-0.55,-0.663
1106779,6600.0,5982.0,-728.0,0.124,-0.495,-0.548,-0.663
1106796,7950.0,6654.0,-1304.0,0.128,-0.497,-0.546,-0.662
1106812,7804.0,5610.0,-1240.0,0.131,-0.499,-0.544,-0.662
1106828,7324.0,4948.0,-1154.0,0.134,-0.501,-0.542,-0.662
1106855,7046.0,5284.0,-910.0,0.136,-0.503,-0.54,-0.661
1106871,6902.0,5622.0,-924.0,0.138,-0.505,-0.539,-0.66
1106887,7614.0,5902.0,-1130.0,0.14,-0.507,-0.537,-0.659
1106904,7834.0,5460.0,-1068.0,0.142,-0.511,-0.534,-0.659
1106920,7738.0,5484.0,-1060.0,0.143,-0.514,-0.531,-0.658
1106937,7290.0,4522.0,-848.0,0.144,-0.517,-0.527,-0.659
1106953,7168.0,4238.0,-968.0,0.146,-0.52,-0.525,-0.658
1106970,7790.0,5316.0,-1140.0,0.148,-0.522,-0.522,-0.658
1106987,7486.0,4830.0,-1058.0,0.152,-0.524,-0.518,-0.659
1107014,7290.0,5090.0,-930.0,0.155,-0.526,-0.514,-0.659
1107030,7384.0,4762.0,-738.0,0.158,-0.529,-0.509,-0.66
1107046,7744.0,4492.0,-648.0,0.161,-0.533,-0.504,-0.661
1107062,8878.0,4210.0,-934.0,0.166,-0.536,-0.498,-0.661
1107078,9546.0,4562.0,-1124.0,0.172,-0.539,-0.492,-0.661
1107104,10122.0,4436.0,-1344.0,0.178,-0.541,-0.487,-0.662
1107121,10320.0,3844.0,-1068.0,0.184,-0.544,-0.481,-0.663
1107138,11142.0,3922.0,-914.0,0.188,-0.546,-0.477,-0.663
1107155,11756.0,3504.0,-1126.0,0.192,-0.548,-0.473,-0.663
1107172,12108.0,3244.0,-1640.0,0.194,-0.549,-0.471,-0.662
1107189,11920.0,3044.0,-1726.0,0.193,-0.551,-0.471,-0.661
1107205,12362.0,3278.0,-1948.0,0.19,-0.552,-0.472,-0.66
1107223,12478.0,3206.0,-2150.0,0.186,-0.553,-0.474,-0.66
1107239,12360.0,3632.0,-2178.0,0.18,-0.552,-0.478,-0.659
1107256,11804.0,3650.0,-2036.0,0.174,-0.551,-0.483,-0.658
1107272,11238.0,4196.0,-1942.0,0.167,-0.549,-0.488,-0.658
1107288,10860.0,4980.0,-1900.0,0.16,-0.547,-0.493,-0.658
1107314,10372.0,4686.0,-1646.0,0.152,-0.545,-0.498,-0.658
1107330,9810.0,5306.0,-1512.0,0.143,-0.543,-0.503,-0.658
1107347,9546.0,5570.0,-1592.0,0.135,-0.54,-0.507,-0.657
1107364,9334.0,5930.0,-1698.0,0.128,-0.538,-0.512,-0.657
1107381,8766.0,6000.0,-1504.0,0.12,-0.535,-0.517,-0.658
1107397,8104.0,5998.0,-1456.0,0.114,-0.531,-0.521,-0.658
1107413,7308.0,5768.0,-1198.0,0.108,-0.528,-0.525,-0.658
1107439,6734.0,6128.0,-1036.0,0.104,-0.525,-0.529,-0.658
1107455,6118.0,5214.0,-1016.0,0.1,-0.523,-0.533,-0.658
1107472,5870.0,5662.0,-1174.0,0.097,-0.521,-0.536,-0.657
1107488,5614.0,5686.0,-1042.0,0.096,-0.519,-0.54,-0.655
1107504,5720.0,5954.0,-1026.0,0.095,-0.517,-0.544,-0.654
1107521,5408.0,5832.0,-892.0,0.095,-0.515,-0.549,-0.652
1107538,4720.0,4826.0,-576.0,0.094,-0.513,-0.553,-0.649
1107554,4274.0,5722.0,-570.0,0.093,-0.512,-0.559,-0.646
1107571,3854.0,5362.0,-706.0,0.092,-0.511,-0.564,-0.643
1107598,3802.0,5372.0,-1030.0,0.092,-0.511,-0.568,-0.639
1107615,4028.0,5322.0,-1524.0,0.093,-0.51,-0.572,-0.636
1107632,3592.0,4940.0,-1430.0,0.094,-0.509,-0.575,-0.634
1107649,3418.0,5320.0,-1278.0,0.096,-0.507,-0.578,-0.632
1107666,3068.0,4860.0,-1212.0,0.099,-0.504,-0.581,-0.631
1107683,2912.0,4958.0,-1258.0,0.103,-0.5,-0.583,-0.631
1107700,2434.0,4916.0,-1094.0,0.107,-0.496,-0.585,-0.633
1107717,1964.0,3468.0,-1048.0,0.111,-0.49,-0.587,-0.635
1107734,898.0,3756.0,-582.0,0.115,-0.484,-0.589,-0.637
1107751,-86.0,3332.0,-442.0,0.118,-0.478,-0.591,-0.639
1107768,-618.0,2782.0,-326.0,0.121,-0.472,-0.593,-0.641
1107785,-1028.0,2370.0,-62.0,0.123,-0.466,-0.595,-0.643
1107802,-1152.0,1798.0,-84.0,0.125,-0.462,-0.597,-0.644
1107819,-728.0,1698.0,56.0,0.125,-0.458,-0.6,-0.644
1107846,-702.0,2004.0,190.0,0.125,-0.455,-0.603,-0.643
1107862,-62.0,3286.0,-112.0,0.124,-0.454,-0.607,-0.641
1107878,762.0,2796.0,-314.0,0.122,-0.453,-0.61,-0.639
1107894,1272.0,2748.0,-768.0,0.119,-0.452,-0.614,-0.636
1107910,1484.0,4858.0,-628.0,0.116,-0.45,-0.619,-0.633
1107926,1438.0,5532.0,-830.0,0.111,-0.45,-0.623,-0.631
1107943,2646.0,6042.0,-1840.0,0.106,-0.45,-0.625,-0.629
1107970,2742.0,5270.0,-1662.0,0.101,-0.449,-0.628,-0.628
1107987,3056.0,6348.0,-1528.0,0.095,-0.448,-0.631,-0.626
1108003,2710.0,6182.0,-1336.0,0.089,-0.448,-0.633,-0.625
1108020,3446.0,5816.0,-1734.0,0.085,-0.448,-0.636,-0.623
1108037,4152.0,7014.0,-2142.0,0.082,-0.448,-0.638,-0.621
1108054,4898.0,7084.0,-2518.0,0.08,-0.45,-0.638,-0.62
1108074,4930.0,6546.0,-2120.0,0.078,-0.451,-0.638,-0.619
1108090,4884.0,5770.0,-1916.0,0.077,-0.453,-0.638,-0.618
1108106,5440.0,5746.0,-1986.0,0.078,-0.455,-0.638,-0.616
1108122,5268.0,6142.0,-1932.0,0.079,-0.457,-0.639,-0.614
1108138,6236.0,6902.0,-2770.0,0.082,-0.459,-0.639,-0.612
1108164,5922.0,6162.0,-2558.0,0.085,-0.461,-0.638,-0.611
1108181,7086.0,6044.0,-2952.0,0.089,-0.461,-0.638,-0.61
1108198,6168.0,6376.0,-2172.0,0.095,-0.461,-0.637,-0.61
1108214,6444.0,6122.0,-2240.0,0.101,-0.462,-0.635,-0.611
1108230,5800.0,5236.0,-1852.0,0.107,-0.462,-0.634,-0.611
1108246,6428.0,4862.0,-2250.0,0.114,-0.464,-0.631,-0.611
1108262,6958.0,4852.0,-2552.0,0.124,-0.465,-0.629,-0.611
1108288,7586.0,5646.0,-2978.0,0.134,-0.466,-0.625,-0.611
1108304,6848.0,5330.0,-1898.0,0.145,-0.468,-0.62,-0.612
1108320,6476.0,4282.0,-1542.0,0.154,-0.473,-0.614,-0.613
1108337,6350.0,3928.0,-1756.0,0.164,-0.478,-0.608,-0.613
1108354,6612.0,3752.0,-1942.0,0.174,-0.483,-0.603,-0.611
1108370,7932.0,5590.0,-2732.0,0.184,-0.488,-0.597,-0.61
1108387,7576.0,5030.0,-2054.0,0.193,-0.494,-0.59,-0.609
1108404,7546.0,4956.0,-2024.0,0.199,-0.5,-0.583,-0.608
1108430,7360.0,4674.0,-1706.0,0.204,-0.507,-0.576,-0.607
1108447,7920.0,4348.0,-1816.0,0.208,-0.515,-0.569,-0.607
1108464,8832.0,4994.0,-2390.0,0.213,-0.521,-0.56,-0.607
1108480,9028.0,4496.0,-2268.0,0.218,-0.527,-0.55,-0.61
1108497,9298.0,4898.0,-2182.0,0.223,-0.532,-0.54,-0.613
1108513,9068.0,4476.0,-1918.0,0.229,-0.536,-0.529,-0.617
1108529,9366.0,4380.0,-1774.0,0.234,-0.54,-0.518,-0.621
1108545,9896.0,4188.0,-1416.0,0.239,-0.544,-0.507,-0.624
1108571,10642.0,4056.0,-1300.0,0.245,-0.548,-0.496,-0.627
1108588,10692.0,3962.0,-1240.0,0.249,-0.552,-0.487,-0.63
1108604,10976.0,3598.0,-1252.0,0.25,-0.556,-0.479,-0.632
1108620,11480.0,3404.0,-1336.0,0.25,-0.559,-0.474,-0.633
1108637,11748.0,2742.0,-1398.0,0.247,-0.562,-0.471,-0.633
1108654,11644.0,2888.0,-1298.0,0.243,-0.564,-0.47,-0.634
1108671,11478.0,3202.0,-1598.0,0.238,-0.566,-0.47,-0.634
1108688,11264.0,3402.0,-1866.0,0.232,-0.568,-0.471,-0.634
1108705,10980.0,3674.0,-1948.0,0.225,-0.569,-0.472,-0.635
1108731,10904.0,3944.0,-2212.0,0.218,-0.569,-0.473,-0.636
1108748,10478.0,3974.0,-1928.0,0.21,-0.568,-0.475,-0.638
1108764,10126.0,4318.0,-1586.0,0.2,-0.567,-0.478,-0.64
1108780,9984.0,4134.0,-1710.0,0.19,-0.566,-0.482,-0.641
1108796,9708.0,4530.0,-1700.0,0.178,-0.564,-0.487,-0.643
1108813,9356.0,4734.0,-1666.0,0.166,-0.562,-0.492,-0.644
1108829,9026.0,4672.0,-1742.0,0.153,-0.559,-0.498,-0.645
1108855,9048.0,5330.0,-1920.0,0.142,-0.556,-0.503,-0.646
1108871,8498.0,4648.0,-1718.0,0.13,-0.553,-0.509,-0.647
1108888,7772.0,4974.0,-1520.0,0.119,-0.549,-0.514,-0.648
1108904,7428.0,4808.0,-1440.0,0.109,-0.544,-0.52,-0.65
1108920,7178.0,4666.0,-1514.0,0.1,-0.539,-0.525,-0.651
1108937,6674.0,4700.0,-1432.0,0.093,-0.534,-0.531,-0.652
1108954,6058.0,4828.0,-1312.0,0.086,-0.528,-0.536,-0.653
1108970,5050.0,4468.0,-992.0,0.081,-0.523,-0.541,-0.654
1108987,5274.0,4666.0,-1276.0,0.077,-0.518,-0.546,-0.654
1109014,4846.0,4258.0,-1268.0,0.075,-0.513,-0.55,-0.655
1109030,4494.0,5110.0,-1182.0,0.074,-0.508,-0.555,-0.655
1109046,4010.0,4668.0,-1056.0,0.074,-0.504,-0.558,-0.655
1109062,4326.0,5054.0,-1246.0,0.075,-0.5,-0.561,-0.655
1109079,4450.0,5096.0,-1206.0,0.078,-0.497,-0.564,-0.655
1109095,4784.0,5236.0,-1286.0,0.082,-0.493,-0.566,-0.656
1109111,4760.0,5774.0,-1368.0,0.087,-0.489,-0.568,-0.657
1109137,4346.0,5090.0,-1122.0,0.092,-0.485,-0.569,-0.658
1109154,4366.0,5416.0,-1108.0,0.097,-0.481,-0.57,-0.659
1109171,4214.0,5846.0,-948.0,0.103,-0.477,-0.571,-0.66
1109188,4400.0,6426.0,-1174.0,0.108,-0.473,-0.571,-0.662
1109205,4236.0,6476.0,-1038.0,0.113,-0.469,-0.571,-0.664
1109222,3964.0,6860.0,-908.0,0.118,-0.466,-0.57,-0.667
1109238,3136.0,6362.0,-768.0,0.122,-0.463,-0.568,-0.67
1109254,2318.0,5692.0,-534.0,0.126,-0.46,-0.565,-0.673
1109280,1240.0,5308.0,28.0,0.128,-0.457,-0.563,-0.677
1109297,890.0,3932.0,74.0,0.129,-0.453,-0.56,-0.681
1109313,-222.0,3466.0,272.0,0.128,-0.449,-0.558,-0.686
1109329,-1064.0,2526.0,410.0,0.126,-0.445,-0.556,-0.69
1109345,-1458.0,2574.0,344.0,0.124,-0.442,-0.554,-0.694
1109362,-1242.0,2450.0,148.0,0.12,-0.441,-0.552,-0.698
1109379,-304.0,1968.0,248.0,0.116,-0.44,-0.549,-0.701
1109395,-316.0,2302.0,154.0,0.112,-0.439,-0.547,-0.703
1109412,418.0,2684.0,232.0,0.107,-0.44,-0.545,-0.706
1109438,648.0,2574.0,398.0,0.101,-0.44,-0.544,-0.707
1109454,988.0,2388.0,498.0,0.095,-0.441,-0.543,-0.708
1109470,1332.0,3928.0,476.0,0.089,-0.443,-0.542,-0.709
1109486,1530.0,3770.0,656.0,0.084,-0.445,-0.541,-0.709
1109503,2656.0,5186.0,-16.0,0.079,-0.449,-0.539,-0.708
1109520,3078.0,3846.0,34.0,0.075,-0.453,-0.537,-0.708
1109536,3416.0,5808.0,-90.0,0.073,-0.456,-0.537,-0.706
1109562,4308.0,6242.0,-362.0,0.071,-0.46,-0.535,-0.705
1109578,4518.0,7238.0,-238.0,0.069,-0.463,-0.533,-0.705
1109594,5194.0,5484.0,-224.0,0.069,-0.467,-0.529,-0.705
1109610,5700.0,6232.0,-358.0,0.071,-0.47,-0.528,-0.704
1109626,6288.0,7540.0,6.0,0.074,-0.473,-0.526,-0.702
1109642,6858.0,7586.0,-176.0,0.077,-0.477,-0.523,-0.702
1109668,6782.0,6960.0,84.0,0.08,-0.48,-0.52,-0.702
1109685,6828.0,5876.0,254.0,0.082,-0.483,-0.518,-0.701
1109702,6822.0,6896.0,200.0,0.086,-0.486,-0.518,-0.699
1109718,7556.0,7458.0,-148.0,0.089,-0.488,-0.517,-0.697
1109735,8248.0,7306.0,-396.0,0.091,-0.49,-0.516,-0.696
1109752,8038.0,6324.0,-276.0,0.093,-0.492,-0.516,-0.695
1109769,7714.0,6160.0,-304.0,0.095,-0.493,-0.516,-0.694
1109786,7118.0,6046.0,-182.0,0.098,-0.494,-0.517,-0.692
1109803,7862.0,6680.0,-618.0,0.101,-0.494,-0.518,-0.691
1109820,8054.0,6950.0,-650.0,0.105,-0.496,-0.518,-0.689
1109837,7996.0,6096.0,-826.0,0.109,-0.497,-0.516,-0.689
1109864,7258.0,5382.0,-738.0,0.113,-0.498,-0.516,-0.688
1109881,6546.0,5022.0,-588.0,0.118,-0.498,-0.515,-0.687
1109898,6472.0,5216.0,-512.0,0.122,-0.499,-0.515,-0.686
1109915,6326.0,5072.0,-568.0,0.127,-0.501,-0.514,-0.685
1109932,6958.0,4876.0,-784.0,0.132,-0.503,-0.513,-0.683
1109949,6926.0,4820.0,-778.0,0.138,-0.505,-0.511,-0.682
1109966,6722.0,4404.0,-770.0,0.144,-0.507,-0.509,-0.68
1109983,7062.0,4232.0,-776.0,0.15,-0.51,-0.506,-0.679
1110000,7828.0,4392.0,-722.0,0.158,-0.513,-0.504,-0.677
1110017,8434.0,4746.0,-504.0,0.167,-0.516,-0.5,-0.676
1110034,9192.0,4214.0,-654.0,0.176,-0.519,-0.495,-0.674
1110051,9444.0,3634.0,-816.0,0.187,-0.522,-0.49,-0.673
1110068,9678.0,3960.0,-734.0,0.199,-0.524,-0.486,-0.67
1110088,10386.0,4500.0,-568.0,0.211,-0.527,-0.481,-0.668
1110104,11302.0,4154.0,-872.0,0.221,-0.531,-0.475,-0.666
1110121,12096.0,2986.0,-1124.0,0.229,-0.535,-0.47,-0.664
1110147,12460.0,2272.0,-1010.0,0.235,-0.536,-0.467,-0.663
1110164,12274.0,3318.0,-1312.0,0.238,-0.535,-0.467,-0.662
1110181,11990.0,2942.0,-964.0,0.239,-0.532,-0.47,-0.662
1110198,11812.0,3494.0,-938.0,0.239,-0.529,-0.475,-0.662
1110215,11724.0,4048.0,-1090.0,0.236,-0.525,-0.481,-0.662
1110231,11898.0,4352.0,-1538.0,0.231,-0.522,-0.487,-0.661
1110248,11776.0,4406.0,-1648.0,0.226,-0.518,-0.493,-0.661
1110265,11938.0,5062.0,-1662.0,0.22,-0.514,-0.5,-0.662
1110282,11182.0,4948.0,-1334.0,0.212,-0.51,-0.505,-0.663
1110299,10568.0,4708.0,-1298.0,0.205,-0.506,-0.511,-0.664
1110316,9892.0,4960.0,-1230.0,0.198,-0.5,-0.517,-0.666
1110333,9300.0,5608.0,-1100.0,0.19,-0.495,-0.523,-0.667
1110350,8466.0,5570.0,-1012.0,0.182,-0.491,-0.528,-0.669
1110377,7648.0,5642.0,-934.0,0.175,-0.487,-0.532,-0.67
1110393,7014.0,5820.0,-756.0,0.167,-0.485,-0.536,-0.671
1110409,6434.0,5482.0,-714.0,0.16,-0.483,-0.54,-0.671
1110425,6036.0,5466.0,-702.0,0.153,-0.481,-0.543,-0.671
1110441,6026.0,5726.0,-696.0,0.146,-0.48,-0.546,-0.671
1110457,5516.0,5594.0,-560.0,0.141,-0.479,-0.548,-0.671
1110483,5510.0,5606.0,-664.0,0.136,-0.479,-0.549,-0.671
1110500,5198.0,5410.0,-600.0,0.132,-0.478,-0.55,-0.672
1110518,5294.0,5250.0,-496.0,0.128,-0.478,-0.551,-0.672
1110535,5080.0,5202.0,-476.0,0.126,-0.477,-0.551,-0.673
1110553,5082.0,4774.0,-698.0,0.125,-0.475,-0.552,-0.674
1110570,4792.0,5376.0,-526.0,0.125,-0.473,-0.552,-0.675
1110587,4782.0,5340.0,-570.0,0.125,-0.47,-0.553,-0.677
1110603,4700.0,5034.0,-504.0,0.125,-0.467,-0.553,-0.679
1110620,4640.0,4832.0,-626.0,0.127,-0.463,-0.553,-0.681
1110636,4478.0,5066.0,-806.0,0.129,-0.458,-0.553,-0.684
1110653,3718.0,4952.0,-734.0,0.133,-0.452,-0.553,-0.687
1110669,3180.0,4912.0,-734.0,0.136,-0.445,-0.554,-0.69
1110696,2784.0,5508.0,-674.0,0.14,-0.439,-0.554,-0.693
1110712,2152.0,5020.0,-604.0,0.144,-0.432,-0.554,-0.697
1110728,1418.0,4798.0,-450.0,0.147,-0.425,-0.554,-0.701
1110744,218.0,4220.0,-218.0,0.151,-0.417,-0.554,-0.705
1110760,-996.0,3490.0,-306.0,0.153,-0.407,-0.555,-0.709
1110776,-1940.0,3738.0,134.0,0.155,-0.397,-0.556,-0.713
1110802,-2446.0,3250.0,658.0,0.155,-0.389,-0.558,-0.717
1110818,-2320.0,2690.0,982.0,0.153,-0.383,-0.559,-0.719
1110835,-1416.0,3368.0,1036.0,0.149,-0.38,-0.561,-0.72
1110851,-556.0,3092.0,714.0,0.145,-0.38,-0.563,-0.72
1110868,262.0,3246.0,442.0,0.139,-0.381,-0.565,-0.718
1110885,1018.0,2932.0,174.0,0.135,-0.384,-0.569,-0.715
1110902,1638.0,3548.0,-110.0,0.131,-0.387,-0.573,-0.71
1110919,2006.0,4432.0,204.0,0.127,-0.39,-0.578,-0.705
1110935,2766.0,5414.0,382.0,0.123,-0.395,-0.582,-0.7
1110952,2636.0,5532.0,22.0,0.118,-0.401,-0.583,-0.697
1110978,3620.0,4054.0,-598.0,0.113,-0.407,-0.584,-0.693
1110994,3916.0,5472.0,-758.0,0.108,-0.411,-0.586,-0.689
1111010,4138.0,6064.0,-706.0,0.105,-0.415,-0.588,-0.686
1111026,4250.0,6706.0,-602.0,0.102,-0.419,-0.589,-0.683
1111042,4514.0,6872.0,-644.0,0.099,-0.424,-0.587,-0.682
1111058,4800.0,5760.0,-728.0,0.097,-0.429,-0.586,-0.681
1111084,5538.0,6112.0,-950.0,0.096,-0.432,-0.584,-0.68
1111101,5454.0,6926.0,-654.0,0.096,-0.435,-0.583,-0.679
1111118,5010.0,6926.0,-438.0,0.096,-0.437,-0.581,-0.679
1111135,5838.0,6642.0,-888.0,0.096,-0.44,-0.578,-0.68
1111151,5604.0,6610.0,-540.0,0.097,-0.443,-0.576,-0.68
1111168,6528.0,7130.0,-856.0,0.099,-0.446,-0.572,-0.681
1111185,6480.0,7116.0,-670.0,0.1,-0.448,-0.569,-0.683
1111202,6070.0,6410.0,-508.0,0.102,-0.45,-0.564,-0.684
1111219,5854.0,6410.0,-382.0,0.103,-0.452,-0.561,-0.686
1111236,6088.0,6024.0,-602.0,0.105,-0.454,-0.557,-0.687
1111262,6592.0,5836.0,-854.0,0.107,-0.455,-0.555,-0.688
1111278,6338.0,5760.0,-640.0,0.11,-0.455,-0.552,-0.69
1111294,5788.0,6862.0,-100.0,0.113,-0.457,-0.55,-0.69
1111310,5920.0,5788.0,-240.0,0.116,-0.46,-0.545,-0.691
1111326,6926.0,6036.0,-568.0,0.119,-0.463,-0.541,-0.692
1111342,7000.0,5732.0,-428.0,0.122,-0.467,-0.537,-0.692
1111368,6820.0,4996.0,-364.0,0.124,-0.47,-0.533,-0.692
1111385,6370.0,4764.0,-254.0,0.127,-0.473,-0.531,-0.692
1111402,6202.0,5738.0,-94.0,0.131,-0.476,-0.528,-0.691
1111419,6214.0,5192.0,-394.0,0.136,-0.481,-0.524,-0.69
1111436,6604.0,5590.0,-514.0,0.141,-0.485,-0.52,-0.689
1111452,6568.0,5198.0,-356.0,0.145,-0.49,-0.514,-0.689
1111469,6822.0,4714.0,-470.0,0.15,-0.494,-0.509,-0.689
1111486,6914.0,4462.0,-562.0,0.156,-0.498,-0.504,-0.688
1111503,6962.0,5008.0,-22.0,0.163,-0.503,-0.499,-0.687
1111520,9288.0,5058.0,-88.0,0.173,-0.51,-0.491,-0.684
1111537,9366.0,4022.0,-680.0,0.182,-0.518,-0.483,-0.682
1111563,10218.0,2960.0,-326.0,0.193,-0.524,-0.476,-0.68
1111579,10396.0,4532.0,-258.0,0.204,-0.528,-0.47,-0.677
1111595,11580.0,5452.0,-348.0,0.214,-0.533,-0.464,-0.675
1111611,12464.0,4482.0,-946.0,0.222,-0.536,-0.459,-0.673
1111627,12346.0,4044.0,-1022.0,0.228,-0.537,-0.456,-0.673
1111643,11950.0,3868.0,-1130.0,0.233,-0.536,-0.455,-0.672
1111669,11772.0,4072.0,-946.0,0.237,-0.533,-0.456,-0.672
1111686,12116.0,4170.0,-818.0,0.238,-0.531,-0.457,-0.673
1111702,11886.0,3508.0,-184.0,0.238,-0.529,-0.457,-0.674
1111718,11634.0,2552.0,96.0,0.237,-0.529,-0.458,-0.675
1111735,11134.0,2530.0,-80.0,0.235,-0.528,-0.459,-0.675
1111752,11390.0,2420.0,-498.0,0.234,-0.527,-0.463,-0.674
1111769,11380.0,2896.0,-808.0,0.232,-0.524,-0.467,-0.673
1111786,10908.0,3484.0,-834.0,0.229,-0.52,-0.472,-0.673
1111803,11040.0,4024.0,-910.0,0.224,-0.516,-0.478,-0.674
1111820,11162.0,3960.0,-1104.0,0.218,-0.511,-0.485,-0.675
1111846,10590.0,3872.0,-944.0,0.211,-0.506,-0.491,-0.677
1111862,10098.0,4430.0,-786.0,0.204,-0.5,-0.499,-0.678
1111879,9776.0,4798.0,-902.0,0.197,-0.494,-0.506,-0.679
1111896,9054.0,4970.0,-932.0,0.189,-0.489,-0.513,-0.68
1111913,8302.0,4936.0,-918.0,0.181,-0.484,-0.52,-0.68
1111929,7790.0,4946.0,-1044.0,0.175,-0.479,-0.526,-0.681
1111945,7272.0,5644.0,-950.0,0.169,-0.474,-0.532,-0.681
1111961,6784.0,5542.0,-932.0,0.163,-0.47,-0.537,-0.681
1111987,6562.0,5262.0,-998.0,0.157,-0.466,-0.542,-0.682
1112003,6100.0,5172.0,-784.0,0.154,-0.461,-0.546,-0.682
1112019,5772.0,6226.0,-500.0,0.152,-0.457,-0.549,-0.683
1112036,5692.0,6326.0,-608.0,0.15,-0.455,-0.55,-0.684
1112052,6054.0,6538.0,-720.0,0.15,-0.452,-0.552,-0.684
1112069,5812.0,5126.0,-792.0,0.149,-0.449,-0.553,-0.686
1112085,6002.0,6078.0,-346.0,0.148,-0.444,-0.556,-0.687
1112112,5248.0,5546.0,-262.0,0.15,-0.439,-0.557,-0.689
1112128,5022.0,5010.0,-592.0,0.152,-0.435,-0.559,-0.689
1112144,3880.0,5232.0,-58.0,0.156,-0.43,-0.561,-0.69
1112160,3448.0,5986.0,64.0,0.16,-0.426,-0.562,-0.691
1112176,3090.0,4860.0,36.0,0.164,-0.423,-0.562,-0.691
1112192,2644.0,5282.0,94.0,0.168,-0.421,-0.562,-0.692
1112218,2094.0,5318.0,330.0,0.172,-0.42,-0.561,-0.692
1112234,1620.0,4294.0,218.0,0.176,-0.42,-0.56,-0.692
1112250,1120.0,4064.0,198.0,0.18,-0.418,-0.56,-0.692
1112267,374.0,4326.0,358.0,0.184,-0.416,-0.56,-0.693
1112284,-598.0,3330.0,318.0,0.187,-0.413,-0.559,-0.694
1112301,-1496.0,2488.0,468.0,0.189,-0.41,-0.56,-0.695
1112318,-2012.0,2768.0,656.0,0.188,-0.406,-0.561,-0.697
1112335,-2026.0,3180.0,774.0,0.187,-0.402,-0.562,-0.698
1112352,-1408.0,3408.0,484.0,0.185,-0.4,-0.562,-0.7
1112369,-332.0,2134.0,-56.0,0.184,-0.397,-0.564,-0.7
1112386,720.0,2948.0,-342.0,0.183,-0.393,-0.568,-0.699
1112412,680.0,5698.0,-500.0,0.183,-0.39,-0.572,-0.698
1112428,1438.0,5742.0,206.0,0.18,-0.389,-0.573,-0.699
1112444,1424.0,4300.0,354.0,0.175,-0.388,-0.573,-0.7
1112461,2112.0,3838.0,-36.0,0.167,-0.388,-0.575,-0.7
1112477,2770.0,4436.0,-544.0,0.16,-0.388,-0.58,-0.698
1112493,3752.0,6606.0,-922.0,0.155,-0.388,-0.584,-0.696
1112519,3504.0,7620.0,170.0,0.15,-0.39,-0.587,-0.694
1112535,2832.0,5656.0,198.0,0.144,-0.396,-0.585,-0.692
1112552,4026.0,3478.0,-588.0,0.137,-0.402,-0.585,-0.691
1112568,4464.0,4858.0,-1130.0,0.13,-0.405,-0.587,-0.688
1112585,4694.0,7058.0,-982.0,0.124,-0.408,-0.589,-0.686
1112602,4728.0,7040.0,-672.0,0.119,-0.413,-0.588,-0.686
1112619,4752.0,5470.0,-856.0,0.114,-0.418,-0.586,-0.685
1112636,4658.0,5532.0,-1226.0,0.109,-0.422,-0.585,-0.684
1112652,4806.0,5872.0,-1042.0,0.107,-0.426,-0.585,-0.682
1112678,4866.0,7024.0,-674.0,0.104,-0.43,-0.583,-0.681
1112694,5568.0,7458.0,-680.0,0.103,-0.437,-0.579,-0.681
1112710,6214.0,6448.0,-1120.0,0.102,-0.443,-0.573,-0.682
1112726,6628.0,5792.0,-1512.0,0.104,-0.449,-0.569,-0.681
1112743,6156.0,5624.0,-1122.0,0.106,-0.452,-0.568,-0.68
1112759,6362.0,7468.0,-522.0,0.109,-0.455,-0.566,-0.679
1112775,6582.0,7698.0,-538.0,0.111,-0.46,-0.561,-0.679
1112801,7198.0,5440.0,-1218.0,0.113,-0.464,-0.556,-0.68
1112818,6856.0,6228.0,-740.0,0.116,-0.468,-0.553,-0.679
1112834,6890.0,5378.0,-518.0,0.118,-0.471,-0.551,-0.679
1112851,7300.0,6528.0,-650.0,0.12,-0.474,-0.548,-0.679
1112868,7250.0,6230.0,-438.0,0.123,-0.477,-0.544,-0.679
1112885,6896.0,5688.0,-552.0,0.127,-0.481,-0.541,-0.679
1112902,6872.0,5472.0,-616.0,0.131,-0.485,-0.537,-0.678
1112919,7150.0,5300.0,-756.0,0.135,-0.488,-0.534,-0.677
1112936,7148.0,5790.0,-548.0,0.14,-0.491,-0.53,-0.677
1112952,7126.0,5680.0,-518.0,0.146,-0.494,-0.525,-0.678
1112979,7412.0,5176.0,-718.0,0.152,-0.498,-0.519,-0.678
1112995,7714.0,5116.0,-464.0,0.159,-0.501,-0.513,-0.679
1113012,7960.0,5118.0,-496.0,0.166,-0.504,-0.506,-0.68
1113028,8544.0,4998.0,-708.0,0.175,-0.507,-0.5,-0.68
1113045,9068.0,5416.0,-392.0,0.185,-0.509,-0.493,-0.681
1113061,9958.0,5542.0,-552.0,0.195,-0.511,-0.486,-0.682
1113077,10824.0,5122.0,-582.0,0.204,-0.514,-0.479,-0.682
1113103,11628.0,4840.0,-604.0,0.211,-0.516,-0.472,-0.683
1113119,12122.0,4312.0,-474.0,0.216,-0.518,-0.468,-0.683
1113136,12596.0,3824.0,-616.0,0.218,-0.518,-0.465,-0.684
1113152,12798.0,3996.0,-676.0,0.218,-0.518,-0.465,-0.684
1113168,12846.0,3960.0,-732.0,0.216,-0.518,-0.467,-0.684
1113185,12532.0,3758.0,-732.0,0.21,-0.518,-0.47,-0.684
1113202,12478.0,4008.0,-850.0,0.202,-0.517,-0.474,-0.683
1113218,12782.0,4092.0,-1134.0,0.194,-0.516,-0.479,-0.684
1113244,12832.0,4222.0,-1348.0,0.186,-0.513,-0.484,-0.684
1113260,12138.0,4476.0,-1186.0,0.176,-0.51,-0.489,-0.686
1113276,10944.0,4298.0,-996.0,0.166,-0.506,-0.494,-0.688
1113292,10132.0,4496.0,-870.0,0.156,-0.5,-0.499,-0.69
1113308,8888.0,5046.0,-332.0,0.147,-0.494,-0.505,-0.692
1113324,7816.0,5400.0,-128.0,0.138,-0.489,-0.51,-0.694
1113350,7432.0,5478.0,-250.0,0.131,-0.485,-0.515,-0.695
1113367,7082.0,5412.0,-470.0,0.124,-0.48,-0.52,-0.696
1113384,6828.0,5826.0,-442.0,0.118,-0.476,-0.524,-0.697
1113400,6284.0,5666.0,-376.0,0.113,-0.472,-0.528,-0.697
1113416,6178.0,5134.0,-376.0,0.109,-0.468,-0.531,-0.698
1113433,6140.0,5120.0,-378.0,0.107,-0.464,-0.535,-0.698
1113450,5730.0,5484.0,-208.0,0.106,-0.46,-0.539,-0.697
1113467,5760.0,5456.0,-304.0,0.105,-0.456,-0.543,-0.697
1113484,5658.0,6142.0,-126.0,0.105,-0.453,-0.547,-0.696
1113501,5924.0,6322.0,-124.0,0.105,-0.45,-0.551,-0.695
1113528,5682.0,5968.0,-26.0,0.104,-0.446,-0.554,-0.695
1113544,4982.0,5612.0,144.0,0.104,-0.442,-0.558,-0.695
1113560,4422.0,6338.0,110.0,0.104,-0.439,-0.561,-0.694
1113576,4208.0,5758.0,-86.0,0.106,-0.435,-0.564,-0.694
1113592,4054.0,5556.0,-626.0,0.109,-0.432,-0.566,-0.694
1113608,3762.0,5966.0,-638.0,0.114,-0.428,-0.568,-0.694
1113634,3818.0,7080.0,-640.0,0.12,-0.424,-0.568,-0.695
1113650,3084.0,5888.0,-594.0,0.126,-0.42,-0.567,-0.697
1113667,3218.0,5376.0,-764.0,0.132,-0.416,-0.565,-0.7
1113684,2708.0,5828.0,-536.0,0.14,-0.409,-0.564,-0.703
1113701,2084.0,6224.0,86.0,0.148,-0.402,-0.564,-0.706
1113717,1290.0,5838.0,314.0,0.155,-0.395,-0.562,-0.71
1113733,750.0,5012.0,318.0,0.161,-0.386,-0.56,-0.715
1113749,-276.0,3970.0,-116.0,0.167,-0.376,-0.559,-0.72
1113776,-1500.0,2642.0,-244.0,0.172,-0.364,-0.56,-0.724
1113792,-2760.0,3448.0,116.0,0.175,-0.35,-0.562,-0.729
1113808,-2952.0,2704.0,408.0,0.177,-0.337,-0.563,-0.733
1113824,-2934.0,1422.0,332.0,0.178,-0.326,-0.566,-0.736
1113840,-2654.0,2170.0,524.0,0.178,-0.318,-0.57,-0.736
1113856,-2308.0,2658.0,646.0,0.175,-0.314,-0.574,-0.736
1113882,-1240.0,2054.0,238.0,0.17,-0.313,-0.578,-0.734
1113899,-140.0,4198.0,-508.0,0.164,-0.314,-0.583,-0.731
1113916,922.0,3306.0,-412.0,0.159,-0.318,-0.587,-0.727
1113933,2024.0,2872.0,-38.0,0.154,-0.322,-0.592,-0.722
1113950,1656.0,4206.0,240.0,0.149,-0.327,-0.599,-0.716
1113967,2250.0,6322.0,-406.0,0.143,-0.332,-0.603,-0.711
1113984,3882.0,6414.0,-894.0,0.138,-0.34,-0.605,-0.707
1114000,3472.0,4572.0,-908.0,0.132,-0.346,-0.608,-0.703
1114016,3982.0,6692.0,-896.0,0.127,-0.351,-0.611,-0.698
1114033,3808.0,6958.0,-574.0,0.122,-0.355,-0.613,-0.695
1114050,4770.0,8236.0,-828.0,0.119,-0.361,-0.614,-0.692
1114067,4374.0,6522.0,-620.0,0.116,-0.367,-0.614,-0.69
1114094,5012.0,7464.0,-778.0,0.113,-0.372,-0.614,-0.687
1114110,5894.0,7712.0,-858.0,0.113,-0.376,-0.615,-0.684
1114126,5488.0,7764.0,-532.0,0.114,-0.38,-0.615,-0.682
1114142,5976.0,8238.0,-930.0,0.115,-0.386,-0.614,-0.68
1114158,5478.0,6562.0,-640.0,0.116,-0.391,-0.612,-0.678
1114174,6642.0,7746.0,-1104.0,0.118,-0.396,-0.611,-0.675
1114200,6738.0,6528.0,-720.0,0.121,-0.401,-0.609,-0.674
1114217,6612.0,6886.0,-592.0,0.125,-0.405,-0.607,-0.672
1114233,6446.0,6414.0,-858.0,0.128,-0.409,-0.605,-0.671
1114250,5964.0,6340.0,-710.0,0.132,-0.413,-0.603,-0.67
1114266,5872.0,6024.0,-986.0,0.136,-0.418,-0.6,-0.669
1114283,6142.0,5942.0,-992.0,0.141,-0.421,-0.597,-0.668
1114300,5894.0,6322.0,-766.0,0.147,-0.425,-0.594,-0.667
1114317,6586.0,6168.0,-1080.0,0.155,-0.428,-0.589,-0.667
1114333,6644.0,6036.0,-914.0,0.164,-0.431,-0.585,-0.667
1114350,6436.0,5962.0,-576.0,0.172,-0.433,-0.58,-0.668
1114377,6576.0,5518.0,-476.0,0.18,-0.436,-0.575,-0.669
1114394,6444.0,4978.0,-306.0,0.187,-0.439,-0.57,-0.669
1114410,6940.0,4790.0,-712.0,0.196,-0.442,-0.566,-0.668
1114426,7102.0,5534.0,-754.0,0.204,-0.445,-0.562,-0.666
1114442,7390.0,5324.0,-674.0,0.211,-0.448,-0.558,-0.666
1114458,7650.0,5072.0,-778.0,0.218,-0.45,-0.555,-0.665
1114474,7474.0,4806.0,-490.0,0.224,-0.453,-0.551,-0.664
1114500,7556.0,4606.0,-526.0,0.23,-0.456,-0.548,-0.663
1114517,7626.0,4854.0,-596.0,0.237,-0.459,-0.545,-0.661
1114533,7962.0,4852.0,-664.0,0.244,-0.464,-0.541,-0.658
1114550,9004.0,4850.0,-756.0,0.251,-0.469,-0.536,-0.655
1114566,10244.0,5076.0,-734.0,0.259,-0.475,-0.532,-0.652
1114582,11350.0,4890.0,-702.0,0.266,-0.48,-0.527,-0.649
1114599,12276.0,4998.0,-892.0,0.273,-0.484,-0.523,-0.647
1114616,12906.0,4948.0,-1054.0,0.279,-0.487,-0.519,-0.645
1114642,13588.0,4630.0,-1334.0,0.283,-0.488,-0.517,-0.644
1114658,13428.0,4416.0,-1028.0,0.283,-0.487,-0.517,-0.644
1114674,13038.0,3836.0,-688.0,0.281,-0.485,-0.52,-0.645
1114690,12896.0,4158.0,-828.0,0.275,-0.483,-0.524,-0.645
1114706,12648.0,4084.0,-950.0,0.269,-0.481,-0.529,-0.646
1114722,12216.0,4030.0,-1016.0,0.261,-0.478,-0.534,-0.646
1114748,11538.0,4196.0,-1146.0,0.252,-0.475,-0.541,-0.647
1114765,10866.0,4976.0,-1138.0,0.242,-0.472,-0.547,-0.648
1114782,10368.0,5170.0,-1182.0,0.232,-0.468,-0.553,-0.649
1114799,9714.0,5000.0,-1158.0,0.221,-0.464,-0.559,-0.651
1114816,9434.0,5522.0,-1234.0,0.211,-0.459,-0.564,-0.653
1114832,8484.0,5438.0,-962.0,0.201,-0.454,-0.57,-0.655
1114849,8498.0,5774.0,-1164.0,0.193,-0.448,-0.574,-0.657
1114866,8438.0,5992.0,-1500.0,0.186,-0.442,-0.579,-0.66
1114882,7582.0,5596.0,-1122.0,0.18,-0.436,-0.582,-0.663
1114899,6640.0,5330.0,-906.0,0.175,-0.431,-0.584,-0.665
1114926,5510.0,5052.0,-700.0,0.171,-0.426,-0.586,-0.667
1114942,4862.0,4378.0,-586.0,0.168,-0.422,-0.588,-0.669
1114958,3976.0,4810.0,-390.0,0.166,-0.419,-0.59,-0.67
1114974,4362.0,5158.0,-620.0,0.164,-0.417,-0.591,-0.671
1114990,4238.0,4866.0,-386.0,0.163,-0.415,-0.592,-0.672
1115006,4512.0,5166.0,-378.0,0.162,-0.413,-0.593,-0.672
1115032,4226.0,5276.0,-198.0,0.162,-0.411,-0.594,-0.672
1115049,4312.0,5152.0,-404.0,0.162,-0.409,-0.595,-0.673
1115066,3986.0,5842.0,-348.0,0.162,-0.407,-0.596,-0.673
1115083,4302.0,5886.0,-726.0,0.164,-0.404,-0.597,-0.673
1115099,4276.0,6926.0,-842.0,0.166,-0.401,-0.598,-0.673
1115116,4846.0,6152.0,-1480.0,0.17,-0.397,-0.598,-0.675
1115133,4230.0,6884.0,-1312.0,0.174,-0.392,-0.598,-0.677
1115150,2992.0,5352.0,-582.0,0.179,-0.387,-0.597,-0.679
1115166,1790.0,4774.0,-98.0,0.183,-0.382,-0.598,-0.681
1115182,1150.0,4404.0,28.0,0.186,-0.377,-0.599,-0.681
1115209,442.0,3592.0,-294.0,0.189,-0.373,-0.601,-0.681
1115225,-702.0,3286.0,-272.0,0.191,-0.368,-0.604,-0.681
1115241,-1300.0,3058.0,-350.0,0.192,-0.364,-0.606,-0.68
1115257,-1972.0,2218.0,-148.0,0.192,-0.36,-0.609,-0.68
1115273,-2078.0,1706.0,-478.0,0.191,-0.357,-0.612,-0.679
1115289,-2428.0,1924.0,-334.0,0.19,-0.355,-0.615,-0.678
1115315,-2290.0,1692.0,-306.0,0.188,-0.354,-0.618,-0.676
1115332,-1868.0,3474.0,-254.0,0.184,-0.354,-0.622,-0.673
1115349,-672.0,3286.0,-770.0,0.179,-0.357,-0.624,-0.672
1115366,174.0,3306.0,-808.0,0.174,-0.359,-0.626,-0.67
1115383,286.0,4088.0,-600.0,0.168,-0.361,-0.629,-0.668
1115400,642.0,4684.0,-416.0,0.162,-0.364,-0.63,-0.666
1115417,1652.0,5882.0,-760.0,0.156,-0.369,-0.631,-0.664
1115434,2898.0,6718.0,-1300.0,0.15,-0.374,-0.63,-0.664
1115450,3682.0,6428.0,-1210.0,0.144,-0.379,-0.628,-0.664
1115467,4054.0,6262.0,-1046.0,0.138,-0.384,-0.626,-0.664
1115483,4470.0,5946.0,-648.0,0.134,-0.389,-0.624,-0.664
1115510,5370.0,8076.0,-1280.0,0.129,-0.394,-0.621,-0.665
1115526,5580.0,7018.0,-982.0,0.124,-0.398,-0.617,-0.667
1115542,6618.0,6972.0,-1420.0,0.12,-0.403,-0.613,-0.669
1115559,6794.0,6944.0,-1214.0,0.117,-0.406,-0.609,-0.671
1115575,6660.0,6602.0,-950.0,0.116,-0.409,-0.606,-0.672
1115591,6832.0,7636.0,-1312.0,0.115,-0.411,-0.603,-0.674
1115607,6286.0,7006.0,-888.0,0.115,-0.414,-0.6,-0.675
1115633,6858.0,6206.0,-1200.0,0.114,-0.417,-0.597,-0.676
1115649,6318.0,6002.0,-968.0,0.114,-0.42,-0.594,-0.676
1115666,6092.0,6056.0,-884.0,0.115,-0.423,-0.593,-0.675
1115683,6042.0,6530.0,-968.0,0.117,-0.427,-0.592,-0.673
1115700,6220.0,5956.0,-1056.0,0.118,-0.432,-0.591,-0.671
1115716,6166.0,5818.0,-1024.0,0.119,-0.435,-0.591,-0.669
1115733,6408.0,6266.0,-1016.0,0.121,-0.439,-0.59,-0.666
1115750,6684.0,6078.0,-930.0,0.124,-0.444,-0.59,-0.663
1115767,7054.0,6750.0,-1212.0,0.128,-0.448,-0.588,-0.661
1115784,7010.0,5958.0,-1412.0,0.131,-0.451,-0.587,-0.66
1115810,6370.0,6294.0,-1230.0,0.135,-0.454,-0.585,-0.658
1115826,6106.0,5744.0,-1092.0,0.139,-0.457,-0.583,-0.657
1115842,6490.0,6158.0,-1046.0,0.144,-0.459,-0.581,-0.656
1115858,6648.0,5592.0,-1116.0,0.149,-0.462,-0.579,-0.655
1115874,6624.0,5696.0,-1110.0,0.153,-0.465,-0.576,-0.654
1115890,6438.0,5158.0,-1002.0,0.157,-0.468,-0.573,-0.654
1115916,6104.0,5020.0,-876.0,0.161,-0.47,-0.571,-0.654
1115932,6032.0,4832.0,-864.0,0.166,-0.473,-0.568,-0.653
1115948,5838.0,4560.0,-888.0,0.17,-0.477,-0.565,-0.652
1115965,5542.0,4460.0,-722.0,0.175,-0.481,-0.561,-0.651
1115982,5816.0,4088.0,-930.0,0.181,-0.485,-0.556,-0.65
1115998,5974.0,4176.0,-1062.0,0.188,-0.489,-0.551,-0.65
1116015,6206.0,4112.0,-972.0,0.195,-0.493,-0.545,-0.65
1116032,7214.0,4752.0,-1004.0,0.204,-0.498,-0.537,-0.65
1116058,9144.0,4936.0,-1474.0,0.215,-0.502,-0.529,-0.65
1116074,9456.0,5152.0,-1078.0,0.226,-0.507,-0.52,-0.649
1116091,10252.0,4964.0,-1146.0,0.236,-0.511,-0.512,-0.649
1116107,11354.0,5292.0,-1040.0,0.243,-0.515,-0.505,-0.649
1116123,12550.0,5290.0,-1034.0,0.248,-0.519,-0.499,-0.648
1116139,13654.0,4838.0,-1636.0,0.251,-0.521,-0.496,-0.648
1116165,13972.0,4882.0,-1838.0,0.253,-0.521,-0.495,-0.648
1116182,13832.0,5294.0,-1542.0,0.252,-0.52,-0.496,-0.648
1116199,13734.0,4994.0,-1260.0,0.248,-0.519,-0.499,-0.648
1116216,13470.0,4612.0,-1390.0,0.242,-0.518,-0.503,-0.649
1116233,12784.0,4572.0,-1348.0,0.236,-0.515,-0.507,-0.649
1116250,12258.0,5092.0,-1162.0,0.229,-0.512,-0.512,-0.65
1116267,12530.0,5140.0,-1476.0,0.222,-0.508,-0.517,-0.652
1116284,12324.0,4480.0,-1260.0,0.214,-0.503,-0.523,-0.654
1116301,11138.0,4570.0,-934.0,0.206,-0.495,-0.529,-0.658
1116317,9822.0,4916.0,-864.0,0.199,-0.487,-0.535,-0.661
1116334,9132.0,4838.0,-978.0,0.194,-0.477,-0.541,-0.664
1116360,8234.0,5442.0,-752.0,0.19,-0.468,-0.547,-0.668
1116376,8066.0,6184.0,-910.0,0.186,-0.46,-0.551,-0.671
1116392,7490.0,4590.0,-1082.0,0.184,-0.452,-0.555,-0.673
1116408,6610.0,4918.0,-726.0,0.182,-0.443,-0.561,-0.675
1116424,5316.0,5814.0,-176.0,0.181,-0.435,-0.566,-0.677
1116440,5374.0,5584.0,-554.0,0.18,-0.428,-0.571,-0.677
1116466,5310.0,5638.0,-638.0,0.179,-0.422,-0.575,-0.677
1116483,5358.0,5482.0,-826.0,0.178,-0.417,-0.58,-0.677
1116500,4848.0,5302.0,-672.0,0.178,-0.412,-0.585,-0.676
1116517,4270.0,5478.0,-188.0,0.177,-0.406,-0.59,-0.675
1116533,4104.0,6056.0,-470.0,0.176,-0.402,-0.594,-0.674
1116550,4156.0,4722.0,-678.0,0.176,-0.398,-0.597,-0.673
1116566,4180.0,5416.0,-1010.0,0.177,-0.394,-0.601,-0.673
1116583,3608.0,5792.0,-710.0,0.178,-0.389,-0.603,-0.673
1116600,3520.0,5712.0,-390.0,0.179,-0.385,-0.605,-0.673
1116617,3952.0,5926.0,-724.0,0.181,-0.382,-0.606,-0.674
1116634,3748.0,5434.0,-580.0,0.183,-0.378,-0.607,-0.675
1116651,3992.0,4950.0,-630.0,0.185,-0.372,-0.608,-0.676
1116678,3788.0,6688.0,-738.0,0.187,-0.367,-0.609,-0.678
1116695,3768.0,6018.0,-912.0,0.189,-0.361,-0.609,-0.68
1116711,3754.0,5242.0,-952.0,0.192,-0.356,-0.608,-0.683
1116727,3470.0,4858.0,-764.0,0.194,-0.349,-0.608,-0.686
1116744,2362.0,5024.0,-352.0,0.197,-0.342,-0.607,-0.69
1116761,2014.0,4626.0,-192.0,0.199,-0.336,-0.606,-0.693
1116777,1974.0,3132.0,-494.0,0.2,-0.329,-0.603,-0.698
1116793,642.0,2252.0,-96.0,0.201,-0.32,-0.601,-0.704
1116819,-1392.0,3380.0,-324.0,0.202,-0.312,-0.599,-0.709
1116835,-1452.0,1950.0,-606.0,0.203,-0.305,-0.595,-0.715
1116851,-2354.0,480.0,328.0,0.204,-0.3,-0.591,-0.72
1116867,-2816.0,830.0,-484.0,0.204,-0.297,-0.59,-0.723
1116883,-2240.0,1268.0,258.0,0.204,-0.297,-0.589,-0.723
1116900,-1666.0,3286.0,-40.0,0.202,-0.299,-0.589,-0.723
1116917,-516.0,2664.0,-384.0,0.199,-0.303,-0.588,-0.723
1116943,4.0,2404.0,-310.0,0.196,-0.307,-0.589,-0.721
1116959,84.0,4374.0,326.0,0.192,-0.311,-0.591,-0.719
1116976,820.0,4596.0,354.0,0.188,-0.318,-0.592,-0.716
1116992,1822.0,6070.0,-86.0,0.183,-0.325,-0.594,-0.713
1117008,2762.0,5800.0,-400.0,0.179,-0.334,-0.593,-0.71
1117024,3518.0,6176.0,-446.0,0.176,-0.342,-0.593,-0.708
1117050,4036.0,6646.0,-274.0,0.173,-0.349,-0.593,-0.705
1117066,3990.0,7150.0,590.0,0.172,-0.356,-0.592,-0.702
1117082,4820.0,7170.0,30.0,0.17,-0.365,-0.59,-0.7
1117099,5538.0,4982.0,-328.0,0.168,-0.374,-0.587,-0.699
1117116,5696.0,7048.0,-412.0,0.168,-0.381,-0.586,-0.695
1117133,6098.0,5844.0,-484.0,0.169,-0.387,-0.585,-0.692
1117150,6778.0,8844.0,-616.0,0.169,-0.393,-0.585,-0.689
1117166,6078.0,6802.0,-234.0,0.169,-0.4,-0.581,-0.688
1117182,7494.0,6892.0,-742.0,0.17,-0.407,-0.579,-0.686
1117209,6998.0,5644.0,-484.0,0.17,-0.412,-0.577,-0.684
1117225,7288.0,6236.0,-606.0,0.172,-0.416,-0.577,-0.681
1117241,7150.0,6796.0,-618.0,0.175,-0.42,-0.576,-0.679
1117257,7604.0,6844.0,-968.0,0.177,-0.425,-0.575,-0.677
1117273,7342.0,6180.0,-1028.0,0.18,-0.43,-0.572,-0.675
1117289,7282.0,5876.0,-1002.0,0.182,-0.434,-0.571,-0.673
1117315,6492.0,5490.0,-532.0,0.184,-0.439,-0.57,-0.67
1117332,7256.0,5744.0,-938.0,0.187,-0.444,-0.569,-0.667
1117349,7176.0,5548.0,-920.0,0.189,-0.449,-0.568,-0.663
1117366,7464.0,5426.0,-1254.0,0.192,-0.455,-0.566,-0.66
1117383,7138.0,4904.0,-1130.0,0.194,-0.46,-0.564,-0.657
1117400,6764.0,4744.0,-914.0,0.196,-0.466,-0.563,-0.654
1117416,6550.0,4172.0,-1004.0,0.198,-0.471,-0.561,-0.651
1117432,6846.0,4630.0,-982.0,0.202,-0.477,-0.559,-0.648
1117449,6932.0,4538.0,-1122.0,0.205,-0.481,-0.556,-0.646
1117466,7028.0,4352.0,-1188.0,0.209,-0.486,-0.552,-0.644
