timeMs,ax,ay,az,q0,q1,q2,q3
78555,-6700.0,-924.0,-4518.0,0.401,0.305,0.84,-0.201
78571,-6802.0,-1026.0,-4470.0,0.401,0.305,0.84,-0.201
78597,-6740.0,-1160.0,-4470.0,0.401,0.306,0.84,-0.202
78613,-6772.0,-1064.0,-4524.0,0.401,0.306,0.84,-0.202
78630,-6784.0,-982.0,-4452.0,0.401,0.306,0.84,-0.202
78647,-6746.0,-1052.0,-4500.0,0.401,0.307,0.839,-0.202
78664,-6772.0,-1040.0,-4540.0,0.401,0.307,0.839,-0.202
78681,-6734.0,-1068.0,-4608.0,0.401,0.307,0.839,-0.202
78698,-6644.0,-1064.0,-4582.0,0.401,0.308,0.839,-0.203
78715,-6662.0,-1072.0,-4544.0,0.4,0.308,0.839,-0.203
78732,-6722.0,-1024.0,-4474.0,0.4,0.308,0.839,-0.203
78749,-6804.0,-1062.0,-4484.0,0.4,0.308,0.839,-0.203
78766,-6826.0,-1034.0,-4362.0,0.4,0.309,0.839,-0.203
78783,-6770.0,-918.0,-4444.0,0.4,0.309,0.838,-0.204
78810,-6766.0,-944.0,-4504.0,0.4,0.309,0.838,-0.204
78826,-6704.0,-1070.0,-4548.0,0.401,0.309,0.838,-0.204
78842,-6646.0,-1024.0,-4566.0,0.401,0.309,0.838,-0.204
78858,-6608.0,-1002.0,-4556.0,0.401,0.309,0.838,-0.204
78874,-6756.0,-1112.0,-4554.0,0.401,0.31,0.838,-0.204
78891,-6700.0,-1088.0,-4540.0,0.401,0.31,0.838,-0.205
78908,-6748.0,-1018.0,-4434.0,0.401,0.31,0.837,-0.205
78925,-6860.0,-970.0,-4396.0,0.401,0.31,0.837,-0.205
78952,-6756.0,-1008.0,-4480.0,0.401,0.311,0.837,-0.205
78968,-6674.0,-942.0,-4542.0,0.401,0.311,0.837,-0.205
78984,-6656.0,-1010.0,-4554.0,0.401,0.311,0.837,-0.205
79000,-6698.0,-1084.0,-4558.0,0.401,0.311,0.837,-0.205
79017,-6702.0,-1094.0,-4546.0,0.401,0.312,0.837,-0.206
79034,-6702.0,-1002.0,-4504.0,0.401,0.312,0.837,-0.206
79051,-6798.0,-1082.0,-4490.0,0.401,0.312,0.837,-0.206
79068,-6772.0,-994.0,-4440.0,0.4,0.313,0.836,-0.206
79085,-6734.0,-976.0,-4470.0,0.4,0.313,0.836,-0.206
79102,-6798.0,-970.0,-4464.0,0.4,0.313,0.836,-0.206
79129,-6772.0,-1062.0,-4474.0,0.4,0.313,0.836,-0.206
79146,-6650.0,-1148.0,-4564.0,0.4,0.314,0.836,-0.206
79163,-6658.0,-1010.0,-4598.0,0.4,0.314,0.836,-0.207
79180,-6704.0,-966.0,-4562.0,0.4,0.314,0.836,-0.207
79197,-6740.0,-1042.0,-4492.0,0.4,0.315,0.836,-0.207
79214,-6734.0,-1034.0,-4468.0,0.399,0.315,0.836,-0.207
79231,-6830.0,-1000.0,-4492.0,0.399,0.315,0.836,-0.207
79248,-6852.0,-1038.0,-4476.0,0.399,0.316,0.836,-0.207
79265,-6746.0,-1094.0,-4558.0,0.398,0.316,0.836,-0.208
79282,-6726.0,-1226.0,-4734.0,0.397,0.317,0.836,-0.208
79299,-6542.0,-1022.0,-5080.0,0.396,0.319,0.836,-0.208
79316,-6356.0,-654.0,-5354.0,0.393,0.32,0.837,-0.207
79333,-6440.0,-1226.0,-5206.0,0.39,0.321,0.838,-0.206
79359,-6510.0,-2180.0,-5570.0,0.385,0.322,0.84,-0.204
79376,-7026.0,-3344.0,-5504.0,0.378,0.325,0.842,-0.205
79392,-7764.0,-3028.0,-4728.0,0.371,0.33,0.842,-0.21
79409,-7172.0,-1288.0,-5076.0,0.363,0.335,0.842,-0.217
79425,-6782.0,544.0,-5370.0,0.356,0.341,0.841,-0.222
79442,-6090.0,808.0,-5618.0,0.35,0.344,0.842,-0.222
79459,-6526.0,-1840.0,-5468.0,0.344,0.348,0.843,-0.223
79476,-5860.0,-1510.0,-5024.0,0.337,0.351,0.843,-0.227
79492,-5130.0,-1280.0,-4050.0,0.331,0.355,0.844,-0.229
79509,-6190.0,678.0,-4080.0,0.328,0.357,0.845,-0.227
79535,-6448.0,-862.0,-4530.0,0.328,0.359,0.845,-0.223
79552,-5438.0,-1198.0,-4850.0,0.326,0.359,0.846,-0.22
79569,-5672.0,-1064.0,-5222.0,0.325,0.36,0.847,-0.216
79586,-5550.0,-1944.0,-5368.0,0.324,0.361,0.848,-0.214
79603,-5144.0,-864.0,-4802.0,0.321,0.361,0.85,-0.211
79619,-6090.0,-478.0,-5438.0,0.319,0.362,0.851,-0.208
79638,-5768.0,-1310.0,-5608.0,0.317,0.362,0.853,-0.204
79654,-6442.0,-2006.0,-5360.0,0.316,0.362,0.854,-0.202
79671,-6262.0,-1628.0,-4918.0,0.314,0.362,0.854,-0.202
79688,-6626.0,-1524.0,-4364.0,0.313,0.363,0.854,-0.201
79704,-6650.0,-1538.0,-4872.0,0.313,0.364,0.853,-0.203
79721,-6134.0,-578.0,-5202.0,0.314,0.366,0.852,-0.204
79748,-5672.0,-632.0,-5668.0,0.316,0.366,0.851,-0.205
79765,-5478.0,-3048.0,-4028.0,0.315,0.366,0.851,-0.206
79782,-5176.0,-746.0,-5300.0,0.313,0.365,0.851,-0.209
79799,-7628.0,422.0,-6028.0,0.313,0.364,0.852,-0.207
79816,-5966.0,-1168.0,-5298.0,0.32,0.362,0.851,-0.206
79833,-6196.0,-1836.0,-6164.0,0.323,0.359,0.851,-0.206
79850,-5730.0,-2374.0,-5976.0,0.325,0.357,0.851,-0.207
79867,-4826.0,-1378.0,-6108.0,0.325,0.355,0.852,-0.208
79884,-4576.0,-806.0,-5884.0,0.323,0.355,0.852,-0.208
79900,-4770.0,-518.0,-5596.0,0.321,0.355,0.853,-0.208
79916,-5072.0,-592.0,-5254.0,0.319,0.356,0.854,-0.207
79942,-5900.0,-1048.0,-5704.0,0.318,0.357,0.854,-0.205
79958,-5770.0,-1250.0,-5554.0,0.316,0.359,0.854,-0.203
79974,-6062.0,-1328.0,-5750.0,0.315,0.36,0.855,-0.202
79990,-5868.0,-1170.0,-5584.0,0.314,0.362,0.855,-0.201
80006,-6260.0,-1104.0,-5184.0,0.313,0.363,0.854,-0.2
80022,-6114.0,-1256.0,-5038.0,0.313,0.364,0.854,-0.2
80049,-6002.0,-1070.0,-5244.0,0.314,0.365,0.853,-0.2
80065,-6392.0,-1432.0,-5466.0,0.316,0.365,0.853,-0.201
80081,-6214.0,-1242.0,-5552.0,0.318,0.364,0.852,-0.202
80097,-6010.0,-1058.0,-5722.0,0.32,0.363,0.851,-0.203
80113,-5448.0,-706.0,-5914.0,0.322,0.362,0.851,-0.203
80130,-5556.0,-1342.0,-6324.0,0.322,0.361,0.851,-0.203
80147,-5400.0,-1500.0,-6090.0,0.32,0.361,0.852,-0.203
80164,-5128.0,-1080.0,-5876.0,0.318,0.361,0.853,-0.203
80191,-5426.0,-1202.0,-5754.0,0.314,0.36,0.855,-0.202
80208,-6042.0,-1678.0,-5838.0,0.311,0.36,0.856,-0.201
80225,-6488.0,-2610.0,-5558.0,0.307,0.36,0.858,-0.202
80242,-5940.0,-1752.0,-5488.0,0.303,0.36,0.858,-0.204
80259,-6332.0,-1154.0,-5102.0,0.3,0.36,0.859,-0.207
80275,-6222.0,-252.0,-5052.0,0.298,0.36,0.859,-0.21
80292,-5114.0,34.0,-5984.0,0.298,0.359,0.86,-0.208
80309,-5434.0,-1732.0,-6078.0,0.296,0.359,0.861,-0.206
80325,-5210.0,-1760.0,-5844.0,0.295,0.359,0.862,-0.205
80342,-4944.0,-646.0,-5530.0,0.293,0.359,0.863,-0.203
80359,-5868.0,-1630.0,-5698.0,0.292,0.359,0.864,-0.2
80385,-5984.0,-1154.0,-5714.0,0.291,0.358,0.865,-0.199
80402,-6188.0,-834.0,-5328.0,0.292,0.358,0.865,-0.197
80419,-5636.0,-1408.0,-5570.0,0.295,0.357,0.865,-0.193
80436,-5706.0,-1124.0,-5514.0,0.297,0.356,0.865,-0.191
80453,-4834.0,-1474.0,-5646.0,0.298,0.356,0.866,-0.189
80469,-5568.0,-1634.0,-6124.0,0.298,0.356,0.865,-0.188
80486,-5482.0,-1462.0,-6280.0,0.298,0.356,0.865,-0.188
80503,-5546.0,-834.0,-5980.0,0.297,0.357,0.865,-0.188
80520,-5572.0,-872.0,-5644.0,0.297,0.356,0.866,-0.188
80537,-5694.0,-1410.0,-5928.0,0.296,0.356,0.866,-0.187
80553,-5782.0,-1016.0,-5584.0,0.295,0.356,0.867,-0.187
80580,-5548.0,-936.0,-6038.0,0.295,0.356,0.867,-0.186
80597,-5400.0,-1296.0,-5862.0,0.295,0.355,0.867,-0.186
80614,-5352.0,-1058.0,-5880.0,0.295,0.355,0.868,-0.185
80631,-5398.0,-1136.0,-5958.0,0.295,0.355,0.868,-0.184
80648,-5474.0,-1130.0,-5674.0,0.295,0.354,0.868,-0.184
80665,-5668.0,-956.0,-5682.0,0.295,0.354,0.868,-0.183
80682,-5722.0,-1058.0,-5622.0,0.296,0.354,0.868,-0.182
80699,-5920.0,-1304.0,-5476.0,0.298,0.353,0.868,-0.183
80715,-6390.0,-1192.0,-5058.0,0.3,0.354,0.867,-0.183
80731,-6618.0,-1238.0,-5426.0,0.305,0.354,0.864,-0.185
80757,-6246.0,-572.0,-5532.0,0.312,0.355,0.861,-0.187
80774,-5300.0,-668.0,-5234.0,0.319,0.354,0.859,-0.189
80791,-6882.0,-3242.0,-5168.0,0.326,0.355,0.855,-0.191
80808,-4716.0,218.0,-4522.0,0.33,0.355,0.852,-0.198
80825,-6826.0,506.0,-5606.0,0.335,0.353,0.85,-0.2
80842,-6540.0,-1430.0,-5856.0,0.342,0.351,0.848,-0.202
80858,-6314.0,-1500.0,-6494.0,0.348,0.348,0.846,-0.205
80875,-6262.0,-1230.0,-5726.0,0.353,0.346,0.844,-0.208
80892,-6172.0,-1338.0,-5570.0,0.358,0.343,0.843,-0.21
80909,-6046.0,-1254.0,-5458.0,0.361,0.341,0.842,-0.212
80926,-5532.0,-864.0,-5270.0,0.363,0.339,0.841,-0.214
80943,-5458.0,-830.0,-5360.0,0.363,0.337,0.842,-0.215
80960,-5262.0,-1014.0,-5472.0,0.363,0.336,0.842,-0.215
80987,-5696.0,-1052.0,-5432.0,0.361,0.335,0.843,-0.214
81003,-6180.0,-1296.0,-5134.0,0.359,0.335,0.845,-0.213
81019,-6370.0,-1516.0,-4912.0,0.356,0.335,0.846,-0.212
81035,-6436.0,-1188.0,-4882.0,0.354,0.335,0.847,-0.212
81051,-6646.0,-1052.0,-4750.0,0.353,0.336,0.847,-0.212
81067,-6608.0,-1184.0,-4732.0,0.352,0.336,0.847,-0.212
81093,-6322.0,-1130.0,-5016.0,0.352,0.337,0.847,-0.212
81110,-6238.0,-1228.0,-5068.0,0.351,0.337,0.847,-0.212
81127,-6122.0,-1274.0,-5108.0,0.351,0.338,0.847,-0.212
81144,-6260.0,-1132.0,-5114.0,0.35,0.338,0.848,-0.212
81161,-6180.0,-1174.0,-5120.0,0.35,0.338,0.848,-0.212
81178,-6500.0,-1170.0,-5038.0,0.35,0.338,0.847,-0.212
81195,-6552.0,-1152.0,-5050.0,0.351,0.338,0.847,-0.212
81212,-6424.0,-1112.0,-5002.0,0.352,0.338,0.847,-0.212
81229,-6474.0,-1100.0,-4940.0,0.353,0.337,0.847,-0.212
81246,-6404.0,-1288.0,-5038.0,0.354,0.336,0.846,-0.212
81262,-6340.0,-1242.0,-5020.0,0.356,0.335,0.846,-0.213
81279,-6268.0,-1130.0,-5034.0,0.357,0.335,0.846,-0.213
81306,-6322.0,-1182.0,-5104.0,0.359,0.334,0.845,-0.214
81323,-6314.0,-1198.0,-5000.0,0.36,0.333,0.845,-0.214
81340,-6312.0,-1164.0,-5006.0,0.362,0.332,0.844,-0.214
81357,-6172.0,-1148.0,-5030.0,0.363,0.331,0.844,-0.215
81374,-6270.0,-1106.0,-5030.0,0.363,0.331,0.844,-0.215
81391,-6370.0,-1294.0,-5036.0,0.364,0.33,0.844,-0.215
81408,-6280.0,-1242.0,-4976.0,0.364,0.33,0.844,-0.215
81424,-6346.0,-1202.0,-5020.0,0.365,0.33,0.844,-0.215
81441,-6294.0,-1238.0,-4994.0,0.364,0.331,0.844,-0.215
81458,-6354.0,-1176.0,-4940.0,0.364,0.331,0.844,-0.215
81475,-6382.0,-1214.0,-4994.0,0.364,0.331,0.844,-0.215
81492,-6510.0,-1240.0,-4972.0,0.363,0.331,0.844,-0.215
81509,-6452.0,-1322.0,-5058.0,0.363,0.332,0.844,-0.216
81536,-6380.0,-1340.0,-5052.0,0.362,0.332,0.844,-0.216
81553,-6358.0,-1228.0,-5252.0,0.36,0.333,0.844,-0.216
81570,-6538.0,-1574.0,-4992.0,0.359,0.333,0.845,-0.216
81586,-6378.0,-1778.0,-4848.0,0.357,0.333,0.845,-0.217
81603,-6324.0,-1616.0,-4504.0,0.356,0.334,0.845,-0.22
81620,-6192.0,-1238.0,-5020.0,0.354,0.335,0.844,-0.222
81637,-5522.0,-546.0,-5518.0,0.353,0.337,0.844,-0.223
81653,-5236.0,-640.0,-5848.0,0.351,0.338,0.845,-0.222
81669,-5394.0,-1488.0,-5506.0,0.347,0.338,0.847,-0.219
81686,-6142.0,-1976.0,-5326.0,0.343,0.339,0.848,-0.218
81713,-6708.0,-1238.0,-5054.0,0.34,0.339,0.849,-0.219
81730,-6754.0,-524.0,-4556.0,0.338,0.34,0.85,-0.22
81747,-6950.0,-406.0,-4506.0,0.338,0.34,0.85,-0.219
81764,-6688.0,-956.0,-4086.0,0.339,0.34,0.85,-0.217
81781,-6750.0,-1576.0,-4764.0,0.341,0.34,0.849,-0.216
81798,-6750.0,-1798.0,-5400.0,0.343,0.341,0.848,-0.216
81815,-5688.0,-1326.0,-4844.0,0.343,0.341,0.848,-0.215
81832,-6214.0,-924.0,-5596.0,0.344,0.341,0.848,-0.215
81849,-5998.0,-1328.0,-5744.0,0.345,0.341,0.848,-0.215
81866,-5920.0,-1368.0,-4980.0,0.346,0.342,0.847,-0.215
81883,-6030.0,-1358.0,-4870.0,0.347,0.342,0.846,-0.215
81900,-6400.0,-1016.0,-4626.0,0.348,0.343,0.845,-0.215
81917,-6822.0,-1102.0,-4412.0,0.35,0.345,0.844,-0.216
81934,-6682.0,-1518.0,-4872.0,0.354,0.346,0.841,-0.218
81961,-6966.0,-1908.0,-4570.0,0.357,0.348,0.838,-0.221
81978,-4968.0,-188.0,-4614.0,0.358,0.348,0.837,-0.223
81995,-8414.0,-604.0,-5570.0,0.36,0.347,0.837,-0.221
82012,-7520.0,-2692.0,-6166.0,0.365,0.346,0.835,-0.223
82029,-6338.0,-1600.0,-5174.0,0.369,0.344,0.834,-0.225
82045,-6416.0,-1168.0,-4922.0,0.371,0.342,0.833,-0.228
82061,-6022.0,-856.0,-4710.0,0.374,0.341,0.832,-0.23
82078,-5924.0,-630.0,-4880.0,0.376,0.338,0.831,-0.23
82094,-5824.0,-1116.0,-4846.0,0.377,0.336,0.831,-0.231
82111,-6014.0,-1182.0,-4820.0,0.378,0.335,0.831,-0.231
82138,-6186.0,-1174.0,-5012.0,0.379,0.334,0.832,-0.231
82155,-6224.0,-1198.0,-4872.0,0.379,0.334,0.832,-0.231
82171,-6466.0,-1316.0,-4884.0,0.379,0.333,0.832,-0.23
82188,-6522.0,-1178.0,-4676.0,0.378,0.333,0.832,-0.23
82205,-6856.0,-1216.0,-4634.0,0.378,0.333,0.833,-0.229
82222,-6504.0,-1396.0,-4602.0,0.378,0.333,0.833,-0.229
82239,-6368.0,-1238.0,-4740.0,0.377,0.333,0.834,-0.228
82256,-6028.0,-1066.0,-4952.0,0.376,0.333,0.834,-0.228
82272,-6144.0,-1172.0,-4906.0,0.374,0.333,0.835,-0.227
82289,-6642.0,-1256.0,-4940.0,0.372,0.333,0.836,-0.226
82315,-6554.0,-1226.0,-4648.0,0.37,0.334,0.837,-0.225
82332,-6862.0,-1462.0,-4718.0,0.369,0.334,0.838,-0.224
82349,-6610.0,-1270.0,-4788.0,0.367,0.335,0.838,-0.224
82366,-6696.0,-1108.0,-4720.0,0.366,0.335,0.839,-0.224
82383,-6460.0,-1336.0,-4726.0,0.365,0.336,0.839,-0.223
82400,-6372.0,-1190.0,-4912.0,0.364,0.336,0.84,-0.223
82417,-6604.0,-1072.0,-4758.0,0.363,0.337,0.84,-0.223
82434,-6262.0,-1032.0,-4812.0,0.362,0.337,0.84,-0.223
82451,-6370.0,-1110.0,-4956.0,0.361,0.337,0.84,-0.222
82468,-6194.0,-1358.0,-4952.0,0.361,0.338,0.84,-0.222
82485,-6460.0,-1410.0,-5064.0,0.36,0.338,0.841,-0.222
82501,-6482.0,-1298.0,-4858.0,0.36,0.339,0.841,-0.222
82518,-6606.0,-1236.0,-4766.0,0.359,0.339,0.84,-0.222
82545,-6606.0,-1072.0,-4706.0,0.359,0.339,0.84,-0.223
82562,-6540.0,-1162.0,-4898.0,0.36,0.34,0.84,-0.223
82579,-6384.0,-1314.0,-5080.0,0.36,0.34,0.84,-0.223
82595,-6368.0,-1262.0,-5068.0,0.361,0.339,0.839,-0.224
82612,-6530.0,-1130.0,-4774.0,0.361,0.339,0.839,-0.224
82629,-6568.0,-1214.0,-4788.0,0.362,0.339,0.839,-0.224
82646,-6454.0,-1130.0,-4724.0,0.364,0.338,0.838,-0.225
82663,-6396.0,-1168.0,-4846.0,0.366,0.337,0.838,-0.225
82680,-6386.0,-1152.0,-4710.0,0.368,0.337,0.837,-0.226
82697,-6490.0,-908.0,-4648.0,0.37,0.336,0.837,-0.226
82714,-6002.0,-1300.0,-4886.0,0.372,0.335,0.836,-0.225
82731,-5974.0,-1466.0,-5286.0,0.372,0.334,0.836,-0.225
82748,-6716.0,-1538.0,-5158.0,0.371,0.334,0.837,-0.225
82775,-6294.0,-1320.0,-4992.0,0.369,0.335,0.837,-0.225
82792,-6002.0,-1276.0,-5258.0,0.367,0.335,0.838,-0.225
82809,-5632.0,-938.0,-4762.0,0.363,0.336,0.839,-0.224
82826,-6478.0,-580.0,-4878.0,0.36,0.338,0.841,-0.222
82843,-6332.0,-1078.0,-5218.0,0.357,0.339,0.842,-0.22
82860,-6132.0,-1510.0,-5250.0,0.353,0.34,0.844,-0.217
82877,-6306.0,-1496.0,-5428.0,0.349,0.342,0.845,-0.216
82894,-6260.0,-1290.0,-5170.0,0.344,0.344,0.847,-0.214
82911,-6254.0,-1096.0,-5102.0,0.34,0.345,0.849,-0.212
82928,-6144.0,-990.0,-5256.0,0.336,0.347,0.85,-0.211
82945,-6454.0,-988.0,-5202.0,0.333,0.348,0.851,-0.21
82962,-6356.0,-1030.0,-5012.0,0.331,0.348,0.852,-0.208
82979,-6256.0,-1068.0,-5136.0,0.33,0.349,0.852,-0.207
83005,-6288.0,-1052.0,-5398.0,0.33,0.35,0.852,-0.207
83022,-6210.0,-1224.0,-5078.0,0.331,0.35,0.852,-0.206
83039,-6882.0,-1272.0,-4698.0,0.333,0.35,0.851,-0.206
83056,-6804.0,-1210.0,-4858.0,0.336,0.349,0.85,-0.208
83072,-6562.0,-996.0,-5120.0,0.341,0.347,0.848,-0.209
83089,-6232.0,-1080.0,-5130.0,0.347,0.346,0.846,-0.211
83106,-6158.0,-1240.0,-5292.0,0.352,0.343,0.844,-0.213
83123,-6404.0,-1350.0,-5044.0,0.358,0.34,0.843,-0.215
83139,-6640.0,-1958.0,-5232.0,0.363,0.336,0.841,-0.219
83156,-6542.0,-2338.0,-5518.0,0.366,0.333,0.84,-0.223
83182,-6476.0,-1230.0,-5404.0,0.37,0.328,0.839,-0.228
83199,-6452.0,-1042.0,-5374.0,0.373,0.324,0.838,-0.231
83216,-6924.0,-2302.0,-4836.0,0.374,0.321,0.838,-0.234
83233,-6754.0,-1624.0,-4626.0,0.374,0.319,0.837,-0.239
83250,-6264.0,176.0,-4598.0,0.374,0.317,0.837,-0.242
83267,-6014.0,-1126.0,-4670.0,0.374,0.317,0.837,-0.244
83284,-5310.0,-1172.0,-4958.0,0.372,0.316,0.838,-0.245
83301,-5992.0,-1254.0,-5368.0,0.37,0.316,0.839,-0.245
83318,-5574.0,-1446.0,-4616.0,0.368,0.316,0.84,-0.244
83335,-6396.0,-1514.0,-4628.0,0.365,0.317,0.841,-0.243
83352,-5818.0,-1030.0,-4960.0,0.363,0.317,0.842,-0.241
83369,-6494.0,-1448.0,-4696.0,0.361,0.318,0.844,-0.239
83386,-6318.0,-1916.0,-4852.0,0.358,0.319,0.845,-0.237
83403,-6732.0,-960.0,-4290.0,0.357,0.32,0.846,-0.235
83430,-6676.0,-1414.0,-4348.0,0.356,0.321,0.846,-0.233
83447,-6590.0,-1496.0,-4818.0,0.357,0.321,0.846,-0.231
83464,-6490.0,-1310.0,-4864.0,0.357,0.322,0.846,-0.23
83481,-6404.0,-1332.0,-4710.0,0.358,0.322,0.846,-0.229
83497,-6816.0,-1380.0,-4418.0,0.36,0.322,0.845,-0.228
83514,-6760.0,-1356.0,-4518.0,0.363,0.323,0.844,-0.228
83531,-6614.0,-1416.0,-4506.0,0.367,0.324,0.841,-0.23
83548,-6790.0,-1424.0,-4404.0,0.372,0.326,0.838,-0.232
83565,-6066.0,-650.0,-4302.0,0.376,0.328,0.835,-0.234
83582,-6432.0,-472.0,-4780.0,0.379,0.328,0.833,-0.233
83599,-7312.0,-1376.0,-5358.0,0.383,0.329,0.831,-0.232
83616,-6324.0,-2282.0,-5634.0,0.386,0.329,0.83,-0.233
83633,-6444.0,-1798.0,-5334.0,0.388,0.328,0.828,-0.235
83660,-6556.0,-1762.0,-4950.0,0.388,0.328,0.828,-0.236
83676,-6450.0,-1374.0,-4782.0,0.387,0.327,0.828,-0.238
83692,-6540.0,-850.0,-4622.0,0.386,0.327,0.829,-0.238
83708,-6240.0,-826.0,-4504.0,0.385,0.327,0.83,-0.238
83724,-6238.0,-894.0,-4602.0,0.384,0.327,0.831,-0.237
83740,-6392.0,-1230.0,-4546.0,0.383,0.326,0.832,-0.235
83766,-6734.0,-1286.0,-4450.0,0.382,0.326,0.832,-0.234
83783,-6910.0,-1450.0,-4502.0,0.381,0.326,0.833,-0.233
83800,-6852.0,-1546.0,-4406.0,0.381,0.326,0.833,-0.232
83817,-7112.0,-1286.0,-4268.0,0.382,0.325,0.833,-0.232
83834,-7136.0,-1312.0,-4392.0,0.383,0.325,0.833,-0.232
83851,-6842.0,-1426.0,-4568.0,0.384,0.324,0.833,-0.233
83867,-6456.0,-1390.0,-4614.0,0.385,0.323,0.832,-0.233
83883,-6584.0,-1260.0,-4660.0,0.386,0.322,0.832,-0.234
83900,-6546.0,-1260.0,-4684.0,0.387,0.321,0.832,-0.234
83917,-6472.0,-1320.0,-4706.0,0.388,0.321,0.832,-0.234
83934,-6474.0,-1294.0,-4630.0,0.388,0.32,0.832,-0.234
83961,-6496.0,-1264.0,-4634.0,0.388,0.32,0.832,-0.235
83978,-6826.0,-1272.0,-4580.0,0.388,0.32,0.832,-0.235
83994,-6770.0,-1318.0,-4482.0,0.388,0.32,0.832,-0.235
84010,-6750.0,-1222.0,-4438.0,0.388,0.32,0.832,-0.235
84026,-6696.0,-1190.0,-4456.0,0.388,0.32,0.832,-0.235
84042,-6636.0,-1200.0,-4588.0,0.389,0.32,0.831,-0.235
84058,-6614.0,-1350.0,-4634.0,0.389,0.32,0.831,-0.235
84084,-6520.0,-1314.0,-4538.0,0.389,0.321,0.831,-0.234
84101,-6592.0,-1274.0,-4550.0,0.389,0.321,0.831,-0.234
84117,-6570.0,-1256.0,-4578.0,0.388,0.321,0.831,-0.234
84133,-6728.0,-1278.0,-4530.0,0.388,0.322,0.831,-0.234
84149,-6942.0,-1276.0,-4398.0,0.388,0.322,0.831,-0.234
84165,-6818.0,-1326.0,-4518.0,0.388,0.322,0.831,-0.234
84191,-6722.0,-1266.0,-4582.0,0.388,0.323,0.831,-0.234
84207,-6616.0,-1156.0,-4562.0,0.389,0.323,0.831,-0.234
84223,-6650.0,-1290.0,-4524.0,0.389,0.323,0.831,-0.234
84239,-6674.0,-1240.0,-4508.0,0.389,0.323,0.831,-0.234
84255,-6692.0,-1220.0,-4566.0,0.389,0.323,0.83,-0.234
84271,-6704.0,-1274.0,-4510.0,0.389,0.323,0.83,-0.234
84297,-6750.0,-1254.0,-4478.0,0.39,0.323,0.83,-0.234
84313,-6782.0,-1196.0,-4510.0,0.39,0.323,0.83,-0.234
84329,-6744.0,-1300.0,-4522.0,0.39,0.322,0.83,-0.234
84345,-6714.0,-1254.0,-4542.0,0.391,0.322,0.83,-0.234
84361,-6594.0,-1188.0,-4596.0,0.391,0.322,0.83,-0.234
84377,-6688.0,-1298.0,-4558.0,0.392,0.322,0.83,-0.234
84403,-6616.0,-1324.0,-4512.0,0.392,0.322,0.829,-0.234
84419,-6696.0,-1176.0,-4502.0,0.392,0.322,0.829,-0.234
84435,-6784.0,-1224.0,-4436.0,0.393,0.322,0.829,-0.234
84451,-6902.0,-1318.0,-4364.0,0.393,0.322,0.829,-0.234
84467,-6742.0,-1264.0,-4474.0,0.393,0.321,0.829,-0.234
84483,-6638.0,-1162.0,-4562.0,0.394,0.321,0.829,-0.234
84509,-6504.0,-1164.0,-4548.0,0.394,0.321,0.829,-0.234
84525,-6508.0,-1276.0,-4664.0,0.394,0.321,0.829,-0.234
84541,-6522.0,-1280.0,-4628.0,0.393,0.322,0.829,-0.234
84557,-6484.0,-1256.0,-4560.0,0.393,0.322,0.829,-0.234
84573,-6504.0,-1016.0,-4438.0,0.392,0.323,0.829,-0.234
84590,-6320.0,-338.0,-4520.0,0.391,0.324,0.83,-0.232
84616,-6302.0,-670.0,-4620.0,0.39,0.325,0.831,-0.229
84632,-6166.0,-1038.0,-4678.0,0.389,0.326,0.832,-0.225
84648,-5928.0,-918.0,-4836.0,0.386,0.328,0.833,-0.221
84664,-5520.0,-982.0,-4886.0,0.383,0.33,0.835,-0.217
84680,-5484.0,-674.0,-5094.0,0.378,0.331,0.838,-0.214
84696,-7700.0,-814.0,-5796.0,0.375,0.335,0.839,-0.209
84722,-7350.0,-1990.0,-5322.0,0.371,0.338,0.84,-0.206
84738,-8248.0,-2290.0,-5340.0,0.368,0.341,0.841,-0.204
84754,-7232.0,-2232.0,-4758.0,0.363,0.343,0.841,-0.205
84770,-6884.0,-1168.0,-4492.0,0.359,0.346,0.842,-0.207
84786,-6586.0,-432.0,-4470.0,0.357,0.348,0.841,-0.21
84802,-6416.0,-208.0,-4542.0,0.355,0.35,0.841,-0.211
84828,-6286.0,-508.0,-4734.0,0.354,0.351,0.841,-0.211
84844,-6200.0,-810.0,-5050.0,0.354,0.352,0.84,-0.212
84860,-6172.0,-870.0,-5316.0,0.354,0.352,0.84,-0.212
84876,-6182.0,-1062.0,-5390.0,0.354,0.353,0.84,-0.212
84892,-6416.0,-1258.0,-5196.0,0.354,0.353,0.84,-0.212
84908,-6622.0,-1258.0,-5010.0,0.355,0.353,0.839,-0.213
84934,-6714.0,-1260.0,-5074.0,0.355,0.351,0.839,-0.214
84951,-6752.0,-1744.0,-5780.0,0.356,0.348,0.84,-0.214
84967,-6668.0,-810.0,-5726.0,0.357,0.344,0.842,-0.212
84983,-6788.0,-1644.0,-6696.0,0.355,0.338,0.846,-0.211
84999,-7488.0,-1732.0,-7466.0,0.352,0.331,0.849,-0.215
85015,-9418.0,110.0,-4858.0,0.353,0.329,0.847,-0.222
85041,-3876.0,-548.0,1074.0,0.357,0.328,0.846,-0.221
85057,-7122.0,160.0,-4200.0,0.364,0.326,0.843,-0.224
85073,-4272.0,-80.0,-5768.0,0.37,0.322,0.843,-0.221
85089,-5002.0,-4816.0,-5864.0,0.374,0.319,0.842,-0.221
85105,-4706.0,-1466.0,-5550.0,0.373,0.318,0.842,-0.224
85121,-6486.0,-346.0,-5268.0,0.373,0.317,0.843,-0.225
85147,-6350.0,-2298.0,-4054.0,0.372,0.317,0.843,-0.226
85163,-6878.0,-1908.0,-3736.0,0.372,0.318,0.841,-0.229
85179,-6424.0,-1154.0,-4428.0,0.371,0.319,0.84,-0.233
85195,-6406.0,-1172.0,-4938.0,0.37,0.321,0.839,-0.236
85211,-6526.0,-1182.0,-5010.0,0.368,0.323,0.838,-0.239
85227,-6498.0,-1226.0,-4798.0,0.366,0.325,0.838,-0.241
85253,-5794.0,-1118.0,-5156.0,0.364,0.327,0.838,-0.242
85270,-5684.0,-838.0,-5530.0,0.36,0.327,0.84,-0.241
85286,-5862.0,-1486.0,-4776.0,0.357,0.328,0.841,-0.24
85302,-5942.0,-1160.0,-4980.0,0.355,0.327,0.843,-0.239
85318,-6214.0,-902.0,-5120.0,0.353,0.326,0.845,-0.236
85334,-6406.0,-1372.0,-4618.0,0.352,0.325,0.846,-0.233
85350,-6134.0,-3286.0,-3922.0,0.349,0.327,0.846,-0.234
85376,-6638.0,-764.0,-5076.0,0.347,0.33,0.845,-0.237
85392,-6162.0,566.0,-5414.0,0.346,0.331,0.846,-0.235
85408,-6036.0,-404.0,-5478.0,0.347,0.331,0.847,-0.231
85424,-6510.0,-1734.0,-5358.0,0.347,0.333,0.847,-0.226
85440,-6618.0,-2026.0,-5230.0,0.347,0.335,0.848,-0.222
85456,-6514.0,-2072.0,-5346.0,0.346,0.336,0.848,-0.219
85482,-6340.0,-1610.0,-5650.0,0.344,0.338,0.849,-0.216
85499,-6058.0,-1164.0,-5178.0,0.343,0.34,0.849,-0.214
85515,-5788.0,-766.0,-5344.0,0.34,0.342,0.85,-0.211
85532,-5266.0,-600.0,-5246.0,0.337,0.344,0.851,-0.208
85549,-5474.0,2004.0,-5124.0,0.333,0.345,0.853,-0.207
85566,-5100.0,1066.0,-5514.0,0.33,0.346,0.854,-0.202
85583,-5976.0,1908.0,-5636.0,0.325,0.347,0.856,-0.201
85600,-5620.0,3132.0,-5706.0,0.319,0.347,0.859,-0.2
85617,-5830.0,2938.0,-5830.0,0.314,0.345,0.862,-0.198
85634,-5624.0,3048.0,-6238.0,0.31,0.339,0.866,-0.195
85651,-5758.0,1970.0,-6392.0,0.306,0.331,0.872,-0.192
85678,-5500.0,-194.0,-6430.0,0.302,0.322,0.878,-0.187
85694,-5934.0,-1684.0,-6888.0,0.297,0.313,0.883,-0.185
85710,-6386.0,-502.0,-7488.0,0.294,0.304,0.887,-0.184
85726,-4826.0,-2090.0,-6756.0,0.29,0.292,0.893,-0.183
85742,-5688.0,-3606.0,-6302.0,0.284,0.283,0.897,-0.185
85758,-4578.0,-3928.0,-6404.0,0.278,0.278,0.899,-0.19
85784,-3924.0,-3098.0,-5912.0,0.271,0.273,0.901,-0.198
85801,-3692.0,-3710.0,-6178.0,0.266,0.27,0.902,-0.206
85818,-2554.0,-3672.0,-5972.0,0.26,0.268,0.903,-0.214
85835,-2292.0,-3768.0,-5122.0,0.254,0.268,0.902,-0.222
85852,-1844.0,-3992.0,-5380.0,0.249,0.269,0.902,-0.228
85869,-1400.0,-3944.0,-5398.0,0.244,0.269,0.901,-0.235
85886,-1354.0,-5032.0,-6344.0,0.238,0.27,0.901,-0.243
85903,-1320.0,-4804.0,-6326.0,0.231,0.27,0.9,-0.253
85920,-1354.0,-4666.0,-6118.0,0.225,0.27,0.899,-0.263
85937,412.0,-3766.0,-6240.0,0.217,0.267,0.897,-0.277
85954,-2554.0,-4208.0,-6890.0,0.209,0.261,0.894,-0.298
85970,-1934.0,-4040.0,-6826.0,0.201,0.259,0.888,-0.323
85987,-276.0,-4726.0,-7262.0,0.188,0.25,0.879,-0.36
86014,-3816.0,-5740.0,-7682.0,0.179,0.24,0.864,-0.406
86031,-2684.0,-5112.0,-7512.0,0.173,0.234,0.84,-0.458
86048,-2072.0,-5538.0,-7248.0,0.172,0.232,0.809,-0.512
86064,-2210.0,-5744.0,-5766.0,0.178,0.234,0.773,-0.562
86080,-2322.0,-4572.0,-3992.0,0.189,0.239,0.735,-0.606
86096,-2160.0,-3816.0,-1904.0,0.204,0.243,0.698,-0.642
86113,-1582.0,-3402.0,-320.0,0.223,0.247,0.665,-0.669
86129,-1738.0,-4066.0,1012.0,0.243,0.253,0.636,-0.688
86155,-2204.0,-4700.0,1904.0,0.263,0.262,0.608,-0.702
86171,-3232.0,-5206.0,3032.0,0.284,0.276,0.581,-0.711
86187,-4146.0,-5338.0,3740.0,0.306,0.294,0.552,-0.718
86203,-5166.0,-5410.0,4070.0,0.329,0.316,0.52,-0.722
86219,-6590.0,-4722.0,4234.0,0.351,0.342,0.485,-0.724
86235,-7696.0,-3138.0,4414.0,0.374,0.369,0.449,-0.723
86261,-8294.0,-1550.0,4616.0,0.399,0.396,0.413,-0.717
86277,-8490.0,6.0,4694.0,0.425,0.419,0.38,-0.706
86293,-8818.0,650.0,4852.0,0.453,0.44,0.348,-0.693
86309,-8796.0,832.0,4940.0,0.482,0.456,0.319,-0.677
86325,-9046.0,824.0,4964.0,0.509,0.468,0.29,-0.662
86341,-8784.0,1072.0,4882.0,0.533,0.477,0.26,-0.649
86368,-7668.0,2822.0,5080.0,0.556,0.482,0.228,-0.638
86385,-6428.0,6374.0,5374.0,0.577,0.483,0.199,-0.628
86402,-5858.0,9158.0,6456.0,0.598,0.478,0.174,-0.619
86418,-5420.0,9366.0,7066.0,0.617,0.47,0.155,-0.612
86435,-5800.0,7660.0,7762.0,0.636,0.458,0.142,-0.605
86452,-5512.0,7560.0,8080.0,0.655,0.445,0.132,-0.597
86468,-4400.0,8096.0,8270.0,0.676,0.429,0.127,-0.586
86484,-3780.0,7628.0,8530.0,0.697,0.413,0.124,-0.572
86510,-3362.0,6972.0,8486.0,0.718,0.397,0.125,-0.558
86526,-2294.0,6038.0,8256.0,0.735,0.384,0.129,-0.543
86542,-2570.0,5676.0,8188.0,0.748,0.377,0.136,-0.529
86558,-2908.0,5668.0,7856.0,0.755,0.375,0.142,-0.518
86574,-3236.0,4826.0,7832.0,0.76,0.379,0.149,-0.506
86590,-3742.0,4386.0,6910.0,0.76,0.388,0.154,-0.497
86616,-4428.0,4404.0,6126.0,0.757,0.402,0.159,-0.491
86632,-5012.0,4414.0,5594.0,0.75,0.419,0.164,-0.486
86648,-5520.0,4956.0,5096.0,0.74,0.438,0.168,-0.482
86664,-5936.0,5576.0,4604.0,0.73,0.456,0.173,-0.479
86680,-6458.0,5948.0,4190.0,0.719,0.473,0.179,-0.476
86696,-6834.0,6210.0,3834.0,0.708,0.488,0.186,-0.475
86723,-6918.0,6728.0,3516.0,0.696,0.501,0.192,-0.477
86739,-6686.0,6994.0,3192.0,0.685,0.511,0.199,-0.479
86755,-6762.0,6374.0,2978.0,0.674,0.518,0.208,-0.483
86771,-6760.0,5466.0,2702.0,0.664,0.522,0.218,-0.488
86787,-6820.0,4718.0,2576.0,0.654,0.525,0.229,-0.494
86803,-6628.0,4292.0,2336.0,0.645,0.526,0.24,-0.5
86820,-6654.0,3722.0,2210.0,0.636,0.526,0.251,-0.506
86837,-7158.0,3234.0,1966.0,0.629,0.524,0.262,-0.511
86863,-8338.0,2220.0,1862.0,0.621,0.523,0.273,-0.516
86879,-9318.0,2456.0,1458.0,0.614,0.521,0.282,-0.522
86895,-9790.0,4126.0,1360.0,0.607,0.517,0.291,-0.528
86911,-10318.0,4928.0,1098.0,0.602,0.51,0.301,-0.535
86927,-10184.0,4026.0,792.0,0.599,0.499,0.312,-0.542
86943,-10274.0,2976.0,800.0,0.596,0.487,0.323,-0.551
86969,-10378.0,2236.0,958.0,0.592,0.474,0.335,-0.559
86985,-9930.0,2144.0,996.0,0.584,0.462,0.344,-0.572
87001,-9352.0,1890.0,1064.0,0.578,0.447,0.354,-0.584
87017,-8934.0,1468.0,946.0,0.571,0.432,0.363,-0.597
87033,-8710.0,748.0,938.0,0.563,0.416,0.373,-0.609
87059,-8488.0,164.0,920.0,0.555,0.4,0.381,-0.621
87075,-8186.0,-542.0,1124.0,0.547,0.384,0.388,-0.634
87091,-7548.0,-608.0,1320.0,0.539,0.367,0.392,-0.648
87107,-6954.0,-490.0,1570.0,0.532,0.35,0.395,-0.662
87123,-6540.0,-560.0,2284.0,0.525,0.332,0.398,-0.675
87139,-6452.0,-632.0,2514.0,0.517,0.313,0.401,-0.688
87165,-6166.0,-1174.0,2698.0,0.511,0.293,0.406,-0.699
87181,-5920.0,-1424.0,3018.0,0.506,0.272,0.411,-0.708
87198,-5602.0,-1682.0,3510.0,0.501,0.25,0.417,-0.716
87215,-5500.0,-1698.0,4004.0,0.498,0.227,0.423,-0.722
87232,-5648.0,-1706.0,4176.0,0.494,0.203,0.431,-0.727
87249,-5388.0,-2234.0,4320.0,0.491,0.177,0.439,-0.731
87266,-4750.0,-2388.0,4644.0,0.488,0.152,0.446,-0.735
87283,-4096.0,-2970.0,5082.0,0.483,0.126,0.454,-0.738
87300,-3468.0,-3670.0,5360.0,0.478,0.1,0.461,-0.741
87317,-2812.0,-4528.0,5080.0,0.472,0.076,0.467,-0.744
87334,-2886.0,-5300.0,4970.0,0.464,0.054,0.472,-0.748
87351,-2610.0,-5532.0,4726.0,0.456,0.035,0.474,-0.752
87368,-2934.0,-5500.0,4298.0,0.448,0.018,0.474,-0.758
87394,-2248.0,-4862.0,3752.0,0.44,0.002,0.472,-0.764
87411,-1380.0,-4792.0,3764.0,0.434,-0.014,0.469,-0.769
87427,-598.0,-4918.0,3570.0,0.428,-0.031,0.465,-0.774
87443,360.0,-4610.0,3426.0,0.423,-0.048,0.462,-0.778
87460,1208.0,-4546.0,3262.0,0.418,-0.065,0.459,-0.781
87477,1786.0,-5066.0,3218.0,0.413,-0.082,0.456,-0.784
87494,2142.0,-5440.0,3250.0,0.409,-0.098,0.454,-0.786
87511,2260.0,-5576.0,3322.0,0.404,-0.113,0.451,-0.788
87528,2332.0,-5710.0,3432.0,0.399,-0.127,0.447,-0.79
87554,3024.0,-5542.0,4044.0,0.394,-0.142,0.445,-0.792
87570,3412.0,-6764.0,5024.0,0.389,-0.155,0.45,-0.789
87586,3606.0,-8170.0,5726.0,0.385,-0.164,0.46,-0.783
87602,2820.0,-10062.0,5464.0,0.38,-0.171,0.474,-0.775
87619,1464.0,-11006.0,4720.0,0.376,-0.175,0.487,-0.769
87636,-110.0,-11120.0,4024.0,0.373,-0.176,0.495,-0.765
87653,-590.0,-10554.0,3782.0,0.371,-0.176,0.496,-0.765
87669,-566.0,-9732.0,4218.0,0.372,-0.177,0.492,-0.767
87696,-786.0,-8108.0,4562.0,0.375,-0.177,0.485,-0.77
87713,-1016.0,-6632.0,5078.0,0.378,-0.179,0.48,-0.772
87729,-866.0,-6262.0,5566.0,0.379,-0.182,0.477,-0.772
87745,-996.0,-6310.0,5502.0,0.379,-0.187,0.478,-0.77
87761,-1140.0,-7060.0,5562.0,0.378,-0.192,0.482,-0.767
87778,-1202.0,-8100.0,5598.0,0.376,-0.198,0.485,-0.764
87795,-1228.0,-8322.0,5468.0,0.375,-0.203,0.488,-0.762
87811,-828.0,-8528.0,5164.0,0.374,-0.208,0.489,-0.76
87828,-560.0,-8488.0,4914.0,0.373,-0.212,0.49,-0.759
87854,-290.0,-8242.0,4598.0,0.373,-0.215,0.491,-0.758
87870,-228.0,-7978.0,4398.0,0.372,-0.217,0.492,-0.757
87886,-316.0,-7636.0,4408.0,0.372,-0.218,0.493,-0.756
87902,-368.0,-7662.0,4300.0,0.371,-0.218,0.494,-0.755
87919,-454.0,-7628.0,4108.0,0.37,-0.219,0.495,-0.755
87936,-372.0,-7518.0,3878.0,0.37,-0.22,0.497,-0.754
87952,-324.0,-7464.0,3752.0,0.37,-0.22,0.499,-0.752
87979,-258.0,-7448.0,3596.0,0.37,-0.221,0.501,-0.751
87996,-232.0,-7350.0,3452.0,0.37,-0.221,0.502,-0.75
88013,-214.0,-7348.0,3174.0,0.37,-0.221,0.503,-0.749
88030,-194.0,-7384.0,3022.0,0.37,-0.22,0.503,-0.749
88046,-284.0,-7596.0,2870.0,0.37,-0.22,0.503,-0.75
88062,-248.0,-7726.0,2722.0,0.37,-0.22,0.501,-0.751
88078,-196.0,-7638.0,2444.0,0.37,-0.219,0.499,-0.752
88094,-208.0,-7470.0,2280.0,0.371,-0.218,0.497,-0.753
88121,214.0,-7422.0,2368.0,0.372,-0.219,0.495,-0.754
88137,584.0,-7744.0,2376.0,0.373,-0.22,0.493,-0.754
88153,1074.0,-8086.0,2312.0,0.375,-0.221,0.492,-0.754
88169,1482.0,-8938.0,2098.0,0.377,-0.22,0.491,-0.754
88185,1902.0,-9572.0,1846.0,0.381,-0.218,0.488,-0.754
88202,2344.0,-9912.0,1624.0,0.387,-0.212,0.484,-0.756
88219,2632.0,-10094.0,1324.0,0.394,-0.203,0.476,-0.76
88236,2520.0,-10224.0,1146.0,0.403,-0.191,0.467,-0.764
88262,2548.0,-9752.0,1022.0,0.414,-0.175,0.455,-0.768
88279,2398.0,-8680.0,858.0,0.428,-0.157,0.443,-0.771
88295,2300.0,-7660.0,952.0,0.445,-0.139,0.432,-0.772
88311,2144.0,-6780.0,1396.0,0.464,-0.119,0.422,-0.77
88327,1666.0,-6390.0,1926.0,0.486,-0.099,0.412,-0.765
88344,892.0,-6426.0,2542.0,0.508,-0.08,0.404,-0.756
88361,154.0,-6780.0,3020.0,0.532,-0.061,0.396,-0.746
88378,-432.0,-6976.0,3224.0,0.558,-0.038,0.385,-0.734
88404,-1294.0,-6180.0,3808.0,0.587,-0.009,0.368,-0.721
88420,-1810.0,-3498.0,3740.0,0.616,0.024,0.344,-0.708
88436,-3520.0,658.0,3914.0,0.643,0.057,0.317,-0.695
88452,-4804.0,3686.0,5296.0,0.668,0.084,0.29,-0.68
88468,-5000.0,4790.0,6578.0,0.691,0.102,0.264,-0.665
88485,-5818.0,5446.0,7498.0,0.71,0.113,0.239,-0.653
88502,-5642.0,5518.0,8156.0,0.726,0.119,0.215,-0.643
88528,-5112.0,5532.0,9080.0,0.736,0.125,0.189,-0.637
88544,-3788.0,4776.0,10904.0,0.741,0.133,0.161,-0.638
88560,-1946.0,418.0,14568.0,0.737,0.152,0.131,-0.645
88576,-1708.0,2650.0,16646.0,0.722,0.193,0.091,-0.658
88592,-1890.0,14114.0,10962.0,0.704,0.225,0.065,-0.671
88608,-2416.0,14640.0,8872.0,0.693,0.241,0.065,-0.676
88634,-3858.0,10256.0,6648.0,0.694,0.241,0.085,-0.673
88651,-8010.0,4012.0,6534.0,0.699,0.231,0.109,-0.668
88668,-7678.0,904.0,6062.0,0.703,0.217,0.13,-0.665
88685,-7990.0,-2842.0,6792.0,0.705,0.202,0.142,-0.664
88701,-6042.0,-5968.0,7348.0,0.705,0.193,0.143,-0.668
88718,-5448.0,-5400.0,8134.0,0.702,0.193,0.136,-0.672
88735,-4160.0,-2680.0,7916.0,0.698,0.195,0.125,-0.677
88752,-1886.0,-5344.0,8508.0,0.696,0.204,0.116,-0.679
88768,-4552.0,-5754.0,8636.0,0.695,0.221,0.104,-0.676
88785,-4416.0,-5114.0,8482.0,0.695,0.24,0.085,-0.672
88802,-2438.0,-3448.0,7222.0,0.697,0.259,0.059,-0.666
88829,-744.0,-3366.0,6082.0,0.697,0.282,0.029,-0.659
88845,428.0,-410.0,5544.0,0.696,0.308,-0.004,-0.649
88861,972.0,1904.0,4900.0,0.695,0.332,-0.034,-0.637
88878,1916.0,3164.0,4562.0,0.695,0.353,-0.062,-0.623
88894,2112.0,3646.0,3972.0,0.694,0.373,-0.089,-0.61
88911,2818.0,4204.0,3248.0,0.691,0.39,-0.113,-0.598
88928,2078.0,5736.0,2842.0,0.687,0.406,-0.133,-0.588
88944,1678.0,5970.0,2884.0,0.68,0.421,-0.153,-0.58
88970,1778.0,5816.0,2776.0,0.669,0.439,-0.172,-0.575
88986,3010.0,8582.0,3372.0,0.648,0.467,-0.189,-0.572
89002,-196.0,13406.0,1760.0,0.622,0.499,-0.2,-0.569
89018,-1936.0,12114.0,1590.0,0.603,0.522,-0.204,-0.568
89035,-3632.0,11012.0,1370.0,0.59,0.535,-0.205,-0.568
89052,-3646.0,9656.0,644.0,0.583,0.542,-0.203,-0.57
89068,-4166.0,8258.0,716.0,0.579,0.545,-0.2,-0.573
89085,-4146.0,6732.0,1332.0,0.575,0.548,-0.197,-0.575
89112,-4322.0,6676.0,1592.0,0.57,0.552,-0.195,-0.577
89129,-4310.0,7540.0,2206.0,0.565,0.556,-0.194,-0.579
89145,-4562.0,7004.0,2692.0,0.56,0.56,-0.192,-0.579
89161,-4708.0,8018.0,2514.0,0.557,0.564,-0.19,-0.58
89178,-3474.0,7882.0,3198.0,0.554,0.567,-0.187,-0.58
89194,-4656.0,7486.0,3264.0,0.552,0.571,-0.183,-0.579
89210,-4532.0,7320.0,3178.0,0.552,0.573,-0.18,-0.579
89237,-3902.0,7118.0,3060.0,0.553,0.574,-0.176,-0.578
89253,-3650.0,6702.0,3176.0,0.553,0.576,-0.173,-0.577
89270,-4068.0,7654.0,2450.0,0.553,0.577,-0.171,-0.576
89286,-4328.0,6794.0,1794.0,0.556,0.575,-0.169,-0.575
89302,-3412.0,5982.0,1776.0,0.56,0.573,-0.167,-0.575
89318,-4098.0,3982.0,2400.0,0.561,0.571,-0.168,-0.574
89335,-3160.0,4822.0,2542.0,0.56,0.572,-0.172,-0.574
89351,-1600.0,5562.0,4306.0,0.559,0.573,-0.175,-0.573
89368,730.0,6388.0,5920.0,0.563,0.577,-0.174,-0.566
89395,-2100.0,7466.0,6452.0,0.572,0.578,-0.169,-0.557
89412,-2864.0,8574.0,6402.0,0.588,0.576,-0.161,-0.545
89429,-3102.0,12220.0,5956.0,0.619,0.565,-0.145,-0.527
89446,-4840.0,10218.0,4544.0,0.658,0.544,-0.123,-0.506
89463,-5320.0,5294.0,5360.0,0.692,0.525,-0.104,-0.485
89480,-4870.0,9008.0,5394.0,0.707,0.521,-0.093,-0.47
89496,336.0,19090.0,3802.0,0.713,0.523,-0.076,-0.461
89512,678.0,21046.0,3112.0,0.726,0.519,-0.042,-0.45
89529,-3392.0,15386.0,2918.0,0.746,0.506,0.001,-0.433
89546,-6328.0,11554.0,2898.0,0.768,0.487,0.044,-0.415
89563,-7552.0,10120.0,3162.0,0.786,0.466,0.084,-0.398
89589,-7464.0,11132.0,2724.0,0.802,0.441,0.126,-0.383
89605,-6646.0,6904.0,3080.0,0.816,0.411,0.168,-0.37
89621,-5648.0,3048.0,3588.0,0.824,0.384,0.205,-0.362
89637,-4550.0,396.0,4478.0,0.827,0.366,0.235,-0.356
89653,-4032.0,1460.0,3852.0,0.826,0.355,0.262,-0.351
89669,-4582.0,1074.0,3386.0,0.823,0.347,0.287,-0.346
89695,-5312.0,1064.0,3368.0,0.82,0.34,0.31,-0.34
89711,-6016.0,1592.0,3068.0,0.817,0.333,0.331,-0.334
89727,-6306.0,1504.0,3068.0,0.815,0.324,0.351,-0.328
89743,-6010.0,1114.0,3102.0,0.813,0.314,0.368,-0.322
89759,-6034.0,244.0,3122.0,0.81,0.307,0.384,-0.318
89775,-6000.0,402.0,3140.0,0.806,0.304,0.398,-0.317
89801,-6108.0,1444.0,3242.0,0.8,0.301,0.41,-0.318
89817,-6472.0,1932.0,3210.0,0.795,0.298,0.421,-0.32
89833,-6694.0,2044.0,3100.0,0.791,0.292,0.432,-0.32
89849,-7012.0,2032.0,3084.0,0.788,0.285,0.443,-0.32
89865,-7116.0,1038.0,3236.0,0.786,0.276,0.453,-0.318
89891,-7012.0,188.0,3262.0,0.784,0.268,0.461,-0.317
89907,-6562.0,164.0,3238.0,0.781,0.261,0.469,-0.318
89923,-6578.0,334.0,3370.0,0.778,0.255,0.476,-0.319
89939,-6416.0,990.0,3290.0,0.776,0.247,0.485,-0.32
89955,-6496.0,348.0,3750.0,0.773,0.239,0.493,-0.32
89971,-6616.0,-392.0,3914.0,0.77,0.231,0.501,-0.32
89997,-6694.0,-454.0,3908.0,0.768,0.224,0.509,-0.319
90013,-6634.0,-72.0,3814.0,0.764,0.218,0.516,-0.319
90029,-7160.0,270.0,3810.0,0.761,0.212,0.524,-0.319
90045,-7596.0,84.0,3794.0,0.757,0.206,0.532,-0.318
90061,-7786.0,-16.0,3828.0,0.754,0.2,0.539,-0.318
90077,-8020.0,-232.0,3844.0,0.75,0.194,0.546,-0.319
90103,-8280.0,154.0,3766.0,0.746,0.187,0.553,-0.321
90119,-7952.0,972.0,3336.0,0.742,0.179,0.561,-0.32
90135,-8194.0,-358.0,3358.0,0.738,0.168,0.571,-0.318
90151,-8282.0,-1494.0,3028.0,0.734,0.157,0.581,-0.315
90167,-8164.0,-2034.0,2686.0,0.729,0.149,0.59,-0.314
90183,-8328.0,-2090.0,2290.0,0.724,0.142,0.598,-0.314
90209,-8568.0,-1922.0,2000.0,0.718,0.136,0.606,-0.314
90225,-8520.0,-1054.0,1644.0,0.713,0.13,0.614,-0.314
90241,-8410.0,-800.0,1602.0,0.708,0.122,0.622,-0.312
90258,-8418.0,-1518.0,1680.0,0.703,0.113,0.631,-0.309
90275,-8266.0,-2190.0,1600.0,0.698,0.105,0.639,-0.304
90291,-8080.0,-3004.0,1724.0,0.694,0.099,0.647,-0.3
90307,-7800.0,-3604.0,1670.0,0.688,0.095,0.654,-0.299
90333,-7374.0,-4382.0,1832.0,0.681,0.095,0.66,-0.301
90350,-7080.0,-4120.0,1674.0,0.673,0.099,0.666,-0.307
90367,-7206.0,-3078.0,1464.0,0.664,0.106,0.671,-0.313
90384,-6850.0,-478.0,1276.0,0.654,0.114,0.678,-0.316
90401,-7052.0,-1106.0,828.0,0.644,0.119,0.688,-0.313
90418,-7354.0,-2602.0,406.0,0.636,0.123,0.697,-0.309
90434,-7206.0,-2754.0,-322.0,0.627,0.128,0.704,-0.308
90451,-6916.0,-2518.0,-738.0,0.618,0.135,0.71,-0.31
90467,-6426.0,-1558.0,-1084.0,0.61,0.141,0.715,-0.313
90483,-6472.0,-1480.0,-1196.0,0.601,0.144,0.721,-0.314
90509,-6948.0,-2172.0,-1336.0,0.593,0.146,0.727,-0.313
90525,-7018.0,-3572.0,-1386.0,0.586,0.148,0.734,-0.31
90542,-6922.0,-4496.0,-1432.0,0.58,0.149,0.739,-0.308
90558,-6436.0,-5358.0,-2194.0,0.573,0.152,0.745,-0.306
90574,-7626.0,-5964.0,-2002.0,0.568,0.158,0.748,-0.306
90590,-6974.0,-3628.0,-2220.0,0.563,0.165,0.75,-0.305
90616,-7340.0,-3390.0,-2468.0,0.56,0.171,0.752,-0.303
90633,-7222.0,-3590.0,-2316.0,0.557,0.175,0.754,-0.3
90650,-8134.0,-3324.0,-1994.0,0.556,0.18,0.755,-0.297
90667,-7520.0,-2778.0,-2426.0,0.555,0.185,0.755,-0.296
90684,-7532.0,-2598.0,-2218.0,0.554,0.188,0.755,-0.295
90701,-7612.0,-2424.0,-2078.0,0.554,0.191,0.755,-0.295
90718,-7704.0,-2090.0,-2128.0,0.554,0.194,0.754,-0.296
90734,-7792.0,-2112.0,-1954.0,0.554,0.197,0.752,-0.297
90751,-7920.0,-1378.0,-1930.0,0.556,0.2,0.75,-0.299
90767,-7862.0,-1376.0,-2000.0,0.558,0.201,0.747,-0.3
90784,-8132.0,-1770.0,-1766.0,0.561,0.201,0.744,-0.301
90811,-8264.0,-2180.0,-1728.0,0.564,0.201,0.741,-0.303
90828,-8390.0,-2286.0,-1594.0,0.569,0.201,0.737,-0.306
90845,-8212.0,-2140.0,-1648.0,0.573,0.201,0.732,-0.309
90862,-8136.0,-2260.0,-1284.0,0.577,0.201,0.727,-0.314
90879,-7682.0,-1972.0,-1230.0,0.581,0.201,0.722,-0.319
90896,-7782.0,-1742.0,-880.0,0.584,0.2,0.717,-0.324
90913,-7848.0,-1844.0,-594.0,0.588,0.198,0.713,-0.328
90930,-7914.0,-2264.0,-192.0,0.591,0.195,0.709,-0.332
90947,-7828.0,-2198.0,68.0,0.595,0.192,0.705,-0.336
90964,-7864.0,-2286.0,-26.0,0.598,0.189,0.701,-0.339
90981,-8034.0,-2492.0,246.0,0.601,0.185,0.698,-0.343
90998,-8256.0,-2860.0,634.0,0.604,0.183,0.694,-0.347
91015,-8040.0,-2974.0,1006.0,0.606,0.181,0.69,-0.351
91041,-7922.0,-2516.0,1238.0,0.609,0.18,0.686,-0.355
91058,-7764.0,-1982.0,1378.0,0.611,0.179,0.684,-0.358
91074,-7484.0,-2064.0,1692.0,0.612,0.177,0.682,-0.359
91091,-7722.0,-2750.0,1628.0,0.612,0.175,0.682,-0.36
91107,-8132.0,-3234.0,1342.0,0.611,0.176,0.682,-0.363
91123,-8264.0,-3352.0,1302.0,0.608,0.178,0.681,-0.367
91139,-8328.0,-2694.0,1444.0,0.605,0.182,0.679,-0.374
91165,-8246.0,-2050.0,1270.0,0.602,0.186,0.677,-0.38
91182,-8844.0,-2586.0,1100.0,0.597,0.191,0.676,-0.387
91199,-9066.0,-3246.0,1014.0,0.593,0.197,0.672,-0.396
91216,-8666.0,-4230.0,938.0,0.589,0.207,0.667,-0.408
91233,-8222.0,-4444.0,958.0,0.582,0.219,0.658,-0.425
91250,-8158.0,-1032.0,560.0,0.574,0.232,0.649,-0.442
91267,-8018.0,-316.0,832.0,0.567,0.241,0.644,-0.454
91283,-8208.0,-1758.0,1072.0,0.561,0.248,0.641,-0.461
91299,-8278.0,-5026.0,1514.0,0.555,0.256,0.636,-0.47
91315,-7696.0,-5542.0,1300.0,0.547,0.269,0.627,-0.485
91341,-7104.0,-4552.0,984.0,0.536,0.286,0.613,-0.505
91357,-6558.0,-3144.0,448.0,0.521,0.305,0.597,-0.528
91373,-6234.0,-2778.0,926.0,0.503,0.325,0.58,-0.552
91389,-5904.0,-1496.0,1324.0,0.483,0.344,0.561,-0.578
91405,-5488.0,-626.0,1650.0,0.462,0.361,0.542,-0.603
91431,-4960.0,270.0,2128.0,0.441,0.373,0.525,-0.625
91448,-4646.0,1294.0,2706.0,0.422,0.38,0.513,-0.643
91465,-4010.0,2888.0,2996.0,0.406,0.381,0.51,-0.655
91481,-3818.0,2744.0,3626.0,0.393,0.378,0.517,-0.66
91498,-4666.0,942.0,3852.0,0.383,0.371,0.53,-0.659
91515,-5042.0,-252.0,3518.0,0.374,0.362,0.546,-0.656
91532,-5140.0,-1086.0,3070.0,0.366,0.351,0.564,-0.652
91549,-5440.0,-2220.0,2698.0,0.358,0.34,0.583,-0.645
91566,-5440.0,-3394.0,2506.0,0.35,0.327,0.604,-0.637
91583,-6226.0,-4136.0,2484.0,0.344,0.314,0.626,-0.626
91600,-6754.0,-4500.0,1844.0,0.339,0.3,0.65,-0.61
91617,-7148.0,-4894.0,920.0,0.335,0.286,0.676,-0.59
91634,-7580.0,-7042.0,456.0,0.331,0.272,0.703,-0.568
91661,-6992.0,-7216.0,180.0,0.325,0.26,0.726,-0.547
91678,-6832.0,-7060.0,-128.0,0.317,0.251,0.747,-0.528
91695,-7158.0,-5934.0,-1392.0,0.306,0.242,0.766,-0.511
91711,-7116.0,-5802.0,-1970.0,0.294,0.234,0.782,-0.497
91728,-6658.0,-6406.0,-2582.0,0.28,0.227,0.797,-0.485
91746,-6576.0,-7452.0,-3498.0,0.265,0.22,0.809,-0.476
91763,-6710.0,-5784.0,-4224.0,0.25,0.213,0.821,-0.467
91780,-6742.0,-5896.0,-4878.0,0.236,0.205,0.835,-0.454
91797,-6874.0,-5870.0,-6268.0,0.224,0.197,0.85,-0.434
91814,-6894.0,-5616.0,-6900.0,0.214,0.19,0.867,-0.409
91831,-6414.0,-6006.0,-7458.0,0.206,0.182,0.884,-0.378
91848,-5552.0,-6940.0,-8032.0,0.199,0.176,0.899,-0.347
91865,-5236.0,-6388.0,-8714.0,0.194,0.17,0.912,-0.319
91892,-5206.0,-6016.0,-9274.0,0.191,0.165,0.922,-0.294
91908,-4768.0,-6476.0,-9720.0,0.189,0.161,0.93,-0.272
91925,-4746.0,-5596.0,-10166.0,0.19,0.159,0.935,-0.255
91941,-4560.0,-4646.0,-10340.0,0.196,0.158,0.937,-0.24
91958,-3910.0,-3762.0,-9894.0,0.206,0.156,0.939,-0.227
91975,-3138.0,-3250.0,-9166.0,0.22,0.155,0.939,-0.216
91991,-2696.0,-2354.0,-8194.0,0.236,0.152,0.938,-0.204
92008,-2154.0,-1800.0,-7314.0,0.255,0.149,0.936,-0.192
92025,-1822.0,-2178.0,-6066.0,0.276,0.145,0.933,-0.18
92041,-2354.0,-1558.0,-6064.0,0.297,0.139,0.929,-0.17
92068,1148.0,1828.0,-2640.0,0.312,0.13,0.929,-0.152
92084,-620.0,-1916.0,838.0,0.313,0.118,0.932,-0.139
92101,-5134.0,-4978.0,-826.0,0.317,0.112,0.932,-0.138
92117,-5288.0,-1650.0,-2260.0,0.322,0.114,0.929,-0.143
92133,-6642.0,-78.0,-2888.0,0.33,0.117,0.926,-0.14
92149,-5792.0,472.0,-6626.0,0.341,0.115,0.924,-0.127
92165,-5626.0,-2686.0,-9162.0,0.348,0.111,0.924,-0.116
92191,-7114.0,-2862.0,-9142.0,0.354,0.108,0.922,-0.111
92208,-6886.0,-1216.0,-9052.0,0.363,0.104,0.919,-0.11
92225,-6240.0,-554.0,-8412.0,0.374,0.098,0.916,-0.109
92242,-6168.0,-1800.0,-8206.0,0.387,0.093,0.911,-0.111
92259,-5730.0,-2074.0,-8236.0,0.402,0.086,0.904,-0.118
92276,-5698.0,-2868.0,-7634.0,0.417,0.08,0.896,-0.13
92293,-5100.0,-3036.0,-6804.0,0.432,0.075,0.887,-0.145
92309,-3452.0,-4338.0,-3672.0,0.442,0.074,0.879,-0.165
92325,-3688.0,-16.0,-1230.0,0.447,0.078,0.872,-0.184
92351,-6780.0,2854.0,-2042.0,0.453,0.081,0.866,-0.195
92368,-5924.0,2096.0,-3436.0,0.46,0.081,0.862,-0.197
92384,-6756.0,-1534.0,-3994.0,0.467,0.08,0.858,-0.197
92401,-7036.0,-2740.0,-4472.0,0.472,0.079,0.856,-0.197
92418,-7062.0,-4558.0,-4508.0,0.476,0.079,0.853,-0.199
92435,-7514.0,-4516.0,-4686.0,0.48,0.08,0.85,-0.204
92451,-6806.0,-2736.0,-3608.0,0.483,0.083,0.847,-0.207
92468,-6330.0,-2394.0,-3358.0,0.486,0.086,0.844,-0.209
92484,-6172.0,-1898.0,-3418.0,0.487,0.089,0.843,-0.21
92510,-6186.0,-1650.0,-3220.0,0.489,0.093,0.841,-0.211
92527,-6138.0,-2158.0,-3448.0,0.49,0.096,0.84,-0.211
92544,-6238.0,-2668.0,-3730.0,0.49,0.098,0.84,-0.212
92561,-7094.0,-3264.0,-3154.0,0.49,0.102,0.839,-0.213
92577,-7418.0,-3006.0,-2746.0,0.49,0.107,0.838,-0.216
92593,-7022.0,-3000.0,-3084.0,0.491,0.113,0.835,-0.22
92610,-6144.0,-2382.0,-2682.0,0.491,0.118,0.833,-0.226
92626,-7180.0,-2884.0,-2488.0,0.488,0.122,0.833,-0.231
92652,-8026.0,-1982.0,-3472.0,0.488,0.126,0.831,-0.235
92668,-7128.0,-2448.0,-3544.0,0.486,0.129,0.831,-0.238
92684,-7912.0,2002.0,-5428.0,0.485,0.129,0.832,-0.238
92700,-6916.0,528.0,-5448.0,0.487,0.123,0.836,-0.219
92716,-4236.0,-7110.0,-940.0,0.482,0.119,0.842,-0.212
92732,-7384.0,-4588.0,-3550.0,0.477,0.12,0.845,-0.208
92758,-6350.0,-5052.0,-3680.0,0.472,0.122,0.848,-0.209
92774,-7376.0,-3222.0,-3958.0,0.466,0.126,0.849,-0.214
92790,-6970.0,-1506.0,-3958.0,0.459,0.131,0.851,-0.218
92807,-6854.0,-1626.0,-3726.0,0.453,0.134,0.854,-0.22
92823,-6896.0,-2222.0,-3272.0,0.447,0.137,0.856,-0.221
92840,-7084.0,-2852.0,-3182.0,0.442,0.139,0.858,-0.223
92857,-7196.0,-4222.0,-3338.0,0.437,0.143,0.858,-0.227
92873,-7088.0,-2876.0,-4026.0,0.433,0.146,0.859,-0.232
92900,-7112.0,-3864.0,-4280.0,0.428,0.15,0.859,-0.238
92917,-7050.0,-3104.0,-3320.0,0.423,0.154,0.858,-0.245
92934,-7036.0,-658.0,-3896.0,0.42,0.158,0.858,-0.25
92950,-6918.0,-1498.0,-3838.0,0.419,0.161,0.858,-0.252
92967,-6754.0,-2194.0,-4066.0,0.418,0.163,0.857,-0.252
92983,-6002.0,-2570.0,-4432.0,0.417,0.165,0.857,-0.252
93000,-6294.0,-2088.0,-4494.0,0.416,0.166,0.858,-0.25
93017,-6726.0,-3280.0,-4396.0,0.416,0.166,0.859,-0.247
93034,-6854.0,-4214.0,-3354.0,0.417,0.167,0.859,-0.246
93050,-6976.0,-3168.0,-3380.0,0.419,0.169,0.858,-0.246
93077,-6706.0,-1970.0,-3722.0,0.421,0.17,0.857,-0.245
93094,-6620.0,-2728.0,-3852.0,0.423,0.171,0.856,-0.242
93111,-6720.0,-2982.0,-4266.0,0.425,0.172,0.856,-0.238
93129,-6708.0,-3226.0,-3972.0,0.427,0.173,0.855,-0.237
93146,-6846.0,-2034.0,-4248.0,0.428,0.174,0.854,-0.237
93163,-6612.0,-1136.0,-4248.0,0.429,0.175,0.853,-0.238
93181,-7260.0,-1458.0,-3518.0,0.431,0.176,0.853,-0.238
93198,-7646.0,-2030.0,-3510.0,0.434,0.177,0.851,-0.238
93215,-7244.0,-2990.0,-3634.0,0.437,0.178,0.848,-0.239
93232,-6916.0,-4088.0,-3718.0,0.44,0.179,0.846,-0.243
93249,-6768.0,-3530.0,-3676.0,0.442,0.18,0.843,-0.248
93266,-6984.0,-2650.0,-3834.0,0.442,0.182,0.841,-0.253
93283,-6956.0,-2236.0,-3392.0,0.444,0.183,0.838,-0.259
93300,-6762.0,-3206.0,-2762.0,0.444,0.185,0.835,-0.266
93316,-7180.0,-2758.0,-3326.0,0.445,0.188,0.832,-0.273
93333,-7142.0,-2292.0,-3866.0,0.447,0.19,0.829,-0.279
93360,-7246.0,-1586.0,-3686.0,0.449,0.19,0.826,-0.282
93377,-6764.0,-1982.0,-3680.0,0.452,0.189,0.824,-0.283
93394,-6682.0,-2530.0,-3692.0,0.454,0.188,0.823,-0.284
93411,-6486.0,-3358.0,-3682.0,0.456,0.186,0.823,-0.284
93429,-6840.0,-2552.0,-3874.0,0.457,0.185,0.823,-0.284
93447,-6866.0,-2442.0,-3244.0,0.458,0.183,0.823,-0.283
93464,-7232.0,-2406.0,-3066.0,0.459,0.182,0.823,-0.281
93481,-7414.0,-2126.0,-3306.0,0.46,0.181,0.824,-0.278
93498,-6994.0,-2834.0,-3198.0,0.461,0.18,0.824,-0.275
93515,-7196.0,-3574.0,-3094.0,0.461,0.179,0.825,-0.274
93532,-7232.0,-2114.0,-3444.0,0.461,0.178,0.826,-0.272
93549,-6890.0,-1572.0,-4136.0,0.461,0.174,0.829,-0.264
93566,-7382.0,-3566.0,-3536.0,0.461,0.171,0.833,-0.255
93583,-6482.0,-4472.0,-3162.0,0.457,0.17,0.835,-0.253
93600,-6110.0,-900.0,-4340.0,0.452,0.17,0.839,-0.25
93626,-6824.0,-240.0,-3626.0,0.448,0.173,0.843,-0.244
93643,-6378.0,-1010.0,-4328.0,0.443,0.175,0.847,-0.235
93660,-5830.0,-3900.0,-3900.0,0.438,0.176,0.853,-0.225
93677,-7004.0,-5512.0,-2964.0,0.432,0.178,0.856,-0.221
93695,-7448.0,-2164.0,-3674.0,0.428,0.18,0.858,-0.22
93712,-7198.0,-978.0,-4838.0,0.426,0.183,0.859,-0.218
93729,-7128.0,-1790.0,-5524.0,0.424,0.185,0.861,-0.213
93747,-7938.0,-3668.0,-5070.0,0.422,0.188,0.862,-0.21
93764,-9830.0,-2202.0,-5676.0,0.42,0.19,0.862,-0.209
93781,-9942.0,-2204.0,-5590.0,0.422,0.193,0.861,-0.208
93798,-8540.0,-2124.0,-6012.0,0.424,0.195,0.86,-0.207
93815,-9142.0,-2378.0,-6546.0,0.427,0.197,0.858,-0.208
93832,-8164.0,-1636.0,-6332.0,0.431,0.199,0.855,-0.209
93849,-7604.0,-2188.0,-5726.0,0.434,0.201,0.853,-0.21
93866,-7816.0,-2026.0,-5982.0,0.438,0.203,0.85,-0.211
93883,-7358.0,-2290.0,-5062.0,0.443,0.205,0.846,-0.213
93900,-6860.0,-2354.0,-4664.0,0.449,0.207,0.842,-0.216
93926,-6440.0,-1514.0,-5122.0,0.455,0.209,0.837,-0.219
93943,-6282.0,-1940.0,-4344.0,0.462,0.212,0.832,-0.222
93960,-6224.0,-2768.0,-3792.0,0.469,0.215,0.827,-0.225
93977,-6192.0,-1234.0,-4268.0,0.475,0.218,0.822,-0.227
93993,-6118.0,-2098.0,-3998.0,0.481,0.222,0.817,-0.229
94009,-6226.0,-2468.0,-3922.0,0.484,0.227,0.813,-0.231
94026,-7276.0,-2196.0,-3344.0,0.488,0.232,0.808,-0.233
94043,-7798.0,-2492.0,-2862.0,0.493,0.238,0.803,-0.235
94060,-8086.0,-2092.0,-2762.0,0.498,0.245,0.798,-0.237
94077,-8236.0,-1438.0,-2556.0,0.504,0.25,0.791,-0.239
94094,-7670.0,-888.0,-2810.0,0.511,0.255,0.785,-0.24
94112,-6958.0,-566.0,-2922.0,0.518,0.26,0.779,-0.239
94139,-6950.0,-336.0,-2336.0,0.526,0.267,0.771,-0.238
94155,-7636.0,224.0,-1800.0,0.535,0.275,0.763,-0.236
94171,-6738.0,144.0,-1706.0,0.545,0.282,0.755,-0.232
94187,-6146.0,-1188.0,-1558.0,0.555,0.289,0.746,-0.227
94203,-5928.0,-1734.0,-2362.0,0.562,0.298,0.738,-0.223
94220,-4952.0,1416.0,-954.0,0.569,0.306,0.731,-0.219
94236,-5482.0,-942.0,-484.0,0.574,0.313,0.726,-0.213
94263,-5008.0,-1802.0,-2982.0,0.574,0.322,0.722,-0.212
94280,-4950.0,-426.0,-1338.0,0.571,0.328,0.721,-0.216
94297,-4740.0,-372.0,242.0,0.565,0.33,0.723,-0.221
94314,-4408.0,-1274.0,-1124.0,0.557,0.329,0.728,-0.227
94331,-4672.0,-350.0,176.0,0.547,0.327,0.732,-0.24
94348,-3426.0,-3324.0,618.0,0.536,0.323,0.738,-0.254
94365,-2522.0,-1318.0,60.0,0.525,0.317,0.743,-0.268
94382,-2296.0,2076.0,-1380.0,0.514,0.309,0.751,-0.278
94399,-3596.0,1536.0,-1230.0,0.503,0.3,0.758,-0.286
94416,-4038.0,2002.0,-2604.0,0.494,0.29,0.766,-0.291
94432,-5042.0,1334.0,-2036.0,0.486,0.281,0.774,-0.293
94449,-6240.0,3252.0,-1856.0,0.48,0.274,0.78,-0.292
94476,-5816.0,-74.0,-1550.0,0.476,0.268,0.787,-0.287
94492,-4012.0,-2972.0,-3392.0,0.47,0.263,0.794,-0.282
94508,-6242.0,-732.0,-2636.0,0.461,0.258,0.802,-0.279
94525,-7916.0,-1790.0,-1802.0,0.454,0.254,0.808,-0.275
94542,-6610.0,-2806.0,-3660.0,0.446,0.253,0.815,-0.271
94559,-7782.0,-1248.0,-3878.0,0.438,0.251,0.821,-0.267
94575,-8428.0,-1614.0,-2602.0,0.431,0.25,0.826,-0.263
94592,-7696.0,-3766.0,-4216.0,0.424,0.25,0.831,-0.258
94609,-8756.0,-2552.0,-4542.0,0.417,0.251,0.836,-0.254
94626,-8576.0,-2822.0,-3354.0,0.411,0.251,0.84,-0.249
94643,-9844.0,-2986.0,-4312.0,0.407,0.252,0.843,-0.245
94670,-8984.0,-3208.0,-4526.0,0.404,0.254,0.845,-0.241
94686,-8066.0,-3466.0,-4022.0,0.401,0.256,0.847,-0.238
94702,-9406.0,-2280.0,-4504.0,0.401,0.258,0.847,-0.236
94719,-8204.0,-2778.0,-4666.0,0.402,0.259,0.847,-0.234
94736,-8136.0,-2660.0,-3850.0,0.403,0.259,0.846,-0.235
94753,-8252.0,-2560.0,-4548.0,0.407,0.258,0.844,-0.236
94770,-7584.0,-2112.0,-4450.0,0.411,0.257,0.841,-0.239
94787,-7392.0,-2126.0,-4104.0,0.416,0.256,0.838,-0.241
94804,-7788.0,-2358.0,-4382.0,0.423,0.256,0.834,-0.244
94821,-7542.0,-2436.0,-3940.0,0.43,0.256,0.83,-0.247
94838,-7838.0,-2624.0,-4206.0,0.438,0.257,0.825,-0.249
94865,-8152.0,-2592.0,-4632.0,0.445,0.258,0.82,-0.251
94881,-8074.0,-2678.0,-4884.0,0.45,0.258,0.817,-0.253
94897,-11432.0,-2764.0,-4124.0,0.456,0.259,0.813,-0.254
94913,-12216.0,-1850.0,-4758.0,0.462,0.259,0.808,-0.257
94929,-11966.0,-4166.0,-6302.0,0.466,0.259,0.805,-0.259
94945,-14044.0,-3200.0,-6006.0,0.467,0.258,0.804,-0.263
94962,-15538.0,-3554.0,-5550.0,0.468,0.256,0.803,-0.265
94979,-14612.0,-4374.0,-5904.0,0.469,0.254,0.802,-0.268
94997,-13890.0,-3350.0,-5744.0,0.469,0.25,0.803,-0.271
95024,-12336.0,-3878.0,-5612.0,0.467,0.245,0.805,-0.272
95041,-11802.0,-3876.0,-4894.0,0.463,0.241,0.808,-0.274
95057,-11392.0,-3798.0,-4004.0,0.461,0.237,0.809,-0.277
95073,-10382.0,-2868.0,-4048.0,0.459,0.234,0.81,-0.279
95089,-9766.0,-2894.0,-3896.0,0.457,0.232,0.811,-0.282
95105,-9366.0,-1408.0,-3636.0,0.457,0.229,0.811,-0.284
95121,-8610.0,-2584.0,-3240.0,0.456,0.227,0.811,-0.286
95147,-9536.0,-1940.0,-2616.0,0.459,0.226,0.809,-0.289
95164,-7694.0,-2484.0,-2842.0,0.462,0.226,0.807,-0.291
95181,-6918.0,-2428.0,-3370.0,0.465,0.227,0.804,-0.293
95198,-7484.0,-1910.0,-3216.0,0.468,0.227,0.801,-0.296
95215,-7724.0,-1556.0,-2298.0,0.47,0.228,0.799,-0.297
95232,-7300.0,-2974.0,-1786.0,0.475,0.23,0.795,-0.3
95249,-6622.0,-1404.0,-2668.0,0.48,0.233,0.791,-0.301
95266,-5678.0,-934.0,-2320.0,0.485,0.235,0.787,-0.301
95283,-5694.0,-2276.0,-1750.0,0.49,0.238,0.783,-0.299
95299,-6252.0,-2384.0,-1806.0,0.495,0.242,0.78,-0.298
95316,-5960.0,-624.0,-1322.0,0.5,0.245,0.776,-0.296
95342,-5448.0,-1320.0,-1190.0,0.505,0.249,0.772,-0.294
95359,-5602.0,-1724.0,-1258.0,0.51,0.254,0.768,-0.292
95376,-6156.0,-2108.0,-1298.0,0.516,0.259,0.763,-0.29
95393,-6558.0,-2138.0,-1332.0,0.521,0.266,0.758,-0.289
95410,-6762.0,-334.0,-842.0,0.526,0.272,0.753,-0.287
95427,-6184.0,-3094.0,-2356.0,0.53,0.278,0.748,-0.285
95444,-8056.0,-1024.0,-730.0,0.535,0.286,0.742,-0.286
95462,-7090.0,-124.0,-772.0,0.542,0.292,0.734,-0.285
95479,-5494.0,-1138.0,-1590.0,0.551,0.3,0.725,-0.282
95496,-4590.0,-1146.0,-1996.0,0.561,0.31,0.715,-0.28
95513,-3514.0,-1150.0,-1294.0,0.568,0.322,0.704,-0.278
95530,-2350.0,-148.0,-1110.0,0.574,0.332,0.696,-0.276
95547,-1776.0,998.0,-938.0,0.577,0.338,0.692,-0.272
95564,-1560.0,1646.0,-1496.0,0.579,0.34,0.692,-0.267
95581,-2056.0,-1390.0,-174.0,0.578,0.336,0.696,-0.263
95608,-1706.0,-4030.0,-2118.0,0.574,0.331,0.702,-0.261
95625,-2546.0,-1828.0,-2262.0,0.568,0.326,0.709,-0.261
95642,-1442.0,-576.0,-560.0,0.56,0.32,0.717,-0.264
95659,-1826.0,30.0,-1164.0,0.551,0.312,0.727,-0.266
95676,-3192.0,-3214.0,-2702.0,0.541,0.303,0.737,-0.269
95692,-3168.0,-552.0,-462.0,0.528,0.296,0.747,-0.275
95708,-4458.0,3352.0,-572.0,0.517,0.29,0.756,-0.278
95725,-5900.0,-2584.0,-3384.0,0.509,0.284,0.764,-0.278
95751,-6848.0,-1586.0,-1202.0,0.499,0.281,0.77,-0.28
95767,-6912.0,704.0,-1320.0,0.491,0.276,0.777,-0.28
95783,-8226.0,-3318.0,-4092.0,0.485,0.274,0.782,-0.279
95799,-8726.0,-1558.0,-3198.0,0.477,0.272,0.787,-0.281
95816,-8094.0,74.0,-2396.0,0.471,0.27,0.792,-0.279
95832,-8866.0,-2108.0,-3716.0,0.466,0.268,0.796,-0.276
95848,-8256.0,-3184.0,-4190.0,0.462,0.268,0.8,-0.274
95874,-8474.0,-3146.0,-3282.0,0.456,0.27,0.803,-0.273
95890,-8546.0,-1832.0,-3424.0,0.452,0.27,0.806,-0.271
95907,-9918.0,-1786.0,-3734.0,0.448,0.271,0.808,-0.269
95924,-9600.0,-2792.0,-4072.0,0.447,0.272,0.809,-0.267
95940,-7664.0,-2748.0,-3622.0,0.446,0.274,0.81,-0.265
95957,-8830.0,-1916.0,-3454.0,0.445,0.275,0.81,-0.264
95974,-8666.0,-2240.0,-3526.0,0.446,0.275,0.811,-0.262
95990,-8004.0,-2610.0,-3358.0,0.446,0.275,0.811,-0.261
96006,-7840.0,-1916.0,-3744.0,0.447,0.275,0.81,-0.262
96033,-7916.0,-2094.0,-3616.0,0.448,0.275,0.809,-0.263
96049,-8682.0,-1468.0,-3596.0,0.45,0.274,0.808,-0.263
96065,-8784.0,-1478.0,-3352.0,0.454,0.273,0.806,-0.265
96082,-8118.0,-1904.0,-3594.0,0.458,0.273,0.803,-0.266
96098,-8726.0,-1898.0,-3768.0,0.463,0.272,0.8,-0.268
96115,-9168.0,-2894.0,-3906.0,0.467,0.271,0.797,-0.27
96132,-9978.0,-2184.0,-4322.0,0.47,0.27,0.795,-0.272
96149,-11174.0,-2244.0,-4512.0,0.473,0.269,0.792,-0.275
96166,-12410.0,-2344.0,-5288.0,0.476,0.269,0.79,-0.277
96192,-14094.0,-5108.0,-6760.0,0.477,0.266,0.791,-0.277
96209,-14762.0,-3336.0,-5598.0,0.477,0.264,0.791,-0.277
96226,-16030.0,-3470.0,-5160.0,0.477,0.263,0.791,-0.278
96243,-15242.0,-3834.0,-5176.0,0.477,0.261,0.791,-0.28
96260,-14278.0,-3894.0,-4578.0,0.478,0.259,0.791,-0.282
96278,-13864.0,-3550.0,-4238.0,0.478,0.256,0.791,-0.284
96296,-12404.0,-3258.0,-4350.0,0.477,0.252,0.792,-0.286
96313,-10628.0,-3480.0,-4064.0,0.476,0.248,0.793,-0.287
96330,-10430.0,-3658.0,-3682.0,0.473,0.243,0.795,-0.29
96347,-10124.0,-3194.0,-3576.0,0.471,0.24,0.797,-0.292
96364,-10742.0,-2216.0,-2188.0,0.471,0.238,0.797,-0.294
96381,-8952.0,-2456.0,-2904.0,0.474,0.238,0.794,-0.295
96398,-8226.0,-2316.0,-2942.0,0.478,0.238,0.792,-0.296
96415,-7592.0,-2444.0,-2646.0,0.481,0.239,0.79,-0.296
96432,-7260.0,-2118.0,-2278.0,0.484,0.24,0.788,-0.295
96458,-7660.0,-2638.0,-1666.0,0.488,0.242,0.785,-0.296
96475,-7786.0,-1996.0,-1248.0,0.494,0.245,0.78,-0.297
96492,-6520.0,-1710.0,-1356.0,0.499,0.249,0.775,-0.297
96508,-6084.0,-710.0,-1002.0,0.506,0.252,0.77,-0.296
96524,-5486.0,-2042.0,-1214.0,0.513,0.256,0.765,-0.294
96540,-5136.0,-1894.0,-1082.0,0.519,0.261,0.759,-0.293
96557,-5052.0,-1484.0,-1264.0,0.525,0.265,0.754,-0.292
96574,-4376.0,-724.0,-1600.0,0.53,0.269,0.75,-0.29
96591,-4432.0,-2436.0,-1392.0,0.534,0.274,0.746,-0.289
96617,-5256.0,-2418.0,-1084.0,0.537,0.28,0.741,-0.29
96633,-5642.0,2072.0,-610.0,0.542,0.284,0.737,-0.289
96649,-4880.0,-8.0,-1050.0,0.549,0.288,0.731,-0.286
96666,-4898.0,-2298.0,-1346.0,0.555,0.293,0.724,-0.285
96682,-5014.0,-1238.0,-1548.0,0.561,0.3,0.718,-0.284
96698,-4980.0,292.0,-1210.0,0.566,0.305,0.712,-0.282
96724,-4034.0,-396.0,-862.0,0.572,0.31,0.706,-0.28
96741,-3444.0,-1160.0,-836.0,0.577,0.312,0.702,-0.278
96758,-2496.0,-932.0,-1466.0,0.58,0.315,0.698,-0.276
96774,-1750.0,-1074.0,-782.0,0.582,0.317,0.697,-0.275
96790,-1444.0,-1864.0,-1198.0,0.581,0.319,0.696,-0.276
96806,-2270.0,-600.0,-1546.0,0.577,0.319,0.699,-0.277
96822,-1932.0,-1204.0,-912.0,0.571,0.316,0.705,-0.278
96839,-1876.0,-758.0,-822.0,0.563,0.312,0.713,-0.279
96865,-2046.0,-1756.0,-3024.0,0.553,0.309,0.721,-0.281
96882,-4290.0,-2188.0,-1588.0,0.54,0.308,0.73,-0.284
96898,-5460.0,4350.0,64.0,0.529,0.304,0.739,-0.285
96915,-4628.0,1468.0,-730.0,0.524,0.297,0.746,-0.283
96931,-5434.0,-5282.0,-3158.0,0.519,0.293,0.752,-0.282
96948,-5908.0,-812.0,-2306.0,0.512,0.289,0.757,-0.285
96965,-6560.0,-482.0,-2148.0,0.505,0.283,0.764,-0.285
96981,-7434.0,-1748.0,-3384.0,0.5,0.278,0.769,-0.286
96998,-7178.0,-238.0,-2550.0,0.495,0.274,0.773,-0.286
97015,-7390.0,-872.0,-2830.0,0.492,0.27,0.777,-0.286
97041,-7622.0,-2982.0,-4412.0,0.488,0.265,0.781,-0.285
97058,-7944.0,-1854.0,-3090.0,0.483,0.262,0.786,-0.284
97074,-8002.0,-926.0,-3022.0,0.479,0.26,0.789,-0.281
97091,-9600.0,-2088.0,-3300.0,0.477,0.26,0.792,-0.28
97108,-8322.0,-2426.0,-3788.0,0.474,0.26,0.794,-0.278
97125,-8036.0,-2202.0,-3506.0,0.47,0.26,0.797,-0.275
97142,-9760.0,-1938.0,-3308.0,0.467,0.26,0.8,-0.272
97159,-11212.0,-2326.0,-1556.0,0.465,0.26,0.802,-0.269
97176,-9324.0,-2718.0,-3042.0,0.466,0.262,0.802,-0.266
97194,-9096.0,-3562.0,-4010.0,0.466,0.264,0.802,-0.265
97211,-10400.0,-2240.0,-3382.0,0.465,0.265,0.802,-0.265
97228,-10244.0,-2240.0,-3086.0,0.464,0.264,0.803,-0.264
97245,-11266.0,-2076.0,-2886.0,0.464,0.264,0.803,-0.263
97272,-10694.0,-2906.0,-2702.0,0.467,0.264,0.802,-0.263
97289,-10076.0,-3214.0,-3552.0,0.47,0.265,0.8,-0.264
97306,-10030.0,-2344.0,-4100.0,0.471,0.265,0.799,-0.264
97323,-10734.0,-2704.0,-3322.0,0.472,0.264,0.799,-0.264
97339,-11898.0,-2414.0,-3234.0,0.473,0.263,0.799,-0.264
97355,-11322.0,-3446.0,-4162.0,0.476,0.262,0.797,-0.265
97371,-11288.0,-3816.0,-4808.0,0.477,0.262,0.796,-0.266
97388,-12128.0,-2610.0,-5338.0,0.475,0.261,0.797,-0.267
97405,-13088.0,-2818.0,-4442.0,0.474,0.258,0.798,-0.268
97431,-12768.0,-3854.0,-4952.0,0.474,0.256,0.798,-0.269
97448,-12814.0,-3734.0,-5420.0,0.474,0.254,0.798,-0.272
97465,-12370.0,-3216.0,-4934.0,0.474,0.251,0.798,-0.273
97481,-11584.0,-3566.0,-5100.0,0.473,0.249,0.799,-0.275
97498,-11902.0,-3256.0,-4490.0,0.472,0.247,0.8,-0.276
97515,-11238.0,-3030.0,-4066.0,0.472,0.246,0.8,-0.277
97531,-10362.0,-2774.0,-4312.0,0.473,0.246,0.799,-0.278
97548,-10410.0,-2774.0,-4006.0,0.474,0.246,0.798,-0.279
97565,-9724.0,-2888.0,-3554.0,0.476,0.246,0.797,-0.28
97582,-9390.0,-2768.0,-3414.0,0.478,0.246,0.795,-0.28
97608,-9778.0,-1880.0,-2602.0,0.481,0.246,0.793,-0.281
97625,-8972.0,-1950.0,-2070.0,0.486,0.246,0.79,-0.281
97643,-7804.0,-1950.0,-2572.0,0.492,0.247,0.786,-0.281
97660,-7662.0,-640.0,-1928.0,0.498,0.248,0.782,-0.281
97677,-6606.0,-2044.0,-1648.0,0.505,0.249,0.778,-0.279
97695,-6064.0,-546.0,-1744.0,0.51,0.249,0.776,-0.276
97712,-5748.0,-1200.0,-842.0,0.516,0.25,0.773,-0.273
97729,-5362.0,-1140.0,-520.0,0.521,0.252,0.77,-0.27
97746,-4984.0,-438.0,-554.0,0.526,0.254,0.766,-0.268
97763,-5024.0,-1442.0,-1250.0,0.531,0.256,0.762,-0.266
97780,-4214.0,-2734.0,-1690.0,0.535,0.259,0.759,-0.265
97797,-5254.0,-302.0,-124.0,0.537,0.264,0.756,-0.266
97814,-5016.0,-304.0,-308.0,0.541,0.268,0.752,-0.265
97831,-5148.0,-2262.0,-1026.0,0.544,0.271,0.748,-0.265
97848,-5522.0,-710.0,-656.0,0.547,0.275,0.744,-0.266
97865,-4770.0,402.0,-160.0,0.552,0.277,0.74,-0.266
97891,-4734.0,-1452.0,-1350.0,0.557,0.279,0.736,-0.266
97908,-4174.0,-1778.0,-1738.0,0.561,0.282,0.731,-0.266
97925,-3420.0,-1002.0,-1226.0,0.564,0.285,0.728,-0.267
97942,-3436.0,-38.0,-1564.0,0.566,0.287,0.725,-0.268
97959,-3194.0,-840.0,-1320.0,0.567,0.288,0.724,-0.268
97976,-2852.0,-1532.0,-976.0,0.566,0.288,0.724,-0.268
97993,-2560.0,-926.0,-1282.0,0.565,0.287,0.725,-0.269
98010,-1414.0,-2134.0,-2394.0,0.562,0.285,0.728,-0.269
98027,-1754.0,-1044.0,-1710.0,0.555,0.283,0.734,-0.271
98044,-2198.0,274.0,-1132.0,0.547,0.281,0.74,-0.272
98061,-2364.0,-980.0,-1962.0,0.539,0.279,0.747,-0.271
98078,-3450.0,-1996.0,-2220.0,0.529,0.277,0.755,-0.271
98095,-4488.0,512.0,-1050.0,0.518,0.275,0.763,-0.271
98122,-4348.0,-214.0,-1576.0,0.51,0.274,0.769,-0.27
98139,-6486.0,-748.0,-1912.0,0.504,0.271,0.775,-0.268
98155,-6598.0,-2136.0,-2192.0,0.498,0.269,0.78,-0.266
98171,-4760.0,-400.0,-1746.0,0.493,0.266,0.785,-0.264
98187,-6650.0,-1330.0,-2968.0,0.488,0.264,0.79,-0.262
98203,-8180.0,-2764.0,-4010.0,0.482,0.263,0.794,-0.26
98219,-6738.0,-340.0,-2212.0,0.476,0.261,0.799,-0.258
98245,-7004.0,-2194.0,-3890.0,0.471,0.26,0.804,-0.255
98261,-9778.0,-2552.0,-4300.0,0.466,0.259,0.807,-0.253
98277,-8626.0,-2924.0,-3012.0,0.46,0.259,0.811,-0.251
98294,-8032.0,-810.0,-4184.0,0.456,0.259,0.814,-0.249
98311,-10188.0,-2736.0,-3782.0,0.453,0.26,0.816,-0.248
98327,-9818.0,-2560.0,-3450.0,0.452,0.261,0.817,-0.246
98343,-8350.0,-2730.0,-4054.0,0.452,0.261,0.817,-0.245
98360,-8582.0,-1642.0,-4286.0,0.451,0.262,0.817,-0.245
98387,-9766.0,-2780.0,-3232.0,0.452,0.262,0.817,-0.244
98403,-9106.0,-2298.0,-3238.0,0.453,0.262,0.816,-0.245
98419,-9058.0,-2400.0,-3878.0,0.456,0.261,0.815,-0.246
98435,-10208.0,-2096.0,-3602.0,0.458,0.26,0.813,-0.248
98451,-10306.0,-2584.0,-3730.0,0.462,0.259,0.811,-0.25
98467,-10184.0,-2400.0,-4040.0,0.466,0.258,0.808,-0.253
98484,-10914.0,-2948.0,-4272.0,0.469,0.257,0.805,-0.256
98511,-12200.0,-2346.0,-4834.0,0.472,0.256,0.803,-0.259
98528,-12248.0,-3000.0,-5060.0,0.474,0.255,0.801,-0.261
98544,-13264.0,-3262.0,-5182.0,0.476,0.254,0.8,-0.263
98561,-14162.0,-3464.0,-5872.0,0.476,0.254,0.799,-0.264
98577,-14182.0,-3542.0,-5304.0,0.475,0.253,0.8,-0.265
98593,-14410.0,-3680.0,-4930.0,0.473,0.252,0.801,-0.266
98610,-13582.0,-3840.0,-5490.0,0.47,0.251,0.803,-0.267
98626,-13154.0,-3582.0,-4896.0,0.466,0.249,0.805,-0.268
98653,-12524.0,-3168.0,-4126.0,0.463,0.247,0.807,-0.269
98669,-11972.0,-3220.0,-4070.0,0.462,0.245,0.809,-0.27
98685,-11218.0,-3086.0,-3732.0,0.461,0.243,0.809,-0.272
98701,-10504.0,-2676.0,-3226.0,0.461,0.242,0.808,-0.274
98717,-9346.0,-2382.0,-3172.0,0.462,0.242,0.807,-0.276
98734,-8674.0,-2524.0,-3156.0,0.464,0.242,0.806,-0.278
98751,-8242.0,-1934.0,-3286.0,0.466,0.241,0.804,-0.279
98768,-7436.0,-1980.0,-2900.0,0.467,0.242,0.803,-0.28
98794,-7790.0,-1548.0,-2162.0,0.47,0.243,0.801,-0.281
98811,-8732.0,-2458.0,-1920.0,0.474,0.244,0.798,-0.282
98827,-6848.0,-1718.0,-2210.0,0.479,0.247,0.793,-0.283
98844,-6044.0,-1692.0,-2446.0,0.485,0.249,0.788,-0.285
98861,-6590.0,-1912.0,-2434.0,0.491,0.252,0.783,-0.286
98878,-6096.0,-1558.0,-1736.0,0.498,0.255,0.777,-0.288
98895,-5470.0,-1808.0,-2124.0,0.505,0.258,0.771,-0.29
98911,-5960.0,-1530.0,-2018.0,0.513,0.261,0.764,-0.292
98927,-4616.0,-576.0,-1836.0,0.521,0.264,0.757,-0.293
98944,-5266.0,-1972.0,-1574.0,0.53,0.269,0.748,-0.294
98971,-5500.0,-14.0,-956.0,0.541,0.273,0.739,-0.294
98987,-4230.0,-758.0,-810.0,0.553,0.277,0.729,-0.293
99003,-4078.0,-2560.0,-2224.0,0.565,0.28,0.719,-0.292
99020,-4136.0,-1036.0,-1238.0,0.573,0.284,0.71,-0.293
99037,-3780.0,-128.0,-396.0,0.582,0.287,0.702,-0.292
99053,-3758.0,-882.0,-974.0,0.591,0.29,0.694,-0.291
99070,-3370.0,-1086.0,-1234.0,0.598,0.292,0.688,-0.289
99086,-3292.0,-1620.0,-936.0,0.603,0.294,0.683,-0.288
99112,-3270.0,-1224.0,-1118.0,0.606,0.294,0.68,-0.289
99128,-2870.0,-1510.0,-820.0,0.607,0.294,0.679,-0.29
99145,-2944.0,-1194.0,-938.0,0.606,0.294,0.679,-0.292
99162,-3320.0,-1044.0,-816.0,0.603,0.293,0.681,-0.294
99178,-3060.0,-594.0,-396.0,0.6,0.29,0.684,-0.296
99195,-3198.0,-940.0,-690.0,0.594,0.287,0.69,-0.298
99211,-2984.0,-868.0,-1298.0,0.587,0.284,0.696,-0.3
99237,-3574.0,-2066.0,-1624.0,0.578,0.283,0.703,-0.302
99253,-4928.0,626.0,104.0,0.568,0.282,0.71,-0.305
99269,-4556.0,896.0,-802.0,0.56,0.28,0.717,-0.305
99285,-5110.0,-872.0,-1576.0,0.553,0.278,0.724,-0.304
99301,-6346.0,-1626.0,-468.0,0.545,0.276,0.731,-0.304
99317,-5890.0,-112.0,-570.0,0.538,0.274,0.737,-0.303
99334,-6410.0,-2354.0,-2460.0,0.531,0.272,0.743,-0.302
99360,-7546.0,-514.0,-1144.0,0.524,0.271,0.749,-0.301
99377,-6814.0,-1236.0,-532.0,0.518,0.27,0.754,-0.3
99393,-7894.0,-1012.0,-2390.0,0.512,0.27,0.759,-0.298
99410,-7774.0,-2198.0,-1982.0,0.507,0.27,0.763,-0.296
99426,-7792.0,-1350.0,-1564.0,0.501,0.269,0.767,-0.295
99443,-7354.0,-1492.0,-2732.0,0.495,0.269,0.772,-0.293
99460,-9988.0,-1890.0,-1550.0,0.491,0.269,0.776,-0.291
99477,-9450.0,-2082.0,-1516.0,0.487,0.269,0.779,-0.29
99494,-8098.0,-2724.0,-2770.0,0.484,0.269,0.781,-0.288
99520,-9062.0,-1754.0,-2314.0,0.482,0.27,0.783,-0.287
99536,-9772.0,-2838.0,-2140.0,0.48,0.27,0.784,-0.286
99552,-9834.0,-1840.0,-2886.0,0.478,0.27,0.786,-0.285
99568,-9782.0,-2612.0,-2480.0,0.479,0.27,0.786,-0.284
99585,-11032.0,-2922.0,-2372.0,0.479,0.269,0.786,-0.283
99602,-10880.0,-2818.0,-3134.0,0.481,0.269,0.785,-0.284
99618,-11036.0,-2482.0,-2990.0,0.483,0.269,0.783,-0.285
99635,-11896.0,-3216.0,-3042.0,0.486,0.268,0.781,-0.286
99661,-12114.0,-3228.0,-3370.0,0.488,0.268,0.779,-0.288
99677,-12210.0,-3920.0,-3552.0,0.491,0.267,0.777,-0.29
99694,-13752.0,-3638.0,-4082.0,0.494,0.266,0.774,-0.292
99710,-13454.0,-3860.0,-4440.0,0.496,0.265,0.773,-0.294
99727,-13858.0,-4042.0,-4088.0,0.497,0.264,0.772,-0.296
99744,-14342.0,-4474.0,-4294.0,0.497,0.263,0.772,-0.297
99761,-13610.0,-3894.0,-4350.0,0.496,0.262,0.772,-0.298
99778,-12588.0,-3676.0,-3908.0,0.494,0.261,0.774,-0.298
99795,-12706.0,-3916.0,-3652.0,0.491,0.26,0.776,-0.298
99812,-11982.0,-3958.0,-3160.0,0.488,0.259,0.778,-0.298
99839,-11212.0,-3438.0,-3112.0,0.485,0.259,0.781,-0.297
99856,-11130.0,-3220.0,-3058.0,0.482,0.259,0.783,-0.297
99873,-10642.0,-2830.0,-2908.0,0.479,0.26,0.784,-0.296
99890,-10320.0,-3060.0,-2472.0,0.477,0.26,0.786,-0.295
99906,-10368.0,-2928.0,-2356.0,0.477,0.261,0.786,-0.295
99923,-8966.0,-2478.0,-2390.0,0.477,0.261,0.785,-0.296
99940,-8332.0,-2470.0,-2192.0,0.479,0.261,0.784,-0.297
99957,-8152.0,-2522.0,-2290.0,0.481,0.261,0.782,-0.298
99974,-7600.0,-1736.0,-1820.0,0.483,0.262,0.78,-0.299
99991,-7128.0,-1986.0,-1692.0,0.486,0.263,0.778,-0.299
100007,-7304.0,-1796.0,-1564.0,0.491,0.265,0.774,-0.3
100024,-6182.0,-1888.0,-1700.0,0.495,0.267,0.771,-0.299
100051,-6054.0,-896.0,-1298.0,0.499,0.27,0.767,-0.299
100067,-6086.0,-1434.0,-836.0,0.504,0.273,0.763,-0.297
100083,-5670.0,-1554.0,-1214.0,0.51,0.277,0.759,-0.296
100099,-5040.0,-1420.0,-1182.0,0.516,0.282,0.754,-0.295
100115,-5064.0,-1594.0,-968.0,0.521,0.286,0.749,-0.294
100132,-5464.0,-608.0,-1016.0,0.526,0.29,0.744,-0.293
100148,-5066.0,-1386.0,-952.0,0.533,0.295,0.737,-0.292
100174,-5232.0,-1784.0,-1834.0,0.539,0.301,0.731,-0.292
100191,-5386.0,-430.0,-1608.0,0.544,0.306,0.724,-0.292
100208,-5796.0,554.0,-744.0,0.552,0.311,0.717,-0.29
100224,-5330.0,-376.0,-900.0,0.561,0.316,0.709,-0.288
100241,-4838.0,170.0,-1214.0,0.571,0.32,0.701,-0.284
100257,-3640.0,-482.0,-1144.0,0.581,0.322,0.693,-0.281
100273,-3186.0,-454.0,-974.0,0.589,0.323,0.687,-0.278
100299,-2596.0,-1132.0,-1460.0,0.595,0.322,0.683,-0.275
100315,-1918.0,-1762.0,-1800.0,0.599,0.321,0.681,-0.273
100331,-1770.0,-2008.0,-1546.0,0.598,0.32,0.682,-0.274
100347,-1352.0,-712.0,-1870.0,0.594,0.318,0.685,-0.275
100364,-1204.0,-804.0,-1202.0,0.588,0.316,0.691,-0.277
100380,-1826.0,18.0,-1056.0,0.579,0.315,0.699,-0.278
100396,-2744.0,104.0,-2166.0,0.569,0.312,0.708,-0.278
100422,-2866.0,-1636.0,-1328.0,0.557,0.309,0.719,-0.278
100439,-2990.0,20.0,-872.0,0.544,0.306,0.73,-0.28
100456,-4420.0,1526.0,-2396.0,0.532,0.303,0.74,-0.279
100472,-6004.0,-3528.0,-1898.0,0.519,0.302,0.75,-0.278
100489,-5192.0,790.0,-1062.0,0.505,0.299,0.76,-0.28
100506,-6620.0,1498.0,-2578.0,0.495,0.296,0.769,-0.276
100523,-8124.0,-3564.0,-2624.0,0.486,0.294,0.776,-0.273
100540,-7966.0,476.0,-2844.0,0.477,0.293,0.783,-0.27
100556,-8044.0,-928.0,-3622.0,0.47,0.292,0.789,-0.266
100573,-8628.0,-2096.0,-3082.0,0.465,0.291,0.794,-0.262
100600,-9128.0,-2166.0,-2920.0,0.459,0.29,0.799,-0.258
100616,-8142.0,-1892.0,-4228.0,0.455,0.289,0.803,-0.256
100632,-8156.0,-3050.0,-3482.0,0.451,0.287,0.806,-0.254
100648,-10496.0,-1998.0,-2876.0,0.45,0.285,0.808,-0.253
100664,-9088.0,-1870.0,-3742.0,0.451,0.283,0.808,-0.253
100680,-8400.0,-1708.0,-3390.0,0.453,0.283,0.807,-0.253
100697,-9272.0,-2090.0,-3610.0,0.456,0.282,0.805,-0.253
100723,-8690.0,-2992.0,-4014.0,0.458,0.281,0.804,-0.254
100740,-8602.0,-1680.0,-2856.0,0.461,0.28,0.803,-0.254
100757,-9550.0,-2502.0,-2996.0,0.465,0.279,0.8,-0.256
100773,-9976.0,-1980.0,-3384.0,0.471,0.278,0.797,-0.257
100790,-9432.0,-2790.0,-2582.0,0.476,0.278,0.793,-0.259
100807,-9956.0,-2822.0,-3152.0,0.482,0.277,0.789,-0.261
100824,-10810.0,-2510.0,-3170.0,0.487,0.277,0.785,-0.264
100841,-10832.0,-2558.0,-2776.0,0.494,0.277,0.781,-0.266
100859,-11916.0,-2734.0,-3630.0,0.499,0.276,0.776,-0.267
100876,-12026.0,-3346.0,-3986.0,0.504,0.276,0.773,-0.269
100893,-13120.0,-3228.0,-3204.0,0.507,0.276,0.77,-0.271
100910,-14336.0,-3136.0,-3616.0,0.51,0.275,0.768,-0.273
100927,-13724.0,-3144.0,-4466.0,0.511,0.274,0.768,-0.274
100954,-14168.0,-3340.0,-3576.0,0.51,0.272,0.769,-0.274
100970,-14410.0,-3286.0,-3800.0,0.508,0.271,0.77,-0.274
100986,-13774.0,-3550.0,-3870.0,0.505,0.269,0.773,-0.275
101002,-13006.0,-2426.0,-3384.0,0.501,0.267,0.776,-0.274
101018,-12202.0,-3100.0,-3816.0,0.497,0.266,0.779,-0.273
101035,-12008.0,-2416.0,-3706.0,0.493,0.266,0.783,-0.272
101051,-11904.0,-2460.0,-2502.0,0.489,0.265,0.785,-0.271
101077,-11230.0,-2268.0,-2710.0,0.486,0.265,0.787,-0.271
101094,-10230.0,-2176.0,-2772.0,0.485,0.265,0.788,-0.27
101111,-9492.0,-2210.0,-2096.0,0.484,0.265,0.789,-0.271
101128,-8438.0,-2016.0,-2650.0,0.484,0.265,0.789,-0.272
101145,-8218.0,-1062.0,-2272.0,0.484,0.265,0.788,-0.272
101162,-7400.0,-2138.0,-2128.0,0.486,0.265,0.787,-0.272
101179,-7322.0,-1476.0,-2278.0,0.487,0.266,0.786,-0.272
101196,-7664.0,-1600.0,-1334.0,0.489,0.267,0.784,-0.273
101212,-7216.0,-1250.0,-1520.0,0.493,0.269,0.781,-0.273
101229,-7052.0,-1136.0,-1626.0,0.497,0.271,0.778,-0.274
101246,-5952.0,-818.0,-1992.0,0.502,0.275,0.773,-0.273
101272,-5796.0,-1624.0,-1628.0,0.507,0.279,0.769,-0.272
101288,-6088.0,-778.0,-1292.0,0.512,0.282,0.764,-0.272
101305,-5288.0,-902.0,-1338.0,0.519,0.287,0.758,-0.271
101322,-5380.0,-1646.0,-1862.0,0.526,0.291,0.752,-0.271
101339,-5380.0,-1480.0,-1866.0,0.531,0.295,0.746,-0.272
101356,-5242.0,-276.0,-1588.0,0.538,0.298,0.74,-0.274
101372,-5670.0,-530.0,-802.0,0.546,0.302,0.732,-0.275
101388,-5424.0,182.0,-1338.0,0.556,0.306,0.722,-0.275
101414,-4536.0,-668.0,-1332.0,0.567,0.309,0.712,-0.275
101430,-3526.0,-198.0,-1094.0,0.579,0.312,0.702,-0.274
101446,-2970.0,-868.0,-798.0,0.589,0.313,0.693,-0.272
101462,-2050.0,-492.0,-1084.0,0.599,0.313,0.685,-0.271
101479,-914.0,-1918.0,-1430.0,0.606,0.313,0.68,-0.269
101495,-718.0,-1736.0,-1514.0,0.608,0.312,0.679,-0.269
101512,-472.0,-1674.0,-1264.0,0.606,0.312,0.68,-0.27
101529,-358.0,-1106.0,-1156.0,0.601,0.311,0.685,-0.271
101556,-812.0,-706.0,-796.0,0.593,0.31,0.692,-0.272
101573,-1184.0,-452.0,-640.0,0.582,0.309,0.701,-0.273
101590,-1844.0,-558.0,-1600.0,0.571,0.308,0.711,-0.273
101607,-3466.0,-1628.0,-1336.0,0.557,0.308,0.721,-0.274
101624,-4140.0,1246.0,198.0,0.545,0.305,0.731,-0.275
101640,-4488.0,798.0,-756.0,0.534,0.303,0.74,-0.274
101656,-6238.0,-978.0,-1064.0,0.526,0.301,0.747,-0.273
101673,-5004.0,-1640.0,-2526.0,0.517,0.298,0.754,-0.273
101690,-6516.0,230.0,-1866.0,0.507,0.296,0.762,-0.274
101706,-7378.0,-744.0,-2546.0,0.5,0.293,0.768,-0.272
101733,-7860.0,-2112.0,-2276.0,0.492,0.291,0.774,-0.272
101750,-8326.0,10.0,-3196.0,0.485,0.289,0.78,-0.27
101766,-8590.0,-2304.0,-3622.0,0.479,0.287,0.785,-0.267
101783,-9844.0,-2118.0,-2464.0,0.475,0.286,0.789,-0.266
101799,-9710.0,-3442.0,-3356.0,0.471,0.284,0.792,-0.265
101815,-9334.0,-1830.0,-3792.0,0.469,0.283,0.794,-0.265
101832,-10144.0,-2492.0,-3256.0,0.467,0.281,0.795,-0.265
101848,-10478.0,-1800.0,-3538.0,0.467,0.28,0.796,-0.265
101874,-9970.0,-2386.0,-2982.0,0.469,0.28,0.795,-0.266
101891,-9994.0,-3186.0,-3584.0,0.471,0.28,0.793,-0.267
101908,-10090.0,-2420.0,-3804.0,0.472,0.279,0.792,-0.268
101925,-10784.0,-2100.0,-2806.0,0.475,0.278,0.79,-0.27
101942,-11736.0,-2548.0,-3028.0,0.479,0.277,0.787,-0.272
101959,-10914.0,-3084.0,-3778.0,0.483,0.277,0.784,-0.274
101976,-11204.0,-3380.0,-3640.0,0.486,0.277,0.781,-0.276
101993,-12648.0,-2510.0,-3466.0,0.489,0.276,0.779,-0.279
102010,-13284.0,-3450.0,-3218.0,0.492,0.275,0.777,-0.281
102027,-13548.0,-3928.0,-3692.0,0.495,0.273,0.775,-0.284
102044,-14050.0,-3684.0,-4090.0,0.497,0.27,0.773,-0.287
102061,-13734.0,-3530.0,-4284.0,0.498,0.268,0.772,-0.29
102078,-13850.0,-3908.0,-4366.0,0.497,0.265,0.773,-0.292
102095,-14394.0,-3844.0,-4264.0,0.495,0.263,0.774,-0.293
102122,-13358.0,-3768.0,-3914.0,0.493,0.261,0.776,-0.294
102139,-12170.0,-3670.0,-3858.0,0.49,0.26,0.779,-0.294
102156,-12098.0,-3876.0,-3960.0,0.486,0.259,0.781,-0.293
102173,-11846.0,-3650.0,-2794.0,0.483,0.258,0.784,-0.293
102190,-11144.0,-3144.0,-2684.0,0.48,0.258,0.786,-0.293
102207,-10690.0,-3030.0,-2834.0,0.479,0.258,0.786,-0.293
102224,-10526.0,-3076.0,-1992.0,0.478,0.259,0.786,-0.293
102241,-9236.0,-2274.0,-2426.0,0.479,0.26,0.785,-0.294
102258,-8686.0,-2274.0,-2304.0,0.481,0.261,0.784,-0.294
102275,-8214.0,-2352.0,-1612.0,0.484,0.262,0.781,-0.295
102292,-7344.0,-2096.0,-1728.0,0.488,0.263,0.778,-0.295
102309,-6958.0,-1680.0,-1572.0,0.492,0.265,0.774,-0.296
102326,-6446.0,-2108.0,-1244.0,0.497,0.267,0.771,-0.296
102343,-6068.0,-1274.0,-1328.0,0.503,0.269,0.766,-0.297
102370,-5374.0,-1862.0,-1108.0,0.509,0.272,0.761,-0.297
102387,-5144.0,-870.0,-662.0,0.515,0.275,0.756,-0.296
102404,-5546.0,-2234.0,-1070.0,0.521,0.279,0.751,-0.295
102421,-5510.0,-424.0,-282.0,0.528,0.283,0.745,-0.295
102438,-4742.0,-154.0,-34.0,0.535,0.287,0.738,-0.294
102454,-5088.0,-2326.0,-1478.0,0.543,0.292,0.732,-0.291
102470,-4958.0,-2274.0,-1174.0,0.548,0.297,0.725,-0.291
102486,-5372.0,-1240.0,-806.0,0.553,0.303,0.719,-0.292
102502,-6110.0,-176.0,-1130.0,0.558,0.309,0.713,-0.292
102528,-6106.0,334.0,-158.0,0.565,0.315,0.705,-0.292
102545,-5682.0,10.0,-1014.0,0.573,0.32,0.697,-0.29
102562,-5420.0,794.0,-828.0,0.584,0.324,0.688,-0.286
102578,-4428.0,-788.0,-504.0,0.594,0.327,0.679,-0.281
102595,-4106.0,-458.0,-976.0,0.603,0.329,0.672,-0.277
102612,-2834.0,-1130.0,-1454.0,0.611,0.33,0.666,-0.273
102629,-1688.0,-1998.0,-1286.0,0.615,0.331,0.662,-0.272
102645,-1420.0,-1640.0,-1710.0,0.615,0.33,0.662,-0.273
102662,-1074.0,-1614.0,-1680.0,0.611,0.329,0.666,-0.275
102688,-996.0,-1336.0,-1036.0,0.604,0.327,0.672,-0.277
102705,-1618.0,-638.0,-754.0,0.593,0.325,0.681,-0.281
102722,-2208.0,392.0,-518.0,0.582,0.321,0.692,-0.282
102739,-2106.0,290.0,-1158.0,0.569,0.318,0.704,-0.283
102756,-2936.0,-1188.0,-1864.0,0.555,0.316,0.716,-0.283
102773,-4244.0,-934.0,-1580.0,0.539,0.315,0.728,-0.283
102791,-6028.0,-930.0,-700.0,0.522,0.313,0.74,-0.284
102808,-8272.0,1638.0,-160.0,0.511,0.311,0.749,-0.283
102825,-6756.0,-482.0,-1328.0,0.504,0.309,0.756,-0.28
102842,-7514.0,-2178.0,-2408.0,0.497,0.306,0.763,-0.278
102859,-7784.0,-1598.0,-3258.0,0.489,0.304,0.769,-0.276
102876,-8022.0,-998.0,-2548.0,0.483,0.302,0.775,-0.273
102893,-8448.0,-2644.0,-2334.0,0.479,0.299,0.78,-0.27
102910,-9264.0,-1782.0,-2972.0,0.476,0.297,0.783,-0.268
102927,-8772.0,-2256.0,-3034.0,0.475,0.294,0.786,-0.266
102954,-8416.0,-2810.0,-3096.0,0.474,0.29,0.788,-0.266
102970,-8052.0,-2638.0,-3666.0,0.472,0.288,0.789,-0.265
102987,-8988.0,-1504.0,-2646.0,0.472,0.287,0.79,-0.266
103003,-8970.0,-1468.0,-2964.0,0.472,0.287,0.79,-0.265
103019,-8732.0,-2778.0,-3128.0,0.473,0.287,0.79,-0.265
103035,-8628.0,-2566.0,-2908.0,0.474,0.287,0.79,-0.265
103051,-9486.0,-1776.0,-3074.0,0.475,0.286,0.789,-0.264
103077,-9666.0,-2058.0,-2736.0,0.477,0.287,0.787,-0.264
103094,-10004.0,-1720.0,-2582.0,0.481,0.287,0.785,-0.265
103111,-10544.0,-2244.0,-3200.0,0.485,0.287,0.782,-0.266
103128,-10688.0,-2230.0,-2890.0,0.488,0.286,0.78,-0.268
103145,-10900.0,-1902.0,-2518.0,0.492,0.285,0.777,-0.269
103162,-11938.0,-2300.0,-3236.0,0.497,0.284,0.774,-0.271
103178,-12028.0,-2436.0,-3536.0,0.5,0.283,0.772,-0.273
103195,-12366.0,-3148.0,-3132.0,0.501,0.282,0.771,-0.275
103212,-13918.0,-2318.0,-3330.0,0.502,0.281,0.77,-0.276
103229,-14492.0,-3282.0,-3542.0,0.502,0.279,0.77,-0.277
103255,-14196.0,-3158.0,-3718.0,0.502,0.278,0.771,-0.278
103271,-14484.0,-3364.0,-4150.0,0.499,0.276,0.773,-0.278
103287,-14156.0,-3126.0,-4172.0,0.496,0.275,0.776,-0.278
103304,-13502.0,-3634.0,-3788.0,0.491,0.273,0.78,-0.277
103321,-13494.0,-3156.0,-3892.0,0.486,0.271,0.784,-0.276
103338,-12360.0,-2470.0,-3620.0,0.481,0.27,0.788,-0.274
103355,-11462.0,-3354.0,-3500.0,0.477,0.269,0.791,-0.272
103372,-11514.0,-2958.0,-3250.0,0.472,0.269,0.795,-0.27
103389,-10690.0,-2588.0,-2748.0,0.469,0.268,0.797,-0.269
103406,-9544.0,-2448.0,-2594.0,0.467,0.268,0.799,-0.268
103423,-9258.0,-2632.0,-2382.0,0.466,0.268,0.8,-0.267
103450,-8080.0,-1990.0,-2568.0,0.466,0.269,0.8,-0.266
103466,-8048.0,-2230.0,-2372.0,0.467,0.269,0.8,-0.265
103482,-7450.0,-2006.0,-2068.0,0.468,0.27,0.799,-0.264
103498,-7654.0,-2110.0,-1910.0,0.471,0.271,0.797,-0.264
103514,-7682.0,-1576.0,-1476.0,0.475,0.273,0.794,-0.264
103530,-6396.0,-1538.0,-2214.0,0.48,0.276,0.79,-0.263
103556,-6928.0,-1656.0,-1916.0,0.485,0.279,0.786,-0.264
103573,-5768.0,-920.0,-1690.0,0.491,0.282,0.781,-0.264
103590,-5234.0,-1152.0,-1820.0,0.498,0.285,0.776,-0.263
103607,-5560.0,-1244.0,-1664.0,0.506,0.288,0.77,-0.262
103624,-4900.0,-2018.0,-1784.0,0.513,0.292,0.764,-0.262
103641,-5102.0,-760.0,-1744.0,0.52,0.295,0.757,-0.263
103658,-5226.0,-794.0,-1888.0,0.526,0.301,0.751,-0.263
103675,-5532.0,-1384.0,-1452.0,0.533,0.307,0.743,-0.264
103718,-5258.0,998.0,-1932.0,0.541,0.313,0.735,-0.264
103725,-5566.0,-626.0,-1948.0,0.55,0.318,0.727,-0.262
103734,-5126.0,-332.0,-990.0,0.559,0.323,0.717,-0.261
103751,-4494.0,466.0,-548.0,0.57,0.328,0.707,-0.258
103768,-3414.0,-258.0,-840.0,0.582,0.331,0.697,-0.256
103785,-1760.0,-1046.0,-1178.0,0.592,0.332,0.689,-0.254
103801,-640.0,-1420.0,-1852.0,0.599,0.332,0.684,-0.251
103817,-104.0,-2840.0,-2792.0,0.601,0.33,0.683,-0.251
103833,-170.0,-2044.0,-2002.0,0.598,0.33,0.686,-0.253
103849,-454.0,-1136.0,-1194.0,0.59,0.328,0.692,-0.255
103865,-974.0,-800.0,-1112.0,0.58,0.325,0.701,-0.258
103891,-1654.0,64.0,-1178.0,0.569,0.323,0.711,-0.26
103908,-2338.0,206.0,-886.0,0.557,0.32,0.721,-0.26
103925,-2828.0,-846.0,-1924.0,0.546,0.317,0.731,-0.26
103942,-4206.0,-692.0,-1296.0,0.533,0.313,0.741,-0.261
103959,-4748.0,674.0,-1208.0,0.522,0.309,0.751,-0.263
103975,-5148.0,60.0,-1512.0,0.512,0.304,0.759,-0.262
103992,-6092.0,-252.0,-2158.0,0.504,0.3,0.767,-0.26
104008,-5956.0,-2104.0,-3450.0,0.495,0.297,0.775,-0.258
104035,-7800.0,-1702.0,-2250.0,0.485,0.293,0.782,-0.258
104051,-7062.0,-1386.0,-2460.0,0.477,0.29,0.789,-0.257
104067,-9300.0,-1188.0,-3312.0,0.471,0.287,0.794,-0.256
104083,-9380.0,-1512.0,-2634.0,0.466,0.285,0.798,-0.254
104099,-7238.0,-1902.0,-3240.0,0.463,0.284,0.801,-0.252
104115,-8150.0,-2372.0,-4428.0,0.46,0.283,0.804,-0.25
104131,-10136.0,-1450.0,-3386.0,0.457,0.282,0.806,-0.249
104157,-8090.0,-2830.0,-3348.0,0.454,0.281,0.809,-0.248
104173,-9392.0,-1524.0,-3934.0,0.453,0.28,0.81,-0.247
104190,-10754.0,-2810.0,-3180.0,0.453,0.279,0.81,-0.247
104207,-9550.0,-2400.0,-2766.0,0.456,0.279,0.808,-0.247
104223,-10030.0,-2500.0,-4026.0,0.46,0.279,0.805,-0.248
104240,-10574.0,-2528.0,-3796.0,0.464,0.279,0.803,-0.25
104257,-10472.0,-2438.0,-3266.0,0.468,0.279,0.8,-0.251
104273,-11514.0,-2280.0,-4218.0,0.473,0.279,0.796,-0.254
104299,-12544.0,-2786.0,-4156.0,0.477,0.28,0.793,-0.255
104316,-12496.0,-2710.0,-4364.0,0.479,0.279,0.792,-0.257
104332,-13546.0,-2676.0,-5096.0,0.48,0.279,0.791,-0.258
104349,-15570.0,-3278.0,-4418.0,0.48,0.278,0.79,-0.26
104365,-15558.0,-3596.0,-4538.0,0.479,0.277,0.791,-0.262
104382,-15118.0,-3108.0,-6006.0,0.478,0.276,0.791,-0.263
104398,-14432.0,-3640.0,-5604.0,0.474,0.274,0.794,-0.263
104415,-14640.0,-3740.0,-5262.0,0.469,0.272,0.798,-0.263
104432,-14078.0,-3246.0,-5302.0,0.464,0.271,0.801,-0.262
104458,-13000.0,-3436.0,-4782.0,0.46,0.269,0.805,-0.262
104474,-13066.0,-3394.0,-4288.0,0.456,0.268,0.808,-0.262
104490,-11630.0,-2774.0,-4624.0,0.453,0.267,0.809,-0.262
104507,-10878.0,-2944.0,-3672.0,0.452,0.267,0.81,-0.262
104524,-10276.0,-3028.0,-3810.0,0.452,0.268,0.809,-0.263
104541,-9220.0,-1888.0,-3408.0,0.454,0.269,0.808,-0.264
104559,-7620.0,-2770.0,-2984.0,0.457,0.27,0.805,-0.265
104576,-7826.0,-2150.0,-2510.0,0.46,0.271,0.802,-0.266
104593,-7404.0,-1768.0,-1828.0,0.466,0.273,0.798,-0.267
104610,-5892.0,-1354.0,-1806.0,0.473,0.275,0.793,-0.268
104626,-5886.0,-1502.0,-1704.0,0.48,0.278,0.787,-0.268
104653,-5618.0,-1790.0,-1420.0,0.487,0.281,0.782,-0.269
104669,-5312.0,-1438.0,-620.0,0.495,0.283,0.776,-0.271
104685,-4940.0,-32.0,-680.0,0.503,0.286,0.769,-0.271
104701,-4516.0,-1790.0,-1000.0,0.513,0.288,0.762,-0.271
104718,-3976.0,-1508.0,-1686.0,0.521,0.292,0.754,-0.272
104734,-4768.0,-1184.0,-684.0,0.529,0.294,0.748,-0.273
104750,-4036.0,-930.0,-870.0,0.536,0.298,0.741,-0.274
104776,-4808.0,-1636.0,-1362.0,0.543,0.302,0.734,-0.275
104793,-5640.0,-722.0,-1050.0,0.549,0.306,0.727,-0.278
104810,-5008.0,-70.0,-982.0,0.556,0.31,0.719,-0.277
104827,-5392.0,-394.0,-802.0,0.564,0.314,0.711,-0.277
104844,-4738.0,-38.0,-786.0,0.573,0.319,0.703,-0.275
104860,-4212.0,-904.0,-274.0,0.582,0.322,0.695,-0.273
104876,-3384.0,-762.0,-816.0,0.59,0.324,0.688,-0.27
104892,-1550.0,-1750.0,-1322.0,0.596,0.324,0.684,-0.268
104918,-14.0,-2536.0,-2094.0,0.596,0.325,0.684,-0.268
104934,-574.0,-1944.0,-1504.0,0.591,0.325,0.687,-0.27
104951,-1066.0,-1292.0,-860.0,0.584,0.324,0.692,-0.272
104969,-526.0,-1316.0,-778.0,0.574,0.322,0.701,-0.275
104986,-1696.0,58.0,-830.0,0.562,0.319,0.711,-0.277
105003,-2834.0,346.0,-1396.0,0.55,0.316,0.721,-0.278
105020,-3848.0,-1112.0,-866.0,0.537,0.312,0.732,-0.28
105037,-4852.0,1678.0,-176.0,0.526,0.307,0.742,-0.279
105054,-4870.0,-1352.0,-1572.0,0.516,0.302,0.752,-0.278
105071,-6196.0,-588.0,-1980.0,0.507,0.298,0.76,-0.277
105088,-6456.0,-2402.0,-1354.0,0.496,0.294,0.768,-0.277
105105,-7462.0,500.0,-2412.0,0.488,0.291,0.776,-0.276
105122,-7882.0,-820.0,-1560.0,0.482,0.287,0.781,-0.274
105149,-7056.0,-1604.0,-1952.0,0.476,0.285,0.786,-0.271
105165,-7158.0,-2426.0,-3698.0,0.469,0.283,0.792,-0.27
105181,-7604.0,-2130.0,-3430.0,0.461,0.282,0.798,-0.267
105198,-8282.0,-1534.0,-1696.0,0.454,0.28,0.803,-0.265
105215,-9042.0,-1448.0,-3450.0,0.449,0.279,0.807,-0.262
105232,-8422.0,-2406.0,-4258.0,0.445,0.279,0.811,-0.259
105249,-8320.0,-2578.0,-3124.0,0.44,0.279,0.814,-0.256
105267,-8848.0,-2418.0,-3710.0,0.436,0.28,0.817,-0.253
105284,-9858.0,-2512.0,-3960.0,0.434,0.281,0.818,-0.25
105300,-9586.0,-2562.0,-3624.0,0.434,0.283,0.819,-0.248
105317,-9224.0,-2430.0,-3806.0,0.435,0.284,0.818,-0.247
105344,-10034.0,-2692.0,-4330.0,0.438,0.284,0.816,-0.247
105361,-9440.0,-2450.0,-3640.0,0.442,0.283,0.814,-0.249
105377,-9336.0,-2254.0,-3506.0,0.448,0.282,0.81,-0.251
105393,-9948.0,-2464.0,-3932.0,0.456,0.281,0.805,-0.255
105410,-9290.0,-2632.0,-3932.0,0.464,0.279,0.8,-0.26
105427,-9406.0,-2974.0,-4166.0,0.471,0.277,0.795,-0.264
105443,-11166.0,-2726.0,-4436.0,0.477,0.276,0.79,-0.268
105460,-12642.0,-2970.0,-4558.0,0.482,0.277,0.786,-0.271
105477,-13274.0,-3574.0,-5798.0,0.484,0.278,0.784,-0.272
105494,-14718.0,-3962.0,-6076.0,0.484,0.278,0.784,-0.272
105520,-15812.0,-4262.0,-5850.0,0.481,0.278,0.786,-0.27
105537,-16804.0,-4732.0,-6002.0,0.475,0.278,0.79,-0.269
105553,-17276.0,-4004.0,-4682.0,0.469,0.278,0.795,-0.268
105569,-15992.0,-4288.0,-4346.0,0.464,0.276,0.798,-0.267
105586,-13826.0,-3820.0,-5264.0,0.459,0.274,0.802,-0.268
105603,-12866.0,-3090.0,-4250.0,0.457,0.27,0.804,-0.268
105619,-11852.0,-3098.0,-3430.0,0.456,0.267,0.805,-0.269
105636,-10972.0,-2726.0,-3116.0,0.457,0.265,0.805,-0.271
105653,-8502.0,-2772.0,-3396.0,0.459,0.264,0.803,-0.273
105680,-8114.0,-1944.0,-2810.0,0.462,0.263,0.801,-0.275
105697,-6716.0,-1974.0,-3112.0,0.464,0.264,0.8,-0.275
105714,-6908.0,-1700.0,-1886.0,0.467,0.266,0.798,-0.275
105731,-6784.0,-1504.0,-1376.0,0.47,0.269,0.795,-0.274
105750,-6004.0,-1870.0,-1674.0,0.475,0.271,0.791,-0.274
105767,-5780.0,-1828.0,-1308.0,0.48,0.274,0.787,-0.274
105784,-5042.0,-1558.0,-1248.0,0.486,0.277,0.782,-0.275
105803,-5506.0,-2314.0,-1836.0,0.492,0.28,0.777,-0.276
105820,-6498.0,-1184.0,-1114.0,0.499,0.283,0.771,-0.278
105837,-6170.0,-1640.0,-1178.0,0.508,0.287,0.763,-0.279
105854,-7548.0,-1566.0,-1938.0,0.519,0.291,0.753,-0.282
105871,-8468.0,-620.0,-2044.0,0.531,0.296,0.742,-0.283
105887,-7286.0,-406.0,-434.0,0.545,0.302,0.729,-0.282
105904,-6316.0,210.0,-1202.0,0.562,0.309,0.714,-0.281
105920,-5170.0,2038.0,682.0,0.583,0.316,0.697,-0.274
105936,-2608.0,-592.0,872.0,0.604,0.32,0.68,-0.265
105963,48.0,-2198.0,-1580.0,0.62,0.322,0.667,-0.259
105979,974.0,-2790.0,-886.0,0.631,0.323,0.658,-0.253
105996,1018.0,-3124.0,-3420.0,0.635,0.326,0.655,-0.25
106015,206.0,-3630.0,-1916.0,0.63,0.332,0.655,-0.251
106031,-2062.0,-1312.0,-692.0,0.621,0.339,0.659,-0.256
106047,-4898.0,-530.0,1510.0,0.61,0.342,0.665,-0.262
106064,-6810.0,860.0,2220.0,0.601,0.343,0.671,-0.266
106080,-7912.0,1322.0,572.0,0.593,0.341,0.677,-0.27
106097,-8514.0,-854.0,276.0,0.586,0.34,0.683,-0.273
106113,-10432.0,1078.0,548.0,0.578,0.339,0.69,-0.275
106139,-11320.0,654.0,32.0,0.572,0.337,0.696,-0.275
106155,-11028.0,-412.0,-236.0,0.566,0.337,0.701,-0.273
106172,-11112.0,798.0,-392.0,0.562,0.338,0.705,-0.271
106189,-10016.0,-68.0,-486.0,0.559,0.339,0.708,-0.267
106205,-8730.0,-712.0,-354.0,0.556,0.342,0.71,-0.263
106221,-8304.0,-320.0,-598.0,0.553,0.345,0.713,-0.26
106238,-7604.0,-142.0,-362.0,0.55,0.347,0.715,-0.256
106264,-7062.0,-784.0,-554.0,0.547,0.35,0.718,-0.252
106280,-6622.0,-154.0,-800.0,0.543,0.352,0.721,-0.249
106296,-6068.0,-560.0,-928.0,0.538,0.353,0.725,-0.247
106313,-6084.0,-744.0,-1068.0,0.532,0.355,0.729,-0.244
106329,-6438.0,-424.0,-1520.0,0.524,0.356,0.735,-0.243
106346,-6462.0,-48.0,-1204.0,0.516,0.357,0.741,-0.24
106363,-6246.0,-568.0,-2086.0,0.508,0.357,0.747,-0.238
106380,-6516.0,-408.0,-2376.0,0.497,0.359,0.754,-0.236
106397,-7042.0,246.0,-2138.0,0.487,0.36,0.761,-0.232
106414,-6762.0,-292.0,-2522.0,0.477,0.361,0.768,-0.228
106440,-7086.0,-1686.0,-3818.0,0.465,0.363,0.776,-0.224
106457,-7714.0,64.0,-3466.0,0.453,0.365,0.783,-0.22
106474,-7756.0,110.0,-2854.0,0.443,0.366,0.789,-0.216
106490,-7386.0,-550.0,-4550.0,0.434,0.366,0.795,-0.211
106507,-7648.0,-664.0,-4568.0,0.427,0.366,0.801,-0.207
106524,-7036.0,-1610.0,-4206.0,0.419,0.365,0.806,-0.204
106540,-6736.0,-142.0,-5164.0,0.412,0.364,0.811,-0.201
106557,-6770.0,-606.0,-5712.0,0.405,0.364,0.815,-0.198
106574,-7046.0,-692.0,-4520.0,0.4,0.363,0.819,-0.195
106600,-6216.0,-972.0,-5502.0,0.394,0.362,0.823,-0.192
106617,-5830.0,-1188.0,-6172.0,0.388,0.362,0.827,-0.189
106633,-6706.0,-1230.0,-5450.0,0.38,0.361,0.831,-0.187
106649,-6656.0,-830.0,-5820.0,0.373,0.361,0.835,-0.183
106665,-6430.0,-540.0,-5542.0,0.367,0.362,0.838,-0.18
106681,-6350.0,-916.0,-5690.0,0.362,0.362,0.841,-0.177
106707,-6462.0,-1514.0,-6148.0,0.357,0.362,0.844,-0.174
106723,-5384.0,-1522.0,-6018.0,0.351,0.361,0.847,-0.171
106740,-6242.0,-716.0,-5224.0,0.346,0.36,0.85,-0.169
106757,-6280.0,-590.0,-5550.0,0.342,0.361,0.852,-0.167
106774,-5906.0,-776.0,-5288.0,0.338,0.36,0.854,-0.164
106790,-5084.0,-2104.0,-5878.0,0.334,0.36,0.856,-0.161
106807,-5950.0,-970.0,-5710.0,0.329,0.359,0.859,-0.16
106824,-5930.0,-730.0,-5262.0,0.325,0.358,0.861,-0.158
106840,-5878.0,-924.0,-5594.0,0.321,0.357,0.863,-0.155
106857,-5628.0,-844.0,-6456.0,0.317,0.357,0.865,-0.153
106884,-6022.0,-1288.0,-6052.0,0.313,0.357,0.867,-0.15
106900,-6392.0,-646.0,-5986.0,0.309,0.356,0.869,-0.148
106916,-6136.0,-1296.0,-6418.0,0.306,0.356,0.871,-0.146
106932,-5628.0,-1090.0,-6868.0,0.303,0.355,0.872,-0.144
106948,-6396.0,-1002.0,-6342.0,0.3,0.355,0.874,-0.143
106965,-6030.0,-842.0,-6434.0,0.298,0.354,0.875,-0.141
106982,-5904.0,-634.0,-6412.0,0.296,0.354,0.876,-0.14
106998,-5278.0,-1686.0,-6804.0,0.295,0.354,0.877,-0.139
107025,-5830.0,-540.0,-6470.0,0.293,0.353,0.878,-0.138
107042,-2588.0,-1664.0,-7632.0,0.292,0.352,0.879,-0.138
107059,-3608.0,-816.0,-6154.0,0.291,0.351,0.879,-0.138
107076,-3912.0,-772.0,-7698.0,0.291,0.35,0.88,-0.138
107093,-3380.0,-1130.0,-5754.0,0.29,0.349,0.88,-0.137
107110,-5004.0,-922.0,-4228.0,0.289,0.349,0.881,-0.137
107127,-5600.0,-558.0,-6880.0,0.288,0.348,0.882,-0.136
107144,-4856.0,-826.0,-6154.0,0.287,0.348,0.882,-0.136
107161,-5262.0,-1028.0,-5720.0,0.286,0.347,0.883,-0.136
107178,-5572.0,-1028.0,-7024.0,0.284,0.347,0.883,-0.135
107195,-14952.0,-4608.0,-14218.0,0.284,0.348,0.883,-0.134
107212,-5242.0,-6080.0,-5222.0,0.282,0.348,0.884,-0.134
107229,-7530.0,72.0,-7866.0,0.282,0.348,0.884,-0.131
107246,-4064.0,-1788.0,-5766.0,0.282,0.347,0.885,-0.13
107273,-3562.0,-1400.0,-5072.0,0.28,0.347,0.886,-0.129
107290,-4716.0,-952.0,-6644.0,0.278,0.347,0.887,-0.128
107306,-4928.0,-2848.0,-8564.0,0.275,0.343,0.889,-0.126
107323,-3640.0,2198.0,-630.0,0.273,0.341,0.89,-0.126
107339,-8390.0,-876.0,-5436.0,0.273,0.342,0.891,-0.124
107356,-2128.0,-612.0,-1550.0,0.272,0.341,0.892,-0.122
107372,2034.0,-928.0,1232.0,0.268,0.34,0.894,-0.117
107388,-18202.0,52.0,-24056.0,0.271,0.343,0.892,-0.117
107414,404.0,1744.0,-4182.0,0.271,0.342,0.891,-0.123
107431,-13606.0,-1340.0,-10132.0,0.271,0.345,0.89,-0.124
107447,-5304.0,1070.0,-10654.0,0.274,0.344,0.889,-0.126
107464,-3502.0,-1588.0,1058.0,0.273,0.344,0.89,-0.124
107480,-8954.0,1718.0,-4914.0,0.271,0.346,0.889,-0.126
107497,-2436.0,-1130.0,-7776.0,0.27,0.347,0.889,-0.125
