timeMs,ax,ay,az,q0,q1,q2,q3
1174415,853.0,8802.0,2377.0,0.18,0.043,-0.572,-0.799
1174431,1127.0,9200.0,2345.0,0.177,0.043,-0.567,-0.803
1174447,1047.0,7454.0,3015.0,0.174,0.041,-0.56,-0.809
1174464,1101.0,5578.0,3647.0,0.171,0.04,-0.552,-0.815
1174481,1091.0,4996.0,3891.0,0.17,0.039,-0.548,-0.818
1174498,945.0,5660.0,3761.0,0.17,0.039,-0.547,-0.819
1174515,893.0,6380.0,3637.0,0.17,0.04,-0.547,-0.819
1174542,761.0,6768.0,3431.0,0.171,0.04,-0.548,-0.818
1174559,931.0,7052.0,3209.0,0.171,0.04,-0.551,-0.816
1174576,805.0,7058.0,3137.0,0.172,0.04,-0.555,-0.813
1174593,749.0,7168.0,2901.0,0.174,0.04,-0.559,-0.81
1174611,1005.0,7158.0,2885.0,0.176,0.04,-0.562,-0.807
1174627,979.0,7146.0,2845.0,0.178,0.04,-0.566,-0.804
1174643,985.0,7162.0,2771.0,0.18,0.039,-0.569,-0.801
1174660,1021.0,7472.0,2591.0,0.182,0.038,-0.572,-0.799
1174676,1071.0,7568.0,2367.0,0.184,0.037,-0.575,-0.797
1174693,1213.0,7466.0,2199.0,0.185,0.035,-0.577,-0.795
1174719,1289.0,7832.0,2213.0,0.187,0.033,-0.579,-0.793
1174735,1317.0,7928.0,2429.0,0.188,0.03,-0.582,-0.791
1174751,1407.0,7784.0,2579.0,0.19,0.027,-0.584,-0.789
1174767,1651.0,7684.0,2721.0,0.191,0.025,-0.586,-0.787
1174783,1797.0,8088.0,2785.0,0.192,0.023,-0.589,-0.784
1174800,1785.0,9180.0,2817.0,0.193,0.022,-0.592,-0.782
1174816,1721.0,9956.0,2725.0,0.193,0.02,-0.593,-0.781
1174842,1635.0,9792.0,2705.0,0.193,0.019,-0.591,-0.783
1174858,1617.0,9314.0,2717.0,0.191,0.017,-0.588,-0.786
1174874,1831.0,8622.0,2865.0,0.189,0.016,-0.583,-0.79
1174891,1719.0,8184.0,2963.0,0.186,0.016,-0.579,-0.794
1174908,1487.0,7764.0,3113.0,0.183,0.016,-0.574,-0.798
1174924,1527.0,7672.0,3197.0,0.181,0.017,-0.57,-0.801
1174941,1531.0,7460.0,3257.0,0.178,0.018,-0.566,-0.805
1174967,1419.0,7274.0,3241.0,0.176,0.019,-0.561,-0.809
1174984,1335.0,7012.0,3201.0,0.174,0.02,-0.556,-0.812
1175001,1355.0,6674.0,3219.0,0.172,0.02,-0.552,-0.816
1175018,1267.0,6396.0,3211.0,0.171,0.021,-0.548,-0.819
1175034,1185.0,6068.0,3179.0,0.17,0.021,-0.545,-0.821
1175051,1117.0,5696.0,3113.0,0.17,0.021,-0.543,-0.822
1175068,1071.0,5556.0,3111.0,0.171,0.021,-0.544,-0.822
1175085,1099.0,5566.0,2989.0,0.172,0.02,-0.546,-0.82
1175102,1279.0,5996.0,3085.0,0.173,0.02,-0.551,-0.816
1175119,1311.0,6954.0,2981.0,0.175,0.021,-0.558,-0.811
1175136,1195.0,8678.0,2595.0,0.176,0.022,-0.566,-0.805
1175152,1319.0,9486.0,2925.0,0.178,0.023,-0.572,-0.801
1175178,1169.0,9344.0,2849.0,0.179,0.024,-0.574,-0.799
1175195,1293.0,8348.0,2805.0,0.179,0.024,-0.576,-0.797
1175212,1459.0,7688.0,2799.0,0.179,0.024,-0.579,-0.795
1175228,1523.0,7598.0,2675.0,0.179,0.025,-0.583,-0.792
1175245,1517.0,7780.0,2899.0,0.179,0.026,-0.588,-0.788
1175263,1345.0,7840.0,3009.0,0.179,0.028,-0.593,-0.785
1175279,1333.0,8158.0,2837.0,0.179,0.03,-0.597,-0.782
1175296,1241.0,7704.0,2595.0,0.179,0.032,-0.599,-0.78
1175313,1169.0,7458.0,2191.0,0.18,0.032,-0.601,-0.778
1175329,1289.0,7150.0,2165.0,0.18,0.033,-0.604,-0.775
1175355,1329.0,7494.0,2085.0,0.181,0.034,-0.609,-0.772
1175371,1387.0,8504.0,2023.0,0.181,0.034,-0.612,-0.769
1175387,1399.0,9772.0,1963.0,0.181,0.034,-0.613,-0.768
1175403,1407.0,10408.0,1811.0,0.18,0.034,-0.61,-0.771
1175420,1393.0,9110.0,1947.0,0.179,0.033,-0.603,-0.776
1175437,1183.0,7490.0,2157.0,0.177,0.032,-0.597,-0.782
1175454,1091.0,7112.0,2141.0,0.175,0.033,-0.593,-0.785
1175480,1151.0,7502.0,2215.0,0.172,0.033,-0.59,-0.788
1175496,1193.0,7694.0,2347.0,0.17,0.034,-0.588,-0.79
1175513,1311.0,8128.0,2307.0,0.167,0.034,-0.584,-0.794
1175529,1329.0,8134.0,2795.0,0.165,0.034,-0.579,-0.798
1175546,817.0,7758.0,2837.0,0.161,0.034,-0.574,-0.802
1175563,565.0,7620.0,2535.0,0.158,0.035,-0.57,-0.805
1175580,595.0,6926.0,2423.0,0.155,0.035,-0.569,-0.807
1175597,899.0,7172.0,2341.0,0.151,0.035,-0.57,-0.807
1175613,1137.0,6992.0,2605.0,0.147,0.036,-0.572,-0.806
1175630,915.0,6910.0,2913.0,0.145,0.036,-0.574,-0.805
1175656,931.0,6562.0,2983.0,0.143,0.035,-0.573,-0.806
1175672,1009.0,6244.0,3233.0,0.143,0.033,-0.572,-0.807
1175688,921.0,6642.0,3265.0,0.143,0.032,-0.571,-0.808
1175704,823.0,7640.0,3415.0,0.144,0.03,-0.571,-0.808
1175721,879.0,8132.0,3401.0,0.146,0.03,-0.571,-0.808
1175738,903.0,8254.0,3075.0,0.147,0.029,-0.57,-0.808
1175755,843.0,7822.0,2707.0,0.148,0.027,-0.57,-0.808
1175772,941.0,7748.0,2667.0,0.149,0.026,-0.569,-0.808
1175798,993.0,7506.0,2803.0,0.149,0.025,-0.569,-0.809
1175815,973.0,7406.0,2873.0,0.149,0.024,-0.568,-0.809
1175832,1045.0,7464.0,2943.0,0.15,0.023,-0.568,-0.809
1175849,901.0,7630.0,2947.0,0.15,0.023,-0.568,-0.809
1175865,955.0,7532.0,2915.0,0.15,0.022,-0.569,-0.808
1175881,947.0,7192.0,2787.0,0.15,0.022,-0.572,-0.806
1175898,979.0,7114.0,2561.0,0.15,0.022,-0.575,-0.804
1175914,1093.0,7310.0,2567.0,0.15,0.022,-0.579,-0.801
1175931,1055.0,7468.0,2501.0,0.151,0.021,-0.583,-0.798
1175957,1147.0,7702.0,2445.0,0.151,0.021,-0.587,-0.795
1175973,1159.0,7720.0,2359.0,0.152,0.02,-0.59,-0.793
1175990,1145.0,7788.0,2271.0,0.153,0.019,-0.593,-0.791
1176006,1233.0,7830.0,2273.0,0.154,0.018,-0.596,-0.788
1176023,1349.0,7756.0,2299.0,0.155,0.016,-0.599,-0.785
1176039,1421.0,8238.0,2305.0,0.156,0.016,-0.602,-0.783
1176056,1435.0,8728.0,2429.0,0.156,0.015,-0.605,-0.78
1176073,1431.0,8494.0,2465.0,0.157,0.014,-0.607,-0.779
1176090,1513.0,7816.0,2391.0,0.157,0.013,-0.609,-0.778
1176117,1537.0,7360.0,2129.0,0.156,0.011,-0.61,-0.777
1176134,1637.0,7412.0,2163.0,0.156,0.011,-0.613,-0.775
1176151,1777.0,8262.0,2389.0,0.156,0.011,-0.616,-0.772
1176167,1581.0,10476.0,2345.0,0.154,0.013,-0.619,-0.77
1176183,1329.0,10726.0,2479.0,0.152,0.016,-0.62,-0.77
1176199,889.0,10394.0,2187.0,0.149,0.019,-0.617,-0.773
1176215,937.0,8768.0,2061.0,0.145,0.021,-0.612,-0.777
1176241,1077.0,7522.0,2085.0,0.141,0.023,-0.607,-0.782
1176258,1365.0,6652.0,2339.0,0.137,0.025,-0.602,-0.786
1176275,1251.0,7268.0,2441.0,0.134,0.027,-0.597,-0.79
1176292,1195.0,7468.0,2675.0,0.131,0.029,-0.591,-0.796
1176309,1103.0,7180.0,2713.0,0.129,0.03,-0.583,-0.802
1176326,761.0,6554.0,2575.0,0.127,0.031,-0.576,-0.807
1176343,695.0,7026.0,2419.0,0.125,0.031,-0.571,-0.811
1176360,593.0,7812.0,2589.0,0.123,0.032,-0.567,-0.814
1176377,241.0,8788.0,2943.0,0.121,0.033,-0.564,-0.816
1176394,171.0,8486.0,2919.0,0.118,0.035,-0.562,-0.818
1176411,419.0,7354.0,2933.0,0.115,0.036,-0.56,-0.82
1176428,451.0,6638.0,2895.0,0.113,0.036,-0.558,-0.821
1176445,743.0,5582.0,2903.0,0.112,0.036,-0.556,-0.823
1176462,797.0,5588.0,2951.0,0.112,0.035,-0.556,-0.823
1176489,737.0,6480.0,3265.0,0.113,0.035,-0.556,-0.823
1176506,539.0,7636.0,3687.0,0.115,0.035,-0.556,-0.822
1176523,207.0,7998.0,3539.0,0.116,0.035,-0.556,-0.822
1176540,159.0,8056.0,2951.0,0.117,0.034,-0.557,-0.821
1176557,303.0,7658.0,2517.0,0.118,0.033,-0.557,-0.821
1176574,431.0,7336.0,2613.0,0.119,0.031,-0.557,-0.821
1176590,529.0,7292.0,2703.0,0.12,0.029,-0.557,-0.821
1176606,673.0,7354.0,2993.0,0.121,0.028,-0.557,-0.821
1176622,671.0,7660.0,3111.0,0.122,0.026,-0.557,-0.821
1176639,689.0,7720.0,3175.0,0.123,0.024,-0.557,-0.821
1176666,641.0,7860.0,3131.0,0.123,0.023,-0.558,-0.821
1176682,667.0,7854.0,2941.0,0.124,0.022,-0.558,-0.82
1176698,799.0,7866.0,3005.0,0.124,0.021,-0.559,-0.819
1176715,887.0,7518.0,3145.0,0.125,0.02,-0.561,-0.818
1176731,927.0,7580.0,3131.0,0.126,0.019,-0.562,-0.817
1176748,819.0,7820.0,3111.0,0.126,0.019,-0.564,-0.816
1176765,785.0,7978.0,3063.0,0.126,0.018,-0.564,-0.816
1176782,793.0,7674.0,3007.0,0.126,0.017,-0.565,-0.815
1176799,863.0,7326.0,2977.0,0.126,0.015,-0.565,-0.815
1176816,901.0,7290.0,2989.0,0.127,0.014,-0.566,-0.814
1176842,1009.0,7132.0,2993.0,0.128,0.013,-0.568,-0.813
1176859,1057.0,7300.0,2965.0,0.128,0.012,-0.57,-0.812
1176876,1127.0,7982.0,2971.0,0.128,0.01,-0.572,-0.81
1176893,1075.0,7988.0,3037.0,0.128,0.009,-0.573,-0.809
1176910,1043.0,7808.0,3023.0,0.129,0.008,-0.574,-0.809
1176927,1079.0,7466.0,2931.0,0.129,0.007,-0.575,-0.808
1176944,1073.0,6912.0,2837.0,0.129,0.005,-0.576,-0.807
1176961,1253.0,6846.0,2867.0,0.13,0.003,-0.579,-0.805
1176978,1225.0,7154.0,2671.0,0.131,0.002,-0.583,-0.802
1176995,1343.0,8816.0,2689.0,0.131,0.002,-0.587,-0.799
1177013,1031.0,9960.0,2697.0,0.13,0.002,-0.589,-0.798
1177030,999.0,9120.0,2683.0,0.129,0.001,-0.587,-0.799
1177047,1093.0,7914.0,2741.0,0.128,0.001,-0.585,-0.801
1177064,1251.0,7046.0,2689.0,0.126,0.001,-0.584,-0.802
1177091,1287.0,6840.0,2719.0,0.125,0.001,-0.584,-0.802
1177107,1241.0,7026.0,2725.0,0.125,0.001,-0.585,-0.802
1177123,1231.0,7382.0,2671.0,0.125,0.001,-0.586,-0.801
1177140,1271.0,7688.0,2615.0,0.125,0.001,-0.587,-0.8
1177157,1249.0,7698.0,2611.0,0.125,0.001,-0.587,-0.8
1177174,1141.0,7702.0,2537.0,0.125,0.0,-0.587,-0.8
1177191,1063.0,7606.0,2565.0,0.125,-0.0,-0.586,-0.8
1177208,1139.0,7414.0,2683.0,0.126,-0.001,-0.586,-0.8
1177224,1113.0,7598.0,2675.0,0.126,-0.002,-0.586,-0.8
1177241,1147.0,7772.0,2617.0,0.127,-0.002,-0.586,-0.8
1177268,1103.0,7984.0,2621.0,0.127,-0.003,-0.586,-0.8
1177284,1135.0,7812.0,2557.0,0.128,-0.004,-0.585,-0.801
1177300,1139.0,7792.0,2565.0,0.128,-0.005,-0.584,-0.801
1177316,1183.0,7764.0,2551.0,0.129,-0.006,-0.584,-0.802
1177333,1331.0,8016.0,2629.0,0.129,-0.007,-0.584,-0.802
1177349,1281.0,8206.0,2689.0,0.128,-0.007,-0.583,-0.802
1177366,1289.0,8144.0,2767.0,0.128,-0.007,-0.582,-0.803
1177383,1013.0,8504.0,2787.0,0.127,-0.007,-0.581,-0.804
1177410,997.0,8260.0,2575.0,0.126,-0.006,-0.579,-0.806
1177427,1067.0,7236.0,2487.0,0.125,-0.007,-0.576,-0.808
1177444,1183.0,6644.0,2595.0,0.124,-0.007,-0.574,-0.809
1177461,1195.0,6784.0,2613.0,0.124,-0.008,-0.574,-0.81
1177478,1351.0,6788.0,2795.0,0.124,-0.009,-0.574,-0.809
1177495,1467.0,6982.0,2831.0,0.124,-0.009,-0.575,-0.809
1177512,1469.0,7690.0,2823.0,0.125,-0.01,-0.576,-0.808
1177529,1363.0,8090.0,2883.0,0.126,-0.01,-0.577,-0.807
1177546,1139.0,8358.0,2979.0,0.126,-0.011,-0.578,-0.806
1177563,1047.0,8242.0,3015.0,0.126,-0.011,-0.577,-0.807
1177580,1067.0,8076.0,2949.0,0.126,-0.011,-0.576,-0.807
1177597,1193.0,7684.0,3003.0,0.126,-0.011,-0.575,-0.808
1177614,1221.0,7616.0,2921.0,0.126,-0.011,-0.574,-0.809
1177631,1215.0,7576.0,2947.0,0.126,-0.01,-0.573,-0.81
1177649,1207.0,7412.0,2855.0,0.126,-0.01,-0.573,-0.81
1177666,1191.0,7378.0,2721.0,0.126,-0.01,-0.572,-0.81
1177693,1291.0,7580.0,2651.0,0.126,-0.009,-0.573,-0.81
1177710,1405.0,7660.0,2659.0,0.126,-0.009,-0.573,-0.81
1177727,1399.0,7646.0,2663.0,0.127,-0.009,-0.573,-0.81
1177743,1497.0,7516.0,2627.0,0.126,-0.01,-0.573,-0.81
1177760,1425.0,7564.0,2785.0,0.126,-0.01,-0.573,-0.81
1177777,1275.0,7570.0,2793.0,0.126,-0.01,-0.573,-0.81
1177794,1275.0,7600.0,2905.0,0.126,-0.011,-0.573,-0.81
1177811,1261.0,7534.0,3045.0,0.125,-0.011,-0.572,-0.81
1177828,1293.0,7364.0,2997.0,0.125,-0.012,-0.572,-0.81
1177845,1347.0,7598.0,3017.0,0.125,-0.013,-0.572,-0.81
1177862,1303.0,7650.0,3053.0,0.125,-0.013,-0.572,-0.811
1177879,1403.0,7466.0,3015.0,0.125,-0.014,-0.572,-0.811
1177896,1373.0,7674.0,3003.0,0.125,-0.014,-0.572,-0.811
1177923,1373.0,7816.0,2913.0,0.124,-0.014,-0.572,-0.811
1177940,1441.0,7744.0,2967.0,0.124,-0.015,-0.572,-0.811
1177957,1393.0,7596.0,2955.0,0.124,-0.015,-0.571,-0.811
1177974,1379.0,7506.0,2923.0,0.123,-0.015,-0.571,-0.812
1177991,1437.0,7538.0,2943.0,0.123,-0.016,-0.571,-0.812
1178008,1339.0,7534.0,2907.0,0.123,-0.016,-0.571,-0.812
1178025,1321.0,7554.0,2923.0,0.124,-0.016,-0.571,-0.812
1178042,1279.0,7714.0,2853.0,0.124,-0.016,-0.57,-0.812
1178059,1245.0,7710.0,2959.0,0.124,-0.016,-0.571,-0.812
1178076,1183.0,7800.0,2869.0,0.124,-0.016,-0.57,-0.812
1178092,1311.0,7596.0,2903.0,0.124,-0.016,-0.57,-0.812
1178108,1395.0,7490.0,2909.0,0.124,-0.016,-0.57,-0.812
1178134,1335.0,7636.0,2905.0,0.125,-0.016,-0.57,-0.812
1178151,1365.0,7616.0,2921.0,0.125,-0.015,-0.57,-0.812
1178168,1347.0,7614.0,2881.0,0.125,-0.015,-0.57,-0.812
1178185,1283.0,7694.0,2871.0,0.125,-0.015,-0.57,-0.812
1178202,1243.0,7624.0,2891.0,0.125,-0.014,-0.571,-0.812
1178218,1217.0,7692.0,2827.0,0.125,-0.014,-0.571,-0.811
1178235,1171.0,7640.0,2841.0,0.125,-0.013,-0.57,-0.812
1178251,1159.0,7570.0,2855.0,0.125,-0.013,-0.57,-0.812
1178268,1203.0,7586.0,2851.0,0.125,-0.013,-0.57,-0.812
1178285,1165.0,7748.0,2771.0,0.125,-0.013,-0.57,-0.812
1178312,1213.0,7766.0,2785.0,0.125,-0.012,-0.57,-0.812
1178329,1173.0,7724.0,2833.0,0.124,-0.012,-0.57,-0.812
1178346,1103.0,7592.0,2855.0,0.124,-0.012,-0.57,-0.812
1178363,1175.0,7596.0,2807.0,0.123,-0.012,-0.57,-0.812
1178380,1125.0,7662.0,2735.0,0.122,-0.012,-0.57,-0.812
1178397,1131.0,7630.0,2759.0,0.121,-0.011,-0.57,-0.812
1178414,1161.0,7586.0,2829.0,0.12,-0.011,-0.57,-0.813
1178431,1175.0,7444.0,2871.0,0.119,-0.012,-0.57,-0.813
1178448,1159.0,7504.0,2805.0,0.119,-0.012,-0.571,-0.813
1178465,1151.0,7418.0,2843.0,0.118,-0.012,-0.571,-0.812
1178482,1251.0,7332.0,2911.0,0.117,-0.013,-0.571,-0.812
1178499,1283.0,7456.0,2923.0,0.117,-0.013,-0.572,-0.812
1178516,1275.0,7718.0,2833.0,0.116,-0.014,-0.572,-0.812
1178533,1269.0,7820.0,2849.0,0.116,-0.014,-0.572,-0.812
1178560,1249.0,7752.0,2855.0,0.115,-0.015,-0.572,-0.812
1178577,1255.0,7740.0,2897.0,0.114,-0.016,-0.572,-0.812
1178594,1217.0,7646.0,2921.0,0.114,-0.016,-0.572,-0.812
1178611,1211.0,7580.0,2937.0,0.113,-0.017,-0.572,-0.812
1178628,1331.0,7508.0,3017.0,0.112,-0.017,-0.572,-0.812
1178644,1297.0,7630.0,2997.0,0.112,-0.018,-0.572,-0.812
1178660,1299.0,7688.0,2981.0,0.111,-0.018,-0.572,-0.812
1178676,1211.0,7572.0,3009.0,0.111,-0.019,-0.572,-0.813
1178693,1251.0,7578.0,2943.0,0.11,-0.019,-0.572,-0.813
1178710,1227.0,7542.0,2957.0,0.11,-0.02,-0.572,-0.813
1178737,1329.0,7554.0,2913.0,0.11,-0.02,-0.572,-0.813
1178754,1303.0,7604.0,2909.0,0.109,-0.02,-0.572,-0.813
1178770,1285.0,7564.0,2895.0,0.109,-0.02,-0.572,-0.813
1178786,1265.0,7470.0,2925.0,0.109,-0.021,-0.572,-0.813
1178802,1283.0,7540.0,2905.0,0.109,-0.021,-0.572,-0.812
1178819,1255.0,7620.0,2813.0,0.109,-0.021,-0.573,-0.812
1178835,1265.0,7700.0,2801.0,0.109,-0.021,-0.573,-0.812
1178861,1223.0,7680.0,2863.0,0.108,-0.022,-0.574,-0.812
1178877,1337.0,7478.0,2857.0,0.108,-0.022,-0.574,-0.811
1178894,1339.0,7654.0,2933.0,0.108,-0.022,-0.574,-0.811
1178910,1337.0,7566.0,2971.0,0.108,-0.022,-0.574,-0.811
1178926,1293.0,7588.0,2897.0,0.108,-0.023,-0.574,-0.811
1178942,1307.0,7622.0,2827.0,0.108,-0.023,-0.575,-0.811
1178958,1275.0,7628.0,2781.0,0.108,-0.023,-0.575,-0.811
1178984,1243.0,7628.0,2797.0,0.108,-0.023,-0.575,-0.81
1179001,1313.0,7480.0,2885.0,0.108,-0.024,-0.575,-0.81
1179018,1293.0,7406.0,2845.0,0.108,-0.024,-0.575,-0.81
1179035,1261.0,7574.0,2793.0,0.108,-0.025,-0.576,-0.81
1179052,1285.0,7834.0,2791.0,0.108,-0.025,-0.576,-0.81
1179069,1277.0,7910.0,2743.0,0.108,-0.025,-0.576,-0.81
1179085,1323.0,7792.0,2773.0,0.108,-0.026,-0.576,-0.81
1179102,1365.0,7600.0,2797.0,0.107,-0.026,-0.576,-0.81
1179118,1303.0,7556.0,2879.0,0.107,-0.026,-0.576,-0.81
1179135,1273.0,7676.0,2837.0,0.107,-0.027,-0.576,-0.81
1179162,1359.0,7690.0,2815.0,0.107,-0.027,-0.576,-0.81
1179178,1289.0,7704.0,2783.0,0.107,-0.027,-0.576,-0.81
1179194,1307.0,7630.0,2825.0,0.107,-0.027,-0.575,-0.81
1179210,1351.0,7638.0,2801.0,0.106,-0.027,-0.575,-0.811
1179226,1293.0,7600.0,2709.0,0.106,-0.027,-0.575,-0.811
1179242,1325.0,7648.0,2831.0,0.106,-0.028,-0.575,-0.811
1179268,1349.0,7742.0,2891.0,0.105,-0.028,-0.575,-0.811
1179285,1295.0,7586.0,2825.0,0.105,-0.028,-0.574,-0.811
1179302,1337.0,7578.0,2827.0,0.104,-0.029,-0.574,-0.812
1179318,1323.0,7566.0,2817.0,0.104,-0.029,-0.574,-0.812
1179335,1309.0,7630.0,2825.0,0.103,-0.029,-0.574,-0.812
1179352,1289.0,7632.0,2821.0,0.103,-0.029,-0.573,-0.812
1179368,1307.0,7684.0,2829.0,0.102,-0.03,-0.573,-0.813
1179385,1239.0,7578.0,2887.0,0.102,-0.03,-0.572,-0.813
1179402,1287.0,7446.0,2885.0,0.101,-0.031,-0.572,-0.813
1179418,1305.0,7434.0,2917.0,0.101,-0.031,-0.572,-0.814
1179445,1315.0,7534.0,2837.0,0.101,-0.032,-0.571,-0.814
1179461,1339.0,7616.0,2881.0,0.1,-0.032,-0.571,-0.814
1179477,1327.0,7582.0,2937.0,0.1,-0.033,-0.571,-0.814
1179494,1277.0,7508.0,2863.0,0.1,-0.033,-0.571,-0.814
1179511,1353.0,7608.0,2885.0,0.1,-0.033,-0.571,-0.814
1179527,1307.0,7638.0,2829.0,0.1,-0.034,-0.571,-0.814
1179544,1343.0,7714.0,2807.0,0.099,-0.034,-0.571,-0.814
1179561,1351.0,7822.0,2787.0,0.099,-0.034,-0.571,-0.814
1179578,1391.0,7596.0,2747.0,0.099,-0.034,-0.571,-0.814
1179604,1363.0,7492.0,2611.0,0.099,-0.034,-0.572,-0.814
1179620,1401.0,7848.0,2627.0,0.098,-0.034,-0.572,-0.813
1179636,1481.0,7766.0,2557.0,0.098,-0.034,-0.573,-0.813
1179652,1551.0,7476.0,2771.0,0.098,-0.034,-0.573,-0.813
1179668,1525.0,7448.0,3151.0,0.098,-0.033,-0.574,-0.813
1179685,1227.0,7342.0,3221.0,0.098,-0.032,-0.575,-0.812
1179701,1201.0,7890.0,3295.0,0.098,-0.031,-0.576,-0.811
1179728,1073.0,7966.0,3031.0,0.097,-0.03,-0.577,-0.81
1179744,1083.0,7826.0,2859.0,0.097,-0.029,-0.578,-0.81
1179760,1165.0,8022.0,2883.0,0.096,-0.028,-0.579,-0.809
1179777,1159.0,8210.0,2861.0,0.094,-0.027,-0.58,-0.809
1179794,1135.0,7924.0,2699.0,0.093,-0.026,-0.579,-0.809
1179811,1203.0,7444.0,2597.0,0.092,-0.025,-0.579,-0.81
1179828,1233.0,7226.0,2591.0,0.091,-0.025,-0.579,-0.81
1179844,1241.0,7112.0,2669.0,0.09,-0.024,-0.579,-0.81
1179870,1175.0,7214.0,2647.0,0.09,-0.024,-0.579,-0.81
1179886,1159.0,7488.0,2691.0,0.09,-0.024,-0.579,-0.81
1179902,1235.0,7590.0,2875.0,0.09,-0.025,-0.579,-0.81
1179918,1157.0,7604.0,2965.0,0.09,-0.025,-0.579,-0.81
1179934,1133.0,7656.0,2967.0,0.091,-0.025,-0.58,-0.809
1179951,1133.0,7636.0,3059.0,0.091,-0.025,-0.58,-0.809
1179968,1151.0,7714.0,3047.0,0.092,-0.024,-0.58,-0.809
1179985,1347.0,7960.0,2953.0,0.092,-0.023,-0.581,-0.808
1180011,1099.0,8080.0,2731.0,0.092,-0.022,-0.582,-0.807
1180028,1173.0,8104.0,2633.0,0.092,-0.021,-0.583,-0.807
1180044,1095.0,8200.0,2563.0,0.092,-0.02,-0.584,-0.806
1180060,1113.0,7992.0,2561.0,0.091,-0.018,-0.585,-0.806
1180077,1171.0,7670.0,2645.0,0.091,-0.017,-0.586,-0.805
1180093,1075.0,7538.0,2763.0,0.09,-0.016,-0.587,-0.804
1180109,999.0,7462.0,2765.0,0.09,-0.014,-0.589,-0.803
1180135,945.0,7592.0,2719.0,0.089,-0.012,-0.591,-0.802
1180152,981.0,7468.0,2753.0,0.089,-0.011,-0.593,-0.8
1180169,955.0,7734.0,2679.0,0.089,-0.009,-0.595,-0.798
1180185,867.0,7652.0,2623.0,0.09,-0.007,-0.597,-0.797
1180201,921.0,7696.0,2545.0,0.091,-0.006,-0.599,-0.796
1180217,631.0,7588.0,2133.0,0.091,-0.004,-0.6,-0.795
1180233,903.0,7550.0,2251.0,0.092,-0.003,-0.601,-0.794
1180259,855.0,7674.0,2221.0,0.093,-0.002,-0.603,-0.792
1180275,971.0,7814.0,1953.0,0.094,-0.0,-0.604,-0.791
1180291,919.0,8020.0,1791.0,0.095,0.0,-0.606,-0.79
1180307,949.0,8090.0,1551.0,0.096,0.001,-0.607,-0.789
1180323,875.0,8274.0,1545.0,0.096,0.001,-0.608,-0.788
1180339,865.0,8114.0,1663.0,0.096,0.001,-0.608,-0.788
1180365,893.0,7882.0,1971.0,0.095,0.001,-0.607,-0.789
1180382,783.0,7870.0,2173.0,0.095,0.0,-0.608,-0.789
1180399,833.0,8058.0,2127.0,0.095,0.0,-0.608,-0.788
1180416,789.0,8012.0,2185.0,0.094,-0.0,-0.608,-0.789
1180433,841.0,8054.0,2209.0,0.093,-0.0,-0.607,-0.789
1180450,837.0,8058.0,2199.0,0.093,-0.001,-0.607,-0.789
1180467,893.0,7886.0,2293.0,0.092,-0.001,-0.606,-0.79
1180484,887.0,7874.0,2349.0,0.091,-0.001,-0.606,-0.79
1180500,917.0,7822.0,2315.0,0.09,-0.002,-0.605,-0.791
1180516,891.0,7828.0,2229.0,0.089,-0.002,-0.605,-0.791
1180542,951.0,7884.0,2141.0,0.089,-0.002,-0.605,-0.791
1180558,853.0,7998.0,2217.0,0.088,-0.002,-0.605,-0.792
1180574,867.0,7954.0,2245.0,0.087,-0.002,-0.604,-0.792
1180590,849.0,7804.0,2219.0,0.086,-0.003,-0.603,-0.793
1180606,827.0,7626.0,2203.0,0.085,-0.003,-0.602,-0.794
1180622,917.0,7612.0,2219.0,0.084,-0.003,-0.602,-0.794
1180648,857.0,7724.0,2245.0,0.084,-0.003,-0.602,-0.794
1180664,881.0,7736.0,2435.0,0.083,-0.003,-0.602,-0.794
1180681,789.0,7814.0,2413.0,0.083,-0.004,-0.603,-0.794
1180697,799.0,7716.0,2293.0,0.083,-0.004,-0.603,-0.794
1180713,821.0,7744.0,2299.0,0.083,-0.004,-0.603,-0.794
1180729,781.0,7942.0,2287.0,0.082,-0.004,-0.603,-0.793
1180755,851.0,8030.0,2341.0,0.082,-0.005,-0.603,-0.793
1180771,805.0,8036.0,2355.0,0.082,-0.005,-0.603,-0.793
1180787,1009.0,7452.0,3319.0,0.082,-0.006,-0.603,-0.793
1180803,1093.0,7764.0,2699.0,0.083,-0.005,-0.603,-0.793
1180819,783.0,8244.0,1939.0,0.083,-0.005,-0.604,-0.793
1180835,763.0,8116.0,2097.0,0.082,-0.005,-0.603,-0.793
1180852,623.0,7854.0,2095.0,0.082,-0.006,-0.603,-0.794
1180878,853.0,7898.0,2163.0,0.081,-0.006,-0.602,-0.794
1180895,839.0,7988.0,2365.0,0.081,-0.006,-0.602,-0.795
1180911,817.0,8198.0,2387.0,0.08,-0.006,-0.601,-0.795
1180927,695.0,8078.0,2361.0,0.079,-0.006,-0.599,-0.797
1180944,625.0,7948.0,2389.0,0.078,-0.006,-0.598,-0.798
1180961,537.0,7758.0,2185.0,0.077,-0.006,-0.596,-0.799
1180977,617.0,7582.0,2447.0,0.076,-0.005,-0.595,-0.8
1181003,663.0,7686.0,2335.0,0.075,-0.006,-0.595,-0.8
1181019,791.0,7590.0,2445.0,0.075,-0.005,-0.594,-0.801
1181035,843.0,7782.0,2495.0,0.074,-0.006,-0.594,-0.801
1181051,851.0,7752.0,2425.0,0.073,-0.006,-0.593,-0.802
1181067,759.0,7762.0,2401.0,0.073,-0.006,-0.593,-0.802
1181083,725.0,7602.0,2463.0,0.072,-0.006,-0.592,-0.802
1181109,769.0,7752.0,2479.0,0.072,-0.006,-0.592,-0.802
1181126,703.0,7820.0,2507.0,0.072,-0.006,-0.592,-0.803
1181142,693.0,7702.0,2563.0,0.071,-0.007,-0.591,-0.803
1181159,775.0,7626.0,2519.0,0.071,-0.007,-0.591,-0.803
1181175,773.0,7752.0,2471.0,0.071,-0.007,-0.591,-0.804
1181192,755.0,7882.0,2439.0,0.071,-0.008,-0.591,-0.803
1181208,741.0,8026.0,2505.0,0.07,-0.008,-0.591,-0.803
1181225,767.0,7960.0,2519.0,0.07,-0.008,-0.591,-0.803
1181242,731.0,7740.0,2437.0,0.07,-0.008,-0.591,-0.803
1181259,671.0,7796.0,2403.0,0.07,-0.009,-0.592,-0.803
1181286,707.0,7796.0,2417.0,0.069,-0.009,-0.591,-0.803
1181302,727.0,7750.0,2545.0,0.069,-0.009,-0.591,-0.803
1181318,739.0,7746.0,2575.0,0.069,-0.009,-0.592,-0.803
1181334,707.0,7796.0,2551.0,0.069,-0.01,-0.592,-0.803
1181351,699.0,7918.0,2521.0,0.069,-0.01,-0.592,-0.803
1181367,671.0,7894.0,2523.0,0.069,-0.01,-0.592,-0.803
1181384,701.0,7884.0,2535.0,0.068,-0.01,-0.592,-0.803
1181401,737.0,7800.0,2587.0,0.068,-0.01,-0.592,-0.803
1181427,-373.0,7050.0,3803.0,0.068,-0.011,-0.592,-0.803
1181444,965.0,7890.0,2921.0,0.068,-0.01,-0.592,-0.803
1181460,707.0,8112.0,2037.0,0.068,-0.011,-0.593,-0.802
1181477,835.0,8166.0,2127.0,0.068,-0.011,-0.593,-0.802
1181494,757.0,7868.0,2173.0,0.068,-0.011,-0.593,-0.802
1181510,759.0,7848.0,2427.0,0.067,-0.011,-0.593,-0.803
1181526,711.0,7806.0,2679.0,0.067,-0.011,-0.593,-0.803
1181542,673.0,7850.0,2595.0,0.067,-0.011,-0.592,-0.803
1181568,695.0,7820.0,2517.0,0.067,-0.011,-0.592,-0.803
1181584,703.0,7882.0,2483.0,0.066,-0.011,-0.592,-0.803
1181600,723.0,7842.0,2395.0,0.066,-0.011,-0.592,-0.803
1181617,741.0,7834.0,2521.0,0.066,-0.011,-0.592,-0.803
1181634,793.0,7826.0,2569.0,0.065,-0.011,-0.591,-0.804
1181651,707.0,7700.0,2523.0,0.065,-0.011,-0.591,-0.804
1181667,825.0,7716.0,2391.0,0.065,-0.012,-0.591,-0.804
1181684,775.0,7748.0,2493.0,0.065,-0.012,-0.591,-0.804
1181711,795.0,7808.0,2423.0,0.064,-0.012,-0.591,-0.804
1181727,923.0,7884.0,2435.0,0.064,-0.012,-0.591,-0.804
1181744,729.0,7884.0,2469.0,0.064,-0.013,-0.591,-0.804
1181760,675.0,7872.0,2547.0,0.064,-0.013,-0.591,-0.804
1181776,665.0,7754.0,2505.0,0.063,-0.013,-0.591,-0.804
1181793,669.0,7718.0,2525.0,0.063,-0.014,-0.591,-0.804
1181810,715.0,7748.0,2497.0,0.063,-0.014,-0.591,-0.804
1181827,769.0,7786.0,2505.0,0.062,-0.015,-0.591,-0.804
1181844,717.0,7804.0,2345.0,0.062,-0.015,-0.59,-0.805
1181870,695.0,7844.0,2471.0,0.062,-0.016,-0.59,-0.805
1181887,725.0,7766.0,2473.0,0.061,-0.016,-0.59,-0.805
1181903,735.0,7838.0,2577.0,0.061,-0.017,-0.59,-0.805
1181919,793.0,7962.0,2507.0,0.061,-0.017,-0.59,-0.805
1181936,801.0,7936.0,2473.0,0.061,-0.018,-0.59,-0.805
1181952,807.0,7850.0,2595.0,0.06,-0.018,-0.59,-0.805
1181968,715.0,7746.0,2627.0,0.06,-0.018,-0.59,-0.805
1181994,673.0,7528.0,2547.0,0.06,-0.019,-0.59,-0.805
1182011,749.0,7712.0,2443.0,0.059,-0.019,-0.591,-0.804
1182027,725.0,7760.0,2411.0,0.059,-0.02,-0.591,-0.804
1182043,785.0,7850.0,2459.0,0.059,-0.02,-0.591,-0.804
1182059,-15.0,7728.0,1765.0,0.059,-0.021,-0.591,-0.804
1182076,947.0,7552.0,2883.0,0.059,-0.021,-0.591,-0.804
1182092,651.0,7978.0,2129.0,0.059,-0.022,-0.592,-0.804
1182109,869.0,8016.0,2191.0,0.059,-0.022,-0.592,-0.804
1182135,725.0,7944.0,2291.0,0.059,-0.023,-0.592,-0.804
1182151,807.0,7796.0,2451.0,0.058,-0.024,-0.591,-0.804
1182167,877.0,7900.0,2627.0,0.058,-0.025,-0.591,-0.804
1182183,827.0,7876.0,2617.0,0.058,-0.025,-0.591,-0.804
1182199,805.0,7786.0,2499.0,0.058,-0.026,-0.591,-0.804
1182216,831.0,7798.0,2543.0,0.058,-0.026,-0.591,-0.804
1182233,763.0,7828.0,2603.0,0.057,-0.027,-0.591,-0.804
1182250,815.0,7838.0,2557.0,0.057,-0.027,-0.59,-0.805
1182276,865.0,7690.0,2523.0,0.057,-0.028,-0.59,-0.805
1182292,1001.0,7726.0,2549.0,0.057,-0.028,-0.59,-0.805
1182308,1059.0,7818.0,2679.0,0.057,-0.029,-0.589,-0.806
1182325,1107.0,7844.0,2593.0,0.057,-0.03,-0.588,-0.806
1182342,909.0,7628.0,2599.0,0.056,-0.03,-0.587,-0.807
1182359,941.0,7834.0,2535.0,0.056,-0.031,-0.587,-0.807
1182375,1119.0,7854.0,2577.0,0.056,-0.031,-0.587,-0.807
1182401,949.0,7998.0,2475.0,0.056,-0.031,-0.588,-0.807
1182417,985.0,8042.0,2585.0,0.056,-0.032,-0.588,-0.807
1182433,883.0,7836.0,2663.0,0.056,-0.032,-0.587,-0.807
1182449,899.0,7622.0,2575.0,0.055,-0.032,-0.587,-0.807
1182466,891.0,7502.0,2531.0,0.055,-0.033,-0.587,-0.807
1182483,919.0,7528.0,2473.0,0.055,-0.033,-0.587,-0.807
1182500,887.0,7646.0,2517.0,0.055,-0.034,-0.586,-0.807
1182516,903.0,7716.0,2553.0,0.055,-0.034,-0.586,-0.808
1182543,927.0,7656.0,2535.0,0.055,-0.035,-0.586,-0.808
1182560,891.0,7670.0,2693.0,0.055,-0.036,-0.586,-0.808
1182577,915.0,7758.0,2735.0,0.055,-0.036,-0.586,-0.807
1182593,939.0,7800.0,2673.0,0.055,-0.037,-0.586,-0.808
1182610,1017.0,7810.0,2537.0,0.055,-0.038,-0.586,-0.807
1182629,995.0,7966.0,2483.0,0.055,-0.038,-0.586,-0.807
1182646,917.0,7952.0,2563.0,0.054,-0.039,-0.586,-0.807
1182663,907.0,7852.0,2611.0,0.054,-0.039,-0.586,-0.808
1182680,903.0,7758.0,2607.0,0.054,-0.04,-0.586,-0.808
1182697,957.0,7706.0,2639.0,0.053,-0.04,-0.585,-0.808
1182714,1085.0,7702.0,2657.0,0.053,-0.04,-0.585,-0.808
1182731,1011.0,7832.0,2581.0,0.053,-0.04,-0.585,-0.808
1182748,1023.0,7840.0,2607.0,0.052,-0.04,-0.585,-0.808
1182765,973.0,7808.0,2625.0,0.052,-0.041,-0.585,-0.808
1182781,1329.0,7188.0,3171.0,0.052,-0.041,-0.585,-0.808
1182808,1097.0,7604.0,2893.0,0.053,-0.041,-0.586,-0.808
1182825,1019.0,8244.0,2205.0,0.053,-0.041,-0.586,-0.808
1182841,977.0,7796.0,2341.0,0.052,-0.042,-0.586,-0.808
1182857,907.0,7788.0,2441.0,0.052,-0.042,-0.585,-0.808
1182873,903.0,7776.0,2575.0,0.052,-0.042,-0.585,-0.808
1182890,927.0,7758.0,2583.0,0.052,-0.042,-0.585,-0.808
1182906,999.0,7712.0,2577.0,0.052,-0.042,-0.585,-0.808
1182932,1033.0,7756.0,2613.0,0.052,-0.041,-0.585,-0.808
1182949,977.0,7638.0,2681.0,0.051,-0.041,-0.585,-0.808
1182966,1063.0,7726.0,2657.0,0.052,-0.041,-0.585,-0.808
1182983,937.0,7768.0,2597.0,0.052,-0.041,-0.585,-0.808
1183000,947.0,7670.0,2543.0,0.052,-0.041,-0.585,-0.808
1183017,855.0,7662.0,2505.0,0.052,-0.042,-0.585,-0.808
1183033,891.0,7698.0,2573.0,0.052,-0.042,-0.585,-0.808
1183049,1055.0,7736.0,2559.0,0.052,-0.042,-0.585,-0.808
1183065,917.0,7710.0,2529.0,0.052,-0.042,-0.585,-0.808
1183082,979.0,7764.0,2549.0,0.051,-0.043,-0.585,-0.809
1183109,977.0,7826.0,2555.0,0.051,-0.043,-0.585,-0.808
1183126,1077.0,7826.0,2557.0,0.051,-0.043,-0.585,-0.808
1183142,1023.0,7812.0,2609.0,0.051,-0.043,-0.585,-0.808
1183159,1027.0,7678.0,2649.0,0.051,-0.043,-0.585,-0.808
1183176,1109.0,7742.0,2601.0,0.051,-0.043,-0.585,-0.808
1183193,949.0,7802.0,2555.0,0.051,-0.043,-0.585,-0.808
1183210,959.0,7790.0,2527.0,0.051,-0.043,-0.585,-0.808
1183227,953.0,7810.0,2549.0,0.05,-0.043,-0.585,-0.808
1183244,981.0,7748.0,2635.0,0.05,-0.043,-0.585,-0.808
1183260,1025.0,7646.0,2639.0,0.05,-0.043,-0.585,-0.808
1183286,1001.0,7620.0,2601.0,0.05,-0.044,-0.586,-0.808
1183302,1113.0,7546.0,2653.0,0.05,-0.044,-0.586,-0.808
1183318,1125.0,7504.0,2623.0,0.05,-0.044,-0.586,-0.807
1183334,1157.0,7440.0,2579.0,0.05,-0.045,-0.587,-0.807
1183350,1089.0,7636.0,2531.0,0.051,-0.045,-0.589,-0.805
1183366,1087.0,8036.0,2447.0,0.051,-0.045,-0.59,-0.804
1183392,1109.0,8170.0,2469.0,0.051,-0.046,-0.591,-0.804
1183409,1057.0,8064.0,2555.0,0.052,-0.046,-0.591,-0.804
1183426,1021.0,7824.0,2507.0,0.052,-0.046,-0.591,-0.804
1183443,981.0,7744.0,2497.0,0.052,-0.046,-0.591,-0.804
1183460,1029.0,7762.0,2501.0,0.052,-0.046,-0.591,-0.804
1183477,1033.0,7798.0,2533.0,0.053,-0.046,-0.591,-0.803
1183493,1039.0,7888.0,2469.0,0.053,-0.046,-0.591,-0.803
1183509,1029.0,7932.0,2511.0,0.053,-0.046,-0.591,-0.803
1183526,993.0,7810.0,2443.0,0.053,-0.046,-0.591,-0.803
1183552,1011.0,7794.0,2495.0,0.053,-0.046,-0.591,-0.803
1183568,1007.0,7724.0,2489.0,0.053,-0.046,-0.591,-0.804
1183584,1079.0,7652.0,2505.0,0.053,-0.046,-0.591,-0.804
1183600,1139.0,7708.0,2559.0,0.054,-0.046,-0.591,-0.804
1183616,1231.0,7618.0,2519.0,0.054,-0.046,-0.591,-0.804
1183632,1221.0,7538.0,2495.0,0.054,-0.046,-0.591,-0.803
1183649,1261.0,7494.0,2461.0,0.055,-0.046,-0.592,-0.803
1183666,1225.0,7358.0,2401.0,0.056,-0.046,-0.593,-0.802
1183692,1205.0,7668.0,2329.0,0.056,-0.047,-0.594,-0.801
1183708,1199.0,8164.0,2259.0,0.057,-0.047,-0.595,-0.8
1183724,1193.0,8332.0,2281.0,0.058,-0.047,-0.596,-0.8
1183740,1187.0,8206.0,2345.0,0.058,-0.047,-0.595,-0.8
1183757,1241.0,7974.0,2385.0,0.058,-0.047,-0.595,-0.8
1183774,1163.0,7786.0,2469.0,0.059,-0.047,-0.594,-0.801
1183790,1193.0,7742.0,2541.0,0.059,-0.047,-0.594,-0.801
1183817,1213.0,7712.0,2541.0,0.059,-0.047,-0.593,-0.801
1183833,1171.0,7830.0,2505.0,0.059,-0.047,-0.593,-0.802
1183849,1153.0,7874.0,2483.0,0.059,-0.046,-0.593,-0.802
1183866,1143.0,7794.0,2471.0,0.059,-0.046,-0.593,-0.802
1183883,1089.0,7886.0,2385.0,0.059,-0.046,-0.592,-0.802
1183899,1005.0,7846.0,2431.0,0.06,-0.046,-0.592,-0.802
1183916,1015.0,7754.0,2387.0,0.059,-0.045,-0.592,-0.803
1183933,1029.0,7746.0,2447.0,0.059,-0.045,-0.592,-0.803
1183959,951.0,7804.0,2433.0,0.059,-0.045,-0.591,-0.803
1183975,963.0,7756.0,2345.0,0.059,-0.045,-0.591,-0.803
1183992,935.0,7878.0,2315.0,0.059,-0.045,-0.591,-0.803
1184009,923.0,7902.0,2265.0,0.058,-0.045,-0.59,-0.804
1184026,995.0,7802.0,2329.0,0.058,-0.045,-0.59,-0.804
1184043,1063.0,7730.0,2487.0,0.057,-0.046,-0.59,-0.804
1184059,1011.0,7736.0,2459.0,0.057,-0.046,-0.59,-0.804
1184075,1049.0,7680.0,2569.0,0.056,-0.046,-0.589,-0.805
1184091,1055.0,7790.0,2559.0,0.056,-0.046,-0.589,-0.805
1184118,1099.0,7830.0,2513.0,0.056,-0.046,-0.589,-0.805
1184134,1115.0,7946.0,2513.0,0.055,-0.046,-0.589,-0.805
1184150,1113.0,7812.0,2565.0,0.054,-0.047,-0.589,-0.805
1184166,1111.0,7746.0,2615.0,0.054,-0.046,-0.589,-0.805
1184183,1097.0,7706.0,2531.0,0.053,-0.046,-0.588,-0.805
1184199,1033.0,7696.0,2569.0,0.053,-0.046,-0.588,-0.806
1184216,1073.0,7714.0,2503.0,0.052,-0.046,-0.588,-0.806
1184233,1027.0,7708.0,2565.0,0.052,-0.046,-0.588,-0.806
1184259,1051.0,7760.0,2557.0,0.052,-0.046,-0.588,-0.806
1184276,1051.0,7716.0,2599.0,0.051,-0.046,-0.587,-0.806
1184292,997.0,7696.0,2607.0,0.051,-0.046,-0.587,-0.807
1184308,1033.0,7732.0,2619.0,0.051,-0.046,-0.587,-0.807
1184325,959.0,7720.0,2567.0,0.051,-0.046,-0.586,-0.807
1184342,1025.0,7760.0,2539.0,0.05,-0.046,-0.586,-0.807
1184359,959.0,7740.0,2471.0,0.05,-0.047,-0.586,-0.808
1184375,973.0,7794.0,2509.0,0.05,-0.047,-0.585,-0.808
1184392,975.0,7694.0,2481.0,0.049,-0.047,-0.585,-0.808
1184419,1003.0,7740.0,2483.0,0.049,-0.047,-0.585,-0.808
1184435,963.0,7742.0,2597.0,0.048,-0.047,-0.585,-0.808
1184451,995.0,7748.0,2565.0,0.048,-0.047,-0.585,-0.808
1184467,1015.0,7694.0,2589.0,0.048,-0.048,-0.585,-0.808
1184483,959.0,7652.0,2565.0,0.047,-0.048,-0.585,-0.808
1184499,993.0,7590.0,2653.0,0.047,-0.048,-0.585,-0.808
1184516,1025.0,7726.0,2627.0,0.047,-0.049,-0.586,-0.808
1184543,1013.0,7766.0,2599.0,0.046,-0.049,-0.586,-0.808
1184560,957.0,7854.0,2511.0,0.046,-0.05,-0.586,-0.807
1184577,1053.0,7810.0,2687.0,0.045,-0.05,-0.586,-0.807
1184594,1075.0,7710.0,2655.0,0.045,-0.05,-0.586,-0.807
1184611,1051.0,7640.0,2629.0,0.044,-0.051,-0.586,-0.807
1184629,1021.0,7606.0,2633.0,0.044,-0.051,-0.586,-0.807
1184646,1063.0,7690.0,2543.0,0.044,-0.051,-0.586,-0.807
1184663,971.0,7808.0,2525.0,0.044,-0.052,-0.587,-0.807
1184680,1031.0,7896.0,2497.0,0.043,-0.052,-0.587,-0.807
1184697,1017.0,7820.0,2537.0,0.043,-0.052,-0.587,-0.807
1184714,1083.0,7674.0,2611.0,0.043,-0.052,-0.587,-0.807
1184731,517.0,7472.0,2245.0,0.043,-0.052,-0.587,-0.807
1184748,1077.0,7516.0,2709.0,0.043,-0.053,-0.588,-0.806
1184764,1135.0,7898.0,2455.0,0.043,-0.053,-0.588,-0.806
1184790,1087.0,7912.0,2427.0,0.043,-0.054,-0.588,-0.806
1184806,1007.0,7790.0,2447.0,0.043,-0.054,-0.588,-0.806
1184823,1117.0,7844.0,2439.0,0.043,-0.055,-0.588,-0.806
1184840,1043.0,7868.0,2509.0,0.043,-0.055,-0.588,-0.806
1184857,1027.0,7788.0,2581.0,0.042,-0.055,-0.588,-0.806
1184874,1079.0,7764.0,2517.0,0.042,-0.056,-0.588,-0.806
1184890,1075.0,7748.0,2501.0,0.042,-0.056,-0.588,-0.806
1184907,1085.0,7794.0,2497.0,0.042,-0.056,-0.588,-0.806
1184924,1113.0,7866.0,2479.0,0.042,-0.057,-0.588,-0.806
1184941,1135.0,7906.0,2473.0,0.042,-0.057,-0.587,-0.806
1184967,1111.0,7852.0,2483.0,0.042,-0.058,-0.587,-0.806
1184983,1193.0,7846.0,2495.0,0.041,-0.058,-0.587,-0.807
1184999,1119.0,7846.0,2545.0,0.041,-0.058,-0.587,-0.807
1185016,1185.0,7826.0,2543.0,0.04,-0.058,-0.586,-0.807
1185032,1225.0,7758.0,2531.0,0.04,-0.059,-0.586,-0.807
1185049,1199.0,7680.0,2611.0,0.04,-0.059,-0.586,-0.807
1185066,1105.0,7734.0,2571.0,0.039,-0.059,-0.586,-0.807
1185082,1091.0,7680.0,2615.0,0.039,-0.059,-0.585,-0.808
1185109,1111.0,7674.0,2583.0,0.039,-0.059,-0.585,-0.808
1185125,995.0,7860.0,2555.0,0.039,-0.059,-0.585,-0.808
1185142,959.0,7840.0,2589.0,0.038,-0.059,-0.585,-0.808
1185158,1101.0,7770.0,2593.0,0.038,-0.06,-0.585,-0.808
1185174,1073.0,7718.0,2657.0,0.037,-0.06,-0.585,-0.808
1185191,1201.0,7680.0,2597.0,0.037,-0.059,-0.585,-0.808
1185208,1081.0,7748.0,2667.0,0.037,-0.059,-0.586,-0.808
1185224,1053.0,7686.0,2589.0,0.037,-0.059,-0.586,-0.807
1185251,1163.0,7734.0,2533.0,0.037,-0.059,-0.586,-0.807
1185267,1111.0,7750.0,2485.0,0.036,-0.059,-0.587,-0.807
1185283,1125.0,7816.0,2519.0,0.036,-0.06,-0.588,-0.806
1185299,977.0,7792.0,2523.0,0.036,-0.06,-0.588,-0.806
1185315,937.0,7688.0,2509.0,0.035,-0.06,-0.589,-0.805
1185332,907.0,7672.0,2597.0,0.035,-0.06,-0.589,-0.805
1185349,847.0,7740.0,2703.0,0.034,-0.06,-0.589,-0.805
1185375,867.0,7736.0,2737.0,0.034,-0.06,-0.589,-0.805
1185392,929.0,7634.0,2705.0,0.034,-0.059,-0.589,-0.805
1185409,925.0,7744.0,2593.0,0.034,-0.059,-0.589,-0.805
1185426,1011.0,7758.0,2565.0,0.033,-0.059,-0.59,-0.805
1185442,1111.0,7820.0,2555.0,0.033,-0.058,-0.59,-0.804
1185459,1119.0,7874.0,2559.0,0.034,-0.058,-0.591,-0.804
1185475,1117.0,7964.0,2433.0,0.034,-0.057,-0.592,-0.803
1185492,1105.0,7988.0,2415.0,0.034,-0.056,-0.593,-0.802
1185508,1261.0,7902.0,2477.0,0.034,-0.055,-0.595,-0.801
1185525,1243.0,7864.0,2417.0,0.034,-0.054,-0.597,-0.8
1185551,1217.0,8050.0,2377.0,0.034,-0.053,-0.599,-0.799
1185567,1137.0,8094.0,2261.0,0.033,-0.052,-0.6,-0.797
1185583,1037.0,7940.0,2189.0,0.033,-0.05,-0.602,-0.796
1185599,979.0,7894.0,2145.0,0.033,-0.049,-0.604,-0.795
1185615,899.0,7880.0,2113.0,0.033,-0.048,-0.605,-0.794
1185632,833.0,7754.0,2155.0,0.033,-0.047,-0.607,-0.793
1185649,829.0,7788.0,2137.0,0.033,-0.046,-0.609,-0.791
1185675,843.0,7600.0,2157.0,0.033,-0.046,-0.61,-0.79
1185692,795.0,7542.0,2079.0,0.033,-0.045,-0.612,-0.789
1185709,871.0,7496.0,1993.0,0.033,-0.045,-0.614,-0.787
1185726,907.0,7552.0,1789.0,0.034,-0.044,-0.616,-0.785
1185742,981.0,7802.0,1857.0,0.034,-0.044,-0.619,-0.784
1185758,969.0,7856.0,1865.0,0.035,-0.045,-0.621,-0.782
1185775,937.0,7792.0,1803.0,0.036,-0.045,-0.623,-0.78
1185791,893.0,7758.0,1965.0,0.037,-0.045,-0.625,-0.778
1185817,827.0,7666.0,2057.0,0.039,-0.046,-0.628,-0.776
1185833,857.0,7684.0,2063.0,0.04,-0.046,-0.631,-0.774
1185849,817.0,7688.0,1567.0,0.042,-0.047,-0.634,-0.771
1185865,937.0,8076.0,1563.0,0.043,-0.047,-0.638,-0.768
1185882,693.0,8238.0,1653.0,0.045,-0.046,-0.641,-0.765
1185899,575.0,8048.0,1697.0,0.047,-0.046,-0.644,-0.762
1185915,513.0,7664.0,1729.0,0.049,-0.045,-0.647,-0.759
1185932,521.0,7648.0,1747.0,0.051,-0.044,-0.651,-0.756
1185958,381.0,7646.0,1531.0,0.053,-0.043,-0.655,-0.753
1185975,303.0,7402.0,1303.0,0.056,-0.042,-0.659,-0.749
1185992,311.0,7216.0,1233.0,0.059,-0.041,-0.664,-0.745
1186009,361.0,7198.0,1187.0,0.062,-0.04,-0.669,-0.74
1186026,331.0,7400.0,1053.0,0.067,-0.038,-0.674,-0.734
1186043,177.0,7572.0,957.0,0.071,-0.038,-0.68,-0.729
1186060,51.0,7728.0,681.0,0.076,-0.037,-0.685,-0.724
1186077,33.0,7984.0,523.0,0.08,-0.037,-0.69,-0.719
1186094,-1.0,8384.0,371.0,0.084,-0.037,-0.694,-0.714
1186111,57.0,8838.0,267.0,0.088,-0.038,-0.699,-0.709
1186128,207.0,9334.0,439.0,0.091,-0.04,-0.702,-0.705
1186155,503.0,9722.0,513.0,0.093,-0.042,-0.704,-0.703
1186171,983.0,9724.0,515.0,0.094,-0.043,-0.705,-0.702
1186187,1447.0,10230.0,785.0,0.094,-0.043,-0.705,-0.701
1186204,2055.0,10510.0,867.0,0.094,-0.043,-0.705,-0.702
1186220,2155.0,10508.0,807.0,0.093,-0.041,-0.705,-0.702
1186236,2101.0,10770.0,483.0,0.091,-0.038,-0.705,-0.703
1186252,1857.0,10990.0,245.0,0.088,-0.034,-0.704,-0.703
1186268,1705.0,11068.0,107.0,0.084,-0.029,-0.703,-0.705
1186294,1719.0,10640.0,177.0,0.079,-0.024,-0.701,-0.709
1186312,1861.0,9736.0,423.0,0.072,-0.019,-0.696,-0.714
1186329,1927.0,8726.0,655.0,0.064,-0.014,-0.69,-0.72
1186346,2005.0,8184.0,727.0,0.057,-0.01,-0.684,-0.727
1186363,1989.0,7956.0,791.0,0.049,-0.007,-0.677,-0.734
1186380,1929.0,7816.0,661.0,0.041,-0.004,-0.67,-0.742
1186397,2047.0,7654.0,535.0,0.033,-0.002,-0.661,-0.75
1186414,2041.0,7426.0,533.0,0.025,-0.001,-0.652,-0.758
1186431,2035.0,7200.0,633.0,0.018,-0.0,-0.642,-0.766
1186448,1903.0,6834.0,569.0,0.011,0.001,-0.633,-0.774
1186465,1671.0,6746.0,419.0,0.004,0.001,-0.623,-0.782
1186482,1343.0,6898.0,187.0,0.003,-0.002,0.614,0.789
1186498,1237.0,6916.0,97.0,0.01,-0.002,0.606,0.796
1186525,989.0,6072.0,513.0,0.014,-0.002,0.599,0.8
1186542,439.0,6696.0,587.0,0.016,-0.002,0.596,0.803
1186559,271.0,7144.0,431.0,0.017,-0.0,0.592,0.806
1186576,373.0,7128.0,457.0,0.018,0.001,0.587,0.809
1186592,477.0,6814.0,601.0,0.018,0.003,0.583,0.812
1186609,69.0,8392.0,633.0,0.019,0.006,0.581,0.813
1186625,41.0,8368.0,803.0,0.022,0.008,0.58,0.814
1186641,-377.0,8796.0,913.0,0.025,0.01,0.578,0.815
1186658,-677.0,8266.0,1269.0,0.028,0.012,0.576,0.817
1186685,-583.0,8268.0,1673.0,0.033,0.015,0.573,0.819
1186701,-651.0,8514.0,2021.0,0.038,0.019,0.571,0.82
1186717,-845.0,9356.0,1967.0,0.042,0.023,0.565,0.823
1186733,-253.0,8014.0,2529.0,0.048,0.027,0.556,0.829
1186749,-243.0,7388.0,2897.0,0.054,0.032,0.547,0.835
1186765,-125.0,7138.0,3351.0,0.061,0.038,0.54,0.838
1186791,-193.0,7390.0,3533.0,0.069,0.043,0.536,0.84
1186808,-259.0,7762.0,3647.0,0.077,0.048,0.535,0.84
1186824,-195.0,8308.0,3765.0,0.085,0.053,0.534,0.84
1186840,-333.0,8660.0,3831.0,0.094,0.058,0.532,0.84
1186857,-421.0,8642.0,3875.0,0.103,0.063,0.528,0.84
1186874,-377.0,8350.0,3933.0,0.112,0.067,0.523,0.842
1186891,-489.0,7910.0,4051.0,0.121,0.071,0.518,0.844
1186908,-445.0,7764.0,4155.0,0.13,0.075,0.513,0.845
1186925,-411.0,7938.0,4165.0,0.138,0.079,0.509,0.846
1186951,-417.0,8270.0,4101.0,0.147,0.082,0.505,0.847
1186967,-381.0,8514.0,4163.0,0.156,0.084,0.501,0.847
1186983,-197.0,8394.0,4305.0,0.165,0.086,0.496,0.848
1186999,-97.0,8210.0,4359.0,0.175,0.088,0.492,0.848
1187015,-127.0,8064.0,4429.0,0.185,0.089,0.488,0.849
1187031,-171.0,7892.0,4529.0,0.195,0.089,0.484,0.849
1187048,-265.0,7680.0,4627.0,0.206,0.089,0.48,0.848
1187074,-455.0,7312.0,4617.0,0.217,0.088,0.476,0.848
1187090,-609.0,7190.0,4597.0,0.227,0.086,0.472,0.848
1187106,-823.0,7166.0,4609.0,0.237,0.085,0.468,0.847
1187122,-953.0,7456.0,4613.0,0.248,0.084,0.463,0.847
1187138,-943.0,7722.0,4673.0,0.258,0.082,0.457,0.847
1187164,-939.0,7590.0,4813.0,0.268,0.08,0.449,0.848
1187181,-833.0,7468.0,5005.0,0.279,0.078,0.441,0.85
1187197,-611.0,7468.0,5203.0,0.29,0.076,0.432,0.851
1187214,-479.0,7312.0,5419.0,0.3,0.073,0.423,0.852
1187231,-279.0,7210.0,5623.0,0.311,0.071,0.413,0.853
1187247,-117.0,6960.0,5807.0,0.321,0.067,0.404,0.854
1187264,75.0,6616.0,5819.0,0.331,0.064,0.395,0.855
1187281,147.0,6196.0,5757.0,0.34,0.059,0.386,0.856
1187297,141.0,5672.0,5679.0,0.349,0.054,0.377,0.856
1187314,21.0,5360.0,5511.0,0.357,0.048,0.37,0.856
1187331,-303.0,5180.0,5411.0,0.364,0.043,0.363,0.857
1187357,-475.0,5020.0,5233.0,0.37,0.037,0.356,0.857
1187373,-785.0,4848.0,5193.0,0.376,0.031,0.35,0.857
1187389,-1143.0,4834.0,5245.0,0.381,0.025,0.343,0.858
1187405,-1345.0,5058.0,5363.0,0.386,0.021,0.335,0.859
1187421,-1363.0,5332.0,5519.0,0.39,0.017,0.327,0.861
1187438,-1209.0,5542.0,5653.0,0.393,0.013,0.316,0.863
1187454,-1069.0,5700.0,5953.0,0.397,0.009,0.305,0.866
1187480,-1017.0,5670.0,6307.0,0.4,0.005,0.293,0.868
1187496,-915.0,5930.0,6665.0,0.404,0.001,0.28,0.871
1187513,-813.0,6296.0,7019.0,0.408,-0.004,0.266,0.873
1187529,-617.0,6278.0,7369.0,0.413,-0.01,0.25,0.876
1187545,-521.0,5908.0,7731.0,0.417,-0.017,0.233,0.878
1187571,-355.0,5306.0,7849.0,0.422,-0.027,0.214,0.881
1187587,-151.0,4724.0,7765.0,0.426,-0.038,0.195,0.883
1187603,-211.0,4026.0,7675.0,0.429,-0.05,0.176,0.884
1187620,-373.0,3392.0,7885.0,0.432,-0.064,0.156,0.886
1187636,-327.0,3076.0,7875.0,0.435,-0.079,0.134,0.887
1187652,-55.0,2208.0,7549.0,0.436,-0.096,0.112,0.888
1187668,57.0,1288.0,7083.0,0.435,-0.116,0.09,0.888
1187684,-51.0,472.0,6735.0,0.433,-0.135,0.07,0.888
1187710,-567.0,-64.0,6623.0,0.431,-0.155,0.054,0.887
1187727,-677.0,100.0,6525.0,0.429,-0.174,0.042,0.885
1187744,-905.0,340.0,6325.0,0.428,-0.192,0.032,0.883
1187761,-955.0,352.0,6037.0,0.427,-0.21,0.023,0.879
1187778,-1041.0,214.0,5871.0,0.426,-0.228,0.015,0.875
1187795,-1153.0,18.0,5719.0,0.425,-0.246,0.007,0.871
1187812,-1087.0,-174.0,5705.0,0.425,-0.264,-0.001,0.866
1187829,-1087.0,-436.0,5537.0,0.424,-0.282,-0.009,0.861
1187846,-965.0,-610.0,5249.0,0.424,-0.3,-0.018,0.855
1187863,-957.0,-906.0,5069.0,0.424,-0.318,-0.027,0.848
1187880,-795.0,-1286.0,4945.0,0.424,-0.337,-0.037,0.84
1187897,-801.0,-1888.0,4601.0,0.424,-0.356,-0.049,0.831
1187924,-825.0,-2612.0,4271.0,0.424,-0.376,-0.062,0.822
1187941,-1043.0,-3136.0,4087.0,0.424,-0.395,-0.075,0.812
1187957,-1439.0,-3646.0,3811.0,0.424,-0.414,-0.089,0.801
1187974,-1973.0,-4156.0,3725.0,0.423,-0.433,-0.103,0.789
1187991,-2343.0,-4746.0,3949.0,0.422,-0.451,-0.117,0.778
1188008,-1601.0,-5756.0,4225.0,0.421,-0.469,-0.131,0.765
1188025,-927.0,-7366.0,4273.0,0.42,-0.486,-0.146,0.752
1188042,-1611.0,-9150.0,3599.0,0.42,-0.504,-0.155,0.738
1188059,-2709.0,-9914.0,2915.0,0.424,-0.52,-0.158,0.724
1188076,-4209.0,-9526.0,2321.0,0.432,-0.534,-0.155,0.71
1188093,-6049.0,-9006.0,1537.0,0.442,-0.547,-0.15,0.695
1188110,-7203.0,-8752.0,1001.0,0.453,-0.557,-0.145,0.681
1188127,-7755.0,-8722.0,533.0,0.464,-0.565,-0.143,0.667
1188154,-7571.0,-8018.0,-167.0,0.474,-0.573,-0.143,0.653
1188171,-6925.0,-7228.0,-685.0,0.479,-0.582,-0.148,0.64
1188187,-6623.0,-7642.0,-885.0,0.479,-0.593,-0.158,0.627
1188204,-6123.0,-8658.0,-923.0,0.472,-0.607,-0.173,0.616
1188221,-5289.0,-9410.0,-1283.0,0.46,-0.621,-0.19,0.605
1188238,-5709.0,-10448.0,-1553.0,0.446,-0.635,-0.205,0.597
1188255,-5857.0,-10016.0,-1965.0,0.431,-0.647,-0.216,0.59
1188272,-5751.0,-9314.0,-2183.0,0.418,-0.659,-0.225,0.584
1188288,-5391.0,-8268.0,-2575.0,0.406,-0.669,-0.231,0.578
1188305,-5373.0,-7318.0,-2851.0,0.396,-0.678,-0.236,0.572
1188322,-5585.0,-6544.0,-3357.0,0.386,-0.687,-0.241,0.566
1188339,-6045.0,-6338.0,-3769.0,0.375,-0.696,-0.246,0.56
1188366,-6145.0,-6198.0,-3395.0,0.364,-0.705,-0.253,0.554
1188383,-5847.0,-6160.0,-3209.0,0.351,-0.713,-0.26,0.548
1188400,-5823.0,-6226.0,-3037.0,0.337,-0.721,-0.267,0.543
1188417,-5869.0,-6052.0,-2797.0,0.323,-0.729,-0.273,0.539
1188433,-5979.0,-5754.0,-2629.0,0.309,-0.736,-0.278,0.535
1188449,-5763.0,-5432.0,-2581.0,0.296,-0.743,-0.281,0.531
1188466,-5817.0,-4848.0,-2339.0,0.284,-0.749,-0.283,0.527
1188482,-5771.0,-4132.0,-2137.0,0.274,-0.755,-0.284,0.524
1188508,-5867.0,-3382.0,-1801.0,0.263,-0.761,-0.286,0.52
1188525,-5505.0,-3268.0,-1949.0,0.253,-0.766,-0.29,0.515
1188542,-5369.0,-3460.0,-2023.0,0.242,-0.771,-0.294,0.51
1188560,-5327.0,-3712.0,-2073.0,0.233,-0.777,-0.298,0.504
1188577,-5441.0,-3984.0,-2215.0,0.227,-0.781,-0.303,0.497
1188594,-5437.0,-4286.0,-2493.0,0.222,-0.785,-0.308,0.489
1188611,-5549.0,-4544.0,-2877.0,0.219,-0.788,-0.313,0.482
1188628,-5507.0,-4710.0,-3163.0,0.216,-0.792,-0.319,0.474
1188645,-5321.0,-4462.0,-3467.0,0.213,-0.795,-0.325,0.467
1188662,-5089.0,-4482.0,-3747.0,0.209,-0.798,-0.332,0.458
1188679,-4945.0,-5222.0,-3895.0,0.202,-0.802,-0.34,0.447
1188696,-4793.0,-6086.0,-4355.0,0.195,-0.806,-0.35,0.435
1188713,-4745.0,-7226.0,-4717.0,0.187,-0.811,-0.359,0.423
1188730,-5025.0,-8026.0,-5183.0,0.179,-0.816,-0.366,0.41
1188747,-5513.0,-8094.0,-5895.0,0.17,-0.82,-0.372,0.4
1188764,-5401.0,-7930.0,-7033.0,0.16,-0.825,-0.375,0.392
1188791,-5535.0,-6540.0,-7547.0,0.149,-0.829,-0.376,0.386
1188808,-5225.0,-5738.0,-7329.0,0.134,-0.834,-0.376,0.38
1188825,-5603.0,-6500.0,-7749.0,0.118,-0.84,-0.374,0.375
1188842,-5705.0,-5634.0,-8815.0,0.104,-0.844,-0.371,0.374
1188859,-5595.0,-3960.0,-9173.0,0.09,-0.847,-0.367,0.374
1188876,-5447.0,-1906.0,-8483.0,0.073,-0.849,-0.363,0.376
1188894,-5485.0,-1820.0,-8043.0,0.055,-0.85,-0.361,0.38
1188911,-5165.0,-1940.0,-7859.0,0.039,-0.849,-0.358,0.385
1188928,-4853.0,-1926.0,-7713.0,0.026,-0.848,-0.355,0.393
1188945,-4005.0,-1962.0,-7567.0,0.015,-0.846,-0.353,0.401
1188962,-4117.0,-1330.0,-6943.0,0.004,-0.843,-0.352,0.406
1188979,-4785.0,-1330.0,-6281.0,0.009,0.841,0.352,-0.41
1188996,6389.0,110.0,6005.0,0.018,0.842,0.356,-0.404
1189012,-5661.0,-8250.0,-1313.0,0.015,0.844,0.363,-0.395
1189039,-2957.0,-1808.0,-2861.0,0.005,0.847,0.357,-0.394
1189056,-5695.0,-4746.0,-4537.0,0.001,-0.85,-0.35,0.394
1189073,-3599.0,-2036.0,-7079.0,0.005,-0.851,-0.346,0.395
1189090,-2235.0,4778.0,-7509.0,0.01,-0.849,-0.346,0.398
1189107,-5113.0,-2156.0,-5475.0,0.008,-0.847,-0.348,0.401
1189124,-6367.0,-5340.0,-4115.0,0.008,-0.845,-0.348,0.406
1189141,-6671.0,-3898.0,-3395.0,0.01,-0.842,-0.347,0.414
1189158,-6585.0,-3646.0,-4501.0,0.01,-0.837,-0.346,0.424
1189175,-6573.0,-2780.0,-5247.0,0.01,-0.832,-0.345,0.435
1189192,-6141.0,-2584.0,-5753.0,0.008,-0.826,-0.344,0.447
1189209,-5125.0,-1538.0,-6217.0,0.005,-0.819,-0.342,0.46
1189226,-4435.0,-1960.0,-6173.0,0.002,-0.814,-0.341,0.47
1189243,-4539.0,-1234.0,-5669.0,0.003,0.81,0.34,-0.477
1189260,-4351.0,-1100.0,-5773.0,0.008,0.807,0.34,-0.483
1189287,-3815.0,684.0,-6173.0,0.014,0.806,0.341,-0.483
1189303,-3747.0,1660.0,-6471.0,0.022,0.808,0.344,-0.478
1189320,-3235.0,3524.0,-7303.0,0.032,0.812,0.35,-0.465
1189337,-5979.0,640.0,-7441.0,0.045,0.817,0.359,-0.449
1189354,-5341.0,-1554.0,-6703.0,0.056,0.822,0.364,-0.433
1189371,-8045.0,-1592.0,-5671.0,0.066,0.826,0.37,-0.42
1189388,-8101.0,-6254.0,-4891.0,0.074,0.827,0.379,-0.409
1189405,-6945.0,-8060.0,-4489.0,0.068,0.83,0.379,-0.404
1189422,-9575.0,-7550.0,-4333.0,0.055,0.834,0.374,-0.401
1189439,-8009.0,-578.0,-3359.0,0.045,0.837,0.371,-0.399
1189456,-6357.0,2650.0,-5537.0,0.041,0.839,0.37,-0.396
1189473,-5293.0,-724.0,-5263.0,0.042,0.84,0.372,-0.393
1189490,-5069.0,-2110.0,-5089.0,0.042,0.84,0.375,-0.39
1189516,-5403.0,684.0,-5495.0,0.04,0.839,0.379,-0.389
1189532,-6087.0,1120.0,-5301.0,0.04,0.836,0.385,-0.389
1189548,-6321.0,-2182.0,-4931.0,0.041,0.833,0.391,-0.39
1189565,-7917.0,-10224.0,-6557.0,0.043,0.831,0.394,-0.392
1189581,-7605.0,-12900.0,-6719.0,0.039,0.831,0.388,-0.396
1189597,-7901.0,-1444.0,-3693.0,0.031,0.833,0.381,-0.401
1189614,-5331.0,10278.0,-4835.0,0.028,0.831,0.38,-0.404
1189640,-3151.0,-6616.0,-4519.0,0.036,0.83,0.38,-0.406
1189657,-4115.0,-6030.0,-6411.0,0.032,0.83,0.377,-0.41
1189673,-5117.0,2154.0,-6333.0,0.031,0.831,0.374,-0.412
1189690,-5771.0,-2794.0,-5589.0,0.033,0.83,0.372,-0.414
1189707,-5939.0,-2670.0,-5829.0,0.033,0.83,0.371,-0.416
1189724,-5619.0,-2254.0,-5585.0,0.034,0.829,0.369,-0.419
1189741,-5761.0,-2116.0,-6417.0,0.034,0.828,0.369,-0.421
1189757,-6253.0,-2304.0,-5901.0,0.034,0.828,0.368,-0.422
1189774,-6909.0,-2992.0,-5985.0,0.035,0.828,0.366,-0.423
1189800,-7511.0,-2484.0,-6065.0,0.036,0.828,0.364,-0.425
1189816,-6271.0,-2756.0,-6581.0,0.037,0.828,0.361,-0.427
1189832,-6947.0,-2398.0,-5859.0,0.038,0.829,0.359,-0.428
1189849,-7003.0,-1888.0,-6403.0,0.039,0.828,0.357,-0.43
1189865,-7173.0,-2674.0,-5885.0,0.041,0.828,0.354,-0.432
1189881,-7249.0,-1968.0,-5621.0,0.044,0.828,0.351,-0.436
1189897,-6845.0,-2516.0,-6139.0,0.046,0.827,0.348,-0.44
1189923,-6631.0,-2160.0,-5801.0,0.049,0.826,0.345,-0.444
1189940,-7061.0,-1866.0,-5241.0,0.05,0.824,0.342,-0.449
1189957,-6771.0,-1834.0,-5587.0,0.053,0.822,0.339,-0.454
1189974,-6773.0,-1176.0,-5067.0,0.057,0.82,0.336,-0.46
1189990,-6883.0,-1674.0,-4841.0,0.061,0.817,0.332,-0.467
1190007,-5959.0,-1426.0,-5711.0,0.065,0.815,0.329,-0.473
1190023,-6075.0,-614.0,-4977.0,0.069,0.812,0.325,-0.479
1190040,-5969.0,-1794.0,-4957.0,0.073,0.81,0.322,-0.484
1190056,-5717.0,-1414.0,-5223.0,0.076,0.808,0.318,-0.489
1190083,-6277.0,-1158.0,-4493.0,0.078,0.807,0.315,-0.494
1190099,-6245.0,-1140.0,-4341.0,0.081,0.805,0.311,-0.499
1190115,-6133.0,-832.0,-4455.0,0.083,0.803,0.307,-0.504
1190132,-6155.0,-1180.0,-4075.0,0.086,0.801,0.304,-0.508
1190148,-6421.0,-1386.0,-3881.0,0.088,0.8,0.3,-0.513
1190165,-6091.0,-1922.0,-3953.0,0.089,0.798,0.297,-0.517
1190181,-5845.0,-1136.0,-4085.0,0.091,0.796,0.294,-0.521
1190207,-6657.0,-968.0,-3469.0,0.092,0.795,0.291,-0.525
1190224,-6607.0,-1892.0,-3111.0,0.093,0.792,0.288,-0.53
1190241,-6655.0,-1628.0,-2945.0,0.094,0.79,0.286,-0.535
1190257,-6155.0,-1620.0,-3203.0,0.096,0.787,0.284,-0.54
1190274,-6017.0,-1070.0,-3223.0,0.098,0.784,0.282,-0.544
1190291,-6107.0,-2216.0,-3155.0,0.099,0.782,0.281,-0.548
1190308,-6473.0,-976.0,-2993.0,0.1,0.78,0.28,-0.551
1190325,-6535.0,-1282.0,-2709.0,0.101,0.778,0.278,-0.554
1190341,-6473.0,-2542.0,-3055.0,0.102,0.776,0.278,-0.557
1190358,-7407.0,-652.0,-2559.0,0.101,0.774,0.276,-0.56
1190384,-7287.0,-1540.0,-2353.0,0.102,0.772,0.276,-0.564
1190400,-7603.0,-992.0,-2545.0,0.103,0.769,0.275,-0.567
1190417,-7425.0,-2016.0,-2619.0,0.104,0.767,0.275,-0.571
1190434,-7687.0,-1074.0,-2363.0,0.105,0.764,0.275,-0.574
1190450,-8073.0,-1160.0,-2249.0,0.105,0.762,0.274,-0.577
1190467,-7575.0,-1780.0,-2325.0,0.106,0.76,0.274,-0.58
1190483,-7815.0,-1358.0,-2373.0,0.106,0.758,0.274,-0.582
1190500,-7921.0,-1506.0,-2235.0,0.105,0.757,0.273,-0.584
1190517,-8035.0,-888.0,-1937.0,0.105,0.756,0.273,-0.585
1190534,-7737.0,-1440.0,-1673.0,0.105,0.755,0.272,-0.587
1190560,-7333.0,-1328.0,-2107.0,0.105,0.754,0.272,-0.589
1190576,-6959.0,-1422.0,-1929.0,0.105,0.753,0.271,-0.591
1190593,-6483.0,-878.0,-1737.0,0.105,0.752,0.271,-0.592
1190609,-6229.0,-984.0,-1869.0,0.105,0.751,0.271,-0.594
1190626,-5681.0,-504.0,-1683.0,0.105,0.749,0.271,-0.595
1190642,-4473.0,-1022.0,-1501.0,0.106,0.747,0.273,-0.597
1190664,-3815.0,-1280.0,-1653.0,0.105,0.745,0.275,-0.598
1190681,-2925.0,-1016.0,-1605.0,0.103,0.744,0.279,-0.598
1190698,-2417.0,-1818.0,-1645.0,0.099,0.743,0.285,-0.598
1190715,-2841.0,-624.0,-1685.0,0.093,0.743,0.29,-0.596
1190732,-3295.0,338.0,-1377.0,0.088,0.743,0.295,-0.594
1190749,-3629.0,-996.0,-1805.0,0.084,0.743,0.3,-0.593
1190766,-4621.0,-1850.0,-1603.0,0.078,0.743,0.306,-0.59
1190783,-5671.0,-908.0,-2311.0,0.074,0.742,0.312,-0.589
1190800,-6463.0,-2398.0,-3009.0,0.069,0.741,0.317,-0.588
1190817,-7075.0,-2180.0,-3371.0,0.062,0.741,0.324,-0.586
1190844,-8995.0,-1952.0,-3207.0,0.058,0.74,0.329,-0.583
1190860,-9071.0,-1862.0,-3201.0,0.055,0.741,0.333,-0.581
1190876,-9143.0,-2046.0,-3415.0,0.053,0.742,0.335,-0.579
1190893,-8091.0,-3684.0,-3675.0,0.052,0.744,0.337,-0.575
1190909,-9089.0,-3142.0,-3161.0,0.05,0.746,0.34,-0.57
1190926,-9577.0,-2582.0,-2585.0,0.048,0.748,0.343,-0.566
1190943,-9371.0,-3080.0,-2295.0,0.047,0.75,0.343,-0.563
1190960,-8945.0,-2144.0,-3397.0,0.046,0.752,0.343,-0.561
1190986,-7997.0,-2946.0,-2951.0,0.047,0.753,0.343,-0.56
1191002,-8453.0,-3320.0,-2697.0,0.045,0.754,0.343,-0.559
1191018,-9223.0,-2762.0,-2713.0,0.044,0.753,0.344,-0.559
1191034,-7849.0,-3902.0,-2957.0,0.044,0.752,0.344,-0.561
1191051,-8903.0,-2292.0,-2859.0,0.043,0.75,0.344,-0.563
1191067,-9305.0,-2978.0,-2493.0,0.043,0.748,0.343,-0.566
1191083,-8191.0,-3280.0,-2859.0,0.044,0.746,0.341,-0.57
1191110,-8105.0,-3210.0,-2787.0,0.044,0.744,0.339,-0.574
1191126,-7753.0,-3208.0,-2729.0,0.045,0.743,0.337,-0.577
1191143,-8125.0,-3368.0,-2387.0,0.045,0.74,0.335,-0.581
1191159,-8347.0,-2580.0,-2213.0,0.045,0.738,0.333,-0.585
1191175,-8051.0,-3162.0,-1957.0,0.046,0.735,0.331,-0.591
1191192,-7865.0,-2750.0,-1929.0,0.048,0.731,0.329,-0.596
1191209,-7679.0,-1966.0,-2141.0,0.05,0.728,0.326,-0.602
1191226,-7271.0,-3312.0,-2053.0,0.052,0.725,0.323,-0.606
1191243,-7985.0,-2242.0,-1813.0,0.054,0.723,0.32,-0.61
1191269,-8185.0,-3090.0,-1421.0,0.056,0.72,0.317,-0.615
1191285,-8397.0,-2652.0,-1443.0,0.058,0.718,0.314,-0.619
1191301,-8267.0,-2686.0,-1371.0,0.06,0.715,0.311,-0.623
1191317,-8477.0,-2222.0,-1687.0,0.063,0.713,0.308,-0.626
1191333,-8385.0,-2494.0,-1705.0,0.066,0.712,0.305,-0.629
1191359,-8525.0,-2698.0,-1643.0,0.068,0.711,0.302,-0.631
1191376,-9195.0,-3326.0,-1807.0,0.07,0.711,0.3,-0.632
1191393,-11517.0,-3460.0,-1477.0,0.071,0.712,0.298,-0.632
1191410,-11389.0,-2852.0,-2073.0,0.071,0.712,0.297,-0.632
1191427,-12011.0,-4170.0,-2063.0,0.071,0.713,0.297,-0.631
1191444,-12987.0,-4062.0,-2121.0,0.07,0.714,0.298,-0.629
1191461,-12473.0,-4014.0,-2459.0,0.068,0.715,0.302,-0.627
1191478,-12351.0,-4026.0,-2371.0,0.066,0.715,0.306,-0.625
1191495,-12639.0,-4030.0,-1827.0,0.064,0.714,0.31,-0.624
1191512,-11273.0,-4258.0,-2869.0,0.062,0.714,0.316,-0.622
1191529,-11421.0,-4374.0,-2473.0,0.06,0.712,0.321,-0.621
1191546,-11479.0,-3450.0,-2117.0,0.057,0.711,0.327,-0.619
1191562,-10169.0,-3946.0,-2767.0,0.055,0.71,0.333,-0.618
1191579,-10241.0,-3684.0,-2013.0,0.053,0.709,0.338,-0.617
1191596,-10055.0,-3828.0,-1847.0,0.052,0.708,0.343,-0.616
1191622,-9061.0,-3570.0,-2519.0,0.051,0.707,0.347,-0.615
1191639,-8391.0,-3738.0,-2009.0,0.049,0.706,0.35,-0.614
1191656,-8933.0,-3504.0,-1647.0,0.048,0.705,0.353,-0.613
1191673,-8125.0,-2968.0,-2463.0,0.048,0.705,0.354,-0.613
1191690,-8141.0,-2890.0,-1621.0,0.048,0.705,0.355,-0.612
1191707,-7207.0,-3300.0,-2139.0,0.049,0.705,0.354,-0.612
1191724,-7207.0,-3220.0,-2447.0,0.05,0.706,0.353,-0.612
1191741,-7601.0,-2528.0,-1729.0,0.051,0.707,0.352,-0.612
1191758,-6527.0,-3214.0,-1819.0,0.053,0.708,0.349,-0.612
1191775,-7653.0,-2254.0,-1991.0,0.055,0.709,0.346,-0.612
1191792,-7371.0,-2778.0,-1831.0,0.058,0.71,0.342,-0.613
1191809,-6677.0,-2350.0,-2125.0,0.061,0.711,0.337,-0.614
1191826,-7153.0,-2272.0,-2091.0,0.065,0.712,0.332,-0.615
1191853,-7619.0,-1370.0,-1391.0,0.07,0.712,0.326,-0.618
1191870,-6331.0,-2524.0,-1467.0,0.075,0.713,0.318,-0.621
1191887,-5767.0,-812.0,-1857.0,0.081,0.712,0.31,-0.625
1191903,-4975.0,-932.0,-1105.0,0.089,0.711,0.302,-0.629
1191919,-3579.0,-822.0,-965.0,0.096,0.709,0.294,-0.634
1191935,-2057.0,-818.0,-1143.0,0.103,0.707,0.286,-0.639
1191951,-1015.0,-898.0,-875.0,0.109,0.705,0.28,-0.642
1191977,-843.0,-586.0,-809.0,0.114,0.705,0.275,-0.644
1191994,59.0,-886.0,-861.0,0.117,0.705,0.273,-0.644
1192011,411.0,-1088.0,-761.0,0.117,0.706,0.272,-0.643
1192028,249.0,-1386.0,-655.0,0.115,0.708,0.274,-0.641
1192045,275.0,-1162.0,-821.0,0.11,0.71,0.279,-0.638
1192061,-547.0,-1000.0,-833.0,0.104,0.712,0.286,-0.633
1192078,-1655.0,-1012.0,-321.0,0.097,0.714,0.294,-0.628
1192095,-851.0,-3174.0,-1331.0,0.09,0.716,0.304,-0.622
1192112,-2481.0,1070.0,-2047.0,0.079,0.719,0.313,-0.616
1192129,-4503.0,-94.0,-1557.0,0.073,0.721,0.322,-0.609
1192146,-5425.0,-3322.0,-2775.0,0.068,0.724,0.33,-0.602
1192163,-6409.0,-1796.0,-3247.0,0.061,0.726,0.339,-0.595
1192189,-7617.0,-2498.0,-3017.0,0.056,0.728,0.346,-0.589
1192206,-10021.0,-2946.0,-3109.0,0.053,0.729,0.352,-0.584
1192223,-8253.0,-2216.0,-3101.0,0.052,0.729,0.357,-0.581
1192240,-7951.0,-4502.0,-4273.0,0.048,0.731,0.363,-0.576
1192257,-10091.0,-3582.0,-3179.0,0.047,0.732,0.367,-0.572
1192273,-9495.0,-3036.0,-2885.0,0.046,0.732,0.37,-0.57
1192290,-8325.0,-4294.0,-3715.0,0.046,0.732,0.372,-0.569
1192306,-9733.0,-3792.0,-3437.0,0.045,0.732,0.375,-0.567
1192323,-8557.0,-3256.0,-3231.0,0.045,0.732,0.375,-0.568
1192349,-8319.0,-2924.0,-3181.0,0.045,0.732,0.375,-0.568
1192365,-7963.0,-4212.0,-3901.0,0.045,0.732,0.375,-0.568
1192381,-8897.0,-3016.0,-2829.0,0.046,0.731,0.374,-0.569
1192397,-8753.0,-3532.0,-2847.0,0.048,0.73,0.371,-0.571
1192413,-8401.0,-2722.0,-3087.0,0.051,0.729,0.368,-0.575
1192430,-7871.0,-4280.0,-3123.0,0.052,0.727,0.366,-0.579
1192446,-9301.0,-2638.0,-2621.0,0.054,0.725,0.363,-0.583
1192472,-8421.0,-3830.0,-2005.0,0.057,0.722,0.36,-0.588
1192489,-8791.0,-3486.0,-1977.0,0.059,0.718,0.356,-0.595
1192506,-8377.0,-2856.0,-2567.0,0.063,0.713,0.352,-0.603
1192523,-7703.0,-2822.0,-2007.0,0.066,0.709,0.347,-0.61
1192540,-7961.0,-2356.0,-2273.0,0.07,0.705,0.343,-0.617
1192557,-7583.0,-3758.0,-2375.0,0.072,0.701,0.339,-0.624
1192574,-8529.0,-2262.0,-1611.0,0.075,0.697,0.336,-0.629
1192591,-8383.0,-2810.0,-1669.0,0.077,0.693,0.332,-0.635
1192608,-8653.0,-2928.0,-1827.0,0.08,0.689,0.328,-0.641
1192625,-9053.0,-2874.0,-1311.0,0.083,0.686,0.324,-0.646
1192642,-9603.0,-2864.0,-1593.0,0.087,0.682,0.32,-0.651
1192659,-9991.0,-3756.0,-1829.0,0.09,0.679,0.317,-0.656
1192676,-12829.0,-4078.0,-1283.0,0.093,0.676,0.314,-0.66
1192703,-12153.0,-4540.0,-1603.0,0.095,0.674,0.313,-0.662
1192720,-13795.0,-4626.0,-1485.0,0.096,0.672,0.313,-0.664
1192736,-13735.0,-4730.0,-939.0,0.097,0.67,0.314,-0.665
1192753,-12399.0,-4664.0,-1757.0,0.097,0.669,0.316,-0.666
1192769,-12175.0,-4470.0,-1275.0,0.095,0.668,0.319,-0.666
1192786,-11481.0,-4130.0,-881.0,0.093,0.668,0.322,-0.665
1192803,-11255.0,-4326.0,-1677.0,0.091,0.667,0.326,-0.663
1192819,-11617.0,-3600.0,-903.0,0.089,0.667,0.331,-0.662
1192835,-10635.0,-3688.0,-1055.0,0.088,0.667,0.335,-0.66
1192861,-9937.0,-3592.0,-1649.0,0.086,0.667,0.339,-0.657
1192878,-9727.0,-3908.0,-1251.0,0.084,0.669,0.343,-0.654
1192895,-9983.0,-3506.0,-1031.0,0.082,0.67,0.347,-0.651
1192912,-9155.0,-3454.0,-1151.0,0.081,0.672,0.35,-0.648
1192928,-9645.0,-3336.0,-485.0,0.081,0.673,0.352,-0.646
1192945,-9729.0,-3188.0,-431.0,0.082,0.674,0.352,-0.645
1192962,-7341.0,-3878.0,-1477.0,0.082,0.674,0.353,-0.644
1192978,-8141.0,-2712.0,-1325.0,0.083,0.675,0.353,-0.643
1192995,-7865.0,-2892.0,-1145.0,0.083,0.676,0.353,-0.641
1193022,-8039.0,-2132.0,-697.0,0.085,0.677,0.352,-0.64
1193039,-7983.0,-2800.0,-623.0,0.088,0.678,0.35,-0.64
1193056,-7447.0,-2330.0,-1073.0,0.092,0.679,0.347,-0.64
1193073,-6689.0,-2122.0,-1499.0,0.096,0.681,0.344,-0.639
1193089,-6459.0,-2494.0,-1709.0,0.1,0.684,0.34,-0.638
1193106,-8483.0,-1112.0,-231.0,0.105,0.687,0.335,-0.636
1193123,-8123.0,-1300.0,-563.0,0.113,0.689,0.328,-0.636
1193140,-6765.0,-494.0,-761.0,0.124,0.69,0.32,-0.638
1193157,-4919.0,346.0,-685.0,0.138,0.691,0.31,-0.639
1193174,-4543.0,-896.0,-669.0,0.152,0.692,0.298,-0.639
1193191,-3201.0,-328.0,-547.0,0.167,0.694,0.288,-0.638
1193209,-2305.0,-518.0,-709.0,0.178,0.697,0.279,-0.637
1193226,617.0,-542.0,-875.0,0.188,0.7,0.269,-0.634
1193242,-591.0,-686.0,-467.0,0.193,0.704,0.264,-0.63
1193269,269.0,-3086.0,43.0,0.187,0.71,0.258,-0.628
1193285,-793.0,4992.0,-837.0,0.165,0.718,0.251,-0.628
1193302,-2833.0,12608.0,-3293.0,0.149,0.715,0.266,-0.629
1193318,-1187.0,1872.0,-2077.0,0.147,0.705,0.294,-0.629
1193334,-1457.0,-18070.0,1269.0,0.141,0.702,0.311,-0.625
1193351,-4131.0,-16708.0,871.0,0.126,0.706,0.313,-0.622
1193368,-4647.0,-9138.0,1297.0,0.114,0.712,0.311,-0.619
1193384,-4859.0,4126.0,2171.0,0.099,0.721,0.314,-0.61
1193410,-21.0,20360.0,-5097.0,0.086,0.722,0.328,-0.603
1193427,-2493.0,-6980.0,951.0,0.088,0.716,0.344,-0.601
1193444,801.0,-4564.0,-4983.0,0.081,0.713,0.349,-0.602
1193461,-7113.0,1566.0,-3837.0,0.076,0.714,0.356,-0.598
1193478,-7019.0,-2498.0,-1213.0,0.073,0.712,0.362,-0.597
1193494,-6491.0,-3762.0,-3597.0,0.07,0.711,0.366,-0.596
1193511,-9261.0,-888.0,-3299.0,0.07,0.711,0.37,-0.594
1193528,-7257.0,-4084.0,-3217.0,0.069,0.711,0.375,-0.591
1193545,-9027.0,-4318.0,-3433.0,0.068,0.711,0.377,-0.59
1193562,-10573.0,-2984.0,-3823.0,0.068,0.711,0.378,-0.588
1193588,-9793.0,-2574.0,-2489.0,0.069,0.712,0.378,-0.588
1193605,-8461.0,-5346.0,-3479.0,0.07,0.712,0.378,-0.588
1193621,-9621.0,-2884.0,-3501.0,0.072,0.712,0.377,-0.589
1193638,-8485.0,-4112.0,-2455.0,0.072,0.711,0.377,-0.589
1193655,-9003.0,-2970.0,-2843.0,0.073,0.71,0.377,-0.591
1193671,-8983.0,-3094.0,-3017.0,0.073,0.708,0.377,-0.592
1193687,-8571.0,-3390.0,-2263.0,0.074,0.707,0.376,-0.595
1193704,-8647.0,-2838.0,-2811.0,0.075,0.705,0.375,-0.597
1193720,-7837.0,-2176.0,-2731.0,0.077,0.704,0.373,-0.599
1193747,-8097.0,-2872.0,-1833.0,0.079,0.703,0.372,-0.601
1193763,-7655.0,-3516.0,-2783.0,0.079,0.702,0.371,-0.603
1193779,-7843.0,-2116.0,-2067.0,0.081,0.701,0.371,-0.604
1193795,-7773.0,-3172.0,-1913.0,0.081,0.7,0.37,-0.605
1193812,-8213.0,-2226.0,-2785.0,0.082,0.7,0.369,-0.607
1193828,-8127.0,-2302.0,-2431.0,0.084,0.7,0.367,-0.607
1193844,-8657.0,-3072.0,-1491.0,0.086,0.699,0.365,-0.609
1193871,-8595.0,-2936.0,-2003.0,0.088,0.699,0.362,-0.611
1193888,-8669.0,-2584.0,-1877.0,0.09,0.697,0.359,-0.614
1193905,-8627.0,-2624.0,-2061.0,0.094,0.696,0.356,-0.617
1193922,-8473.0,-2332.0,-2725.0,0.097,0.695,0.353,-0.619
1193939,-9211.0,-3524.0,-2129.0,0.1,0.694,0.351,-0.621
1193956,-10093.0,-3692.0,-1647.0,0.102,0.693,0.348,-0.623
1193973,-10855.0,-3202.0,-2127.0,0.104,0.691,0.346,-0.626
1193990,-10969.0,-4376.0,-2251.0,0.106,0.689,0.344,-0.629
1194007,-12351.0,-3606.0,-2077.0,0.106,0.687,0.343,-0.631
1194024,-12199.0,-4310.0,-2205.0,0.107,0.685,0.343,-0.634
1194041,-12913.0,-4382.0,-1737.0,0.108,0.681,0.344,-0.637
1194058,-12493.0,-4900.0,-2233.0,0.108,0.678,0.345,-0.641
1194075,-11781.0,-4156.0,-2063.0,0.107,0.674,0.346,-0.644
1194092,-11647.0,-4180.0,-1637.0,0.106,0.67,0.349,-0.647
1194119,-11479.0,-4296.0,-1767.0,0.104,0.667,0.352,-0.649
1194135,-10617.0,-3828.0,-1671.0,0.102,0.664,0.354,-0.651
1194151,-9901.0,-3442.0,-1575.0,0.1,0.662,0.357,-0.651
1194167,-9519.0,-3338.0,-1717.0,0.098,0.662,0.361,-0.65
1194183,-9155.0,-3228.0,-1689.0,0.096,0.663,0.364,-0.648
1194199,-9681.0,-3024.0,-1209.0,0.095,0.665,0.366,-0.644
1194216,-9707.0,-3294.0,-943.0,0.095,0.667,0.368,-0.64
1194242,-9299.0,-3606.0,-981.0,0.095,0.67,0.369,-0.637
1194259,-8059.0,-3828.0,-1583.0,0.094,0.672,0.369,-0.635
1194276,-9197.0,-2332.0,-1421.0,0.093,0.674,0.37,-0.632
1194293,-8169.0,-3096.0,-1627.0,0.093,0.676,0.37,-0.63
1194310,-8537.0,-2754.0,-1233.0,0.093,0.678,0.369,-0.628
1194327,-8185.0,-3276.0,-1571.0,0.093,0.68,0.368,-0.628
1194344,-7331.0,-2070.0,-2005.0,0.093,0.681,0.366,-0.627
1194360,-7479.0,-2700.0,-1777.0,0.094,0.683,0.365,-0.626
1194377,-8263.0,-2368.0,-1549.0,0.095,0.686,0.362,-0.625
1194394,-7747.0,-2870.0,-1365.0,0.097,0.688,0.358,-0.624
1194411,-7461.0,-2358.0,-1417.0,0.1,0.69,0.353,-0.624
1194437,-7147.0,-2142.0,-1835.0,0.103,0.692,0.347,-0.625
1194454,-8215.0,-1636.0,-1567.0,0.107,0.693,0.34,-0.627
1194471,-7009.0,-1700.0,-2153.0,0.112,0.695,0.332,-0.628
1194488,-6123.0,-324.0,-2363.0,0.118,0.697,0.324,-0.629
1194505,-5029.0,44.0,-2597.0,0.127,0.7,0.313,-0.629
1194522,-5459.0,-1440.0,-1021.0,0.137,0.703,0.3,-0.63
1194539,-5319.0,446.0,187.0,0.149,0.705,0.285,-0.632
1194556,-3617.0,692.0,237.0,0.163,0.703,0.271,-0.636
1194573,-1459.0,1160.0,873.0,0.177,0.7,0.259,-0.641
1194590,-245.0,-2986.0,-1373.0,0.188,0.696,0.251,-0.646
1194607,299.0,-5804.0,-3025.0,0.189,0.695,0.246,-0.649
1194624,127.0,-3122.0,-1337.0,0.183,0.697,0.242,-0.65
1194641,-221.0,464.0,-113.0,0.175,0.7,0.242,-0.648
1194668,-1003.0,190.0,-1487.0,0.168,0.704,0.243,-0.646
1194684,-1121.0,-2096.0,-195.0,0.159,0.707,0.248,-0.642
1194700,-731.0,-1280.0,-131.0,0.147,0.711,0.256,-0.639
1194716,-1507.0,-210.0,745.0,0.134,0.714,0.266,-0.634
1194732,-3531.0,668.0,-831.0,0.122,0.715,0.277,-0.63
1194748,-3009.0,330.0,-949.0,0.111,0.717,0.29,-0.624
1194774,-3343.0,52.0,-617.0,0.099,0.719,0.301,-0.619
1194791,-6729.0,180.0,-2011.0,0.091,0.72,0.31,-0.615
1194808,-7163.0,-1628.0,-2651.0,0.084,0.72,0.318,-0.611
1194825,-8049.0,-922.0,-2099.0,0.078,0.721,0.327,-0.606
1194842,-8433.0,-2752.0,-2689.0,0.074,0.721,0.334,-0.603
1194859,-9775.0,-2150.0,-1521.0,0.071,0.72,0.339,-0.601
1194876,-8549.0,-2820.0,-2813.0,0.07,0.72,0.343,-0.6
1194893,-8961.0,-3588.0,-1847.0,0.07,0.718,0.345,-0.6
1194910,-8655.0,-3364.0,-2587.0,0.069,0.717,0.346,-0.601
1194927,-9489.0,-2198.0,-2739.0,0.07,0.717,0.346,-0.601
1194944,-9033.0,-3046.0,-2633.0,0.071,0.716,0.347,-0.601
1194960,-8709.0,-3830.0,-2261.0,0.071,0.716,0.346,-0.602
1194977,-9993.0,-2934.0,-2617.0,0.072,0.716,0.346,-0.603
1195004,-9075.0,-2230.0,-2635.0,0.073,0.715,0.345,-0.604
1195021,-9039.0,-3746.0,-1565.0,0.075,0.714,0.343,-0.606
1195038,-8487.0,-3278.0,-3091.0,0.076,0.714,0.342,-0.607
1195055,-8415.0,-2862.0,-2045.0,0.077,0.714,0.341,-0.607
1195071,-8601.0,-3104.0,-1915.0,0.079,0.714,0.339,-0.608
1195087,-8533.0,-2774.0,-1661.0,0.081,0.713,0.338,-0.609
1195104,-8955.0,-1670.0,-1875.0,0.083,0.713,0.335,-0.611
1195121,-8403.0,-2744.0,-1507.0,0.086,0.712,0.333,-0.612
1195138,-8203.0,-2158.0,-1445.0,0.09,0.712,0.33,-0.614
1195155,-7885.0,-2612.0,-1733.0,0.092,0.711,0.327,-0.616
1195172,-8327.0,-2668.0,-1253.0,0.095,0.71,0.325,-0.618
1195199,-7815.0,-2358.0,-1437.0,0.097,0.709,0.323,-0.619
1195215,-8235.0,-2132.0,-1369.0,0.099,0.708,0.321,-0.62
1195231,-8499.0,-2096.0,-989.0,0.102,0.708,0.32,-0.621
1195247,-8255.0,-2296.0,-1145.0,0.105,0.708,0.318,-0.622
1195263,-8999.0,-2044.0,-1387.0,0.109,0.708,0.316,-0.622
1195279,-10145.0,-2510.0,-1749.0,0.112,0.709,0.314,-0.621
1195296,-12359.0,-4670.0,-2453.0,0.115,0.712,0.312,-0.619
1195322,-11805.0,-3364.0,-2951.0,0.115,0.715,0.313,-0.615
1195339,-14961.0,-4644.0,-2717.0,0.114,0.718,0.315,-0.61
1195356,-15281.0,-3746.0,-2987.0,0.113,0.72,0.318,-0.607
1195373,-13399.0,-3232.0,-3403.0,0.112,0.721,0.321,-0.604
1195390,-12993.0,-3890.0,-3531.0,0.11,0.722,0.325,-0.601
1195407,-11723.0,-2798.0,-3115.0,0.109,0.722,0.33,-0.598
1195424,-10803.0,-3062.0,-3631.0,0.106,0.722,0.336,-0.596
1195441,-11139.0,-2198.0,-3237.0,0.103,0.721,0.342,-0.594
1195458,-9727.0,-2858.0,-3095.0,0.101,0.72,0.349,-0.592
1195475,-10065.0,-2462.0,-3201.0,0.099,0.718,0.355,-0.59
1195492,-9201.0,-2700.0,-3289.0,0.097,0.716,0.36,-0.59
1195509,-8953.0,-3020.0,-2883.0,0.095,0.715,0.365,-0.589
1195526,-9075.0,-3086.0,-2795.0,0.093,0.713,0.37,-0.588
1195553,-9341.0,-2790.0,-2525.0,0.092,0.711,0.373,-0.589
1195570,-8975.0,-2398.0,-2679.0,0.091,0.709,0.375,-0.59
1195587,-7771.0,-3530.0,-2565.0,0.091,0.707,0.376,-0.592
1195604,-7473.0,-3130.0,-2939.0,0.091,0.705,0.377,-0.594
1195621,-8635.0,-2152.0,-2787.0,0.091,0.703,0.377,-0.596
1195638,-7139.0,-2644.0,-2887.0,0.092,0.703,0.377,-0.596
1195655,-7167.0,-2956.0,-2069.0,0.093,0.702,0.376,-0.597
1195672,-7807.0,-3070.0,-2121.0,0.094,0.702,0.375,-0.599
1195689,-7557.0,-2030.0,-2055.0,0.096,0.701,0.373,-0.6
1195706,-7261.0,-2538.0,-1859.0,0.099,0.701,0.37,-0.601
1195723,-7665.0,-2394.0,-1855.0,0.101,0.701,0.366,-0.603
1195740,-7377.0,-2660.0,-2063.0,0.104,0.702,0.361,-0.605
1195757,-7595.0,-2768.0,-1627.0,0.107,0.702,0.355,-0.607
1195774,-6853.0,-2216.0,-3197.0,0.108,0.704,0.349,-0.609
1195791,-6317.0,-468.0,-3895.0,0.11,0.708,0.342,-0.608
1195818,-7541.0,-2848.0,-1111.0,0.112,0.712,0.335,-0.607
1195835,-7495.0,-1870.0,-1259.0,0.114,0.713,0.326,-0.61
1195851,-6959.0,-930.0,-943.0,0.119,0.712,0.316,-0.615
1195868,-5055.0,-386.0,-893.0,0.126,0.709,0.306,-0.622
1195885,-2917.0,-1738.0,-1285.0,0.134,0.705,0.296,-0.631
1195901,-2165.0,-554.0,-969.0,0.14,0.7,0.286,-0.639
1195944,-1055.0,-46.0,-725.0,0.147,0.696,0.278,-0.646
1195951,-409.0,-1084.0,-929.0,0.152,0.692,0.273,-0.65
1195958,33.0,-1468.0,-873.0,0.155,0.69,0.271,-0.653
1195976,161.0,-482.0,-989.0,0.156,0.69,0.271,-0.653
1195993,113.0,-712.0,-819.0,0.155,0.692,0.272,-0.651
1196010,-749.0,-464.0,-403.0,0.152,0.694,0.276,-0.647
1196028,-1043.0,-1354.0,-725.0,0.148,0.697,0.282,-0.643
1196045,-2153.0,-1296.0,-599.0,0.142,0.7,0.29,-0.637
1196061,-3323.0,-852.0,-495.0,0.134,0.702,0.299,-0.632
1196078,-3601.0,916.0,-1757.0,0.127,0.705,0.307,-0.627
1196094,-4939.0,-2044.0,-1719.0,0.118,0.708,0.316,-0.62
1196110,-7399.0,1144.0,-931.0,0.112,0.71,0.324,-0.615
1196136,-7619.0,-2138.0,-1397.0,0.108,0.711,0.331,-0.611
1196152,-6859.0,-2544.0,-3613.0,0.104,0.712,0.338,-0.607
1196169,-8605.0,-1124.0,-2099.0,0.099,0.712,0.345,-0.603
1196185,-10409.0,-3110.0,-1735.0,0.096,0.712,0.35,-0.602
1196202,-9507.0,-1746.0,-2103.0,0.094,0.71,0.353,-0.602
1196218,-7285.0,-3782.0,-2977.0,0.093,0.709,0.358,-0.601
1196235,-10365.0,-3332.0,-2109.0,0.091,0.707,0.361,-0.601
1196252,-8639.0,-2302.0,-1923.0,0.09,0.705,0.364,-0.602
1196269,-8517.0,-2902.0,-1811.0,0.09,0.703,0.365,-0.604
1196295,-8733.0,-2328.0,-2871.0,0.089,0.701,0.366,-0.605
1196311,-7743.0,-3358.0,-2561.0,0.089,0.7,0.367,-0.605
1196327,-8501.0,-2762.0,-2387.0,0.087,0.7,0.369,-0.605
1196343,-8901.0,-3750.0,-2373.0,0.086,0.7,0.37,-0.604
1196359,-10119.0,-2192.0,-1517.0,0.086,0.7,0.37,-0.605
1196376,-9381.0,-3856.0,-1713.0,0.087,0.699,0.369,-0.606
1196402,-8789.0,-2984.0,-2151.0,0.088,0.698,0.367,-0.609
1196418,-7927.0,-3598.0,-1939.0,0.089,0.697,0.365,-0.611
1196435,-7701.0,-3360.0,-2189.0,0.09,0.696,0.363,-0.612
1196451,-8497.0,-2498.0,-2017.0,0.091,0.696,0.363,-0.613
1196467,-8903.0,-3350.0,-933.0,0.091,0.695,0.361,-0.615
1196483,-8579.0,-2858.0,-1567.0,0.093,0.694,0.359,-0.617
1196500,-7907.0,-2520.0,-1729.0,0.094,0.693,0.357,-0.619
1196517,-8099.0,-2864.0,-1393.0,0.096,0.692,0.355,-0.622
1196544,-7663.0,-2606.0,-2065.0,0.097,0.691,0.354,-0.623
1196560,-7997.0,-2806.0,-1133.0,0.098,0.689,0.353,-0.625
1196576,-8267.0,-2810.0,-1079.0,0.098,0.688,0.351,-0.627
1196592,-8281.0,-2560.0,-1581.0,0.1,0.687,0.349,-0.63
1196609,-8187.0,-2260.0,-1523.0,0.101,0.685,0.347,-0.632
1196625,-8371.0,-2736.0,-1129.0,0.103,0.684,0.346,-0.634
1196642,-8799.0,-2890.0,-1745.0,0.105,0.683,0.344,-0.636
1196668,-9159.0,-3820.0,-1823.0,0.105,0.683,0.342,-0.637
1196685,-10785.0,-2804.0,-1609.0,0.106,0.682,0.342,-0.637
1196701,-11099.0,-4430.0,-2793.0,0.106,0.683,0.343,-0.636
1196718,-12043.0,-4556.0,-2625.0,0.105,0.684,0.345,-0.634
1196735,-13103.0,-5464.0,-2549.0,0.103,0.687,0.348,-0.63
1196752,-14285.0,-5602.0,-2319.0,0.1,0.689,0.353,-0.626
1196768,-13463.0,-5358.0,-2109.0,0.098,0.69,0.358,-0.622
1196784,-12755.0,-5236.0,-2235.0,0.095,0.69,0.362,-0.62
1196800,-12103.0,-4704.0,-2387.0,0.092,0.69,0.367,-0.617
1196826,-10953.0,-4132.0,-2005.0,0.09,0.69,0.372,-0.614
1196842,-10661.0,-3386.0,-2221.0,0.087,0.69,0.377,-0.612
1196858,-9265.0,-3542.0,-2539.0,0.085,0.69,0.381,-0.609
1196874,-9483.0,-3286.0,-1915.0,0.084,0.691,0.386,-0.606
1196891,-8755.0,-3068.0,-2341.0,0.082,0.692,0.39,-0.602
1196917,-8993.0,-2964.0,-2005.0,0.081,0.694,0.393,-0.598
1196933,-9007.0,-2824.0,-1843.0,0.081,0.695,0.395,-0.595
1196949,-8963.0,-2782.0,-2421.0,0.082,0.697,0.396,-0.593
1196965,-8333.0,-2784.0,-2363.0,0.083,0.698,0.396,-0.591
1196981,-8001.0,-3902.0,-1713.0,0.085,0.699,0.395,-0.59
1196997,-8991.0,-2750.0,-1981.0,0.087,0.698,0.393,-0.592
1197013,-8317.0,-2258.0,-2073.0,0.09,0.697,0.391,-0.595
1197031,-6057.0,-3360.0,-2359.0,0.094,0.695,0.388,-0.597
1197057,-5753.0,-3424.0,-3151.0,0.094,0.695,0.387,-0.599
1197073,-7095.0,-1758.0,-2117.0,0.095,0.695,0.385,-0.6
1197091,-6899.0,-1962.0,-1673.0,0.097,0.695,0.382,-0.601
1197108,-6535.0,-2606.0,-2033.0,0.1,0.696,0.378,-0.602
1197124,-6819.0,-1986.0,-1199.0,0.103,0.696,0.373,-0.604
1197141,-6789.0,-2468.0,-2069.0,0.107,0.697,0.368,-0.607
1197158,-6373.0,-1380.0,-1907.0,0.111,0.697,0.361,-0.61
1197174,-5657.0,-2018.0,-1789.0,0.116,0.697,0.353,-0.613
1197190,-6665.0,-1584.0,-2107.0,0.122,0.698,0.343,-0.617
1197207,-5813.0,484.0,-1871.0,0.129,0.698,0.333,-0.621
1197233,-4663.0,252.0,-1083.0,0.141,0.697,0.322,-0.625
1197249,-3937.0,-1154.0,-1201.0,0.154,0.694,0.31,-0.631
1197266,-3125.0,434.0,-765.0,0.168,0.69,0.301,-0.637
1197282,-1399.0,-804.0,-1235.0,0.181,0.684,0.296,-0.642
1197299,-1223.0,-3054.0,-1705.0,0.189,0.679,0.294,-0.646
1197315,-1239.0,-2632.0,-1397.0,0.192,0.675,0.294,-0.649
1197331,-919.0,-1374.0,-975.0,0.19,0.673,0.297,-0.651
1197358,-259.0,-1012.0,-1055.0,0.186,0.672,0.301,-0.651
1197375,-35.0,-548.0,-1521.0,0.179,0.673,0.306,-0.649
1197392,-781.0,-1240.0,-989.0,0.17,0.676,0.312,-0.646
1197409,-2061.0,-1238.0,-785.0,0.158,0.679,0.321,-0.642
1197426,-2803.0,328.0,-505.0,0.147,0.681,0.33,-0.637
1197442,-3241.0,304.0,-903.0,0.137,0.682,0.34,-0.632
1197458,-4625.0,-520.0,-1671.0,0.129,0.684,0.35,-0.627
1197474,-4737.0,-2794.0,-2601.0,0.123,0.686,0.359,-0.621
1197491,-5663.0,-166.0,-2169.0,0.113,0.689,0.371,-0.613
1197517,-7931.0,-3214.0,-1891.0,0.108,0.69,0.38,-0.606
1197533,-9593.0,-2300.0,-997.0,0.104,0.69,0.387,-0.603
1197549,-7325.0,-2582.0,-2745.0,0.101,0.691,0.391,-0.6
1197565,-7033.0,-4060.0,-3519.0,0.1,0.691,0.394,-0.598
1197582,-8451.0,-2528.0,-3099.0,0.097,0.691,0.398,-0.595
1197598,-8383.0,-4600.0,-3035.0,0.095,0.691,0.403,-0.592
1197624,-9803.0,-3004.0,-2731.0,0.093,0.691,0.406,-0.59
1197640,-9939.0,-3726.0,-2473.0,0.093,0.69,0.407,-0.591
1197657,-9713.0,-3836.0,-2255.0,0.093,0.688,0.407,-0.594
1197673,-7995.0,-3872.0,-3737.0,0.094,0.685,0.407,-0.597
1197690,-8591.0,-3778.0,-2603.0,0.094,0.682,0.407,-0.6
1197707,-8283.0,-3768.0,-2761.0,0.093,0.679,0.407,-0.604
1197724,-9449.0,-2734.0,-2639.0,0.092,0.677,0.408,-0.606
1197741,-8529.0,-3796.0,-2169.0,0.092,0.674,0.408,-0.609
1197757,-9685.0,-2936.0,-1801.0,0.091,0.673,0.406,-0.612
1197783,-8701.0,-2902.0,-2371.0,0.092,0.672,0.404,-0.614
1197799,-7733.0,-3762.0,-2279.0,0.093,0.671,0.402,-0.616
1197816,-8645.0,-3442.0,-1881.0,0.092,0.672,0.4,-0.617
1197833,-10041.0,-3570.0,-1075.0,0.091,0.671,0.398,-0.619
1197850,-9561.0,-2842.0,-1379.0,0.092,0.669,0.395,-0.623
1197867,-9197.0,-2766.0,-1783.0,0.094,0.667,0.391,-0.627
1197884,-9197.0,-2778.0,-1419.0,0.097,0.665,0.387,-0.631
1197901,-8465.0,-4040.0,-1183.0,0.1,0.663,0.384,-0.634
1197918,-9011.0,-3118.0,-1175.0,0.103,0.662,0.38,-0.638
1197935,-8623.0,-3340.0,-1089.0,0.105,0.661,0.377,-0.64
1197951,-8421.0,-3296.0,-783.0,0.108,0.66,0.374,-0.642
1197978,-8139.0,-3230.0,-1091.0,0.11,0.66,0.371,-0.644
1197995,-8043.0,-3772.0,-857.0,0.112,0.661,0.369,-0.644
1198012,-9065.0,-3540.0,-603.0,0.113,0.662,0.368,-0.643
1198029,-10527.0,-3760.0,-987.0,0.114,0.664,0.367,-0.642
1198045,-10619.0,-3012.0,-1977.0,0.115,0.665,0.366,-0.64
1198062,-11677.0,-3658.0,-1865.0,0.116,0.667,0.367,-0.637
1198079,-12471.0,-4628.0,-1299.0,0.115,0.668,0.37,-0.635
1198096,-11717.0,-3950.0,-1817.0,0.115,0.669,0.373,-0.633
1198112,-11335.0,-4402.0,-1825.0,0.114,0.668,0.376,-0.632
1198129,-10357.0,-4140.0,-1769.0,0.113,0.668,0.38,-0.63
1198146,-9695.0,-3614.0,-1875.0,0.111,0.668,0.385,-0.627
1198163,-9045.0,-4110.0,-2615.0,0.108,0.668,0.39,-0.624
1198189,-10323.0,-3102.0,-1731.0,0.104,0.669,0.397,-0.62
1198206,-10053.0,-3384.0,-1935.0,0.102,0.67,0.403,-0.615
1198223,-10267.0,-4604.0,-1643.0,0.1,0.671,0.408,-0.611
1198240,-9853.0,-4518.0,-1803.0,0.099,0.671,0.413,-0.608
1198257,-9803.0,-3854.0,-2159.0,0.098,0.671,0.418,-0.604
1198274,-9721.0,-3844.0,-2329.0,0.097,0.672,0.422,-0.601
1198291,-9563.0,-4328.0,-2295.0,0.097,0.672,0.425,-0.598
1198308,-9137.0,-4082.0,-2439.0,0.096,0.672,0.429,-0.596
1198325,-8839.0,-4242.0,-2581.0,0.096,0.673,0.431,-0.594
1198342,-8981.0,-3610.0,-2265.0,0.096,0.673,0.433,-0.592
1198359,-7743.0,-3636.0,-2837.0,0.096,0.674,0.435,-0.59
1198376,-7795.0,-3468.0,-2609.0,0.096,0.674,0.436,-0.588
1198393,-8075.0,-3192.0,-2269.0,0.097,0.675,0.435,-0.587
1198420,-7257.0,-3884.0,-2395.0,0.099,0.676,0.434,-0.587
1198437,-7375.0,-2994.0,-2037.0,0.101,0.677,0.432,-0.587
1198454,-7935.0,-3396.0,-2187.0,0.104,0.677,0.429,-0.589
1198471,-6929.0,-3078.0,-2355.0,0.107,0.678,0.425,-0.59
1198488,-6361.0,-2732.0,-2137.0,0.111,0.679,0.419,-0.592
1198505,-7361.0,-2896.0,-2589.0,0.116,0.68,0.413,-0.594
1198522,-6057.0,-3282.0,-2979.0,0.121,0.682,0.406,-0.596
1198539,-6691.0,-1094.0,-2207.0,0.126,0.683,0.4,-0.597
1198556,-7257.0,-3876.0,-1871.0,0.131,0.685,0.393,-0.6
1198573,-7319.0,-2334.0,-1617.0,0.138,0.684,0.384,-0.605
1198589,-6533.0,-792.0,-1937.0,0.145,0.684,0.373,-0.61
1198606,-5443.0,-624.0,-1383.0,0.156,0.682,0.362,-0.616
1198632,-3855.0,-310.0,-1221.0,0.168,0.679,0.349,-0.624
1198649,-2585.0,-508.0,-1275.0,0.181,0.676,0.337,-0.63
1198666,-1655.0,-174.0,-735.0,0.194,0.673,0.325,-0.636
1198682,-827.0,2.0,-747.0,0.205,0.67,0.317,-0.639
1198703,-1029.0,-954.0,-1075.0,0.215,0.669,0.31,-0.641
1198720,-633.0,-1760.0,-1139.0,0.22,0.669,0.305,-0.641
1198737,-691.0,-2410.0,-1261.0,0.22,0.671,0.302,-0.641
1198754,-1137.0,-1602.0,-1573.0,0.215,0.674,0.302,-0.639
1198771,-1497.0,-1364.0,-253.0,0.208,0.678,0.305,-0.636
1198788,-1001.0,-1870.0,595.0,0.198,0.681,0.312,-0.632
1198805,-1037.0,-536.0,-735.0,0.186,0.683,0.322,-0.629
1198821,-2753.0,-662.0,-835.0,0.174,0.686,0.331,-0.624
1198838,-3717.0,-340.0,-485.0,0.162,0.689,0.342,-0.618
1198855,-3533.0,-1384.0,-1999.0,0.149,0.692,0.352,-0.612
1198872,-6787.0,1118.0,-1319.0,0.135,0.696,0.362,-0.605
1198889,-6945.0,-100.0,-713.0,0.127,0.698,0.372,-0.598
1198916,-7445.0,-3750.0,-1833.0,0.12,0.698,0.38,-0.595
1198932,-8953.0,-230.0,-2597.0,0.112,0.698,0.388,-0.591
1198949,-7455.0,-1830.0,-2521.0,0.109,0.698,0.397,-0.586
1198966,-8351.0,-3564.0,-2827.0,0.103,0.699,0.404,-0.581
1198983,-8057.0,-4262.0,-3747.0,0.098,0.699,0.411,-0.577
1198999,-11035.0,-1766.0,-1557.0,0.094,0.699,0.417,-0.574
1199016,-8257.0,-3358.0,-2813.0,0.093,0.697,0.42,-0.573
1199033,-7893.0,-4318.0,-3631.0,0.091,0.696,0.422,-0.574
1199050,-8809.0,-2054.0,-2685.0,0.088,0.695,0.425,-0.573
1199067,-7929.0,-3478.0,-2931.0,0.087,0.694,0.428,-0.572
1199084,-8549.0,-2982.0,-3027.0,0.087,0.694,0.429,-0.572
1199101,-9157.0,-2530.0,-2931.0,0.089,0.694,0.428,-0.573
1199128,-8091.0,-3370.0,-3963.0,0.092,0.694,0.426,-0.573
1199145,-7983.0,-3620.0,-3147.0,0.096,0.694,0.425,-0.574
1199162,-8157.0,-4368.0,-3293.0,0.098,0.694,0.425,-0.574
1199179,-10267.0,-3086.0,-2985.0,0.1,0.694,0.423,-0.574
1199195,-9043.0,-3764.0,-2733.0,0.102,0.693,0.421,-0.577
1199212,-9147.0,-3510.0,-2835.0,0.104,0.692,0.417,-0.58
1199228,-8229.0,-3282.0,-3749.0,0.106,0.691,0.414,-0.583
1199245,-9175.0,-2542.0,-2399.0,0.108,0.69,0.412,-0.586
1199261,-8625.0,-4020.0,-2159.0,0.11,0.689,0.409,-0.589
1199278,-8659.0,-2622.0,-2909.0,0.111,0.687,0.405,-0.593
1199305,-8353.0,-3094.0,-2195.0,0.113,0.686,0.402,-0.596
1199322,-8253.0,-2450.0,-2471.0,0.114,0.684,0.398,-0.6
1199339,-7793.0,-2434.0,-2861.0,0.116,0.683,0.396,-0.603
1199356,-7929.0,-2718.0,-2187.0,0.117,0.683,0.394,-0.604
1199373,-8231.0,-3090.0,-2063.0,0.118,0.683,0.392,-0.605
1199390,-8325.0,-3524.0,-2055.0,0.118,0.683,0.391,-0.606
1199407,-8651.0,-3052.0,-1757.0,0.117,0.682,0.389,-0.608
1199424,-8861.0,-3130.0,-1807.0,0.117,0.682,0.388,-0.609
1199440,-8881.0,-3360.0,-1711.0,0.118,0.681,0.387,-0.61
1199457,-9117.0,-3236.0,-1535.0,0.118,0.681,0.386,-0.611
1199473,-9355.0,-3530.0,-1795.0,0.119,0.68,0.385,-0.612
1199499,-9531.0,-3402.0,-1929.0,0.12,0.68,0.385,-0.612
1199515,-10219.0,-3782.0,-1985.0,0.122,0.68,0.385,-0.612
1199531,-10383.0,-3842.0,-2633.0,0.123,0.68,0.386,-0.611
1199547,-10117.0,-3822.0,-2919.0,0.122,0.681,0.387,-0.609
1199564,-10653.0,-4542.0,-3247.0,0.121,0.684,0.39,-0.604
1199580,-11727.0,-4038.0,-3093.0,0.118,0.687,0.394,-0.599
1199606,-11305.0,-4306.0,-3043.0,0.116,0.689,0.399,-0.593
1199622,-11293.0,-4246.0,-3307.0,0.113,0.691,0.404,-0.588
1199639,-10855.0,-4326.0,-3277.0,0.11,0.693,0.41,-0.582
1199656,-10745.0,-4470.0,-2789.0,0.106,0.694,0.416,-0.577
1199672,-10973.0,-3980.0,-2807.0,0.102,0.694,0.422,-0.574
1199689,-10377.0,-3624.0,-2921.0,0.1,0.694,0.427,-0.572
1199705,-10003.0,-3530.0,-2757.0,0.098,0.693,0.43,-0.571
1199722,-9237.0,-3648.0,-2679.0,0.098,0.691,0.432,-0.571
1199739,-7589.0,-4124.0,-3215.0,0.095,0.689,0.435,-0.572
1199756,-8647.0,-2772.0,-2711.0,0.093,0.687,0.437,-0.573
1199782,-8181.0,-3520.0,-2683.0,0.092,0.685,0.439,-0.574
1199798,-8317.0,-3252.0,-2233.0,0.091,0.683,0.439,-0.577
1199814,-7919.0,-3060.0,-2529.0,0.092,0.681,0.438,-0.58
1199830,-6953.0,-2746.0,-2773.0,0.093,0.679,0.436,-0.583
1199846,-6309.0,-3066.0,-2621.0,0.094,0.678,0.435,-0.585
1199872,-6967.0,-3188.0,-2053.0,0.094,0.677,0.435,-0.587
1199889,-8305.0,-3366.0,-1201.0,0.095,0.675,0.433,-0.59
1199906,-7597.0,-4282.0,-961.0,0.098,0.673,0.429,-0.594
1199922,-7829.0,-4314.0,-331.0,0.101,0.671,0.42,-0.602
1199939,-7351.0,-2954.0,-2039.0,0.102,0.668,0.411,-0.612
1199955,-7263.0,444.0,-2927.0,0.105,0.665,0.404,-0.619
1199971,-6883.0,-3956.0,-1577.0,0.111,0.661,0.399,-0.626
1199988,-6279.0,-2608.0,-2069.0,0.116,0.658,0.392,-0.633
1200005,-7135.0,-1414.0,-2981.0,0.122,0.655,0.385,-0.639
1200022,-5509.0,-974.0,-2773.0,0.128,0.652,0.379,-0.644
1200049,-4961.0,-1870.0,-3041.0,0.136,0.651,0.373,-0.647
1200065,-5971.0,-2512.0,-2279.0,0.142,0.652,0.367,-0.648
1200081,-6537.0,-388.0,-707.0,0.149,0.654,0.358,-0.65
1200097,-5295.0,-1232.0,-439.0,0.159,0.655,0.349,-0.651
1200113,-3971.0,182.0,-467.0,0.17,0.656,0.338,-0.652
1200129,-2885.0,46.0,135.0,0.184,0.657,0.327,-0.654
1200155,-2357.0,654.0,279.0,0.198,0.657,0.318,-0.654
1200172,-1555.0,426.0,-243.0,0.212,0.657,0.311,-0.653
1200188,-1033.0,-690.0,-243.0,0.223,0.657,0.308,-0.651
1200205,-487.0,-260.0,-1281.0,0.23,0.657,0.311,-0.647
1200222,-1179.0,-3442.0,-1325.0,0.23,0.656,0.319,-0.644
1200238,-2003.0,-2606.0,-1485.0,0.223,0.657,0.328,-0.641
1200255,-1633.0,-3204.0,-487.0,0.212,0.657,0.338,-0.64
1200272,-1129.0,-4360.0,261.0,0.198,0.656,0.35,-0.639
1200288,-1561.0,-4302.0,-781.0,0.182,0.657,0.362,-0.636
1200305,-1993.0,-2734.0,385.0,0.162,0.658,0.373,-0.633
1200331,-2693.0,4810.0,-851.0,0.143,0.661,0.383,-0.63
1200347,-5807.0,-1102.0,-361.0,0.13,0.662,0.394,-0.624
1200364,-7897.0,-926.0,-1141.0,0.119,0.662,0.403,-0.62
1200380,-7829.0,-3580.0,-1629.0,0.113,0.661,0.41,-0.618
1200396,-7307.0,-3884.0,-2639.0,0.103,0.661,0.417,-0.616
1200412,-8495.0,-1760.0,-2883.0,0.095,0.66,0.423,-0.613
1200438,-10881.0,-4190.0,-1687.0,0.09,0.658,0.431,-0.61
1200455,-9505.0,-4748.0,-2491.0,0.087,0.656,0.435,-0.61
1200472,-8181.0,-3668.0,-2745.0,0.084,0.654,0.438,-0.611
1200489,-8073.0,-4802.0,-2835.0,0.082,0.651,0.442,-0.612
1200505,-9377.0,-3072.0,-2767.0,0.079,0.649,0.446,-0.612
1200521,-8041.0,-4798.0,-2739.0,0.079,0.646,0.449,-0.612
1200538,-8823.0,-4926.0,-2233.0,0.08,0.644,0.451,-0.612
1200554,-8365.0,-4804.0,-2287.0,0.08,0.644,0.453,-0.612
1200580,-9005.0,-4220.0,-1633.0,0.081,0.643,0.454,-0.612
1200596,-7547.0,-4544.0,-2381.0,0.081,0.642,0.455,-0.612
1200613,-8249.0,-4712.0,-1919.0,0.082,0.642,0.455,-0.611
1200629,-7957.0,-5000.0,-1945.0,0.082,0.643,0.454,-0.611
1200645,-8217.0,-3772.0,-1753.0,0.083,0.643,0.453,-0.611
1200661,-7265.0,-4614.0,-2055.0,0.084,0.644,0.453,-0.611
1200678,-8371.0,-3486.0,-1841.0,0.084,0.644,0.451,-0.612
1200704,-7949.0,-4174.0,-1673.0,0.086,0.644,0.45,-0.613
1200721,-7395.0,-4058.0,-1809.0,0.088,0.644,0.448,-0.614
1200737,-7591.0,-4328.0,-2035.0,0.089,0.644,0.446,-0.615
1200754,-7401.0,-3388.0,-2301.0,0.09,0.644,0.444,-0.616
1200771,-8105.0,-4310.0,-1717.0,0.091,0.643,0.443,-0.618
1200787,-8073.0,-3948.0,-1601.0,0.093,0.643,0.44,-0.62
1200804,-8183.0,-3858.0,-1663.0,0.095,0.641,0.436,-0.624
1200821,-8101.0,-3650.0,-1473.0,0.098,0.64,0.432,-0.628
1200837,-8007.0,-4102.0,-1387.0,0.102,0.638,0.428,-0.632
1200863,-8199.0,-3920.0,-1005.0,0.106,0.635,0.424,-0.637
1200880,-8799.0,-3360.0,-1315.0,0.11,0.631,0.42,-0.643
1200896,-9345.0,-4176.0,-1011.0,0.114,0.627,0.417,-0.648
1200913,-9475.0,-5840.0,-995.0,0.117,0.622,0.414,-0.654
1200929,-12081.0,-4908.0,-979.0,0.119,0.618,0.412,-0.659
1200946,-12047.0,-4988.0,-1085.0,0.121,0.614,0.411,-0.663
1200962,-12027.0,-6040.0,-1183.0,0.121,0.61,0.411,-0.667
1200978,-12327.0,-5950.0,-993.0,0.12,0.606,0.412,-0.67
1200995,-11873.0,-5592.0,-1103.0,0.118,0.603,0.414,-0.671
1201022,-10893.0,-5590.0,-897.0,0.115,0.601,0.416,-0.672
1201038,-9887.0,-5044.0,-1295.0,0.112,0.6,0.42,-0.672
1201055,-9515.0,-5196.0,-1559.0,0.108,0.6,0.424,-0.67
1201072,-9571.0,-4280.0,-1121.0,0.104,0.601,0.429,-0.666
1201089,-9671.0,-4572.0,-977.0,0.101,0.603,0.434,-0.662
1201106,-9933.0,-4930.0,-807.0,0.1,0.605,0.438,-0.657
1201123,-9737.0,-4680.0,-581.0,0.1,0.608,0.441,-0.653
1201139,-8325.0,-5068.0,-1181.0,0.098,0.61,0.444,-0.649
1201155,-8097.0,-4602.0,-1391.0,0.096,0.612,0.447,-0.646
1201181,-8553.0,-4434.0,-1031.0,0.094,0.614,0.449,-0.642
1201197,-9387.0,-4360.0,-715.0,0.093,0.615,0.45,-0.64
1201214,-8797.0,-4210.0,-349.0,0.095,0.617,0.449,-0.64
1201231,-6051.0,-4186.0,-1375.0,0.095,0.617,0.447,-0.64
1201247,-7607.0,-3562.0,-1601.0,0.095,0.619,0.446,-0.64
1201264,-7221.0,-4152.0,-1131.0,0.095,0.62,0.445,-0.639
1201280,-7747.0,-3382.0,-593.0,0.097,0.621,0.443,-0.639
1201297,-7233.0,-3988.0,-1049.0,0.1,0.622,0.439,-0.64
1201323,-7355.0,-3388.0,-1025.0,0.103,0.623,0.434,-0.642
1201340,-6755.0,-2882.0,-1477.0,0.106,0.624,0.43,-0.643
1201357,-5957.0,-2334.0,-1855.0,0.109,0.626,0.426,-0.644
1201374,-7153.0,-3486.0,-1309.0,0.112,0.629,0.422,-0.644
1201391,-8079.0,-4246.0,-1183.0,0.115,0.631,0.417,-0.644
1201408,-7571.0,-2898.0,-1541.0,0.119,0.634,0.409,-0.646
1201425,-6919.0,-2236.0,-1301.0,0.123,0.636,0.401,-0.648
1201442,-7343.0,-2486.0,-1329.0,0.127,0.637,0.392,-0.652
1201459,-6685.0,-4698.0,-1139.0,0.129,0.637,0.383,-0.656
1201476,-7375.0,2178.0,-1405.0,0.133,0.638,0.373,-0.66
1201493,-5971.0,696.0,-681.0,0.143,0.637,0.364,-0.664
1201510,-4201.0,-2762.0,-893.0,0.154,0.635,0.355,-0.668
1201527,-3269.0,-306.0,-1235.0,0.164,0.634,0.344,-0.673
1201544,-1513.0,-268.0,-1039.0,0.171,0.634,0.337,-0.675
1201571,-913.0,-1982.0,-453.0,0.176,0.634,0.333,-0.676
1201588,-1041.0,-2602.0,73.0,0.178,0.635,0.329,-0.676
1201604,-1227.0,-1354.0,265.0,0.177,0.637,0.327,-0.675
1201621,-1385.0,-1734.0,245.0,0.174,0.639,0.328,-0.674
1201637,-841.0,-1092.0,73.0,0.168,0.641,0.33,-0.672
1201654,-1279.0,-1852.0,-243.0,0.161,0.643,0.334,-0.67
1201671,-1923.0,-2562.0,163.0,0.152,0.646,0.339,-0.667
1201687,-2781.0,-696.0,901.0,0.142,0.647,0.346,-0.665
1201703,-3311.0,364.0,-83.0,0.134,0.647,0.353,-0.663
1201730,-4611.0,-3952.0,-913.0,0.127,0.646,0.361,-0.661
1201747,-5897.0,-3030.0,-275.0,0.116,0.646,0.367,-0.659
1201763,-7107.0,366.0,-245.0,0.109,0.643,0.374,-0.659
1201779,-7931.0,-3232.0,-359.0,0.107,0.64,0.379,-0.66
1201795,-7249.0,-5194.0,-1487.0,0.104,0.637,0.382,-0.661
1201811,-6499.0,-1616.0,-771.0,0.098,0.635,0.386,-0.662
1201827,-7075.0,-4266.0,-1137.0,0.094,0.633,0.392,-0.661
1201854,-8983.0,-3430.0,-1303.0,0.092,0.63,0.396,-0.662
1201871,-7321.0,-4100.0,-1287.0,0.089,0.629,0.399,-0.662
1201888,-6999.0,-2546.0,-1413.0,0.087,0.628,0.402,-0.661
1201904,-8403.0,-2752.0,-1567.0,0.086,0.627,0.406,-0.659
1201921,-8327.0,-4630.0,-529.0,0.087,0.628,0.409,-0.657
1201938,-7751.0,-4372.0,-1571.0,0.085,0.629,0.41,-0.655
1201955,-8029.0,-3400.0,-2143.0,0.085,0.63,0.412,-0.653
1201971,-9361.0,-3466.0,-519.0,0.085,0.632,0.414,-0.65
1201988,-8765.0,-4432.0,-1163.0,0.086,0.632,0.415,-0.648
1202005,-7967.0,-4536.0,-1475.0,0.087,0.633,0.415,-0.648
1202031,-7887.0,-3704.0,-1357.0,0.087,0.634,0.415,-0.647
1202047,-8605.0,-3302.0,-1229.0,0.088,0.636,0.414,-0.646
1202063,-8657.0,-4136.0,-1401.0,0.09,0.636,0.414,-0.645
1202079,-8131.0,-4934.0,-1085.0,0.092,0.637,0.413,-0.645
1202095,-8677.0,-4210.0,-1457.0,0.092,0.637,0.412,-0.645
1202111,-8157.0,-3906.0,-1851.0,0.093,0.637,0.41,-0.646
1202137,-8439.0,-3980.0,-1047.0,0.094,0.636,0.409,-0.647
1202154,-9617.0,-3448.0,-913.0,0.096,0.635,0.407,-0.649
1202171,-8615.0,-4156.0,-1085.0,0.1,0.634,0.404,-0.652
1202187,-8571.0,-3302.0,-677.0,0.103,0.632,0.401,-0.655
1202204,-8233.0,-3376.0,-1119.0,0.106,0.63,0.398,-0.659
1202221,-7975.0,-3084.0,-1221.0,0.109,0.629,0.395,-0.661
1202238,-8515.0,-3696.0,-187.0,0.112,0.628,0.393,-0.663
1202254,-9123.0,-3446.0,-339.0,0.115,0.627,0.39,-0.665
1202271,-9313.0,-3448.0,-535.0,0.119,0.625,0.388,-0.666
1202297,-8267.0,-4154.0,-1047.0,0.122,0.625,0.386,-0.667
1202314,-9603.0,-3232.0,-1249.0,0.124,0.626,0.386,-0.666
1202330,-10767.0,-4526.0,-1357.0,0.124,0.628,0.386,-0.664
1202346,-12283.0,-4812.0,-335.0,0.125,0.63,0.386,-0.662
1202362,-11063.0,-5362.0,-987.0,0.124,0.632,0.387,-0.66
1202378,-11179.0,-4170.0,-1505.0,0.123,0.633,0.389,-0.657
1202395,-11165.0,-4998.0,-1173.0,0.12,0.635,0.393,-0.654
1202421,-11379.0,-4498.0,-1439.0,0.118,0.636,0.396,-0.652
1202438,-11419.0,-4370.0,-997.0,0.116,0.637,0.4,-0.649
1202454,-10279.0,-4766.0,-1529.0,0.114,0.638,0.404,-0.646
1202471,-10017.0,-4946.0,-1821.0,0.111,0.639,0.409,-0.642
1202487,-10259.0,-4402.0,-1363.0,0.107,0.64,0.415,-0.638
1202504,-10245.0,-4144.0,-1567.0,0.104,0.641,0.421,-0.634
1202521,-9979.0,-4046.0,-1727.0,0.102,0.641,0.425,-0.63
1202537,-8693.0,-4044.0,-1945.0,0.101,0.642,0.43,-0.627
1202554,-8385.0,-4248.0,-2125.0,0.1,0.643,0.435,-0.623
1202571,-8029.0,-3502.0,-2353.0,0.098,0.644,0.44,-0.618
1202597,-8521.0,-4006.0,-1887.0,0.096,0.646,0.445,-0.613
1202613,-8739.0,-4186.0,-1947.0,0.096,0.647,0.448,-0.609
1202629,-8661.0,-4494.0,-1569.0,0.098,0.648,0.45,-0.606
1202645,-7993.0,-3824.0,-2021.0,0.099,0.649,0.451,-0.605
1202662,-7235.0,-3932.0,-2519.0,0.101,0.648,0.452,-0.604
1202678,-7573.0,-3608.0,-2159.0,0.103,0.648,0.452,-0.604
1202704,-7491.0,-3708.0,-2327.0,0.106,0.648,0.452,-0.604
1202721,-7879.0,-3796.0,-2035.0,0.11,0.648,0.45,-0.604
1202738,-7399.0,-3336.0,-2099.0,0.115,0.648,0.447,-0.606
1202754,-6865.0,-3436.0,-2639.0,0.12,0.648,0.444,-0.607
1202770,-6741.0,-2836.0,-2505.0,0.124,0.649,0.44,-0.608
1202786,-7225.0,-2836.0,-2179.0,0.128,0.65,0.437,-0.608
1202803,-7333.0,-3822.0,-2217.0,0.133,0.652,0.433,-0.608
1202819,-7501.0,-1874.0,-1899.0,0.137,0.654,0.427,-0.609
1202836,-7463.0,-3318.0,-2001.0,0.143,0.656,0.422,-0.61
1202863,-7663.0,-1466.0,-1663.0,0.148,0.657,0.415,-0.612
1202879,-5837.0,-3214.0,-1755.0,0.155,0.657,0.409,-0.614
1202896,-6855.0,-1590.0,-1561.0,0.159,0.658,0.402,-0.617
1202912,-5859.0,-928.0,-1175.0,0.166,0.657,0.394,-0.62
1202928,-3883.0,-898.0,-505.0,0.174,0.656,0.386,-0.624
1202945,-2881.0,-1452.0,-1027.0,0.182,0.655,0.378,-0.628
1202961,-2303.0,-586.0,-665.0,0.188,0.654,0.37,-0.632
1202988,-887.0,-26.0,-395.0,0.193,0.654,0.364,-0.635
1203004,-727.0,-1358.0,-601.0,0.197,0.655,0.359,-0.635
1203021,-421.0,-1262.0,-189.0,0.198,0.657,0.354,-0.635
1203037,-23.0,-506.0,-555.0,0.196,0.66,0.352,-0.635
1203053,-1103.0,-1364.0,-439.0,0.191,0.663,0.353,-0.632
1203070,-2795.0,-2464.0,-435.0,0.186,0.665,0.357,-0.629
1203087,-3707.0,-2126.0,1479.0,0.178,0.667,0.364,-0.626
1203104,-3071.0,998.0,817.0,0.171,0.666,0.372,-0.623
1203120,-2965.0,668.0,-1433.0,0.166,0.664,0.381,-0.622
1203137,-3555.0,-6012.0,-1933.0,0.157,0.665,0.39,-0.617
1203164,-6685.0,1332.0,-1215.0,0.145,0.666,0.398,-0.614
1203180,-6775.0,-284.0,-1121.0,0.139,0.666,0.406,-0.61
1203197,-7703.0,-4470.0,-2333.0,0.134,0.665,0.411,-0.609
1203214,-9051.0,-500.0,-1679.0,0.128,0.664,0.417,-0.608
1203230,-6651.0,-3218.0,-1953.0,0.123,0.662,0.422,-0.607
1203246,-7987.0,-3642.0,-2499.0,0.119,0.659,0.426,-0.608
1203263,-8971.0,-1798.0,-1615.0,0.116,0.656,0.43,-0.609
1203280,-6635.0,-4186.0,-1907.0,0.113,0.654,0.434,-0.609
1203297,-7297.0,-3394.0,-2507.0,0.11,0.652,0.436,-0.611
1203314,-7797.0,-2564.0,-2201.0,0.107,0.65,0.438,-0.611
1203341,-8637.0,-2182.0,-1501.0,0.106,0.649,0.439,-0.612
1203358,-7987.0,-2970.0,-1729.0,0.108,0.648,0.438,-0.614
1203375,-7791.0,-3266.0,-1491.0,0.11,0.646,0.437,-0.616
1203392,-5081.0,-5158.0,-2679.0,0.111,0.646,0.435,-0.617
1203409,-7033.0,-1996.0,-2313.0,0.109,0.648,0.435,-0.616
1203426,-9337.0,-3526.0,-743.0,0.109,0.648,0.436,-0.615
1203443,-9579.0,-4918.0,-1749.0,0.11,0.648,0.434,-0.616
1203460,-8389.0,-3734.0,-2713.0,0.111,0.648,0.432,-0.617
1203477,-8851.0,-3872.0,-1401.0,0.113,0.648,0.43,-0.618
1203494,-9115.0,-4680.0,-2201.0,0.114,0.649,0.428,-0.619
1203511,-10017.0,-3380.0,-2491.0,0.116,0.649,0.426,-0.619
1203527,-9259.0,-4134.0,-1953.0,0.118,0.65,0.424,-0.62
1203544,-10287.0,-4278.0,-1235.0,0.121,0.649,0.422,-0.621
1203571,-9899.0,-3794.0,-2067.0,0.124,0.648,0.419,-0.624
1203587,-8887.0,-3804.0,-1817.0,0.127,0.647,0.416,-0.627
1203604,-9243.0,-3606.0,-1477.0,0.129,0.645,0.414,-0.63
1203621,-9399.0,-3906.0,-1295.0,0.129,0.642,0.412,-0.633
1203637,-9211.0,-3360.0,-1251.0,0.13,0.639,0.41,-0.638
1203654,-9195.0,-3410.0,-1369.0,0.13,0.636,0.409,-0.642
1203671,-8373.0,-5034.0,-1609.0,0.13,0.633,0.407,-0.646
1203687,-10057.0,-3616.0,-1099.0,0.128,0.631,0.406,-0.649
1203704,-10487.0,-4648.0,-1233.0,0.127,0.628,0.406,-0.652
1203721,-10657.0,-4536.0,-1155.0,0.127,0.625,0.405,-0.655
1203747,-10705.0,-5840.0,-1037.0,0.127,0.623,0.404,-0.658
1203763,-11089.0,-5138.0,-743.0,0.127,0.62,0.403,-0.661
1203780,-9453.0,-5566.0,-1203.0,0.124,0.617,0.403,-0.664
1203797,-10981.0,-4668.0,-913.0,0.121,0.614,0.404,-0.667
1203813,-9949.0,-5088.0,-923.0,0.117,0.611,0.405,-0.67
1203829,-10095.0,-4328.0,-965.0,0.114,0.609,0.406,-0.672
1203845,-8431.0,-4172.0,-1459.0,0.11,0.606,0.408,-0.674
1203872,-8691.0,-4018.0,-893.0,0.107,0.605,0.411,-0.674
1203888,-8611.0,-4090.0,-597.0,0.104,0.604,0.414,-0.673
1203904,-8387.0,-3966.0,-371.0,0.102,0.604,0.417,-0.671
1203920,-7957.0,-4426.0,-225.0,0.1,0.605,0.42,-0.669
1203937,-7573.0,-3930.0,-393.0,0.099,0.607,0.423,-0.666
1203953,-7911.0,-4038.0,-3.0,0.098,0.609,0.426,-0.662
1203969,-7711.0,-3966.0,-23.0,0.098,0.611,0.428,-0.659
1203996,-8265.0,-4112.0,-157.0,0.099,0.613,0.43,-0.655
1204012,-6985.0,-3792.0,-441.0,0.099,0.615,0.431,-0.653
1204028,-6753.0,-3760.0,-823.0,0.099,0.617,0.433,-0.65
1204045,-7343.0,-4276.0,-583.0,0.098,0.619,0.435,-0.647
1204062,-8113.0,-3828.0,-673.0,0.098,0.62,0.436,-0.645
1204079,-7985.0,-3474.0,-1133.0,0.099,0.622,0.436,-0.643
1204096,-6981.0,-4430.0,-769.0,0.1,0.623,0.437,-0.641
1204112,-7691.0,-4012.0,-873.0,0.1,0.625,0.437,-0.639
1204128,-7513.0,-4172.0,-1431.0,0.101,0.627,0.436,-0.638
1204155,-7631.0,-3872.0,-1433.0,0.102,0.629,0.436,-0.636
1204171,-8557.0,-3646.0,-705.0,0.104,0.631,0.433,-0.635
1204187,-8185.0,-3238.0,-923.0,0.108,0.632,0.43,-0.636
1204204,-6687.0,-2422.0,-2195.0,0.112,0.632,0.426,-0.637
1204220,-6853.0,-2538.0,-1391.0,0.116,0.633,0.424,-0.638
1204237,-5831.0,-4184.0,-1281.0,0.119,0.633,0.422,-0.638
1204253,-7685.0,-2692.0,-1439.0,0.12,0.635,0.42,-0.637
1204279,-7951.0,-2836.0,-1135.0,0.123,0.636,0.417,-0.638
1204295,-7401.0,-2532.0,-1055.0,0.127,0.637,0.415,-0.638
1204311,-7037.0,-2780.0,-1473.0,0.13,0.638,0.412,-0.638
1204328,-7217.0,-2956.0,-867.0,0.134,0.638,0.409,-0.638
1204344,-7487.0,-3352.0,-1229.0,0.137,0.639,0.405,-0.639
1204361,-6985.0,-2072.0,-1471.0,0.14,0.64,0.402,-0.639
1204377,-6299.0,-2422.0,-1565.0,0.144,0.642,0.398,-0.64
1204394,-7219.0,-2498.0,-927.0,0.147,0.643,0.394,-0.64
1204421,-8421.0,-866.0,-609.0,0.15,0.644,0.39,-0.641
1204437,-6287.0,-1940.0,-791.0,0.158,0.644,0.385,-0.642
1204453,-5637.0,-2196.0,-479.0,0.165,0.643,0.38,-0.644
1204470,-6275.0,-1538.0,-425.0,0.172,0.643,0.375,-0.645
1204487,-5969.0,-2286.0,-605.0,0.178,0.643,0.37,-0.646
1204503,-5489.0,568.0,299.0,0.186,0.643,0.365,-0.648
1204520,-4777.0,-1744.0,403.0,0.196,0.641,0.36,-0.649
1204536,-5371.0,-1848.0,-265.0,0.205,0.64,0.355,-0.65
1204553,-3957.0,-1988.0,119.0,0.21,0.639,0.351,-0.651
1204580,-3891.0,-1920.0,-299.0,0.213,0.64,0.348,-0.651
1204597,-4761.0,-928.0,-201.0,0.213,0.642,0.348,-0.65
1204613,-4975.0,-1842.0,-629.0,0.212,0.644,0.349,-0.647
1204629,-5335.0,-2998.0,-367.0,0.206,0.647,0.351,-0.644
1204645,-6095.0,34.0,-181.0,0.2,0.651,0.354,-0.641
1204661,-7137.0,-1966.0,-623.0,0.195,0.654,0.359,-0.637
1204677,-8647.0,-2888.0,-539.0,0.187,0.658,0.362,-0.633
1204703,-9813.0,-148.0,-319.0,0.183,0.661,0.365,-0.63
1204720,-9601.0,-2324.0,-683.0,0.181,0.661,0.368,-0.628
1204736,-9291.0,-2660.0,-1459.0,0.179,0.662,0.369,-0.627
1204752,-9481.0,-1094.0,-1321.0,0.177,0.663,0.371,-0.626
1204769,-8573.0,-2012.0,-1275.0,0.177,0.664,0.373,-0.624
1204786,-8179.0,-1960.0,-1465.0,0.177,0.665,0.374,-0.622
1204802,-7505.0,-2508.0,-1675.0,0.175,0.667,0.376,-0.619
1204819,-7423.0,-1714.0,-1503.0,0.172,0.67,0.377,-0.615
1204846,-7375.0,-1612.0,-1379.0,0.169,0.674,0.379,-0.612
1204862,-6979.0,-2184.0,-1601.0,0.167,0.677,0.381,-0.608
1204878,-6945.0,-2218.0,-1777.0,0.163,0.681,0.382,-0.603
1204894,-7593.0,-1348.0,-1489.0,0.159,0.684,0.384,-0.599
1204910,-7651.0,-1808.0,-1613.0,0.157,0.688,0.386,-0.595
1204926,-7071.0,-2770.0,-1829.0,0.154,0.691,0.388,-0.591
1204943,-7137.0,-2526.0,-2163.0,0.15,0.694,0.39,-0.586
1204960,-7701.0,-2130.0,-2115.0,0.146,0.698,0.391,-0.582
1204987,-7557.0,-2016.0,-2073.0,0.143,0.701,0.393,-0.578
1205003,-7505.0,-2324.0,-2461.0,0.14,0.703,0.395,-0.574
1205019,-7733.0,-1570.0,-2733.0,0.138,0.706,0.396,-0.571
1205035,-7325.0,-2334.0,-2573.0,0.136,0.709,0.398,-0.567
1205051,-7031.0,-2194.0,-2827.0,0.134,0.712,0.398,-0.563
1205067,-7079.0,-2532.0,-3035.0,0.131,0.715,0.399,-0.559
1205084,-7143.0,-1946.0,-2829.0,0.129,0.717,0.4,-0.555
1205111,-6939.0,-2108.0,-2931.0,0.126,0.72,0.402,-0.551
1205127,-7059.0,-2512.0,-3101.0,0.124,0.722,0.404,-0.548
1205144,-7273.0,-2324.0,-3161.0,0.121,0.724,0.405,-0.544
1205160,-7241.0,-2230.0,-3229.0,0.118,0.727,0.407,-0.541
1205176,-7133.0,-2384.0,-3479.0,0.116,0.729,0.408,-0.538
1205193,-7205.0,-2832.0,-3605.0,0.113,0.731,0.41,-0.534
1205210,-7815.0,-2446.0,-3413.0,0.11,0.733,0.412,-0.53
1205227,-7595.0,-2460.0,-3485.0,0.108,0.735,0.413,-0.528
1205244,-7451.0,-2402.0,-3449.0,0.107,0.736,0.413,-0.526
1205270,-7123.0,-2770.0,-3831.0,0.105,0.737,0.414,-0.523
1205286,-7191.0,-2364.0,-3695.0,0.104,0.739,0.415,-0.521
1205303,-6817.0,-2488.0,-3613.0,0.103,0.74,0.416,-0.518
1205319,-6653.0,-2272.0,-3799.0,0.102,0.742,0.417,-0.515
1205335,-6757.0,-2004.0,-3781.0,0.101,0.744,0.417,-0.513
1205352,-6433.0,-1968.0,-3831.0,0.101,0.745,0.418,-0.509
1205369,-6121.0,-2038.0,-3867.0,0.1,0.747,0.419,-0.506
1205386,-5893.0,-2300.0,-4043.0,0.099,0.75,0.42,-0.501
1205403,-6653.0,-1810.0,-3913.0,0.096,0.752,0.422,-0.497
1205429,-6705.0,-2208.0,-3891.0,0.094,0.755,0.423,-0.492
1205445,-6621.0,-2084.0,-3905.0,0.093,0.757,0.425,-0.488
1205461,-6569.0,-2804.0,-4257.0,0.091,0.758,0.427,-0.485
1205477,-6631.0,-2680.0,-4483.0,0.089,0.759,0.429,-0.482
1205493,-6961.0,-2488.0,-4405.0,0.087,0.76,0.431,-0.479
1205510,-6803.0,-2496.0,-4531.0,0.086,0.76,0.433,-0.477
1205536,-6785.0,-2942.0,-4821.0,0.084,0.761,0.435,-0.475
1205553,-6889.0,-2254.0,-4873.0,0.083,0.761,0.436,-0.473
1205569,-6445.0,-2628.0,-4933.0,0.082,0.761,0.438,-0.471
1205586,-6289.0,-2940.0,-4999.0,0.081,0.762,0.439,-0.469
1205603,-6645.0,-2398.0,-4805.0,0.08,0.763,0.441,-0.467
1205619,-6573.0,-2424.0,-4715.0,0.079,0.763,0.442,-0.465
1205636,-6187.0,-2526.0,-4677.0,0.078,0.764,0.443,-0.463
1205653,-6331.0,-2696.0,-4407.0,0.077,0.764,0.444,-0.461
1205670,-6417.0,-2638.0,-4457.0,0.077,0.765,0.446,-0.459
1205686,-6393.0,-2448.0,-4447.0,0.076,0.765,0.447,-0.458
1205712,-6161.0,-2448.0,-4399.0,0.075,0.765,0.448,-0.456
1205728,-6269.0,-2540.0,-4417.0,0.075,0.765,0.45,-0.455
1205744,-6275.0,-2444.0,-4541.0,0.074,0.765,0.451,-0.453
1205760,-6189.0,-2100.0,-4483.0,0.074,0.766,0.452,-0.451
1205776,-5883.0,-2374.0,-4587.0,0.073,0.766,0.454,-0.449
1205793,-5897.0,-2778.0,-4799.0,0.073,0.767,0.455,-0.446
1205810,-6203.0,-2418.0,-4577.0,0.071,0.768,0.457,-0.443
1205836,-6429.0,-2270.0,-4505.0,0.071,0.769,0.458,-0.44
1205852,-6175.0,-2430.0,-4689.0,0.07,0.77,0.46,-0.438
1205869,-5995.0,-2812.0,-4817.0,0.069,0.77,0.462,-0.435
1205886,-6109.0,-2468.0,-4787.0,0.068,0.771,0.463,-0.432
1205902,-6095.0,-2450.0,-5101.0,0.067,0.772,0.465,-0.428
1205918,-5981.0,-2400.0,-4845.0,0.067,0.773,0.466,-0.425
1205935,1043.0,-2362.0,-3151.0,0.069,0.771,0.467,-0.428
1205952,-8547.0,-3224.0,-1577.0,0.067,0.771,0.468,-0.426
1205969,-513.0,-2646.0,-11935.0,0.071,0.769,0.469,-0.428
1205996,-4433.0,-566.0,-7067.0,0.07,0.768,0.473,-0.427
1206012,-9397.0,-2580.0,-10041.0,0.069,0.767,0.473,-0.428
1206028,-3255.0,140.0,-5219.0,0.07,0.766,0.474,-0.429
1206044,-5441.0,-2792.0,1211.0,0.07,0.766,0.476,-0.426
1206060,-6781.0,-1842.0,-6775.0,0.069,0.766,0.477,-0.425
1206076,-3167.0,-3076.0,-4681.0,0.071,0.765,0.479,-0.424
1206093,-7489.0,-3864.0,-3497.0,0.069,0.766,0.481,-0.421
1206119,-7343.0,-3582.0,-6219.0,0.068,0.767,0.481,-0.419
1206136,-4377.0,-2022.0,-4679.0,0.069,0.768,0.482,-0.416
1206153,-4297.0,-2394.0,-4319.0,0.068,0.768,0.484,-0.415
1206169,-5457.0,-1654.0,-5321.0,0.067,0.767,0.485,-0.415
1206186,-4891.0,-3166.0,-3897.0,0.067,0.767,0.486,-0.414
1206202,-4633.0,-4288.0,-3779.0,0.066,0.767,0.488,-0.412
1206218,-8245.0,-2902.0,-7765.0,0.064,0.768,0.49,-0.408
1206235,-4231.0,-2602.0,-4491.0,0.063,0.768,0.493,-0.405
1206261,-5291.0,-754.0,-2527.0,0.061,0.769,0.495,-0.4
1206277,-4069.0,-238.0,-7671.0,0.061,0.769,0.497,-0.397
1206293,-4601.0,-2754.0,-4781.0,0.061,0.769,0.501,-0.393
1206309,-5803.0,-1798.0,-5925.0,0.058,0.769,0.503,-0.39
1206326,-7263.0,-2142.0,-13847.0,0.057,0.769,0.504,-0.39
1206343,-6085.0,-6064.0,-2463.0,0.057,0.768,0.507,-0.387
1206360,-6707.0,-1808.0,-2647.0,0.056,0.769,0.508,-0.384
1206377,-4737.0,-824.0,-3923.0,0.056,0.769,0.51,-0.382
1206403,-2027.0,-2442.0,-3833.0,0.058,0.768,0.512,-0.38
