timeMs,ax,ay,az,q0,q1,q2,q3
519856,1650.0,6834.0,3535.0,0.208,0.063,-0.483,-0.848
519872,1584.0,6616.0,3599.0,0.212,0.067,-0.484,-0.846
519888,1366.0,6252.0,3591.0,0.216,0.07,-0.484,-0.845
519904,1324.0,6158.0,3433.0,0.221,0.073,-0.485,-0.843
519921,1414.0,6336.0,3359.0,0.226,0.075,-0.488,-0.84
519937,1254.0,6676.0,3211.0,0.231,0.077,-0.492,-0.836
519963,1200.0,7024.0,3267.0,0.236,0.079,-0.496,-0.832
519980,1104.0,7476.0,3037.0,0.242,0.08,-0.5,-0.828
519996,1028.0,7928.0,2993.0,0.247,0.081,-0.503,-0.824
520012,646.0,8150.0,2843.0,0.252,0.08,-0.506,-0.821
520028,464.0,7928.0,2611.0,0.256,0.079,-0.506,-0.819
520044,390.0,7594.0,2641.0,0.26,0.078,-0.507,-0.818
520062,578.0,7502.0,2975.0,0.262,0.076,-0.507,-0.818
520079,958.0,7514.0,3203.0,0.264,0.073,-0.508,-0.817
520105,1304.0,7276.0,3223.0,0.265,0.069,-0.508,-0.816
520122,1594.0,7262.0,3345.0,0.267,0.065,-0.51,-0.815
520139,1688.0,7408.0,3517.0,0.268,0.06,-0.512,-0.814
520156,1856.0,7492.0,3713.0,0.268,0.055,-0.515,-0.812
520173,2006.0,7474.0,3727.0,0.268,0.05,-0.518,-0.811
520190,2168.0,7360.0,3655.0,0.268,0.044,-0.521,-0.809
520207,2258.0,7462.0,3707.0,0.267,0.038,-0.524,-0.808
520224,2322.0,7376.0,3785.0,0.266,0.032,-0.525,-0.808
520241,2432.0,7244.0,3731.0,0.264,0.025,-0.526,-0.808
520258,2488.0,6992.0,3613.0,0.263,0.018,-0.527,-0.808
520275,2476.0,6760.0,3525.0,0.261,0.011,-0.526,-0.809
520292,2496.0,6636.0,3661.0,0.259,0.003,-0.526,-0.81
520309,2592.0,6574.0,3731.0,0.257,-0.004,-0.525,-0.811
520336,2450.0,6616.0,3651.0,0.255,-0.011,-0.524,-0.812
520353,2410.0,6844.0,3727.0,0.253,-0.018,-0.524,-0.813
520370,2678.0,7308.0,3797.0,0.25,-0.026,-0.524,-0.814
520387,2932.0,7820.0,3741.0,0.248,-0.033,-0.523,-0.815
520404,3096.0,7948.0,3717.0,0.245,-0.039,-0.521,-0.817
520421,4644.0,7148.0,4941.0,0.242,-0.045,-0.519,-0.819
520438,2696.0,6588.0,4301.0,0.238,-0.047,-0.52,-0.819
520455,4010.0,7124.0,4359.0,0.234,-0.048,-0.523,-0.818
520472,3890.0,7796.0,3811.0,0.23,-0.049,-0.525,-0.818
520489,3774.0,7802.0,3707.0,0.226,-0.049,-0.524,-0.82
520505,3950.0,7722.0,4087.0,0.223,-0.048,-0.52,-0.823
520522,4278.0,6988.0,4407.0,0.221,-0.048,-0.513,-0.828
520539,4552.0,6132.0,4973.0,0.219,-0.047,-0.507,-0.833
520566,4364.0,5272.0,5367.0,0.219,-0.045,-0.503,-0.835
520583,4380.0,5496.0,5423.0,0.218,-0.041,-0.502,-0.836
520600,4112.0,5392.0,5001.0,0.217,-0.036,-0.502,-0.836
520617,4024.0,4966.0,4193.0,0.215,-0.032,-0.504,-0.836
520634,3518.0,5602.0,3227.0,0.212,-0.029,-0.507,-0.835
520650,4278.0,5482.0,3071.0,0.209,-0.026,-0.51,-0.834
520667,3560.0,3690.0,2975.0,0.208,-0.024,-0.513,-0.832
520684,3470.0,4840.0,2937.0,0.207,-0.023,-0.519,-0.829
520700,3794.0,4666.0,3167.0,0.208,-0.023,-0.525,-0.825
520717,3850.0,5270.0,3527.0,0.211,-0.024,-0.532,-0.82
520743,3592.0,6450.0,3561.0,0.214,-0.024,-0.538,-0.815
520760,3270.0,6884.0,3301.0,0.217,-0.024,-0.542,-0.811
520776,2904.0,6668.0,2933.0,0.22,-0.025,-0.545,-0.809
520792,2800.0,6892.0,2729.0,0.223,-0.025,-0.549,-0.805
520809,2678.0,7266.0,2625.0,0.226,-0.026,-0.552,-0.802
520826,2470.0,7574.0,2581.0,0.229,-0.027,-0.555,-0.799
520843,2182.0,7694.0,2721.0,0.231,-0.028,-0.558,-0.797
520859,1886.0,7774.0,3003.0,0.233,-0.03,-0.559,-0.796
520875,1628.0,7850.0,3345.0,0.234,-0.032,-0.558,-0.795
520902,1430.0,7742.0,3687.0,0.235,-0.035,-0.557,-0.796
520918,1298.0,7580.0,3971.0,0.235,-0.039,-0.556,-0.796
520934,1446.0,6770.0,4297.0,0.235,-0.042,-0.555,-0.797
520951,1582.0,6728.0,4395.0,0.235,-0.045,-0.555,-0.797
520968,2026.0,7032.0,4415.0,0.235,-0.047,-0.556,-0.796
520985,2426.0,7568.0,4241.0,0.234,-0.048,-0.558,-0.795
521002,3028.0,7936.0,4055.0,0.234,-0.049,-0.559,-0.794
521018,3572.0,8044.0,3879.0,0.234,-0.05,-0.559,-0.794
521035,4006.0,7950.0,3775.0,0.234,-0.05,-0.559,-0.794
521061,4246.0,7864.0,3721.0,0.234,-0.049,-0.558,-0.794
521078,4334.0,7386.0,3603.0,0.235,-0.047,-0.559,-0.794
521095,4690.0,6986.0,3395.0,0.237,-0.044,-0.559,-0.793
521112,4494.0,6638.0,3053.0,0.239,-0.04,-0.561,-0.791
521129,4434.0,6524.0,2813.0,0.241,-0.036,-0.564,-0.789
521146,4504.0,6752.0,2557.0,0.244,-0.032,-0.568,-0.785
521163,4346.0,6744.0,2345.0,0.247,-0.027,-0.572,-0.782
521179,3996.0,6752.0,2051.0,0.25,-0.022,-0.576,-0.778
521195,3634.0,6592.0,1961.0,0.252,-0.018,-0.578,-0.776
521221,3386.0,6866.0,1985.0,0.254,-0.016,-0.579,-0.774
521238,3142.0,6168.0,2245.0,0.255,-0.014,-0.579,-0.774
521255,2870.0,5564.0,2663.0,0.256,-0.013,-0.577,-0.775
521272,2158.0,5996.0,3109.0,0.256,-0.013,-0.576,-0.776
521289,1862.0,6672.0,3235.0,0.257,-0.013,-0.576,-0.776
521306,2768.0,6762.0,2815.0,0.259,-0.014,-0.578,-0.773
521323,3040.0,7438.0,2507.0,0.261,-0.015,-0.581,-0.77
521340,3226.0,7902.0,2581.0,0.262,-0.018,-0.584,-0.768
521357,3414.0,7522.0,2703.0,0.262,-0.021,-0.585,-0.767
521374,3684.0,7166.0,2647.0,0.262,-0.024,-0.585,-0.767
521391,3802.0,6848.0,2625.0,0.261,-0.027,-0.585,-0.768
521408,3856.0,6688.0,2639.0,0.259,-0.03,-0.585,-0.768
521425,3850.0,6814.0,2743.0,0.258,-0.032,-0.587,-0.767
521442,4016.0,7182.0,2771.0,0.257,-0.035,-0.59,-0.765
521469,3768.0,7676.0,2725.0,0.256,-0.037,-0.593,-0.763
521486,3624.0,8108.0,2743.0,0.256,-0.039,-0.595,-0.761
521503,3560.0,8006.0,2731.0,0.255,-0.04,-0.595,-0.761
521520,3512.0,7714.0,2787.0,0.255,-0.04,-0.594,-0.762
521537,3458.0,7342.0,2899.0,0.254,-0.041,-0.593,-0.763
521554,3488.0,7228.0,2805.0,0.254,-0.041,-0.592,-0.764
521571,3480.0,6978.0,2713.0,0.254,-0.04,-0.591,-0.765
521587,3482.0,6744.0,2589.0,0.253,-0.04,-0.59,-0.766
521603,3442.0,6738.0,2573.0,0.253,-0.039,-0.589,-0.766
521619,3380.0,6976.0,2555.0,0.253,-0.039,-0.589,-0.766
521645,3388.0,7104.0,2483.0,0.253,-0.038,-0.589,-0.767
521662,3424.0,7174.0,2461.0,0.253,-0.038,-0.588,-0.767
521679,3460.0,7210.0,2505.0,0.253,-0.038,-0.588,-0.768
521696,3486.0,7158.0,2537.0,0.253,-0.039,-0.586,-0.769
521712,3502.0,7056.0,2687.0,0.253,-0.039,-0.585,-0.77
521728,3392.0,6862.0,2805.0,0.254,-0.039,-0.583,-0.771
521744,3362.0,6808.0,2851.0,0.254,-0.039,-0.582,-0.772
521761,3378.0,6910.0,2931.0,0.254,-0.039,-0.581,-0.772
521778,3386.0,6852.0,2869.0,0.254,-0.039,-0.58,-0.773
521805,3390.0,6932.0,2827.0,0.255,-0.039,-0.58,-0.773
521821,3384.0,6970.0,2757.0,0.255,-0.039,-0.58,-0.773
521837,3368.0,6966.0,2749.0,0.255,-0.038,-0.58,-0.773
521853,3370.0,6922.0,2781.0,0.255,-0.038,-0.579,-0.773
521869,3354.0,6856.0,2719.0,0.255,-0.038,-0.579,-0.773
521885,3260.0,6896.0,2681.0,0.254,-0.038,-0.579,-0.773
521902,3230.0,6924.0,2703.0,0.254,-0.038,-0.579,-0.774
521929,3262.0,6890.0,2703.0,0.253,-0.038,-0.58,-0.774
521946,3324.0,6856.0,2659.0,0.253,-0.038,-0.58,-0.773
521963,3318.0,6946.0,2679.0,0.252,-0.038,-0.58,-0.773
521979,3314.0,6906.0,2645.0,0.252,-0.039,-0.58,-0.773
521995,3326.0,6964.0,2663.0,0.251,-0.039,-0.581,-0.773
522011,3458.0,6998.0,2651.0,0.251,-0.04,-0.581,-0.773
522028,3426.0,7024.0,2677.0,0.251,-0.041,-0.581,-0.773
522044,3424.0,7064.0,2753.0,0.251,-0.042,-0.581,-0.774
522061,3410.0,7082.0,2777.0,0.25,-0.042,-0.58,-0.774
522088,3416.0,7032.0,2873.0,0.25,-0.043,-0.58,-0.774
522105,3378.0,7066.0,2893.0,0.25,-0.044,-0.58,-0.774
522121,3422.0,7052.0,2877.0,0.25,-0.044,-0.579,-0.775
522138,3394.0,7040.0,2945.0,0.25,-0.045,-0.579,-0.775
522155,3412.0,7004.0,2905.0,0.25,-0.045,-0.578,-0.775
522172,3404.0,7038.0,2881.0,0.25,-0.046,-0.578,-0.775
522189,3496.0,7038.0,2915.0,0.25,-0.046,-0.578,-0.776
522206,3412.0,6990.0,2899.0,0.249,-0.046,-0.578,-0.776
522223,3388.0,7032.0,2863.0,0.249,-0.046,-0.577,-0.776
522240,3442.0,7002.0,2815.0,0.249,-0.046,-0.577,-0.776
522257,3354.0,6928.0,2839.0,0.249,-0.046,-0.577,-0.776
522274,3470.0,6948.0,2855.0,0.249,-0.046,-0.577,-0.777
522301,3414.0,6852.0,2819.0,0.249,-0.046,-0.577,-0.777
522318,3390.0,6838.0,2811.0,0.249,-0.046,-0.576,-0.777
522335,3418.0,6842.0,2837.0,0.249,-0.046,-0.576,-0.777
522352,3386.0,6798.0,2857.0,0.249,-0.046,-0.576,-0.778
522369,3362.0,6850.0,2865.0,0.249,-0.046,-0.575,-0.778
522386,3376.0,6844.0,2841.0,0.249,-0.046,-0.575,-0.778
522403,3392.0,6882.0,2797.0,0.249,-0.046,-0.576,-0.778
522420,3372.0,7012.0,2837.0,0.249,-0.047,-0.576,-0.778
522437,3414.0,6998.0,2823.0,0.249,-0.047,-0.576,-0.778
522454,3408.0,6958.0,2829.0,0.249,-0.047,-0.576,-0.778
522471,3386.0,6896.0,2791.0,0.249,-0.047,-0.576,-0.777
522488,3408.0,6908.0,2855.0,0.25,-0.047,-0.576,-0.777
522505,3360.0,6942.0,2817.0,0.25,-0.047,-0.576,-0.777
522522,3366.0,6978.0,2817.0,0.25,-0.047,-0.576,-0.777
522539,3334.0,7024.0,2819.0,0.25,-0.048,-0.576,-0.777
522566,3308.0,7060.0,2855.0,0.25,-0.048,-0.576,-0.777
522583,3356.0,7074.0,2881.0,0.25,-0.048,-0.576,-0.777
522600,3416.0,7048.0,2847.0,0.25,-0.048,-0.576,-0.777
522617,3432.0,6976.0,2849.0,0.25,-0.048,-0.576,-0.777
522634,3454.0,6992.0,2827.0,0.25,-0.048,-0.576,-0.777
522651,3416.0,6982.0,2805.0,0.25,-0.048,-0.576,-0.777
522668,3382.0,6994.0,2837.0,0.25,-0.048,-0.576,-0.777
522685,3364.0,6918.0,2837.0,0.25,-0.048,-0.576,-0.777
522702,3312.0,6882.0,2897.0,0.25,-0.048,-0.576,-0.777
522719,3332.0,6910.0,2901.0,0.25,-0.048,-0.576,-0.777
522736,3328.0,6964.0,2881.0,0.25,-0.049,-0.576,-0.777
522752,3332.0,6960.0,2867.0,0.25,-0.049,-0.576,-0.777
522769,3368.0,7036.0,2847.0,0.25,-0.049,-0.576,-0.776
522796,3352.0,7046.0,2839.0,0.25,-0.049,-0.576,-0.776
522813,3418.0,7090.0,2775.0,0.251,-0.049,-0.577,-0.776
522829,3374.0,7074.0,2701.0,0.251,-0.049,-0.577,-0.776
522845,3404.0,7124.0,2737.0,0.251,-0.049,-0.577,-0.776
522862,3444.0,7110.0,2743.0,0.25,-0.049,-0.577,-0.776
522879,3364.0,7070.0,2725.0,0.25,-0.049,-0.577,-0.776
522896,3324.0,6926.0,2795.0,0.25,-0.049,-0.577,-0.776
522913,3368.0,6908.0,2823.0,0.25,-0.049,-0.577,-0.776
522930,3316.0,6972.0,2791.0,0.25,-0.049,-0.577,-0.776
522947,3348.0,6948.0,2809.0,0.25,-0.049,-0.577,-0.776
522964,3308.0,6960.0,2783.0,0.25,-0.049,-0.577,-0.776
522991,3356.0,6992.0,2787.0,0.25,-0.05,-0.577,-0.776
523008,3370.0,7028.0,2803.0,0.25,-0.05,-0.577,-0.776
523025,3384.0,7052.0,2885.0,0.249,-0.05,-0.577,-0.776
523042,3338.0,7024.0,2815.0,0.249,-0.05,-0.577,-0.776
523059,3390.0,6998.0,2799.0,0.249,-0.05,-0.577,-0.776
523075,3352.0,6908.0,2801.0,0.249,-0.05,-0.577,-0.776
523091,3386.0,7016.0,2759.0,0.249,-0.051,-0.577,-0.776
523107,3420.0,7030.0,2763.0,0.249,-0.051,-0.577,-0.776
523123,3356.0,6974.0,2713.0,0.249,-0.051,-0.577,-0.776
523150,3360.0,6988.0,2769.0,0.249,-0.051,-0.577,-0.776
523167,3346.0,7058.0,2763.0,0.249,-0.051,-0.577,-0.776
523183,3378.0,7034.0,2729.0,0.249,-0.051,-0.577,-0.776
523200,3306.0,7018.0,2781.0,0.249,-0.051,-0.577,-0.776
523217,3322.0,6936.0,2841.0,0.249,-0.051,-0.577,-0.776
523234,3318.0,7032.0,2801.0,0.249,-0.052,-0.577,-0.776
523251,3330.0,7090.0,2809.0,0.249,-0.052,-0.577,-0.776
523268,3340.0,6972.0,2847.0,0.248,-0.052,-0.577,-0.776
523285,3344.0,7092.0,2833.0,0.248,-0.052,-0.577,-0.776
523302,3356.0,7080.0,2775.0,0.248,-0.052,-0.577,-0.776
523319,3366.0,7036.0,2797.0,0.248,-0.052,-0.577,-0.776
523336,3336.0,6968.0,2787.0,0.248,-0.053,-0.577,-0.777
523362,3322.0,6960.0,2793.0,0.248,-0.053,-0.577,-0.777
523379,3344.0,6964.0,2731.0,0.248,-0.053,-0.577,-0.777
523395,3342.0,7040.0,2797.0,0.248,-0.053,-0.577,-0.777
523411,3302.0,6958.0,2769.0,0.248,-0.053,-0.577,-0.777
523427,3306.0,6980.0,2799.0,0.248,-0.053,-0.577,-0.777
523443,3346.0,6974.0,2771.0,0.248,-0.054,-0.577,-0.777
523469,3320.0,7026.0,2801.0,0.248,-0.054,-0.577,-0.777
523485,3340.0,7010.0,2843.0,0.248,-0.054,-0.577,-0.777
523501,3328.0,6974.0,2853.0,0.248,-0.054,-0.577,-0.777
523517,3278.0,7012.0,2819.0,0.248,-0.054,-0.577,-0.777
523533,3352.0,7038.0,2767.0,0.248,-0.054,-0.577,-0.776
523549,3320.0,7056.0,2787.0,0.248,-0.054,-0.577,-0.776
523566,3352.0,7070.0,2749.0,0.248,-0.054,-0.577,-0.776
523593,3338.0,7050.0,2753.0,0.248,-0.055,-0.577,-0.777
523609,3308.0,6930.0,2791.0,0.247,-0.055,-0.577,-0.777
523625,3378.0,6980.0,2765.0,0.247,-0.055,-0.577,-0.777
523641,3384.0,7020.0,2761.0,0.247,-0.055,-0.577,-0.777
523657,3362.0,7038.0,2747.0,0.247,-0.056,-0.577,-0.776
523673,3358.0,7090.0,2777.0,0.247,-0.056,-0.577,-0.776
523699,3346.0,7018.0,2835.0,0.247,-0.056,-0.577,-0.777
523716,3346.0,6982.0,2879.0,0.247,-0.056,-0.577,-0.777
523733,3380.0,7042.0,2837.0,0.247,-0.057,-0.577,-0.777
523750,3384.0,7052.0,2789.0,0.247,-0.057,-0.577,-0.777
523767,3400.0,7070.0,2769.0,0.247,-0.057,-0.577,-0.777
523783,3368.0,7006.0,2717.0,0.246,-0.057,-0.577,-0.777
523799,3380.0,6978.0,2735.0,0.246,-0.057,-0.577,-0.777
523815,3330.0,7028.0,2703.0,0.246,-0.057,-0.577,-0.777
523831,3308.0,6978.0,2789.0,0.246,-0.058,-0.577,-0.777
523858,3312.0,6964.0,2815.0,0.246,-0.058,-0.577,-0.777
523874,3304.0,6982.0,2797.0,0.246,-0.058,-0.577,-0.777
523890,3378.0,7046.0,2811.0,0.246,-0.058,-0.577,-0.777
523906,3342.0,7064.0,2809.0,0.246,-0.059,-0.577,-0.777
523923,3300.0,7066.0,2811.0,0.246,-0.059,-0.577,-0.777
523939,3322.0,7064.0,2829.0,0.245,-0.059,-0.577,-0.777
523955,3348.0,6980.0,2829.0,0.245,-0.059,-0.577,-0.777
523981,3362.0,7024.0,2825.0,0.245,-0.06,-0.577,-0.777
523998,3298.0,6994.0,2811.0,0.245,-0.06,-0.577,-0.777
524015,3358.0,6976.0,2737.0,0.245,-0.06,-0.577,-0.777
524032,3346.0,6984.0,2731.0,0.245,-0.06,-0.577,-0.777
524049,3362.0,7004.0,2745.0,0.245,-0.06,-0.577,-0.777
524066,3318.0,7034.0,2719.0,0.245,-0.06,-0.577,-0.777
524083,3314.0,7008.0,2763.0,0.245,-0.061,-0.577,-0.777
524100,3328.0,7034.0,2765.0,0.244,-0.061,-0.577,-0.777
524117,3304.0,7002.0,2805.0,0.244,-0.061,-0.577,-0.777
524134,3354.0,7026.0,2811.0,0.244,-0.061,-0.577,-0.777
524151,3364.0,7000.0,2767.0,0.244,-0.061,-0.577,-0.777
524168,3338.0,7006.0,2761.0,0.244,-0.061,-0.577,-0.777
524185,3336.0,6994.0,2809.0,0.244,-0.062,-0.577,-0.777
524212,3322.0,7018.0,2779.0,0.244,-0.062,-0.577,-0.777
524228,3348.0,6992.0,2761.0,0.244,-0.062,-0.577,-0.777
524245,3316.0,6976.0,2723.0,0.244,-0.062,-0.577,-0.777
524262,3338.0,6986.0,2785.0,0.243,-0.062,-0.577,-0.777
524279,3362.0,7010.0,2751.0,0.243,-0.063,-0.577,-0.777
524295,3346.0,6978.0,2735.0,0.243,-0.063,-0.577,-0.777
524311,3362.0,7018.0,2761.0,0.243,-0.063,-0.577,-0.777
524327,3314.0,7002.0,2825.0,0.243,-0.063,-0.577,-0.777
524353,3366.0,7044.0,2765.0,0.243,-0.063,-0.577,-0.777
524370,3346.0,7034.0,2779.0,0.243,-0.064,-0.577,-0.777
524386,3308.0,7064.0,2721.0,0.243,-0.064,-0.577,-0.777
524402,3304.0,7034.0,2807.0,0.243,-0.064,-0.577,-0.777
524418,3330.0,7050.0,2797.0,0.243,-0.064,-0.577,-0.777
524434,3266.0,6992.0,2791.0,0.243,-0.065,-0.577,-0.777
524460,3304.0,7006.0,2793.0,0.243,-0.065,-0.577,-0.777
524476,3362.0,7046.0,2771.0,0.243,-0.065,-0.577,-0.777
524492,3408.0,6980.0,2735.0,0.242,-0.065,-0.577,-0.777
524508,3386.0,6952.0,2667.0,0.242,-0.065,-0.577,-0.777
524524,3306.0,7002.0,2689.0,0.242,-0.065,-0.577,-0.777
524540,3306.0,7024.0,2679.0,0.242,-0.066,-0.577,-0.777
524566,3326.0,7028.0,2687.0,0.242,-0.066,-0.577,-0.777
524582,3240.0,6996.0,2733.0,0.242,-0.066,-0.577,-0.777
524598,3318.0,6986.0,2743.0,0.242,-0.066,-0.577,-0.777
524614,3352.0,7016.0,2771.0,0.242,-0.067,-0.577,-0.777
524630,3300.0,7004.0,2779.0,0.242,-0.067,-0.577,-0.777
524646,3340.0,6998.0,2797.0,0.242,-0.067,-0.577,-0.777
524672,3328.0,7018.0,2767.0,0.242,-0.068,-0.577,-0.777
524688,3334.0,7100.0,2801.0,0.241,-0.068,-0.577,-0.777
524704,3366.0,7056.0,2777.0,0.241,-0.068,-0.577,-0.777
524720,3360.0,7108.0,2729.0,0.241,-0.068,-0.577,-0.777
524736,3344.0,7092.0,2751.0,0.241,-0.068,-0.577,-0.777
524752,3368.0,6998.0,2731.0,0.241,-0.069,-0.577,-0.777
524778,3334.0,7002.0,2737.0,0.241,-0.069,-0.577,-0.777
524795,3338.0,6972.0,2715.0,0.241,-0.069,-0.577,-0.777
524812,3354.0,7020.0,2743.0,0.24,-0.07,-0.577,-0.777
524829,3306.0,7034.0,2737.0,0.24,-0.07,-0.577,-0.777
524846,3324.0,6966.0,2767.0,0.24,-0.07,-0.577,-0.777
524863,3298.0,7030.0,2735.0,0.24,-0.07,-0.577,-0.777
524879,3398.0,7048.0,2745.0,0.24,-0.071,-0.577,-0.777
524895,3378.0,7056.0,2729.0,0.24,-0.071,-0.577,-0.777
524911,3344.0,7036.0,2719.0,0.24,-0.071,-0.577,-0.777
524938,3376.0,7048.0,2717.0,0.24,-0.071,-0.577,-0.777
524954,3416.0,6996.0,2719.0,0.24,-0.071,-0.577,-0.777
524970,3328.0,7020.0,2759.0,0.24,-0.072,-0.577,-0.777
524986,3330.0,6956.0,2739.0,0.239,-0.072,-0.577,-0.777
525002,3302.0,7000.0,2697.0,0.239,-0.072,-0.577,-0.777
525018,3342.0,6956.0,2677.0,0.239,-0.072,-0.577,-0.777
525044,3390.0,6978.0,2709.0,0.239,-0.073,-0.578,-0.777
525060,3390.0,7032.0,2709.0,0.239,-0.073,-0.578,-0.777
525077,3384.0,7034.0,2715.0,0.239,-0.073,-0.578,-0.777
525094,3350.0,7064.0,2735.0,0.239,-0.074,-0.578,-0.777
525111,3364.0,7048.0,2767.0,0.238,-0.074,-0.578,-0.777
525128,3348.0,7032.0,2745.0,0.238,-0.074,-0.578,-0.777
525144,3346.0,6992.0,2781.0,0.238,-0.074,-0.578,-0.777
525161,3392.0,6966.0,2759.0,0.238,-0.075,-0.578,-0.777
525177,3386.0,7038.0,2729.0,0.238,-0.075,-0.578,-0.777
525194,3374.0,7060.0,2699.0,0.238,-0.075,-0.578,-0.777
525221,3412.0,7054.0,2617.0,0.238,-0.075,-0.579,-0.777
525237,3398.0,7028.0,2657.0,0.238,-0.075,-0.579,-0.776
525253,3438.0,7002.0,2663.0,0.237,-0.075,-0.579,-0.776
525269,3376.0,7050.0,2613.0,0.237,-0.075,-0.579,-0.776
525286,3350.0,7070.0,2635.0,0.237,-0.075,-0.579,-0.776
525302,3352.0,7054.0,2681.0,0.237,-0.075,-0.579,-0.776
525318,3384.0,7072.0,2741.0,0.237,-0.075,-0.579,-0.776
525344,3360.0,7078.0,2747.0,0.237,-0.075,-0.579,-0.776
525361,3362.0,7108.0,2689.0,0.237,-0.076,-0.579,-0.776
525377,3398.0,7064.0,2679.0,0.237,-0.076,-0.579,-0.776
525394,3426.0,7144.0,2679.0,0.236,-0.076,-0.579,-0.776
525411,3362.0,7030.0,2669.0,0.236,-0.076,-0.579,-0.776
525428,3350.0,7050.0,2639.0,0.236,-0.076,-0.579,-0.776
525444,3330.0,7078.0,2665.0,0.236,-0.076,-0.58,-0.776
525460,3378.0,7048.0,2661.0,0.236,-0.076,-0.579,-0.776
525487,3422.0,7030.0,2657.0,0.236,-0.076,-0.579,-0.776
525504,3346.0,7010.0,2631.0,0.235,-0.077,-0.579,-0.776
525520,3394.0,6974.0,2679.0,0.235,-0.077,-0.579,-0.777
525536,3346.0,7044.0,2671.0,0.235,-0.077,-0.579,-0.777
525552,3396.0,7076.0,2771.0,0.235,-0.077,-0.579,-0.777
525568,3398.0,7002.0,2687.0,0.235,-0.077,-0.579,-0.777
525584,3368.0,7118.0,2733.0,0.235,-0.077,-0.579,-0.777
525610,3350.0,7138.0,2717.0,0.235,-0.077,-0.579,-0.777
525626,3356.0,7086.0,2709.0,0.235,-0.077,-0.579,-0.777
525643,3318.0,7024.0,2667.0,0.234,-0.077,-0.579,-0.777
525659,3302.0,6978.0,2667.0,0.234,-0.078,-0.579,-0.777
525675,3312.0,7032.0,2671.0,0.234,-0.078,-0.579,-0.777
525691,3338.0,7050.0,2703.0,0.234,-0.078,-0.579,-0.777
525717,3408.0,7050.0,2633.0,0.234,-0.078,-0.579,-0.777
525734,3390.0,7088.0,2673.0,0.234,-0.078,-0.579,-0.777
525751,3396.0,7020.0,2691.0,0.234,-0.078,-0.579,-0.777
525767,3394.0,6976.0,2737.0,0.233,-0.078,-0.579,-0.777
525784,3382.0,7036.0,2677.0,0.233,-0.079,-0.579,-0.777
525800,3316.0,7056.0,2663.0,0.233,-0.079,-0.579,-0.777
525817,3368.0,7088.0,2717.0,0.233,-0.079,-0.579,-0.777
525834,3328.0,7040.0,2703.0,0.233,-0.079,-0.579,-0.778
525851,3368.0,7004.0,2709.0,0.233,-0.079,-0.579,-0.778
525867,3298.0,7070.0,2713.0,0.233,-0.079,-0.579,-0.778
525894,3358.0,7030.0,2677.0,0.233,-0.08,-0.579,-0.778
525911,3386.0,7070.0,2655.0,0.232,-0.08,-0.579,-0.778
525928,3394.0,7038.0,2617.0,0.232,-0.08,-0.579,-0.778
525945,3402.0,7006.0,2615.0,0.232,-0.08,-0.579,-0.778
525962,3346.0,7006.0,2673.0,0.232,-0.08,-0.578,-0.778
525979,3326.0,7090.0,2679.0,0.232,-0.08,-0.578,-0.778
525996,3292.0,7008.0,2645.0,0.232,-0.08,-0.578,-0.778
526013,3354.0,7052.0,2695.0,0.231,-0.08,-0.578,-0.778
526030,3324.0,7004.0,2721.0,0.231,-0.081,-0.578,-0.778
526047,3318.0,7006.0,2775.0,0.231,-0.081,-0.578,-0.778
526064,3350.0,7112.0,2711.0,0.231,-0.081,-0.578,-0.778
526081,3342.0,7110.0,2723.0,0.231,-0.081,-0.578,-0.778
526098,3354.0,7106.0,2751.0,0.231,-0.081,-0.578,-0.779
526115,3342.0,7068.0,2733.0,0.23,-0.082,-0.578,-0.779
526142,3324.0,7088.0,2685.0,0.23,-0.082,-0.578,-0.779
526159,3328.0,7058.0,2679.0,0.23,-0.082,-0.578,-0.779
526176,3294.0,7012.0,2671.0,0.23,-0.082,-0.578,-0.779
526193,3338.0,7028.0,2677.0,0.23,-0.082,-0.578,-0.779
526210,3320.0,7006.0,2635.0,0.23,-0.082,-0.578,-0.779
526227,3364.0,7066.0,2655.0,0.23,-0.082,-0.578,-0.779
526244,3296.0,7014.0,2697.0,0.229,-0.083,-0.578,-0.779
526261,3342.0,7048.0,2723.0,0.229,-0.083,-0.578,-0.779
526278,3304.0,7042.0,2675.0,0.229,-0.083,-0.578,-0.779
526295,3336.0,7088.0,2685.0,0.229,-0.083,-0.578,-0.779
526312,3340.0,7066.0,2711.0,0.229,-0.083,-0.578,-0.779
526329,3334.0,7090.0,2649.0,0.229,-0.083,-0.578,-0.779
526346,3346.0,7038.0,2673.0,0.229,-0.083,-0.578,-0.779
526363,3300.0,6992.0,2627.0,0.229,-0.084,-0.578,-0.779
526380,3326.0,7066.0,2715.0,0.229,-0.084,-0.578,-0.779
526407,3340.0,7176.0,2661.0,0.229,-0.084,-0.578,-0.779
526424,3352.0,7078.0,2647.0,0.228,-0.084,-0.578,-0.779
526440,3364.0,7054.0,2709.0,0.228,-0.084,-0.578,-0.779
526456,3316.0,7028.0,2693.0,0.228,-0.084,-0.578,-0.779
526472,3306.0,7042.0,2655.0,0.228,-0.085,-0.578,-0.779
526488,3330.0,7020.0,2653.0,0.228,-0.085,-0.578,-0.779
526504,3330.0,7084.0,2635.0,0.228,-0.085,-0.578,-0.779
526530,3314.0,7102.0,2687.0,0.228,-0.085,-0.578,-0.779
526547,3362.0,7112.0,2675.0,0.227,-0.085,-0.578,-0.779
526564,3372.0,7136.0,2695.0,0.227,-0.085,-0.578,-0.779
526581,3310.0,7066.0,2701.0,0.227,-0.085,-0.578,-0.779
526598,3344.0,7042.0,2701.0,0.227,-0.086,-0.578,-0.779
526615,3320.0,7030.0,2661.0,0.227,-0.086,-0.578,-0.779
526632,3302.0,7034.0,2603.0,0.227,-0.086,-0.578,-0.779
526649,3298.0,7050.0,2583.0,0.226,-0.086,-0.578,-0.779
526665,3294.0,7074.0,2565.0,0.226,-0.086,-0.578,-0.779
526682,3290.0,7118.0,2577.0,0.226,-0.086,-0.578,-0.779
526699,3264.0,7018.0,2665.0,0.226,-0.086,-0.578,-0.779
526726,3320.0,7084.0,2717.0,0.226,-0.086,-0.578,-0.779
526743,3294.0,7098.0,2691.0,0.226,-0.086,-0.578,-0.779
526760,3324.0,7150.0,2699.0,0.226,-0.086,-0.578,-0.779
526777,3352.0,7174.0,2595.0,0.225,-0.086,-0.578,-0.779
526794,3372.0,7106.0,2705.0,0.225,-0.086,-0.578,-0.78
526811,3314.0,7036.0,2705.0,0.225,-0.086,-0.578,-0.78
526827,3304.0,6998.0,2763.0,0.225,-0.086,-0.578,-0.78
526844,3252.0,6906.0,2693.0,0.225,-0.086,-0.578,-0.78
526861,3316.0,6980.0,2639.0,0.225,-0.086,-0.578,-0.78
526878,3284.0,7006.0,2595.0,0.225,-0.086,-0.578,-0.78
526895,3238.0,6970.0,2613.0,0.225,-0.087,-0.578,-0.78
526913,3260.0,7058.0,2567.0,0.225,-0.087,-0.578,-0.78
526930,3294.0,7100.0,2605.0,0.224,-0.087,-0.578,-0.78
526947,3316.0,7150.0,2603.0,0.224,-0.088,-0.578,-0.78
526974,3318.0,7184.0,2613.0,0.224,-0.088,-0.578,-0.78
526990,3350.0,7096.0,2617.0,0.224,-0.089,-0.578,-0.78
527006,3326.0,7044.0,2665.0,0.224,-0.089,-0.578,-0.78
527023,3372.0,7136.0,2683.0,0.223,-0.09,-0.578,-0.78
527039,3430.0,7216.0,2695.0,0.223,-0.09,-0.578,-0.78
527055,3442.0,7130.0,2547.0,0.223,-0.09,-0.578,-0.78
527071,3466.0,7396.0,2553.0,0.224,-0.09,-0.579,-0.779
527088,3592.0,7410.0,2521.0,0.224,-0.09,-0.579,-0.779
527115,3656.0,7338.0,2553.0,0.225,-0.09,-0.578,-0.779
527132,3486.0,7170.0,2593.0,0.225,-0.09,-0.578,-0.779
527149,3472.0,6948.0,2635.0,0.226,-0.09,-0.577,-0.78
527166,3476.0,6770.0,2747.0,0.226,-0.09,-0.576,-0.78
527183,3384.0,6544.0,2817.0,0.227,-0.09,-0.575,-0.781
527200,3398.0,6512.0,2917.0,0.227,-0.091,-0.574,-0.781
527216,3446.0,6646.0,3031.0,0.227,-0.091,-0.573,-0.782
527233,3302.0,6664.0,3081.0,0.227,-0.092,-0.573,-0.782
527250,3176.0,6666.0,3043.0,0.226,-0.093,-0.572,-0.783
527266,3188.0,6666.0,2933.0,0.226,-0.093,-0.572,-0.783
527292,2948.0,6364.0,2937.0,0.225,-0.094,-0.571,-0.784
527308,2600.0,6510.0,2891.0,0.224,-0.094,-0.571,-0.784
527325,2586.0,7294.0,2833.0,0.223,-0.095,-0.573,-0.783
527341,3642.0,7840.0,2439.0,0.224,-0.094,-0.575,-0.781
527357,3644.0,8294.0,2037.0,0.225,-0.094,-0.577,-0.779
527373,3730.0,8378.0,2113.0,0.225,-0.095,-0.578,-0.779
527390,3896.0,8244.0,2181.0,0.224,-0.095,-0.577,-0.78
527407,3612.0,6870.0,2367.0,0.224,-0.095,-0.574,-0.782
527434,3406.0,6588.0,2811.0,0.223,-0.095,-0.574,-0.783
527450,3506.0,6984.0,2951.0,0.223,-0.095,-0.573,-0.783
527466,3330.0,6474.0,2715.0,0.224,-0.095,-0.574,-0.782
527483,3440.0,7532.0,2641.0,0.224,-0.095,-0.574,-0.782
527499,3314.0,6850.0,2829.0,0.224,-0.095,-0.572,-0.783
527516,3300.0,6688.0,3063.0,0.224,-0.096,-0.571,-0.784
527533,3238.0,6496.0,3159.0,0.223,-0.096,-0.569,-0.786
527550,3240.0,6450.0,3123.0,0.224,-0.097,-0.568,-0.786
527566,3358.0,6878.0,3009.0,0.224,-0.097,-0.568,-0.786
527592,3448.0,7270.0,2845.0,0.225,-0.097,-0.568,-0.786
527609,3536.0,7442.0,2671.0,0.225,-0.097,-0.568,-0.786
527626,3582.0,7374.0,2547.0,0.225,-0.097,-0.568,-0.786
527642,3502.0,7002.0,2655.0,0.225,-0.097,-0.566,-0.787
527659,3384.0,6592.0,2789.0,0.225,-0.097,-0.565,-0.788
527676,3328.0,6460.0,2845.0,0.224,-0.097,-0.564,-0.789
527692,3326.0,6222.0,2849.0,0.224,-0.097,-0.563,-0.79
527709,3244.0,6126.0,2917.0,0.223,-0.098,-0.563,-0.79
527726,3020.0,6412.0,3015.0,0.223,-0.098,-0.563,-0.79
527752,3052.0,7044.0,2947.0,0.223,-0.098,-0.564,-0.789
527769,3174.0,7666.0,2603.0,0.225,-0.099,-0.565,-0.788
527785,3440.0,8210.0,2533.0,0.226,-0.1,-0.566,-0.787
527802,3660.0,8330.0,2667.0,0.227,-0.1,-0.565,-0.786
527819,3756.0,7740.0,2937.0,0.227,-0.101,-0.563,-0.788
527836,3640.0,6774.0,3137.0,0.226,-0.101,-0.56,-0.79
527853,3478.0,5836.0,3265.0,0.225,-0.102,-0.558,-0.792
527872,3302.0,5442.0,3273.0,0.224,-0.102,-0.557,-0.794
527889,3148.0,5494.0,3181.0,0.222,-0.102,-0.557,-0.794
527905,2862.0,6246.0,3113.0,0.222,-0.101,-0.559,-0.793
527922,2936.0,7212.0,3005.0,0.223,-0.101,-0.562,-0.791
527939,3118.0,8332.0,2555.0,0.224,-0.101,-0.565,-0.788
527956,3504.0,9066.0,2269.0,0.226,-0.102,-0.566,-0.786
527982,3744.0,9018.0,2331.0,0.227,-0.102,-0.565,-0.787
527999,3838.0,8026.0,2551.0,0.226,-0.102,-0.561,-0.79
528016,3712.0,6100.0,2823.0,0.225,-0.102,-0.556,-0.794
528033,3618.0,5272.0,3287.0,0.223,-0.102,-0.552,-0.797
528050,3288.0,4580.0,3339.0,0.22,-0.102,-0.549,-0.799
528067,2972.0,4692.0,3241.0,0.219,-0.102,-0.55,-0.799
528084,2818.0,5752.0,3263.0,0.218,-0.102,-0.554,-0.797
528104,2988.0,7298.0,3089.0,0.219,-0.102,-0.558,-0.793
528120,3270.0,8654.0,2743.0,0.222,-0.102,-0.563,-0.79
528136,3656.0,9584.0,2641.0,0.223,-0.103,-0.565,-0.788
528152,3774.0,9212.0,2559.0,0.224,-0.103,-0.563,-0.789
528168,3810.0,7762.0,2657.0,0.223,-0.104,-0.558,-0.792
528194,3686.0,6068.0,3161.0,0.222,-0.104,-0.552,-0.797
528210,3486.0,4824.0,3449.0,0.219,-0.104,-0.548,-0.801
528226,3294.0,4476.0,3633.0,0.217,-0.104,-0.546,-0.802
528242,2946.0,4990.0,3539.0,0.216,-0.103,-0.548,-0.802
528258,2858.0,6318.0,3405.0,0.216,-0.103,-0.551,-0.799
528274,2988.0,7446.0,3071.0,0.218,-0.103,-0.556,-0.795
528301,3406.0,9046.0,2779.0,0.22,-0.103,-0.56,-0.792
528317,3600.0,9290.0,2509.0,0.221,-0.103,-0.561,-0.791
528333,3720.0,8500.0,2513.0,0.221,-0.103,-0.559,-0.792
528349,3774.0,7226.0,2759.0,0.22,-0.103,-0.554,-0.796
528365,3588.0,5762.0,3131.0,0.219,-0.103,-0.549,-0.8
528381,3440.0,4754.0,3367.0,0.217,-0.103,-0.546,-0.802
528398,3290.0,4776.0,3511.0,0.216,-0.103,-0.546,-0.803
528425,2990.0,5596.0,3455.0,0.215,-0.103,-0.548,-0.802
528441,2936.0,6380.0,3315.0,0.216,-0.103,-0.552,-0.799
528458,3152.0,7614.0,2889.0,0.217,-0.102,-0.557,-0.795
528475,3562.0,8896.0,2673.0,0.219,-0.103,-0.561,-0.792
528491,3788.0,9190.0,2613.0,0.22,-0.103,-0.561,-0.791
528508,3834.0,8200.0,2815.0,0.22,-0.103,-0.559,-0.793
528524,3756.0,6936.0,3099.0,0.219,-0.102,-0.555,-0.796
528541,3568.0,5966.0,3319.0,0.218,-0.102,-0.551,-0.799
528558,3364.0,5152.0,3421.0,0.217,-0.102,-0.549,-0.801
528584,3352.0,5070.0,3377.0,0.216,-0.101,-0.549,-0.801
528600,3118.0,5468.0,3169.0,0.215,-0.101,-0.551,-0.8
528616,3258.0,5580.0,3033.0,0.213,-0.1,-0.553,-0.799
528632,3162.0,5754.0,2893.0,0.212,-0.099,-0.556,-0.798
528648,2744.0,6278.0,3081.0,0.21,-0.099,-0.558,-0.796
528664,1316.0,8652.0,3295.0,0.21,-0.099,-0.561,-0.795
528690,2878.0,8506.0,3331.0,0.211,-0.1,-0.563,-0.793
528706,3862.0,8920.0,2797.0,0.213,-0.1,-0.566,-0.79
528722,3750.0,9884.0,2855.0,0.215,-0.102,-0.567,-0.789
528739,3796.0,9242.0,2921.0,0.215,-0.103,-0.564,-0.791
528755,3754.0,7462.0,2719.0,0.214,-0.102,-0.558,-0.795
528772,3476.0,5864.0,3027.0,0.212,-0.101,-0.552,-0.8
528788,3074.0,5314.0,3545.0,0.211,-0.1,-0.548,-0.804
528814,3006.0,5748.0,3683.0,0.21,-0.099,-0.547,-0.805
528831,2932.0,6490.0,3455.0,0.21,-0.098,-0.548,-0.804
528848,2954.0,6980.0,3395.0,0.21,-0.097,-0.549,-0.803
528865,2870.0,6824.0,3285.0,0.211,-0.096,-0.55,-0.803
528882,2570.0,6304.0,3033.0,0.211,-0.095,-0.551,-0.802
528899,2508.0,5920.0,2687.0,0.212,-0.095,-0.554,-0.8
528916,2656.0,5858.0,2625.0,0.213,-0.094,-0.558,-0.796
528932,2574.0,5712.0,2389.0,0.215,-0.094,-0.564,-0.792
528949,2742.0,5470.0,2447.0,0.218,-0.095,-0.571,-0.786
528966,3272.0,6842.0,2249.0,0.221,-0.097,-0.578,-0.779
528982,3414.0,7300.0,2269.0,0.224,-0.099,-0.583,-0.775
529009,3250.0,6590.0,2437.0,0.227,-0.102,-0.585,-0.772
529026,2658.0,6278.0,2167.0,0.23,-0.106,-0.587,-0.769
529043,3038.0,6120.0,2215.0,0.233,-0.111,-0.589,-0.766
529060,2834.0,5612.0,2177.0,0.237,-0.117,-0.592,-0.761
529077,3554.0,5264.0,2363.0,0.241,-0.122,-0.597,-0.755
529093,4040.0,5888.0,2393.0,0.247,-0.127,-0.603,-0.748
529109,5064.0,7296.0,2639.0,0.254,-0.13,-0.609,-0.74
529126,5308.0,7806.0,2525.0,0.262,-0.133,-0.612,-0.734
529142,5334.0,7818.0,2367.0,0.27,-0.132,-0.617,-0.727
529159,5442.0,9078.0,1779.0,0.277,-0.128,-0.622,-0.721
529185,4950.0,9098.0,1579.0,0.284,-0.125,-0.625,-0.716
529201,4268.0,7458.0,717.0,0.292,-0.123,-0.626,-0.713
529217,4366.0,6422.0,467.0,0.299,-0.121,-0.627,-0.709
529233,4932.0,6920.0,643.0,0.307,-0.12,-0.628,-0.705
529249,5472.0,7994.0,975.0,0.316,-0.12,-0.627,-0.702
529275,5318.0,9416.0,1051.0,0.325,-0.121,-0.625,-0.7
529292,5030.0,8576.0,239.0,0.334,-0.122,-0.621,-0.699
529309,5046.0,7442.0,-5.0,0.341,-0.124,-0.618,-0.698
529326,5150.0,7786.0,335.0,0.348,-0.127,-0.614,-0.698
529343,5478.0,7910.0,1017.0,0.352,-0.13,-0.608,-0.699
529359,5134.0,6322.0,1627.0,0.355,-0.134,-0.602,-0.703
529376,4938.0,5606.0,2061.0,0.357,-0.137,-0.596,-0.706
529393,5120.0,5194.0,2199.0,0.357,-0.139,-0.591,-0.709
529410,5242.0,4656.0,2301.0,0.356,-0.141,-0.587,-0.713
529426,4434.0,4848.0,2027.0,0.353,-0.143,-0.585,-0.716
529443,6044.0,6270.0,2449.0,0.349,-0.146,-0.581,-0.72
529469,5840.0,4206.0,3205.0,0.345,-0.148,-0.576,-0.726
529485,5488.0,3918.0,3425.0,0.344,-0.149,-0.575,-0.728
529501,4828.0,5372.0,3269.0,0.343,-0.149,-0.575,-0.727
529517,5046.0,6330.0,3149.0,0.342,-0.149,-0.577,-0.727
529533,5062.0,7262.0,3051.0,0.341,-0.149,-0.578,-0.727
529549,4592.0,6792.0,2855.0,0.339,-0.15,-0.578,-0.727
529566,4596.0,6696.0,2919.0,0.336,-0.151,-0.579,-0.727
529593,4938.0,6586.0,3089.0,0.333,-0.152,-0.58,-0.728
529609,5120.0,6406.0,3015.0,0.329,-0.153,-0.581,-0.728
529626,5232.0,6298.0,3067.0,0.326,-0.152,-0.583,-0.729
529643,5652.0,6040.0,3257.0,0.323,-0.151,-0.585,-0.729
529660,5918.0,6088.0,3515.0,0.32,-0.149,-0.588,-0.728
529677,6220.0,6366.0,3943.0,0.317,-0.144,-0.592,-0.727
529694,6234.0,6430.0,3707.0,0.313,-0.137,-0.597,-0.725
529711,6096.0,6682.0,3011.0,0.309,-0.127,-0.605,-0.723
529728,6062.0,7202.0,2809.0,0.304,-0.116,-0.613,-0.72
529744,5578.0,7308.0,2615.0,0.298,-0.103,-0.621,-0.718
529770,5508.0,8024.0,2659.0,0.29,-0.089,-0.63,-0.715
529786,5928.0,8422.0,2659.0,0.281,-0.075,-0.639,-0.712
529802,6524.0,8230.0,2351.0,0.271,-0.061,-0.646,-0.711
529818,6496.0,7942.0,1851.0,0.261,-0.045,-0.653,-0.71
529834,6212.0,8634.0,2071.0,0.25,-0.031,-0.658,-0.71
529860,5602.0,7864.0,2045.0,0.239,-0.015,-0.66,-0.712
529876,5222.0,7974.0,1781.0,0.228,0.002,-0.663,-0.713
529893,4278.0,7888.0,1397.0,0.218,0.019,-0.666,-0.714
529909,4256.0,8122.0,983.0,0.208,0.038,-0.669,-0.713
529926,3972.0,7402.0,753.0,0.198,0.059,-0.671,-0.712
529943,3176.0,6316.0,383.0,0.189,0.081,-0.672,-0.712
529959,2842.0,6036.0,395.0,0.18,0.105,-0.673,-0.71
529976,2330.0,6218.0,373.0,0.173,0.129,-0.673,-0.707
529992,1728.0,5464.0,201.0,0.168,0.152,-0.673,-0.704
530009,120.0,4750.0,-67.0,0.164,0.174,-0.674,-0.699
530036,108.0,5312.0,-439.0,0.161,0.194,-0.675,-0.693
530052,306.0,5776.0,-901.0,0.158,0.211,-0.678,-0.686
530068,52.0,6484.0,-1051.0,0.157,0.225,-0.679,-0.681
530084,138.0,6804.0,-1247.0,0.157,0.237,-0.678,-0.678
530100,260.0,6866.0,-1669.0,0.159,0.247,-0.674,-0.678
530116,646.0,7080.0,-2011.0,0.162,0.255,-0.672,-0.677
530142,970.0,7580.0,-2531.0,0.167,0.261,-0.67,-0.674
530159,832.0,7708.0,-2605.0,0.172,0.265,-0.67,-0.671
530175,1060.0,7848.0,-2897.0,0.175,0.269,-0.673,-0.667
530192,1332.0,8562.0,-3429.0,0.178,0.273,-0.675,-0.661
530208,1772.0,8552.0,-3471.0,0.183,0.276,-0.679,-0.655
530225,110.0,8514.0,-2793.0,0.189,0.278,-0.683,-0.649
530242,-1380.0,8416.0,-2165.0,0.195,0.278,-0.686,-0.643
530259,-3464.0,7818.0,-1805.0,0.205,0.276,-0.688,-0.639
530275,-6450.0,6836.0,-1723.0,0.217,0.273,-0.689,-0.636
530301,-9156.0,7218.0,-1509.0,0.231,0.268,-0.689,-0.633
530317,-10976.0,8110.0,-1307.0,0.244,0.262,-0.687,-0.632
530333,-11086.0,9534.0,-1343.0,0.253,0.257,-0.685,-0.633
530349,-10560.0,10048.0,-1005.0,0.26,0.252,-0.68,-0.638
530365,-9378.0,9628.0,-693.0,0.262,0.248,-0.672,-0.647
530381,-7506.0,8432.0,-527.0,0.262,0.245,-0.661,-0.659
530398,-6036.0,6940.0,-597.0,0.26,0.243,-0.649,-0.672
530425,-4714.0,7062.0,-977.0,0.255,0.245,-0.639,-0.683
530442,-3850.0,8046.0,-1097.0,0.251,0.247,-0.63,-0.693
530459,-3316.0,9150.0,-1387.0,0.245,0.249,-0.62,-0.702
530475,-2380.0,9612.0,-1367.0,0.239,0.251,-0.61,-0.712
530492,-2592.0,9218.0,-1117.0,0.231,0.253,-0.6,-0.723
530508,-2460.0,7752.0,-699.0,0.222,0.254,-0.59,-0.733
530525,-2376.0,6978.0,-25.0,0.212,0.255,-0.583,-0.742
530542,-2202.0,6202.0,521.0,0.202,0.254,-0.579,-0.748
530558,-1574.0,7704.0,825.0,0.192,0.251,-0.579,-0.751
530585,-1592.0,8318.0,1271.0,0.183,0.246,-0.58,-0.755
530601,-1068.0,9086.0,1693.0,0.174,0.237,-0.58,-0.759
530617,-468.0,8970.0,2047.0,0.167,0.227,-0.577,-0.766
530633,558.0,8688.0,2619.0,0.16,0.215,-0.572,-0.775
530649,438.0,8714.0,3019.0,0.154,0.203,-0.564,-0.785
530665,1242.0,8646.0,3527.0,0.149,0.192,-0.554,-0.796
530682,1472.0,8146.0,3757.0,0.146,0.18,-0.542,-0.808
530708,1576.0,6878.0,3851.0,0.144,0.169,-0.527,-0.82
530725,1342.0,5480.0,4089.0,0.144,0.16,-0.513,-0.831
530742,1274.0,4158.0,4261.0,0.145,0.151,-0.5,-0.84
530759,682.0,3240.0,4419.0,0.146,0.144,-0.491,-0.847
530775,864.0,3072.0,4411.0,0.148,0.137,-0.485,-0.851
530792,626.0,4186.0,4461.0,0.152,0.131,-0.482,-0.853
530808,842.0,4810.0,4485.0,0.157,0.125,-0.481,-0.854
530824,810.0,6002.0,4601.0,0.164,0.118,-0.48,-0.854
530850,950.0,6662.0,4455.0,0.172,0.112,-0.478,-0.854
530867,1076.0,6590.0,4259.0,0.181,0.106,-0.473,-0.856
530883,596.0,5248.0,4221.0,0.191,0.101,-0.467,-0.857
530900,716.0,4454.0,4569.0,0.202,0.097,-0.465,-0.857
530917,1182.0,4104.0,4595.0,0.214,0.093,-0.468,-0.853
530934,1422.0,4928.0,4499.0,0.225,0.092,-0.477,-0.844
530951,2728.0,6948.0,4231.0,0.236,0.091,-0.492,-0.833
530968,3128.0,8636.0,3941.0,0.246,0.092,-0.508,-0.82
530984,3262.0,9880.0,3267.0,0.255,0.095,-0.523,-0.808
531001,2522.0,9538.0,2671.0,0.262,0.1,-0.535,-0.797
531018,1964.0,8228.0,2479.0,0.268,0.106,-0.546,-0.787
531045,1206.0,8328.0,1989.0,0.273,0.114,-0.559,-0.774
531061,2128.0,10122.0,1283.0,0.277,0.124,-0.575,-0.76
531077,1108.0,10634.0,553.0,0.278,0.136,-0.589,-0.746
531093,412.0,11120.0,429.0,0.277,0.148,-0.6,-0.735
531110,-526.0,10330.0,221.0,0.276,0.16,-0.607,-0.728
531127,-1170.0,8892.0,75.0,0.274,0.17,-0.612,-0.722
531143,-1678.0,7692.0,257.0,0.272,0.179,-0.615,-0.718
531160,-1950.0,6590.0,459.0,0.27,0.184,-0.619,-0.714
531187,-1478.0,7334.0,253.0,0.266,0.188,-0.625,-0.709
531203,-560.0,8558.0,-137.0,0.263,0.191,-0.63,-0.705
531219,6.0,8224.0,-45.0,0.261,0.19,-0.633,-0.703
531235,778.0,8012.0,155.0,0.262,0.188,-0.633,-0.704
531251,1328.0,6876.0,453.0,0.263,0.184,-0.633,-0.705
531268,2094.0,6606.0,315.0,0.265,0.179,-0.634,-0.704
531284,2610.0,7216.0,-109.0,0.268,0.172,-0.636,-0.703
531301,2416.0,7204.0,-9.0,0.271,0.164,-0.638,-0.702
531328,2350.0,7780.0,329.0,0.275,0.154,-0.638,-0.703
531345,2204.0,7208.0,555.0,0.279,0.141,-0.636,-0.706
531361,2196.0,7186.0,919.0,0.283,0.127,-0.633,-0.71
531377,2244.0,7786.0,1225.0,0.287,0.111,-0.626,-0.716
531393,2376.0,6766.0,1567.0,0.292,0.092,-0.616,-0.726
531409,2836.0,5366.0,1959.0,0.296,0.072,-0.604,-0.736
531425,3520.0,4698.0,2321.0,0.301,0.052,-0.595,-0.744
531451,4196.0,5368.0,2369.0,0.306,0.033,-0.589,-0.747
531468,4784.0,6660.0,2407.0,0.312,0.016,-0.585,-0.749
531484,5032.0,7780.0,2667.0,0.317,-0.0,-0.582,-0.749
531500,5388.0,8680.0,2555.0,0.323,-0.015,-0.58,-0.748
531517,5442.0,9010.0,2679.0,0.329,-0.029,-0.578,-0.746
531533,5470.0,9388.0,2573.0,0.334,-0.041,-0.578,-0.744
531559,5134.0,9734.0,2427.0,0.339,-0.05,-0.579,-0.74
531575,5182.0,10572.0,2349.0,0.341,-0.056,-0.58,-0.737
531591,4752.0,10742.0,2533.0,0.343,-0.062,-0.58,-0.736
531608,4694.0,10668.0,2923.0,0.343,-0.068,-0.577,-0.738
531624,4640.0,9880.0,3529.0,0.341,-0.077,-0.572,-0.743
531641,4454.0,8444.0,3891.0,0.336,-0.085,-0.564,-0.75
531658,4242.0,7534.0,4255.0,0.33,-0.093,-0.556,-0.757
531675,4656.0,7542.0,4893.0,0.323,-0.099,-0.549,-0.764
531692,4696.0,7386.0,5533.0,0.316,-0.102,-0.543,-0.771
531709,4998.0,7416.0,5967.0,0.309,-0.103,-0.538,-0.777
531736,5276.0,7484.0,6475.0,0.303,-0.103,-0.533,-0.783
531752,5526.0,7270.0,6697.0,0.298,-0.1,-0.528,-0.789
531768,5518.0,6970.0,6787.0,0.294,-0.095,-0.525,-0.793
531785,5496.0,6662.0,6505.0,0.29,-0.087,-0.523,-0.796
531801,5474.0,6696.0,6219.0,0.287,-0.076,-0.524,-0.798
531818,5252.0,7014.0,5869.0,0.285,-0.064,-0.526,-0.799
531835,5416.0,7268.0,5695.0,0.282,-0.05,-0.529,-0.799
531852,5542.0,7292.0,5245.0,0.28,-0.035,-0.532,-0.799
531868,5792.0,7358.0,4853.0,0.277,-0.019,-0.534,-0.798
531885,5964.0,7102.0,4413.0,0.275,-0.003,-0.537,-0.797
531912,5674.0,7078.0,3701.0,0.273,0.016,-0.541,-0.795
531928,5444.0,7580.0,3235.0,0.27,0.035,-0.545,-0.793
531944,4960.0,8084.0,3131.0,0.266,0.055,-0.548,-0.791
531961,4786.0,8140.0,2939.0,0.26,0.074,-0.551,-0.79
531978,4942.0,8564.0,2711.0,0.253,0.094,-0.551,-0.79
531994,5062.0,8770.0,3287.0,0.245,0.113,-0.548,-0.792
532011,5120.0,8454.0,3673.0,0.237,0.131,-0.543,-0.795
532028,4534.0,8160.0,3675.0,0.227,0.151,-0.537,-0.798
532054,3742.0,7270.0,3677.0,0.217,0.173,-0.53,-0.802
532070,3070.0,6766.0,3483.0,0.205,0.196,-0.523,-0.804
532086,2658.0,6262.0,3153.0,0.191,0.222,-0.517,-0.805
532102,2168.0,6598.0,2821.0,0.176,0.249,-0.511,-0.804
532118,1610.0,6670.0,2701.0,0.159,0.276,-0.504,-0.803
532135,1444.0,6394.0,2397.0,0.14,0.304,-0.495,-0.802
532161,1396.0,5858.0,2317.0,0.122,0.333,-0.484,-0.8
532177,1150.0,5514.0,2807.0,0.104,0.361,-0.472,-0.798
532193,734.0,5078.0,3225.0,0.086,0.39,-0.459,-0.794
532209,572.0,4890.0,2855.0,0.069,0.418,-0.445,-0.789
532225,252.0,4852.0,2057.0,0.052,0.447,-0.43,-0.783
532241,-196.0,4724.0,1543.0,0.035,0.476,-0.412,-0.776
532267,-1340.0,4618.0,1199.0,0.018,0.507,-0.392,-0.768
532284,-2522.0,4350.0,1101.0,0.001,0.535,-0.371,-0.759
532301,-2456.0,4274.0,633.0,0.017,-0.561,0.348,0.751
532318,-2324.0,4004.0,-483.0,0.032,-0.584,0.321,0.745
532335,-2448.0,2344.0,-1077.0,0.046,-0.606,0.292,0.739
532351,-3276.0,684.0,-1161.0,0.059,-0.627,0.263,0.731
532367,-4556.0,-1104.0,595.0,0.075,-0.648,0.237,0.72
532383,-5374.0,-784.0,1543.0,0.093,-0.667,0.213,0.707
532400,-6694.0,222.0,1535.0,0.11,-0.686,0.188,0.694
532416,-7944.0,786.0,75.0,0.122,-0.704,0.159,0.681
532442,-9572.0,604.0,-171.0,0.131,-0.72,0.125,0.67
532458,-9070.0,-1188.0,221.0,0.136,-0.733,0.084,0.661
532474,-8054.0,-4162.0,-2465.0,0.141,-0.746,0.04,0.649
532490,-6964.0,-5868.0,-4121.0,0.15,-0.759,-0.003,0.634
532507,-6040.0,-5396.0,-5981.0,0.162,-0.77,-0.042,0.615
532524,-5982.0,-5352.0,-7229.0,0.174,-0.78,-0.076,0.597
532541,-6618.0,-4052.0,-7895.0,0.183,-0.786,-0.109,0.581
532558,-5750.0,-3046.0,-7945.0,0.187,-0.789,-0.143,0.567
532585,-4906.0,-2986.0,-8031.0,0.187,-0.792,-0.175,0.555
532601,-4322.0,-3670.0,-7833.0,0.185,-0.793,-0.207,0.543
532618,-4160.0,-4742.0,-6867.0,0.184,-0.793,-0.239,0.53
532635,-3488.0,-4898.0,-5501.0,0.182,-0.793,-0.27,0.516
532651,-2696.0,-4880.0,-4981.0,0.177,-0.793,-0.3,0.5
532668,-2722.0,-4760.0,-6183.0,0.169,-0.793,-0.33,0.483
532685,-1986.0,-5566.0,-7535.0,0.159,-0.794,-0.358,0.465
532701,-1646.0,-6722.0,-7941.0,0.149,-0.795,-0.383,0.446
532718,-1684.0,-7290.0,-7803.0,0.142,-0.794,-0.406,0.429
532744,-1706.0,-5854.0,-8117.0,0.135,-0.794,-0.425,0.414
532761,-1974.0,-4348.0,-9161.0,0.127,-0.793,-0.443,0.399
532777,-2098.0,-4672.0,-9599.0,0.116,-0.793,-0.459,0.383
532794,-2742.0,-6818.0,-9509.0,0.104,-0.793,-0.473,0.369
532811,-2948.0,-6504.0,-9549.0,0.094,-0.793,-0.483,0.359
532827,-3014.0,-6338.0,-9465.0,0.085,-0.794,-0.487,0.352
532844,-3390.0,-6010.0,-9829.0,0.074,-0.796,-0.489,0.349
532861,-3808.0,-6212.0,-9931.0,0.062,-0.797,-0.49,0.347
532877,-4110.0,-5314.0,-9491.0,0.045,-0.798,-0.49,0.348
532894,-4018.0,-5304.0,-9217.0,0.025,-0.798,-0.49,0.349
532921,-4118.0,-4330.0,-9013.0,0.001,-0.799,-0.486,0.353
532937,-4174.0,-3626.0,-8843.0,0.025,0.8,0.481,-0.357
532953,-3352.0,-3738.0,-8731.0,0.049,0.801,0.474,-0.364
532969,-3122.0,-962.0,-7435.0,0.073,0.801,0.467,-0.368
532985,-3256.0,-3038.0,-6221.0,0.094,0.8,0.463,-0.371
533001,-3244.0,-1416.0,-3557.0,0.111,0.798,0.458,-0.376
533027,982.0,802.0,263.0,0.101,0.797,0.464,-0.373
533044,-10966.0,6684.0,-5411.0,0.091,0.798,0.462,-0.376
533060,-3820.0,3590.0,-4921.0,0.094,0.797,0.465,-0.375
533076,-6220.0,-1602.0,-5145.0,0.096,0.796,0.465,-0.374
533092,-5156.0,-2008.0,-7135.0,0.09,0.796,0.464,-0.378
533109,-4950.0,-1598.0,-7539.0,0.082,0.796,0.462,-0.382
533126,-4632.0,-2206.0,-5939.0,0.08,0.796,0.463,-0.382
533143,-4652.0,-5022.0,-4733.0,0.081,0.795,0.465,-0.38
533160,-4222.0,-5064.0,-4909.0,0.079,0.795,0.466,-0.38
533177,-4448.0,-2070.0,-5803.0,0.076,0.796,0.464,-0.382
533204,-5018.0,-1696.0,-6481.0,0.074,0.796,0.464,-0.382
533220,-5624.0,-3182.0,-6045.0,0.07,0.796,0.463,-0.384
533236,-6234.0,-3022.0,-4903.0,0.068,0.797,0.461,-0.385
533252,-7040.0,-2236.0,-4403.0,0.067,0.797,0.459,-0.387
533268,-6318.0,-2052.0,-5835.0,0.065,0.798,0.457,-0.388
533284,-5674.0,524.0,-6959.0,0.062,0.798,0.456,-0.389
533301,-4752.0,494.0,-5909.0,0.062,0.797,0.457,-0.389
533328,-3776.0,-2684.0,-5567.0,0.063,0.797,0.456,-0.391
533344,-5028.0,-3414.0,-5741.0,0.063,0.796,0.456,-0.394
533360,-6918.0,-2512.0,-5963.0,0.062,0.795,0.456,-0.396
533377,-7132.0,-980.0,-4823.0,0.062,0.793,0.457,-0.397
533394,-5376.0,-1488.0,-5649.0,0.064,0.793,0.456,-0.399
533410,-4156.0,-3024.0,-6437.0,0.065,0.792,0.455,-0.401
533427,-5290.0,-2438.0,-5647.0,0.066,0.792,0.454,-0.404
533444,-4828.0,-1844.0,-6085.0,0.067,0.791,0.453,-0.407
533461,-4684.0,-3102.0,-6561.0,0.068,0.79,0.451,-0.41
533487,-4774.0,-2596.0,-6915.0,0.068,0.79,0.449,-0.412
533503,-5354.0,-2040.0,-6671.0,0.068,0.79,0.447,-0.413
533519,-6012.0,-1950.0,-6639.0,0.068,0.791,0.445,-0.414
533535,-7024.0,-2442.0,-6281.0,0.069,0.792,0.442,-0.415
533551,-6248.0,-2756.0,-7115.0,0.071,0.792,0.439,-0.419
533567,-7088.0,-2052.0,-6553.0,0.073,0.791,0.437,-0.423
533584,-6948.0,-3440.0,-6669.0,0.076,0.789,0.434,-0.429
533611,-7490.0,-1988.0,-6201.0,0.08,0.785,0.431,-0.437
533627,-7362.0,-2076.0,-5755.0,0.085,0.781,0.429,-0.446
533643,-5996.0,-3042.0,-6705.0,0.091,0.777,0.426,-0.455
533660,-5720.0,-1508.0,-6821.0,0.095,0.773,0.423,-0.464
533676,-5528.0,-2324.0,-6071.0,0.098,0.77,0.42,-0.47
533692,-5842.0,-2008.0,-5217.0,0.101,0.768,0.417,-0.476
533708,-6462.0,-1660.0,-4563.0,0.103,0.765,0.414,-0.482
533735,-5958.0,-2236.0,-4735.0,0.106,0.762,0.412,-0.488
533751,-6110.0,-1856.0,-4311.0,0.108,0.759,0.411,-0.494
533767,-6666.0,-740.0,-3479.0,0.11,0.756,0.409,-0.499
533784,-6668.0,-2072.0,-3293.0,0.114,0.752,0.407,-0.506
533801,-6338.0,-1956.0,-3711.0,0.117,0.749,0.405,-0.512
533818,-5978.0,-1400.0,-3739.0,0.12,0.745,0.403,-0.518
533834,-6446.0,-1856.0,-3231.0,0.123,0.74,0.402,-0.524
533851,-6698.0,-2010.0,-2977.0,0.127,0.736,0.401,-0.531
533877,-6418.0,-3254.0,-2577.0,0.131,0.73,0.402,-0.536
533894,-5724.0,-4884.0,-2723.0,0.134,0.725,0.404,-0.542
533911,-5680.0,-1098.0,-3479.0,0.137,0.72,0.406,-0.546
533927,-6774.0,-1714.0,-3847.0,0.14,0.715,0.409,-0.549
533943,-6570.0,1568.0,-4197.0,0.143,0.711,0.411,-0.552
533960,-6144.0,3648.0,-4417.0,0.145,0.709,0.412,-0.554
533977,-5144.0,-2810.0,-2813.0,0.146,0.708,0.413,-0.554
533993,-5950.0,-2412.0,-2481.0,0.143,0.709,0.413,-0.553
534010,-7284.0,-3196.0,-2537.0,0.14,0.71,0.413,-0.553
534027,-7480.0,-2298.0,-2753.0,0.137,0.71,0.413,-0.553
534053,-7066.0,-2566.0,-3435.0,0.134,0.71,0.413,-0.554
534069,-7924.0,-2970.0,-3215.0,0.132,0.71,0.411,-0.556
534085,-8068.0,-2830.0,-2717.0,0.13,0.71,0.409,-0.558
534102,-7628.0,-2492.0,-3213.0,0.129,0.709,0.406,-0.562
534119,-7578.0,-2266.0,-3297.0,0.13,0.708,0.402,-0.566
534136,-7070.0,-2424.0,-2947.0,0.131,0.706,0.399,-0.57
534152,-6456.0,-2490.0,-3297.0,0.13,0.705,0.395,-0.574
534178,-6642.0,-2092.0,-2875.0,0.13,0.703,0.393,-0.578
534194,-6278.0,-1732.0,-2497.0,0.128,0.702,0.391,-0.581
534210,-6476.0,-1378.0,-2313.0,0.126,0.702,0.39,-0.582
534227,-6302.0,-1856.0,-1715.0,0.125,0.702,0.389,-0.584
534243,-5578.0,-2042.0,-1403.0,0.122,0.702,0.388,-0.585
534259,-5352.0,-1608.0,-1773.0,0.119,0.701,0.389,-0.585
534275,-5112.0,-942.0,-987.0,0.116,0.701,0.39,-0.586
534302,-4510.0,-1082.0,-951.0,0.114,0.7,0.392,-0.586
534318,-4388.0,-910.0,-1341.0,0.112,0.7,0.394,-0.586
534334,-3784.0,-1334.0,-1045.0,0.109,0.7,0.396,-0.585
534350,-3254.0,-2456.0,-1311.0,0.106,0.7,0.398,-0.583
534367,-4732.0,-1266.0,-625.0,0.101,0.7,0.401,-0.582
534384,-5246.0,-2518.0,-587.0,0.097,0.7,0.404,-0.581
534400,-5192.0,-1388.0,-957.0,0.094,0.699,0.407,-0.581
534417,-5476.0,-3398.0,-1713.0,0.09,0.698,0.409,-0.581
534434,-6296.0,-2124.0,-2421.0,0.087,0.697,0.411,-0.581
534460,-7386.0,-1514.0,-1871.0,0.085,0.696,0.413,-0.581
534476,-6964.0,-3746.0,-2725.0,0.083,0.695,0.415,-0.581
534492,-7950.0,-2786.0,-2603.0,0.083,0.695,0.415,-0.582
534509,-7892.0,-2918.0,-2857.0,0.083,0.694,0.415,-0.582
534526,-7754.0,-4914.0,-2993.0,0.084,0.693,0.416,-0.583
534542,-8326.0,-3320.0,-2687.0,0.084,0.693,0.416,-0.583
534558,-9072.0,-3800.0,-2091.0,0.084,0.692,0.415,-0.585
534585,-8956.0,-4360.0,-2169.0,0.085,0.69,0.413,-0.588
534601,-7456.0,-3594.0,-3199.0,0.087,0.689,0.411,-0.591
534617,-8086.0,-3980.0,-2417.0,0.087,0.688,0.408,-0.594
534634,-8600.0,-3258.0,-2561.0,0.088,0.686,0.406,-0.597
534651,-8414.0,-3718.0,-2661.0,0.094,0.684,0.406,-0.599
534668,-9102.0,-3962.0,-1971.0,0.097,0.681,0.404,-0.603
534685,-8644.0,-2624.0,-2675.0,0.101,0.679,0.401,-0.607
534701,-8692.0,-4196.0,-2259.0,0.105,0.677,0.397,-0.611
534717,-8586.0,-3684.0,-2329.0,0.108,0.676,0.393,-0.614
534744,-8982.0,-3438.0,-1781.0,0.11,0.674,0.39,-0.618
534760,-8708.0,-3014.0,-2069.0,0.114,0.671,0.386,-0.623
534776,-9042.0,-3138.0,-1427.0,0.118,0.668,0.382,-0.627
534793,-8274.0,-2630.0,-1403.0,0.122,0.665,0.379,-0.632
534810,-7966.0,-2478.0,-1567.0,0.126,0.661,0.376,-0.637
534826,-8104.0,-2820.0,-875.0,0.129,0.657,0.374,-0.642
534843,-7844.0,-2990.0,-1043.0,0.132,0.653,0.373,-0.646
534859,-7928.0,-2282.0,-995.0,0.134,0.65,0.371,-0.649
534886,-8070.0,-2586.0,-689.0,0.136,0.647,0.37,-0.652
534902,-8456.0,-2514.0,-617.0,0.139,0.645,0.368,-0.655
534918,-8568.0,-2724.0,-835.0,0.141,0.643,0.366,-0.658
534935,-8982.0,-2656.0,-495.0,0.142,0.641,0.366,-0.66
534951,-9270.0,-3734.0,-691.0,0.143,0.64,0.365,-0.661
534967,-10078.0,-3094.0,-727.0,0.143,0.64,0.365,-0.661
534983,-10478.0,-3444.0,-511.0,0.142,0.64,0.366,-0.661
535010,-10952.0,-3762.0,-579.0,0.142,0.64,0.367,-0.66
535026,-10802.0,-4002.0,-1017.0,0.141,0.641,0.368,-0.658
535043,-10992.0,-4016.0,-675.0,0.139,0.643,0.371,-0.656
535059,-11198.0,-4048.0,-923.0,0.137,0.644,0.375,-0.652
535076,-11076.0,-4174.0,-1261.0,0.134,0.646,0.379,-0.649
535092,-11208.0,-4262.0,-1041.0,0.131,0.648,0.383,-0.645
535109,-10856.0,-3868.0,-1247.0,0.128,0.65,0.387,-0.641
535125,-10690.0,-3920.0,-1477.0,0.125,0.652,0.392,-0.637
535151,-10514.0,-4302.0,-1477.0,0.122,0.653,0.396,-0.634
535168,-10778.0,-3470.0,-1361.0,0.119,0.654,0.401,-0.63
535184,-9380.0,-3424.0,-1917.0,0.117,0.655,0.404,-0.627
535201,-9312.0,-4014.0,-1775.0,0.115,0.656,0.408,-0.625
535218,-9590.0,-3488.0,-1733.0,0.114,0.656,0.411,-0.622
535234,-8018.0,-3586.0,-2121.0,0.113,0.657,0.414,-0.62
535250,-8434.0,-2732.0,-1819.0,0.112,0.658,0.417,-0.617
535267,-8122.0,-2864.0,-2139.0,0.112,0.658,0.419,-0.615
535293,-8532.0,-2832.0,-1287.0,0.112,0.659,0.42,-0.614
535310,-7502.0,-3708.0,-1317.0,0.114,0.659,0.421,-0.613
535326,-7994.0,-2688.0,-1535.0,0.116,0.658,0.42,-0.614
535343,-7700.0,-2236.0,-1935.0,0.119,0.658,0.419,-0.615
535359,-7234.0,-3066.0,-2309.0,0.123,0.658,0.417,-0.615
535376,-7624.0,-2668.0,-1959.0,0.128,0.659,0.413,-0.616
535392,-8126.0,-3456.0,-2139.0,0.131,0.66,0.41,-0.616
535409,-8592.0,-2842.0,-2353.0,0.135,0.661,0.405,-0.617
535425,-7760.0,-2442.0,-2611.0,0.138,0.663,0.399,-0.618
535452,-8458.0,-2348.0,-2323.0,0.144,0.664,0.392,-0.62
535468,-8856.0,-1950.0,-1667.0,0.15,0.666,0.382,-0.622
535484,-7132.0,-1800.0,-1833.0,0.161,0.667,0.371,-0.626
535500,-5670.0,788.0,-2031.0,0.174,0.667,0.358,-0.63
535517,-3218.0,-330.0,-1615.0,0.19,0.666,0.345,-0.634
535533,-1322.0,1220.0,-631.0,0.207,0.666,0.333,-0.635
535549,-442.0,3764.0,-889.0,0.227,0.666,0.324,-0.632
535576,2288.0,3590.0,-405.0,0.248,0.665,0.324,-0.625
535593,2934.0,-3654.0,1779.0,0.264,0.666,0.327,-0.617
535609,3562.0,1918.0,-5.0,0.25,0.668,0.332,-0.617
535625,-2456.0,9488.0,-3415.0,0.239,0.666,0.348,-0.615
535641,-1458.0,-7912.0,-3501.0,0.235,0.658,0.371,-0.612
535658,-4676.0,-9022.0,-6023.0,0.226,0.654,0.38,-0.614
535675,-7006.0,-13310.0,-2105.0,0.225,0.654,0.382,-0.613
535692,-7654.0,-13746.0,-585.0,0.215,0.658,0.378,-0.615
535718,-6922.0,-6114.0,1653.0,0.195,0.665,0.369,-0.62
535734,-3554.0,9062.0,8301.0,0.165,0.673,0.366,-0.621
535750,-3228.0,15494.0,4461.0,0.156,0.678,0.374,-0.613
535766,10060.0,5996.0,-19307.0,0.165,0.667,0.399,-0.607
535782,4390.0,-15442.0,-1123.0,0.154,0.664,0.4,-0.613
535798,-84.0,8362.0,-677.0,0.138,0.665,0.405,-0.612
535824,-17676.0,-5552.0,1143.0,0.129,0.664,0.409,-0.613
535840,-9896.0,9824.0,-1211.0,0.123,0.662,0.415,-0.612
535857,-1606.0,-5200.0,-4579.0,0.126,0.661,0.422,-0.607
535874,-10904.0,-5682.0,-2729.0,0.123,0.663,0.426,-0.604
535891,-11188.0,-146.0,-3141.0,0.123,0.663,0.432,-0.599
535908,-9148.0,-6818.0,-1355.0,0.125,0.664,0.435,-0.596
535925,-10594.0,-7058.0,-2983.0,0.124,0.665,0.435,-0.595
535942,-10848.0,-2708.0,-3101.0,0.124,0.665,0.434,-0.595
535959,-9820.0,-4174.0,-2317.0,0.125,0.665,0.435,-0.595
535976,-10966.0,-3830.0,-2313.0,0.125,0.664,0.434,-0.596
535993,-10020.0,-5032.0,-1907.0,0.127,0.664,0.431,-0.598
536010,-9864.0,-3870.0,-2365.0,0.129,0.663,0.427,-0.601
536027,-9684.0,-4248.0,-2699.0,0.131,0.662,0.423,-0.605
536054,-9754.0,-3226.0,-2113.0,0.132,0.66,0.419,-0.61
536070,-9384.0,-3818.0,-1683.0,0.134,0.657,0.417,-0.614
536086,-8932.0,-2554.0,-2279.0,0.135,0.653,0.414,-0.619
536102,-8160.0,-3050.0,-1067.0,0.137,0.649,0.411,-0.625
536118,-7228.0,-2744.0,-1665.0,0.139,0.647,0.409,-0.629
536134,-7318.0,-2946.0,-1579.0,0.14,0.645,0.407,-0.632
536160,-8184.0,-2564.0,-787.0,0.141,0.643,0.406,-0.634
536176,-8492.0,-2748.0,-1225.0,0.143,0.641,0.404,-0.636
536192,-8968.0,-2910.0,-1341.0,0.146,0.64,0.402,-0.638
536208,-9420.0,-2934.0,-693.0,0.149,0.639,0.4,-0.639
536224,-10184.0,-3332.0,-1103.0,0.153,0.638,0.398,-0.641
536240,-10368.0,-3698.0,-1435.0,0.157,0.638,0.397,-0.641
536266,-10620.0,-4036.0,-1039.0,0.16,0.638,0.397,-0.641
536282,-11488.0,-4216.0,-1309.0,0.163,0.639,0.397,-0.639
536298,-11598.0,-4922.0,-1483.0,0.164,0.64,0.398,-0.636
536314,-11918.0,-4744.0,-1061.0,0.163,0.642,0.401,-0.632
536330,-12392.0,-4498.0,-1477.0,0.162,0.644,0.405,-0.629
536346,-11908.0,-4216.0,-1621.0,0.159,0.646,0.409,-0.625
536372,-11480.0,-4412.0,-1803.0,0.156,0.648,0.413,-0.621
536389,-11268.0,-4314.0,-1991.0,0.152,0.649,0.419,-0.616
536405,-10678.0,-3966.0,-1941.0,0.147,0.65,0.425,-0.612
536422,-10440.0,-3714.0,-1743.0,0.144,0.651,0.431,-0.609
536438,-9730.0,-4052.0,-2215.0,0.14,0.651,0.436,-0.605
536454,-8904.0,-3668.0,-2501.0,0.137,0.651,0.44,-0.603
536471,-9026.0,-3788.0,-2319.0,0.133,0.651,0.445,-0.6
536488,-8926.0,-3568.0,-2409.0,0.131,0.651,0.449,-0.598
536505,-8632.0,-3010.0,-2287.0,0.129,0.651,0.451,-0.596
536531,-9252.0,-3086.0,-2273.0,0.129,0.652,0.452,-0.595
536548,-7728.0,-4058.0,-3133.0,0.129,0.653,0.452,-0.595
536564,-7896.0,-3016.0,-2569.0,0.129,0.653,0.452,-0.593
536580,-8618.0,-3220.0,-2227.0,0.13,0.654,0.451,-0.593
536596,-8754.0,-3584.0,-1887.0,0.133,0.654,0.449,-0.595
536612,-7364.0,-3242.0,-2037.0,0.135,0.652,0.447,-0.597
536638,-6202.0,-3506.0,-2563.0,0.136,0.651,0.445,-0.6
536655,-7514.0,-2494.0,-1739.0,0.138,0.649,0.442,-0.603
536672,-6606.0,-3042.0,-1727.0,0.14,0.648,0.439,-0.606
536688,-6380.0,-3394.0,-1741.0,0.142,0.648,0.435,-0.608
536704,-7028.0,-2402.0,-1769.0,0.144,0.649,0.43,-0.611
536720,-6962.0,-3052.0,-1723.0,0.147,0.65,0.424,-0.614
536736,-6590.0,-3236.0,-1649.0,0.15,0.652,0.416,-0.616
536753,-7154.0,-790.0,-2027.0,0.154,0.655,0.406,-0.619
536779,-6592.0,-840.0,-1395.0,0.159,0.658,0.396,-0.621
536795,-5634.0,-1402.0,-1563.0,0.167,0.66,0.384,-0.623
536812,-5734.0,-806.0,-587.0,0.176,0.662,0.372,-0.627
536828,-4206.0,-432.0,257.0,0.185,0.661,0.361,-0.631
536845,-3532.0,-2338.0,737.0,0.195,0.658,0.352,-0.636
536862,-944.0,-2706.0,-515.0,0.202,0.656,0.345,-0.64
536879,-390.0,-344.0,-995.0,0.205,0.656,0.339,-0.643
536896,522.0,74.0,-1853.0,0.204,0.656,0.338,-0.643
536912,-96.0,-612.0,-1429.0,0.201,0.658,0.338,-0.642
536939,-104.0,-128.0,-1177.0,0.195,0.662,0.341,-0.639
536955,-310.0,-162.0,-81.0,0.188,0.665,0.346,-0.634
536972,-464.0,-1592.0,-83.0,0.181,0.669,0.354,-0.629
536988,-986.0,-2936.0,691.0,0.172,0.671,0.363,-0.623
537004,-1930.0,-1678.0,553.0,0.16,0.674,0.373,-0.617
537020,-2658.0,820.0,-423.0,0.151,0.675,0.384,-0.612
537036,-3964.0,-58.0,-1673.0,0.143,0.676,0.394,-0.606
537062,-5612.0,-572.0,-259.0,0.138,0.676,0.403,-0.601
537078,-3462.0,-5258.0,-3357.0,0.133,0.677,0.411,-0.596
537094,-7566.0,-1410.0,-2351.0,0.127,0.678,0.417,-0.592
537110,-8304.0,-1020.0,-2201.0,0.123,0.678,0.423,-0.588
537126,-7428.0,-4708.0,-3613.0,0.122,0.679,0.426,-0.584
537143,-8464.0,-3372.0,-3015.0,0.119,0.68,0.43,-0.582
537169,-8832.0,-2786.0,-2617.0,0.119,0.68,0.432,-0.58
537185,-9644.0,-4174.0,-2777.0,0.119,0.68,0.434,-0.579
537201,-7784.0,-3976.0,-4025.0,0.12,0.678,0.435,-0.58
537217,-10508.0,-3774.0,-1721.0,0.122,0.677,0.435,-0.581
537233,-11010.0,-4080.0,-1907.0,0.124,0.676,0.432,-0.585
537249,-11486.0,-1892.0,-2501.0,0.129,0.673,0.426,-0.591
537266,-8340.0,-4470.0,-2969.0,0.135,0.67,0.42,-0.597
537293,-7178.0,-3924.0,-4419.0,0.139,0.667,0.415,-0.603
537309,-8192.0,-3214.0,-3203.0,0.141,0.665,0.412,-0.607
537325,-8226.0,-1218.0,-3141.0,0.143,0.663,0.411,-0.609
537341,-9946.0,-4530.0,-2197.0,0.144,0.66,0.411,-0.612
537358,-7322.0,-3958.0,-2635.0,0.143,0.657,0.412,-0.615
537375,-8356.0,-2118.0,-2809.0,0.141,0.655,0.414,-0.616
537392,-9616.0,-2880.0,-2339.0,0.141,0.653,0.416,-0.616
537408,-10092.0,-3808.0,-1593.0,0.143,0.652,0.417,-0.617
537434,-10596.0,-3948.0,-1031.0,0.146,0.65,0.414,-0.62
537450,-8872.0,-3562.0,-1969.0,0.15,0.648,0.41,-0.625
537466,-8850.0,-3044.0,-1943.0,0.153,0.646,0.406,-0.628
537482,-9112.0,-3150.0,-1503.0,0.157,0.644,0.403,-0.631
537499,-9986.0,-3290.0,-1117.0,0.16,0.642,0.401,-0.633
537516,-10144.0,-4086.0,-1275.0,0.164,0.64,0.399,-0.636
537532,-11936.0,-5340.0,-1113.0,0.165,0.639,0.397,-0.638
537549,-12422.0,-3650.0,-1629.0,0.166,0.637,0.396,-0.64
537576,-14546.0,-4550.0,-1187.0,0.167,0.636,0.395,-0.642
537592,-16004.0,-5356.0,-411.0,0.168,0.633,0.394,-0.645
537608,-14000.0,-4914.0,-1485.0,0.169,0.629,0.393,-0.649
537625,-12400.0,-4962.0,-1503.0,0.168,0.624,0.394,-0.653
537641,-11692.0,-4002.0,-1451.0,0.165,0.621,0.399,-0.655
537658,-11272.0,-4888.0,-1747.0,0.16,0.617,0.406,-0.655
537675,-10600.0,-3786.0,-869.0,0.155,0.615,0.412,-0.654
537691,-9682.0,-3494.0,-1441.0,0.151,0.614,0.418,-0.652
537717,-8754.0,-4072.0,-1295.0,0.148,0.614,0.423,-0.65
537733,-8736.0,-3722.0,105.0,0.144,0.615,0.428,-0.646
537749,-7606.0,-3290.0,-371.0,0.141,0.616,0.432,-0.643
537765,-7694.0,-3850.0,-735.0,0.139,0.618,0.435,-0.64
537782,-8056.0,-2982.0,275.0,0.138,0.619,0.436,-0.638
537798,-7044.0,-3350.0,-495.0,0.138,0.621,0.436,-0.636
537815,-5978.0,-3272.0,-1025.0,0.137,0.623,0.436,-0.635
537842,-6078.0,-2662.0,-1229.0,0.136,0.626,0.436,-0.632
537859,-7364.0,-3162.0,-1767.0,0.136,0.629,0.436,-0.629
537875,-7484.0,-2462.0,-1311.0,0.136,0.632,0.436,-0.626
537891,-7674.0,-4650.0,-751.0,0.138,0.635,0.433,-0.624
537907,-9428.0,-3002.0,-1389.0,0.14,0.638,0.428,-0.625
537924,-6906.0,-2744.0,-3057.0,0.142,0.641,0.423,-0.625
537941,-7020.0,-2798.0,-2121.0,0.145,0.644,0.418,-0.624
537958,-7570.0,-3478.0,-2935.0,0.147,0.648,0.413,-0.622
537975,-9828.0,-2616.0,-1317.0,0.151,0.652,0.406,-0.622
537992,-8208.0,-2058.0,-1233.0,0.156,0.654,0.398,-0.624
538018,-7170.0,-1822.0,-1725.0,0.165,0.656,0.386,-0.627
538034,-6912.0,-2056.0,-1279.0,0.174,0.656,0.374,-0.633
538050,-5364.0,-1284.0,-677.0,0.184,0.654,0.362,-0.638
538066,-4286.0,358.0,-603.0,0.197,0.651,0.35,-0.644
538082,-3246.0,60.0,211.0,0.211,0.648,0.338,-0.649
538098,-2172.0,980.0,735.0,0.227,0.644,0.328,-0.653
538125,-1644.0,774.0,231.0,0.244,0.64,0.322,-0.654
538142,-272.0,-506.0,-419.0,0.257,0.637,0.318,-0.653
538159,350.0,-2642.0,-631.0,0.265,0.636,0.319,-0.651
538175,-864.0,-2938.0,-1107.0,0.263,0.638,0.32,-0.649
538191,-1678.0,-1410.0,-2005.0,0.257,0.639,0.322,-0.65
538208,-1314.0,-2292.0,-1251.0,0.252,0.64,0.325,-0.649
538224,-1076.0,-3042.0,-13.0,0.242,0.641,0.33,-0.65
538241,-1534.0,-1780.0,-471.0,0.229,0.641,0.337,-0.65
538258,-2194.0,-2064.0,269.0,0.214,0.64,0.347,-0.651
538275,-994.0,370.0,2435.0,0.199,0.638,0.359,-0.652
538301,-2220.0,84.0,-383.0,0.186,0.636,0.37,-0.651
538317,-4906.0,1836.0,-23.0,0.172,0.636,0.38,-0.649
538333,-5676.0,-1892.0,-215.0,0.165,0.636,0.39,-0.645
538349,-7412.0,-2036.0,-151.0,0.157,0.636,0.395,-0.644
538365,-8348.0,-2468.0,-945.0,0.15,0.635,0.4,-0.643
538382,-8122.0,-2542.0,-1575.0,0.146,0.635,0.404,-0.642
538399,-8432.0,-3884.0,-2191.0,0.141,0.635,0.408,-0.641
538425,-9440.0,-2672.0,-1065.0,0.137,0.635,0.411,-0.64
538441,-9212.0,-2590.0,-1057.0,0.134,0.634,0.413,-0.64
538458,-10660.0,-3584.0,-1481.0,0.134,0.634,0.414,-0.64
538475,-8286.0,-3904.0,-1591.0,0.134,0.634,0.414,-0.64
538492,-6962.0,-5220.0,-2079.0,0.132,0.635,0.414,-0.639
538508,-11588.0,-1754.0,-1369.0,0.13,0.635,0.416,-0.638
538525,-8954.0,-4472.0,-1137.0,0.132,0.636,0.415,-0.637
538542,-9456.0,-4024.0,-1129.0,0.133,0.637,0.414,-0.637
538558,-9646.0,-4096.0,-1149.0,0.134,0.638,0.411,-0.637
538584,-8352.0,-3634.0,-1313.0,0.136,0.638,0.409,-0.638
538600,-9466.0,-4222.0,-1153.0,0.137,0.639,0.406,-0.639
538616,-9112.0,-3824.0,-1511.0,0.14,0.639,0.404,-0.639
538633,-9734.0,-3882.0,-697.0,0.142,0.64,0.401,-0.64
538649,-10134.0,-4090.0,-1029.0,0.145,0.64,0.397,-0.642
538665,-9620.0,-3748.0,-869.0,0.148,0.64,0.392,-0.644
538691,-9416.0,-3694.0,-635.0,0.151,0.64,0.388,-0.646
538708,-9394.0,-3436.0,-1347.0,0.154,0.639,0.384,-0.648
538724,-9158.0,-3288.0,-1147.0,0.158,0.639,0.381,-0.65
538741,-8802.0,-3534.0,-1541.0,0.162,0.639,0.377,-0.65
538757,-9884.0,-3790.0,-1655.0,0.164,0.642,0.373,-0.65
538774,-11912.0,-3616.0,-991.0,0.166,0.644,0.37,-0.649
538791,-12356.0,-4230.0,-953.0,0.168,0.646,0.367,-0.648
538807,-12314.0,-4092.0,-1845.0,0.169,0.647,0.366,-0.648
538824,-13496.0,-4156.0,-893.0,0.169,0.647,0.366,-0.647
538851,-12500.0,-3638.0,-1339.0,0.168,0.647,0.367,-0.647
538867,-11850.0,-3890.0,-1695.0,0.167,0.646,0.369,-0.647
538883,-11584.0,-3234.0,-1451.0,0.165,0.647,0.371,-0.646
538899,-10652.0,-3154.0,-1775.0,0.162,0.647,0.375,-0.644
538915,-10456.0,-3452.0,-2183.0,0.159,0.648,0.379,-0.641
538932,-11154.0,-2534.0,-1317.0,0.155,0.65,0.385,-0.637
538948,-10660.0,-2554.0,-1209.0,0.151,0.651,0.39,-0.633
538965,-9974.0,-3480.0,-1695.0,0.148,0.653,0.395,-0.629
538992,-9914.0,-2996.0,-1591.0,0.145,0.654,0.4,-0.625
539008,-9914.0,-3184.0,-1519.0,0.141,0.656,0.406,-0.62
539024,-9842.0,-2674.0,-1307.0,0.138,0.658,0.41,-0.616
539041,-9646.0,-3558.0,-973.0,0.137,0.66,0.413,-0.613
539058,-9264.0,-3250.0,-1841.0,0.137,0.661,0.414,-0.611
539074,-8610.0,-3230.0,-1657.0,0.136,0.661,0.416,-0.61
539091,-7908.0,-3406.0,-1525.0,0.136,0.661,0.417,-0.609
539108,-8408.0,-3030.0,-1815.0,0.137,0.66,0.417,-0.609
539125,-8596.0,-2510.0,-1033.0,0.138,0.66,0.416,-0.61
539151,-6802.0,-3310.0,-1585.0,0.141,0.659,0.414,-0.612
539167,-7298.0,-2638.0,-1415.0,0.142,0.657,0.412,-0.615
539183,-7316.0,-1888.0,-1541.0,0.145,0.655,0.408,-0.619
539199,-7344.0,-3226.0,-1623.0,0.148,0.654,0.405,-0.622
539215,-7338.0,-1656.0,-1351.0,0.152,0.652,0.401,-0.626
539231,-6866.0,-2952.0,-1475.0,0.156,0.65,0.394,-0.63
539258,-8818.0,-2546.0,-599.0,0.161,0.648,0.387,-0.636
539274,-7222.0,-2478.0,-1257.0,0.165,0.646,0.378,-0.642
539291,-5326.0,-740.0,-2161.0,0.172,0.645,0.368,-0.647
539307,-6372.0,-828.0,-535.0,0.182,0.643,0.357,-0.652
539324,-4224.0,-808.0,-329.0,0.194,0.641,0.344,-0.658
539340,-1690.0,-886.0,-399.0,0.207,0.639,0.332,-0.663
539356,-36.0,40.0,-1063.0,0.219,0.637,0.321,-0.666
539374,-156.0,-938.0,-553.0,0.227,0.637,0.313,-0.667
539391,-648.0,-1164.0,-247.0,0.231,0.638,0.308,-0.667
539408,-464.0,-1144.0,107.0,0.233,0.639,0.305,-0.666
539435,-174.0,-1296.0,267.0,0.233,0.641,0.305,-0.665
539451,-240.0,-2116.0,73.0,0.23,0.642,0.308,-0.663
539467,-678.0,-1332.0,-95.0,0.224,0.643,0.314,-0.662
539484,-1586.0,-1242.0,783.0,0.216,0.644,0.322,-0.66
539500,-2174.0,-834.0,809.0,0.207,0.644,0.332,-0.658
539516,-2844.0,298.0,553.0,0.198,0.643,0.344,-0.655
539532,-2688.0,-1050.0,-203.0,0.189,0.642,0.356,-0.652
539558,-3926.0,-1388.0,-173.0,0.178,0.643,0.367,-0.648
539575,-5924.0,-962.0,-119.0,0.169,0.643,0.378,-0.644
539592,-6440.0,-2142.0,-917.0,0.162,0.643,0.386,-0.641
539609,-8200.0,-3576.0,-1461.0,0.153,0.644,0.394,-0.638
539626,-9686.0,-426.0,-317.0,0.148,0.643,0.4,-0.636
539643,-7312.0,-3948.0,-1439.0,0.143,0.642,0.406,-0.634
539660,-8332.0,-3528.0,-2033.0,0.139,0.641,0.41,-0.634
539677,-7488.0,-3358.0,-1287.0,0.134,0.64,0.416,-0.632
539694,-8074.0,-2776.0,-1439.0,0.13,0.639,0.422,-0.63
539711,-9834.0,-2714.0,-1035.0,0.129,0.638,0.427,-0.628
539727,-8484.0,-3936.0,-1169.0,0.129,0.638,0.428,-0.627
539744,-8006.0,-3410.0,-1867.0,0.129,0.64,0.428,-0.625
539770,-8926.0,-3732.0,-1901.0,0.13,0.642,0.428,-0.622
539786,-9636.0,-3714.0,-1735.0,0.131,0.645,0.428,-0.619
539802,-9374.0,-4338.0,-1521.0,0.133,0.647,0.428,-0.616
539818,-9870.0,-4338.0,-1817.0,0.135,0.65,0.427,-0.615
539835,-9522.0,-4232.0,-2533.0,0.137,0.652,0.425,-0.613
539851,-9088.0,-4332.0,-2141.0,0.138,0.654,0.424,-0.611
539868,-10426.0,-3668.0,-1281.0,0.139,0.655,0.423,-0.611
539894,-10272.0,-4028.0,-1199.0,0.141,0.655,0.421,-0.612
539911,-9354.0,-3254.0,-1729.0,0.143,0.654,0.419,-0.614
539927,-8924.0,-3912.0,-1545.0,0.145,0.653,0.416,-0.616
539943,-9154.0,-3074.0,-1785.0,0.148,0.652,0.414,-0.618
539959,-8576.0,-4164.0,-1835.0,0.15,0.651,0.412,-0.62
539975,-9426.0,-3352.0,-1701.0,0.152,0.65,0.41,-0.622
540001,-10156.0,-4318.0,-2281.0,0.154,0.649,0.409,-0.623
540018,-13494.0,-4394.0,-1945.0,0.154,0.649,0.408,-0.623
540034,-11320.0,-5706.0,-2841.0,0.154,0.648,0.411,-0.622
540051,-14028.0,-5716.0,-2783.0,0.153,0.646,0.414,-0.622
540067,-14002.0,-5310.0,-2567.0,0.151,0.644,0.419,-0.621
540083,-12238.0,-5590.0,-3089.0,0.149,0.643,0.425,-0.62
540099,-12386.0,-5050.0,-2177.0,0.146,0.641,0.429,-0.619
540125,-10328.0,-5574.0,-2441.0,0.143,0.64,0.434,-0.617
540142,-10856.0,-4314.0,-2621.0,0.14,0.64,0.439,-0.615
540158,-9910.0,-4266.0,-2161.0,0.137,0.639,0.445,-0.612
540174,-9580.0,-3862.0,-2005.0,0.135,0.638,0.45,-0.61
540190,-9150.0,-4416.0,-1971.0,0.133,0.638,0.453,-0.608
540206,-8664.0,-4018.0,-1695.0,0.132,0.638,0.455,-0.607
540222,-8400.0,-3408.0,-1777.0,0.131,0.638,0.457,-0.606
540248,-7978.0,-3838.0,-1955.0,0.131,0.638,0.458,-0.605
540264,-8072.0,-3346.0,-1553.0,0.132,0.638,0.458,-0.605
540280,-7576.0,-3698.0,-1709.0,0.132,0.639,0.457,-0.605
540297,-6840.0,-3342.0,-2643.0,0.133,0.64,0.456,-0.604
540313,-6872.0,-2926.0,-2607.0,0.134,0.643,0.455,-0.602
540330,-7174.0,-3448.0,-1997.0,0.135,0.646,0.453,-0.599
540347,-7962.0,-2872.0,-2361.0,0.136,0.65,0.451,-0.597
540373,-7870.0,-4052.0,-2137.0,0.139,0.653,0.448,-0.595
540390,-8644.0,-3066.0,-1755.0,0.141,0.656,0.446,-0.593
540406,-7748.0,-3858.0,-2309.0,0.144,0.658,0.441,-0.593
540423,-8202.0,-2768.0,-1647.0,0.148,0.66,0.435,-0.594
540440,-7824.0,-2784.0,-1557.0,0.152,0.661,0.428,-0.597
540456,-6906.0,-2550.0,-1927.0,0.157,0.662,0.421,-0.6
540473,-7284.0,-1656.0,-963.0,0.163,0.662,0.414,-0.604
540490,-6060.0,-1428.0,-1555.0,0.171,0.661,0.405,-0.608
540506,-5122.0,-2456.0,-1745.0,0.178,0.661,0.396,-0.612
540523,-5482.0,-170.0,-999.0,0.187,0.661,0.386,-0.616
540550,-4526.0,-524.0,-289.0,0.198,0.661,0.374,-0.62
540567,-3532.0,-224.0,-213.0,0.211,0.66,0.362,-0.623
540583,-2738.0,-748.0,-61.0,0.225,0.66,0.35,-0.626
540599,-2118.0,-486.0,-453.0,0.238,0.659,0.339,-0.628
540616,-2032.0,-468.0,-403.0,0.247,0.658,0.329,-0.63
540633,-1128.0,-650.0,-515.0,0.253,0.658,0.322,-0.632
540649,-1000.0,-3150.0,-153.0,0.258,0.658,0.319,-0.632
540665,-850.0,-4282.0,-239.0,0.258,0.658,0.319,-0.632
540691,-586.0,-2822.0,-553.0,0.252,0.658,0.322,-0.632
540707,-952.0,-700.0,-293.0,0.244,0.66,0.327,-0.631
540724,-1022.0,-430.0,-319.0,0.234,0.662,0.335,-0.628
540740,-1722.0,-1092.0,531.0,0.223,0.664,0.345,-0.625
540756,-3228.0,308.0,-405.0,0.213,0.665,0.355,-0.621
540773,-3668.0,-1212.0,-319.0,0.202,0.668,0.365,-0.617
540790,-4102.0,-140.0,-213.0,0.192,0.67,0.374,-0.612
540806,-5694.0,368.0,-763.0,0.183,0.671,0.381,-0.609
540833,-7474.0,-128.0,-1813.0,0.178,0.672,0.389,-0.605
540850,-6322.0,-2690.0,-2127.0,0.171,0.673,0.397,-0.6
540867,-6570.0,-2568.0,-2657.0,0.165,0.674,0.406,-0.595
540883,-9342.0,-1744.0,-1817.0,0.157,0.675,0.415,-0.59
540900,-9006.0,-2820.0,-2409.0,0.153,0.676,0.421,-0.585
540916,-8916.0,-2408.0,-1799.0,0.149,0.676,0.426,-0.582
540932,-8338.0,-3858.0,-2947.0,0.146,0.677,0.43,-0.579
540949,-10202.0,-2470.0,-2179.0,0.144,0.677,0.433,-0.577
540975,-8846.0,-3124.0,-2573.0,0.143,0.677,0.435,-0.576
540991,-9246.0,-2882.0,-3289.0,0.143,0.677,0.436,-0.575
541007,-8722.0,-3916.0,-3695.0,0.144,0.678,0.436,-0.573
541023,-9512.0,-3394.0,-2659.0,0.143,0.68,0.436,-0.572
541040,-9570.0,-3304.0,-2327.0,0.143,0.68,0.434,-0.572
541057,-10174.0,-3084.0,-2801.0,0.144,0.681,0.432,-0.574
541073,-8400.0,-3322.0,-3019.0,0.146,0.68,0.43,-0.575
541092,-9022.0,-3176.0,-2209.0,0.148,0.68,0.428,-0.576
541108,-8924.0,-3602.0,-2439.0,0.15,0.679,0.426,-0.578
541134,-8936.0,-2602.0,-2165.0,0.152,0.679,0.424,-0.58
541151,-8448.0,-2682.0,-2125.0,0.155,0.678,0.421,-0.583
541168,-8214.0,-2844.0,-2351.0,0.157,0.676,0.419,-0.585
541185,-8504.0,-2502.0,-1691.0,0.159,0.675,0.417,-0.588
541201,-8474.0,-2364.0,-1523.0,0.162,0.673,0.416,-0.59
541218,-8430.0,-2898.0,-1933.0,0.165,0.671,0.414,-0.593
541235,-8528.0,-3782.0,-2003.0,0.168,0.669,0.412,-0.596
541251,-9608.0,-2922.0,-1941.0,0.171,0.667,0.41,-0.598
541268,-9462.0,-4052.0,-2355.0,0.173,0.666,0.407,-0.6
541284,-11008.0,-3620.0,-2215.0,0.175,0.665,0.405,-0.602
541311,-11746.0,-4236.0,-2237.0,0.176,0.665,0.404,-0.603
541328,-12724.0,-4554.0,-2057.0,0.178,0.664,0.404,-0.604
541344,-12000.0,-4312.0,-2393.0,0.178,0.663,0.405,-0.604
541360,-12748.0,-4734.0,-2335.0,0.179,0.662,0.406,-0.604
541377,-12870.0,-4874.0,-2401.0,0.178,0.662,0.409,-0.602
541393,-10890.0,-4866.0,-2805.0,0.175,0.662,0.414,-0.599
541409,-11658.0,-4008.0,-2485.0,0.172,0.664,0.42,-0.595
541426,-12082.0,-3944.0,-2215.0,0.168,0.666,0.425,-0.589
541453,-10306.0,-3898.0,-2843.0,0.165,0.669,0.43,-0.583
541470,-10438.0,-3580.0,-2419.0,0.161,0.672,0.436,-0.577
541487,-9614.0,-4148.0,-2791.0,0.156,0.675,0.442,-0.57
541503,-9880.0,-3116.0,-2531.0,0.152,0.677,0.448,-0.564
541519,-9620.0,-3088.0,-2225.0,0.149,0.679,0.452,-0.559
541536,-8706.0,-3894.0,-2259.0,0.147,0.68,0.455,-0.556
541553,-8958.0,-2542.0,-2311.0,0.146,0.681,0.457,-0.554
541569,-8388.0,-2718.0,-2189.0,0.145,0.68,0.457,-0.554
541587,-7360.0,-3000.0,-2853.0,0.146,0.68,0.456,-0.556
541604,-8016.0,-2564.0,-2237.0,0.147,0.678,0.454,-0.559
541621,-6960.0,-3114.0,-2721.0,0.148,0.676,0.453,-0.562
541638,-7812.0,-2440.0,-2259.0,0.15,0.674,0.45,-0.566
541665,-6544.0,-2246.0,-2885.0,0.152,0.672,0.447,-0.571
541681,-6932.0,-2808.0,-2109.0,0.154,0.67,0.444,-0.575
541697,-7166.0,-2550.0,-2479.0,0.157,0.668,0.44,-0.579
541713,-6218.0,-2202.0,-3119.0,0.159,0.668,0.435,-0.583
541729,-6106.0,-2224.0,-2949.0,0.161,0.668,0.431,-0.584
541745,-7696.0,-2114.0,-2179.0,0.164,0.67,0.426,-0.585
541771,-7030.0,-2782.0,-2779.0,0.167,0.673,0.42,-0.586
541788,-8192.0,-1588.0,-1733.0,0.171,0.676,0.411,-0.587
541805,-7162.0,-2850.0,-1839.0,0.176,0.677,0.402,-0.59
541822,-8152.0,-1246.0,-1973.0,0.183,0.678,0.391,-0.595
541839,-6846.0,-1430.0,-1727.0,0.191,0.677,0.381,-0.6
541856,-5380.0,-1046.0,-1259.0,0.2,0.675,0.369,-0.606
541873,-5296.0,-362.0,-715.0,0.211,0.672,0.357,-0.613
541890,-3386.0,-400.0,-747.0,0.223,0.669,0.346,-0.619
541907,-1776.0,-1032.0,-961.0,0.234,0.665,0.336,-0.624
541924,-674.0,-1832.0,-1169.0,0.241,0.663,0.329,-0.628
541941,-344.0,-1118.0,-545.0,0.246,0.662,0.324,-0.629
541958,-658.0,-818.0,-385.0,0.247,0.662,0.322,-0.63
541975,94.0,-1824.0,-557.0,0.246,0.664,0.323,-0.628
541992,-328.0,-866.0,-511.0,0.243,0.665,0.326,-0.626
542019,-1014.0,-932.0,-75.0,0.238,0.667,0.331,-0.624
542035,-1472.0,-1342.0,405.0,0.231,0.668,0.339,-0.621
542051,-1388.0,-976.0,-189.0,0.224,0.668,0.349,-0.618
542068,-2122.0,-852.0,-1563.0,0.215,0.67,0.359,-0.614
542085,-3952.0,-202.0,-355.0,0.206,0.671,0.37,-0.608
542102,-4764.0,20.0,-173.0,0.199,0.673,0.38,-0.603
542118,-5500.0,-1106.0,-1145.0,0.193,0.673,0.388,-0.599
542135,-5670.0,-4148.0,-1955.0,0.186,0.674,0.397,-0.594
542152,-8066.0,674.0,-649.0,0.181,0.675,0.405,-0.59
542170,-7606.0,-2946.0,-1607.0,0.177,0.675,0.411,-0.586
542196,-8084.0,-1158.0,-1919.0,0.174,0.676,0.415,-0.584
542212,-7634.0,-2610.0,-1995.0,0.173,0.676,0.419,-0.581
542228,-7744.0,-3542.0,-2663.0,0.169,0.676,0.424,-0.578
542244,-8816.0,-1912.0,-1941.0,0.167,0.677,0.428,-0.576
542260,-9442.0,-1558.0,-1795.0,0.166,0.677,0.43,-0.574
542276,-9094.0,-1730.0,-3351.0,0.167,0.677,0.43,-0.573
542293,-7476.0,-3400.0,-3653.0,0.167,0.679,0.43,-0.57
542320,-9622.0,-2380.0,-2835.0,0.168,0.682,0.429,-0.568
542337,-9802.0,-2950.0,-2411.0,0.169,0.684,0.427,-0.567
542354,-9580.0,-2706.0,-2621.0,0.171,0.684,0.425,-0.568
542371,-9738.0,-2462.0,-2859.0,0.174,0.684,0.422,-0.569
542388,-9140.0,-2770.0,-3501.0,0.178,0.684,0.419,-0.571
542405,-8548.0,-3970.0,-2713.0,0.182,0.683,0.415,-0.573
542422,-10164.0,-3964.0,-1449.0,0.185,0.682,0.411,-0.576
542439,-9382.0,-3200.0,-1901.0,0.189,0.679,0.408,-0.581
542456,-8770.0,-2444.0,-1957.0,0.193,0.674,0.404,-0.587
542473,-8846.0,-2314.0,-1691.0,0.196,0.67,0.4,-0.594
542490,-8446.0,-2092.0,-1849.0,0.199,0.665,0.397,-0.601
542507,-8742.0,-2382.0,-1325.0,0.202,0.661,0.394,-0.606
542524,-9458.0,-2384.0,-1315.0,0.206,0.657,0.39,-0.611
542551,-9802.0,-2748.0,-1315.0,0.209,0.655,0.387,-0.614
542568,-9770.0,-3028.0,-1449.0,0.212,0.653,0.384,-0.617
542585,-11290.0,-2898.0,-1187.0,0.214,0.652,0.382,-0.619
542602,-11762.0,-3266.0,-983.0,0.216,0.651,0.38,-0.62
542619,-12144.0,-2910.0,-969.0,0.218,0.65,0.379,-0.621
542636,-13138.0,-3028.0,-1139.0,0.22,0.649,0.378,-0.622
542652,-12280.0,-3396.0,-1341.0,0.222,0.649,0.378,-0.622
542669,-11938.0,-3728.0,-1307.0,0.22,0.648,0.38,-0.622
542686,-13512.0,-3466.0,-699.0,0.217,0.647,0.384,-0.621
542703,-12518.0,-2350.0,-613.0,0.214,0.646,0.39,-0.62
542720,-11278.0,-2980.0,-891.0,0.211,0.645,0.395,-0.619
542737,-11760.0,-2986.0,-727.0,0.208,0.644,0.401,-0.617
542754,-10388.0,-2858.0,-1399.0,0.203,0.644,0.409,-0.613
542771,-10184.0,-3184.0,-815.0,0.199,0.645,0.417,-0.608
542798,-10276.0,-2936.0,-963.0,0.195,0.646,0.425,-0.603
542814,-9862.0,-3394.0,-1225.0,0.192,0.648,0.432,-0.598
542830,-9402.0,-3500.0,-1223.0,0.188,0.649,0.439,-0.592
542846,-9716.0,-3246.0,-1325.0,0.185,0.651,0.445,-0.587
542862,-9102.0,-3724.0,-1609.0,0.184,0.652,0.45,-0.582
542878,-9094.0,-3730.0,-1393.0,0.183,0.655,0.453,-0.577
542895,-8918.0,-3120.0,-2089.0,0.182,0.656,0.455,-0.574
542921,-8302.0,-3292.0,-1501.0,0.181,0.658,0.456,-0.572
542938,-7772.0,-2996.0,-1999.0,0.181,0.659,0.457,-0.57
542955,-7944.0,-2800.0,-2039.0,0.181,0.659,0.456,-0.57
542971,-7432.0,-3140.0,-1641.0,0.183,0.66,0.454,-0.57
542987,-6860.0,-2664.0,-2125.0,0.184,0.659,0.453,-0.571
543003,-7210.0,-2872.0,-1577.0,0.186,0.659,0.45,-0.574
543020,-6492.0,-2626.0,-1819.0,0.188,0.658,0.447,-0.576
543037,-7040.0,-1758.0,-2091.0,0.191,0.658,0.443,-0.579
543063,-5992.0,-2282.0,-2107.0,0.195,0.658,0.438,-0.581
543079,-6500.0,-1816.0,-1821.0,0.199,0.658,0.432,-0.583
543095,-6250.0,-1574.0,-3135.0,0.203,0.661,0.425,-0.584
543112,-6318.0,-1718.0,-2887.0,0.209,0.664,0.418,-0.583
543129,-6054.0,-1288.0,-2189.0,0.213,0.669,0.409,-0.583
543145,-5798.0,-1984.0,-2379.0,0.218,0.674,0.399,-0.582
543162,-5668.0,-154.0,-1749.0,0.224,0.678,0.389,-0.582
543179,-3962.0,34.0,-707.0,0.23,0.681,0.377,-0.583
543205,-2564.0,68.0,-1243.0,0.241,0.682,0.368,-0.584
543222,-1800.0,832.0,-367.0,0.253,0.683,0.36,-0.583
543239,-408.0,522.0,-55.0,0.265,0.682,0.355,-0.583
543255,4598.0,-4392.0,2623.0,0.271,0.682,0.353,-0.581
543271,2168.0,-1016.0,957.0,0.264,0.685,0.351,-0.581
543287,-1574.0,3858.0,-1873.0,0.258,0.684,0.361,-0.579
543304,-592.0,-5016.0,-1339.0,0.247,0.68,0.374,-0.58
543321,-3254.0,-3822.0,-2507.0,0.241,0.677,0.385,-0.58
543338,-4308.0,-8650.0,-2625.0,0.232,0.676,0.391,-0.58
543355,-7504.0,-6856.0,-2513.0,0.223,0.678,0.391,-0.581
543382,-3020.0,-5452.0,3143.0,0.211,0.682,0.39,-0.581
543399,-1268.0,25492.0,-5519.0,0.185,0.682,0.411,-0.576
543415,-2538.0,-8122.0,-863.0,0.184,0.678,0.43,-0.567
543431,-6398.0,-6806.0,-4369.0,0.175,0.676,0.439,-0.566
543447,-11936.0,1892.0,-2497.0,0.169,0.675,0.444,-0.565
543463,-8842.0,-4296.0,-3013.0,0.166,0.672,0.453,-0.562
543479,-9300.0,-3022.0,-4389.0,0.164,0.67,0.459,-0.559
543505,-9264.0,-2268.0,-1319.0,0.163,0.668,0.464,-0.557
543521,-8038.0,-4360.0,-2537.0,0.163,0.668,0.467,-0.556
543538,-10572.0,-2000.0,-2875.0,0.163,0.666,0.468,-0.557
543555,-7866.0,-4706.0,-2915.0,0.164,0.665,0.469,-0.558
543571,-10144.0,-3282.0,-2421.0,0.164,0.663,0.47,-0.559
543588,-9958.0,-3504.0,-2939.0,0.165,0.661,0.469,-0.563
543604,-9114.0,-2694.0,-2699.0,0.168,0.657,0.467,-0.567
543630,-8504.0,-2844.0,-2791.0,0.171,0.654,0.465,-0.572
543646,-8372.0,-2246.0,-3103.0,0.174,0.649,0.464,-0.578
543662,-8254.0,-4454.0,-2039.0,0.176,0.645,0.463,-0.582
543678,-9294.0,-2976.0,-2417.0,0.179,0.642,0.462,-0.585
543694,-9292.0,-3672.0,-2755.0,0.181,0.64,0.458,-0.589
543710,-9436.0,-3378.0,-2301.0,0.184,0.64,0.454,-0.592
543727,-8766.0,-3050.0,-2781.0,0.186,0.64,0.45,-0.594
543753,-9124.0,-3168.0,-1933.0,0.189,0.64,0.447,-0.596
543770,-9250.0,-2872.0,-1249.0,0.192,0.639,0.444,-0.598
543787,-8676.0,-3264.0,-1743.0,0.195,0.639,0.441,-0.599
543804,-8916.0,-3222.0,-2109.0,0.198,0.639,0.439,-0.6
543821,-9824.0,-3638.0,-1837.0,0.199,0.641,0.437,-0.599
543838,-11240.0,-3826.0,-1829.0,0.2,0.642,0.437,-0.598
543855,-13258.0,-5114.0,-2033.0,0.202,0.643,0.436,-0.597
543872,-11980.0,-4228.0,-2533.0,0.202,0.644,0.437,-0.595
543889,-12278.0,-5988.0,-3009.0,0.201,0.645,0.439,-0.592
543906,-13848.0,-4976.0,-2215.0,0.199,0.647,0.443,-0.588
543923,-12714.0,-5110.0,-2285.0,0.197,0.647,0.447,-0.585
543940,-11810.0,-4468.0,-2599.0,0.195,0.648,0.452,-0.582
543957,-11276.0,-4806.0,-2735.0,0.193,0.649,0.456,-0.578
543984,-11294.0,-4626.0,-2357.0,0.189,0.649,0.462,-0.574
544001,-10626.0,-4028.0,-2441.0,0.186,0.65,0.467,-0.569
544018,-10104.0,-4250.0,-2323.0,0.183,0.65,0.473,-0.566
544035,-9928.0,-4210.0,-2133.0,0.181,0.651,0.477,-0.562
544052,-9544.0,-3914.0,-1887.0,0.179,0.651,0.481,-0.559
544069,-8716.0,-4094.0,-1903.0,0.178,0.652,0.483,-0.557
544086,-8254.0,-4210.0,-2679.0,0.176,0.652,0.485,-0.555
544103,-9254.0,-3278.0,-2195.0,0.174,0.653,0.487,-0.553
544119,-8230.0,-4148.0,-2037.0,0.173,0.654,0.486,-0.553
544136,-9056.0,-3508.0,-1973.0,0.172,0.655,0.483,-0.554
544153,-8270.0,-3316.0,-2677.0,0.171,0.656,0.481,-0.556
544170,-7652.0,-2280.0,-2977.0,0.171,0.657,0.479,-0.557
544187,-8262.0,-3470.0,-2141.0,0.172,0.657,0.476,-0.558
544214,-7534.0,-2638.0,-2705.0,0.173,0.658,0.473,-0.56
544230,-9022.0,-1538.0,-2299.0,0.175,0.659,0.468,-0.562
544246,-6988.0,-2574.0,-2817.0,0.178,0.66,0.463,-0.564
544263,-7428.0,-3048.0,-1753.0,0.181,0.662,0.456,-0.567
544280,-7658.0,-2036.0,-2379.0,0.184,0.664,0.447,-0.571
544296,-6830.0,-1554.0,-1773.0,0.187,0.665,0.438,-0.575
544313,-6514.0,-772.0,-1499.0,0.192,0.667,0.428,-0.579
544329,-6260.0,-1252.0,-1507.0,0.198,0.669,0.415,-0.584
544355,-5234.0,-166.0,-685.0,0.207,0.669,0.402,-0.59
544372,-2716.0,-1516.0,-1247.0,0.215,0.669,0.388,-0.596
544389,-2160.0,-1212.0,-1455.0,0.222,0.669,0.375,-0.602
544406,-1576.0,1348.0,-561.0,0.229,0.669,0.362,-0.607
544423,-868.0,-54.0,-345.0,0.236,0.669,0.352,-0.611
544440,-758.0,-1068.0,-441.0,0.241,0.668,0.344,-0.614
544457,-416.0,-1176.0,-397.0,0.245,0.668,0.34,-0.615
544474,-494.0,-1664.0,-523.0,0.246,0.668,0.339,-0.616
544491,-788.0,-2218.0,-341.0,0.244,0.668,0.341,-0.615
544508,-424.0,-1428.0,-377.0,0.239,0.667,0.347,-0.614
544525,-380.0,-1420.0,-869.0,0.231,0.668,0.355,-0.612
544542,-1936.0,-312.0,-657.0,0.223,0.668,0.366,-0.608
544559,-2182.0,-1278.0,-387.0,0.214,0.669,0.379,-0.603
544585,-3436.0,918.0,-851.0,0.205,0.67,0.392,-0.597
544601,-4798.0,-1184.0,-931.0,0.198,0.67,0.402,-0.592
544618,-6042.0,-1718.0,-1885.0,0.192,0.671,0.411,-0.587
544635,-7150.0,-1914.0,-1545.0,0.186,0.672,0.418,-0.582
544652,-7226.0,-1634.0,-1985.0,0.183,0.672,0.425,-0.578
544669,-8460.0,-2788.0,-1653.0,0.179,0.672,0.431,-0.575
544686,-8128.0,-3526.0,-2619.0,0.177,0.671,0.435,-0.574
544702,-8180.0,-2936.0,-3123.0,0.174,0.671,0.438,-0.572
544719,-7810.0,-2864.0,-2393.0,0.171,0.67,0.444,-0.57
544745,-9696.0,-3738.0,-1271.0,0.169,0.668,0.447,-0.57
544761,-10156.0,-2556.0,-2129.0,0.168,0.666,0.446,-0.573
544777,-9202.0,-1256.0,-2117.0,0.169,0.664,0.446,-0.577
544793,-6430.0,-4528.0,-3127.0,0.17,0.661,0.445,-0.58
544810,-7988.0,-4396.0,-3105.0,0.168,0.66,0.445,-0.581
544826,-9680.0,-1774.0,-2531.0,0.167,0.659,0.445,-0.582
544843,-8584.0,-3014.0,-2349.0,0.167,0.659,0.445,-0.583
544869,-8322.0,-3532.0,-2941.0,0.168,0.66,0.443,-0.583
544886,-8588.0,-2808.0,-2829.0,0.167,0.662,0.441,-0.582
544903,-8208.0,-3396.0,-1957.0,0.167,0.665,0.439,-0.581
544920,-8648.0,-3410.0,-2095.0,0.166,0.668,0.436,-0.58
544937,-8606.0,-3216.0,-2375.0,0.164,0.671,0.432,-0.58
544954,-8548.0,-2772.0,-1953.0,0.163,0.674,0.429,-0.579
544971,-8950.0,-3334.0,-1915.0,0.163,0.676,0.425,-0.58
544988,-9340.0,-2316.0,-2101.0,0.163,0.678,0.42,-0.581
545005,-9450.0,-2496.0,-1751.0,0.165,0.679,0.416,-0.582
545022,-9428.0,-3230.0,-2039.0,0.168,0.679,0.411,-0.585
545039,-9738.0,-3056.0,-2815.0,0.171,0.679,0.407,-0.586
545056,-11630.0,-3602.0,-1713.0,0.173,0.678,0.404,-0.589
545073,-11544.0,-4398.0,-2197.0,0.176,0.677,0.402,-0.591
545090,-14072.0,-4158.0,-1667.0,0.178,0.675,0.4,-0.593
545117,-12596.0,-4794.0,-1867.0,0.179,0.673,0.4,-0.596
545134,-12772.0,-3968.0,-2215.0,0.179,0.67,0.401,-0.598
545151,-12466.0,-4102.0,-2347.0,0.178,0.668,0.403,-0.6
545168,-11604.0,-3462.0,-2077.0,0.177,0.667,0.405,-0.6
545185,-9572.0,-4228.0,-3057.0,0.174,0.667,0.409,-0.598
545202,-10656.0,-3644.0,-2335.0,0.17,0.668,0.414,-0.594
545219,-10248.0,-3226.0,-2135.0,0.165,0.67,0.42,-0.589
545236,-9472.0,-3152.0,-2429.0,0.161,0.672,0.426,-0.584
545253,-9224.0,-3888.0,-2383.0,0.156,0.675,0.432,-0.578
545270,-9972.0,-2846.0,-1375.0,0.151,0.677,0.437,-0.572
545287,-9416.0,-3266.0,-1875.0,0.149,0.678,0.441,-0.568
545304,-8580.0,-3658.0,-1805.0,0.147,0.679,0.445,-0.566
545321,-8406.0,-3734.0,-1777.0,0.145,0.678,0.447,-0.564
545338,-8440.0,-3458.0,-2089.0,0.144,0.678,0.449,-0.564
545355,-8506.0,-3306.0,-1357.0,0.145,0.676,0.449,-0.566
545382,-7818.0,-3372.0,-1679.0,0.145,0.675,0.45,-0.567
545398,-7568.0,-3880.0,-1969.0,0.146,0.673,0.449,-0.57
545414,-7538.0,-3170.0,-2107.0,0.147,0.671,0.448,-0.572
545430,-7700.0,-2526.0,-2127.0,0.149,0.671,0.448,-0.573
545447,-7484.0,-3600.0,-1575.0,0.151,0.67,0.446,-0.574
545463,-7964.0,-2710.0,-2017.0,0.153,0.67,0.444,-0.575
545479,-8554.0,-2706.0,-1583.0,0.156,0.669,0.442,-0.577
545505,-7856.0,-2640.0,-1437.0,0.16,0.668,0.438,-0.579
545522,-7244.0,-3604.0,-2323.0,0.163,0.668,0.434,-0.582
545539,-8872.0,-2406.0,-497.0,0.168,0.667,0.429,-0.586
545555,-8868.0,-2498.0,-321.0,0.175,0.665,0.42,-0.593
545571,-8442.0,-1980.0,-1217.0,0.183,0.662,0.409,-0.601
545588,-6278.0,-1730.0,-1421.0,0.194,0.658,0.399,-0.609
545605,-5562.0,-2974.0,-2439.0,0.204,0.653,0.391,-0.616
545621,-6278.0,-2658.0,-2495.0,0.212,0.65,0.383,-0.621
545648,-5898.0,-82.0,-1679.0,0.219,0.649,0.375,-0.625
545665,-5210.0,-424.0,-1185.0,0.227,0.648,0.366,-0.628
545682,-4612.0,-650.0,-675.0,0.236,0.648,0.356,-0.631
545699,-3750.0,-204.0,71.0,0.247,0.648,0.344,-0.634
545715,-2490.0,338.0,599.0,0.257,0.647,0.333,-0.636
545731,-912.0,-844.0,-369.0,0.266,0.646,0.325,-0.637
545748,-936.0,-1990.0,-483.0,0.27,0.647,0.319,-0.638
545764,-1158.0,-1904.0,-845.0,0.27,0.649,0.317,-0.637
545780,-1096.0,-1812.0,429.0,0.267,0.651,0.318,-0.636
545806,-1032.0,-1872.0,271.0,0.261,0.652,0.323,-0.635
545823,-1004.0,-1362.0,-191.0,0.252,0.654,0.331,-0.632
545840,-1738.0,-462.0,513.0,0.242,0.655,0.343,-0.628
545857,-2284.0,-1398.0,475.0,0.231,0.656,0.357,-0.624
545874,-2458.0,-68.0,-487.0,0.22,0.657,0.371,-0.619
545891,-3782.0,-636.0,-411.0,0.208,0.659,0.384,-0.613
545908,-5670.0,22.0,275.0,0.2,0.66,0.394,-0.607
545925,-4868.0,-2966.0,-1229.0,0.192,0.661,0.404,-0.602
545941,-6520.0,-1754.0,-1649.0,0.184,0.663,0.412,-0.598
545958,-6880.0,38.0,-963.0,0.178,0.663,0.42,-0.593
545984,-4824.0,-5152.0,-3411.0,0.172,0.665,0.428,-0.587
546001,-8408.0,-1882.0,-2059.0,0.166,0.665,0.437,-0.582
546018,-8938.0,-358.0,-1817.0,0.162,0.665,0.446,-0.577
546035,-9672.0,-4172.0,-1825.0,0.161,0.665,0.451,-0.573
546052,-6378.0,-4634.0,-3369.0,0.158,0.665,0.457,-0.569
546069,-9646.0,-2884.0,-1921.0,0.155,0.666,0.461,-0.565
546086,-9798.0,-2542.0,-2651.0,0.154,0.666,0.465,-0.562
546103,-7990.0,-4334.0,-3827.0,0.154,0.667,0.467,-0.559
546120,-8686.0,-4332.0,-3269.0,0.153,0.669,0.469,-0.556
546137,-10148.0,-3374.0,-2521.0,0.152,0.67,0.469,-0.554
546154,-9820.0,-2984.0,-2571.0,0.153,0.671,0.468,-0.555
546171,-8068.0,-3380.0,-3499.0,0.154,0.671,0.465,-0.556
546188,-7970.0,-3864.0,-3047.0,0.155,0.671,0.464,-0.557
546205,-7992.0,-3820.0,-3145.0,0.156,0.672,0.462,-0.558
546232,-8242.0,-3260.0,-2683.0,0.156,0.672,0.461,-0.559
546249,-8090.0,-2830.0,-2567.0,0.158,0.671,0.459,-0.56
546266,-8128.0,-3454.0,-2093.0,0.16,0.671,0.457,-0.561
546283,-7672.0,-2662.0,-2461.0,0.162,0.671,0.455,-0.563
546300,-7554.0,-3004.0,-2225.0,0.163,0.671,0.453,-0.564
546317,-7774.0,-3008.0,-2477.0,0.165,0.671,0.452,-0.564
546333,-8254.0,-3326.0,-2043.0,0.167,0.672,0.451,-0.564
546350,-8410.0,-3532.0,-2453.0,0.168,0.673,0.45,-0.563
546367,-9304.0,-3444.0,-2331.0,0.17,0.674,0.448,-0.563
546383,-9530.0,-3682.0,-2429.0,0.17,0.675,0.446,-0.563
546400,-10114.0,-4012.0,-2459.0,0.171,0.675,0.445,-0.563
546417,-10978.0,-3882.0,-2843.0,0.172,0.674,0.445,-0.564
546444,-11026.0,-5036.0,-3459.0,0.173,0.674,0.445,-0.564
546460,-12388.0,-4394.0,-3159.0,0.173,0.673,0.445,-0.565
546476,-11376.0,-4902.0,-3267.0,0.173,0.672,0.445,-0.565
546493,-12058.0,-4622.0,-3273.0,0.173,0.672,0.447,-0.565
546510,-11412.0,-4542.0,-2987.0,0.172,0.671,0.448,-0.565
546527,-9592.0,-4296.0,-3149.0,0.171,0.67,0.451,-0.565
546543,-9550.0,-4090.0,-3059.0,0.168,0.669,0.454,-0.564
546559,-9612.0,-3464.0,-2329.0,0.166,0.668,0.457,-0.564
546585,-8764.0,-3312.0,-2377.0,0.164,0.667,0.46,-0.563
546602,-8198.0,-3282.0,-2513.0,0.163,0.666,0.463,-0.562
546619,-7770.0,-3236.0,-2127.0,0.162,0.665,0.465,-0.561
546637,-7918.0,-2848.0,-1763.0,0.161,0.664,0.467,-0.561
546654,-7044.0,-3128.0,-2853.0,0.16,0.664,0.469,-0.56
546671,-7346.0,-2706.0,-2171.0,0.159,0.664,0.471,-0.559
546688,-7282.0,-3022.0,-1825.0,0.158,0.664,0.473,-0.558
546705,-7272.0,-2770.0,-2405.0,0.158,0.664,0.473,-0.557
546722,-6982.0,-2662.0,-2495.0,0.158,0.665,0.474,-0.556
546739,-6434.0,-3306.0,-2287.0,0.157,0.665,0.475,-0.554
546756,-7116.0,-2594.0,-2079.0,0.156,0.666,0.477,-0.553
546773,-7372.0,-3060.0,-2217.0,0.155,0.666,0.478,-0.551
546790,-6836.0,-2690.0,-2577.0,0.156,0.667,0.478,-0.55
546807,-6772.0,-3186.0,-2111.0,0.155,0.667,0.479,-0.549
546834,-7352.0,-2840.0,-2125.0,0.155,0.668,0.479,-0.548
546851,-7420.0,-2514.0,-2191.0,0.155,0.668,0.479,-0.548
546868,-6512.0,-3114.0,-2631.0,0.156,0.668,0.478,-0.548
546885,-6238.0,-3250.0,-2959.0,0.156,0.669,0.479,-0.547
546902,-7250.0,-2608.0,-2285.0,0.156,0.669,0.479,-0.547
546919,-6940.0,-3440.0,-2075.0,0.156,0.669,0.478,-0.547
546936,-7624.0,-2724.0,-2281.0,0.157,0.669,0.477,-0.547
546954,-6818.0,-2938.0,-2735.0,0.158,0.669,0.476,-0.548
546971,-6880.0,-3236.0,-2099.0,0.159,0.669,0.475,-0.549
546988,-6764.0,-3118.0,-2429.0,0.16,0.67,0.473,-0.549
547005,-7254.0,-2870.0,-2531.0,0.161,0.67,0.472,-0.55
547022,-6720.0,-3044.0,-2523.0,0.162,0.671,0.471,-0.55
547039,-7238.0,-2726.0,-2245.0,0.163,0.671,0.47,-0.55
547055,-7316.0,-3186.0,-1851.0,0.164,0.672,0.468,-0.55
547072,-7266.0,-2944.0,-2271.0,0.166,0.673,0.465,-0.551
547099,-7066.0,-2672.0,-2267.0,0.167,0.674,0.463,-0.551
547115,-6638.0,-2854.0,-1977.0,0.169,0.674,0.461,-0.551
547131,-7194.0,-2608.0,-1731.0,0.17,0.675,0.459,-0.552
547148,-7214.0,-2622.0,-2155.0,0.172,0.675,0.456,-0.553
547165,-7238.0,-1770.0,-2123.0,0.174,0.676,0.454,-0.554
547182,-6278.0,-2982.0,-2379.0,0.176,0.676,0.453,-0.554
547198,-7586.0,-2426.0,-2045.0,0.176,0.677,0.451,-0.554
547215,-8322.0,-1810.0,-1867.0,0.178,0.677,0.449,-0.555
547241,-6792.0,-3264.0,-1949.0,0.18,0.678,0.447,-0.556
547257,-7290.0,-2270.0,-1819.0,0.181,0.678,0.445,-0.557
547274,-7662.0,-2032.0,-1685.0,0.183,0.677,0.442,-0.559
547291,-7536.0,-2452.0,-1537.0,0.185,0.676,0.44,-0.561
547308,-6822.0,-2028.0,-1869.0,0.187,0.675,0.438,-0.563
547324,-7040.0,-2134.0,-1505.0,0.189,0.674,0.437,-0.564
547341,-7236.0,-2128.0,-1621.0,0.191,0.674,0.435,-0.565
547357,-7128.0,-1874.0,-1539.0,0.194,0.674,0.433,-0.566
547374,-7332.0,-1768.0,-1445.0,0.196,0.674,0.432,-0.567
547391,-6890.0,-2430.0,-1733.0,0.198,0.675,0.43,-0.566
547418,-7054.0,-1796.0,-1801.0,0.199,0.676,0.428,-0.566
547435,-7774.0,-1936.0,-1621.0,0.199,0.677,0.427,-0.565
547452,-6868.0,-3054.0,-1733.0,0.2,0.679,0.426,-0.563
547469,-7754.0,-1092.0,-1375.0,0.201,0.681,0.423,-0.562
547486,-7482.0,-1762.0,-1421.0,0.202,0.683,0.421,-0.561
547504,-6632.0,-1942.0,-1819.0,0.204,0.684,0.419,-0.561
547521,-6706.0,-1892.0,-1825.0,0.204,0.686,0.418,-0.56
547538,-6402.0,-1384.0,-1835.0,0.205,0.688,0.416,-0.558
547555,-6336.0,-1872.0,-1965.0,0.206,0.69,0.414,-0.556
547572,-6132.0,-1896.0,-2093.0,0.205,0.693,0.413,-0.554
547589,-6140.0,-1410.0,-1695.0,0.205,0.695,0.413,-0.551
547606,-5874.0,-1702.0,-1797.0,0.204,0.698,0.413,-0.549
547623,-5318.0,-1496.0,-1907.0,0.203,0.7,0.413,-0.546
547640,-4772.0,-1968.0,-1775.0,0.201,0.702,0.415,-0.542
547657,-4668.0,-2438.0,-2051.0,0.197,0.705,0.419,-0.537
547674,-5410.0,-1404.0,-1889.0,0.191,0.708,0.423,-0.532
547700,-5458.0,-1280.0,-1735.0,0.186,0.711,0.428,-0.527
547717,-5700.0,-2426.0,-2337.0,0.181,0.713,0.432,-0.521
547734,-6526.0,-1652.0,-3129.0,0.175,0.716,0.437,-0.515
547751,-7542.0,-1784.0,-3033.0,0.17,0.72,0.441,-0.509
547768,-8102.0,-2988.0,-3061.0,0.165,0.723,0.446,-0.502
547785,-8512.0,-2508.0,-3761.0,0.16,0.725,0.45,-0.496
547802,-8894.0,-2780.0,-3893.0,0.156,0.728,0.453,-0.49
547819,-9064.0,-2448.0,-3473.0,0.152,0.731,0.456,-0.484
547836,-8366.0,-2658.0,-3783.0,0.149,0.734,0.458,-0.479
547853,-7982.0,-2470.0,-4109.0,0.146,0.736,0.459,-0.475
547870,-7654.0,-2438.0,-4087.0,0.144,0.739,0.461,-0.47
547887,-6858.0,-2184.0,-3917.0,0.141,0.741,0.463,-0.465
547904,-6390.0,-2588.0,-4195.0,0.138,0.744,0.464,-0.46
547931,-6426.0,-2252.0,-4323.0,0.135,0.747,0.466,-0.456
547948,-6738.0,-2348.0,-4025.0,0.131,0.749,0.468,-0.451
547964,-6790.0,-1740.0,-3833.0,0.129,0.751,0.469,-0.447
547981,-5946.0,-2730.0,-4315.0,0.126,0.752,0.471,-0.444
547997,-5984.0,-2562.0,-4743.0,0.124,0.753,0.473,-0.44
548013,-6566.0,-1884.0,-4387.0,0.121,0.754,0.475,-0.437
548029,-6064.0,-2114.0,-4595.0,0.119,0.756,0.477,-0.433
548055,-6118.0,-2328.0,-4817.0,0.117,0.757,0.479,-0.43
548072,-6188.0,-2376.0,-4753.0,0.115,0.758,0.48,-0.427
548088,-5880.0,-2366.0,-4981.0,0.113,0.759,0.481,-0.423
548104,-5858.0,-2196.0,-5091.0,0.111,0.76,0.483,-0.419
548121,-5986.0,-2470.0,-4815.0,0.109,0.761,0.486,-0.416
548137,-6062.0,-2428.0,-4721.0,0.107,0.762,0.488,-0.412
548153,-5880.0,-2228.0,-5063.0,0.106,0.762,0.491,-0.409
548179,-5666.0,-2488.0,-5017.0,0.104,0.763,0.493,-0.405
548195,-5442.0,-2690.0,-5201.0,0.102,0.763,0.496,-0.402
548211,-5920.0,-2336.0,-5311.0,0.1,0.764,0.498,-0.398
548227,-5824.0,-2416.0,-5055.0,0.099,0.765,0.5,-0.394
548243,-5498.0,-2574.0,-5303.0,0.097,0.765,0.502,-0.39
548260,-5742.0,-2446.0,-5495.0,0.095,0.766,0.504,-0.387
548276,-5614.0,-2688.0,-5283.0,0.094,0.767,0.506,-0.383
548303,-5564.0,-2460.0,-5327.0,0.092,0.768,0.508,-0.379
548320,-6328.0,6986.0,-30169.0,0.092,0.765,0.508,-0.385
548337,-12442.0,-8134.0,-14523.0,0.093,0.761,0.508,-0.391
548354,-11788.0,-3326.0,-17965.0,0.096,0.758,0.51,-0.395
548371,-8404.0,-7472.0,-8095.0,0.097,0.756,0.511,-0.398
548388,-5878.0,-3678.0,-765.0,0.099,0.755,0.511,-0.398
548405,-5808.0,-5502.0,-5377.0,0.099,0.755,0.511,-0.399
548422,-7434.0,-2230.0,-6021.0,0.099,0.754,0.512,-0.399
548439,-6902.0,-5164.0,-4067.0,0.098,0.754,0.514,-0.397
548456,-7766.0,-2884.0,-6581.0,0.096,0.755,0.514,-0.395
548473,-6256.0,-3350.0,-4859.0,0.095,0.756,0.515,-0.392
548490,-6458.0,-3810.0,-3841.0,0.093,0.757,0.516,-0.389
548507,-6826.0,-2494.0,-8725.0,0.093,0.757,0.518,-0.387
548533,-5882.0,-2344.0,-5145.0,0.093,0.757,0.52,-0.386
548549,-7990.0,-4384.0,-3299.0,0.092,0.757,0.521,-0.383
548566,-6842.0,-1884.0,-10145.0,0.092,0.756,0.523,-0.382
548583,-6256.0,-3666.0,-3847.0,0.092,0.756,0.525,-0.38
