timeMs,ax,ay,az,q0,q1,q2,q3
2645011,7135.0,8566.0,2736.0,0.658,0.363,-0.65,-0.114
2645027,7429.0,8290.0,2352.0,0.656,0.36,-0.654,-0.114
2645043,7217.0,8350.0,2340.0,0.654,0.357,-0.657,-0.115
2645059,7075.0,7852.0,2094.0,0.653,0.356,-0.658,-0.117
2645075,6825.0,8018.0,2132.0,0.652,0.356,-0.659,-0.119
2645101,6491.0,7856.0,2286.0,0.652,0.357,-0.658,-0.122
2645117,6217.0,7670.0,1966.0,0.652,0.359,-0.656,-0.124
2645133,5809.0,7854.0,1878.0,0.653,0.362,-0.653,-0.128
2645149,5499.0,8070.0,1314.0,0.653,0.367,-0.649,-0.131
2645165,5621.0,8022.0,988.0,0.654,0.372,-0.644,-0.135
2645181,5111.0,9084.0,356.0,0.655,0.379,-0.639,-0.139
2645207,5111.0,8876.0,496.0,0.656,0.385,-0.633,-0.145
2645223,4931.0,8902.0,306.0,0.656,0.392,-0.626,-0.152
2645239,5581.0,9538.0,1378.0,0.657,0.399,-0.619,-0.161
2645255,4507.0,9440.0,198.0,0.657,0.405,-0.612,-0.172
2645271,4453.0,9728.0,200.0,0.657,0.409,-0.605,-0.184
2645288,4379.0,9056.0,-170.0,0.657,0.412,-0.599,-0.199
2645314,4143.0,9454.0,-130.0,0.656,0.414,-0.593,-0.216
2645331,4547.0,8940.0,-968.0,0.655,0.415,-0.586,-0.235
2645347,4591.0,9696.0,-1038.0,0.653,0.417,-0.579,-0.255
2645363,4529.0,9416.0,-1354.0,0.651,0.417,-0.571,-0.276
2645380,4231.0,9222.0,-1408.0,0.647,0.419,-0.563,-0.297
2645396,4025.0,9628.0,-1290.0,0.644,0.42,-0.554,-0.319
2645413,3933.0,9124.0,-1296.0,0.64,0.421,-0.545,-0.341
2645430,3649.0,9148.0,-1128.0,0.636,0.423,-0.534,-0.362
2645456,2939.0,8602.0,-626.0,0.632,0.424,-0.524,-0.384
2645473,2715.0,8396.0,-476.0,0.626,0.425,-0.513,-0.405
2645490,2601.0,8038.0,-462.0,0.619,0.427,-0.503,-0.425
2645506,2663.0,7934.0,-200.0,0.612,0.429,-0.494,-0.445
2645522,2303.0,7416.0,-208.0,0.603,0.432,-0.484,-0.464
2645538,2023.0,7164.0,-138.0,0.593,0.436,-0.475,-0.481
2645554,1931.0,7580.0,128.0,0.583,0.441,-0.468,-0.498
2645571,1551.0,7206.0,48.0,0.571,0.446,-0.461,-0.513
2645597,1463.0,6918.0,6.0,0.558,0.451,-0.455,-0.527
2645614,1065.0,6478.0,-70.0,0.544,0.456,-0.45,-0.541
2645630,1149.0,5948.0,-146.0,0.53,0.462,-0.447,-0.554
2645647,1227.0,6472.0,-48.0,0.514,0.467,-0.445,-0.565
2645664,917.0,5532.0,-96.0,0.499,0.472,-0.445,-0.575
2645681,795.0,5336.0,-270.0,0.483,0.477,-0.446,-0.584
2645698,621.0,5562.0,-60.0,0.467,0.482,-0.448,-0.591
2645715,869.0,4632.0,-8.0,0.453,0.485,-0.451,-0.597
2645732,721.0,4072.0,140.0,0.439,0.488,-0.456,-0.601
2645749,695.0,4070.0,316.0,0.426,0.492,-0.462,-0.603
2645765,467.0,4024.0,546.0,0.413,0.495,-0.469,-0.604
2645791,433.0,4368.0,802.0,0.402,0.498,-0.477,-0.603
2645807,599.0,4428.0,766.0,0.392,0.5,-0.486,-0.6
2645823,711.0,4658.0,682.0,0.384,0.501,-0.497,-0.596
2645839,393.0,5242.0,1194.0,0.377,0.501,-0.508,-0.59
2645855,439.0,4906.0,844.0,0.372,0.5,-0.519,-0.584
2645871,469.0,5658.0,734.0,0.367,0.499,-0.531,-0.578
2645897,227.0,8048.0,1378.0,0.363,0.497,-0.543,-0.571
2645914,-717.0,12382.0,2592.0,0.361,0.494,-0.553,-0.566
2645931,-1419.0,16202.0,3080.0,0.361,0.489,-0.557,-0.566
2645948,-1661.0,16696.0,3100.0,0.364,0.482,-0.555,-0.572
2645964,-1073.0,12098.0,2412.0,0.369,0.473,-0.548,-0.582
2645981,-511.0,7990.0,1916.0,0.375,0.465,-0.539,-0.594
2645998,-209.0,6904.0,1828.0,0.381,0.457,-0.531,-0.604
2646014,69.0,6176.0,1736.0,0.388,0.449,-0.523,-0.611
2646040,511.0,4434.0,1500.0,0.397,0.442,-0.517,-0.617
2646056,605.0,4886.0,1808.0,0.404,0.437,-0.512,-0.619
2646072,563.0,5672.0,1904.0,0.411,0.434,-0.509,-0.62
2646088,515.0,6048.0,2084.0,0.416,0.434,-0.507,-0.618
2646104,389.0,6680.0,2078.0,0.42,0.436,-0.506,-0.615
2646121,61.0,7774.0,2172.0,0.423,0.439,-0.506,-0.611
2646138,-183.0,7988.0,2236.0,0.426,0.443,-0.505,-0.606
2646164,-475.0,8248.0,2090.0,0.429,0.447,-0.505,-0.602
2646181,-1021.0,8940.0,2270.0,0.431,0.451,-0.504,-0.598
2646198,-1543.0,9290.0,2282.0,0.434,0.454,-0.502,-0.595
2646215,-1741.0,9114.0,2254.0,0.436,0.456,-0.5,-0.594
2646232,-1961.0,8726.0,2030.0,0.438,0.457,-0.497,-0.593
2646249,-1693.0,8700.0,1656.0,0.44,0.457,-0.495,-0.593
2646266,-1471.0,8006.0,1154.0,0.442,0.456,-0.493,-0.594
2646283,-1293.0,7396.0,840.0,0.444,0.455,-0.492,-0.595
2646300,-1221.0,7094.0,872.0,0.445,0.454,-0.492,-0.595
2646317,-1049.0,7014.0,954.0,0.445,0.454,-0.492,-0.595
2646333,-695.0,7842.0,1008.0,0.446,0.455,-0.492,-0.594
2646359,-777.0,8442.0,904.0,0.446,0.457,-0.492,-0.592
2646376,-663.0,8050.0,1156.0,0.446,0.46,-0.491,-0.59
2646393,-721.0,7960.0,1400.0,0.446,0.464,-0.492,-0.587
2646410,-903.0,8142.0,1392.0,0.446,0.468,-0.492,-0.583
2646427,-719.0,8214.0,1088.0,0.446,0.472,-0.492,-0.579
2646443,-449.0,7612.0,1276.0,0.447,0.475,-0.493,-0.575
2646459,-1143.0,7086.0,1332.0,0.449,0.477,-0.494,-0.572
2646475,-1083.0,7114.0,1252.0,0.45,0.48,-0.496,-0.567
2646491,-1011.0,8288.0,248.0,0.45,0.482,-0.499,-0.562
2646517,-539.0,8658.0,698.0,0.452,0.484,-0.502,-0.557
2646534,-15.0,8666.0,1084.0,0.455,0.486,-0.504,-0.551
2646551,123.0,8630.0,1076.0,0.458,0.489,-0.506,-0.544
2646568,-91.0,8750.0,968.0,0.462,0.492,-0.508,-0.536
2646584,393.0,8180.0,1252.0,0.465,0.496,-0.509,-0.528
2646600,-141.0,8236.0,658.0,0.469,0.501,-0.509,-0.52
2646617,-681.0,8952.0,1058.0,0.473,0.505,-0.509,-0.513
2646634,-1061.0,8168.0,926.0,0.477,0.509,-0.507,-0.507
2646651,-1159.0,8100.0,600.0,0.48,0.513,-0.504,-0.502
2646678,-815.0,7774.0,288.0,0.484,0.516,-0.502,-0.498
2646694,-493.0,7024.0,718.0,0.487,0.52,-0.499,-0.494
2646710,-261.0,7230.0,852.0,0.488,0.525,-0.497,-0.489
2646726,-227.0,8366.0,728.0,0.488,0.53,-0.496,-0.485
2646742,35.0,8358.0,306.0,0.488,0.534,-0.494,-0.483
2646758,-55.0,7636.0,-44.0,0.489,0.537,-0.491,-0.48
2646775,-805.0,7602.0,-270.0,0.489,0.542,-0.489,-0.477
2646801,-1147.0,7938.0,-96.0,0.489,0.547,-0.488,-0.473
2646818,-1395.0,8620.0,186.0,0.489,0.553,-0.485,-0.469
2646835,-1483.0,8968.0,430.0,0.488,0.559,-0.483,-0.465
2646852,-1615.0,9344.0,664.0,0.486,0.565,-0.481,-0.462
2646868,-1357.0,9850.0,14.0,0.484,0.57,-0.48,-0.459
2646884,85.0,7894.0,-698.0,0.482,0.573,-0.481,-0.455
2646900,-2227.0,6372.0,-330.0,0.48,0.575,-0.484,-0.452
2646916,-1489.0,6428.0,-822.0,0.474,0.579,-0.488,-0.448
2646942,-497.0,7884.0,-1314.0,0.468,0.584,-0.492,-0.445
2646959,-765.0,7948.0,-896.0,0.463,0.587,-0.495,-0.443
2646976,-633.0,8198.0,-1058.0,0.457,0.59,-0.499,-0.441
2646992,-687.0,8766.0,-1134.0,0.451,0.592,-0.502,-0.44
2647008,-993.0,8596.0,-1012.0,0.448,0.593,-0.504,-0.44
2647024,-717.0,8162.0,-1732.0,0.444,0.593,-0.507,-0.441
2647040,-623.0,8422.0,-1776.0,0.441,0.593,-0.508,-0.442
2647066,-685.0,9004.0,-1636.0,0.439,0.592,-0.51,-0.444
2647083,-851.0,8870.0,-1530.0,0.437,0.59,-0.511,-0.447
2647099,-737.0,8624.0,-1728.0,0.436,0.588,-0.511,-0.451
2647115,-605.0,8080.0,-1858.0,0.435,0.585,-0.512,-0.454
2647131,-817.0,8038.0,-1476.0,0.433,0.583,-0.513,-0.458
2647147,-827.0,8356.0,-1232.0,0.432,0.581,-0.513,-0.461
2647173,-595.0,7984.0,-1436.0,0.43,0.579,-0.513,-0.465
2647189,-569.0,8170.0,-1084.0,0.429,0.578,-0.514,-0.468
2647206,-581.0,7672.0,-1068.0,0.427,0.577,-0.514,-0.47
2647222,-501.0,7848.0,-1084.0,0.425,0.576,-0.514,-0.472
2647238,-703.0,8236.0,-822.0,0.423,0.576,-0.515,-0.473
2647255,-1061.0,9052.0,-972.0,0.42,0.578,-0.515,-0.474
2647272,-1909.0,8786.0,-796.0,0.416,0.58,-0.516,-0.474
2647289,-2629.0,9278.0,-946.0,0.41,0.583,-0.515,-0.475
2647306,-3121.0,9380.0,-1414.0,0.404,0.588,-0.514,-0.477
2647332,-2135.0,9914.0,-1516.0,0.397,0.593,-0.513,-0.478
2647349,-2493.0,8410.0,-1600.0,0.389,0.599,-0.511,-0.479
2647366,-1951.0,6908.0,-1476.0,0.38,0.605,-0.51,-0.479
2647383,-1473.0,8296.0,-1694.0,0.371,0.61,-0.51,-0.479
2647399,-967.0,6844.0,-1682.0,0.362,0.614,-0.511,-0.48
2647415,-923.0,6102.0,-1492.0,0.355,0.617,-0.513,-0.48
2647431,-1047.0,6584.0,-1162.0,0.348,0.62,-0.515,-0.479
2647457,-843.0,6780.0,-1002.0,0.344,0.621,-0.517,-0.478
2647473,-831.0,5632.0,-652.0,0.342,0.62,-0.52,-0.478
2647490,-1189.0,5654.0,-506.0,0.341,0.617,-0.524,-0.478
2647506,-2221.0,7304.0,-118.0,0.344,0.612,-0.526,-0.48
2647523,-1983.0,8200.0,-734.0,0.351,0.603,-0.527,-0.486
2647539,-1941.0,7960.0,-822.0,0.362,0.591,-0.525,-0.494
2647555,-2315.0,9158.0,-1000.0,0.375,0.576,-0.523,-0.505
2647572,-2775.0,8966.0,-1656.0,0.388,0.559,-0.519,-0.517
2647598,-3147.0,10380.0,-2020.0,0.401,0.543,-0.515,-0.528
2647614,-1377.0,9430.0,-1920.0,0.412,0.53,-0.509,-0.539
2647630,-2201.0,8894.0,-872.0,0.418,0.522,-0.504,-0.547
2647646,-2253.0,9528.0,-572.0,0.422,0.516,-0.499,-0.553
2647662,-1391.0,7670.0,-386.0,0.425,0.513,-0.497,-0.557
2647678,-745.0,6146.0,26.0,0.424,0.512,-0.496,-0.559
2647695,-989.0,6264.0,752.0,0.419,0.514,-0.497,-0.559
2647721,-907.0,6556.0,964.0,0.414,0.518,-0.501,-0.556
2647737,-927.0,7030.0,724.0,0.408,0.523,-0.505,-0.552
2647753,-925.0,6880.0,826.0,0.403,0.528,-0.51,-0.547
2647770,-1393.0,7066.0,934.0,0.398,0.533,-0.515,-0.541
2647787,-1705.0,8248.0,666.0,0.393,0.537,-0.519,-0.536
2647803,-1609.0,8544.0,514.0,0.39,0.54,-0.523,-0.531
2647820,-2233.0,9286.0,-58.0,0.388,0.543,-0.527,-0.526
2647837,-1971.0,10310.0,-94.0,0.388,0.544,-0.529,-0.523
2647863,-1561.0,8902.0,-678.0,0.39,0.543,-0.53,-0.522
2647879,-1399.0,7350.0,-836.0,0.392,0.542,-0.53,-0.522
2647895,-1241.0,7046.0,-962.0,0.394,0.541,-0.53,-0.521
2647912,-1149.0,7154.0,-982.0,0.395,0.54,-0.53,-0.521
2647928,-1063.0,7766.0,-1030.0,0.397,0.539,-0.53,-0.52
2647944,-1181.0,8110.0,-790.0,0.398,0.538,-0.53,-0.52
2647961,-1397.0,8048.0,-728.0,0.4,0.537,-0.53,-0.52
2647987,-1171.0,7946.0,-686.0,0.403,0.535,-0.53,-0.52
2648004,-1117.0,8294.0,-306.0,0.405,0.533,-0.53,-0.52
2648021,-1413.0,9408.0,-224.0,0.407,0.531,-0.53,-0.521
2648037,-1405.0,9242.0,-788.0,0.411,0.527,-0.529,-0.524
2648054,-941.0,8268.0,-662.0,0.414,0.523,-0.527,-0.527
2648071,-795.0,8270.0,-680.0,0.417,0.52,-0.526,-0.529
2648088,-967.0,8504.0,-796.0,0.418,0.518,-0.524,-0.531
2648105,-1037.0,8422.0,-494.0,0.419,0.517,-0.524,-0.532
2648122,-1053.0,8586.0,-382.0,0.419,0.516,-0.523,-0.533
2648139,-1033.0,8260.0,-196.0,0.419,0.516,-0.522,-0.534
2648156,-1027.0,8022.0,28.0,0.417,0.516,-0.522,-0.535
2648182,-1029.0,8200.0,18.0,0.415,0.517,-0.523,-0.536
2648198,-769.0,8024.0,16.0,0.414,0.517,-0.523,-0.536
2648214,-937.0,8274.0,-50.0,0.412,0.518,-0.523,-0.536
2648230,-913.0,8532.0,184.0,0.411,0.52,-0.523,-0.537
2648246,-1055.0,7622.0,116.0,0.409,0.522,-0.522,-0.536
2648262,-1645.0,8580.0,-52.0,0.406,0.525,-0.522,-0.536
2648288,-1279.0,8602.0,-52.0,0.405,0.526,-0.521,-0.537
2648305,-1135.0,7484.0,-478.0,0.405,0.526,-0.519,-0.538
2648322,-1291.0,7216.0,-36.0,0.405,0.526,-0.518,-0.539
2648339,-1569.0,7508.0,416.0,0.406,0.525,-0.517,-0.541
2648355,-1893.0,8238.0,244.0,0.404,0.526,-0.516,-0.542
2648371,-1411.0,8648.0,-124.0,0.402,0.527,-0.517,-0.542
2648387,-1101.0,8056.0,-496.0,0.401,0.527,-0.517,-0.543
2648403,-1011.0,7204.0,-114.0,0.402,0.525,-0.517,-0.544
2648429,-863.0,6632.0,94.0,0.403,0.523,-0.516,-0.545
2648445,-1395.0,6778.0,28.0,0.405,0.521,-0.516,-0.546
2648462,-1381.0,6388.0,-90.0,0.406,0.519,-0.517,-0.546
2648479,-1099.0,7290.0,-404.0,0.408,0.518,-0.519,-0.545
2648495,-1013.0,7634.0,-18.0,0.41,0.515,-0.521,-0.544
2648512,-973.0,7594.0,442.0,0.414,0.51,-0.522,-0.544
2648528,-1885.0,8476.0,460.0,0.42,0.503,-0.522,-0.546
2648554,-1435.0,7614.0,1048.0,0.427,0.496,-0.521,-0.549
2648571,-1849.0,9248.0,762.0,0.43,0.491,-0.521,-0.549
2648588,-871.0,10216.0,350.0,0.432,0.489,-0.522,-0.549
2648604,-1339.0,10236.0,418.0,0.432,0.488,-0.523,-0.549
2648621,-923.0,9864.0,534.0,0.432,0.488,-0.523,-0.55
2648637,-1137.0,8770.0,632.0,0.43,0.49,-0.523,-0.549
2648654,-1005.0,8076.0,512.0,0.428,0.493,-0.523,-0.549
2648670,-763.0,7104.0,422.0,0.426,0.495,-0.523,-0.547
2648686,-271.0,6512.0,316.0,0.424,0.497,-0.525,-0.545
2648713,-163.0,6332.0,-106.0,0.423,0.499,-0.527,-0.543
2648729,-485.0,6684.0,-376.0,0.423,0.5,-0.529,-0.54
2648745,-499.0,7056.0,-364.0,0.423,0.5,-0.531,-0.538
2648761,-839.0,7886.0,-154.0,0.423,0.5,-0.534,-0.535
2648777,-907.0,9020.0,130.0,0.422,0.501,-0.537,-0.532
2648793,-963.0,9428.0,342.0,0.422,0.502,-0.539,-0.529
2648819,-795.0,9514.0,144.0,0.423,0.502,-0.539,-0.527
2648836,-651.0,9098.0,96.0,0.425,0.501,-0.539,-0.527
2648853,-457.0,8352.0,-360.0,0.428,0.499,-0.537,-0.528
2648870,-427.0,7996.0,-506.0,0.432,0.497,-0.536,-0.529
2648887,-765.0,7702.0,-292.0,0.435,0.495,-0.534,-0.531
2648904,-775.0,7660.0,-116.0,0.437,0.493,-0.533,-0.531
2648921,-635.0,8484.0,264.0,0.438,0.493,-0.533,-0.531
2648938,-619.0,8934.0,300.0,0.439,0.492,-0.532,-0.53
2648954,-601.0,8908.0,150.0,0.441,0.491,-0.531,-0.531
2648970,-497.0,8532.0,42.0,0.443,0.49,-0.53,-0.532
2648987,-555.0,8148.0,-62.0,0.444,0.489,-0.528,-0.533
2649013,-485.0,8084.0,-134.0,0.445,0.488,-0.527,-0.535
2649029,-397.0,8156.0,-124.0,0.446,0.487,-0.526,-0.536
2649045,-475.0,8648.0,-98.0,0.448,0.485,-0.525,-0.537
2649061,-613.0,8228.0,104.0,0.449,0.483,-0.523,-0.539
2649077,-599.0,7844.0,616.0,0.451,0.481,-0.522,-0.541
2649094,-511.0,7764.0,314.0,0.452,0.48,-0.521,-0.542
2649112,-751.0,8154.0,236.0,0.452,0.48,-0.521,-0.543
2649129,-745.0,8782.0,398.0,0.452,0.479,-0.52,-0.544
2649155,-713.0,8548.0,572.0,0.452,0.479,-0.519,-0.545
2649171,-471.0,7900.0,952.0,0.451,0.479,-0.518,-0.547
2649188,-457.0,7446.0,784.0,0.449,0.48,-0.519,-0.546
2649205,-483.0,7510.0,318.0,0.446,0.483,-0.52,-0.546
2649222,-185.0,6770.0,592.0,0.442,0.487,-0.521,-0.544
2649238,-1195.0,5540.0,828.0,0.436,0.492,-0.526,-0.539
2649255,-973.0,5806.0,188.0,0.429,0.5,-0.533,-0.531
2649272,-815.0,7840.0,-266.0,0.421,0.507,-0.541,-0.522
2649298,-831.0,9902.0,-738.0,0.414,0.513,-0.547,-0.516
2649314,-613.0,11036.0,-696.0,0.412,0.515,-0.55,-0.513
2649330,-851.0,9650.0,-692.0,0.411,0.515,-0.551,-0.512
2649346,-743.0,8890.0,-834.0,0.412,0.513,-0.551,-0.513
2649362,-881.0,8284.0,-696.0,0.412,0.511,-0.551,-0.514
2649378,-655.0,7688.0,-464.0,0.413,0.509,-0.551,-0.516
2649394,-577.0,7812.0,-426.0,0.414,0.507,-0.551,-0.518
2649420,-675.0,8424.0,-646.0,0.414,0.506,-0.551,-0.519
2649437,-745.0,8374.0,-744.0,0.415,0.503,-0.55,-0.521
2649453,-635.0,7890.0,-580.0,0.415,0.501,-0.55,-0.523
2649470,-577.0,7944.0,-350.0,0.415,0.5,-0.55,-0.524
2649486,-671.0,8324.0,-346.0,0.415,0.498,-0.55,-0.526
2649502,-669.0,8350.0,-284.0,0.415,0.496,-0.55,-0.528
2649518,-593.0,8254.0,-554.0,0.415,0.495,-0.55,-0.529
2649544,-675.0,7892.0,-372.0,0.414,0.495,-0.55,-0.53
2649560,-809.0,8728.0,462.0,0.413,0.495,-0.548,-0.532
2649576,-273.0,9266.0,1076.0,0.413,0.496,-0.546,-0.535
2649592,-669.0,9642.0,874.0,0.415,0.495,-0.541,-0.538
2649608,-553.0,8456.0,714.0,0.419,0.493,-0.536,-0.543
2649624,-935.0,6798.0,444.0,0.421,0.493,-0.531,-0.546
2649651,-1077.0,6270.0,210.0,0.421,0.494,-0.53,-0.546
2649667,-1263.0,7634.0,14.0,0.419,0.496,-0.53,-0.546
2649683,-1035.0,8298.0,-54.0,0.417,0.497,-0.53,-0.546
2649699,-877.0,8424.0,-272.0,0.415,0.498,-0.531,-0.546
2649715,-1117.0,8660.0,-344.0,0.413,0.499,-0.531,-0.546
2649731,-1039.0,8316.0,-684.0,0.411,0.5,-0.531,-0.546
2649757,-977.0,8252.0,-286.0,0.409,0.501,-0.532,-0.547
2649773,-965.0,7918.0,-94.0,0.409,0.5,-0.531,-0.549
2649789,-843.0,7222.0,-62.0,0.408,0.499,-0.531,-0.551
2649805,-599.0,7442.0,92.0,0.408,0.497,-0.531,-0.552
2649821,-591.0,7636.0,254.0,0.408,0.496,-0.531,-0.553
2649837,-781.0,8676.0,-198.0,0.409,0.494,-0.53,-0.554
2649863,-865.0,8800.0,-40.0,0.412,0.491,-0.528,-0.557
2649879,-981.0,7998.0,62.0,0.414,0.488,-0.526,-0.56
2649895,-1219.0,7922.0,340.0,0.414,0.486,-0.526,-0.562
2649912,-1367.0,8934.0,574.0,0.415,0.485,-0.525,-0.563
2649928,-1521.0,7876.0,454.0,0.417,0.482,-0.522,-0.566
2649944,-1577.0,6600.0,238.0,0.419,0.481,-0.52,-0.569
2649970,-1041.0,5456.0,826.0,0.419,0.481,-0.52,-0.569
2649986,-153.0,6130.0,1114.0,0.415,0.486,-0.523,-0.564
2650002,-617.0,8216.0,546.0,0.409,0.494,-0.53,-0.554
2650018,-2519.0,10982.0,-612.0,0.406,0.5,-0.535,-0.547
2650034,-1251.0,9228.0,-346.0,0.405,0.501,-0.535,-0.546
2650051,-965.0,7432.0,-210.0,0.404,0.504,-0.536,-0.543
2650067,-1723.0,7794.0,-780.0,0.401,0.509,-0.54,-0.537
2650093,-1677.0,8232.0,-948.0,0.397,0.514,-0.544,-0.532
2650109,-1081.0,8322.0,-956.0,0.394,0.519,-0.547,-0.526
2650126,-997.0,8772.0,-1080.0,0.391,0.522,-0.551,-0.521
2650142,-707.0,8734.0,-1024.0,0.39,0.525,-0.553,-0.517
2650159,-727.0,9084.0,-964.0,0.389,0.525,-0.554,-0.516
2650175,-373.0,8030.0,-66.0,0.389,0.526,-0.555,-0.514
2650191,-983.0,8782.0,-422.0,0.39,0.526,-0.556,-0.512
2650217,-979.0,8436.0,-610.0,0.391,0.526,-0.556,-0.512
2650233,-1049.0,7880.0,-716.0,0.393,0.525,-0.555,-0.512
2650249,-1149.0,7160.0,-768.0,0.394,0.525,-0.555,-0.511
2650265,-1093.0,7352.0,-1106.0,0.394,0.526,-0.556,-0.509
2650281,-879.0,7668.0,-1338.0,0.395,0.527,-0.557,-0.507
2650298,-769.0,8104.0,-1244.0,0.394,0.528,-0.558,-0.503
2650324,-865.0,8288.0,-1068.0,0.394,0.53,-0.56,-0.5
2650340,-865.0,8330.0,-888.0,0.393,0.531,-0.561,-0.498
2650357,-825.0,8566.0,-800.0,0.393,0.532,-0.562,-0.496
2650373,-779.0,8472.0,-996.0,0.394,0.533,-0.563,-0.494
2650389,-767.0,8168.0,-1218.0,0.394,0.534,-0.563,-0.493
2650405,-699.0,7988.0,-1508.0,0.394,0.534,-0.564,-0.492
2650431,-795.0,7952.0,-1684.0,0.395,0.535,-0.564,-0.49
2650447,-849.0,8138.0,-1704.0,0.394,0.535,-0.565,-0.489
2650463,-915.0,8124.0,-1620.0,0.394,0.536,-0.565,-0.488
2650479,-1031.0,7996.0,-1582.0,0.394,0.536,-0.565,-0.488
2650495,-971.0,7824.0,-1602.0,0.394,0.536,-0.566,-0.487
2650511,-1049.0,7820.0,-1682.0,0.393,0.536,-0.566,-0.487
2650527,-997.0,7824.0,-1752.0,0.392,0.537,-0.567,-0.487
2650553,-989.0,7988.0,-1666.0,0.391,0.537,-0.568,-0.486
2650569,-1097.0,8118.0,-1496.0,0.39,0.537,-0.569,-0.486
2650585,-973.0,8250.0,-1316.0,0.389,0.536,-0.57,-0.486
2650601,-961.0,8074.0,-1200.0,0.389,0.535,-0.571,-0.487
2650617,-829.0,7870.0,-1370.0,0.388,0.535,-0.571,-0.487
2650634,-889.0,8156.0,-1618.0,0.388,0.534,-0.572,-0.487
2650651,-779.0,8294.0,-1636.0,0.388,0.533,-0.572,-0.487
2650677,-657.0,8248.0,-1552.0,0.388,0.532,-0.573,-0.488
2650693,-645.0,8144.0,-1514.0,0.387,0.531,-0.573,-0.489
2650709,-609.0,8016.0,-1482.0,0.388,0.529,-0.573,-0.491
2650725,-509.0,8058.0,-1278.0,0.388,0.528,-0.574,-0.492
2650741,-653.0,8198.0,-1272.0,0.388,0.526,-0.574,-0.493
2650757,-569.0,8090.0,-1242.0,0.388,0.525,-0.574,-0.495
2650783,-623.0,7908.0,-1318.0,0.388,0.524,-0.573,-0.496
2650799,-713.0,8004.0,-1272.0,0.389,0.522,-0.574,-0.497
2650815,-779.0,8126.0,-1290.0,0.389,0.521,-0.574,-0.499
2650831,-691.0,8154.0,-1246.0,0.389,0.52,-0.574,-0.5
2650848,-645.0,7904.0,-1138.0,0.388,0.519,-0.574,-0.501
2650864,-827.0,8102.0,-1178.0,0.388,0.518,-0.574,-0.502
2650890,-813.0,8094.0,-1190.0,0.388,0.517,-0.574,-0.503
2650906,-745.0,8144.0,-1150.0,0.387,0.516,-0.574,-0.504
2650922,-737.0,7946.0,-1114.0,0.387,0.515,-0.574,-0.505
2650938,-757.0,8002.0,-1094.0,0.386,0.515,-0.575,-0.505
2650954,-855.0,7998.0,-1014.0,0.386,0.515,-0.575,-0.506
2650971,-709.0,8200.0,-834.0,0.386,0.514,-0.575,-0.507
2650997,-673.0,8348.0,-790.0,0.386,0.513,-0.575,-0.508
2651013,-767.0,8062.0,-872.0,0.386,0.512,-0.574,-0.509
2651029,-673.0,7908.0,-1024.0,0.386,0.512,-0.574,-0.51
2651045,-815.0,7854.0,-1078.0,0.386,0.511,-0.574,-0.51
2651061,-843.0,7892.0,-1106.0,0.386,0.511,-0.574,-0.51
2651077,-807.0,8042.0,-1000.0,0.386,0.511,-0.574,-0.51
2651103,-755.0,8046.0,-994.0,0.386,0.511,-0.574,-0.51
2651119,-735.0,8014.0,-1078.0,0.386,0.511,-0.574,-0.509
2651135,-675.0,7868.0,-1166.0,0.386,0.512,-0.575,-0.508
2651151,-735.0,7990.0,-1184.0,0.386,0.512,-0.575,-0.507
2651167,-713.0,8080.0,-1126.0,0.386,0.513,-0.576,-0.506
2651184,-733.0,8126.0,-1148.0,0.386,0.514,-0.577,-0.505
2651200,-643.0,7834.0,-1134.0,0.386,0.514,-0.577,-0.503
2651227,-703.0,7738.0,-1168.0,0.386,0.515,-0.578,-0.502
2651243,-583.0,7890.0,-1168.0,0.386,0.517,-0.579,-0.5
2651260,-569.0,8700.0,-1326.0,0.386,0.518,-0.579,-0.498
2651276,-751.0,8650.0,-1462.0,0.386,0.518,-0.579,-0.498
2651292,-623.0,7884.0,-1422.0,0.386,0.518,-0.579,-0.497
2651308,-681.0,7750.0,-1364.0,0.387,0.518,-0.579,-0.497
2651324,-781.0,7882.0,-1330.0,0.387,0.519,-0.579,-0.496
2651350,-819.0,8048.0,-1422.0,0.387,0.519,-0.579,-0.496
2651367,-727.0,8052.0,-1536.0,0.387,0.52,-0.579,-0.495
2651384,-813.0,8102.0,-1552.0,0.386,0.52,-0.579,-0.495
2651401,-769.0,8054.0,-1536.0,0.386,0.52,-0.58,-0.494
2651418,-799.0,8072.0,-1526.0,0.386,0.521,-0.58,-0.494
2651434,-827.0,7984.0,-1516.0,0.386,0.521,-0.58,-0.493
2651450,-847.0,7976.0,-1430.0,0.385,0.521,-0.581,-0.493
2651466,-749.0,8112.0,-1478.0,0.385,0.521,-0.581,-0.492
2651483,-681.0,8032.0,-1568.0,0.384,0.521,-0.582,-0.492
2651509,-689.0,8102.0,-1536.0,0.384,0.521,-0.582,-0.492
2651525,-609.0,8032.0,-1516.0,0.384,0.521,-0.583,-0.492
2651542,-765.0,8074.0,-1518.0,0.383,0.521,-0.583,-0.492
2651558,-631.0,8080.0,-1548.0,0.383,0.52,-0.583,-0.492
2651574,-707.0,8224.0,-1602.0,0.383,0.52,-0.584,-0.492
2651590,-571.0,8010.0,-1516.0,0.383,0.519,-0.584,-0.493
2651616,-495.0,7978.0,-1534.0,0.383,0.519,-0.584,-0.493
2651632,-535.0,8080.0,-1586.0,0.383,0.518,-0.584,-0.493
2651648,-595.0,8048.0,-1514.0,0.383,0.518,-0.584,-0.494
2651664,-593.0,7948.0,-1406.0,0.382,0.517,-0.585,-0.494
2651680,-715.0,8068.0,-1434.0,0.382,0.517,-0.585,-0.495
2651696,-667.0,7998.0,-1460.0,0.382,0.516,-0.585,-0.495
2651722,-723.0,8054.0,-1492.0,0.382,0.516,-0.585,-0.496
2651738,-635.0,8042.0,-1402.0,0.382,0.515,-0.585,-0.496
2651754,-637.0,8014.0,-1388.0,0.381,0.515,-0.585,-0.497
2651770,-723.0,8056.0,-1404.0,0.381,0.514,-0.586,-0.497
2651786,-749.0,8006.0,-1436.0,0.381,0.514,-0.586,-0.498
2651802,-665.0,8088.0,-1436.0,0.381,0.513,-0.586,-0.498
2651828,-609.0,8002.0,-1418.0,0.381,0.513,-0.586,-0.499
2651844,-595.0,7936.0,-1506.0,0.38,0.513,-0.586,-0.499
2651860,-565.0,8054.0,-1738.0,0.38,0.512,-0.586,-0.499
2651876,-611.0,8120.0,-1574.0,0.38,0.512,-0.587,-0.5
2651892,-699.0,8204.0,-1374.0,0.38,0.511,-0.587,-0.5
2651908,-561.0,8236.0,-1270.0,0.38,0.511,-0.587,-0.5
2651935,-511.0,8458.0,-1612.0,0.38,0.51,-0.587,-0.501
2651951,-703.0,8132.0,-1870.0,0.38,0.51,-0.587,-0.501
2651968,-593.0,8258.0,-1486.0,0.38,0.509,-0.587,-0.502
2651985,-705.0,8430.0,-830.0,0.381,0.508,-0.586,-0.504
2652001,-1183.0,6704.0,-1956.0,0.381,0.507,-0.585,-0.505
2652018,-603.0,6940.0,-1476.0,0.38,0.507,-0.587,-0.505
2652034,-771.0,7322.0,-938.0,0.378,0.507,-0.589,-0.504
2652051,-503.0,8608.0,-1104.0,0.376,0.507,-0.591,-0.502
2652068,-509.0,8870.0,-952.0,0.375,0.507,-0.592,-0.502
2652085,-557.0,8412.0,-892.0,0.375,0.507,-0.592,-0.502
2652111,-641.0,7986.0,-1212.0,0.375,0.507,-0.592,-0.502
2652127,-689.0,7888.0,-1410.0,0.375,0.506,-0.592,-0.502
2652143,-735.0,7928.0,-1518.0,0.375,0.506,-0.592,-0.503
2652159,-737.0,7842.0,-1596.0,0.375,0.506,-0.593,-0.502
2652175,-695.0,7854.0,-1706.0,0.374,0.506,-0.593,-0.502
2652191,-627.0,8076.0,-1452.0,0.374,0.506,-0.594,-0.501
2652217,-719.0,8128.0,-1338.0,0.373,0.506,-0.595,-0.501
2652233,-533.0,8044.0,-1304.0,0.373,0.505,-0.596,-0.501
2652250,-543.0,8026.0,-1382.0,0.372,0.505,-0.597,-0.5
2652267,-481.0,8596.0,-1312.0,0.373,0.505,-0.597,-0.501
2652284,-709.0,8518.0,-1534.0,0.374,0.504,-0.596,-0.501
2652301,-635.0,8226.0,-1650.0,0.375,0.503,-0.595,-0.503
2652318,-743.0,7656.0,-1724.0,0.375,0.502,-0.594,-0.504
2652334,-811.0,7226.0,-1858.0,0.375,0.502,-0.594,-0.504
2652351,-653.0,7640.0,-1876.0,0.375,0.502,-0.594,-0.504
2652368,-617.0,7892.0,-1750.0,0.374,0.502,-0.594,-0.504
2652395,-529.0,8114.0,-1622.0,0.373,0.503,-0.595,-0.504
2652411,-547.0,8316.0,-1422.0,0.373,0.503,-0.596,-0.504
2652427,-601.0,8188.0,-1308.0,0.372,0.502,-0.596,-0.503
2652443,-677.0,8062.0,-1232.0,0.372,0.502,-0.597,-0.503
2652459,-741.0,7610.0,-1106.0,0.371,0.503,-0.598,-0.502
2652476,-731.0,8094.0,-1484.0,0.369,0.503,-0.6,-0.5
2652493,-791.0,8510.0,-1788.0,0.368,0.503,-0.602,-0.499
2652510,-671.0,8356.0,-1892.0,0.367,0.502,-0.604,-0.498
2652536,-603.0,8060.0,-1930.0,0.367,0.502,-0.605,-0.498
2652553,-635.0,7854.0,-1732.0,0.366,0.501,-0.606,-0.498
2652569,-537.0,7976.0,-1614.0,0.366,0.5,-0.606,-0.498
2652586,-451.0,7984.0,-1510.0,0.366,0.5,-0.607,-0.498
2652603,-547.0,7696.0,-1294.0,0.366,0.5,-0.607,-0.498
2652619,-397.0,7862.0,-1514.0,0.366,0.499,-0.607,-0.498
2652636,-409.0,8046.0,-1788.0,0.365,0.499,-0.608,-0.498
2652652,-447.0,8116.0,-1936.0,0.365,0.499,-0.609,-0.498
2652678,-401.0,8388.0,-1908.0,0.365,0.498,-0.609,-0.498
2652694,-1881.0,8716.0,-3440.0,0.364,0.495,-0.61,-0.5
2652710,739.0,7272.0,-926.0,0.366,0.493,-0.607,-0.504
2652726,-629.0,8270.0,-988.0,0.366,0.492,-0.607,-0.505
2652742,-713.0,8184.0,-1480.0,0.366,0.49,-0.607,-0.507
2652758,-381.0,7776.0,-1426.0,0.366,0.489,-0.606,-0.509
2652784,-509.0,8030.0,-1452.0,0.366,0.488,-0.606,-0.511
2652801,-433.0,8030.0,-1510.0,0.366,0.486,-0.606,-0.512
2652818,-487.0,8042.0,-1448.0,0.365,0.485,-0.606,-0.514
2652835,-469.0,7982.0,-1288.0,0.365,0.483,-0.606,-0.516
2652852,-521.0,7896.0,-1174.0,0.365,0.482,-0.606,-0.517
2652869,-607.0,8048.0,-1284.0,0.365,0.481,-0.606,-0.518
2652886,-577.0,7940.0,-1344.0,0.364,0.48,-0.606,-0.519
2652902,-583.0,8068.0,-1398.0,0.364,0.479,-0.606,-0.52
2652919,-505.0,8228.0,-1252.0,0.364,0.478,-0.606,-0.522
2652936,-391.0,7674.0,-918.0,0.365,0.477,-0.606,-0.522
2652953,-519.0,7390.0,-578.0,0.364,0.477,-0.606,-0.522
2652970,-795.0,8902.0,-1114.0,0.363,0.477,-0.607,-0.521
2652997,-753.0,10598.0,-2484.0,0.366,0.473,-0.604,-0.527
2653013,-165.0,7362.0,-1744.0,0.369,0.469,-0.599,-0.533
2653030,-175.0,6636.0,-990.0,0.371,0.468,-0.597,-0.536
2653047,-277.0,7092.0,-420.0,0.371,0.469,-0.598,-0.534
2653064,-743.0,8960.0,-752.0,0.371,0.47,-0.598,-0.533
2653081,-719.0,7936.0,-434.0,0.372,0.47,-0.597,-0.533
2653097,-485.0,7574.0,-404.0,0.372,0.471,-0.598,-0.531
2653114,-567.0,7940.0,-676.0,0.372,0.473,-0.598,-0.529
2653131,-497.0,8268.0,-988.0,0.372,0.474,-0.599,-0.528
2653148,-553.0,8158.0,-1144.0,0.372,0.475,-0.599,-0.526
2653165,-757.0,11488.0,-2276.0,0.375,0.472,-0.595,-0.531
2653192,-259.0,5924.0,-698.0,0.378,0.47,-0.591,-0.535
2653208,-443.0,6896.0,-246.0,0.38,0.47,-0.59,-0.536
2653225,-435.0,6966.0,-42.0,0.379,0.471,-0.591,-0.534
2653241,-561.0,8802.0,-604.0,0.379,0.472,-0.591,-0.532
2653257,-469.0,7986.0,-602.0,0.379,0.474,-0.592,-0.531
2653273,-471.0,8106.0,-1064.0,0.378,0.475,-0.593,-0.529
2653289,-575.0,8470.0,-1402.0,0.378,0.476,-0.594,-0.527
2653315,-577.0,8172.0,-1424.0,0.378,0.477,-0.594,-0.527
2653332,-615.0,8158.0,-1342.0,0.377,0.477,-0.594,-0.526
2653349,-567.0,8124.0,-1332.0,0.377,0.477,-0.595,-0.526
2653366,-603.0,8000.0,-1236.0,0.377,0.477,-0.595,-0.526
2653383,-611.0,8080.0,-1258.0,0.377,0.477,-0.595,-0.526
2653400,-597.0,8236.0,-1356.0,0.377,0.477,-0.595,-0.526
2653417,-543.0,8194.0,-1418.0,0.376,0.476,-0.595,-0.526
2653434,-597.0,8230.0,-1334.0,0.376,0.476,-0.595,-0.527
2653451,-521.0,8086.0,-1172.0,0.376,0.475,-0.595,-0.527
2653468,-521.0,7838.0,-848.0,0.376,0.475,-0.595,-0.528
2653485,-525.0,8040.0,-788.0,0.376,0.475,-0.596,-0.527
2653502,-557.0,8206.0,-1028.0,0.375,0.474,-0.597,-0.527
2653519,-485.0,7980.0,-1162.0,0.375,0.474,-0.597,-0.527
2653545,-421.0,7832.0,-1162.0,0.374,0.474,-0.598,-0.527
2653561,-541.0,8092.0,-1154.0,0.373,0.475,-0.599,-0.526
2653577,-523.0,8440.0,-1260.0,0.373,0.475,-0.6,-0.525
2653594,-569.0,8336.0,-1154.0,0.373,0.475,-0.6,-0.526
2653611,-501.0,8186.0,-1248.0,0.373,0.474,-0.6,-0.526
2653628,-497.0,8184.0,-1248.0,0.373,0.474,-0.6,-0.526
2653645,-479.0,8086.0,-1118.0,0.373,0.473,-0.6,-0.527
2653662,-397.0,7958.0,-992.0,0.373,0.473,-0.6,-0.527
2653678,-457.0,8000.0,-1060.0,0.372,0.473,-0.6,-0.527
2653705,-465.0,8128.0,-1150.0,0.372,0.473,-0.6,-0.528
2653721,-451.0,8268.0,-1258.0,0.372,0.473,-0.6,-0.528
2653737,-289.0,8564.0,-1468.0,0.372,0.472,-0.599,-0.529
2653754,-797.0,8790.0,-1738.0,0.372,0.472,-0.598,-0.531
2653770,-3.0,12064.0,-2178.0,0.377,0.465,-0.588,-0.544
2653786,-135.0,4474.0,-278.0,0.382,0.46,-0.58,-0.553
2653803,-563.0,6852.0,284.0,0.383,0.459,-0.578,-0.556
2653829,-869.0,10400.0,-434.0,0.384,0.457,-0.575,-0.56
2653845,-877.0,8220.0,-2.0,0.39,0.451,-0.568,-0.568
2653861,-323.0,3842.0,1342.0,0.39,0.451,-0.566,-0.569
2653877,-419.0,8952.0,192.0,0.388,0.454,-0.569,-0.566
2653893,-1117.0,9368.0,-402.0,0.388,0.454,-0.569,-0.565
2653909,-647.0,8308.0,-102.0,0.389,0.454,-0.568,-0.566
2653935,-577.0,6980.0,-110.0,0.389,0.454,-0.568,-0.565
2653952,-513.0,7316.0,-90.0,0.389,0.455,-0.569,-0.563
2653969,-987.0,8184.0,-112.0,0.389,0.457,-0.57,-0.561
2653986,-1107.0,8640.0,20.0,0.389,0.458,-0.571,-0.559
2654003,-747.0,8568.0,-332.0,0.39,0.459,-0.571,-0.558
2654019,-319.0,8520.0,-814.0,0.391,0.459,-0.57,-0.557
2654036,-251.0,7986.0,-902.0,0.393,0.46,-0.569,-0.557
2654052,-701.0,7852.0,-466.0,0.394,0.461,-0.568,-0.556
2654068,-991.0,8500.0,-234.0,0.395,0.463,-0.567,-0.555
2654085,-619.0,9098.0,-340.0,0.398,0.463,-0.565,-0.556
2654112,-231.0,7440.0,-30.0,0.4,0.464,-0.562,-0.556
2654128,-413.0,7608.0,-76.0,0.401,0.465,-0.561,-0.555
2654145,-695.0,7990.0,-100.0,0.402,0.467,-0.56,-0.554
2654161,-731.0,8452.0,154.0,0.401,0.469,-0.56,-0.553
2654177,-15.0,6744.0,-264.0,0.4,0.472,-0.561,-0.551
2654193,-315.0,10912.0,-1530.0,0.4,0.474,-0.56,-0.55
2654209,-495.0,7118.0,388.0,0.399,0.478,-0.559,-0.548
2654235,-539.0,8700.0,-140.0,0.398,0.481,-0.558,-0.547
2654251,-245.0,7800.0,-730.0,0.396,0.484,-0.558,-0.545
2654268,283.0,8112.0,-746.0,0.393,0.489,-0.56,-0.542
2654285,-195.0,8506.0,-664.0,0.389,0.494,-0.561,-0.539
2654302,-637.0,8650.0,-366.0,0.385,0.499,-0.562,-0.536
2654319,-317.0,8714.0,-544.0,0.381,0.504,-0.563,-0.533
2654336,-383.0,9210.0,-822.0,0.376,0.509,-0.563,-0.531
2654353,-251.0,9048.0,-996.0,0.373,0.513,-0.562,-0.53
2654369,-645.0,10292.0,308.0,0.371,0.517,-0.559,-0.531
2654386,-1499.0,10020.0,-240.0,0.369,0.52,-0.554,-0.535
2654412,-487.0,10454.0,-1446.0,0.37,0.521,-0.547,-0.541
2654428,-1009.0,8684.0,-1280.0,0.372,0.523,-0.54,-0.545
2654444,-1265.0,9352.0,-844.0,0.375,0.525,-0.531,-0.55
2654460,-1665.0,9080.0,-36.0,0.38,0.527,-0.521,-0.555
2654476,-1629.0,8908.0,238.0,0.384,0.528,-0.51,-0.561
2654492,-1327.0,9156.0,570.0,0.389,0.527,-0.498,-0.567
2654519,-1153.0,8126.0,566.0,0.395,0.526,-0.486,-0.575
2654535,-753.0,7538.0,328.0,0.4,0.525,-0.473,-0.583
2654551,-255.0,7852.0,1188.0,0.406,0.524,-0.46,-0.591
2654567,-767.0,7894.0,970.0,0.411,0.524,-0.446,-0.598
2654584,-705.0,7080.0,1130.0,0.417,0.524,-0.431,-0.605
2654600,-473.0,7124.0,852.0,0.422,0.524,-0.417,-0.611
2654617,-1143.0,6850.0,1012.0,0.428,0.525,-0.403,-0.615
2654634,-1183.0,6348.0,1384.0,0.434,0.525,-0.39,-0.619
2654661,-1359.0,6222.0,1630.0,0.44,0.526,-0.378,-0.622
2654677,-1699.0,6224.0,1644.0,0.447,0.525,-0.367,-0.625
2654693,-1809.0,5494.0,1844.0,0.453,0.525,-0.356,-0.627
2654709,-1773.0,6054.0,1790.0,0.458,0.524,-0.348,-0.628
2654725,-1805.0,6242.0,1696.0,0.465,0.524,-0.34,-0.628
2654741,-1865.0,5896.0,1764.0,0.472,0.523,-0.333,-0.627
2654767,-1941.0,6088.0,1750.0,0.479,0.523,-0.327,-0.625
2654784,-1891.0,6572.0,1506.0,0.487,0.522,-0.322,-0.622
2654800,-2213.0,6344.0,1686.0,0.495,0.522,-0.317,-0.618
2654817,-2237.0,6436.0,1724.0,0.504,0.521,-0.312,-0.614
2654833,-2529.0,6658.0,1898.0,0.513,0.521,-0.308,-0.608
2654850,-2499.0,6884.0,1910.0,0.523,0.521,-0.304,-0.602
2654867,-2613.0,6484.0,1854.0,0.532,0.521,-0.301,-0.595
2654883,-2581.0,6362.0,1976.0,0.541,0.522,-0.298,-0.588
2654900,-2785.0,7412.0,1824.0,0.55,0.523,-0.295,-0.58
2654917,-3105.0,6722.0,1792.0,0.56,0.523,-0.292,-0.572
2654943,-2799.0,6826.0,1948.0,0.569,0.523,-0.29,-0.564
2654959,-2649.0,7056.0,1838.0,0.579,0.522,-0.289,-0.556
2654975,-2493.0,6744.0,1820.0,0.588,0.522,-0.289,-0.547
2654991,-2311.0,7364.0,1604.0,0.596,0.521,-0.29,-0.537
2655007,-1935.0,7622.0,1384.0,0.604,0.52,-0.291,-0.528
2655033,-1675.0,7482.0,1164.0,0.612,0.519,-0.293,-0.52
2655050,-1593.0,7700.0,1128.0,0.619,0.518,-0.296,-0.511
2655067,-1461.0,7844.0,1078.0,0.626,0.516,-0.299,-0.503
2655084,-1179.0,7590.0,862.0,0.632,0.513,-0.303,-0.495
2655101,-1013.0,7600.0,808.0,0.637,0.511,-0.308,-0.489
2655122,-981.0,7808.0,706.0,0.641,0.508,-0.314,-0.482
2655139,-833.0,7524.0,670.0,0.645,0.505,-0.321,-0.476
2655156,-765.0,7510.0,600.0,0.649,0.501,-0.328,-0.469
2655172,-675.0,7644.0,512.0,0.652,0.498,-0.335,-0.463
2655188,-525.0,7666.0,694.0,0.655,0.494,-0.344,-0.457
2655204,-385.0,7394.0,596.0,0.657,0.49,-0.353,-0.451
2655220,-513.0,7408.0,538.0,0.659,0.486,-0.363,-0.445
2655246,-135.0,7710.0,680.0,0.661,0.482,-0.373,-0.439
2655262,41.0,8272.0,750.0,0.662,0.477,-0.383,-0.433
2655278,323.0,7586.0,828.0,0.663,0.473,-0.393,-0.427
2655295,451.0,7770.0,892.0,0.664,0.468,-0.403,-0.421
2655311,721.0,7936.0,816.0,0.664,0.464,-0.414,-0.415
2655327,937.0,8906.0,1022.0,0.664,0.459,-0.424,-0.409
2655343,963.0,8782.0,1222.0,0.665,0.454,-0.434,-0.405
2655369,1541.0,8890.0,1094.0,0.664,0.448,-0.445,-0.4
2655385,1669.0,8580.0,1056.0,0.664,0.442,-0.455,-0.396
2655401,1767.0,8678.0,1364.0,0.662,0.438,-0.465,-0.393
2655417,1511.0,8790.0,1766.0,0.66,0.433,-0.475,-0.389
2655433,1697.0,8812.0,1796.0,0.658,0.428,-0.485,-0.386
2655450,1667.0,8872.0,1868.0,0.656,0.423,-0.495,-0.383
2655466,1879.0,8542.0,1862.0,0.654,0.417,-0.504,-0.381
2655493,2299.0,8068.0,2000.0,0.652,0.411,-0.513,-0.379
2655509,2481.0,8216.0,1950.0,0.65,0.404,-0.522,-0.376
2655525,2717.0,7646.0,1852.0,0.649,0.398,-0.53,-0.373
2655541,3133.0,8076.0,1690.0,0.648,0.392,-0.538,-0.37
2655557,3241.0,7232.0,2004.0,0.648,0.385,-0.546,-0.367
2655573,3721.0,7330.0,1718.0,0.647,0.38,-0.553,-0.363
2655599,3723.0,7610.0,1618.0,0.646,0.374,-0.56,-0.359
2655616,4113.0,7602.0,1582.0,0.646,0.369,-0.567,-0.355
2655633,4167.0,7220.0,1484.0,0.645,0.363,-0.573,-0.352
2655650,4555.0,7536.0,1398.0,0.645,0.358,-0.579,-0.348
2655666,4855.0,7286.0,1256.0,0.645,0.352,-0.584,-0.345
2655683,4873.0,7214.0,1244.0,0.645,0.347,-0.589,-0.342
2655700,4903.0,7580.0,1110.0,0.644,0.342,-0.594,-0.339
2655716,5149.0,7196.0,1242.0,0.644,0.336,-0.599,-0.336
2655733,4945.0,7412.0,1054.0,0.644,0.331,-0.603,-0.334
2655749,5155.0,7192.0,980.0,0.645,0.326,-0.607,-0.331
2655776,5219.0,6816.0,1000.0,0.645,0.32,-0.611,-0.329
2655792,5075.0,6996.0,846.0,0.645,0.315,-0.615,-0.328
2655808,5015.0,7006.0,816.0,0.645,0.31,-0.618,-0.326
2655824,5061.0,6686.0,700.0,0.645,0.305,-0.621,-0.324
2655840,5215.0,6908.0,724.0,0.644,0.301,-0.624,-0.323
2655856,5243.0,6892.0,642.0,0.644,0.296,-0.627,-0.322
2655882,5211.0,6656.0,640.0,0.644,0.292,-0.63,-0.322
2655898,5247.0,6872.0,572.0,0.644,0.287,-0.632,-0.321
2655915,5043.0,6716.0,644.0,0.644,0.283,-0.634,-0.32
2655931,5253.0,6588.0,622.0,0.644,0.28,-0.637,-0.319
2655948,5029.0,6782.0,540.0,0.643,0.276,-0.639,-0.319
2655964,5181.0,6408.0,576.0,0.643,0.273,-0.641,-0.318
2655980,5169.0,6584.0,510.0,0.642,0.269,-0.643,-0.318
2656006,5375.0,6444.0,472.0,0.641,0.266,-0.646,-0.318
2656022,5335.0,6502.0,534.0,0.641,0.263,-0.648,-0.318
2656038,5499.0,6432.0,248.0,0.64,0.26,-0.65,-0.317
2656054,5511.0,7676.0,1292.0,0.639,0.257,-0.652,-0.317
2656070,5439.0,6250.0,454.0,0.638,0.254,-0.654,-0.317
2656086,5227.0,6568.0,658.0,0.637,0.25,-0.656,-0.317
2656112,5431.0,6236.0,580.0,0.637,0.247,-0.658,-0.317
2656128,5629.0,5698.0,470.0,0.637,0.243,-0.659,-0.316
2656144,5683.0,5784.0,120.0,0.637,0.241,-0.661,-0.316
2656160,5543.0,6328.0,424.0,0.637,0.24,-0.662,-0.314
2656176,5511.0,6378.0,468.0,0.637,0.238,-0.663,-0.314
2656193,5733.0,6182.0,402.0,0.636,0.236,-0.664,-0.313
2656209,5775.0,6044.0,432.0,0.636,0.235,-0.665,-0.313
2656236,5749.0,6080.0,390.0,0.636,0.234,-0.666,-0.312
2656252,5797.0,6088.0,376.0,0.635,0.232,-0.667,-0.312
2656268,5849.0,6046.0,400.0,0.635,0.231,-0.669,-0.311
2656284,5957.0,5980.0,272.0,0.634,0.229,-0.67,-0.311
2656301,5899.0,5750.0,304.0,0.633,0.228,-0.671,-0.311
2656317,5911.0,5810.0,514.0,0.632,0.227,-0.672,-0.31
2656333,5869.0,5664.0,252.0,0.632,0.226,-0.674,-0.31
2656359,5781.0,5820.0,256.0,0.631,0.225,-0.675,-0.31
2656375,5887.0,5780.0,154.0,0.63,0.224,-0.676,-0.31
2656391,5835.0,5650.0,206.0,0.629,0.223,-0.678,-0.31
2656407,5935.0,5840.0,222.0,0.627,0.222,-0.679,-0.31
2656423,6089.0,5620.0,80.0,0.626,0.22,-0.681,-0.31
2656449,6149.0,5608.0,-64.0,0.625,0.219,-0.682,-0.31
2656466,6151.0,5536.0,36.0,0.625,0.218,-0.683,-0.309
2656483,6133.0,5568.0,36.0,0.624,0.217,-0.684,-0.309
2656500,6005.0,5516.0,0.0,0.623,0.217,-0.685,-0.309
2656516,5969.0,5626.0,-92.0,0.623,0.216,-0.686,-0.308
2656533,5997.0,5596.0,-36.0,0.623,0.215,-0.687,-0.308
2656550,5997.0,5556.0,8.0,0.622,0.214,-0.687,-0.307
2656566,6017.0,5560.0,-64.0,0.622,0.214,-0.688,-0.307
2656582,6147.0,5574.0,-110.0,0.622,0.213,-0.689,-0.306
2656599,6121.0,5570.0,-136.0,0.621,0.212,-0.689,-0.306
2656626,6157.0,5536.0,-148.0,0.621,0.212,-0.69,-0.306
2656642,6181.0,5522.0,-116.0,0.621,0.212,-0.69,-0.305
2656658,6057.0,5584.0,-44.0,0.621,0.211,-0.691,-0.304
2656674,5785.0,6842.0,558.0,0.621,0.212,-0.691,-0.304
2656690,5969.0,6332.0,-48.0,0.621,0.211,-0.69,-0.306
2656707,6071.0,4716.0,-254.0,0.621,0.209,-0.69,-0.307
2656723,5881.0,5482.0,-172.0,0.621,0.209,-0.691,-0.307
2656749,5813.0,5748.0,154.0,0.621,0.208,-0.691,-0.307
2656766,5685.0,5606.0,148.0,0.621,0.207,-0.691,-0.308
2656783,5931.0,5290.0,-76.0,0.621,0.206,-0.691,-0.308
2656799,5957.0,5360.0,-80.0,0.62,0.205,-0.691,-0.308
2656816,5993.0,5648.0,-4.0,0.621,0.204,-0.692,-0.308
2656833,6007.0,5670.0,2.0,0.621,0.203,-0.692,-0.308
2656849,6131.0,5532.0,-28.0,0.621,0.202,-0.692,-0.308
2656866,6137.0,5420.0,-72.0,0.621,0.202,-0.692,-0.307
2656883,6161.0,5414.0,-62.0,0.621,0.202,-0.693,-0.307
2656900,6091.0,5656.0,14.0,0.621,0.202,-0.693,-0.306
2656926,6069.0,5654.0,0.0,0.621,0.202,-0.693,-0.306
2656943,6089.0,5732.0,-8.0,0.621,0.201,-0.694,-0.305
2656959,6133.0,5696.0,122.0,0.621,0.201,-0.694,-0.304
2656975,6329.0,5396.0,-8.0,0.621,0.2,-0.694,-0.304
2656991,6599.0,5404.0,-44.0,0.621,0.2,-0.694,-0.303
2657007,6597.0,5540.0,260.0,0.621,0.201,-0.694,-0.302
2657033,6553.0,5730.0,556.0,0.622,0.203,-0.694,-0.301
2657049,6389.0,6180.0,1304.0,0.622,0.204,-0.694,-0.3
2657066,6865.0,6310.0,1464.0,0.622,0.205,-0.694,-0.298
2657083,7199.0,5622.0,2060.0,0.623,0.207,-0.694,-0.297
2657099,7399.0,6148.0,2568.0,0.624,0.21,-0.693,-0.294
2657118,7489.0,6990.0,3760.0,0.626,0.215,-0.691,-0.292
2657134,8203.0,7538.0,3460.0,0.628,0.221,-0.688,-0.289
2657151,8167.0,7284.0,3408.0,0.633,0.228,-0.682,-0.286
2657168,8259.0,7250.0,3074.0,0.64,0.239,-0.674,-0.281
2657184,7113.0,8262.0,5012.0,0.647,0.252,-0.665,-0.276
2657210,6553.0,10760.0,4552.0,0.653,0.265,-0.655,-0.273
2657226,7943.0,11402.0,5054.0,0.659,0.276,-0.644,-0.273
2657242,8467.0,9762.0,4550.0,0.667,0.287,-0.631,-0.274
2657258,7937.0,10374.0,4214.0,0.673,0.3,-0.617,-0.277
2657274,9049.0,10812.0,3528.0,0.68,0.314,-0.601,-0.281
2657290,8603.0,11786.0,3572.0,0.686,0.328,-0.583,-0.286
2657316,8335.0,13216.0,4380.0,0.693,0.341,-0.563,-0.294
2657332,8591.0,12764.0,3056.0,0.701,0.351,-0.541,-0.304
2657349,8935.0,11626.0,2130.0,0.709,0.361,-0.516,-0.315
2657366,8925.0,12042.0,2048.0,0.718,0.372,-0.488,-0.329
2657383,8075.0,11640.0,1808.0,0.726,0.381,-0.458,-0.344
2657399,7793.0,10716.0,1258.0,0.735,0.388,-0.425,-0.359
2657415,6207.0,10074.0,1890.0,0.742,0.395,-0.391,-0.376
2657432,5323.0,10264.0,2104.0,0.748,0.4,-0.356,-0.393
2657449,4915.0,9622.0,1844.0,0.753,0.402,-0.322,-0.41
2657466,4339.0,8930.0,1784.0,0.757,0.402,-0.289,-0.427
2657492,3203.0,8592.0,2122.0,0.76,0.401,-0.257,-0.443
2657508,3341.0,8100.0,1566.0,0.762,0.397,-0.226,-0.458
2657525,3293.0,7138.0,1118.0,0.764,0.393,-0.197,-0.472
2657541,2225.0,6344.0,1806.0,0.766,0.387,-0.167,-0.486
2657557,1295.0,6494.0,1610.0,0.766,0.381,-0.139,-0.498
2657573,933.0,5744.0,1714.0,0.767,0.373,-0.113,-0.509
2657599,1249.0,4706.0,1394.0,0.769,0.364,-0.09,-0.518
2657616,1415.0,3142.0,466.0,0.769,0.356,-0.068,-0.526
2657632,1607.0,2324.0,74.0,0.769,0.351,-0.046,-0.533
2657648,1649.0,1768.0,316.0,0.767,0.348,-0.023,-0.539
2657665,467.0,2584.0,766.0,0.764,0.347,-0.001,-0.544
2657681,-237.0,2406.0,636.0,0.762,0.345,0.021,-0.548
2657698,77.0,1686.0,586.0,0.759,0.345,0.041,-0.551
2657715,-183.0,1626.0,56.0,0.756,0.344,0.062,-0.554
2657732,-633.0,1020.0,-330.0,0.753,0.343,0.083,-0.555
2657749,-1373.0,724.0,-672.0,0.751,0.341,0.105,-0.556
2657776,-1337.0,-770.0,-946.0,0.749,0.337,0.128,-0.555
2657792,-1329.0,-3112.0,-1782.0,0.748,0.335,0.15,-0.553
2657808,-4225.0,-3170.0,-648.0,0.744,0.337,0.168,-0.552
2657824,-7125.0,-2550.0,476.0,0.74,0.337,0.18,-0.553
2657840,-4407.0,68.0,1398.0,0.741,0.336,0.182,-0.553
2657856,-6317.0,56.0,-274.0,0.746,0.331,0.179,-0.549
2657882,-4913.0,-1286.0,-310.0,0.755,0.323,0.171,-0.544
2657899,-4151.0,-3446.0,-588.0,0.766,0.314,0.157,-0.539
2657916,-4051.0,-3160.0,-536.0,0.775,0.307,0.137,-0.536
2657933,-2283.0,-1054.0,-270.0,0.783,0.3,0.114,-0.533
2657950,-1023.0,422.0,1188.0,0.79,0.295,0.089,-0.53
2657966,241.0,1166.0,1588.0,0.796,0.293,0.064,-0.526
2657982,739.0,2164.0,3150.0,0.802,0.293,0.037,-0.519
2657999,817.0,3692.0,3586.0,0.807,0.296,0.009,-0.512
2658015,1469.0,4038.0,3580.0,0.811,0.299,-0.018,-0.503
2658042,1475.0,4276.0,4030.0,0.814,0.304,-0.047,-0.493
2658058,1285.0,6724.0,4272.0,0.815,0.31,-0.077,-0.483
2658074,1853.0,5692.0,4192.0,0.816,0.315,-0.106,-0.472
2658090,2499.0,6208.0,4072.0,0.815,0.324,-0.136,-0.461
2658106,1805.0,8380.0,4350.0,0.813,0.331,-0.165,-0.45
2658122,2335.0,8180.0,4654.0,0.81,0.338,-0.194,-0.439
2658148,3375.0,8550.0,4064.0,0.806,0.345,-0.222,-0.427
2658165,3761.0,8688.0,3736.0,0.801,0.352,-0.248,-0.415
2658182,3773.0,9822.0,3962.0,0.796,0.36,-0.274,-0.402
2658199,3725.0,10286.0,4234.0,0.791,0.366,-0.299,-0.389
2658215,3717.0,10482.0,4548.0,0.785,0.371,-0.323,-0.377
2658232,4279.0,9890.0,4280.0,0.779,0.374,-0.346,-0.365
2658248,4843.0,9614.0,4014.0,0.773,0.378,-0.367,-0.353
2658265,4877.0,10734.0,3916.0,0.766,0.382,-0.388,-0.341
2658282,4655.0,10274.0,3842.0,0.76,0.385,-0.407,-0.33
2658299,4749.0,10572.0,3596.0,0.753,0.387,-0.425,-0.32
2658325,4931.0,10026.0,3496.0,0.747,0.387,-0.443,-0.31
2658342,5101.0,9668.0,3242.0,0.74,0.388,-0.46,-0.3
2658358,4823.0,10058.0,3488.0,0.733,0.389,-0.476,-0.292
2658375,5257.0,10094.0,3142.0,0.726,0.388,-0.493,-0.284
2658391,5445.0,9646.0,2952.0,0.718,0.387,-0.508,-0.276
2658408,5901.0,9596.0,2892.0,0.71,0.385,-0.524,-0.27
2658424,5721.0,9056.0,2684.0,0.702,0.384,-0.538,-0.264
2658440,6203.0,10070.0,2864.0,0.694,0.383,-0.552,-0.259
2658466,5691.0,9500.0,3132.0,0.686,0.382,-0.565,-0.255
2658482,5623.0,9332.0,3260.0,0.678,0.38,-0.577,-0.251
2658499,5575.0,9492.0,3372.0,0.67,0.378,-0.588,-0.248
2658516,5571.0,8826.0,3438.0,0.663,0.377,-0.598,-0.247
2658532,5551.0,9776.0,3902.0,0.656,0.375,-0.607,-0.245
2658549,5833.0,9340.0,4218.0,0.651,0.374,-0.614,-0.244
2658565,5981.0,9292.0,4292.0,0.646,0.372,-0.621,-0.243
2658591,6001.0,9772.0,4740.0,0.642,0.371,-0.625,-0.243
2658607,6005.0,9754.0,5202.0,0.64,0.37,-0.627,-0.243
2658623,5919.0,9718.0,5456.0,0.64,0.37,-0.628,-0.245
2658639,6207.0,9722.0,5558.0,0.641,0.37,-0.626,-0.246
2658655,6241.0,9906.0,5498.0,0.643,0.372,-0.622,-0.248
2658671,6267.0,10692.0,5988.0,0.647,0.374,-0.616,-0.251
2658697,6199.0,10874.0,6022.0,0.652,0.376,-0.608,-0.254
2658714,6379.0,11138.0,6094.0,0.659,0.377,-0.597,-0.258
2658731,6907.0,10682.0,5710.0,0.667,0.38,-0.584,-0.264
2658748,7069.0,11396.0,5432.0,0.676,0.383,-0.569,-0.269
2658766,7165.0,11404.0,5440.0,0.685,0.388,-0.551,-0.276
2658782,7271.0,12098.0,4882.0,0.695,0.392,-0.531,-0.283
2658798,7619.0,11748.0,4708.0,0.706,0.397,-0.509,-0.292
2658815,7399.0,12354.0,4478.0,0.716,0.403,-0.484,-0.301
2658832,7605.0,11968.0,3742.0,0.727,0.408,-0.457,-0.312
2658848,7357.0,11136.0,3448.0,0.737,0.413,-0.427,-0.322
2658865,6521.0,11816.0,3490.0,0.745,0.42,-0.397,-0.334
2658892,6589.0,11424.0,2610.0,0.753,0.425,-0.364,-0.346
2658908,6035.0,10824.0,2406.0,0.76,0.429,-0.331,-0.358
2658924,5479.0,10468.0,1966.0,0.766,0.433,-0.297,-0.371
2658940,4623.0,9572.0,1720.0,0.771,0.436,-0.262,-0.383
2658957,3823.0,9432.0,1856.0,0.774,0.438,-0.228,-0.395
2658973,3233.0,8866.0,1612.0,0.777,0.439,-0.195,-0.407
2658989,2897.0,7726.0,1444.0,0.778,0.439,-0.163,-0.419
2659015,2751.0,7146.0,1364.0,0.779,0.438,-0.132,-0.429
2659032,1765.0,7296.0,1606.0,0.778,0.438,-0.102,-0.439
2659049,1409.0,6706.0,1448.0,0.777,0.434,-0.071,-0.449
2659065,1203.0,5232.0,1112.0,0.776,0.431,-0.042,-0.458
2659082,355.0,5224.0,1462.0,0.774,0.428,-0.014,-0.467
2659098,-79.0,5022.0,1340.0,0.772,0.423,0.013,-0.475
2659115,-197.0,3422.0,980.0,0.77,0.417,0.039,-0.482
2659131,-541.0,2444.0,912.0,0.767,0.413,0.062,-0.488
2659148,-1241.0,2272.0,688.0,0.763,0.408,0.083,-0.494
2659175,-1401.0,2030.0,394.0,0.76,0.404,0.102,-0.499
2659191,-1317.0,1208.0,176.0,0.758,0.399,0.119,-0.502
2659207,-1883.0,354.0,-38.0,0.755,0.394,0.135,-0.506
2659223,-1977.0,-234.0,-200.0,0.753,0.39,0.148,-0.509
2659239,-2577.0,-1346.0,-414.0,0.751,0.386,0.16,-0.512
2659255,-2825.0,-2130.0,-776.0,0.749,0.382,0.169,-0.514
2659281,-2985.0,-2062.0,-1204.0,0.749,0.379,0.176,-0.515
2659298,-3173.0,-2824.0,-1440.0,0.749,0.376,0.18,-0.515
2659315,-3475.0,-2400.0,-1332.0,0.751,0.373,0.181,-0.513
2659332,-3539.0,-2374.0,-1250.0,0.755,0.371,0.179,-0.511
2659349,-3277.0,-1926.0,-1136.0,0.76,0.369,0.173,-0.507
2659365,-3327.0,-1252.0,-946.0,0.766,0.368,0.164,-0.501
2659382,-3143.0,-572.0,-662.0,0.773,0.367,0.151,-0.495
2659398,-2577.0,58.0,-512.0,0.781,0.366,0.134,-0.488
2659414,-1935.0,768.0,-28.0,0.788,0.367,0.115,-0.48
2659431,-1593.0,2166.0,522.0,0.796,0.368,0.093,-0.472
2659458,-965.0,2942.0,916.0,0.803,0.37,0.069,-0.462
2659474,-247.0,3274.0,1390.0,0.809,0.374,0.043,-0.453
2659490,129.0,4632.0,1768.0,0.813,0.378,0.016,-0.443
2659506,1231.0,4926.0,1794.0,0.816,0.382,-0.011,-0.434
2659522,1765.0,5358.0,2168.0,0.816,0.39,-0.038,-0.425
2659538,1181.0,7452.0,2968.0,0.815,0.399,-0.068,-0.415
2659564,1189.0,8632.0,3190.0,0.813,0.407,-0.097,-0.406
2659581,1603.0,8634.0,3012.0,0.81,0.413,-0.126,-0.396
2659598,2125.0,8514.0,3130.0,0.806,0.42,-0.154,-0.387
2659615,2329.0,9542.0,3110.0,0.802,0.428,-0.181,-0.376
2659631,2373.0,10170.0,3246.0,0.797,0.435,-0.208,-0.364
2659648,2183.0,10498.0,3594.0,0.792,0.441,-0.234,-0.352
2659665,2787.0,9994.0,3256.0,0.786,0.445,-0.26,-0.34
2659681,3033.0,10426.0,3278.0,0.78,0.451,-0.286,-0.326
2659698,3435.0,11050.0,3140.0,0.774,0.454,-0.312,-0.313
2659714,3853.0,10556.0,3044.0,0.767,0.457,-0.337,-0.3
2659741,4121.0,11266.0,3106.0,0.759,0.459,-0.361,-0.288
2659757,4539.0,11502.0,3052.0,0.751,0.459,-0.386,-0.277
2659773,5103.0,10690.0,2374.0,0.742,0.459,-0.409,-0.267
2659789,5541.0,11866.0,2552.0,0.734,0.457,-0.432,-0.258
2659805,6259.0,11720.0,2386.0,0.725,0.456,-0.452,-0.251
2659821,5725.0,11702.0,2666.0,0.715,0.454,-0.471,-0.245
2659847,5843.0,11338.0,2764.0,0.706,0.452,-0.489,-0.24
2659864,5511.0,11264.0,2852.0,0.697,0.45,-0.506,-0.237
2659881,5099.0,10506.0,2938.0,0.688,0.447,-0.522,-0.235
2659898,5419.0,9710.0,2786.0,0.678,0.444,-0.537,-0.233
2659915,5029.0,10226.0,3300.0,0.67,0.441,-0.55,-0.232
2659931,4873.0,9300.0,3314.0,0.662,0.437,-0.563,-0.232
2659949,4939.0,9272.0,3590.0,0.654,0.434,-0.575,-0.231
2659965,4917.0,9190.0,3848.0,0.646,0.431,-0.586,-0.23
2659982,4961.0,8288.0,4462.0,0.639,0.429,-0.596,-0.229
2659998,4739.0,9592.0,4276.0,0.632,0.426,-0.605,-0.229
2660024,5343.0,9016.0,4400.0,0.627,0.424,-0.613,-0.229
2660040,5623.0,8872.0,4444.0,0.623,0.421,-0.619,-0.229
2660057,5679.0,8968.0,4644.0,0.62,0.42,-0.623,-0.229
2660073,5853.0,9614.0,4846.0,0.619,0.419,-0.624,-0.228
2660089,5909.0,10072.0,4998.0,0.62,0.418,-0.624,-0.229
2660105,6235.0,9982.0,4618.0,0.623,0.417,-0.621,-0.23
2660131,6131.0,10816.0,5136.0,0.627,0.417,-0.616,-0.232
2660148,6287.0,11188.0,5274.0,0.633,0.417,-0.608,-0.236
2660164,6721.0,10844.0,5086.0,0.64,0.418,-0.599,-0.24
2660181,6675.0,11884.0,5274.0,0.648,0.42,-0.586,-0.246
2660198,6655.0,12670.0,5076.0,0.657,0.421,-0.572,-0.253
2660214,6843.0,12338.0,4660.0,0.667,0.422,-0.556,-0.261
2660231,6887.0,13006.0,4570.0,0.677,0.424,-0.537,-0.27
2660248,6785.0,13324.0,4542.0,0.688,0.426,-0.516,-0.281
2660264,7111.0,13488.0,4014.0,0.699,0.427,-0.493,-0.293
2660281,7439.0,13154.0,3264.0,0.71,0.429,-0.468,-0.305
2660307,6811.0,13356.0,2880.0,0.721,0.43,-0.44,-0.318
2660323,6331.0,13036.0,2532.0,0.732,0.431,-0.411,-0.331
2660339,5561.0,12662.0,2572.0,0.742,0.431,-0.38,-0.346
2660355,5405.0,12310.0,2476.0,0.75,0.43,-0.349,-0.361
2660371,5531.0,11226.0,2094.0,0.758,0.427,-0.316,-0.377
2660387,5267.0,10338.0,1824.0,0.765,0.425,-0.283,-0.392
2660413,4127.0,9648.0,1680.0,0.771,0.423,-0.248,-0.407
2660430,3069.0,8700.0,2008.0,0.775,0.42,-0.213,-0.421
2660447,2039.0,8422.0,1774.0,0.778,0.416,-0.179,-0.434
2660464,1397.0,7940.0,2332.0,0.781,0.411,-0.147,-0.447
2660481,2097.0,7050.0,1946.0,0.783,0.405,-0.116,-0.458
2660498,1701.0,6834.0,1594.0,0.784,0.399,-0.085,-0.468
2660514,1383.0,5894.0,1518.0,0.785,0.392,-0.055,-0.477
2660531,1017.0,5374.0,1304.0,0.785,0.386,-0.026,-0.484
2660548,309.0,5036.0,1652.0,0.784,0.38,0.001,-0.491
2660564,657.0,4224.0,1160.0,0.784,0.373,0.027,-0.496
2660591,-215.0,3990.0,1300.0,0.782,0.367,0.051,-0.501
2660607,-171.0,3510.0,886.0,0.781,0.36,0.073,-0.505
2660623,39.0,2198.0,258.0,0.779,0.353,0.094,-0.509
2660639,-259.0,1244.0,118.0,0.777,0.348,0.114,-0.512
2660655,-1035.0,984.0,82.0,0.773,0.344,0.133,-0.516
2660681,-1549.0,758.0,-26.0,0.77,0.339,0.151,-0.519
2660698,-1953.0,-476.0,-374.0,0.767,0.334,0.166,-0.521
2660715,-2045.0,-2144.0,-806.0,0.764,0.331,0.179,-0.524
2660732,-2443.0,-2320.0,-908.0,0.761,0.329,0.19,-0.526
2660748,-3651.0,-2142.0,-974.0,0.758,0.328,0.196,-0.528
2660764,-4271.0,-2654.0,-930.0,0.757,0.327,0.199,-0.53
2660781,-4623.0,-2688.0,-976.0,0.757,0.325,0.198,-0.531
2660798,-3693.0,-2866.0,-1276.0,0.759,0.323,0.192,-0.532
2660814,-3413.0,-2554.0,-1176.0,0.761,0.322,0.182,-0.532
2660831,-2855.0,-1570.0,-1048.0,0.765,0.322,0.17,-0.531
2660858,-2603.0,-874.0,-892.0,0.769,0.323,0.154,-0.529
2660874,-2381.0,-310.0,-126.0,0.775,0.324,0.136,-0.526
2660890,-2125.0,306.0,326.0,0.78,0.325,0.115,-0.522
2660906,-1583.0,1080.0,982.0,0.786,0.327,0.091,-0.517
2660922,-779.0,1806.0,1294.0,0.792,0.329,0.065,-0.511
2660939,171.0,2624.0,1636.0,0.796,0.333,0.038,-0.504
2660955,1025.0,4104.0,2048.0,0.8,0.338,0.011,-0.496
2660981,1007.0,6416.0,2894.0,0.802,0.344,-0.014,-0.488
2660997,2239.0,6384.0,3008.0,0.806,0.348,-0.039,-0.478
2661014,2041.0,5100.0,3498.0,0.807,0.356,-0.063,-0.467
2661031,2485.0,7060.0,3432.0,0.807,0.367,-0.087,-0.454
2661047,1687.0,7800.0,4322.0,0.806,0.379,-0.11,-0.441
2661064,1671.0,8702.0,4006.0,0.805,0.39,-0.134,-0.428
2661081,2115.0,8362.0,3726.0,0.802,0.401,-0.158,-0.413
2661098,1909.0,9394.0,4010.0,0.799,0.413,-0.182,-0.398
2661114,1949.0,9594.0,3900.0,0.795,0.423,-0.207,-0.382
2661141,2145.0,10402.0,3992.0,0.79,0.433,-0.232,-0.366
2661157,1619.0,10656.0,4550.0,0.785,0.44,-0.259,-0.351
2661173,2599.0,10218.0,4016.0,0.779,0.445,-0.286,-0.337
2661189,3613.0,9624.0,3376.0,0.771,0.451,-0.313,-0.322
2661205,3979.0,11254.0,3188.0,0.763,0.457,-0.339,-0.307
2661221,3589.0,10932.0,3938.0,0.753,0.463,-0.365,-0.292
2661237,4163.0,11744.0,3344.0,0.745,0.465,-0.389,-0.278
2661263,4637.0,11018.0,3170.0,0.735,0.467,-0.413,-0.265
2661280,4815.0,12088.0,3286.0,0.726,0.469,-0.434,-0.253
2661297,4803.0,11764.0,2868.0,0.717,0.468,-0.455,-0.243
2661314,4861.0,11356.0,2728.0,0.708,0.467,-0.475,-0.234
2661331,4767.0,11454.0,2796.0,0.7,0.464,-0.494,-0.227
2661347,4971.0,10290.0,2596.0,0.692,0.46,-0.511,-0.221
2661364,5027.0,10254.0,2470.0,0.683,0.457,-0.527,-0.216
2661380,4931.0,11296.0,2690.0,0.675,0.453,-0.542,-0.212
2661397,5145.0,10552.0,2860.0,0.668,0.447,-0.557,-0.211
2661414,5755.0,9806.0,2716.0,0.661,0.441,-0.57,-0.21
2661441,5403.0,10164.0,2932.0,0.654,0.435,-0.582,-0.21
2661457,5401.0,10772.0,3278.0,0.648,0.429,-0.593,-0.212
2661473,5473.0,9728.0,3584.0,0.643,0.422,-0.602,-0.215
2661489,5459.0,11294.0,3714.0,0.638,0.416,-0.61,-0.219
2661505,5737.0,10382.0,3862.0,0.634,0.411,-0.616,-0.222
2661521,5623.0,9520.0,4178.0,0.631,0.406,-0.621,-0.227
2661547,5363.0,9694.0,4330.0,0.629,0.402,-0.623,-0.232
2661564,5615.0,9566.0,4418.0,0.629,0.399,-0.624,-0.238
2661580,5719.0,9364.0,4806.0,0.63,0.396,-0.622,-0.243
2661597,5599.0,9968.0,5404.0,0.632,0.395,-0.619,-0.248
2661614,5295.0,10662.0,6000.0,0.635,0.393,-0.614,-0.254
2661630,6381.0,10728.0,6422.0,0.64,0.392,-0.607,-0.261
2661647,7101.0,10720.0,5826.0,0.646,0.392,-0.598,-0.267
2661664,6929.0,11166.0,6228.0,0.653,0.395,-0.586,-0.274
2661690,6977.0,12114.0,6714.0,0.66,0.399,-0.572,-0.28
2661706,6775.0,13742.0,6156.0,0.667,0.403,-0.556,-0.289
2661722,8087.0,12574.0,5654.0,0.677,0.407,-0.536,-0.299
2661738,8013.0,12650.0,4774.0,0.687,0.412,-0.514,-0.307
2661754,7961.0,12460.0,3698.0,0.698,0.418,-0.488,-0.316
2661770,7473.0,12950.0,3044.0,0.708,0.427,-0.459,-0.324
2661796,6887.0,13230.0,2840.0,0.719,0.435,-0.428,-0.333
2661813,5919.0,13596.0,2762.0,0.729,0.441,-0.395,-0.344
2661830,6165.0,12866.0,2092.0,0.738,0.445,-0.362,-0.356
2661847,5739.0,11204.0,1434.0,0.747,0.447,-0.327,-0.369
2661863,5453.0,10696.0,1176.0,0.753,0.448,-0.292,-0.382
2661880,4391.0,10928.0,1220.0,0.758,0.449,-0.257,-0.396
2661896,4137.0,9914.0,884.0,0.763,0.447,-0.223,-0.411
2661913,3671.0,8616.0,542.0,0.766,0.444,-0.188,-0.425
2661930,2417.0,7678.0,712.0,0.769,0.439,-0.156,-0.438
2661947,1105.0,7590.0,1114.0,0.771,0.432,-0.126,-0.452
2661964,763.0,6914.0,970.0,0.773,0.421,-0.097,-0.466
2661981,1133.0,5612.0,1000.0,0.774,0.409,-0.071,-0.478
2662007,387.0,5712.0,596.0,0.776,0.395,-0.047,-0.49
2662023,913.0,4142.0,418.0,0.777,0.381,-0.024,-0.5
2662039,585.0,3736.0,594.0,0.778,0.368,-0.003,-0.509
2662055,151.0,3884.0,610.0,0.779,0.356,0.018,-0.516
2662071,575.0,2120.0,250.0,0.78,0.343,0.038,-0.522
2662097,113.0,722.0,312.0,0.78,0.333,0.058,-0.526
2662113,-321.0,638.0,504.0,0.779,0.326,0.077,-0.53
2662130,-285.0,700.0,746.0,0.777,0.319,0.095,-0.534
2662147,-355.0,1136.0,948.0,0.776,0.313,0.113,-0.536
2662163,-899.0,124.0,828.0,0.775,0.306,0.129,-0.537
2662180,-1195.0,-2498.0,298.0,0.775,0.3,0.144,-0.537
2662197,-1025.0,-3186.0,302.0,0.773,0.299,0.156,-0.538
2662213,-1927.0,-1182.0,50.0,0.77,0.298,0.166,-0.539
2662230,-2205.0,-1330.0,-114.0,0.769,0.296,0.176,-0.538
2662247,-3001.0,-3130.0,-68.0,0.77,0.294,0.184,-0.536
2662264,-3649.0,-3578.0,-206.0,0.771,0.294,0.187,-0.533
2662281,-3935.0,-3024.0,-180.0,0.773,0.294,0.186,-0.529
2662307,-4091.0,-3224.0,-62.0,0.778,0.296,0.181,-0.524
2662324,-4433.0,-2508.0,10.0,0.783,0.299,0.171,-0.518
2662340,-4555.0,-1470.0,114.0,0.789,0.302,0.157,-0.511
2662356,-4153.0,-598.0,564.0,0.797,0.306,0.138,-0.502
2662372,-3599.0,644.0,994.0,0.805,0.309,0.114,-0.494
2662398,-3273.0,2710.0,1726.0,0.813,0.311,0.087,-0.484
2662415,-2339.0,4196.0,1904.0,0.823,0.309,0.057,-0.474
2662431,-585.0,2568.0,1588.0,0.831,0.306,0.027,-0.464
2662447,1615.0,-10.0,1938.0,0.836,0.309,-0.004,-0.454
2662464,2027.0,3584.0,2904.0,0.836,0.32,-0.038,-0.445
2662480,2097.0,8304.0,3068.0,0.834,0.33,-0.071,-0.435
2662496,3443.0,8186.0,3454.0,0.834,0.338,-0.101,-0.424
2662512,3355.0,8316.0,3412.0,0.832,0.346,-0.129,-0.413
2662538,3649.0,8018.0,3226.0,0.83,0.354,-0.157,-0.402
2662554,3421.0,8590.0,3586.0,0.825,0.365,-0.183,-0.391
2662570,2315.0,10396.0,4566.0,0.82,0.374,-0.209,-0.379
2662586,2913.0,10674.0,4536.0,0.816,0.38,-0.234,-0.369
2662602,3463.0,9934.0,3980.0,0.811,0.384,-0.258,-0.358
2662618,3521.0,10138.0,3744.0,0.806,0.389,-0.283,-0.346
2662644,3659.0,10738.0,3592.0,0.799,0.394,-0.307,-0.334
2662661,4195.0,10660.0,3482.0,0.793,0.399,-0.331,-0.321
2662678,4161.0,11684.0,4164.0,0.785,0.403,-0.354,-0.31
2662695,4249.0,11572.0,4348.0,0.778,0.403,-0.377,-0.301
2662712,5045.0,10612.0,3850.0,0.77,0.402,-0.4,-0.293
2662729,5673.0,10640.0,3270.0,0.761,0.402,-0.422,-0.285
2662746,5539.0,10458.0,3764.0,0.751,0.403,-0.443,-0.277
2662763,5561.0,10740.0,3604.0,0.741,0.403,-0.463,-0.27
2662780,5623.0,10292.0,3476.0,0.731,0.404,-0.482,-0.264
2662796,6187.0,10324.0,3222.0,0.72,0.405,-0.5,-0.258
2662813,5671.0,10212.0,3294.0,0.71,0.407,-0.517,-0.252
2662830,5555.0,10234.0,3312.0,0.7,0.408,-0.532,-0.247
2662856,5653.0,9282.0,3174.0,0.689,0.41,-0.547,-0.242
2662872,5749.0,10742.0,3886.0,0.679,0.411,-0.56,-0.238
2662888,5581.0,9972.0,3502.0,0.67,0.41,-0.572,-0.236
2662904,6009.0,9184.0,3064.0,0.661,0.411,-0.583,-0.233
2662920,5483.0,9554.0,4066.0,0.652,0.412,-0.593,-0.23
2662936,5769.0,9736.0,4264.0,0.645,0.412,-0.602,-0.229
2662962,5961.0,8170.0,3962.0,0.638,0.412,-0.61,-0.228
2662979,6021.0,9528.0,4504.0,0.631,0.414,-0.616,-0.226
2662996,5773.0,9556.0,5006.0,0.626,0.413,-0.621,-0.226
2663013,5969.0,8950.0,4564.0,0.623,0.413,-0.625,-0.226
2663030,6159.0,8974.0,4520.0,0.621,0.415,-0.626,-0.226
2663046,5765.0,10026.0,5134.0,0.621,0.416,-0.625,-0.225
2663063,5669.0,9820.0,5030.0,0.623,0.417,-0.622,-0.226
2663080,5889.0,9760.0,4862.0,0.627,0.417,-0.617,-0.228
2663096,6011.0,10530.0,4926.0,0.632,0.419,-0.61,-0.23
2663113,6017.0,11070.0,4926.0,0.639,0.42,-0.601,-0.232
2663140,6223.0,11298.0,4618.0,0.646,0.421,-0.59,-0.237
2663156,6155.0,11568.0,4708.0,0.655,0.423,-0.578,-0.243
2663172,6639.0,12174.0,4218.0,0.664,0.423,-0.563,-0.25
2663188,6603.0,12592.0,4448.0,0.674,0.422,-0.548,-0.26
2663204,7133.0,12814.0,3892.0,0.685,0.419,-0.531,-0.273
2663220,7767.0,12366.0,3336.0,0.696,0.415,-0.511,-0.286
2663246,8015.0,11456.0,2466.0,0.708,0.412,-0.489,-0.299
2663263,8203.0,11348.0,1814.0,0.721,0.411,-0.464,-0.31
2663280,7165.0,11578.0,2578.0,0.733,0.411,-0.437,-0.322
2663297,6801.0,12254.0,2776.0,0.744,0.41,-0.408,-0.334
2663314,6129.0,11308.0,2502.0,0.755,0.408,-0.377,-0.347
2663330,5395.0,11042.0,2762.0,0.765,0.407,-0.346,-0.36
2663346,4689.0,10716.0,2966.0,0.773,0.407,-0.313,-0.373
2663363,4545.0,10338.0,2542.0,0.779,0.406,-0.281,-0.386
2663379,3605.0,9918.0,2828.0,0.784,0.406,-0.248,-0.398
2663396,3265.0,9662.0,2656.0,0.788,0.405,-0.215,-0.41
2663423,2977.0,8664.0,2522.0,0.791,0.403,-0.184,-0.421
2663439,2269.0,7970.0,2510.0,0.793,0.401,-0.154,-0.432
2663455,1951.0,6966.0,2082.0,0.795,0.398,-0.125,-0.441
2663471,1663.0,5650.0,1406.0,0.795,0.395,-0.097,-0.45
2663487,929.0,5288.0,1654.0,0.794,0.393,-0.069,-0.459
2663503,539.0,5046.0,1830.0,0.792,0.39,-0.043,-0.468
2663529,25.0,4158.0,1766.0,0.79,0.387,-0.018,-0.476
2663546,-47.0,3936.0,1742.0,0.787,0.383,0.005,-0.483
2663563,-331.0,3354.0,1254.0,0.784,0.378,0.027,-0.491
2663579,-631.0,2746.0,1266.0,0.782,0.373,0.048,-0.498
2663596,-1471.0,1790.0,966.0,0.779,0.367,0.068,-0.504
2663613,-1317.0,-220.0,-158.0,0.775,0.36,0.087,-0.511
2663630,-1091.0,-1248.0,-362.0,0.771,0.356,0.104,-0.518
2663647,-1391.0,-2082.0,270.0,0.765,0.353,0.119,-0.525
2663663,-1741.0,-2898.0,716.0,0.759,0.353,0.132,-0.531
2663689,-1953.0,-3262.0,464.0,0.752,0.355,0.142,-0.537
2663705,-2201.0,-940.0,202.0,0.744,0.359,0.15,-0.543
2663721,-2445.0,378.0,-242.0,0.739,0.363,0.158,-0.546
2663737,-2923.0,-1826.0,-134.0,0.736,0.364,0.166,-0.547
2663753,-3501.0,-3386.0,-46.0,0.735,0.364,0.171,-0.546
2663769,-3751.0,-2782.0,-198.0,0.735,0.364,0.171,-0.546
2663795,-4011.0,-2228.0,-274.0,0.737,0.364,0.168,-0.544
2663812,-3703.0,-2084.0,-202.0,0.742,0.363,0.161,-0.54
2663829,-3653.0,-1324.0,162.0,0.749,0.361,0.149,-0.535
2663846,-3411.0,374.0,738.0,0.758,0.358,0.133,-0.529
2663863,-2963.0,396.0,1300.0,0.769,0.352,0.116,-0.521
2663879,-2525.0,496.0,1752.0,0.779,0.347,0.095,-0.513
2663895,-2147.0,2456.0,2748.0,0.791,0.342,0.072,-0.503
2663911,-2225.0,3084.0,2802.0,0.802,0.335,0.047,-0.493
2663928,-1637.0,922.0,2960.0,0.813,0.327,0.022,-0.481
2663945,-1.0,1194.0,2130.0,0.82,0.325,-0.006,-0.471
2663972,1519.0,3290.0,1830.0,0.823,0.329,-0.035,-0.461
2663988,1601.0,5560.0,2598.0,0.825,0.337,-0.063,-0.449
2664004,921.0,7350.0,3066.0,0.825,0.346,-0.092,-0.437
2664020,993.0,7656.0,3082.0,0.825,0.352,-0.122,-0.424
2664036,2079.0,8032.0,3640.0,0.825,0.356,-0.151,-0.412
2664052,2775.0,8008.0,3536.0,0.823,0.36,-0.18,-0.4
2664078,3599.0,5276.0,3000.0,0.821,0.365,-0.209,-0.386
2664094,3445.0,6614.0,2482.0,0.814,0.376,-0.24,-0.371
2664110,4667.0,9052.0,2450.0,0.806,0.388,-0.27,-0.356
2664126,4669.0,9184.0,2628.0,0.797,0.4,-0.298,-0.339
2664142,4857.0,10178.0,2266.0,0.788,0.412,-0.325,-0.322
2664168,5337.0,10652.0,2058.0,0.778,0.422,-0.352,-0.305
2664184,4483.0,10454.0,2684.0,0.768,0.43,-0.378,-0.287
2664200,5549.0,10350.0,1726.0,0.758,0.435,-0.403,-0.27
2664216,6333.0,9130.0,1204.0,0.748,0.442,-0.426,-0.252
2664232,6245.0,11814.0,1790.0,0.736,0.45,-0.448,-0.234
2664248,6137.0,12614.0,2510.0,0.725,0.455,-0.469,-0.218
2664265,6057.0,11654.0,2178.0,0.715,0.456,-0.489,-0.204
2664291,6539.0,11126.0,1326.0,0.704,0.456,-0.51,-0.191
2664307,6681.0,11248.0,1474.0,0.693,0.456,-0.529,-0.179
2664323,7119.0,11140.0,1568.0,0.682,0.453,-0.549,-0.169
2664339,7451.0,10376.0,1538.0,0.671,0.45,-0.567,-0.161
2664355,7273.0,10698.0,1720.0,0.659,0.448,-0.583,-0.156
2664371,7907.0,10822.0,994.0,0.65,0.445,-0.598,-0.151
2664397,7313.0,9368.0,376.0,0.641,0.442,-0.61,-0.147
2664413,7053.0,10966.0,602.0,0.632,0.441,-0.621,-0.143
2664429,6861.0,10276.0,1588.0,0.625,0.439,-0.63,-0.142
2664446,6307.0,9894.0,1996.0,0.619,0.436,-0.638,-0.143
2664462,5931.0,9414.0,2520.0,0.613,0.433,-0.645,-0.145
2664479,6341.0,9620.0,2650.0,0.607,0.43,-0.652,-0.148
2664495,6053.0,9454.0,3066.0,0.602,0.427,-0.658,-0.152
2664522,6331.0,9412.0,3078.0,0.598,0.424,-0.662,-0.157
2664538,6583.0,9412.0,3126.0,0.595,0.421,-0.665,-0.162
2664554,6633.0,9338.0,3358.0,0.593,0.419,-0.667,-0.167
2664570,6873.0,9358.0,3412.0,0.593,0.419,-0.666,-0.172
2664586,6767.0,9820.0,3720.0,0.595,0.418,-0.663,-0.178
2664602,6609.0,10222.0,3848.0,0.598,0.417,-0.659,-0.183
2664618,6799.0,10154.0,3702.0,0.602,0.417,-0.654,-0.189
2664644,7491.0,10938.0,3476.0,0.609,0.416,-0.647,-0.196
2664661,7151.0,10372.0,3500.0,0.616,0.414,-0.638,-0.203
2664678,7137.0,10868.0,3604.0,0.625,0.413,-0.628,-0.211
2664695,7645.0,11008.0,3428.0,0.634,0.412,-0.616,-0.22
2664712,7905.0,10714.0,3028.0,0.645,0.412,-0.601,-0.23
2664729,8695.0,11526.0,2638.0,0.656,0.412,-0.584,-0.241
2664746,8823.0,11058.0,2326.0,0.67,0.412,-0.564,-0.251
2664762,8493.0,11294.0,2092.0,0.683,0.413,-0.542,-0.263
2664779,8677.0,11472.0,2232.0,0.697,0.414,-0.517,-0.275
2664796,7899.0,11256.0,2228.0,0.71,0.415,-0.49,-0.288
2664822,7669.0,10752.0,1990.0,0.722,0.416,-0.462,-0.302
2664838,6979.0,10904.0,2220.0,0.733,0.417,-0.434,-0.317
2664854,6545.0,10812.0,2030.0,0.743,0.417,-0.405,-0.332
2664870,5815.0,10136.0,2074.0,0.751,0.416,-0.377,-0.348
2664886,5571.0,9774.0,1582.0,0.758,0.415,-0.349,-0.363
2664902,4817.0,9002.0,1422.0,0.763,0.413,-0.321,-0.379
2664928,3931.0,8212.0,1248.0,0.768,0.411,-0.294,-0.394
2664945,3177.0,8038.0,1520.0,0.771,0.409,-0.269,-0.408
2664962,2707.0,8292.0,1324.0,0.773,0.406,-0.245,-0.421
2664979,2647.0,6834.0,974.0,0.776,0.4,-0.222,-0.434
2664996,2353.0,5826.0,1342.0,0.777,0.396,-0.199,-0.447
2665012,1795.0,6164.0,1492.0,0.778,0.391,-0.177,-0.46
2665029,1563.0,6022.0,1610.0,0.778,0.384,-0.155,-0.472
2665045,1749.0,4090.0,1342.0,0.779,0.378,-0.133,-0.482
2665062,1657.0,3298.0,1060.0,0.779,0.375,-0.111,-0.491
2665079,991.0,3172.0,800.0,0.777,0.373,-0.09,-0.498
2665096,707.0,3172.0,968.0,0.776,0.373,-0.069,-0.504
2665122,91.0,3480.0,728.0,0.776,0.372,-0.048,-0.508
2665138,-917.0,1678.0,1132.0,0.775,0.371,-0.026,-0.511
2665154,-987.0,808.0,848.0,0.774,0.37,-0.006,-0.514
2665171,-799.0,184.0,672.0,0.772,0.37,0.014,-0.517
2665188,-1375.0,-246.0,486.0,0.769,0.372,0.033,-0.518
2665204,-1919.0,-934.0,240.0,0.766,0.375,0.051,-0.519
2665220,-2137.0,-868.0,120.0,0.762,0.379,0.068,-0.52
2665246,-2145.0,-998.0,-180.0,0.759,0.384,0.084,-0.519
2665263,-3091.0,-1328.0,-250.0,0.756,0.389,0.099,-0.517
2665280,-4313.0,-1992.0,164.0,0.754,0.394,0.11,-0.514
2665297,-4829.0,-1338.0,68.0,0.753,0.398,0.117,-0.511
2665313,-4339.0,-1224.0,8.0,0.753,0.401,0.121,-0.507
2665330,-3933.0,-1022.0,-278.0,0.756,0.403,0.122,-0.501
2665346,-3599.0,-954.0,-914.0,0.76,0.404,0.12,-0.494
2665362,-3691.0,-1384.0,92.0,0.765,0.407,0.114,-0.486
2665379,-3621.0,1504.0,1152.0,0.77,0.411,0.102,-0.478
2665405,-3041.0,3980.0,1912.0,0.777,0.411,0.09,-0.468
2665421,-2745.0,4186.0,2230.0,0.787,0.407,0.075,-0.457
2665437,-1273.0,740.0,1662.0,0.798,0.403,0.058,-0.445
2665453,281.0,198.0,1982.0,0.804,0.405,0.038,-0.433
2665469,117.0,4390.0,2446.0,0.808,0.412,0.016,-0.422
2665485,443.0,7358.0,2768.0,0.811,0.419,-0.008,-0.409
2665511,513.0,7256.0,3092.0,0.814,0.424,-0.032,-0.396
2665527,813.0,7142.0,2452.0,0.815,0.43,-0.056,-0.383
2665544,1229.0,6812.0,2074.0,0.816,0.437,-0.081,-0.37
2665561,1175.0,8212.0,2748.0,0.814,0.446,-0.106,-0.357
2665578,1095.0,8634.0,3234.0,0.812,0.453,-0.13,-0.345
2665595,1643.0,7534.0,2852.0,0.808,0.461,-0.156,-0.332
2665612,1717.0,7818.0,2792.0,0.803,0.47,-0.183,-0.318
2665629,2073.0,8442.0,3088.0,0.795,0.48,-0.211,-0.304
2665645,2583.0,9352.0,2564.0,0.788,0.489,-0.239,-0.289
2665662,3469.0,9846.0,2428.0,0.779,0.498,-0.266,-0.273
2665689,3661.0,11070.0,2512.0,0.77,0.505,-0.293,-0.256
2665705,3849.0,11154.0,2656.0,0.761,0.511,-0.32,-0.239
2665721,4443.0,10582.0,2282.0,0.752,0.516,-0.347,-0.222
2665737,4831.0,10460.0,2442.0,0.741,0.519,-0.373,-0.205
2665753,5035.0,11806.0,2106.0,0.731,0.521,-0.397,-0.19
2665769,5173.0,11108.0,1750.0,0.721,0.521,-0.421,-0.176
2665795,5275.0,11814.0,1468.0,0.712,0.52,-0.442,-0.163
2665811,5753.0,11690.0,1348.0,0.703,0.518,-0.463,-0.152
2665828,5649.0,11462.0,1532.0,0.695,0.515,-0.482,-0.143
2665844,5837.0,11432.0,1580.0,0.687,0.511,-0.499,-0.135
2665861,5461.0,10558.0,1494.0,0.679,0.506,-0.515,-0.13
2665877,6015.0,11434.0,1814.0,0.672,0.501,-0.531,-0.126
2665894,5823.0,10416.0,1856.0,0.665,0.495,-0.545,-0.124
2665911,5749.0,9736.0,1844.0,0.658,0.489,-0.559,-0.124
2665937,6039.0,9990.0,1970.0,0.652,0.483,-0.571,-0.124
2665954,5791.0,9080.0,2418.0,0.645,0.478,-0.583,-0.125
2665970,5447.0,9080.0,1644.0,0.639,0.473,-0.593,-0.127
2665986,5773.0,9184.0,2592.0,0.633,0.468,-0.602,-0.13
2666002,5659.0,9912.0,3346.0,0.628,0.464,-0.61,-0.133
2666018,5715.0,9282.0,3388.0,0.624,0.46,-0.616,-0.137
2666034,5807.0,9704.0,3746.0,0.621,0.458,-0.62,-0.141
2666060,5881.0,9452.0,3692.0,0.62,0.456,-0.622,-0.145
2666077,6115.0,9624.0,3880.0,0.62,0.455,-0.622,-0.148
2666094,5931.0,9818.0,4050.0,0.621,0.456,-0.62,-0.151
2666111,5865.0,9768.0,4240.0,0.623,0.457,-0.616,-0.153
2666128,6015.0,9688.0,4170.0,0.627,0.458,-0.61,-0.156
2666145,5951.0,9878.0,3960.0,0.632,0.461,-0.603,-0.159
2666162,5929.0,10484.0,3568.0,0.638,0.464,-0.593,-0.162
2666178,6113.0,10884.0,3360.0,0.645,0.468,-0.581,-0.165
2666195,6455.0,11712.0,4276.0,0.653,0.472,-0.567,-0.17
2666212,6543.0,11396.0,2636.0,0.662,0.476,-0.551,-0.175
2666229,6397.0,11102.0,2568.0,0.672,0.482,-0.532,-0.181
2666255,6421.0,11996.0,2818.0,0.682,0.488,-0.512,-0.188
2666271,6323.0,12026.0,2686.0,0.692,0.492,-0.49,-0.197
2666287,6273.0,11282.0,2262.0,0.702,0.496,-0.467,-0.207
2666303,6297.0,11664.0,2342.0,0.711,0.5,-0.443,-0.218
2666319,6185.0,11542.0,2480.0,0.72,0.504,-0.418,-0.23
2666335,6259.0,11090.0,2216.0,0.728,0.506,-0.392,-0.244
2666361,6159.0,10978.0,1992.0,0.736,0.508,-0.365,-0.258
2666378,5895.0,11352.0,2186.0,0.743,0.51,-0.338,-0.273
2666395,5859.0,10574.0,1734.0,0.749,0.51,-0.31,-0.287
2666412,5579.0,9966.0,1520.0,0.755,0.51,-0.282,-0.302
2666428,4655.0,9858.0,2162.0,0.76,0.509,-0.252,-0.316
2666444,3603.0,10194.0,2856.0,0.764,0.508,-0.223,-0.33
2666461,3187.0,8852.0,2130.0,0.768,0.504,-0.195,-0.343
2666478,1279.0,8272.0,2520.0,0.772,0.501,-0.167,-0.355
2666504,-349.0,7684.0,2742.0,0.774,0.495,-0.14,-0.37
2666520,-285.0,6848.0,1230.0,0.774,0.488,-0.116,-0.386
2666536,227.0,6298.0,1522.0,0.774,0.481,-0.092,-0.402
2666552,-831.0,6738.0,1692.0,0.772,0.474,-0.071,-0.418
2666568,-321.0,6380.0,1686.0,0.77,0.465,-0.052,-0.433
2666584,-843.0,5372.0,1456.0,0.769,0.455,-0.034,-0.447
2666610,-1147.0,4782.0,1726.0,0.768,0.445,-0.018,-0.46
2666627,-1209.0,3962.0,884.0,0.768,0.433,-0.002,-0.473
2666644,-1103.0,2340.0,768.0,0.767,0.422,0.012,-0.483
2666661,-719.0,1888.0,374.0,0.766,0.413,0.025,-0.492
2666678,-597.0,2154.0,150.0,0.764,0.405,0.037,-0.5
2666695,-1155.0,1062.0,590.0,0.763,0.4,0.049,-0.505
2666711,-1635.0,1598.0,732.0,0.762,0.394,0.06,-0.51
2666728,-1609.0,1226.0,770.0,0.762,0.389,0.071,-0.514
2666745,-2149.0,-274.0,666.0,0.761,0.384,0.081,-0.516
2666762,-2291.0,-658.0,548.0,0.76,0.38,0.09,-0.519
2666778,-1595.0,-66.0,1380.0,0.759,0.377,0.099,-0.522
2666795,-1481.0,6.0,270.0,0.758,0.374,0.108,-0.522
2666822,-2505.0,-884.0,-86.0,0.758,0.373,0.118,-0.522
2666838,-2981.0,-1610.0,-90.0,0.757,0.373,0.126,-0.521
2666854,-3347.0,-1306.0,-238.0,0.756,0.375,0.133,-0.52
2666870,-3739.0,-200.0,-106.0,0.755,0.377,0.136,-0.518
2666886,-4329.0,-74.0,-26.0,0.756,0.379,0.137,-0.515
2666902,-4721.0,-820.0,568.0,0.758,0.38,0.135,-0.512
2666919,-4941.0,-42.0,838.0,0.761,0.382,0.127,-0.509
2666945,-4117.0,382.0,1240.0,0.765,0.382,0.116,-0.506
2666961,-3705.0,416.0,1510.0,0.769,0.383,0.102,-0.502
2666978,-2949.0,1180.0,1656.0,0.773,0.385,0.085,-0.497
2666995,-2589.0,1706.0,1728.0,0.778,0.388,0.066,-0.49
2667011,-2105.0,1532.0,1890.0,0.782,0.392,0.045,-0.483
2667028,-1369.0,3084.0,2438.0,0.785,0.398,0.022,-0.474
2667045,-1405.0,5632.0,2834.0,0.788,0.404,-0.002,-0.465
2667071,-903.0,5738.0,3016.0,0.792,0.407,-0.026,-0.453
2667087,-971.0,3968.0,3506.0,0.796,0.41,-0.053,-0.441
2667103,-411.0,4880.0,3818.0,0.798,0.415,-0.083,-0.429
2667119,921.0,5608.0,3076.0,0.797,0.422,-0.115,-0.417
2667135,1527.0,6256.0,2864.0,0.793,0.431,-0.149,-0.405
2667151,1795.0,8956.0,2744.0,0.787,0.44,-0.183,-0.392
2667167,2633.0,9578.0,2046.0,0.781,0.446,-0.218,-0.379
2667193,4793.0,8568.0,1916.0,0.775,0.451,-0.249,-0.365
2667210,4479.0,9474.0,1916.0,0.768,0.457,-0.276,-0.353
2667227,4977.0,10458.0,2166.0,0.762,0.463,-0.3,-0.34
2667244,4025.0,10616.0,2646.0,0.755,0.468,-0.321,-0.328
2667261,3801.0,10804.0,3036.0,0.75,0.471,-0.342,-0.315
2667278,4129.0,10360.0,2694.0,0.743,0.474,-0.361,-0.304
2667294,4379.0,11254.0,2396.0,0.737,0.476,-0.38,-0.292
2667311,4163.0,12008.0,2884.0,0.732,0.476,-0.399,-0.279
2667328,3803.0,10672.0,3028.0,0.727,0.474,-0.419,-0.268
2667344,4433.0,11300.0,2924.0,0.72,0.472,-0.439,-0.258
2667371,4705.0,10952.0,3000.0,0.711,0.47,-0.459,-0.248
2667387,5353.0,11136.0,2924.0,0.703,0.468,-0.479,-0.239
2667403,5733.0,11114.0,2910.0,0.694,0.464,-0.5,-0.231
2667419,6779.0,10420.0,3002.0,0.685,0.46,-0.519,-0.224
2667435,6759.0,10136.0,2280.0,0.677,0.457,-0.536,-0.216
2667451,6991.0,10076.0,2290.0,0.668,0.454,-0.551,-0.208
2667477,6465.0,10672.0,2604.0,0.661,0.451,-0.565,-0.203
2667493,6125.0,9398.0,2832.0,0.654,0.448,-0.577,-0.199
2667510,6267.0,9978.0,2786.0,0.647,0.446,-0.587,-0.196
2667527,5907.0,9772.0,3082.0,0.641,0.444,-0.596,-0.194
2667543,5141.0,9884.0,4214.0,0.635,0.442,-0.603,-0.193
2667560,5577.0,11098.0,3696.0,0.629,0.441,-0.61,-0.192
2667577,5311.0,10286.0,3886.0,0.625,0.438,-0.616,-0.194
2667593,5467.0,10550.0,4172.0,0.622,0.436,-0.62,-0.196
2667610,5935.0,9644.0,3890.0,0.621,0.434,-0.622,-0.197
2667627,5655.0,9988.0,4484.0,0.621,0.433,-0.622,-0.199
2667654,5349.0,10330.0,5150.0,0.622,0.433,-0.621,-0.2
2667670,5395.0,10384.0,5210.0,0.625,0.433,-0.617,-0.203
2667686,5723.0,9710.0,4810.0,0.628,0.434,-0.612,-0.206
2667702,5861.0,9928.0,4492.0,0.633,0.436,-0.605,-0.209
2667718,6043.0,10728.0,4704.0,0.639,0.439,-0.596,-0.212
2667734,5921.0,11242.0,4540.0,0.645,0.443,-0.584,-0.215
2667760,5975.0,11760.0,4414.0,0.653,0.446,-0.571,-0.221
2667777,6475.0,11794.0,3984.0,0.661,0.45,-0.556,-0.228
2667794,6953.0,12110.0,3482.0,0.671,0.453,-0.538,-0.236
2667811,7407.0,12156.0,2804.0,0.681,0.456,-0.518,-0.244
2667828,7635.0,11594.0,2292.0,0.692,0.459,-0.496,-0.254
2667845,7381.0,11816.0,2360.0,0.703,0.462,-0.471,-0.265
2667862,6377.0,11454.0,2414.0,0.715,0.464,-0.444,-0.277
2667878,6241.0,11166.0,2242.0,0.725,0.465,-0.415,-0.291
2667895,6567.0,10448.0,1500.0,0.736,0.465,-0.386,-0.306
2667921,6753.0,10352.0,1518.0,0.745,0.465,-0.353,-0.322
2667937,6979.0,10204.0,1024.0,0.754,0.465,-0.318,-0.337
2667953,5333.0,9218.0,1620.0,0.762,0.464,-0.28,-0.353
2667969,4845.0,7964.0,1310.0,0.768,0.463,-0.241,-0.37
2667986,3411.0,7946.0,1676.0,0.772,0.463,-0.203,-0.385
2668002,1747.0,6840.0,2224.0,0.774,0.462,-0.166,-0.399
2668018,709.0,6952.0,2682.0,0.774,0.461,-0.131,-0.413
2668034,171.0,7326.0,2892.0,0.774,0.458,-0.099,-0.426
2668060,-277.0,6594.0,2406.0,0.774,0.453,-0.069,-0.438
2668077,-1065.0,5866.0,2032.0,0.773,0.446,-0.04,-0.449
2668094,-689.0,5734.0,1980.0,0.772,0.439,-0.013,-0.459
2668111,-607.0,5170.0,1442.0,0.772,0.431,0.014,-0.467
2668128,-669.0,3524.0,1140.0,0.771,0.424,0.04,-0.473
2668144,-685.0,3528.0,1670.0,0.769,0.419,0.065,-0.478
2668161,-1557.0,3352.0,2218.0,0.768,0.413,0.09,-0.481
2668178,-3149.0,3488.0,2632.0,0.766,0.405,0.115,-0.485
2668204,-2571.0,3212.0,1246.0,0.766,0.394,0.142,-0.489
2668220,-931.0,660.0,-396.0,0.763,0.386,0.168,-0.491
2668236,-467.0,960.0,-160.0,0.757,0.383,0.192,-0.493
2668252,-1971.0,1428.0,364.0,0.748,0.385,0.216,-0.495
2668268,-3783.0,1752.0,1120.0,0.741,0.386,0.236,-0.496
2668284,-3685.0,1438.0,1042.0,0.735,0.382,0.255,-0.498
2668310,-4187.0,-250.0,988.0,0.732,0.375,0.271,-0.5
2668327,-4403.0,-3346.0,626.0,0.73,0.368,0.283,-0.502
2668344,-4319.0,-2826.0,-258.0,0.727,0.363,0.29,-0.505
2668361,-4765.0,-2424.0,-590.0,0.727,0.358,0.294,-0.508
2668377,-5489.0,-2668.0,-272.0,0.728,0.353,0.293,-0.509
2668394,-5481.0,-2876.0,-44.0,0.733,0.348,0.289,-0.508
2668411,-5277.0,-3380.0,-330.0,0.74,0.343,0.279,-0.507
2668428,-4663.0,-2542.0,-1142.0,0.748,0.338,0.267,-0.505
2668445,-4299.0,-1974.0,-814.0,0.757,0.336,0.25,-0.501
2668462,-4681.0,-788.0,-22.0,0.767,0.335,0.231,-0.496
2668479,-4471.0,24.0,888.0,0.778,0.334,0.208,-0.49
2668496,-3855.0,922.0,1338.0,0.79,0.332,0.182,-0.482
2668512,-3039.0,1158.0,1684.0,0.802,0.329,0.155,-0.474
2668538,-1843.0,940.0,1708.0,0.813,0.326,0.125,-0.465
2668554,-493.0,542.0,2452.0,0.823,0.327,0.094,-0.455
2668570,41.0,1254.0,2816.0,0.83,0.332,0.061,-0.444
2668587,999.0,3826.0,3022.0,0.834,0.339,0.026,-0.434
2668604,1999.0,5128.0,3076.0,0.837,0.348,-0.009,-0.422
2668621,2677.0,5188.0,3324.0,0.838,0.358,-0.044,-0.409
2668637,2889.0,6324.0,3444.0,0.837,0.371,-0.081,-0.393
2668663,3457.0,7514.0,3674.0,0.835,0.382,-0.116,-0.378
2668679,3015.0,7454.0,3390.0,0.831,0.394,-0.151,-0.362
2668695,4453.0,7756.0,3312.0,0.826,0.406,-0.183,-0.346
2668711,4743.0,9368.0,3084.0,0.817,0.421,-0.216,-0.328
2668727,4845.0,11808.0,3906.0,0.809,0.435,-0.247,-0.307
2668744,4491.0,12892.0,3872.0,0.803,0.443,-0.277,-0.288
2668761,5385.0,9834.0,2296.0,0.797,0.446,-0.303,-0.271
2668778,6271.0,10806.0,1858.0,0.79,0.453,-0.327,-0.254
2668804,5349.0,12164.0,3336.0,0.782,0.459,-0.348,-0.238
2668820,4549.0,13118.0,4546.0,0.775,0.461,-0.368,-0.226
2668836,4965.0,10238.0,3250.0,0.77,0.46,-0.387,-0.217
2668852,4711.0,9212.0,2940.0,0.762,0.462,-0.405,-0.205
2668868,3689.0,11608.0,4774.0,0.753,0.465,-0.423,-0.196
2668884,4087.0,11624.0,4186.0,0.745,0.463,-0.441,-0.191
2668910,3977.0,9316.0,3386.0,0.736,0.46,-0.46,-0.187
2668926,4563.0,10118.0,3316.0,0.726,0.458,-0.477,-0.185
2668942,4333.0,10136.0,2822.0,0.717,0.455,-0.495,-0.185
2668959,4849.0,8840.0,3042.0,0.709,0.45,-0.511,-0.184
2668975,5359.0,9316.0,2988.0,0.7,0.447,-0.527,-0.182
2668991,5161.0,9864.0,3704.0,0.692,0.444,-0.54,-0.181
2669008,5511.0,9084.0,3502.0,0.684,0.44,-0.552,-0.181
2669034,5099.0,9598.0,3260.0,0.678,0.437,-0.564,-0.181
2669050,5493.0,9608.0,4166.0,0.671,0.433,-0.574,-0.18
2669066,5223.0,9778.0,4980.0,0.666,0.428,-0.583,-0.181
2669082,5457.0,9646.0,5062.0,0.661,0.424,-0.592,-0.183
2669098,6039.0,9138.0,4802.0,0.658,0.419,-0.598,-0.185
2669124,6249.0,9432.0,4906.0,0.655,0.415,-0.603,-0.186
2669140,6233.0,10516.0,5618.0,0.654,0.411,-0.606,-0.189
2669156,6483.0,9432.0,5258.0,0.655,0.406,-0.607,-0.192
2669172,6685.0,8434.0,4814.0,0.658,0.404,-0.605,-0.195
2669188,6927.0,9660.0,5210.0,0.661,0.404,-0.602,-0.197
2669204,6561.0,10356.0,6180.0,0.665,0.403,-0.596,-0.199
2669220,6825.0,10444.0,5906.0,0.672,0.401,-0.588,-0.205
2669247,7123.0,8976.0,5760.0,0.678,0.4,-0.579,-0.212
2669263,7159.0,9280.0,5808.0,0.685,0.402,-0.567,-0.217
2669279,6839.0,10832.0,6288.0,0.693,0.403,-0.554,-0.224
2669295,7439.0,10186.0,5280.0,0.702,0.404,-0.539,-0.23
2669311,7353.0,9240.0,4180.0,0.712,0.408,-0.521,-0.236
2669327,6877.0,10392.0,4046.0,0.72,0.415,-0.501,-0.24
2669353,6713.0,11148.0,3642.0,0.73,0.422,-0.48,-0.245
2669369,6065.0,10680.0,3316.0,0.738,0.429,-0.456,-0.249
2669385,5719.0,10828.0,3326.0,0.747,0.435,-0.432,-0.255
2669401,5255.0,10950.0,3442.0,0.756,0.44,-0.408,-0.262
2669417,5257.0,10658.0,3442.0,0.764,0.442,-0.384,-0.27
2669443,5221.0,10166.0,3296.0,0.773,0.443,-0.359,-0.279
2669460,5563.0,9036.0,2670.0,0.78,0.444,-0.334,-0.288
2669477,5423.0,8766.0,2260.0,0.786,0.447,-0.309,-0.296
2669493,4671.0,9892.0,2860.0,0.79,0.449,-0.284,-0.306
2669509,4823.0,9560.0,2476.0,0.794,0.45,-0.259,-0.316
2669525,3667.0,8802.0,2560.0,0.799,0.448,-0.233,-0.326
2669542,3107.0,8212.0,2772.0,0.803,0.446,-0.209,-0.337
2669558,3705.0,6386.0,1328.0,0.806,0.443,-0.186,-0.345
2669575,2431.0,6184.0,1820.0,0.808,0.442,-0.163,-0.353
2669602,1455.0,7026.0,2702.0,0.811,0.44,-0.14,-0.36
2669618,393.0,6390.0,2794.0,0.814,0.433,-0.117,-0.369
2669634,827.0,4900.0,1978.0,0.817,0.425,-0.096,-0.378
2669650,639.0,5030.0,1772.0,0.82,0.417,-0.077,-0.384
2669666,941.0,3228.0,844.0,0.824,0.409,-0.057,-0.388
2669682,265.0,2942.0,1000.0,0.826,0.403,-0.037,-0.392
2669698,-41.0,2986.0,1194.0,0.828,0.396,-0.016,-0.397
2669725,-371.0,2856.0,1608.0,0.83,0.388,0.005,-0.401
2669742,-53.0,2186.0,910.0,0.832,0.379,0.026,-0.404
2669759,263.0,496.0,298.0,0.834,0.37,0.048,-0.407
2669776,-129.0,-106.0,142.0,0.834,0.364,0.07,-0.408
2669793,-1263.0,-214.0,108.0,0.834,0.357,0.093,-0.41
2669810,-1947.0,-948.0,-152.0,0.833,0.35,0.117,-0.412
2669827,-2337.0,-3318.0,98.0,0.832,0.346,0.138,-0.412
2669844,-3893.0,-3880.0,-224.0,0.828,0.349,0.152,-0.413
2669861,-3695.0,-2180.0,-370.0,0.821,0.355,0.162,-0.416
2669877,-3461.0,-2156.0,-40.0,0.814,0.363,0.172,-0.42
2669894,-3483.0,2560.0,1908.0,0.807,0.372,0.177,-0.424
2669921,-4895.0,4608.0,2352.0,0.806,0.374,0.18,-0.422
2669937,-5935.0,3166.0,450.0,0.812,0.369,0.179,-0.416
2669953,-5247.0,-254.0,1360.0,0.82,0.361,0.173,-0.408
2669969,-3709.0,-1714.0,600.0,0.828,0.354,0.162,-0.403
2669985,-3121.0,420.0,906.0,0.835,0.35,0.148,-0.398
2670001,-3663.0,1762.0,1988.0,0.842,0.346,0.129,-0.393
2670027,-2727.0,1762.0,2494.0,0.849,0.343,0.107,-0.387
2670043,-1569.0,2320.0,2538.0,0.855,0.34,0.083,-0.381
2670059,-597.0,3666.0,2856.0,0.861,0.339,0.058,-0.375
2670075,-75.0,3892.0,3056.0,0.866,0.338,0.032,-0.367
2670091,767.0,2124.0,3442.0,0.869,0.341,0.006,-0.358
2670107,957.0,3408.0,3730.0,0.869,0.349,-0.021,-0.35
2670124,1193.0,6020.0,3726.0,0.868,0.358,-0.049,-0.341
2670151,1515.0,5978.0,3990.0,0.866,0.367,-0.075,-0.331
2670168,1517.0,5964.0,4262.0,0.863,0.377,-0.103,-0.32
2670185,1639.0,6776.0,4288.0,0.858,0.388,-0.131,-0.308
2670201,2525.0,7792.0,3680.0,0.853,0.4,-0.16,-0.295
2670217,2503.0,8084.0,4154.0,0.847,0.411,-0.188,-0.282
2670233,2509.0,8744.0,4392.0,0.84,0.419,-0.215,-0.269
2670249,2999.0,8458.0,3530.0,0.833,0.426,-0.242,-0.255
2670265,3843.0,8262.0,3214.0,0.826,0.434,-0.269,-0.24
2670291,3961.0,10130.0,4054.0,0.817,0.44,-0.295,-0.226
2670308,3805.0,9892.0,3998.0,0.809,0.444,-0.32,-0.213
2670325,5061.0,10062.0,3686.0,0.801,0.447,-0.344,-0.201
2670341,5285.0,10144.0,3510.0,0.792,0.45,-0.367,-0.189
2670358,6199.0,10370.0,3192.0,0.783,0.453,-0.389,-0.178
2670375,6355.0,11298.0,3774.0,0.773,0.455,-0.409,-0.167
2670392,5987.0,11018.0,3906.0,0.765,0.455,-0.427,-0.159
2670409,5355.0,10368.0,3932.0,0.757,0.454,-0.445,-0.153
2670426,5753.0,9746.0,3606.0,0.749,0.452,-0.462,-0.147
2670443,5579.0,8800.0,3512.0,0.741,0.451,-0.477,-0.142
2670469,5665.0,9246.0,3672.0,0.733,0.449,-0.493,-0.136
2670485,5609.0,8620.0,3770.0,0.725,0.447,-0.507,-0.131
2670502,6015.0,7866.0,3234.0,0.718,0.445,-0.521,-0.126
2670518,5953.0,7776.0,2868.0,0.71,0.443,-0.534,-0.12
2670534,6121.0,8434.0,2888.0,0.703,0.442,-0.546,-0.113
2670550,6479.0,8888.0,2862.0,0.695,0.439,-0.558,-0.107
2670566,6259.0,8434.0,2648.0,0.688,0.437,-0.571,-0.102
2670592,6505.0,8720.0,2598.0,0.681,0.433,-0.582,-0.098
2670609,6777.0,8670.0,2604.0,0.674,0.43,-0.593,-0.096
2670626,7043.0,8728.0,2362.0,0.668,0.426,-0.603,-0.095
2670643,6905.0,8544.0,2312.0,0.662,0.422,-0.612,-0.095
2670659,6805.0,8840.0,2472.0,0.657,0.419,-0.619,-0.097
2670676,6393.0,8912.0,2158.0,0.653,0.415,-0.626,-0.1
2670693,6563.0,8766.0,2824.0,0.65,0.411,-0.631,-0.105
2670710,6503.0,8418.0,3242.0,0.647,0.408,-0.634,-0.11
2670726,6497.0,8542.0,3678.0,0.646,0.405,-0.637,-0.116
2670743,6533.0,8652.0,3878.0,0.646,0.402,-0.638,-0.123
2670769,6697.0,8770.0,4380.0,0.646,0.4,-0.637,-0.13
2670785,6671.0,8862.0,4538.0,0.648,0.398,-0.634,-0.137
2670801,6755.0,8792.0,4468.0,0.652,0.398,-0.629,-0.144
2670817,6239.0,9584.0,4920.0,0.657,0.399,-0.621,-0.15
2670833,6577.0,10094.0,4554.0,0.664,0.401,-0.611,-0.156
2670849,7663.0,9756.0,3500.0,0.673,0.403,-0.599,-0.16
2670875,7829.0,9866.0,2910.0,0.683,0.408,-0.583,-0.164
2670891,7261.0,11874.0,4306.0,0.693,0.414,-0.565,-0.169
2670907,7193.0,12392.0,5000.0,0.704,0.417,-0.546,-0.179
2670923,8157.0,10694.0,4120.0,0.716,0.419,-0.525,-0.189
2670939,7813.0,10072.0,4102.0,0.728,0.42,-0.503,-0.2
2670955,7485.0,10086.0,4218.0,0.738,0.423,-0.48,-0.212
2670981,8139.0,10650.0,3876.0,0.747,0.427,-0.457,-0.225
2670997,8233.0,11416.0,3622.0,0.756,0.429,-0.432,-0.239
2671013,7779.0,10932.0,3734.0,0.764,0.431,-0.407,-0.253
2671029,7137.0,10390.0,3532.0,0.772,0.431,-0.381,-0.269
2671045,6379.0,10424.0,3542.0,0.78,0.431,-0.354,-0.284
2671061,5315.0,9576.0,3376.0,0.787,0.43,-0.328,-0.298
2671087,4525.0,8942.0,3398.0,0.793,0.428,-0.303,-0.31
2671103,4153.0,8928.0,3152.0,0.798,0.426,-0.279,-0.323
2671119,4007.0,8654.0,2612.0,0.803,0.422,-0.256,-0.335
2671135,3937.0,8686.0,2152.0,0.808,0.416,-0.232,-0.346
2671151,3593.0,7592.0,2704.0,0.814,0.408,-0.211,-0.356
2671177,3111.0,6764.0,2304.0,0.82,0.399,-0.189,-0.365
2671194,2833.0,5582.0,2270.0,0.825,0.39,-0.168,-0.373
2671210,2621.0,4962.0,2452.0,0.829,0.382,-0.147,-0.38
2671227,1631.0,5284.0,2178.0,0.833,0.374,-0.128,-0.386
2671244,1639.0,4716.0,2232.0,0.837,0.365,-0.11,-0.392
2671260,-1193.0,3746.0,1080.0,0.841,0.356,-0.092,-0.398
2671276,765.0,2318.0,1958.0,0.843,0.346,-0.075,-0.404
2671293,-199.0,2096.0,1706.0,0.845,0.336,-0.058,-0.411
2671309,-613.0,1678.0,1594.0,0.847,0.327,-0.042,-0.417
2671336,-791.0,1568.0,864.0,0.848,0.318,-0.027,-0.422
2671353,-775.0,76.0,340.0,0.85,0.309,-0.012,-0.427
2671369,-951.0,-844.0,204.0,0.85,0.302,0.004,-0.431
2671385,-1469.0,-962.0,-502.0,0.849,0.298,0.019,-0.436
2671401,-1071.0,-1150.0,-634.0,0.848,0.296,0.033,-0.439
2671417,-1289.0,-1592.0,-1354.0,0.846,0.297,0.045,-0.441
2671433,-1337.0,-3380.0,-268.0,0.842,0.304,0.053,-0.442
2671459,-3341.0,104.0,-94.0,0.837,0.314,0.056,-0.444
2671475,-2753.0,3744.0,1342.0,0.834,0.319,0.059,-0.446
2671492,-1791.0,2120.0,1540.0,0.834,0.32,0.061,-0.445
2671509,-4413.0,648.0,-92.0,0.839,0.312,0.062,-0.442
2671526,-3601.0,-478.0,1618.0,0.844,0.304,0.058,-0.437
2671542,-5175.0,-1040.0,1084.0,0.851,0.297,0.044,-0.431
2671559,-3797.0,750.0,1388.0,0.858,0.289,0.026,-0.423
2671576,-2773.0,-618.0,1754.0,0.866,0.279,0.004,-0.415
2671593,-1495.0,-2962.0,712.0,0.871,0.275,-0.023,-0.407
2671610,463.0,-550.0,958.0,0.872,0.277,-0.053,-0.399
2671637,1177.0,2968.0,1326.0,0.873,0.281,-0.083,-0.39
2671653,1105.0,4334.0,2258.0,0.874,0.283,-0.111,-0.378
2671669,845.0,4006.0,2728.0,0.875,0.284,-0.141,-0.365
2671685,2399.0,3798.0,2638.0,0.876,0.284,-0.172,-0.351
2671701,4683.0,2526.0,2430.0,0.875,0.285,-0.202,-0.336
2671717,5221.0,3198.0,2210.0,0.871,0.291,-0.23,-0.323
2671743,5829.0,5706.0,2560.0,0.864,0.3,-0.258,-0.31
2671760,5641.0,6794.0,3016.0,0.857,0.31,-0.285,-0.298
2671776,5335.0,6638.0,3662.0,0.848,0.319,-0.312,-0.286
2671792,5533.0,6654.0,3696.0,0.837,0.329,-0.34,-0.274
2671809,6667.0,7526.0,2252.0,0.825,0.34,-0.368,-0.262
2671826,8229.0,9126.0,2044.0,0.813,0.348,-0.394,-0.25
2671842,7677.0,8992.0,2790.0,0.802,0.356,-0.418,-0.237
2671859,7953.0,9698.0,3494.0,0.79,0.362,-0.44,-0.225
2671885,8659.0,11166.0,3126.0,0.779,0.366,-0.462,-0.212
2671901,10107.0,9816.0,2732.0,0.771,0.366,-0.482,-0.198
2671917,9203.0,10372.0,2116.0,0.765,0.362,-0.499,-0.184
2671933,7767.0,7262.0,3612.0,0.758,0.361,-0.516,-0.171
2671949,7395.0,8292.0,3480.0,0.747,0.364,-0.532,-0.163
2671965,8941.0,10810.0,3516.0,0.735,0.364,-0.549,-0.157
2671991,7991.0,9630.0,3690.0,0.725,0.363,-0.566,-0.151
2672007,7605.0,9042.0,3258.0,0.713,0.36,-0.584,-0.146
