timeMs,ax,ay,az,q0,q1,q2,q3
758923,5362.0,7816.0,274.0,0.372,0.817,0.056,0.437
758939,5642.0,7992.0,-64.0,0.377,0.816,0.058,0.435
758955,5488.0,8084.0,-504.0,0.382,0.813,0.062,0.434
758971,5374.0,8196.0,-922.0,0.389,0.811,0.066,0.433
758987,5174.0,8448.0,-1222.0,0.396,0.808,0.071,0.431
759014,4968.0,8372.0,-1516.0,0.404,0.805,0.076,0.428
759031,4760.0,8686.0,-1812.0,0.414,0.802,0.081,0.424
759047,4640.0,8866.0,-2302.0,0.425,0.798,0.086,0.419
759063,4486.0,8680.0,-2480.0,0.437,0.794,0.091,0.413
759079,4152.0,8604.0,-2520.0,0.449,0.79,0.095,0.407
759095,3634.0,8634.0,-2626.0,0.463,0.785,0.099,0.399
759121,3724.0,8284.0,-2780.0,0.478,0.781,0.102,0.389
759138,3362.0,8070.0,-2896.0,0.494,0.776,0.105,0.378
759155,2918.0,8086.0,-2834.0,0.51,0.771,0.106,0.367
759172,2794.0,7822.0,-2994.0,0.527,0.766,0.107,0.353
759188,2710.0,7872.0,-3032.0,0.545,0.76,0.106,0.339
759205,2298.0,7546.0,-2910.0,0.563,0.753,0.105,0.324
759222,2208.0,7410.0,-2894.0,0.581,0.746,0.102,0.309
759239,2134.0,7306.0,-2784.0,0.6,0.738,0.098,0.293
759255,1726.0,6796.0,-2438.0,0.618,0.73,0.092,0.277
759272,1632.0,6530.0,-2142.0,0.637,0.72,0.086,0.262
759289,1548.0,6328.0,-2048.0,0.655,0.71,0.078,0.247
759315,1398.0,6000.0,-1648.0,0.672,0.7,0.069,0.232
759332,1412.0,5488.0,-1296.0,0.689,0.689,0.058,0.218
759348,1416.0,5398.0,-1224.0,0.704,0.678,0.047,0.204
759365,1690.0,5108.0,-966.0,0.719,0.667,0.034,0.192
759382,1608.0,5018.0,-716.0,0.733,0.656,0.02,0.179
759399,2076.0,4918.0,-552.0,0.747,0.644,0.004,0.167
759417,3254.0,4298.0,478.0,0.759,0.632,-0.013,0.156
759434,4680.0,4394.0,2408.0,0.771,0.619,-0.029,0.148
759450,5870.0,5008.0,4290.0,0.782,0.605,-0.045,0.142
759467,6738.0,6416.0,6068.0,0.793,0.59,-0.06,0.138
759484,5894.0,6790.0,5720.0,0.804,0.575,-0.075,0.134
759501,4576.0,6052.0,3640.0,0.814,0.559,-0.091,0.132
759528,4556.0,5828.0,2816.0,0.824,0.541,-0.106,0.13
759544,4880.0,6366.0,3390.0,0.834,0.523,-0.119,0.129
759561,4312.0,5408.0,4916.0,0.844,0.505,-0.13,0.127
759577,3654.0,4810.0,5826.0,0.851,0.491,-0.14,0.124
759593,2802.0,4658.0,5790.0,0.856,0.48,-0.15,0.121
759609,3072.0,3806.0,4838.0,0.858,0.474,-0.161,0.119
759625,3220.0,3980.0,3562.0,0.857,0.471,-0.172,0.117
759651,3848.0,5262.0,3224.0,0.856,0.469,-0.182,0.117
759668,4854.0,5104.0,3896.0,0.856,0.466,-0.192,0.117
759685,5022.0,4718.0,3870.0,0.854,0.465,-0.2,0.119
759702,5602.0,5244.0,3854.0,0.853,0.464,-0.207,0.121
759718,5836.0,5764.0,3752.0,0.852,0.464,-0.212,0.123
759734,5962.0,5922.0,3918.0,0.852,0.462,-0.214,0.125
759750,5672.0,5532.0,4264.0,0.853,0.458,-0.216,0.128
759766,5516.0,4990.0,4556.0,0.854,0.455,-0.217,0.131
759792,5038.0,5138.0,4644.0,0.854,0.452,-0.218,0.134
759809,4784.0,4802.0,4512.0,0.855,0.449,-0.218,0.137
759826,4746.0,5084.0,4712.0,0.856,0.446,-0.219,0.139
759843,4558.0,4822.0,5020.0,0.858,0.443,-0.219,0.142
759860,4622.0,5154.0,5236.0,0.859,0.44,-0.219,0.144
759877,4674.0,5404.0,5528.0,0.86,0.438,-0.219,0.146
759893,4870.0,5348.0,5630.0,0.861,0.435,-0.219,0.147
759909,4814.0,5362.0,5622.0,0.862,0.433,-0.218,0.148
759925,4552.0,5420.0,5326.0,0.863,0.431,-0.218,0.148
759951,4324.0,5236.0,5134.0,0.864,0.429,-0.217,0.147
759968,4134.0,5220.0,4802.0,0.866,0.427,-0.216,0.146
759985,3938.0,4954.0,4724.0,0.868,0.424,-0.216,0.144
760002,3904.0,4916.0,4846.0,0.87,0.42,-0.216,0.142
760019,4000.0,4666.0,4932.0,0.872,0.415,-0.217,0.14
760036,3878.0,4400.0,4780.0,0.875,0.41,-0.219,0.139
760053,4110.0,4592.0,4934.0,0.877,0.404,-0.221,0.138
760070,4484.0,4496.0,5382.0,0.88,0.397,-0.223,0.138
760087,4568.0,4330.0,5626.0,0.883,0.389,-0.225,0.138
760104,4428.0,4222.0,5624.0,0.886,0.38,-0.227,0.139
760120,4270.0,3754.0,5264.0,0.889,0.371,-0.23,0.14
760147,4094.0,3344.0,4982.0,0.891,0.362,-0.234,0.141
760163,3982.0,2826.0,4808.0,0.894,0.353,-0.239,0.142
760179,3988.0,2400.0,4786.0,0.895,0.344,-0.244,0.143
760195,4102.0,2654.0,4596.0,0.897,0.337,-0.249,0.143
760212,4062.0,2394.0,4494.0,0.897,0.33,-0.255,0.143
760228,4074.0,2436.0,4532.0,0.898,0.326,-0.26,0.142
760245,4406.0,2766.0,4912.0,0.898,0.323,-0.265,0.141
760262,5360.0,3088.0,5936.0,0.897,0.321,-0.268,0.139
760288,5914.0,3212.0,6924.0,0.897,0.322,-0.27,0.137
760305,5962.0,3012.0,6930.0,0.896,0.325,-0.27,0.135
760321,5680.0,3558.0,5826.0,0.896,0.328,-0.269,0.133
760338,5250.0,3528.0,5948.0,0.896,0.331,-0.267,0.131
760355,5198.0,3872.0,6120.0,0.896,0.333,-0.264,0.131
760371,4796.0,4090.0,6076.0,0.896,0.333,-0.262,0.131
760388,4382.0,4172.0,5646.0,0.897,0.333,-0.261,0.132
760405,4380.0,3904.0,5384.0,0.897,0.331,-0.26,0.134
760421,4612.0,3744.0,5460.0,0.898,0.327,-0.261,0.137
760448,5064.0,3696.0,5702.0,0.899,0.322,-0.262,0.14
760465,5276.0,3264.0,5790.0,0.9,0.316,-0.264,0.142
760482,5332.0,2908.0,6056.0,0.901,0.311,-0.265,0.145
760498,5350.0,2790.0,5930.0,0.902,0.306,-0.265,0.147
760514,5638.0,2818.0,6226.0,0.903,0.303,-0.264,0.15
760531,5490.0,2672.0,5922.0,0.904,0.301,-0.262,0.152
760547,5462.0,3156.0,5914.0,0.905,0.299,-0.259,0.154
760564,5484.0,2806.0,5790.0,0.907,0.297,-0.255,0.155
760581,5344.0,2828.0,5690.0,0.909,0.296,-0.249,0.156
760598,5228.0,3010.0,5606.0,0.911,0.294,-0.242,0.157
760624,4936.0,2682.0,5862.0,0.914,0.292,-0.235,0.158
760640,4572.0,1994.0,6382.0,0.916,0.29,-0.228,0.16
760656,4392.0,2040.0,6740.0,0.917,0.291,-0.22,0.161
760672,4098.0,2888.0,6914.0,0.918,0.293,-0.213,0.164
760688,4074.0,2714.0,7590.0,0.917,0.295,-0.207,0.167
760705,4182.0,2584.0,7688.0,0.917,0.299,-0.202,0.171
760731,4170.0,3274.0,7000.0,0.915,0.304,-0.198,0.176
760747,4194.0,3760.0,6414.0,0.914,0.308,-0.194,0.18
760763,4220.0,3878.0,6160.0,0.913,0.311,-0.191,0.183
760780,4222.0,3706.0,6140.0,0.912,0.313,-0.188,0.187
760797,4144.0,4130.0,5788.0,0.911,0.315,-0.186,0.189
760814,4114.0,3920.0,5816.0,0.911,0.316,-0.184,0.191
760831,4096.0,3752.0,5928.0,0.91,0.317,-0.183,0.193
760848,3996.0,3684.0,6144.0,0.91,0.317,-0.182,0.194
760864,4022.0,3896.0,6222.0,0.91,0.317,-0.182,0.195
760890,3786.0,4306.0,5862.0,0.91,0.317,-0.182,0.195
760906,3582.0,4006.0,6202.0,0.911,0.315,-0.183,0.195
760923,3572.0,3630.0,6416.0,0.911,0.312,-0.184,0.195
760940,3520.0,3758.0,6386.0,0.912,0.31,-0.186,0.193
760957,3362.0,4306.0,6146.0,0.913,0.306,-0.188,0.192
760974,3318.0,3608.0,6626.0,0.915,0.302,-0.19,0.191
760990,3162.0,2940.0,7114.0,0.915,0.298,-0.193,0.19
761007,3366.0,2734.0,6998.0,0.916,0.295,-0.197,0.189
761024,3562.0,2980.0,6870.0,0.915,0.295,-0.201,0.188
761041,3546.0,2782.0,6934.0,0.914,0.294,-0.204,0.188
761058,3686.0,2686.0,7180.0,0.913,0.295,-0.208,0.189
761084,3956.0,2278.0,6888.0,0.912,0.297,-0.211,0.19
761100,4146.0,2370.0,6852.0,0.91,0.3,-0.214,0.191
761116,4252.0,3054.0,6546.0,0.908,0.304,-0.217,0.192
761132,4630.0,2854.0,6490.0,0.905,0.308,-0.219,0.194
761148,4678.0,2648.0,6074.0,0.903,0.312,-0.221,0.195
761164,4836.0,2702.0,5974.0,0.901,0.316,-0.222,0.197
761190,4598.0,3114.0,5730.0,0.899,0.322,-0.223,0.198
761206,4820.0,3146.0,5948.0,0.897,0.326,-0.223,0.2
761222,4498.0,3294.0,5920.0,0.894,0.331,-0.223,0.202
761238,4888.0,3342.0,6214.0,0.892,0.336,-0.224,0.203
761254,4732.0,3168.0,5820.0,0.889,0.341,-0.226,0.205
761280,4616.0,3660.0,5350.0,0.886,0.346,-0.228,0.206
761296,4696.0,3426.0,6346.0,0.884,0.351,-0.231,0.208
761312,4584.0,2838.0,7102.0,0.879,0.357,-0.237,0.208
761328,5496.0,3754.0,6664.0,0.874,0.365,-0.245,0.209
761344,6388.0,4306.0,6138.0,0.868,0.372,-0.252,0.211
761360,6856.0,4456.0,5260.0,0.863,0.378,-0.257,0.215
761386,6446.0,4196.0,4140.0,0.859,0.382,-0.259,0.222
761402,5930.0,3720.0,3840.0,0.856,0.386,-0.258,0.229
761418,5374.0,3910.0,3594.0,0.853,0.39,-0.255,0.237
761434,5190.0,4272.0,3264.0,0.85,0.394,-0.251,0.245
761450,5274.0,4634.0,3380.0,0.848,0.396,-0.247,0.252
761466,5120.0,4752.0,3658.0,0.846,0.398,-0.244,0.259
761492,5278.0,4630.0,4154.0,0.844,0.398,-0.242,0.266
761508,5224.0,4888.0,4594.0,0.842,0.398,-0.241,0.272
761524,5162.0,4390.0,5094.0,0.842,0.396,-0.241,0.278
761540,5294.0,4020.0,5430.0,0.841,0.394,-0.242,0.282
761556,5234.0,3956.0,5640.0,0.84,0.391,-0.243,0.286
761572,5464.0,3786.0,5624.0,0.84,0.389,-0.245,0.289
761598,5098.0,4108.0,5304.0,0.84,0.386,-0.247,0.291
761614,5288.0,3538.0,5180.0,0.84,0.383,-0.249,0.293
761630,5048.0,3532.0,4940.0,0.84,0.381,-0.251,0.293
761646,4962.0,3778.0,4960.0,0.841,0.378,-0.253,0.292
761662,5146.0,3242.0,5238.0,0.842,0.376,-0.256,0.29
761678,5376.0,3298.0,5308.0,0.843,0.374,-0.259,0.288
761704,5538.0,3508.0,5388.0,0.843,0.372,-0.262,0.286
761721,5338.0,3452.0,5278.0,0.844,0.369,-0.265,0.285
761738,5266.0,3350.0,5236.0,0.845,0.366,-0.267,0.285
761754,5206.0,3448.0,5180.0,0.845,0.364,-0.269,0.285
761770,5366.0,3216.0,5186.0,0.846,0.362,-0.271,0.284
761786,5380.0,3328.0,5158.0,0.846,0.36,-0.273,0.284
761802,5462.0,3212.0,5258.0,0.846,0.358,-0.275,0.283
761819,5766.0,2638.0,5292.0,0.846,0.357,-0.277,0.282
761845,5732.0,2978.0,5316.0,0.847,0.356,-0.278,0.282
761861,5858.0,2800.0,5178.0,0.847,0.355,-0.279,0.282
761877,5900.0,2362.0,5270.0,0.847,0.354,-0.28,0.281
761893,5912.0,2956.0,5264.0,0.847,0.354,-0.28,0.28
761909,5928.0,3076.0,5282.0,0.848,0.354,-0.28,0.28
761925,5936.0,2868.0,5150.0,0.848,0.353,-0.28,0.279
761951,5968.0,2544.0,5160.0,0.849,0.353,-0.28,0.278
761967,5752.0,2928.0,5166.0,0.849,0.353,-0.279,0.277
761983,5746.0,2846.0,5280.0,0.849,0.353,-0.279,0.277
761999,5684.0,2858.0,5254.0,0.849,0.353,-0.278,0.277
762015,5662.0,2580.0,5300.0,0.849,0.353,-0.278,0.278
762041,5550.0,2834.0,5350.0,0.849,0.353,-0.277,0.279
762057,5590.0,2792.0,5342.0,0.849,0.353,-0.277,0.28
762073,5586.0,2872.0,5334.0,0.848,0.353,-0.276,0.282
762089,5504.0,2914.0,5320.0,0.848,0.353,-0.276,0.284
762105,5496.0,3140.0,5288.0,0.847,0.353,-0.275,0.287
762121,5554.0,2794.0,5358.0,0.846,0.354,-0.275,0.289
762147,5568.0,3240.0,5366.0,0.845,0.354,-0.275,0.291
762163,5522.0,3232.0,5250.0,0.844,0.355,-0.275,0.292
762179,5696.0,3032.0,5420.0,0.843,0.356,-0.275,0.294
762195,5642.0,3210.0,5280.0,0.843,0.357,-0.275,0.294
762211,5736.0,3170.0,5178.0,0.842,0.359,-0.275,0.295
762227,5676.0,3288.0,5172.0,0.841,0.359,-0.275,0.296
762253,5416.0,3646.0,5242.0,0.841,0.36,-0.275,0.298
762269,5340.0,3284.0,5086.0,0.84,0.36,-0.275,0.298
762285,5362.0,3236.0,5066.0,0.84,0.36,-0.276,0.299
762301,5376.0,3348.0,5044.0,0.839,0.361,-0.277,0.298
762317,5550.0,3436.0,5046.0,0.839,0.361,-0.278,0.298
762343,5722.0,3548.0,4868.0,0.838,0.362,-0.28,0.297
762359,5746.0,3864.0,4748.0,0.839,0.362,-0.281,0.295
762375,5692.0,3714.0,4770.0,0.839,0.361,-0.283,0.293
762391,5806.0,3108.0,4922.0,0.84,0.361,-0.285,0.289
762407,6264.0,2612.0,4908.0,0.841,0.362,-0.286,0.284
762423,6766.0,2652.0,4374.0,0.842,0.364,-0.285,0.278
762439,6914.0,3104.0,4298.0,0.844,0.367,-0.283,0.271
762465,7084.0,3588.0,4614.0,0.847,0.368,-0.279,0.264
762481,6848.0,3210.0,4798.0,0.851,0.368,-0.274,0.256
762497,6784.0,3570.0,4664.0,0.855,0.368,-0.268,0.249
762513,6754.0,4046.0,4540.0,0.86,0.366,-0.261,0.242
762529,6688.0,2868.0,4840.0,0.865,0.363,-0.253,0.236
762555,6452.0,2498.0,5244.0,0.871,0.361,-0.242,0.23
762571,5896.0,3494.0,4928.0,0.875,0.361,-0.229,0.226
762587,4628.0,4574.0,4456.0,0.881,0.359,-0.216,0.221
762603,3704.0,3924.0,5614.0,0.886,0.355,-0.205,0.217
762619,3944.0,3116.0,6426.0,0.89,0.351,-0.196,0.214
762635,3810.0,2918.0,6674.0,0.894,0.349,-0.188,0.211
762651,3658.0,3394.0,6618.0,0.896,0.348,-0.18,0.209
762677,3534.0,3484.0,6434.0,0.898,0.348,-0.171,0.209
762693,3170.0,3774.0,6136.0,0.899,0.347,-0.163,0.211
762709,2522.0,4052.0,5898.0,0.901,0.345,-0.155,0.213
762725,2574.0,3672.0,5950.0,0.902,0.344,-0.148,0.216
762741,2574.0,3574.0,6114.0,0.903,0.342,-0.142,0.219
762757,2444.0,3838.0,6894.0,0.903,0.341,-0.136,0.223
762783,2424.0,3626.0,7122.0,0.903,0.341,-0.13,0.227
762799,2526.0,3916.0,7128.0,0.902,0.343,-0.126,0.231
762815,2690.0,4276.0,7014.0,0.901,0.345,-0.121,0.235
762831,2832.0,4396.0,6810.0,0.899,0.347,-0.116,0.24
762847,2948.0,4620.0,6744.0,0.898,0.349,-0.112,0.244
762873,3000.0,4806.0,6742.0,0.896,0.351,-0.107,0.249
762889,2896.0,4902.0,6670.0,0.895,0.353,-0.103,0.254
762905,2940.0,4694.0,6556.0,0.893,0.355,-0.099,0.258
762921,2788.0,4780.0,6096.0,0.892,0.357,-0.096,0.262
762937,2798.0,4964.0,5788.0,0.89,0.359,-0.094,0.266
762953,2878.0,5096.0,5792.0,0.888,0.36,-0.092,0.269
762979,3110.0,4966.0,5760.0,0.887,0.362,-0.091,0.272
762996,3206.0,5226.0,5756.0,0.886,0.362,-0.091,0.274
763012,3228.0,5158.0,5786.0,0.886,0.362,-0.091,0.275
763028,3080.0,5062.0,5560.0,0.886,0.361,-0.092,0.276
763044,2952.0,4784.0,5084.0,0.887,0.359,-0.093,0.276
763061,2294.0,5144.0,4612.0,0.888,0.355,-0.094,0.277
763077,2266.0,4836.0,5812.0,0.89,0.35,-0.098,0.276
763103,2260.0,4308.0,7046.0,0.892,0.344,-0.103,0.275
763120,2734.0,4116.0,7314.0,0.893,0.34,-0.109,0.274
763137,3340.0,4664.0,6942.0,0.894,0.337,-0.117,0.272
763154,3782.0,4588.0,6528.0,0.895,0.333,-0.124,0.27
763170,4014.0,4104.0,6300.0,0.897,0.327,-0.132,0.267
763186,3754.0,3376.0,6392.0,0.899,0.321,-0.139,0.264
763203,3398.0,3248.0,6430.0,0.901,0.315,-0.146,0.261
763220,3428.0,3522.0,6194.0,0.902,0.31,-0.154,0.257
763237,3510.0,2726.0,6496.0,0.904,0.304,-0.162,0.254
763253,3466.0,2488.0,6852.0,0.905,0.3,-0.17,0.251
763280,3750.0,2310.0,7062.0,0.905,0.297,-0.178,0.247
763297,4024.0,2422.0,7058.0,0.905,0.296,-0.186,0.245
763314,4014.0,2612.0,6820.0,0.904,0.296,-0.192,0.243
763330,3918.0,2450.0,7022.0,0.902,0.296,-0.199,0.241
763346,4106.0,2112.0,6596.0,0.9,0.299,-0.205,0.241
763362,4246.0,2878.0,6282.0,0.898,0.303,-0.21,0.241
763378,4652.0,2814.0,5804.0,0.895,0.307,-0.215,0.242
763394,4782.0,3288.0,5792.0,0.892,0.312,-0.217,0.243
763421,4772.0,3400.0,5908.0,0.89,0.317,-0.219,0.245
763437,4708.0,3220.0,5970.0,0.887,0.322,-0.22,0.246
763453,5008.0,3628.0,6122.0,0.884,0.328,-0.221,0.248
763469,5190.0,3938.0,6186.0,0.882,0.333,-0.222,0.25
763485,5366.0,4202.0,6524.0,0.879,0.338,-0.222,0.252
763502,5426.0,3934.0,6734.0,0.877,0.342,-0.223,0.254
763519,5080.0,3812.0,6414.0,0.874,0.346,-0.224,0.257
763536,4838.0,3228.0,6052.0,0.872,0.347,-0.226,0.26
763563,4456.0,3156.0,5778.0,0.87,0.349,-0.229,0.263
763579,4802.0,3102.0,5364.0,0.867,0.351,-0.234,0.267
763595,5068.0,3388.0,4950.0,0.863,0.353,-0.239,0.271
763611,5272.0,3222.0,4412.0,0.86,0.354,-0.244,0.276
763627,5508.0,3200.0,4298.0,0.857,0.355,-0.248,0.281
763643,5554.0,3246.0,4400.0,0.853,0.355,-0.252,0.286
763660,5742.0,3386.0,4536.0,0.851,0.355,-0.255,0.292
763686,5866.0,3528.0,4700.0,0.848,0.355,-0.257,0.298
763702,5812.0,3406.0,4804.0,0.845,0.354,-0.259,0.304
763718,5782.0,3520.0,4860.0,0.843,0.354,-0.261,0.31
763734,5854.0,3596.0,5016.0,0.841,0.354,-0.262,0.316
763750,5800.0,3686.0,5244.0,0.839,0.354,-0.262,0.32
763766,5802.0,3746.0,5328.0,0.837,0.353,-0.263,0.324
763792,5848.0,3768.0,5434.0,0.836,0.352,-0.263,0.327
763808,5724.0,3952.0,5470.0,0.836,0.351,-0.263,0.329
763824,5628.0,3472.0,5504.0,0.837,0.349,-0.264,0.329
763840,5494.0,2872.0,5454.0,0.838,0.347,-0.265,0.329
763856,5364.0,3134.0,5310.0,0.839,0.346,-0.265,0.327
763872,5678.0,2618.0,5272.0,0.84,0.344,-0.266,0.325
763898,5642.0,2984.0,5136.0,0.841,0.342,-0.267,0.322
763914,5652.0,2744.0,5146.0,0.843,0.339,-0.268,0.319
763930,5542.0,2546.0,5158.0,0.845,0.337,-0.269,0.317
763946,5480.0,2698.0,5182.0,0.846,0.334,-0.27,0.315
763962,5430.0,2692.0,5424.0,0.848,0.331,-0.271,0.314
763988,5404.0,2432.0,5530.0,0.849,0.329,-0.271,0.313
764004,5448.0,2792.0,5584.0,0.85,0.327,-0.272,0.312
764020,5582.0,2844.0,5626.0,0.85,0.326,-0.273,0.311
764036,5670.0,2946.0,5570.0,0.851,0.324,-0.274,0.31
764052,5770.0,2190.0,5580.0,0.851,0.323,-0.274,0.309
764068,5716.0,2540.0,5494.0,0.852,0.323,-0.274,0.308
764094,6122.0,1826.0,5578.0,0.852,0.324,-0.273,0.307
764110,6228.0,2692.0,5476.0,0.853,0.327,-0.27,0.305
764126,6364.0,3016.0,5376.0,0.854,0.329,-0.267,0.302
764142,6512.0,3122.0,5352.0,0.856,0.33,-0.263,0.3
764158,6688.0,2998.0,5184.0,0.858,0.331,-0.257,0.297
764174,6638.0,2130.0,4802.0,0.861,0.332,-0.249,0.293
764200,5958.0,3978.0,4614.0,0.865,0.333,-0.24,0.289
764216,6052.0,4000.0,5064.0,0.87,0.33,-0.232,0.284
764232,5894.0,3010.0,5418.0,0.875,0.326,-0.223,0.28
764248,5832.0,3130.0,5404.0,0.88,0.322,-0.213,0.276
764264,5330.0,3628.0,4914.0,0.886,0.318,-0.202,0.272
764280,4408.0,3692.0,4888.0,0.891,0.312,-0.191,0.269
764306,3856.0,3442.0,6078.0,0.897,0.304,-0.181,0.266
764323,3358.0,3124.0,6962.0,0.901,0.297,-0.173,0.265
764340,2852.0,2980.0,7378.0,0.905,0.291,-0.166,0.264
764357,2632.0,3012.0,7386.0,0.907,0.285,-0.161,0.264
764373,2506.0,3044.0,7252.0,0.909,0.281,-0.157,0.264
764390,2510.0,2834.0,7218.0,0.911,0.277,-0.153,0.264
764406,2592.0,2622.0,7206.0,0.913,0.273,-0.151,0.265
764423,2580.0,2558.0,7206.0,0.914,0.269,-0.149,0.265
764439,2684.0,2302.0,7378.0,0.915,0.267,-0.147,0.265
764456,2810.0,2300.0,7338.0,0.916,0.265,-0.146,0.265
764483,2812.0,2460.0,7230.0,0.916,0.264,-0.144,0.265
764499,2890.0,2558.0,7236.0,0.916,0.264,-0.142,0.265
764515,2900.0,2588.0,7374.0,0.916,0.265,-0.14,0.266
764531,2864.0,2730.0,7380.0,0.916,0.266,-0.138,0.266
764547,2914.0,2792.0,7330.0,0.915,0.269,-0.136,0.267
764563,2962.0,3080.0,7108.0,0.914,0.273,-0.134,0.267
764589,3070.0,3260.0,6908.0,0.913,0.277,-0.132,0.268
764605,3008.0,3434.0,6716.0,0.912,0.281,-0.129,0.269
764621,3112.0,3222.0,6468.0,0.91,0.286,-0.127,0.271
764637,2810.0,3708.0,6550.0,0.909,0.291,-0.124,0.272
764653,2580.0,4304.0,6894.0,0.907,0.295,-0.122,0.274
764670,2904.0,3872.0,7120.0,0.906,0.298,-0.122,0.276
764696,3308.0,3866.0,6892.0,0.904,0.302,-0.121,0.278
764712,3546.0,4276.0,6478.0,0.902,0.306,-0.122,0.279
764728,3856.0,4426.0,6286.0,0.901,0.309,-0.122,0.281
764744,4016.0,4264.0,6164.0,0.9,0.31,-0.122,0.282
764760,4000.0,4182.0,6016.0,0.9,0.31,-0.123,0.282
764776,4028.0,4204.0,5994.0,0.9,0.309,-0.123,0.282
764802,3824.0,4026.0,6196.0,0.9,0.308,-0.123,0.282
764819,3710.0,3940.0,6336.0,0.901,0.305,-0.123,0.281
764836,3558.0,3728.0,6486.0,0.903,0.302,-0.124,0.281
764853,3468.0,3598.0,6726.0,0.904,0.3,-0.124,0.28
764870,3428.0,3542.0,6788.0,0.905,0.297,-0.125,0.279
764886,3308.0,3438.0,6818.0,0.906,0.294,-0.125,0.279
764903,3256.0,3408.0,6956.0,0.907,0.292,-0.126,0.278
764920,3190.0,3274.0,7000.0,0.907,0.29,-0.126,0.278
764937,3166.0,3154.0,7082.0,0.908,0.288,-0.126,0.277
764953,3218.0,3194.0,7016.0,0.908,0.287,-0.126,0.277
764970,3094.0,3176.0,7054.0,0.908,0.287,-0.126,0.278
764987,3050.0,3122.0,7044.0,0.908,0.286,-0.126,0.278
765014,3100.0,3008.0,7036.0,0.908,0.287,-0.125,0.278
765030,3138.0,3182.0,6996.0,0.908,0.287,-0.125,0.279
765046,3146.0,3228.0,6944.0,0.908,0.288,-0.124,0.279
765062,3242.0,3228.0,6882.0,0.907,0.289,-0.123,0.28
765078,3334.0,3412.0,6828.0,0.907,0.29,-0.122,0.281
765094,3352.0,3528.0,6742.0,0.906,0.292,-0.122,0.281
765120,3424.0,3592.0,6738.0,0.906,0.293,-0.121,0.282
765137,3356.0,3724.0,6708.0,0.905,0.294,-0.12,0.282
765153,3376.0,3762.0,6736.0,0.905,0.295,-0.12,0.283
765170,3348.0,3758.0,6744.0,0.905,0.295,-0.119,0.283
765187,3334.0,3814.0,6702.0,0.904,0.296,-0.119,0.284
765203,3318.0,3824.0,6696.0,0.904,0.296,-0.119,0.284
765220,3376.0,3754.0,6694.0,0.904,0.296,-0.119,0.285
765237,3324.0,3730.0,6680.0,0.904,0.296,-0.118,0.285
765254,3242.0,3622.0,6668.0,0.904,0.295,-0.118,0.285
765271,3218.0,3572.0,6708.0,0.904,0.295,-0.118,0.285
765288,3214.0,3522.0,6786.0,0.905,0.294,-0.117,0.285
765315,3156.0,3430.0,6798.0,0.905,0.294,-0.117,0.285
765332,3216.0,3506.0,6810.0,0.905,0.293,-0.117,0.286
765349,3114.0,3460.0,6836.0,0.905,0.293,-0.117,0.286
765365,3118.0,3428.0,6852.0,0.905,0.293,-0.117,0.286
765381,3110.0,3496.0,6888.0,0.905,0.293,-0.116,0.286
765398,3158.0,3504.0,6866.0,0.905,0.293,-0.116,0.287
765415,3212.0,3580.0,6820.0,0.904,0.294,-0.116,0.287
765432,3192.0,3614.0,6868.0,0.904,0.294,-0.116,0.288
765449,3266.0,3606.0,6826.0,0.904,0.294,-0.116,0.288
765466,3288.0,3608.0,6784.0,0.904,0.295,-0.115,0.288
765483,3278.0,3622.0,6770.0,0.904,0.295,-0.115,0.289
765509,3234.0,3662.0,6784.0,0.904,0.295,-0.115,0.289
765525,3262.0,3700.0,6734.0,0.903,0.295,-0.115,0.289
765541,3270.0,3646.0,6736.0,0.903,0.295,-0.114,0.289
765557,3236.0,3648.0,6714.0,0.903,0.295,-0.114,0.289
765573,3266.0,3600.0,6726.0,0.903,0.295,-0.114,0.289
765589,3140.0,3576.0,6778.0,0.903,0.295,-0.114,0.29
765615,3134.0,3606.0,6824.0,0.903,0.295,-0.114,0.29
765631,3188.0,3562.0,6792.0,0.903,0.295,-0.114,0.29
765647,3238.0,3542.0,6852.0,0.903,0.294,-0.114,0.291
765663,3240.0,3512.0,6812.0,0.903,0.294,-0.114,0.291
765679,3276.0,3586.0,6786.0,0.903,0.294,-0.114,0.291
765695,3226.0,3510.0,6788.0,0.903,0.294,-0.114,0.291
765721,3232.0,3542.0,6788.0,0.903,0.295,-0.114,0.292
765737,3210.0,3532.0,6808.0,0.903,0.295,-0.113,0.292
765753,3244.0,3594.0,6808.0,0.903,0.295,-0.113,0.292
765769,3210.0,3536.0,6796.0,0.902,0.295,-0.113,0.293
765785,3272.0,3640.0,6808.0,0.902,0.295,-0.113,0.293
765811,3268.0,3646.0,6784.0,0.902,0.296,-0.112,0.293
765827,3210.0,3670.0,6762.0,0.902,0.296,-0.112,0.294
765843,3208.0,3686.0,6724.0,0.902,0.296,-0.112,0.294
765859,3204.0,3696.0,6758.0,0.902,0.296,-0.112,0.294
765875,3174.0,3688.0,6794.0,0.902,0.296,-0.111,0.295
765892,3114.0,3678.0,6734.0,0.902,0.296,-0.111,0.295
765908,3124.0,3704.0,6812.0,0.902,0.296,-0.111,0.295
765934,3126.0,3628.0,6824.0,0.902,0.296,-0.112,0.295
765951,3188.0,3674.0,6774.0,0.902,0.296,-0.112,0.295
765967,3152.0,3612.0,6754.0,0.901,0.296,-0.112,0.296
765983,3138.0,3616.0,6816.0,0.901,0.296,-0.112,0.296
766000,3200.0,3588.0,6802.0,0.901,0.296,-0.112,0.296
766017,3188.0,3580.0,6722.0,0.901,0.296,-0.112,0.296
766033,3238.0,3586.0,6740.0,0.901,0.296,-0.112,0.296
766049,3234.0,3596.0,6766.0,0.901,0.296,-0.112,0.297
766076,3234.0,3606.0,6826.0,0.901,0.296,-0.112,0.297
766092,3244.0,3678.0,6740.0,0.901,0.296,-0.112,0.297
766108,3260.0,3674.0,6774.0,0.901,0.296,-0.112,0.298
766124,3226.0,3602.0,6760.0,0.901,0.296,-0.112,0.298
766140,3212.0,3662.0,6720.0,0.901,0.296,-0.112,0.298
766156,3174.0,3638.0,6778.0,0.9,0.296,-0.112,0.298
766182,3150.0,3622.0,6764.0,0.9,0.296,-0.112,0.299
766198,3160.0,3656.0,6744.0,0.9,0.296,-0.112,0.299
766214,3140.0,3630.0,6806.0,0.9,0.296,-0.112,0.299
766230,3130.0,3618.0,6820.0,0.9,0.296,-0.112,0.299
766246,3186.0,3588.0,6798.0,0.9,0.296,-0.112,0.299
766262,3164.0,3622.0,6792.0,0.9,0.296,-0.112,0.3
766288,3236.0,3678.0,6760.0,0.9,0.296,-0.113,0.3
766304,3242.0,3632.0,6758.0,0.9,0.296,-0.113,0.3
766320,3304.0,3668.0,6798.0,0.9,0.296,-0.113,0.3
766336,3288.0,3614.0,6768.0,0.9,0.296,-0.113,0.301
766352,3288.0,3562.0,6802.0,0.9,0.296,-0.113,0.301
766368,3262.0,3626.0,6758.0,0.899,0.296,-0.113,0.301
766394,3256.0,3626.0,6738.0,0.899,0.296,-0.113,0.302
766410,3232.0,3610.0,6784.0,0.899,0.296,-0.113,0.302
766426,3226.0,3644.0,6724.0,0.899,0.297,-0.113,0.302
766442,3230.0,3670.0,6724.0,0.899,0.297,-0.113,0.302
766458,3244.0,3672.0,6734.0,0.899,0.297,-0.113,0.303
766474,3228.0,3720.0,6690.0,0.899,0.297,-0.113,0.303
766500,3208.0,3624.0,6720.0,0.899,0.296,-0.113,0.303
766516,3232.0,3616.0,6756.0,0.898,0.296,-0.113,0.304
766532,3206.0,3622.0,6764.0,0.898,0.296,-0.113,0.304
766548,3244.0,3642.0,6750.0,0.898,0.296,-0.113,0.304
766564,3258.0,3546.0,6820.0,0.898,0.296,-0.114,0.305
766580,3278.0,3590.0,6772.0,0.898,0.296,-0.114,0.305
766606,3256.0,3578.0,6754.0,0.898,0.295,-0.114,0.305
766622,3268.0,3574.0,6782.0,0.898,0.295,-0.114,0.306
766638,3192.0,3602.0,6760.0,0.898,0.295,-0.114,0.306
766654,3266.0,3614.0,6796.0,0.898,0.295,-0.114,0.306
766670,3292.0,3618.0,6738.0,0.898,0.296,-0.114,0.306
766696,3274.0,3630.0,6752.0,0.898,0.296,-0.114,0.307
766712,3258.0,3600.0,6838.0,0.897,0.296,-0.114,0.307
766728,3312.0,3628.0,6798.0,0.897,0.296,-0.113,0.307
766744,3326.0,3632.0,6834.0,0.897,0.296,-0.113,0.308
766760,3324.0,3610.0,6742.0,0.897,0.296,-0.113,0.308
766776,3298.0,3592.0,6740.0,0.897,0.296,-0.113,0.308
766802,3224.0,3568.0,6710.0,0.897,0.296,-0.113,0.309
766818,3232.0,3570.0,6658.0,0.897,0.296,-0.112,0.309
766835,3210.0,3550.0,6724.0,0.897,0.296,-0.112,0.309
766852,3236.0,3558.0,6766.0,0.897,0.296,-0.112,0.31
766868,3244.0,3636.0,6752.0,0.897,0.296,-0.112,0.31
766884,3272.0,3600.0,6796.0,0.897,0.296,-0.112,0.31
766901,3294.0,3610.0,6764.0,0.896,0.296,-0.112,0.311
766917,3238.0,3684.0,6784.0,0.896,0.296,-0.112,0.311
766943,3264.0,3628.0,6758.0,0.896,0.296,-0.112,0.311
766959,3250.0,3656.0,6776.0,0.896,0.296,-0.111,0.311
766975,3238.0,3616.0,6744.0,0.896,0.296,-0.111,0.312
766991,3258.0,3640.0,6764.0,0.896,0.296,-0.111,0.312
767007,3226.0,3594.0,6752.0,0.896,0.296,-0.111,0.312
767023,3224.0,3652.0,6760.0,0.896,0.296,-0.111,0.312
767049,3282.0,3652.0,6716.0,0.896,0.296,-0.111,0.313
767065,3242.0,3668.0,6742.0,0.896,0.296,-0.111,0.313
767081,3302.0,3680.0,6766.0,0.895,0.296,-0.111,0.313
767097,3310.0,3670.0,6772.0,0.895,0.296,-0.111,0.314
767113,3266.0,3660.0,6774.0,0.895,0.296,-0.11,0.314
767129,3262.0,3662.0,6716.0,0.895,0.296,-0.11,0.314
767155,3232.0,3654.0,6720.0,0.895,0.296,-0.11,0.314
767171,3206.0,3620.0,6744.0,0.895,0.296,-0.11,0.314
767187,3230.0,3582.0,6768.0,0.895,0.296,-0.11,0.315
767203,3202.0,3634.0,6734.0,0.895,0.296,-0.11,0.315
767219,3262.0,3648.0,6768.0,0.895,0.296,-0.11,0.315
767235,3252.0,3588.0,6754.0,0.895,0.296,-0.111,0.315
767261,3220.0,3632.0,6732.0,0.895,0.296,-0.111,0.316
767277,3216.0,3636.0,6778.0,0.895,0.296,-0.111,0.316
767293,3202.0,3618.0,6756.0,0.894,0.296,-0.111,0.316
767310,3230.0,3588.0,6700.0,0.894,0.296,-0.111,0.316
767326,3246.0,3672.0,6696.0,0.894,0.296,-0.111,0.317
767343,3274.0,3682.0,6772.0,0.894,0.296,-0.111,0.317
767360,3238.0,3640.0,6710.0,0.894,0.296,-0.111,0.317
767386,3260.0,3632.0,6738.0,0.894,0.296,-0.111,0.317
767402,3214.0,3666.0,6732.0,0.894,0.296,-0.111,0.318
767418,3268.0,3690.0,6798.0,0.894,0.296,-0.111,0.318
767434,3258.0,3670.0,6754.0,0.894,0.296,-0.111,0.318
767450,3320.0,3632.0,6766.0,0.894,0.296,-0.112,0.319
767466,3328.0,3642.0,6756.0,0.894,0.295,-0.112,0.319
767492,3264.0,3592.0,6776.0,0.894,0.295,-0.112,0.319
767509,3244.0,3610.0,6776.0,0.894,0.295,-0.112,0.319
767526,3226.0,3574.0,6714.0,0.894,0.294,-0.112,0.32
767543,3164.0,3540.0,6742.0,0.894,0.294,-0.112,0.32
767559,3158.0,3510.0,6850.0,0.894,0.294,-0.112,0.32
767575,3266.0,3464.0,6804.0,0.893,0.294,-0.112,0.321
767591,3298.0,3548.0,6764.0,0.893,0.294,-0.112,0.321
767607,3338.0,3588.0,6744.0,0.893,0.294,-0.112,0.321
767633,3298.0,3532.0,6776.0,0.893,0.294,-0.112,0.321
767649,3298.0,3582.0,6804.0,0.893,0.294,-0.112,0.322
767665,3282.0,3538.0,6734.0,0.893,0.294,-0.112,0.322
767681,3308.0,3610.0,6790.0,0.893,0.294,-0.112,0.322
767698,3318.0,3576.0,6784.0,0.893,0.295,-0.112,0.322
767714,3282.0,3642.0,6758.0,0.893,0.295,-0.112,0.322
767740,3264.0,3602.0,6732.0,0.892,0.295,-0.111,0.323
767757,3280.0,3614.0,6748.0,0.892,0.295,-0.111,0.323
767774,3284.0,3624.0,6774.0,0.892,0.295,-0.111,0.323
767790,3268.0,3616.0,6738.0,0.892,0.295,-0.111,0.324
767806,3300.0,3600.0,6752.0,0.892,0.295,-0.111,0.324
767822,3310.0,3622.0,6764.0,0.892,0.295,-0.111,0.324
767838,3246.0,3524.0,6766.0,0.892,0.294,-0.111,0.324
767864,3242.0,3604.0,6786.0,0.892,0.294,-0.11,0.325
767880,3194.0,3578.0,6754.0,0.892,0.294,-0.11,0.325
767896,3240.0,3574.0,6770.0,0.892,0.294,-0.11,0.325
767912,3210.0,3584.0,6802.0,0.892,0.294,-0.11,0.325
767928,3262.0,3588.0,6822.0,0.892,0.294,-0.11,0.326
767944,3288.0,3618.0,6794.0,0.892,0.294,-0.109,0.326
767961,3228.0,3606.0,6804.0,0.892,0.294,-0.109,0.326
767987,3260.0,3602.0,6766.0,0.892,0.294,-0.109,0.327
768003,3226.0,3566.0,6796.0,0.892,0.294,-0.108,0.327
768019,3270.0,3558.0,6764.0,0.892,0.294,-0.108,0.327
768035,3222.0,3630.0,6750.0,0.892,0.294,-0.108,0.327
768051,3252.0,3572.0,6776.0,0.891,0.294,-0.107,0.328
768068,3224.0,3624.0,6790.0,0.892,0.294,-0.107,0.328
768094,3180.0,3608.0,6786.0,0.892,0.294,-0.107,0.328
768111,3220.0,3610.0,6776.0,0.891,0.294,-0.106,0.328
768127,3300.0,3702.0,6856.0,0.891,0.294,-0.106,0.328
768143,3366.0,3782.0,6900.0,0.891,0.294,-0.105,0.328
768159,3422.0,3854.0,6984.0,0.891,0.294,-0.105,0.328
768175,3480.0,3748.0,6918.0,0.891,0.295,-0.104,0.328
768191,3620.0,3512.0,6848.0,0.891,0.296,-0.103,0.328
768217,3822.0,3538.0,7000.0,0.891,0.298,-0.101,0.328
768233,3652.0,4274.0,6488.0,0.891,0.3,-0.099,0.327
768249,3546.0,3954.0,6624.0,0.891,0.301,-0.096,0.326
768265,3544.0,3124.0,6976.0,0.891,0.303,-0.093,0.326
768281,3526.0,2904.0,6948.0,0.89,0.306,-0.089,0.326
768297,3352.0,3464.0,6898.0,0.889,0.31,-0.083,0.326
768323,3326.0,3516.0,6808.0,0.888,0.314,-0.077,0.327
768339,3496.0,3628.0,7082.0,0.887,0.318,-0.069,0.327
768355,3312.0,3430.0,7248.0,0.885,0.324,-0.06,0.328
768372,3200.0,3630.0,7170.0,0.883,0.33,-0.051,0.329
768388,3006.0,3682.0,6996.0,0.881,0.337,-0.04,0.331
768404,2876.0,3214.0,7038.0,0.877,0.345,-0.03,0.332
768430,2710.0,3740.0,6586.0,0.873,0.354,-0.018,0.334
768446,2496.0,3766.0,6194.0,0.868,0.365,-0.007,0.336
768462,2474.0,3906.0,6194.0,0.863,0.376,0.004,0.338
768478,2188.0,4180.0,5878.0,0.857,0.389,0.015,0.339
768494,2002.0,4410.0,5932.0,0.85,0.402,0.025,0.34
768510,2110.0,4402.0,5978.0,0.841,0.418,0.035,0.341
768536,1918.0,5028.0,5312.0,0.832,0.435,0.045,0.341
768552,2294.0,5852.0,4826.0,0.823,0.451,0.055,0.341
768568,2302.0,6346.0,4498.0,0.813,0.467,0.064,0.341
768584,2490.0,6476.0,4302.0,0.804,0.482,0.072,0.341
768600,2642.0,6840.0,3944.0,0.795,0.495,0.081,0.341
768617,2852.0,7918.0,3988.0,0.786,0.506,0.09,0.342
768643,2472.0,6430.0,3634.0,0.779,0.515,0.097,0.344
768659,2850.0,5426.0,3580.0,0.77,0.524,0.106,0.348
768675,2864.0,5870.0,2758.0,0.761,0.533,0.115,0.352
768691,2810.0,6006.0,2386.0,0.751,0.542,0.124,0.357
768707,2682.0,6034.0,2086.0,0.74,0.551,0.133,0.363
768723,2492.0,5546.0,1872.0,0.728,0.56,0.141,0.369
768749,2404.0,5570.0,1728.0,0.715,0.57,0.149,0.376
768765,2336.0,5904.0,1588.0,0.701,0.581,0.156,0.382
768781,2424.0,6166.0,1264.0,0.686,0.593,0.163,0.389
768797,2536.0,6378.0,882.0,0.67,0.605,0.169,0.395
768813,2670.0,6402.0,618.0,0.654,0.617,0.175,0.401
768829,2796.0,6716.0,446.0,0.637,0.629,0.18,0.408
768855,2920.0,7192.0,-18.0,0.62,0.64,0.186,0.414
768871,3040.0,7442.0,-306.0,0.603,0.65,0.19,0.421
768887,3118.0,7406.0,-356.0,0.586,0.66,0.194,0.428
768903,3086.0,7490.0,-594.0,0.569,0.669,0.198,0.435
768919,3038.0,7790.0,-570.0,0.552,0.677,0.202,0.443
768945,3112.0,7948.0,-824.0,0.536,0.684,0.204,0.45
768961,3354.0,7872.0,-972.0,0.519,0.692,0.206,0.458
768977,3556.0,8198.0,-1188.0,0.503,0.698,0.207,0.466
768993,3676.0,8326.0,-1562.0,0.488,0.703,0.208,0.474
769009,3620.0,8362.0,-1386.0,0.473,0.708,0.207,0.482
769026,3810.0,8140.0,-1656.0,0.459,0.712,0.206,0.49
769042,3888.0,8134.0,-1686.0,0.446,0.715,0.204,0.498
769059,3784.0,7944.0,-1746.0,0.434,0.718,0.202,0.505
769085,3718.0,7898.0,-1812.0,0.423,0.72,0.199,0.513
769101,3772.0,7726.0,-1748.0,0.412,0.722,0.195,0.52
769117,3800.0,7728.0,-1716.0,0.403,0.724,0.19,0.527
769134,3876.0,7520.0,-1666.0,0.393,0.726,0.184,0.533
769151,4048.0,7402.0,-1842.0,0.385,0.728,0.178,0.538
769167,3992.0,7318.0,-1790.0,0.377,0.73,0.171,0.543
769184,4110.0,7532.0,-1958.0,0.37,0.732,0.163,0.548
769201,4224.0,6886.0,-1754.0,0.363,0.734,0.155,0.553
769227,4454.0,7172.0,-1748.0,0.358,0.736,0.145,0.556
769243,4686.0,6944.0,-1656.0,0.354,0.737,0.135,0.56
769259,5196.0,6306.0,-1352.0,0.35,0.739,0.124,0.562
769276,5552.0,6108.0,-1026.0,0.348,0.74,0.113,0.564
769292,5998.0,5780.0,-914.0,0.345,0.742,0.102,0.566
769308,6736.0,5800.0,-1112.0,0.342,0.744,0.09,0.567
769324,7194.0,5486.0,-952.0,0.339,0.745,0.078,0.569
769341,7500.0,5096.0,-652.0,0.336,0.745,0.067,0.572
769367,7574.0,5012.0,-664.0,0.334,0.746,0.055,0.574
769389,7668.0,4488.0,-536.0,0.333,0.745,0.044,0.576
769405,7416.0,3966.0,-396.0,0.332,0.744,0.034,0.578
769421,7116.0,4178.0,-180.0,0.332,0.743,0.024,0.58
769437,7376.0,3504.0,-260.0,0.332,0.742,0.015,0.582
769453,7264.0,3222.0,-326.0,0.333,0.741,0.008,0.583
769469,7074.0,2762.0,-218.0,0.335,0.74,0.002,0.583
769485,6802.0,3074.0,-284.0,0.336,0.739,-0.002,0.584
769501,6600.0,3742.0,-488.0,0.339,0.738,-0.005,0.583
769527,6818.0,3348.0,-548.0,0.342,0.737,-0.008,0.583
769544,6840.0,3374.0,-658.0,0.345,0.736,-0.011,0.582
769560,7408.0,3334.0,-682.0,0.348,0.735,-0.013,0.581
769576,7464.0,3670.0,-1014.0,0.351,0.734,-0.016,0.581
769592,7844.0,3754.0,-874.0,0.355,0.733,-0.018,0.58
769609,7788.0,3738.0,-578.0,0.358,0.731,-0.021,0.58
769625,7456.0,3664.0,-464.0,0.361,0.731,-0.024,0.579
769642,7538.0,3762.0,-682.0,0.363,0.73,-0.027,0.578
769668,7350.0,3732.0,-640.0,0.366,0.73,-0.03,0.576
769684,7210.0,3254.0,-488.0,0.369,0.73,-0.032,0.575
769701,7160.0,3462.0,-256.0,0.371,0.731,-0.033,0.572
769717,6690.0,4264.0,-910.0,0.374,0.731,-0.035,0.57
769734,7376.0,3238.0,-556.0,0.378,0.73,-0.039,0.567
769750,7066.0,2436.0,448.0,0.381,0.73,-0.042,0.566
769767,6692.0,3472.0,-138.0,0.382,0.731,-0.043,0.564
769793,7146.0,3730.0,-268.0,0.382,0.732,-0.044,0.563
769809,6760.0,4204.0,-330.0,0.382,0.732,-0.046,0.562
769825,7046.0,4056.0,-244.0,0.382,0.733,-0.048,0.561
769841,6740.0,4814.0,-602.0,0.383,0.733,-0.052,0.56
769857,7076.0,4862.0,-248.0,0.384,0.732,-0.056,0.559
769874,7058.0,3468.0,158.0,0.386,0.731,-0.062,0.559
769890,6906.0,3032.0,462.0,0.387,0.731,-0.067,0.558
769917,7308.0,3252.0,582.0,0.387,0.731,-0.07,0.558
769933,7272.0,3688.0,366.0,0.386,0.732,-0.073,0.557
769950,7358.0,3722.0,310.0,0.385,0.733,-0.076,0.556
769967,7378.0,3616.0,220.0,0.384,0.734,-0.079,0.555
769983,7406.0,3964.0,-142.0,0.383,0.735,-0.081,0.553
769999,7434.0,3758.0,-210.0,0.383,0.736,-0.083,0.552
770016,7110.0,3162.0,-452.0,0.383,0.737,-0.084,0.551
770032,6854.0,4158.0,-442.0,0.383,0.737,-0.085,0.55
770058,6620.0,3844.0,-428.0,0.383,0.738,-0.085,0.549
770074,6560.0,3588.0,-466.0,0.382,0.739,-0.086,0.548
770091,6562.0,3942.0,-754.0,0.381,0.74,-0.086,0.547
770108,6674.0,4822.0,-1118.0,0.381,0.742,-0.086,0.545
770125,7004.0,5118.0,-1326.0,0.382,0.742,-0.087,0.544
770142,7086.0,4648.0,-1104.0,0.383,0.743,-0.09,0.542
770159,7082.0,4286.0,-802.0,0.384,0.743,-0.092,0.541
770175,7112.0,4290.0,-986.0,0.384,0.744,-0.094,0.538
770192,7234.0,4266.0,-1246.0,0.385,0.745,-0.097,0.536
770218,7254.0,3942.0,-1096.0,0.386,0.747,-0.099,0.533
770234,7248.0,3742.0,-804.0,0.386,0.749,-0.102,0.53
770250,7248.0,3600.0,-1056.0,0.385,0.751,-0.103,0.526
770267,7254.0,3594.0,-1356.0,0.384,0.755,-0.104,0.522
770284,7186.0,4096.0,-1490.0,0.382,0.758,-0.105,0.518
770300,7014.0,4008.0,-1486.0,0.381,0.762,-0.106,0.513
770317,7052.0,4244.0,-1512.0,0.38,0.765,-0.108,0.508
770334,6956.0,4150.0,-1800.0,0.38,0.768,-0.11,0.503
770350,6678.0,4316.0,-1700.0,0.38,0.771,-0.113,0.498
770377,6658.0,3584.0,-1660.0,0.381,0.774,-0.116,0.493
770393,6972.0,3466.0,-1850.0,0.381,0.776,-0.119,0.489
770409,7026.0,3618.0,-1912.0,0.381,0.778,-0.121,0.485
770425,6734.0,3196.0,-1666.0,0.381,0.78,-0.123,0.481
770442,6762.0,3428.0,-1630.0,0.38,0.782,-0.125,0.477
770459,6842.0,3634.0,-1692.0,0.379,0.785,-0.126,0.474
770475,6852.0,3376.0,-1620.0,0.378,0.787,-0.127,0.471
770501,7078.0,3686.0,-1604.0,0.378,0.789,-0.129,0.467
770517,7136.0,3930.0,-1782.0,0.377,0.791,-0.13,0.464
770534,7296.0,3870.0,-1970.0,0.377,0.792,-0.131,0.462
770550,7342.0,4052.0,-1932.0,0.376,0.794,-0.131,0.46
770567,6858.0,3932.0,-2030.0,0.377,0.794,-0.132,0.458
770583,6888.0,3820.0,-1592.0,0.379,0.794,-0.134,0.456
770600,6806.0,3654.0,-1758.0,0.38,0.794,-0.134,0.454
770617,6814.0,3508.0,-1748.0,0.382,0.794,-0.135,0.453
770634,6902.0,3478.0,-1868.0,0.383,0.794,-0.134,0.453
770660,6938.0,3604.0,-1872.0,0.384,0.794,-0.134,0.453
770676,6854.0,3782.0,-1840.0,0.385,0.793,-0.133,0.453
770692,6940.0,3960.0,-1970.0,0.386,0.792,-0.132,0.455
770708,7074.0,3814.0,-1842.0,0.387,0.791,-0.131,0.456
770725,7092.0,4084.0,-1890.0,0.389,0.789,-0.13,0.458
770742,7142.0,4340.0,-1516.0,0.392,0.786,-0.129,0.46
770759,7218.0,5260.0,-814.0,0.396,0.783,-0.13,0.462
770775,7146.0,4576.0,-636.0,0.402,0.778,-0.131,0.464
770802,7884.0,4606.0,-262.0,0.409,0.774,-0.132,0.465
770818,8602.0,5208.0,-908.0,0.416,0.769,-0.132,0.468
770834,9770.0,5526.0,194.0,0.424,0.762,-0.129,0.472
770850,9448.0,5372.0,1778.0,0.432,0.755,-0.125,0.477
770867,9418.0,5894.0,2540.0,0.44,0.748,-0.118,0.482
770883,9332.0,6752.0,2558.0,0.448,0.741,-0.11,0.488
770900,8930.0,7960.0,3656.0,0.458,0.733,-0.101,0.492
770926,8912.0,8706.0,4482.0,0.469,0.725,-0.093,0.496
770942,9170.0,8338.0,4254.0,0.481,0.717,-0.085,0.498
770958,9436.0,8382.0,4108.0,0.494,0.707,-0.076,0.501
770974,9518.0,8544.0,4206.0,0.507,0.696,-0.064,0.504
770990,8982.0,8988.0,4946.0,0.522,0.683,-0.053,0.508
771007,9252.0,9710.0,4730.0,0.537,0.67,-0.04,0.511
771024,9634.0,10392.0,4960.0,0.554,0.654,-0.027,0.514
771051,10648.0,10246.0,3766.0,0.572,0.636,-0.014,0.518
771067,10990.0,10132.0,2950.0,0.59,0.616,0.001,0.523
771084,10756.0,10316.0,2868.0,0.608,0.593,0.018,0.528
771100,11466.0,9348.0,5078.0,0.627,0.567,0.036,0.533
771116,9614.0,9126.0,3074.0,0.646,0.541,0.053,0.536
771133,9104.0,10304.0,2716.0,0.664,0.514,0.069,0.538
771149,8510.0,8260.0,2460.0,0.682,0.487,0.085,0.539
771175,8266.0,8874.0,2076.0,0.699,0.46,0.101,0.538
771191,6698.0,8500.0,2134.0,0.714,0.433,0.117,0.537
771208,6084.0,7374.0,1966.0,0.728,0.407,0.132,0.535
771225,5488.0,7668.0,1290.0,0.742,0.381,0.146,0.532
771242,5014.0,6792.0,1284.0,0.754,0.356,0.159,0.529
771258,3856.0,6038.0,750.0,0.765,0.33,0.172,0.526
771275,3400.0,5338.0,1040.0,0.775,0.304,0.183,0.523
771291,2424.0,4546.0,1224.0,0.784,0.279,0.194,0.519
771307,1856.0,4092.0,1294.0,0.792,0.256,0.204,0.515
771334,1334.0,4068.0,1820.0,0.799,0.234,0.213,0.512
771350,442.0,3084.0,1054.0,0.804,0.215,0.22,0.508
771366,448.0,2786.0,1674.0,0.809,0.197,0.227,0.505
771383,-362.0,2544.0,1760.0,0.813,0.181,0.233,0.502
771399,-390.0,1974.0,1142.0,0.817,0.168,0.238,0.498
771415,-140.0,1392.0,1606.0,0.82,0.156,0.243,0.494
771431,-272.0,1284.0,772.0,0.823,0.147,0.249,0.49
771457,-270.0,924.0,748.0,0.825,0.137,0.256,0.486
771473,-504.0,590.0,356.0,0.826,0.128,0.262,0.482
771490,-1038.0,-126.0,196.0,0.827,0.117,0.269,0.479
771506,-1786.0,-1226.0,186.0,0.828,0.107,0.275,0.477
771522,-3116.0,-1958.0,-60.0,0.828,0.1,0.281,0.476
771539,-4154.0,-2368.0,-20.0,0.827,0.096,0.284,0.475
771555,-4306.0,-3532.0,-220.0,0.827,0.097,0.285,0.475
771572,-3870.0,-2994.0,-398.0,0.827,0.103,0.283,0.475
771589,-3694.0,-2248.0,-260.0,0.826,0.114,0.28,0.476
771616,-3006.0,-1302.0,52.0,0.824,0.129,0.275,0.478
771632,-2152.0,-516.0,524.0,0.821,0.148,0.269,0.481
771648,-922.0,970.0,564.0,0.817,0.17,0.262,0.484
771664,128.0,2388.0,698.0,0.812,0.193,0.255,0.489
771680,1228.0,3370.0,1026.0,0.805,0.216,0.247,0.494
771706,1744.0,4190.0,1578.0,0.797,0.239,0.241,0.499
771722,1948.0,4880.0,1660.0,0.788,0.262,0.234,0.505
771738,2522.0,5478.0,1796.0,0.779,0.286,0.227,0.51
771754,3026.0,5378.0,1970.0,0.768,0.311,0.22,0.514
771770,3058.0,5874.0,2400.0,0.757,0.338,0.214,0.517
771786,3226.0,6538.0,2188.0,0.743,0.367,0.208,0.519
771802,4326.0,6924.0,2110.0,0.729,0.397,0.201,0.52
771828,4782.0,7366.0,1830.0,0.713,0.427,0.195,0.521
771845,5500.0,7872.0,1568.0,0.696,0.456,0.191,0.521
771862,5806.0,8586.0,1480.0,0.677,0.485,0.187,0.521
771879,5792.0,9192.0,1288.0,0.657,0.514,0.183,0.52
771895,6140.0,10000.0,854.0,0.636,0.541,0.179,0.52
771911,7314.0,10644.0,212.0,0.615,0.568,0.173,0.519
771927,6978.0,11060.0,1010.0,0.594,0.592,0.166,0.519
771943,6638.0,10148.0,1410.0,0.573,0.615,0.158,0.519
771969,7222.0,10078.0,1072.0,0.552,0.637,0.151,0.517
771985,7816.0,10964.0,658.0,0.53,0.658,0.143,0.515
772001,7384.0,11302.0,1326.0,0.509,0.677,0.134,0.514
772017,7484.0,10062.0,974.0,0.489,0.696,0.125,0.511
772033,8074.0,10392.0,1000.0,0.469,0.713,0.117,0.508
772059,8196.0,10390.0,384.0,0.45,0.728,0.109,0.506
772075,8220.0,10062.0,190.0,0.431,0.741,0.102,0.504
772091,8184.0,10414.0,128.0,0.414,0.753,0.094,0.503
772108,7914.0,10224.0,562.0,0.399,0.763,0.086,0.501
772124,7872.0,9842.0,564.0,0.385,0.772,0.078,0.5
772140,7834.0,9810.0,934.0,0.373,0.78,0.069,0.498
772157,7764.0,9804.0,858.0,0.363,0.787,0.061,0.496
772173,7700.0,9618.0,1436.0,0.353,0.793,0.053,0.494
772199,7690.0,9816.0,1482.0,0.345,0.798,0.045,0.491
772215,7708.0,10442.0,1874.0,0.338,0.803,0.039,0.489
772231,7498.0,10744.0,2272.0,0.334,0.807,0.032,0.487
772247,7684.0,11486.0,2600.0,0.333,0.809,0.027,0.484
772264,8020.0,11312.0,2622.0,0.335,0.809,0.023,0.482
772280,7724.0,11240.0,3262.0,0.34,0.808,0.021,0.481
772297,7588.0,11644.0,3392.0,0.347,0.805,0.021,0.481
772324,7944.0,11694.0,3358.0,0.358,0.8,0.023,0.482
772340,8306.0,11432.0,3066.0,0.371,0.793,0.027,0.483
772356,8948.0,12016.0,2774.0,0.388,0.783,0.034,0.485
772372,9560.0,11990.0,2444.0,0.407,0.772,0.042,0.487
772389,9720.0,11722.0,2232.0,0.428,0.758,0.051,0.49
772406,9984.0,11432.0,2234.0,0.451,0.742,0.062,0.491
772422,10080.0,11276.0,1938.0,0.475,0.725,0.075,0.493
772448,9768.0,11890.0,1584.0,0.499,0.707,0.088,0.493
772464,9930.0,12652.0,630.0,0.524,0.687,0.1,0.493
772480,10316.0,13010.0,-422.0,0.55,0.665,0.112,0.493
772496,10734.0,12368.0,-954.0,0.577,0.639,0.123,0.494
772512,9286.0,9838.0,-260.0,0.604,0.61,0.133,0.495
772528,7948.0,9844.0,374.0,0.631,0.581,0.142,0.494
772555,7752.0,8942.0,-280.0,0.656,0.552,0.151,0.492
772572,7320.0,7874.0,-212.0,0.68,0.522,0.159,0.49
772589,5924.0,7258.0,504.0,0.702,0.492,0.167,0.487
772605,4196.0,6456.0,1240.0,0.722,0.464,0.174,0.483
772621,3676.0,5434.0,908.0,0.74,0.437,0.18,0.478
772637,3008.0,6016.0,1508.0,0.756,0.412,0.185,0.473
772653,2574.0,5660.0,1356.0,0.771,0.389,0.188,0.467
772669,2782.0,6070.0,1032.0,0.784,0.368,0.19,0.462
772695,2718.0,6016.0,1006.0,0.796,0.346,0.192,0.459
772711,3048.0,4862.0,920.0,0.806,0.325,0.193,0.455
772727,3030.0,4936.0,628.0,0.815,0.305,0.197,0.452
772743,2754.0,4948.0,858.0,0.823,0.284,0.202,0.449
772759,1956.0,4282.0,910.0,0.829,0.264,0.207,0.447
772775,1378.0,3474.0,914.0,0.835,0.244,0.214,0.444
772801,1514.0,2414.0,572.0,0.84,0.226,0.221,0.442
772817,1708.0,2666.0,-24.0,0.843,0.209,0.232,0.439
772833,1086.0,3354.0,-944.0,0.845,0.191,0.243,0.436
772849,702.0,3972.0,-918.0,0.847,0.169,0.253,0.435
772866,-1046.0,878.0,-194.0,0.849,0.146,0.261,0.437
772882,-2256.0,-1372.0,74.0,0.849,0.128,0.267,0.437
772908,-3182.0,-3214.0,690.0,0.849,0.115,0.274,0.437
772925,-3912.0,-2388.0,-364.0,0.848,0.109,0.279,0.437
772942,-4290.0,-2042.0,60.0,0.847,0.107,0.281,0.439
772959,-5406.0,-5348.0,858.0,0.844,0.108,0.281,0.443
772975,-4720.0,-4664.0,726.0,0.842,0.121,0.279,0.446
772991,-3694.0,-2760.0,-192.0,0.838,0.139,0.275,0.45
773007,-1858.0,-1444.0,-56.0,0.834,0.16,0.27,0.454
773023,-946.0,172.0,310.0,0.828,0.182,0.264,0.459
773049,-132.0,1118.0,758.0,0.823,0.205,0.258,0.463
773065,704.0,2258.0,1060.0,0.816,0.23,0.252,0.466
773081,1758.0,3422.0,1040.0,0.808,0.255,0.246,0.47
773097,2456.0,4192.0,754.0,0.799,0.281,0.242,0.473
773113,3004.0,5758.0,578.0,0.789,0.306,0.239,0.476
773129,2758.0,6286.0,1566.0,0.778,0.33,0.237,0.48
773155,2300.0,6484.0,1806.0,0.765,0.356,0.235,0.483
773171,2776.0,7662.0,1240.0,0.75,0.385,0.233,0.485
773187,3476.0,8378.0,1380.0,0.734,0.413,0.229,0.488
773203,3468.0,8458.0,900.0,0.717,0.442,0.226,0.49
773219,4344.0,9514.0,974.0,0.699,0.47,0.22,0.493
773245,4736.0,9058.0,1228.0,0.68,0.497,0.214,0.495
773261,4920.0,9170.0,1538.0,0.66,0.524,0.208,0.497
773277,5480.0,9530.0,458.0,0.639,0.55,0.202,0.498
773293,6112.0,10712.0,862.0,0.617,0.575,0.196,0.499
773309,6396.0,10364.0,850.0,0.596,0.598,0.189,0.501
773325,6554.0,9668.0,654.0,0.573,0.62,0.183,0.503
773351,6484.0,9992.0,638.0,0.55,0.642,0.177,0.504
773367,6226.0,10354.0,794.0,0.526,0.663,0.172,0.505
773383,6294.0,11006.0,1132.0,0.501,0.684,0.165,0.504
773399,6572.0,11220.0,378.0,0.476,0.706,0.157,0.501
773415,7212.0,11770.0,-1632.0,0.454,0.725,0.147,0.497
773431,8640.0,10540.0,-1382.0,0.434,0.741,0.136,0.494
773457,8832.0,11028.0,-1434.0,0.415,0.755,0.127,0.491
773474,8418.0,11540.0,-1166.0,0.398,0.768,0.118,0.488
773490,7938.0,11090.0,-1044.0,0.382,0.779,0.109,0.486
773507,7322.0,11026.0,-654.0,0.368,0.789,0.099,0.483
773523,6990.0,10786.0,-592.0,0.356,0.798,0.088,0.478
773540,6788.0,10702.0,30.0,0.348,0.806,0.076,0.473
773556,7160.0,10570.0,696.0,0.341,0.813,0.064,0.468
773572,7100.0,10428.0,858.0,0.337,0.818,0.054,0.463
773598,7046.0,10254.0,1460.0,0.335,0.822,0.045,0.458
773614,6690.0,10198.0,2410.0,0.335,0.824,0.038,0.454
773630,6670.0,10852.0,3206.0,0.337,0.826,0.033,0.451
773646,7004.0,10102.0,2536.0,0.342,0.826,0.029,0.447
773662,7760.0,10128.0,2244.0,0.348,0.824,0.028,0.446
773678,7980.0,10698.0,2508.0,0.355,0.821,0.029,0.446
773704,8222.0,10106.0,2226.0,0.365,0.815,0.033,0.449
773721,8674.0,10276.0,1934.0,0.376,0.807,0.041,0.452
773737,8992.0,11364.0,1572.0,0.39,0.798,0.05,0.458
773753,9622.0,11792.0,1792.0,0.405,0.785,0.061,0.464
773769,10060.0,12440.0,1126.0,0.424,0.771,0.073,0.47
773785,10050.0,11028.0,1594.0,0.444,0.754,0.087,0.476
773811,9758.0,11294.0,1614.0,0.464,0.737,0.104,0.48
773827,9210.0,12396.0,1246.0,0.485,0.719,0.121,0.482
773843,8696.0,12102.0,1460.0,0.505,0.701,0.138,0.484
773859,8834.0,11822.0,1028.0,0.525,0.682,0.154,0.484
773875,9024.0,11918.0,500.0,0.545,0.663,0.171,0.484
773891,8392.0,12716.0,240.0,0.566,0.642,0.188,0.483
773917,8194.0,11486.0,-66.0,0.587,0.619,0.203,0.481
773933,7694.0,10636.0,22.0,0.608,0.594,0.219,0.479
773949,6478.0,10204.0,308.0,0.63,0.568,0.233,0.476
773965,5218.0,8908.0,208.0,0.65,0.541,0.247,0.473
773982,4498.0,8270.0,14.0,0.669,0.514,0.259,0.469
773999,3854.0,7778.0,202.0,0.687,0.488,0.27,0.466
774015,3356.0,8154.0,264.0,0.703,0.463,0.28,0.462
774041,2742.0,7240.0,18.0,0.718,0.437,0.287,0.459
774057,2818.0,6774.0,62.0,0.733,0.411,0.294,0.457
774073,2352.0,6518.0,-214.0,0.746,0.384,0.3,0.454
774089,2292.0,5762.0,-276.0,0.758,0.358,0.306,0.452
774105,2056.0,5246.0,-394.0,0.768,0.331,0.311,0.451
774121,1774.0,4222.0,-250.0,0.778,0.304,0.317,0.45
774138,1294.0,3628.0,66.0,0.785,0.278,0.324,0.448
774164,1090.0,3202.0,-224.0,0.792,0.253,0.33,0.447
774180,1040.0,2164.0,-344.0,0.797,0.229,0.337,0.446
774196,414.0,1634.0,-564.0,0.801,0.206,0.345,0.444
774212,190.0,1484.0,-716.0,0.804,0.184,0.354,0.442
774228,-604.0,1744.0,-888.0,0.806,0.163,0.361,0.441
774245,-1460.0,1038.0,-602.0,0.807,0.142,0.367,0.441
774262,-1760.0,-796.0,522.0,0.808,0.124,0.371,0.441
774289,-2608.0,-960.0,-688.0,0.808,0.11,0.375,0.442
774306,-3426.0,-1272.0,-580.0,0.807,0.099,0.377,0.443
774323,-4114.0,-2362.0,-516.0,0.806,0.094,0.377,0.446
774340,-3850.0,-2648.0,-206.0,0.805,0.094,0.376,0.449
774357,-3604.0,-2650.0,-128.0,0.804,0.1,0.373,0.453
774374,-3614.0,-1914.0,330.0,0.801,0.112,0.369,0.458
774391,-3700.0,-1786.0,702.0,0.798,0.128,0.364,0.463
774408,-3072.0,-1102.0,726.0,0.794,0.15,0.357,0.469
774425,-2124.0,-62.0,268.0,0.788,0.176,0.349,0.475
774442,-888.0,986.0,182.0,0.782,0.203,0.341,0.481
774458,-274.0,2224.0,216.0,0.773,0.232,0.333,0.487
774484,878.0,3232.0,304.0,0.764,0.262,0.325,0.493
774500,1998.0,4276.0,224.0,0.753,0.291,0.317,0.498
774516,2672.0,6022.0,512.0,0.741,0.32,0.31,0.502
774532,3152.0,6584.0,448.0,0.729,0.347,0.302,0.506
774549,3566.0,6926.0,572.0,0.716,0.375,0.295,0.51
774565,3544.0,7290.0,1056.0,0.702,0.402,0.287,0.513
774581,3888.0,8212.0,1390.0,0.688,0.428,0.279,0.515
774608,4210.0,7898.0,1584.0,0.674,0.454,0.27,0.516
774624,4280.0,7816.0,1562.0,0.658,0.481,0.262,0.516
774640,4302.0,7728.0,1458.0,0.64,0.509,0.253,0.516
774656,5346.0,8230.0,346.0,0.621,0.537,0.246,0.516
774672,5872.0,10028.0,358.0,0.6,0.563,0.238,0.517
774688,5876.0,10554.0,814.0,0.579,0.587,0.228,0.518
774704,6504.0,10508.0,1096.0,0.558,0.61,0.215,0.52
774730,6908.0,10076.0,-294.0,0.538,0.631,0.202,0.521
774746,7624.0,10312.0,-928.0,0.518,0.65,0.189,0.524
774762,7612.0,11000.0,-692.0,0.499,0.666,0.175,0.526
774778,7842.0,11442.0,-424.0,0.482,0.681,0.159,0.528
774794,7598.0,10722.0,554.0,0.466,0.695,0.142,0.529
774820,7756.0,9746.0,466.0,0.452,0.709,0.125,0.526
774837,8580.0,9972.0,-448.0,0.439,0.723,0.108,0.522
774853,8978.0,10390.0,234.0,0.426,0.736,0.091,0.518
774869,8768.0,9822.0,586.0,0.414,0.747,0.076,0.514
774885,8562.0,9806.0,690.0,0.403,0.758,0.063,0.509
774901,8420.0,10012.0,1124.0,0.392,0.768,0.051,0.503
774918,7978.0,10098.0,1750.0,0.383,0.777,0.039,0.497
774935,8126.0,10074.0,1792.0,0.374,0.786,0.028,0.491
774962,7806.0,10086.0,2218.0,0.367,0.794,0.018,0.484
774978,8072.0,9852.0,2594.0,0.362,0.801,0.008,0.477
774994,8006.0,9826.0,3070.0,0.359,0.807,-0.001,0.47
775010,8082.0,9038.0,2856.0,0.357,0.812,-0.007,0.463
775026,8288.0,9898.0,3174.0,0.356,0.815,-0.012,0.457
775043,8216.0,9448.0,3390.0,0.358,0.817,-0.015,0.452
775059,8662.0,9054.0,3312.0,0.361,0.817,-0.015,0.45
775085,8634.0,9252.0,3048.0,0.365,0.815,-0.012,0.449
775102,8120.0,9620.0,3298.0,0.371,0.812,-0.007,0.451
775119,8016.0,9632.0,3092.0,0.38,0.807,-0.001,0.453
775136,8406.0,10078.0,2898.0,0.39,0.8,0.007,0.457
775152,8834.0,10532.0,3066.0,0.403,0.79,0.017,0.461
775168,9240.0,11278.0,2304.0,0.419,0.779,0.028,0.466
775184,10070.0,10604.0,1864.0,0.437,0.765,0.041,0.471
775200,10082.0,10984.0,1818.0,0.456,0.749,0.057,0.478
775226,9508.0,11032.0,2014.0,0.475,0.731,0.075,0.484
775242,8916.0,11804.0,2150.0,0.495,0.713,0.094,0.488
775258,8494.0,12422.0,1116.0,0.516,0.693,0.11,0.491
775274,8894.0,11056.0,1202.0,0.537,0.673,0.126,0.493
775290,8674.0,12180.0,1224.0,0.559,0.652,0.141,0.493
775316,8706.0,11790.0,420.0,0.581,0.629,0.155,0.492
775332,8608.0,10408.0,794.0,0.603,0.605,0.169,0.492
775348,7230.0,10124.0,602.0,0.624,0.579,0.183,0.491
775364,6690.0,10102.0,1118.0,0.644,0.554,0.197,0.49
775380,5874.0,8694.0,466.0,0.662,0.528,0.21,0.489
775396,5346.0,9098.0,660.0,0.679,0.503,0.222,0.487
775412,4688.0,8914.0,630.0,0.695,0.477,0.233,0.485
775438,4584.0,8504.0,148.0,0.71,0.452,0.243,0.483
775454,4542.0,7922.0,646.0,0.724,0.426,0.251,0.481
775470,3394.0,7524.0,262.0,0.737,0.401,0.259,0.478
775486,3528.0,6574.0,440.0,0.749,0.377,0.266,0.476
775502,2756.0,6008.0,666.0,0.76,0.351,0.274,0.474
775528,1742.0,4890.0,976.0,0.77,0.327,0.28,0.471
775544,1546.0,4022.0,778.0,0.778,0.306,0.287,0.467
775560,1520.0,4564.0,386.0,0.785,0.286,0.294,0.464
775576,956.0,3938.0,100.0,0.792,0.266,0.299,0.461
775592,570.0,2842.0,378.0,0.798,0.247,0.305,0.457
775608,526.0,2400.0,16.0,0.804,0.229,0.31,0.454
775634,134.0,1296.0,-134.0,0.808,0.212,0.316,0.45
775651,-704.0,1240.0,124.0,0.812,0.196,0.322,0.446
775667,-940.0,210.0,-128.0,0.815,0.181,0.328,0.442
775683,-916.0,136.0,-430.0,0.818,0.167,0.333,0.438
775699,-1430.0,-612.0,-322.0,0.819,0.152,0.339,0.437
775715,-2766.0,-2614.0,-3070.0,0.819,0.139,0.345,0.436
775741,-3546.0,-2370.0,190.0,0.819,0.131,0.349,0.436
775757,-4052.0,-2932.0,30.0,0.818,0.128,0.352,0.436
775773,-4128.0,-3128.0,46.0,0.816,0.13,0.353,0.438
775789,-4176.0,-2844.0,132.0,0.813,0.137,0.354,0.441
775805,-3854.0,-2044.0,-104.0,0.809,0.148,0.353,0.446
775821,-3174.0,-1696.0,146.0,0.804,0.163,0.351,0.451
775837,-2738.0,-452.0,80.0,0.798,0.182,0.348,0.458
775863,-1858.0,812.0,92.0,0.791,0.203,0.343,0.465
775879,-964.0,1486.0,18.0,0.783,0.226,0.336,0.472
775896,460.0,2698.0,216.0,0.775,0.251,0.329,0.478
775912,1078.0,3988.0,378.0,0.765,0.276,0.321,0.485
775929,1844.0,4696.0,612.0,0.755,0.302,0.313,0.492
775945,2656.0,5668.0,1016.0,0.743,0.329,0.305,0.497
775971,3236.0,5992.0,848.0,0.73,0.356,0.298,0.502
775987,3880.0,6846.0,724.0,0.715,0.385,0.292,0.505
776003,4002.0,8250.0,1232.0,0.699,0.413,0.286,0.509
776019,4502.0,8368.0,480.0,0.683,0.44,0.279,0.512
776035,5494.0,9142.0,530.0,0.666,0.467,0.272,0.515
776051,5206.0,10264.0,1196.0,0.649,0.491,0.262,0.519
776077,4576.0,9572.0,1670.0,0.633,0.514,0.25,0.523
776093,5736.0,8878.0,1056.0,0.616,0.536,0.236,0.527
776109,6784.0,9546.0,890.0,0.598,0.556,0.224,0.531
776125,7054.0,9838.0,1390.0,0.579,0.575,0.212,0.537
776141,6052.0,9992.0,2022.0,0.56,0.593,0.201,0.542
776157,6892.0,9948.0,2192.0,0.542,0.611,0.189,0.546
776183,7452.0,9354.0,1554.0,0.522,0.628,0.177,0.549
776199,8046.0,9746.0,1158.0,0.502,0.645,0.167,0.551
776215,7824.0,9702.0,1128.0,0.481,0.662,0.157,0.553
776231,7252.0,10344.0,1336.0,0.462,0.678,0.145,0.553
776247,8090.0,9862.0,778.0,0.445,0.693,0.133,0.552
776263,8474.0,8814.0,80.0,0.427,0.707,0.121,0.55
776289,8630.0,9280.0,-198.0,0.409,0.72,0.111,0.549
776305,8452.0,10984.0,618.0,0.392,0.732,0.1,0.548
776321,8510.0,10758.0,548.0,0.379,0.743,0.086,0.545
776337,9362.0,9492.0,122.0,0.367,0.752,0.074,0.543
776353,8334.0,10392.0,1418.0,0.355,0.761,0.062,0.54
776369,8090.0,9972.0,2092.0,0.345,0.769,0.05,0.536
776395,7968.0,9456.0,2552.0,0.337,0.777,0.039,0.53
776411,7990.0,9250.0,2362.0,0.33,0.785,0.028,0.523
776427,8178.0,9080.0,2250.0,0.325,0.792,0.018,0.516
776443,7978.0,9114.0,2358.0,0.322,0.798,0.01,0.509
776459,7744.0,9450.0,2872.0,0.322,0.802,0.003,0.503
776475,7470.0,9390.0,3370.0,0.323,0.805,-0.002,0.498
776501,7624.0,9426.0,3308.0,0.328,0.806,-0.006,0.493
776517,7786.0,9286.0,2966.0,0.335,0.804,-0.008,0.491
776533,7982.0,8818.0,3044.0,0.344,0.801,-0.009,0.49
776549,8126.0,9390.0,3078.0,0.355,0.796,-0.007,0.491
776565,8154.0,9154.0,3154.0,0.368,0.789,-0.004,0.493
776581,8580.0,9274.0,3120.0,0.383,0.78,0.0,0.495
776607,8718.0,9016.0,3140.0,0.399,0.769,0.007,0.498
776623,8710.0,9522.0,3476.0,0.416,0.758,0.016,0.502
776639,8746.0,10122.0,3620.0,0.434,0.746,0.025,0.505
776655,8838.0,10264.0,3284.0,0.452,0.732,0.036,0.508
776671,8764.0,11174.0,3394.0,0.47,0.718,0.047,0.511
776687,9390.0,10404.0,2902.0,0.489,0.703,0.059,0.513
776713,9620.0,11022.0,2402.0,0.507,0.687,0.072,0.515
776729,9440.0,10524.0,1994.0,0.527,0.669,0.086,0.517
776745,9390.0,10568.0,2098.0,0.546,0.65,0.101,0.519
776761,8868.0,10522.0,2332.0,0.565,0.63,0.116,0.52
776777,8408.0,10466.0,2022.0,0.583,0.61,0.131,0.52
776803,8180.0,10508.0,1732.0,0.602,0.59,0.147,0.518
776819,7778.0,10612.0,832.0,0.62,0.569,0.161,0.516
776835,7686.0,9212.0,84.0,0.638,0.547,0.177,0.512
776851,6972.0,9290.0,590.0,0.655,0.525,0.192,0.509
776867,5480.0,9674.0,1112.0,0.671,0.504,0.206,0.504
776883,4946.0,8940.0,302.0,0.687,0.483,0.218,0.497
776909,5138.0,7694.0,-80.0,0.703,0.463,0.228,0.49
776925,4368.0,7330.0,-90.0,0.716,0.443,0.237,0.484
776941,3236.0,6286.0,84.0,0.729,0.423,0.246,0.478
776957,3180.0,6204.0,80.0,0.741,0.403,0.254,0.472
776973,3052.0,5690.0,-566.0,0.753,0.383,0.262,0.468
776989,2368.0,5258.0,-196.0,0.763,0.361,0.269,0.464
777015,1468.0,4294.0,-20.0,0.773,0.338,0.275,0.461
777032,1534.0,3554.0,608.0,0.783,0.316,0.279,0.458
777048,1652.0,2532.0,58.0,0.791,0.295,0.284,0.455
777064,1182.0,2692.0,-380.0,0.798,0.274,0.29,0.452
777080,1256.0,3300.0,-938.0,0.803,0.253,0.296,0.45
777096,342.0,3244.0,-1006.0,0.808,0.23,0.302,0.45
777112,-1158.0,1152.0,274.0,0.812,0.207,0.306,0.453
777138,-2630.0,-1742.0,718.0,0.815,0.187,0.308,0.455
777154,-2918.0,-2980.0,-212.0,0.817,0.174,0.31,0.454
777171,-2094.0,-1932.0,-392.0,0.819,0.164,0.312,0.453
777187,-3212.0,-452.0,-570.0,0.819,0.156,0.313,0.455
777203,-3856.0,-1880.0,370.0,0.82,0.149,0.309,0.459
777219,-4404.0,-5000.0,1074.0,0.819,0.148,0.303,0.464
777235,-3890.0,-3920.0,814.0,0.818,0.155,0.296,0.467
777262,-3068.0,-2746.0,568.0,0.816,0.168,0.288,0.472
777278,-2270.0,-2142.0,498.0,0.813,0.184,0.279,0.477
777295,-1398.0,-512.0,370.0,0.808,0.203,0.271,0.482
777311,-476.0,814.0,256.0,0.802,0.222,0.262,0.489
777327,146.0,928.0,538.0,0.794,0.241,0.252,0.497
777343,834.0,1154.0,972.0,0.786,0.262,0.244,0.504
777359,2056.0,2334.0,1570.0,0.776,0.285,0.237,0.511
777385,2204.0,4272.0,1330.0,0.764,0.311,0.232,0.517
777401,2716.0,5288.0,1332.0,0.751,0.337,0.225,0.522
777417,3792.0,5210.0,1726.0,0.737,0.364,0.218,0.527
777433,3958.0,6990.0,1392.0,0.72,0.394,0.211,0.531
777449,5008.0,6094.0,1360.0,0.703,0.424,0.204,0.534
777475,5804.0,6644.0,1008.0,0.682,0.456,0.198,0.536
777491,5992.0,8884.0,530.0,0.662,0.487,0.192,0.536
777507,6394.0,9264.0,790.0,0.641,0.516,0.185,0.537
777523,6910.0,9168.0,660.0,0.619,0.544,0.178,0.537
777539,7746.0,9124.0,266.0,0.597,0.572,0.171,0.536
777555,8244.0,10362.0,-488.0,0.574,0.597,0.164,0.535
777581,8060.0,11206.0,230.0,0.552,0.62,0.156,0.535
777597,7500.0,10574.0,496.0,0.53,0.642,0.146,0.535
777613,8292.0,9758.0,-152.0,0.508,0.663,0.136,0.534
777629,9004.0,10702.0,-450.0,0.486,0.681,0.126,0.533
777646,8550.0,10634.0,-270.0,0.465,0.698,0.115,0.532
777662,8770.0,10344.0,26.0,0.445,0.714,0.103,0.53
777679,8676.0,10652.0,378.0,0.428,0.728,0.09,0.528
777705,8970.0,10138.0,-22.0,0.412,0.741,0.077,0.524
777721,9108.0,9578.0,-12.0,0.397,0.753,0.063,0.521
777737,9372.0,9802.0,-262.0,0.382,0.764,0.051,0.517
777753,8840.0,10110.0,710.0,0.37,0.774,0.038,0.513
777769,8114.0,9082.0,1114.0,0.36,0.783,0.026,0.507
777785,8786.0,9388.0,1046.0,0.35,0.791,0.014,0.502
777811,8464.0,9238.0,1264.0,0.342,0.799,0.004,0.495
777828,8268.0,9200.0,1416.0,0.335,0.805,-0.006,0.489
777845,8376.0,9278.0,1946.0,0.33,0.811,-0.015,0.482
777861,8168.0,9446.0,2284.0,0.327,0.816,-0.024,0.476
777878,8346.0,8876.0,2124.0,0.326,0.82,-0.03,0.469
777894,8504.0,9206.0,2176.0,0.327,0.822,-0.035,0.464
777910,8358.0,9422.0,2654.0,0.331,0.823,-0.038,0.46
777926,8412.0,9056.0,2888.0,0.337,0.822,-0.039,0.457
777952,8482.0,8802.0,2874.0,0.345,0.82,-0.038,0.455
777968,8936.0,8876.0,2606.0,0.355,0.816,-0.035,0.455
777984,9082.0,9162.0,2224.0,0.367,0.81,-0.029,0.457
778000,9030.0,8446.0,2456.0,0.38,0.802,-0.022,0.461
778016,8792.0,9252.0,2838.0,0.393,0.793,-0.012,0.465
778032,9028.0,10196.0,2684.0,0.408,0.783,-0.001,0.469
778058,9250.0,10202.0,2516.0,0.424,0.772,0.011,0.473
778074,9564.0,10294.0,1998.0,0.441,0.761,0.023,0.476
778090,8716.0,11384.0,1354.0,0.457,0.748,0.036,0.48
778106,8410.0,12608.0,2110.0,0.475,0.735,0.047,0.481
778122,8266.0,13080.0,1860.0,0.495,0.722,0.056,0.481
778148,10142.0,12150.0,1112.0,0.517,0.707,0.065,0.478
778164,10030.0,11864.0,380.0,0.54,0.69,0.076,0.476
778180,8650.0,10788.0,172.0,0.563,0.67,0.089,0.476
778196,7564.0,10642.0,750.0,0.585,0.65,0.103,0.475
778212,6660.0,10222.0,968.0,0.608,0.628,0.117,0.472
778229,6566.0,9326.0,462.0,0.63,0.605,0.13,0.469
778246,6586.0,9236.0,-368.0,0.651,0.581,0.143,0.466
778263,6194.0,8274.0,-184.0,0.673,0.555,0.155,0.464
778289,5526.0,7750.0,-140.0,0.693,0.529,0.168,0.461
778305,4934.0,7576.0,58.0,0.711,0.502,0.179,0.458
778321,4256.0,7122.0,-112.0,0.728,0.476,0.19,0.455
778337,4186.0,6658.0,-146.0,0.742,0.452,0.2,0.453
778353,3832.0,7302.0,-602.0,0.755,0.428,0.209,0.45
778369,3768.0,7250.0,-178.0,0.768,0.403,0.217,0.449
778395,3244.0,6280.0,440.0,0.779,0.378,0.222,0.448
778412,3164.0,5348.0,400.0,0.789,0.353,0.228,0.448
778428,2420.0,4766.0,16.0,0.798,0.33,0.234,0.447
778445,1280.0,4874.0,84.0,0.806,0.308,0.239,0.446
778461,1326.0,3898.0,500.0,0.813,0.285,0.243,0.445
778477,796.0,2502.0,1224.0,0.82,0.264,0.246,0.444
778494,504.0,1430.0,832.0,0.826,0.245,0.249,0.443
778511,562.0,526.0,826.0,0.83,0.228,0.253,0.441
778528,-280.0,66.0,834.0,0.834,0.212,0.259,0.438
778554,-1342.0,-472.0,550.0,0.837,0.199,0.264,0.436
778570,-1128.0,-2138.0,864.0,0.839,0.187,0.271,0.433
778586,-2608.0,-2064.0,358.0,0.84,0.178,0.277,0.431
778602,-4204.0,-990.0,740.0,0.841,0.172,0.281,0.43
778619,-4412.0,-3568.0,970.0,0.841,0.17,0.281,0.431
778635,-4660.0,-3824.0,578.0,0.84,0.174,0.279,0.431
778651,-4370.0,-3046.0,-196.0,0.839,0.184,0.275,0.432
778678,-3216.0,-1430.0,98.0,0.837,0.197,0.268,0.434
778695,-2844.0,-1420.0,344.0,0.834,0.213,0.259,0.437
778712,-1648.0,-870.0,582.0,0.83,0.233,0.249,0.441
778729,-690.0,560.0,744.0,0.825,0.256,0.238,0.444
778746,440.0,1620.0,614.0,0.818,0.279,0.226,0.448
778762,2452.0,3144.0,448.0,0.811,0.303,0.215,0.452
778779,3368.0,4074.0,992.0,0.802,0.325,0.206,0.457
778795,3170.0,4390.0,1038.0,0.791,0.348,0.199,0.462
778811,3388.0,4976.0,1442.0,0.78,0.371,0.192,0.466
778837,3588.0,5480.0,1028.0,0.768,0.396,0.186,0.469
778853,4284.0,6354.0,920.0,0.753,0.421,0.18,0.472
778869,4208.0,5972.0,1330.0,0.738,0.447,0.174,0.474
778885,4330.0,7176.0,1236.0,0.722,0.475,0.167,0.476
778901,4706.0,6600.0,1238.0,0.704,0.502,0.159,0.477
778917,5156.0,7546.0,502.0,0.685,0.53,0.152,0.476
778944,6342.0,8594.0,388.0,0.666,0.556,0.144,0.476
778960,6958.0,8326.0,126.0,0.646,0.581,0.137,0.476
778976,7418.0,9390.0,34.0,0.625,0.604,0.131,0.477
778992,7358.0,10006.0,-106.0,0.604,0.625,0.125,0.479
779008,6994.0,11070.0,588.0,0.584,0.643,0.117,0.481
779025,6722.0,10682.0,-76.0,0.564,0.66,0.108,0.484
779042,8250.0,10628.0,-506.0,0.545,0.676,0.097,0.486
779069,7886.0,11906.0,-160.0,0.526,0.691,0.086,0.489
779085,7344.0,11314.0,1048.0,0.509,0.704,0.073,0.49
779101,7584.0,9890.0,1138.0,0.492,0.718,0.059,0.489
779117,9094.0,9296.0,168.0,0.475,0.732,0.047,0.487
779134,9366.0,10048.0,-248.0,0.457,0.744,0.037,0.486
779151,9042.0,10140.0,-194.0,0.441,0.755,0.029,0.485
779167,7898.0,9178.0,942.0,0.426,0.764,0.021,0.484
779183,7618.0,8708.0,640.0,0.411,0.774,0.013,0.481
779209,7938.0,8896.0,174.0,0.398,0.783,0.006,0.478
779225,7798.0,8712.0,170.0,0.384,0.792,-0.001,0.474
779241,8198.0,8524.0,334.0,0.372,0.8,-0.008,0.471
779257,7388.0,8800.0,498.0,0.361,0.807,-0.015,0.467
779273,7444.0,9044.0,920.0,0.352,0.813,-0.022,0.464
779299,7386.0,9712.0,1276.0,0.344,0.819,-0.03,0.459
779316,7566.0,10162.0,1960.0,0.338,0.824,-0.038,0.454
779333,8014.0,9952.0,1764.0,0.335,0.828,-0.046,0.448
779350,8318.0,9618.0,2286.0,0.333,0.83,-0.052,0.444
779367,8524.0,10404.0,2814.0,0.333,0.832,-0.055,0.44
779384,8284.0,10664.0,3136.0,0.336,0.832,-0.056,0.438
779401,8162.0,10710.0,2610.0,0.34,0.83,-0.056,0.438
779417,8184.0,11576.0,3072.0,0.347,0.827,-0.053,0.438
779433,8116.0,11708.0,2876.0,0.358,0.823,-0.049,0.439
779449,8914.0,11296.0,2202.0,0.372,0.816,-0.044,0.44
779476,9114.0,11500.0,1788.0,0.389,0.807,-0.036,0.442
779492,9606.0,11712.0,1838.0,0.409,0.796,-0.027,0.445
779508,10040.0,11218.0,1896.0,0.432,0.783,-0.017,0.448
779525,10454.0,11298.0,1562.0,0.455,0.768,-0.004,0.45
779541,10332.0,12834.0,1302.0,0.479,0.752,0.009,0.453
779558,10690.0,10910.0,1314.0,0.504,0.734,0.023,0.454
779575,10768.0,11496.0,632.0,0.529,0.715,0.037,0.456
779592,11062.0,10890.0,-26.0,0.555,0.693,0.052,0.457
779609,10310.0,10770.0,-92.0,0.58,0.67,0.068,0.458
779635,9894.0,10284.0,-76.0,0.606,0.645,0.084,0.458
779651,9068.0,10008.0,160.0,0.63,0.62,0.099,0.457
779667,8318.0,9330.0,240.0,0.654,0.593,0.114,0.455
779684,7336.0,8604.0,576.0,0.677,0.566,0.129,0.453
779700,6678.0,8362.0,166.0,0.697,0.539,0.144,0.45
779717,5828.0,7940.0,-56.0,0.716,0.512,0.158,0.448
779734,5466.0,7764.0,-84.0,0.733,0.485,0.173,0.445
779751,4428.0,7184.0,202.0,0.748,0.459,0.186,0.442
779767,3714.0,7324.0,1046.0,0.762,0.433,0.198,0.439
779793,3244.0,5818.0,896.0,0.775,0.408,0.209,0.435
779809,3360.0,5626.0,1328.0,0.786,0.385,0.22,0.431
779825,2106.0,4926.0,2094.0,0.796,0.363,0.23,0.426
779841,938.0,5332.0,2022.0,0.806,0.341,0.239,0.42
779858,908.0,4620.0,1034.0,0.816,0.32,0.245,0.414
779875,1504.0,3034.0,640.0,0.825,0.298,0.252,0.409
779891,812.0,2768.0,622.0,0.832,0.278,0.261,0.403
779908,-134.0,3070.0,1466.0,0.838,0.259,0.27,0.398
779934,-408.0,2154.0,1784.0,0.843,0.241,0.278,0.392
779950,-326.0,1480.0,1304.0,0.848,0.224,0.286,0.386
779966,-636.0,1102.0,708.0,0.851,0.208,0.294,0.382
779982,-1182.0,316.0,586.0,0.853,0.194,0.303,0.377
779998,-2034.0,-292.0,514.0,0.855,0.181,0.312,0.372
780014,-2012.0,-582.0,36.0,0.856,0.171,0.319,0.369
780040,-2810.0,-1510.0,-404.0,0.856,0.161,0.325,0.367
780057,-3896.0,-3176.0,-96.0,0.856,0.155,0.329,0.366
780073,-5262.0,-3202.0,-578.0,0.856,0.155,0.331,0.366
780089,-4942.0,-2532.0,-470.0,0.856,0.16,0.329,0.366
780105,-4462.0,-2770.0,-516.0,0.855,0.169,0.323,0.368
780121,-3596.0,-1792.0,-382.0,0.854,0.181,0.315,0.372
780147,-2084.0,-1400.0,-178.0,0.853,0.196,0.304,0.376
780164,-1030.0,-192.0,256.0,0.851,0.213,0.293,0.381
780181,-412.0,384.0,672.0,0.848,0.232,0.281,0.386
780198,606.0,1228.0,838.0,0.843,0.251,0.269,0.392
780214,1460.0,2252.0,872.0,0.837,0.271,0.259,0.398
780230,1578.0,3040.0,1276.0,0.83,0.291,0.251,0.405
780246,1852.0,3884.0,1364.0,0.822,0.312,0.243,0.411
780262,2380.0,4254.0,1238.0,0.812,0.334,0.235,0.417
780288,2674.0,4874.0,1444.0,0.801,0.357,0.228,0.423
780304,2642.0,5718.0,1396.0,0.79,0.38,0.221,0.427
780320,2962.0,5752.0,1770.0,0.777,0.405,0.213,0.431
780336,3414.0,6848.0,1632.0,0.763,0.432,0.205,0.434
780352,4042.0,7316.0,1628.0,0.748,0.46,0.195,0.437
780378,4864.0,7636.0,1274.0,0.732,0.487,0.187,0.439
780395,5460.0,8408.0,1614.0,0.714,0.513,0.179,0.441
780412,5422.0,8768.0,1442.0,0.695,0.54,0.172,0.443
780429,5394.0,9086.0,1682.0,0.674,0.566,0.165,0.445
780446,5654.0,9644.0,1754.0,0.651,0.592,0.158,0.448
780463,6258.0,9666.0,300.0,0.624,0.619,0.152,0.451
780480,6960.0,12402.0,1016.0,0.598,0.645,0.145,0.454
780497,5998.0,13052.0,1688.0,0.573,0.666,0.135,0.457
780514,7446.0,11218.0,2290.0,0.551,0.686,0.123,0.459
780532,8918.0,11296.0,128.0,0.529,0.704,0.113,0.46
780549,8818.0,11536.0,-806.0,0.508,0.718,0.104,0.464
780566,8204.0,10380.0,978.0,0.488,0.729,0.096,0.47
780582,7954.0,10284.0,556.0,0.468,0.74,0.09,0.475
780608,8306.0,10296.0,942.0,0.447,0.75,0.086,0.48
780624,7812.0,9400.0,368.0,0.426,0.759,0.082,0.485
780640,7110.0,10524.0,862.0,0.405,0.769,0.078,0.489
780656,6944.0,10094.0,652.0,0.387,0.778,0.072,0.49
780672,7666.0,9204.0,84.0,0.369,0.787,0.065,0.489
780688,7696.0,9708.0,-576.0,0.352,0.796,0.059,0.489
780714,7816.0,9758.0,-588.0,0.337,0.803,0.052,0.489
780730,7230.0,9512.0,-580.0,0.323,0.809,0.045,0.489
780746,7174.0,9710.0,-336.0,0.311,0.813,0.039,0.49
780762,6814.0,10454.0,496.0,0.301,0.817,0.031,0.49
780778,6492.0,10202.0,804.0,0.295,0.821,0.023,0.489
780794,6244.0,10174.0,1000.0,0.292,0.823,0.014,0.487
780820,6420.0,10262.0,834.0,0.293,0.824,0.004,0.484
780836,6836.0,9868.0,992.0,0.297,0.825,-0.004,0.481
780852,7214.0,9838.0,628.0,0.304,0.824,-0.01,0.479
780868,7018.0,9892.0,1002.0,0.313,0.821,-0.014,0.478
780884,7542.0,9674.0,1404.0,0.324,0.817,-0.014,0.477
780900,7708.0,9716.0,1620.0,0.338,0.811,-0.013,0.477
780926,7974.0,10046.0,1652.0,0.353,0.804,-0.01,0.478
780942,8474.0,9896.0,2006.0,0.371,0.795,-0.006,0.479
780958,8838.0,10142.0,1526.0,0.392,0.784,-0.0,0.481
780974,8864.0,10024.0,1556.0,0.413,0.772,0.007,0.483
780990,9002.0,9894.0,2114.0,0.437,0.757,0.015,0.485
781016,9264.0,10168.0,2264.0,0.46,0.742,0.024,0.487
781032,9408.0,10530.0,2068.0,0.484,0.724,0.034,0.49
781048,9658.0,10152.0,1770.0,0.507,0.706,0.045,0.492
781064,9172.0,10082.0,2070.0,0.53,0.686,0.056,0.495
781080,9340.0,10370.0,2310.0,0.552,0.666,0.069,0.497
781096,8612.0,9546.0,3178.0,0.573,0.645,0.083,0.498
781122,8474.0,9916.0,2434.0,0.592,0.626,0.097,0.498
781138,8006.0,9750.0,2184.0,0.609,0.607,0.113,0.498
781154,6424.0,10304.0,2324.0,0.626,0.589,0.128,0.495
781170,6096.0,11190.0,2674.0,0.643,0.57,0.141,0.491
781186,6466.0,10444.0,1198.0,0.661,0.551,0.151,0.486
781202,6908.0,8490.0,414.0,0.679,0.53,0.16,0.482
781218,5982.0,7640.0,504.0,0.696,0.508,0.171,0.478
781244,4240.0,6728.0,912.0,0.71,0.487,0.182,0.474
781260,3396.0,6994.0,1112.0,0.724,0.467,0.192,0.47
781276,3156.0,6424.0,1376.0,0.738,0.446,0.2,0.465
781292,3386.0,6408.0,1234.0,0.751,0.426,0.206,0.461
781308,3490.0,5532.0,952.0,0.762,0.406,0.212,0.457
781324,3234.0,5826.0,350.0,0.772,0.387,0.219,0.454
781350,3036.0,5474.0,560.0,0.783,0.365,0.226,0.451
781366,2542.0,4138.0,534.0,0.792,0.342,0.233,0.448
781383,2050.0,3150.0,1210.0,0.801,0.319,0.242,0.445
781399,1334.0,2174.0,880.0,0.808,0.297,0.251,0.442
781416,1424.0,1656.0,606.0,0.813,0.277,0.264,0.439
781433,1068.0,1900.0,526.0,0.817,0.258,0.277,0.436
781449,-156.0,1912.0,-302.0,0.819,0.239,0.29,0.433
781475,100.0,1504.0,-350.0,0.821,0.219,0.301,0.433
781491,-1476.0,700.0,-1384.0,0.822,0.199,0.312,0.432
781507,-1184.0,-886.0,-140.0,0.823,0.179,0.322,0.433
781523,-3000.0,-4054.0,150.0,0.822,0.16,0.332,0.433
781539,-4662.0,-5566.0,158.0,0.821,0.15,0.342,0.433
781555,-4012.0,-1896.0,2114.0,0.818,0.151,0.352,0.43
781581,-3770.0,6918.0,3418.0,0.815,0.151,0.359,0.429
781597,-6664.0,-60.0,966.0,0.814,0.152,0.356,0.434
781613,-4334.0,-3604.0,1162.0,0.812,0.159,0.348,0.441
781629,-2964.0,-3594.0,486.0,0.809,0.173,0.342,0.446
781645,-2068.0,-1430.0,-1188.0,0.805,0.192,0.335,0.45
781661,-1616.0,1968.0,-18.0,0.8,0.213,0.326,0.456
781687,-1088.0,3284.0,684.0,0.795,0.233,0.314,0.464
781703,-146.0,1258.0,1416.0,0.789,0.253,0.299,0.473
781719,1478.0,1976.0,1450.0,0.781,0.277,0.286,0.481
781735,2290.0,3632.0,1182.0,0.772,0.302,0.275,0.487
781751,2544.0,5022.0,1314.0,0.763,0.326,0.264,0.492
781767,3088.0,5460.0,1240.0,0.752,0.35,0.254,0.497
781793,3208.0,4700.0,2446.0,0.74,0.375,0.245,0.501
781809,2890.0,6166.0,2242.0,0.727,0.402,0.237,0.503
781825,3778.0,6766.0,1802.0,0.712,0.431,0.23,0.505
781841,3598.0,7514.0,1846.0,0.695,0.46,0.222,0.506
781857,4196.0,7114.0,1232.0,0.677,0.489,0.214,0.506
781873,4958.0,7314.0,966.0,0.658,0.519,0.206,0.506
781899,5074.0,7510.0,188.0,0.638,0.547,0.198,0.505
781915,5394.0,7814.0,1002.0,0.616,0.576,0.19,0.503
781931,5378.0,8008.0,780.0,0.593,0.605,0.18,0.5
781947,6292.0,9284.0,244.0,0.57,0.632,0.168,0.497
781963,8038.0,9232.0,-1910.0,0.547,0.657,0.156,0.494
781979,9724.0,11596.0,-1138.0,0.525,0.679,0.143,0.493
782005,8612.0,11586.0,-88.0,0.504,0.697,0.13,0.493
782021,8532.0,10886.0,-790.0,0.484,0.714,0.118,0.492
782037,9248.0,11562.0,-1316.0,0.464,0.729,0.107,0.491
782053,8660.0,12030.0,-56.0,0.445,0.743,0.094,0.491
782069,8134.0,11006.0,52.0,0.428,0.756,0.081,0.489
782085,8174.0,10922.0,244.0,0.411,0.768,0.069,0.486
782111,8466.0,10110.0,-326.0,0.394,0.78,0.056,0.483
782128,8762.0,10028.0,-396.0,0.378,0.79,0.044,0.481
782144,8636.0,10288.0,-190.0,0.362,0.799,0.033,0.48
782161,8536.0,9788.0,194.0,0.349,0.806,0.023,0.477
782178,8500.0,9918.0,392.0,0.337,0.813,0.013,0.475
782194,8028.0,9440.0,1036.0,0.326,0.819,0.003,0.472
782211,8024.0,9602.0,1140.0,0.317,0.825,-0.005,0.468
782228,8014.0,9796.0,1438.0,0.309,0.83,-0.013,0.464
782245,7858.0,9844.0,1820.0,0.304,0.834,-0.018,0.46
782262,7892.0,10002.0,2060.0,0.3,0.837,-0.023,0.456
782288,7806.0,9700.0,2246.0,0.299,0.84,-0.027,0.453
782304,7882.0,9852.0,2148.0,0.3,0.841,-0.029,0.45
782320,7676.0,9756.0,2054.0,0.303,0.84,-0.029,0.449
782336,7640.0,9328.0,2144.0,0.308,0.838,-0.027,0.449
782352,7518.0,9448.0,1838.0,0.316,0.835,-0.023,0.451
782368,7520.0,9826.0,1696.0,0.325,0.83,-0.016,0.453
782394,7748.0,9852.0,1584.0,0.338,0.823,-0.009,0.457
782410,8052.0,9830.0,1458.0,0.352,0.814,0.0,0.461
782426,8066.0,9852.0,1078.0,0.368,0.804,0.011,0.466
782442,7208.0,9864.0,1902.0,0.386,0.794,0.021,0.469
782459,7462.0,10072.0,1984.0,0.405,0.784,0.031,0.47
782485,8730.0,10044.0,1514.0,0.423,0.773,0.041,0.47
782501,9744.0,11050.0,744.0,0.441,0.763,0.051,0.47
782517,10438.0,9958.0,-250.0,0.46,0.751,0.062,0.47
782533,9504.0,10504.0,-684.0,0.48,0.737,0.074,0.471
782549,9354.0,10482.0,72.0,0.5,0.721,0.084,0.472
782565,9262.0,10078.0,-552.0,0.521,0.704,0.095,0.472
782582,9322.0,10298.0,-486.0,0.542,0.687,0.105,0.473
782599,9178.0,10414.0,-714.0,0.563,0.668,0.115,0.473
782625,9096.0,9854.0,-496.0,0.584,0.646,0.126,0.474
782641,8664.0,9356.0,-324.0,0.604,0.624,0.139,0.475
782657,7744.0,8866.0,-292.0,0.624,0.601,0.153,0.476
782673,6878.0,8762.0,112.0,0.642,0.577,0.167,0.476
782689,5824.0,8746.0,346.0,0.66,0.553,0.181,0.475
782705,5196.0,7796.0,930.0,0.676,0.53,0.193,0.473
782731,4272.0,7572.0,1326.0,0.691,0.509,0.205,0.47
782747,3650.0,7126.0,592.0,0.705,0.488,0.217,0.466
782763,3970.0,7358.0,348.0,0.719,0.467,0.228,0.461
782779,2888.0,6486.0,436.0,0.732,0.444,0.239,0.458
782795,1768.0,5688.0,314.0,0.744,0.422,0.25,0.454
782811,2270.0,5320.0,376.0,0.755,0.4,0.26,0.449
782838,1878.0,4656.0,508.0,0.765,0.378,0.271,0.446
782854,792.0,3368.0,536.0,0.774,0.356,0.282,0.442
782870,920.0,2832.0,822.0,0.781,0.335,0.292,0.438
782886,408.0,2604.0,448.0,0.787,0.316,0.304,0.433
782902,-148.0,1786.0,280.0,0.792,0.298,0.315,0.429
782918,-478.0,1728.0,228.0,0.797,0.282,0.326,0.424
782935,-920.0,790.0,216.0,0.8,0.266,0.337,0.419
782961,-1352.0,792.0,-132.0,0.803,0.252,0.345,0.416
782978,-1928.0,-184.0,260.0,0.805,0.24,0.352,0.412
782995,-2344.0,-1578.0,318.0,0.807,0.229,0.358,0.409
783011,-2620.0,-3022.0,594.0,0.808,0.222,0.364,0.406
783028,-4612.0,-1904.0,414.0,0.809,0.219,0.369,0.403
783045,-5036.0,-2306.0,344.0,0.808,0.22,0.37,0.402
783062,-4520.0,-3646.0,490.0,0.807,0.226,0.369,0.402
783079,-4712.0,-2960.0,360.0,0.805,0.237,0.366,0.402
783096,-3846.0,-2252.0,172.0,0.802,0.252,0.361,0.404
783112,-3412.0,-1834.0,126.0,0.797,0.27,0.355,0.407
783139,-2660.0,-1052.0,-24.0,0.791,0.292,0.347,0.41
783156,-1852.0,368.0,-154.0,0.784,0.315,0.338,0.415
783172,-504.0,1750.0,-612.0,0.776,0.338,0.328,0.42
783188,1032.0,3308.0,-942.0,0.766,0.361,0.318,0.426
783204,2140.0,4148.0,-682.0,0.755,0.382,0.308,0.434
783221,2296.0,4900.0,-194.0,0.743,0.403,0.299,0.443
783237,2288.0,5268.0,-22.0,0.731,0.423,0.29,0.451
783253,3098.0,6356.0,164.0,0.717,0.444,0.28,0.459
783280,3856.0,7030.0,214.0,0.702,0.466,0.269,0.466
783297,4226.0,6732.0,454.0,0.686,0.489,0.259,0.473
783313,4946.0,7772.0,204.0,0.668,0.512,0.25,0.478
783329,5960.0,8460.0,446.0,0.65,0.536,0.24,0.483
783346,6300.0,8764.0,-268.0,0.63,0.56,0.23,0.486
783362,7050.0,9564.0,-500.0,0.61,0.583,0.22,0.489
783378,7204.0,10406.0,-80.0,0.591,0.604,0.209,0.492
783405,7312.0,10748.0,462.0,0.574,0.623,0.195,0.494
783421,7306.0,9614.0,1242.0,0.56,0.64,0.179,0.495
783437,7816.0,10586.0,558.0,0.549,0.654,0.16,0.495
783453,9664.0,8938.0,422.0,0.539,0.667,0.143,0.494
783469,10218.0,9944.0,-190.0,0.526,0.678,0.132,0.496
783485,7578.0,10538.0,2332.0,0.513,0.688,0.12,0.499
783511,7454.0,9472.0,2154.0,0.499,0.699,0.107,0.5
783528,7408.0,9642.0,2540.0,0.485,0.711,0.094,0.5
783544,7724.0,10366.0,1518.0,0.468,0.724,0.081,0.501
783561,7086.0,11064.0,1884.0,0.451,0.736,0.066,0.5
783578,7144.0,10882.0,916.0,0.436,0.748,0.05,0.499
783595,8666.0,10434.0,596.0,0.423,0.758,0.033,0.496
783612,8372.0,10256.0,1020.0,0.411,0.766,0.016,0.493
783629,8154.0,9772.0,1482.0,0.401,0.774,-0.001,0.49
783646,7578.0,9176.0,1168.0,0.392,0.781,-0.018,0.485
783664,7726.0,8542.0,772.0,0.386,0.788,-0.034,0.479
783681,8448.0,8294.0,1010.0,0.379,0.794,-0.048,0.473
783698,8090.0,8760.0,2318.0,0.374,0.8,-0.06,0.465
783715,7898.0,8286.0,2502.0,0.369,0.806,-0.071,0.457
783731,8042.0,7994.0,1192.0,0.366,0.811,-0.08,0.449
783758,7936.0,8184.0,1144.0,0.363,0.815,-0.087,0.442
783774,7306.0,8322.0,1702.0,0.362,0.819,-0.092,0.436
783790,7070.0,8394.0,1906.0,0.364,0.82,-0.096,0.43
783807,6966.0,8350.0,2254.0,0.367,0.821,-0.1,0.425
783823,6804.0,8388.0,2386.0,0.373,0.82,-0.104,0.421
783840,6972.0,8186.0,2162.0,0.381,0.818,-0.108,0.417
783857,7186.0,7974.0,1902.0,0.391,0.814,-0.11,0.415
783874,7402.0,8078.0,2466.0,0.402,0.809,-0.11,0.414
783891,7320.0,8242.0,2746.0,0.414,0.803,-0.11,0.414
783917,7562.0,8332.0,2642.0,0.428,0.796,-0.108,0.415
783933,7860.0,8488.0,2766.0,0.442,0.788,-0.105,0.416
783949,8286.0,8720.0,2782.0,0.458,0.778,-0.1,0.418
783965,8652.0,8860.0,2532.0,0.475,0.767,-0.093,0.421
783982,8878.0,9192.0,2474.0,0.493,0.755,-0.084,0.424
783998,9124.0,9890.0,2406.0,0.512,0.741,-0.075,0.428
784024,9256.0,9750.0,2408.0,0.533,0.725,-0.065,0.431
784040,9710.0,9426.0,2124.0,0.555,0.708,-0.054,0.433
784057,9350.0,9762.0,2596.0,0.576,0.69,-0.041,0.436
784073,9280.0,10338.0,2966.0,0.599,0.671,-0.028,0.437
784089,8962.0,9210.0,3366.0,0.62,0.652,-0.013,0.437
784106,8012.0,9884.0,2994.0,0.641,0.632,0.002,0.436
784122,7900.0,9438.0,2332.0,0.66,0.612,0.018,0.435
784138,7102.0,9154.0,2746.0,0.679,0.591,0.033,0.434
784164,6972.0,9896.0,2688.0,0.697,0.57,0.049,0.432
784181,6552.0,9434.0,2540.0,0.714,0.548,0.063,0.43
784197,6124.0,9238.0,2250.0,0.731,0.526,0.078,0.428
784213,5268.0,8764.0,2778.0,0.747,0.502,0.092,0.427
784229,4998.0,8402.0,3658.0,0.762,0.477,0.104,0.425
784245,4454.0,7716.0,2642.0,0.776,0.452,0.116,0.425
784271,3858.0,8372.0,3594.0,0.788,0.427,0.126,0.424
784287,2674.0,7814.0,4706.0,0.8,0.403,0.134,0.425
784303,2920.0,6538.0,1868.0,0.809,0.38,0.141,0.426
784319,4078.0,5466.0,2174.0,0.815,0.358,0.151,0.429
784335,2238.0,5644.0,2896.0,0.82,0.337,0.162,0.433
784351,1144.0,5366.0,2394.0,0.823,0.318,0.173,0.438
784377,1956.0,5402.0,2938.0,0.826,0.297,0.181,0.442
784394,1416.0,4396.0,2286.0,0.829,0.276,0.189,0.448
784410,1024.0,3666.0,1736.0,0.832,0.254,0.194,0.454
784427,1104.0,2604.0,2012.0,0.834,0.232,0.199,0.46
784444,694.0,1910.0,1610.0,0.836,0.209,0.203,0.465
784460,992.0,-124.0,2208.0,0.838,0.188,0.208,0.468
784476,34.0,570.0,2006.0,0.839,0.171,0.214,0.471
784502,-522.0,628.0,1288.0,0.84,0.156,0.219,0.472
784518,-426.0,946.0,1202.0,0.84,0.142,0.224,0.473
784534,-272.0,662.0,1284.0,0.84,0.13,0.23,0.474
784550,-434.0,-250.0,1392.0,0.84,0.119,0.235,0.475
784566,-1446.0,496.0,1648.0,0.839,0.11,0.241,0.476
784582,-2078.0,-408.0,1796.0,0.837,0.103,0.246,0.478
784608,-2878.0,-964.0,1724.0,0.836,0.098,0.25,0.479
784625,-3158.0,-1594.0,1770.0,0.834,0.098,0.253,0.481
784642,-3536.0,-776.0,1356.0,0.832,0.103,0.255,0.482
784659,-3336.0,-858.0,1242.0,0.83,0.11,0.255,0.484
784677,-3532.0,-1428.0,1520.0,0.828,0.12,0.254,0.486
784694,-3438.0,-1434.0,1606.0,0.825,0.136,0.251,0.488
784711,-2976.0,-790.0,1464.0,0.821,0.157,0.248,0.49
784727,-1810.0,314.0,1448.0,0.817,0.181,0.243,0.491
784743,-666.0,1942.0,1272.0,0.812,0.208,0.237,0.492
784759,482.0,3368.0,706.0,0.805,0.234,0.23,0.494
784776,1654.0,3386.0,1022.0,0.798,0.261,0.221,0.496
784803,2908.0,2368.0,1880.0,0.789,0.288,0.214,0.498
784819,2988.0,3462.0,2468.0,0.779,0.318,0.21,0.499
784835,2940.0,5194.0,2010.0,0.767,0.35,0.208,0.496
784851,3872.0,7164.0,1552.0,0.754,0.381,0.205,0.494
784867,5034.0,7600.0,1456.0,0.741,0.411,0.202,0.492
784883,4696.0,7768.0,1232.0,0.725,0.44,0.2,0.491
784899,4528.0,8360.0,1166.0,0.709,0.469,0.196,0.489
784925,5142.0,8848.0,1200.0,0.691,0.497,0.192,0.488
784941,5200.0,8734.0,1846.0,0.674,0.525,0.186,0.486
784957,5114.0,9376.0,1880.0,0.655,0.553,0.179,0.483
784973,5534.0,9434.0,1594.0,0.637,0.578,0.171,0.48
784989,6694.0,8652.0,-144.0,0.619,0.602,0.164,0.478
785015,7768.0,8574.0,460.0,0.598,0.623,0.16,0.477
785031,5874.0,9486.0,674.0,0.576,0.643,0.158,0.479
785048,5238.0,9830.0,1314.0,0.553,0.663,0.156,0.48
785064,5642.0,11096.0,526.0,0.529,0.682,0.151,0.481
785081,5898.0,12254.0,730.0,0.506,0.7,0.143,0.483
785097,5452.0,12602.0,2282.0,0.485,0.718,0.131,0.482
785113,5922.0,11690.0,1480.0,0.466,0.735,0.116,0.479
785130,7722.0,11596.0,492.0,0.448,0.751,0.102,0.475
785156,8276.0,11656.0,34.0,0.43,0.764,0.089,0.473
785173,8220.0,11456.0,570.0,0.412,0.776,0.079,0.471
785189,7118.0,11410.0,1242.0,0.396,0.786,0.069,0.47
785205,7196.0,11214.0,1884.0,0.381,0.795,0.06,0.468
785221,6866.0,10852.0,1516.0,0.369,0.803,0.05,0.464
785238,7064.0,10258.0,1280.0,0.36,0.811,0.042,0.46
785254,7244.0,9632.0,516.0,0.351,0.817,0.035,0.456
785280,7270.0,9728.0,410.0,0.342,0.822,0.03,0.454
785297,6578.0,9882.0,544.0,0.336,0.826,0.027,0.452
785313,6520.0,9714.0,422.0,0.331,0.829,0.024,0.45
785330,6272.0,9596.0,176.0,0.328,0.831,0.022,0.449
785347,5926.0,9396.0,786.0,0.328,0.832,0.02,0.446
785364,5962.0,8466.0,-378.0,0.329,0.833,0.019,0.444
785381,6152.0,8654.0,-692.0,0.331,0.833,0.019,0.443
785398,5620.0,8288.0,-964.0,0.334,0.832,0.02,0.443
