timeMs,ax,ay,az,q0,q1,q2,q3
3114203,5810.0,1620.0,5811.0,0.918,0.088,-0.385,-0.024
3114219,5790.0,1778.0,5631.0,0.919,0.087,-0.384,-0.022
3114235,5694.0,1474.0,5837.0,0.92,0.086,-0.381,-0.021
3114251,5480.0,920.0,5801.0,0.921,0.085,-0.38,-0.019
3114277,5362.0,1030.0,5965.0,0.922,0.084,-0.378,-0.017
3114293,5406.0,774.0,5819.0,0.922,0.084,-0.377,-0.015
3114309,5392.0,480.0,5745.0,0.923,0.085,-0.376,-0.013
3114325,5584.0,722.0,5701.0,0.923,0.086,-0.376,-0.011
3114341,5730.0,1006.0,6073.0,0.922,0.089,-0.376,-0.009
3114357,5716.0,900.0,5841.0,0.922,0.091,-0.376,-0.007
3114383,5694.0,838.0,5459.0,0.922,0.094,-0.376,-0.005
3114399,5886.0,548.0,6145.0,0.921,0.098,-0.376,-0.003
3114415,5872.0,650.0,6215.0,0.921,0.101,-0.376,-0.002
3114431,5894.0,714.0,6325.0,0.921,0.105,-0.376,-0.0
3114447,5964.0,966.0,6219.0,0.921,0.109,-0.375,0.002
3114463,5858.0,1184.0,6099.0,0.921,0.112,-0.373,0.003
3114489,5634.0,1304.0,6031.0,0.922,0.114,-0.37,0.005
3114505,5324.0,1488.0,6047.0,0.923,0.117,-0.367,0.007
3114521,5240.0,1946.0,6397.0,0.924,0.12,-0.364,0.009
3114537,5922.0,2284.0,6497.0,0.925,0.12,-0.36,0.011
3114553,5698.0,2844.0,5857.0,0.926,0.121,-0.356,0.013
3114569,7080.0,2832.0,4957.0,0.929,0.117,-0.35,0.014
3114595,6938.0,4970.0,3677.0,0.934,0.109,-0.34,0.014
3114611,6868.0,2400.0,4515.0,0.94,0.097,-0.327,0.014
3114627,6254.0,2870.0,4893.0,0.947,0.084,-0.31,0.014
3114643,6008.0,1726.0,5035.0,0.954,0.068,-0.291,0.014
3114659,4208.0,286.0,5443.0,0.961,0.051,-0.271,0.013
3114676,2944.0,-728.0,6849.0,0.967,0.034,-0.253,0.012
3114702,2610.0,-722.0,8053.0,0.971,0.02,-0.237,0.009
3114718,2654.0,-580.0,8595.0,0.975,0.008,-0.224,0.007
3114734,2282.0,-1402.0,8593.0,0.977,-0.002,-0.213,0.005
3114750,1990.0,-2278.0,8325.0,0.979,-0.012,-0.204,0.003
3114766,1694.0,-2396.0,7983.0,0.98,-0.019,-0.196,0.001
3114792,1480.0,-2038.0,7887.0,0.981,-0.025,-0.19,-0.001
3114808,1130.0,-2424.0,7809.0,0.982,-0.029,-0.186,-0.002
3114824,1220.0,-2480.0,7713.0,0.982,-0.031,-0.184,-0.003
3114840,1270.0,-2562.0,7783.0,0.983,-0.032,-0.183,-0.004
3114856,1466.0,-2294.0,7757.0,0.982,-0.031,-0.184,-0.004
3114872,1894.0,-2018.0,7697.0,0.982,-0.029,-0.185,-0.004
3114888,1980.0,-1664.0,7685.0,0.982,-0.026,-0.187,-0.002
3114914,2134.0,-1308.0,7727.0,0.982,-0.023,-0.19,-0.0
3114930,2130.0,-1014.0,7391.0,0.981,-0.02,-0.193,0.002
3114947,2334.0,-972.0,7631.0,0.98,-0.017,-0.197,0.005
3114963,2662.0,-462.0,7577.0,0.98,-0.014,-0.201,0.008
3114979,2868.0,-146.0,7799.0,0.979,-0.011,-0.205,0.012
3114995,3232.0,-136.0,7873.0,0.978,-0.009,-0.21,0.015
3115021,3056.0,-594.0,7787.0,0.977,-0.007,-0.214,0.019
3115037,3538.0,-390.0,7979.0,0.975,-0.004,-0.219,0.023
3115053,3442.0,-830.0,7647.0,0.974,-0.001,-0.223,0.027
3115069,4070.0,-178.0,7377.0,0.973,0.002,-0.227,0.03
3115085,3922.0,-490.0,7151.0,0.972,0.005,-0.231,0.034
3115101,4304.0,-318.0,7183.0,0.972,0.007,-0.233,0.038
3115127,4110.0,-866.0,6973.0,0.971,0.01,-0.235,0.041
3115143,4914.0,-62.0,7593.0,0.971,0.011,-0.236,0.045
3115159,4426.0,-384.0,7133.0,0.97,0.012,-0.236,0.048
3115175,4414.0,-360.0,7117.0,0.97,0.013,-0.236,0.051
3115191,4244.0,-412.0,7209.0,0.97,0.014,-0.235,0.054
3115207,4196.0,-248.0,7355.0,0.97,0.015,-0.235,0.057
3115233,4014.0,-174.0,7397.0,0.97,0.016,-0.233,0.06
3115249,3814.0,-346.0,7471.0,0.971,0.016,-0.232,0.063
3115265,3614.0,-714.0,7543.0,0.971,0.017,-0.231,0.065
3115281,3524.0,-712.0,7551.0,0.971,0.018,-0.23,0.067
3115297,3280.0,-794.0,7587.0,0.971,0.02,-0.229,0.07
3115313,3352.0,-520.0,7443.0,0.971,0.022,-0.229,0.072
3115339,3350.0,-210.0,7405.0,0.97,0.025,-0.229,0.074
3115355,3372.0,-270.0,7471.0,0.97,0.027,-0.228,0.076
3115371,3334.0,-238.0,7529.0,0.97,0.03,-0.228,0.078
3115387,3356.0,-352.0,7527.0,0.97,0.033,-0.229,0.079
3115403,3424.0,-258.0,7493.0,0.969,0.036,-0.229,0.081
3115419,3480.0,-68.0,7443.0,0.969,0.04,-0.229,0.082
3115445,3464.0,132.0,7395.0,0.969,0.043,-0.229,0.084
3115461,3516.0,302.0,7383.0,0.969,0.046,-0.229,0.086
3115477,3536.0,470.0,7365.0,0.968,0.048,-0.229,0.088
3115493,3392.0,186.0,7423.0,0.968,0.05,-0.228,0.09
3115509,3354.0,100.0,7553.0,0.968,0.052,-0.228,0.091
3115525,3378.0,90.0,7613.0,0.968,0.054,-0.228,0.093
3115551,3364.0,202.0,7587.0,0.967,0.056,-0.228,0.095
3115567,3420.0,390.0,7545.0,0.967,0.059,-0.228,0.097
3115583,3560.0,574.0,7497.0,0.967,0.061,-0.229,0.098
3115599,3576.0,532.0,7423.0,0.966,0.063,-0.23,0.099
3115615,3532.0,464.0,7387.0,0.966,0.064,-0.23,0.101
3115631,3606.0,456.0,7393.0,0.965,0.065,-0.231,0.101
3115657,3576.0,460.0,7405.0,0.965,0.066,-0.232,0.102
3115673,3602.0,424.0,7419.0,0.965,0.068,-0.233,0.103
3115689,3764.0,498.0,7375.0,0.964,0.069,-0.234,0.104
3115705,3768.0,486.0,7393.0,0.964,0.07,-0.235,0.104
3115721,3826.0,512.0,7393.0,0.963,0.071,-0.236,0.105
3115737,3894.0,520.0,7369.0,0.963,0.073,-0.237,0.105
3115763,3970.0,532.0,7313.0,0.963,0.074,-0.238,0.106
3115779,3942.0,590.0,7247.0,0.962,0.075,-0.239,0.107
3115795,3996.0,608.0,7287.0,0.962,0.076,-0.239,0.107
3115811,3948.0,592.0,7267.0,0.962,0.077,-0.239,0.108
3115827,3882.0,596.0,7283.0,0.962,0.078,-0.239,0.109
3115853,3806.0,530.0,7269.0,0.962,0.078,-0.239,0.11
3115869,3766.0,498.0,7273.0,0.961,0.078,-0.239,0.111
3115885,3778.0,504.0,7387.0,0.961,0.079,-0.239,0.112
3115901,3698.0,460.0,7339.0,0.961,0.079,-0.239,0.113
3115917,3706.0,472.0,7357.0,0.961,0.08,-0.239,0.114
3115933,3712.0,486.0,7415.0,0.961,0.081,-0.239,0.115
3115959,3702.0,480.0,7351.0,0.961,0.081,-0.239,0.116
3115975,3714.0,444.0,7327.0,0.96,0.082,-0.239,0.117
3115991,3742.0,636.0,7351.0,0.96,0.083,-0.239,0.118
3116007,3740.0,576.0,7265.0,0.96,0.084,-0.239,0.119
3116023,3794.0,566.0,7315.0,0.96,0.085,-0.239,0.12
3116039,3830.0,634.0,7335.0,0.96,0.087,-0.239,0.12
3116065,3766.0,588.0,7289.0,0.959,0.088,-0.239,0.121
3116081,3768.0,698.0,7259.0,0.959,0.089,-0.239,0.122
3116097,3850.0,770.0,7247.0,0.959,0.09,-0.239,0.122
3116113,3836.0,874.0,7221.0,0.959,0.091,-0.239,0.123
3116129,3778.0,766.0,7289.0,0.959,0.091,-0.239,0.124
3116145,3716.0,690.0,7287.0,0.959,0.092,-0.238,0.124
3116171,3726.0,634.0,7331.0,0.959,0.092,-0.238,0.125
3116187,3684.0,632.0,7329.0,0.959,0.092,-0.238,0.126
3116203,3708.0,618.0,7343.0,0.958,0.093,-0.238,0.126
3116219,3778.0,606.0,7327.0,0.958,0.093,-0.239,0.127
3116235,3860.0,588.0,7311.0,0.958,0.093,-0.239,0.128
3116251,3874.0,582.0,7261.0,0.958,0.094,-0.239,0.128
3116277,3830.0,580.0,7249.0,0.958,0.094,-0.239,0.129
3116293,3830.0,536.0,7267.0,0.958,0.095,-0.24,0.129
3116309,3856.0,548.0,7237.0,0.957,0.095,-0.24,0.13
3116325,3782.0,578.0,7219.0,0.957,0.096,-0.24,0.13
3116341,3788.0,466.0,7309.0,0.957,0.097,-0.24,0.131
3116357,3792.0,722.0,7339.0,0.956,0.099,-0.241,0.132
3116383,3856.0,856.0,7265.0,0.956,0.101,-0.241,0.133
3116399,3878.0,892.0,7305.0,0.956,0.102,-0.241,0.133
3116415,3900.0,934.0,7223.0,0.955,0.104,-0.242,0.134
3116431,3948.0,974.0,7187.0,0.955,0.106,-0.242,0.135
3116447,3942.0,1108.0,7193.0,0.955,0.107,-0.242,0.136
3116463,3920.0,1080.0,7243.0,0.954,0.108,-0.242,0.137
3116489,3960.0,1152.0,7213.0,0.954,0.109,-0.242,0.138
3116505,3834.0,1004.0,7161.0,0.954,0.109,-0.242,0.139
3116521,3918.0,982.0,7211.0,0.954,0.11,-0.242,0.139
3116537,3928.0,1006.0,7177.0,0.954,0.111,-0.242,0.14
3116553,3978.0,1014.0,7153.0,0.954,0.111,-0.243,0.14
3116569,4004.0,1066.0,7195.0,0.953,0.111,-0.243,0.141
3116595,4018.0,1064.0,7193.0,0.953,0.112,-0.242,0.141
3116611,3968.0,976.0,7175.0,0.953,0.112,-0.242,0.141
3116627,3892.0,968.0,7205.0,0.953,0.112,-0.242,0.141
3116643,3950.0,992.0,7205.0,0.953,0.112,-0.242,0.141
3116659,3948.0,924.0,7215.0,0.953,0.112,-0.242,0.142
3116685,3920.0,892.0,7201.0,0.953,0.111,-0.242,0.142
3116701,3914.0,900.0,7209.0,0.953,0.112,-0.241,0.142
3116718,3838.0,918.0,7239.0,0.953,0.112,-0.241,0.143
3116734,3848.0,858.0,7219.0,0.953,0.112,-0.241,0.143
3116750,3926.0,958.0,7191.0,0.953,0.112,-0.241,0.143
3116766,3916.0,920.0,7211.0,0.953,0.112,-0.241,0.144
3116782,3932.0,860.0,7229.0,0.953,0.112,-0.241,0.144
3116808,3930.0,740.0,7191.0,0.953,0.113,-0.241,0.145
3116824,3946.0,920.0,7157.0,0.953,0.113,-0.241,0.145
3116840,3906.0,984.0,7189.0,0.953,0.114,-0.241,0.146
3116856,3932.0,926.0,7207.0,0.953,0.114,-0.241,0.146
3116872,3966.0,1006.0,7191.0,0.953,0.115,-0.241,0.147
3116888,3866.0,936.0,7183.0,0.952,0.115,-0.241,0.147
3116914,3892.0,942.0,7211.0,0.952,0.116,-0.241,0.148
3116930,3948.0,1120.0,7219.0,0.952,0.117,-0.241,0.149
3116946,3986.0,1088.0,7187.0,0.952,0.117,-0.241,0.149
3116962,3898.0,1062.0,7191.0,0.952,0.118,-0.241,0.15
3116978,3916.0,1002.0,7163.0,0.952,0.118,-0.241,0.15
3116994,3888.0,1138.0,7129.0,0.951,0.119,-0.241,0.15
3117020,3884.0,1086.0,7229.0,0.951,0.12,-0.241,0.15
3117036,3866.0,1128.0,7165.0,0.951,0.12,-0.242,0.15
3117052,3952.0,1096.0,7201.0,0.951,0.121,-0.242,0.15
3117068,3994.0,1066.0,7131.0,0.951,0.121,-0.242,0.151
3117084,4010.0,1106.0,7077.0,0.951,0.122,-0.243,0.151
3117101,3984.0,1078.0,7119.0,0.95,0.122,-0.243,0.151
3117127,3982.0,1034.0,7121.0,0.95,0.122,-0.243,0.151
3117143,4048.0,1102.0,7207.0,0.95,0.122,-0.243,0.152
3117159,3998.0,1204.0,7195.0,0.95,0.123,-0.243,0.152
3117175,4014.0,1126.0,7149.0,0.95,0.123,-0.243,0.152
3117191,4044.0,1212.0,7173.0,0.95,0.124,-0.243,0.153
3117207,4012.0,1126.0,7161.0,0.95,0.124,-0.243,0.153
3117233,4108.0,1234.0,7189.0,0.95,0.124,-0.243,0.153
3117250,4036.0,1108.0,7109.0,0.95,0.124,-0.243,0.154
3117266,4088.0,1144.0,7075.0,0.95,0.124,-0.243,0.154
3117282,4018.0,1120.0,7091.0,0.95,0.124,-0.243,0.154
3117298,4052.0,1064.0,7141.0,0.95,0.124,-0.242,0.154
3117314,4018.0,1092.0,7141.0,0.95,0.124,-0.242,0.155
3117330,4010.0,1116.0,7153.0,0.95,0.124,-0.242,0.155
3117356,3994.0,1052.0,7099.0,0.95,0.124,-0.242,0.155
3117372,4000.0,1062.0,7141.0,0.95,0.124,-0.242,0.156
3117388,3962.0,1106.0,7145.0,0.95,0.125,-0.242,0.156
3117404,3910.0,1040.0,7097.0,0.95,0.125,-0.242,0.156
3117420,3936.0,1082.0,7159.0,0.95,0.125,-0.241,0.156
3117437,3882.0,1048.0,7175.0,0.949,0.125,-0.241,0.157
3117463,3958.0,1166.0,7135.0,0.949,0.125,-0.241,0.157
3117479,3936.0,1144.0,7103.0,0.949,0.125,-0.241,0.157
3117495,3972.0,1196.0,7165.0,0.949,0.126,-0.241,0.158
3117511,3944.0,1172.0,7153.0,0.949,0.126,-0.241,0.158
3117527,3980.0,1146.0,7121.0,0.949,0.126,-0.241,0.159
3117543,4000.0,1174.0,7109.0,0.949,0.126,-0.241,0.159
3117569,4026.0,1092.0,7157.0,0.949,0.126,-0.241,0.16
3117585,4044.0,1162.0,7153.0,0.949,0.125,-0.241,0.16
3117601,4034.0,1094.0,7113.0,0.949,0.125,-0.241,0.16
3117617,4016.0,1114.0,7169.0,0.949,0.125,-0.241,0.161
3117633,3986.0,1144.0,7167.0,0.949,0.125,-0.241,0.161
3117649,3984.0,1118.0,7127.0,0.949,0.125,-0.241,0.161
3117675,3994.0,1138.0,7107.0,0.949,0.125,-0.241,0.162
3117691,3980.0,1076.0,7123.0,0.949,0.125,-0.241,0.162
3117707,3988.0,1168.0,7137.0,0.949,0.125,-0.241,0.162
3117723,3992.0,1084.0,7119.0,0.949,0.125,-0.241,0.162
3117739,4022.0,1100.0,7107.0,0.949,0.125,-0.241,0.163
3117755,4012.0,1148.0,7123.0,0.949,0.125,-0.241,0.163
3117781,4012.0,1134.0,7145.0,0.948,0.125,-0.241,0.163
3117797,4060.0,1160.0,7149.0,0.948,0.125,-0.241,0.164
3117813,4012.0,1086.0,7125.0,0.948,0.125,-0.24,0.164
3117829,3990.0,1116.0,7153.0,0.948,0.125,-0.24,0.165
3117845,4000.0,1104.0,7143.0,0.948,0.125,-0.24,0.165
3117861,4022.0,1100.0,7203.0,0.948,0.125,-0.24,0.165
3117887,4046.0,1146.0,7129.0,0.948,0.125,-0.24,0.166
3117903,3966.0,1084.0,7157.0,0.948,0.125,-0.24,0.166
3117919,3964.0,1088.0,7157.0,0.948,0.125,-0.24,0.166
3117935,3936.0,1068.0,7155.0,0.948,0.125,-0.24,0.166
3117952,4012.0,1124.0,7121.0,0.948,0.125,-0.24,0.167
3117969,3922.0,1024.0,7157.0,0.948,0.125,-0.24,0.167
3117985,4016.0,1116.0,7153.0,0.948,0.126,-0.24,0.167
3118011,3978.0,1108.0,7081.0,0.948,0.126,-0.24,0.167
3118027,4014.0,1114.0,7099.0,0.948,0.126,-0.24,0.167
3118043,4006.0,1116.0,7105.0,0.948,0.126,-0.24,0.168
3118059,4024.0,1124.0,7155.0,0.948,0.126,-0.24,0.168
3118075,3974.0,1138.0,7167.0,0.948,0.126,-0.239,0.168
3118101,3996.0,1134.0,7149.0,0.948,0.126,-0.239,0.168
3118117,3932.0,1078.0,7167.0,0.948,0.126,-0.239,0.169
3118133,3994.0,1102.0,7143.0,0.948,0.126,-0.239,0.169
3118149,4004.0,1072.0,7125.0,0.948,0.127,-0.239,0.169
3118165,3988.0,1152.0,7101.0,0.948,0.127,-0.239,0.169
3118181,4024.0,1158.0,7109.0,0.948,0.127,-0.239,0.169
3118207,3994.0,1146.0,7105.0,0.948,0.127,-0.239,0.17
3118223,4024.0,1160.0,7141.0,0.948,0.127,-0.239,0.17
3118239,4026.0,1124.0,7121.0,0.948,0.127,-0.238,0.17
3118255,4012.0,1112.0,7147.0,0.948,0.127,-0.238,0.17
3118271,4006.0,1128.0,7185.0,0.948,0.127,-0.238,0.171
3118287,4036.0,1150.0,7153.0,0.948,0.127,-0.238,0.171
3118313,4016.0,1160.0,7117.0,0.948,0.127,-0.238,0.171
3118329,3934.0,1134.0,7131.0,0.948,0.127,-0.238,0.171
3118345,3992.0,1162.0,7119.0,0.948,0.128,-0.238,0.172
3118361,3958.0,1192.0,7141.0,0.947,0.128,-0.237,0.172
3118377,3948.0,1150.0,7115.0,0.947,0.128,-0.237,0.172
3118393,3960.0,1156.0,7123.0,0.947,0.128,-0.237,0.172
3118419,3964.0,1178.0,7149.0,0.947,0.128,-0.237,0.173
3118438,4022.0,1234.0,7163.0,0.947,0.129,-0.237,0.173
3118454,3978.0,1212.0,7113.0,0.947,0.129,-0.237,0.173
3118470,4008.0,1220.0,7107.0,0.947,0.129,-0.237,0.174
3118487,3938.0,1196.0,7115.0,0.947,0.129,-0.237,0.174
3118503,3994.0,1178.0,7141.0,0.947,0.129,-0.237,0.174
3118519,3980.0,1204.0,7207.0,0.947,0.129,-0.236,0.174
3118535,3910.0,1132.0,7179.0,0.947,0.129,-0.236,0.175
3118561,3946.0,1200.0,7147.0,0.947,0.129,-0.236,0.175
3118577,4000.0,1192.0,7165.0,0.947,0.129,-0.236,0.175
3118593,3972.0,1170.0,7139.0,0.947,0.129,-0.236,0.175
3118609,3958.0,1180.0,7115.0,0.947,0.129,-0.236,0.175
3118625,3946.0,1150.0,7173.0,0.947,0.129,-0.237,0.176
3118641,3924.0,1166.0,7133.0,0.947,0.129,-0.237,0.176
3118667,4002.0,1194.0,7163.0,0.947,0.129,-0.237,0.176
3118684,4004.0,1138.0,7117.0,0.947,0.129,-0.237,0.176
3118701,3986.0,1166.0,7171.0,0.947,0.129,-0.237,0.176
3118718,4008.0,1206.0,7117.0,0.947,0.129,-0.237,0.176
3118735,4072.0,1340.0,7079.0,0.947,0.129,-0.238,0.176
3118751,4120.0,1364.0,7073.0,0.947,0.128,-0.238,0.176
3118768,4370.0,1634.0,7101.0,0.947,0.127,-0.238,0.176
3118784,4484.0,1746.0,7089.0,0.947,0.125,-0.237,0.176
3118800,4642.0,1906.0,7063.0,0.948,0.122,-0.237,0.176
3118826,4692.0,2318.0,7215.0,0.948,0.118,-0.237,0.175
3118842,4982.0,2476.0,7399.0,0.95,0.112,-0.236,0.173
3118858,5420.0,2456.0,7307.0,0.951,0.104,-0.236,0.171
3118874,5540.0,2426.0,7581.0,0.953,0.094,-0.235,0.168
3118890,4632.0,1618.0,7395.0,0.954,0.085,-0.234,0.164
3118916,4600.0,1076.0,7087.0,0.956,0.076,-0.234,0.16
3118932,4292.0,692.0,7285.0,0.958,0.066,-0.234,0.155
3118948,3806.0,-454.0,7505.0,0.959,0.057,-0.234,0.149
3118964,4474.0,-1102.0,8021.0,0.96,0.05,-0.235,0.143
3118980,4074.0,-172.0,7287.0,0.961,0.045,-0.236,0.137
3118996,3776.0,-380.0,6993.0,0.962,0.041,-0.236,0.131
3119012,3772.0,-796.0,7245.0,0.963,0.037,-0.237,0.125
3119038,3772.0,-798.0,7945.0,0.964,0.036,-0.237,0.118
3119054,4120.0,-1754.0,8081.0,0.964,0.037,-0.239,0.112
3119070,3362.0,-936.0,7103.0,0.963,0.041,-0.243,0.106
3119086,3078.0,-922.0,6719.0,0.962,0.047,-0.25,0.099
3119103,2748.0,-2246.0,6465.0,0.961,0.056,-0.254,0.094
3119119,2712.0,-1220.0,6699.0,0.959,0.064,-0.261,0.089
3119145,4762.0,-1278.0,6777.0,0.957,0.074,-0.266,0.085
3119161,4828.0,776.0,7147.0,0.956,0.085,-0.27,0.081
3119177,4164.0,1624.0,6041.0,0.954,0.095,-0.274,0.078
3119193,4586.0,2584.0,6031.0,0.953,0.099,-0.276,0.074
3119209,3740.0,1598.0,6257.0,0.953,0.099,-0.277,0.071
3119225,4068.0,496.0,7095.0,0.954,0.099,-0.276,0.068
3119251,4164.0,72.0,7571.0,0.954,0.101,-0.275,0.067
3119267,3388.0,462.0,7583.0,0.954,0.105,-0.274,0.066
3119283,4260.0,616.0,7339.0,0.953,0.112,-0.275,0.065
3119299,4378.0,544.0,7101.0,0.952,0.12,-0.275,0.066
3119315,4846.0,920.0,7035.0,0.95,0.131,-0.275,0.067
3119331,10062.0,4866.0,8353.0,0.948,0.145,-0.273,0.069
3119357,3800.0,2162.0,7039.0,0.947,0.156,-0.272,0.071
3119373,4814.0,1180.0,6757.0,0.946,0.163,-0.269,0.074
3119389,5272.0,2826.0,8067.0,0.947,0.169,-0.262,0.075
3119405,7396.0,7236.0,10907.0,0.952,0.162,-0.247,0.075
3119421,2724.0,1038.0,10411.0,0.958,0.149,-0.233,0.074
3119437,1392.0,-1710.0,9499.0,0.962,0.142,-0.222,0.075
3119463,916.0,-108.0,8681.0,0.964,0.141,-0.211,0.076
3119479,1286.0,1774.0,8061.0,0.966,0.143,-0.203,0.075
3119495,1876.0,2816.0,7417.0,0.967,0.145,-0.196,0.075
3119511,2778.0,3960.0,6833.0,0.967,0.151,-0.191,0.073
3119527,5224.0,6974.0,7617.0,0.969,0.15,-0.182,0.071
3119553,4590.0,5080.0,7829.0,0.973,0.144,-0.167,0.066
3119569,3040.0,4346.0,7867.0,0.977,0.14,-0.149,0.058
3119585,1646.0,3984.0,7439.0,0.981,0.139,-0.13,0.048
3119601,704.0,3398.0,6803.0,0.983,0.14,-0.113,0.037
3119617,402.0,3296.0,6409.0,0.984,0.144,-0.1,0.025
3119633,598.0,3668.0,5929.0,0.985,0.149,-0.088,0.01
3119649,732.0,3948.0,5391.0,0.984,0.157,-0.079,-0.008
3119675,600.0,4148.0,5063.0,0.983,0.165,-0.071,-0.027
3119691,432.0,4584.0,5223.0,0.982,0.172,-0.065,-0.049
3119707,258.0,4610.0,5503.0,0.979,0.179,-0.06,-0.072
3119723,216.0,4162.0,5757.0,0.977,0.183,-0.056,-0.097
3119739,182.0,3672.0,6119.0,0.973,0.187,-0.055,-0.122
3119765,248.0,3164.0,6377.0,0.969,0.19,-0.055,-0.148
3119781,504.0,2986.0,6605.0,0.964,0.195,-0.058,-0.174
3119797,702.0,3354.0,6923.0,0.958,0.2,-0.061,-0.198
3119813,1080.0,4102.0,7183.0,0.951,0.205,-0.065,-0.223
3119829,1722.0,4930.0,7377.0,0.944,0.208,-0.069,-0.246
3119845,2076.0,4106.0,7259.0,0.937,0.209,-0.07,-0.27
3119871,1842.0,4052.0,7333.0,0.931,0.209,-0.072,-0.291
3119887,2050.0,3432.0,7527.0,0.924,0.208,-0.073,-0.313
3119903,1986.0,2646.0,7665.0,0.917,0.206,-0.075,-0.334
3119919,1858.0,1998.0,7581.0,0.909,0.205,-0.078,-0.354
3119935,1840.0,1372.0,7353.0,0.9,0.207,-0.082,-0.375
3119951,1534.0,1796.0,7213.0,0.891,0.21,-0.088,-0.394
3119968,1898.0,2208.0,7709.0,0.881,0.213,-0.095,-0.412
3119994,2038.0,3010.0,7955.0,0.872,0.216,-0.1,-0.427
3120010,2144.0,3458.0,8075.0,0.865,0.219,-0.103,-0.44
3120026,2016.0,3224.0,8041.0,0.86,0.219,-0.104,-0.449
3120042,1434.0,3138.0,8065.0,0.856,0.218,-0.103,-0.457
3120058,1196.0,2924.0,8045.0,0.854,0.216,-0.101,-0.463
3120074,1064.0,2786.0,8131.0,0.852,0.214,-0.098,-0.467
3120100,776.0,3072.0,8191.0,0.851,0.212,-0.096,-0.471
3120117,738.0,3146.0,7963.0,0.85,0.21,-0.093,-0.473
3120133,400.0,3714.0,7875.0,0.85,0.209,-0.089,-0.475
3120149,100.0,3880.0,7625.0,0.849,0.209,-0.085,-0.477
3120166,-198.0,3776.0,7319.0,0.848,0.21,-0.081,-0.479
3120183,-688.0,3950.0,6947.0,0.847,0.212,-0.076,-0.482
3120200,-1122.0,4468.0,6657.0,0.845,0.215,-0.072,-0.484
3120217,-880.0,4720.0,6485.0,0.844,0.216,-0.067,-0.487
3120244,-994.0,4242.0,6497.0,0.843,0.215,-0.061,-0.49
3120260,-1420.0,3544.0,6611.0,0.841,0.212,-0.055,-0.494
3120276,-1438.0,2926.0,6743.0,0.84,0.209,-0.05,-0.498
3120292,-1278.0,2536.0,6769.0,0.839,0.205,-0.046,-0.503
3120308,-662.0,1890.0,6861.0,0.837,0.201,-0.043,-0.506
3120324,-410.0,1338.0,6905.0,0.836,0.199,-0.04,-0.51
3120340,-20.0,1178.0,7023.0,0.835,0.199,-0.039,-0.512
3120366,-200.0,1602.0,7313.0,0.833,0.199,-0.039,-0.514
3120382,276.0,1774.0,7489.0,0.833,0.2,-0.041,-0.515
3120398,382.0,1952.0,7619.0,0.832,0.201,-0.042,-0.515
3120414,126.0,2054.0,7647.0,0.832,0.204,-0.044,-0.514
3120430,-334.0,2382.0,7613.0,0.832,0.206,-0.045,-0.512
3120447,-462.0,2748.0,7707.0,0.833,0.209,-0.047,-0.51
3120473,-460.0,3192.0,7837.0,0.834,0.212,-0.049,-0.507
3120489,-526.0,3370.0,7749.0,0.836,0.213,-0.051,-0.503
3120505,-318.0,3260.0,7729.0,0.838,0.214,-0.052,-0.499
3120521,-112.0,3008.0,7699.0,0.841,0.214,-0.053,-0.495
3120537,122.0,2732.0,7685.0,0.844,0.214,-0.053,-0.489
3120553,230.0,2604.0,7639.0,0.847,0.214,-0.053,-0.483
3120579,-108.0,2430.0,7623.0,0.851,0.214,-0.053,-0.476
3120595,-20.0,2354.0,7607.0,0.855,0.214,-0.054,-0.469
3120611,274.0,2544.0,7633.0,0.86,0.214,-0.055,-0.46
3120627,610.0,2686.0,7559.0,0.865,0.214,-0.056,-0.451
3120643,478.0,2650.0,7573.0,0.87,0.214,-0.057,-0.441
3120659,110.0,2742.0,7605.0,0.875,0.214,-0.058,-0.43
3120685,166.0,2878.0,7691.0,0.881,0.215,-0.059,-0.418
3120701,454.0,3180.0,7801.0,0.886,0.215,-0.06,-0.406
3120718,950.0,3198.0,7791.0,0.892,0.215,-0.061,-0.392
3120734,1218.0,3070.0,7723.0,0.898,0.216,-0.061,-0.378
3120751,1088.0,2902.0,7723.0,0.904,0.218,-0.062,-0.363
3120767,1026.0,2812.0,7731.0,0.909,0.221,-0.062,-0.348
3120784,1528.0,2858.0,7715.0,0.914,0.226,-0.063,-0.332
3120801,1966.0,2988.0,7685.0,0.918,0.233,-0.065,-0.315
3120818,2104.0,3194.0,7605.0,0.921,0.242,-0.066,-0.298
3120844,2516.0,3932.0,7525.0,0.924,0.253,-0.067,-0.279
3120860,2632.0,5008.0,7627.0,0.927,0.264,-0.065,-0.26
3120876,2464.0,5560.0,7333.0,0.93,0.273,-0.061,-0.238
3120892,1914.0,5124.0,7149.0,0.935,0.279,-0.054,-0.214
3120908,1546.0,4866.0,6893.0,0.939,0.284,-0.047,-0.188
3120924,1488.0,5046.0,6833.0,0.943,0.29,-0.039,-0.161
3120950,1494.0,5606.0,6627.0,0.946,0.294,-0.031,-0.133
3120966,1362.0,6130.0,6243.0,0.949,0.297,-0.022,-0.103
3120982,1158.0,6204.0,6065.0,0.952,0.298,-0.012,-0.073
3120999,872.0,6370.0,5755.0,0.954,0.297,-0.003,-0.042
3121015,502.0,6338.0,5507.0,0.955,0.295,0.006,-0.01
3121031,110.0,6132.0,5123.0,0.956,0.292,0.015,0.021
3121057,-106.0,6220.0,4663.0,0.956,0.288,0.023,0.051
3121073,-406.0,6850.0,4417.0,0.955,0.284,0.03,0.08
3121089,-842.0,7080.0,4247.0,0.953,0.28,0.034,0.107
3121105,-1132.0,7370.0,4191.0,0.952,0.274,0.037,0.132
3121121,-1400.0,7646.0,4125.0,0.951,0.267,0.037,0.153
3121137,-1356.0,7966.0,4327.0,0.95,0.258,0.035,0.17
3121163,-1218.0,8092.0,4709.0,0.951,0.248,0.03,0.183
3121179,-1094.0,7466.0,4981.0,0.952,0.237,0.024,0.193
3121195,-986.0,6472.0,5541.0,0.953,0.228,0.016,0.2
3121211,-922.0,5486.0,5947.0,0.953,0.222,0.008,0.203
3121227,-940.0,4766.0,6257.0,0.954,0.22,-0.0,0.203
3121243,-788.0,4546.0,6651.0,0.954,0.222,-0.009,0.201
3121269,-234.0,4408.0,7049.0,0.954,0.225,-0.018,0.197
3121285,250.0,4430.0,7313.0,0.954,0.229,-0.026,0.193
3121301,468.0,4450.0,7587.0,0.953,0.231,-0.033,0.191
3121317,682.0,4136.0,7879.0,0.953,0.232,-0.038,0.189
3121333,630.0,3440.0,8031.0,0.954,0.23,-0.042,0.189
3121349,754.0,3052.0,8233.0,0.954,0.228,-0.045,0.189
3121375,1062.0,2844.0,8421.0,0.954,0.225,-0.048,0.19
3121391,1046.0,2446.0,8219.0,0.954,0.224,-0.05,0.191
3121407,1032.0,2416.0,8045.0,0.954,0.223,-0.052,0.192
3121423,926.0,2362.0,7769.0,0.954,0.224,-0.052,0.194
3121439,928.0,2648.0,7659.0,0.953,0.225,-0.054,0.195
3121455,1216.0,2970.0,7685.0,0.952,0.226,-0.055,0.197
3121481,1462.0,3336.0,7831.0,0.952,0.225,-0.057,0.2
3121497,1826.0,3122.0,7639.0,0.952,0.223,-0.06,0.202
3121513,1618.0,2806.0,7289.0,0.951,0.221,-0.062,0.205
3121529,1600.0,2512.0,6917.0,0.951,0.219,-0.065,0.209
3121545,1818.0,3004.0,7051.0,0.95,0.218,-0.067,0.212
3121563,2336.0,3808.0,7489.0,0.95,0.217,-0.071,0.215
3121579,2630.0,3602.0,7519.0,0.949,0.215,-0.076,0.217
3121605,2720.0,3254.0,7425.0,0.949,0.213,-0.081,0.219
3121621,2690.0,2978.0,7237.0,0.948,0.211,-0.086,0.221
3121637,2714.0,2714.0,7025.0,0.948,0.211,-0.09,0.222
3121653,2866.0,3224.0,7189.0,0.947,0.212,-0.094,0.223
3121669,2936.0,3416.0,7363.0,0.946,0.212,-0.099,0.224
3121685,3106.0,3380.0,7419.0,0.946,0.211,-0.103,0.225
3121711,2926.0,2836.0,7293.0,0.945,0.21,-0.107,0.226
3121727,2770.0,2616.0,7275.0,0.945,0.21,-0.111,0.227
3121743,2842.0,2790.0,7521.0,0.944,0.21,-0.114,0.228
3121759,2928.0,2694.0,7509.0,0.943,0.21,-0.118,0.229
3121775,2756.0,2364.0,7259.0,0.942,0.211,-0.122,0.23
3121791,2792.0,2478.0,7253.0,0.941,0.212,-0.125,0.231
3121817,2802.0,2632.0,7407.0,0.94,0.213,-0.129,0.233
3121833,3100.0,2938.0,7495.0,0.939,0.214,-0.132,0.234
3121849,3178.0,2830.0,7347.0,0.938,0.215,-0.136,0.236
3121865,3428.0,2910.0,7643.0,0.937,0.214,-0.138,0.238
3121881,3020.0,2656.0,7705.0,0.937,0.213,-0.139,0.239
3121897,3102.0,2902.0,7773.0,0.936,0.212,-0.141,0.241
3121923,3086.0,2794.0,7681.0,0.936,0.211,-0.142,0.243
3121939,2964.0,2722.0,7823.0,0.936,0.211,-0.143,0.244
3121955,3088.0,2738.0,7773.0,0.935,0.211,-0.143,0.245
3121971,2998.0,2930.0,7559.0,0.935,0.211,-0.144,0.246
3121987,2790.0,2886.0,7341.0,0.935,0.211,-0.144,0.247
3122013,2924.0,2864.0,7319.0,0.934,0.212,-0.145,0.248
3122029,3078.0,2826.0,7239.0,0.934,0.211,-0.146,0.249
3122045,3034.0,2732.0,7225.0,0.933,0.211,-0.148,0.25
3122061,3084.0,2792.0,7179.0,0.933,0.211,-0.148,0.251
3122077,3158.0,3004.0,7241.0,0.933,0.211,-0.149,0.251
3122093,3198.0,3050.0,7213.0,0.933,0.211,-0.15,0.251
3122119,3214.0,3046.0,7171.0,0.933,0.21,-0.15,0.251
3122135,3056.0,2812.0,7003.0,0.933,0.209,-0.151,0.251
3122151,3136.0,2884.0,6975.0,0.933,0.208,-0.151,0.25
3122167,3222.0,2800.0,7085.0,0.934,0.207,-0.152,0.25
3122183,3342.0,2956.0,7273.0,0.934,0.205,-0.153,0.249
3122199,3514.0,3224.0,7265.0,0.935,0.202,-0.154,0.248
3122225,3452.0,3054.0,7251.0,0.936,0.196,-0.156,0.247
3122241,3372.0,2228.0,7253.0,0.938,0.19,-0.157,0.246
3122257,3388.0,1546.0,7177.0,0.939,0.184,-0.158,0.245
3122273,3162.0,1294.0,7101.0,0.94,0.18,-0.159,0.244
3122289,3106.0,1946.0,7079.0,0.94,0.177,-0.159,0.244
3122315,3070.0,1998.0,6985.0,0.941,0.173,-0.16,0.244
3122331,3090.0,1860.0,7071.0,0.941,0.169,-0.161,0.244
3122347,3168.0,1846.0,7117.0,0.942,0.166,-0.162,0.244
3122363,3176.0,2114.0,7063.0,0.942,0.164,-0.162,0.244
3122379,3228.0,2310.0,7131.0,0.942,0.161,-0.163,0.244
3122395,3020.0,2066.0,7033.0,0.943,0.157,-0.164,0.244
3122411,2842.0,1826.0,7055.0,0.943,0.153,-0.165,0.243
3122437,3342.0,2058.0,7483.0,0.944,0.149,-0.167,0.243
3122453,3158.0,2372.0,7703.0,0.945,0.143,-0.168,0.241
3122469,3960.0,1690.0,8257.0,0.946,0.136,-0.169,0.24
3122485,3618.0,1122.0,8463.0,0.948,0.128,-0.169,0.239
3122501,3064.0,294.0,8031.0,0.949,0.122,-0.169,0.238
3122517,2768.0,194.0,7789.0,0.949,0.119,-0.17,0.236
3122543,2832.0,354.0,7625.0,0.949,0.118,-0.171,0.235
3122559,2992.0,280.0,7379.0,0.949,0.118,-0.172,0.235
3122575,2950.0,548.0,7027.0,0.949,0.12,-0.173,0.235
3122591,2922.0,760.0,6431.0,0.948,0.124,-0.174,0.236
3122607,3018.0,1598.0,6333.0,0.947,0.129,-0.176,0.237
3122623,3386.0,1388.0,6485.0,0.945,0.134,-0.178,0.238
3122649,4114.0,1880.0,7159.0,0.944,0.139,-0.181,0.24
3122666,4620.0,2372.0,7565.0,0.942,0.141,-0.182,0.243
3122682,4162.0,1636.0,7439.0,0.941,0.143,-0.183,0.246
3122698,3422.0,1868.0,7003.0,0.94,0.143,-0.183,0.249
3122714,2776.0,938.0,6805.0,0.94,0.143,-0.183,0.252
3122730,3544.0,1404.0,7117.0,0.938,0.147,-0.182,0.255
3122748,3258.0,3030.0,7601.0,0.938,0.149,-0.181,0.257
3122765,2992.0,2284.0,8023.0,0.938,0.147,-0.179,0.259
3122782,2628.0,1344.0,8461.0,0.938,0.145,-0.178,0.26
3122809,2556.0,864.0,8797.0,0.938,0.144,-0.177,0.262
3122825,2230.0,690.0,8509.0,0.938,0.143,-0.176,0.263
3122841,2572.0,916.0,8147.0,0.938,0.144,-0.175,0.263
3122857,2780.0,1284.0,7703.0,0.938,0.144,-0.175,0.264
3122873,2880.0,1542.0,7409.0,0.938,0.143,-0.175,0.264
3122889,3074.0,1858.0,7609.0,0.938,0.142,-0.175,0.264
3122915,3392.0,1830.0,7961.0,0.939,0.139,-0.176,0.263
3122931,3340.0,1440.0,7783.0,0.939,0.136,-0.176,0.262
3122947,3302.0,1160.0,7471.0,0.94,0.132,-0.178,0.26
3122963,3200.0,958.0,7173.0,0.94,0.129,-0.179,0.259
3122979,3032.0,730.0,7115.0,0.941,0.126,-0.18,0.257
3122995,3056.0,376.0,7265.0,0.942,0.123,-0.182,0.255
3123021,2956.0,654.0,7343.0,0.942,0.121,-0.183,0.254
3123037,3066.0,1056.0,7393.0,0.942,0.119,-0.185,0.253
3123053,3168.0,1150.0,7423.0,0.942,0.118,-0.186,0.252
3123069,3088.0,1106.0,7351.0,0.943,0.117,-0.187,0.251
3123085,3248.0,990.0,7429.0,0.943,0.116,-0.189,0.25
3123102,3298.0,1076.0,7481.0,0.943,0.116,-0.19,0.249
3123119,3386.0,1304.0,7321.0,0.943,0.115,-0.192,0.248
3123145,3428.0,1224.0,7301.0,0.942,0.115,-0.194,0.247
3123161,3634.0,1208.0,7439.0,0.942,0.114,-0.196,0.247
3123177,3538.0,1012.0,7343.0,0.942,0.113,-0.198,0.246
3123193,3676.0,922.0,7397.0,0.942,0.112,-0.2,0.246
3123209,3602.0,710.0,7399.0,0.942,0.111,-0.202,0.245
3123225,3416.0,662.0,7367.0,0.941,0.111,-0.204,0.246
3123251,3416.0,1086.0,7373.0,0.941,0.111,-0.205,0.246
3123267,3574.0,1394.0,7435.0,0.94,0.111,-0.207,0.247
3123283,3796.0,1376.0,7485.0,0.94,0.111,-0.208,0.248
3123299,3700.0,1214.0,7421.0,0.939,0.11,-0.21,0.248
3123315,3918.0,1030.0,7353.0,0.939,0.108,-0.212,0.248
3123331,4022.0,794.0,7323.0,0.939,0.106,-0.213,0.249
3123357,4196.0,606.0,7305.0,0.939,0.105,-0.215,0.249
3123373,3918.0,432.0,7199.0,0.938,0.104,-0.216,0.249
3123389,3970.0,412.0,7483.0,0.938,0.103,-0.217,0.249
3123405,3880.0,426.0,7459.0,0.938,0.102,-0.217,0.249
3123421,4008.0,702.0,7307.0,0.938,0.102,-0.218,0.25
3123437,4116.0,1088.0,7173.0,0.938,0.102,-0.218,0.25
3123463,4058.0,882.0,7299.0,0.938,0.101,-0.218,0.25
3123479,3984.0,484.0,7331.0,0.938,0.1,-0.218,0.249
3123495,3720.0,380.0,7287.0,0.938,0.099,-0.218,0.249
3123511,3558.0,252.0,7457.0,0.939,0.099,-0.218,0.249
3123527,3610.0,302.0,7441.0,0.939,0.099,-0.218,0.249
3123553,3676.0,532.0,7459.0,0.939,0.099,-0.218,0.249
3123569,3450.0,954.0,7481.0,0.939,0.099,-0.217,0.249
3123585,3534.0,924.0,7659.0,0.939,0.098,-0.218,0.249
3123601,3454.0,588.0,7665.0,0.939,0.096,-0.218,0.249
3123617,3426.0,242.0,7607.0,0.939,0.095,-0.218,0.249
3123633,3442.0,-64.0,7479.0,0.939,0.094,-0.219,0.25
3123659,3700.0,-156.0,7331.0,0.938,0.094,-0.219,0.251
3123675,4050.0,-48.0,7205.0,0.938,0.096,-0.219,0.252
3123691,3952.0,474.0,6973.0,0.937,0.098,-0.219,0.254
3123707,3970.0,564.0,7163.0,0.937,0.099,-0.218,0.256
3123723,3814.0,598.0,7313.0,0.936,0.101,-0.218,0.257
3123739,3768.0,338.0,7279.0,0.936,0.102,-0.218,0.258
3123765,3870.0,358.0,7167.0,0.935,0.105,-0.218,0.26
3123781,3924.0,566.0,7033.0,0.934,0.108,-0.217,0.261
3123797,3672.0,590.0,7151.0,0.934,0.11,-0.217,0.263
3123813,3524.0,726.0,7505.0,0.933,0.112,-0.216,0.265
3123829,3572.0,700.0,7421.0,0.932,0.116,-0.216,0.267
3123845,3618.0,602.0,7257.0,0.931,0.12,-0.216,0.269
3123871,3738.0,566.0,7039.0,0.929,0.125,-0.217,0.272
3123887,3576.0,1116.0,6901.0,0.928,0.129,-0.217,0.275
3123904,3838.0,1070.0,7093.0,0.926,0.133,-0.217,0.278
3123920,3964.0,1236.0,7153.0,0.925,0.137,-0.218,0.281
3123936,4170.0,1344.0,7065.0,0.923,0.14,-0.218,0.285
3123952,4178.0,1138.0,7129.0,0.921,0.143,-0.219,0.288
3123968,4282.0,798.0,7153.0,0.919,0.145,-0.22,0.292
3123994,4434.0,534.0,7147.0,0.917,0.15,-0.22,0.295
3124010,4586.0,716.0,7169.0,0.915,0.155,-0.221,0.299
3124026,4570.0,1200.0,6877.0,0.913,0.162,-0.221,0.302
3124042,4670.0,1664.0,6651.0,0.911,0.168,-0.222,0.306
3124058,4654.0,2190.0,6743.0,0.909,0.173,-0.222,0.309
3124084,4482.0,2262.0,6891.0,0.906,0.176,-0.222,0.313
3124100,4266.0,2096.0,7123.0,0.904,0.178,-0.224,0.316
3124116,4344.0,1966.0,6955.0,0.902,0.181,-0.226,0.32
3124132,4336.0,1760.0,6865.0,0.9,0.183,-0.228,0.322
3124148,4440.0,1756.0,6857.0,0.898,0.185,-0.231,0.325
3124164,4488.0,1554.0,6805.0,0.896,0.187,-0.234,0.326
3124190,4696.0,2318.0,6685.0,0.895,0.19,-0.237,0.328
3124206,4742.0,2290.0,6629.0,0.893,0.191,-0.24,0.328
3124222,4938.0,2670.0,6583.0,0.892,0.19,-0.244,0.329
3124238,4744.0,2046.0,6797.0,0.892,0.188,-0.248,0.329
3124254,4640.0,1552.0,7077.0,0.891,0.187,-0.252,0.328
3124270,4838.0,1654.0,6571.0,0.891,0.186,-0.257,0.326
3124296,4930.0,2034.0,6487.0,0.89,0.185,-0.261,0.324
3124312,5080.0,2282.0,6345.0,0.89,0.182,-0.266,0.322
3124328,4942.0,1954.0,6497.0,0.89,0.178,-0.27,0.32
3124344,4964.0,1498.0,6713.0,0.891,0.174,-0.274,0.317
3124360,4842.0,1504.0,6417.0,0.892,0.17,-0.279,0.313
3124376,4922.0,1560.0,6393.0,0.893,0.166,-0.283,0.31
3124402,4880.0,1416.0,6325.0,0.893,0.161,-0.286,0.307
3124418,4776.0,976.0,6395.0,0.894,0.157,-0.289,0.304
3124434,4806.0,622.0,6577.0,0.895,0.152,-0.292,0.301
3124450,4556.0,270.0,6575.0,0.895,0.149,-0.294,0.299
3124466,4678.0,472.0,6515.0,0.896,0.148,-0.296,0.297
3124482,4616.0,-8.0,6487.0,0.896,0.146,-0.298,0.295
3124508,4706.0,-118.0,6503.0,0.896,0.146,-0.3,0.294
3124524,4868.0,-40.0,6731.0,0.895,0.147,-0.302,0.293
3124540,4874.0,-114.0,6779.0,0.894,0.149,-0.303,0.293
3124556,5406.0,-1522.0,6797.0,0.893,0.153,-0.305,0.293
3124572,5478.0,-108.0,6363.0,0.892,0.158,-0.307,0.293
3124588,5314.0,214.0,6229.0,0.89,0.164,-0.308,0.294
3124615,5318.0,-36.0,6035.0,0.888,0.172,-0.308,0.296
3124631,5292.0,-294.0,5877.0,0.885,0.18,-0.308,0.298
3124647,6578.0,-624.0,6457.0,0.883,0.189,-0.307,0.301
3124663,6222.0,712.0,5727.0,0.88,0.199,-0.305,0.304
3124679,6062.0,720.0,5673.0,0.878,0.208,-0.303,0.308
3124695,6006.0,590.0,5761.0,0.875,0.217,-0.301,0.312
3124721,6018.0,672.0,5657.0,0.872,0.228,-0.298,0.315
3124737,6144.0,664.0,5627.0,0.868,0.239,-0.295,0.319
3124753,6218.0,624.0,5537.0,0.865,0.251,-0.29,0.324
3124769,6148.0,1130.0,5293.0,0.861,0.264,-0.285,0.328
3124785,6112.0,1658.0,5211.0,0.857,0.277,-0.279,0.332
3124801,5932.0,1880.0,5447.0,0.853,0.29,-0.273,0.336
3124827,5912.0,1834.0,5293.0,0.849,0.303,-0.267,0.34
3124843,6288.0,2132.0,5019.0,0.845,0.317,-0.261,0.343
3124859,5948.0,2552.0,4859.0,0.84,0.331,-0.254,0.347
3124875,6122.0,3996.0,4607.0,0.835,0.344,-0.247,0.349
3124891,6952.0,4522.0,4739.0,0.832,0.354,-0.242,0.351
3124907,5888.0,3140.0,4497.0,0.83,0.363,-0.236,0.353
3124933,5746.0,3682.0,4543.0,0.827,0.371,-0.231,0.354
3124949,5272.0,3876.0,4789.0,0.823,0.38,-0.227,0.355
3124965,5086.0,3890.0,4535.0,0.819,0.389,-0.223,0.357
3124981,4962.0,4156.0,4371.0,0.815,0.398,-0.221,0.359
3124997,4730.0,3590.0,4319.0,0.811,0.407,-0.218,0.36
3125023,5114.0,3350.0,3975.0,0.806,0.416,-0.215,0.362
3125039,5186.0,3788.0,3739.0,0.801,0.426,-0.211,0.364
3125055,5090.0,3882.0,3581.0,0.796,0.435,-0.207,0.366
3125071,4838.0,3600.0,3611.0,0.791,0.445,-0.202,0.369
3125087,4972.0,3980.0,3731.0,0.785,0.454,-0.197,0.372
3125103,4980.0,3984.0,3151.0,0.779,0.464,-0.192,0.376
3125119,5022.0,4152.0,3269.0,0.773,0.473,-0.186,0.38
3125145,4730.0,4062.0,3177.0,0.766,0.483,-0.181,0.385
3125161,4608.0,4022.0,2843.0,0.758,0.492,-0.175,0.39
3125177,4684.0,4320.0,2573.0,0.75,0.503,-0.17,0.396
3125193,4532.0,4942.0,2449.0,0.741,0.512,-0.164,0.402
3125209,4676.0,5390.0,2491.0,0.732,0.521,-0.16,0.409
3125225,4934.0,5836.0,2455.0,0.723,0.528,-0.158,0.417
3125251,5008.0,5100.0,2413.0,0.714,0.534,-0.156,0.425
3125267,5110.0,5160.0,2467.0,0.705,0.54,-0.156,0.434
3125283,5254.0,4692.0,2389.0,0.695,0.545,-0.157,0.442
3125299,5340.0,4358.0,2301.0,0.685,0.551,-0.158,0.45
3125315,5722.0,4784.0,1989.0,0.674,0.558,-0.16,0.457
3125331,5992.0,4858.0,1813.0,0.663,0.565,-0.162,0.464
3125357,6282.0,5538.0,1777.0,0.652,0.571,-0.165,0.471
3125373,6044.0,4938.0,1881.0,0.641,0.576,-0.169,0.477
3125389,6292.0,5168.0,1803.0,0.631,0.581,-0.174,0.484
3125405,6546.0,4862.0,1573.0,0.622,0.585,-0.179,0.489
3125421,6898.0,5090.0,1633.0,0.612,0.589,-0.184,0.495
3125447,7078.0,5474.0,1639.0,0.604,0.591,-0.189,0.501
3125463,7046.0,4876.0,1663.0,0.596,0.592,-0.195,0.507
3125479,6974.0,4580.0,1785.0,0.588,0.592,-0.2,0.512
3125495,7244.0,4772.0,1763.0,0.582,0.593,-0.206,0.517
3125511,7670.0,4720.0,1761.0,0.575,0.592,-0.213,0.522
3125527,7450.0,4332.0,1795.0,0.569,0.592,-0.22,0.527
3125553,7754.0,4162.0,1885.0,0.563,0.592,-0.226,0.531
3125569,7636.0,3936.0,1859.0,0.558,0.591,-0.233,0.534
3125585,7872.0,3850.0,1791.0,0.553,0.591,-0.24,0.536
3125601,7882.0,3448.0,1657.0,0.548,0.591,-0.247,0.538
3125617,8116.0,3580.0,1609.0,0.544,0.59,-0.254,0.54
3125633,8078.0,3394.0,1597.0,0.54,0.59,-0.26,0.541
3125659,7888.0,3338.0,1621.0,0.536,0.59,-0.267,0.542
3125675,7990.0,3200.0,1519.0,0.532,0.59,-0.273,0.543
3125691,7948.0,2940.0,1403.0,0.529,0.589,-0.28,0.543
3125707,8074.0,2924.0,1311.0,0.525,0.589,-0.286,0.544
3125723,8098.0,3048.0,1237.0,0.521,0.588,-0.292,0.545
3125739,7886.0,2672.0,1275.0,0.518,0.587,-0.298,0.546
3125765,7898.0,2570.0,1295.0,0.515,0.586,-0.304,0.546
3125781,8042.0,2744.0,1053.0,0.511,0.585,-0.311,0.547
3125797,7994.0,2604.0,1023.0,0.508,0.584,-0.318,0.548
3125813,7944.0,2320.0,1047.0,0.504,0.583,-0.325,0.548
3125829,8054.0,2230.0,993.0,0.501,0.581,-0.332,0.548
3125845,8058.0,1874.0,1015.0,0.499,0.579,-0.34,0.548
3125871,7932.0,1644.0,997.0,0.496,0.578,-0.347,0.547
3125887,8146.0,1736.0,767.0,0.493,0.577,-0.354,0.547
3125903,8102.0,1654.0,575.0,0.49,0.575,-0.361,0.547
3125919,7984.0,1612.0,847.0,0.487,0.573,-0.367,0.547
3125935,7828.0,1604.0,1039.0,0.485,0.57,-0.374,0.547
3125961,7580.0,380.0,1051.0,0.481,0.568,-0.381,0.548
3125977,7824.0,1158.0,999.0,0.476,0.567,-0.388,0.549
3125993,8386.0,1430.0,925.0,0.471,0.565,-0.394,0.551
3126009,8358.0,1804.0,389.0,0.466,0.562,-0.402,0.552
3126025,8644.0,1016.0,917.0,0.462,0.558,-0.41,0.554
3126041,7236.0,2130.0,1293.0,0.462,0.552,-0.417,0.555
3126057,9170.0,924.0,1055.0,0.461,0.546,-0.425,0.556
3126083,9198.0,560.0,733.0,0.461,0.539,-0.434,0.556
3126099,9194.0,90.0,511.0,0.462,0.531,-0.443,0.555
3126115,11376.0,532.0,3295.0,0.464,0.524,-0.449,0.555
3126131,8650.0,7042.0,2373.0,0.469,0.52,-0.449,0.556
3126147,8488.0,1796.0,899.0,0.477,0.508,-0.456,0.553
3126163,7914.0,-914.0,1007.0,0.484,0.498,-0.464,0.549
3126189,7924.0,-394.0,1049.0,0.491,0.49,-0.472,0.544
3126205,8098.0,684.0,577.0,0.499,0.482,-0.48,0.537
3126221,8226.0,-420.0,431.0,0.507,0.473,-0.488,0.53
3126237,8306.0,-870.0,-61.0,0.514,0.465,-0.496,0.523
3126253,8406.0,-1652.0,-83.0,0.52,0.458,-0.501,0.518
3126279,8510.0,-1602.0,19.0,0.525,0.453,-0.505,0.515
3126295,8302.0,-1324.0,273.0,0.528,0.45,-0.506,0.513
3126311,8146.0,-1172.0,309.0,0.53,0.448,-0.506,0.512
3126327,8006.0,-994.0,899.0,0.532,0.448,-0.504,0.512
3126343,7952.0,-912.0,1307.0,0.533,0.449,-0.503,0.511
3126359,8228.0,-990.0,713.0,0.533,0.452,-0.501,0.511
3126385,8396.0,24.0,743.0,0.533,0.455,-0.498,0.51
3126401,8362.0,760.0,1017.0,0.534,0.458,-0.496,0.509
3126417,8418.0,730.0,951.0,0.535,0.46,-0.495,0.507
3126433,8250.0,212.0,877.0,0.537,0.461,-0.494,0.504
3126449,8192.0,112.0,611.0,0.539,0.462,-0.494,0.502
3126465,8138.0,564.0,741.0,0.541,0.463,-0.493,0.5
3126491,8076.0,718.0,801.0,0.543,0.464,-0.492,0.497
3126507,8030.0,834.0,743.0,0.546,0.464,-0.492,0.495
3126523,7988.0,770.0,691.0,0.549,0.463,-0.493,0.491
3126539,7858.0,126.0,601.0,0.551,0.461,-0.495,0.488
3126555,7788.0,-350.0,519.0,0.553,0.461,-0.495,0.486
3126581,7820.0,-28.0,599.0,0.554,0.461,-0.496,0.485
3126597,7922.0,80.0,641.0,0.554,0.461,-0.496,0.484
3126613,8088.0,382.0,613.0,0.554,0.461,-0.496,0.484
3126629,8206.0,114.0,617.0,0.555,0.462,-0.496,0.483
3126645,8294.0,-72.0,619.0,0.554,0.462,-0.496,0.483
3126661,8314.0,110.0,563.0,0.554,0.464,-0.495,0.483
3126677,8204.0,360.0,639.0,0.553,0.465,-0.495,0.482
3126703,8224.0,236.0,669.0,0.553,0.467,-0.495,0.482
3126719,8258.0,124.0,467.0,0.552,0.469,-0.494,0.481
3126735,8332.0,146.0,419.0,0.551,0.471,-0.494,0.48
3126752,8414.0,376.0,477.0,0.55,0.474,-0.492,0.48
3126768,8378.0,440.0,509.0,0.549,0.476,-0.491,0.48
3126784,8284.0,412.0,551.0,0.548,0.479,-0.49,0.48
3126810,8454.0,522.0,471.0,0.547,0.481,-0.489,0.479
3126826,8550.0,502.0,379.0,0.547,0.484,-0.487,0.479
3126842,8632.0,826.0,701.0,0.546,0.486,-0.486,0.479
3126858,8766.0,538.0,585.0,0.545,0.488,-0.484,0.479
3126874,8872.0,702.0,639.0,0.545,0.49,-0.482,0.48
3126890,8848.0,822.0,757.0,0.545,0.492,-0.48,0.481
3126916,8708.0,578.0,1039.0,0.545,0.494,-0.477,0.481
3126932,8710.0,420.0,973.0,0.545,0.496,-0.474,0.482
3126948,8878.0,768.0,1237.0,0.545,0.499,-0.471,0.482
3126964,8820.0,984.0,1537.0,0.546,0.502,-0.467,0.482
3126980,8906.0,840.0,1585.0,0.547,0.505,-0.462,0.482
3126996,8994.0,976.0,1819.0,0.548,0.508,-0.457,0.482
3127022,8918.0,308.0,2007.0,0.55,0.512,-0.451,0.481
3127038,8886.0,884.0,2667.0,0.552,0.516,-0.444,0.481
3127054,9230.0,1704.0,2835.0,0.554,0.521,-0.436,0.481
3127070,9534.0,2240.0,2925.0,0.557,0.525,-0.428,0.481
3127086,9448.0,2170.0,3775.0,0.56,0.528,-0.419,0.482
3127103,9010.0,1854.0,4035.0,0.565,0.53,-0.409,0.482
3127119,9262.0,2698.0,4697.0,0.57,0.532,-0.399,0.483
3127145,9314.0,2520.0,4993.0,0.576,0.533,-0.388,0.484
3127161,9482.0,2936.0,5213.0,0.582,0.533,-0.376,0.486
3127177,9428.0,2878.0,5651.0,0.589,0.532,-0.363,0.488
3127193,9736.0,3844.0,5961.0,0.598,0.529,-0.35,0.49
3127209,9376.0,3266.0,6257.0,0.607,0.525,-0.337,0.492
3127235,9690.0,3896.0,6403.0,0.618,0.52,-0.323,0.494
3127251,10134.0,4210.0,6373.0,0.629,0.513,-0.309,0.496
3127267,10336.0,4142.0,6727.0,0.641,0.505,-0.295,0.498
3127283,10322.0,4650.0,6683.0,0.653,0.495,-0.281,0.5
3127299,10752.0,4744.0,6387.0,0.666,0.483,-0.266,0.502
3127315,10502.0,4938.0,6833.0,0.678,0.471,-0.252,0.506
3127341,10436.0,5000.0,6893.0,0.688,0.458,-0.238,0.509
3127357,10788.0,5288.0,6323.0,0.699,0.445,-0.225,0.513
3127373,11434.0,4164.0,4843.0,0.709,0.431,-0.212,0.517
3127389,11828.0,3464.0,4339.0,0.72,0.416,-0.195,0.52
3127405,10860.0,4700.0,5041.0,0.731,0.4,-0.178,0.524
3127421,9870.0,4768.0,4875.0,0.74,0.384,-0.16,0.527
3127447,8878.0,4598.0,5023.0,0.75,0.368,-0.144,0.531
3127463,8502.0,4482.0,4443.0,0.759,0.352,-0.129,0.532
3127479,8134.0,3928.0,4035.0,0.768,0.335,-0.115,0.533
3127495,7860.0,3916.0,3915.0,0.777,0.318,-0.101,0.534
3127511,6928.0,3782.0,3577.0,0.785,0.302,-0.089,0.534
3127527,6540.0,3600.0,3629.0,0.793,0.285,-0.076,0.534
3127553,5580.0,3374.0,3677.0,0.8,0.268,-0.065,0.533
3127569,5212.0,3190.0,3351.0,0.806,0.252,-0.054,0.532
3127585,5022.0,2872.0,3097.0,0.812,0.235,-0.043,0.532
3127601,4412.0,3122.0,2933.0,0.818,0.219,-0.032,0.532
3127617,3576.0,2618.0,2593.0,0.823,0.201,-0.022,0.531
3127633,3568.0,1906.0,1951.0,0.828,0.184,-0.011,0.529
3127659,2712.0,1362.0,1905.0,0.833,0.167,0.0,0.528
3127675,2054.0,1276.0,2249.0,0.837,0.151,0.012,0.526
3127691,1786.0,1694.0,1729.0,0.84,0.136,0.024,0.525
3127707,1756.0,2062.0,1469.0,0.843,0.122,0.035,0.524
3127723,1822.0,2474.0,1371.0,0.845,0.104,0.049,0.522
3127739,1092.0,1340.0,819.0,0.848,0.085,0.062,0.519
3127765,-976.0,922.0,69.0,0.854,0.066,0.078,0.51
3127781,-3430.0,-930.0,-1761.0,0.859,0.047,0.09,0.503
3127797,-5352.0,-6202.0,-2171.0,0.861,0.035,0.1,0.497
3127813,-4472.0,-4634.0,-79.0,0.863,0.042,0.108,0.492
3127829,324.0,3256.0,3057.0,0.867,0.055,0.117,0.482
3127845,-1034.0,5540.0,499.0,0.869,0.058,0.122,0.476
3127871,-2566.0,2006.0,-299.0,0.87,0.059,0.122,0.474
3127887,-2682.0,2196.0,2393.0,0.87,0.061,0.117,0.474
3127903,-2156.0,1042.0,1437.0,0.871,0.064,0.108,0.476
3127919,-1238.0,524.0,1203.0,0.87,0.069,0.097,0.478
3127935,-964.0,1056.0,1833.0,0.87,0.077,0.085,0.48
3127951,322.0,2394.0,1889.0,0.868,0.085,0.071,0.484
3127977,576.0,1738.0,2505.0,0.866,0.093,0.056,0.488
3127993,830.0,1328.0,3425.0,0.863,0.103,0.04,0.493
3128009,1792.0,1742.0,4099.0,0.859,0.115,0.022,0.498
3128025,3024.0,2006.0,4159.0,0.855,0.129,0.004,0.502
3128041,3606.0,1582.0,4275.0,0.851,0.144,-0.014,0.505
3128067,3892.0,2042.0,5029.0,0.846,0.162,-0.032,0.507
3128083,4528.0,1718.0,5009.0,0.841,0.181,-0.05,0.508
3128099,5290.0,2228.0,5487.0,0.834,0.205,-0.068,0.507
3128115,5890.0,3428.0,5771.0,0.827,0.229,-0.087,0.505
3128131,6436.0,3036.0,5383.0,0.82,0.254,-0.105,0.503
3128147,6270.0,4224.0,6075.0,0.811,0.279,-0.121,0.499
3128173,6586.0,4770.0,5999.0,0.803,0.304,-0.139,0.494
3128189,7652.0,4972.0,6119.0,0.794,0.327,-0.157,0.489
3128205,8158.0,5048.0,5945.0,0.785,0.347,-0.174,0.483
3128221,8916.0,4774.0,5467.0,0.775,0.367,-0.189,0.478
3128237,9426.0,5152.0,5093.0,0.766,0.385,-0.203,0.474
3128253,8930.0,5228.0,5525.0,0.755,0.401,-0.215,0.472
3128279,9264.0,5088.0,5393.0,0.745,0.415,-0.228,0.47
3128295,9340.0,5030.0,5061.0,0.736,0.427,-0.24,0.468
3128311,9728.0,4824.0,5047.0,0.726,0.438,-0.252,0.467
3128327,9978.0,4200.0,4877.0,0.715,0.449,-0.264,0.466
3128343,9512.0,4754.0,5681.0,0.705,0.46,-0.275,0.464
3128359,8924.0,3772.0,5221.0,0.695,0.47,-0.288,0.461
3128385,9728.0,3954.0,4871.0,0.685,0.481,-0.3,0.458
3128401,9654.0,3766.0,4761.0,0.674,0.491,-0.312,0.455
3128417,9956.0,4022.0,4581.0,0.663,0.502,-0.323,0.452
3128433,9890.0,3880.0,4789.0,0.652,0.512,-0.334,0.448
3128449,10848.0,3590.0,4159.0,0.642,0.521,-0.344,0.445
3128475,10330.0,3832.0,4315.0,0.632,0.529,-0.353,0.443
3128491,10334.0,3534.0,3877.0,0.622,0.537,-0.36,0.441
3128507,10292.0,4012.0,3999.0,0.613,0.544,-0.366,0.441
3128523,9970.0,3870.0,3871.0,0.605,0.55,-0.371,0.441
3128539,9518.0,3794.0,3837.0,0.598,0.555,-0.375,0.441
3128555,9340.0,4144.0,4247.0,0.591,0.559,-0.378,0.442
3128571,8612.0,4164.0,5039.0,0.586,0.563,-0.382,0.441
3128597,8668.0,4108.0,5097.0,0.581,0.566,-0.386,0.439
3128613,8860.0,3892.0,5333.0,0.578,0.569,-0.389,0.436
3128629,8980.0,4080.0,5523.0,0.576,0.572,-0.393,0.433
3128645,9450.0,4198.0,5553.0,0.574,0.573,-0.396,0.43
3128661,9744.0,4260.0,5549.0,0.575,0.573,-0.397,0.428
3128677,9690.0,4596.0,5717.0,0.577,0.572,-0.398,0.426
3128703,9432.0,4714.0,6107.0,0.58,0.57,-0.397,0.425
3128719,9462.0,4724.0,6333.0,0.586,0.565,-0.396,0.425
3128735,9510.0,5036.0,6669.0,0.593,0.559,-0.394,0.424
3128751,9828.0,4962.0,7037.0,0.603,0.552,-0.392,0.423
3128767,10542.0,4732.0,7247.0,0.614,0.543,-0.388,0.421
3128783,11832.0,4002.0,6703.0,0.628,0.533,-0.383,0.419
3128809,12364.0,4280.0,6633.0,0.642,0.521,-0.376,0.419
3128825,12406.0,4140.0,6695.0,0.657,0.508,-0.367,0.42
3128841,12380.0,4048.0,6615.0,0.673,0.493,-0.357,0.42
3128857,12364.0,3748.0,6423.0,0.69,0.479,-0.345,0.419
3128873,12194.0,3914.0,6089.0,0.708,0.463,-0.332,0.419
3128889,11830.0,3576.0,5581.0,0.724,0.447,-0.317,0.419
3128915,12200.0,3710.0,5413.0,0.741,0.43,-0.302,0.419
3128931,11734.0,4138.0,4607.0,0.756,0.413,-0.285,0.421
3128947,11152.0,4368.0,4141.0,0.77,0.395,-0.266,0.424
3128963,10306.0,4608.0,4323.0,0.784,0.376,-0.248,0.428
3128979,9616.0,4826.0,4379.0,0.797,0.355,-0.229,0.431
3129005,9100.0,4356.0,4067.0,0.809,0.335,-0.211,0.434
3129021,8564.0,4258.0,3957.0,0.82,0.315,-0.194,0.437
3129037,7614.0,4078.0,4093.0,0.829,0.295,-0.177,0.44
3129053,7400.0,4154.0,4053.0,0.838,0.277,-0.16,0.443
3129069,7120.0,3982.0,3453.0,0.845,0.26,-0.145,0.445
3129085,6442.0,4024.0,3381.0,0.851,0.243,-0.13,0.447
3129111,6200.0,3982.0,3269.0,0.857,0.226,-0.116,0.448
3129127,5688.0,3656.0,3037.0,0.863,0.21,-0.102,0.449
3129143,4758.0,3470.0,3573.0,0.868,0.193,-0.088,0.449
3129159,4440.0,2902.0,3179.0,0.873,0.176,-0.076,0.448
3129175,4142.0,2594.0,2589.0,0.878,0.16,-0.063,0.446
3129191,3436.0,2150.0,2607.0,0.883,0.145,-0.051,0.444
3129217,2892.0,1954.0,2437.0,0.887,0.131,-0.038,0.442
3129233,2594.0,1784.0,1767.0,0.891,0.117,-0.026,0.438
3129249,2472.0,722.0,1435.0,0.895,0.104,-0.013,0.434
3129266,1482.0,294.0,1251.0,0.898,0.092,0.0,0.431
3129282,308.0,-806.0,1129.0,0.9,0.083,0.014,0.427
3129298,-878.0,-700.0,847.0,0.903,0.078,0.028,0.421
3129324,-1148.0,34.0,411.0,0.906,0.073,0.04,0.415
3129340,-1870.0,308.0,675.0,0.908,0.07,0.052,0.41
3129356,-2316.0,260.0,787.0,0.91,0.067,0.061,0.405
3129372,-2404.0,660.0,563.0,0.911,0.067,0.068,0.402
3129388,-2430.0,84.0,67.0,0.911,0.067,0.074,0.401
3129404,-2840.0,-424.0,623.0,0.91,0.07,0.077,0.401
3129420,-3248.0,676.0,1395.0,0.909,0.074,0.077,0.402
3129446,-2996.0,1238.0,1279.0,0.908,0.079,0.072,0.405
3129462,-2062.0,942.0,1383.0,0.907,0.085,0.063,0.408
3129478,-940.0,834.0,1251.0,0.905,0.092,0.051,0.413
3129494,-120.0,1086.0,1405.0,0.902,0.1,0.038,0.418
3129510,986.0,1498.0,2067.0,0.899,0.11,0.024,0.423
3129526,1578.0,2472.0,2969.0,0.895,0.12,0.01,0.429
3129552,2382.0,2420.0,3311.0,0.891,0.131,-0.006,0.434
3129568,3138.0,2540.0,3413.0,0.887,0.144,-0.023,0.439
3129584,3826.0,1400.0,3277.0,0.881,0.158,-0.039,0.444
3129600,4424.0,2072.0,3973.0,0.876,0.176,-0.053,0.446
3129616,4362.0,3802.0,4857.0,0.87,0.197,-0.068,0.447
3129642,5010.0,3764.0,4501.0,0.863,0.219,-0.085,0.447
3129658,5646.0,3974.0,4701.0,0.855,0.242,-0.101,0.447
3129674,5744.0,4358.0,5001.0,0.847,0.265,-0.117,0.446
3129690,6452.0,4580.0,4839.0,0.838,0.288,-0.133,0.444
3129706,6846.0,5378.0,5457.0,0.828,0.31,-0.149,0.442
3129722,7430.0,5192.0,4991.0,0.818,0.331,-0.166,0.439
3129748,8584.0,5292.0,4781.0,0.808,0.352,-0.182,0.437
3129764,8258.0,5918.0,5749.0,0.797,0.372,-0.197,0.434
3129780,8326.0,5238.0,5295.0,0.785,0.39,-0.212,0.431
3129796,9442.0,5462.0,4595.0,0.774,0.408,-0.226,0.428
3129812,9050.0,6168.0,5783.0,0.762,0.425,-0.239,0.425
3129828,9158.0,5846.0,6005.0,0.751,0.44,-0.254,0.421
3129854,9836.0,5256.0,5157.0,0.74,0.455,-0.269,0.417
3129870,10940.0,5106.0,4265.0,0.728,0.468,-0.283,0.413
3129886,10236.0,5618.0,5007.0,0.716,0.48,-0.295,0.412
3129902,10036.0,5374.0,5299.0,0.705,0.491,-0.307,0.409
3129918,10170.0,4988.0,5139.0,0.694,0.502,-0.32,0.406
3129934,9766.0,4822.0,5073.0,0.683,0.511,-0.333,0.402
3129960,9528.0,4606.0,5741.0,0.673,0.52,-0.346,0.397
3129976,9800.0,4030.0,4681.0,0.663,0.528,-0.358,0.391
3129992,9990.0,3922.0,3935.0,0.653,0.536,-0.368,0.388
3130008,10716.0,4386.0,3629.0,0.643,0.544,-0.376,0.386
3130024,10418.0,4942.0,4463.0,0.634,0.549,-0.383,0.386
3130040,9570.0,4918.0,5053.0,0.626,0.554,-0.391,0.385
3130066,9188.0,4342.0,4751.0,0.62,0.557,-0.398,0.383
3130082,9294.0,3818.0,4847.0,0.615,0.56,-0.405,0.38
3130098,9028.0,4050.0,5345.0,0.61,0.563,-0.412,0.377
3130114,9096.0,3790.0,5251.0,0.606,0.565,-0.418,0.373
3130130,9396.0,3816.0,5235.0,0.603,0.567,-0.423,0.369
3130146,9846.0,3978.0,4963.0,0.601,0.569,-0.426,0.366
3130172,10036.0,4160.0,4991.0,0.6,0.569,-0.428,0.364
3130188,9892.0,4372.0,5367.0,0.601,0.568,-0.429,0.363
3130204,9964.0,4434.0,5387.0,0.603,0.566,-0.429,0.363
3130220,10144.0,4434.0,5643.0,0.607,0.562,-0.428,0.364
3130236,10612.0,4296.0,5795.0,0.613,0.556,-0.425,0.366
3130252,10870.0,4328.0,5999.0,0.62,0.55,-0.421,0.369
3130278,11460.0,3986.0,5689.0,0.629,0.542,-0.415,0.372
3130294,11456.0,4168.0,5527.0,0.639,0.533,-0.406,0.378
3130310,10822.0,4426.0,6219.0,0.65,0.523,-0.395,0.383
3130326,10884.0,4718.0,6421.0,0.663,0.512,-0.384,0.389
3130342,9720.0,3508.0,6115.0,0.676,0.501,-0.372,0.392
3130358,11016.0,4022.0,5933.0,0.69,0.488,-0.358,0.397
3130384,11616.0,4696.0,5667.0,0.705,0.474,-0.343,0.401
3130400,11764.0,5064.0,5273.0,0.72,0.459,-0.326,0.406
3130416,11328.0,4990.0,5533.0,0.735,0.442,-0.307,0.412
3130432,11244.0,5218.0,5473.0,0.75,0.425,-0.288,0.417
3130448,10920.0,5196.0,5247.0,0.765,0.406,-0.267,0.423
3130474,10638.0,5166.0,5087.0,0.779,0.387,-0.246,0.428
3130490,10158.0,5240.0,4979.0,0.793,0.366,-0.225,0.432
3130506,9402.0,4892.0,4669.0,0.806,0.345,-0.204,0.436
3130522,8954.0,4616.0,4577.0,0.818,0.323,-0.183,0.439
3130538,7756.0,4812.0,4911.0,0.829,0.302,-0.163,0.441
3130554,6870.0,4612.0,4881.0,0.84,0.28,-0.144,0.442
3130580,6328.0,4488.0,4955.0,0.85,0.259,-0.128,0.441
3130596,6250.0,4132.0,4621.0,0.858,0.239,-0.115,0.44
3130612,6174.0,3814.0,4567.0,0.866,0.219,-0.103,0.437
3130628,5760.0,3474.0,4297.0,0.873,0.2,-0.091,0.435
3130644,4644.0,2948.0,4399.0,0.88,0.181,-0.08,0.431
3130660,4288.0,2466.0,3677.0,0.886,0.163,-0.067,0.428
3130686,4394.0,2452.0,2745.0,0.891,0.146,-0.054,0.426
3130702,3846.0,2750.0,3427.0,0.895,0.128,-0.04,0.426
3130718,2714.0,2296.0,3195.0,0.897,0.112,-0.027,0.426
3130734,2378.0,2010.0,3709.0,0.9,0.096,-0.013,0.425
3130750,1454.0,1722.0,3501.0,0.902,0.081,-0.001,0.424
3130766,1168.0,1460.0,3377.0,0.904,0.067,0.01,0.423
3130792,1052.0,258.0,2547.0,0.905,0.055,0.021,0.421
3130808,544.0,642.0,1853.0,0.906,0.043,0.032,0.419
3130824,198.0,-182.0,859.0,0.907,0.033,0.043,0.418
3130840,-1006.0,-702.0,81.0,0.907,0.025,0.057,0.416
3130856,-2078.0,-1544.0,273.0,0.908,0.02,0.071,0.414
3130872,-3260.0,-1816.0,149.0,0.908,0.017,0.084,0.41
3130898,-4498.0,-2682.0,381.0,0.909,0.02,0.095,0.405
3130914,-3830.0,292.0,1307.0,0.911,0.028,0.101,0.399
3130930,-3006.0,4082.0,1735.0,0.912,0.035,0.103,0.396
3130946,-2798.0,3248.0,1123.0,0.912,0.037,0.1,0.396
3130962,-1984.0,-248.0,159.0,0.911,0.036,0.093,0.399
3130978,-1108.0,-1346.0,141.0,0.911,0.039,0.085,0.402
3131004,-826.0,-1132.0,1057.0,0.91,0.044,0.077,0.405
3131020,-264.0,1072.0,1609.0,0.909,0.052,0.068,0.409
3131036,398.0,1640.0,2345.0,0.907,0.06,0.057,0.413
3131052,924.0,1286.0,2313.0,0.905,0.068,0.044,0.418
3131068,1668.0,714.0,2697.0,0.902,0.078,0.031,0.423
3131084,2296.0,736.0,2645.0,0.9,0.089,0.018,0.427
3131110,2674.0,866.0,2983.0,0.896,0.103,0.005,0.431
3131126,2732.0,3290.0,4699.0,0.893,0.12,-0.008,0.433
3131142,2672.0,4388.0,5023.0,0.89,0.136,-0.026,0.435
3131158,3858.0,3546.0,4537.0,0.886,0.153,-0.045,0.435
3131174,4274.0,3490.0,4865.0,0.882,0.172,-0.066,0.435
3131190,5038.0,3032.0,5011.0,0.876,0.192,-0.087,0.433
3131216,5696.0,2538.0,5051.0,0.87,0.215,-0.107,0.431
3131232,5732.0,3408.0,5493.0,0.862,0.24,-0.127,0.428
3131248,6662.0,3530.0,5417.0,0.853,0.265,-0.146,0.425
3131264,6300.0,4032.0,6377.0,0.844,0.29,-0.164,0.42
3131280,6444.0,4632.0,6535.0,0.834,0.315,-0.183,0.414
3131306,7642.0,4708.0,5555.0,0.824,0.339,-0.202,0.407
3131322,9222.0,4824.0,5247.0,0.812,0.362,-0.218,0.402
3131338,10064.0,5418.0,4987.0,0.801,0.384,-0.23,0.398
3131354,10122.0,6310.0,5291.0,0.789,0.404,-0.24,0.397
3131370,9038.0,7150.0,5999.0,0.777,0.42,-0.251,0.396
3131386,9012.0,6574.0,6381.0,0.766,0.434,-0.265,0.394
3131412,9746.0,5538.0,5209.0,0.754,0.448,-0.279,0.39
3131428,10390.0,5586.0,4795.0,0.743,0.46,-0.292,0.388
3131444,9818.0,5522.0,4755.0,0.733,0.472,-0.303,0.385
3131460,9222.0,6068.0,5209.0,0.722,0.483,-0.314,0.383
3131476,9384.0,5686.0,5405.0,0.712,0.492,-0.327,0.379
3131492,9836.0,5408.0,5085.0,0.703,0.5,-0.341,0.374
3131518,10008.0,4992.0,4751.0,0.693,0.508,-0.354,0.369
3131534,10410.0,4532.0,4349.0,0.684,0.514,-0.366,0.365
3131550,10286.0,4276.0,4391.0,0.676,0.52,-0.377,0.36
3131566,10168.0,4190.0,4413.0,0.669,0.526,-0.386,0.357
3131582,9948.0,3858.0,4335.0,0.662,0.53,-0.394,0.353
3131598,9472.0,3814.0,4419.0,0.655,0.535,-0.402,0.351
3131624,9390.0,4254.0,4161.0,0.65,0.538,-0.409,0.349
3131640,9456.0,3640.0,3815.0,0.645,0.539,-0.415,0.348
3131656,9384.0,3482.0,3675.0,0.641,0.54,-0.42,0.349
3131672,8948.0,3370.0,3835.0,0.636,0.541,-0.424,0.351
3131688,8404.0,3904.0,4595.0,0.632,0.541,-0.427,0.353
3131704,7386.0,3298.0,5721.0,0.628,0.542,-0.431,0.354
3131730,8216.0,3332.0,5543.0,0.624,0.544,-0.436,0.354
3131746,9132.0,3334.0,5187.0,0.62,0.545,-0.44,0.352
3131762,9480.0,3268.0,5157.0,0.617,0.547,-0.443,0.351
3131778,9800.0,3760.0,4927.0,0.616,0.549,-0.443,0.351
3131794,9348.0,3970.0,5211.0,0.616,0.549,-0.442,0.351
3131810,9202.0,4300.0,5335.0,0.618,0.547,-0.441,0.352
3131836,9174.0,4532.0,5485.0,0.622,0.544,-0.438,0.353
3131852,8866.0,4194.0,5949.0,0.628,0.54,-0.435,0.354
3131868,8958.0,4520.0,5797.0,0.635,0.534,-0.431,0.355
3131884,8302.0,4680.0,6793.0,0.643,0.527,-0.426,0.357
3131900,9144.0,4756.0,6519.0,0.653,0.518,-0.421,0.357
3131916,10056.0,4696.0,6181.0,0.664,0.508,-0.415,0.358
3131942,10748.0,4762.0,5607.0,0.677,0.497,-0.406,0.361
3131958,11326.0,4776.0,6059.0,0.691,0.484,-0.394,0.364
3131974,12062.0,5238.0,5703.0,0.706,0.471,-0.38,0.368
3131990,11616.0,5100.0,6033.0,0.722,0.456,-0.365,0.371
3132006,12026.0,5264.0,5853.0,0.738,0.44,-0.349,0.374
3132032,11368.0,4780.0,6043.0,0.753,0.425,-0.332,0.376
3132048,11308.0,4620.0,5635.0,0.768,0.41,-0.315,0.378
3132064,11230.0,4760.0,5155.0,0.782,0.395,-0.297,0.379
3132080,10408.0,5222.0,5755.0,0.796,0.381,-0.277,0.38
3132096,10288.0,5252.0,5505.0,0.809,0.366,-0.259,0.381
3132112,9752.0,4996.0,5245.0,0.821,0.351,-0.239,0.381
3132138,9158.0,5158.0,5507.0,0.833,0.337,-0.22,0.38
3132154,8894.0,4812.0,5033.0,0.844,0.322,-0.201,0.38
3132170,7884.0,4782.0,5379.0,0.854,0.307,-0.182,0.378
3132186,8092.0,4696.0,4859.0,0.864,0.293,-0.163,0.376
3132202,7522.0,4476.0,4509.0,0.873,0.278,-0.144,0.374
3132218,6682.0,4410.0,4727.0,0.881,0.264,-0.124,0.372
3132244,5940.0,4282.0,4559.0,0.889,0.25,-0.106,0.369
3132260,5124.0,3988.0,4783.0,0.896,0.236,-0.089,0.366
3132276,4510.0,3710.0,4707.0,0.902,0.222,-0.073,0.362
3132292,3736.0,3678.0,4269.0,0.908,0.209,-0.058,0.357
3132308,3716.0,3160.0,3639.0,0.914,0.196,-0.045,0.353
3132324,3130.0,2894.0,3583.0,0.919,0.183,-0.033,0.348
3132350,2464.0,2676.0,3403.0,0.923,0.17,-0.021,0.344
3132366,2308.0,2114.0,3397.0,0.927,0.159,-0.009,0.339
3132382,1672.0,2082.0,3419.0,0.931,0.147,0.002,0.334
3132398,1474.0,2024.0,2915.0,0.934,0.137,0.012,0.33
3132414,1306.0,1982.0,2847.0,0.936,0.127,0.022,0.327
3132430,600.0,1358.0,2291.0,0.938,0.117,0.031,0.324
3132456,220.0,-18.0,1619.0,0.94,0.108,0.041,0.321
3132472,268.0,-538.0,679.0,0.942,0.1,0.051,0.318
3132488,396.0,-970.0,85.0,0.943,0.094,0.063,0.314
3132509,14.0,172.0,-429.0,0.943,0.089,0.076,0.311
3132525,-528.0,-1014.0,-21.0,0.944,0.084,0.087,0.308
3132541,-2288.0,-1966.0,265.0,0.944,0.083,0.097,0.304
3132557,-3090.0,-66.0,341.0,0.945,0.086,0.103,0.299
3132573,-3056.0,968.0,-31.0,0.946,0.09,0.106,0.294
3132589,-3218.0,386.0,-251.0,0.947,0.094,0.104,0.291
3132615,-3352.0,-224.0,-637.0,0.947,0.098,0.098,0.29
3132631,-3512.0,-26.0,497.0,0.947,0.104,0.088,0.291
3132647,-3486.0,1254.0,783.0,0.946,0.11,0.074,0.295
3132663,-2160.0,1206.0,1251.0,0.945,0.116,0.055,0.301
3132679,-832.0,1044.0,1365.0,0.943,0.121,0.034,0.308
3132695,408.0,1898.0,1917.0,0.94,0.127,0.011,0.316
3132721,1594.0,1596.0,2219.0,0.937,0.132,-0.013,0.324
3132737,3534.0,1304.0,2579.0,0.932,0.139,-0.035,0.332
3132753,4430.0,1548.0,3323.0,0.927,0.148,-0.056,0.339
3132769,4814.0,1576.0,3541.0,0.921,0.16,-0.075,0.346
3132785,5392.0,2406.0,4381.0,0.915,0.175,-0.093,0.352
3132801,5636.0,2968.0,4975.0,0.907,0.192,-0.112,0.357
3132827,6530.0,2622.0,4837.0,0.899,0.212,-0.132,0.36
3132843,6954.0,3310.0,4635.0,0.889,0.234,-0.151,0.363
3132859,7310.0,3634.0,4823.0,0.879,0.257,-0.17,0.365
3132875,7742.0,4088.0,4797.0,0.867,0.281,-0.187,0.366
3132891,8004.0,4368.0,4813.0,0.855,0.306,-0.205,0.366
3132907,8514.0,5276.0,4419.0,0.841,0.331,-0.221,0.365
3132933,8336.0,6200.0,5555.0,0.827,0.355,-0.239,0.364
3132949,8788.0,6456.0,4199.0,0.812,0.379,-0.257,0.361
3132965,10384.0,6606.0,4109.0,0.797,0.401,-0.274,0.359
3132981,9848.0,6752.0,4289.0,0.782,0.422,-0.291,0.356
3132997,10534.0,6640.0,3935.0,0.767,0.441,-0.306,0.352
3133023,11386.0,6538.0,3505.0,0.752,0.459,-0.319,0.35
3133039,10120.0,7056.0,4841.0,0.737,0.476,-0.331,0.349
3133055,10558.0,6542.0,4749.0,0.722,0.49,-0.344,0.347
3133072,10602.0,5610.0,4521.0,0.707,0.504,-0.356,0.345
3133088,10592.0,5502.0,4517.0,0.692,0.518,-0.367,0.343
3133104,10856.0,5474.0,4343.0,0.677,0.531,-0.378,0.343
3133120,11110.0,5372.0,4009.0,0.662,0.543,-0.386,0.343
3133146,11054.0,5786.0,4455.0,0.648,0.553,-0.394,0.345
3133162,10582.0,5644.0,4655.0,0.635,0.563,-0.401,0.346
3133178,10194.0,5328.0,4541.0,0.623,0.571,-0.407,0.347
3133194,9698.0,4958.0,4171.0,0.611,0.579,-0.413,0.348
3133210,9652.0,5146.0,4027.0,0.6,0.586,-0.418,0.348
3133226,9370.0,5610.0,4923.0,0.591,0.592,-0.424,0.349
3133252,9432.0,5144.0,4601.0,0.582,0.596,-0.43,0.348
3133268,9606.0,5146.0,4329.0,0.575,0.6,-0.435,0.346
3133284,9724.0,4966.0,4011.0,0.569,0.603,-0.44,0.345
3133300,9870.0,5580.0,4523.0,0.566,0.605,-0.443,0.343
3133316,9768.0,5462.0,4621.0,0.565,0.605,-0.445,0.342
3133332,9590.0,5392.0,4803.0,0.566,0.603,-0.446,0.341
3133358,9516.0,5302.0,4707.0,0.57,0.6,-0.447,0.34
3133374,9612.0,4906.0,4405.0,0.574,0.596,-0.447,0.339
3133390,9868.0,5142.0,4657.0,0.581,0.591,-0.445,0.34
3133406,9834.0,4988.0,4821.0,0.59,0.584,-0.442,0.341
3133422,10096.0,4802.0,4995.0,0.6,0.575,-0.438,0.342
3133448,10210.0,4704.0,5091.0,0.611,0.566,-0.433,0.344
3133464,10446.0,4582.0,5111.0,0.624,0.556,-0.427,0.345
3133480,10534.0,4444.0,5453.0,0.637,0.546,-0.42,0.347
3133496,11032.0,4492.0,5421.0,0.651,0.535,-0.411,0.349
3133512,11848.0,4824.0,4945.0,0.664,0.524,-0.399,0.353
3133528,12114.0,5272.0,5127.0,0.678,0.513,-0.386,0.358
3133554,12252.0,5128.0,5285.0,0.693,0.5,-0.372,0.363
3133570,12384.0,5242.0,5021.0,0.708,0.488,-0.355,0.368
3133586,11920.0,5034.0,4661.0,0.722,0.475,-0.337,0.373
3133602,11648.0,5216.0,4353.0,0.736,0.462,-0.318,0.379
3133618,11294.0,5454.0,4039.0,0.749,0.45,-0.297,0.385
3133634,11120.0,5618.0,3681.0,0.763,0.437,-0.275,0.39
3133660,10290.0,5800.0,3741.0,0.775,0.423,-0.253,0.394
3133676,9418.0,5810.0,3617.0,0.788,0.41,-0.231,0.398
3133692,9404.0,5842.0,3255.0,0.8,0.395,-0.209,0.4
3133708,8592.0,5346.0,3183.0,0.812,0.38,-0.188,0.402
3133724,7680.0,5434.0,3097.0,0.823,0.366,-0.167,0.402
3133740,7162.0,5276.0,3107.0,0.833,0.351,-0.148,0.401
3133757,6654.0,5578.0,3337.0,0.843,0.335,-0.13,0.4
3133783,5544.0,4882.0,3393.0,0.853,0.319,-0.114,0.397
3133799,5052.0,4010.0,2965.0,0.863,0.301,-0.1,0.393
3133815,4360.0,4234.0,3027.0,0.872,0.283,-0.087,0.39
3133831,4774.0,4316.0,3373.0,0.88,0.265,-0.074,0.387
3133847,4226.0,3782.0,4287.0,0.888,0.246,-0.062,0.385
3133863,3866.0,2508.0,4465.0,0.895,0.227,-0.051,0.382
3133889,3392.0,1564.0,2993.0,0.9,0.21,-0.038,0.379
3133905,3884.0,2428.0,2681.0,0.905,0.196,-0.022,0.378
3133922,2656.0,2010.0,2963.0,0.907,0.181,-0.005,0.379
3133938,1590.0,1998.0,3277.0,0.909,0.168,0.013,0.381
3133954,938.0,1634.0,3457.0,0.91,0.155,0.03,0.382
3133970,386.0,1954.0,3675.0,0.912,0.145,0.044,0.382
3133996,94.0,2108.0,3561.0,0.913,0.133,0.057,0.381
3134012,312.0,1614.0,2641.0,0.914,0.123,0.067,0.38
3134028,326.0,838.0,2281.0,0.915,0.113,0.077,0.379
3134044,-118.0,1248.0,1763.0,0.916,0.105,0.087,0.377
3134060,-890.0,52.0,1557.0,0.917,0.098,0.096,0.375
3134076,-1452.0,-476.0,997.0,0.917,0.093,0.105,0.372
3134102,-2082.0,-392.0,935.0,0.918,0.091,0.112,0.369
3134118,-2688.0,196.0,1209.0,0.919,0.089,0.117,0.366
3134134,-3304.0,1042.0,1727.0,0.919,0.09,0.12,0.364
3134150,-3372.0,1370.0,1811.0,0.92,0.091,0.118,0.363
3134166,-3144.0,1284.0,1581.0,0.919,0.093,0.113,0.365
3134182,-2776.0,800.0,1613.0,0.919,0.095,0.104,0.368
3134208,-2162.0,822.0,1799.0,0.918,0.098,0.092,0.372
3134224,-1458.0,1302.0,2013.0,0.917,0.102,0.079,0.377
3134240,-374.0,992.0,2133.0,0.915,0.106,0.063,0.383
3134256,194.0,918.0,2487.0,0.913,0.111,0.047,0.389
3134272,988.0,1072.0,2625.0,0.911,0.118,0.031,0.394
3134298,1916.0,556.0,2565.0,0.908,0.128,0.016,0.4
3134314,1748.0,1812.0,3547.0,0.904,0.14,0.002,0.404
3134330,2444.0,2854.0,3967.0,0.901,0.153,-0.014,0.407
3134346,2994.0,2598.0,4107.0,0.897,0.166,-0.031,0.409
3134362,2962.0,2550.0,4793.0,0.893,0.181,-0.049,0.41
3134378,3192.0,3058.0,5167.0,0.888,0.198,-0.069,0.409
3134394,3610.0,3238.0,5445.0,0.883,0.215,-0.091,0.407
3134420,3794.0,3340.0,6199.0,0.878,0.234,-0.115,0.403
3134436,5014.0,3578.0,5411.0,0.871,0.253,-0.14,0.397
3134452,6032.0,3816.0,5043.0,0.864,0.273,-0.164,0.39
3134468,7068.0,3994.0,5117.0,0.856,0.293,-0.186,0.384
3134484,8360.0,4740.0,5369.0,0.846,0.312,-0.205,0.379
3134510,8800.0,4884.0,5361.0,0.837,0.331,-0.221,0.376
3134526,8436.0,5396.0,5473.0,0.827,0.349,-0.236,0.373
3134542,8564.0,5310.0,5523.0,0.817,0.365,-0.249,0.371
3134558,9102.0,5272.0,5609.0,0.807,0.38,-0.261,0.369
3134574,9030.0,5282.0,5509.0,0.797,0.393,-0.273,0.367
3134590,8844.0,4734.0,5335.0,0.787,0.406,-0.285,0.366
3134616,8630.0,4974.0,5813.0,0.777,0.419,-0.297,0.365
3134632,8778.0,4652.0,5507.0,0.766,0.432,-0.31,0.362
3134648,9374.0,4680.0,5177.0,0.755,0.445,-0.322,0.359
3134664,9752.0,4350.0,4395.0,0.743,0.457,-0.334,0.356
3134680,9430.0,4816.0,5001.0,0.732,0.47,-0.345,0.354
3134696,9286.0,4940.0,4841.0,0.72,0.481,-0.355,0.351
3134722,9396.0,4908.0,4439.0,0.709,0.492,-0.366,0.348
3134738,9704.0,4582.0,3909.0,0.698,0.502,-0.376,0.346
3134754,10040.0,4778.0,3673.0,0.688,0.51,-0.384,0.345
3134770,9854.0,5036.0,4427.0,0.678,0.518,-0.392,0.345
3134786,9734.0,4296.0,3909.0,0.668,0.525,-0.4,0.344
3134812,9522.0,4238.0,3673.0,0.66,0.531,-0.406,0.344
3134828,9000.0,4326.0,3977.0,0.651,0.536,-0.412,0.345
3134844,9024.0,4402.0,4147.0,0.643,0.541,-0.418,0.345
3134860,8976.0,4080.0,4535.0,0.636,0.544,-0.425,0.344
3134876,9256.0,2910.0,4703.0,0.63,0.548,-0.43,0.343
3134892,9262.0,2400.0,5187.0,0.622,0.553,-0.434,0.344
3134908,9180.0,2510.0,5607.0,0.614,0.559,-0.437,0.347
3134934,9346.0,2968.0,5701.0,0.605,0.566,-0.437,0.35
3134951,9484.0,3764.0,5793.0,0.597,0.573,-0.436,0.354
3134967,9974.0,4828.0,5101.0,0.59,0.579,-0.434,0.359
3134983,10094.0,5074.0,4565.0,0.584,0.584,-0.431,0.364
3134999,10212.0,5592.0,4411.0,0.581,0.586,-0.427,0.37
3135015,9910.0,5718.0,4727.0,0.581,0.587,-0.421,0.376
3135041,9948.0,6144.0,4999.0,0.583,0.586,-0.413,0.383
3135057,9882.0,6234.0,5371.0,0.588,0.583,-0.406,0.388
3135073,10114.0,6472.0,5415.0,0.595,0.578,-0.398,0.392
3135089,10500.0,6228.0,5245.0,0.605,0.571,-0.39,0.396
3135105,10738.0,6170.0,5251.0,0.617,0.562,-0.38,0.398
3135121,10990.0,6038.0,5037.0,0.63,0.552,-0.37,0.401
3135147,11756.0,6482.0,4573.0,0.646,0.539,-0.359,0.404
3135163,10938.0,5966.0,4749.0,0.663,0.524,-0.348,0.405
3135179,11614.0,6284.0,4639.0,0.682,0.508,-0.335,0.406
3135195,11252.0,6422.0,5087.0,0.7,0.491,-0.321,0.406
3135211,12156.0,6762.0,4509.0,0.719,0.471,-0.308,0.407
3135227,11342.0,5956.0,4243.0,0.739,0.45,-0.293,0.408
3135253,10512.0,5840.0,4261.0,0.757,0.427,-0.278,0.409
3135269,9696.0,5454.0,4431.0,0.776,0.404,-0.262,0.409
3135285,8864.0,4988.0,4623.0,0.793,0.38,-0.246,0.409
3135301,7892.0,4330.0,4549.0,0.808,0.356,-0.231,0.408
3135317,7556.0,3588.0,4497.0,0.823,0.333,-0.217,0.406
3135343,7054.0,3676.0,4563.0,0.836,0.311,-0.203,0.404
3135359,7018.0,3588.0,4255.0,0.848,0.29,-0.19,0.402
3135375,6504.0,3500.0,4489.0,0.858,0.27,-0.178,0.4
3135391,5748.0,3268.0,4447.0,0.867,0.251,-0.166,0.397
3135407,5580.0,3054.0,4169.0,0.876,0.232,-0.156,0.393
3135423,5808.0,2600.0,3549.0,0.884,0.214,-0.144,0.391
3135449,5136.0,2660.0,3881.0,0.89,0.197,-0.133,0.389
3135465,4614.0,2702.0,3727.0,0.896,0.18,-0.121,0.386
3135481,4474.0,2530.0,3673.0,0.902,0.165,-0.11,0.385
3135497,4114.0,2314.0,3327.0,0.906,0.151,-0.098,0.383
3135513,3598.0,2130.0,3161.0,0.91,0.137,-0.086,0.381
3135529,3462.0,1900.0,2485.0,0.914,0.124,-0.073,0.38
3135555,2422.0,1922.0,2493.0,0.917,0.111,-0.06,0.378
3135571,1678.0,1542.0,2483.0,0.92,0.098,-0.047,0.376
3135587,1326.0,1598.0,2577.0,0.923,0.085,-0.036,0.374
3135603,740.0,944.0,2189.0,0.925,0.073,-0.026,0.371
3135619,500.0,168.0,1793.0,0.928,0.062,-0.017,0.368
3135635,60.0,-114.0,959.0,0.929,0.054,-0.007,0.365
3135661,-136.0,-934.0,427.0,0.931,0.048,0.003,0.363
3135677,-602.0,-390.0,181.0,0.931,0.045,0.014,0.361
3135694,-1614.0,-1488.0,375.0,0.932,0.044,0.024,0.36
3135710,-2428.0,-1514.0,547.0,0.932,0.047,0.032,0.357
3135726,-2154.0,-586.0,1171.0,0.933,0.054,0.038,0.355
3135743,-1968.0,1142.0,2181.0,0.933,0.065,0.041,0.351
3135759,-1820.0,2978.0,2805.0,0.933,0.074,0.038,0.349
3135785,-1700.0,2590.0,2657.0,0.934,0.08,0.031,0.348
3135801,-1418.0,1472.0,2311.0,0.933,0.086,0.019,0.348
3135817,-814.0,136.0,2323.0,0.933,0.092,0.003,0.348
3135833,250.0,924.0,2419.0,0.932,0.101,-0.015,0.348
3135849,1248.0,1648.0,2533.0,0.93,0.11,-0.034,0.349
3135865,2126.0,1542.0,2919.0,0.928,0.119,-0.054,0.35
3135891,2784.0,-158.0,3267.0,0.924,0.13,-0.074,0.352
3135907,3190.0,-254.0,3029.0,0.92,0.145,-0.092,0.353
3135923,4358.0,2278.0,3615.0,0.914,0.164,-0.109,0.354
3135939,4888.0,3044.0,4385.0,0.909,0.181,-0.127,0.354
3135955,4974.0,2638.0,4823.0,0.902,0.2,-0.144,0.355
3135971,5658.0,2754.0,4957.0,0.894,0.219,-0.162,0.355
3135997,5600.0,3506.0,5359.0,0.886,0.239,-0.18,0.354
3136013,6014.0,3650.0,5609.0,0.877,0.26,-0.198,0.352
3136029,6194.0,4426.0,6099.0,0.868,0.28,-0.217,0.349
3136045,7220.0,4580.0,6063.0,0.858,0.299,-0.237,0.345
3136061,7656.0,4462.0,5577.0,0.847,0.317,-0.256,0.342
3136078,9486.0,5204.0,5679.0,0.835,0.336,-0.274,0.339
3136094,9146.0,5384.0,6533.0,0.824,0.352,-0.29,0.337
3136120,9482.0,5292.0,6381.0,0.813,0.367,-0.306,0.334
3136136,9992.0,5148.0,6135.0,0.802,0.381,-0.319,0.332
3136152,9446.0,4996.0,6341.0,0.791,0.394,-0.332,0.33
3136168,9978.0,4948.0,5819.0,0.78,0.406,-0.344,0.329
3136184,9756.0,5256.0,6275.0,0.77,0.417,-0.355,0.328
3136200,9420.0,4902.0,6345.0,0.76,0.426,-0.367,0.326
3136226,9600.0,3972.0,5677.0,0.75,0.436,-0.378,0.324
3136242,9744.0,3984.0,4953.0,0.74,0.445,-0.387,0.323
3136258,9474.0,3822.0,4435.0,0.73,0.454,-0.395,0.323
3136275,9312.0,4468.0,4797.0,0.721,0.463,-0.401,0.325
3136292,8944.0,4038.0,4711.0,0.711,0.47,-0.407,0.327
3136308,8862.0,3866.0,4055.0,0.703,0.477,-0.413,0.329
3136324,9470.0,3796.0,3649.0,0.694,0.483,-0.418,0.332
3136350,8756.0,4070.0,3995.0,0.686,0.489,-0.422,0.336
3136366,8790.0,3754.0,3647.0,0.678,0.494,-0.427,0.339
3136382,8574.0,3712.0,3965.0,0.67,0.499,-0.431,0.342
3136398,8460.0,3722.0,4135.0,0.662,0.503,-0.436,0.344
3136414,8402.0,3694.0,4069.0,0.655,0.508,-0.442,0.344
3136430,8394.0,3454.0,3793.0,0.647,0.513,-0.448,0.344
3136456,8932.0,3600.0,3769.0,0.639,0.518,-0.453,0.343
3136472,9106.0,3584.0,3895.0,0.633,0.522,-0.459,0.342
3136488,8994.0,3130.0,4389.0,0.626,0.526,-0.463,0.341
3136504,9424.0,3144.0,4427.0,0.62,0.531,-0.466,0.341
3136520,9430.0,2922.0,4657.0,0.615,0.534,-0.467,0.343
3136536,9648.0,3202.0,4663.0,0.61,0.538,-0.467,0.347
3136562,10090.0,3880.0,4593.0,0.607,0.54,-0.465,0.351
3136578,10242.0,4282.0,4591.0,0.605,0.541,-0.463,0.355
3136594,10354.0,4808.0,5259.0,0.606,0.541,-0.46,0.359
3136610,10434.0,4334.0,5071.0,0.609,0.538,-0.456,0.362
3136626,10764.0,4784.0,5237.0,0.614,0.535,-0.45,0.366
3136642,10458.0,4656.0,5155.0,0.621,0.529,-0.443,0.372
3136669,10442.0,5272.0,5545.0,0.63,0.522,-0.434,0.378
3136685,10486.0,5344.0,5751.0,0.64,0.512,-0.424,0.384
3136701,10090.0,5048.0,5873.0,0.652,0.501,-0.414,0.39
3136717,10982.0,5554.0,6325.0,0.666,0.489,-0.403,0.395
3136733,10504.0,4368.0,5893.0,0.68,0.475,-0.391,0.399
3136749,11254.0,5140.0,6051.0,0.695,0.46,-0.377,0.404
3136775,11358.0,5054.0,5677.0,0.711,0.443,-0.363,0.407
3136792,11364.0,4404.0,5825.0,0.728,0.425,-0.348,0.41
3136808,11436.0,4580.0,5813.0,0.745,0.406,-0.332,0.411
3136824,11478.0,4396.0,5455.0,0.762,0.387,-0.314,0.413
3136840,10974.0,4298.0,5335.0,0.779,0.368,-0.296,0.413
3136856,10402.0,3862.0,5007.0,0.794,0.349,-0.277,0.413
3136872,9934.0,3824.0,4911.0,0.809,0.33,-0.257,0.412
3136898,9060.0,3694.0,4819.0,0.824,0.312,-0.237,0.41
3136914,8412.0,3614.0,4719.0,0.837,0.294,-0.217,0.407
3136930,7692.0,3642.0,4473.0,0.849,0.278,-0.198,0.403
3136946,7192.0,3536.0,4217.0,0.861,0.262,-0.179,0.398
3136962,6544.0,3570.0,3889.0,0.871,0.247,-0.162,0.393
3136988,5944.0,3552.0,3641.0,0.88,0.233,-0.144,0.389
3137004,4668.0,3202.0,3425.0,0.888,0.217,-0.128,0.384
3137020,3456.0,3098.0,3783.0,0.896,0.202,-0.113,0.379
3137036,2816.0,2882.0,4055.0,0.903,0.188,-0.102,0.374
3137052,2316.0,2190.0,3701.0,0.908,0.175,-0.093,0.368
3137068,2386.0,2518.0,3391.0,0.914,0.164,-0.086,0.362
3137094,2892.0,2510.0,3119.0,0.918,0.152,-0.08,0.357
3137111,2528.0,2098.0,3517.0,0.922,0.14,-0.075,0.352
3137127,1978.0,1106.0,3493.0,0.926,0.129,-0.07,0.346
3137143,2082.0,1204.0,2795.0,0.93,0.12,-0.065,0.341
3137159,2700.0,380.0,2143.0,0.934,0.111,-0.057,0.336
3137175,2212.0,-904.0,1091.0,0.936,0.103,-0.045,0.332
3137191,1308.0,-1168.0,963.0,0.939,0.098,-0.029,0.329
3137217,-424.0,890.0,1347.0,0.94,0.095,-0.012,0.326
3137233,-1330.0,2268.0,2087.0,0.942,0.088,0.001,0.324
3137249,-3006.0,1092.0,1387.0,0.943,0.08,0.009,0.323
3137265,-3038.0,-624.0,1041.0,0.944,0.074,0.012,0.322
3137281,-2486.0,-372.0,735.0,0.944,0.07,0.011,0.321
3137297,-2716.0,-90.0,823.0,0.945,0.068,0.008,0.321
3137323,-2110.0,-644.0,1133.0,0.945,0.068,0.001,0.321
3137339,-1618.0,614.0,1745.0,0.944,0.07,-0.009,0.322
3137355,-1054.0,810.0,2067.0,0.943,0.074,-0.022,0.323
3137371,116.0,466.0,2091.0,0.942,0.078,-0.037,0.323
3137387,1094.0,728.0,2307.0,0.941,0.084,-0.052,0.324
3137403,2068.0,688.0,2717.0,0.939,0.091,-0.068,0.324
3137429,1970.0,608.0,3081.0,0.937,0.101,-0.083,0.325
3137445,2240.0,1044.0,3643.0,0.934,0.112,-0.098,0.326
3137461,2804.0,1812.0,3905.0,0.93,0.125,-0.115,0.326
3137477,3316.0,1738.0,4361.0,0.926,0.138,-0.132,0.326
3137493,3870.0,1856.0,4377.0,0.921,0.152,-0.15,0.326
3137510,5300.0,1500.0,4335.0,0.915,0.168,-0.168,0.325
3137536,5034.0,1430.0,4799.0,0.909,0.185,-0.185,0.324
3137552,5622.0,2210.0,4993.0,0.902,0.203,-0.202,0.323
3137568,6540.0,2454.0,4685.0,0.894,0.222,-0.22,0.321
3137584,6340.0,2652.0,5097.0,0.885,0.242,-0.236,0.32
3137600,7318.0,2830.0,5211.0,0.876,0.262,-0.252,0.318
3137626,7906.0,3192.0,4975.0,0.866,0.282,-0.268,0.316
3137642,8094.0,3586.0,5549.0,0.855,0.301,-0.282,0.315
3137659,8236.0,3712.0,5575.0,0.843,0.32,-0.296,0.314
3137675,7922.0,3772.0,5795.0,0.831,0.339,-0.31,0.313
3137691,8714.0,3820.0,5303.0,0.818,0.358,-0.322,0.313
3137707,9426.0,3594.0,4101.0,0.805,0.376,-0.333,0.316
3137723,9562.0,4496.0,5467.0,0.791,0.393,-0.34,0.321
3137749,9572.0,4646.0,5787.0,0.778,0.41,-0.346,0.327
3137765,9276.0,4938.0,6251.0,0.764,0.426,-0.352,0.333
3137781,10116.0,4986.0,5011.0,0.75,0.442,-0.356,0.34
3137797,10044.0,5582.0,5593.0,0.736,0.457,-0.358,0.348
3137813,9842.0,5556.0,5447.0,0.723,0.47,-0.359,0.356
3137829,9338.0,5332.0,5709.0,0.71,0.483,-0.361,0.363
3137855,9092.0,5316.0,5065.0,0.697,0.496,-0.363,0.369
3137871,8784.0,5194.0,4991.0,0.684,0.508,-0.365,0.374
3137887,8778.0,5184.0,3903.0,0.671,0.52,-0.367,0.38
3137903,8820.0,5444.0,3599.0,0.658,0.531,-0.369,0.386
3137919,8700.0,5948.0,3293.0,0.646,0.54,-0.37,0.393
3137935,8726.0,5830.0,3327.0,0.635,0.547,-0.372,0.399
3137961,8664.0,5838.0,3543.0,0.625,0.553,-0.375,0.404
3137977,8374.0,5330.0,3547.0,0.616,0.557,-0.379,0.408
3137993,8360.0,4778.0,3731.0,0.608,0.561,-0.383,0.411
3138009,7978.0,4650.0,3881.0,0.601,0.564,-0.388,0.412
3138025,7900.0,4566.0,3957.0,0.594,0.567,-0.394,0.412
3138041,8184.0,4622.0,4123.0,0.588,0.571,-0.4,0.411
3138067,8680.0,4788.0,3959.0,0.583,0.573,-0.405,0.409
3138083,9068.0,5014.0,3991.0,0.58,0.575,-0.41,0.406
3138099,9682.0,5464.0,4203.0,0.578,0.576,-0.415,0.403
3138115,9748.0,5558.0,4309.0,0.578,0.575,-0.418,0.401
3138131,9842.0,5664.0,4649.0,0.581,0.572,-0.421,0.398
3138147,10152.0,5572.0,4787.0,0.585,0.568,-0.422,0.396
3138173,10216.0,5774.0,5353.0,0.591,0.563,-0.421,0.395
3138189,10050.0,5664.0,5883.0,0.6,0.557,-0.419,0.393
3138205,10434.0,5266.0,5671.0,0.61,0.55,-0.415,0.391
3138221,10866.0,5348.0,5655.0,0.622,0.542,-0.409,0.39
3138237,11002.0,5052.0,5609.0,0.636,0.533,-0.401,0.389
3138263,10702.0,5008.0,6051.0,0.65,0.522,-0.392,0.389
3138279,10468.0,4652.0,5885.0,0.666,0.511,-0.381,0.388
3138295,10574.0,4550.0,5387.0,0.681,0.5,-0.369,0.388
3138311,10556.0,4314.0,5351.0,0.697,0.487,-0.356,0.387
3138328,10598.0,4176.0,5083.0,0.713,0.475,-0.341,0.387
3138344,10748.0,4304.0,4517.0,0.728,0.462,-0.325,0.388
3138361,10400.0,4434.0,4345.0,0.743,0.448,-0.308,0.389
3138377,9860.0,4900.0,4561.0,0.758,0.434,-0.29,0.391
3138403,9530.0,4856.0,4403.0,0.773,0.418,-0.272,0.392
3138419,9012.0,4590.0,4567.0,0.787,0.402,-0.254,0.394
3138435,8778.0,4320.0,4255.0,0.8,0.386,-0.236,0.395
3138451,7984.0,4178.0,4231.0,0.812,0.37,-0.217,0.396
3138467,7348.0,4458.0,4487.0,0.823,0.353,-0.199,0.397
3138484,6148.0,4948.0,5335.0,0.834,0.337,-0.183,0.397
3138501,5556.0,4268.0,5385.0,0.843,0.321,-0.17,0.396
3138520,6022.0,4396.0,4417.0,0.852,0.306,-0.16,0.394
3138536,6280.0,4444.0,3869.0,0.86,0.291,-0.15,0.392
3138562,6146.0,3920.0,3351.0,0.866,0.275,-0.14,0.392
3138578,6042.0,3622.0,3319.0,0.873,0.259,-0.129,0.393
3138595,5170.0,3756.0,3731.0,0.879,0.243,-0.118,0.394
3138611,4486.0,3112.0,3675.0,0.885,0.226,-0.107,0.394
3138627,4048.0,2862.0,3351.0,0.89,0.21,-0.096,0.394
3138643,3158.0,2668.0,3901.0,0.895,0.193,-0.085,0.393
3138669,1752.0,2174.0,4431.0,0.9,0.178,-0.078,0.391
3138685,1556.0,1622.0,4133.0,0.905,0.164,-0.071,0.387
3138701,436.0,2068.0,3371.0,0.909,0.152,-0.066,0.383
3138717,948.0,1594.0,2589.0,0.913,0.142,-0.062,0.379
3138733,1444.0,1220.0,1833.0,0.915,0.134,-0.057,0.375
3138749,1814.0,1058.0,1139.0,0.918,0.126,-0.05,0.373
3138775,1662.0,750.0,939.0,0.92,0.12,-0.041,0.371
3138792,1060.0,334.0,1397.0,0.922,0.113,-0.031,0.368
3138808,-116.0,228.0,1607.0,0.925,0.107,-0.021,0.365
3138825,-812.0,-172.0,1453.0,0.927,0.102,-0.013,0.361
3138842,-1370.0,-226.0,1477.0,0.928,0.1,-0.006,0.358
3138858,-1322.0,46.0,1875.0,0.93,0.099,-0.002,0.354
3138874,-1308.0,208.0,2051.0,0.931,0.1,0.0,0.35
3138891,-1216.0,580.0,2043.0,0.933,0.103,-0.0,0.346
3138908,-1808.0,260.0,2485.0,0.933,0.108,-0.004,0.342
3138934,-1276.0,1448.0,3277.0,0.934,0.115,-0.012,0.339
3138950,-838.0,1964.0,3261.0,0.934,0.12,-0.024,0.337
3138966,-870.0,1072.0,2937.0,0.933,0.125,-0.038,0.336
3138982,-428.0,264.0,2865.0,0.931,0.131,-0.055,0.335
3138998,636.0,-332.0,2941.0,0.929,0.14,-0.073,0.335
3139014,1358.0,-1416.0,2849.0,0.925,0.152,-0.09,0.335
3139040,1748.0,22.0,2443.0,0.921,0.17,-0.105,0.335
3139056,3770.0,1832.0,3005.0,0.915,0.189,-0.119,0.337
3139072,3976.0,2842.0,3809.0,0.908,0.207,-0.132,0.34
3139088,4230.0,2452.0,4023.0,0.9,0.225,-0.145,0.343
3139104,4944.0,2920.0,4153.0,0.892,0.244,-0.159,0.347
3139130,5718.0,3386.0,3971.0,0.882,0.263,-0.172,0.35
3139146,6200.0,3644.0,4217.0,0.872,0.282,-0.185,0.355
3139162,6764.0,3936.0,4389.0,0.861,0.3,-0.198,0.359
3139178,6812.0,4336.0,5119.0,0.85,0.318,-0.211,0.363
3139194,7488.0,4698.0,5321.0,0.838,0.335,-0.224,0.367
3139211,7782.0,4198.0,4679.0,0.827,0.352,-0.238,0.369
3139227,8670.0,4524.0,4663.0,0.814,0.368,-0.25,0.372
3139253,8500.0,5152.0,5049.0,0.802,0.384,-0.262,0.375
3139269,8916.0,5342.0,5125.0,0.789,0.4,-0.275,0.377
3139285,9322.0,5684.0,5165.0,0.776,0.414,-0.287,0.379
3139301,9550.0,5494.0,4767.0,0.764,0.426,-0.3,0.381
3139317,9790.0,5474.0,4959.0,0.751,0.438,-0.312,0.384
3139343,9594.0,5652.0,5357.0,0.739,0.448,-0.324,0.386
3139359,9474.0,5404.0,5425.0,0.727,0.458,-0.335,0.387
3139375,9314.0,4980.0,4919.0,0.716,0.467,-0.347,0.386
3139391,10022.0,4834.0,4209.0,0.704,0.476,-0.357,0.387
3139407,9438.0,5284.0,4735.0,0.693,0.485,-0.366,0.388
3139423,8614.0,5214.0,5363.0,0.683,0.493,-0.376,0.387
3139440,8970.0,4754.0,4717.0,0.673,0.5,-0.386,0.385
3139467,9492.0,4532.0,3919.0,0.663,0.507,-0.395,0.383
3139483,9626.0,4436.0,3801.0,0.654,0.514,-0.403,0.382
3139499,9300.0,5030.0,4305.0,0.645,0.519,-0.41,0.382
3139515,9022.0,4802.0,4555.0,0.638,0.523,-0.417,0.382
3139531,8862.0,4548.0,4247.0,0.631,0.527,-0.424,0.38
3139547,8858.0,4078.0,4217.0,0.625,0.53,-0.431,0.378
3139563,8978.0,3844.0,4333.0,0.619,0.533,-0.438,0.376
3139589,8662.0,3630.0,4773.0,0.614,0.536,-0.444,0.373
3139605,9028.0,3386.0,4453.0,0.609,0.539,-0.45,0.37
3139621,9260.0,3360.0,4317.0,0.604,0.541,-0.456,0.367
3139637,9470.0,3636.0,4595.0,0.6,0.543,-0.46,0.365
3139653,9684.0,3548.0,4549.0,0.598,0.544,-0.464,0.363
3139669,9968.0,3656.0,4543.0,0.596,0.544,-0.466,0.362
3139695,10032.0,3696.0,4627.0,0.597,0.543,-0.467,0.361
3139711,9950.0,3806.0,4985.0,0.598,0.542,-0.467,0.361
3139727,9814.0,3948.0,5001.0,0.602,0.54,-0.465,0.362
3139743,9500.0,3920.0,5449.0,0.606,0.536,-0.462,0.363
3139760,9416.0,4132.0,5663.0,0.612,0.532,-0.458,0.364
3139776,9624.0,3996.0,5473.0,0.618,0.528,-0.454,0.365
3139802,9924.0,4304.0,5561.0,0.627,0.522,-0.448,0.366
3139818,10130.0,4330.0,5679.0,0.636,0.516,-0.44,0.368
3139834,10262.0,4508.0,5711.0,0.647,0.508,-0.432,0.37
3139850,10730.0,4532.0,5371.0,0.659,0.499,-0.422,0.373
3139866,10824.0,4800.0,5415.0,0.672,0.489,-0.41,0.375
3139882,11180.0,5692.0,5475.0,0.687,0.477,-0.398,0.377
3139908,11278.0,5260.0,5269.0,0.702,0.465,-0.384,0.378
3139925,11304.0,5722.0,5175.0,0.719,0.452,-0.368,0.378
3139941,10768.0,5454.0,5005.0,0.737,0.436,-0.352,0.377
3139957,10662.0,5782.0,5073.0,0.756,0.42,-0.334,0.376
3139973,10168.0,5694.0,4921.0,0.774,0.401,-0.317,0.373
3139989,9530.0,5248.0,5073.0,0.793,0.381,-0.299,0.37
3140015,9408.0,5212.0,5083.0,0.811,0.359,-0.281,0.366
3140031,8812.0,4608.0,4887.0,0.829,0.336,-0.262,0.362
3140047,8420.0,4394.0,4835.0,0.845,0.314,-0.244,0.358
3140063,7648.0,4498.0,5061.0,0.86,0.291,-0.225,0.354
3140079,6884.0,4052.0,5231.0,0.873,0.268,-0.207,0.35
3140095,6534.0,3982.0,5655.0,0.886,0.245,-0.19,0.346
3140121,6186.0,3356.0,4953.0,0.896,0.224,-0.175,0.341
3140137,5672.0,3474.0,5411.0,0.906,0.203,-0.159,0.336
3140153,5434.0,3206.0,4913.0,0.914,0.183,-0.145,0.331
3140169,5084.0,2772.0,4517.0,0.922,0.164,-0.13,0.326
3140185,4370.0,3120.0,5291.0,0.928,0.145,-0.116,0.322
3140201,4036.0,2632.0,4811.0,0.934,0.127,-0.103,0.318
3140227,3438.0,2218.0,4581.0,0.938,0.11,-0.09,0.315
3140244,2870.0,1484.0,4275.0,0.943,0.092,-0.079,0.311
3140260,2332.0,1278.0,4099.0,0.946,0.076,-0.067,0.307
3140277,1702.0,1050.0,4275.0,0.949,0.06,-0.055,0.303
3140293,1452.0,342.0,3847.0,0.952,0.047,-0.044,0.299
3140309,1242.0,926.0,3443.0,0.954,0.035,-0.033,0.295
3140325,1036.0,558.0,3141.0,0.956,0.024,-0.022,0.291
3140351,-538.0,132.0,2679.0,0.957,0.014,-0.011,0.288
3140367,-870.0,-382.0,2831.0,0.959,0.006,-0.002,0.285
3140383,-192.0,318.0,1875.0,0.959,-0.001,0.007,0.282
3140399,-610.0,-458.0,2019.0,0.96,-0.007,0.014,0.28
3140415,-646.0,-888.0,1437.0,0.96,-0.01,0.021,0.278
3140431,-602.0,-1028.0,771.0,0.961,-0.012,0.028,0.276
3140457,-1154.0,-2064.0,49.0,0.961,-0.01,0.036,0.275
3140473,-1636.0,-448.0,1161.0,0.961,-0.006,0.042,0.274
3140489,-2792.0,1346.0,1997.0,0.961,-0.001,0.045,0.273
3140505,-2638.0,850.0,1549.0,0.961,0.002,0.043,0.274
3140521,-2172.0,494.0,1829.0,0.961,0.006,0.036,0.275
3140537,-2488.0,-130.0,1803.0,0.961,0.011,0.026,0.276
3140563,-1196.0,616.0,2163.0,0.961,0.017,0.013,0.277
3140580,-820.0,770.0,2967.0,0.96,0.024,-0.002,0.279
3140596,-194.0,810.0,3363.0,0.959,0.032,-0.019,0.28
3140612,840.0,1022.0,3707.0,0.958,0.041,-0.038,0.281
3140628,1698.0,860.0,3481.0,0.956,0.051,-0.056,0.283
3140644,2810.0,40.0,3923.0,0.954,0.063,-0.072,0.285
3140660,2376.0,98.0,4415.0,0.951,0.078,-0.087,0.286
3140686,3476.0,1312.0,4803.0,0.947,0.097,-0.101,0.288
3140702,3970.0,1888.0,5193.0,0.943,0.116,-0.114,0.29
3140718,4306.0,2118.0,6151.0,0.938,0.137,-0.126,0.293
3140734,4376.0,1846.0,5577.0,0.932,0.158,-0.137,0.296
3140750,5388.0,2154.0,5015.0,0.925,0.182,-0.147,0.3
3140776,5882.0,3424.0,5761.0,0.916,0.206,-0.155,0.306
3140792,6084.0,3906.0,5897.0,0.907,0.23,-0.16,0.314
3140808,6324.0,3588.0,5135.0,0.897,0.255,-0.165,0.322
3140824,6314.0,5448.0,6137.0,0.886,0.28,-0.167,0.331
3140840,6590.0,6472.0,6371.0,0.874,0.302,-0.171,0.34
3140856,4540.0,6452.0,7945.0,0.863,0.322,-0.177,0.347
3140882,5446.0,6326.0,7543.0,0.851,0.342,-0.188,0.351
3140898,6336.0,6422.0,6921.0,0.839,0.362,-0.2,0.353
3140914,6640.0,6612.0,7575.0,0.827,0.38,-0.214,0.356
3140930,6564.0,6376.0,7383.0,0.814,0.397,-0.23,0.356
3140946,7512.0,6190.0,6985.0,0.802,0.412,-0.246,0.355
3140972,8002.0,5826.0,6707.0,0.79,0.427,-0.262,0.354
3140988,8366.0,5550.0,6223.0,0.777,0.441,-0.277,0.353
3141004,8244.0,5152.0,5953.0,0.764,0.455,-0.289,0.354
3141020,7716.0,6018.0,6771.0,0.751,0.468,-0.302,0.355
3141036,7970.0,5438.0,6509.0,0.738,0.479,-0.315,0.356
3141052,7896.0,4818.0,6073.0,0.725,0.49,-0.327,0.356
3141068,8778.0,4840.0,5431.0,0.712,0.501,-0.339,0.356
3141094,9436.0,5046.0,4953.0,0.699,0.512,-0.349,0.358
3141110,9110.0,5606.0,5991.0,0.686,0.522,-0.359,0.358
3141126,9158.0,5666.0,6007.0,0.675,0.529,-0.37,0.357
3141142,8872.0,4598.0,5229.0,0.665,0.536,-0.38,0.354
3141158,9240.0,4806.0,5047.0,0.655,0.543,-0.389,0.352
3141184,8832.0,4864.0,5067.0,0.647,0.549,-0.397,0.349
3141200,8936.0,4634.0,5213.0,0.639,0.555,-0.404,0.347
3141216,9150.0,4532.0,5495.0,0.634,0.559,-0.409,0.345
3141232,8890.0,4002.0,5817.0,0.629,0.563,-0.412,0.345
3141248,8728.0,4008.0,5787.0,0.624,0.566,-0.413,0.347
3141264,8610.0,4204.0,5491.0,0.62,0.568,-0.412,0.35
3141280,8492.0,4682.0,5213.0,0.617,0.57,-0.409,0.356
3141306,8330.0,4852.0,4947.0,0.615,0.571,-0.406,0.361
3141322,8178.0,5140.0,5019.0,0.615,0.571,-0.401,0.367
3141338,8148.0,5122.0,4945.0,0.617,0.569,-0.396,0.372
3141354,8328.0,5124.0,4755.0,0.62,0.566,-0.39,0.378
3141370,8060.0,4838.0,4753.0,0.625,0.562,-0.383,0.384
3141386,8054.0,5292.0,5035.0,0.631,0.556,-0.376,0.389
3141412,8780.0,4996.0,4529.0,0.638,0.549,-0.367,0.395
3141428,8814.0,5178.0,4977.0,0.647,0.541,-0.358,0.401
3141444,9330.0,4998.0,4367.0,0.655,0.532,-0.348,0.408
3141460,9630.0,5974.0,3923.0,0.663,0.523,-0.336,0.417
3141476,8792.0,5496.0,5509.0,0.673,0.513,-0.323,0.423
3141492,9286.0,5502.0,5213.0,0.684,0.503,-0.31,0.429
3141519,8758.0,5064.0,5319.0,0.695,0.491,-0.297,0.433
3141535,8822.0,5578.0,5671.0,0.706,0.48,-0.285,0.436
3141551,9038.0,5342.0,5755.0,0.717,0.468,-0.273,0.438
3141567,9088.0,5104.0,5347.0,0.728,0.456,-0.262,0.439
3141583,9290.0,5280.0,5179.0,0.739,0.444,-0.25,0.44
3141609,8800.0,5324.0,5767.0,0.751,0.431,-0.238,0.44
3141625,9072.0,5442.0,5569.0,0.762,0.418,-0.226,0.44
3141641,8608.0,4814.0,5293.0,0.773,0.404,-0.213,0.44
3141657,7954.0,5304.0,5831.0,0.784,0.39,-0.2,0.44
3141673,7694.0,5280.0,5599.0,0.794,0.375,-0.188,0.439
3141689,7380.0,5136.0,5805.0,0.805,0.36,-0.176,0.438
3141705,6974.0,4840.0,6001.0,0.815,0.344,-0.164,0.436
3141731,6308.0,4200.0,5565.0,0.826,0.328,-0.153,0.433
3141747,6482.0,4360.0,5371.0,0.835,0.313,-0.142,0.431
3141763,6102.0,4222.0,5153.0,0.843,0.298,-0.13,0.429
3141779,5552.0,3984.0,5011.0,0.851,0.282,-0.118,0.427
3141795,4584.0,3976.0,5931.0,0.859,0.267,-0.107,0.424
3141821,3642.0,3814.0,6025.0,0.866,0.251,-0.097,0.421
3141837,3658.0,3490.0,5177.0,0.873,0.236,-0.089,0.418
3141853,3722.0,3482.0,4519.0,0.878,0.222,-0.081,0.416
3141869,3272.0,2934.0,4349.0,0.883,0.208,-0.073,0.414
3141885,2826.0,2598.0,4509.0,0.887,0.194,-0.066,0.413
3141901,2494.0,2188.0,4343.0,0.891,0.181,-0.059,0.411
3141917,2502.0,1914.0,4359.0,0.895,0.169,-0.054,0.41
3141943,1668.0,1528.0,4447.0,0.898,0.158,-0.049,0.408
3141959,1226.0,1392.0,4473.0,0.901,0.148,-0.045,0.406
3141975,1308.0,1064.0,3301.0,0.903,0.139,-0.042,0.404
3141991,1268.0,638.0,2739.0,0.905,0.131,-0.038,0.402
3142007,884.0,476.0,2501.0,0.907,0.124,-0.032,0.4
3142023,768.0,764.0,2055.0,0.909,0.117,-0.026,0.399
3142049,1066.0,268.0,845.0,0.911,0.11,-0.018,0.398
3142065,1100.0,-444.0,1123.0,0.912,0.104,-0.009,0.397
3142081,-654.0,30.0,1113.0,0.913,0.099,0.002,0.396
3142097,-1748.0,-370.0,1509.0,0.914,0.094,0.011,0.395
3142113,-2422.0,-894.0,961.0,0.914,0.091,0.018,0.395
3142130,-2010.0,-780.0,1505.0,0.914,0.093,0.023,0.395
3142156,-1738.0,630.0,1689.0,0.913,0.099,0.026,0.395
3142172,-1802.0,1694.0,2037.0,0.912,0.105,0.025,0.395
3142188,-1926.0,2168.0,2919.0,0.911,0.111,0.02,0.397
3142204,-1880.0,1810.0,3173.0,0.909,0.117,0.009,0.4
3142220,-1550.0,1488.0,3131.0,0.907,0.123,-0.007,0.403
3142236,-392.0,394.0,2629.0,0.903,0.132,-0.027,0.408
3142262,382.0,-522.0,1605.0,0.898,0.143,-0.046,0.414
3142278,2056.0,260.0,1881.0,0.892,0.158,-0.063,0.418
3142294,3658.0,2140.0,2631.0,0.886,0.174,-0.078,0.423
3142310,4324.0,2780.0,3067.0,0.879,0.19,-0.092,0.428
3142326,5052.0,3498.0,3463.0,0.872,0.205,-0.105,0.433
3142343,5116.0,3606.0,4505.0,0.865,0.219,-0.119,0.436
3142369,5150.0,3992.0,4589.0,0.858,0.233,-0.134,0.438
3142385,6228.0,3736.0,4295.0,0.851,0.246,-0.149,0.439
3142401,6244.0,3518.0,5207.0,0.843,0.26,-0.166,0.44
3142417,5490.0,3396.0,6047.0,0.836,0.273,-0.183,0.439
3142433,6464.0,2968.0,5341.0,0.828,0.288,-0.203,0.436
3142449,7786.0,3296.0,5223.0,0.819,0.304,-0.222,0.434
3142475,8196.0,3056.0,5497.0,0.808,0.321,-0.241,0.431
3142491,8820.0,3664.0,5787.0,0.797,0.339,-0.259,0.427
3142507,9298.0,4402.0,5805.0,0.785,0.356,-0.278,0.423
3142523,10446.0,4350.0,5425.0,0.773,0.373,-0.295,0.42
3142539,10240.0,3476.0,5269.0,0.76,0.389,-0.311,0.416
3142555,10838.0,3732.0,5251.0,0.747,0.406,-0.325,0.414
3142581,9820.0,4266.0,5791.0,0.734,0.422,-0.34,0.41
3142597,9706.0,3946.0,6387.0,0.721,0.436,-0.354,0.406
3142613,9880.0,4098.0,5683.0,0.707,0.451,-0.37,0.4
3142629,10626.0,3322.0,4951.0,0.693,0.464,-0.384,0.396
3142645,10584.0,4008.0,4829.0,0.678,0.478,-0.397,0.393
3142662,10514.0,4516.0,5407.0,0.664,0.489,-0.41,0.39
