timeMs,ax,ay,az,q0,q1,q2,q3
2290895,-7488.0,-1029.0,-2281.0,0.6,-0.145,0.784,0.07
2290913,-7188.0,-153.0,-2141.0,0.594,-0.144,0.789,0.067
2290931,-7826.0,-267.0,-2423.0,0.588,-0.144,0.793,0.065
2290951,-8342.0,-1845.0,-1887.0,0.583,-0.143,0.797,0.064
2290971,-7448.0,-1179.0,-2701.0,0.58,-0.143,0.8,0.06
2290980,-7846.0,131.0,-2687.0,0.575,-0.144,0.803,0.058
2290998,-7724.0,-575.0,-2907.0,0.57,-0.145,0.807,0.058
2291017,-9090.0,-409.0,-2635.0,0.566,-0.146,0.81,0.058
2291036,-8462.0,-753.0,-2959.0,0.562,-0.147,0.812,0.058
2291055,-8744.0,-1011.0,-2879.0,0.559,-0.148,0.813,0.058
2291073,-8552.0,-229.0,-3023.0,0.558,-0.149,0.814,0.059
2291092,-8232.0,-151.0,-3249.0,0.556,-0.149,0.815,0.061
2291110,-8032.0,49.0,-3635.0,0.553,-0.151,0.817,0.064
2291127,-8918.0,-563.0,-3515.0,0.551,-0.153,0.817,0.069
2291145,-8764.0,153.0,-3841.0,0.549,-0.156,0.818,0.074
2291163,-9214.0,-615.0,-3863.0,0.549,-0.158,0.817,0.08
2291172,-9276.0,-9.0,-3597.0,0.549,-0.16,0.816,0.086
2291191,-8872.0,-113.0,-4069.0,0.549,-0.163,0.814,0.093
2291210,-9258.0,215.0,-3973.0,0.549,-0.166,0.813,0.1
2291228,-9402.0,-181.0,-3767.0,0.549,-0.17,0.811,0.108
2291246,-9242.0,-283.0,-3821.0,0.55,-0.173,0.808,0.116
2291265,-8644.0,451.0,-4177.0,0.551,-0.177,0.806,0.123
2291283,-9236.0,509.0,-4011.0,0.55,-0.181,0.804,0.132
2291302,-9368.0,223.0,-3991.0,0.549,-0.185,0.803,0.14
2291321,-9448.0,-455.0,-4151.0,0.548,-0.189,0.801,0.148
2291331,-9218.0,383.0,-4153.0,0.547,-0.193,0.799,0.156
2291350,-9376.0,361.0,-4037.0,0.546,-0.197,0.798,0.163
2291369,-9610.0,165.0,-3879.0,0.544,-0.201,0.797,0.17
2291388,-9310.0,67.0,-4021.0,0.542,-0.203,0.796,0.176
2291407,-8992.0,447.0,-4143.0,0.541,-0.206,0.795,0.181
2291426,-8794.0,633.0,-4125.0,0.538,-0.208,0.795,0.185
2291435,-9268.0,681.0,-3807.0,0.535,-0.211,0.796,0.19
2291454,-9638.0,183.0,-3415.0,0.534,-0.212,0.796,0.193
2291472,-9176.0,393.0,-3403.0,0.533,-0.212,0.796,0.194
2291490,-8618.0,599.0,-3743.0,0.533,-0.211,0.796,0.195
2291510,-8432.0,1043.0,-3801.0,0.532,-0.21,0.797,0.195
2291528,-8654.0,915.0,-3755.0,0.531,-0.208,0.798,0.195
2291545,-9138.0,599.0,-3635.0,0.531,-0.206,0.799,0.194
2291563,-9174.0,543.0,-3775.0,0.532,-0.204,0.799,0.192
2291581,-9488.0,597.0,-3707.0,0.533,-0.2,0.8,0.19
2291600,-9260.0,317.0,-3921.0,0.535,-0.196,0.8,0.187
2291607,-9168.0,807.0,-4163.0,0.536,-0.193,0.801,0.184
2291625,-9738.0,335.0,-4017.0,0.538,-0.189,0.801,0.18
2291643,-9676.0,289.0,-4027.0,0.54,-0.185,0.802,0.177
2291662,-9318.0,969.0,-4219.0,0.541,-0.182,0.802,0.174
2291680,-9154.0,303.0,-4297.0,0.542,-0.179,0.803,0.171
2291699,-9406.0,401.0,-3945.0,0.542,-0.176,0.804,0.169
2291717,-9144.0,893.0,-3895.0,0.542,-0.174,0.805,0.167
2291736,-9192.0,341.0,-3587.0,0.541,-0.172,0.806,0.166
2291755,-8858.0,837.0,-3513.0,0.541,-0.17,0.807,0.165
2291774,-8824.0,1131.0,-3273.0,0.539,-0.169,0.808,0.166
2291791,-9284.0,857.0,-2999.0,0.538,-0.167,0.809,0.167
2291811,-9124.0,1119.0,-3097.0,0.537,-0.165,0.81,0.168
2291820,-9038.0,635.0,-3067.0,0.537,-0.163,0.81,0.169
2291837,-8730.0,901.0,-3145.0,0.537,-0.16,0.811,0.169
2291856,-8740.0,1647.0,-3085.0,0.537,-0.158,0.811,0.17
2291875,-8540.0,1337.0,-2911.0,0.537,-0.155,0.811,0.172
2291893,-8298.0,971.0,-2797.0,0.538,-0.152,0.811,0.174
2291911,-7604.0,557.0,-3161.0,0.539,-0.15,0.81,0.175
2291929,-7592.0,1419.0,-3313.0,0.54,-0.148,0.809,0.177
2291947,-8284.0,1411.0,-2703.0,0.54,-0.147,0.809,0.18
2291966,-8252.0,1021.0,-2521.0,0.541,-0.145,0.808,0.183
2291985,-7890.0,243.0,-2585.0,0.544,-0.144,0.806,0.184
2291993,-7618.0,191.0,-2513.0,0.547,-0.142,0.804,0.183
2292011,-7592.0,455.0,-2161.0,0.552,-0.141,0.802,0.182
2292029,-7648.0,915.0,-1609.0,0.557,-0.14,0.799,0.179
2292048,-7328.0,1955.0,-2265.0,0.563,-0.138,0.796,0.178
2292067,-6756.0,767.0,-1805.0,0.568,-0.137,0.792,0.176
2292087,-6554.0,-185.0,-1913.0,0.574,-0.136,0.789,0.173
2292107,-6484.0,1695.0,-1917.0,0.581,-0.135,0.785,0.17
2292116,-6430.0,2745.0,-1505.0,0.586,-0.135,0.781,0.168
2292134,-6612.0,1375.0,-1429.0,0.591,-0.136,0.777,0.169
2292154,-6682.0,901.0,-1795.0,0.597,-0.136,0.773,0.168
2292172,-6546.0,1323.0,-1219.0,0.603,-0.136,0.768,0.168
2292191,-6230.0,673.0,-1367.0,0.61,-0.136,0.762,0.169
2292210,-6796.0,777.0,-865.0,0.617,-0.135,0.757,0.169
2292228,-5720.0,1827.0,-927.0,0.624,-0.136,0.751,0.169
2292246,-5634.0,1693.0,-657.0,0.629,-0.137,0.745,0.172
2292264,-6066.0,-249.0,-933.0,0.634,-0.138,0.741,0.175
2292273,-5934.0,355.0,-617.0,0.638,-0.138,0.736,0.177
2292291,-6806.0,271.0,-93.0,0.643,-0.138,0.732,0.179
2292309,-6966.0,-889.0,-643.0,0.648,-0.138,0.727,0.181
2292327,-6356.0,1331.0,-443.0,0.652,-0.137,0.723,0.182
2292344,-6292.0,549.0,-643.0,0.655,-0.136,0.72,0.185
2292362,-6362.0,167.0,-347.0,0.657,-0.136,0.717,0.188
2292379,-6460.0,-799.0,-607.0,0.66,-0.135,0.714,0.191
2292397,-6370.0,-569.0,-467.0,0.662,-0.134,0.712,0.192
2292415,-6032.0,-367.0,-857.0,0.665,-0.133,0.71,0.192
2292433,-5874.0,477.0,-675.0,0.666,-0.134,0.709,0.192
2292451,-6196.0,-209.0,-393.0,0.666,-0.134,0.708,0.192
2292470,-6422.0,-463.0,-683.0,0.666,-0.135,0.708,0.191
2292488,-6642.0,-203.0,-599.0,0.666,-0.136,0.708,0.188
2292507,-6570.0,-469.0,-695.0,0.666,-0.137,0.709,0.185
2292524,-6520.0,-149.0,-263.0,0.666,-0.139,0.71,0.182
2292544,-6240.0,-65.0,-251.0,0.666,-0.14,0.711,0.177
2292553,-6098.0,417.0,-57.0,0.665,-0.142,0.713,0.172
2292570,-6080.0,707.0,261.0,0.664,-0.144,0.714,0.169
2292589,-5716.0,-171.0,-349.0,0.662,-0.145,0.717,0.165
2292608,-5504.0,-31.0,-575.0,0.659,-0.148,0.72,0.162
2292627,-6366.0,289.0,467.0,0.656,-0.151,0.723,0.157
2292644,-6610.0,-151.0,733.0,0.653,-0.153,0.726,0.152
2292661,-6708.0,-639.0,415.0,0.652,-0.154,0.728,0.146
2292679,-6046.0,-775.0,149.0,0.651,-0.153,0.73,0.14
2292697,-5748.0,-1251.0,-435.0,0.649,-0.153,0.733,0.131
2292715,-6240.0,-79.0,-57.0,0.647,-0.153,0.737,0.123
2292733,-7542.0,-25.0,141.0,0.645,-0.153,0.74,0.117
2292752,-8190.0,-1741.0,-279.0,0.644,-0.153,0.742,0.111
2292771,-7512.0,-1349.0,-795.0,0.643,-0.15,0.744,0.103
2292781,-7084.0,-1437.0,-1219.0,0.644,-0.147,0.745,0.094
2292799,-6994.0,-1389.0,-1729.0,0.644,-0.144,0.746,0.086
2292818,-6678.0,-395.0,-1191.0,0.643,-0.143,0.748,0.078
2292838,-7954.0,-1329.0,-955.0,0.642,-0.142,0.75,0.072
2292857,-6956.0,-1459.0,-1833.0,0.641,-0.14,0.752,0.066
2292875,-6538.0,-845.0,-1717.0,0.638,-0.141,0.754,0.06
2292893,-7778.0,-1101.0,-1619.0,0.635,-0.142,0.757,0.055
2292902,-8032.0,-1219.0,-1301.0,0.631,-0.143,0.76,0.051
2292920,-7814.0,-707.0,-1511.0,0.627,-0.145,0.764,0.047
2292939,-7992.0,-1293.0,-1723.0,0.623,-0.147,0.767,0.044
2292958,-7660.0,-1049.0,-2257.0,0.618,-0.149,0.771,0.042
2292977,-8508.0,-669.0,-2001.0,0.612,-0.152,0.775,0.04
2292994,-8766.0,-1053.0,-1643.0,0.607,-0.155,0.779,0.039
2293012,-8714.0,-297.0,-1785.0,0.602,-0.157,0.782,0.039
2293030,-8282.0,-919.0,-2559.0,0.597,-0.159,0.786,0.04
2293048,-7898.0,-385.0,-2965.0,0.59,-0.162,0.79,0.041
2293067,-9192.0,-869.0,-2543.0,0.584,-0.166,0.794,0.042
2293087,-9306.0,-1247.0,-2541.0,0.578,-0.169,0.797,0.044
2293098,-9528.0,-993.0,-2669.0,0.574,-0.171,0.799,0.045
2293116,-8968.0,-951.0,-3165.0,0.571,-0.173,0.801,0.047
2293135,-8450.0,-1401.0,-3675.0,0.568,-0.175,0.803,0.049
2293155,-8684.0,-609.0,-3617.0,0.563,-0.178,0.805,0.052
2293164,-8878.0,-523.0,-3555.0,0.558,-0.181,0.808,0.055
2293183,-9346.0,-1293.0,-3641.0,0.554,-0.184,0.81,0.058
2293203,-8920.0,-1039.0,-4191.0,0.55,-0.187,0.812,0.061
2293222,-8870.0,-1455.0,-4901.0,0.545,-0.19,0.814,0.064
2293241,-9156.0,-825.0,-5035.0,0.538,-0.195,0.817,0.067
2293260,-9494.0,-1673.0,-5047.0,0.532,-0.199,0.82,0.071
2293268,-9530.0,-1217.0,-4945.0,0.526,-0.203,0.822,0.075
2293286,-9476.0,-1327.0,-5023.0,0.52,-0.207,0.825,0.078
2293304,-9480.0,-1373.0,-4913.0,0.515,-0.211,0.827,0.081
2293322,-9150.0,-1405.0,-4987.0,0.511,-0.214,0.828,0.084
2293341,-9074.0,-1035.0,-4925.0,0.507,-0.217,0.83,0.085
2293360,-8368.0,-793.0,-5201.0,0.504,-0.219,0.831,0.086
2293378,-8176.0,-735.0,-5463.0,0.5,-0.221,0.833,0.088
2293396,-8244.0,-287.0,-5355.0,0.496,-0.222,0.834,0.09
2293414,-9074.0,-1529.0,-5071.0,0.493,-0.223,0.836,0.092
2293433,-8318.0,-1041.0,-5701.0,0.492,-0.222,0.837,0.093
2293453,-7874.0,-757.0,-6223.0,0.489,-0.221,0.838,0.094
2293463,-8546.0,-953.0,-6159.0,0.487,-0.22,0.84,0.096
2293481,-9288.0,-1351.0,-5977.0,0.486,-0.219,0.841,0.098
2293500,-9408.0,-1635.0,-5919.0,0.486,-0.215,0.841,0.098
2293519,-8724.0,-1093.0,-6233.0,0.488,-0.211,0.841,0.098
2293538,-8882.0,-1223.0,-6279.0,0.491,-0.206,0.841,0.098
2293557,-8682.0,-735.0,-6455.0,0.493,-0.201,0.841,0.097
2293567,-9204.0,-709.0,-6051.0,0.495,-0.197,0.84,0.098
2293585,-9864.0,-1239.0,-5561.0,0.499,-0.192,0.839,0.098
2293604,-9618.0,-829.0,-5683.0,0.504,-0.186,0.838,0.097
2293623,-9370.0,-397.0,-5719.0,0.508,-0.181,0.837,0.096
2293642,-9514.0,-1147.0,-5667.0,0.513,-0.176,0.835,0.096
2293660,-8736.0,369.0,-5827.0,0.517,-0.17,0.833,0.096
2293679,-8516.0,427.0,-5603.0,0.519,-0.166,0.832,0.098
2293697,-9160.0,-65.0,-4855.0,0.521,-0.163,0.832,0.101
2293706,-8692.0,-7.0,-4729.0,0.523,-0.159,0.831,0.105
2293725,-8416.0,47.0,-4499.0,0.526,-0.155,0.829,0.109
2293743,-8354.0,159.0,-3827.0,0.529,-0.152,0.827,0.114
2293761,-8390.0,585.0,-3197.0,0.533,-0.149,0.825,0.119
2293779,-8960.0,171.0,-1817.0,0.538,-0.144,0.821,0.124
2293798,-7398.0,161.0,-2257.0,0.545,-0.138,0.817,0.126
2293817,-6576.0,187.0,-2845.0,0.553,-0.133,0.813,0.128
2293837,-6202.0,1647.0,-3109.0,0.558,-0.129,0.809,0.13
2293846,-8358.0,1393.0,-1493.0,0.564,-0.126,0.805,0.135
2293864,-8366.0,591.0,-1363.0,0.571,-0.121,0.8,0.138
2293882,-6780.0,903.0,-2555.0,0.579,-0.114,0.795,0.139
2293900,-6356.0,513.0,-2383.0,0.586,-0.109,0.79,0.142
2293919,-6644.0,1423.0,-1673.0,0.592,-0.106,0.785,0.145
2293938,-7260.0,1079.0,-1401.0,0.598,-0.102,0.781,0.15
2293955,-7746.0,433.0,-653.0,0.605,-0.097,0.775,0.154
2293973,-6858.0,25.0,-1565.0,0.614,-0.091,0.769,0.156
2293992,-6100.0,791.0,-849.0,0.622,-0.085,0.762,0.159
2294011,-6108.0,1709.0,-747.0,0.63,-0.078,0.756,0.162
2294030,-5532.0,3077.0,-929.0,0.637,-0.073,0.749,0.167
2294039,-5240.0,1741.0,-369.0,0.643,-0.068,0.743,0.175
2294057,-5604.0,487.0,145.0,0.65,-0.064,0.735,0.183
2294076,-4752.0,1221.0,39.0,0.658,-0.059,0.727,0.189
2294094,-4338.0,2007.0,103.0,0.666,-0.054,0.718,0.195
2294112,-3922.0,889.0,-257.0,0.673,-0.05,0.71,0.202
2294129,-3774.0,899.0,47.0,0.678,-0.048,0.703,0.208
2294147,-3948.0,895.0,91.0,0.682,-0.047,0.698,0.214
2294165,-4202.0,765.0,315.0,0.685,-0.045,0.694,0.217
2294183,-4846.0,877.0,389.0,0.686,-0.044,0.692,0.22
2294203,-5142.0,679.0,507.0,0.688,-0.044,0.69,0.222
2294222,-5592.0,-275.0,37.0,0.688,-0.046,0.689,0.221
2294231,-5686.0,977.0,283.0,0.688,-0.047,0.69,0.219
2294249,-6324.0,993.0,309.0,0.688,-0.05,0.691,0.217
2294268,-6698.0,847.0,575.0,0.687,-0.053,0.693,0.214
2294287,-6534.0,765.0,555.0,0.686,-0.056,0.695,0.211
2294305,-6176.0,-209.0,145.0,0.684,-0.06,0.697,0.207
2294324,-6672.0,261.0,269.0,0.681,-0.063,0.701,0.202
2294342,-6502.0,1059.0,671.0,0.679,-0.067,0.704,0.197
2294360,-6784.0,455.0,769.0,0.676,-0.071,0.708,0.191
2294378,-6590.0,587.0,723.0,0.673,-0.075,0.712,0.184
2294396,-5902.0,205.0,229.0,0.669,-0.079,0.717,0.178
2294404,-6684.0,1349.0,949.0,0.665,-0.085,0.723,0.171
2294422,-6778.0,-211.0,1215.0,0.66,-0.089,0.727,0.164
2294439,-6806.0,719.0,1065.0,0.658,-0.092,0.732,0.154
2294456,-6382.0,1209.0,327.0,0.654,-0.096,0.736,0.147
2294473,-6688.0,-443.0,-451.0,0.649,-0.101,0.741,0.139
2294491,-8130.0,473.0,825.0,0.646,-0.105,0.744,0.131
2294511,-7644.0,-151.0,233.0,0.645,-0.106,0.747,0.121
2294529,-6718.0,59.0,-1131.0,0.644,-0.108,0.749,0.111
2294546,-6994.0,-569.0,-1871.0,0.642,-0.11,0.752,0.103
2294563,-7874.0,661.0,-957.0,0.639,-0.114,0.755,0.096
2294581,-8374.0,-1305.0,-147.0,0.637,-0.116,0.757,0.09
2294601,-6864.0,-1155.0,-367.0,0.637,-0.117,0.757,0.081
2294621,-5832.0,201.0,-1271.0,0.638,-0.117,0.758,0.072
2294640,-4700.0,1005.0,-1935.0,0.635,-0.12,0.76,0.065
2294659,-5848.0,-635.0,-2167.0,0.63,-0.126,0.764,0.063
2294668,-7240.0,-991.0,-1081.0,0.624,-0.131,0.768,0.06
2294687,-7808.0,-629.0,-1443.0,0.619,-0.135,0.772,0.057
2294706,-7440.0,-703.0,-2005.0,0.613,-0.138,0.776,0.054
2294725,-7014.0,311.0,-3007.0,0.606,-0.142,0.781,0.053
2294743,-7900.0,-1723.0,-2709.0,0.597,-0.148,0.787,0.054
2294762,-8670.0,-797.0,-2531.0,0.588,-0.154,0.792,0.055
2294780,-9724.0,-915.0,-2161.0,0.58,-0.159,0.797,0.056
2294799,-9784.0,-979.0,-2249.0,0.572,-0.163,0.802,0.057
2294809,-9162.0,-1127.0,-2525.0,0.565,-0.166,0.806,0.057
2294827,-8480.0,-825.0,-3483.0,0.558,-0.169,0.811,0.057
2294846,-8284.0,385.0,-4041.0,0.548,-0.174,0.816,0.058
2294864,-10740.0,-535.0,-3493.0,0.537,-0.18,0.822,0.061
2294883,-11484.0,-1751.0,-3383.0,0.529,-0.184,0.826,0.063
2294902,-9624.0,-1873.0,-4421.0,0.524,-0.186,0.829,0.062
2294922,-8608.0,-575.0,-5097.0,0.518,-0.189,0.832,0.062
2294932,-8518.0,-1073.0,-5529.0,0.511,-0.193,0.835,0.063
2294950,-8414.0,-649.0,-5633.0,0.502,-0.199,0.839,0.066
2294968,-9436.0,-1275.0,-5461.0,0.494,-0.204,0.842,0.069
2294988,-9466.0,-1701.0,-5699.0,0.488,-0.209,0.844,0.071
2295007,-8598.0,-1961.0,-6173.0,0.483,-0.212,0.846,0.072
2295031,-7810.0,-497.0,-6707.0,0.478,-0.216,0.848,0.073
2295040,-7770.0,-1229.0,-6899.0,0.471,-0.22,0.851,0.076
2295058,-7978.0,-907.0,-6873.0,0.463,-0.225,0.854,0.079
2295076,-8734.0,-1481.0,-6471.0,0.455,-0.229,0.857,0.082
2295096,-8340.0,-1563.0,-6655.0,0.45,-0.231,0.858,0.084
2295105,-8142.0,-937.0,-6573.0,0.445,-0.233,0.86,0.086
2295124,-7922.0,-1219.0,-6813.0,0.442,-0.233,0.862,0.087
2295142,-7908.0,-1037.0,-6751.0,0.439,-0.234,0.863,0.088
2295160,-8736.0,-2219.0,-6327.0,0.439,-0.233,0.864,0.088
2295177,-8592.0,-1689.0,-6451.0,0.442,-0.229,0.863,0.085
2295194,-7626.0,-499.0,-7359.0,0.447,-0.225,0.862,0.082
2295212,-7676.0,-469.0,-7443.0,0.451,-0.22,0.861,0.08
2295230,-8548.0,-2133.0,-6875.0,0.456,-0.215,0.86,0.078
2295248,-8104.0,-825.0,-6693.0,0.463,-0.209,0.858,0.075
2295266,-8188.0,-1049.0,-6339.0,0.47,-0.202,0.856,0.072
2295285,-8276.0,-879.0,-6057.0,0.478,-0.195,0.854,0.07
2295304,-7938.0,-887.0,-6041.0,0.486,-0.187,0.851,0.067
2295322,-7772.0,-685.0,-6041.0,0.493,-0.18,0.849,0.065
2295340,-8492.0,83.0,-5583.0,0.498,-0.174,0.847,0.064
2295348,-8886.0,-521.0,-5211.0,0.503,-0.167,0.845,0.064
2295367,-9012.0,-985.0,-5289.0,0.509,-0.16,0.844,0.064
2295387,-7990.0,-25.0,-5711.0,0.513,-0.154,0.842,0.064
2295406,-8262.0,467.0,-5699.0,0.515,-0.15,0.841,0.067
2295424,-8992.0,353.0,-5009.0,0.516,-0.147,0.841,0.071
2295442,-10642.0,-1495.0,-4113.0,0.519,-0.143,0.839,0.075
2295460,-9292.0,-517.0,-4721.0,0.525,-0.137,0.837,0.077
2295477,-8810.0,-369.0,-4771.0,0.531,-0.132,0.833,0.079
2295495,-7954.0,-149.0,-5049.0,0.538,-0.128,0.829,0.081
2295513,-8060.0,1455.0,-4423.0,0.543,-0.126,0.826,0.086
2295532,-8736.0,867.0,-3405.0,0.548,-0.125,0.822,0.092
2295541,-8564.0,-635.0,-2655.0,0.554,-0.122,0.817,0.099
2295558,-6020.0,201.0,-4217.0,0.561,-0.121,0.812,0.104
2295576,-7300.0,1513.0,-2871.0,0.565,-0.122,0.808,0.111
2295594,-7996.0,233.0,-1903.0,0.57,-0.122,0.804,0.119
2295612,-7738.0,827.0,-1785.0,0.576,-0.122,0.798,0.125
2295630,-6940.0,423.0,-2001.0,0.583,-0.122,0.793,0.132
2295648,-6856.0,-75.0,-1225.0,0.589,-0.123,0.787,0.137
2295666,-6260.0,1691.0,-1281.0,0.597,-0.122,0.78,0.142
2295684,-6078.0,1491.0,-661.0,0.603,-0.123,0.774,0.15
2295703,-5934.0,-1197.0,-731.0,0.61,-0.123,0.767,0.156
2295722,-5112.0,1597.0,-701.0,0.618,-0.122,0.76,0.159
2295740,-5192.0,1619.0,-485.0,0.625,-0.123,0.753,0.165
2295758,-5714.0,1143.0,341.0,0.632,-0.123,0.746,0.172
2295775,-5336.0,585.0,239.0,0.64,-0.124,0.737,0.178
2295792,-4390.0,1101.0,585.0,0.648,-0.124,0.729,0.184
2295810,-3436.0,169.0,-1067.0,0.653,-0.125,0.722,0.19
2295828,-3902.0,9.0,-467.0,0.656,-0.125,0.718,0.196
2295846,-4092.0,581.0,467.0,0.656,-0.125,0.716,0.202
2295865,-5410.0,445.0,451.0,0.657,-0.125,0.714,0.207
2295873,-5804.0,-61.0,-297.0,0.658,-0.124,0.712,0.21
2295891,-6246.0,241.0,-423.0,0.66,-0.124,0.71,0.213
2295910,-6594.0,-391.0,-255.0,0.662,-0.124,0.707,0.215
2295928,-6358.0,913.0,-205.0,0.664,-0.125,0.705,0.216
2295946,-6438.0,63.0,-567.0,0.667,-0.127,0.702,0.216
2295963,-6372.0,-643.0,-1043.0,0.668,-0.128,0.7,0.216
2295980,-6758.0,161.0,-449.0,0.67,-0.13,0.699,0.215
2295998,-6918.0,33.0,-363.0,0.672,-0.133,0.697,0.213
2296018,-6702.0,87.0,-273.0,0.673,-0.135,0.696,0.21
2296038,-6472.0,583.0,-249.0,0.675,-0.137,0.695,0.207
2296057,-5910.0,-25.0,-305.0,0.675,-0.141,0.695,0.204
2296067,-5924.0,-605.0,-141.0,0.675,-0.145,0.696,0.2
2296086,-5872.0,963.0,233.0,0.674,-0.149,0.697,0.195
2296106,-6232.0,71.0,497.0,0.672,-0.153,0.699,0.191
2296125,-6296.0,-349.0,463.0,0.671,-0.157,0.701,0.186
2296144,-6392.0,-105.0,931.0,0.67,-0.16,0.702,0.18
2296152,-5092.0,-483.0,-59.0,0.67,-0.162,0.704,0.172
2296171,-5434.0,267.0,743.0,0.668,-0.165,0.707,0.164
2296189,-5408.0,1.0,-121.0,0.667,-0.167,0.709,0.155
2296208,-6308.0,-157.0,483.0,0.664,-0.17,0.713,0.148
2296228,-7300.0,-173.0,1045.0,0.663,-0.172,0.715,0.14
2296246,-6030.0,-1413.0,273.0,0.663,-0.171,0.717,0.131
2296264,-4830.0,-1033.0,-365.0,0.663,-0.17,0.719,0.12
2296283,-5082.0,-139.0,-1191.0,0.661,-0.172,0.722,0.11
2296303,-7316.0,1479.0,99.0,0.658,-0.175,0.726,0.103
2296312,-8614.0,-1377.0,635.0,0.655,-0.176,0.728,0.097
2296330,-7630.0,-1681.0,-161.0,0.656,-0.175,0.729,0.088
2296349,-5380.0,-2115.0,-1401.0,0.657,-0.174,0.729,0.078
2296368,-5526.0,935.0,-1689.0,0.655,-0.176,0.732,0.068
2296387,-7846.0,647.0,-581.0,0.65,-0.181,0.736,0.064
2296405,-8196.0,-2317.0,-729.0,0.645,-0.185,0.739,0.059
2296422,-8618.0,-1387.0,-497.0,0.642,-0.188,0.742,0.054
2296439,-6528.0,-1633.0,-2083.0,0.639,-0.191,0.744,0.048
2296457,-7678.0,-131.0,-1701.0,0.633,-0.196,0.748,0.044
2296474,-8560.0,-1019.0,-1941.0,0.625,-0.202,0.753,0.043
2296493,-10270.0,-2197.0,-1499.0,0.617,-0.209,0.757,0.042
2296510,-11416.0,-3371.0,-1225.0,0.614,-0.213,0.759,0.039
2296528,-9816.0,-2153.0,-2277.0,0.612,-0.216,0.76,0.034
2296537,-8816.0,-1729.0,-3415.0,0.61,-0.219,0.761,0.03
2296556,-9164.0,-1369.0,-2895.0,0.605,-0.224,0.763,0.028
2296574,-10700.0,-2925.0,-2425.0,0.602,-0.229,0.765,0.026
2296593,-11522.0,-2941.0,-2335.0,0.601,-0.233,0.764,0.023
2296611,-10880.0,-4061.0,-2657.0,0.603,-0.233,0.762,0.019
2296629,-10156.0,-3431.0,-3327.0,0.607,-0.232,0.76,0.014
2296646,-8432.0,-3029.0,-4125.0,0.61,-0.232,0.757,0.009
2296664,-9368.0,-3229.0,-3859.0,0.612,-0.232,0.756,0.007
2296683,-10242.0,-3921.0,-3315.0,0.614,-0.232,0.755,0.004
2296702,-10442.0,-4521.0,-3059.0,0.618,-0.229,0.752,0.0
2296722,-9960.0,-4533.0,-3187.0,0.623,-0.226,0.749,-0.003
2296732,-8108.0,-3745.0,-4423.0,0.628,-0.222,0.746,-0.007
2296751,-8516.0,-3585.0,-3775.0,0.629,-0.22,0.745,-0.009
2296770,-9808.0,-3811.0,-2757.0,0.63,-0.218,0.745,-0.01
2296789,-10206.0,-4023.0,-2109.0,0.632,-0.215,0.745,-0.011
2296808,-9752.0,-3509.0,-2029.0,0.634,-0.211,0.744,-0.013
2296818,-9600.0,-3163.0,-2063.0,0.636,-0.206,0.744,-0.014
2296838,-8788.0,-1759.0,-2615.0,0.636,-0.202,0.745,-0.015
2296858,-10054.0,-2757.0,-1983.0,0.635,-0.199,0.746,-0.013
2296877,-10186.0,-2767.0,-1883.0,0.634,-0.196,0.748,-0.012
2296895,-10060.0,-2503.0,-2057.0,0.634,-0.193,0.749,-0.011
2296904,-9952.0,-3161.0,-2425.0,0.634,-0.19,0.75,-0.008
2296922,-9140.0,-2689.0,-3533.0,0.632,-0.188,0.752,-0.006
2296940,-10314.0,-2397.0,-3357.0,0.628,-0.188,0.755,-0.001
2296958,-11566.0,-3951.0,-3183.0,0.624,-0.188,0.759,0.004
2296976,-10520.0,-3311.0,-3765.0,0.62,-0.186,0.762,0.008
2296993,-10242.0,-2717.0,-4015.0,0.615,-0.185,0.766,0.014
2297012,-10200.0,-3055.0,-3823.0,0.61,-0.184,0.771,0.021
2297030,-10350.0,-2901.0,-3377.0,0.604,-0.184,0.775,0.027
2297048,-11080.0,-2835.0,-2417.0,0.6,-0.183,0.778,0.033
2297067,-10110.0,-2345.0,-2687.0,0.597,-0.179,0.781,0.037
2297087,-9292.0,-2385.0,-2719.0,0.596,-0.176,0.782,0.041
2297106,-8624.0,-1799.0,-3103.0,0.595,-0.172,0.784,0.045
2297115,-9068.0,-1355.0,-2595.0,0.594,-0.169,0.785,0.05
2297133,-8652.0,-1001.0,-2703.0,0.593,-0.165,0.786,0.056
2297152,-10096.0,-1087.0,-2021.0,0.594,-0.161,0.786,0.062
2297170,-8728.0,-1297.0,-2737.0,0.595,-0.156,0.786,0.067
2297189,-8242.0,-509.0,-2705.0,0.596,-0.151,0.785,0.074
2297208,-8184.0,-483.0,-2423.0,0.596,-0.146,0.785,0.081
2297226,-8088.0,-235.0,-2189.0,0.595,-0.142,0.786,0.089
2297244,-8874.0,413.0,-1241.0,0.596,-0.138,0.785,0.098
2297262,-7658.0,-237.0,-1423.0,0.598,-0.132,0.784,0.106
2297270,-6808.0,-357.0,-1565.0,0.6,-0.126,0.782,0.112
2297289,-5994.0,963.0,-1793.0,0.603,-0.122,0.78,0.118
2297307,-6440.0,1699.0,-1165.0,0.604,-0.119,0.778,0.126
2297325,-6446.0,141.0,-1101.0,0.606,-0.116,0.775,0.134
2297342,-6804.0,871.0,-721.0,0.609,-0.113,0.772,0.141
2297361,-6252.0,605.0,-1469.0,0.613,-0.109,0.769,0.147
2297379,-6582.0,371.0,-1177.0,0.617,-0.107,0.765,0.153
2297398,-6858.0,1235.0,-1225.0,0.621,-0.105,0.76,0.159
2297417,-7668.0,721.0,-471.0,0.626,-0.102,0.755,0.165
2297437,-6172.0,171.0,-853.0,0.633,-0.098,0.749,0.17
2297446,-5108.0,2561.0,-721.0,0.639,-0.094,0.743,0.175
2297464,-4756.0,2449.0,-369.0,0.642,-0.092,0.738,0.184
2297482,-5598.0,-545.0,171.0,0.645,-0.09,0.734,0.193
2297500,-5282.0,-69.0,75.0,0.649,-0.087,0.729,0.2
2297519,-5342.0,67.0,-433.0,0.654,-0.084,0.724,0.204
2297537,-4478.0,2107.0,-235.0,0.657,-0.08,0.72,0.208
2297556,-4692.0,2227.0,151.0,0.66,-0.078,0.716,0.213
2297574,-5150.0,1769.0,173.0,0.662,-0.077,0.713,0.218
2297591,-5292.0,759.0,-169.0,0.664,-0.078,0.71,0.223
2297609,-5362.0,679.0,-115.0,0.666,-0.08,0.706,0.225
2297627,-5128.0,857.0,-281.0,0.669,-0.081,0.704,0.225
2297645,-5150.0,1511.0,-377.0,0.67,-0.084,0.703,0.225
2297663,-5976.0,775.0,-273.0,0.67,-0.089,0.703,0.224
2297682,-6550.0,1183.0,-101.0,0.669,-0.093,0.703,0.222
2297690,-7118.0,733.0,-245.0,0.669,-0.097,0.703,0.219
2297709,-7326.0,983.0,-155.0,0.669,-0.101,0.704,0.216
2297728,-6984.0,603.0,-189.0,0.669,-0.105,0.704,0.212
2297746,-6340.0,751.0,-153.0,0.669,-0.11,0.705,0.207
2297764,-5954.0,389.0,-431.0,0.668,-0.115,0.707,0.203
2297782,-6166.0,145.0,219.0,0.666,-0.119,0.71,0.197
2297800,-6062.0,705.0,247.0,0.664,-0.124,0.712,0.19
2297819,-6134.0,719.0,609.0,0.663,-0.129,0.715,0.183
2297838,-5898.0,373.0,1107.0,0.662,-0.133,0.716,0.176
2297856,-4706.0,-1797.0,-1059.0,0.661,-0.138,0.719,0.167
2297874,-6104.0,653.0,225.0,0.659,-0.144,0.721,0.157
2297882,-6512.0,-27.0,699.0,0.658,-0.147,0.724,0.147
2297900,-5774.0,-553.0,-883.0,0.657,-0.15,0.726,0.136
2297919,-6704.0,1047.0,-53.0,0.656,-0.155,0.728,0.126
2297937,-6508.0,-1055.0,-867.0,0.654,-0.159,0.731,0.116
2297955,-6856.0,-475.0,-587.0,0.653,-0.162,0.733,0.105
2297973,-6488.0,-455.0,-683.0,0.652,-0.165,0.734,0.094
2297992,-7224.0,-165.0,-755.0,0.651,-0.168,0.736,0.083
2298010,-6442.0,-1343.0,-1651.0,0.65,-0.171,0.737,0.073
2298028,-6218.0,-699.0,-1451.0,0.649,-0.175,0.738,0.063
2298046,-7100.0,-337.0,-597.0,0.647,-0.18,0.739,0.053
2298064,-7090.0,-1513.0,-983.0,0.644,-0.184,0.741,0.044
2298082,-7096.0,-705.0,-1841.0,0.642,-0.188,0.743,0.036
2298101,-7430.0,-1797.0,-1891.0,0.637,-0.194,0.746,0.03
2298111,-7504.0,-1929.0,-2153.0,0.632,-0.201,0.748,0.024
2298129,-8492.0,-1559.0,-1421.0,0.626,-0.207,0.751,0.019
2298147,-8018.0,-2385.0,-2231.0,0.621,-0.214,0.754,0.015
2298166,-8410.0,-2445.0,-3207.0,0.615,-0.22,0.757,0.012
2298185,-8162.0,-2149.0,-3263.0,0.607,-0.228,0.761,0.01
2298204,-8946.0,-2749.0,-3167.0,0.599,-0.236,0.765,0.01
2298223,-9652.0,-2883.0,-2711.0,0.592,-0.244,0.768,0.011
2298241,-9460.0,-3243.0,-2685.0,0.587,-0.251,0.769,0.01
2298249,-9566.0,-4131.0,-2607.0,0.586,-0.257,0.769,0.009
2298268,-7972.0,-3013.0,-3517.0,0.585,-0.262,0.768,0.007
2298288,-8330.0,-2593.0,-3257.0,0.583,-0.267,0.767,0.007
2298305,-8926.0,-2861.0,-2751.0,0.582,-0.272,0.767,0.006
2298322,-8958.0,-3157.0,-2571.0,0.582,-0.275,0.765,0.006
2298339,-8246.0,-2833.0,-3057.0,0.583,-0.278,0.763,0.006
2298356,-7806.0,-3411.0,-3277.0,0.584,-0.281,0.762,0.006
2298375,-7840.0,-3089.0,-3345.0,0.583,-0.284,0.761,0.007
2298393,-9100.0,-3301.0,-2767.0,0.582,-0.288,0.761,0.008
2298412,-9262.0,-4211.0,-2931.0,0.582,-0.29,0.76,0.009
2298430,-8472.0,-3497.0,-3575.0,0.582,-0.291,0.759,0.009
2298448,-8126.0,-3583.0,-3921.0,0.58,-0.293,0.76,0.01
2298466,-8646.0,-3613.0,-3669.0,0.577,-0.295,0.761,0.012
2298485,-9100.0,-4017.0,-3511.0,0.573,-0.298,0.763,0.014
2298505,-9302.0,-4029.0,-3593.0,0.57,-0.3,0.765,0.016
2298514,-9296.0,-3737.0,-3697.0,0.567,-0.301,0.766,0.018
2298533,-9300.0,-4379.0,-3701.0,0.565,-0.301,0.768,0.019
2298552,-8578.0,-3911.0,-4529.0,0.564,-0.301,0.769,0.02
2298572,-8908.0,-3593.0,-4493.0,0.561,-0.301,0.771,0.021
2298590,-9170.0,-3909.0,-4543.0,0.559,-0.301,0.772,0.023
2298608,-9798.0,-4287.0,-4333.0,0.558,-0.3,0.773,0.024
2298616,-9098.0,-3855.0,-4675.0,0.558,-0.299,0.774,0.024
2298635,-8728.0,-3801.0,-4751.0,0.558,-0.297,0.775,0.025
2298655,-8792.0,-3101.0,-4389.0,0.557,-0.295,0.776,0.026
2298673,-8986.0,-3205.0,-4003.0,0.557,-0.292,0.777,0.027
2298692,-8630.0,-3423.0,-4057.0,0.558,-0.29,0.777,0.028
2298711,-8574.0,-2989.0,-3941.0,0.558,-0.287,0.778,0.03
2298729,-7982.0,-2547.0,-4159.0,0.558,-0.284,0.779,0.031
2298747,-8470.0,-2635.0,-3847.0,0.558,-0.283,0.78,0.034
2298766,-8390.0,-2623.0,-3961.0,0.557,-0.281,0.78,0.037
2298776,-8438.0,-2569.0,-3973.0,0.557,-0.279,0.781,0.041
2298793,-8214.0,-2493.0,-4383.0,0.556,-0.277,0.782,0.045
2298811,-8132.0,-2269.0,-4451.0,0.554,-0.276,0.783,0.05
2298829,-8214.0,-2379.0,-4347.0,0.552,-0.276,0.785,0.057
2298847,-8412.0,-2011.0,-4037.0,0.549,-0.276,0.786,0.063
2298865,-8806.0,-2009.0,-3485.0,0.547,-0.275,0.788,0.07
2298884,-8434.0,-1791.0,-3309.0,0.546,-0.273,0.788,0.077
2298903,-8024.0,-1627.0,-3325.0,0.545,-0.271,0.789,0.083
2298922,-7604.0,-701.0,-3309.0,0.544,-0.269,0.79,0.089
2298941,-7946.0,-1335.0,-2865.0,0.542,-0.267,0.791,0.096
2298950,-8030.0,-1067.0,-2593.0,0.541,-0.265,0.791,0.102
2298969,-8174.0,-1207.0,-2567.0,0.541,-0.262,0.792,0.108
2298988,-8222.0,-581.0,-2573.0,0.541,-0.258,0.792,0.113
2299007,-7582.0,-1325.0,-2965.0,0.541,-0.254,0.793,0.118
2299026,-7374.0,-509.0,-3547.0,0.54,-0.251,0.794,0.123
2299045,-8356.0,-511.0,-3365.0,0.538,-0.248,0.795,0.129
2299053,-9032.0,-693.0,-3271.0,0.536,-0.246,0.797,0.135
2299071,-9120.0,-1335.0,-3707.0,0.535,-0.243,0.797,0.14
2299090,-9140.0,-1171.0,-3777.0,0.535,-0.24,0.797,0.143
2299109,-9478.0,-1155.0,-3815.0,0.538,-0.238,0.796,0.146
2299129,-8820.0,67.0,-3945.0,0.539,-0.236,0.795,0.149
2299147,-9238.0,-57.0,-3301.0,0.541,-0.234,0.793,0.151
2299165,-8852.0,-231.0,-2799.0,0.545,-0.23,0.792,0.154
2299184,-7998.0,127.0,-2425.0,0.549,-0.226,0.789,0.156
2299203,-7204.0,-323.0,-2329.0,0.554,-0.221,0.787,0.158
2299212,-6328.0,1527.0,-2287.0,0.559,-0.215,0.784,0.161
2299229,-6756.0,471.0,-1781.0,0.562,-0.21,0.782,0.165
2299248,-6472.0,-249.0,-2211.0,0.566,-0.205,0.78,0.169
2299266,-7292.0,103.0,-1749.0,0.57,-0.198,0.778,0.173
2299285,-7084.0,993.0,-1613.0,0.574,-0.192,0.776,0.176
2299303,-6812.0,-393.0,-1981.0,0.579,-0.183,0.774,0.18
2299322,-6098.0,505.0,-2757.0,0.584,-0.176,0.771,0.183
2299341,-7382.0,461.0,-1767.0,0.587,-0.169,0.769,0.189
2299360,-6858.0,501.0,-2213.0,0.592,-0.161,0.766,0.194
2299377,-6890.0,573.0,-1181.0,0.597,-0.152,0.762,0.2
2299385,-5496.0,719.0,-1245.0,0.605,-0.143,0.756,0.206
2299403,-4586.0,579.0,-1355.0,0.611,-0.134,0.751,0.212
2299422,-4118.0,967.0,-931.0,0.617,-0.125,0.746,0.219
2299441,-4068.0,835.0,-957.0,0.621,-0.118,0.741,0.225
2299459,-4016.0,1339.0,-429.0,0.625,-0.112,0.737,0.232
2299476,-4412.0,87.0,-941.0,0.628,-0.108,0.733,0.237
2299493,-4786.0,727.0,-861.0,0.631,-0.104,0.731,0.241
2299511,-5024.0,1213.0,-877.0,0.633,-0.1,0.728,0.243
2299529,-5396.0,1051.0,-833.0,0.635,-0.097,0.727,0.244
2299548,-5502.0,1123.0,-1121.0,0.636,-0.095,0.726,0.245
2299567,-6076.0,1185.0,-1083.0,0.636,-0.093,0.726,0.245
2299586,-6672.0,703.0,-825.0,0.636,-0.092,0.726,0.244
2299605,-7150.0,811.0,-799.0,0.637,-0.09,0.726,0.241
2299614,-6956.0,1009.0,-751.0,0.639,-0.089,0.726,0.237
2299632,-6620.0,1339.0,-821.0,0.64,-0.088,0.727,0.233
2299650,-6700.0,1095.0,-607.0,0.641,-0.088,0.728,0.228
2299670,-6912.0,967.0,-699.0,0.641,-0.088,0.73,0.223
2299689,-7002.0,1045.0,-323.0,0.641,-0.088,0.731,0.217
2299707,-6608.0,371.0,-187.0,0.641,-0.089,0.733,0.211
2299724,-5598.0,131.0,-281.0,0.641,-0.089,0.734,0.203
2299743,-5274.0,689.0,-721.0,0.641,-0.091,0.737,0.194
2299761,-5540.0,1449.0,-697.0,0.64,-0.095,0.74,0.186
2299779,-6464.0,825.0,-233.0,0.637,-0.099,0.743,0.179
2299797,-6342.0,421.0,151.0,0.636,-0.104,0.745,0.171
2299805,-5890.0,353.0,-53.0,0.635,-0.107,0.748,0.162
2299823,-4962.0,381.0,-1423.0,0.634,-0.112,0.75,0.152
2299842,-4880.0,623.0,-1373.0,0.631,-0.12,0.753,0.143
2299861,-6738.0,703.0,-267.0,0.626,-0.129,0.757,0.135
2299878,-6644.0,145.0,-313.0,0.623,-0.137,0.76,0.127
2299896,-6228.0,463.0,-825.0,0.62,-0.145,0.762,0.117
2299915,-5572.0,317.0,-1657.0,0.616,-0.153,0.765,0.109
2299933,-6138.0,-299.0,-2157.0,0.61,-0.163,0.769,0.102
2299952,-7346.0,101.0,-1147.0,0.603,-0.174,0.772,0.096
2299971,-8056.0,-803.0,-1329.0,0.598,-0.183,0.775,0.09
2299980,-7958.0,-1283.0,-1033.0,0.595,-0.192,0.776,0.083
2299997,-5996.0,-1707.0,-3173.0,0.592,-0.198,0.778,0.074
2300015,-7232.0,-979.0,-2805.0,0.586,-0.207,0.781,0.067
2300036,-8098.0,-857.0,-2289.0,0.581,-0.213,0.783,0.062
2300054,-7942.0,-1537.0,-2529.0,0.575,-0.219,0.786,0.059
2300072,-7396.0,-1829.0,-3111.0,0.57,-0.225,0.788,0.056
2300091,-7584.0,-1867.0,-2827.0,0.564,-0.231,0.791,0.053
2300109,-7210.0,-915.0,-3349.0,0.557,-0.237,0.794,0.051
2300127,-8678.0,-2183.0,-2757.0,0.55,-0.242,0.798,0.05
2300145,-8624.0,-2197.0,-2793.0,0.545,-0.247,0.8,0.048
2300164,-7926.0,-1987.0,-3969.0,0.541,-0.251,0.802,0.045
2300173,-8696.0,-2273.0,-3989.0,0.536,-0.255,0.804,0.043
2300191,-8516.0,-2417.0,-4823.0,0.532,-0.258,0.805,0.04
2300210,-10376.0,-2555.0,-4189.0,0.531,-0.261,0.806,0.038
2300228,-9044.0,-3155.0,-5127.0,0.532,-0.263,0.804,0.035
2300246,-9118.0,-2817.0,-5149.0,0.533,-0.265,0.803,0.031
2300263,-8648.0,-2969.0,-5351.0,0.535,-0.267,0.801,0.027
2300280,-9172.0,-2979.0,-4847.0,0.538,-0.269,0.799,0.023
2300297,-9308.0,-2677.0,-4671.0,0.541,-0.27,0.796,0.02
2300314,-9662.0,-3525.0,-4453.0,0.546,-0.271,0.793,0.016
2300332,-9692.0,-3501.0,-4539.0,0.552,-0.271,0.789,0.011
2300350,-9274.0,-3669.0,-4845.0,0.557,-0.27,0.785,0.007
2300369,-9470.0,-3131.0,-4511.0,0.562,-0.269,0.782,0.003
2300387,-9544.0,-3787.0,-4379.0,0.565,-0.268,0.78,-0.0
2300406,-9298.0,-3227.0,-4191.0,0.568,-0.266,0.779,-0.003
2300425,-8824.0,-3885.0,-4265.0,0.571,-0.264,0.778,-0.006
2300443,-8606.0,-2939.0,-4119.0,0.571,-0.262,0.778,-0.007
2300452,-8886.0,-3461.0,-3681.0,0.57,-0.26,0.779,-0.008
2300470,-8636.0,-3349.0,-3791.0,0.569,-0.259,0.781,-0.009
2300491,-8838.0,-3291.0,-3689.0,0.566,-0.257,0.783,-0.009
2300509,-8546.0,-3253.0,-4029.0,0.564,-0.256,0.785,-0.009
2300529,-8232.0,-2807.0,-4301.0,0.56,-0.256,0.788,-0.008
2300547,-8468.0,-3057.0,-4541.0,0.555,-0.256,0.792,-0.007
2300566,-9402.0,-2877.0,-4297.0,0.548,-0.257,0.796,-0.004
2300575,-9678.0,-3975.0,-4529.0,0.543,-0.258,0.799,-0.003
2300593,-9070.0,-2713.0,-4949.0,0.538,-0.259,0.802,-0.002
2300612,-9638.0,-3283.0,-4953.0,0.533,-0.259,0.805,0.0
2300630,-9208.0,-2971.0,-5325.0,0.528,-0.26,0.808,0.003
2300648,-9896.0,-3221.0,-4731.0,0.525,-0.261,0.81,0.005
2300667,-9632.0,-3449.0,-4661.0,0.524,-0.259,0.812,0.006
2300686,-8932.0,-2703.0,-4735.0,0.524,-0.257,0.812,0.007
2300705,-8674.0,-3187.0,-4659.0,0.525,-0.254,0.812,0.008
2300715,-8482.0,-2657.0,-4595.0,0.527,-0.251,0.812,0.008
2300734,-8522.0,-2987.0,-4433.0,0.53,-0.247,0.811,0.009
2300753,-8754.0,-2357.0,-4091.0,0.533,-0.243,0.81,0.01
2300771,-8984.0,-3145.0,-3743.0,0.538,-0.237,0.809,0.01
2300791,-7994.0,-3123.0,-4345.0,0.545,-0.231,0.806,0.01
2300810,-7862.0,-1991.0,-4147.0,0.551,-0.225,0.804,0.01
2300818,-7986.0,-1921.0,-3923.0,0.555,-0.22,0.802,0.011
2300836,-8500.0,-2077.0,-3475.0,0.559,-0.215,0.801,0.013
2300855,-8758.0,-2259.0,-3253.0,0.564,-0.21,0.799,0.014
2300874,-7758.0,-2151.0,-3749.0,0.568,-0.205,0.797,0.016
2300892,-7600.0,-651.0,-3427.0,0.571,-0.201,0.795,0.018
2300910,-8168.0,-1593.0,-2611.0,0.574,-0.198,0.794,0.023
2300928,-7618.0,-1861.0,-2599.0,0.576,-0.195,0.793,0.027
2300947,-7544.0,-2149.0,-2239.0,0.58,-0.19,0.792,0.031
2300965,-6662.0,-2151.0,-2495.0,0.583,-0.186,0.79,0.033
2300984,-6234.0,-769.0,-2405.0,0.586,-0.183,0.788,0.037
2301004,-6246.0,857.0,-2137.0,0.587,-0.182,0.788,0.044
2301014,-6722.0,-649.0,-1717.0,0.587,-0.181,0.787,0.054
2301032,-6762.0,-1989.0,-1799.0,0.589,-0.179,0.786,0.063
2301050,-6372.0,-1579.0,-1845.0,0.592,-0.177,0.783,0.071
2301069,-6276.0,-1405.0,-1867.0,0.596,-0.174,0.78,0.077
2301088,-5228.0,981.0,-1893.0,0.6,-0.172,0.777,0.084
2301107,-5960.0,401.0,-1291.0,0.602,-0.171,0.774,0.094
2301115,-5280.0,-495.0,-1679.0,0.606,-0.169,0.771,0.104
2301133,-5480.0,-1017.0,-1483.0,0.609,-0.167,0.767,0.113
2301152,-5276.0,13.0,-1305.0,0.613,-0.165,0.763,0.121
2301172,-5450.0,-763.0,-1955.0,0.617,-0.163,0.759,0.129
2301191,-5820.0,645.0,-809.0,0.622,-0.162,0.754,0.137
2301210,-5518.0,-13.0,-1379.0,0.626,-0.162,0.749,0.146
2301228,-5510.0,-511.0,-1209.0,0.631,-0.161,0.743,0.153
2301245,-5608.0,-367.0,-1255.0,0.635,-0.16,0.738,0.16
2301263,-5494.0,-239.0,-863.0,0.64,-0.159,0.733,0.167
2301282,-5166.0,-623.0,-1155.0,0.643,-0.158,0.729,0.172
2301291,-5188.0,-175.0,-859.0,0.647,-0.157,0.725,0.177
2301309,-5158.0,9.0,-753.0,0.65,-0.156,0.721,0.181
2301328,-5256.0,-587.0,-573.0,0.652,-0.155,0.719,0.185
2301346,-5168.0,-919.0,-839.0,0.654,-0.155,0.717,0.186
2301364,-5670.0,-823.0,-741.0,0.655,-0.156,0.715,0.185
2301383,-6076.0,-179.0,-633.0,0.656,-0.157,0.715,0.184
2301402,-6900.0,-489.0,-355.0,0.657,-0.158,0.714,0.182
2301422,-7186.0,-513.0,-417.0,0.659,-0.158,0.714,0.179
2301441,-6886.0,-775.0,-691.0,0.66,-0.158,0.713,0.175
2301451,-6802.0,-951.0,-639.0,0.661,-0.159,0.713,0.171
2301470,-6928.0,-315.0,-313.0,0.662,-0.158,0.713,0.165
2301489,-7028.0,-305.0,-67.0,0.663,-0.158,0.714,0.16
2301508,-6414.0,-489.0,-165.0,0.664,-0.157,0.715,0.154
2301526,-6372.0,-371.0,55.0,0.665,-0.155,0.716,0.147
2301547,-5802.0,-1235.0,-647.0,0.665,-0.153,0.718,0.14
2301557,-6450.0,-239.0,5.0,0.664,-0.152,0.72,0.132
2301575,-6834.0,191.0,477.0,0.664,-0.151,0.722,0.124
2301593,-6570.0,-519.0,393.0,0.664,-0.149,0.723,0.116
2301611,-6126.0,-483.0,-321.0,0.665,-0.145,0.725,0.107
2301629,-5972.0,-877.0,-927.0,0.664,-0.144,0.727,0.098
2301647,-6892.0,-157.0,-415.0,0.662,-0.142,0.73,0.09
2301665,-7460.0,539.0,23.0,0.66,-0.141,0.733,0.082
2301683,-7700.0,-811.0,-129.0,0.659,-0.139,0.735,0.075
2301703,-7118.0,-717.0,-589.0,0.658,-0.138,0.737,0.067
2301713,-7164.0,-685.0,-555.0,0.656,-0.137,0.74,0.059
2301730,-7010.0,13.0,-431.0,0.654,-0.137,0.742,0.053
2301748,-7132.0,-241.0,-809.0,0.65,-0.138,0.746,0.046
2301767,-8242.0,-475.0,-583.0,0.646,-0.139,0.749,0.042
2301787,-8464.0,-1045.0,-463.0,0.643,-0.141,0.752,0.037
2301807,-7802.0,-767.0,-1055.0,0.639,-0.143,0.755,0.032
2301816,-8262.0,-385.0,-547.0,0.634,-0.146,0.759,0.028
2301833,-7824.0,-1149.0,-1411.0,0.629,-0.149,0.763,0.024
2301852,-8836.0,-1185.0,-1447.0,0.623,-0.153,0.767,0.021
2301871,-8122.0,-677.0,-2301.0,0.615,-0.159,0.773,0.02
2301890,-9712.0,-2169.0,-1739.0,0.606,-0.164,0.778,0.02
2301909,-9588.0,-2479.0,-1947.0,0.598,-0.169,0.783,0.019
2301927,-9086.0,-2383.0,-2501.0,0.592,-0.173,0.787,0.018
2301945,-8708.0,-1393.0,-2773.0,0.585,-0.178,0.791,0.016
2301963,-8456.0,-1469.0,-3313.0,0.576,-0.183,0.797,0.016
2301981,-9222.0,-2041.0,-3013.0,0.567,-0.188,0.802,0.017
2301991,-9438.0,-2025.0,-2805.0,0.56,-0.193,0.806,0.017
2302010,-8806.0,-2255.0,-3167.0,0.555,-0.196,0.808,0.017
2302029,-8648.0,-1571.0,-3217.0,0.551,-0.199,0.81,0.015
2302047,-7428.0,-1505.0,-4371.0,0.546,-0.202,0.813,0.014
2302066,-8316.0,-1497.0,-3895.0,0.541,-0.205,0.815,0.015
2302085,-8430.0,-1739.0,-3747.0,0.536,-0.208,0.818,0.015
2302106,-8486.0,-1881.0,-3739.0,0.532,-0.21,0.82,0.015
2302115,-8158.0,-1953.0,-4145.0,0.53,-0.211,0.821,0.014
2302134,-7606.0,-1785.0,-4591.0,0.526,-0.212,0.823,0.013
2302154,-7700.0,-2143.0,-4933.0,0.522,-0.214,0.825,0.012
2302172,-8212.0,-2159.0,-4593.0,0.518,-0.215,0.828,0.011
2302191,-8348.0,-2391.0,-4539.0,0.515,-0.216,0.83,0.01
2302201,-7958.0,-2827.0,-4945.0,0.513,-0.216,0.831,0.008
2302220,-7598.0,-2803.0,-5569.0,0.511,-0.216,0.832,0.005
2302239,-8062.0,-2709.0,-5493.0,0.509,-0.216,0.833,0.001
2302258,-8194.0,-2597.0,-5583.0,0.508,-0.215,0.834,-0.002
2302278,-8030.0,-2685.0,-5713.0,0.507,-0.214,0.835,-0.005
2302287,-8054.0,-3187.0,-5923.0,0.507,-0.213,0.835,-0.009
2302304,-8536.0,-3089.0,-5941.0,0.507,-0.212,0.835,-0.012
2302321,-8784.0,-3067.0,-5767.0,0.509,-0.21,0.835,-0.016
2302339,-8450.0,-2897.0,-5847.0,0.511,-0.207,0.834,-0.02
2302357,-7970.0,-3089.0,-6219.0,0.514,-0.203,0.833,-0.023
2302375,-8400.0,-2573.0,-5761.0,0.516,-0.2,0.832,-0.026
2302393,-8544.0,-3027.0,-5647.0,0.519,-0.196,0.831,-0.028
2302411,-8498.0,-2925.0,-5527.0,0.523,-0.192,0.83,-0.03
2302430,-8364.0,-2853.0,-5495.0,0.527,-0.187,0.828,-0.032
2302448,-8424.0,-2807.0,-5381.0,0.531,-0.182,0.827,-0.033
2302467,-8482.0,-2717.0,-5193.0,0.535,-0.177,0.825,-0.033
2302487,-8402.0,-2515.0,-5097.0,0.54,-0.172,0.824,-0.032
2302506,-8694.0,-2661.0,-4971.0,0.544,-0.166,0.822,-0.031
2302515,-9116.0,-2625.0,-4693.0,0.549,-0.161,0.82,-0.03
2302533,-8934.0,-2325.0,-4975.0,0.554,-0.157,0.817,-0.028
2302552,-9480.0,-2293.0,-4571.0,0.557,-0.153,0.816,-0.025
2302572,-10034.0,-2653.0,-4199.0,0.561,-0.149,0.814,-0.022
2302591,-10008.0,-2281.0,-4113.0,0.565,-0.145,0.812,-0.02
2302609,-9704.0,-2543.0,-3997.0,0.57,-0.142,0.809,-0.018
2302627,-9226.0,-1363.0,-3909.0,0.573,-0.139,0.807,-0.015
2302645,-8828.0,-1477.0,-3755.0,0.576,-0.136,0.806,-0.011
2302654,-8594.0,-1633.0,-3323.0,0.578,-0.134,0.805,-0.006
2302672,-8726.0,-1417.0,-2829.0,0.58,-0.132,0.804,-0.0
2302690,-8048.0,-1193.0,-2939.0,0.583,-0.13,0.802,0.005
2302708,-8118.0,-1175.0,-2525.0,0.585,-0.129,0.801,0.012
2302726,-8004.0,-1361.0,-2523.0,0.587,-0.128,0.799,0.019
2302744,-8108.0,-1011.0,-2439.0,0.589,-0.128,0.797,0.026
2302762,-8414.0,-55.0,-2087.0,0.592,-0.127,0.795,0.034
2302781,-8560.0,-1071.0,-1851.0,0.595,-0.126,0.793,0.043
2302800,-8142.0,-689.0,-1817.0,0.599,-0.124,0.79,0.051
2302820,-7710.0,-955.0,-1813.0,0.604,-0.121,0.786,0.058
2302830,-7296.0,-599.0,-1583.0,0.609,-0.118,0.782,0.065
2302847,-7134.0,-383.0,-1657.0,0.614,-0.115,0.777,0.071
2302866,-7328.0,631.0,-1111.0,0.62,-0.111,0.773,0.079
2302885,-6650.0,-697.0,-1185.0,0.626,-0.107,0.768,0.086
2302904,-6066.0,-191.0,-1129.0,0.632,-0.102,0.762,0.092
2302923,-5196.0,685.0,-1173.0,0.637,-0.097,0.758,0.1
2302941,-5996.0,209.0,-501.0,0.641,-0.093,0.754,0.108
2302960,-5924.0,43.0,-545.0,0.646,-0.087,0.749,0.116
2302969,-5980.0,7.0,-457.0,0.651,-0.081,0.744,0.124
2302988,-5658.0,151.0,-285.0,0.657,-0.075,0.739,0.131
2303008,-5450.0,433.0,169.0,0.663,-0.069,0.733,0.137
2303026,-5068.0,279.0,-31.0,0.669,-0.062,0.727,0.142
2303044,-5108.0,155.0,119.0,0.674,-0.056,0.722,0.146
2303062,-4810.0,-383.0,-259.0,0.68,-0.051,0.717,0.149
2303080,-4816.0,689.0,27.0,0.684,-0.046,0.712,0.15
2303098,-5162.0,645.0,35.0,0.687,-0.041,0.709,0.152
2303117,-5046.0,977.0,-251.0,0.689,-0.037,0.707,0.154
2303127,-5414.0,551.0,59.0,0.69,-0.034,0.706,0.155
2303144,-5120.0,345.0,-15.0,0.69,-0.032,0.706,0.155
2303161,-5112.0,1079.0,-133.0,0.69,-0.03,0.706,0.154
2303179,-5640.0,647.0,-47.0,0.689,-0.03,0.708,0.154
2303197,-6194.0,101.0,253.0,0.688,-0.031,0.709,0.152
2303216,-6294.0,63.0,363.0,0.688,-0.034,0.71,0.148
2303235,-5878.0,179.0,259.0,0.688,-0.036,0.711,0.142
2303254,-5752.0,209.0,-349.0,0.688,-0.04,0.712,0.135
2303274,-6128.0,1057.0,79.0,0.687,-0.046,0.714,0.129
2303283,-6522.0,-95.0,349.0,0.686,-0.052,0.715,0.123
2303301,-5738.0,33.0,229.0,0.686,-0.057,0.716,0.115
2303320,-5570.0,613.0,365.0,0.685,-0.063,0.717,0.107
2303337,-5368.0,135.0,-799.0,0.684,-0.069,0.72,0.1
2303356,-5988.0,1495.0,23.0,0.68,-0.077,0.723,0.093
2303374,-6922.0,-283.0,-19.0,0.676,-0.086,0.726,0.089
2303393,-7456.0,-681.0,575.0,0.673,-0.094,0.729,0.085
2303410,-7198.0,-293.0,713.0,0.671,-0.1,0.73,0.078
2303428,-7150.0,-985.0,171.0,0.67,-0.105,0.731,0.071
2303445,-6190.0,-1723.0,-781.0,0.669,-0.11,0.732,0.063
2303463,-7048.0,165.0,119.0,0.668,-0.115,0.734,0.055
2303481,-7422.0,-409.0,109.0,0.666,-0.12,0.735,0.048
2303499,-8074.0,-2175.0,-371.0,0.666,-0.123,0.735,0.04
2303517,-9260.0,-1509.0,-347.0,0.667,-0.126,0.734,0.03
2303537,-7668.0,-1895.0,-1741.0,0.669,-0.126,0.732,0.021
2303546,-7560.0,-675.0,-1621.0,0.67,-0.128,0.731,0.012
2303564,-8516.0,-1757.0,-893.0,0.67,-0.129,0.731,0.005
2303582,-8002.0,-2229.0,-1197.0,0.671,-0.13,0.73,-0.002
2303601,-7160.0,-1753.0,-1983.0,0.67,-0.132,0.73,-0.009
2303621,-7896.0,-2341.0,-2097.0,0.669,-0.134,0.731,-0.014
2303640,-8058.0,-1905.0,-1699.0,0.666,-0.136,0.733,-0.018
2303658,-8488.0,-1777.0,-1245.0,0.663,-0.137,0.735,-0.021
2303676,-8194.0,-2247.0,-1473.0,0.661,-0.139,0.737,-0.023
2303684,-7378.0,-1689.0,-1943.0,0.657,-0.142,0.74,-0.023
2303702,-8752.0,-2353.0,-1473.0,0.653,-0.144,0.743,-0.023
2303721,-8594.0,-1945.0,-1599.0,0.651,-0.146,0.745,-0.022
2303741,-8530.0,-1321.0,-1579.0,0.648,-0.147,0.747,-0.019
2303760,-8980.0,-1785.0,-1077.0,0.647,-0.148,0.748,-0.016
2303779,-8144.0,-1963.0,-1545.0,0.647,-0.149,0.748,-0.013
2303797,-8184.0,-1031.0,-1189.0,0.647,-0.151,0.748,-0.01
2303819,-8846.0,-1577.0,-815.0,0.647,-0.153,0.747,-0.006
2303829,-8716.0,-2597.0,-1139.0,0.65,-0.154,0.745,-0.002
2303847,-7928.0,-1051.0,-1343.0,0.652,-0.154,0.743,-0.0
2303865,-8238.0,-1491.0,-1399.0,0.653,-0.156,0.741,0.003
2303884,-8844.0,-1149.0,-1071.0,0.653,-0.158,0.74,0.006
2303904,-9202.0,-1773.0,-837.0,0.653,-0.16,0.74,0.009
2303914,-8706.0,-2113.0,-1177.0,0.654,-0.162,0.739,0.011
2303932,-7556.0,-1671.0,-2375.0,0.652,-0.165,0.74,0.011
2303950,-9160.0,-791.0,-1333.0,0.647,-0.171,0.743,0.013
2303968,-10830.0,-2835.0,-649.0,0.643,-0.176,0.745,0.014
2303988,-10326.0,-2319.0,-1213.0,0.64,-0.179,0.747,0.013
2304007,-10258.0,-1581.0,-1375.0,0.636,-0.183,0.75,0.011
2304027,-9400.0,-1835.0,-1981.0,0.631,-0.186,0.753,0.01
2304035,-9396.0,-2387.0,-2197.0,0.624,-0.191,0.757,0.009
2304053,-11026.0,-1935.0,-1379.0,0.618,-0.195,0.762,0.007
2304072,-10456.0,-2617.0,-2069.0,0.613,-0.198,0.765,0.004
2304091,-10108.0,-2725.0,-2255.0,0.609,-0.2,0.767,0.001
2304110,-9428.0,-2347.0,-2713.0,0.605,-0.202,0.77,-0.002
2304128,-8802.0,-3055.0,-3245.0,0.6,-0.205,0.773,-0.005
2304146,-9120.0,-3145.0,-3205.0,0.595,-0.208,0.776,-0.008
2304164,-9300.0,-3497.0,-3073.0,0.591,-0.21,0.779,-0.011
2304182,-8624.0,-3421.0,-3683.0,0.588,-0.212,0.781,-0.014
2304200,-7458.0,-4121.0,-4331.0,0.585,-0.213,0.782,-0.016
2304219,-7294.0,-2615.0,-4509.0,0.58,-0.216,0.785,-0.017
2304228,-8546.0,-3197.0,-3735.0,0.575,-0.219,0.788,-0.016
2304246,-8828.0,-3897.0,-3587.0,0.572,-0.221,0.79,-0.015
2304264,-8554.0,-4133.0,-4007.0,0.571,-0.221,0.791,-0.015
2304283,-8460.0,-3507.0,-4297.0,0.57,-0.221,0.791,-0.015
2304302,-8762.0,-3333.0,-4229.0,0.569,-0.221,0.792,-0.015
2304322,-9416.0,-3491.0,-3987.0,0.569,-0.221,0.792,-0.015
2304340,-9922.0,-3429.0,-3489.0,0.571,-0.22,0.791,-0.016
2304349,-9504.0,-3517.0,-3667.0,0.574,-0.217,0.789,-0.017
2304366,-9228.0,-3029.0,-3811.0,0.579,-0.213,0.787,-0.018
2304383,-9256.0,-3099.0,-3757.0,0.583,-0.21,0.785,-0.018
2304400,-9416.0,-2751.0,-3759.0,0.588,-0.206,0.782,-0.018
2304418,-9894.0,-3545.0,-3189.0,0.592,-0.203,0.78,-0.018
2304436,-10138.0,-3119.0,-2737.0,0.597,-0.198,0.777,-0.018
2304455,-9142.0,-2787.0,-3225.0,0.601,-0.193,0.775,-0.017
2304474,-8808.0,-2521.0,-3313.0,0.604,-0.189,0.774,-0.016
2304493,-9446.0,-2757.0,-2721.0,0.605,-0.186,0.774,-0.013
2304512,-9014.0,-1851.0,-2697.0,0.605,-0.182,0.775,-0.01
2304529,-8964.0,-2151.0,-2561.0,0.604,-0.179,0.776,-0.006
2304547,-8550.0,-1869.0,-2739.0,0.603,-0.177,0.778,-0.001
2304566,-8616.0,-1321.0,-2681.0,0.6,-0.176,0.781,0.005
2304584,-9058.0,-1491.0,-2383.0,0.597,-0.175,0.783,0.012
2304602,-8868.0,-1699.0,-2397.0,0.594,-0.174,0.785,0.02
2304621,-8608.0,-1721.0,-2407.0,0.592,-0.175,0.786,0.027
2304630,-8462.0,-841.0,-2637.0,0.59,-0.175,0.788,0.035
2304648,-8266.0,-635.0,-2561.0,0.587,-0.175,0.789,0.044
2304666,-8656.0,-907.0,-1787.0,0.585,-0.175,0.79,0.053
2304684,-7614.0,-1029.0,-1937.0,0.585,-0.175,0.789,0.062
2304704,-6642.0,-957.0,-2193.0,0.585,-0.174,0.789,0.071
2304724,-6250.0,-155.0,-2321.0,0.585,-0.174,0.788,0.08
2304742,-7286.0,-527.0,-1339.0,0.585,-0.174,0.787,0.089
2304751,-7332.0,-1293.0,-823.0,0.588,-0.173,0.784,0.096
2304769,-5956.0,-937.0,-1851.0,0.592,-0.172,0.781,0.103
2304788,-5882.0,5.0,-1283.0,0.596,-0.171,0.777,0.11
2304806,-5752.0,425.0,-1303.0,0.599,-0.171,0.773,0.118
2304825,-5870.0,-203.0,-925.0,0.603,-0.17,0.769,0.127
2304843,-5652.0,-1383.0,-717.0,0.608,-0.169,0.764,0.135
2304862,-4664.0,-1367.0,-2045.0,0.614,-0.166,0.759,0.141
2304880,-5084.0,1469.0,-395.0,0.618,-0.165,0.754,0.148
2304899,-4638.0,-419.0,-1389.0,0.621,-0.163,0.75,0.157
2304918,-5106.0,-531.0,-1209.0,0.624,-0.161,0.746,0.165
2304927,-4968.0,975.0,-539.0,0.627,-0.159,0.742,0.173
2304945,-4384.0,-501.0,-1211.0,0.63,-0.157,0.739,0.182
2304963,-4370.0,-575.0,-1063.0,0.632,-0.154,0.736,0.188
2304981,-4386.0,-595.0,-863.0,0.633,-0.151,0.734,0.194
2304999,-4528.0,-571.0,-757.0,0.635,-0.148,0.732,0.197
2305018,-4764.0,103.0,-859.0,0.635,-0.146,0.731,0.2
2305038,-5232.0,-609.0,-1117.0,0.636,-0.145,0.731,0.201
2305056,-6034.0,-449.0,-1047.0,0.636,-0.143,0.731,0.201
2305075,-6764.0,185.0,-1329.0,0.636,-0.141,0.732,0.2
2305083,-7630.0,707.0,-867.0,0.637,-0.139,0.732,0.199
2305102,-7616.0,-597.0,-1361.0,0.639,-0.137,0.731,0.198
2305120,-6960.0,-493.0,-1329.0,0.641,-0.133,0.731,0.194
2305137,-6814.0,-435.0,-935.0,0.643,-0.13,0.731,0.19
2305154,-6156.0,5.0,-1169.0,0.644,-0.126,0.732,0.185
2305171,-6544.0,499.0,-409.0,0.645,-0.122,0.733,0.18
2305189,-6698.0,7.0,-115.0,0.645,-0.118,0.734,0.175
2305206,-6314.0,-457.0,-253.0,0.647,-0.114,0.735,0.168
2305223,-5784.0,-787.0,-265.0,0.649,-0.109,0.736,0.16
2305241,-5454.0,-515.0,-869.0,0.651,-0.105,0.737,0.149
2305259,-5892.0,1345.0,-665.0,0.651,-0.103,0.739,0.139
2305277,-7720.0,515.0,225.0,0.651,-0.102,0.741,0.131
2305295,-7460.0,-271.0,-109.0,0.653,-0.099,0.741,0.121
2305314,-6792.0,199.0,285.0,0.656,-0.095,0.74,0.11
2305332,-5220.0,-427.0,-1395.0,0.659,-0.092,0.74,0.098
2305350,-5270.0,509.0,-1769.0,0.66,-0.091,0.741,0.086
2305370,-7280.0,1811.0,-97.0,0.66,-0.092,0.742,0.078
2305389,-7894.0,-631.0,451.0,0.66,-0.092,0.742,0.071
2305397,-6758.0,-337.0,117.0,0.662,-0.089,0.741,0.061
2305415,-5936.0,463.0,-67.0,0.665,-0.087,0.74,0.051
2305433,-3952.0,-1003.0,-2591.0,0.666,-0.086,0.74,0.041
2305451,-5320.0,1735.0,-777.0,0.663,-0.088,0.743,0.034
2305470,-7698.0,655.0,201.0,0.66,-0.09,0.745,0.03
2305488,-7754.0,-601.0,-123.0,0.659,-0.091,0.746,0.025
2305507,-6498.0,-383.0,-803.0,0.659,-0.092,0.747,0.02
2305526,-6202.0,-183.0,-1991.0,0.657,-0.096,0.748,0.015
2305545,-7614.0,897.0,-1531.0,0.653,-0.102,0.75,0.013
2305563,-9054.0,409.0,-1421.0,0.649,-0.109,0.753,0.013
2305581,-9880.0,-1263.0,-1111.0,0.645,-0.117,0.755,0.013
2305590,-10190.0,-697.0,-1061.0,0.642,-0.123,0.757,0.011
2305609,-8938.0,-1107.0,-2251.0,0.64,-0.131,0.757,0.009
2305627,-9936.0,-125.0,-2123.0,0.635,-0.141,0.76,0.009
2305645,-11348.0,-1707.0,-1717.0,0.63,-0.152,0.762,0.009
2305663,-12384.0,-2521.0,-1687.0,0.626,-0.162,0.763,0.007
2305681,-11590.0,-1961.0,-2507.0,0.624,-0.172,0.762,0.003
2305700,-11100.0,-2555.0,-3057.0,0.622,-0.181,0.762,0.0
2305719,-10496.0,-2137.0,-3467.0,0.619,-0.192,0.762,-0.003
2305738,-10660.0,-2541.0,-3401.0,0.614,-0.203,0.763,-0.004
2305746,-10522.0,-2877.0,-3565.0,0.608,-0.215,0.764,-0.005
2305764,-10696.0,-4033.0,-3403.0,0.603,-0.226,0.765,-0.005
2305782,-9070.0,-4259.0,-4545.0,0.597,-0.237,0.766,-0.006
2305801,-8696.0,-3259.0,-4673.0,0.588,-0.249,0.769,-0.006
2305822,-9984.0,-4017.0,-3587.0,0.578,-0.261,0.773,-0.005
2305842,-9562.0,-4963.0,-3603.0,0.57,-0.269,0.777,-0.005
2305862,-8294.0,-4647.0,-4033.0,0.563,-0.275,0.78,-0.007
2305870,-7398.0,-3201.0,-4291.0,0.555,-0.279,0.783,-0.008
2305888,-7872.0,-3735.0,-3771.0,0.547,-0.283,0.787,-0.008
2305905,-8640.0,-4259.0,-3127.0,0.542,-0.286,0.791,-0.009
2305923,-8230.0,-4061.0,-3215.0,0.539,-0.285,0.792,-0.012
2305940,-7718.0,-3969.0,-3451.0,0.54,-0.282,0.793,-0.015
2305958,-7340.0,-3583.0,-3257.0,0.542,-0.278,0.793,-0.019
2305977,-6376.0,-3515.0,-3781.0,0.546,-0.273,0.792,-0.024
