timeMs,ax,ay,az,q0,q1,q2,q3
2906881,-7205.0,-4221.0,-109.0,0.687,-0.461,0.525,0.199
2906897,-6927.0,-4209.0,-61.0,0.691,-0.459,0.522,0.197
2906914,-6977.0,-4287.0,103.0,0.695,-0.457,0.52,0.194
2906940,-7239.0,-4451.0,409.0,0.698,-0.455,0.519,0.192
2906956,-7363.0,-4359.0,613.0,0.701,-0.453,0.518,0.189
2906973,-7527.0,-4337.0,743.0,0.702,-0.45,0.519,0.186
2906990,-7427.0,-4213.0,499.0,0.703,-0.448,0.521,0.184
2907006,-7549.0,-3915.0,557.0,0.704,-0.446,0.523,0.181
2907023,-7635.0,-3911.0,525.0,0.703,-0.443,0.526,0.179
2907040,-7693.0,-3709.0,293.0,0.703,-0.441,0.529,0.176
2907057,-7859.0,-3197.0,291.0,0.703,-0.438,0.533,0.173
2907074,-8141.0,-3019.0,347.0,0.702,-0.436,0.537,0.171
2907091,-8259.0,-3009.0,393.0,0.701,-0.435,0.54,0.169
2907118,-8613.0,-3077.0,351.0,0.7,-0.435,0.542,0.166
2907134,-8935.0,-3177.0,343.0,0.698,-0.435,0.544,0.164
2907150,-9121.0,-3099.0,361.0,0.697,-0.436,0.545,0.162
2907166,-8967.0,-3597.0,59.0,0.695,-0.438,0.547,0.16
2907182,-9445.0,-3877.0,217.0,0.694,-0.441,0.548,0.156
2907198,-9019.0,-3927.0,-323.0,0.691,-0.445,0.549,0.153
2907224,-9467.0,-4585.0,-97.0,0.688,-0.449,0.55,0.149
2907241,-9673.0,-4561.0,-173.0,0.685,-0.455,0.551,0.145
2907258,-9759.0,-4317.0,-319.0,0.681,-0.461,0.551,0.141
2907275,-9707.0,-4881.0,-383.0,0.677,-0.467,0.552,0.139
2907292,-9717.0,-5035.0,-297.0,0.673,-0.473,0.552,0.138
2907308,-9697.0,-6109.0,-447.0,0.67,-0.479,0.552,0.136
2907324,-10159.0,-5951.0,-405.0,0.668,-0.483,0.551,0.133
2907341,-10615.0,-5335.0,-341.0,0.668,-0.485,0.549,0.133
2907358,-9609.0,-5063.0,-917.0,0.67,-0.485,0.546,0.133
2907374,-9721.0,-5487.0,-723.0,0.672,-0.485,0.543,0.134
2907401,-9265.0,-5503.0,-857.0,0.675,-0.484,0.539,0.136
2907417,-8993.0,-4513.0,-827.0,0.679,-0.482,0.536,0.137
2907433,-9255.0,-4311.0,-279.0,0.684,-0.479,0.533,0.139
2907449,-8371.0,-4013.0,-329.0,0.689,-0.474,0.529,0.143
2907466,-8601.0,-3565.0,-419.0,0.693,-0.469,0.527,0.147
2907482,-9081.0,-3673.0,37.0,0.697,-0.465,0.525,0.15
2907498,-8181.0,-3331.0,-51.0,0.7,-0.459,0.525,0.155
2907524,-8141.0,-2851.0,377.0,0.702,-0.453,0.525,0.16
2907540,-7261.0,-3551.0,127.0,0.705,-0.447,0.526,0.165
2907557,-6703.0,-2859.0,517.0,0.707,-0.44,0.527,0.17
2907573,-5965.0,-1799.0,285.0,0.708,-0.434,0.529,0.175
2907589,-5923.0,-3485.0,313.0,0.708,-0.429,0.531,0.181
2907606,-5609.0,-2845.0,545.0,0.709,-0.423,0.533,0.185
2907623,-5803.0,-2769.0,387.0,0.709,-0.417,0.536,0.189
2907649,-5149.0,-2371.0,161.0,0.709,-0.411,0.539,0.195
2907665,-5011.0,-2747.0,-99.0,0.708,-0.406,0.542,0.202
2907681,-5187.0,-3009.0,53.0,0.706,-0.401,0.545,0.21
2907697,-4931.0,-2685.0,-187.0,0.704,-0.397,0.548,0.217
2907713,-5041.0,-3657.0,-147.0,0.701,-0.394,0.55,0.225
2907730,-5319.0,-3581.0,-225.0,0.699,-0.391,0.552,0.231
2907746,-4779.0,-1307.0,287.0,0.697,-0.388,0.553,0.239
2907772,-3965.0,-2579.0,225.0,0.694,-0.385,0.554,0.251
2907789,-2727.0,-2407.0,287.0,0.691,-0.382,0.555,0.261
2907806,-2319.0,-2703.0,403.0,0.688,-0.381,0.556,0.27
2907823,-2451.0,-3165.0,647.0,0.684,-0.38,0.558,0.277
2907839,-2201.0,-2545.0,1135.0,0.681,-0.38,0.56,0.279
2907856,-2157.0,-2039.0,951.0,0.677,-0.382,0.563,0.281
2907873,-2539.0,-2605.0,1143.0,0.674,-0.385,0.565,0.28
2907889,-2373.0,-2699.0,777.0,0.67,-0.389,0.568,0.277
2907906,-2327.0,-447.0,941.0,0.666,-0.395,0.571,0.272
2907923,-2099.0,-729.0,773.0,0.661,-0.403,0.573,0.268
2907949,-2745.0,-1601.0,371.0,0.656,-0.412,0.575,0.263
2907965,-3055.0,-1335.0,341.0,0.652,-0.422,0.577,0.255
2907982,-3923.0,-1121.0,151.0,0.647,-0.431,0.578,0.249
2907998,-5361.0,-2013.0,183.0,0.642,-0.44,0.58,0.242
2908015,-6031.0,-3155.0,-1121.0,0.638,-0.448,0.581,0.235
2908031,-7833.0,-3421.0,-767.0,0.635,-0.455,0.582,0.226
2908048,-9261.0,-1879.0,-831.0,0.634,-0.46,0.581,0.219
2908074,-8537.0,-2111.0,-985.0,0.635,-0.464,0.579,0.214
2908091,-7985.0,-5501.0,-1663.0,0.636,-0.468,0.578,0.208
2908108,-10027.0,-2899.0,-1201.0,0.639,-0.47,0.575,0.2
2908124,-9757.0,-3883.0,-1005.0,0.643,-0.472,0.572,0.193
2908141,-10565.0,-2213.0,-607.0,0.647,-0.473,0.567,0.188
2908158,-9733.0,-3421.0,-125.0,0.652,-0.474,0.562,0.185
2908174,-8145.0,-2473.0,-7.0,0.657,-0.474,0.557,0.183
2908190,-7647.0,-1619.0,299.0,0.661,-0.475,0.551,0.182
2908207,-7659.0,-4203.0,531.0,0.665,-0.477,0.546,0.179
2908224,-7829.0,-2033.0,667.0,0.668,-0.479,0.542,0.177
2908250,-7393.0,-2337.0,573.0,0.67,-0.481,0.539,0.175
2908266,-7259.0,-3463.0,165.0,0.67,-0.483,0.536,0.173
2908282,-7781.0,-3275.0,159.0,0.67,-0.486,0.535,0.169
2908298,-8085.0,-2627.0,183.0,0.669,-0.489,0.535,0.167
2908315,-7701.0,-3421.0,-205.0,0.667,-0.492,0.534,0.166
2908331,-7663.0,-3791.0,-307.0,0.665,-0.496,0.533,0.164
2908348,-7923.0,-3757.0,-479.0,0.662,-0.501,0.533,0.164
2908365,-7773.0,-3827.0,-609.0,0.658,-0.506,0.533,0.164
2908392,-7571.0,-3535.0,-661.0,0.654,-0.511,0.533,0.165
2908409,-7503.0,-3405.0,-655.0,0.649,-0.517,0.532,0.167
2908425,-7287.0,-3961.0,-759.0,0.645,-0.522,0.532,0.169
2908442,-7309.0,-3795.0,-653.0,0.641,-0.528,0.53,0.171
2908459,-6757.0,-4577.0,-1017.0,0.638,-0.533,0.529,0.172
2908475,-7113.0,-3475.0,-1013.0,0.636,-0.537,0.527,0.172
2908491,-7133.0,-4141.0,-1145.0,0.633,-0.541,0.525,0.172
2908508,-7109.0,-4335.0,-1423.0,0.631,-0.545,0.524,0.173
2908525,-7313.0,-4687.0,-1539.0,0.63,-0.549,0.522,0.174
2908551,-7745.0,-5115.0,-1775.0,0.627,-0.552,0.521,0.174
2908567,-8279.0,-5711.0,-2091.0,0.625,-0.555,0.52,0.175
2908583,-9537.0,-6489.0,-2123.0,0.624,-0.558,0.519,0.175
2908599,-10101.0,-6823.0,-2639.0,0.622,-0.56,0.519,0.175
2908615,-11133.0,-7345.0,-2531.0,0.621,-0.561,0.518,0.176
2908632,-11599.0,-8041.0,-2731.0,0.62,-0.562,0.517,0.177
2908649,-12085.0,-7583.0,-2619.0,0.62,-0.563,0.517,0.177
2908666,-11823.0,-8305.0,-2635.0,0.621,-0.563,0.516,0.177
2908692,-11955.0,-7433.0,-2357.0,0.622,-0.563,0.515,0.176
2908708,-11805.0,-7129.0,-1947.0,0.623,-0.563,0.514,0.175
2908724,-11421.0,-6543.0,-1743.0,0.624,-0.563,0.514,0.174
2908741,-10699.0,-6211.0,-1583.0,0.625,-0.562,0.514,0.173
2908758,-10037.0,-5957.0,-1559.0,0.625,-0.562,0.514,0.171
2908774,-9407.0,-5273.0,-1689.0,0.625,-0.563,0.515,0.168
2908791,-9161.0,-4799.0,-1809.0,0.624,-0.564,0.516,0.164
2908817,-8867.0,-4677.0,-1843.0,0.622,-0.566,0.517,0.161
2908834,-8727.0,-4079.0,-1777.0,0.62,-0.567,0.519,0.157
2908851,-8239.0,-3859.0,-1633.0,0.617,-0.569,0.521,0.155
2908868,-7703.0,-4255.0,-1431.0,0.615,-0.569,0.523,0.155
2908885,-7157.0,-4359.0,-1753.0,0.613,-0.57,0.526,0.154
2908902,-7431.0,-3895.0,-1385.0,0.611,-0.569,0.528,0.155
2908918,-7321.0,-3945.0,-937.0,0.611,-0.567,0.53,0.158
2908935,-7203.0,-3465.0,-467.0,0.612,-0.563,0.531,0.163
2908951,-6413.0,-4421.0,-911.0,0.616,-0.557,0.531,0.17
2908968,-5967.0,-3295.0,-913.0,0.62,-0.55,0.531,0.175
2908985,-5577.0,-3143.0,-863.0,0.625,-0.543,0.53,0.183
2909012,-6091.0,-3133.0,-727.0,0.629,-0.535,0.53,0.192
2909028,-5119.0,-4353.0,-1393.0,0.633,-0.527,0.529,0.202
2909044,-4913.0,-2805.0,-1461.0,0.637,-0.52,0.529,0.21
2909061,-4459.0,-3535.0,-2005.0,0.638,-0.514,0.531,0.218
2909077,-5343.0,-4307.0,-1335.0,0.638,-0.508,0.534,0.224
2909094,-5485.0,-2649.0,-1517.0,0.636,-0.503,0.538,0.229
2909110,-6481.0,-1609.0,-859.0,0.633,-0.499,0.542,0.237
2909136,-6669.0,-2921.0,-1045.0,0.63,-0.495,0.546,0.247
2909153,-6549.0,-2839.0,-967.0,0.626,-0.49,0.549,0.257
2909170,-6375.0,-2667.0,-1361.0,0.623,-0.485,0.553,0.268
2909187,-6661.0,-3387.0,-1041.0,0.62,-0.48,0.556,0.277
2909204,-7273.0,-3757.0,-799.0,0.619,-0.473,0.558,0.285
2909221,-7255.0,-2739.0,-1013.0,0.619,-0.464,0.56,0.294
2909238,-6459.0,-2023.0,-633.0,0.622,-0.454,0.561,0.305
2909255,-5229.0,-959.0,-619.0,0.624,-0.443,0.56,0.317
2909272,-4285.0,-1051.0,1.0,0.628,-0.432,0.557,0.329
2909289,-2455.0,-1463.0,-347.0,0.633,-0.425,0.552,0.339
2909306,-1133.0,-829.0,-833.0,0.637,-0.42,0.547,0.345
2909323,-449.0,-1501.0,-203.0,0.639,-0.418,0.544,0.347
2909340,-1143.0,-85.0,321.0,0.641,-0.418,0.542,0.346
2909357,-1511.0,-903.0,229.0,0.642,-0.42,0.542,0.343
2909374,-2007.0,-1201.0,161.0,0.643,-0.424,0.542,0.336
2909400,-2923.0,117.0,225.0,0.642,-0.429,0.543,0.33
2909416,-3961.0,-619.0,459.0,0.64,-0.436,0.544,0.323
2909432,-4327.0,-865.0,455.0,0.637,-0.445,0.543,0.318
2909448,-5111.0,-3251.0,153.0,0.635,-0.452,0.543,0.312
2909464,-5709.0,-2225.0,-289.0,0.633,-0.461,0.543,0.305
2909490,-7155.0,-2933.0,33.0,0.631,-0.469,0.542,0.297
2909507,-7825.0,-1639.0,19.0,0.63,-0.476,0.541,0.29
2909523,-7493.0,-2295.0,129.0,0.629,-0.482,0.539,0.286
2909539,-6969.0,-2241.0,-265.0,0.628,-0.488,0.537,0.281
2909556,-7057.0,-2903.0,-283.0,0.628,-0.494,0.535,0.276
2909573,-7319.0,-3599.0,-489.0,0.627,-0.5,0.534,0.269
2909590,-8975.0,-2053.0,151.0,0.627,-0.505,0.532,0.264
2909607,-8837.0,-3507.0,-613.0,0.626,-0.509,0.53,0.26
2909624,-9337.0,-2977.0,-335.0,0.627,-0.511,0.529,0.257
2909641,-9179.0,-2851.0,-693.0,0.627,-0.514,0.527,0.255
2909658,-9217.0,-3263.0,-509.0,0.627,-0.516,0.525,0.253
2909675,-9035.0,-3739.0,-395.0,0.627,-0.518,0.524,0.252
2909702,-8773.0,-2487.0,-385.0,0.628,-0.519,0.522,0.252
2909719,-8765.0,-3179.0,-407.0,0.628,-0.521,0.52,0.252
2909735,-8751.0,-3467.0,-443.0,0.629,-0.522,0.519,0.252
2909752,-8775.0,-3093.0,-451.0,0.629,-0.522,0.517,0.252
2909769,-8565.0,-3117.0,-307.0,0.63,-0.523,0.516,0.253
2909785,-8277.0,-3463.0,-439.0,0.63,-0.524,0.514,0.254
2909801,-8449.0,-2785.0,-581.0,0.631,-0.524,0.512,0.255
2909817,-8187.0,-3361.0,-571.0,0.631,-0.525,0.51,0.256
2909843,-7823.0,-2771.0,-403.0,0.632,-0.525,0.508,0.258
2909859,-7997.0,-2339.0,-649.0,0.633,-0.526,0.506,0.259
2909875,-7781.0,-2947.0,-561.0,0.633,-0.527,0.503,0.261
2909891,-8151.0,-3355.0,-465.0,0.634,-0.529,0.501,0.261
2909908,-8715.0,-2941.0,-361.0,0.635,-0.53,0.497,0.262
2909924,-8343.0,-2921.0,-581.0,0.637,-0.532,0.492,0.263
2909950,-8219.0,-3735.0,-617.0,0.638,-0.534,0.488,0.263
2909966,-8569.0,-4015.0,-619.0,0.64,-0.537,0.483,0.262
2909983,-8305.0,-3541.0,-847.0,0.642,-0.539,0.479,0.26
2909999,-8529.0,-4025.0,-855.0,0.643,-0.543,0.475,0.257
2910015,-9253.0,-4573.0,-625.0,0.643,-0.547,0.471,0.255
2910031,-9307.0,-5377.0,-1039.0,0.643,-0.551,0.468,0.252
2910048,-10605.0,-5125.0,-723.0,0.642,-0.556,0.465,0.249
2910074,-11035.0,-6511.0,-915.0,0.64,-0.561,0.463,0.247
2910091,-11619.0,-6659.0,-959.0,0.638,-0.566,0.461,0.245
2910108,-11703.0,-7019.0,-971.0,0.636,-0.57,0.459,0.243
2910125,-11601.0,-7091.0,-1057.0,0.634,-0.575,0.459,0.241
2910141,-11721.0,-7021.0,-861.0,0.631,-0.578,0.459,0.238
2910158,-11485.0,-6311.0,-641.0,0.629,-0.582,0.459,0.236
2910174,-11175.0,-6115.0,-449.0,0.625,-0.585,0.46,0.235
2910191,-11059.0,-5393.0,-191.0,0.622,-0.587,0.463,0.234
2910207,-11091.0,-4789.0,103.0,0.618,-0.589,0.466,0.234
2910233,-10839.0,-4757.0,335.0,0.614,-0.589,0.469,0.236
2910249,-10053.0,-4321.0,-43.0,0.612,-0.588,0.473,0.237
2910266,-8183.0,-5245.0,-1153.0,0.611,-0.586,0.477,0.238
2910282,-7327.0,-4927.0,-1189.0,0.611,-0.585,0.48,0.232
2910298,-7989.0,-1547.0,-759.0,0.612,-0.584,0.483,0.228
2910314,-7353.0,-2267.0,-1147.0,0.61,-0.583,0.486,0.228
2910331,-6893.0,-3857.0,-953.0,0.609,-0.582,0.489,0.228
2910357,-6879.0,-2985.0,-1457.0,0.608,-0.581,0.49,0.229
2910373,-5959.0,-3625.0,-1729.0,0.607,-0.58,0.493,0.229
2910389,-6351.0,-4021.0,-1483.0,0.606,-0.579,0.495,0.229
2910406,-6457.0,-4259.0,-1383.0,0.605,-0.579,0.497,0.228
2910422,-6887.0,-3889.0,-1203.0,0.606,-0.577,0.498,0.227
2910438,-7039.0,-3753.0,-1095.0,0.608,-0.575,0.499,0.228
2910455,-6893.0,-3793.0,-1431.0,0.61,-0.572,0.498,0.23
2910472,-6271.0,-3987.0,-1599.0,0.613,-0.568,0.498,0.233
2910499,-6145.0,-4763.0,-1675.0,0.615,-0.565,0.497,0.235
2910515,-6391.0,-5861.0,-1903.0,0.618,-0.562,0.497,0.236
2910532,-7561.0,-5381.0,-1587.0,0.623,-0.556,0.497,0.235
2910549,-8057.0,-5729.0,-1613.0,0.629,-0.549,0.498,0.234
2910565,-7909.0,-4197.0,-1069.0,0.636,-0.541,0.497,0.235
2910582,-6545.0,-3977.0,-1637.0,0.643,-0.532,0.496,0.239
2910599,-5431.0,-2113.0,-1813.0,0.648,-0.524,0.495,0.244
2910615,-4611.0,-1771.0,-1525.0,0.652,-0.516,0.495,0.252
2910631,-3929.0,-2629.0,-1609.0,0.653,-0.507,0.497,0.263
2910657,-3651.0,-1941.0,-1085.0,0.654,-0.498,0.499,0.274
2910674,-3055.0,-2471.0,-1041.0,0.653,-0.49,0.502,0.286
2910690,-2873.0,-1701.0,-341.0,0.653,-0.482,0.505,0.295
2910706,-1985.0,-61.0,21.0,0.651,-0.474,0.509,0.305
2910722,-1825.0,-2687.0,-393.0,0.647,-0.469,0.512,0.314
2910738,-1923.0,-5473.0,-289.0,0.646,-0.464,0.517,0.317
2910765,-2433.0,-1771.0,309.0,0.646,-0.459,0.523,0.315
2910781,-2595.0,-517.0,499.0,0.645,-0.458,0.526,0.312
2910797,-3465.0,-2943.0,353.0,0.644,-0.46,0.528,0.309
2910813,-2575.0,609.0,339.0,0.644,-0.462,0.528,0.305
2910829,-2445.0,-753.0,-221.0,0.641,-0.466,0.529,0.304
2910845,-3749.0,-2741.0,525.0,0.638,-0.471,0.53,0.301
2910861,-3497.0,-885.0,-45.0,0.635,-0.477,0.53,0.297
2910887,-4241.0,-847.0,-275.0,0.631,-0.483,0.53,0.295
2910907,-5339.0,-3241.0,-661.0,0.626,-0.489,0.531,0.294
2910924,-6875.0,-3631.0,-547.0,0.623,-0.496,0.53,0.291
2910940,-7245.0,-2831.0,-463.0,0.62,-0.504,0.528,0.289
2910956,-7711.0,-2289.0,-173.0,0.617,-0.51,0.526,0.288
2910973,-7113.0,-4003.0,-625.0,0.615,-0.516,0.522,0.287
2910989,-7341.0,-4333.0,-415.0,0.616,-0.521,0.518,0.284
2911005,-7859.0,-2349.0,-537.0,0.617,-0.526,0.514,0.281
2911022,-8109.0,-1905.0,-293.0,0.617,-0.53,0.51,0.279
2911039,-7699.0,-3335.0,-573.0,0.617,-0.533,0.507,0.279
2911056,-7883.0,-3085.0,-445.0,0.618,-0.536,0.504,0.277
2911073,-7519.0,-3817.0,-973.0,0.618,-0.54,0.501,0.275
2911100,-8157.0,-2721.0,-539.0,0.619,-0.543,0.499,0.271
2911116,-8817.0,-2777.0,-299.0,0.618,-0.546,0.497,0.269
2911132,-8503.0,-3517.0,-409.0,0.618,-0.548,0.496,0.268
2911148,-8685.0,-3065.0,-453.0,0.617,-0.551,0.495,0.267
2911164,-8545.0,-3513.0,-491.0,0.617,-0.552,0.494,0.266
2911180,-8691.0,-3109.0,-187.0,0.617,-0.553,0.493,0.266
2911206,-8225.0,-3127.0,-363.0,0.618,-0.553,0.492,0.265
2911222,-7967.0,-3299.0,-375.0,0.619,-0.553,0.492,0.265
2911239,-7405.0,-3527.0,-547.0,0.62,-0.552,0.491,0.264
2911255,-7653.0,-2363.0,-431.0,0.621,-0.551,0.491,0.263
2911272,-7599.0,-2491.0,-405.0,0.622,-0.55,0.492,0.264
2911289,-7287.0,-2777.0,-477.0,0.622,-0.548,0.492,0.265
2911305,-7205.0,-2893.0,-505.0,0.622,-0.546,0.493,0.266
2911321,-7245.0,-3853.0,-901.0,0.623,-0.545,0.494,0.266
2911348,-7773.0,-3763.0,-803.0,0.624,-0.543,0.496,0.264
2911364,-8557.0,-2229.0,-879.0,0.624,-0.542,0.497,0.263
2911381,-8927.0,-3331.0,-965.0,0.624,-0.54,0.499,0.264
2911398,-9261.0,-3871.0,-1207.0,0.625,-0.538,0.5,0.264
2911414,-10083.0,-3089.0,-1219.0,0.625,-0.537,0.501,0.265
2911430,-10323.0,-4189.0,-1247.0,0.626,-0.535,0.501,0.266
2911446,-10727.0,-4999.0,-1291.0,0.627,-0.534,0.502,0.266
2911472,-11967.0,-4415.0,-897.0,0.629,-0.532,0.501,0.265
2911489,-12387.0,-4505.0,-915.0,0.631,-0.531,0.5,0.265
2911505,-11969.0,-5925.0,-1361.0,0.632,-0.53,0.499,0.265
2911522,-12975.0,-4659.0,-885.0,0.632,-0.531,0.499,0.265
2911539,-13093.0,-5937.0,-601.0,0.631,-0.532,0.499,0.265
2911555,-12797.0,-5307.0,-481.0,0.629,-0.533,0.5,0.264
2911571,-12205.0,-5033.0,-303.0,0.626,-0.535,0.502,0.264
2911588,-11655.0,-4763.0,-125.0,0.622,-0.537,0.506,0.263
2911605,-11201.0,-4915.0,-141.0,0.616,-0.539,0.511,0.262
2911622,-10721.0,-5055.0,-339.0,0.611,-0.541,0.516,0.259
2911649,-10979.0,-3885.0,-119.0,0.606,-0.543,0.521,0.256
2911665,-10573.0,-4149.0,-157.0,0.602,-0.544,0.526,0.254
2911681,-9619.0,-3799.0,-521.0,0.599,-0.543,0.531,0.252
2911697,-9073.0,-4013.0,-663.0,0.597,-0.543,0.535,0.251
2911713,-8575.0,-1997.0,-1201.0,0.596,-0.541,0.539,0.25
2911729,-8185.0,-3221.0,-1407.0,0.594,-0.539,0.542,0.25
2911755,-7691.0,-2845.0,-1641.0,0.593,-0.538,0.545,0.25
2911772,-7435.0,-2293.0,-1817.0,0.592,-0.536,0.548,0.25
2911789,-7225.0,-1693.0,-2127.0,0.59,-0.535,0.55,0.25
2911806,-7311.0,-2611.0,-2213.0,0.588,-0.535,0.552,0.25
2911822,-8001.0,-2633.0,-1707.0,0.587,-0.535,0.552,0.251
2911839,-8099.0,-2825.0,-1601.0,0.588,-0.535,0.552,0.253
2911856,-8163.0,-1903.0,-1393.0,0.589,-0.533,0.55,0.257
2911873,-7431.0,-2667.0,-1545.0,0.59,-0.531,0.549,0.263
2911889,-6963.0,-2863.0,-1339.0,0.592,-0.527,0.547,0.269
2911906,-6701.0,-2199.0,-917.0,0.595,-0.523,0.545,0.275
2911923,-6231.0,-2331.0,-1179.0,0.597,-0.519,0.544,0.281
2911950,-6333.0,-1827.0,-1271.0,0.598,-0.515,0.543,0.288
2911966,-6477.0,-2133.0,-795.0,0.599,-0.511,0.541,0.295
2911982,-6631.0,-1995.0,-729.0,0.599,-0.507,0.54,0.304
2911998,-6225.0,-1715.0,-953.0,0.599,-0.503,0.539,0.313
2912014,-5729.0,-1921.0,-1079.0,0.599,-0.498,0.538,0.321
2912030,-5593.0,-2289.0,-1071.0,0.597,-0.495,0.538,0.33
2912056,-5631.0,-1221.0,-615.0,0.596,-0.491,0.538,0.338
2912073,-5719.0,-1867.0,-971.0,0.594,-0.488,0.538,0.346
2912090,-6185.0,-2917.0,-879.0,0.592,-0.485,0.537,0.353
2912107,-6917.0,-3661.0,-403.0,0.594,-0.482,0.536,0.358
2912124,-6377.0,-51.0,-743.0,0.596,-0.477,0.533,0.363
2912140,-4763.0,1639.0,-1103.0,0.596,-0.474,0.53,0.373
2912156,-4053.0,-581.0,-813.0,0.593,-0.472,0.526,0.385
2912173,-3505.0,-1165.0,-251.0,0.59,-0.472,0.522,0.396
2912189,-2641.0,-1601.0,-227.0,0.587,-0.472,0.518,0.405
2912206,-2203.0,-1829.0,-229.0,0.585,-0.475,0.515,0.409
2912233,-2171.0,-1941.0,-177.0,0.583,-0.479,0.512,0.41
2912250,-2039.0,-1285.0,-103.0,0.582,-0.485,0.51,0.407
2912266,-2271.0,-309.0,-11.0,0.58,-0.492,0.509,0.403
2912282,-2861.0,-1037.0,85.0,0.579,-0.501,0.507,0.397
2912298,-2951.0,-951.0,-245.0,0.577,-0.509,0.506,0.39
2912314,-3941.0,-2159.0,-497.0,0.574,-0.518,0.505,0.383
2912330,-5475.0,-145.0,-397.0,0.572,-0.528,0.503,0.376
2912356,-6581.0,-1081.0,-205.0,0.569,-0.536,0.501,0.372
2912372,-6057.0,-2673.0,-761.0,0.567,-0.542,0.5,0.369
2912388,-6077.0,-3009.0,-1057.0,0.565,-0.548,0.498,0.364
2912404,-6815.0,-2819.0,-1549.0,0.565,-0.555,0.496,0.356
2912421,-8287.0,-1515.0,-1087.0,0.564,-0.561,0.494,0.35
2912437,-9183.0,-1939.0,-479.0,0.565,-0.566,0.492,0.345
2912454,-8277.0,-2779.0,-1139.0,0.566,-0.569,0.489,0.342
2912481,-8691.0,-2763.0,-1451.0,0.568,-0.573,0.485,0.337
2912497,-9537.0,-3287.0,-1025.0,0.57,-0.577,0.481,0.332
2912513,-9557.0,-3781.0,-1069.0,0.574,-0.581,0.477,0.327
2912529,-9837.0,-3291.0,-995.0,0.578,-0.582,0.472,0.322
2912546,-9725.0,-3455.0,-915.0,0.583,-0.583,0.467,0.318
2912562,-9473.0,-2579.0,-847.0,0.587,-0.584,0.462,0.316
2912578,-8663.0,-3101.0,-549.0,0.591,-0.585,0.457,0.315
2912604,-8219.0,-3173.0,-495.0,0.594,-0.586,0.452,0.315
2912621,-8041.0,-3639.0,-483.0,0.597,-0.588,0.447,0.313
2912638,-7555.0,-3771.0,-611.0,0.6,-0.59,0.443,0.31
2912655,-7937.0,-2373.0,35.0,0.603,-0.591,0.438,0.308
2912672,-7449.0,-2737.0,-189.0,0.605,-0.593,0.434,0.307
2912688,-7135.0,-4061.0,-517.0,0.605,-0.595,0.431,0.306
2912704,-7335.0,-4531.0,-407.0,0.606,-0.597,0.429,0.304
2912721,-7953.0,-3013.0,-129.0,0.607,-0.599,0.426,0.302
2912737,-7391.0,-4253.0,-189.0,0.607,-0.601,0.424,0.302
2912764,-6953.0,-4469.0,-191.0,0.607,-0.602,0.422,0.301
2912780,-6877.0,-3651.0,-155.0,0.608,-0.603,0.42,0.3
2912796,-6857.0,-4299.0,-301.0,0.609,-0.604,0.419,0.299
2912812,-7259.0,-3659.0,-263.0,0.61,-0.604,0.418,0.298
2912828,-7645.0,-3801.0,-299.0,0.61,-0.605,0.417,0.298
2912844,-7891.0,-4197.0,-309.0,0.61,-0.605,0.416,0.299
2912870,-8045.0,-3871.0,-221.0,0.61,-0.604,0.415,0.3
2912887,-7915.0,-4045.0,-271.0,0.611,-0.603,0.414,0.303
2912905,-8113.0,-3675.0,-145.0,0.612,-0.601,0.413,0.305
2912922,-8431.0,-4033.0,-145.0,0.613,-0.599,0.413,0.308
2912939,-8873.0,-4711.0,-171.0,0.614,-0.597,0.412,0.31
2912956,-9343.0,-4775.0,-449.0,0.616,-0.594,0.413,0.312
2912972,-9979.0,-4719.0,-659.0,0.618,-0.592,0.413,0.313
2912988,-10797.0,-5419.0,-827.0,0.619,-0.59,0.413,0.314
2913005,-11099.0,-6687.0,-1083.0,0.62,-0.589,0.413,0.314
2913022,-11705.0,-6365.0,-1161.0,0.62,-0.588,0.413,0.314
2913039,-12405.0,-7197.0,-1187.0,0.62,-0.589,0.413,0.312
2913056,-12957.0,-7057.0,-1029.0,0.62,-0.591,0.413,0.31
2913073,-12963.0,-7291.0,-943.0,0.619,-0.594,0.412,0.307
2913099,-12283.0,-6665.0,-771.0,0.618,-0.597,0.412,0.304
2913115,-11453.0,-6353.0,-579.0,0.616,-0.6,0.411,0.301
2913131,-10253.0,-5289.0,-619.0,0.614,-0.604,0.412,0.298
2913147,-9291.0,-5123.0,-579.0,0.611,-0.607,0.413,0.295
2913163,-8447.0,-4939.0,-713.0,0.608,-0.611,0.415,0.291
2913180,-8223.0,-4157.0,-631.0,0.605,-0.615,0.417,0.287
2913206,-7837.0,-3621.0,-781.0,0.601,-0.618,0.42,0.284
2913222,-7651.0,-3647.0,-659.0,0.596,-0.621,0.423,0.282
2913239,-7345.0,-3895.0,-969.0,0.592,-0.623,0.427,0.28
2913256,-7361.0,-3351.0,-829.0,0.589,-0.625,0.43,0.279
2913273,-7187.0,-3133.0,-977.0,0.585,-0.626,0.433,0.279
2913290,-6691.0,-3471.0,-1083.0,0.583,-0.626,0.436,0.28
2913306,-6775.0,-2833.0,-851.0,0.58,-0.626,0.439,0.281
2913322,-6335.0,-2999.0,-1077.0,0.579,-0.624,0.442,0.283
2913339,-6513.0,-2681.0,-1425.0,0.577,-0.623,0.445,0.285
2913365,-6751.0,-3027.0,-1313.0,0.576,-0.622,0.447,0.287
2913381,-6477.0,-3175.0,-1705.0,0.575,-0.62,0.45,0.288
2913397,-7051.0,-2987.0,-1861.0,0.573,-0.619,0.452,0.29
2913413,-7209.0,-3551.0,-1751.0,0.572,-0.618,0.455,0.29
2913429,-7485.0,-2911.0,-1823.0,0.571,-0.615,0.457,0.293
2913445,-7095.0,-3125.0,-1841.0,0.57,-0.613,0.46,0.297
2913471,-6937.0,-3615.0,-1785.0,0.569,-0.61,0.462,0.302
2913488,-6437.0,-4099.0,-2255.0,0.568,-0.607,0.464,0.306
2913505,-7439.0,-2679.0,-1441.0,0.567,-0.604,0.466,0.311
2913521,-6815.0,-2677.0,-1427.0,0.566,-0.6,0.468,0.318
2913537,-5855.0,-4329.0,-1945.0,0.565,-0.595,0.47,0.326
2913554,-6077.0,-3351.0,-1551.0,0.565,-0.59,0.472,0.332
2913571,-6183.0,-2303.0,-1347.0,0.565,-0.584,0.474,0.339
2913588,-5719.0,-3787.0,-1765.0,0.564,-0.578,0.476,0.348
2913605,-5939.0,-3709.0,-1467.0,0.566,-0.572,0.478,0.354
2913631,-6083.0,-2829.0,-1325.0,0.568,-0.564,0.479,0.361
2913647,-5555.0,-1483.0,-1121.0,0.57,-0.555,0.48,0.37
2913663,-4649.0,-2579.0,-1141.0,0.571,-0.546,0.481,0.38
2913679,-3901.0,-1903.0,-1067.0,0.574,-0.536,0.481,0.389
2913695,-3479.0,-733.0,-917.0,0.576,-0.527,0.481,0.398
2913711,-3437.0,-1049.0,-591.0,0.576,-0.521,0.481,0.408
2913737,-3291.0,-1799.0,-315.0,0.576,-0.516,0.479,0.416
2913754,-2949.0,-2719.0,-399.0,0.578,-0.513,0.476,0.42
2913771,-2827.0,-2009.0,-137.0,0.58,-0.512,0.474,0.421
2913787,-2805.0,-1969.0,-175.0,0.583,-0.512,0.472,0.419
2913804,-3025.0,215.0,57.0,0.584,-0.514,0.471,0.416
2913820,-2925.0,-797.0,285.0,0.585,-0.518,0.469,0.412
2913836,-2543.0,-995.0,195.0,0.584,-0.523,0.468,0.408
2913852,-3085.0,-345.0,533.0,0.583,-0.529,0.467,0.403
2913879,-3561.0,-277.0,1167.0,0.581,-0.536,0.465,0.4
2913895,-4251.0,-595.0,1029.0,0.578,-0.541,0.463,0.397
2913911,-3935.0,-2783.0,965.0,0.577,-0.545,0.463,0.395
2913927,-3981.0,-4941.0,-1093.0,0.578,-0.548,0.464,0.388
2913943,-6357.0,-2391.0,707.0,0.58,-0.553,0.465,0.375
2913959,-8875.0,-605.0,115.0,0.582,-0.556,0.466,0.368
2913985,-8405.0,-2911.0,-361.0,0.583,-0.557,0.467,0.363
2914002,-7719.0,-4293.0,-1011.0,0.585,-0.557,0.469,0.356
2914019,-9289.0,-2405.0,-905.0,0.588,-0.558,0.47,0.35
2914036,-9739.0,-2689.0,-647.0,0.59,-0.558,0.472,0.344
2914053,-9691.0,-3799.0,-645.0,0.591,-0.558,0.473,0.339
2914070,-10229.0,-4369.0,-645.0,0.594,-0.557,0.475,0.333
2914087,-11163.0,-3189.0,21.0,0.599,-0.555,0.475,0.328
2914103,-9987.0,-3789.0,-367.0,0.603,-0.552,0.475,0.324
2914120,-9977.0,-4249.0,-363.0,0.609,-0.549,0.475,0.321
2914137,-10003.0,-3599.0,-349.0,0.614,-0.545,0.475,0.316
2914154,-9761.0,-3847.0,-267.0,0.62,-0.541,0.475,0.312
2914171,-9945.0,-2925.0,-101.0,0.626,-0.537,0.474,0.309
2914197,-9121.0,-3063.0,-185.0,0.63,-0.533,0.473,0.307
2914213,-8779.0,-2759.0,-169.0,0.634,-0.53,0.473,0.306
2914229,-8479.0,-2041.0,127.0,0.637,-0.527,0.473,0.306
2914245,-8317.0,-2085.0,415.0,0.639,-0.525,0.472,0.307
2914262,-7707.0,-2793.0,573.0,0.64,-0.523,0.471,0.308
2914278,-7227.0,-2231.0,555.0,0.641,-0.521,0.471,0.31
2914304,-7353.0,-1517.0,751.0,0.642,-0.519,0.471,0.311
2914320,-7227.0,-1751.0,839.0,0.641,-0.518,0.47,0.314
2914336,-6811.0,-1843.0,677.0,0.641,-0.518,0.47,0.317
2914353,-6851.0,-1901.0,519.0,0.639,-0.517,0.471,0.32
2914370,-7295.0,-1657.0,675.0,0.638,-0.517,0.471,0.322
2914387,-7549.0,-1537.0,459.0,0.635,-0.518,0.472,0.324
2914403,-8081.0,-1619.0,539.0,0.632,-0.52,0.472,0.327
2914420,-8355.0,-1437.0,403.0,0.628,-0.522,0.472,0.331
2914436,-9305.0,-1587.0,383.0,0.624,-0.525,0.472,0.334
2914463,-9657.0,-3011.0,157.0,0.619,-0.53,0.471,0.337
2914479,-10419.0,-3209.0,-51.0,0.615,-0.535,0.47,0.339
2914495,-11499.0,-3727.0,-139.0,0.61,-0.542,0.469,0.338
2914511,-12207.0,-3887.0,-439.0,0.605,-0.55,0.468,0.336
2914527,-12259.0,-4955.0,-903.0,0.598,-0.559,0.467,0.334
2914543,-12233.0,-5225.0,-1545.0,0.592,-0.569,0.466,0.33
2914569,-12269.0,-6097.0,-2025.0,0.584,-0.581,0.465,0.325
2914586,-12423.0,-5933.0,-1987.0,0.576,-0.593,0.464,0.319
2914603,-11689.0,-6451.0,-2339.0,0.569,-0.603,0.463,0.312
2914620,-10975.0,-5831.0,-2635.0,0.564,-0.613,0.462,0.305
2914637,-10661.0,-5847.0,-2863.0,0.559,-0.621,0.461,0.298
2914654,-10531.0,-5175.0,-2549.0,0.556,-0.628,0.46,0.292
2914670,-9341.0,-4647.0,-2923.0,0.554,-0.633,0.459,0.286
2914687,-9039.0,-4583.0,-2845.0,0.552,-0.637,0.458,0.281
2914703,-8831.0,-4029.0,-2821.0,0.55,-0.641,0.458,0.277
2914720,-8453.0,-4053.0,-2759.0,0.549,-0.644,0.458,0.274
2914737,-7999.0,-4535.0,-2765.0,0.548,-0.646,0.458,0.271
2914764,-8055.0,-2991.0,-2527.0,0.547,-0.647,0.459,0.269
2914780,-7531.0,-3335.0,-2593.0,0.546,-0.646,0.461,0.269
2914796,-7145.0,-3893.0,-2619.0,0.545,-0.646,0.463,0.269
2914812,-7281.0,-3391.0,-2169.0,0.544,-0.644,0.465,0.269
2914828,-6885.0,-2485.0,-2337.0,0.543,-0.642,0.469,0.27
2914844,-6623.0,-3299.0,-2225.0,0.542,-0.64,0.473,0.272
2914870,-6441.0,-3165.0,-2159.0,0.541,-0.637,0.477,0.274
2914887,-6405.0,-2577.0,-2075.0,0.54,-0.633,0.481,0.276
2914904,-6181.0,-3261.0,-2195.0,0.539,-0.629,0.486,0.278
2914921,-6191.0,-2673.0,-2459.0,0.538,-0.625,0.491,0.28
2914937,-6535.0,-2435.0,-2239.0,0.537,-0.621,0.495,0.283
2914953,-6771.0,-2609.0,-2243.0,0.536,-0.617,0.5,0.286
2914970,-6429.0,-2803.0,-2411.0,0.536,-0.611,0.505,0.291
2914987,-6509.0,-3625.0,-2831.0,0.536,-0.607,0.509,0.293
2915004,-7355.0,-3073.0,-3557.0,0.536,-0.602,0.513,0.295
2915021,-8727.0,-3081.0,-3211.0,0.536,-0.598,0.517,0.297
2915038,-8761.0,-3157.0,-3141.0,0.538,-0.591,0.52,0.301
2915064,-8659.0,-1153.0,-1841.0,0.541,-0.582,0.522,0.31
2915080,-6409.0,299.0,-1617.0,0.544,-0.571,0.524,0.323
2915096,-4499.0,-2645.0,-1981.0,0.546,-0.559,0.524,0.338
2915112,-4389.0,-2555.0,-1249.0,0.551,-0.547,0.524,0.35
2915128,-4253.0,-1885.0,-743.0,0.556,-0.538,0.521,0.361
2915144,-3957.0,-1717.0,-759.0,0.561,-0.528,0.519,0.371
2915170,-3347.0,315.0,87.0,0.566,-0.518,0.516,0.381
2915186,-2045.0,-1777.0,-989.0,0.569,-0.509,0.514,0.391
2915203,-2535.0,-4349.0,-663.0,0.572,-0.501,0.515,0.396
2915219,-3011.0,-149.0,79.0,0.576,-0.494,0.517,0.397
2915236,-3645.0,-1027.0,9.0,0.578,-0.49,0.518,0.398
2915253,-4107.0,-1525.0,169.0,0.58,-0.488,0.518,0.398
2915270,-4135.0,-3209.0,161.0,0.583,-0.488,0.516,0.394
2915286,-3919.0,-197.0,245.0,0.587,-0.49,0.514,0.388
2915312,-3933.0,753.0,393.0,0.589,-0.496,0.511,0.383
2915328,-2815.0,-719.0,281.0,0.589,-0.503,0.506,0.379
2915344,-2535.0,-1491.0,325.0,0.587,-0.512,0.503,0.374
2915361,-3311.0,-577.0,595.0,0.585,-0.522,0.5,0.368
2915377,-4037.0,-2253.0,147.0,0.582,-0.532,0.498,0.361
2915393,-5031.0,-2005.0,-81.0,0.579,-0.542,0.496,0.353
2915410,-6199.0,-4373.0,-657.0,0.575,-0.554,0.494,0.344
2915436,-7749.0,-2977.0,-879.0,0.572,-0.564,0.493,0.335
2915453,-8157.0,-3817.0,-725.0,0.569,-0.573,0.492,0.326
2915469,-7491.0,-3833.0,-1871.0,0.567,-0.579,0.491,0.318
2915486,-8063.0,-4019.0,-1739.0,0.566,-0.586,0.491,0.31
2915503,-8539.0,-3727.0,-1775.0,0.564,-0.593,0.489,0.302
2915520,-9317.0,-3055.0,-1247.0,0.562,-0.6,0.486,0.295
2915537,-8661.0,-4389.0,-1439.0,0.562,-0.605,0.483,0.291
2915554,-8123.0,-3163.0,-1331.0,0.564,-0.609,0.48,0.286
2915570,-8141.0,-3001.0,-1549.0,0.565,-0.613,0.475,0.283
2915596,-8551.0,-3967.0,-1165.0,0.565,-0.618,0.47,0.279
2915612,-8255.0,-4827.0,-1403.0,0.567,-0.622,0.465,0.275
2915628,-7811.0,-3511.0,-1855.0,0.569,-0.625,0.46,0.272
2915645,-8163.0,-4427.0,-1675.0,0.571,-0.628,0.455,0.268
2915661,-7997.0,-3583.0,-1745.0,0.572,-0.631,0.451,0.266
2915677,-7933.0,-3581.0,-1717.0,0.572,-0.634,0.447,0.266
2915693,-7253.0,-4169.0,-1755.0,0.572,-0.637,0.443,0.267
2915719,-6963.0,-4051.0,-2027.0,0.57,-0.64,0.439,0.268
2915736,-7069.0,-3891.0,-1779.0,0.568,-0.644,0.435,0.269
2915752,-7117.0,-3471.0,-1565.0,0.566,-0.648,0.432,0.271
2915769,-6755.0,-3935.0,-1517.0,0.563,-0.652,0.429,0.273
2915786,-6571.0,-3739.0,-1571.0,0.56,-0.655,0.425,0.276
2915802,-6835.0,-3885.0,-1357.0,0.558,-0.659,0.422,0.277
2915819,-6861.0,-3337.0,-1649.0,0.555,-0.662,0.419,0.279
2915836,-7105.0,-3751.0,-1435.0,0.553,-0.665,0.416,0.281
2915852,-6903.0,-3861.0,-1705.0,0.55,-0.668,0.414,0.283
2915879,-7085.0,-4093.0,-1637.0,0.548,-0.671,0.411,0.284
2915895,-7213.0,-3357.0,-1819.0,0.547,-0.673,0.409,0.286
2915911,-7369.0,-4013.0,-1795.0,0.545,-0.675,0.407,0.288
2915927,-7449.0,-3829.0,-1913.0,0.544,-0.676,0.404,0.29
2915943,-7511.0,-3885.0,-1869.0,0.543,-0.677,0.403,0.292
2915959,-7637.0,-3977.0,-1879.0,0.542,-0.677,0.401,0.294
2915985,-7807.0,-3769.0,-1767.0,0.543,-0.677,0.399,0.296
2916002,-7775.0,-4095.0,-2065.0,0.544,-0.676,0.397,0.299
2916019,-8155.0,-4393.0,-2187.0,0.546,-0.676,0.394,0.3
2916036,-9091.0,-4649.0,-2219.0,0.548,-0.675,0.392,0.302
2916052,-9559.0,-5161.0,-2281.0,0.552,-0.673,0.388,0.304
2916069,-9667.0,-5385.0,-2937.0,0.555,-0.671,0.384,0.305
2916086,-10245.0,-7497.0,-2735.0,0.559,-0.67,0.38,0.306
2916103,-10549.0,-7125.0,-1805.0,0.562,-0.67,0.376,0.306
2916119,-10897.0,-7509.0,-2547.0,0.565,-0.671,0.371,0.305
2916136,-10691.0,-7603.0,-2479.0,0.568,-0.672,0.367,0.304
2916162,-11065.0,-7231.0,-2101.0,0.57,-0.672,0.363,0.302
2916178,-10135.0,-7179.0,-2177.0,0.571,-0.674,0.359,0.301
2916194,-9245.0,-6679.0,-1951.0,0.571,-0.676,0.357,0.299
2916210,-8813.0,-6743.0,-1951.0,0.57,-0.679,0.356,0.295
2916226,-8873.0,-5409.0,-1735.0,0.568,-0.683,0.356,0.291
2916242,-8287.0,-5775.0,-1957.0,0.564,-0.687,0.357,0.287
2916268,-8099.0,-5661.0,-2067.0,0.56,-0.691,0.359,0.283
2916285,-8087.0,-5229.0,-2283.0,0.556,-0.694,0.362,0.279
2916302,-7995.0,-5053.0,-2465.0,0.551,-0.697,0.366,0.276
2916319,-8021.0,-4911.0,-2367.0,0.546,-0.7,0.37,0.274
2916336,-7675.0,-4619.0,-2391.0,0.542,-0.702,0.374,0.272
2916353,-7105.0,-4981.0,-2649.0,0.537,-0.703,0.379,0.271
2916369,-7217.0,-4097.0,-2473.0,0.533,-0.704,0.383,0.27
2916386,-7013.0,-3699.0,-2247.0,0.53,-0.704,0.388,0.271
2916402,-6901.0,-4247.0,-2177.0,0.527,-0.703,0.393,0.272
2916419,-6347.0,-4117.0,-2831.0,0.526,-0.701,0.397,0.273
2916436,-6813.0,-3897.0,-2569.0,0.525,-0.698,0.402,0.275
2916463,-6681.0,-3477.0,-2869.0,0.524,-0.695,0.408,0.277
2916479,-7031.0,-4053.0,-2375.0,0.523,-0.691,0.413,0.28
2916495,-6625.0,-3555.0,-2485.0,0.524,-0.686,0.418,0.283
2916511,-6167.0,-3653.0,-2575.0,0.525,-0.681,0.423,0.287
2916527,-6089.0,-3459.0,-2579.0,0.526,-0.675,0.428,0.291
2916543,-6085.0,-3319.0,-2545.0,0.527,-0.669,0.433,0.296
2916569,-6425.0,-3445.0,-2269.0,0.528,-0.663,0.438,0.3
2916589,-6299.0,-3433.0,-2369.0,0.529,-0.656,0.443,0.305
2916605,-6063.0,-2633.0,-2569.0,0.531,-0.649,0.448,0.309
2916621,-6191.0,-2875.0,-2201.0,0.532,-0.643,0.452,0.315
2916637,-6105.0,-2681.0,-2161.0,0.532,-0.636,0.456,0.322
2916654,-6087.0,-2863.0,-2015.0,0.533,-0.63,0.459,0.328
2916671,-6121.0,-3423.0,-2185.0,0.534,-0.625,0.461,0.334
2916687,-6753.0,-2667.0,-2519.0,0.535,-0.62,0.462,0.34
2916704,-7653.0,-2277.0,-1789.0,0.535,-0.617,0.461,0.347
2916721,-7359.0,-2531.0,-1661.0,0.534,-0.613,0.459,0.358
2916737,-5891.0,-2789.0,-2227.0,0.533,-0.608,0.457,0.37
2916764,-5609.0,-2589.0,-1773.0,0.533,-0.606,0.454,0.379
2916780,-5461.0,-1415.0,-1191.0,0.53,-0.604,0.451,0.389
2916796,-4621.0,-1779.0,-1435.0,0.526,-0.602,0.448,0.4
2916812,-5263.0,-3265.0,-651.0,0.523,-0.6,0.447,0.409
2916828,-3961.0,-817.0,-1229.0,0.519,-0.598,0.445,0.418
2916845,-4299.0,-2567.0,-961.0,0.515,-0.596,0.446,0.425
2916862,-5125.0,-1355.0,-81.0,0.512,-0.595,0.445,0.431
2916888,-4645.0,-861.0,-507.0,0.509,-0.594,0.443,0.438
2916905,-3785.0,-1459.0,-359.0,0.507,-0.594,0.439,0.445
2916924,-3221.0,-1481.0,-445.0,0.506,-0.595,0.435,0.448
2916940,-3005.0,-2797.0,-167.0,0.506,-0.598,0.43,0.448
2916956,-2823.0,483.0,-81.0,0.508,-0.603,0.425,0.445
2916972,-2585.0,-353.0,-343.0,0.507,-0.608,0.42,0.443
2916988,-2861.0,-2563.0,-1007.0,0.506,-0.616,0.417,0.437
2917004,-4821.0,-571.0,-695.0,0.505,-0.624,0.413,0.43
2917030,-5673.0,-1965.0,-515.0,0.505,-0.63,0.411,0.424
2917046,-5169.0,-2125.0,-1117.0,0.504,-0.634,0.41,0.419
2917062,-5347.0,-2545.0,-911.0,0.505,-0.638,0.409,0.413
2917078,-5515.0,-3227.0,-779.0,0.506,-0.641,0.409,0.407
2917094,-5735.0,-3445.0,-1289.0,0.51,-0.643,0.41,0.399
2917110,-6679.0,-3845.0,-1759.0,0.513,-0.645,0.412,0.389
2917136,-8421.0,-4311.0,-1237.0,0.518,-0.647,0.413,0.378
2917153,-9189.0,-2779.0,-1065.0,0.525,-0.644,0.416,0.369
2917170,-8113.0,-2875.0,-1335.0,0.532,-0.641,0.418,0.363
2917186,-7287.0,-4549.0,-1609.0,0.539,-0.638,0.419,0.356
2917203,-7759.0,-4273.0,-1753.0,0.547,-0.634,0.421,0.348
2917220,-8725.0,-2849.0,-1099.0,0.556,-0.629,0.423,0.34
2917237,-8805.0,-2249.0,-661.0,0.564,-0.624,0.423,0.335
2917254,-7867.0,-4185.0,-1271.0,0.572,-0.62,0.424,0.331
2917270,-8325.0,-3281.0,-833.0,0.58,-0.614,0.424,0.325
2917287,-8155.0,-2289.0,-681.0,0.588,-0.609,0.424,0.322
2917304,-7775.0,-2841.0,-475.0,0.594,-0.604,0.424,0.32
2917321,-7427.0,-2963.0,-621.0,0.6,-0.6,0.424,0.317
2917347,-7691.0,-3117.0,-241.0,0.605,-0.596,0.423,0.315
2917363,-7161.0,-3243.0,-385.0,0.609,-0.594,0.422,0.313
2917379,-7133.0,-2661.0,-47.0,0.613,-0.592,0.42,0.311
2917395,-7059.0,-2271.0,189.0,0.616,-0.59,0.419,0.312
2917411,-6861.0,-2805.0,263.0,0.617,-0.588,0.418,0.314
2917437,-6915.0,-2643.0,417.0,0.618,-0.587,0.417,0.317
2917453,-7049.0,-2287.0,205.0,0.617,-0.587,0.415,0.319
2917469,-7939.0,-3285.0,507.0,0.617,-0.588,0.413,0.322
2917485,-8005.0,-2873.0,251.0,0.616,-0.588,0.412,0.325
2917502,-8919.0,-2433.0,207.0,0.614,-0.589,0.41,0.328
2917518,-9403.0,-3225.0,-95.0,0.612,-0.591,0.409,0.331
2917535,-9995.0,-4945.0,-393.0,0.61,-0.593,0.407,0.333
2917552,-10771.0,-3435.0,-649.0,0.609,-0.595,0.405,0.333
2917569,-12069.0,-5779.0,-485.0,0.607,-0.599,0.403,0.333
2917595,-12343.0,-7139.0,-777.0,0.606,-0.603,0.4,0.331
2917612,-12897.0,-6901.0,-1039.0,0.605,-0.607,0.396,0.328
2917629,-13275.0,-7917.0,-933.0,0.604,-0.612,0.393,0.326
2917645,-12233.0,-9641.0,-1113.0,0.603,-0.616,0.39,0.323
2917661,-11521.0,-8353.0,-1089.0,0.603,-0.62,0.388,0.318
2917678,-11031.0,-7417.0,-995.0,0.602,-0.625,0.386,0.313
2917695,-10059.0,-7265.0,-1123.0,0.6,-0.63,0.386,0.307
2917711,-9259.0,-6409.0,-1301.0,0.596,-0.636,0.386,0.302
2917737,-8801.0,-6667.0,-1553.0,0.591,-0.643,0.387,0.295
2917754,-8983.0,-5363.0,-1407.0,0.586,-0.65,0.389,0.288
2917770,-8611.0,-5363.0,-1657.0,0.58,-0.656,0.392,0.281
2917787,-8573.0,-5399.0,-1551.0,0.574,-0.661,0.396,0.276
2917804,-8467.0,-4547.0,-1487.0,0.57,-0.665,0.4,0.27
2917821,-7815.0,-3953.0,-1715.0,0.565,-0.668,0.404,0.267
2917837,-7443.0,-4621.0,-1941.0,0.56,-0.671,0.409,0.263
2917854,-7739.0,-4103.0,-1805.0,0.557,-0.673,0.413,0.259
2917871,-7633.0,-3303.0,-1735.0,0.554,-0.673,0.417,0.257
2917897,-7265.0,-3337.0,-1537.0,0.551,-0.673,0.421,0.257
2917913,-6589.0,-4063.0,-1795.0,0.549,-0.673,0.424,0.257
2917929,-6841.0,-4305.0,-1551.0,0.548,-0.673,0.426,0.255
2917945,-6873.0,-3495.0,-1565.0,0.548,-0.673,0.428,0.254
2917961,-6691.0,-3669.0,-1465.0,0.547,-0.672,0.431,0.254
2917977,-6057.0,-4611.0,-1727.0,0.546,-0.67,0.434,0.253
2917994,-6383.0,-3915.0,-1729.0,0.545,-0.669,0.438,0.252
2918020,-5433.0,-2675.0,-2525.0,0.543,-0.667,0.444,0.251
2918037,-5663.0,-3367.0,-2553.0,0.539,-0.667,0.449,0.251
2918053,-6325.0,-2549.0,-2265.0,0.534,-0.666,0.456,0.252
2918070,-5987.0,-3645.0,-2603.0,0.53,-0.665,0.462,0.254
2918086,-5623.0,-3565.0,-2853.0,0.526,-0.663,0.468,0.256
2918103,-5847.0,-3475.0,-2829.0,0.523,-0.661,0.473,0.256
2918119,-6271.0,-3297.0,-2897.0,0.52,-0.659,0.478,0.257
2918136,-6837.0,-2559.0,-2615.0,0.519,-0.656,0.483,0.259
2918163,-6329.0,-3501.0,-3097.0,0.519,-0.651,0.488,0.263
2918179,-5835.0,-4673.0,-3655.0,0.52,-0.646,0.492,0.266
2918195,-6745.0,-3385.0,-3611.0,0.522,-0.641,0.495,0.268
2918211,-7705.0,-3779.0,-3515.0,0.526,-0.634,0.498,0.271
2918227,-7795.0,-5313.0,-3981.0,0.532,-0.625,0.5,0.276
2918244,-7759.0,-3105.0,-3709.0,0.541,-0.616,0.5,0.281
2918260,-7229.0,-3609.0,-3471.0,0.549,-0.606,0.498,0.288
2918277,-6489.0,-2487.0,-3037.0,0.556,-0.596,0.497,0.298
2918303,-5647.0,-3535.0,-2793.0,0.563,-0.584,0.495,0.31
2918320,-5351.0,-2877.0,-2197.0,0.57,-0.573,0.494,0.321
2918337,-4201.0,-539.0,-1951.0,0.574,-0.563,0.493,0.333
2918353,-2621.0,-949.0,-2007.0,0.574,-0.555,0.493,0.347
2918370,-2099.0,-2949.0,-1917.0,0.572,-0.547,0.495,0.358
2918387,-2125.0,-2083.0,-1515.0,0.57,-0.54,0.5,0.366
2918404,-2495.0,-1033.0,-1121.0,0.567,-0.535,0.505,0.37
2918420,-2867.0,-1991.0,-757.0,0.565,-0.531,0.51,0.372
2918437,-2783.0,-1611.0,-729.0,0.565,-0.529,0.512,0.372
2918463,-2751.0,-1915.0,-575.0,0.566,-0.529,0.513,0.368
2918479,-2635.0,-467.0,-341.0,0.569,-0.531,0.512,0.364
2918496,-2487.0,-43.0,-145.0,0.57,-0.535,0.509,0.359
2918513,-3039.0,-2647.0,-157.0,0.571,-0.541,0.505,0.354
2918529,-3381.0,-1155.0,-355.0,0.573,-0.548,0.501,0.348
2918545,-4877.0,-2147.0,31.0,0.574,-0.554,0.496,0.343
2918561,-5663.0,-2841.0,81.0,0.576,-0.558,0.492,0.34
2918587,-5341.0,-3561.0,-171.0,0.579,-0.56,0.488,0.336
2918604,-5045.0,-4831.0,-919.0,0.583,-0.563,0.484,0.33
2918621,-6985.0,-3799.0,-909.0,0.587,-0.567,0.48,0.322
2918637,-7901.0,-4057.0,-553.0,0.591,-0.57,0.477,0.314
2918653,-7887.0,-2881.0,-511.0,0.595,-0.572,0.474,0.308
2918670,-7255.0,-2897.0,-345.0,0.598,-0.574,0.471,0.303
2918687,-6985.0,-4389.0,-461.0,0.6,-0.577,0.468,0.298
2918703,-7355.0,-3815.0,-575.0,0.602,-0.58,0.465,0.292
2918720,-7981.0,-3763.0,-169.0,0.605,-0.583,0.462,0.284
2918737,-8169.0,-2143.0,-1.0,0.607,-0.585,0.46,0.28
2918763,-8133.0,-2725.0,343.0,0.608,-0.587,0.457,0.278
2918779,-7027.0,-5047.0,-729.0,0.609,-0.588,0.454,0.276
2918795,-7423.0,-3803.0,-651.0,0.612,-0.589,0.452,0.272
2918811,-8429.0,-3063.0,-145.0,0.614,-0.59,0.45,0.269
2918828,-8631.0,-2963.0,-111.0,0.616,-0.591,0.447,0.268
2918845,-7781.0,-4355.0,-853.0,0.617,-0.591,0.445,0.268
2918861,-8427.0,-3369.0,-513.0,0.618,-0.591,0.442,0.269
2918887,-8261.0,-3527.0,-639.0,0.619,-0.592,0.439,0.272
2918903,-8457.0,-3783.0,-575.0,0.62,-0.592,0.436,0.275
2918920,-8145.0,-5241.0,-905.0,0.621,-0.593,0.432,0.276
2918942,-9063.0,-3679.0,-633.0,0.622,-0.594,0.427,0.279
2918958,-8965.0,-4911.0,-701.0,0.622,-0.596,0.422,0.281
2918974,-8855.0,-4545.0,-619.0,0.622,-0.598,0.418,0.284
2918990,-8463.0,-4601.0,-651.0,0.621,-0.6,0.414,0.289
2919006,-8113.0,-4677.0,-631.0,0.62,-0.601,0.411,0.293
2919022,-7753.0,-4145.0,-679.0,0.617,-0.604,0.408,0.296
2919039,-7847.0,-4165.0,-665.0,0.613,-0.608,0.406,0.3
2919065,-7895.0,-3793.0,-497.0,0.609,-0.612,0.403,0.303
2919082,-7851.0,-3831.0,-577.0,0.605,-0.616,0.402,0.306
2919099,-7997.0,-3833.0,-527.0,0.6,-0.62,0.4,0.309
2919116,-8387.0,-3653.0,-519.0,0.595,-0.625,0.398,0.312
2919133,-8349.0,-5039.0,-825.0,0.591,-0.629,0.396,0.313
2919150,-8873.0,-4969.0,-1117.0,0.588,-0.633,0.394,0.313
2919167,-9789.0,-4601.0,-1331.0,0.585,-0.637,0.393,0.312
2919184,-9937.0,-5513.0,-1817.0,0.582,-0.64,0.392,0.313
2919201,-9961.0,-6475.0,-2185.0,0.58,-0.643,0.391,0.312
2919218,-10411.0,-6649.0,-2351.0,0.578,-0.647,0.39,0.31
2919235,-11269.0,-6849.0,-2043.0,0.576,-0.65,0.389,0.308
2919251,-10909.0,-7237.0,-2191.0,0.574,-0.652,0.389,0.307
2919278,-10527.0,-7233.0,-2081.0,0.572,-0.654,0.389,0.307
2919294,-9997.0,-7035.0,-2065.0,0.571,-0.655,0.389,0.306
2919310,-10009.0,-6281.0,-1715.0,0.57,-0.655,0.391,0.305
2919326,-9685.0,-5671.0,-1529.0,0.569,-0.656,0.392,0.304
2919342,-9115.0,-5337.0,-1673.0,0.568,-0.655,0.394,0.304
2919358,-8881.0,-4989.0,-1731.0,0.567,-0.655,0.397,0.303
2919384,-8723.0,-4543.0,-1627.0,0.567,-0.654,0.399,0.302
2919401,-8341.0,-4211.0,-1903.0,0.566,-0.654,0.402,0.301
2919418,-8579.0,-3945.0,-2023.0,0.566,-0.654,0.404,0.299
2919435,-8483.0,-4557.0,-2349.0,0.565,-0.654,0.407,0.296
2919452,-8693.0,-3677.0,-2353.0,0.564,-0.653,0.411,0.293
2919469,-8311.0,-4017.0,-2835.0,0.562,-0.653,0.416,0.291
2919486,-8687.0,-3447.0,-2513.0,0.56,-0.653,0.421,0.288
2919502,-8127.0,-3371.0,-2529.0,0.557,-0.652,0.426,0.288
2919519,-7609.0,-3459.0,-2295.0,0.554,-0.651,0.431,0.288
2919536,-7077.0,-3039.0,-2075.0,0.552,-0.649,0.436,0.289
2919552,-6781.0,-3133.0,-1971.0,0.551,-0.646,0.441,0.291
2919569,-6741.0,-3001.0,-1477.0,0.55,-0.642,0.445,0.293
2919595,-6121.0,-3671.0,-1883.0,0.551,-0.638,0.45,0.296
2919612,-6501.0,-2267.0,-1385.0,0.553,-0.632,0.453,0.299
2919628,-6061.0,-3333.0,-1649.0,0.555,-0.627,0.456,0.303
2919644,-6155.0,-2855.0,-1641.0,0.557,-0.621,0.459,0.307
2919660,-6305.0,-2437.0,-1405.0,0.559,-0.614,0.462,0.312
2919677,-6089.0,-3599.0,-1993.0,0.561,-0.607,0.464,0.318
2919703,-6529.0,-3919.0,-1863.0,0.565,-0.6,0.467,0.322
2919720,-7459.0,-3427.0,-1789.0,0.569,-0.593,0.468,0.325
2919736,-8531.0,-2567.0,-1251.0,0.573,-0.586,0.467,0.331
2919753,-8255.0,-2805.0,-1221.0,0.578,-0.579,0.464,0.339
2919769,-7343.0,-2915.0,-1359.0,0.583,-0.571,0.461,0.349
2919786,-5875.0,-1441.0,-1955.0,0.587,-0.562,0.458,0.361
2919803,-6057.0,-1369.0,-735.0,0.59,-0.553,0.455,0.373
2919820,-5383.0,-1623.0,-517.0,0.592,-0.544,0.453,0.386
2919837,-5277.0,-1361.0,105.0,0.593,-0.535,0.45,0.399
2919853,-3815.0,-445.0,399.0,0.593,-0.528,0.446,0.413
2919879,-2721.0,-875.0,201.0,0.592,-0.523,0.442,0.426
2919895,-2125.0,-2185.0,319.0,0.589,-0.519,0.439,0.436
2919911,-1973.0,-2863.0,171.0,0.588,-0.518,0.438,0.442
2919927,-2015.0,-2917.0,547.0,0.587,-0.517,0.439,0.442
2919943,-2471.0,-1583.0,751.0,0.588,-0.517,0.441,0.438
2919959,-3061.0,-2325.0,661.0,0.589,-0.52,0.444,0.432
2919985,-3505.0,295.0,391.0,0.589,-0.523,0.446,0.424
2920001,-3537.0,869.0,-43.0,0.587,-0.531,0.446,0.418
2920018,-3475.0,-1747.0,167.0,0.583,-0.54,0.445,0.413
2920034,-4209.0,-1773.0,-25.0,0.579,-0.549,0.444,0.408
2920051,-5035.0,-1407.0,-153.0,0.575,-0.558,0.442,0.402
2920067,-5465.0,-3421.0,-557.0,0.571,-0.567,0.441,0.398
2920084,-6171.0,-3609.0,-533.0,0.569,-0.575,0.439,0.392
2920101,-7537.0,-5669.0,-1485.0,0.568,-0.581,0.439,0.384
2920118,-9965.0,-3873.0,-677.0,0.569,-0.586,0.437,0.376
2920145,-9851.0,-5547.0,-867.0,0.573,-0.587,0.436,0.371
2920161,-9047.0,-4145.0,-633.0,0.58,-0.584,0.434,0.367
2920178,-7641.0,-2319.0,-367.0,0.587,-0.579,0.432,0.365
2920194,-6625.0,-2377.0,257.0,0.594,-0.575,0.43,0.363
2920210,-5515.0,-1225.0,265.0,0.6,-0.573,0.427,0.359
2920226,-5743.0,-4627.0,105.0,0.604,-0.574,0.424,0.354
2920242,-6251.0,-4113.0,307.0,0.611,-0.574,0.422,0.346
2920268,-7297.0,-1413.0,631.0,0.617,-0.573,0.42,0.338
2920285,-7283.0,-1457.0,431.0,0.621,-0.572,0.42,0.333
2920302,-7147.0,-3723.0,229.0,0.624,-0.572,0.42,0.328
2920319,-6969.0,-3993.0,-81.0,0.627,-0.572,0.42,0.322
2920335,-7527.0,-3083.0,395.0,0.63,-0.572,0.421,0.316
2920352,-6937.0,-3881.0,-281.0,0.631,-0.573,0.421,0.311
2920369,-7969.0,-2927.0,253.0,0.632,-0.573,0.422,0.305
2920386,-7759.0,-3289.0,175.0,0.632,-0.575,0.422,0.302
2920402,-7677.0,-3239.0,171.0,0.632,-0.576,0.422,0.3
2920429,-7395.0,-4695.0,-113.0,0.632,-0.579,0.421,0.298
2920445,-7849.0,-3443.0,-37.0,0.632,-0.581,0.42,0.295
2920461,-7885.0,-4127.0,-155.0,0.631,-0.583,0.419,0.292
2920477,-8331.0,-3353.0,89.0,0.631,-0.585,0.417,0.291
2920493,-7947.0,-3305.0,-233.0,0.631,-0.588,0.415,0.291
2920509,-7799.0,-4045.0,-267.0,0.63,-0.59,0.413,0.292
2920525,-7575.0,-4171.0,-343.0,0.63,-0.592,0.41,0.292
2920552,-7777.0,-4201.0,-339.0,0.629,-0.594,0.408,0.291
2920569,-7935.0,-3969.0,-449.0,0.629,-0.596,0.406,0.291
2920586,-7915.0,-3705.0,-455.0,0.628,-0.598,0.404,0.292
2920603,-7795.0,-4195.0,-373.0,0.627,-0.6,0.402,0.293
2920619,-7753.0,-3955.0,-347.0,0.626,-0.602,0.399,0.295
2920636,-7727.0,-4629.0,-627.0,0.624,-0.604,0.398,0.296
2920653,-8115.0,-5047.0,-497.0,0.624,-0.605,0.396,0.297
2920669,-8239.0,-5901.0,-971.0,0.623,-0.607,0.395,0.297
2920686,-9833.0,-5299.0,-711.0,0.622,-0.608,0.394,0.296
2920703,-10243.0,-7287.0,-1257.0,0.622,-0.609,0.393,0.297
2920720,-10619.0,-8369.0,-1521.0,0.622,-0.609,0.393,0.297
2920737,-11735.0,-7753.0,-1153.0,0.623,-0.608,0.393,0.296
2920763,-11333.0,-8165.0,-1719.0,0.623,-0.607,0.393,0.297
2920780,-11643.0,-8551.0,-1157.0,0.623,-0.607,0.394,0.298
2920797,-10787.0,-7123.0,-1131.0,0.622,-0.606,0.396,0.3
2920814,-9945.0,-6997.0,-751.0,0.62,-0.606,0.399,0.3
2920831,-9839.0,-6225.0,-597.0,0.617,-0.606,0.402,0.301
2920848,-9099.0,-5339.0,-605.0,0.614,-0.607,0.405,0.301
2920865,-8791.0,-4563.0,-373.0,0.611,-0.607,0.41,0.3
2920882,-8261.0,-4153.0,-497.0,0.608,-0.608,0.414,0.3
2920899,-7973.0,-3781.0,-439.0,0.604,-0.608,0.419,0.299
2920916,-7581.0,-3793.0,-767.0,0.601,-0.608,0.424,0.299
2920938,-7903.0,-3123.0,-551.0,0.598,-0.608,0.429,0.299
2920954,-7367.0,-2929.0,-757.0,0.595,-0.607,0.434,0.3
2920970,-6691.0,-3409.0,-1205.0,0.592,-0.606,0.438,0.301
2920986,-6945.0,-3005.0,-1187.0,0.589,-0.606,0.442,0.3
2921012,-7277.0,-3143.0,-1103.0,0.587,-0.606,0.444,0.301
2921029,-7167.0,-2507.0,-1139.0,0.585,-0.606,0.447,0.302
2921047,-7175.0,-3001.0,-1325.0,0.583,-0.605,0.449,0.303
2921064,-7235.0,-3041.0,-1205.0,0.582,-0.605,0.451,0.304
2921081,-7227.0,-3093.0,-1351.0,0.58,-0.605,0.453,0.304
2921098,-7645.0,-2657.0,-1091.0,0.579,-0.604,0.454,0.306
2921115,-7467.0,-3347.0,-1193.0,0.578,-0.604,0.456,0.307
2921132,-7393.0,-2975.0,-1179.0,0.577,-0.603,0.457,0.308
2921150,-7195.0,-3095.0,-1339.0,0.575,-0.602,0.459,0.309
2921167,-7361.0,-3115.0,-1303.0,0.573,-0.602,0.461,0.311
2921184,-7465.0,-2735.0,-1225.0,0.572,-0.6,0.464,0.312
2921201,-7219.0,-3193.0,-1483.0,0.569,-0.599,0.467,0.314
2921218,-7375.0,-2883.0,-1241.0,0.568,-0.598,0.471,0.314
2921235,-7255.0,-2445.0,-1299.0,0.566,-0.596,0.475,0.315
2921252,-6843.0,-2443.0,-1567.0,0.563,-0.594,0.48,0.316
2921269,-6923.0,-3327.0,-1565.0,0.562,-0.591,0.486,0.315
2921286,-7295.0,-2499.0,-1789.0,0.561,-0.587,0.493,0.314
2921312,-7643.0,-2671.0,-1327.0,0.56,-0.583,0.5,0.312
2921328,-7391.0,-4505.0,-1485.0,0.561,-0.576,0.507,0.31
2921344,-7221.0,-3603.0,-1583.0,0.565,-0.567,0.515,0.306
2921360,-6367.0,-1801.0,-1951.0,0.569,-0.558,0.523,0.301
2921376,-6401.0,-1501.0,-2255.0,0.571,-0.551,0.531,0.297
2921393,-6351.0,-4237.0,-1937.0,0.571,-0.545,0.539,0.293
2921410,-7073.0,-2927.0,-1937.0,0.574,-0.539,0.545,0.288
2921436,-7609.0,-2473.0,-1653.0,0.577,-0.532,0.551,0.284
2921453,-7015.0,-3309.0,-2009.0,0.581,-0.523,0.556,0.281
2921469,-7269.0,-2673.0,-1753.0,0.586,-0.514,0.561,0.278
2921486,-7127.0,-2113.0,-1747.0,0.591,-0.505,0.565,0.276
2921502,-7039.0,-3365.0,-1739.0,0.596,-0.497,0.568,0.275
2921519,-7443.0,-1997.0,-1525.0,0.602,-0.488,0.57,0.274
2921535,-6711.0,-1433.0,-1497.0,0.606,-0.479,0.572,0.277
2921562,-6817.0,-3191.0,-1463.0,0.608,-0.471,0.574,0.28
2921578,-6651.0,-2283.0,-1271.0,0.612,-0.464,0.575,0.283
2921594,-5791.0,99.0,-1101.0,0.613,-0.458,0.575,0.289
2921610,-4993.0,-917.0,-989.0,0.613,-0.453,0.575,0.298
2921626,-4315.0,-1655.0,-655.0,0.613,-0.448,0.575,0.306
2921643,-3757.0,-1515.0,-309.0,0.614,-0.445,0.573,0.312
2921660,-3217.0,-1837.0,-13.0,0.616,-0.444,0.569,0.316
2921676,-2857.0,-1211.0,201.0,0.619,-0.445,0.564,0.317
2921702,-2207.0,-1513.0,-87.0,0.623,-0.448,0.559,0.315
2921719,-2293.0,-471.0,3.0,0.626,-0.451,0.554,0.313
2921735,-2717.0,-1403.0,203.0,0.629,-0.456,0.549,0.309
2921751,-2939.0,-35.0,105.0,0.631,-0.461,0.544,0.305
2921767,-3319.0,365.0,-89.0,0.632,-0.468,0.538,0.302
2921783,-4127.0,-1427.0,-149.0,0.633,-0.476,0.532,0.3
2921800,-3291.0,-1667.0,-1081.0,0.632,-0.483,0.527,0.3
2921817,-4803.0,-2429.0,-377.0,0.631,-0.492,0.521,0.297
2921844,-5403.0,-3681.0,-455.0,0.63,-0.5,0.516,0.295
2921861,-5995.0,-2145.0,-319.0,0.63,-0.506,0.512,0.291
2921877,-6211.0,-3181.0,43.0,0.63,-0.511,0.507,0.289
2921893,-6183.0,-5149.0,-265.0,0.632,-0.517,0.503,0.285
2921909,-7359.0,-2661.0,-261.0,0.634,-0.52,0.5,0.28
2921925,-7917.0,-3251.0,215.0,0.636,-0.521,0.498,0.277
2921942,-7451.0,-3925.0,-257.0,0.638,-0.52,0.497,0.274
2921959,-8229.0,-3557.0,159.0,0.641,-0.518,0.498,0.271
2921985,-8089.0,-3609.0,-127.0,0.644,-0.514,0.499,0.269
2922002,-8169.0,-3591.0,13.0,0.647,-0.509,0.501,0.266
2922018,-8149.0,-3031.0,-173.0,0.65,-0.503,0.504,0.263
2922034,-8773.0,-2891.0,247.0,0.653,-0.496,0.509,0.262
2922051,-8061.0,-2923.0,-277.0,0.657,-0.487,0.514,0.26
2922068,-8401.0,-2599.0,-189.0,0.659,-0.476,0.52,0.259
2922085,-8207.0,-2939.0,-491.0,0.663,-0.465,0.528,0.258
2922101,-9351.0,-2149.0,-265.0,0.666,-0.451,0.535,0.257
2922118,-9307.0,-2573.0,-575.0,0.671,-0.435,0.542,0.257
2922145,-9453.0,-3005.0,-771.0,0.677,-0.417,0.549,0.257
2922161,-9561.0,-2813.0,-1099.0,0.685,-0.396,0.555,0.257
2922178,-10123.0,-2713.0,-1221.0,0.693,-0.373,0.562,0.256
2922195,-10043.0,-3295.0,-1667.0,0.702,-0.348,0.567,0.255
2922211,-10791.0,-2965.0,-839.0,0.711,-0.32,0.572,0.253
2922227,-10209.0,-3177.0,-1061.0,0.723,-0.289,0.575,0.251
2922243,-10083.0,-2899.0,-1005.0,0.734,-0.256,0.577,0.249
2922270,-9279.0,-3023.0,-1277.0,0.745,-0.219,0.579,0.247
2922286,-8795.0,-2477.0,-1213.0,0.756,-0.18,0.581,0.243
2922302,-8651.0,-1439.0,-777.0,0.764,-0.139,0.582,0.239
