timeMs,ax,ay,az,q0,q1,q2,q3
3535596,-6255.0,-1121.0,-752.0,0.654,-0.045,0.753,-0.055
3535616,-6501.0,-247.0,-502.0,0.658,-0.045,0.751,-0.044
3535633,-5941.0,-957.0,-1302.0,0.662,-0.043,0.748,-0.035
3535651,-6217.0,5.0,-898.0,0.665,-0.043,0.745,-0.025
3535669,-6585.0,-1511.0,-668.0,0.669,-0.044,0.742,-0.016
3535688,-7035.0,-445.0,-814.0,0.674,-0.045,0.738,-0.008
3535696,-7893.0,183.0,-1074.0,0.678,-0.045,0.733,0.003
3535715,-8813.0,-127.0,-1404.0,0.684,-0.044,0.728,0.015
3535734,-9433.0,-2211.0,-880.0,0.691,-0.041,0.722,0.03
3535753,-7925.0,-165.0,-854.0,0.698,-0.035,0.713,0.044
3535771,-5753.0,425.0,-818.0,0.705,-0.029,0.706,0.06
3535788,-4139.0,-1253.0,-820.0,0.71,-0.024,0.699,0.075
3535806,-3917.0,-1265.0,38.0,0.714,-0.018,0.695,0.085
3535823,-2693.0,-523.0,-12.0,0.715,-0.013,0.693,0.091
3535841,-3491.0,-461.0,452.0,0.715,-0.009,0.693,0.095
3535859,-4341.0,-761.0,538.0,0.715,-0.009,0.693,0.094
3535878,-5011.0,-415.0,512.0,0.715,-0.01,0.693,0.092
3535897,-5893.0,-171.0,414.0,0.715,-0.012,0.694,0.088
3535907,-6695.0,-497.0,342.0,0.715,-0.013,0.694,0.082
3535925,-7511.0,7.0,130.0,0.715,-0.015,0.694,0.076
3535942,-8237.0,-399.0,-24.0,0.716,-0.018,0.695,0.07
3535960,-8347.0,-793.0,-14.0,0.716,-0.02,0.695,0.063
3535979,-8127.0,-503.0,104.0,0.717,-0.022,0.694,0.055
3535997,-7551.0,-161.0,-258.0,0.718,-0.024,0.694,0.048
3536017,-7257.0,511.0,288.0,0.719,-0.026,0.693,0.041
3536036,-6155.0,-495.0,-60.0,0.719,-0.029,0.694,0.034
3536054,-5141.0,703.0,-612.0,0.717,-0.034,0.695,0.029
3536072,-6457.0,751.0,158.0,0.713,-0.042,0.699,0.027
3536080,-7791.0,-1727.0,744.0,0.709,-0.049,0.703,0.025
3536098,-7387.0,-1095.0,172.0,0.705,-0.052,0.707,0.02
3536117,-7355.0,-747.0,-838.0,0.702,-0.055,0.71,0.015
3536134,-8285.0,-355.0,846.0,0.699,-0.06,0.712,0.011
3536152,-8223.0,-2103.0,834.0,0.699,-0.065,0.712,0.007
3536171,-7063.0,-1019.0,728.0,0.7,-0.069,0.711,0.001
3536189,-6481.0,21.0,-98.0,0.7,-0.073,0.711,-0.004
3536206,-7373.0,-807.0,930.0,0.699,-0.078,0.711,-0.007
3536224,-7335.0,-1521.0,512.0,0.699,-0.081,0.71,-0.011
3536242,-7099.0,-237.0,4.0,0.699,-0.083,0.71,-0.016
3536260,-8575.0,-1283.0,974.0,0.699,-0.089,0.71,-0.019
3536278,-9661.0,-2365.0,1142.0,0.701,-0.096,0.707,-0.024
3536297,-9117.0,-1317.0,1170.0,0.704,-0.104,0.702,-0.03
3536317,-8253.0,-641.0,510.0,0.707,-0.111,0.697,-0.035
3536326,-8915.0,-1367.0,1454.0,0.71,-0.12,0.693,-0.039
3536344,-8137.0,-1781.0,400.0,0.713,-0.128,0.688,-0.042
3536363,-8237.0,-1453.0,1018.0,0.715,-0.135,0.684,-0.046
3536383,-7479.0,-1539.0,768.0,0.716,-0.143,0.682,-0.049
3536401,-6885.0,-779.0,220.0,0.714,-0.152,0.682,-0.05
3536418,-7505.0,-2079.0,780.0,0.711,-0.162,0.683,-0.051
3536437,-7209.0,-2069.0,898.0,0.706,-0.171,0.685,-0.053
3536454,-6681.0,-1861.0,204.0,0.701,-0.18,0.688,-0.054
3536472,-7517.0,-2373.0,324.0,0.693,-0.19,0.693,-0.055
3536490,-7721.0,-3073.0,544.0,0.685,-0.199,0.699,-0.055
3536507,-7239.0,-3367.0,-1006.0,0.677,-0.206,0.704,-0.057
3536526,-8321.0,-2807.0,-298.0,0.668,-0.213,0.71,-0.058
3536544,-7783.0,-3023.0,-1448.0,0.66,-0.217,0.717,-0.058
3536553,-7665.0,-3303.0,-1280.0,0.653,-0.217,0.723,-0.059
3536571,-7497.0,-3443.0,-694.0,0.648,-0.217,0.728,-0.061
3536589,-6355.0,-3191.0,-2000.0,0.641,-0.219,0.733,-0.064
3536606,-7879.0,-1613.0,-1488.0,0.634,-0.22,0.739,-0.066
3536623,-7671.0,-3653.0,-1474.0,0.628,-0.219,0.744,-0.067
3536641,-7335.0,-3697.0,-1624.0,0.624,-0.216,0.748,-0.07
3536659,-6573.0,-3775.0,-2190.0,0.622,-0.211,0.751,-0.075
3536677,-7199.0,-3055.0,-1580.0,0.62,-0.205,0.753,-0.079
3536695,-7073.0,-2683.0,-1882.0,0.618,-0.199,0.756,-0.083
3536714,-7819.0,-4141.0,-1096.0,0.618,-0.193,0.757,-0.087
3536733,-6999.0,-3027.0,-1652.0,0.62,-0.186,0.757,-0.092
3536753,-6909.0,-3035.0,-1516.0,0.623,-0.178,0.756,-0.098
3536771,-6541.0,-2485.0,-1560.0,0.625,-0.17,0.755,-0.103
3536779,-7033.0,-2511.0,-1186.0,0.627,-0.161,0.754,-0.108
3536798,-6623.0,-2613.0,-1694.0,0.629,-0.152,0.754,-0.113
3536817,-7271.0,-2617.0,-1226.0,0.63,-0.143,0.754,-0.118
3536836,-6931.0,-2419.0,-1920.0,0.632,-0.134,0.754,-0.122
3536855,-7837.0,-2351.0,-1362.0,0.632,-0.126,0.754,-0.126
3536873,-8021.0,-2793.0,-1720.0,0.633,-0.117,0.754,-0.129
3536891,-8513.0,-3051.0,-1506.0,0.634,-0.108,0.754,-0.133
3536909,-8187.0,-2783.0,-2038.0,0.635,-0.1,0.754,-0.136
3536927,-9017.0,-2593.0,-1572.0,0.635,-0.091,0.754,-0.139
3536945,-8799.0,-2879.0,-1934.0,0.635,-0.082,0.755,-0.14
3536964,-8443.0,-2487.0,-2210.0,0.635,-0.073,0.756,-0.141
3536972,-8323.0,-1903.0,-2324.0,0.634,-0.063,0.758,-0.141
3536990,-8905.0,-1901.0,-1892.0,0.633,-0.052,0.76,-0.14
3537008,-9051.0,-2215.0,-1894.0,0.632,-0.041,0.761,-0.139
3537026,-9145.0,-2749.0,-1772.0,0.632,-0.031,0.762,-0.138
3537044,-9611.0,-3021.0,-1426.0,0.633,-0.022,0.761,-0.139
3537063,-10123.0,-2809.0,-1194.0,0.635,-0.014,0.759,-0.142
3537082,-10475.0,-2781.0,-1130.0,0.638,-0.007,0.756,-0.146
3537101,-10615.0,-2785.0,-1062.0,0.642,-0.002,0.752,-0.151
3537120,-10545.0,-3197.0,-1016.0,0.646,0.003,0.747,-0.156
3537139,-10495.0,-3135.0,-976.0,0.65,0.007,0.743,-0.162
3537147,-10407.0,-3115.0,-1016.0,0.653,0.01,0.738,-0.167
3537165,-10027.0,-2945.0,-1010.0,0.656,0.013,0.735,-0.172
3537184,-9919.0,-3237.0,-746.0,0.658,0.015,0.732,-0.176
3537202,-9163.0,-3169.0,-1086.0,0.659,0.017,0.731,-0.179
3537221,-9247.0,-2355.0,-766.0,0.658,0.017,0.731,-0.18
3537238,-9253.0,-2625.0,-678.0,0.656,0.017,0.733,-0.18
3537256,-9007.0,-2607.0,-796.0,0.653,0.016,0.736,-0.178
3537273,-8859.0,-2807.0,-726.0,0.65,0.015,0.739,-0.175
3537290,-9569.0,-2733.0,-420.0,0.647,0.012,0.743,-0.172
3537308,-9565.0,-2755.0,-756.0,0.643,0.009,0.747,-0.168
3537326,-9899.0,-2709.0,-510.0,0.64,0.005,0.751,-0.163
3537344,-9885.0,-3051.0,-734.0,0.636,0.001,0.755,-0.159
3537362,-9827.0,-1983.0,-1322.0,0.632,-0.004,0.759,-0.155
3537381,-10365.0,-2115.0,-1050.0,0.628,-0.008,0.764,-0.149
3537399,-10029.0,-1813.0,-1318.0,0.623,-0.011,0.769,-0.143
3537417,-9623.0,-2027.0,-1462.0,0.619,-0.015,0.773,-0.137
3537436,-9421.0,-1873.0,-1496.0,0.614,-0.018,0.778,-0.131
3537445,-9355.0,-1675.0,-1236.0,0.611,-0.022,0.782,-0.126
3537464,-8889.0,-1785.0,-1698.0,0.607,-0.026,0.785,-0.12
3537484,-9087.0,-1663.0,-1570.0,0.604,-0.03,0.788,-0.115
3537504,-9201.0,-1673.0,-1456.0,0.601,-0.035,0.791,-0.11
3537522,-9263.0,-1713.0,-1336.0,0.6,-0.038,0.792,-0.105
3537539,-8363.0,-2149.0,-2028.0,0.6,-0.041,0.793,-0.101
3537556,-8399.0,-1969.0,-1908.0,0.6,-0.043,0.793,-0.097
3537574,-8321.0,-2211.0,-2184.0,0.601,-0.044,0.792,-0.095
3537592,-8761.0,-2301.0,-1864.0,0.604,-0.046,0.79,-0.092
3537610,-8403.0,-1595.0,-2220.0,0.608,-0.046,0.787,-0.089
3537619,-7765.0,-2423.0,-2294.0,0.614,-0.044,0.783,-0.087
3537637,-7795.0,-2195.0,-1710.0,0.621,-0.041,0.778,-0.085
3537655,-7101.0,-1663.0,-1970.0,0.628,-0.037,0.773,-0.084
3537673,-7053.0,-1631.0,-1356.0,0.637,-0.03,0.766,-0.083
3537691,-6301.0,-1029.0,-1148.0,0.645,-0.023,0.759,-0.082
3537709,-5833.0,-489.0,-770.0,0.652,-0.017,0.754,-0.081
3537727,-5419.0,-197.0,-1064.0,0.658,-0.011,0.749,-0.079
3537746,-6971.0,-291.0,58.0,0.663,-0.007,0.744,-0.077
3537766,-6417.0,-765.0,-316.0,0.669,-0.001,0.739,-0.077
3537785,-6451.0,89.0,-576.0,0.674,0.005,0.735,-0.078
3537794,-6975.0,399.0,-166.0,0.678,0.011,0.731,-0.078
3537813,-7335.0,-615.0,-50.0,0.682,0.015,0.727,-0.077
3537833,-7373.0,-7.0,320.0,0.685,0.019,0.724,-0.077
3537851,-6913.0,-137.0,-48.0,0.688,0.022,0.722,-0.076
3537869,-6365.0,-121.0,-510.0,0.688,0.026,0.721,-0.075
3537888,-6729.0,205.0,106.0,0.686,0.03,0.723,-0.072
3537906,-7045.0,-1149.0,328.0,0.684,0.032,0.726,-0.07
3537923,-6859.0,-243.0,24.0,0.681,0.035,0.729,-0.069
3537940,-7633.0,-1371.0,-244.0,0.678,0.037,0.731,-0.068
3537958,-7945.0,207.0,-90.0,0.674,0.039,0.734,-0.068
3537975,-7449.0,-481.0,-1062.0,0.67,0.041,0.738,-0.067
3537993,-8465.0,-303.0,-722.0,0.666,0.042,0.742,-0.064
3538010,-8897.0,-533.0,-1054.0,0.662,0.043,0.746,-0.061
3538028,-9061.0,-485.0,-1254.0,0.659,0.046,0.748,-0.059
3538047,-9405.0,-331.0,-934.0,0.658,0.047,0.75,-0.055
3538057,-9157.0,-1079.0,-1470.0,0.657,0.049,0.751,-0.053
3538074,-9493.0,721.0,-1748.0,0.657,0.05,0.751,-0.051
3538092,-10203.0,-193.0,-934.0,0.659,0.052,0.749,-0.047
3538110,-8971.0,-17.0,-1320.0,0.662,0.054,0.746,-0.042
3538128,-8193.0,645.0,-1438.0,0.665,0.056,0.743,-0.037
3538146,-7267.0,321.0,-1006.0,0.669,0.059,0.74,-0.032
3538165,-6383.0,399.0,-1210.0,0.673,0.062,0.737,-0.027
3538182,-6139.0,1179.0,-750.0,0.676,0.065,0.733,-0.022
3538201,-6073.0,651.0,-160.0,0.679,0.067,0.731,-0.017
3538220,-5641.0,753.0,-384.0,0.682,0.068,0.728,-0.012
3538238,-5049.0,495.0,-628.0,0.684,0.068,0.726,-0.008
3538256,-5079.0,599.0,-438.0,0.685,0.067,0.726,-0.005
3538273,-5781.0,41.0,-176.0,0.685,0.064,0.726,-0.003
3538290,-5079.0,151.0,-708.0,0.684,0.059,0.727,-0.002
3538308,-6111.0,167.0,-378.0,0.682,0.054,0.729,-0.002
3538326,-6477.0,-523.0,-586.0,0.68,0.048,0.732,-0.004
3538344,-7279.0,1163.0,-674.0,0.678,0.041,0.734,-0.004
3538353,-7889.0,-413.0,-546.0,0.677,0.034,0.735,-0.004
3538371,-7799.0,-1099.0,-1082.0,0.676,0.027,0.736,-0.005
3538389,-7827.0,-477.0,-908.0,0.675,0.02,0.737,-0.006
3538407,-7953.0,-459.0,-392.0,0.675,0.013,0.738,-0.007
3538425,-7343.0,-303.0,-898.0,0.675,0.007,0.738,-0.007
3538443,-6953.0,-1863.0,-1130.0,0.675,0.001,0.738,-0.008
3538461,-7137.0,-219.0,-256.0,0.675,-0.004,0.738,-0.01
3538479,-6403.0,-615.0,-498.0,0.674,-0.01,0.738,-0.012
3538497,-6199.0,-1267.0,-350.0,0.674,-0.015,0.738,-0.015
3538516,-5851.0,-975.0,-994.0,0.673,-0.019,0.739,-0.019
3538535,-6609.0,-579.0,-514.0,0.671,-0.025,0.74,-0.024
3538553,-7245.0,-423.0,-408.0,0.67,-0.028,0.741,-0.028
3538571,-7215.0,-495.0,-530.0,0.669,-0.031,0.742,-0.032
3538579,-7263.0,-2049.0,-1612.0,0.668,-0.035,0.743,-0.037
3538597,-8905.0,-1265.0,-490.0,0.667,-0.038,0.743,-0.042
3538615,-8235.0,-263.0,-1018.0,0.667,-0.039,0.742,-0.046
3538633,-7653.0,-1197.0,-588.0,0.668,-0.04,0.742,-0.049
3538652,-6929.0,-2055.0,-342.0,0.668,-0.041,0.741,-0.054
3538671,-6003.0,-457.0,-622.0,0.667,-0.041,0.742,-0.059
3538689,-5963.0,-1019.0,-662.0,0.665,-0.043,0.743,-0.064
3538707,-6735.0,-1313.0,-788.0,0.662,-0.044,0.745,-0.068
3538725,-6993.0,-1535.0,-634.0,0.66,-0.044,0.747,-0.074
3538743,-6819.0,-1201.0,-728.0,0.657,-0.043,0.748,-0.08
3538762,-6469.0,-1641.0,-1480.0,0.654,-0.044,0.751,-0.084
3538781,-8239.0,-1987.0,-1256.0,0.651,-0.044,0.753,-0.089
3538791,-8101.0,-1669.0,-1314.0,0.649,-0.042,0.754,-0.093
3538810,-7603.0,-1685.0,-808.0,0.647,-0.04,0.755,-0.097
3538829,-7375.0,-1871.0,-174.0,0.646,-0.037,0.756,-0.101
3538848,-6051.0,-491.0,-1956.0,0.644,-0.034,0.757,-0.106
3538867,-7971.0,-1749.0,42.0,0.642,-0.033,0.759,-0.11
3538886,-7121.0,-1071.0,-656.0,0.64,-0.029,0.759,-0.115
3538895,-7415.0,-1083.0,-756.0,0.637,-0.027,0.761,-0.119
3538914,-8111.0,-1381.0,-714.0,0.634,-0.026,0.763,-0.124
3538933,-8417.0,-1359.0,-908.0,0.632,-0.025,0.764,-0.13
3538952,-8755.0,-1631.0,-736.0,0.63,-0.024,0.765,-0.135
3538971,-8611.0,-1133.0,-1164.0,0.628,-0.022,0.766,-0.14
3538990,-8965.0,-2125.0,-816.0,0.625,-0.02,0.767,-0.145
3539009,-8725.0,-1611.0,-1528.0,0.623,-0.018,0.768,-0.15
3539018,-9435.0,-2355.0,-856.0,0.621,-0.017,0.768,-0.154
3539036,-8915.0,-2089.0,-1072.0,0.621,-0.014,0.767,-0.159
3539054,-9017.0,-2671.0,-536.0,0.622,-0.011,0.766,-0.164
3539072,-8947.0,-2973.0,-24.0,0.623,-0.005,0.763,-0.171
3539090,-7977.0,-1293.0,-576.0,0.625,0.002,0.759,-0.18
3539108,-7277.0,-217.0,-1186.0,0.626,0.008,0.758,-0.185
3539126,-8347.0,-2027.0,-370.0,0.625,0.013,0.757,-0.189
3539144,-8225.0,-1895.0,-806.0,0.625,0.018,0.756,-0.194
3539163,-8289.0,-1691.0,-1340.0,0.623,0.022,0.756,-0.199
3539183,-9065.0,-1943.0,-1078.0,0.622,0.026,0.756,-0.204
3539191,-8901.0,-2327.0,-1574.0,0.621,0.029,0.756,-0.207
3539208,-9677.0,-3171.0,-1276.0,0.62,0.032,0.755,-0.211
3539225,-10037.0,-3261.0,-970.0,0.619,0.036,0.755,-0.214
3539244,-9655.0,-3027.0,-1144.0,0.619,0.041,0.754,-0.217
3539263,-9539.0,-2949.0,-1252.0,0.619,0.045,0.753,-0.219
3539282,-9863.0,-3165.0,-1048.0,0.619,0.048,0.752,-0.221
3539301,-9507.0,-3115.0,-1534.0,0.62,0.052,0.751,-0.223
3539320,-10559.0,-3257.0,-758.0,0.621,0.055,0.749,-0.225
3539337,-10145.0,-3133.0,-1054.0,0.623,0.059,0.746,-0.227
3539355,-9931.0,-2855.0,-1204.0,0.624,0.062,0.744,-0.23
3539373,-10055.0,-2903.0,-1056.0,0.626,0.064,0.742,-0.232
3539391,-9985.0,-2715.0,-1072.0,0.626,0.066,0.741,-0.233
3539409,-10275.0,-3057.0,-784.0,0.627,0.068,0.74,-0.234
3539427,-9491.0,-2717.0,-1300.0,0.627,0.069,0.739,-0.235
3539446,-9389.0,-2883.0,-1456.0,0.627,0.07,0.739,-0.236
3539453,-9827.0,-2589.0,-1178.0,0.626,0.07,0.74,-0.235
3539470,-9323.0,-2837.0,-1382.0,0.626,0.069,0.741,-0.234
3539487,-9531.0,-3281.0,-1232.0,0.625,0.068,0.742,-0.232
3539505,-9379.0,-2713.0,-1288.0,0.624,0.066,0.744,-0.23
3539523,-9307.0,-2275.0,-1388.0,0.624,0.064,0.745,-0.228
3539541,-9301.0,-2799.0,-1320.0,0.623,0.06,0.747,-0.224
3539558,-9221.0,-2483.0,-1464.0,0.623,0.057,0.748,-0.221
3539576,-9195.0,-2337.0,-1486.0,0.622,0.052,0.75,-0.217
3539594,-9415.0,-2301.0,-1350.0,0.622,0.047,0.752,-0.213
3539613,-9417.0,-2507.0,-1412.0,0.621,0.041,0.754,-0.209
3539632,-9541.0,-2315.0,-1472.0,0.621,0.034,0.756,-0.205
3539651,-9373.0,-2361.0,-1522.0,0.62,0.028,0.758,-0.201
3539669,-9671.0,-2371.0,-1234.0,0.62,0.021,0.759,-0.197
3539687,-9261.0,-2401.0,-1658.0,0.619,0.014,0.761,-0.193
3539705,-9255.0,-2205.0,-1800.0,0.618,0.007,0.763,-0.188
3539723,-9101.0,-2773.0,-1852.0,0.618,0.0,0.765,-0.183
3539741,-9317.0,-2455.0,-1540.0,0.618,-0.006,0.766,-0.178
3539760,-8819.0,-2295.0,-1438.0,0.619,-0.012,0.766,-0.174
3539770,-8147.0,-2223.0,-1464.0,0.62,-0.018,0.766,-0.169
3539787,-7859.0,-1741.0,-1510.0,0.621,-0.024,0.766,-0.164
3539806,-7835.0,-2061.0,-1498.0,0.621,-0.03,0.767,-0.158
3539824,-8677.0,-2063.0,-1032.0,0.622,-0.036,0.767,-0.152
3539843,-8101.0,-2029.0,-1548.0,0.623,-0.041,0.768,-0.146
3539861,-8035.0,-2291.0,-1730.0,0.623,-0.045,0.768,-0.14
3539880,-8421.0,-1861.0,-1440.0,0.624,-0.05,0.769,-0.132
3539900,-7461.0,-1957.0,-2302.0,0.623,-0.053,0.771,-0.122
3539910,-8425.0,-2587.0,-1280.0,0.622,-0.057,0.773,-0.111
3539929,-7905.0,-1443.0,-1318.0,0.621,-0.059,0.775,-0.098
3539948,-8039.0,-1913.0,-750.0,0.621,-0.061,0.777,-0.085
3539967,-7371.0,-2469.0,-1140.0,0.622,-0.06,0.777,-0.072
3539986,-7273.0,-1939.0,-38.0,0.624,-0.061,0.777,-0.061
3540004,-6011.0,-1175.0,-1418.0,0.625,-0.06,0.777,-0.052
3540012,-6471.0,255.0,-784.0,0.625,-0.06,0.777,-0.041
3540032,-6899.0,-861.0,-854.0,0.625,-0.062,0.778,-0.03
3540051,-6975.0,-2005.0,-1428.0,0.626,-0.064,0.777,-0.02
3540069,-7627.0,-351.0,-986.0,0.628,-0.065,0.776,-0.012
3540088,-6689.0,33.0,-2860.0,0.629,-0.067,0.775,-0.003
3540106,-7551.0,-1317.0,-3620.0,0.63,-0.068,0.774,0.007
3540124,-11087.0,-1275.0,-356.0,0.632,-0.07,0.771,0.019
3540142,-8253.0,-1331.0,-2172.0,0.637,-0.07,0.767,0.029
3540160,-7471.0,-661.0,-1458.0,0.644,-0.069,0.761,0.039
3540179,-6077.0,359.0,-1512.0,0.65,-0.068,0.755,0.049
3540188,-5827.0,-687.0,-1032.0,0.655,-0.07,0.75,0.061
3540206,-5721.0,-865.0,-460.0,0.66,-0.071,0.744,0.072
3540224,-4485.0,679.0,-678.0,0.665,-0.071,0.739,0.082
3540241,-3779.0,109.0,-980.0,0.668,-0.071,0.735,0.091
3540259,-3841.0,-293.0,-674.0,0.67,-0.07,0.732,0.099
3540277,-4441.0,-637.0,-306.0,0.67,-0.072,0.731,0.106
3540295,-4993.0,-811.0,-406.0,0.67,-0.074,0.73,0.109
3540314,-4537.0,1113.0,-1548.0,0.669,-0.078,0.73,0.112
3540332,-5963.0,-347.0,-796.0,0.668,-0.082,0.731,0.115
3540351,-6729.0,-641.0,-908.0,0.666,-0.086,0.732,0.115
3540369,-7193.0,-269.0,-1050.0,0.664,-0.091,0.733,0.115
3540388,-8017.0,-133.0,-770.0,0.663,-0.096,0.734,0.114
3540406,-8089.0,-555.0,-856.0,0.663,-0.099,0.733,0.113
3540414,-7915.0,-245.0,-1096.0,0.663,-0.103,0.733,0.111
3540432,-8063.0,-193.0,-1142.0,0.663,-0.107,0.733,0.109
3540452,-8027.0,-835.0,-1024.0,0.663,-0.109,0.733,0.106
3540471,-7653.0,-417.0,-800.0,0.665,-0.11,0.732,0.102
3540490,-6761.0,-827.0,-1536.0,0.666,-0.112,0.731,0.098
3540508,-7411.0,283.0,-762.0,0.667,-0.114,0.73,0.094
3540526,-7223.0,-987.0,-672.0,0.668,-0.115,0.73,0.09
3540544,-6405.0,-277.0,-768.0,0.669,-0.116,0.729,0.085
3540562,-6009.0,-727.0,-778.0,0.669,-0.117,0.729,0.079
3540580,-6831.0,479.0,-570.0,0.668,-0.12,0.731,0.073
3540598,-8095.0,-1053.0,-374.0,0.667,-0.124,0.731,0.069
3540617,-8437.0,-1189.0,-254.0,0.668,-0.126,0.731,0.063
3540626,-7565.0,-867.0,-848.0,0.669,-0.129,0.73,0.057
3540645,-7455.0,-1291.0,-1158.0,0.67,-0.131,0.729,0.051
3540662,-8389.0,-847.0,-32.0,0.67,-0.135,0.728,0.045
3540681,-7779.0,-723.0,-890.0,0.671,-0.138,0.728,0.04
3540700,-7939.0,-1167.0,-364.0,0.671,-0.141,0.727,0.035
3540719,-7335.0,-1051.0,-750.0,0.67,-0.144,0.727,0.03
3540737,-6493.0,-829.0,-946.0,0.67,-0.146,0.728,0.025
3540756,-6565.0,-809.0,-692.0,0.667,-0.151,0.73,0.021
3540764,-7247.0,-1495.0,-532.0,0.664,-0.154,0.731,0.017
3540782,-6081.0,-1433.0,-662.0,0.662,-0.156,0.733,0.013
3540802,-5643.0,-171.0,-2130.0,0.657,-0.159,0.737,0.008
3540821,-7527.0,-1577.0,-902.0,0.65,-0.164,0.742,0.006
3540838,-7945.0,-1845.0,-1176.0,0.646,-0.166,0.745,0.003
3540855,-7627.0,-1951.0,-1070.0,0.642,-0.166,0.748,0.001
3540872,-7395.0,-2345.0,-856.0,0.639,-0.167,0.751,-0.002
3540889,-7075.0,-1609.0,-1078.0,0.637,-0.164,0.753,-0.007
3540906,-6363.0,-545.0,-1396.0,0.635,-0.161,0.756,-0.011
3540924,-6933.0,-1935.0,-438.0,0.632,-0.159,0.758,-0.015
3540943,-6495.0,-1903.0,-1002.0,0.63,-0.157,0.76,-0.019
3540962,-6711.0,-467.0,-1190.0,0.627,-0.154,0.763,-0.024
3540982,-6415.0,-1507.0,-2054.0,0.624,-0.151,0.766,-0.028
3541001,-8569.0,-1731.0,-1066.0,0.621,-0.147,0.769,-0.033
3541011,-8491.0,-2635.0,-1162.0,0.62,-0.142,0.77,-0.039
3541029,-7447.0,-1133.0,-1778.0,0.62,-0.135,0.772,-0.045
3541048,-7039.0,-1559.0,-2736.0,0.618,-0.129,0.774,-0.05
3541066,-9351.0,-2415.0,-890.0,0.616,-0.125,0.776,-0.055
3541085,-9177.0,-2897.0,-1054.0,0.615,-0.12,0.777,-0.062
3541103,-8643.0,-1521.0,-1456.0,0.616,-0.114,0.776,-0.069
3541121,-8177.0,-1691.0,-1848.0,0.617,-0.107,0.776,-0.077
3541139,-8297.0,-1693.0,-1792.0,0.615,-0.103,0.777,-0.082
3541157,-8963.0,-1989.0,-2004.0,0.614,-0.1,0.778,-0.087
3541175,-8987.0,-2511.0,-2028.0,0.614,-0.096,0.778,-0.093
3541184,-9005.0,-2005.0,-1654.0,0.615,-0.092,0.777,-0.099
3541202,-8385.0,-1313.0,-1888.0,0.615,-0.089,0.776,-0.104
3541221,-8273.0,-1845.0,-1470.0,0.616,-0.085,0.775,-0.108
3541239,-7915.0,-1153.0,-1546.0,0.617,-0.083,0.775,-0.112
3541257,-7721.0,-1583.0,-1692.0,0.618,-0.081,0.774,-0.114
3541276,-8033.0,-1501.0,-1482.0,0.618,-0.079,0.773,-0.117
3541295,-7865.0,-1885.0,-1566.0,0.619,-0.077,0.773,-0.119
3541312,-7997.0,-1571.0,-1612.0,0.619,-0.076,0.772,-0.12
3541329,-8125.0,-2403.0,-1580.0,0.619,-0.075,0.772,-0.12
3541346,-8361.0,-2467.0,-1600.0,0.619,-0.075,0.772,-0.119
3541364,-9001.0,-2747.0,-1382.0,0.619,-0.074,0.773,-0.118
3541382,-9289.0,-3295.0,-1590.0,0.619,-0.075,0.773,-0.117
3541401,-10085.0,-3765.0,-1464.0,0.619,-0.078,0.773,-0.116
3541420,-10547.0,-4487.0,-1790.0,0.619,-0.082,0.772,-0.116
3541429,-10795.0,-4657.0,-2500.0,0.62,-0.087,0.771,-0.117
3541448,-11589.0,-4057.0,-2378.0,0.621,-0.092,0.769,-0.117
3541468,-11009.0,-4635.0,-2736.0,0.623,-0.096,0.767,-0.117
3541487,-10161.0,-3791.0,-3246.0,0.624,-0.101,0.766,-0.115
3541505,-9989.0,-4313.0,-2786.0,0.625,-0.106,0.766,-0.111
3541523,-9597.0,-3523.0,-2722.0,0.624,-0.112,0.766,-0.107
3541541,-9367.0,-3575.0,-2404.0,0.622,-0.118,0.767,-0.102
3541559,-8867.0,-3175.0,-2528.0,0.62,-0.124,0.769,-0.097
3541577,-9471.0,-3025.0,-1938.0,0.617,-0.13,0.771,-0.092
3541586,-8781.0,-3263.0,-2184.0,0.614,-0.135,0.773,-0.087
3541604,-8769.0,-2489.0,-2126.0,0.611,-0.14,0.775,-0.082
3541622,-8565.0,-2665.0,-2250.0,0.607,-0.145,0.777,-0.077
3541640,-8729.0,-2353.0,-2330.0,0.603,-0.15,0.78,-0.072
3541658,-8745.0,-2551.0,-2572.0,0.6,-0.155,0.782,-0.068
3541677,-8607.0,-2305.0,-2772.0,0.596,-0.16,0.784,-0.064
3541695,-8865.0,-2459.0,-2728.0,0.593,-0.164,0.786,-0.06
3541714,-8591.0,-2357.0,-3226.0,0.59,-0.168,0.788,-0.057
3541733,-8315.0,-2641.0,-3624.0,0.587,-0.172,0.789,-0.055
3541752,-8897.0,-2743.0,-3174.0,0.585,-0.176,0.79,-0.052
3541762,-9291.0,-2463.0,-2818.0,0.583,-0.179,0.791,-0.049
3541781,-8533.0,-2829.0,-3386.0,0.583,-0.18,0.791,-0.047
3541800,-8737.0,-2979.0,-3022.0,0.584,-0.181,0.79,-0.046
3541819,-8287.0,-2451.0,-3106.0,0.585,-0.181,0.789,-0.045
3541837,-8591.0,-2443.0,-2326.0,0.588,-0.18,0.787,-0.045
3541856,-8329.0,-2417.0,-1986.0,0.593,-0.177,0.784,-0.046
3541874,-7535.0,-1641.0,-2354.0,0.599,-0.173,0.781,-0.048
3541892,-7175.0,-1235.0,-2918.0,0.603,-0.17,0.778,-0.049
3541901,-8179.0,-1939.0,-1478.0,0.608,-0.168,0.775,-0.05
3541920,-7847.0,-1627.0,-1476.0,0.613,-0.163,0.771,-0.052
3541938,-6991.0,-1477.0,-2044.0,0.619,-0.158,0.767,-0.054
3541957,-6873.0,-1951.0,-1988.0,0.623,-0.154,0.765,-0.055
3541975,-7005.0,-1009.0,-2036.0,0.626,-0.151,0.763,-0.056
3541994,-7373.0,-1787.0,-2220.0,0.627,-0.148,0.763,-0.055
3542012,-7533.0,-2153.0,-2108.0,0.627,-0.144,0.763,-0.053
3542031,-8227.0,-2443.0,-1768.0,0.627,-0.141,0.764,-0.05
3542050,-7907.0,-2021.0,-2074.0,0.627,-0.137,0.766,-0.047
3542060,-8535.0,-2833.0,-1698.0,0.626,-0.135,0.767,-0.043
3542078,-8593.0,-2787.0,-1804.0,0.626,-0.133,0.767,-0.039
3542097,-9421.0,-2325.0,-1178.0,0.626,-0.133,0.767,-0.035
3542116,-9063.0,-1823.0,-1402.0,0.629,-0.13,0.766,-0.032
3542135,-8699.0,-1591.0,-1250.0,0.633,-0.127,0.763,-0.028
3542154,-8155.0,-2029.0,-1764.0,0.636,-0.124,0.761,-0.025
3542163,-8665.0,-1475.0,-510.0,0.641,-0.121,0.757,-0.021
3542182,-7285.0,-617.0,-1292.0,0.646,-0.117,0.754,-0.017
3542201,-6801.0,-763.0,-2110.0,0.65,-0.116,0.751,-0.012
3542220,-8743.0,-1285.0,-462.0,0.654,-0.114,0.747,-0.006
3542238,-6981.0,-1221.0,-2254.0,0.659,-0.112,0.744,-0.001
3542255,-8489.0,-1049.0,-1078.0,0.662,-0.111,0.741,0.007
3542272,-8953.0,-1445.0,-742.0,0.667,-0.108,0.737,0.016
3542290,-7729.0,-1857.0,-472.0,0.673,-0.103,0.732,0.026
3542308,-6167.0,-1435.0,-836.0,0.679,-0.098,0.727,0.035
3542326,-4371.0,465.0,-246.0,0.683,-0.093,0.723,0.046
3542345,-2897.0,-205.0,68.0,0.684,-0.088,0.722,0.058
3542364,-2201.0,-1153.0,-4.0,0.686,-0.079,0.72,0.067
3542375,-2117.0,-2785.0,-418.0,0.687,-0.068,0.72,0.072
3542393,-2933.0,-409.0,40.0,0.687,-0.063,0.721,0.073
3542411,-3095.0,117.0,566.0,0.685,-0.066,0.722,0.075
3542429,-3479.0,-2093.0,-84.0,0.683,-0.071,0.723,0.074
3542447,-4281.0,-33.0,-344.0,0.68,-0.078,0.725,0.07
3542466,-6189.0,371.0,-600.0,0.677,-0.086,0.728,0.068
3542484,-8159.0,-2459.0,-382.0,0.675,-0.093,0.73,0.065
3542502,-8971.0,-113.0,-1094.0,0.673,-0.099,0.731,0.06
3542520,-10323.0,-979.0,-1450.0,0.672,-0.104,0.731,0.059
3542539,-10861.0,-3243.0,-518.0,0.674,-0.105,0.729,0.058
3542547,-8311.0,-2081.0,-904.0,0.677,-0.105,0.726,0.053
3542564,-6607.0,-1199.0,-684.0,0.68,-0.106,0.724,0.048
3542582,-5813.0,-785.0,-270.0,0.681,-0.108,0.723,0.044
3542601,-4911.0,-867.0,-452.0,0.682,-0.11,0.722,0.039
3542619,-5067.0,-1409.0,-1294.0,0.681,-0.112,0.722,0.034
3542638,-5515.0,-485.0,-498.0,0.679,-0.116,0.724,0.03
3542655,-5795.0,-981.0,-332.0,0.676,-0.117,0.727,0.026
3542673,-5283.0,-1229.0,-684.0,0.673,-0.118,0.73,0.021
3542691,-5521.0,-1041.0,-482.0,0.669,-0.121,0.733,0.016
3542710,-5793.0,-1975.0,-858.0,0.665,-0.124,0.736,0.011
3542729,-6233.0,-1055.0,-66.0,0.66,-0.127,0.74,0.005
3542748,-6007.0,-1119.0,-888.0,0.656,-0.129,0.744,-0.0
3542758,-6215.0,-1521.0,-908.0,0.65,-0.133,0.748,-0.005
3542776,-6541.0,-963.0,-1268.0,0.644,-0.135,0.753,-0.01
3542794,-7699.0,-1577.0,-1124.0,0.638,-0.137,0.758,-0.014
3542813,-7871.0,-3053.0,-884.0,0.634,-0.139,0.761,-0.019
3542834,-7553.0,-2271.0,-1024.0,0.631,-0.14,0.763,-0.026
3542853,-7217.0,-715.0,-1526.0,0.628,-0.141,0.765,-0.032
3542862,-7619.0,-331.0,-2788.0,0.624,-0.144,0.768,-0.037
3542881,-10741.0,-4523.0,-588.0,0.622,-0.146,0.768,-0.04
3542902,-9323.0,-3489.0,-1214.0,0.624,-0.147,0.766,-0.048
3542920,-7693.0,-765.0,-1886.0,0.627,-0.146,0.764,-0.057
3542939,-6783.0,-389.0,-1672.0,0.627,-0.144,0.763,-0.062
3542958,-7049.0,-1573.0,-1042.0,0.625,-0.144,0.764,-0.066
3542967,-6883.0,-1755.0,-1374.0,0.624,-0.144,0.765,-0.07
3542985,-6777.0,-2075.0,-2382.0,0.621,-0.145,0.767,-0.075
3543003,-8121.0,-1273.0,-1504.0,0.616,-0.147,0.77,-0.078
3543021,-8153.0,-2065.0,-2132.0,0.611,-0.148,0.774,-0.079
3543040,-9399.0,-2123.0,-1850.0,0.607,-0.149,0.777,-0.081
3543058,-8963.0,-3263.0,-2100.0,0.604,-0.148,0.779,-0.084
3543076,-9021.0,-2621.0,-1672.0,0.602,-0.147,0.78,-0.086
3543094,-7491.0,-2259.0,-3630.0,0.6,-0.146,0.781,-0.088
3543113,-10073.0,-2649.0,-1624.0,0.599,-0.146,0.782,-0.089
3543132,-9169.0,-3531.0,-2302.0,0.6,-0.144,0.782,-0.092
3543151,-9221.0,-2371.0,-1934.0,0.602,-0.141,0.78,-0.094
3543159,-8671.0,-3191.0,-1944.0,0.607,-0.135,0.777,-0.097
3543177,-7929.0,-2213.0,-2548.0,0.612,-0.13,0.774,-0.1
3543195,-7569.0,-2475.0,-2456.0,0.616,-0.125,0.771,-0.102
3543214,-7063.0,-1629.0,-2614.0,0.618,-0.122,0.77,-0.103
3543233,-7569.0,-2655.0,-2202.0,0.619,-0.118,0.77,-0.102
3543251,-7901.0,-2917.0,-2106.0,0.621,-0.114,0.769,-0.102
3543269,-8061.0,-2343.0,-2190.0,0.622,-0.108,0.769,-0.101
3543288,-8487.0,-2273.0,-2002.0,0.625,-0.102,0.768,-0.098
3543305,-8443.0,-3473.0,-2116.0,0.627,-0.096,0.767,-0.094
3543322,-9163.0,-3157.0,-2056.0,0.63,-0.09,0.766,-0.091
3543339,-9539.0,-3325.0,-2134.0,0.634,-0.084,0.764,-0.088
3543357,-10441.0,-3247.0,-1756.0,0.638,-0.078,0.761,-0.085
3543375,-10507.0,-3013.0,-1898.0,0.643,-0.071,0.758,-0.083
3543394,-10819.0,-2893.0,-1842.0,0.648,-0.066,0.754,-0.081
3543413,-11159.0,-3291.0,-1728.0,0.654,-0.061,0.75,-0.08
3543423,-11355.0,-2855.0,-1486.0,0.659,-0.057,0.745,-0.08
3543442,-11009.0,-2419.0,-1542.0,0.664,-0.054,0.741,-0.081
3543461,-10577.0,-2353.0,-1370.0,0.668,-0.052,0.737,-0.082
3543481,-9941.0,-1789.0,-1272.0,0.671,-0.052,0.735,-0.083
3543501,-9959.0,-1727.0,-806.0,0.672,-0.052,0.734,-0.084
3543510,-9481.0,-1493.0,-686.0,0.672,-0.052,0.734,-0.084
3543529,-9149.0,-1329.0,-768.0,0.671,-0.053,0.735,-0.083
3543547,-9061.0,-1511.0,-596.0,0.667,-0.055,0.738,-0.082
3543567,-9765.0,-1451.0,-364.0,0.663,-0.058,0.742,-0.081
3543585,-9911.0,-1631.0,-720.0,0.658,-0.061,0.746,-0.081
3543602,-9951.0,-2079.0,-1030.0,0.653,-0.064,0.75,-0.081
3543620,-10091.0,-1315.0,-1184.0,0.647,-0.068,0.755,-0.083
3543638,-10065.0,-2015.0,-1618.0,0.64,-0.073,0.76,-0.084
3543656,-10495.0,-1985.0,-1370.0,0.633,-0.079,0.765,-0.086
3543675,-10425.0,-2535.0,-1290.0,0.628,-0.084,0.768,-0.088
3543683,-9391.0,-2829.0,-1586.0,0.625,-0.087,0.771,-0.091
3543701,-8119.0,-2471.0,-2592.0,0.621,-0.092,0.773,-0.093
3543719,-8669.0,-2203.0,-2906.0,0.616,-0.099,0.776,-0.095
3543738,-10551.0,-4075.0,-1590.0,0.613,-0.103,0.777,-0.094
3543757,-8915.0,-2869.0,-2558.0,0.613,-0.106,0.777,-0.094
3543775,-8365.0,-3457.0,-2442.0,0.614,-0.107,0.776,-0.092
3543793,-7863.0,-2489.0,-2216.0,0.616,-0.108,0.776,-0.089
3543812,-8089.0,-2913.0,-1606.0,0.618,-0.109,0.774,-0.084
3543831,-7579.0,-2415.0,-1358.0,0.621,-0.109,0.772,-0.08
3543851,-7271.0,-1529.0,-1138.0,0.625,-0.109,0.769,-0.075
3543860,-6841.0,-1703.0,-1226.0,0.629,-0.109,0.767,-0.069
3543879,-6903.0,-1187.0,-1018.0,0.632,-0.11,0.765,-0.063
3543898,-7341.0,-865.0,-876.0,0.635,-0.111,0.762,-0.057
3543917,-7281.0,-357.0,-1250.0,0.638,-0.111,0.76,-0.05
3543936,-7459.0,-1763.0,-1102.0,0.641,-0.112,0.758,-0.045
3543956,-7447.0,-281.0,-1284.0,0.643,-0.114,0.756,-0.04
3543965,-8137.0,-239.0,-1538.0,0.645,-0.117,0.754,-0.035
3543984,-8695.0,-1921.0,-1430.0,0.648,-0.12,0.752,-0.031
3544004,-8781.0,-817.0,-1554.0,0.65,-0.125,0.749,-0.028
3544023,-7173.0,-451.0,-3268.0,0.652,-0.13,0.746,-0.024
3544041,-9531.0,-803.0,-916.0,0.653,-0.138,0.744,-0.018
3544059,-8715.0,-1915.0,-268.0,0.656,-0.145,0.74,-0.012
3544067,-6689.0,-975.0,-1726.0,0.66,-0.151,0.736,-0.008
3544085,-6849.0,-1495.0,-630.0,0.662,-0.158,0.733,-0.002
3544103,-5863.0,-1001.0,-2214.0,0.661,-0.168,0.732,0.004
3544121,-8847.0,-2599.0,-806.0,0.659,-0.177,0.731,0.012
3544140,-8953.0,-2591.0,-854.0,0.659,-0.184,0.729,0.019
3544158,-8155.0,-2171.0,-1470.0,0.66,-0.189,0.727,0.025
3544177,-8619.0,-1931.0,-1072.0,0.661,-0.195,0.724,0.033
3544195,-8517.0,-2841.0,-504.0,0.662,-0.2,0.721,0.042
3544214,-8047.0,-1955.0,-764.0,0.665,-0.205,0.717,0.05
3544234,-7373.0,-1507.0,-928.0,0.666,-0.21,0.713,0.059
3544244,-7227.0,-1923.0,-1234.0,0.668,-0.214,0.71,0.068
3544262,-6779.0,-533.0,-296.0,0.67,-0.217,0.706,0.078
3544280,-5679.0,-53.0,-1514.0,0.67,-0.221,0.703,0.09
3544298,-5859.0,-1769.0,-720.0,0.67,-0.224,0.701,0.102
3544316,-5747.0,-1535.0,-450.0,0.669,-0.224,0.699,0.111
3544333,-5195.0,-1171.0,-856.0,0.669,-0.224,0.698,0.119
3544352,-4693.0,689.0,-1116.0,0.669,-0.224,0.697,0.127
3544370,-5677.0,-399.0,266.0,0.667,-0.226,0.696,0.138
3544387,-5127.0,-2559.0,-378.0,0.668,-0.226,0.694,0.145
3544405,-4603.0,-263.0,-198.0,0.669,-0.228,0.691,0.15
3544423,-3715.0,-569.0,-444.0,0.669,-0.233,0.688,0.155
3544441,-4015.0,-1515.0,-636.0,0.668,-0.24,0.687,0.157
3544459,-4409.0,-1801.0,-440.0,0.665,-0.248,0.687,0.156
3544476,-5059.0,-2633.0,-558.0,0.662,-0.257,0.687,0.153
3544494,-6029.0,-791.0,-564.0,0.659,-0.265,0.688,0.149
3544513,-6875.0,-2095.0,-498.0,0.656,-0.274,0.688,0.146
3544522,-7243.0,-427.0,-1130.0,0.652,-0.283,0.689,0.142
3544540,-8619.0,-4151.0,-514.0,0.648,-0.291,0.69,0.141
3544558,-7549.0,-4375.0,-526.0,0.648,-0.295,0.689,0.134
3544576,-6341.0,-1457.0,-2672.0,0.647,-0.3,0.69,0.126
3544595,-9091.0,-2485.0,-100.0,0.646,-0.304,0.689,0.122
3544614,-7131.0,-4613.0,-214.0,0.648,-0.305,0.688,0.114
3544633,-6157.0,-3523.0,-3172.0,0.652,-0.304,0.687,0.103
3544652,-7425.0,-1845.0,-208.0,0.654,-0.306,0.686,0.094
3544671,-6827.0,-3553.0,-156.0,0.657,-0.304,0.685,0.086
3544679,-6019.0,-4431.0,-870.0,0.662,-0.301,0.682,0.073
3544698,-6365.0,-2895.0,-890.0,0.668,-0.298,0.679,0.06
3544717,-8881.0,-3285.0,-120.0,0.677,-0.292,0.675,0.047
3544735,-7105.0,-3113.0,-464.0,0.688,-0.284,0.667,0.033
3544754,-6849.0,-2615.0,-1186.0,0.698,-0.278,0.66,0.019
3544772,-6035.0,-1053.0,-2160.0,0.707,-0.275,0.652,0.007
3544790,-6989.0,-2735.0,-74.0,0.713,-0.273,0.646,-0.002
3544807,-6033.0,-3843.0,-28.0,0.719,-0.271,0.64,-0.011
3544824,-5667.0,-2863.0,-566.0,0.724,-0.269,0.635,-0.021
3544842,-5707.0,-2389.0,-514.0,0.727,-0.267,0.632,-0.03
3544860,-5767.0,-3141.0,362.0,0.728,-0.266,0.631,-0.038
3544879,-5491.0,-3395.0,900.0,0.727,-0.265,0.631,-0.046
3544899,-5303.0,-3007.0,-654.0,0.725,-0.264,0.634,-0.055
3544907,-7307.0,-3269.0,266.0,0.722,-0.262,0.637,-0.062
3544925,-6829.0,-3009.0,804.0,0.718,-0.261,0.642,-0.067
3544943,-6913.0,-4031.0,936.0,0.714,-0.258,0.647,-0.073
3544962,-5891.0,-2677.0,468.0,0.71,-0.254,0.652,-0.079
3544981,-5299.0,-2515.0,-1202.0,0.705,-0.252,0.658,-0.084
3545000,-7425.0,-2663.0,364.0,0.697,-0.252,0.665,-0.088
3545019,-7475.0,-3863.0,494.0,0.691,-0.249,0.672,-0.091
3545038,-6607.0,-3287.0,-538.0,0.686,-0.245,0.678,-0.096
3545048,-6869.0,-3357.0,-626.0,0.679,-0.242,0.686,-0.1
3545067,-7693.0,-2727.0,-1428.0,0.672,-0.236,0.695,-0.103
3545086,-8449.0,-3743.0,-526.0,0.665,-0.23,0.703,-0.103
3545104,-7745.0,-3851.0,-602.0,0.659,-0.223,0.71,-0.105
3545122,-7645.0,-3345.0,-250.0,0.655,-0.215,0.717,-0.108
3545139,-6917.0,-2397.0,-1020.0,0.65,-0.205,0.723,-0.111
3545156,-6567.0,-2647.0,-2030.0,0.643,-0.197,0.731,-0.113
3545174,-9479.0,-3517.0,-398.0,0.638,-0.189,0.738,-0.115
3545191,-8933.0,-4295.0,-1018.0,0.634,-0.179,0.743,-0.119
3545209,-8529.0,-2921.0,-1672.0,0.633,-0.168,0.745,-0.123
3545227,-8261.0,-3271.0,-1980.0,0.632,-0.158,0.748,-0.127
3545244,-8637.0,-3229.0,-1598.0,0.631,-0.148,0.751,-0.13
3545261,-8517.0,-3751.0,-2018.0,0.631,-0.137,0.752,-0.133
3545278,-8723.0,-3663.0,-1584.0,0.632,-0.125,0.753,-0.136
3545295,-7743.0,-3187.0,-2042.0,0.633,-0.114,0.753,-0.139
3545313,-7937.0,-2641.0,-1782.0,0.633,-0.104,0.755,-0.139
3545332,-7943.0,-3345.0,-1514.0,0.633,-0.093,0.756,-0.139
3545350,-8623.0,-2473.0,-738.0,0.634,-0.081,0.757,-0.138
3545368,-8749.0,-2845.0,-692.0,0.636,-0.068,0.757,-0.135
3545386,-8733.0,-3413.0,-806.0,0.64,-0.054,0.755,-0.132
3545404,-8845.0,-2577.0,-890.0,0.645,-0.041,0.752,-0.13
3545422,-9185.0,-1819.0,-1054.0,0.649,-0.029,0.749,-0.126
3545429,-9673.0,-2703.0,-584.0,0.654,-0.017,0.746,-0.121
3545448,-10097.0,-2725.0,-768.0,0.66,-0.007,0.742,-0.117
3545467,-10061.0,-2639.0,-898.0,0.665,0.003,0.739,-0.113
3545486,-9935.0,-1855.0,-1164.0,0.669,0.011,0.735,-0.11
3545504,-10639.0,-2097.0,-864.0,0.673,0.019,0.732,-0.105
3545521,-10587.0,-2061.0,-908.0,0.676,0.026,0.73,-0.1
3545538,-10409.0,-1481.0,-1072.0,0.678,0.032,0.729,-0.094
3545556,-10483.0,-1011.0,-800.0,0.678,0.037,0.729,-0.087
3545573,-10625.0,-1475.0,-704.0,0.678,0.041,0.73,-0.08
3545590,-10647.0,-1075.0,-532.0,0.677,0.044,0.731,-0.073
3545608,-10491.0,-825.0,-478.0,0.675,0.045,0.733,-0.067
3545625,-10647.0,-325.0,-634.0,0.672,0.045,0.736,-0.062
3545643,-10771.0,-229.0,-488.0,0.67,0.044,0.739,-0.058
3545660,-10597.0,-235.0,-438.0,0.667,0.042,0.742,-0.055
3545677,-10251.0,689.0,-980.0,0.663,0.039,0.745,-0.054
3545695,-10381.0,163.0,-868.0,0.659,0.035,0.749,-0.053
3545713,-10541.0,511.0,-1068.0,0.655,0.031,0.753,-0.053
3545731,-10587.0,235.0,-1210.0,0.65,0.025,0.758,-0.053
3545748,-10871.0,-227.0,-1454.0,0.645,0.018,0.762,-0.054
3545766,-10915.0,-601.0,-1512.0,0.641,0.012,0.766,-0.055
3545783,-10467.0,-947.0,-1548.0,0.636,0.005,0.769,-0.058
3545800,-10107.0,-677.0,-2052.0,0.631,-0.003,0.773,-0.06
3545819,-10563.0,-1057.0,-1900.0,0.626,-0.011,0.777,-0.061
3545836,-10949.0,-1485.0,-1760.0,0.621,-0.018,0.781,-0.062
3545853,-10581.0,-1525.0,-2126.0,0.618,-0.025,0.783,-0.064
3545870,-10117.0,-1083.0,-2276.0,0.616,-0.03,0.785,-0.066
3545888,-9885.0,-721.0,-2052.0,0.614,-0.035,0.785,-0.067
3545905,-9579.0,-755.0,-1694.0,0.614,-0.04,0.786,-0.068
3545922,-8927.0,-579.0,-1888.0,0.614,-0.044,0.785,-0.07
3545940,-8871.0,-667.0,-1672.0,0.615,-0.049,0.784,-0.071
3545958,-9423.0,-1129.0,-1014.0,0.617,-0.053,0.782,-0.073
3545976,-8665.0,-621.0,-1276.0,0.621,-0.057,0.778,-0.074
3545994,-8397.0,-555.0,-772.0,0.626,-0.062,0.774,-0.074
3546011,-7851.0,-721.0,-712.0,0.633,-0.069,0.768,-0.073
3546029,-7575.0,-2065.0,-816.0,0.641,-0.076,0.761,-0.072
3546048,-8013.0,-1369.0,-428.0,0.65,-0.081,0.752,-0.071
3546067,-8085.0,-1155.0,-174.0,0.661,-0.085,0.743,-0.069
3546085,-6557.0,-417.0,-1216.0,0.671,-0.088,0.734,-0.063
3546103,-6953.0,-1335.0,-596.0,0.679,-0.092,0.727,-0.054
3546121,-6955.0,-679.0,-818.0,0.686,-0.095,0.72,-0.043
3546129,-7015.0,-1085.0,-62.0,0.691,-0.098,0.715,-0.028
3546145,-6549.0,-623.0,-252.0,0.694,-0.102,0.712,-0.011
3546163,-7011.0,-1781.0,-732.0,0.696,-0.103,0.71,0.006
3546181,-6311.0,-687.0,-238.0,0.697,-0.102,0.71,0.022
3546199,-6171.0,981.0,-1018.0,0.694,-0.102,0.712,0.04
3546217,-7049.0,-973.0,-548.0,0.69,-0.102,0.715,0.058
3546235,-7133.0,439.0,182.0,0.685,-0.1,0.718,0.074
3546253,-6605.0,-995.0,-574.0,0.682,-0.096,0.72,0.088
3546271,-5765.0,1597.0,-928.0,0.678,-0.092,0.722,0.099
3546288,-5995.0,915.0,-486.0,0.674,-0.089,0.725,0.112
3546305,-5831.0,547.0,-768.0,0.67,-0.088,0.726,0.124
3546322,-5413.0,13.0,-1124.0,0.667,-0.086,0.728,0.134
3546339,-5181.0,213.0,-1098.0,0.664,-0.083,0.729,0.142
3546355,-5097.0,53.0,-1466.0,0.661,-0.081,0.731,0.149
3546372,-5397.0,793.0,-1030.0,0.658,-0.081,0.732,0.155
3546389,-5207.0,-557.0,-960.0,0.657,-0.08,0.733,0.158
3546406,-4615.0,-205.0,-1422.0,0.656,-0.079,0.734,0.158
3546423,-5347.0,55.0,-1090.0,0.655,-0.08,0.735,0.157
3546440,-6041.0,-847.0,-818.0,0.654,-0.082,0.736,0.153
3546457,-5927.0,-291.0,-1010.0,0.655,-0.084,0.737,0.147
3546474,-6819.0,-143.0,-1012.0,0.656,-0.087,0.736,0.14
3546492,-7609.0,-805.0,-1128.0,0.658,-0.09,0.735,0.133
3546510,-7749.0,-355.0,-1284.0,0.661,-0.093,0.734,0.125
3546528,-7965.0,-205.0,-1008.0,0.663,-0.096,0.733,0.117
3546546,-7831.0,-349.0,-1280.0,0.665,-0.098,0.732,0.11
3546565,-7461.0,-577.0,-1144.0,0.668,-0.1,0.731,0.102
3546583,-7215.0,487.0,-1032.0,0.669,-0.102,0.73,0.095
3546601,-7101.0,-1375.0,-1148.0,0.671,-0.104,0.729,0.089
3546620,-6517.0,-377.0,-902.0,0.673,-0.105,0.728,0.08
3546637,-6347.0,-509.0,-890.0,0.674,-0.107,0.728,0.071
3546654,-6633.0,-665.0,-1222.0,0.674,-0.109,0.728,0.062
3546671,-7141.0,-499.0,-544.0,0.675,-0.111,0.727,0.055
3546688,-6629.0,-1135.0,-416.0,0.676,-0.112,0.727,0.045
3546706,-6307.0,-831.0,-834.0,0.677,-0.114,0.726,0.036
3546724,-6547.0,-751.0,-1014.0,0.678,-0.116,0.725,0.027
3546742,-6905.0,-1461.0,-322.0,0.679,-0.118,0.724,0.019
3546760,-6111.0,-1587.0,-848.0,0.681,-0.119,0.723,0.009
3546778,-6103.0,-1647.0,-1200.0,0.681,-0.122,0.722,-0.001
3546797,-6677.0,-1007.0,-806.0,0.68,-0.124,0.722,-0.01
3546815,-6945.0,-1365.0,-690.0,0.679,-0.127,0.723,-0.018
3546833,-6689.0,-2881.0,-536.0,0.678,-0.128,0.723,-0.026
3546851,-6687.0,-2345.0,-454.0,0.676,-0.132,0.724,-0.034
3546869,-6861.0,-1875.0,-1558.0,0.675,-0.132,0.725,-0.041
3546886,-7879.0,-2255.0,-208.0,0.673,-0.132,0.726,-0.047
3546903,-6965.0,-2535.0,114.0,0.673,-0.133,0.726,-0.053
3546920,-5023.0,-1485.0,-2162.0,0.671,-0.135,0.727,-0.06
3546937,-7529.0,-863.0,-1154.0,0.667,-0.137,0.729,-0.063
3546954,-9197.0,-3715.0,332.0,0.666,-0.138,0.73,-0.066
3546971,-8289.0,-2613.0,228.0,0.668,-0.138,0.728,-0.071
3546988,-6263.0,-959.0,-1026.0,0.67,-0.137,0.726,-0.077
3547006,-6025.0,-1333.0,-1770.0,0.669,-0.136,0.726,-0.08
3547024,-8267.0,-1975.0,84.0,0.667,-0.138,0.728,-0.082
3547041,-9047.0,-2851.0,156.0,0.666,-0.14,0.727,-0.085
3547058,-7809.0,-1519.0,-984.0,0.667,-0.139,0.726,-0.088
3547076,-7119.0,-829.0,-1086.0,0.667,-0.138,0.727,-0.09
3547095,-7637.0,-2253.0,-710.0,0.665,-0.137,0.728,-0.09
3547114,-8025.0,-3099.0,-58.0,0.664,-0.138,0.729,-0.092
3547133,-8309.0,-2215.0,268.0,0.663,-0.14,0.729,-0.095
3547151,-9063.0,-2369.0,710.0,0.663,-0.142,0.729,-0.098
3547169,-8215.0,-3681.0,-516.0,0.664,-0.143,0.727,-0.102
3547187,-8727.0,-3503.0,230.0,0.664,-0.147,0.725,-0.108
3547195,-8295.0,-3457.0,-1084.0,0.663,-0.152,0.724,-0.112
3547214,-10433.0,-3609.0,-484.0,0.662,-0.154,0.724,-0.116
3547233,-9687.0,-5567.0,-988.0,0.663,-0.155,0.723,-0.12
3547251,-9803.0,-3263.0,-862.0,0.664,-0.155,0.721,-0.124
3547269,-8865.0,-4269.0,-876.0,0.665,-0.154,0.72,-0.127
3547287,-8405.0,-3319.0,-782.0,0.666,-0.153,0.719,-0.129
3547304,-8323.0,-3183.0,-476.0,0.665,-0.153,0.719,-0.131
3547321,-7803.0,-3261.0,-548.0,0.664,-0.151,0.72,-0.132
3547338,-7655.0,-2413.0,-644.0,0.662,-0.149,0.723,-0.133
3547357,-7681.0,-3497.0,-464.0,0.658,-0.146,0.726,-0.133
3547376,-8145.0,-2823.0,-294.0,0.656,-0.143,0.729,-0.134
3547394,-7971.0,-2981.0,-510.0,0.653,-0.138,0.732,-0.135
3547414,-7691.0,-2835.0,-672.0,0.65,-0.133,0.736,-0.136
3547433,-7813.0,-2743.0,-664.0,0.648,-0.127,0.739,-0.136
3547442,-7965.0,-3333.0,-852.0,0.645,-0.121,0.742,-0.136
3547462,-8321.0,-3383.0,-830.0,0.643,-0.115,0.745,-0.136
3547481,-9179.0,-3759.0,-464.0,0.642,-0.108,0.747,-0.135
3547500,-8757.0,-4013.0,-1202.0,0.641,-0.1,0.749,-0.135
3547520,-9371.0,-4205.0,-1254.0,0.641,-0.093,0.75,-0.135
3547529,-9997.0,-4197.0,-1168.0,0.641,-0.086,0.75,-0.134
3547548,-10231.0,-4073.0,-1232.0,0.642,-0.079,0.751,-0.134
3547567,-10455.0,-4037.0,-1216.0,0.642,-0.072,0.751,-0.133
3547586,-10349.0,-3861.0,-1334.0,0.643,-0.065,0.752,-0.133
3547604,-10479.0,-3347.0,-1348.0,0.642,-0.058,0.753,-0.132
3547623,-10589.0,-3437.0,-1396.0,0.641,-0.053,0.754,-0.131
3547642,-10837.0,-3465.0,-1456.0,0.64,-0.047,0.755,-0.131
3547651,-10281.0,-2939.0,-1908.0,0.64,-0.042,0.756,-0.132
3547670,-10567.0,-2857.0,-1810.0,0.638,-0.038,0.757,-0.132
3547689,-11231.0,-3377.0,-1656.0,0.637,-0.035,0.758,-0.133
3547707,-11485.0,-2811.0,-2014.0,0.637,-0.033,0.758,-0.135
3547725,-11351.0,-3097.0,-2924.0,0.637,-0.033,0.758,-0.137
3547744,-12757.0,-3249.0,-2380.0,0.637,-0.035,0.757,-0.14
3547762,-12923.0,-3511.0,-2252.0,0.639,-0.038,0.755,-0.141
3547781,-12635.0,-3009.0,-1810.0,0.642,-0.041,0.752,-0.144
3547799,-11291.0,-2429.0,-2076.0,0.646,-0.043,0.748,-0.146
3547809,-10329.0,-2131.0,-1836.0,0.649,-0.046,0.745,-0.147
3547827,-9907.0,-1815.0,-1434.0,0.653,-0.049,0.742,-0.146
3547845,-8653.0,-1843.0,-1682.0,0.655,-0.052,0.74,-0.144
3547865,-8443.0,-861.0,-1104.0,0.656,-0.054,0.739,-0.141
3547885,-7423.0,-1563.0,-1072.0,0.658,-0.056,0.739,-0.136
3547905,-7411.0,-1057.0,-556.0,0.659,-0.058,0.739,-0.131
3547914,-6687.0,-975.0,-964.0,0.659,-0.06,0.739,-0.125
3547933,-7061.0,-1537.0,-420.0,0.659,-0.063,0.74,-0.118
3547951,-6935.0,-591.0,-772.0,0.659,-0.064,0.741,-0.111
3547969,-7237.0,-1663.0,-380.0,0.659,-0.066,0.742,-0.103
3547987,-6883.0,-1509.0,-780.0,0.658,-0.067,0.744,-0.096
3548004,-7187.0,-1243.0,-388.0,0.658,-0.066,0.745,-0.088
3548022,-6775.0,-1473.0,-834.0,0.659,-0.065,0.745,-0.081
3548040,-7353.0,-1819.0,6.0,0.66,-0.065,0.744,-0.074
3548058,-6149.0,-753.0,-1414.0,0.662,-0.064,0.744,-0.067
3548078,-7355.0,-1089.0,-942.0,0.664,-0.063,0.743,-0.059
3548096,-7485.0,-1605.0,-64.0,0.666,-0.061,0.741,-0.05
3548115,-6521.0,-697.0,-624.0,0.671,-0.057,0.738,-0.041
3548124,-6075.0,-2035.0,-572.0,0.676,-0.051,0.735,-0.033
3548142,-5311.0,679.0,-614.0,0.679,-0.048,0.732,-0.025
3548159,-5645.0,-895.0,272.0,0.683,-0.042,0.729,-0.014
3548177,-4309.0,-2539.0,-1072.0,0.685,-0.037,0.728,-0.005
3548195,-3895.0,1539.0,-796.0,0.684,-0.032,0.729,0.002
3548213,-4469.0,345.0,-634.0,0.681,-0.027,0.732,0.014
3548232,-5645.0,-2771.0,886.0,0.679,-0.017,0.734,0.02
3548251,-4917.0,-257.0,-30.0,0.678,-0.008,0.735,0.021
3548270,-4897.0,631.0,-688.0,0.675,-0.006,0.737,0.024
3548288,-6087.0,-159.0,856.0,0.673,-0.005,0.739,0.026
3548296,-5311.0,-889.0,-376.0,0.672,-0.003,0.741,0.026
3548314,-5719.0,1121.0,-814.0,0.669,-0.003,0.743,0.026
3548332,-7105.0,-607.0,-168.0,0.666,-0.003,0.745,0.027
3548350,-7503.0,-943.0,-250.0,0.665,-0.003,0.746,0.024
3548368,-7533.0,271.0,-1250.0,0.664,-0.002,0.747,0.021
3548386,-8483.0,-409.0,-688.0,0.664,-0.002,0.747,0.019
3548405,-7969.0,-1315.0,-738.0,0.666,-0.002,0.746,0.015
3548423,-7297.0,-625.0,-900.0,0.668,-0.001,0.744,0.01
3548440,-6939.0,193.0,-1066.0,0.67,-0.003,0.743,0.004
3548457,-6861.0,-551.0,-884.0,0.671,-0.004,0.741,-0.001
3548475,-6893.0,-165.0,-884.0,0.673,-0.006,0.74,-0.006
3548493,-6433.0,-777.0,-1174.0,0.674,-0.009,0.739,-0.011
3548512,-6865.0,-411.0,-710.0,0.675,-0.013,0.738,-0.016
3548531,-6567.0,-1211.0,-708.0,0.676,-0.016,0.736,-0.022
3548550,-6015.0,-449.0,-1200.0,0.677,-0.019,0.735,-0.029
3548568,-6407.0,-167.0,-1138.0,0.676,-0.026,0.735,-0.033
3548578,-7685.0,-1395.0,-988.0,0.676,-0.032,0.735,-0.036
3548596,-7109.0,-1259.0,-758.0,0.676,-0.037,0.735,-0.04
3548616,-6229.0,-999.0,-2798.0,0.675,-0.042,0.735,-0.042
3548635,-8579.0,-945.0,-922.0,0.673,-0.048,0.737,-0.042
3548654,-8203.0,-2431.0,-1234.0,0.671,-0.052,0.738,-0.041
3548673,-7641.0,-2003.0,-818.0,0.671,-0.056,0.738,-0.042
3548691,-6233.0,-1689.0,-1764.0,0.671,-0.06,0.738,-0.042
3548701,-6917.0,-1057.0,-772.0,0.67,-0.065,0.738,-0.043
3548719,-6625.0,-2003.0,-490.0,0.67,-0.07,0.738,-0.043
3548739,-6015.0,-1861.0,-458.0,0.67,-0.074,0.737,-0.045
3548756,-5281.0,-759.0,-1216.0,0.67,-0.078,0.737,-0.047
3548774,-6193.0,-387.0,-856.0,0.668,-0.084,0.738,-0.048
3548792,-6701.0,-1243.0,-892.0,0.666,-0.089,0.739,-0.049
3548810,-6337.0,-857.0,-1936.0,0.664,-0.092,0.74,-0.05
3548828,-6943.0,841.0,-2204.0,0.659,-0.096,0.744,-0.048
3548847,-8717.0,-2071.0,-1234.0,0.653,-0.1,0.749,-0.044
3548867,-8675.0,-2163.0,-1452.0,0.65,-0.102,0.752,-0.043
3548878,-7571.0,-117.0,-2332.0,0.644,-0.103,0.757,-0.042
3548897,-7933.0,-499.0,-1774.0,0.637,-0.101,0.763,-0.039
3548917,-8567.0,-1691.0,-1108.0,0.63,-0.099,0.769,-0.036
3548936,-8781.0,-2833.0,-328.0,0.624,-0.097,0.774,-0.038
3548945,-8141.0,-1341.0,-910.0,0.62,-0.094,0.778,-0.043
3548962,-7631.0,-853.0,-1850.0,0.615,-0.092,0.782,-0.047
3548979,-8811.0,-2169.0,-1162.0,0.61,-0.09,0.785,-0.052
3548996,-9289.0,-2987.0,-768.0,0.608,-0.088,0.787,-0.06
3549014,-8521.0,-2975.0,-2160.0,0.607,-0.086,0.787,-0.071
3549034,-9255.0,-1723.0,-1842.0,0.608,-0.084,0.786,-0.08
3549053,-8359.0,-2459.0,-2594.0,0.609,-0.081,0.784,-0.09
3549072,-8743.0,-2423.0,-2138.0,0.611,-0.078,0.782,-0.098
3549090,-9075.0,-2467.0,-1328.0,0.614,-0.076,0.779,-0.106
3549110,-8927.0,-2307.0,-998.0,0.618,-0.073,0.775,-0.114
3549120,-7903.0,-1943.0,-1190.0,0.623,-0.07,0.77,-0.12
3549137,-7409.0,-1515.0,-1744.0,0.626,-0.067,0.767,-0.127
3549156,-7619.0,-1735.0,-1264.0,0.628,-0.066,0.764,-0.132
3549175,-7665.0,-937.0,-1006.0,0.628,-0.065,0.763,-0.136
3549193,-7815.0,-1515.0,-994.0,0.628,-0.064,0.763,-0.139
3549211,-7829.0,-2141.0,-918.0,0.626,-0.062,0.764,-0.142
3549230,-8799.0,-2025.0,-78.0,0.624,-0.062,0.765,-0.146
3549249,-8989.0,-1929.0,-278.0,0.623,-0.06,0.766,-0.148
3549269,-8787.0,-2711.0,-640.0,0.621,-0.058,0.767,-0.15
3549278,-9209.0,-2463.0,-562.0,0.62,-0.055,0.768,-0.152
3549296,-9099.0,-2915.0,-1160.0,0.618,-0.052,0.769,-0.154
3549316,-9503.0,-3085.0,-1356.0,0.616,-0.049,0.771,-0.155
3549336,-9419.0,-3097.0,-1966.0,0.615,-0.046,0.772,-0.156
3549355,-9835.0,-3465.0,-2058.0,0.614,-0.043,0.772,-0.156
3549364,-10005.0,-3817.0,-1994.0,0.615,-0.039,0.772,-0.157
3549382,-10249.0,-3491.0,-2114.0,0.616,-0.036,0.771,-0.157
3549400,-10227.0,-4041.0,-2036.0,0.617,-0.032,0.77,-0.157
3549419,-10371.0,-3781.0,-1782.0,0.62,-0.029,0.769,-0.157
3549439,-10303.0,-3479.0,-1796.0,0.623,-0.027,0.766,-0.156
3549457,-10253.0,-3543.0,-1840.0,0.626,-0.024,0.764,-0.156
3549476,-10431.0,-3287.0,-1828.0,0.629,-0.023,0.761,-0.156
3549494,-10541.0,-3315.0,-1720.0,0.632,-0.021,0.759,-0.156
3549504,-10631.0,-2925.0,-1730.0,0.635,-0.02,0.756,-0.157
3549522,-10501.0,-2635.0,-1940.0,0.638,-0.02,0.754,-0.157
3549539,-10363.0,-2601.0,-2098.0,0.64,-0.021,0.752,-0.157
3549557,-10289.0,-2353.0,-2166.0,0.641,-0.023,0.751,-0.157
3549575,-10259.0,-2839.0,-2214.0,0.642,-0.025,0.751,-0.156
3549594,-10503.0,-2741.0,-2110.0,0.642,-0.028,0.75,-0.155
3549612,-10675.0,-3039.0,-2032.0,0.642,-0.032,0.75,-0.154
3549631,-10709.0,-3459.0,-1704.0,0.642,-0.036,0.751,-0.153
3549650,-10475.0,-2859.0,-1560.0,0.642,-0.04,0.751,-0.151
3549669,-10209.0,-2767.0,-1464.0,0.642,-0.045,0.751,-0.149
3549678,-9973.0,-2917.0,-1192.0,0.643,-0.049,0.75,-0.146
3549697,-9349.0,-1707.0,-1280.0,0.643,-0.053,0.75,-0.143
3549717,-8747.0,-1953.0,-1290.0,0.643,-0.058,0.751,-0.138
3549735,-8313.0,-2211.0,-1618.0,0.642,-0.063,0.752,-0.132
3549753,-8737.0,-1341.0,-1588.0,0.64,-0.07,0.754,-0.126
3549772,-8939.0,-1545.0,-868.0,0.639,-0.076,0.756,-0.119
3549790,-8177.0,-1531.0,-1002.0,0.639,-0.083,0.757,-0.112
3549808,-7215.0,-1103.0,-1384.0,0.637,-0.089,0.758,-0.105
3549826,-7509.0,-1395.0,-1004.0,0.635,-0.098,0.76,-0.098
3549843,-8041.0,-2147.0,-918.0,0.632,-0.108,0.762,-0.092
3549861,-8313.0,-3135.0,-1636.0,0.631,-0.117,0.762,-0.086
3549871,-9199.0,-2459.0,-1238.0,0.631,-0.125,0.762,-0.082
3549889,-8883.0,-2481.0,-1588.0,0.632,-0.131,0.76,-0.076
3549907,-8631.0,-2935.0,-1250.0,0.634,-0.137,0.758,-0.069
3549925,-7867.0,-2443.0,-1408.0,0.637,-0.141,0.755,-0.062
3549943,-7455.0,-2517.0,-1342.0,0.641,-0.144,0.752,-0.055
3549962,-7313.0,-1683.0,-970.0,0.645,-0.147,0.748,-0.047
3549982,-6757.0,-2203.0,-1456.0,0.65,-0.149,0.744,-0.039
3550001,-6591.0,-2037.0,-722.0,0.655,-0.151,0.74,-0.03
3550010,-5985.0,-1381.0,-1454.0,0.658,-0.15,0.737,-0.022
3550029,-5801.0,-2417.0,-2366.0,0.661,-0.149,0.736,-0.012
3550049,-6445.0,-1403.0,-384.0,0.663,-0.145,0.734,-0.003
3550068,-5423.0,-1863.0,-1082.0,0.665,-0.139,0.734,0.006
3550086,-5155.0,-3551.0,-1912.0,0.667,-0.13,0.734,0.013
3550104,-6117.0,-653.0,-816.0,0.668,-0.12,0.734,0.02
3550122,-6635.0,-1069.0,-990.0,0.668,-0.11,0.735,0.031
3550140,-6885.0,-1175.0,-866.0,0.669,-0.098,0.735,0.042
3550159,-6487.0,-903.0,-810.0,0.671,-0.084,0.735,0.054
3550168,-5459.0,-545.0,-772.0,0.672,-0.069,0.734,0.068
3550186,-4001.0,219.0,-864.0,0.673,-0.055,0.733,0.081
3550204,-3125.0,-593.0,-808.0,0.674,-0.042,0.732,0.093
3550222,-2597.0,-1255.0,-920.0,0.674,-0.029,0.732,0.1
3550240,-2695.0,-1391.0,-940.0,0.673,-0.018,0.732,0.101
3550258,-3255.0,-651.0,-276.0,0.673,-0.011,0.733,0.099
3550276,-3941.0,-1147.0,-80.0,0.673,-0.009,0.734,0.093
3550295,-4331.0,815.0,-722.0,0.673,-0.011,0.734,0.087
3550314,-5353.0,679.0,-970.0,0.674,-0.015,0.734,0.081
3550333,-6977.0,-917.0,-772.0,0.676,-0.017,0.734,0.072
3550342,-7705.0,-617.0,-866.0,0.678,-0.018,0.732,0.063
3550361,-7813.0,451.0,-626.0,0.681,-0.016,0.73,0.054
3550379,-7961.0,-1151.0,-522.0,0.685,-0.016,0.727,0.044
3550398,-7031.0,-1817.0,-1026.0,0.689,-0.014,0.724,0.033
3550417,-6795.0,479.0,-524.0,0.693,-0.013,0.721,0.021
3550435,-5871.0,-955.0,-346.0,0.696,-0.01,0.718,0.01
3550454,-4833.0,-483.0,-450.0,0.699,-0.008,0.715,-0.004
3550472,-3709.0,-301.0,-700.0,0.701,-0.005,0.713,-0.019
3550489,-3307.0,1213.0,-326.0,0.702,-0.004,0.712,-0.035
3550507,-3325.0,189.0,-276.0,0.7,-0.004,0.712,-0.048
3550525,-3363.0,829.0,-560.0,0.697,-0.005,0.714,-0.063
3550543,-4621.0,2055.0,-634.0,0.692,-0.008,0.718,-0.074
3550551,-5693.0,-1839.0,850.0,0.686,-0.011,0.722,-0.085
3550570,-5089.0,15.0,-1892.0,0.68,-0.012,0.726,-0.099
3550587,-6805.0,1587.0,-1514.0,0.671,-0.017,0.733,-0.107
3550605,-9927.0,-3093.0,764.0,0.663,-0.021,0.74,-0.113
3550622,-9105.0,-2857.0,334.0,0.659,-0.022,0.741,-0.124
3550640,-7603.0,-311.0,-816.0,0.655,-0.021,0.743,-0.134
3550658,-7399.0,-751.0,-1930.0,0.649,-0.023,0.747,-0.141
3550675,-9847.0,-1359.0,164.0,0.642,-0.027,0.752,-0.145
3550693,-9165.0,-2801.0,-362.0,0.636,-0.029,0.756,-0.151
3550712,-9003.0,-1017.0,-716.0,0.631,-0.031,0.759,-0.157
3550730,-8421.0,-1219.0,-1336.0,0.624,-0.033,0.764,-0.16
3550750,-9469.0,-1919.0,-668.0,0.616,-0.037,0.77,-0.162
3550769,-9269.0,-2249.0,-1604.0,0.608,-0.041,0.775,-0.165
3550787,-9717.0,-3059.0,-1614.0,0.602,-0.046,0.78,-0.168
3550805,-9533.0,-2111.0,-2152.0,0.594,-0.051,0.785,-0.169
3550813,-9177.0,-2889.0,-3270.0,0.586,-0.057,0.791,-0.167
3550831,-11303.0,-4333.0,-2264.0,0.579,-0.061,0.796,-0.165
3550850,-10405.0,-5095.0,-2932.0,0.576,-0.064,0.798,-0.166
3550868,-10441.0,-3885.0,-2680.0,0.574,-0.068,0.799,-0.167
3550888,-9485.0,-3501.0,-3370.0,0.574,-0.071,0.798,-0.169
3550906,-10001.0,-3263.0,-2452.0,0.575,-0.074,0.797,-0.169
3550924,-9489.0,-3765.0,-2460.0,0.577,-0.077,0.796,-0.169
3550942,-8793.0,-4239.0,-2788.0,0.58,-0.079,0.793,-0.171
3550959,-7933.0,-3165.0,-3220.0,0.582,-0.082,0.791,-0.171
3550976,-7529.0,-3833.0,-3018.0,0.584,-0.084,0.789,-0.171
3550994,-8269.0,-3573.0,-2078.0,0.586,-0.087,0.788,-0.17
3551011,-9775.0,-3445.0,-136.0,0.59,-0.088,0.785,-0.169
3551029,-7679.0,-4911.0,-2194.0,0.597,-0.086,0.779,-0.169
3551047,-7651.0,-3353.0,-2032.0,0.604,-0.085,0.775,-0.168
3551066,-7997.0,-3879.0,-1452.0,0.611,-0.084,0.77,-0.166
3551085,-7997.0,-3525.0,-1646.0,0.617,-0.082,0.765,-0.164
3551093,-8393.0,-3323.0,-1794.0,0.624,-0.078,0.761,-0.161
3551112,-8703.0,-2999.0,-1456.0,0.629,-0.073,0.757,-0.158
3551130,-8879.0,-3083.0,-1172.0,0.635,-0.068,0.754,-0.154
3551149,-8755.0,-3657.0,-1338.0,0.64,-0.063,0.751,-0.152
3551168,-9051.0,-2937.0,-996.0,0.644,-0.058,0.748,-0.149
3551187,-9195.0,-3359.0,-846.0,0.648,-0.052,0.745,-0.147
3551207,-9277.0,-2589.0,-730.0,0.652,-0.046,0.743,-0.145
3551215,-9431.0,-3137.0,-936.0,0.655,-0.041,0.741,-0.143
3551234,-9729.0,-2889.0,-798.0,0.657,-0.036,0.74,-0.141
3551253,-9699.0,-2889.0,-1048.0,0.659,-0.031,0.739,-0.139
3551272,-9567.0,-2925.0,-1518.0,0.659,-0.026,0.739,-0.137
3551290,-9867.0,-2359.0,-1574.0,0.659,-0.023,0.739,-0.136
3551308,-10361.0,-2839.0,-1378.0,0.659,-0.02,0.74,-0.133
3551327,-10321.0,-2543.0,-1592.0,0.658,-0.017,0.741,-0.131
3551345,-10603.0,-2793.0,-1340.0,0.657,-0.016,0.743,-0.127
3551364,-9931.0,-607.0,-2216.0,0.655,-0.017,0.745,-0.123
3551373,-10709.0,-1277.0,-1760.0,0.651,-0.02,0.75,-0.115
3551391,-11263.0,-1671.0,-1912.0,0.647,-0.022,0.755,-0.106
3551408,-10671.0,-1423.0,-2550.0,0.642,-0.023,0.761,-0.096
3551426,-11255.0,-599.0,-2242.0,0.635,-0.025,0.767,-0.085
3551444,-11363.0,-831.0,-1906.0,0.629,-0.028,0.774,-0.074
3551463,-11297.0,-1449.0,-1308.0,0.623,-0.032,0.779,-0.064
3551481,-10693.0,-1015.0,-948.0,0.618,-0.036,0.783,-0.057
3551500,-10037.0,-1095.0,-1158.0,0.616,-0.042,0.785,-0.052
3551518,-10129.0,-1247.0,-522.0,0.616,-0.049,0.784,-0.048
3551536,-8951.0,-849.0,-1298.0,0.618,-0.056,0.783,-0.046
3551554,-9101.0,-659.0,-1102.0,0.622,-0.063,0.779,-0.044
3551571,-8063.0,-1421.0,-1420.0,0.626,-0.069,0.775,-0.043
3551589,-7429.0,-969.0,-1540.0,0.631,-0.076,0.771,-0.043
3551606,-7243.0,-479.0,-1864.0,0.637,-0.082,0.766,-0.042
3551624,-7463.0,-157.0,-1442.0,0.641,-0.089,0.761,-0.04
3551642,-6661.0,-507.0,-1746.0,0.646,-0.094,0.757,-0.037
3551660,-5979.0,-349.0,-1958.0,0.649,-0.1,0.753,-0.034
3551679,-6775.0,-937.0,-1462.0,0.653,-0.109,0.749,-0.031
3551690,-7241.0,-69.0,-1400.0,0.659,-0.115,0.743,-0.028
3551708,-6865.0,-117.0,-998.0,0.666,-0.121,0.736,-0.025
3551726,-5689.0,-763.0,-1386.0,0.673,-0.127,0.728,-0.022
3551744,-5961.0,311.0,-720.0,0.679,-0.136,0.721,-0.018
3551762,-5865.0,-1927.0,-1466.0,0.686,-0.146,0.713,-0.013
3551780,-7553.0,-1747.0,-280.0,0.691,-0.155,0.706,-0.008
3551799,-7161.0,-1441.0,-1702.0,0.697,-0.163,0.699,-0.001
3551818,-7869.0,-1893.0,-1492.0,0.699,-0.173,0.694,0.01
3551837,-8147.0,-3537.0,-1162.0,0.701,-0.181,0.689,0.023
3551844,-7761.0,-2277.0,-1420.0,0.702,-0.188,0.686,0.036
3551863,-8229.0,-2727.0,-1360.0,0.702,-0.195,0.683,0.051
3551882,-8635.0,-3221.0,-320.0,0.702,-0.2,0.68,0.068
3551900,-7525.0,-2525.0,-836.0,0.703,-0.204,0.676,0.082
3551918,-7943.0,-1715.0,-182.0,0.703,-0.208,0.674,0.098
3551937,-7431.0,-849.0,-92.0,0.703,-0.211,0.67,0.114
3551956,-6651.0,-1869.0,-408.0,0.703,-0.214,0.666,0.13
3551973,-6081.0,-1203.0,-322.0,0.702,-0.217,0.663,0.145
3551990,-5745.0,-2341.0,-40.0,0.701,-0.217,0.66,0.158
3552009,-6075.0,-1035.0,-1218.0,0.701,-0.217,0.658,0.169
3552028,-5185.0,1191.0,-414.0,0.699,-0.217,0.657,0.18
3552048,-4979.0,-1751.0,-64.0,0.697,-0.219,0.656,0.191
3552058,-3999.0,-1847.0,-284.0,0.695,-0.219,0.655,0.198
3552076,-3705.0,-777.0,-908.0,0.692,-0.221,0.657,0.202
3552094,-5303.0,403.0,374.0,0.688,-0.224,0.659,0.205
3552112,-4989.0,-1981.0,-54.0,0.686,-0.226,0.66,0.205
3552132,-4817.0,-639.0,-582.0,0.683,-0.23,0.663,0.203
3552150,-5919.0,-733.0,18.0,0.68,-0.235,0.665,0.2
3552169,-6885.0,-1905.0,520.0,0.679,-0.24,0.666,0.195
3552177,-6223.0,-2261.0,-420.0,0.678,-0.242,0.668,0.188
3552195,-6955.0,-1503.0,194.0,0.678,-0.244,0.669,0.18
3552214,-7533.0,-1439.0,-84.0,0.679,-0.244,0.672,0.17
3552234,-7359.0,-2275.0,50.0,0.68,-0.242,0.673,0.161
3552252,-6549.0,-2377.0,-120.0,0.683,-0.239,0.674,0.149
3552272,-6285.0,-1313.0,196.0,0.685,-0.237,0.676,0.136
3552290,-6353.0,-813.0,576.0,0.687,-0.235,0.677,0.123
3552308,-6307.0,-1311.0,738.0,0.689,-0.232,0.678,0.11
3552317,-5687.0,-2605.0,-242.0,0.692,-0.229,0.678,0.096
3552336,-6369.0,-979.0,390.0,0.693,-0.229,0.678,0.082
3552354,-7993.0,-2435.0,1550.0,0.696,-0.229,0.678,0.069
3552372,-7251.0,-2865.0,752.0,0.701,-0.226,0.675,0.054
3552390,-6339.0,-1545.0,-478.0,0.706,-0.223,0.671,0.037
3552408,-7055.0,-671.0,-24.0,0.708,-0.223,0.669,0.024
3552426,-7977.0,-2067.0,376.0,0.71,-0.224,0.668,0.012
3552443,-6683.0,-1931.0,-140.0,0.711,-0.225,0.666,0.001
3552460,-6385.0,-1901.0,-192.0,0.711,-0.228,0.666,-0.01
3552478,-7373.0,-2323.0,-104.0,0.707,-0.234,0.667,-0.018
3552496,-7867.0,-3387.0,-362.0,0.704,-0.238,0.669,-0.026
3552515,-7003.0,-3199.0,-190.0,0.7,-0.24,0.672,-0.032
3552534,-7049.0,-3555.0,374.0,0.696,-0.242,0.675,-0.038
3552553,-6623.0,-2873.0,-564.0,0.69,-0.244,0.68,-0.043
3552562,-7873.0,-3745.0,46.0,0.686,-0.244,0.684,-0.048
3552581,-6223.0,-2397.0,-480.0,0.681,-0.24,0.69,-0.052
3552599,-6531.0,-1913.0,-628.0,0.675,-0.237,0.696,-0.056
3552618,-7039.0,-3071.0,-708.0,0.67,-0.232,0.703,-0.058
3552638,-7073.0,-3215.0,-662.0,0.664,-0.228,0.71,-0.061
3552658,-7249.0,-2365.0,-732.0,0.66,-0.222,0.715,-0.063
3552667,-6783.0,-2043.0,-916.0,0.655,-0.213,0.722,-0.065
3552685,-7333.0,-2761.0,-842.0,0.651,-0.205,0.728,-0.065
3552704,-7897.0,-4075.0,-502.0,0.646,-0.198,0.734,-0.066
3552723,-8811.0,-3047.0,-614.0,0.644,-0.19,0.738,-0.069
3552741,-8701.0,-2643.0,-1366.0,0.643,-0.179,0.741,-0.072
3552760,-8353.0,-2197.0,-1506.0,0.642,-0.168,0.745,-0.072
3552779,-8827.0,-3485.0,-900.0,0.641,-0.158,0.748,-0.072
3552797,-9033.0,-3209.0,-1016.0,0.641,-0.148,0.75,-0.074
3552817,-9367.0,-2799.0,-1224.0,0.641,-0.141,0.75,-0.076
3552827,-9417.0,-2435.0,-1324.0,0.642,-0.132,0.751,-0.077
3552846,-9849.0,-2683.0,-788.0,0.643,-0.124,0.752,-0.079
3552863,-9469.0,-2621.0,-1042.0,0.644,-0.117,0.752,-0.081
3552880,-9673.0,-2617.0,-1008.0,0.645,-0.111,0.751,-0.084
3552897,-10113.0,-2005.0,-884.0,0.647,-0.106,0.75,-0.087
3552915,-9535.0,-2469.0,-1348.0,0.648,-0.1,0.749,-0.09
3552933,-9419.0,-1727.0,-1332.0,0.65,-0.095,0.749,-0.093
3552952,-9173.0,-2327.0,-1554.0,0.65,-0.091,0.748,-0.095
3552971,-9185.0,-2155.0,-1512.0,0.651,-0.088,0.748,-0.097
3552988,-9293.0,-2457.0,-1376.0,0.651,-0.085,0.747,-0.099
3553005,-9097.0,-2427.0,-1544.0,0.653,-0.083,0.746,-0.1
3553023,-9069.0,-2461.0,-1608.0,0.654,-0.081,0.745,-0.101
3553042,-9243.0,-2255.0,-1318.0,0.655,-0.079,0.744,-0.102
3553051,-9303.0,-2445.0,-1460.0,0.657,-0.079,0.743,-0.101
3553069,-9373.0,-2663.0,-1334.0,0.658,-0.078,0.742,-0.1
3553088,-9531.0,-2463.0,-1338.0,0.66,-0.078,0.741,-0.099
3553107,-9467.0,-2447.0,-1482.0,0.661,-0.079,0.74,-0.097
3553125,-9637.0,-2699.0,-1420.0,0.663,-0.08,0.739,-0.095
3553144,-9765.0,-2587.0,-1240.0,0.663,-0.082,0.738,-0.094
3553163,-9615.0,-2519.0,-1430.0,0.664,-0.083,0.737,-0.093
3553183,-9905.0,-2405.0,-1326.0,0.663,-0.086,0.738,-0.091
3553192,-9945.0,-2917.0,-1336.0,0.662,-0.089,0.738,-0.09
3553210,-10077.0,-2415.0,-1380.0,0.661,-0.091,0.74,-0.089
3553229,-9737.0,-2505.0,-1826.0,0.658,-0.094,0.742,-0.087
3553248,-10315.0,-2863.0,-1374.0,0.656,-0.097,0.744,-0.085
3553266,-10251.0,-3193.0,-1404.0,0.653,-0.101,0.746,-0.083
3553284,-9957.0,-2897.0,-1650.0,0.651,-0.104,0.747,-0.081
3553302,-10099.0,-3371.0,-1504.0,0.649,-0.109,0.749,-0.08
3553320,-9993.0,-2757.0,-1700.0,0.648,-0.113,0.749,-0.079
3553338,-10345.0,-3201.0,-1468.0,0.646,-0.118,0.75,-0.077
3553356,-9649.0,-3029.0,-2042.0,0.645,-0.121,0.751,-0.077
3553374,-9831.0,-3221.0,-2102.0,0.644,-0.124,0.751,-0.076
3553383,-10145.0,-3343.0,-1924.0,0.643,-0.127,0.751,-0.075
3553401,-10089.0,-2585.0,-2064.0,0.643,-0.129,0.751,-0.074
3553419,-10059.0,-3305.0,-1618.0,0.645,-0.13,0.75,-0.073
3553438,-9765.0,-2443.0,-1374.0,0.647,-0.13,0.748,-0.073
3553456,-8853.0,-1797.0,-1688.0,0.65,-0.129,0.745,-0.072
3553474,-9239.0,-1865.0,-892.0,0.653,-0.128,0.743,-0.07
3553492,-8925.0,-2001.0,-800.0,0.657,-0.127,0.74,-0.069
3553510,-8745.0,-1871.0,-714.0,0.662,-0.124,0.736,-0.068
3553528,-8211.0,-1761.0,-924.0,0.667,-0.121,0.732,-0.067
3553548,-8457.0,-1899.0,-522.0,0.671,-0.12,0.729,-0.066
3553566,-8555.0,-1933.0,-416.0,0.677,-0.119,0.724,-0.064
3553584,-7787.0,-1515.0,-544.0,0.682,-0.117,0.719,-0.062
3553593,-6891.0,-797.0,-1152.0,0.687,-0.114,0.715,-0.06
3553610,-7077.0,-873.0,-526.0,0.691,-0.113,0.712,-0.057
3553628,-6907.0,-753.0,-490.0,0.694,-0.112,0.709,-0.052
3553647,-6847.0,-1295.0,-1000.0,0.696,-0.112,0.707,-0.046
3553666,-7989.0,-1487.0,106.0,0.699,-0.113,0.706,-0.039
3553685,-6839.0,-1269.0,-1410.0,0.7,-0.114,0.705,-0.031
3553704,-8571.0,-1651.0,-394.0,0.7,-0.115,0.704,-0.022
3553722,-8425.0,-1727.0,170.0,0.701,-0.116,0.703,-0.011
3553739,-7195.0,-871.0,-1002.0,0.701,-0.118,0.703,0.0
3553756,-7581.0,-1477.0,-1038.0,0.7,-0.119,0.704,0.015
3553774,-8645.0,-1231.0,-70.0,0.699,-0.12,0.705,0.031
3553793,-8387.0,-2241.0,306.0,0.699,-0.119,0.704,0.046
3553811,-7359.0,-951.0,-320.0,0.7,-0.117,0.702,0.062
3553820,-6687.0,-623.0,354.0,0.7,-0.113,0.701,0.077
3553838,-4717.0,-1157.0,176.0,0.701,-0.108,0.699,0.091
3553856,-3789.0,205.0,-940.0,0.699,-0.103,0.7,0.105
3553874,-3467.0,1097.0,8.0,0.696,-0.098,0.702,0.12
3553892,-3451.0,-639.0,808.0,0.693,-0.091,0.703,0.134
3553910,-3679.0,-713.0,58.0,0.691,-0.085,0.703,0.146
3553928,-3383.0,399.0,216.0,0.689,-0.082,0.703,0.156
3553947,-3605.0,-903.0,638.0,0.688,-0.081,0.702,0.163
3553964,-3461.0,-1297.0,94.0,0.689,-0.081,0.701,0.166
3553983,-4325.0,-681.0,182.0,0.689,-0.085,0.701,0.165
3554001,-4587.0,-801.0,104.0,0.688,-0.091,0.701,0.162
3554020,-6157.0,-321.0,258.0,0.689,-0.098,0.701,0.157
3554038,-7315.0,-275.0,-16.0,0.69,-0.104,0.7,0.152
3554047,-7223.0,131.0,-238.0,0.692,-0.109,0.698,0.148
3554065,-7075.0,-1187.0,-400.0,0.694,-0.114,0.697,0.143
3554084,-6329.0,-583.0,-600.0,0.695,-0.119,0.696,0.137
3554103,-6077.0,-551.0,-216.0,0.696,-0.123,0.695,0.131
3554121,-6089.0,-291.0,280.0,0.697,-0.127,0.694,0.125
3554138,-5357.0,-81.0,180.0,0.698,-0.131,0.694,0.118
3554155,-4013.0,-1279.0,-528.0,0.699,-0.135,0.694,0.111
3554172,-4267.0,-977.0,-570.0,0.698,-0.14,0.695,0.101
3554190,-5109.0,-37.0,-6.0,0.696,-0.142,0.698,0.091
3554208,-5527.0,301.0,230.0,0.694,-0.143,0.701,0.082
3554225,-5413.0,-631.0,-302.0,0.691,-0.145,0.704,0.074
3554242,-5569.0,-1741.0,-988.0,0.689,-0.147,0.707,0.064
3554260,-5731.0,-273.0,-478.0,0.687,-0.148,0.71,0.054
3554279,-6907.0,583.0,-308.0,0.684,-0.149,0.713,0.045
3554297,-6429.0,-1501.0,-2.0,0.682,-0.15,0.715,0.037
3554316,-6065.0,-1521.0,-1364.0,0.68,-0.151,0.717,0.027
3554335,-6861.0,-31.0,-584.0,0.677,-0.153,0.719,0.018
3554353,-7369.0,-471.0,-326.0,0.674,-0.151,0.723,0.011
3554361,-7431.0,-1293.0,-490.0,0.671,-0.149,0.726,0.004
3554380,-7145.0,-1771.0,-934.0,0.669,-0.148,0.729,-0.002
3554400,-7235.0,-863.0,-1462.0,0.666,-0.145,0.732,-0.01
3554418,-8701.0,-895.0,-378.0,0.663,-0.142,0.735,-0.013
3554436,-8199.0,-1305.0,-420.0,0.662,-0.137,0.737,-0.017
3554454,-8483.0,-725.0,-38.0,0.661,-0.131,0.738,-0.02
3554471,-8525.0,-235.0,-180.0,0.661,-0.125,0.74,-0.021
3554489,-8955.0,-385.0,-332.0,0.661,-0.119,0.741,-0.022
3554507,-10207.0,-1027.0,326.0,0.662,-0.112,0.741,-0.024
3554525,-10341.0,-1173.0,-158.0,0.666,-0.105,0.738,-0.027
3554544,-10759.0,301.0,-392.0,0.67,-0.098,0.735,-0.032
3554562,-10997.0,-467.0,-594.0,0.676,-0.091,0.731,-0.035
3554580,-11373.0,-587.0,-690.0,0.682,-0.083,0.726,-0.038
3554590,-11693.0,-1175.0,-488.0,0.689,-0.075,0.719,-0.042
3554608,-11551.0,-1771.0,-758.0,0.697,-0.067,0.712,-0.048
3554626,-11407.0,-1891.0,-750.0,0.706,-0.059,0.704,-0.054
3554644,-11935.0,-2005.0,-508.0,0.715,-0.05,0.695,-0.059
3554662,-11803.0,-3053.0,-516.0,0.724,-0.04,0.685,-0.065
3554680,-11367.0,-2867.0,-350.0,0.735,-0.029,0.674,-0.071
3554699,-10887.0,-1843.0,-344.0,0.745,-0.018,0.662,-0.077
3554718,-10761.0,-3621.0,398.0,0.757,-0.008,0.648,-0.081
