timeMs,ax,ay,az,q0,q1,q2,q3
729930,-8428.0,-2781.0,35.0,0.658,-0.461,0.56,0.201
729947,-9116.0,-3251.0,183.0,0.658,-0.461,0.559,0.205
729964,-9528.0,-4101.0,-139.0,0.658,-0.461,0.558,0.21
729981,-10222.0,-4039.0,-195.0,0.658,-0.461,0.557,0.213
729997,-10572.0,-4249.0,-241.0,0.658,-0.461,0.555,0.217
730013,-10540.0,-4661.0,-603.0,0.658,-0.462,0.553,0.22
730040,-10974.0,-5357.0,-617.0,0.657,-0.464,0.551,0.222
730056,-11590.0,-5263.0,-663.0,0.656,-0.467,0.549,0.224
730072,-11536.0,-5927.0,-755.0,0.655,-0.47,0.547,0.226
730088,-11752.0,-5763.0,-777.0,0.654,-0.474,0.545,0.226
730104,-12452.0,-5647.0,-685.0,0.653,-0.479,0.542,0.226
730120,-12700.0,-6137.0,-879.0,0.652,-0.484,0.539,0.225
730146,-12996.0,-5527.0,-953.0,0.651,-0.489,0.537,0.223
730163,-13056.0,-5421.0,-795.0,0.649,-0.494,0.535,0.221
730180,-12556.0,-4873.0,-907.0,0.647,-0.499,0.533,0.219
730197,-11172.0,-5327.0,-1291.0,0.646,-0.503,0.531,0.216
730214,-10942.0,-4047.0,-1003.0,0.646,-0.507,0.53,0.213
730231,-10182.0,-4269.0,-1017.0,0.645,-0.511,0.528,0.21
730247,-10432.0,-3801.0,-749.0,0.645,-0.514,0.527,0.207
730263,-9538.0,-3805.0,-757.0,0.645,-0.515,0.525,0.207
730280,-8442.0,-4255.0,-773.0,0.647,-0.515,0.523,0.208
730297,-7876.0,-2811.0,-547.0,0.648,-0.513,0.522,0.21
730314,-7490.0,-3163.0,-311.0,0.65,-0.512,0.52,0.212
730341,-6802.0,-2899.0,-551.0,0.653,-0.509,0.518,0.215
730358,-7050.0,-1867.0,325.0,0.655,-0.507,0.517,0.218
730374,-6518.0,-2357.0,-63.0,0.657,-0.503,0.515,0.223
730390,-6210.0,-3173.0,-367.0,0.661,-0.498,0.514,0.228
730407,-5314.0,-1691.0,1.0,0.663,-0.493,0.512,0.233
730424,-5566.0,-2607.0,-65.0,0.665,-0.49,0.512,0.238
730440,-6290.0,-1981.0,599.0,0.666,-0.487,0.511,0.243
730456,-6424.0,-2163.0,391.0,0.667,-0.483,0.51,0.249
730482,-6198.0,-2365.0,389.0,0.668,-0.48,0.508,0.255
730499,-5822.0,-2229.0,-203.0,0.669,-0.477,0.506,0.263
730516,-6042.0,-3305.0,363.0,0.669,-0.474,0.505,0.27
730532,-6330.0,-2395.0,661.0,0.67,-0.471,0.502,0.278
730548,-5722.0,-2557.0,569.0,0.67,-0.468,0.5,0.287
730564,-5322.0,-2527.0,551.0,0.671,-0.464,0.497,0.296
730580,-4934.0,-2615.0,657.0,0.671,-0.46,0.494,0.306
730597,-4542.0,-1821.0,937.0,0.671,-0.457,0.492,0.315
730623,-3776.0,-2281.0,993.0,0.67,-0.453,0.49,0.325
730639,-2806.0,-1981.0,1135.0,0.669,-0.45,0.488,0.334
730655,-2352.0,-2251.0,1003.0,0.668,-0.448,0.487,0.34
730671,-2262.0,-2035.0,1081.0,0.666,-0.448,0.487,0.344
730687,-2628.0,-2375.0,1129.0,0.663,-0.45,0.488,0.346
730704,-2430.0,-2129.0,1005.0,0.66,-0.454,0.488,0.346
730721,-2956.0,-2887.0,937.0,0.657,-0.459,0.49,0.343
730748,-3678.0,-1843.0,823.0,0.654,-0.466,0.49,0.338
730764,-3658.0,-2783.0,753.0,0.651,-0.473,0.49,0.333
730780,-3758.0,-3745.0,939.0,0.649,-0.481,0.491,0.327
730797,-4048.0,-2479.0,281.0,0.646,-0.488,0.492,0.32
730813,-4250.0,-3207.0,341.0,0.643,-0.495,0.493,0.312
730830,-4792.0,-3227.0,243.0,0.64,-0.502,0.495,0.305
730846,-4788.0,-2945.0,149.0,0.638,-0.508,0.497,0.297
730862,-5480.0,-3221.0,-103.0,0.635,-0.514,0.499,0.289
730889,-6522.0,-2711.0,-87.0,0.634,-0.517,0.5,0.282
730905,-6196.0,-2847.0,-51.0,0.634,-0.52,0.502,0.275
730921,-6612.0,-3097.0,-391.0,0.635,-0.521,0.503,0.269
730937,-7308.0,-3107.0,39.0,0.636,-0.522,0.504,0.261
730954,-7460.0,-2595.0,-83.0,0.639,-0.521,0.505,0.254
730970,-7884.0,-2635.0,-67.0,0.642,-0.52,0.506,0.249
730986,-7746.0,-4203.0,1.0,0.645,-0.518,0.506,0.243
731012,-8442.0,-3093.0,-439.0,0.649,-0.516,0.507,0.237
731029,-8752.0,-4041.0,-109.0,0.653,-0.514,0.507,0.231
731046,-8732.0,-2867.0,247.0,0.657,-0.511,0.506,0.227
731063,-7664.0,-3669.0,-97.0,0.659,-0.508,0.507,0.225
731080,-8706.0,-3443.0,409.0,0.662,-0.506,0.507,0.222
731096,-7982.0,-4011.0,197.0,0.664,-0.504,0.507,0.219
731113,-8050.0,-3289.0,399.0,0.665,-0.502,0.508,0.218
731130,-8632.0,-2453.0,321.0,0.665,-0.501,0.51,0.218
731146,-8516.0,-4353.0,253.0,0.664,-0.5,0.511,0.218
731163,-8752.0,-3593.0,245.0,0.664,-0.499,0.512,0.217
731190,-8438.0,-2831.0,301.0,0.664,-0.498,0.513,0.218
731206,-8252.0,-3013.0,391.0,0.664,-0.497,0.514,0.22
731222,-8236.0,-3073.0,485.0,0.664,-0.495,0.514,0.222
731238,-7962.0,-2725.0,413.0,0.664,-0.494,0.514,0.225
731254,-7660.0,-2447.0,343.0,0.664,-0.493,0.514,0.228
731271,-7680.0,-2541.0,493.0,0.663,-0.492,0.515,0.232
731287,-7752.0,-2487.0,375.0,0.663,-0.491,0.514,0.235
731313,-7836.0,-2837.0,255.0,0.662,-0.49,0.514,0.239
731329,-7704.0,-2649.0,-51.0,0.662,-0.488,0.514,0.243
731346,-8210.0,-2925.0,-111.0,0.661,-0.487,0.515,0.248
731362,-8032.0,-3161.0,-471.0,0.66,-0.485,0.515,0.253
731379,-8480.0,-3947.0,-723.0,0.659,-0.483,0.516,0.257
731395,-9330.0,-3661.0,-853.0,0.659,-0.481,0.516,0.26
731412,-10096.0,-4387.0,-1001.0,0.659,-0.479,0.517,0.264
731438,-10554.0,-5221.0,-1233.0,0.659,-0.476,0.517,0.268
731454,-11226.0,-5163.0,-1309.0,0.66,-0.473,0.518,0.27
731471,-11938.0,-5385.0,-1337.0,0.662,-0.47,0.517,0.272
731487,-12226.0,-5889.0,-1175.0,0.664,-0.466,0.517,0.274
731504,-11946.0,-5371.0,-1305.0,0.666,-0.463,0.516,0.275
731520,-11780.0,-5233.0,-1213.0,0.669,-0.461,0.515,0.275
731536,-11602.0,-5277.0,-1139.0,0.671,-0.459,0.514,0.275
731562,-11720.0,-4877.0,-847.0,0.673,-0.458,0.513,0.273
731579,-11564.0,-5223.0,-597.0,0.674,-0.458,0.512,0.271
731595,-11520.0,-5275.0,-415.0,0.675,-0.459,0.512,0.269
731612,-11232.0,-5031.0,-535.0,0.675,-0.46,0.512,0.265
731629,-11274.0,-4979.0,-381.0,0.675,-0.462,0.513,0.261
731646,-11290.0,-4413.0,-15.0,0.674,-0.465,0.513,0.257
731663,-10840.0,-3915.0,25.0,0.672,-0.468,0.514,0.254
731680,-10556.0,-4273.0,259.0,0.67,-0.472,0.515,0.25
731696,-10392.0,-3721.0,395.0,0.669,-0.476,0.516,0.246
731712,-9950.0,-3743.0,605.0,0.667,-0.48,0.516,0.241
731739,-9688.0,-3171.0,675.0,0.666,-0.483,0.517,0.238
731755,-9638.0,-2457.0,1007.0,0.665,-0.486,0.516,0.236
731771,-7962.0,-3791.0,717.0,0.664,-0.488,0.516,0.234
731787,-8606.0,-2443.0,751.0,0.664,-0.488,0.516,0.233
731804,-7912.0,-2533.0,657.0,0.664,-0.489,0.515,0.233
731820,-7680.0,-2455.0,493.0,0.665,-0.489,0.514,0.233
731836,-6948.0,-2727.0,287.0,0.665,-0.489,0.514,0.234
731862,-7030.0,-2723.0,265.0,0.665,-0.489,0.514,0.234
731879,-7150.0,-2031.0,615.0,0.665,-0.488,0.514,0.236
731896,-6494.0,-1953.0,395.0,0.665,-0.486,0.514,0.239
731912,-6156.0,-2595.0,343.0,0.665,-0.484,0.514,0.242
731929,-6540.0,-2427.0,215.0,0.665,-0.482,0.515,0.246
731946,-6640.0,-2305.0,105.0,0.665,-0.479,0.515,0.251
731963,-6838.0,-2609.0,109.0,0.666,-0.476,0.514,0.256
731980,-6706.0,-2491.0,209.0,0.667,-0.472,0.513,0.262
731996,-6518.0,-2375.0,303.0,0.669,-0.467,0.512,0.268
732013,-6108.0,-2491.0,225.0,0.672,-0.461,0.511,0.275
732039,-5932.0,-2401.0,73.0,0.674,-0.455,0.509,0.281
732055,-6164.0,-1941.0,551.0,0.677,-0.449,0.508,0.288
732071,-5422.0,-2001.0,527.0,0.679,-0.442,0.506,0.295
732087,-4412.0,-1449.0,981.0,0.683,-0.434,0.504,0.303
732103,-2866.0,-1449.0,985.0,0.686,-0.427,0.502,0.309
732129,-2148.0,-1027.0,1347.0,0.689,-0.42,0.5,0.314
732145,-1998.0,-735.0,2035.0,0.692,-0.414,0.5,0.316
732161,-1728.0,535.0,2075.0,0.694,-0.41,0.499,0.319
732177,-1378.0,-409.0,2311.0,0.695,-0.407,0.497,0.321
732194,-1662.0,81.0,2525.0,0.696,-0.406,0.497,0.321
732210,-1998.0,63.0,2769.0,0.697,-0.406,0.496,0.321
732227,-2210.0,241.0,2669.0,0.697,-0.408,0.495,0.32
732244,-2814.0,-431.0,2829.0,0.697,-0.412,0.494,0.318
732261,-3428.0,-511.0,2827.0,0.696,-0.415,0.493,0.316
732278,-3938.0,-613.0,2711.0,0.696,-0.419,0.492,0.314
732305,-4136.0,-1551.0,2549.0,0.695,-0.424,0.49,0.312
732321,-5276.0,-1801.0,2557.0,0.694,-0.429,0.489,0.309
732337,-5990.0,-1521.0,2245.0,0.693,-0.433,0.488,0.306
732353,-6252.0,-2479.0,2217.0,0.693,-0.437,0.487,0.303
732369,-6852.0,-2207.0,1573.0,0.691,-0.442,0.487,0.3
732395,-7052.0,-3099.0,1625.0,0.69,-0.445,0.487,0.298
732411,-8424.0,-1731.0,1859.0,0.689,-0.448,0.487,0.296
732428,-8040.0,-1887.0,1783.0,0.687,-0.451,0.486,0.297
732445,-8076.0,-2591.0,1505.0,0.685,-0.455,0.485,0.298
732462,-8680.0,-2175.0,1851.0,0.683,-0.457,0.485,0.299
732479,-8716.0,-2849.0,1787.0,0.681,-0.46,0.484,0.301
732496,-8824.0,-2443.0,1697.0,0.68,-0.461,0.482,0.303
732513,-8884.0,-2363.0,1175.0,0.679,-0.463,0.481,0.306
732530,-9352.0,-3323.0,1383.0,0.678,-0.463,0.48,0.309
732547,-9410.0,-2419.0,1089.0,0.678,-0.463,0.478,0.313
732563,-8930.0,-2779.0,847.0,0.677,-0.463,0.475,0.318
732579,-8966.0,-3491.0,781.0,0.677,-0.463,0.472,0.324
732605,-8790.0,-2881.0,805.0,0.676,-0.462,0.47,0.33
732621,-8478.0,-2835.0,825.0,0.675,-0.462,0.467,0.336
732637,-7754.0,-3251.0,753.0,0.674,-0.461,0.464,0.342
732653,-7802.0,-2999.0,937.0,0.672,-0.461,0.462,0.348
732669,-7450.0,-3169.0,753.0,0.671,-0.461,0.46,0.354
732695,-7088.0,-2987.0,755.0,0.669,-0.461,0.459,0.359
732712,-7236.0,-2671.0,797.0,0.668,-0.461,0.458,0.363
732728,-7596.0,-2511.0,899.0,0.666,-0.46,0.457,0.369
732744,-8110.0,-2865.0,1075.0,0.664,-0.459,0.455,0.375
732761,-8802.0,-3263.0,1261.0,0.663,-0.457,0.454,0.381
732777,-9174.0,-3893.0,1273.0,0.662,-0.454,0.453,0.387
732793,-10066.0,-3723.0,1441.0,0.663,-0.451,0.452,0.391
732810,-11238.0,-4127.0,1447.0,0.664,-0.448,0.45,0.395
732837,-12006.0,-5053.0,1611.0,0.665,-0.444,0.448,0.399
732853,-12858.0,-4639.0,1759.0,0.668,-0.441,0.446,0.401
732869,-13344.0,-5207.0,1887.0,0.671,-0.438,0.442,0.402
732886,-13732.0,-5221.0,2205.0,0.675,-0.436,0.439,0.402
732902,-13732.0,-4747.0,2569.0,0.678,-0.435,0.436,0.402
732918,-13250.0,-4639.0,2915.0,0.68,-0.435,0.433,0.401
732935,-12116.0,-4135.0,2763.0,0.681,-0.438,0.431,0.399
732952,-12256.0,-4227.0,2975.0,0.681,-0.442,0.43,0.395
732978,-12536.0,-3361.0,3049.0,0.68,-0.448,0.43,0.391
732995,-11944.0,-3515.0,2891.0,0.677,-0.455,0.431,0.387
733012,-11270.0,-3165.0,2753.0,0.673,-0.462,0.433,0.382
733029,-10168.0,-3597.0,2181.0,0.669,-0.47,0.436,0.376
733046,-10394.0,-2379.0,1833.0,0.664,-0.48,0.439,0.369
733062,-10398.0,-2701.0,1759.0,0.659,-0.489,0.443,0.362
733078,-10136.0,-2169.0,1205.0,0.653,-0.497,0.447,0.356
733094,-10314.0,-1953.0,1161.0,0.647,-0.505,0.45,0.352
733111,-9310.0,-2121.0,713.0,0.643,-0.51,0.453,0.348
733137,-8996.0,-1967.0,667.0,0.639,-0.515,0.456,0.345
733153,-7632.0,-2279.0,27.0,0.635,-0.519,0.459,0.341
733169,-8432.0,-1467.0,765.0,0.633,-0.521,0.462,0.338
733186,-7320.0,-1039.0,283.0,0.632,-0.522,0.465,0.336
733202,-7324.0,-1323.0,545.0,0.631,-0.521,0.467,0.336
733219,-6476.0,-1473.0,207.0,0.63,-0.519,0.47,0.336
733236,-6414.0,-2081.0,183.0,0.631,-0.517,0.472,0.335
733252,-6968.0,-2255.0,485.0,0.632,-0.513,0.475,0.334
733278,-7180.0,-1651.0,387.0,0.634,-0.509,0.479,0.333
733295,-7144.0,-2847.0,81.0,0.636,-0.503,0.482,0.332
733312,-7720.0,-2879.0,199.0,0.639,-0.496,0.485,0.331
733329,-6842.0,-2197.0,-499.0,0.643,-0.489,0.488,0.331
733346,-6662.0,-3253.0,-289.0,0.646,-0.482,0.49,0.331
733362,-7274.0,-3771.0,161.0,0.651,-0.474,0.492,0.33
733378,-6874.0,-2605.0,91.0,0.657,-0.464,0.493,0.331
733394,-5506.0,-2545.0,55.0,0.665,-0.452,0.493,0.333
733420,-3928.0,-1803.0,199.0,0.672,-0.44,0.492,0.335
733436,-2254.0,1503.0,207.0,0.678,-0.427,0.492,0.339
733452,-2258.0,1009.0,1153.0,0.681,-0.418,0.492,0.346
733468,-1648.0,-795.0,1521.0,0.683,-0.41,0.491,0.353
733484,-1150.0,-2191.0,1697.0,0.686,-0.403,0.49,0.357
733500,-932.0,-165.0,1609.0,0.689,-0.398,0.49,0.358
733526,-1284.0,-653.0,1671.0,0.691,-0.396,0.489,0.356
733543,-1418.0,-1047.0,1525.0,0.694,-0.396,0.489,0.351
733560,-1916.0,-1495.0,1783.0,0.696,-0.396,0.49,0.343
733577,-2948.0,-593.0,1877.0,0.699,-0.398,0.492,0.334
733594,-4022.0,-743.0,1661.0,0.701,-0.4,0.493,0.326
733610,-5076.0,-2227.0,1849.0,0.702,-0.403,0.494,0.317
733626,-5512.0,-631.0,1007.0,0.704,-0.406,0.494,0.309
733643,-6948.0,-2875.0,1601.0,0.706,-0.409,0.493,0.302
733660,-6918.0,-1571.0,1487.0,0.707,-0.412,0.492,0.298
733677,-6984.0,-2199.0,1685.0,0.708,-0.416,0.49,0.294
733703,-6598.0,-4131.0,1723.0,0.708,-0.42,0.488,0.29
733719,-6882.0,-2085.0,1661.0,0.709,-0.423,0.486,0.287
733736,-7072.0,-1879.0,1985.0,0.709,-0.427,0.484,0.284
733752,-7250.0,-3863.0,2061.0,0.708,-0.431,0.482,0.283
733769,-7898.0,-2909.0,1993.0,0.709,-0.434,0.48,0.28
733786,-7768.0,-2747.0,2107.0,0.708,-0.438,0.478,0.279
733802,-7938.0,-2413.0,2145.0,0.707,-0.442,0.477,0.279
733818,-7446.0,-3377.0,1957.0,0.706,-0.446,0.475,0.279
733845,-7720.0,-5375.0,2023.0,0.705,-0.448,0.474,0.278
733861,-8974.0,-2551.0,1711.0,0.704,-0.451,0.474,0.276
733878,-9234.0,-4779.0,1785.0,0.704,-0.453,0.473,0.275
733894,-8936.0,-3745.0,1473.0,0.704,-0.455,0.471,0.275
733910,-8456.0,-3333.0,1489.0,0.703,-0.457,0.47,0.277
733927,-8566.0,-2581.0,1733.0,0.701,-0.46,0.468,0.278
733944,-7966.0,-2717.0,1507.0,0.699,-0.463,0.467,0.281
733960,-7702.0,-2435.0,1553.0,0.697,-0.465,0.466,0.284
733987,-7804.0,-2011.0,1597.0,0.695,-0.468,0.464,0.287
734003,-7760.0,-3121.0,1511.0,0.693,-0.47,0.463,0.29
734019,-7684.0,-2607.0,1301.0,0.693,-0.471,0.462,0.291
734035,-8012.0,-2049.0,1353.0,0.692,-0.473,0.461,0.293
734051,-7596.0,-2659.0,1063.0,0.691,-0.474,0.459,0.296
734068,-7696.0,-2411.0,953.0,0.689,-0.476,0.458,0.298
734085,-7502.0,-2767.0,811.0,0.688,-0.478,0.456,0.301
734111,-7598.0,-2313.0,713.0,0.686,-0.48,0.455,0.304
734128,-7406.0,-3203.0,705.0,0.684,-0.482,0.454,0.306
734144,-7860.0,-2899.0,803.0,0.682,-0.484,0.453,0.309
734160,-7856.0,-3045.0,519.0,0.68,-0.486,0.452,0.312
734177,-8200.0,-3419.0,653.0,0.678,-0.488,0.451,0.315
734194,-8188.0,-3433.0,465.0,0.675,-0.49,0.45,0.319
734211,-8546.0,-3693.0,433.0,0.672,-0.491,0.45,0.323
734227,-9046.0,-4003.0,319.0,0.67,-0.492,0.45,0.327
734244,-9716.0,-5169.0,407.0,0.667,-0.491,0.452,0.33
734270,-10544.0,-4309.0,299.0,0.666,-0.491,0.452,0.333
734286,-10996.0,-4781.0,311.0,0.665,-0.49,0.452,0.337
734302,-11742.0,-5393.0,443.0,0.664,-0.49,0.452,0.339
734318,-12494.0,-5567.0,719.0,0.663,-0.49,0.452,0.342
734334,-12654.0,-6143.0,1047.0,0.662,-0.489,0.451,0.345
734350,-12376.0,-5291.0,959.0,0.662,-0.489,0.451,0.346
734376,-12698.0,-5335.0,1299.0,0.66,-0.49,0.451,0.348
734393,-12756.0,-5043.0,1319.0,0.658,-0.492,0.451,0.349
734410,-12880.0,-5435.0,1421.0,0.656,-0.494,0.451,0.35
734427,-12508.0,-5093.0,1393.0,0.654,-0.497,0.45,0.35
734444,-12048.0,-4427.0,1299.0,0.653,-0.499,0.45,0.349
734460,-12006.0,-4053.0,1375.0,0.652,-0.501,0.45,0.349
734477,-11904.0,-3085.0,1445.0,0.652,-0.502,0.449,0.348
734494,-10246.0,-4035.0,1105.0,0.652,-0.504,0.448,0.347
734510,-10124.0,-2655.0,1175.0,0.653,-0.505,0.448,0.345
734527,-9416.0,-2081.0,961.0,0.653,-0.506,0.447,0.343
734553,-9324.0,-2599.0,1267.0,0.653,-0.507,0.446,0.343
734569,-8942.0,-2257.0,1551.0,0.654,-0.507,0.444,0.344
734585,-8216.0,-2337.0,1409.0,0.655,-0.506,0.443,0.346
734601,-8058.0,-2089.0,1545.0,0.656,-0.503,0.442,0.349
734617,-6254.0,-2775.0,571.0,0.656,-0.502,0.441,0.351
734633,-6638.0,-2077.0,801.0,0.656,-0.502,0.44,0.351
734659,-7628.0,-1295.0,1361.0,0.655,-0.502,0.44,0.353
734676,-7090.0,-2019.0,1553.0,0.654,-0.502,0.439,0.357
734693,-6282.0,-2505.0,893.0,0.653,-0.499,0.44,0.361
734710,-5926.0,-1613.0,1091.0,0.652,-0.496,0.441,0.367
734727,-5128.0,-2389.0,763.0,0.649,-0.495,0.443,0.371
734743,-5958.0,-2211.0,699.0,0.647,-0.493,0.445,0.375
734760,-6280.0,-1685.0,1095.0,0.644,-0.492,0.446,0.379
734776,-6518.0,-1893.0,805.0,0.642,-0.489,0.448,0.385
734793,-6458.0,-2553.0,781.0,0.639,-0.485,0.449,0.392
734810,-5560.0,-3045.0,523.0,0.638,-0.481,0.45,0.398
734836,-5844.0,-2587.0,85.0,0.637,-0.475,0.452,0.405
734852,-5710.0,-1183.0,789.0,0.636,-0.468,0.454,0.413
734869,-4098.0,-2265.0,491.0,0.634,-0.458,0.456,0.424
734885,-3826.0,157.0,1055.0,0.634,-0.447,0.458,0.435
734901,-2320.0,-1383.0,875.0,0.633,-0.438,0.457,0.446
734917,-1886.0,-1681.0,1519.0,0.633,-0.429,0.456,0.455
734933,-982.0,-1423.0,1399.0,0.634,-0.424,0.454,0.461
734959,-1022.0,-1373.0,1811.0,0.635,-0.423,0.452,0.463
734976,-1460.0,-899.0,1877.0,0.636,-0.424,0.45,0.461
734993,-1628.0,-833.0,1685.0,0.637,-0.428,0.448,0.458
735010,-1990.0,-1493.0,1461.0,0.637,-0.435,0.446,0.454
735027,-3156.0,-1277.0,1617.0,0.637,-0.442,0.445,0.447
735043,-5032.0,-325.0,1807.0,0.638,-0.45,0.443,0.441
735060,-5276.0,-2819.0,1667.0,0.638,-0.456,0.442,0.435
735077,-5036.0,-2771.0,1363.0,0.64,-0.461,0.442,0.428
735093,-5214.0,-2361.0,1777.0,0.642,-0.466,0.441,0.42
735110,-5322.0,-1735.0,1751.0,0.644,-0.472,0.44,0.411
735136,-5704.0,-2035.0,1885.0,0.646,-0.477,0.439,0.402
735152,-6430.0,-1989.0,1899.0,0.649,-0.482,0.438,0.393
735168,-6574.0,-1421.0,1739.0,0.65,-0.488,0.437,0.384
735184,-6470.0,-2779.0,1763.0,0.651,-0.494,0.437,0.376
735200,-6688.0,-3181.0,1391.0,0.653,-0.499,0.437,0.367
735226,-7270.0,-2997.0,1251.0,0.654,-0.503,0.438,0.357
735243,-8482.0,-2543.0,1273.0,0.655,-0.507,0.44,0.348
735259,-8540.0,-2747.0,1319.0,0.655,-0.51,0.441,0.341
735276,-8166.0,-3065.0,1093.0,0.655,-0.514,0.442,0.335
735292,-8366.0,-3043.0,1329.0,0.654,-0.517,0.443,0.329
735309,-8438.0,-4555.0,989.0,0.654,-0.52,0.445,0.323
735326,-9058.0,-3293.0,667.0,0.654,-0.523,0.446,0.318
735342,-10004.0,-2657.0,903.0,0.652,-0.525,0.447,0.315
735359,-9224.0,-3999.0,499.0,0.651,-0.527,0.448,0.313
735376,-9332.0,-3751.0,683.0,0.65,-0.529,0.448,0.313
735403,-8660.0,-3181.0,321.0,0.648,-0.53,0.448,0.313
735419,-8920.0,-3425.0,593.0,0.647,-0.532,0.447,0.314
735435,-8758.0,-3347.0,259.0,0.645,-0.534,0.446,0.316
735451,-9022.0,-3487.0,585.0,0.644,-0.535,0.445,0.318
735467,-8360.0,-3377.0,341.0,0.643,-0.536,0.443,0.321
735484,-8432.0,-2927.0,473.0,0.641,-0.538,0.441,0.324
735500,-7974.0,-3697.0,547.0,0.64,-0.539,0.439,0.328
735517,-7592.0,-3405.0,381.0,0.64,-0.539,0.437,0.33
735544,-7802.0,-2619.0,411.0,0.638,-0.54,0.435,0.334
735561,-7944.0,-3167.0,601.0,0.637,-0.541,0.433,0.338
735577,-7778.0,-3619.0,491.0,0.635,-0.541,0.432,0.343
735594,-7978.0,-3491.0,273.0,0.633,-0.542,0.43,0.347
735611,-7884.0,-4061.0,101.0,0.632,-0.542,0.429,0.35
735627,-8788.0,-3695.0,119.0,0.63,-0.543,0.429,0.353
735644,-9696.0,-4339.0,95.0,0.628,-0.543,0.429,0.356
735661,-10160.0,-4775.0,-101.0,0.627,-0.543,0.429,0.359
735678,-10744.0,-5025.0,-117.0,0.626,-0.543,0.428,0.361
735705,-10842.0,-5481.0,-353.0,0.625,-0.543,0.428,0.362
735722,-11518.0,-5447.0,-259.0,0.625,-0.543,0.428,0.362
735738,-12242.0,-5689.0,-55.0,0.626,-0.543,0.428,0.362
735754,-12718.0,-6221.0,-253.0,0.627,-0.543,0.428,0.36
735771,-13734.0,-6033.0,-181.0,0.629,-0.543,0.427,0.357
735788,-13168.0,-6467.0,-269.0,0.631,-0.543,0.426,0.354
735804,-12544.0,-6101.0,-295.0,0.632,-0.544,0.427,0.349
735820,-12304.0,-5247.0,79.0,0.633,-0.546,0.428,0.343
735836,-11136.0,-4785.0,11.0,0.634,-0.548,0.429,0.338
735862,-10572.0,-5015.0,81.0,0.633,-0.55,0.432,0.333
735879,-10334.0,-4063.0,207.0,0.631,-0.552,0.434,0.328
735895,-10386.0,-3837.0,615.0,0.63,-0.554,0.437,0.324
735912,-9056.0,-4335.0,243.0,0.628,-0.556,0.44,0.32
735929,-9112.0,-4113.0,305.0,0.627,-0.557,0.443,0.316
735945,-9164.0,-3107.0,297.0,0.627,-0.558,0.446,0.313
735961,-9064.0,-2983.0,345.0,0.625,-0.558,0.449,0.311
735987,-8506.0,-2607.0,459.0,0.624,-0.557,0.451,0.31
736003,-7820.0,-2819.0,175.0,0.623,-0.555,0.454,0.311
736019,-7440.0,-2185.0,105.0,0.622,-0.554,0.457,0.312
736035,-7644.0,-2411.0,491.0,0.621,-0.552,0.46,0.314
736051,-7270.0,-1757.0,501.0,0.62,-0.549,0.463,0.317
736067,-7128.0,-1913.0,431.0,0.618,-0.545,0.465,0.322
736093,-6950.0,-2107.0,729.0,0.617,-0.541,0.468,0.327
736110,-5896.0,-2987.0,197.0,0.616,-0.537,0.472,0.331
736126,-6464.0,-2377.0,835.0,0.616,-0.532,0.475,0.334
736142,-6812.0,-1105.0,631.0,0.616,-0.526,0.479,0.338
736159,-7312.0,-1453.0,889.0,0.616,-0.521,0.481,0.344
736175,-7026.0,-2689.0,789.0,0.616,-0.514,0.482,0.352
736191,-6432.0,-3003.0,91.0,0.618,-0.506,0.483,0.359
736208,-5814.0,-2321.0,-65.0,0.619,-0.5,0.484,0.364
736235,-6526.0,-2189.0,43.0,0.621,-0.494,0.484,0.369
736251,-6396.0,-1779.0,-45.0,0.623,-0.487,0.484,0.374
736267,-6232.0,-1415.0,229.0,0.625,-0.481,0.484,0.38
736283,-4944.0,-1337.0,143.0,0.626,-0.474,0.483,0.388
736299,-4442.0,-2075.0,437.0,0.626,-0.467,0.483,0.395
736315,-4146.0,-1151.0,765.0,0.627,-0.461,0.482,0.402
736341,-3582.0,-245.0,815.0,0.626,-0.456,0.482,0.409
736358,-2628.0,-1657.0,843.0,0.624,-0.452,0.483,0.416
736375,-2806.0,-1729.0,595.0,0.623,-0.448,0.484,0.42
736392,-2980.0,-1575.0,871.0,0.621,-0.448,0.486,0.421
736409,-3252.0,-1735.0,951.0,0.62,-0.448,0.488,0.42
736426,-3578.0,-1249.0,643.0,0.619,-0.451,0.489,0.418
736443,-4014.0,-1087.0,781.0,0.618,-0.455,0.49,0.414
736459,-4090.0,-935.0,541.0,0.617,-0.461,0.489,0.409
736475,-4352.0,-1177.0,547.0,0.616,-0.468,0.488,0.404
736492,-4570.0,-2389.0,467.0,0.614,-0.476,0.486,0.4
736509,-5838.0,-1395.0,843.0,0.613,-0.484,0.484,0.394
736526,-5574.0,-2269.0,537.0,0.611,-0.492,0.482,0.39
736553,-4708.0,-2423.0,323.0,0.61,-0.5,0.479,0.386
736569,-5304.0,-2513.0,607.0,0.609,-0.508,0.477,0.38
736585,-5744.0,-2199.0,663.0,0.607,-0.516,0.473,0.375
736601,-5898.0,-2979.0,983.0,0.607,-0.523,0.47,0.371
736617,-5114.0,-2315.0,593.0,0.607,-0.53,0.466,0.366
736633,-5564.0,-3073.0,385.0,0.606,-0.537,0.463,0.36
736659,-6866.0,-3083.0,225.0,0.605,-0.544,0.461,0.354
736675,-7712.0,-3077.0,427.0,0.605,-0.55,0.458,0.349
736692,-7036.0,-2261.0,193.0,0.605,-0.555,0.455,0.345
736709,-7150.0,-3037.0,-51.0,0.603,-0.561,0.453,0.342
736726,-7214.0,-4263.0,69.0,0.603,-0.566,0.45,0.337
736742,-8118.0,-2775.0,323.0,0.603,-0.57,0.448,0.333
736759,-8000.0,-2377.0,353.0,0.602,-0.574,0.446,0.33
736776,-7018.0,-5235.0,-415.0,0.6,-0.578,0.446,0.328
736793,-8404.0,-3961.0,-267.0,0.599,-0.581,0.446,0.324
736810,-8940.0,-3105.0,-437.0,0.598,-0.583,0.446,0.322
736837,-8926.0,-4029.0,-597.0,0.596,-0.585,0.447,0.321
736853,-8896.0,-3999.0,-967.0,0.595,-0.586,0.447,0.321
736869,-9280.0,-4319.0,-643.0,0.595,-0.586,0.447,0.321
736885,-8680.0,-3255.0,-979.0,0.595,-0.585,0.446,0.323
736901,-8676.0,-3233.0,-753.0,0.596,-0.584,0.446,0.324
736918,-8086.0,-3449.0,-759.0,0.596,-0.583,0.445,0.326
736935,-8344.0,-2471.0,-549.0,0.597,-0.581,0.446,0.328
736952,-8268.0,-2609.0,-531.0,0.597,-0.58,0.445,0.331
736978,-8240.0,-2935.0,-517.0,0.597,-0.578,0.445,0.334
736995,-7942.0,-2897.0,-551.0,0.598,-0.575,0.446,0.336
737012,-8160.0,-2695.0,-563.0,0.598,-0.573,0.446,0.338
737028,-8092.0,-3047.0,-629.0,0.598,-0.571,0.447,0.34
737045,-8280.0,-2853.0,-741.0,0.598,-0.569,0.449,0.342
737061,-8234.0,-3287.0,-879.0,0.598,-0.567,0.45,0.344
737078,-8456.0,-3317.0,-1189.0,0.598,-0.564,0.452,0.346
737094,-9054.0,-3839.0,-1191.0,0.598,-0.562,0.454,0.347
737110,-9164.0,-3891.0,-1303.0,0.598,-0.559,0.457,0.347
737137,-9396.0,-4331.0,-1335.0,0.599,-0.556,0.459,0.348
737153,-9578.0,-4287.0,-1405.0,0.601,-0.552,0.461,0.348
737169,-10564.0,-4485.0,-1323.0,0.603,-0.549,0.463,0.348
737185,-11252.0,-4785.0,-1099.0,0.605,-0.545,0.464,0.349
737201,-11594.0,-4613.0,-1089.0,0.608,-0.541,0.464,0.351
737217,-12124.0,-4237.0,-851.0,0.61,-0.538,0.463,0.353
737243,-12416.0,-4599.0,-645.0,0.611,-0.537,0.46,0.356
737260,-12530.0,-4621.0,-449.0,0.611,-0.538,0.456,0.359
737276,-12384.0,-4751.0,-471.0,0.611,-0.54,0.452,0.361
737293,-12046.0,-4921.0,-169.0,0.611,-0.543,0.449,0.362
737309,-11430.0,-4711.0,-137.0,0.61,-0.546,0.445,0.362
737326,-11248.0,-4337.0,-99.0,0.609,-0.551,0.442,0.361
737343,-11244.0,-3955.0,-171.0,0.606,-0.556,0.439,0.36
737360,-10824.0,-4157.0,-117.0,0.603,-0.563,0.436,0.36
737377,-10460.0,-4209.0,-169.0,0.599,-0.57,0.433,0.359
737394,-10300.0,-4193.0,-313.0,0.594,-0.578,0.429,0.359
737420,-10564.0,-4329.0,-283.0,0.589,-0.586,0.426,0.359
737436,-10204.0,-3911.0,-401.0,0.584,-0.593,0.422,0.359
737452,-9558.0,-3853.0,-283.0,0.58,-0.599,0.419,0.36
737468,-8908.0,-3539.0,-249.0,0.577,-0.603,0.415,0.362
737484,-8966.0,-3191.0,-165.0,0.574,-0.607,0.412,0.364
737501,-8442.0,-3273.0,-105.0,0.572,-0.609,0.409,0.367
737518,-7516.0,-2807.0,-243.0,0.57,-0.61,0.406,0.371
737544,-7208.0,-2425.0,-135.0,0.568,-0.612,0.404,0.374
737560,-7554.0,-2795.0,229.0,0.567,-0.611,0.402,0.378
737576,-6996.0,-1913.0,219.0,0.567,-0.61,0.401,0.383
737592,-6360.0,-2429.0,95.0,0.566,-0.606,0.401,0.389
737609,-6634.0,-2265.0,393.0,0.566,-0.603,0.401,0.394
737625,-6444.0,-2597.0,99.0,0.567,-0.599,0.402,0.398
737642,-6546.0,-2253.0,161.0,0.568,-0.595,0.403,0.402
737668,-6968.0,-1959.0,171.0,0.569,-0.591,0.404,0.406
737684,-6814.0,-2275.0,69.0,0.57,-0.585,0.404,0.412
737700,-7196.0,-2441.0,-193.0,0.571,-0.579,0.404,0.419
737716,-7086.0,-3787.0,-159.0,0.574,-0.572,0.403,0.425
737732,-6628.0,-2145.0,-347.0,0.578,-0.565,0.401,0.431
737748,-6136.0,-2105.0,-97.0,0.581,-0.557,0.399,0.439
737774,-5070.0,-1671.0,225.0,0.583,-0.55,0.397,0.447
737791,-3934.0,-2105.0,379.0,0.584,-0.542,0.396,0.456
737807,-3568.0,-1829.0,339.0,0.585,-0.535,0.395,0.464
737824,-3580.0,-1969.0,635.0,0.585,-0.529,0.395,0.471
737841,-3468.0,-1523.0,653.0,0.584,-0.524,0.395,0.478
737858,-4138.0,-2693.0,665.0,0.583,-0.52,0.396,0.483
737875,-4580.0,-1195.0,863.0,0.583,-0.516,0.397,0.486
737891,-4530.0,-1903.0,479.0,0.582,-0.513,0.398,0.49
737908,-5192.0,-3019.0,-1.0,0.58,-0.511,0.4,0.493
737925,-6748.0,-1413.0,759.0,0.58,-0.508,0.402,0.494
737951,-7454.0,-2707.0,521.0,0.58,-0.505,0.402,0.497
737967,-7574.0,-2639.0,795.0,0.58,-0.501,0.401,0.501
737983,-6024.0,-2145.0,965.0,0.582,-0.497,0.399,0.505
738000,-4640.0,-1317.0,1447.0,0.583,-0.494,0.398,0.508
738016,-3596.0,-1365.0,1615.0,0.584,-0.492,0.397,0.509
738032,-3692.0,-997.0,1797.0,0.584,-0.494,0.397,0.507
738048,-4156.0,-617.0,1893.0,0.584,-0.496,0.397,0.504
738075,-4766.0,-501.0,2011.0,0.584,-0.5,0.398,0.5
738091,-4780.0,-829.0,1725.0,0.585,-0.503,0.399,0.495
738108,-5384.0,-1321.0,2077.0,0.585,-0.508,0.4,0.49
738125,-5230.0,-903.0,1553.0,0.587,-0.511,0.401,0.483
738141,-5720.0,-323.0,1537.0,0.587,-0.516,0.402,0.477
738158,-6168.0,-1937.0,1741.0,0.588,-0.52,0.404,0.47
738174,-6468.0,-1131.0,1421.0,0.589,-0.523,0.406,0.463
738191,-6702.0,-1709.0,1257.0,0.591,-0.526,0.408,0.456
738208,-7014.0,-1409.0,1327.0,0.593,-0.529,0.41,0.449
738234,-7022.0,-1873.0,1111.0,0.595,-0.531,0.412,0.442
738250,-6922.0,-2307.0,1157.0,0.597,-0.532,0.414,0.435
738266,-7632.0,-985.0,835.0,0.6,-0.534,0.416,0.427
738283,-7648.0,-2361.0,1015.0,0.602,-0.535,0.418,0.421
738299,-7618.0,-2183.0,1223.0,0.605,-0.536,0.419,0.414
738315,-7494.0,-2227.0,1101.0,0.608,-0.536,0.421,0.408
738341,-7410.0,-2047.0,881.0,0.61,-0.536,0.422,0.402
738358,-8074.0,-2955.0,969.0,0.613,-0.537,0.424,0.395
738375,-8360.0,-2549.0,1231.0,0.615,-0.537,0.426,0.39
738391,-8226.0,-1739.0,935.0,0.616,-0.537,0.428,0.386
738408,-8122.0,-2823.0,1007.0,0.617,-0.537,0.429,0.382
738425,-8320.0,-2277.0,1129.0,0.618,-0.538,0.43,0.379
738441,-8272.0,-2597.0,1023.0,0.62,-0.538,0.43,0.377
738458,-8262.0,-2183.0,883.0,0.62,-0.538,0.43,0.375
738474,-8562.0,-2537.0,931.0,0.621,-0.538,0.431,0.374
738491,-8582.0,-2599.0,1001.0,0.621,-0.539,0.431,0.373
738518,-8448.0,-2687.0,857.0,0.621,-0.539,0.43,0.373
738534,-8424.0,-2635.0,865.0,0.621,-0.538,0.43,0.373
738550,-8426.0,-2699.0,819.0,0.621,-0.538,0.43,0.374
738566,-8350.0,-3089.0,649.0,0.621,-0.538,0.429,0.375
738582,-8894.0,-3093.0,709.0,0.621,-0.537,0.429,0.376
738598,-9222.0,-3299.0,545.0,0.621,-0.537,0.429,0.378
738624,-9542.0,-3549.0,419.0,0.62,-0.536,0.429,0.38
738641,-10032.0,-3941.0,301.0,0.62,-0.535,0.429,0.382
738658,-10256.0,-4803.0,41.0,0.62,-0.534,0.428,0.384
738674,-11132.0,-4903.0,61.0,0.621,-0.533,0.427,0.385
738691,-11940.0,-4877.0,-157.0,0.622,-0.532,0.426,0.386
738707,-12678.0,-5815.0,21.0,0.624,-0.531,0.424,0.386
738724,-13536.0,-5751.0,195.0,0.626,-0.53,0.421,0.386
738741,-13558.0,-6785.0,253.0,0.629,-0.531,0.417,0.386
738757,-13790.0,-6933.0,405.0,0.633,-0.532,0.412,0.384
738774,-13306.0,-6645.0,575.0,0.636,-0.533,0.408,0.381
738801,-12264.0,-6607.0,533.0,0.638,-0.536,0.403,0.377
738817,-11542.0,-5913.0,447.0,0.64,-0.541,0.4,0.372
738833,-10504.0,-5475.0,301.0,0.639,-0.547,0.397,0.366
738849,-9998.0,-5021.0,241.0,0.638,-0.554,0.396,0.36
738865,-9612.0,-4635.0,143.0,0.634,-0.562,0.395,0.355
738881,-9616.0,-4363.0,87.0,0.63,-0.57,0.394,0.35
738907,-9724.0,-4085.0,133.0,0.625,-0.578,0.394,0.347
738924,-9476.0,-4123.0,99.0,0.62,-0.584,0.393,0.345
738941,-8838.0,-4397.0,47.0,0.617,-0.589,0.393,0.344
738957,-8598.0,-3689.0,-25.0,0.614,-0.593,0.393,0.343
738974,-8606.0,-3641.0,125.0,0.611,-0.596,0.393,0.343
738991,-8586.0,-2905.0,287.0,0.608,-0.598,0.392,0.345
739007,-8540.0,-2919.0,723.0,0.606,-0.599,0.391,0.349
739024,-7658.0,-3241.0,963.0,0.603,-0.599,0.389,0.355
739041,-6608.0,-3947.0,419.0,0.601,-0.599,0.388,0.359
739057,-6592.0,-4297.0,985.0,0.6,-0.598,0.388,0.362
739084,-7120.0,-3261.0,705.0,0.6,-0.597,0.389,0.363
739101,-7056.0,-2299.0,855.0,0.598,-0.596,0.391,0.366
739117,-6908.0,-3119.0,627.0,0.596,-0.595,0.393,0.37
739134,-6776.0,-2705.0,359.0,0.593,-0.593,0.395,0.375
739150,-6392.0,-2193.0,-31.0,0.588,-0.592,0.397,0.381
739166,-6088.0,-2491.0,-127.0,0.583,-0.591,0.4,0.388
739182,-5980.0,-2731.0,-41.0,0.579,-0.589,0.402,0.395
739208,-5578.0,-2741.0,-225.0,0.575,-0.586,0.405,0.402
739225,-5790.0,-2249.0,-397.0,0.572,-0.583,0.407,0.408
739242,-5812.0,-2223.0,-193.0,0.57,-0.579,0.41,0.415
739259,-5978.0,-2121.0,-579.0,0.569,-0.573,0.412,0.422
739276,-6042.0,-2141.0,-471.0,0.568,-0.567,0.415,0.429
739293,-6068.0,-2509.0,-323.0,0.568,-0.559,0.417,0.437
739310,-5364.0,-1553.0,-629.0,0.567,-0.549,0.42,0.447
739326,-5356.0,-1713.0,-795.0,0.567,-0.539,0.423,0.458
739343,-5888.0,-661.0,41.0,0.566,-0.527,0.425,0.47
739359,-4986.0,-339.0,271.0,0.564,-0.515,0.425,0.486
739385,-3968.0,-555.0,855.0,0.562,-0.503,0.423,0.502
739401,-2834.0,-1751.0,565.0,0.56,-0.495,0.42,0.515
739417,-2118.0,-3949.0,491.0,0.56,-0.489,0.418,0.522
739433,-1852.0,-3793.0,511.0,0.562,-0.485,0.419,0.522
739449,-2406.0,-1381.0,925.0,0.566,-0.483,0.423,0.518
739465,-3500.0,-671.0,991.0,0.568,-0.484,0.426,0.511
739491,-4360.0,-989.0,741.0,0.57,-0.485,0.429,0.506
739507,-4264.0,-145.0,815.0,0.57,-0.488,0.431,0.501
739524,-5010.0,-783.0,921.0,0.57,-0.494,0.43,0.496
739540,-4966.0,-1439.0,425.0,0.569,-0.5,0.43,0.491
739557,-5914.0,-1649.0,795.0,0.568,-0.506,0.43,0.486
739574,-6140.0,-2551.0,1211.0,0.568,-0.511,0.43,0.481
739590,-5688.0,-1769.0,969.0,0.57,-0.515,0.429,0.475
739607,-5554.0,-2087.0,1155.0,0.572,-0.519,0.429,0.468
739634,-5974.0,-1971.0,1219.0,0.576,-0.524,0.428,0.46
739650,-6598.0,-1587.0,1287.0,0.579,-0.528,0.427,0.452
739666,-6748.0,-1049.0,1173.0,0.582,-0.531,0.426,0.445
739683,-6694.0,-1803.0,1311.0,0.584,-0.535,0.425,0.438
739699,-6672.0,-2625.0,1033.0,0.586,-0.538,0.425,0.432
739716,-7420.0,-2635.0,1335.0,0.589,-0.541,0.425,0.424
739733,-7570.0,-2243.0,777.0,0.592,-0.543,0.425,0.416
739749,-7952.0,-2091.0,999.0,0.595,-0.545,0.426,0.408
739765,-8430.0,-1051.0,967.0,0.598,-0.547,0.427,0.403
739792,-8016.0,-2775.0,1107.0,0.599,-0.548,0.427,0.398
739808,-7972.0,-2551.0,917.0,0.6,-0.549,0.428,0.394
739825,-8404.0,-2961.0,963.0,0.602,-0.55,0.429,0.389
739841,-8594.0,-2125.0,831.0,0.603,-0.551,0.43,0.385
739857,-8588.0,-2369.0,691.0,0.602,-0.552,0.431,0.383
739874,-8574.0,-3001.0,499.0,0.602,-0.553,0.432,0.381
739890,-9184.0,-2817.0,359.0,0.602,-0.553,0.433,0.38
739907,-9314.0,-2977.0,179.0,0.602,-0.554,0.434,0.379
739934,-9328.0,-3019.0,285.0,0.602,-0.553,0.434,0.379
739950,-8886.0,-2659.0,207.0,0.603,-0.552,0.434,0.378
739966,-8276.0,-2451.0,61.0,0.603,-0.551,0.435,0.379
739982,-8164.0,-2473.0,325.0,0.603,-0.55,0.435,0.379
739999,-8594.0,-2403.0,561.0,0.603,-0.55,0.436,0.379
740015,-8604.0,-2611.0,689.0,0.604,-0.549,0.435,0.38
740031,-8946.0,-2729.0,779.0,0.605,-0.548,0.435,0.381
740057,-8504.0,-3085.0,599.0,0.607,-0.546,0.434,0.382
740073,-8624.0,-2897.0,619.0,0.608,-0.545,0.433,0.383
740090,-9212.0,-3185.0,763.0,0.609,-0.543,0.433,0.383
740107,-9918.0,-3343.0,665.0,0.61,-0.542,0.433,0.383
740123,-9770.0,-3737.0,529.0,0.611,-0.54,0.433,0.384
740140,-10030.0,-3895.0,143.0,0.613,-0.538,0.433,0.384
740157,-10536.0,-4125.0,-39.0,0.614,-0.537,0.434,0.383
740174,-11526.0,-4539.0,-175.0,0.615,-0.536,0.435,0.381
740191,-12726.0,-5153.0,-151.0,0.616,-0.536,0.436,0.379
740208,-13114.0,-5327.0,-441.0,0.617,-0.535,0.438,0.376
740234,-12838.0,-5945.0,-767.0,0.618,-0.536,0.439,0.372
740250,-13142.0,-5801.0,-527.0,0.619,-0.537,0.441,0.366
740266,-12944.0,-5667.0,-503.0,0.62,-0.539,0.441,0.361
740282,-12314.0,-5523.0,-159.0,0.621,-0.542,0.442,0.355
740299,-11480.0,-5021.0,-119.0,0.621,-0.545,0.442,0.349
740316,-10452.0,-5075.0,-245.0,0.621,-0.548,0.442,0.344
740333,-9838.0,-4805.0,-427.0,0.621,-0.551,0.442,0.339
740349,-10050.0,-4425.0,-237.0,0.621,-0.554,0.443,0.334
740376,-9864.0,-4187.0,-321.0,0.62,-0.557,0.443,0.33
740392,-9878.0,-4437.0,-371.0,0.62,-0.559,0.443,0.327
740409,-10300.0,-3173.0,-77.0,0.621,-0.56,0.442,0.325
740425,-8692.0,-3701.0,-1105.0,0.622,-0.561,0.44,0.324
740441,-8914.0,-3403.0,-539.0,0.623,-0.562,0.439,0.323
740458,-8716.0,-2809.0,-351.0,0.624,-0.562,0.436,0.323
740474,-8642.0,-3283.0,-97.0,0.625,-0.563,0.433,0.325
740491,-8136.0,-3273.0,-13.0,0.626,-0.562,0.429,0.328
740517,-7826.0,-2399.0,95.0,0.628,-0.561,0.425,0.332
740533,-6838.0,-2693.0,-229.0,0.628,-0.561,0.422,0.336
740549,-7082.0,-2851.0,127.0,0.628,-0.561,0.418,0.341
740565,-7076.0,-2885.0,367.0,0.627,-0.561,0.415,0.347
740581,-7118.0,-3045.0,645.0,0.626,-0.561,0.411,0.353
740597,-7522.0,-3167.0,745.0,0.625,-0.56,0.409,0.36
740623,-6166.0,-3709.0,-269.0,0.625,-0.557,0.406,0.367
740640,-5890.0,-2471.0,-145.0,0.625,-0.555,0.404,0.372
740657,-6458.0,-1459.0,221.0,0.624,-0.554,0.402,0.377
740673,-6398.0,-2867.0,425.0,0.622,-0.553,0.399,0.384
740690,-6564.0,-3293.0,179.0,0.621,-0.551,0.397,0.391
740707,-6566.0,-2241.0,133.0,0.621,-0.548,0.394,0.397
740723,-5808.0,-1865.0,219.0,0.621,-0.545,0.391,0.406
740740,-5602.0,-3397.0,231.0,0.619,-0.542,0.389,0.415
740766,-5992.0,-2829.0,543.0,0.619,-0.537,0.388,0.423
740782,-5700.0,-1953.0,497.0,0.617,-0.532,0.386,0.432
740798,-5214.0,-2127.0,603.0,0.615,-0.526,0.385,0.444
740814,-4422.0,-1851.0,907.0,0.612,-0.52,0.384,0.456
740830,-3482.0,-711.0,901.0,0.608,-0.513,0.384,0.468
740846,-2630.0,-1465.0,1005.0,0.605,-0.508,0.384,0.479
740872,-2392.0,-1609.0,1147.0,0.601,-0.504,0.384,0.487
740889,-2494.0,-3129.0,1467.0,0.598,-0.502,0.385,0.493
740906,-2250.0,-2643.0,1427.0,0.596,-0.502,0.386,0.494
740923,-2690.0,-1747.0,1279.0,0.595,-0.505,0.388,0.491
740939,-3860.0,-2877.0,951.0,0.593,-0.509,0.39,0.487
740955,-5832.0,-1649.0,1365.0,0.592,-0.514,0.391,0.482
740972,-6244.0,-2061.0,711.0,0.59,-0.519,0.39,0.479
740989,-6094.0,-3381.0,899.0,0.59,-0.522,0.39,0.476
741005,-5320.0,-2957.0,785.0,0.591,-0.525,0.391,0.472
741022,-4558.0,-3127.0,1043.0,0.593,-0.528,0.391,0.465
741048,-5078.0,-2897.0,1625.0,0.597,-0.531,0.391,0.457
741064,-5070.0,-2045.0,1443.0,0.601,-0.533,0.391,0.449
741081,-5182.0,-2109.0,1437.0,0.606,-0.536,0.39,0.44
741097,-4698.0,-1807.0,1239.0,0.61,-0.539,0.39,0.431
741113,-5214.0,-3193.0,1501.0,0.613,-0.542,0.39,0.421
741129,-5558.0,-2071.0,1049.0,0.617,-0.545,0.392,0.411
741155,-6510.0,-2325.0,1457.0,0.62,-0.548,0.393,0.401
741172,-6080.0,-1957.0,1127.0,0.623,-0.55,0.394,0.393
741189,-5806.0,-4125.0,1185.0,0.625,-0.552,0.396,0.384
741209,-6790.0,-2657.0,937.0,0.627,-0.555,0.399,0.374
741225,-7466.0,-2589.0,1235.0,0.629,-0.557,0.402,0.366
741241,-7402.0,-3035.0,927.0,0.629,-0.558,0.404,0.359
741257,-6686.0,-4323.0,635.0,0.63,-0.559,0.407,0.352
741273,-7646.0,-3629.0,655.0,0.631,-0.56,0.411,0.345
741290,-7998.0,-3129.0,557.0,0.632,-0.561,0.414,0.339
741306,-8074.0,-4155.0,617.0,0.632,-0.561,0.416,0.335
741333,-7912.0,-3479.0,197.0,0.633,-0.561,0.418,0.332
741349,-7734.0,-4631.0,361.0,0.633,-0.561,0.42,0.329
741365,-7958.0,-3721.0,105.0,0.633,-0.56,0.422,0.326
741381,-8256.0,-4027.0,361.0,0.634,-0.559,0.424,0.325
741397,-8070.0,-3445.0,325.0,0.634,-0.558,0.425,0.324
741413,-7880.0,-3341.0,561.0,0.634,-0.557,0.427,0.325
741429,-7562.0,-3221.0,387.0,0.634,-0.555,0.427,0.327
741455,-7698.0,-3603.0,511.0,0.633,-0.554,0.429,0.329
741472,-7978.0,-3589.0,565.0,0.633,-0.552,0.43,0.331
741492,-7874.0,-2499.0,377.0,0.632,-0.55,0.431,0.335
741508,-7884.0,-3283.0,359.0,0.631,-0.549,0.432,0.338
741524,-8326.0,-2831.0,325.0,0.63,-0.546,0.433,0.342
741541,-8530.0,-3181.0,283.0,0.629,-0.544,0.433,0.347
741557,-8694.0,-3335.0,87.0,0.629,-0.543,0.433,0.351
741574,-9122.0,-3523.0,-15.0,0.628,-0.541,0.433,0.354
741590,-10150.0,-3865.0,153.0,0.627,-0.54,0.432,0.358
741606,-10630.0,-4113.0,83.0,0.628,-0.538,0.431,0.361
741633,-10986.0,-4665.0,-35.0,0.628,-0.537,0.43,0.364
741649,-11450.0,-4809.0,-71.0,0.629,-0.535,0.428,0.367
741665,-12100.0,-5195.0,171.0,0.629,-0.535,0.426,0.369
741681,-12446.0,-5587.0,295.0,0.63,-0.536,0.424,0.37
741697,-12452.0,-5603.0,295.0,0.63,-0.537,0.421,0.37
741713,-12124.0,-5953.0,437.0,0.63,-0.539,0.419,0.37
741739,-11750.0,-5321.0,561.0,0.629,-0.543,0.417,0.368
741756,-10992.0,-5571.0,237.0,0.628,-0.548,0.415,0.365
741772,-11168.0,-5055.0,197.0,0.625,-0.554,0.414,0.362
741789,-11088.0,-5181.0,-203.0,0.622,-0.561,0.412,0.357
741806,-11178.0,-5173.0,-377.0,0.62,-0.569,0.41,0.352
741823,-11020.0,-4855.0,-537.0,0.618,-0.576,0.407,0.347
741839,-10738.0,-4385.0,-519.0,0.616,-0.583,0.404,0.344
741856,-10278.0,-4277.0,-305.0,0.615,-0.588,0.4,0.341
741882,-9248.0,-5393.0,-691.0,0.614,-0.593,0.396,0.338
741898,-9478.0,-4075.0,-361.0,0.614,-0.597,0.393,0.335
741914,-8932.0,-4015.0,-409.0,0.614,-0.601,0.389,0.333
741930,-8756.0,-4313.0,-207.0,0.614,-0.603,0.386,0.332
741946,-8770.0,-4073.0,-75.0,0.614,-0.605,0.383,0.332
741962,-8466.0,-3757.0,131.0,0.615,-0.605,0.38,0.333
741978,-7348.0,-4387.0,-161.0,0.614,-0.607,0.378,0.334
742004,-7486.0,-3441.0,35.0,0.613,-0.608,0.377,0.336
742021,-7804.0,-3789.0,363.0,0.611,-0.609,0.376,0.339
742038,-7516.0,-3319.0,271.0,0.609,-0.609,0.375,0.343
742055,-7528.0,-3313.0,431.0,0.606,-0.609,0.375,0.348
742072,-6704.0,-3431.0,65.0,0.602,-0.608,0.376,0.355
742089,-6292.0,-4055.0,-287.0,0.599,-0.608,0.377,0.36
742106,-6710.0,-3321.0,23.0,0.596,-0.607,0.379,0.364
742122,-6990.0,-2483.0,-81.0,0.592,-0.606,0.381,0.369
742139,-6778.0,-3331.0,-193.0,0.588,-0.605,0.383,0.375
742156,-7400.0,-3467.0,-341.0,0.584,-0.603,0.386,0.382
742173,-7082.0,-2401.0,-435.0,0.581,-0.601,0.387,0.389
742199,-6318.0,-3445.0,-609.0,0.577,-0.598,0.389,0.398
742215,-6282.0,-3055.0,-413.0,0.574,-0.595,0.391,0.405
742231,-6644.0,-2989.0,-127.0,0.572,-0.591,0.392,0.413
742247,-6312.0,-2527.0,-333.0,0.57,-0.585,0.393,0.422
742263,-5786.0,-3361.0,-293.0,0.57,-0.578,0.394,0.43
742279,-5636.0,-2039.0,-427.0,0.569,-0.571,0.395,0.44
742305,-5342.0,-1793.0,117.0,0.569,-0.564,0.395,0.449
742322,-4766.0,-2689.0,-331.0,0.568,-0.556,0.396,0.46
742339,-4638.0,-1949.0,-39.0,0.569,-0.547,0.396,0.47
742356,-4068.0,-597.0,35.0,0.568,-0.538,0.396,0.481
742372,-3342.0,65.0,71.0,0.565,-0.531,0.395,0.493
742389,-3080.0,-2343.0,169.0,0.562,-0.526,0.393,0.503
742406,-3094.0,-4421.0,173.0,0.561,-0.521,0.392,0.51
742423,-4034.0,-1583.0,485.0,0.561,-0.518,0.392,0.513
742439,-4824.0,-605.0,523.0,0.561,-0.517,0.391,0.515
742466,-4324.0,-2663.0,421.0,0.561,-0.518,0.388,0.516
742482,-4200.0,-3259.0,603.0,0.563,-0.52,0.386,0.514
742498,-4358.0,-535.0,651.0,0.564,-0.524,0.384,0.51
742514,-3322.0,-1551.0,635.0,0.565,-0.53,0.38,0.505
742530,-2718.0,-1857.0,777.0,0.566,-0.538,0.377,0.499
742546,-2770.0,-2125.0,807.0,0.566,-0.547,0.374,0.491
742562,-3886.0,-1851.0,953.0,0.566,-0.556,0.371,0.483
742588,-4428.0,-1539.0,899.0,0.566,-0.565,0.368,0.475
742605,-4350.0,-2531.0,865.0,0.566,-0.573,0.366,0.467
742622,-4600.0,-2763.0,873.0,0.567,-0.579,0.364,0.459
742639,-4722.0,-3871.0,457.0,0.568,-0.585,0.363,0.451
742656,-6444.0,-2941.0,379.0,0.571,-0.591,0.362,0.44
742672,-6818.0,-2773.0,753.0,0.574,-0.595,0.361,0.432
742689,-6242.0,-2757.0,371.0,0.578,-0.597,0.361,0.424
742705,-6100.0,-3045.0,717.0,0.581,-0.598,0.362,0.417
742722,-6434.0,-4065.0,-227.0,0.585,-0.599,0.363,0.409
742739,-7488.0,-3827.0,669.0,0.591,-0.599,0.364,0.4
742765,-7896.0,-3127.0,645.0,0.596,-0.598,0.366,0.392
742781,-7824.0,-2785.0,1199.0,0.601,-0.595,0.367,0.388
742797,-6908.0,-2723.0,799.0,0.605,-0.592,0.369,0.384
742813,-6980.0,-3821.0,1409.0,0.61,-0.588,0.371,0.38
742829,-6688.0,-3131.0,1399.0,0.614,-0.584,0.374,0.376
742845,-6800.0,-2157.0,1071.0,0.618,-0.58,0.378,0.373
742871,-6858.0,-2625.0,1355.0,0.621,-0.575,0.382,0.372
742888,-7008.0,-2963.0,1239.0,0.623,-0.57,0.387,0.37
742905,-6958.0,-2173.0,1153.0,0.625,-0.564,0.394,0.37
742922,-7610.0,-2101.0,1121.0,0.626,-0.558,0.4,0.37
742939,-8026.0,-3117.0,1089.0,0.627,-0.551,0.406,0.372
742956,-8318.0,-2671.0,769.0,0.629,-0.544,0.412,0.373
742972,-9372.0,-2835.0,729.0,0.63,-0.536,0.419,0.375
742988,-10474.0,-3571.0,525.0,0.632,-0.527,0.426,0.377
743005,-11598.0,-4181.0,143.0,0.635,-0.517,0.432,0.379
743022,-12266.0,-5141.0,-205.0,0.638,-0.506,0.438,0.38
743049,-12466.0,-5343.0,-427.0,0.643,-0.494,0.445,0.38
743065,-12948.0,-5319.0,-497.0,0.648,-0.482,0.451,0.379
743081,-13136.0,-5955.0,-567.0,0.655,-0.468,0.457,0.378
743098,-12638.0,-5709.0,-495.0,0.661,-0.454,0.463,0.377
743114,-12136.0,-5765.0,207.0,0.669,-0.44,0.467,0.376
743130,-11138.0,-4821.0,247.0,0.676,-0.425,0.471,0.375
743156,-10320.0,-4335.0,313.0,0.683,-0.41,0.475,0.374
743172,-9750.0,-3635.0,225.0,0.69,-0.393,0.481,0.373
743189,-9254.0,-2367.0,433.0,0.696,-0.376,0.486,0.372
743205,-8768.0,-1961.0,611.0,0.702,-0.359,0.49,0.372
743222,-7684.0,-1835.0,461.0,0.707,-0.342,0.495,0.372
743238,-7528.0,-1499.0,493.0,0.713,-0.324,0.5,0.371
743254,-7162.0,-891.0,493.0,0.718,-0.304,0.505,0.37
743271,-7060.0,-339.0,673.0,0.723,-0.283,0.51,0.369
743288,-6740.0,83.0,649.0,0.728,-0.262,0.515,0.368
743315,-6552.0,-197.0,809.0,0.733,-0.239,0.521,0.367
743331,-6246.0,421.0,601.0,0.737,-0.214,0.527,0.365
