timeMs,ax,ay,az,gx,gy,gz,q0,q1,q2,q3
115264,-4536.0,5700.0,3504.0,1113.0,-1540.0,-90.0,0.627,0.411,0.084,-0.656
115286,-4136.0,5028.0,4706.0,1028.0,-1655.0,-151.0,0.624,0.407,0.069,-0.664
115298,-3982.0,4842.0,5840.0,1023.0,-1712.0,-126.0,0.62,0.402,0.052,-0.671
115320,-4392.0,4614.0,5966.0,869.0,-1703.0,-204.0,0.617,0.397,0.038,-0.679
115337,-4748.0,4002.0,3852.0,728.0,-1703.0,-271.0,0.613,0.39,0.024,-0.687
115349,-4702.0,4310.0,2580.0,892.0,-1899.0,-214.0,0.608,0.383,0.009,-0.695
115371,-3212.0,4400.0,5008.0,1009.0,-2107.0,-277.0,0.603,0.375,-0.009,-0.704
115383,-3618.0,4806.0,5562.0,965.0,-2051.0,-249.0,0.598,0.367,-0.026,-0.712
115405,-3288.0,5250.0,7004.0,951.0,-1933.0,-249.0,0.592,0.359,-0.043,-0.72
115427,-3954.0,4178.0,4094.0,856.0,-1879.0,-204.0,0.587,0.351,-0.058,-0.727
115439,-3672.0,2674.0,5286.0,950.0,-1993.0,-123.0,0.582,0.343,-0.075,-0.734
115461,-2238.0,5540.0,6522.0,1243.0,-1887.0,-236.0,0.575,0.337,-0.093,-0.74
115473,-2836.0,6202.0,7290.0,1176.0,-1742.0,-257.0,0.568,0.331,-0.11,-0.745
115495,-3214.0,3358.0,5254.0,787.0,-1650.0,-323.0,0.561,0.324,-0.123,-0.751
115507,-2158.0,3484.0,4518.0,944.0,-1660.0,-378.0,0.554,0.318,-0.137,-0.757
115529,-1370.0,5536.0,6170.0,1197.0,-1655.0,-256.0,0.546,0.313,-0.154,-0.762
115541,-2034.0,6196.0,8534.0,1224.0,-1485.0,-183.0,0.539,0.308,-0.17,-0.765
115563,-2194.0,5802.0,8042.0,923.0,-1259.0,-3.0,0.535,0.304,-0.182,-0.767
115585,-1746.0,3800.0,4960.0,585.0,-1243.0,113.0,0.532,0.298,-0.193,-0.769
115597,-794.0,4362.0,5214.0,713.0,-1355.0,198.0,0.529,0.291,-0.206,-0.77
115619,-1162.0,6200.0,6620.0,866.0,-1349.0,390.0,0.526,0.285,-0.219,-0.77
115631,-1120.0,4688.0,5614.0,556.0,-1366.0,343.0,0.525,0.277,-0.231,-0.771
115653,-358.0,5736.0,5912.0,799.0,-1470.0,236.0,0.521,0.27,-0.245,-0.772
115665,-308.0,6550.0,7328.0,651.0,-1398.0,382.0,0.519,0.262,-0.257,-0.772
115687,-866.0,7302.0,7484.0,117.0,-1030.0,763.0,0.522,0.253,-0.265,-0.77
115699,-502.0,2286.0,4752.0,208.0,-1274.0,471.0,0.521,0.244,-0.274,-0.771
115721,922.0,8050.0,4206.0,92.0,-1360.0,560.0,0.522,0.233,-0.282,-0.771
115743,-42.0,7166.0,4910.0,-655.0,-1485.0,294.0,0.521,0.219,-0.286,-0.774
115755,1266.0,7284.0,6030.0,-639.0,-1393.0,1025.0,0.526,0.203,-0.29,-0.773
115777,324.0,5040.0,6376.0,-849.0,-1356.0,352.0,0.526,0.188,-0.291,-0.776
115789,934.0,6152.0,6176.0,-490.0,-1334.0,273.0,0.526,0.175,-0.295,-0.779
115811,1754.0,7316.0,7184.0,-738.0,-1263.0,51.0,0.524,0.162,-0.296,-0.782
115823,828.0,6620.0,5992.0,-780.0,-1220.0,-126.0,0.52,0.15,-0.296,-0.787
115845,1712.0,6192.0,5396.0,-990.0,-1286.0,-236.0,0.516,0.136,-0.295,-0.792
115857,1676.0,6934.0,6164.0,-1100.0,-1399.0,-331.0,0.511,0.121,-0.293,-0.799
115879,1838.0,6030.0,7162.0,-965.0,-1386.0,-257.0,0.507,0.107,-0.292,-0.804
115891,2340.0,5808.0,6950.0,-776.0,-1143.0,-211.0,0.503,0.096,-0.291,-0.808
115913,2710.0,5946.0,6700.0,-663.0,-1100.0,-224.0,0.499,0.085,-0.291,-0.812
115935,3134.0,4236.0,7816.0,-545.0,-889.0,-211.0,0.495,0.076,-0.291,-0.815
115947,3064.0,5518.0,7580.0,-357.0,-461.0,136.0,0.495,0.07,-0.291,-0.816
115969,3542.0,3270.0,9000.0,-61.0,-113.0,296.0,0.497,0.069,-0.291,-0.815
115981,3750.0,4106.0,9510.0,350.0,298.0,341.0,0.5,0.072,-0.293,-0.812
116003,2816.0,4512.0,8178.0,741.0,589.0,332.0,0.504,0.079,-0.296,-0.808
116015,2924.0,3888.0,7414.0,651.0,397.0,365.0,0.507,0.083,-0.299,-0.804
116037,2926.0,5940.0,7024.0,451.0,287.0,510.0,0.512,0.086,-0.301,-0.8
116049,2778.0,3692.0,7414.0,287.0,297.0,719.0,0.518,0.087,-0.302,-0.796
116071,2004.0,3654.0,6976.0,325.0,340.0,717.0,0.524,0.089,-0.304,-0.791
116093,2428.0,4732.0,6732.0,196.0,345.0,313.0,0.527,0.091,-0.304,-0.788
116105,2202.0,4634.0,6408.0,7.0,391.0,371.0,0.531,0.093,-0.302,-0.786
116127,2002.0,5204.0,5970.0,-52.0,391.0,354.0,0.535,0.095,-0.3,-0.784
116139,2024.0,5350.0,5480.0,-43.0,320.0,235.0,0.537,0.096,-0.299,-0.783
116161,1662.0,4910.0,5228.0,-252.0,250.0,153.0,0.54,0.097,-0.296,-0.782
116173,2142.0,4582.0,5976.0,-298.0,199.0,20.0,0.541,0.096,-0.293,-0.782
116195,1974.0,5134.0,6086.0,-174.0,144.0,-197.0,0.54,0.097,-0.291,-0.784
116207,2446.0,4940.0,6520.0,-137.0,300.0,193.0,0.543,0.098,-0.289,-0.782
116229,1600.0,5080.0,6760.0,-109.0,213.0,-102.0,0.543,0.099,-0.287,-0.783
116241,2646.0,5084.0,6822.0,44.0,250.0,-41.0,0.544,0.101,-0.286,-0.783
116263,2102.0,5452.0,6940.0,258.0,344.0,-194.0,0.544,0.106,-0.286,-0.782
116285,2220.0,5568.0,7810.0,284.0,468.0,-222.0,0.544,0.112,-0.285,-0.781
116297,1508.0,5936.0,8576.0,279.0,747.0,-298.0,0.544,0.12,-0.283,-0.781
116319,1198.0,4566.0,8934.0,310.0,1018.0,-150.0,0.545,0.129,-0.28,-0.779
116331,540.0,3948.0,8300.0,576.0,1200.0,-156.0,0.547,0.142,-0.278,-0.777
116353,874.0,4932.0,7928.0,755.0,1363.0,-181.0,0.549,0.156,-0.276,-0.774
116365,756.0,5800.0,7584.0,702.0,1547.0,-128.0,0.552,0.171,-0.273,-0.769
116387,-80.0,6264.0,6790.0,539.0,1537.0,-148.0,0.553,0.185,-0.268,-0.766
116399,-380.0,6278.0,6604.0,338.0,1419.0,-230.0,0.556,0.198,-0.263,-0.763
116421,-420.0,5876.0,6750.0,-3.0,1531.0,-270.0,0.557,0.21,-0.254,-0.762
116443,-734.0,5454.0,7190.0,-212.0,1705.0,-203.0,0.561,0.221,-0.243,-0.759
116455,-1116.0,4632.0,7346.0,-368.0,1823.0,-111.0,0.566,0.233,-0.231,-0.756
116477,-1592.0,4274.0,7012.0,-411.0,1753.0,-4.0,0.572,0.243,-0.218,-0.753
116489,-1252.0,4678.0,6604.0,-474.0,1790.0,57.0,0.577,0.253,-0.205,-0.749
116511,-1484.0,4470.0,5862.0,-603.0,1754.0,135.0,0.584,0.262,-0.191,-0.744
116523,-1656.0,3884.0,5024.0,-712.0,1597.0,181.0,0.591,0.269,-0.177,-0.74
116545,-1338.0,4266.0,5050.0,-748.0,1552.0,226.0,0.598,0.276,-0.164,-0.735
116557,-1750.0,4888.0,5414.0,-846.0,1532.0,288.0,0.605,0.281,-0.15,-0.73
116579,-2372.0,4794.0,5614.0,-961.0,1461.0,383.0,0.613,0.286,-0.136,-0.724
116601,-2580.0,3876.0,5514.0,-1053.0,1305.0,432.0,0.621,0.288,-0.122,-0.719
116613,-3304.0,3384.0,4908.0,-1028.0,1093.0,650.0,0.63,0.289,-0.11,-0.712
116635,-3314.0,3720.0,4482.0,-908.0,990.0,638.0,0.639,0.289,-0.1,-0.706
116647,-3350.0,5084.0,5032.0,-826.0,847.0,468.0,0.646,0.29,-0.09,-0.7
116669,-3190.0,5998.0,5482.0,-992.0,701.0,238.0,0.651,0.289,-0.08,-0.697
116681,-3530.0,5570.0,5642.0,-1313.0,542.0,-34.0,0.656,0.285,-0.068,-0.696
116703,-3616.0,4146.0,5124.0,-1328.0,405.0,-173.0,0.659,0.28,-0.056,-0.696
116715,-4032.0,3094.0,4438.0,-982.0,245.0,-252.0,0.661,0.276,-0.047,-0.696
116737,-4168.0,2442.0,3732.0,-643.0,35.0,-265.0,0.662,0.273,-0.042,-0.697
116749,-3958.0,2672.0,5038.0,-467.0,-214.0,-281.0,0.662,0.268,-0.039,-0.699
116771,-2810.0,4908.0,6276.0,-313.0,-341.0,-329.0,0.661,0.265,-0.038,-0.701
116793,-2620.0,4922.0,5920.0,-591.0,-488.0,-468.0,0.66,0.258,-0.036,-0.704
116805,-2204.0,3540.0,5468.0,-753.0,-602.0,-663.0,0.658,0.25,-0.033,-0.709
116827,-2164.0,2652.0,5886.0,-628.0,-675.0,-756.0,0.655,0.242,-0.031,-0.715
116839,-2348.0,2574.0,6586.0,-430.0,-639.0,-768.0,0.652,0.235,-0.03,-0.72
116861,-2058.0,2564.0,8068.0,-300.0,-575.0,-623.0,0.649,0.23,-0.03,-0.725
116873,-1978.0,2948.0,8750.0,-295.0,-491.0,-413.0,0.647,0.225,-0.029,-0.728
116895,-1478.0,3352.0,8214.0,-383.0,-438.0,-236.0,0.647,0.22,-0.029,-0.729
116907,-1348.0,2980.0,7622.0,-432.0,-446.0,-130.0,0.648,0.214,-0.028,-0.73
116929,-692.0,2160.0,7156.0,-329.0,-393.0,-105.0,0.649,0.209,-0.028,-0.731
116951,-220.0,2454.0,7622.0,-145.0,-291.0,-87.0,0.649,0.206,-0.029,-0.731
116963,214.0,3794.0,8286.0,-59.0,-190.0,-44.0,0.65,0.204,-0.029,-0.731
116985,214.0,4054.0,8278.0,-252.0,-158.0,-24.0,0.65,0.202,-0.029,-0.732
116997,52.0,8800.0,7418.0,-307.0,-106.0,-21.0,0.651,0.199,-0.027,-0.732
117019,450.0,2272.0,7958.0,-708.0,22.0,1685.0,0.664,0.194,-0.026,-0.722
117031,-234.0,3514.0,7422.0,-297.0,-89.0,1349.0,0.673,0.191,-0.027,-0.714
117053,-270.0,2724.0,6854.0,-252.0,-156.0,688.0,0.678,0.188,-0.028,-0.71
117065,432.0,2174.0,6820.0,-228.0,-142.0,712.0,0.683,0.186,-0.029,-0.706
117087,120.0,3812.0,7614.0,-147.0,-125.0,457.0,0.687,0.184,-0.03,-0.703
117109,-18.0,3228.0,7846.0,-261.0,-142.0,342.0,0.689,0.181,-0.03,-0.701
117121,-412.0,2392.0,7812.0,-113.0,-154.0,195.0,0.691,0.179,-0.031,-0.7
117143,-606.0,2706.0,8086.0,1.0,-157.0,119.0,0.692,0.178,-0.032,-0.699
117155,-828.0,2468.0,8748.0,81.0,-81.0,78.0,0.692,0.178,-0.033,-0.699
117177,-892.0,1532.0,9276.0,455.0,84.0,-35.0,0.691,0.181,-0.036,-0.699
117189,-1082.0,2276.0,9112.0,653.0,227.0,-55.0,0.69,0.187,-0.038,-0.699
117211,-1574.0,3344.0,7864.0,259.0,173.0,-53.0,0.689,0.19,-0.039,-0.699
117223,-1720.0,2832.0,6662.0,292.0,59.0,-55.0,0.688,0.192,-0.04,-0.699
117245,-1152.0,1570.0,7248.0,408.0,66.0,175.0,0.688,0.195,-0.043,-0.697
117257,-1146.0,2460.0,7822.0,-158.0,23.0,131.0,0.69,0.194,-0.042,-0.697
117279,-1122.0,2896.0,7902.0,-42.0,-17.0,105.0,0.69,0.193,-0.042,-0.696
117301,-1254.0,2846.0,7580.0,-3.0,-49.0,-20.0,0.69,0.193,-0.043,-0.696
117313,-1130.0,2858.0,7600.0,-12.0,-44.0,-88.0,0.69,0.192,-0.043,-0.697
117340,-1072.0,2918.0,7568.0,-26.0,-11.0,-24.0,0.69,0.192,-0.043,-0.697
117352,-1166.0,2956.0,7606.0,-60.0,8.0,-1.0,0.69,0.192,-0.042,-0.697
117364,-1342.0,3032.0,7550.0,-34.0,-19.0,-39.0,0.69,0.191,-0.042,-0.697
117386,-1220.0,2702.0,7822.0,-32.0,-29.0,-118.0,0.689,0.191,-0.042,-0.698
117398,-1344.0,2774.0,7728.0,-32.0,-10.0,-44.0,0.689,0.191,-0.042,-0.698
117420,-1362.0,2730.0,7812.0,-10.0,-4.0,-51.0,0.688,0.191,-0.042,-0.699
117442,-1418.0,2758.0,7722.0,29.0,-2.0,-45.0,0.688,0.191,-0.042,-0.699
117454,-1450.0,2840.0,7610.0,43.0,-20.0,-19.0,0.688,0.191,-0.043,-0.699
117476,-1384.0,2954.0,7678.0,48.0,-4.0,9.0,0.688,0.191,-0.043,-0.699
117488,-1440.0,2916.0,7842.0,2.0,4.0,17.0,0.688,0.191,-0.043,-0.699
117510,-1494.0,2878.0,7832.0,41.0,9.0,28.0,0.688,0.191,-0.044,-0.699
117522,-1590.0,2870.0,7710.0,79.0,2.0,74.0,0.688,0.192,-0.044,-0.698
117544,-1292.0,2924.0,7546.0,115.0,10.0,106.0,0.689,0.193,-0.045,-0.697
117556,-1320.0,2810.0,7830.0,131.0,22.0,107.0,0.691,0.194,-0.046,-0.695
117578,-1128.0,2862.0,7348.0,73.0,51.0,119.0,0.691,0.194,-0.046,-0.694
117590,-954.0,3054.0,7388.0,21.0,34.0,81.0,0.692,0.195,-0.046,-0.694
117612,-774.0,3116.0,7356.0,-7.0,17.0,22.0,0.694,0.195,-0.046,-0.692
117634,-690.0,3152.0,7230.0,-29.0,-40.0,-76.0,0.693,0.194,-0.046,-0.693
117646,-246.0,3210.0,7478.0,-23.0,-12.0,-195.0,0.692,0.194,-0.046,-0.694
117668,168.0,3214.0,7876.0,26.0,109.0,-325.0,0.691,0.195,-0.045,-0.694
117680,894.0,3444.0,8372.0,312.0,282.0,-516.0,0.689,0.199,-0.044,-0.696
117702,1510.0,4056.0,8952.0,561.0,500.0,-930.0,0.683,0.206,-0.042,-0.699
117714,2326.0,5522.0,8446.0,967.0,652.0,-1427.0,0.674,0.217,-0.041,-0.705
117736,1408.0,5074.0,7296.0,728.0,663.0,-1069.0,0.667,0.226,-0.04,-0.709
117748,648.0,3594.0,6760.0,546.0,651.0,-1023.0,0.661,0.234,-0.038,-0.712
117770,446.0,4458.0,6862.0,484.0,629.0,-616.0,0.657,0.241,-0.036,-0.713
117792,340.0,3694.0,6934.0,439.0,596.0,-791.0,0.652,0.248,-0.034,-0.715
117804,-76.0,3240.0,6374.0,536.0,569.0,-916.0,0.646,0.255,-0.031,-0.719
117826,-594.0,3282.0,6050.0,623.0,525.0,-941.0,0.639,0.263,-0.03,-0.722
117838,-908.0,2928.0,5796.0,575.0,397.0,-914.0,0.633,0.269,-0.029,-0.725
117860,-1142.0,2462.0,6024.0,589.0,311.0,-776.0,0.626,0.275,-0.029,-0.729
117872,-1484.0,2690.0,5976.0,629.0,217.0,-566.0,0.621,0.281,-0.03,-0.731
117894,-1756.0,2366.0,5800.0,743.0,90.0,-442.0,0.617,0.286,-0.033,-0.733
117906,-1944.0,1112.0,5470.0,917.0,3.0,-356.0,0.612,0.291,-0.039,-0.735
117928,-2148.0,2026.0,5252.0,996.0,-101.0,-275.0,0.607,0.296,-0.045,-0.736
117940,-2202.0,2516.0,5638.0,953.0,-276.0,-101.0,0.604,0.3,-0.053,-0.737
117963,-2354.0,2416.0,6278.0,920.0,-323.0,112.0,0.602,0.303,-0.061,-0.736
117985,-2872.0,2306.0,6698.0,810.0,-365.0,398.0,0.603,0.304,-0.07,-0.734
117997,-3020.0,2398.0,6372.0,704.0,-406.0,705.0,0.605,0.305,-0.079,-0.731
118019,-3226.0,1914.0,6192.0,755.0,-390.0,1053.0,0.61,0.306,-0.089,-0.726
118031,-3226.0,2350.0,6564.0,759.0,-331.0,1173.0,0.615,0.306,-0.099,-0.719
118053,-3344.0,2956.0,7306.0,851.0,-214.0,1360.0,0.622,0.308,-0.109,-0.712
118065,-3938.0,3892.0,7758.0,1004.0,-139.0,1197.0,0.627,0.312,-0.12,-0.704
118087,-4730.0,4354.0,7918.0,982.0,-124.0,1036.0,0.63,0.316,-0.13,-0.697
118099,-5348.0,4930.0,8008.0,920.0,-88.0,1066.0,0.634,0.319,-0.14,-0.69
118121,-5730.0,6290.0,8598.0,759.0,-101.0,942.0,0.638,0.322,-0.148,-0.684
118133,-6036.0,5802.0,8002.0,526.0,-216.0,681.0,0.64,0.323,-0.155,-0.679
118155,-6022.0,4918.0,7248.0,480.0,-231.0,522.0,0.642,0.323,-0.161,-0.676
118177,-6114.0,6606.0,6976.0,463.0,-368.0,147.0,0.641,0.324,-0.167,-0.676
118189,-5996.0,7074.0,7274.0,305.0,-569.0,-230.0,0.638,0.322,-0.171,-0.678
118211,-5744.0,6536.0,7370.0,102.0,-697.0,-442.0,0.633,0.319,-0.175,-0.683
118223,-5402.0,5582.0,7492.0,-67.0,-874.0,-545.0,0.629,0.314,-0.178,-0.689
118245,-5712.0,4786.0,7858.0,-146.0,-1112.0,-1070.0,0.62,0.308,-0.18,-0.699
118257,-4722.0,3150.0,7466.0,-242.0,-1251.0,-747.0,0.614,0.299,-0.184,-0.707
118279,-4698.0,3790.0,6838.0,-254.0,-1387.0,-1200.0,0.604,0.291,-0.187,-0.718
118291,-4264.0,5186.0,6490.0,-314.0,-1636.0,-1395.0,0.593,0.28,-0.19,-0.731
118313,-3148.0,7524.0,7282.0,-337.0,-1842.0,-1433.0,0.581,0.269,-0.194,-0.744
118335,-1726.0,10044.0,8200.0,-407.0,-1931.0,-1378.0,0.568,0.255,-0.198,-0.757
118347,-838.0,10584.0,8614.0,-665.0,-1978.0,-1303.0,0.557,0.24,-0.201,-0.769
118369,160.0,7724.0,8040.0,-812.0,-2024.0,-1260.0,0.546,0.224,-0.203,-0.782
118381,1032.0,8324.0,6362.0,-769.0,-2027.0,59.0,0.544,0.205,-0.207,-0.787
118403,916.0,7428.0,4938.0,-1083.0,-2180.0,-211.0,0.54,0.184,-0.211,-0.794
118415,1774.0,5342.0,4256.0,-1004.0,-2438.0,-1300.0,0.527,0.163,-0.213,-0.806
118437,2998.0,5562.0,3988.0,-719.0,-2320.0,-1221.0,0.514,0.145,-0.218,-0.817
118449,2908.0,6222.0,3856.0,-798.0,-2198.0,-985.0,0.503,0.126,-0.222,-0.825
118471,2714.0,5048.0,3686.0,-929.0,-2053.0,-755.0,0.494,0.107,-0.224,-0.833
118483,2346.0,3700.0,4064.0,-860.0,-1828.0,-398.0,0.488,0.09,-0.225,-0.838
118506,2074.0,2388.0,4684.0,-509.0,-1522.0,-34.0,0.485,0.076,-0.228,-0.841
118518,1654.0,2402.0,4756.0,16.0,-1153.0,76.0,0.483,0.067,-0.234,-0.841
118541,1462.0,3170.0,4520.0,253.0,-827.0,85.0,0.482,0.061,-0.239,-0.841
118563,1256.0,3422.0,4282.0,190.0,-533.0,111.0,0.481,0.057,-0.243,-0.84
118575,1162.0,3646.0,4336.0,45.0,-247.0,291.0,0.483,0.055,-0.245,-0.839
118597,1148.0,3710.0,4504.0,-91.0,28.0,461.0,0.487,0.054,-0.244,-0.837
118609,1154.0,3770.0,4908.0,-132.0,287.0,540.0,0.492,0.054,-0.242,-0.835
118631,1170.0,3850.0,5340.0,-76.0,529.0,570.0,0.497,0.057,-0.239,-0.832
118643,886.0,4026.0,5700.0,-50.0,742.0,611.0,0.504,0.061,-0.236,-0.829
118665,888.0,4426.0,6164.0,-62.0,935.0,621.0,0.511,0.067,-0.232,-0.825
118677,996.0,4300.0,6634.0,-27.0,1077.0,659.0,0.518,0.073,-0.227,-0.822
118699,1198.0,4510.0,7252.0,157.0,1222.0,810.0,0.527,0.082,-0.223,-0.816
118711,1412.0,4916.0,7644.0,376.0,1382.0,1030.0,0.538,0.092,-0.22,-0.809
118733,1458.0,5252.0,7832.0,542.0,1477.0,1189.0,0.55,0.104,-0.217,-0.8
118755,1312.0,4412.0,7712.0,839.0,1430.0,910.0,0.559,0.117,-0.217,-0.792
118767,1646.0,6244.0,7534.0,649.0,1672.0,1395.0,0.573,0.13,-0.214,-0.78
118789,1258.0,4134.0,7410.0,685.0,1461.0,460.0,0.579,0.143,-0.212,-0.774
118801,1618.0,4860.0,6998.0,565.0,1477.0,637.0,0.587,0.156,-0.209,-0.767
118823,984.0,4526.0,6972.0,358.0,1377.0,772.0,0.595,0.166,-0.205,-0.759
118835,854.0,4786.0,7002.0,270.0,1331.0,1141.0,0.606,0.175,-0.202,-0.749
118857,532.0,4686.0,7190.0,154.0,1200.0,1086.0,0.617,0.182,-0.198,-0.74
118869,460.0,5072.0,7508.0,-1.0,1128.0,1322.0,0.628,0.188,-0.193,-0.73
118891,202.0,5022.0,7886.0,-138.0,1005.0,1252.0,0.64,0.192,-0.188,-0.72
118913,176.0,4664.0,8176.0,36.0,967.0,1237.0,0.651,0.197,-0.185,-0.71
118925,108.0,5418.0,7930.0,111.0,970.0,1365.0,0.662,0.202,-0.182,-0.699
118947,-106.0,5270.0,7242.0,-35.0,845.0,1325.0,0.673,0.205,-0.179,-0.688
118959,-200.0,4862.0,6876.0,-105.0,789.0,1338.0,0.684,0.207,-0.175,-0.677
118981,-554.0,5328.0,6984.0,-192.0,698.0,1378.0,0.695,0.209,-0.172,-0.666
118993,-700.0,5082.0,7356.0,-325.0,571.0,1273.0,0.705,0.208,-0.169,-0.657
119015,-588.0,4490.0,7680.0,-361.0,499.0,1218.0,0.715,0.207,-0.165,-0.647
119027,-654.0,3962.0,7556.0,-262.0,413.0,1031.0,0.723,0.207,-0.162,-0.639
119049,-694.0,3922.0,7154.0,-281.0,323.0,914.0,0.73,0.206,-0.16,-0.632
119061,-780.0,3736.0,6848.0,-349.0,203.0,776.0,0.737,0.204,-0.158,-0.625
119084,-814.0,3648.0,6466.0,-486.0,54.0,791.0,0.743,0.2,-0.156,-0.62
119096,-662.0,3572.0,6168.0,-652.0,-85.0,823.0,0.75,0.194,-0.154,-0.614
119119,-644.0,3226.0,5900.0,-770.0,-236.0,781.0,0.756,0.186,-0.152,-0.609
119141,-668.0,2760.0,5966.0,-806.0,-393.0,632.0,0.761,0.177,-0.151,-0.605
119153,-680.0,2464.0,6070.0,-713.0,-523.0,585.0,0.766,0.169,-0.152,-0.602
119175,-598.0,2546.0,5872.0,-530.0,-644.0,528.0,0.769,0.161,-0.154,-0.599
119187,-392.0,2496.0,5406.0,-433.0,-822.0,471.0,0.772,0.153,-0.158,-0.597
119209,-116.0,2422.0,5862.0,-369.0,-1010.0,451.0,0.774,0.144,-0.163,-0.594
119221,452.0,3490.0,6292.0,-266.0,-1133.0,317.0,0.775,0.135,-0.17,-0.593
119243,692.0,4142.0,6850.0,-277.0,-1229.0,152.0,0.775,0.127,-0.178,-0.593
119255,1422.0,3948.0,7682.0,-477.0,-1260.0,90.0,0.775,0.117,-0.184,-0.593
119277,1702.0,3552.0,7994.0,-651.0,-1266.0,15.0,0.774,0.105,-0.19,-0.595
119299,1784.0,3440.0,7788.0,-775.0,-1229.0,-25.0,0.773,0.093,-0.194,-0.596
119311,1570.0,2870.0,6336.0,-928.0,-1449.0,-3.0,0.772,0.078,-0.199,-0.598
119333,2266.0,2286.0,5852.0,-955.0,-1689.0,-130.0,0.77,0.063,-0.206,-0.601
119350,3404.0,1334.0,6768.0,-572.0,-1643.0,-44.0,0.767,0.049,-0.215,-0.602
119362,3202.0,2150.0,7490.0,-433.0,-1520.0,61.0,0.765,0.038,-0.223,-0.603
119384,3412.0,2608.0,7680.0,-526.0,-1595.0,171.0,0.764,0.025,-0.232,-0.602
119396,3972.0,2912.0,7970.0,-342.0,-1489.0,534.0,0.764,0.013,-0.24,-0.598
119418,3842.0,3696.0,7778.0,-317.0,-1413.0,382.0,0.764,0.002,-0.249,-0.595
119430,4010.0,2700.0,6976.0,-461.0,-1515.0,234.0,0.762,-0.01,-0.257,-0.594
119452,4704.0,1768.0,8342.0,-158.0,-1319.0,288.0,0.761,-0.019,-0.266,-0.591
119464,4610.0,3326.0,9176.0,-3.0,-1037.0,251.0,0.761,-0.025,-0.273,-0.588
119486,4480.0,3568.0,9256.0,-305.0,-942.0,225.0,0.76,-0.032,-0.278,-0.586
119508,4302.0,3006.0,8568.0,-364.0,-857.0,225.0,0.76,-0.04,-0.282,-0.584
119520,4454.0,2936.0,7802.0,-248.0,-694.0,150.0,0.76,-0.045,-0.285,-0.583
119542,4392.0,2784.0,6898.0,-231.0,-612.0,39.0,0.759,-0.05,-0.289,-0.582
119554,4394.0,2188.0,6590.0,-125.0,-560.0,89.0,0.758,-0.054,-0.292,-0.58
119576,4344.0,2286.0,6532.0,-1.0,-525.0,81.0,0.758,-0.056,-0.296,-0.579
119588,4624.0,2064.0,6296.0,-35.0,-515.0,70.0,0.758,-0.059,-0.299,-0.577
119610,4518.0,2326.0,6194.0,-25.0,-509.0,-40.0,0.757,-0.062,-0.303,-0.576
119622,4556.0,1588.0,6174.0,37.0,-463.0,-51.0,0.756,-0.064,-0.307,-0.575
119644,4458.0,1904.0,6486.0,126.0,-429.0,-24.0,0.755,-0.065,-0.31,-0.574
119666,4536.0,2146.0,6808.0,181.0,-345.0,12.0,0.755,-0.065,-0.314,-0.572
119678,4344.0,2410.0,6466.0,107.0,-364.0,15.0,0.755,-0.066,-0.317,-0.571
119700,4444.0,2460.0,6384.0,140.0,-301.0,-6.0,0.755,-0.066,-0.32,-0.569
119712,4476.0,2632.0,6028.0,166.0,-282.0,-40.0,0.754,-0.065,-0.323,-0.568
119734,4434.0,2664.0,6836.0,203.0,-286.0,-61.0,0.754,-0.065,-0.326,-0.567
119746,4560.0,3146.0,6638.0,239.0,-247.0,-123.0,0.753,-0.064,-0.33,-0.566
119768,4380.0,2988.0,6148.0,164.0,-329.0,-196.0,0.752,-0.063,-0.333,-0.565
119780,4692.0,2562.0,5828.0,182.0,-356.0,-302.0,0.75,-0.062,-0.337,-0.566
119802,4710.0,2432.0,5648.0,193.0,-410.0,-400.0,0.747,-0.061,-0.341,-0.567
119824,4978.0,1982.0,6554.0,290.0,-416.0,-455.0,0.745,-0.06,-0.346,-0.568
119836,4724.0,2182.0,5986.0,300.0,-393.0,-446.0,0.742,-0.058,-0.35,-0.569
119858,4688.0,2246.0,5636.0,290.0,-454.0,-484.0,0.739,-0.056,-0.355,-0.57
119870,4844.0,2436.0,5552.0,318.0,-471.0,-580.0,0.735,-0.054,-0.361,-0.572
119892,5068.0,2700.0,5962.0,337.0,-458.0,-638.0,0.731,-0.052,-0.366,-0.574
119904,5014.0,2864.0,6048.0,310.0,-453.0,-620.0,0.727,-0.05,-0.371,-0.576
119926,5214.0,2806.0,6232.0,372.0,-434.0,-645.0,0.722,-0.047,-0.376,-0.579
119938,5244.0,3120.0,5908.0,396.0,-444.0,-650.0,0.718,-0.044,-0.382,-0.581
119960,5262.0,3092.0,5546.0,416.0,-433.0,-689.0,0.713,-0.042,-0.387,-0.584
119972,5272.0,3150.0,5618.0,401.0,-407.0,-669.0,0.708,-0.039,-0.392,-0.586
119994,5334.0,3286.0,5312.0,370.0,-407.0,-635.0,0.703,-0.036,-0.397,-0.589
120016,5444.0,3398.0,5222.0,386.0,-426.0,-633.0,0.698,-0.034,-0.403,-0.592
120028,5868.0,3070.0,5254.0,424.0,-334.0,-607.0,0.693,-0.031,-0.407,-0.594
120050,5518.0,2740.0,4960.0,431.0,-367.0,-542.0,0.689,-0.028,-0.412,-0.595
120062,5662.0,2902.0,4468.0,420.0,-412.0,-469.0,0.685,-0.026,-0.417,-0.597
120084,5980.0,3326.0,4478.0,487.0,-393.0,-404.0,0.681,-0.024,-0.423,-0.597
120096,6196.0,3782.0,4258.0,425.0,-364.0,-303.0,0.678,-0.022,-0.428,-0.597
120118,6262.0,4342.0,4338.0,362.0,-339.0,-324.0,0.675,-0.021,-0.432,-0.597
120130,6318.0,4704.0,4460.0,315.0,-279.0,-237.0,0.673,-0.019,-0.436,-0.598
120152,5720.0,4594.0,4296.0,299.0,-282.0,-224.0,0.67,-0.018,-0.44,-0.598
120174,5122.0,4284.0,4248.0,219.0,-188.0,-152.0,0.669,-0.017,-0.442,-0.598
120186,4622.0,4164.0,4054.0,199.0,-219.0,-218.0,0.666,-0.016,-0.445,-0.598
120208,4406.0,4386.0,3520.0,179.0,-151.0,-229.0,0.665,-0.015,-0.447,-0.599
120220,4406.0,4662.0,3652.0,218.0,-39.0,-195.0,0.663,-0.013,-0.449,-0.599
120242,4288.0,5118.0,4166.0,220.0,12.0,-255.0,0.662,-0.01,-0.45,-0.6
120254,4454.0,5172.0,4800.0,269.0,123.0,-260.0,0.661,-0.007,-0.451,-0.6
120276,4554.0,5618.0,5110.0,315.0,234.0,-286.0,0.66,-0.002,-0.451,-0.601
120288,4736.0,5580.0,5096.0,281.0,279.0,-310.0,0.659,0.003,-0.451,-0.602
120310,5052.0,5796.0,4714.0,252.0,296.0,-420.0,0.658,0.008,-0.45,-0.603
120332,5080.0,5560.0,4444.0,201.0,248.0,-501.0,0.656,0.013,-0.45,-0.605
120344,4990.0,5370.0,4402.0,187.0,220.0,-526.0,0.654,0.017,-0.45,-0.608
120366,4712.0,5082.0,4626.0,172.0,179.0,-548.0,0.652,0.022,-0.45,-0.61
120378,4510.0,4454.0,4600.0,171.0,167.0,-521.0,0.65,0.026,-0.45,-0.613
120400,4316.0,4278.0,4518.0,187.0,144.0,-511.0,0.647,0.03,-0.45,-0.615
120412,4344.0,4650.0,4434.0,154.0,107.0,-532.0,0.645,0.034,-0.45,-0.617
120434,4480.0,4904.0,4700.0,97.0,81.0,-522.0,0.642,0.037,-0.45,-0.62
120446,4756.0,5252.0,4846.0,54.0,69.0,-525.0,0.639,0.04,-0.45,-0.623
120468,4894.0,5200.0,4856.0,38.0,42.0,-499.0,0.636,0.042,-0.45,-0.626
120480,4824.0,5222.0,4728.0,47.0,40.0,-456.0,0.634,0.045,-0.449,-0.628
120502,4664.0,5220.0,4492.0,67.0,13.0,-386.0,0.632,0.047,-0.45,-0.63
120524,4532.0,4760.0,4394.0,76.0,-5.0,-279.0,0.63,0.048,-0.45,-0.631
120536,4452.0,4588.0,4434.0,81.0,-67.0,-265.0,0.628,0.049,-0.451,-0.632
120558,4576.0,4538.0,4710.0,38.0,-115.0,-193.0,0.626,0.049,-0.452,-0.633
120570,4758.0,4676.0,4772.0,22.0,-110.0,-85.0,0.626,0.049,-0.453,-0.634
120592,5006.0,5136.0,4552.0,42.0,-85.0,-2.0,0.625,0.049,-0.453,-0.633
120604,4984.0,5742.0,4424.0,39.0,-53.0,97.0,0.625,0.048,-0.454,-0.633
120626,4870.0,6204.0,4174.0,43.0,-71.0,139.0,0.626,0.047,-0.455,-0.632
120638,4480.0,5770.0,4376.0,2.0,-88.0,200.0,0.627,0.046,-0.456,-0.63
120660,3806.0,5372.0,4412.0,-61.0,-116.0,237.0,0.627,0.044,-0.456,-0.629
120682,3550.0,5322.0,4626.0,-64.0,-55.0,229.0,0.629,0.043,-0.456,-0.628
120694,3286.0,5488.0,4576.0,-39.0,-32.0,202.0,0.63,0.041,-0.456,-0.627
120716,3360.0,5360.0,4348.0,3.0,-6.0,201.0,0.631,0.041,-0.456,-0.626
120728,3596.0,5636.0,4220.0,36.0,29.0,143.0,0.632,0.041,-0.457,-0.625
120750,3808.0,5622.0,4602.0,-15.0,61.0,69.0,0.633,0.042,-0.456,-0.624
120762,4014.0,5740.0,4760.0,-41.0,87.0,-22.0,0.633,0.042,-0.455,-0.624
120784,4226.0,6236.0,4680.0,29.0,132.0,-93.0,0.634,0.044,-0.455,-0.624
120796,4270.0,5758.0,4756.0,-11.0,103.0,-127.0,0.634,0.046,-0.454,-0.624
120818,4406.0,5182.0,4626.0,-58.0,74.0,-225.0,0.633,0.047,-0.453,-0.625
120840,4800.0,5482.0,4154.0,-62.0,133.0,-102.0,0.634,0.048,-0.452,-0.626
120852,4724.0,5550.0,4130.0,-131.0,46.0,-223.0,0.633,0.049,-0.451,-0.627
120874,5020.0,4356.0,4130.0,-106.0,-46.0,-274.0,0.632,0.049,-0.451,-0.628
120886,5014.0,4048.0,4210.0,-32.0,-38.0,-113.0,0.632,0.05,-0.451,-0.628
120908,4878.0,4518.0,4714.0,-107.0,-114.0,-41.0,0.632,0.049,-0.451,-0.628
120920,4828.0,4234.0,4970.0,-69.0,-111.0,111.0,0.633,0.047,-0.451,-0.628
120942,4378.0,4972.0,4768.0,-40.0,-114.0,169.0,0.634,0.046,-0.452,-0.626
120954,4300.0,5568.0,4570.0,-48.0,-161.0,227.0,0.635,0.044,-0.452,-0.625
120976,4166.0,5762.0,4426.0,-114.0,-197.0,308.0,0.636,0.042,-0.453,-0.623
120988,4352.0,5946.0,4344.0,-177.0,-263.0,288.0,0.637,0.038,-0.454,-0.621
121010,4854.0,5382.0,4376.0,-235.0,-326.0,288.0,0.638,0.034,-0.455,-0.62
121032,4958.0,4546.0,4298.0,-223.0,-325.0,297.0,0.639,0.03,-0.455,-0.619
121044,4732.0,4510.0,4466.0,-200.0,-318.0,297.0,0.64,0.026,-0.456,-0.617
121066,4370.0,4390.0,4532.0,-209.0,-316.0,282.0,0.641,0.022,-0.457,-0.616
121078,3874.0,4460.0,4540.0,-235.0,-330.0,271.0,0.642,0.018,-0.458,-0.615
121100,3768.0,4998.0,4606.0,-258.0,-367.0,173.0,0.642,0.014,-0.458,-0.615
121112,4086.0,5076.0,4754.0,-354.0,-418.0,93.0,0.641,0.01,-0.459,-0.615
121134,4790.0,5108.0,5304.0,-423.0,-403.0,77.0,0.64,0.005,-0.459,-0.616
121156,5252.0,5022.0,4752.0,-450.0,-454.0,27.0,0.639,0.0,-0.459,-0.617
121168,5292.0,4766.0,4200.0,-465.0,-488.0,47.0,0.638,-0.005,-0.459,-0.618
121190,5306.0,4780.0,3876.0,-436.0,-494.0,70.0,0.636,-0.011,-0.46,-0.619
121202,5072.0,4638.0,3914.0,-453.0,-508.0,92.0,0.635,-0.016,-0.46,-0.62
121224,5076.0,4490.0,4068.0,-448.0,-503.0,121.0,0.634,-0.022,-0.461,-0.621
121236,4978.0,4484.0,3902.0,-402.0,-475.0,163.0,0.633,-0.027,-0.461,-0.621
121258,5046.0,4514.0,3862.0,-402.0,-476.0,179.0,0.633,-0.033,-0.462,-0.621
121270,5386.0,4872.0,4136.0,-330.0,-434.0,161.0,0.632,-0.038,-0.463,-0.62
121292,5800.0,5000.0,4412.0,-260.0,-368.0,254.0,0.632,-0.042,-0.464,-0.619
121304,5814.0,4676.0,4264.0,-236.0,-327.0,333.0,0.633,-0.046,-0.464,-0.618
121326,6054.0,4726.0,4354.0,-211.0,-242.0,386.0,0.635,-0.05,-0.464,-0.616
121338,6092.0,4622.0,4094.0,-205.0,-200.0,427.0,0.637,-0.054,-0.464,-0.613
121356,6036.0,4300.0,4108.0,-158.0,-154.0,441.0,0.639,-0.058,-0.464,-0.611
121378,5954.0,4096.0,4118.0,-104.0,-102.0,501.0,0.642,-0.061,-0.464,-0.607
121400,5902.0,3810.0,4250.0,-68.0,-41.0,567.0,0.645,-0.063,-0.464,-0.604
121412,5932.0,3876.0,4464.0,-31.0,11.0,622.0,0.649,-0.066,-0.464,-0.599
121434,5918.0,4134.0,4530.0,-23.0,64.0,648.0,0.653,-0.068,-0.463,-0.595
121446,5804.0,3992.0,4438.0,2.0,98.0,635.0,0.658,-0.07,-0.462,-0.591
121468,5954.0,4102.0,4306.0,19.0,121.0,637.0,0.662,-0.071,-0.461,-0.586
121480,6048.0,3892.0,4222.0,19.0,160.0,679.0,0.667,-0.073,-0.46,-0.581
121502,6078.0,3758.0,4608.0,51.0,218.0,683.0,0.672,-0.074,-0.458,-0.577
121514,5988.0,3838.0,4726.0,71.0,273.0,684.0,0.678,-0.074,-0.457,-0.571
121536,5928.0,4048.0,4696.0,54.0,299.0,677.0,0.683,-0.075,-0.455,-0.567
121558,5822.0,4350.0,4488.0,25.0,333.0,623.0,0.688,-0.075,-0.453,-0.562
121570,5788.0,4560.0,4414.0,11.0,363.0,536.0,0.693,-0.075,-0.45,-0.558
121592,5868.0,4638.0,4436.0,-17.0,390.0,446.0,0.697,-0.074,-0.447,-0.555
121604,5842.0,4186.0,4480.0,-21.0,423.0,404.0,0.702,-0.073,-0.445,-0.552
121626,5800.0,3700.0,4268.0,50.0,449.0,286.0,0.705,-0.071,-0.442,-0.55
121638,5846.0,3626.0,4112.0,104.0,459.0,171.0,0.709,-0.068,-0.44,-0.548
121660,6274.0,3218.0,4012.0,-12.0,417.0,-12.0,0.711,-0.066,-0.437,-0.547
121672,6430.0,3082.0,4090.0,15.0,396.0,-137.0,0.712,-0.063,-0.435,-0.547
121694,6470.0,2360.0,4302.0,49.0,402.0,-130.0,0.714,-0.06,-0.433,-0.547
121706,5958.0,2176.0,4844.0,196.0,447.0,-171.0,0.716,-0.055,-0.431,-0.547
121728,5264.0,2468.0,4724.0,339.0,546.0,-179.0,0.718,-0.049,-0.429,-0.546
121750,5306.0,2842.0,4594.0,403.0,605.0,-196.0,0.72,-0.042,-0.427,-0.545
121762,5150.0,3382.0,4676.0,432.0,585.0,-277.0,0.722,-0.034,-0.426,-0.545
121784,5116.0,3468.0,4712.0,399.0,510.0,-333.0,0.723,-0.027,-0.424,-0.545
121796,4564.0,3062.0,5218.0,399.0,478.0,-302.0,0.724,-0.021,-0.423,-0.545
121818,4756.0,2748.0,4954.0,314.0,446.0,-501.0,0.724,-0.014,-0.422,-0.546
121830,5126.0,2068.0,4914.0,258.0,451.0,-402.0,0.724,-0.008,-0.42,-0.547
121852,4976.0,1640.0,5102.0,243.0,458.0,-354.0,0.725,-0.002,-0.418,-0.548
121864,4960.0,1840.0,5290.0,155.0,460.0,-229.0,0.726,0.002,-0.416,-0.548
121886,5162.0,2172.0,5668.0,66.0,464.0,-184.0,0.728,0.006,-0.413,-0.548
121908,4932.0,2710.0,5670.0,136.0,492.0,-109.0,0.73,0.01,-0.41,-0.547
121920,5132.0,2652.0,5628.0,97.0,467.0,-46.0,0.732,0.013,-0.407,-0.546
121942,5238.0,2634.0,5426.0,82.0,431.0,-26.0,0.734,0.016,-0.405,-0.545
121954,5658.0,3282.0,5424.0,20.0,440.0,-48.0,0.736,0.019,-0.402,-0.544
121976,5900.0,3484.0,5768.0,-86.0,409.0,-82.0,0.738,0.021,-0.399,-0.544
121988,5764.0,4112.0,5792.0,-143.0,414.0,-101.0,0.739,0.023,-0.395,-0.545
122010,5254.0,4608.0,5634.0,-80.0,394.0,-120.0,0.741,0.025,-0.392,-0.545
122022,5094.0,4658.0,5396.0,-21.0,412.0,-130.0,0.742,0.028,-0.389,-0.545
122044,4678.0,4714.0,5184.0,-75.0,401.0,-197.0,0.743,0.031,-0.386,-0.546
122066,4504.0,4294.0,5232.0,-127.0,385.0,-273.0,0.744,0.034,-0.383,-0.547
122078,4316.0,4386.0,5192.0,-80.0,398.0,-321.0,0.744,0.037,-0.38,-0.549
122100,4158.0,4586.0,5020.0,-50.0,388.0,-355.0,0.744,0.04,-0.377,-0.55
122112,4120.0,4538.0,4988.0,-29.0,404.0,-329.0,0.744,0.044,-0.374,-0.552
122134,4106.0,4480.0,5056.0,28.0,426.0,-375.0,0.744,0.048,-0.371,-0.553
122146,4162.0,4260.0,5276.0,74.0,460.0,-413.0,0.744,0.053,-0.368,-0.555
122168,4134.0,4128.0,5468.0,131.0,515.0,-424.0,0.744,0.058,-0.365,-0.556
122180,4110.0,4310.0,5606.0,162.0,611.0,-393.0,0.745,0.064,-0.361,-0.557
122202,4122.0,4594.0,5748.0,176.0,699.0,-362.0,0.746,0.071,-0.357,-0.558
122214,4112.0,4828.0,5776.0,204.0,755.0,-324.0,0.747,0.078,-0.353,-0.558
122236,3944.0,5048.0,5864.0,211.0,792.0,-302.0,0.748,0.085,-0.348,-0.558
122258,3730.0,4898.0,5760.0,154.0,802.0,-320.0,0.75,0.091,-0.343,-0.559
122270,3614.0,4672.0,5850.0,144.0,831.0,-314.0,0.751,0.098,-0.338,-0.559
122292,3356.0,4600.0,5932.0,161.0,867.0,-292.0,0.753,0.105,-0.333,-0.559
122304,3182.0,4556.0,6056.0,171.0,898.0,-230.0,0.755,0.112,-0.327,-0.558
122326,2886.0,4580.0,5958.0,186.0,906.0,-166.0,0.757,0.119,-0.321,-0.557
122338,2692.0,4574.0,6300.0,239.0,938.0,-138.0,0.759,0.126,-0.316,-0.555
122360,2684.0,4656.0,6638.0,277.0,948.0,-153.0,0.761,0.134,-0.31,-0.554
122372,2722.0,4718.0,7214.0,285.0,993.0,-97.0,0.764,0.141,-0.304,-0.551
122394,2684.0,4780.0,7452.0,316.0,1064.0,-71.0,0.767,0.15,-0.298,-0.549
122416,2486.0,4458.0,7104.0,366.0,1090.0,-64.0,0.769,0.158,-0.292,-0.546
122428,2282.0,4474.0,6826.0,498.0,1131.0,2.0,0.772,0.168,-0.286,-0.542
122450,2280.0,4804.0,6766.0,597.0,1165.0,11.0,0.775,0.178,-0.28,-0.538
122462,2358.0,5378.0,6862.0,582.0,1211.0,59.0,0.778,0.189,-0.274,-0.533
122484,2128.0,5722.0,6944.0,531.0,1147.0,37.0,0.781,0.198,-0.268,-0.528
122496,2172.0,5936.0,7076.0,632.0,1145.0,-166.0,0.782,0.209,-0.263,-0.525
122518,2344.0,6338.0,7286.0,614.0,1172.0,-232.0,0.783,0.22,-0.256,-0.522
122530,2196.0,6112.0,6918.0,451.0,1163.0,-359.0,0.783,0.23,-0.249,-0.521
122552,2156.0,5948.0,6954.0,370.0,1130.0,-572.0,0.783,0.24,-0.241,-0.521
122574,1982.0,5902.0,6674.0,352.0,1111.0,-608.0,0.782,0.249,-0.233,-0.521
122586,1916.0,5694.0,6514.0,383.0,1086.0,-674.0,0.781,0.259,-0.226,-0.522
122608,1572.0,5480.0,6230.0,408.0,1005.0,-639.0,0.779,0.268,-0.219,-0.522
122620,1594.0,5428.0,5874.0,555.0,924.0,-660.0,0.777,0.278,-0.213,-0.523
122642,1300.0,5432.0,5554.0,662.0,844.0,-681.0,0.774,0.289,-0.208,-0.523
122654,998.0,5188.0,5374.0,728.0,738.0,-694.0,0.771,0.299,-0.204,-0.524
122676,682.0,5412.0,5502.0,739.0,693.0,-664.0,0.767,0.309,-0.201,-0.525
122688,518.0,6150.0,5626.0,742.0,649.0,-654.0,0.764,0.319,-0.198,-0.525
122710,342.0,6108.0,5398.0,647.0,573.0,-650.0,0.76,0.328,-0.195,-0.526
122722,102.0,5694.0,5216.0,606.0,527.0,-638.0,0.756,0.336,-0.192,-0.527
122744,-82.0,6136.0,5146.0,685.0,504.0,-623.0,0.753,0.345,-0.19,-0.528
122766,-260.0,6430.0,5084.0,701.0,445.0,-629.0,0.749,0.353,-0.188,-0.529
122778,-196.0,6254.0,5016.0,697.0,395.0,-650.0,0.744,0.361,-0.186,-0.53
122800,-232.0,6972.0,4994.0,658.0,481.0,-646.0,0.74,0.37,-0.184,-0.531
122812,-550.0,6826.0,4994.0,545.0,496.0,-640.0,0.736,0.377,-0.181,-0.532
122834,-632.0,6366.0,5048.0,477.0,531.0,-608.0,0.733,0.384,-0.177,-0.533
122846,-652.0,6496.0,4960.0,472.0,527.0,-570.0,0.73,0.391,-0.174,-0.533
122868,-686.0,6136.0,4752.0,488.0,546.0,-565.0,0.727,0.398,-0.17,-0.533
122880,-782.0,6304.0,4644.0,514.0,592.0,-526.0,0.724,0.405,-0.167,-0.533
122902,-920.0,6178.0,4240.0,382.0,554.0,-485.0,0.721,0.412,-0.163,-0.533
122924,-1046.0,5900.0,4086.0,242.0,543.0,-424.0,0.719,0.417,-0.158,-0.533
122936,-1192.0,5608.0,4136.0,202.0,512.0,-349.0,0.718,0.421,-0.154,-0.532
122958,-1056.0,5594.0,4446.0,169.0,487.0,-248.0,0.717,0.425,-0.15,-0.531
122970,-902.0,4446.0,4424.0,170.0,426.0,-124.0,0.717,0.429,-0.147,-0.529
122992,-1134.0,4390.0,4156.0,455.0,432.0,15.0,0.716,0.434,-0.146,-0.526
123004,-1490.0,5600.0,3026.0,589.0,296.0,58.0,0.715,0.44,-0.147,-0.523
123026,-1244.0,6568.0,2912.0,595.0,249.0,78.0,0.714,0.445,-0.148,-0.52
123038,-1724.0,5230.0,3466.0,432.0,149.0,214.0,0.714,0.448,-0.15,-0.517
123060,-1962.0,7160.0,3686.0,352.0,189.0,241.0,0.714,0.452,-0.151,-0.513
123072,-2324.0,5200.0,3738.0,124.0,-109.0,287.0,0.715,0.452,-0.153,-0.511
123094,-1586.0,4286.0,3248.0,706.0,-117.0,383.0,0.714,0.455,-0.158,-0.507
123116,-1900.0,4614.0,3198.0,1097.0,-94.0,549.0,0.713,0.461,-0.166,-0.502
123128,-1848.0,6748.0,3566.0,978.0,-67.0,566.0,0.711,0.467,-0.173,-0.496
123150,-2166.0,5988.0,4884.0,344.0,-101.0,641.0,0.713,0.468,-0.178,-0.491
123162,-1922.0,6226.0,5340.0,485.0,-34.0,689.0,0.715,0.47,-0.182,-0.485
123184,-1738.0,7558.0,5370.0,844.0,65.0,545.0,0.714,0.475,-0.188,-0.479
123196,-2194.0,8626.0,4314.0,859.0,108.0,408.0,0.712,0.48,-0.192,-0.474
123218,-1610.0,8894.0,3868.0,854.0,186.0,246.0,0.71,0.487,-0.195,-0.469
123240,-1906.0,8588.0,2972.0,614.0,113.0,175.0,0.709,0.491,-0.198,-0.466
123252,-1572.0,7562.0,2914.0,596.0,66.0,38.0,0.706,0.495,-0.201,-0.465
123274,-1498.0,7324.0,3048.0,675.0,-7.0,-17.0,0.703,0.5,-0.203,-0.464
123286,-1550.0,6904.0,3380.0,764.0,-26.0,-37.0,0.699,0.505,-0.207,-0.463
123308,-1512.0,7036.0,3680.0,802.0,-9.0,-2.0,0.695,0.51,-0.21,-0.461
123320,-1604.0,6940.0,3630.0,705.0,-37.0,-47.0,0.692,0.514,-0.213,-0.46
123342,-1728.0,6936.0,3386.0,643.0,-107.0,-101.0,0.688,0.518,-0.216,-0.46
123359,-1770.0,6168.0,3194.0,768.0,-121.0,-119.0,0.684,0.523,-0.219,-0.46
123371,-1588.0,6578.0,3176.0,865.0,-163.0,-133.0,0.678,0.528,-0.223,-0.46
123393,-1718.0,9904.0,1896.0,373.0,-282.0,-150.0,0.675,0.529,-0.226,-0.461
123405,-1888.0,8150.0,2824.0,-293.0,-187.0,-290.0,0.675,0.527,-0.225,-0.465
123427,-1632.0,7812.0,3794.0,-143.0,-173.0,-294.0,0.674,0.526,-0.224,-0.468
123449,-1804.0,6264.0,3926.0,17.0,-107.0,-371.0,0.672,0.526,-0.222,-0.471
123461,-1768.0,6084.0,3124.0,90.0,-94.0,-254.0,0.671,0.527,-0.222,-0.473
123483,-1558.0,6226.0,1792.0,186.0,-82.0,-100.0,0.669,0.528,-0.223,-0.473
123495,-1292.0,7256.0,1586.0,358.0,-113.0,-105.0,0.667,0.53,-0.225,-0.474
123517,-1682.0,8248.0,938.0,-203.0,-303.0,-64.0,0.666,0.528,-0.226,-0.476
123529,-1414.0,6662.0,1684.0,-120.0,-404.0,-24.0,0.666,0.525,-0.227,-0.478
123551,-1398.0,7864.0,2634.0,137.0,-412.0,50.0,0.665,0.524,-0.231,-0.48
123563,-1338.0,8118.0,3416.0,179.0,-412.0,20.0,0.663,0.523,-0.234,-0.481
123585,-1584.0,8222.0,3044.0,133.0,-402.0,16.0,0.662,0.522,-0.238,-0.483
123607,-996.0,9352.0,3282.0,44.0,-453.0,-106.0,0.66,0.521,-0.24,-0.485
123619,-2432.0,9952.0,1420.0,-395.0,-643.0,-200.0,0.66,0.516,-0.241,-0.49
123641,-1744.0,5550.0,2728.0,233.0,-669.0,-226.0,0.656,0.515,-0.245,-0.494
123653,-1818.0,7970.0,3362.0,653.0,-640.0,-278.0,0.65,0.516,-0.251,-0.498
123675,-1674.0,5380.0,3722.0,876.0,-564.0,-217.0,0.644,0.52,-0.257,-0.5
123687,-1392.0,5864.0,3858.0,1078.0,-484.0,-122.0,0.637,0.524,-0.264,-0.5
123709,-974.0,7278.0,3564.0,1210.0,-416.0,-96.0,0.629,0.529,-0.272,-0.5
123721,-938.0,9730.0,2638.0,662.0,-298.0,-146.0,0.625,0.532,-0.276,-0.5
123743,-1152.0,7266.0,2830.0,719.0,-201.0,-192.0,0.62,0.536,-0.28,-0.501
123765,-1472.0,8920.0,1328.0,490.0,-302.0,-237.0,0.616,0.538,-0.282,-0.502
123777,-144.0,7494.0,472.0,623.0,-117.0,154.0,0.613,0.54,-0.287,-0.5
123799,-318.0,8042.0,-574.0,521.0,320.0,1236.0,0.617,0.542,-0.294,-0.49
123811,102.0,8406.0,326.0,315.0,129.0,1042.0,0.62,0.541,-0.301,-0.482
123833,708.0,7970.0,910.0,131.0,-11.0,782.0,0.623,0.54,-0.306,-0.477
123845,348.0,7944.0,652.0,73.0,-105.0,702.0,0.625,0.538,-0.31,-0.473
123867,318.0,9160.0,2532.0,-149.0,-198.0,579.0,0.628,0.535,-0.314,-0.471
123879,-848.0,7138.0,2848.0,-573.0,-89.0,628.0,0.633,0.529,-0.315,-0.469
123901,706.0,7146.0,1722.0,-525.0,-88.0,426.0,0.638,0.524,-0.315,-0.468
123923,584.0,6830.0,1736.0,-481.0,-186.0,198.0,0.64,0.52,-0.315,-0.47
123935,394.0,7764.0,2502.0,-367.0,-253.0,100.0,0.642,0.516,-0.316,-0.471
123957,316.0,8842.0,2852.0,-252.0,-240.0,54.0,0.643,0.513,-0.316,-0.473
123969,70.0,9030.0,3040.0,-375.0,-127.0,-58.0,0.644,0.511,-0.315,-0.475
123991,-434.0,8254.0,2378.0,-454.0,-45.0,-112.0,0.645,0.508,-0.313,-0.477
124003,-598.0,8512.0,2548.0,-238.0,9.0,-24.0,0.647,0.507,-0.312,-0.477
124025,-884.0,8464.0,2556.0,-74.0,-8.0,70.0,0.648,0.506,-0.311,-0.477
124037,-436.0,8844.0,2634.0,-174.0,-33.0,121.0,0.649,0.505,-0.311,-0.477
124059,-288.0,7012.0,2476.0,-170.0,5.0,89.0,0.65,0.504,-0.311,-0.476
124071,90.0,7554.0,2064.0,-61.0,-31.0,36.0,0.651,0.503,-0.311,-0.476
124093,-326.0,7474.0,1194.0,-73.0,-149.0,8.0,0.651,0.502,-0.311,-0.476
124115,-424.0,8214.0,1780.0,-45.0,-216.0,37.0,0.651,0.501,-0.312,-0.477
124127,6.0,7980.0,2986.0,-74.0,-252.0,-169.0,0.65,0.5,-0.312,-0.479
124149,-86.0,7458.0,2656.0,-42.0,-225.0,-447.0,0.648,0.5,-0.311,-0.483
124161,-496.0,8020.0,1558.0,2.0,-254.0,-473.0,0.645,0.501,-0.311,-0.486
124183,-384.0,8080.0,2308.0,81.0,-166.0,-409.0,0.643,0.502,-0.31,-0.489
124195,258.0,8966.0,3104.0,184.0,51.0,-271.0,0.641,0.504,-0.309,-0.489
124217,-244.0,8872.0,2970.0,138.0,175.0,-567.0,0.639,0.508,-0.305,-0.491
124229,-180.0,9276.0,2648.0,-35.0,143.0,-771.0,0.636,0.51,-0.3,-0.495
124251,-362.0,8390.0,2432.0,-72.0,87.0,-903.0,0.633,0.513,-0.295,-0.499
124263,-414.0,8036.0,2212.0,46.0,86.0,-933.0,0.629,0.516,-0.29,-0.504
124286,-274.0,8898.0,2824.0,56.0,111.0,-947.0,0.625,0.52,-0.285,-0.508
124308,-472.0,8354.0,3032.0,-101.0,162.0,-1103.0,0.621,0.523,-0.278,-0.514
124320,-536.0,8174.0,2936.0,-326.0,267.0,-868.0,0.619,0.525,-0.271,-0.518
124342,-752.0,8236.0,2908.0,-390.0,334.0,-940.0,0.618,0.526,-0.262,-0.522
124354,-218.0,5676.0,3788.0,-547.0,311.0,-973.0,0.617,0.527,-0.252,-0.527
124376,-242.0,8152.0,3108.0,-543.0,933.0,109.0,0.623,0.528,-0.245,-0.522
124388,-1542.0,7198.0,2866.0,-731.0,521.0,-313.0,0.627,0.527,-0.236,-0.523
124410,-718.0,6788.0,2792.0,-512.0,513.0,-604.0,0.628,0.528,-0.228,-0.524
124422,-1640.0,6316.0,2456.0,-515.0,464.0,-887.0,0.627,0.53,-0.218,-0.528
124444,-1050.0,6750.0,2506.0,-484.0,588.0,75.0,0.632,0.53,-0.212,-0.525
124456,-2010.0,5642.0,2848.0,-419.0,513.0,-233.0,0.634,0.53,-0.205,-0.524
124478,-2054.0,5642.0,2264.0,-330.0,379.0,-244.0,0.636,0.531,-0.2,-0.524
124500,-2332.0,6098.0,2162.0,-367.0,370.0,-7.0,0.638,0.531,-0.195,-0.522
124512,-2550.0,5622.0,1956.0,-304.0,330.0,158.0,0.642,0.53,-0.192,-0.52
124534,-2872.0,6286.0,2208.0,-331.0,318.0,191.0,0.645,0.53,-0.189,-0.517
124546,-2896.0,6270.0,2036.0,-613.0,249.0,262.0,0.651,0.527,-0.185,-0.515
124568,-2730.0,5242.0,1894.0,-509.0,278.0,341.0,0.656,0.525,-0.182,-0.511
124580,-2626.0,6152.0,2152.0,-205.0,319.0,363.0,0.659,0.524,-0.181,-0.507
124602,-2946.0,6756.0,1644.0,-139.0,219.0,333.0,0.662,0.525,-0.18,-0.504
124614,-2772.0,7322.0,2064.0,-212.0,83.0,281.0,0.665,0.524,-0.179,-0.501
124636,-2572.0,6774.0,2170.0,-189.0,72.0,253.0,0.668,0.523,-0.179,-0.499
124658,-2572.0,7030.0,2112.0,-56.0,44.0,265.0,0.67,0.522,-0.179,-0.497
124670,-2354.0,7684.0,2512.0,-110.0,6.0,270.0,0.672,0.522,-0.179,-0.495
124692,-2288.0,6846.0,2532.0,-139.0,-59.0,225.0,0.674,0.52,-0.18,-0.493
124704,-1992.0,7772.0,3284.0,-60.0,-49.0,163.0,0.675,0.52,-0.18,-0.492
124726,-1888.0,7736.0,3336.0,-58.0,-24.0,147.0,0.676,0.519,-0.18,-0.49
124738,-1790.0,7358.0,3298.0,-36.0,-11.0,108.0,0.678,0.519,-0.18,-0.489
124760,-1648.0,7516.0,3618.0,72.0,21.0,57.0,0.678,0.519,-0.181,-0.488
124772,-1614.0,7756.0,3326.0,140.0,53.0,38.0,0.678,0.52,-0.181,-0.487
124794,-1586.0,7512.0,3504.0,185.0,70.0,50.0,0.678,0.522,-0.181,-0.485
124806,-1584.0,7582.0,3446.0,248.0,72.0,-7.0,0.677,0.524,-0.181,-0.484
124829,-1588.0,7706.0,3256.0,208.0,49.0,-53.0,0.677,0.526,-0.181,-0.483
124841,-1568.0,7404.0,3080.0,174.0,19.0,-100.0,0.676,0.527,-0.181,-0.482
124864,-1488.0,7220.0,3000.0,179.0,-12.0,-101.0,0.675,0.528,-0.181,-0.482
124886,-1430.0,7108.0,2852.0,229.0,-25.0,-87.0,0.674,0.53,-0.182,-0.482
124898,-1340.0,7238.0,2528.0,291.0,-50.0,-46.0,0.672,0.532,-0.183,-0.481
124920,-1342.0,7220.0,2440.0,348.0,-72.0,11.0,0.671,0.534,-0.185,-0.48
124932,-1232.0,7262.0,2356.0,401.0,-93.0,64.0,0.67,0.536,-0.187,-0.479
124954,-1414.0,8210.0,2260.0,374.0,-85.0,117.0,0.669,0.538,-0.19,-0.477
124966,-1616.0,7950.0,2620.0,232.0,-103.0,141.0,0.668,0.539,-0.192,-0.476
124988,-1548.0,7740.0,2710.0,292.0,-74.0,141.0,0.668,0.54,-0.194,-0.474
125000,-1738.0,8052.0,2652.0,328.0,-21.0,173.0,0.667,0.542,-0.196,-0.472
125022,-1784.0,8012.0,2536.0,277.0,-10.0,174.0,0.667,0.544,-0.198,-0.47
125034,-1732.0,7894.0,2686.0,226.0,-13.0,151.0,0.667,0.545,-0.199,-0.468
125056,-1644.0,7564.0,2690.0,190.0,-13.0,123.0,0.666,0.546,-0.201,-0.467
125078,-1650.0,7654.0,2588.0,188.0,5.0,120.0,0.666,0.547,-0.202,-0.465
125090,-1518.0,7252.0,2680.0,148.0,-14.0,100.0,0.666,0.548,-0.202,-0.464
125112,-1370.0,7514.0,2544.0,131.0,-3.0,72.0,0.666,0.548,-0.203,-0.462
125124,-1278.0,7652.0,2210.0,55.0,-6.0,54.0,0.667,0.549,-0.203,-0.461
125146,-1382.0,7890.0,2424.0,-75.0,-9.0,41.0,0.668,0.548,-0.203,-0.461
125158,-1272.0,7172.0,2466.0,-117.0,0.0,23.0,0.669,0.548,-0.202,-0.46
125180,-1360.0,7918.0,2564.0,-70.0,55.0,16.0,0.67,0.548,-0.202,-0.459
125192,-1402.0,7596.0,2374.0,-139.0,66.0,24.0,0.671,0.547,-0.2,-0.459
125214,-1506.0,7378.0,2160.0,-169.0,59.0,16.0,0.672,0.546,-0.199,-0.458
125236,-1420.0,7504.0,2206.0,-95.0,74.0,46.0,0.673,0.546,-0.198,-0.457
125248,-1610.0,7618.0,2232.0,-26.0,67.0,80.0,0.674,0.546,-0.198,-0.456
125270,-1498.0,7554.0,2462.0,-10.0,51.0,94.0,0.675,0.547,-0.198,-0.454
125282,-1528.0,7676.0,2226.0,-44.0,41.0,108.0,0.676,0.546,-0.197,-0.453
125304,-1598.0,7452.0,2384.0,-106.0,21.0,111.0,0.678,0.546,-0.197,-0.452
125316,-1584.0,7326.0,2460.0,-63.0,16.0,110.0,0.679,0.545,-0.197,-0.451
125338,-1634.0,7712.0,2552.0,3.0,32.0,108.0,0.679,0.546,-0.197,-0.449
125350,-1548.0,7824.0,2500.0,-27.0,2.0,66.0,0.68,0.545,-0.197,-0.448
125367,-1540.0,7654.0,2414.0,-82.0,-30.0,29.0,0.681,0.545,-0.197,-0.448
125389,-1506.0,7604.0,2402.0,-73.0,-51.0,-5.0,0.682,0.544,-0.196,-0.448
125411,-1538.0,7752.0,2474.0,-49.0,-68.0,-36.0,0.682,0.544,-0.196,-0.448
125423,-1480.0,7430.0,2462.0,-8.0,-93.0,-70.0,0.682,0.544,-0.196,-0.448
125445,-1454.0,7600.0,2446.0,69.0,-94.0,-96.0,0.681,0.544,-0.196,-0.449
125457,-1508.0,7504.0,2248.0,73.0,-122.0,-99.0,0.68,0.545,-0.196,-0.449
125479,-1416.0,7568.0,2266.0,72.0,-124.0,-97.0,0.68,0.545,-0.197,-0.45
125491,-1492.0,7592.0,2410.0,29.0,-111.0,-75.0,0.679,0.545,-0.197,-0.45
125513,-1514.0,7644.0,2464.0,5.0,-106.0,-60.0,0.679,0.545,-0.197,-0.451
125535,-1592.0,7542.0,2452.0,-16.0,-97.0,-35.0,0.679,0.544,-0.197,-0.451
125547,-1576.0,7548.0,2534.0,-15.0,-84.0,-16.0,0.679,0.544,-0.197,-0.451
125569,-1668.0,7736.0,2350.0,-38.0,-88.0,-14.0,0.68,0.544,-0.197,-0.451
125581,-1596.0,7690.0,2508.0,-107.0,-101.0,-35.0,0.68,0.543,-0.197,-0.452
125603,-1594.0,7628.0,2458.0,-122.0,-104.0,-67.0,0.681,0.542,-0.196,-0.452
125615,-1634.0,7540.0,2474.0,-151.0,-102.0,-70.0,0.681,0.541,-0.195,-0.453
125637,-1550.0,7430.0,2548.0,-168.0,-100.0,-83.0,0.682,0.54,-0.194,-0.454
125649,-1506.0,7446.0,2480.0,-171.0,-96.0,-94.0,0.683,0.539,-0.194,-0.454
125671,-1450.0,7402.0,2560.0,-168.0,-87.0,-84.0,0.683,0.538,-0.193,-0.455
125683,-1364.0,7592.0,2568.0,-171.0,-64.0,-95.0,0.684,0.536,-0.192,-0.456
125705,-1374.0,7554.0,2606.0,-211.0,-59.0,-101.0,0.685,0.535,-0.19,-0.457
125727,-1362.0,7432.0,2668.0,-218.0,-30.0,-104.0,0.686,0.534,-0.189,-0.457
125739,-1374.0,7478.0,2650.0,-237.0,-10.0,-92.0,0.687,0.533,-0.187,-0.458
125761,-1350.0,7552.0,2760.0,-260.0,8.0,-92.0,0.688,0.531,-0.185,-0.458
125773,-1482.0,7568.0,2804.0,-304.0,16.0,-96.0,0.69,0.53,-0.183,-0.459
125795,-1378.0,7498.0,2876.0,-340.0,12.0,-105.0,0.691,0.528,-0.181,-0.459
125807,-1504.0,7576.0,2928.0,-350.0,30.0,-96.0,0.693,0.526,-0.178,-0.46
125829,-1420.0,7578.0,2878.0,-379.0,27.0,-84.0,0.695,0.524,-0.176,-0.46
125841,-1410.0,7516.0,2976.0,-383.0,28.0,-72.0,0.697,0.522,-0.173,-0.46
125863,-1412.0,7606.0,3064.0,-416.0,28.0,-60.0,0.699,0.52,-0.171,-0.461
125885,-1374.0,7404.0,3150.0,-434.0,39.0,-58.0,0.701,0.517,-0.168,-0.461
125897,-1356.0,7322.0,3274.0,-437.0,36.0,-51.0,0.704,0.515,-0.165,-0.461
125919,-1348.0,7362.0,3212.0,-409.0,43.0,-47.0,0.706,0.513,-0.163,-0.461
125931,-1398.0,7274.0,3236.0,-394.0,45.0,-57.0,0.708,0.51,-0.16,-0.461
125953,-1532.0,7154.0,3634.0,-404.0,45.0,-58.0,0.71,0.508,-0.157,-0.461
125965,-1720.0,7280.0,3760.0,-400.0,57.0,-67.0,0.712,0.506,-0.155,-0.461
125987,-1796.0,7312.0,3668.0,-414.0,45.0,-71.0,0.714,0.504,-0.152,-0.461
125999,-1804.0,7158.0,3720.0,-389.0,55.0,-81.0,0.716,0.501,-0.149,-0.462
126021,-1770.0,7432.0,3826.0,-401.0,43.0,-72.0,0.718,0.499,-0.146,-0.462
126033,-1662.0,7076.0,4000.0,-391.0,53.0,-86.0,0.72,0.497,-0.144,-0.462
126055,-1608.0,7000.0,3964.0,-367.0,104.0,-85.0,0.722,0.495,-0.141,-0.462
126077,-1528.0,6902.0,4064.0,-327.0,120.0,-95.0,0.724,0.494,-0.138,-0.462
126089,-1762.0,6868.0,3896.0,-287.0,141.0,-70.0,0.726,0.492,-0.135,-0.461
126111,-1572.0,6812.0,3856.0,-214.0,155.0,-71.0,0.727,0.492,-0.132,-0.461
126123,-1774.0,6688.0,4014.0,-193.0,167.0,-59.0,0.728,0.491,-0.129,-0.46
126145,-1790.0,6850.0,4048.0,-216.0,155.0,-74.0,0.73,0.491,-0.127,-0.459
126157,-1890.0,6482.0,4174.0,-205.0,173.0,-69.0,0.731,0.49,-0.124,-0.458
126179,-1832.0,6560.0,4036.0,-158.0,184.0,-56.0,0.732,0.49,-0.121,-0.457
126191,-2050.0,6450.0,3800.0,-143.0,177.0,-21.0,0.733,0.49,-0.119,-0.456
126213,-1938.0,7018.0,4002.0,-187.0,158.0,-19.0,0.735,0.489,-0.117,-0.455
126225,-2134.0,6526.0,4092.0,-208.0,157.0,-22.0,0.736,0.489,-0.114,-0.454
126247,-2022.0,6720.0,4038.0,-152.0,178.0,-20.0,0.737,0.489,-0.112,-0.453
126269,-2052.0,6878.0,4266.0,-147.0,186.0,-10.0,0.739,0.488,-0.109,-0.452
126281,-2112.0,6792.0,3898.0,-155.0,181.0,-24.0,0.74,0.488,-0.107,-0.45
126303,-2034.0,6848.0,3974.0,-154.0,177.0,-18.0,0.741,0.488,-0.105,-0.449
126315,-2138.0,6612.0,4476.0,-161.0,181.0,-10.0,0.742,0.488,-0.102,-0.448
126337,-2214.0,6836.0,4600.0,-175.0,178.0,-5.0,0.744,0.487,-0.1,-0.446
126349,-2358.0,6704.0,4556.0,-205.0,175.0,26.0,0.745,0.487,-0.097,-0.445
126371,-2344.0,6868.0,4380.0,-177.0,195.0,49.0,0.747,0.486,-0.095,-0.443
126383,-2414.0,7040.0,4522.0,-181.0,215.0,57.0,0.749,0.486,-0.093,-0.441
126405,-2472.0,7092.0,4956.0,-212.0,232.0,77.0,0.751,0.485,-0.09,-0.439
126427,-2632.0,7282.0,5380.0,-223.0,256.0,65.0,0.752,0.485,-0.087,-0.437
126439,-2614.0,7548.0,6036.0,-276.0,294.0,44.0,0.755,0.484,-0.084,-0.435
126461,-2606.0,7004.0,6528.0,-334.0,407.0,11.0,0.757,0.483,-0.079,-0.433
126473,-2670.0,7336.0,6796.0,-443.0,535.0,-30.0,0.759,0.483,-0.073,-0.43
126495,-2338.0,7434.0,6874.0,-669.0,656.0,-86.0,0.763,0.481,-0.065,-0.427
126507,-2362.0,7108.0,6836.0,-730.0,839.0,-150.0,0.767,0.479,-0.055,-0.424
126529,-2204.0,7516.0,6586.0,-770.0,998.0,-214.0,0.77,0.477,-0.043,-0.421
126541,-2270.0,7616.0,6614.0,-798.0,1159.0,-278.0,0.773,0.476,-0.03,-0.418
126563,-2342.0,7674.0,6652.0,-909.0,1279.0,-356.0,0.776,0.475,-0.015,-0.414
126575,-2212.0,7766.0,6804.0,-1016.0,1435.0,-436.0,0.78,0.473,0.001,-0.41
126598,-2412.0,7592.0,6450.0,-1144.0,1546.0,-500.0,0.783,0.47,0.02,-0.406
126610,-2714.0,7344.0,6046.0,-1238.0,1632.0,-527.0,0.786,0.467,0.038,-0.403
126633,-2870.0,7254.0,5624.0,-1351.0,1633.0,-579.0,0.789,0.463,0.058,-0.399
126655,-2892.0,7302.0,5428.0,-1467.0,1624.0,-617.0,0.792,0.458,0.078,-0.396
126667,-3024.0,7360.0,5486.0,-1642.0,1603.0,-659.0,0.795,0.451,0.099,-0.393
126689,-3356.0,6912.0,5418.0,-1912.0,1527.0,-769.0,0.799,0.442,0.12,-0.39
126701,-3370.0,6210.0,5300.0,-2111.0,1488.0,-853.0,0.803,0.431,0.142,-0.387
126723,-3354.0,5512.0,5022.0,-2049.0,1573.0,-680.0,0.806,0.42,0.164,-0.383
126735,-3752.0,6158.0,5088.0,-2048.0,1592.0,-399.0,0.81,0.41,0.184,-0.377
126757,-3764.0,5720.0,4730.0,-2292.0,1484.0,-431.0,0.815,0.397,0.205,-0.37
126769,-4258.0,4522.0,4646.0,-2201.0,1458.0,-833.0,0.817,0.384,0.226,-0.366
126791,-4302.0,4908.0,4532.0,-2115.0,1456.0,-874.0,0.818,0.371,0.247,-0.363
126803,-4690.0,4296.0,4584.0,-2129.0,1423.0,-986.0,0.819,0.357,0.268,-0.361
126825,-4796.0,4150.0,4534.0,-2111.0,1388.0,-1003.0,0.819,0.343,0.289,-0.358
126847,-5286.0,3510.0,4182.0,-2158.0,1302.0,-1011.0,0.819,0.329,0.309,-0.356
126859,-5356.0,2872.0,3886.0,-2028.0,1281.0,-1077.0,0.817,0.314,0.329,-0.354
126881,-5530.0,2784.0,3590.0,-1891.0,1276.0,-1043.0,0.815,0.301,0.348,-0.352
126893,-5714.0,2480.0,3742.0,-1868.0,1278.0,-1022.0,0.813,0.287,0.366,-0.35
126915,-5672.0,2222.0,3744.0,-1832.0,1318.0,-987.0,0.81,0.274,0.385,-0.348
126927,-5792.0,1812.0,3640.0,-1765.0,1364.0,-897.0,0.806,0.262,0.403,-0.345
126949,-5876.0,1516.0,3214.0,-1643.0,1405.0,-797.0,0.802,0.251,0.421,-0.341
126961,-5492.0,1248.0,3048.0,-1624.0,1430.0,-459.0,0.799,0.242,0.438,-0.335
126983,-5850.0,1096.0,3222.0,-1518.0,1447.0,-601.0,0.794,0.232,0.455,-0.33
127005,-6140.0,934.0,3326.0,-1440.0,1442.0,-596.0,0.789,0.224,0.471,-0.325
127017,-6024.0,810.0,3338.0,-1387.0,1438.0,-580.0,0.784,0.215,0.487,-0.32
127039,-6292.0,540.0,2576.0,-1351.0,1391.0,-569.0,0.778,0.207,0.502,-0.315
127051,-6336.0,148.0,2664.0,-1333.0,1312.0,-560.0,0.773,0.198,0.516,-0.31
127073,-6354.0,-140.0,2434.0,-1271.0,1213.0,-524.0,0.768,0.19,0.53,-0.306
127085,-6410.0,-190.0,2356.0,-1242.0,1125.0,-506.0,0.763,0.182,0.542,-0.301
127107,-6486.0,-668.0,2526.0,-1194.0,1040.0,-486.0,0.758,0.174,0.554,-0.297
127119,-6632.0,-192.0,2420.0,-1110.0,942.0,-466.0,0.754,0.166,0.564,-0.293
127141,-6742.0,-530.0,2154.0,-1198.0,861.0,-423.0,0.75,0.158,0.574,-0.288
127153,-6752.0,-1240.0,1780.0,-1143.0,776.0,-420.0,0.746,0.15,0.583,-0.284
127176,-6740.0,-978.0,1896.0,-1015.0,752.0,-349.0,0.743,0.143,0.591,-0.279
127188,-6788.0,-1032.0,2030.0,-910.0,694.0,-301.0,0.739,0.136,0.599,-0.276
127211,-6930.0,-1090.0,1398.0,-853.0,604.0,-250.0,0.736,0.131,0.606,-0.272
127233,-6854.0,-1056.0,1388.0,-807.0,563.0,-242.0,0.734,0.125,0.612,-0.268
127245,-6934.0,-1106.0,1354.0,-793.0,528.0,-236.0,0.731,0.12,0.618,-0.265
127267,-6886.0,-1086.0,1338.0,-833.0,486.0,-225.0,0.728,0.114,0.623,-0.261
127279,-7032.0,-1194.0,1176.0,-811.0,453.0,-188.0,0.726,0.108,0.629,-0.257
127301,-7064.0,-1486.0,1036.0,-709.0,430.0,-157.0,0.724,0.104,0.633,-0.253
127313,-7326.0,-1476.0,1042.0,-604.0,397.0,-171.0,0.722,0.1,0.638,-0.251
127335,-7324.0,-1558.0,790.0,-541.0,332.0,-192.0,0.72,0.096,0.641,-0.248
127347,-7360.0,-1546.0,606.0,-536.0,285.0,-143.0,0.718,0.092,0.645,-0.246
127374,-7444.0,-1640.0,814.0,-483.0,223.0,-122.0,0.717,0.088,0.647,-0.244
127386,-7694.0,-1672.0,812.0,-496.0,174.0,-75.0,0.716,0.085,0.65,-0.241
127408,-7648.0,-1704.0,924.0,-477.0,139.0,-68.0,0.715,0.082,0.652,-0.238
127420,-7814.0,-1906.0,948.0,-432.0,121.0,-45.0,0.715,0.079,0.654,-0.236
127442,-7946.0,-2026.0,730.0,-382.0,100.0,-37.0,0.714,0.076,0.655,-0.234
127454,-7994.0,-2088.0,646.0,-380.0,62.0,-19.0,0.714,0.073,0.657,-0.232
127476,-7994.0,-1932.0,934.0,-393.0,64.0,-14.0,0.714,0.071,0.658,-0.229
127488,-8072.0,-2054.0,992.0,-373.0,55.0,-6.0,0.714,0.068,0.659,-0.227
127510,-8068.0,-2156.0,962.0,-324.0,44.0,17.0,0.714,0.066,0.66,-0.225
127522,-8090.0,-2156.0,804.0,-302.0,50.0,52.0,0.713,0.065,0.661,-0.223
127544,-8130.0,-2226.0,840.0,-256.0,31.0,21.0,0.713,0.063,0.662,-0.221
127556,-7982.0,-1940.0,920.0,-271.0,-1.0,71.0,0.714,0.062,0.662,-0.219
127578,-7872.0,-2110.0,976.0,-289.0,-45.0,71.0,0.714,0.06,0.663,-0.217
127600,-7818.0,-1972.0,966.0,-273.0,-44.0,86.0,0.715,0.059,0.663,-0.215
127612,-7694.0,-2146.0,1018.0,-239.0,-72.0,87.0,0.716,0.057,0.663,-0.213
127634,-7512.0,-1748.0,1246.0,-192.0,-84.0,119.0,0.717,0.057,0.662,-0.211
127646,-7584.0,-1712.0,1370.0,-192.0,-112.0,138.0,0.718,0.056,0.662,-0.209
127668,-7592.0,-1862.0,1392.0,-249.0,-145.0,161.0,0.719,0.055,0.661,-0.206
127680,-7664.0,-1908.0,1486.0,-282.0,-161.0,181.0,0.721,0.054,0.661,-0.204
127702,-7856.0,-1974.0,1238.0,-243.0,-167.0,182.0,0.722,0.053,0.66,-0.201
127714,-7950.0,-2012.0,1170.0,-213.0,-180.0,154.0,0.724,0.052,0.659,-0.199
127736,-8004.0,-1906.0,1146.0,-216.0,-189.0,164.0,0.725,0.051,0.658,-0.197
127758,-8094.0,-1858.0,1096.0,-276.0,-196.0,175.0,0.727,0.05,0.657,-0.194
127770,-8146.0,-1930.0,1294.0,-296.0,-192.0,194.0,0.728,0.049,0.656,-0.191
127792,-8330.0,-1866.0,990.0,-279.0,-175.0,219.0,0.73,0.048,0.655,-0.188
127804,-8444.0,-2044.0,1096.0,-303.0,-160.0,236.0,0.731,0.047,0.655,-0.185
127826,-8498.0,-1902.0,1390.0,-287.0,-133.0,234.0,0.733,0.046,0.654,-0.181
127838,-8562.0,-1580.0,1444.0,-359.0,-98.0,267.0,0.734,0.045,0.654,-0.177
127860,-8672.0,-1738.0,1556.0,-439.0,-50.0,234.0,0.735,0.043,0.654,-0.173
127872,-8818.0,-1384.0,1650.0,-549.0,8.0,204.0,0.735,0.041,0.655,-0.168
127894,-9062.0,-1314.0,1722.0,-734.0,85.0,173.0,0.735,0.037,0.657,-0.163
127916,-9534.0,-1574.0,2008.0,-853.0,169.0,131.0,0.735,0.032,0.659,-0.157
127928,-10068.0,-1656.0,1958.0,-817.0,274.0,41.0,0.733,0.027,0.662,-0.151
127950,-10934.0,-1916.0,1978.0,-782.0,362.0,58.0,0.732,0.022,0.666,-0.146
127962,-11548.0,-2076.0,1892.0,-797.0,480.0,-56.0,0.729,0.017,0.67,-0.141
127984,-12182.0,-1818.0,1662.0,-733.0,555.0,-160.0,0.725,0.012,0.675,-0.138
127996,-12612.0,-2478.0,1356.0,-641.0,593.0,-276.0,0.721,0.007,0.68,-0.135
128018,-12710.0,-2538.0,610.0,-527.0,592.0,-357.0,0.717,0.002,0.684,-0.134
128030,-12664.0,-2622.0,482.0,-433.0,579.0,-439.0,0.713,-0.003,0.689,-0.134
128052,-12176.0,-2096.0,384.0,-381.0,584.0,-529.0,0.708,-0.008,0.693,-0.136
128064,-11922.0,-2024.0,608.0,-390.0,574.0,-594.0,0.704,-0.014,0.697,-0.137
128086,-11704.0,-1958.0,260.0,-416.0,551.0,-618.0,0.699,-0.02,0.701,-0.138
128108,-11130.0,-1716.0,646.0,-368.0,498.0,-649.0,0.695,-0.026,0.705,-0.14
128120,-10272.0,-1548.0,444.0,-347.0,444.0,-603.0,0.691,-0.032,0.708,-0.142
128142,-9500.0,-1688.0,590.0,-306.0,380.0,-546.0,0.688,-0.037,0.711,-0.144
128154,-9334.0,-1484.0,802.0,-226.0,311.0,-503.0,0.685,-0.04,0.713,-0.147
128176,-8744.0,-1584.0,154.0,-290.0,229.0,-463.0,0.682,-0.044,0.714,-0.148
128188,-8392.0,-1676.0,934.0,-230.0,151.0,-458.0,0.681,-0.048,0.715,-0.149
128210,-7860.0,-1340.0,698.0,-152.0,110.0,-417.0,0.68,-0.052,0.716,-0.151
128222,-7350.0,-1358.0,1144.0,-82.0,23.0,-389.0,0.679,-0.055,0.716,-0.153
128244,-6986.0,-1488.0,890.0,-84.0,-8.0,-378.0,0.679,-0.058,0.716,-0.155
128266,-7162.0,-2100.0,100.0,-70.0,-41.0,-257.0,0.679,-0.06,0.715,-0.156
128278,-7276.0,-2444.0,104.0,-1.0,-136.0,-85.0,0.679,-0.061,0.714,-0.156
128300,-6502.0,-1542.0,744.0,37.0,-184.0,76.0,0.681,-0.06,0.713,-0.156
128312,-6754.0,-2020.0,320.0,-112.0,-244.0,217.0,0.683,-0.06,0.712,-0.154
128334,-6430.0,-2308.0,-22.0,-30.0,-307.0,297.0,0.685,-0.059,0.71,-0.151
128346,-6380.0,-2738.0,500.0,32.0,-368.0,437.0,0.688,-0.056,0.708,-0.148
128368,-6360.0,-2000.0,236.0,3.0,-359.0,537.0,0.691,-0.053,0.706,-0.145
128380,-6870.0,-2848.0,-160.0,-153.0,-449.0,676.0,0.695,-0.05,0.704,-0.139
128402,-6428.0,-2926.0,-636.0,-162.0,-512.0,756.0,0.699,-0.047,0.701,-0.133
128424,-5872.0,-1914.0,1606.0,-8.0,-592.0,874.0,0.704,-0.042,0.697,-0.127
128436,-5492.0,-2320.0,390.0,-63.0,-574.0,887.0,0.709,-0.036,0.694,-0.122
128458,-6466.0,-4132.0,-462.0,-61.0,-717.0,999.0,0.714,-0.031,0.69,-0.115
128470,-4790.0,-1862.0,366.0,144.0,-700.0,1015.0,0.72,-0.024,0.685,-0.109
128492,-4670.0,-1778.0,552.0,113.0,-749.0,1067.0,0.725,-0.016,0.68,-0.104
128504,-4378.0,-2684.0,-572.0,-11.0,-716.0,1009.0,0.731,-0.009,0.676,-0.099
128526,-4100.0,-1954.0,578.0,80.0,-803.0,1062.0,0.737,-0.003,0.67,-0.092
128538,-4108.0,-2340.0,878.0,-166.0,-739.0,1041.0,0.742,0.004,0.665,-0.085
128560,-3034.0,-1484.0,1396.0,-134.0,-690.0,848.0,0.747,0.009,0.66,-0.08
128572,-2682.0,-2342.0,1110.0,-77.0,-555.0,560.0,0.75,0.013,0.656,-0.078
128594,-2596.0,-2478.0,272.0,101.0,-320.0,304.0,0.752,0.016,0.654,-0.078
128616,-2436.0,-2228.0,282.0,160.0,-36.0,44.0,0.752,0.019,0.654,-0.08
128628,-2364.0,-1796.0,1004.0,30.0,200.0,-232.0,0.751,0.019,0.655,-0.083
128650,-1608.0,-914.0,1660.0,-136.0,418.0,-591.0,0.748,0.016,0.658,-0.088
128662,-2476.0,-1646.0,1312.0,-215.0,556.0,-914.0,0.743,0.011,0.662,-0.094
128684,-2594.0,-1024.0,932.0,-159.0,725.0,-1103.0,0.738,0.005,0.667,-0.103
128696,-3376.0,-1922.0,1382.0,-290.0,813.0,-1139.0,0.731,-0.002,0.673,-0.11
128718,-3648.0,-1164.0,1636.0,-257.0,868.0,-1223.0,0.724,-0.009,0.679,-0.118
128740,-4332.0,-1564.0,1356.0,-270.0,870.0,-1260.0,0.717,-0.016,0.685,-0.127
128752,-5438.0,-2670.0,1160.0,-373.0,903.0,-1133.0,0.71,-0.025,0.692,-0.132
128774,-7230.0,-2876.0,270.0,-367.0,796.0,-969.0,0.703,-0.033,0.697,-0.136
128786,-7126.0,-1544.0,1980.0,-266.0,642.0,-845.0,0.698,-0.039,0.701,-0.14
128808,-7356.0,-2362.0,2116.0,-91.0,525.0,-863.0,0.694,-0.045,0.704,-0.146
128820,-8590.0,-3566.0,718.0,-154.0,490.0,-728.0,0.689,-0.05,0.707,-0.15
128842,-8576.0,-2588.0,-46.0,111.0,423.0,-633.0,0.685,-0.051,0.709,-0.156
128854,-9704.0,-3168.0,598.0,120.0,197.0,-392.0,0.683,-0.051,0.71,-0.161
128876,-8726.0,-2122.0,2196.0,175.0,119.0,-337.0,0.682,-0.05,0.711,-0.166
128888,-8794.0,-2538.0,1514.0,107.0,56.0,-294.0,0.681,-0.05,0.711,-0.17
128910,-8594.0,-2198.0,766.0,250.0,76.0,-291.0,0.68,-0.049,0.711,-0.175
128932,-8960.0,-3422.0,214.0,287.0,52.0,-138.0,0.679,-0.046,0.711,-0.179
128944,-9664.0,-3286.0,-280.0,323.0,24.0,27.0,0.678,-0.043,0.71,-0.182
128966,-9232.0,-2036.0,992.0,316.0,16.0,62.0,0.678,-0.04,0.71,-0.184
128978,-9394.0,-2292.0,1136.0,283.0,-41.0,-58.0,0.679,-0.039,0.709,-0.186
129000,-9418.0,-2440.0,76.0,221.0,-30.0,-211.0,0.678,-0.038,0.709,-0.19
129012,-8994.0,-2552.0,504.0,196.0,39.0,-130.0,0.677,-0.036,0.709,-0.194
129034,-9264.0,-3260.0,-64.0,318.0,56.0,-509.0,0.676,-0.035,0.708,-0.201
129046,-8872.0,-2436.0,228.0,169.0,-118.0,-354.0,0.676,-0.036,0.707,-0.205
129068,-8508.0,-2582.0,568.0,26.0,-147.0,-224.0,0.676,-0.036,0.706,-0.208
129080,-8122.0,-2848.0,652.0,102.0,-144.0,-234.0,0.677,-0.037,0.705,-0.21
129102,-7872.0,-2486.0,524.0,145.0,-132.0,-197.0,0.677,-0.036,0.704,-0.214
129124,-8038.0,-2636.0,408.0,133.0,-188.0,-87.0,0.677,-0.035,0.702,-0.216
129136,-8016.0,-3132.0,2.0,149.0,-226.0,62.0,0.679,-0.034,0.701,-0.217
129158,-7970.0,-2484.0,660.0,158.0,-248.0,212.0,0.681,-0.031,0.699,-0.218
129170,-8314.0,-2520.0,1014.0,58.0,-226.0,362.0,0.683,-0.028,0.697,-0.216
129192,-8950.0,-3064.0,256.0,-17.0,-226.0,462.0,0.685,-0.024,0.696,-0.214
129204,-9796.0,-3872.0,226.0,9.0,-238.0,513.0,0.687,-0.02,0.694,-0.212
129226,-10808.0,-4384.0,-422.0,24.0,-274.0,635.0,0.69,-0.015,0.693,-0.209
129238,-11998.0,-4272.0,-708.0,-120.0,-318.0,754.0,0.693,-0.011,0.691,-0.204
129260,-13120.0,-4734.0,-668.0,-267.0,-344.0,818.0,0.697,-0.007,0.689,-0.199
129282,-14208.0,-5764.0,90.0,-221.0,-338.0,793.0,0.7,-0.002,0.688,-0.193
129294,-15110.0,-5036.0,138.0,-166.0,-252.0,775.0,0.703,0.001,0.686,-0.187
129316,-15232.0,-4526.0,892.0,-287.0,-100.0,654.0,0.704,0.004,0.686,-0.182
129328,-14988.0,-4072.0,992.0,-290.0,31.0,455.0,0.705,0.007,0.687,-0.179
129350,-15202.0,-4200.0,470.0,143.0,661.0,-314.0,0.7,0.007,0.691,-0.181
129362,-13050.0,-1576.0,876.0,-154.0,425.0,72.0,0.697,0.008,0.694,-0.181
129379,-13286.0,-3764.0,972.0,-238.0,468.0,78.0,0.694,0.009,0.697,-0.18
129401,-12534.0,-2722.0,648.0,130.0,451.0,-85.0,0.69,0.011,0.7,-0.183
129413,-11742.0,-2074.0,292.0,27.0,409.0,-114.0,0.687,0.013,0.703,-0.185
129435,-10996.0,-1728.0,492.0,-104.0,384.0,-262.0,0.684,0.013,0.705,-0.187
129457,-10138.0,-1128.0,1156.0,-173.0,290.0,-468.0,0.681,0.01,0.707,-0.191
129469,-9650.0,-1916.0,260.0,-185.0,293.0,-321.0,0.678,0.009,0.71,-0.193
129491,-9522.0,-1974.0,226.0,-161.0,255.0,-196.0,0.675,0.008,0.711,-0.194
129503,-8790.0,-1404.0,214.0,-190.0,213.0,-58.0,0.674,0.009,0.713,-0.194
129525,-7798.0,-1140.0,1778.0,-98.0,103.0,2.0,0.673,0.01,0.714,-0.195
129537,-7098.0,-754.0,2016.0,-15.0,63.0,159.0,0.673,0.012,0.714,-0.195
129559,-6356.0,-898.0,1332.0,-160.0,80.0,419.0,0.673,0.016,0.714,-0.192
129571,-7026.0,-1774.0,-248.0,-253.0,-31.0,661.0,0.674,0.02,0.714,-0.188
129593,-6978.0,-1546.0,-330.0,-268.0,-187.0,773.0,0.676,0.024,0.714,-0.182
129615,-6310.0,-966.0,586.0,-305.0,-320.0,811.0,0.679,0.028,0.712,-0.177
129627,-5240.0,-286.0,1544.0,-288.0,-341.0,718.0,0.682,0.032,0.71,-0.171
129649,-6154.0,-2022.0,364.0,-269.0,-388.0,733.0,0.686,0.036,0.707,-0.166
129661,-5574.0,-1700.0,406.0,-32.0,-456.0,804.0,0.69,0.041,0.704,-0.162
129683,-5748.0,-798.0,252.0,-7.0,-474.0,926.0,0.694,0.048,0.701,-0.158
129695,-5108.0,-764.0,1028.0,-45.0,-552.0,1032.0,0.699,0.055,0.697,-0.152
129717,-6000.0,-2300.0,16.0,-135.0,-619.0,1178.0,0.704,0.062,0.692,-0.145
129729,-5208.0,-1608.0,558.0,92.0,-731.0,1304.0,0.711,0.071,0.686,-0.139
129751,-5556.0,-2330.0,-216.0,64.0,-732.0,1419.0,0.717,0.081,0.68,-0.132
129763,-4808.0,-1444.0,824.0,221.0,-884.0,1525.0,0.724,0.092,0.672,-0.125
129785,-3370.0,-500.0,1244.0,280.0,-856.0,1420.0,0.73,0.103,0.665,-0.119
129807,-2934.0,-568.0,276.0,201.0,-854.0,1193.0,0.736,0.112,0.657,-0.114
129819,-2472.0,-1006.0,-142.0,-3.0,-716.0,862.0,0.741,0.117,0.651,-0.11
129841,-2464.0,-1766.0,-614.0,-226.0,-495.0,549.0,0.745,0.12,0.647,-0.107
129853,-2236.0,-1926.0,-88.0,-382.0,-243.0,224.0,0.747,0.119,0.646,-0.104
129875,-1614.0,-1446.0,694.0,-316.0,38.0,-232.0,0.747,0.117,0.646,-0.105
129887,-1656.0,-1358.0,874.0,-180.0,296.0,-725.0,0.744,0.113,0.649,-0.11
129909,-2202.0,-1260.0,632.0,-170.0,610.0,-1061.0,0.739,0.107,0.654,-0.117
129921,-2722.0,-1038.0,734.0,-218.0,786.0,-1253.0,0.733,0.1,0.661,-0.125
129943,-3324.0,-802.0,1400.0,-403.0,886.0,-1418.0,0.726,0.09,0.669,-0.133
129965,-3802.0,-1194.0,906.0,-382.0,907.0,-1559.0,0.718,0.08,0.676,-0.141
129977,-4970.0,-1542.0,1478.0,-550.0,1000.0,-1534.0,0.71,0.07,0.685,-0.149
129999,-5504.0,-2284.0,812.0,-534.0,990.0,-1603.0,0.702,0.058,0.693,-0.156
130011,-6714.0,-2004.0,952.0,-426.0,793.0,-1474.0,0.694,0.049,0.699,-0.164
130033,-6578.0,-1648.0,1594.0,-311.0,746.0,-1539.0,0.687,0.039,0.705,-0.173
130045,-7190.0,-2754.0,1220.0,-204.0,622.0,-1399.0,0.68,0.031,0.71,-0.182
130067,-8386.0,-2838.0,128.0,-270.0,543.0,-1230.0,0.674,0.023,0.714,-0.189
130079,-8588.0,-2796.0,954.0,-247.0,267.0,-1078.0,0.67,0.016,0.716,-0.196
130101,-9372.0,-2420.0,960.0,-196.0,99.0,-949.0,0.667,0.01,0.717,-0.201
130123,-8940.0,-1836.0,1558.0,20.0,-32.0,-883.0,0.665,0.006,0.717,-0.208
130135,-9508.0,-3902.0,-150.0,-41.0,20.0,-744.0,0.663,0.002,0.717,-0.214
130157,-8704.0,-2036.0,376.0,212.0,-18.0,-594.0,0.662,0.0,0.716,-0.22
130169,-9082.0,-2878.0,92.0,163.0,9.0,-528.0,0.66,-0.001,0.716,-0.226
130191,-8740.0,-2732.0,32.0,322.0,52.0,-505.0,0.659,-0.001,0.716,-0.232
130203,-9022.0,-3628.0,440.0,329.0,79.0,-458.0,0.657,-0.0,0.716,-0.238
130225,-8598.0,-2142.0,436.0,389.0,153.0,-448.0,0.654,0.001,0.715,-0.245
130237,-8990.0,-3012.0,932.0,199.0,158.0,-491.0,0.652,0.0,0.716,-0.25
130259,-8414.0,-2516.0,626.0,249.0,203.0,-642.0,0.649,-0.001,0.716,-0.257
130271,-8734.0,-3416.0,380.0,199.0,228.0,-673.0,0.645,-0.002,0.717,-0.263
130293,-9324.0,-3808.0,-844.0,121.0,174.0,-706.0,0.642,-0.004,0.718,-0.269
130315,-8622.0,-3142.0,626.0,323.0,198.0,-625.0,0.638,-0.005,0.718,-0.277
130327,-8618.0,-3498.0,18.0,196.0,65.0,-744.0,0.635,-0.007,0.718,-0.283
130349,-8074.0,-3042.0,422.0,167.0,-76.0,-492.0,0.634,-0.008,0.717,-0.289
130361,-8186.0,-4190.0,474.0,147.0,-87.0,-343.0,0.633,-0.009,0.716,-0.293
130383,-7988.0,-3794.0,510.0,442.0,-98.0,-255.0,0.633,-0.007,0.714,-0.298
130395,-8362.0,-4148.0,496.0,535.0,-146.0,-187.0,0.633,-0.004,0.712,-0.304
130417,-7750.0,-3784.0,592.0,660.0,-164.0,-128.0,0.633,-0.0,0.709,-0.31
130429,-7968.0,-3894.0,1286.0,584.0,-172.0,-36.0,0.634,0.003,0.706,-0.315
130451,-7634.0,-3468.0,1222.0,592.0,-214.0,22.0,0.635,0.008,0.703,-0.32
130473,-8204.0,-4474.0,566.0,620.0,-257.0,41.0,0.636,0.012,0.7,-0.325
130485,-8044.0,-3516.0,1068.0,821.0,-198.0,-31.0,0.637,0.017,0.696,-0.331
130507,-8328.0,-3262.0,1126.0,584.0,-114.0,18.0,0.637,0.021,0.693,-0.336
130519,-8820.0,-4188.0,858.0,316.0,-84.0,26.0,0.637,0.024,0.692,-0.339
130541,-9800.0,-4968.0,-162.0,290.0,-111.0,97.0,0.638,0.027,0.69,-0.341
130553,-10622.0,-5600.0,-78.0,300.0,-82.0,134.0,0.638,0.03,0.688,-0.343
130575,-10920.0,-5394.0,434.0,263.0,29.0,183.0,0.638,0.034,0.688,-0.344
130587,-12190.0,-6074.0,572.0,362.0,82.0,-144.0,0.637,0.036,0.687,-0.348
130609,-12162.0,-6408.0,534.0,116.0,191.0,40.0,0.635,0.039,0.688,-0.35
130621,-12648.0,-7142.0,638.0,91.0,262.0,82.0,0.633,0.042,0.689,-0.351
130644,-12600.0,-6864.0,100.0,163.0,248.0,89.0,0.631,0.045,0.69,-0.352
130666,-12086.0,-6030.0,614.0,159.0,266.0,57.0,0.629,0.048,0.691,-0.353
130678,-11656.0,-5934.0,658.0,44.0,259.0,-1.0,0.627,0.05,0.692,-0.354
130700,-11402.0,-5034.0,240.0,-25.0,185.0,-78.0,0.625,0.051,0.693,-0.355
130712,-11016.0,-4874.0,94.0,-136.0,138.0,-132.0,0.624,0.05,0.694,-0.356
130734,-10644.0,-4840.0,-376.0,-125.0,33.0,-116.0,0.622,0.05,0.695,-0.356
130746,-10142.0,-4336.0,-216.0,-187.0,-28.0,-97.0,0.622,0.049,0.695,-0.357
130768,-9516.0,-3986.0,178.0,-350.0,-78.0,-56.0,0.622,0.047,0.696,-0.356
130780,-9288.0,-3458.0,428.0,-453.0,-132.0,-7.0,0.622,0.045,0.697,-0.354
130802,-8588.0,-3772.0,908.0,-506.0,-141.0,87.0,0.623,0.043,0.698,-0.351
130814,-8398.0,-3802.0,68.0,-532.0,-150.0,252.0,0.625,0.042,0.698,-0.347
130836,-8344.0,-3920.0,6.0,-630.0,-198.0,464.0,0.627,0.042,0.699,-0.341
130858,-8090.0,-3408.0,-148.0,-612.0,-292.0,518.0,0.631,0.042,0.699,-0.335
130870,-7728.0,-3070.0,732.0,-649.0,-422.0,720.0,0.636,0.043,0.698,-0.327
130892,-6912.0,-2176.0,1282.0,-727.0,-421.0,816.0,0.641,0.043,0.697,-0.319
130904,-7450.0,-3502.0,50.0,-936.0,-527.0,904.0,0.647,0.043,0.696,-0.308
130926,-6966.0,-2840.0,460.0,-819.0,-549.0,949.0,0.653,0.043,0.695,-0.299
130938,-6794.0,-3306.0,772.0,-908.0,-559.0,1051.0,0.659,0.044,0.693,-0.288
130960,-6838.0,-2380.0,952.0,-920.0,-586.0,1165.0,0.666,0.045,0.692,-0.276
130972,-6552.0,-1976.0,1378.0,-940.0,-542.0,1125.0,0.672,0.046,0.69,-0.264
130994,-6546.0,-2300.0,1936.0,-739.0,-631.0,1205.0,0.679,0.049,0.687,-0.253
131016,-6926.0,-2994.0,900.0,-641.0,-627.0,1242.0,0.686,0.052,0.684,-0.242
131028,-6242.0,-2252.0,1366.0,-252.0,-813.0,1335.0,0.694,0.058,0.679,-0.233
131050,-6830.0,-2082.0,1112.0,-318.0,-727.0,1404.0,0.702,0.064,0.674,-0.223
131062,-5550.0,-1216.0,1722.0,-259.0,-769.0,1347.0,0.709,0.07,0.668,-0.214
131084,-5808.0,-1682.0,2320.0,-431.0,-847.0,1327.0,0.717,0.075,0.662,-0.205
131096,-4920.0,-1450.0,916.0,-655.0,-739.0,1186.0,0.724,0.078,0.658,-0.194
131118,-4814.0,-1990.0,1512.0,-654.0,-778.0,1151.0,0.731,0.08,0.653,-0.184
131130,-3900.0,-1780.0,2274.0,-487.0,-680.0,1104.0,0.737,0.083,0.648,-0.175
131152,-2830.0,-606.0,1388.0,-221.0,-652.0,991.0,0.742,0.087,0.643,-0.169
131164,-2830.0,-2142.0,816.0,-215.0,-555.0,726.0,0.747,0.09,0.638,-0.164
131187,-2106.0,-2416.0,-256.0,71.0,-381.0,449.0,0.749,0.094,0.635,-0.163
131199,-1878.0,-1560.0,314.0,255.0,-70.0,198.0,0.749,0.098,0.634,-0.164
131222,-1914.0,-1994.0,894.0,221.0,252.0,-10.0,0.747,0.101,0.635,-0.166
131244,-1976.0,-1520.0,658.0,158.0,427.0,-401.0,0.744,0.101,0.638,-0.171
131256,-2692.0,-1700.0,782.0,172.0,583.0,-729.0,0.739,0.1,0.642,-0.177
131278,-3166.0,-1478.0,1068.0,254.0,710.0,-893.0,0.733,0.098,0.648,-0.185
131290,-3198.0,-1242.0,1938.0,367.0,791.0,-1005.0,0.725,0.097,0.653,-0.195
131312,-3156.0,-1928.0,2326.0,407.0,865.0,-1130.0,0.717,0.095,0.659,-0.205
131324,-3832.0,-2298.0,334.0,190.0,1069.0,-1218.0,0.708,0.092,0.667,-0.215
131346,-6056.0,-2354.0,-22.0,-23.0,940.0,-1101.0,0.699,0.088,0.674,-0.222
131358,-4970.0,-1954.0,2548.0,75.0,787.0,-1089.0,0.692,0.084,0.679,-0.23
131385,-4850.0,-3124.0,2348.0,378.0,726.0,-1116.0,0.684,0.082,0.684,-0.24
131397,-6364.0,-3006.0,224.0,425.0,823.0,-1054.0,0.676,0.081,0.689,-0.25
131419,-6370.0,-2476.0,-4.0,305.0,726.0,-890.0,0.668,0.08,0.693,-0.258
131431,-7964.0,-3378.0,574.0,142.0,572.0,-726.0,0.662,0.078,0.697,-0.264
131453,-7466.0,-2686.0,1894.0,316.0,454.0,-619.0,0.657,0.078,0.699,-0.27
131465,-8066.0,-2724.0,918.0,395.0,367.0,-430.0,0.653,0.08,0.7,-0.276
131487,-8648.0,-4004.0,-128.0,397.0,275.0,-280.0,0.65,0.082,0.701,-0.281
131499,-8250.0,-2572.0,1746.0,700.0,239.0,-38.0,0.648,0.087,0.7,-0.287
131521,-9142.0,-3320.0,-174.0,632.0,223.0,117.0,0.646,0.093,0.7,-0.291
131533,-8762.0,-2408.0,1396.0,880.0,155.0,221.0,0.644,0.101,0.698,-0.296
131555,-8042.0,-1268.0,1338.0,795.0,222.0,183.0,0.642,0.109,0.696,-0.301
131567,-8206.0,-1822.0,864.0,619.0,219.0,101.0,0.64,0.115,0.696,-0.304
131589,-8790.0,-2906.0,128.0,429.0,233.0,45.0,0.638,0.119,0.696,-0.307
131611,-8734.0,-2754.0,-118.0,381.0,225.0,-22.0,0.636,0.123,0.696,-0.311
131623,-7946.0,-1568.0,1830.0,387.0,78.0,-128.0,0.635,0.125,0.695,-0.315
131645,-8020.0,-1848.0,1874.0,364.0,164.0,-468.0,0.632,0.126,0.695,-0.32
131657,-8294.0,-2010.0,1054.0,251.0,-7.0,-489.0,0.63,0.125,0.694,-0.325
131679,-8438.0,-1988.0,1240.0,-4.0,-98.0,-140.0,0.63,0.124,0.693,-0.327
131691,-8440.0,-1968.0,1240.0,5.0,-101.0,76.0,0.631,0.125,0.692,-0.327
131713,-8756.0,-2258.0,830.0,114.0,-135.0,152.0,0.632,0.127,0.691,-0.328
131725,-8550.0,-1322.0,872.0,125.0,-112.0,223.0,0.633,0.13,0.689,-0.328
131747,-8834.0,-1606.0,796.0,-47.0,-98.0,261.0,0.634,0.132,0.689,-0.327
131769,-8738.0,-1540.0,786.0,-129.0,-91.0,346.0,0.635,0.134,0.688,-0.325
131781,-9152.0,-1486.0,1160.0,-56.0,-54.0,387.0,0.637,0.136,0.687,-0.323
131803,-9290.0,-1554.0,948.0,3.0,-8.0,469.0,0.638,0.14,0.686,-0.321
131815,-10282.0,-1610.0,36.0,-57.0,29.0,548.0,0.639,0.144,0.686,-0.317
131837,-11020.0,-2052.0,178.0,-134.0,-3.0,595.0,0.641,0.147,0.685,-0.313
131849,-11710.0,-1878.0,-592.0,-177.0,-11.0,628.0,0.643,0.151,0.685,-0.309
131871,-12676.0,-2778.0,-372.0,-133.0,-15.0,614.0,0.645,0.154,0.684,-0.305
131883,-13416.0,-2646.0,-1436.0,47.0,32.0,604.0,0.646,0.159,0.683,-0.302
131905,-15174.0,-3350.0,-1298.0,-13.0,106.0,580.0,0.647,0.163,0.683,-0.299
131927,-16260.0,-3362.0,-2574.0,-131.0,203.0,551.0,0.647,0.167,0.683,-0.295
131939,-17272.0,-4918.0,-2450.0,-203.0,200.0,357.0,0.647,0.169,0.684,-0.292
131961,-13730.0,-5388.0,-906.0,-380.0,578.0,827.0,0.645,0.174,0.687,-0.284
131973,-15964.0,-4090.0,-960.0,544.0,486.0,-1028.0,0.638,0.173,0.69,-0.293
131995,-14224.0,-1814.0,64.0,-344.0,536.0,-680.0,0.633,0.169,0.695,-0.295
132007,-13542.0,-3526.0,558.0,39.0,548.0,-989.0,0.627,0.165,0.7,-0.301
132029,-12434.0,-3040.0,-78.0,188.0,594.0,-977.0,0.62,0.162,0.704,-0.307
132041,-11884.0,-2798.0,100.0,212.0,530.0,-713.0,0.613,0.16,0.707,-0.312
132063,-10952.0,-2184.0,352.0,325.0,414.0,-630.0,0.608,0.16,0.71,-0.318
132075,-10102.0,-1498.0,-100.0,372.0,317.0,-394.0,0.604,0.161,0.711,-0.323
132097,-9656.0,-1936.0,-314.0,150.0,251.0,-423.0,0.601,0.16,0.712,-0.326
132119,-8846.0,-1398.0,-200.0,212.0,220.0,-529.0,0.597,0.159,0.713,-0.331
132131,-8490.0,-950.0,44.0,58.0,134.0,-574.0,0.594,0.157,0.715,-0.334
132153,-7538.0,-1788.0,582.0,-251.0,37.0,-308.0,0.593,0.154,0.716,-0.335
132165,-6940.0,-1850.0,762.0,-363.0,-56.0,266.0,0.595,0.155,0.716,-0.332
132187,-6882.0,-1512.0,286.0,-156.0,-161.0,708.0,0.598,0.158,0.714,-0.327
132199,-7104.0,-2720.0,776.0,-41.0,-306.0,978.0,0.603,0.164,0.711,-0.323
132221,-5432.0,-574.0,1158.0,77.0,-366.0,990.0,0.608,0.171,0.707,-0.319
132233,-6202.0,-1114.0,-156.0,-217.0,-410.0,1007.0,0.614,0.175,0.704,-0.313
132255,-6426.0,-2176.0,-326.0,-217.0,-598.0,940.0,0.62,0.179,0.699,-0.307
132277,-5732.0,-1822.0,230.0,-157.0,-606.0,871.0,0.627,0.183,0.694,-0.303
132289,-6454.0,-2440.0,206.0,-252.0,-664.0,1023.0,0.634,0.186,0.689,-0.296
132311,-5532.0,-836.0,348.0,-195.0,-804.0,1082.0,0.643,0.19,0.683,-0.291
132323,-6810.0,-2578.0,-152.0,-402.0,-925.0,1287.0,0.652,0.194,0.676,-0.282
132345,-4914.0,-382.0,1612.0,-318.0,-1080.0,1540.0,0.664,0.199,0.667,-0.273
132357,-5848.0,-2174.0,670.0,-607.0,-1173.0,1674.0,0.676,0.203,0.658,-0.262
132379,-4674.0,-1918.0,632.0,-519.0,-1322.0,1685.0,0.689,0.208,0.648,-0.251
132391,-4016.0,-1000.0,1532.0,-328.0,-1348.0,1596.0,0.701,0.212,0.636,-0.242
132413,-2708.0,-1060.0,1648.0,-164.0,-1310.0,1409.0,0.712,0.217,0.625,-0.234
132435,-2668.0,-2364.0,350.0,-105.0,-1122.0,1252.0,0.721,0.221,0.615,-0.228
132447,-2340.0,-1158.0,136.0,80.0,-924.0,1030.0,0.728,0.226,0.607,-0.224
132469,-2542.0,-1876.0,218.0,80.0,-605.0,825.0,0.733,0.231,0.6,-0.221
132481,-2218.0,-1632.0,294.0,160.0,-296.0,494.0,0.735,0.234,0.597,-0.219
132503,-1902.0,-548.0,442.0,256.0,-72.0,-34.0,0.735,0.236,0.596,-0.222
132515,-1770.0,-1336.0,1760.0,130.0,320.0,-479.0,0.732,0.236,0.598,-0.225
132537,-1688.0,-852.0,1254.0,123.0,589.0,-960.0,0.726,0.233,0.604,-0.232
132549,-2158.0,-1072.0,1070.0,-115.0,779.0,-1391.0,0.719,0.226,0.612,-0.24
132571,-1802.0,-386.0,1730.0,-207.0,997.0,-1647.0,0.709,0.218,0.623,-0.248
132583,-1638.0,66.0,2430.0,-355.0,1172.0,-1862.0,0.699,0.208,0.635,-0.256
132605,-3210.0,-1682.0,1316.0,-357.0,1208.0,-1888.0,0.687,0.198,0.647,-0.265
132627,-5498.0,-3304.0,-1404.0,-324.0,1184.0,-1714.0,0.676,0.189,0.658,-0.272
132639,-7162.0,-2400.0,386.0,-267.0,922.0,-1313.0,0.667,0.182,0.667,-0.278
132661,-6314.0,-1348.0,3568.0,-381.0,894.0,-1267.0,0.659,0.175,0.675,-0.283
132673,-7298.0,-998.0,2484.0,-96.0,729.0,-1322.0,0.651,0.168,0.681,-0.29
132695,-7802.0,-3298.0,1010.0,121.0,610.0,-1329.0,0.643,0.162,0.686,-0.299
132707,-7842.0,-3192.0,204.0,248.0,506.0,-1088.0,0.636,0.159,0.69,-0.307
132729,-9252.0,-4552.0,-2580.0,-59.0,380.0,-827.0,0.631,0.155,0.693,-0.311
132741,-8738.0,-1570.0,-146.0,41.0,36.0,-489.0,0.629,0.152,0.694,-0.314
132763,-9600.0,-2296.0,1778.0,-82.0,-2.0,-242.0,0.629,0.151,0.695,-0.316
132785,-8940.0,-2184.0,2306.0,257.0,-192.0,-63.0,0.629,0.152,0.693,-0.319
132797,-8212.0,-2514.0,3774.0,729.0,-106.0,-92.0,0.628,0.156,0.69,-0.324
132819,-8632.0,-3302.0,-1246.0,576.0,113.0,80.0,0.627,0.16,0.689,-0.328
132831,-9724.0,-3376.0,-1704.0,691.0,-59.0,295.0,0.627,0.167,0.686,-0.331
132853,-9696.0,-4226.0,-1232.0,628.0,-194.0,417.0,0.628,0.173,0.682,-0.333
132865,-8566.0,-1514.0,1316.0,638.0,-202.0,475.0,0.63,0.179,0.677,-0.335
132887,-8448.0,68.0,1946.0,264.0,-45.0,295.0,0.631,0.183,0.675,-0.336
132899,-9304.0,-2178.0,660.0,186.0,-195.0,-367.0,0.63,0.182,0.674,-0.34
132921,-8426.0,-2048.0,460.0,181.0,-403.0,-233.0,0.631,0.181,0.671,-0.343
132933,-8830.0,-2590.0,216.0,-47.0,-413.0,184.0,0.634,0.18,0.669,-0.343
132956,-8242.0,-1336.0,1474.0,119.0,-397.0,412.0,0.638,0.183,0.665,-0.342
132978,-8560.0,-1026.0,1774.0,-7.0,-377.0,380.0,0.642,0.184,0.662,-0.341
132990,-8718.0,-1298.0,1534.0,-79.0,-414.0,466.0,0.646,0.186,0.659,-0.339
133012,-8642.0,-1426.0,1568.0,-11.0,-436.0,562.0,0.65,0.188,0.655,-0.336
133024,-8700.0,-1154.0,1908.0,103.0,-412.0,659.0,0.655,0.191,0.65,-0.334
133046,-8816.0,-1022.0,1444.0,42.0,-404.0,676.0,0.659,0.195,0.646,-0.331
133058,-9484.0,-1594.0,1238.0,36.0,-457.0,724.0,0.664,0.198,0.642,-0.327
133080,-9522.0,-606.0,1512.0,151.0,-455.0,727.0,0.669,0.202,0.637,-0.325
133092,-10396.0,-752.0,1646.0,54.0,-402.0,805.0,0.673,0.206,0.633,-0.321
133114,-11064.0,-1396.0,1672.0,51.0,-361.0,904.0,0.678,0.211,0.629,-0.316
133126,-12238.0,-1528.0,776.0,-21.0,-311.0,933.0,0.683,0.216,0.625,-0.311
133148,-13212.0,-1902.0,524.0,-11.0,-328.0,820.0,0.687,0.219,0.621,-0.307
133170,-13564.0,-750.0,1538.0,-64.0,-201.0,663.0,0.69,0.222,0.619,-0.302
133182,-14376.0,-1186.0,1214.0,-206.0,-56.0,594.0,0.692,0.224,0.618,-0.298
133204,-15050.0,-2194.0,832.0,-278.0,85.0,300.0,0.693,0.225,0.618,-0.294
133216,-15230.0,-1670.0,1078.0,-130.0,175.0,70.0,0.693,0.225,0.62,-0.293
133238,-14622.0,-1866.0,632.0,-236.0,285.0,-44.0,0.691,0.224,0.622,-0.291
133250,-14058.0,-1588.0,628.0,-123.0,811.0,-429.0,0.686,0.223,0.629,-0.292
133272,-13100.0,-582.0,2472.0,-88.0,363.0,-803.0,0.681,0.219,0.633,-0.296
133284,-12854.0,-1506.0,1802.0,-367.0,502.0,-1021.0,0.676,0.212,0.639,-0.299
133306,-11972.0,-2186.0,1270.0,-195.0,542.0,-832.0,0.671,0.208,0.644,-0.302
133328,-11208.0,-556.0,2262.0,-85.0,558.0,-824.0,0.665,0.204,0.65,-0.306
133340,-11010.0,-836.0,1628.0,-287.0,571.0,-798.0,0.66,0.199,0.655,-0.309
133362,-10202.0,-1350.0,1932.0,-282.0,558.0,-651.0,0.655,0.196,0.661,-0.31
133374,-9882.0,-1184.0,564.0,-236.0,515.0,-612.0,0.65,0.192,0.666,-0.312
133391,-9952.0,-950.0,660.0,-248.0,455.0,-463.0,0.646,0.189,0.67,-0.313
133413,-8454.0,-1026.0,1958.0,-177.0,355.0,-225.0,0.644,0.188,0.673,-0.313
133425,-8298.0,28.0,1096.0,-241.0,320.0,-131.0,0.642,0.188,0.675,-0.312
133447,-8002.0,-1170.0,1180.0,-281.0,139.0,-86.0,0.641,0.186,0.677,-0.31
133459,-7494.0,-770.0,1152.0,-165.0,10.0,194.0,0.642,0.187,0.676,-0.309
133481,-6964.0,-652.0,2276.0,-186.0,-35.0,369.0,0.643,0.188,0.676,-0.306
133503,-7288.0,-1328.0,904.0,-351.0,-50.0,580.0,0.646,0.19,0.675,-0.301
133515,-6604.0,-842.0,990.0,-348.0,-108.0,582.0,0.649,0.192,0.675,-0.295
133537,-6524.0,-664.0,758.0,-342.0,-66.0,613.0,0.651,0.194,0.674,-0.29
133549,-6734.0,-2096.0,-34.0,-502.0,-114.0,790.0,0.655,0.196,0.673,-0.283
133571,-6252.0,-948.0,592.0,-421.0,-190.0,884.0,0.659,0.199,0.671,-0.275
133583,-6142.0,114.0,1612.0,-306.0,-206.0,857.0,0.663,0.202,0.669,-0.269
133605,-6522.0,-1354.0,916.0,-397.0,-334.0,974.0,0.668,0.205,0.666,-0.262
133617,-6566.0,-2122.0,64.0,-173.0,-434.0,1102.0,0.673,0.21,0.661,-0.255
133640,-6046.0,-1376.0,484.0,-41.0,-507.0,1279.0,0.679,0.217,0.656,-0.248
133652,-5884.0,-732.0,200.0,45.0,-605.0,1436.0,0.686,0.225,0.648,-0.241
133674,-5732.0,-1134.0,1096.0,19.0,-770.0,1558.0,0.694,0.233,0.64,-0.233
133696,-4610.0,-1064.0,1474.0,43.0,-858.0,1474.0,0.702,0.241,0.631,-0.226
133708,-3268.0,-240.0,1406.0,154.0,-931.0,1254.0,0.71,0.248,0.621,-0.221
133730,-3374.0,-2280.0,244.0,33.0,-809.0,1058.0,0.716,0.253,0.613,-0.216
133742,-2752.0,-1398.0,720.0,199.0,-736.0,970.0,0.722,0.258,0.606,-0.213
133764,-2078.0,-314.0,570.0,11.0,-460.0,700.0,0.726,0.262,0.601,-0.21
133776,-2224.0,-1494.0,916.0,-142.0,-273.0,334.0,0.728,0.262,0.598,-0.208
133798,-1770.0,-878.0,1366.0,22.0,2.0,-79.0,0.728,0.263,0.598,-0.209
133810,-1798.0,-1314.0,1354.0,42.0,298.0,-455.0,0.725,0.261,0.601,-0.212
133832,-1988.0,-982.0,1158.0,151.0,523.0,-779.0,0.72,0.259,0.606,-0.217
133844,-1776.0,-216.0,1422.0,79.0,766.0,-1151.0,0.713,0.255,0.614,-0.224
133866,-1590.0,-30.0,2026.0,-64.0,973.0,-1468.0,0.704,0.249,0.623,-0.232
133888,-1900.0,-50.0,1784.0,-177.0,1167.0,-1791.0,0.694,0.24,0.635,-0.24
133900,-3216.0,-1638.0,30.0,-174.0,1372.0,-1787.0,0.681,0.232,0.648,-0.248
133922,-6036.0,-3676.0,-2846.0,-322.0,1118.0,-1903.0,0.67,0.221,0.661,-0.257
133934,-5892.0,-1106.0,-524.0,-165.0,834.0,-1663.0,0.661,0.212,0.669,-0.265
133956,-5584.0,-292.0,3308.0,-425.0,871.0,-1626.0,0.652,0.202,0.679,-0.271
133968,-7078.0,-1718.0,1560.0,-85.0,680.0,-1456.0,0.644,0.194,0.685,-0.278
133990,-7614.0,-1754.0,546.0,283.0,539.0,-1325.0,0.637,0.189,0.69,-0.288
134002,-7964.0,-2706.0,-792.0,483.0,509.0,-1164.0,0.629,0.186,0.694,-0.297
134024,-8996.0,-2640.0,-644.0,475.0,291.0,-792.0,0.624,0.185,0.695,-0.305
134046,-8928.0,-2402.0,-794.0,113.0,222.0,-610.0,0.62,0.183,0.697,-0.309
134058,-9136.0,-2302.0,510.0,40.0,-35.0,-307.0,0.619,0.181,0.697,-0.312
134080,-9180.0,-1842.0,910.0,76.0,-59.0,-177.0,0.619,0.181,0.697,-0.314
134092,-9106.0,-1336.0,1334.0,393.0,-121.0,-53.0,0.619,0.183,0.695,-0.317
134114,-8884.0,-1674.0,714.0,451.0,-108.0,16.0,0.618,0.186,0.693,-0.32
134126,-9058.0,-2420.0,144.0,395.0,-123.0,30.0,0.618,0.188,0.691,-0.323
134148,-10140.0,-3526.0,-1878.0,99.0,-109.0,6.0,0.619,0.189,0.69,-0.324
134160,-9416.0,-1022.0,426.0,86.0,-234.0,-5.0,0.62,0.189,0.688,-0.326
134182,-9178.0,-766.0,1686.0,-338.0,-84.0,-40.0,0.621,0.187,0.689,-0.324
134204,-9774.0,-1798.0,1288.0,-159.0,-262.0,-669.0,0.621,0.181,0.689,-0.328
134216,-8856.0,-1380.0,1170.0,-96.0,-378.0,-544.0,0.621,0.176,0.688,-0.331
134238,-8944.0,-2526.0,506.0,-103.0,-363.0,-128.0,0.623,0.174,0.686,-0.332
134250,-8718.0,-2398.0,1072.0,150.0,-278.0,50.0,0.625,0.175,0.684,-0.334
134272,-8406.0,-1586.0,866.0,49.0,-181.0,127.0,0.626,0.176,0.682,-0.334
134284,-8366.0,-1750.0,1050.0,-180.0,-204.0,181.0,0.628,0.176,0.681,-0.333
134306,-8448.0,-1554.0,158.0,-249.0,-275.0,282.0,0.631,0.176,0.68,-0.33
134318,-8476.0,-2454.0,462.0,-187.0,-307.0,364.0,0.634,0.176,0.678,-0.328
134340,-8680.0,-2268.0,290.0,-112.0,-326.0,553.0,0.638,0.178,0.675,-0.325
134352,-8922.0,-1874.0,840.0,-86.0,-331.0,680.0,0.642,0.181,0.672,-0.321
134374,-9382.0,-2086.0,1240.0,-114.0,-394.0,705.0,0.647,0.184,0.669,-0.317
134396,-9800.0,-2030.0,1288.0,34.0,-529.0,724.0,0.652,0.188,0.664,-0.314
134408,-10846.0,-2516.0,558.0,22.0,-608.0,897.0,0.658,0.192,0.659,-0.31
134430,-11598.0,-2548.0,1104.0,-5.0,-602.0,984.0,0.665,0.196,0.653,-0.305
134442,-12078.0,-1834.0,1560.0,-98.0,-526.0,928.0,0.671,0.2,0.648,-0.3
134464,-12996.0,-1876.0,1120.0,-254.0,-456.0,671.0,0.676,0.201,0.645,-0.295
134476,-13590.0,-2202.0,950.0,-209.0,-330.0,506.0,0.679,0.202,0.642,-0.292
134498,-14026.0,-2032.0,808.0,-219.0,-140.0,357.0,0.681,0.203,0.641,-0.289
134510,-13868.0,-1616.0,862.0,-153.0,100.0,108.0,0.681,0.203,0.642,-0.287
134532,-13730.0,-1356.0,1298.0,-157.0,339.0,-177.0,0.679,0.202,0.645,-0.287
134554,-13438.0,-1586.0,1424.0,-86.0,538.0,-484.0,0.674,0.201,0.649,-0.289
134566,-13148.0,-1558.0,1172.0,-82.0,682.0,-682.0,0.668,0.198,0.655,-0.292
134588,-12700.0,-1568.0,1020.0,-164.0,854.0,-873.0,0.661,0.194,0.662,-0.295
134600,-12368.0,-1876.0,778.0,-190.0,900.0,-1023.0,0.653,0.19,0.67,-0.299
134622,-12196.0,-1938.0,528.0,-238.0,949.0,-1017.0,0.644,0.185,0.678,-0.302
134634,-11308.0,-1716.0,1026.0,-283.0,948.0,-1007.0,0.635,0.18,0.686,-0.305
134656,-10908.0,-1898.0,968.0,-268.0,910.0,-946.0,0.627,0.176,0.694,-0.308
134668,-10336.0,-1812.0,680.0,-173.0,850.0,-851.0,0.619,0.172,0.7,-0.311
134690,-9958.0,-1916.0,934.0,-138.0,842.0,-738.0,0.611,0.17,0.707,-0.314
134712,-9074.0,-2310.0,472.0,-146.0,854.0,-606.0,0.604,0.168,0.713,-0.315
134724,-9126.0,-1574.0,-270.0,-95.0,803.0,-572.0,0.597,0.167,0.718,-0.317
134746,-8682.0,-1836.0,536.0,-102.0,755.0,-542.0,0.59,0.165,0.723,-0.319
134758,-7418.0,-1466.0,1000.0,-86.0,681.0,-318.0,0.585,0.165,0.727,-0.319
134780,-7586.0,-2002.0,488.0,-44.0,505.0,-45.0,0.581,0.167,0.73,-0.319
134792,-7670.0,-2064.0,52.0,61.0,405.0,138.0,0.579,0.17,0.731,-0.319
134814,-6848.0,-1260.0,-352.0,224.0,357.0,194.0,0.576,0.174,0.732,-0.319
134826,-6774.0,-1942.0,812.0,245.0,299.0,331.0,0.574,0.179,0.732,-0.319
134848,-6614.0,-1648.0,474.0,129.0,269.0,427.0,0.573,0.184,0.732,-0.318
134860,-6384.0,-1830.0,564.0,134.0,165.0,431.0,0.573,0.189,0.732,-0.317
134882,-6440.0,-2480.0,-128.0,145.0,116.0,377.0,0.573,0.193,0.731,-0.316
134904,-6750.0,-2924.0,560.0,229.0,62.0,624.0,0.574,0.199,0.729,-0.315
134916,-6512.0,-590.0,-1144.0,272.0,-163.0,710.0,0.576,0.206,0.726,-0.313
134938,-7414.0,-2532.0,-1552.0,-137.0,-292.0,750.0,0.58,0.21,0.724,-0.31
134950,-6352.0,-1948.0,-778.0,-125.0,-402.0,788.0,0.585,0.213,0.72,-0.306
134972,-7092.0,-2048.0,-824.0,-224.0,-519.0,899.0,0.591,0.217,0.716,-0.301
134984,-7344.0,-2820.0,-1240.0,-220.0,-641.0,952.0,0.598,0.221,0.711,-0.296
135006,-7090.0,-2062.0,-1296.0,-68.0,-749.0,1034.0,0.606,0.226,0.705,-0.292
135018,-6948.0,-2272.0,-940.0,-102.0,-798.0,1285.0,0.615,0.232,0.698,-0.286
135040,-6656.0,-1128.0,-234.0,26.0,-934.0,1107.0,0.623,0.237,0.69,-0.282
135062,-6192.0,-1454.0,718.0,-121.0,-924.0,1307.0,0.633,0.243,0.682,-0.276
135074,-5812.0,-2536.0,762.0,95.0,-928.0,1367.0,0.642,0.25,0.672,-0.271
135096,-5548.0,-2646.0,40.0,421.0,-765.0,1434.0,0.649,0.26,0.663,-0.267
135108,-3356.0,-736.0,780.0,919.0,-784.0,1542.0,0.655,0.273,0.652,-0.266
135130,-2872.0,200.0,420.0,711.0,-491.0,1236.0,0.659,0.284,0.644,-0.264
135142,-3394.0,-1006.0,-532.0,458.0,-384.0,863.0,0.662,0.291,0.638,-0.263
135164,-3124.0,-1446.0,-500.0,302.0,-208.0,426.0,0.664,0.295,0.635,-0.262
135176,-2782.0,-1738.0,-742.0,88.0,-3.0,69.0,0.664,0.296,0.635,-0.263
135198,-1862.0,-1766.0,-358.0,183.0,204.0,-309.0,0.661,0.296,0.636,-0.266
135210,-2096.0,-1958.0,138.0,370.0,438.0,-639.0,0.656,0.296,0.639,-0.271
135233,-1610.0,-542.0,32.0,479.0,652.0,-1024.0,0.648,0.295,0.645,-0.278
135255,-1422.0,-426.0,-34.0,367.0,716.0,-1399.0,0.639,0.291,0.652,-0.287
135267,-1496.0,-16.0,-154.0,389.0,744.0,-1702.0,0.628,0.285,0.66,-0.298
135289,-1844.0,256.0,714.0,196.0,930.0,-1845.0,0.617,0.278,0.669,-0.308
135301,-3352.0,-2198.0,-590.0,-126.0,856.0,-1785.0,0.606,0.269,0.679,-0.316
135323,-3766.0,-586.0,-658.0,-390.0,740.0,-1697.0,0.597,0.259,0.688,-0.321
135335,-4796.0,-1090.0,1538.0,-867.0,749.0,-1663.0,0.589,0.246,0.699,-0.323
135357,-5578.0,-4416.0,186.0,-571.0,530.0,-1685.0,0.582,0.234,0.707,-0.328
135369,-6710.0,-5028.0,-670.0,-63.0,471.0,-1365.0,0.574,0.226,0.712,-0.335
135396,-7292.0,-1330.0,-372.0,157.0,474.0,-1026.0,0.567,0.221,0.716,-0.34
135408,-8054.0,-2992.0,918.0,-21.0,291.0,-658.0,0.563,0.218,0.719,-0.344
135430,-8702.0,-2782.0,502.0,233.0,191.0,-501.0,0.56,0.217,0.72,-0.348
135442,-8630.0,-2844.0,622.0,330.0,67.0,-266.0,0.558,0.217,0.72,-0.352
135464,-9294.0,-3526.0,540.0,277.0,37.0,105.0,0.557,0.22,0.719,-0.353
135476,-9840.0,-3964.0,-442.0,918.0,-221.0,-224.0,0.556,0.223,0.715,-0.361
135498,-8996.0,-240.0,308.0,539.0,-334.0,148.0,0.558,0.226,0.711,-0.365
135510,-9560.0,-2826.0,-770.0,264.0,-323.0,271.0,0.56,0.228,0.708,-0.366
135532,-9230.0,-3384.0,-732.0,407.0,-470.0,413.0,0.563,0.231,0.703,-0.367
135544,-9734.0,-1588.0,-1232.0,340.0,-523.0,449.0,0.568,0.235,0.698,-0.368
135566,-9186.0,-1626.0,256.0,22.0,-592.0,510.0,0.573,0.236,0.694,-0.367
135578,-8910.0,-1668.0,396.0,-48.0,-528.0,295.0,0.578,0.236,0.69,-0.367
135600,-9724.0,-1284.0,72.0,47.0,-720.0,-370.0,0.581,0.231,0.687,-0.371
135622,-8744.0,-1668.0,-50.0,-201.0,-834.0,45.0,0.587,0.228,0.683,-0.371
135634,-8908.0,-1706.0,378.0,-267.0,-771.0,199.0,0.593,0.225,0.679,-0.37
135656,-8490.0,-642.0,574.0,-310.0,-743.0,213.0,0.599,0.222,0.675,-0.368
135668,-8566.0,-1318.0,1016.0,-540.0,-617.0,272.0,0.605,0.219,0.673,-0.365
135690,-8914.0,-1438.0,630.0,-504.0,-599.0,509.0,0.612,0.218,0.67,-0.36
135702,-9772.0,-2208.0,108.0,-363.0,-553.0,765.0,0.618,0.219,0.667,-0.354
135724,-10020.0,-1172.0,1154.0,-147.0,-456.0,878.0,0.624,0.222,0.663,-0.349
135736,-11012.0,-770.0,1814.0,-53.0,-375.0,860.0,0.629,0.226,0.659,-0.345
135758,-11912.0,-1522.0,1628.0,-9.0,-253.0,702.0,0.633,0.229,0.656,-0.341
135780,-13690.0,-2288.0,386.0,85.0,-245.0,657.0,0.637,0.233,0.653,-0.339
135792,-14668.0,-2552.0,170.0,-14.0,-228.0,693.0,0.64,0.236,0.65,-0.335
135814,-15218.0,-2956.0,-24.0,-121.0,-152.0,710.0,0.643,0.239,0.648,-0.33
135826,-15224.0,-2124.0,1260.0,-175.0,19.0,468.0,0.645,0.241,0.647,-0.326
135848,-14820.0,-2544.0,1806.0,-144.0,163.0,149.0,0.645,0.242,0.648,-0.324
135860,-14454.0,-3150.0,808.0,58.0,1009.0,-39.0,0.639,0.245,0.654,-0.323
135882,-14038.0,-2130.0,328.0,-36.0,602.0,-542.0,0.633,0.243,0.659,-0.324
135894,-14012.0,-2786.0,372.0,-379.0,619.0,-530.0,0.629,0.24,0.665,-0.324
135916,-12980.0,-2346.0,802.0,-206.0,647.0,-637.0,0.623,0.237,0.671,-0.325
135938,-11896.0,-1844.0,516.0,-257.0,637.0,-764.0,0.617,0.233,0.677,-0.327
135950,-10898.0,-1830.0,372.0,-134.0,613.0,-739.0,0.611,0.229,0.682,-0.329
135972,-10412.0,-1170.0,636.0,-123.0,454.0,-940.0,0.606,0.224,0.687,-0.333
135984,-9366.0,-1142.0,356.0,-170.0,382.0,-813.0,0.601,0.22,0.692,-0.336
136006,-9212.0,-2060.0,-426.0,-202.0,305.0,-712.0,0.597,0.215,0.695,-0.338
136018,-8618.0,-1234.0,62.0,-198.0,219.0,-654.0,0.594,0.211,0.698,-0.34
136040,-8268.0,-1856.0,1224.0,-257.0,241.0,-376.0,0.591,0.208,0.701,-0.341
136052,-7298.0,-488.0,1754.0,-306.0,225.0,-213.0,0.59,0.206,0.703,-0.34
136074,-7532.0,-2010.0,466.0,-317.0,228.0,-265.0,0.588,0.204,0.705,-0.339
136086,-7680.0,-2444.0,-268.0,13.0,150.0,-44.0,0.587,0.204,0.706,-0.339
136108,-8252.0,-1804.0,72.0,23.0,130.0,393.0,0.587,0.208,0.706,-0.337
136130,-7782.0,-1274.0,346.0,-152.0,72.0,486.0,0.589,0.211,0.705,-0.334
136142,-7960.0,-1062.0,1086.0,-355.0,76.0,336.0,0.59,0.212,0.706,-0.33
136164,-7048.0,-1130.0,1580.0,-237.0,101.0,201.0,0.59,0.212,0.706,-0.327
136176,-7512.0,-1532.0,-516.0,184.0,78.0,215.0,0.59,0.215,0.706,-0.328
136198,-8242.0,-2816.0,-1280.0,292.0,149.0,554.0,0.59,0.221,0.705,-0.327
136210,-6968.0,-598.0,-168.0,281.0,182.0,780.0,0.59,0.229,0.703,-0.324
136232,-7144.0,-736.0,-370.0,43.0,100.0,843.0,0.592,0.235,0.702,-0.32
136244,-7274.0,-1896.0,-872.0,23.0,-54.0,914.0,0.595,0.241,0.699,-0.315
136266,-6638.0,-1494.0,-896.0,113.0,-128.0,1046.0,0.598,0.249,0.696,-0.311
136288,-7196.0,-1240.0,-542.0,24.0,-192.0,1173.0,0.603,0.256,0.692,-0.305
136300,-7210.0,-772.0,-1862.0,-155.0,-263.0,1230.0,0.608,0.263,0.688,-0.298
136322,-6962.0,-2350.0,-488.0,-46.0,-37.0,1157.0,0.611,0.27,0.685,-0.291
136334,-6490.0,142.0,-574.0,253.0,-416.0,1104.0,0.616,0.277,0.679,-0.288
136356,-7672.0,-1358.0,-698.0,-143.0,-587.0,1224.0,0.623,0.283,0.672,-0.282
136368,-7454.0,-2118.0,-1458.0,-89.0,-677.0,1256.0,0.631,0.288,0.666,-0.276
136390,-6622.0,384.0,-204.0,-171.0,-847.0,1418.0,0.64,0.294,0.657,-0.269
136402,-6410.0,-134.0,-568.0,-281.0,-910.0,1276.0,0.649,0.298,0.649,-0.262
136425,-5120.0,-820.0,1246.0,-131.0,-1040.0,1224.0,0.659,0.302,0.639,-0.257
136437,-4336.0,-36.0,1164.0,90.0,-1010.0,848.0,0.667,0.305,0.63,-0.255
136459,-3606.0,-466.0,1040.0,-18.0,-975.0,581.0,0.674,0.307,0.622,-0.254
136481,-3096.0,-1020.0,598.0,-159.0,-925.0,307.0,0.68,0.305,0.616,-0.254
136493,-3926.0,-2690.0,-244.0,-196.0,-742.0,200.0,0.685,0.304,0.611,-0.254
136515,-2566.0,-734.0,6.0,-20.0,-412.0,-26.0,0.688,0.302,0.609,-0.256
136527,-1602.0,-138.0,966.0,-42.0,-55.0,-460.0,0.687,0.3,0.61,-0.259
136549,-1928.0,-2082.0,956.0,159.0,233.0,-912.0,0.683,0.296,0.613,-0.265
136561,-2156.0,-844.0,1086.0,428.0,509.0,-1205.0,0.676,0.294,0.618,-0.274
136583,-2314.0,-1112.0,694.0,255.0,774.0,-1387.0,0.667,0.289,0.626,-0.282
136595,-2986.0,-1386.0,508.0,127.0,838.0,-1400.0,0.658,0.284,0.635,-0.29
136617,-2928.0,260.0,1794.0,-94.0,933.0,-1537.0,0.648,0.277,0.645,-0.296
136629,-3282.0,-1362.0,1664.0,-156.0,896.0,-1642.0,0.638,0.269,0.654,-0.303
136651,-3728.0,-850.0,622.0,-33.0,879.0,-1724.0,0.628,0.261,0.664,-0.311
136673,-6158.0,-3246.0,-496.0,-375.0,844.0,-1492.0,0.619,0.253,0.673,-0.316
136685,-6292.0,-2904.0,-430.0,-550.0,637.0,-1271.0,0.612,0.244,0.681,-0.318
136707,-5858.0,-1468.0,2942.0,-420.0,480.0,-1176.0,0.606,0.235,0.688,-0.322
136719,-6990.0,-1052.0,1340.0,-200.0,413.0,-1196.0,0.6,0.228,0.693,-0.327
136741,-7894.0,-3160.0,1546.0,-79.0,276.0,-917.0,0.596,0.223,0.697,-0.331
136753,-7788.0,-3048.0,1936.0,76.0,209.0,-729.0,0.592,0.219,0.699,-0.336
136775,-8120.0,-1666.0,1004.0,87.0,138.0,-531.0,0.59,0.216,0.7,-0.339
136787,-9482.0,-3728.0,-658.0,191.0,398.0,-932.0,0.584,0.213,0.703,-0.345
136809,-8018.0,-1396.0,848.0,-55.0,203.0,-522.0,0.581,0.21,0.705,-0.348
136831,-8850.0,-1620.0,1704.0,-27.0,119.0,-376.0,0.579,0.208,0.707,-0.349
136843,-8712.0,-2358.0,1014.0,157.0,13.0,-211.0,0.578,0.208,0.707,-0.352
136865,-8944.0,-2768.0,-152.0,255.0,7.0,-218.0,0.576,0.208,0.706,-0.355
136877,-8994.0,-2766.0,334.0,222.0,-75.0,-180.0,0.576,0.208,0.705,-0.358
136899,-9454.0,-1584.0,-770.0,31.0,-159.0,-323.0,0.575,0.206,0.705,-0.36
136911,-8918.0,-2490.0,376.0,-87.0,-191.0,-448.0,0.575,0.202,0.705,-0.362
136933,-9006.0,-2604.0,178.0,-131.0,-170.0,-659.0,0.574,0.197,0.706,-0.366
136945,-8944.0,-2428.0,1234.0,0.0,-204.0,-830.0,0.572,0.191,0.706,-0.371
136967,-8688.0,-2094.0,624.0,-114.0,-300.0,-480.0,0.573,0.187,0.705,-0.373
136989,-8946.0,-3042.0,358.0,-12.0,-353.0,-93.0,0.575,0.185,0.703,-0.375
137001,-9022.0,-2316.0,-202.0,223.0,-330.0,8.0,0.576,0.185,0.701,-0.377
137023,-9388.0,-2994.0,14.0,137.0,-262.0,75.0,0.578,0.186,0.699,-0.378
137035,-9304.0,-2322.0,48.0,78.0,-295.0,45.0,0.58,0.186,0.697,-0.379
137057,-9344.0,-2170.0,640.0,40.0,-294.0,40.0,0.582,0.186,0.695,-0.38
137069,-9240.0,-2798.0,506.0,208.0,-298.0,54.0,0.583,0.186,0.692,-0.382
137091,-10330.0,-3066.0,-398.0,413.0,-286.0,253.0,0.585,0.189,0.689,-0.384
137103,-11326.0,-3890.0,-656.0,575.0,-260.0,385.0,0.587,0.194,0.685,-0.386
137125,-12820.0,-3870.0,-402.0,661.0,-211.0,459.0,0.589,0.2,0.68,-0.388
137137,-13694.0,-4364.0,192.0,519.0,-126.0,471.0,0.59,0.206,0.677,-0.389
137159,-14654.0,-4650.0,230.0,396.0,-77.0,274.0,0.591,0.209,0.674,-0.39
137181,-13948.0,-5028.0,586.0,307.0,542.0,360.0,0.588,0.215,0.675,-0.389
137193,-14712.0,-4758.0,-236.0,370.0,494.0,-556.0,0.582,0.216,0.678,-0.394
137215,-14434.0,-5098.0,184.0,-102.0,555.0,-659.0,0.576,0.213,0.682,-0.396
137227,-13214.0,-5032.0,124.0,87.0,654.0,-788.0,0.569,0.211,0.687,-0.399
137249,-12280.0,-3928.0,-136.0,74.0,726.0,-708.0,0.561,0.21,0.692,-0.402
137261,-11508.0,-4360.0,-432.0,54.0,784.0,-673.0,0.554,0.209,0.697,-0.405
137283,-10750.0,-3578.0,412.0,19.0,815.0,-735.0,0.545,0.208,0.703,-0.407
137295,-9946.0,-2630.0,588.0,-102.0,796.0,-731.0,0.537,0.206,0.708,-0.409
137317,-9894.0,-3718.0,-386.0,-185.0,727.0,-700.0,0.53,0.203,0.714,-0.41
137339,-9748.0,-3892.0,28.0,5.0,695.0,-674.0,0.523,0.202,0.718,-0.412
137351,-9324.0,-3304.0,-344.0,-57.0,659.0,-616.0,0.516,0.2,0.723,-0.414
137373,-8956.0,-3898.0,8.0,155.0,572.0,-279.0,0.51,0.202,0.725,-0.415
137385,-8648.0,-2590.0,-182.0,170.0,492.0,-85.0,0.506,0.204,0.727,-0.416
137402,-8142.0,-3278.0,-458.0,167.0,486.0,-142.0,0.502,0.206,0.729,-0.418
137424,-7726.0,-3260.0,-80.0,335.0,361.0,100.0,0.499,0.21,0.729,-0.419
137436,-7066.0,-2146.0,-252.0,239.0,249.0,325.0,0.498,0.215,0.728,-0.419
137458,-7118.0,-3526.0,-1066.0,52.0,71.0,446.0,0.499,0.219,0.727,-0.417
137470,-7184.0,-3772.0,-1000.0,-9.0,-45.0,606.0,0.502,0.223,0.726,-0.415
137492,-7006.0,-2184.0,-312.0,-102.0,-92.0,708.0,0.505,0.227,0.724,-0.411
137514,-6788.0,-3094.0,-62.0,-235.0,-210.0,793.0,0.51,0.231,0.722,-0.406
137526,-6364.0,-3060.0,172.0,-123.0,-332.0,895.0,0.516,0.235,0.719,-0.402
137548,-6848.0,-2862.0,-74.0,-91.0,-389.0,1003.0,0.522,0.24,0.715,-0.398
137560,-6786.0,-2952.0,-842.0,1.0,-508.0,1063.0,0.529,0.245,0.71,-0.394
137582,-6708.0,-3032.0,-34.0,-33.0,-579.0,1230.0,0.538,0.251,0.704,-0.389
137594,-7322.0,-3456.0,-954.0,-242.0,-661.0,1383.0,0.547,0.256,0.699,-0.383
137616,-6722.0,-1666.0,-356.0,-232.0,-769.0,1417.0,0.558,0.262,0.692,-0.376
137628,-6760.0,-2400.0,62.0,-276.0,-859.0,1419.0,0.569,0.267,0.685,-0.369
137650,-6618.0,-2402.0,998.0,-174.0,-841.0,1466.0,0.58,0.272,0.677,-0.362
137672,-6144.0,-1856.0,708.0,-48.0,-898.0,1481.0,0.59,0.278,0.669,-0.356
137684,-6786.0,-2092.0,-234.0,88.0,-1131.0,1457.0,0.602,0.284,0.658,-0.351
137706,-5724.0,-2876.0,-860.0,227.0,-1175.0,1466.0,0.613,0.291,0.647,-0.348
137718,-5140.0,-2344.0,-1220.0,192.0,-1178.0,1448.0,0.624,0.297,0.636,-0.344
137740,-2046.0,634.0,140.0,-100.0,-886.0,1143.0,0.634,0.3,0.628,-0.339
137752,-2532.0,-2240.0,446.0,-436.0,-809.0,810.0,0.642,0.299,0.622,-0.334
137774,-780.0,-992.0,450.0,-217.0,-512.0,468.0,0.647,0.299,0.618,-0.331
137786,-1004.0,-1692.0,366.0,-192.0,-227.0,65.0,0.649,0.298,0.617,-0.33
137808,-796.0,-1666.0,1048.0,-47.0,64.0,-219.0,0.648,0.297,0.618,-0.331
137820,-1054.0,-1402.0,608.0,-75.0,252.0,-577.0,0.645,0.294,0.622,-0.334
137842,-1780.0,-1808.0,852.0,-202.0,490.0,-886.0,0.64,0.289,0.628,-0.337
137864,-1598.0,-1130.0,1130.0,-302.0,689.0,-1167.0,0.633,0.283,0.636,-0.34
137876,-2914.0,-1908.0,482.0,-546.0,818.0,-1317.0,0.625,0.274,0.645,-0.343
137898,-3234.0,-1402.0,2114.0,-460.0,904.0,-1426.0,0.616,0.266,0.656,-0.346
137910,-4070.0,-2786.0,996.0,-433.0,909.0,-1425.0,0.607,0.258,0.666,-0.35
137932,-5408.0,-2718.0,268.0,-189.0,780.0,-1378.0,0.598,0.251,0.674,-0.354
137944,-5402.0,-2666.0,792.0,-132.0,740.0,-1311.0,0.589,0.245,0.681,-0.359
137966,-5392.0,-2324.0,708.0,-127.0,651.0,-1227.0,0.581,0.239,0.688,-0.364
137978,-7652.0,-5188.0,-1506.0,-482.0,589.0,-966.0,0.574,0.232,0.695,-0.365
138000,-6870.0,-1088.0,2006.0,-238.0,434.0,-784.0,0.569,0.228,0.7,-0.367
138022,-7778.0,-2614.0,1854.0,-365.0,212.0,-749.0,0.566,0.222,0.703,-0.369
138034,-7666.0,-3688.0,-14.0,-250.0,61.0,-716.0,0.564,0.216,0.706,-0.371
138056,-8710.0,-4042.0,-972.0,-114.0,33.0,-460.0,0.562,0.213,0.707,-0.373
138068,-9124.0,-2970.0,562.0,17.0,-54.0,-100.0,0.562,0.212,0.707,-0.374
138090,-8974.0,-2414.0,1550.0,22.0,-209.0,224.0,0.564,0.213,0.705,-0.373
138102,-8800.0,-3044.0,1052.0,110.0,-217.0,273.0,0.566,0.215,0.703,-0.373
138124,-8378.0,-2122.0,1514.0,238.0,-190.0,211.0,0.568,0.217,0.7,-0.374
138136,-8556.0,-1872.0,368.0,308.0,-143.0,79.0,0.568,0.219,0.698,-0.377
138158,-8790.0,-2578.0,184.0,373.0,-121.0,152.0,0.569,0.222,0.696,-0.379
138180,-8188.0,-1632.0,900.0,361.0,-58.0,7.0,0.568,0.224,0.694,-0.381
138192,-8740.0,-1186.0,858.0,77.0,-153.0,-514.0,0.568,0.221,0.693,-0.385
138214,-7996.0,-1614.0,936.0,-39.0,-23.0,-954.0,0.565,0.215,0.695,-0.39
138226,-7994.0,-1760.0,660.0,-46.0,-133.0,-1261.0,0.561,0.206,0.697,-0.397
138248,-7830.0,-1500.0,406.0,-157.0,-254.0,-841.0,0.56,0.2,0.697,-0.401
138260,-8136.0,-2232.0,106.0,-76.0,-228.0,-369.0,0.56,0.196,0.697,-0.403
138282,-9132.0,-4418.0,-986.0,-94.0,-213.0,-21.0,0.561,0.195,0.696,-0.403
138294,-8932.0,-2190.0,524.0,251.0,-228.0,191.0,0.563,0.197,0.693,-0.404
138316,-9246.0,-2532.0,642.0,125.0,-245.0,167.0,0.565,0.198,0.691,-0.405
138328,-9544.0,-3522.0,376.0,245.0,-308.0,250.0,0.567,0.2,0.688,-0.406
138350,-10246.0,-2812.0,-486.0,259.0,-259.0,405.0,0.57,0.203,0.685,-0.406
138372,-10788.0,-3800.0,-158.0,239.0,-250.0,470.0,0.573,0.207,0.682,-0.406
138384,-11430.0,-3906.0,-202.0,339.0,-253.0,497.0,0.575,0.211,0.678,-0.406
138406,-12112.0,-3970.0,166.0,277.0,-218.0,540.0,0.578,0.215,0.675,-0.405
138418,-12812.0,-4390.0,80.0,176.0,-253.0,604.0,0.582,0.219,0.672,-0.403
138440,-13574.0,-4442.0,-608.0,201.0,-275.0,663.0,0.585,0.223,0.668,-0.402
138452,-14230.0,-5044.0,-176.0,64.0,-217.0,653.0,0.589,0.227,0.665,-0.399
138474,-14628.0,-4556.0,-692.0,333.0,791.0,-55.0,0.583,0.231,0.668,-0.4
138486,-13206.0,-2490.0,652.0,46.0,360.0,-132.0,0.58,0.232,0.67,-0.4
138508,-13852.0,-4992.0,38.0,-131.0,440.0,-333.0,0.577,0.231,0.674,-0.4
138530,-13306.0,-4666.0,114.0,151.0,587.0,-388.0,0.571,0.232,0.677,-0.402
138542,-12906.0,-3498.0,488.0,-36.0,722.0,-342.0,0.565,0.232,0.682,-0.402
138564,-12020.0,-3436.0,42.0,-140.0,766.0,-520.0,0.558,0.231,0.688,-0.402
138576,-11520.0,-2986.0,244.0,-71.0,701.0,-782.0,0.551,0.229,0.693,-0.405
138598,-10804.0,-3748.0,140.0,-78.0,692.0,-676.0,0.544,0.227,0.698,-0.406
138610,-10364.0,-2160.0,40.0,-19.0,631.0,-569.0,0.538,0.225,0.703,-0.408
138632,-10134.0,-3670.0,44.0,-224.0,572.0,-518.0,0.532,0.223,0.707,-0.408
138644,-9324.0,-2814.0,196.0,-51.0,523.0,-320.0,0.528,0.223,0.711,-0.408
138666,-9162.0,-2916.0,62.0,-27.0,388.0,72.0,0.525,0.225,0.713,-0.407
138688,-8810.0,-2460.0,-54.0,-83.0,348.0,-44.0,0.523,0.226,0.715,-0.406
138700,-7968.0,-2784.0,-308.0,-24.0,319.0,22.0,0.521,0.227,0.716,-0.405
138722,-7536.0,-1980.0,90.0,135.0,148.0,248.0,0.521,0.231,0.715,-0.405
138734,-7618.0,-2616.0,490.0,44.0,-1.0,554.0,0.523,0.235,0.714,-0.403
138756,-7040.0,-2144.0,184.0,-25.0,-124.0,596.0,0.526,0.238,0.712,-0.4
138768,-7608.0,-3190.0,-406.0,-278.0,-228.0,713.0,0.53,0.241,0.71,-0.396
138790,-6772.0,-1202.0,-470.0,-151.0,-307.0,629.0,0.535,0.243,0.708,-0.392
138802,-6586.0,-2672.0,-46.0,-199.0,-356.0,729.0,0.54,0.246,0.705,-0.388
138824,-6872.0,-3076.0,-378.0,-120.0,-387.0,895.0,0.546,0.25,0.701,-0.384
138836,-6164.0,-1584.0,588.0,-152.0,-395.0,998.0,0.553,0.254,0.697,-0.379
138858,-7152.0,-2476.0,-736.0,-437.0,-512.0,950.0,0.56,0.256,0.694,-0.373
138880,-6304.0,-1308.0,830.0,-227.0,-647.0,1021.0,0.568,0.259,0.689,-0.368
138892,-7470.0,-3674.0,-1364.0,-404.0,-685.0,1185.0,0.577,0.262,0.684,-0.361
138914,-5968.0,-1554.0,192.0,-236.0,-761.0,1353.0,0.587,0.267,0.677,-0.354
138926,-8710.0,-3436.0,-2758.0,-948.0,-888.0,1503.0,0.6,0.269,0.671,-0.342
138948,-5916.0,204.0,2148.0,-819.0,-1004.0,1442.0,0.613,0.27,0.665,-0.331
138960,-4454.0,216.0,2964.0,-1005.0,-981.0,1262.0,0.625,0.269,0.659,-0.32
138982,-6762.0,-2908.0,-688.0,-744.0,-1266.0,1363.0,0.638,0.269,0.65,-0.311
138994,-5064.0,-2250.0,1408.0,4.0,-1307.0,1484.0,0.651,0.274,0.639,-0.306
139016,-4864.0,-2174.0,-438.0,148.0,-1163.0,1448.0,0.661,0.281,0.627,-0.301
139038,-4366.0,-1822.0,-42.0,308.0,-1170.0,1358.0,0.671,0.287,0.616,-0.297
139050,-2164.0,-1124.0,916.0,272.0,-808.0,969.0,0.677,0.292,0.607,-0.295
139072,-2086.0,-1920.0,650.0,107.0,-471.0,661.0,0.681,0.295,0.602,-0.293
139084,-1740.0,-1032.0,112.0,158.0,-168.0,263.0,0.683,0.298,0.6,-0.293
139106,-1502.0,-290.0,718.0,35.0,85.0,-169.0,0.682,0.297,0.601,-0.294
139118,-1546.0,-1356.0,1094.0,-43.0,334.0,-543.0,0.678,0.295,0.604,-0.296
139140,-1736.0,-708.0,706.0,-23.0,502.0,-904.0,0.673,0.291,0.61,-0.301
139152,-2704.0,-1236.0,716.0,-107.0,636.0,-1156.0,0.666,0.286,0.617,-0.306
139174,-2446.0,-996.0,738.0,-302.0,789.0,-1327.0,0.659,0.278,0.627,-0.31
139196,-2938.0,-1698.0,806.0,-545.0,924.0,-1391.0,0.65,0.27,0.637,-0.313
139208,-3814.0,-854.0,1590.0,-491.0,984.0,-1631.0,0.641,0.26,0.649,-0.318
139230,-3454.0,-1410.0,2658.0,-460.0,968.0,-1747.0,0.631,0.25,0.66,-0.323
139242,-5116.0,-3330.0,748.0,-597.0,1012.0,-1578.0,0.621,0.24,0.671,-0.327
139264,-6326.0,-3228.0,26.0,-472.0,871.0,-1269.0,0.612,0.232,0.68,-0.329
139276,-7156.0,-2874.0,1794.0,-271.0,724.0,-1007.0,0.605,0.226,0.687,-0.332
139298,-6360.0,-2204.0,2526.0,98.0,582.0,-955.0,0.598,0.223,0.692,-0.337
139310,-6694.0,-1956.0,2176.0,349.0,526.0,-960.0,0.591,0.22,0.696,-0.344
139332,-7310.0,-2654.0,-392.0,306.0,488.0,-874.0,0.584,0.218,0.699,-0.35
139344,-8420.0,-3904.0,-1432.0,135.0,294.0,-581.0,0.58,0.216,0.701,-0.354
139366,-8384.0,-2156.0,188.0,340.0,262.0,-444.0,0.576,0.216,0.702,-0.358
139388,-7920.0,-1296.0,2282.0,244.0,166.0,-231.0,0.574,0.217,0.702,-0.361
139405,-8510.0,-3672.0,928.0,270.0,133.0,-109.0,0.572,0.218,0.702,-0.363
139417,-9012.0,-2766.0,-356.0,532.0,68.0,0.0,0.571,0.221,0.701,-0.367
139439,-9966.0,-2166.0,-294.0,428.0,-6.0,184.0,0.57,0.225,0.699,-0.369
139451,-9364.0,-2328.0,1084.0,468.0,28.0,223.0,0.57,0.229,0.697,-0.371
139473,-9200.0,-1786.0,1168.0,619.0,48.0,61.0,0.568,0.233,0.695,-0.374
139485,-8870.0,-2264.0,1090.0,446.0,151.0,-277.0,0.565,0.235,0.694,-0.379
139507,-9058.0,-2308.0,840.0,592.0,43.0,-772.0,0.561,0.233,0.694,-0.386
139519,-8728.0,-1454.0,-338.0,367.0,-203.0,-431.0,0.56,0.232,0.692,-0.392
139541,-9634.0,-2424.0,372.0,-7.0,-255.0,-153.0,0.561,0.23,0.691,-0.393
139563,-8732.0,-2336.0,496.0,-7.0,-288.0,-74.0,0.562,0.229,0.69,-0.394
139575,-8652.0,-1438.0,762.0,66.0,-291.0,-158.0,0.564,0.227,0.688,-0.396
139597,-8548.0,-2208.0,814.0,173.0,-277.0,-79.0,0.565,0.226,0.686,-0.398
139609,-8554.0,-2826.0,624.0,365.0,-234.0,172.0,0.566,0.229,0.683,-0.4
139631,-9108.0,-1596.0,-64.0,573.0,-250.0,379.0,0.568,0.233,0.679,-0.403
139643,-9660.0,-2060.0,-348.0,409.0,-234.0,538.0,0.571,0.238,0.675,-0.403
139665,-9882.0,-2658.0,570.0,254.0,-196.0,624.0,0.574,0.243,0.671,-0.402
139677,-10646.0,-1980.0,-58.0,223.0,-231.0,655.0,0.577,0.247,0.668,-0.4
139699,-11560.0,-2776.0,-422.0,146.0,-242.0,723.0,0.581,0.252,0.664,-0.398
139721,-12716.0,-3650.0,-622.0,134.0,-294.0,969.0,0.586,0.257,0.66,-0.394
139733,-13494.0,-3298.0,-540.0,-22.0,-281.0,1037.0,0.591,0.262,0.656,-0.389
139755,-14030.0,-3242.0,88.0,-126.0,-252.0,980.0,0.597,0.267,0.653,-0.383
139767,-14500.0,-3626.0,528.0,-88.0,-146.0,704.0,0.6,0.27,0.65,-0.379
139789,-14780.0,-3428.0,266.0,-44.0,18.0,494.0,0.602,0.273,0.649,-0.376
139801,-14450.0,-3470.0,152.0,253.0,940.0,71.0,0.596,0.278,0.654,-0.374
139823,-13488.0,-1138.0,244.0,-38.0,483.0,-377.0,0.592,0.277,0.657,-0.375
139835,-12986.0,-3040.0,90.0,-286.0,516.0,-501.0,0.588,0.274,0.663,-0.375
139857,-12260.0,-2122.0,-2.0,0.0,625.0,-840.0,0.581,0.271,0.668,-0.378
139879,-11546.0,-2192.0,-398.0,-172.0,636.0,-823.0,0.574,0.267,0.674,-0.38
139891,-11270.0,-2094.0,-80.0,-139.0,598.0,-906.0,0.568,0.263,0.68,-0.382
139913,-10622.0,-920.0,64.0,-231.0,544.0,-1051.0,0.561,0.257,0.686,-0.385
139925,-9784.0,-2478.0,524.0,-323.0,495.0,-892.0,0.555,0.252,0.692,-0.386
139947,-9240.0,-1618.0,546.0,-228.0,521.0,-754.0,0.55,0.248,0.697,-0.388
139959,-9650.0,-2470.0,-414.0,-298.0,547.0,-729.0,0.544,0.244,0.703,-0.388
139981,-9214.0,-2852.0,-216.0,-144.0,566.0,-439.0,0.539,0.242,0.707,-0.389
139993,-9496.0,-2340.0,246.0,-155.0,509.0,-212.0,0.535,0.242,0.711,-0.388
140015,-8968.0,-1922.0,702.0,-107.0,481.0,-309.0,0.531,0.241,0.714,-0.387
140027,-8982.0,-2578.0,-170.0,65.0,340.0,-203.0,0.528,0.242,0.716,-0.388
140049,-8034.0,-2472.0,102.0,187.0,171.0,60.0,0.526,0.244,0.716,-0.389
140071,-7930.0,-2116.0,400.0,157.0,58.0,255.0,0.527,0.247,0.714,-0.389
140083,-7124.0,-1842.0,526.0,99.0,-52.0,343.0,0.528,0.249,0.713,-0.388
140105,-7094.0,-2040.0,-648.0,33.0,-153.0,391.0,0.531,0.252,0.711,-0.387
140117,-7260.0,-3306.0,-974.0,-64.0,-258.0,487.0,0.534,0.254,0.709,-0.385
140139,-6582.0,-1474.0,-310.0,-60.0,-255.0,614.0,0.538,0.257,0.706,-0.382
140151,-6740.0,-2150.0,224.0,-346.0,-271.0,684.0,0.543,0.259,0.704,-0.377
140173,-6408.0,-2188.0,174.0,-380.0,-330.0,711.0,0.548,0.26,0.702,-0.372
140185,-6606.0,-1962.0,-792.0,-358.0,-391.0,672.0,0.554,0.262,0.7,-0.368
140207,-6392.0,-1430.0,1046.0,-112.0,-396.0,760.0,0.559,0.265,0.696,-0.364
140229,-7382.0,-2498.0,-364.0,-184.0,-441.0,908.0,0.566,0.268,0.692,-0.359
140241,-7112.0,-1518.0,-204.0,-98.0,-535.0,1006.0,0.573,0.273,0.687,-0.355
140263,-7174.0,-2620.0,488.0,-262.0,-536.0,1027.0,0.58,0.276,0.682,-0.349
140275,-6848.0,-2160.0,384.0,-85.0,-591.0,1088.0,0.588,0.28,0.676,-0.345
140297,-7104.0,-1344.0,42.0,-48.0,-582.0,1190.0,0.595,0.286,0.67,-0.339
140309,-6922.0,-2546.0,414.0,-74.0,-636.0,1215.0,0.603,0.291,0.664,-0.334
140331,-7474.0,-2822.0,110.0,-67.0,-655.0,1357.0,0.611,0.296,0.656,-0.328
140343,-6182.0,-862.0,340.0,220.0,-688.0,1280.0,0.619,0.303,0.648,-0.324
140365,-6760.0,-2460.0,820.0,138.0,-722.0,1345.0,0.627,0.31,0.64,-0.319
140377,-5368.0,-920.0,-556.0,355.0,-688.0,1240.0,0.633,0.317,0.631,-0.316
140400,-5706.0,984.0,276.0,4.0,-893.0,1264.0,0.642,0.322,0.622,-0.311
140422,-4018.0,-488.0,1766.0,-540.0,-858.0,1090.0,0.652,0.323,0.615,-0.304
140434,-2816.0,-906.0,1680.0,-406.0,-923.0,837.0,0.661,0.322,0.608,-0.299
140456,-2320.0,-1120.0,1756.0,-251.0,-708.0,507.0,0.667,0.322,0.603,-0.297
140468,-3024.0,-2064.0,748.0,-75.0,-456.0,332.0,0.671,0.322,0.599,-0.296
140490,-3432.0,-1930.0,-224.0,-72.0,-347.0,10.0,0.673,0.321,0.597,-0.297
140502,-2520.0,-506.0,-646.0,-297.0,-111.0,-395.0,0.673,0.316,0.598,-0.298
140524,-1988.0,-888.0,526.0,-469.0,110.0,-822.0,0.672,0.309,0.603,-0.3
140536,-1162.0,-1638.0,1238.0,-232.0,340.0,-1196.0,0.667,0.302,0.609,-0.306
140558,-1130.0,-1774.0,1094.0,167.0,609.0,-1573.0,0.658,0.296,0.616,-0.315
140570,-1444.0,-1326.0,834.0,344.0,907.0,-1735.0,0.647,0.291,0.625,-0.325
140592,-1902.0,-626.0,1218.0,287.0,1093.0,-1774.0,0.634,0.286,0.636,-0.335
140614,-2330.0,-558.0,254.0,55.0,1178.0,-1810.0,0.621,0.28,0.647,-0.343
140626,-4216.0,-2426.0,1124.0,-66.0,1136.0,-1721.0,0.609,0.273,0.658,-0.35
140648,-3596.0,664.0,1570.0,28.0,1060.0,-1759.0,0.596,0.266,0.668,-0.357
140660,-5338.0,-2482.0,1490.0,-126.0,976.0,-1588.0,0.585,0.258,0.678,-0.363
140682,-6336.0,-1998.0,374.0,-21.0,896.0,-1375.0,0.574,0.253,0.686,-0.368
140694,-6600.0,-2466.0,730.0,-95.0,749.0,-1141.0,0.565,0.248,0.693,-0.372
140716,-7916.0,-4440.0,-604.0,-202.0,552.0,-894.0,0.559,0.243,0.698,-0.375
140728,-8040.0,-2404.0,158.0,-3.0,378.0,-603.0,0.555,0.241,0.702,-0.377
140750,-7972.0,-2080.0,1236.0,182.0,263.0,-395.0,0.551,0.24,0.703,-0.38
140772,-8568.0,-3456.0,758.0,427.0,80.0,-153.0,0.549,0.242,0.702,-0.384
140784,-8142.0,-2866.0,700.0,776.0,-40.0,42.0,0.548,0.246,0.699,-0.389
140806,-8114.0,-1898.0,-494.0,972.0,-139.0,162.0,0.547,0.252,0.694,-0.395
140818,-8752.0,-2746.0,-392.0,905.0,-236.0,312.0,0.548,0.257,0.689,-0.4
140840,-8114.0,-2836.0,-1190.0,1010.0,-206.0,479.0,0.548,0.265,0.683,-0.404
140852,-8858.0,-1418.0,-1622.0,1112.0,-526.0,76.0,0.549,0.269,0.676,-0.412
140874,-8278.0,-348.0,1202.0,1174.0,-369.0,-94.0,0.548,0.273,0.669,-0.421
140886,-9006.0,-1086.0,924.0,1702.0,-516.0,-316.0,0.546,0.278,0.661,-0.434
140908,-9200.0,-1000.0,-244.0,1727.0,-735.0,-278.0,0.545,0.281,0.65,-0.448
140920,-10210.0,-2874.0,-488.0,2039.0,-845.0,-63.0,0.545,0.288,0.638,-0.463
140943,-10542.0,-3106.0,142.0,2545.0,-892.0,151.0,0.544,0.297,0.622,-0.479
140965,-10772.0,-1614.0,-1016.0,2602.0,-941.0,448.0,0.544,0.308,0.604,-0.494
140977,-11080.0,-2708.0,-490.0,2438.0,-1037.0,733.0,0.546,0.32,0.586,-0.506
140999,-11028.0,-2990.0,-30.0,2997.0,-1197.0,928.0,0.549,0.334,0.562,-0.521
141011,-11780.0,-3354.0,920.0,3217.0,-1187.0,1259.0,0.551,0.35,0.537,-0.534
141033,-12274.0,-4094.0,510.0,3284.0,-1248.0,1643.0,0.555,0.368,0.509,-0.545
141045,-11990.0,-2960.0,-328.0,3464.0,-1429.0,1796.0,0.559,0.387,0.478,-0.556
141067,-11412.0,-2168.0,1054.0,3652.0,-1586.0,1792.0,0.563,0.404,0.444,-0.567
141079,-11046.0,-1664.0,1628.0,3752.0,-1760.0,1811.0,0.566,0.421,0.409,-0.579
141101,-10554.0,-516.0,1970.0,3467.0,-1894.0,1889.0,0.57,0.436,0.373,-0.588
141123,-9396.0,-228.0,2378.0,3403.0,-2077.0,1815.0,0.573,0.448,0.336,-0.598
141135,-8840.0,1162.0,2072.0,3468.0,-2166.0,1549.0,0.574,0.459,0.298,-0.609
141157,-7442.0,614.0,2198.0,3419.0,-2236.0,1102.0,0.571,0.468,0.262,-0.622
141169,-6436.0,2196.0,2410.0,3091.0,-2186.0,1446.0,0.571,0.475,0.226,-0.631
141191,-6378.0,2940.0,1800.0,2398.0,-2228.0,1065.0,0.571,0.476,0.195,-0.64
141203,-4908.0,2914.0,2754.0,2344.0,-2143.0,638.0,0.568,0.477,0.167,-0.65
141225,-3880.0,3234.0,2998.0,2649.0,-1896.0,903.0,0.564,0.481,0.137,-0.657
141237,-3850.0,4538.0,2304.0,2904.0,-1667.0,1364.0,0.561,0.487,0.104,-0.661
141259,-3504.0,6498.0,3096.0,3033.0,-1498.0,1272.0,0.557,0.495,0.071,-0.663
141281,-3536.0,6740.0,3104.0,2885.0,-1250.0,1204.0,0.552,0.503,0.04,-0.664
141293,-3882.0,6754.0,3244.0,2586.0,-1146.0,1278.0,0.548,0.509,0.012,-0.663
141315,-3518.0,6982.0,3616.0,2528.0,-1027.0,1257.0,0.544,0.516,-0.016,-0.662
141327,-3760.0,7436.0,3574.0,2456.0,-998.0,1211.0,0.539,0.522,-0.042,-0.66
141349,-3468.0,8414.0,4012.0,2157.0,-981.0,1137.0,0.535,0.526,-0.066,-0.658
141361,-3454.0,8386.0,4738.0,1751.0,-976.0,936.0,0.532,0.528,-0.086,-0.657
141383,-3534.0,8080.0,4356.0,1441.0,-1021.0,705.0,0.528,0.528,-0.103,-0.657
141395,-3338.0,7512.0,4072.0,1401.0,-1166.0,821.0,0.525,0.527,-0.121,-0.657
141412,-2898.0,8366.0,3644.0,1362.0,-1192.0,903.0,0.522,0.526,-0.14,-0.657
141434,-2940.0,9178.0,3998.0,1061.0,-1275.0,915.0,0.521,0.522,-0.157,-0.657
141446,-3138.0,8878.0,4498.0,874.0,-1382.0,333.0,0.517,0.517,-0.171,-0.661
141468,-2800.0,8942.0,4028.0,467.0,-1423.0,172.0,0.513,0.51,-0.181,-0.666
141490,-2630.0,7980.0,3310.0,266.0,-1356.0,516.0,0.513,0.502,-0.192,-0.67
141502,-2624.0,7746.0,2472.0,365.0,-1430.0,638.0,0.512,0.494,-0.205,-0.672
141524,-2178.0,8758.0,3422.0,452.0,-1520.0,654.0,0.511,0.485,-0.218,-0.675
141536,-2280.0,9046.0,3908.0,269.0,-1543.0,559.0,0.511,0.475,-0.229,-0.679
141558,-2064.0,8438.0,3534.0,46.0,-1576.0,448.0,0.51,0.465,-0.239,-0.684
141570,-1990.0,7544.0,2618.0,-57.0,-1597.0,309.0,0.508,0.453,-0.248,-0.689
141592,-1590.0,7068.0,3798.0,1.0,-1673.0,154.0,0.506,0.442,-0.257,-0.695
141604,-1368.0,7994.0,3676.0,96.0,-1619.0,53.0,0.502,0.432,-0.265,-0.701
141626,-1420.0,8418.0,3540.0,14.0,-1550.0,71.0,0.498,0.422,-0.273,-0.707
141648,-1104.0,6900.0,3554.0,-151.0,-1478.0,33.0,0.495,0.411,-0.279,-0.713
141660,-1060.0,6300.0,3724.0,-101.0,-1437.0,42.0,0.492,0.401,-0.286,-0.718
141682,-946.0,7332.0,3652.0,59.0,-1373.0,68.0,0.489,0.391,-0.293,-0.722
