timeMs,ax,ay,az,gx,gy,gz,q0,q1,q2,q3
1284880,-7469.0,-1835.0,1127.0,1036.0,-149.0,442.0,0.248,-0.581,0.079,0.771
1284903,-7181.0,-1541.0,1623.0,1273.0,-160.0,389.0,0.252,-0.577,0.09,0.772
1284916,-7191.0,-1331.0,1721.0,1533.0,-229.0,454.0,0.257,-0.571,0.102,0.773
1284939,-7217.0,-1367.0,1249.0,1671.0,-300.0,547.0,0.262,-0.565,0.117,0.774
1284952,-7151.0,-991.0,1389.0,1796.0,-334.0,487.0,0.269,-0.557,0.131,0.775
1284975,-7187.0,-973.0,1843.0,1899.0,-448.0,294.0,0.277,-0.549,0.145,0.775
1284988,-6687.0,-1051.0,2251.0,1996.0,-535.0,328.0,0.285,-0.539,0.16,0.776
1285011,-6997.0,-621.0,1933.0,2387.0,-723.0,384.0,0.295,-0.527,0.177,0.777
1285024,-7243.0,-677.0,2073.0,2368.0,-842.0,637.0,0.304,-0.513,0.195,0.779
1285047,-6813.0,-61.0,1805.0,2467.0,-807.0,468.0,0.314,-0.499,0.213,0.779
1285060,-6961.0,-161.0,2217.0,2687.0,-826.0,161.0,0.327,-0.485,0.231,0.778
1285073,-6703.0,203.0,2527.0,2824.0,-998.0,227.0,0.34,-0.468,0.249,0.777
1285096,-6743.0,315.0,2597.0,2937.0,-1197.0,370.0,0.353,-0.449,0.268,0.776
1285109,-6843.0,319.0,2581.0,3114.0,-1330.0,337.0,0.366,-0.428,0.288,0.774
1285132,-6481.0,891.0,1719.0,3195.0,-1345.0,336.0,0.38,-0.406,0.308,0.772
1285145,-6471.0,975.0,2903.0,3279.0,-1335.0,346.0,0.394,-0.384,0.328,0.768
1285168,-6265.0,1935.0,3507.0,3202.0,-1447.0,500.0,0.406,-0.36,0.347,0.765
1285181,-5729.0,1935.0,2969.0,3205.0,-1475.0,566.0,0.417,-0.335,0.366,0.761
1285194,-6107.0,1543.0,2275.0,3298.0,-1399.0,564.0,0.428,-0.31,0.386,0.756
1285217,-5945.0,2481.0,3225.0,3383.0,-1340.0,596.0,0.439,-0.284,0.406,0.75
1285230,-5555.0,3387.0,3871.0,3397.0,-1306.0,746.0,0.447,-0.258,0.426,0.743
1291583,-685.0,9333.0,815.0,-249.0,451.0,-96.0,0.355,0.253,0.568,0.698
1291586,-599.0,8703.0,2365.0,-613.0,423.0,87.0,0.354,0.248,0.565,0.703
1291590,-787.0,8985.0,2633.0,-808.0,297.0,105.0,0.353,0.244,0.561,0.708
1291593,-421.0,8437.0,2559.0,-900.0,130.0,73.0,0.354,0.241,0.555,0.713
1291596,-461.0,7875.0,3175.0,-534.0,-33.0,97.0,0.355,0.24,0.551,0.716
1291599,33.0,7427.0,3143.0,-109.0,-91.0,164.0,0.354,0.241,0.549,0.717
1291603,381.0,7155.0,2851.0,294.0,-74.0,102.0,0.353,0.243,0.551,0.716
1291606,217.0,7591.0,2523.0,363.0,-122.0,81.0,0.352,0.245,0.552,0.714
1291609,543.0,7591.0,2315.0,334.0,-177.0,83.0,0.352,0.248,0.554,0.713
1291612,731.0,7645.0,2037.0,294.0,-210.0,30.0,0.352,0.251,0.555,0.711
1291616,553.0,7731.0,2117.0,273.0,-187.0,-3.0,0.352,0.253,0.556,0.709
1291619,509.0,7823.0,2165.0,231.0,-146.0,-32.0,0.352,0.255,0.557,0.707
1291622,437.0,7893.0,2049.0,204.0,-100.0,-59.0,0.353,0.256,0.558,0.706
1291625,415.0,7687.0,2049.0,215.0,-1.0,-87.0,0.352,0.256,0.56,0.705
1291629,107.0,8243.0,1773.0,240.0,139.0,-98.0,0.352,0.256,0.562,0.704
1291632,-111.0,8319.0,1571.0,223.0,231.0,-56.0,0.35,0.255,0.565,0.703
1291635,-365.0,8271.0,1703.0,264.0,221.0,-6.0,0.348,0.254,0.567,0.702
1291639,-595.0,8185.0,1461.0,263.0,224.0,-36.0,0.347,0.253,0.57,0.701
1291642,-693.0,8625.0,1227.0,158.0,221.0,-24.0,0.345,0.252,0.572,0.7
1291645,-825.0,8317.0,1517.0,86.0,203.0,22.0,0.344,0.251,0.573,0.7
1291648,-891.0,8053.0,1871.0,37.0,216.0,49.0,0.342,0.25,0.574,0.701
1291652,-803.0,7777.0,2011.0,60.0,201.0,43.0,0.341,0.249,0.575,0.701
1291655,-755.0,7717.0,1757.0,82.0,222.0,58.0,0.339,0.248,0.576,0.701
1291658,-653.0,7763.0,1631.0,96.0,230.0,12.0,0.337,0.247,0.577,0.702
1291661,-643.0,7945.0,1703.0,113.0,203.0,4.0,0.336,0.246,0.579,0.701
1291665,-919.0,7927.0,1337.0,31.0,182.0,20.0,0.335,0.245,0.579,0.702
1291668,-837.0,8369.0,1835.0,46.0,137.0,-8.0,0.334,0.244,0.58,0.702
1291671,-573.0,8087.0,1515.0,25.0,57.0,11.0,0.333,0.244,0.581,0.702
1291674,-585.0,8347.0,1477.0,-21.0,9.0,16.0,0.333,0.244,0.581,0.702
1291687,-407.0,8015.0,1461.0,-39.0,3.0,15.0,0.333,0.244,0.58,0.702
1291700,-463.0,7689.0,1555.0,14.0,-10.0,-15.0,0.333,0.244,0.58,0.702
1291713,-363.0,7915.0,1071.0,0.0,62.0,-71.0,0.333,0.243,0.581,0.702
1291736,-309.0,7713.0,1301.0,46.0,110.0,-67.0,0.333,0.242,0.582,0.702
1291749,-265.0,7607.0,1783.0,221.0,70.0,-175.0,0.333,0.241,0.584,0.7
1291772,-117.0,8307.0,1919.0,227.0,-3.0,-227.0,0.334,0.241,0.586,0.698
1291785,-199.0,7647.0,2173.0,218.0,54.0,-174.0,0.334,0.24,0.588,0.697
1291798,-297.0,8619.0,1657.0,141.0,10.0,-170.0,0.335,0.24,0.589,0.696
1291821,-11.0,8149.0,1227.0,6.0,7.0,-155.0,0.335,0.239,0.589,0.695
1291834,-237.0,8349.0,1507.0,-55.0,42.0,-115.0,0.336,0.238,0.589,0.695
1291857,-213.0,7877.0,1769.0,-80.0,73.0,-117.0,0.336,0.237,0.589,0.695
1291870,-369.0,7949.0,1923.0,-45.0,90.0,-107.0,0.336,0.235,0.589,0.696
1291893,-487.0,8093.0,1847.0,-65.0,81.0,-100.0,0.337,0.234,0.589,0.696
1291906,-571.0,8133.0,1731.0,-95.0,47.0,-101.0,0.337,0.233,0.589,0.696
1291929,-435.0,8147.0,1755.0,-105.0,55.0,-78.0,0.338,0.232,0.589,0.697
1291942,-631.0,8209.0,1705.0,-149.0,52.0,-60.0,0.338,0.231,0.588,0.698
1291965,-673.0,8049.0,1737.0,-201.0,37.0,-35.0,0.338,0.229,0.587,0.699
1291978,-693.0,7845.0,1829.0,-161.0,58.0,-13.0,0.338,0.228,0.586,0.7
1291991,-781.0,7961.0,1845.0,-105.0,37.0,-35.0,0.338,0.228,0.586,0.7
1292014,-699.0,7727.0,1771.0,-28.0,56.0,-29.0,0.338,0.227,0.586,0.701
1292027,-781.0,7883.0,1769.0,30.0,67.0,-49.0,0.338,0.226,0.586,0.7
1292050,-919.0,8001.0,1867.0,1.0,68.0,-53.0,0.338,0.226,0.587,0.7
1292063,-811.0,7889.0,1865.0,-1.0,77.0,-41.0,0.338,0.225,0.587,0.7
1292086,-833.0,7763.0,1873.0,8.0,80.0,-43.0,0.338,0.224,0.587,0.701
1292099,-879.0,7991.0,1833.0,25.0,81.0,-40.0,0.337,0.223,0.588,0.7
1292122,-835.0,7937.0,1805.0,29.0,78.0,-31.0,0.337,0.223,0.588,0.7
1292135,-845.0,7933.0,1755.0,45.0,70.0,-19.0,0.337,0.222,0.589,0.7
1292148,-795.0,8111.0,1757.0,46.0,80.0,-4.0,0.336,0.222,0.589,0.7
1292171,-787.0,8103.0,1737.0,64.0,62.0,5.0,0.336,0.222,0.59,0.7
1292184,-681.0,8057.0,1781.0,65.0,55.0,24.0,0.335,0.222,0.591,0.7
1292207,-675.0,8107.0,1765.0,80.0,35.0,34.0,0.334,0.222,0.591,0.7
1292220,-723.0,7989.0,1689.0,61.0,47.0,48.0,0.334,0.222,0.592,0.7
1292243,-733.0,8149.0,1663.0,55.0,42.0,37.0,0.333,0.222,0.592,0.699
1292256,-647.0,8039.0,1713.0,39.0,55.0,50.0,0.332,0.222,0.592,0.7
1292279,-669.0,8121.0,1603.0,45.0,44.0,42.0,0.332,0.222,0.593,0.7
1292292,-643.0,8091.0,1603.0,39.0,23.0,53.0,0.331,0.223,0.593,0.7
1292315,-601.0,7925.0,1633.0,25.0,41.0,43.0,0.33,0.223,0.593,0.7
1292328,-719.0,8037.0,1725.0,45.0,22.0,24.0,0.33,0.223,0.593,0.7
1292341,-741.0,8071.0,1703.0,26.0,4.0,42.0,0.329,0.223,0.594,0.7
1292364,-553.0,7939.0,1499.0,32.0,26.0,45.0,0.329,0.223,0.594,0.7
1292377,-609.0,7975.0,1515.0,47.0,39.0,12.0,0.328,0.223,0.594,0.699
1292400,-631.0,7925.0,1615.0,67.0,48.0,14.0,0.328,0.223,0.595,0.699
1292413,-631.0,8027.0,1515.0,66.0,16.0,4.0,0.327,0.223,0.595,0.699
1292436,-541.0,8019.0,1575.0,46.0,22.0,-14.0,0.327,0.223,0.596,0.699
1292449,-663.0,7909.0,1429.0,42.0,32.0,-14.0,0.327,0.223,0.596,0.699
1292472,-747.0,8157.0,1547.0,34.0,16.0,-37.0,0.327,0.223,0.596,0.698
1292485,-573.0,7953.0,1509.0,22.0,40.0,-13.0,0.327,0.223,0.597,0.698
1292508,-643.0,8043.0,1621.0,15.0,43.0,-33.0,0.327,0.222,0.597,0.698
1292521,-595.0,8145.0,1605.0,-9.0,21.0,-29.0,0.327,0.222,0.597,0.698
1292534,-659.0,8063.0,1583.0,6.0,9.0,-16.0,0.327,0.222,0.597,0.698
1292557,-657.0,8055.0,1601.0,-22.0,14.0,-19.0,0.327,0.222,0.597,0.698
1292570,-641.0,8021.0,1593.0,-25.0,16.0,-20.0,0.327,0.221,0.597,0.698
1292593,-669.0,7945.0,1559.0,-25.0,40.0,-22.0,0.327,0.221,0.597,0.699
1292606,-783.0,8083.0,1673.0,-14.0,41.0,-15.0,0.326,0.22,0.597,0.699
1292629,-691.0,8067.0,1571.0,-13.0,50.0,-10.0,0.326,0.22,0.597,0.699
1292642,-745.0,8055.0,1621.0,5.0,38.0,-7.0,0.326,0.22,0.597,0.699
1292665,-663.0,8063.0,1573.0,1.0,31.0,8.0,0.326,0.22,0.597,0.699
1292678,-723.0,8015.0,1643.0,19.0,24.0,-5.0,0.326,0.22,0.598,0.699
1292691,-715.0,8053.0,1603.0,25.0,14.0,5.0,0.325,0.22,0.598,0.699
1292714,-645.0,7991.0,1523.0,19.0,12.0,7.0,0.325,0.22,0.598,0.699
1292727,-651.0,8139.0,1461.0,32.0,12.0,1.0,0.325,0.22,0.598,0.699
1292750,-695.0,8077.0,1477.0,26.0,7.0,-5.0,0.325,0.22,0.598,0.699
1292763,-687.0,8049.0,1585.0,21.0,16.0,-25.0,0.325,0.22,0.599,0.698
1292786,-823.0,8007.0,1589.0,0.0,34.0,-55.0,0.325,0.219,0.599,0.698
1292799,-603.0,8005.0,1471.0,-4.0,51.0,-16.0,0.325,0.219,0.599,0.699
1292822,-589.0,8001.0,1483.0,-6.0,80.0,-27.0,0.324,0.218,0.599,0.699
1292835,-565.0,8041.0,1371.0,-2.0,75.0,-24.0,0.324,0.217,0.6,0.699
1292858,-607.0,8009.0,1325.0,17.0,100.0,-41.0,0.324,0.217,0.6,0.699
1292871,-689.0,8031.0,1411.0,16.0,123.0,-44.0,0.323,0.216,0.601,0.699
1292884,-737.0,8083.0,1571.0,37.0,109.0,-46.0,0.323,0.215,0.601,0.699
1292907,-721.0,7995.0,1547.0,21.0,103.0,-37.0,0.322,0.214,0.602,0.699
1292920,-747.0,8033.0,1471.0,11.0,100.0,-46.0,0.322,0.213,0.602,0.699
1292943,-727.0,8037.0,1469.0,3.0,83.0,-31.0,0.321,0.212,0.603,0.699
1292956,-883.0,8115.0,1599.0,13.0,61.0,-20.0,0.321,0.212,0.603,0.699
1292979,-775.0,8059.0,1471.0,-4.0,50.0,-17.0,0.321,0.211,0.603,0.699
1292992,-897.0,8185.0,1587.0,-9.0,4.0,-14.0,0.321,0.211,0.603,0.699
1293015,-829.0,8119.0,1511.0,-26.0,-14.0,9.0,0.321,0.211,0.603,0.699
1293028,-809.0,8131.0,1479.0,-47.0,-9.0,2.0,0.321,0.211,0.603,0.699
1293051,-781.0,8029.0,1535.0,-67.0,-16.0,-2.0,0.321,0.211,0.602,0.7
1293064,-853.0,7999.0,1539.0,-64.0,-26.0,-13.0,0.321,0.211,0.602,0.7
1293077,-875.0,7993.0,1597.0,-69.0,-40.0,-3.0,0.322,0.211,0.601,0.7
1293100,-765.0,8037.0,1579.0,-72.0,-38.0,-19.0,0.322,0.211,0.601,0.701
1293113,-743.0,8045.0,1517.0,-72.0,-36.0,-10.0,0.323,0.211,0.6,0.701
1293136,-699.0,7877.0,1477.0,-47.0,3.0,-12.0,0.323,0.211,0.6,0.701
1293149,-813.0,7945.0,1583.0,-2.0,0.0,-44.0,0.323,0.21,0.6,0.701
1293172,-801.0,8023.0,1691.0,-3.0,5.0,-36.0,0.323,0.21,0.6,0.701
1293185,-757.0,7939.0,1513.0,10.0,3.0,-24.0,0.323,0.21,0.6,0.701
1293208,-723.0,7859.0,1549.0,10.0,2.0,-42.0,0.323,0.21,0.6,0.701
1293221,-779.0,8083.0,1655.0,36.0,-1.0,-47.0,0.323,0.21,0.601,0.7
1293244,-779.0,8147.0,1743.0,33.0,-27.0,-39.0,0.324,0.21,0.601,0.7
1293257,-813.0,7947.0,1949.0,44.0,-23.0,-23.0,0.324,0.21,0.601,0.7
1293270,-785.0,7843.0,1743.0,121.0,-34.0,-18.0,0.324,0.21,0.602,0.699
1293293,-755.0,7993.0,1695.0,132.0,-32.0,-20.0,0.324,0.211,0.602,0.698
1293306,-793.0,8267.0,1603.0,83.0,-46.0,-2.0,0.324,0.212,0.603,0.698
1293329,-809.0,8073.0,1501.0,6.0,-43.0,29.0,0.324,0.212,0.603,0.698
1293342,-779.0,7769.0,1681.0,24.0,-17.0,4.0,0.324,0.212,0.603,0.698
1293365,-821.0,8057.0,1631.0,69.0,13.0,8.0,0.324,0.212,0.603,0.697
1293378,-789.0,7967.0,1557.0,98.0,27.0,18.0,0.323,0.213,0.604,0.697
1293401,-761.0,7997.0,1535.0,103.0,36.0,7.0,0.323,0.213,0.605,0.696
1293414,-707.0,8075.0,1527.0,98.0,48.0,19.0,0.322,0.213,0.605,0.696
1293427,-765.0,7911.0,1601.0,113.0,80.0,13.0,0.321,0.213,0.606,0.696
1293450,-711.0,8067.0,1549.0,107.0,72.0,9.0,0.321,0.213,0.607,0.695
1293463,-607.0,8099.0,1401.0,78.0,71.0,11.0,0.32,0.213,0.608,0.695
1293486,-689.0,8093.0,1375.0,50.0,60.0,7.0,0.32,0.213,0.608,0.695
1293499,-847.0,8035.0,1581.0,51.0,39.0,24.0,0.319,0.213,0.609,0.695
1293522,-627.0,8065.0,1351.0,74.0,25.0,11.0,0.319,0.213,0.609,0.694
1293535,-589.0,8043.0,1277.0,97.0,42.0,-22.0,0.318,0.213,0.61,0.694
1293558,-637.0,7909.0,1225.0,110.0,61.0,-12.0,0.318,0.213,0.611,0.693
1293576,-721.0,7965.0,1219.0,137.0,69.0,-46.0,0.317,0.212,0.612,0.693
1293589,-649.0,8041.0,1301.0,149.0,87.0,-38.0,0.317,0.212,0.613,0.692
1293602,-727.0,7985.0,1283.0,139.0,111.0,-27.0,0.316,0.212,0.615,0.691
1293625,-811.0,8137.0,1259.0,166.0,94.0,-49.0,0.315,0.211,0.616,0.69
1293638,-677.0,8159.0,1147.0,148.0,108.0,-47.0,0.314,0.211,0.618,0.69
1293661,-781.0,8105.0,1077.0,126.0,112.0,-41.0,0.314,0.21,0.619,0.689
1293674,-749.0,8011.0,1153.0,126.0,104.0,-56.0,0.313,0.209,0.62,0.688
1293697,-863.0,8407.0,1171.0,92.0,98.0,-44.0,0.313,0.209,0.621,0.688
1293710,-885.0,8097.0,1181.0,62.0,87.0,6.0,0.312,0.209,0.622,0.688
1293733,-975.0,8009.0,995.0,66.0,106.0,-10.0,0.311,0.208,0.622,0.687
1293746,-1025.0,8389.0,1055.0,13.0,51.0,-21.0,0.311,0.208,0.623,0.687
1293769,-893.0,7959.0,1327.0,-3.0,51.0,21.0,0.31,0.207,0.623,0.688
1293782,-909.0,8045.0,1249.0,22.0,44.0,14.0,0.31,0.207,0.623,0.688
1293795,-993.0,8055.0,1255.0,34.0,43.0,11.0,0.31,0.207,0.623,0.688
1293818,-979.0,8157.0,1203.0,59.0,38.0,17.0,0.309,0.207,0.624,0.687
1293831,-1003.0,7927.0,1117.0,60.0,26.0,14.0,0.309,0.207,0.624,0.687
1293854,-955.0,8257.0,1061.0,69.0,4.0,1.0,0.308,0.207,0.625,0.687
1293867,-885.0,8113.0,979.0,44.0,9.0,25.0,0.308,0.207,0.625,0.687
1293890,-927.0,8261.0,1051.0,-23.0,-26.0,30.0,0.308,0.208,0.625,0.687
1293903,-795.0,8071.0,1241.0,-9.0,-39.0,32.0,0.308,0.208,0.625,0.687
1293926,-931.0,7945.0,1031.0,-23.0,-39.0,33.0,0.308,0.208,0.624,0.687
1293939,-925.0,8167.0,1085.0,-43.0,-54.0,45.0,0.308,0.209,0.624,0.687
1293962,-731.0,8025.0,1043.0,-35.0,-54.0,41.0,0.308,0.209,0.623,0.688
1293975,-747.0,8049.0,1037.0,-1.0,-10.0,28.0,0.308,0.21,0.623,0.688
1293988,-841.0,8139.0,1067.0,6.0,-32.0,16.0,0.308,0.21,0.623,0.688
1294011,-747.0,8013.0,1021.0,15.0,8.0,28.0,0.307,0.21,0.623,0.688
1294024,-733.0,7965.0,1039.0,19.0,20.0,10.0,0.307,0.21,0.623,0.688
1294047,-789.0,8045.0,1089.0,33.0,24.0,0.0,0.307,0.21,0.624,0.688
1294060,-781.0,7969.0,1081.0,42.0,37.0,8.0,0.307,0.21,0.624,0.687
1294083,-763.0,8133.0,943.0,41.0,49.0,7.0,0.306,0.21,0.624,0.687
1294096,-761.0,8031.0,1023.0,54.0,26.0,-10.0,0.306,0.21,0.625,0.687
1294119,-777.0,8381.0,1221.0,60.0,-13.0,5.0,0.306,0.21,0.625,0.687
1294132,-647.0,8111.0,1023.0,9.0,-21.0,11.0,0.306,0.21,0.625,0.687
1294145,-731.0,8079.0,953.0,0.0,-7.0,-8.0,0.306,0.21,0.625,0.687
1294168,-797.0,8073.0,1209.0,19.0,-27.0,-9.0,0.306,0.21,0.625,0.686
1294181,-719.0,8099.0,1057.0,13.0,-19.0,-2.0,0.306,0.211,0.625,0.686
1294204,-781.0,8109.0,987.0,-5.0,-19.0,0.0,0.306,0.211,0.625,0.686
1294217,-767.0,8193.0,1009.0,-21.0,-42.0,-13.0,0.306,0.211,0.625,0.686
1294240,-739.0,8093.0,1069.0,-17.0,-27.0,-6.0,0.306,0.211,0.625,0.686
1294253,-761.0,8081.0,969.0,-21.0,-16.0,-8.0,0.306,0.211,0.625,0.687
1294276,-731.0,8039.0,1017.0,-23.0,0.0,-14.0,0.306,0.211,0.625,0.687
1294289,-781.0,8121.0,1193.0,-8.0,10.0,-16.0,0.306,0.211,0.625,0.687
1294312,-859.0,8055.0,1145.0,1.0,0.0,-10.0,0.306,0.21,0.625,0.687
1294325,-755.0,8041.0,1055.0,-6.0,24.0,-6.0,0.306,0.21,0.625,0.687
1294338,-747.0,8065.0,1033.0,-13.0,32.0,-10.0,0.306,0.21,0.625,0.687
1294361,-777.0,8105.0,995.0,-19.0,30.0,-12.0,0.306,0.21,0.625,0.687
1294374,-871.0,8177.0,1273.0,-11.0,-5.0,-5.0,0.306,0.21,0.625,0.687
1294397,-817.0,8147.0,1059.0,-28.0,2.0,7.0,0.306,0.209,0.625,0.687
1294410,-747.0,8039.0,1035.0,-26.0,-4.0,-4.0,0.306,0.209,0.624,0.688
1294433,-821.0,8023.0,1013.0,-16.0,22.0,-10.0,0.306,0.209,0.624,0.688
1294446,-817.0,8195.0,1341.0,8.0,7.0,-9.0,0.305,0.209,0.625,0.688
1294469,-797.0,8111.0,1067.0,-3.0,-3.0,7.0,0.305,0.209,0.625,0.688
1294482,-741.0,8087.0,1013.0,-8.0,-8.0,-7.0,0.305,0.209,0.624,0.688
1294505,-807.0,8017.0,989.0,-8.0,12.0,-4.0,0.305,0.209,0.624,0.688
1294518,-811.0,8135.0,1223.0,-2.0,7.0,-8.0,0.305,0.209,0.624,0.688
1294531,-857.0,8013.0,1035.0,-5.0,8.0,2.0,0.305,0.209,0.624,0.688
1294554,-763.0,8115.0,1031.0,-26.0,-6.0,-4.0,0.305,0.209,0.624,0.688
1294567,-735.0,8191.0,1097.0,-35.0,-2.0,-1.0,0.305,0.209,0.624,0.688
1294590,-851.0,8141.0,1139.0,-30.0,-8.0,10.0,0.305,0.209,0.624,0.689
1294603,-753.0,8103.0,1077.0,-40.0,-4.0,2.0,0.305,0.209,0.624,0.689
1294626,-805.0,8177.0,1139.0,-43.0,-8.0,12.0,0.305,0.209,0.623,0.689
1294639,-781.0,8035.0,1077.0,-51.0,-13.0,13.0,0.305,0.209,0.623,0.689
1294662,-735.0,8045.0,1119.0,-49.0,-15.0,-7.0,0.305,0.209,0.623,0.69
1294675,-809.0,8009.0,1161.0,-46.0,-4.0,5.0,0.305,0.208,0.622,0.69
1294688,-743.0,8035.0,1091.0,-40.0,7.0,1.0,0.305,0.208,0.622,0.69
1294711,-733.0,8069.0,1153.0,-34.0,8.0,-11.0,0.305,0.208,0.622,0.69
1294724,-789.0,8097.0,1135.0,-25.0,17.0,-2.0,0.305,0.208,0.622,0.691
1294747,-819.0,8023.0,1101.0,-21.0,25.0,-11.0,0.305,0.208,0.622,0.691
1294760,-775.0,8041.0,1179.0,-16.0,32.0,-14.0,0.305,0.207,0.622,0.691
1294783,-827.0,8079.0,1269.0,-9.0,35.0,-10.0,0.305,0.207,0.622,0.691
1294796,-773.0,8033.0,1185.0,-8.0,20.0,-7.0,0.305,0.207,0.622,0.691
1294819,-787.0,8067.0,1187.0,-6.0,20.0,-3.0,0.305,0.207,0.622,0.691
1294832,-765.0,8107.0,1257.0,3.0,22.0,-2.0,0.305,0.207,0.622,0.691
1294855,-797.0,8029.0,1125.0,11.0,30.0,-2.0,0.304,0.206,0.622,0.691
1294868,-797.0,8141.0,1189.0,-2.0,16.0,-3.0,0.304,0.206,0.622,0.691
1294881,-755.0,8029.0,1217.0,1.0,7.0,6.0,0.304,0.206,0.622,0.691
1294904,-757.0,7997.0,1153.0,-1.0,9.0,-5.0,0.304,0.206,0.622,0.691
1294917,-765.0,8085.0,1249.0,6.0,2.0,-2.0,0.304,0.206,0.622,0.691
1294940,-725.0,8053.0,1151.0,5.0,7.0,5.0,0.304,0.206,0.622,0.691
1294953,-709.0,8001.0,1083.0,12.0,21.0,-10.0,0.304,0.206,0.622,0.691
1294976,-815.0,8103.0,1291.0,31.0,11.0,-15.0,0.304,0.206,0.623,0.691
1294989,-751.0,8029.0,1163.0,18.0,4.0,3.0,0.304,0.206,0.623,0.691
1295012,-757.0,8097.0,1103.0,15.0,13.0,-6.0,0.303,0.206,0.623,0.691
1295025,-787.0,8081.0,1217.0,15.0,2.0,-8.0,0.303,0.206,0.623,0.691
1295048,-817.0,8111.0,1237.0,26.0,-3.0,0.0,0.303,0.206,0.623,0.691
1295061,-703.0,8069.0,1057.0,19.0,3.0,-10.0,0.303,0.206,0.623,0.691
1295074,-785.0,8113.0,977.0,-1.0,3.0,-15.0,0.303,0.206,0.623,0.691
1295097,-755.0,8017.0,1193.0,-5.0,-5.0,-8.0,0.303,0.206,0.623,0.691
1295110,-849.0,8077.0,1205.0,-4.0,-3.0,-10.0,0.303,0.206,0.623,0.691
1295133,-761.0,8077.0,1071.0,-1.0,4.0,-17.0,0.303,0.206,0.623,0.691
1295146,-729.0,7991.0,1089.0,1.0,21.0,-16.0,0.303,0.206,0.624,0.691
1295169,-793.0,8081.0,1145.0,16.0,25.0,-20.0,0.303,0.205,0.624,0.691
1295182,-845.0,8067.0,1211.0,23.0,9.0,-14.0,0.303,0.205,0.624,0.69
1295205,-807.0,8099.0,1021.0,9.0,21.0,-16.0,0.303,0.205,0.624,0.69
1295218,-763.0,8087.0,1043.0,7.0,22.0,-16.0,0.303,0.205,0.624,0.69
1295231,-745.0,8023.0,1065.0,10.0,26.0,-20.0,0.303,0.205,0.624,0.69
1295254,-909.0,8205.0,1259.0,11.0,18.0,-17.0,0.303,0.204,0.625,0.69
1295267,-871.0,8109.0,1187.0,11.0,4.0,-8.0,0.303,0.204,0.625,0.69
1295290,-761.0,8109.0,1033.0,-1.0,7.0,-10.0,0.303,0.204,0.625,0.69
1295303,-827.0,8045.0,1057.0,5.0,16.0,-14.0,0.303,0.204,0.625,0.69
1295326,-851.0,8137.0,1131.0,-8.0,5.0,-12.0,0.303,0.204,0.625,0.69
1295339,-839.0,8039.0,1325.0,1.0,-20.0,-4.0,0.303,0.204,0.625,0.69
1295362,-841.0,8115.0,1035.0,-10.0,-14.0,-1.0,0.303,0.204,0.625,0.69
1295375,-803.0,7959.0,1127.0,-5.0,6.0,-2.0,0.303,0.204,0.625,0.69
1295398,-859.0,8113.0,1095.0,-5.0,1.0,-10.0,0.303,0.204,0.625,0.69
1295411,-835.0,8057.0,1157.0,-5.0,7.0,0.0,0.303,0.204,0.625,0.69
1295424,-805.0,8067.0,1085.0,-7.0,7.0,-6.0,0.303,0.204,0.625,0.69
1295447,-809.0,7947.0,1189.0,-4.0,10.0,-3.0,0.303,0.204,0.625,0.69
1295460,-833.0,8083.0,1093.0,-2.0,21.0,-8.0,0.303,0.204,0.625,0.69
1295483,-805.0,8035.0,1027.0,0.0,29.0,-8.0,0.303,0.204,0.625,0.69
1295496,-781.0,8077.0,1077.0,-3.0,24.0,-9.0,0.302,0.204,0.625,0.69
1295519,-835.0,8093.0,1163.0,-2.0,20.0,-8.0,0.302,0.203,0.625,0.69
1295532,-889.0,8097.0,1187.0,-1.0,13.0,-10.0,0.302,0.203,0.625,0.69
1295555,-759.0,8055.0,1115.0,-6.0,10.0,-5.0,0.302,0.203,0.625,0.691
1295568,-811.0,8075.0,1157.0,-1.0,6.0,-11.0,0.302,0.203,0.625,0.691
1295586,-807.0,8061.0,1195.0,-7.0,5.0,9.0,0.302,0.203,0.625,0.691
1295599,-745.0,8107.0,1095.0,-5.0,-1.0,-6.0,0.302,0.203,0.625,0.691
1295622,-801.0,8065.0,1169.0,-11.0,1.0,1.0,0.302,0.203,0.625,0.691
1295635,-849.0,8121.0,1209.0,-10.0,0.0,-10.0,0.302,0.203,0.625,0.691
1295658,-799.0,8099.0,1115.0,-15.0,9.0,-2.0,0.302,0.203,0.625,0.691
1295671,-819.0,8109.0,1163.0,-6.0,4.0,-6.0,0.302,0.203,0.625,0.691
1295694,-811.0,8091.0,1109.0,-2.0,11.0,-8.0,0.302,0.203,0.625,0.691
1295707,-791.0,8023.0,1087.0,-5.0,19.0,-11.0,0.302,0.203,0.625,0.691
1295730,-805.0,8079.0,1245.0,-6.0,23.0,-12.0,0.302,0.202,0.625,0.691
1295743,-811.0,8065.0,1171.0,3.0,21.0,-9.0,0.302,0.202,0.625,0.691
1295766,-763.0,8103.0,1155.0,2.0,21.0,-7.0,0.301,0.202,0.625,0.691
1295779,-777.0,8131.0,1115.0,-3.0,20.0,-3.0,0.301,0.202,0.625,0.691
1295792,-821.0,8051.0,1135.0,3.0,7.0,-1.0,0.301,0.202,0.625,0.691
1295815,-779.0,8057.0,1147.0,8.0,8.0,-3.0,0.301,0.202,0.625,0.691
1295828,-783.0,8121.0,1123.0,9.0,15.0,-5.0,0.301,0.202,0.625,0.691
1295851,-755.0,8059.0,1099.0,12.0,9.0,-3.0,0.301,0.202,0.625,0.691
1295864,-799.0,8041.0,1135.0,12.0,16.0,-4.0,0.301,0.202,0.626,0.691
1295887,-861.0,8141.0,1081.0,-1.0,16.0,-11.0,0.301,0.201,0.626,0.691
1295900,-771.0,8053.0,1111.0,5.0,15.0,-13.0,0.301,0.201,0.626,0.691
1295923,-827.0,8083.0,1113.0,4.0,15.0,-20.0,0.301,0.201,0.626,0.691
1295936,-805.0,8063.0,1095.0,-8.0,14.0,-16.0,0.301,0.201,0.626,0.691
1295959,-837.0,8005.0,1207.0,-11.0,29.0,-20.0,0.3,0.201,0.626,0.691
1295972,-911.0,8033.0,1151.0,-8.0,24.0,-15.0,0.3,0.2,0.626,0.691
1295985,-807.0,8055.0,1117.0,-15.0,22.0,-18.0,0.3,0.2,0.626,0.691
1296008,-895.0,8089.0,1155.0,-1.0,18.0,-25.0,0.3,0.2,0.626,0.691
1296021,-921.0,8145.0,1205.0,-6.0,13.0,-14.0,0.3,0.2,0.626,0.691
1296044,-899.0,8109.0,1199.0,-2.0,8.0,-19.0,0.3,0.199,0.626,0.691
1296057,-893.0,8143.0,1145.0,0.0,15.0,-11.0,0.3,0.199,0.626,0.691
1296080,-879.0,8095.0,1125.0,-3.0,11.0,-11.0,0.3,0.199,0.626,0.691
1296093,-881.0,8047.0,1165.0,-3.0,11.0,-5.0,0.3,0.199,0.626,0.691
1296116,-915.0,8135.0,1191.0,6.0,7.0,-4.0,0.3,0.199,0.626,0.691
1296129,-847.0,8065.0,1143.0,4.0,12.0,1.0,0.3,0.199,0.626,0.691
1296142,-813.0,8141.0,1127.0,22.0,14.0,0.0,0.3,0.199,0.627,0.691
1296165,-823.0,8135.0,1091.0,21.0,26.0,1.0,0.3,0.199,0.627,0.691
1296178,-843.0,8085.0,1099.0,16.0,15.0,-6.0,0.3,0.199,0.627,0.691
1296201,-865.0,8099.0,1159.0,12.0,12.0,3.0,0.299,0.199,0.627,0.691
1296214,-837.0,8099.0,1113.0,15.0,7.0,-3.0,0.299,0.199,0.627,0.691
1296237,-749.0,8053.0,1087.0,14.0,15.0,3.0,0.299,0.199,0.627,0.691
1296250,-785.0,8029.0,1075.0,19.0,20.0,-9.0,0.299,0.199,0.627,0.691
1296273,-819.0,8129.0,1055.0,16.0,25.0,-4.0,0.299,0.199,0.628,0.691
1296286,-853.0,8093.0,1097.0,11.0,10.0,-2.0,0.299,0.199,0.628,0.691
1296309,-813.0,8071.0,1125.0,11.0,8.0,-4.0,0.299,0.199,0.628,0.691
1296322,-823.0,8075.0,1069.0,5.0,11.0,-14.0,0.299,0.199,0.628,0.691
1296335,-859.0,8163.0,1163.0,6.0,5.0,-7.0,0.299,0.199,0.628,0.691
1296358,-783.0,8087.0,1099.0,3.0,5.0,-8.0,0.299,0.199,0.628,0.691
1296371,-827.0,8097.0,1061.0,0.0,0.0,-14.0,0.299,0.199,0.628,0.691
1296394,-827.0,8079.0,1065.0,2.0,12.0,-11.0,0.299,0.198,0.628,0.691
1296407,-835.0,8033.0,1011.0,-6.0,18.0,-11.0,0.299,0.198,0.628,0.691
1296430,-847.0,8095.0,1085.0,-5.0,6.0,-14.0,0.299,0.198,0.628,0.691
1296443,-899.0,8061.0,1091.0,-3.0,9.0,-8.0,0.299,0.198,0.628,0.691
1296466,-879.0,8111.0,1101.0,-1.0,5.0,-8.0,0.299,0.198,0.628,0.691
1296479,-881.0,8083.0,1063.0,-5.0,7.0,-16.0,0.299,0.198,0.628,0.691
1296502,-905.0,8101.0,1139.0,-2.0,5.0,-11.0,0.299,0.198,0.628,0.691
1296515,-831.0,8105.0,1087.0,-4.0,9.0,-9.0,0.299,0.198,0.628,0.691
1296528,-871.0,8107.0,1059.0,-9.0,9.0,-9.0,0.298,0.198,0.628,0.691
1296551,-893.0,8125.0,1125.0,-9.0,3.0,-3.0,0.299,0.198,0.628,0.691
1296564,-847.0,8095.0,1063.0,-10.0,3.0,-9.0,0.299,0.197,0.628,0.691
1296587,-841.0,8069.0,1047.0,-15.0,7.0,-6.0,0.298,0.197,0.628,0.691
1296600,-887.0,8107.0,1095.0,-12.0,8.0,-11.0,0.298,0.197,0.628,0.691
1296623,-887.0,8079.0,1113.0,-16.0,5.0,-6.0,0.298,0.197,0.628,0.691
1296636,-841.0,8077.0,1147.0,-13.0,13.0,-5.0,0.298,0.197,0.628,0.691
1296659,-873.0,8141.0,1071.0,-22.0,4.0,-7.0,0.298,0.197,0.628,0.691
1296672,-853.0,8079.0,1105.0,-26.0,2.0,-7.0,0.298,0.197,0.628,0.692
1296685,-869.0,8121.0,1079.0,-31.0,3.0,-8.0,0.299,0.197,0.628,0.692
1296708,-865.0,8089.0,1063.0,-41.0,-11.0,-23.0,0.299,0.196,0.627,0.692
1296721,-813.0,8031.0,1105.0,-65.0,-15.0,-32.0,0.299,0.196,0.627,0.692
1296744,-869.0,7995.0,1191.0,-74.0,-18.0,-21.0,0.299,0.196,0.626,0.693
1296757,-947.0,8119.0,1163.0,-86.0,-19.0,-36.0,0.3,0.196,0.626,0.693
1296780,-799.0,7921.0,1255.0,-102.0,6.0,-44.0,0.3,0.195,0.625,0.693
1296793,-891.0,8129.0,1205.0,-96.0,13.0,-47.0,0.301,0.195,0.625,0.694
1296816,-859.0,8043.0,1173.0,-97.0,38.0,-53.0,0.301,0.194,0.624,0.694
1296829,-821.0,8005.0,1267.0,-103.0,44.0,-55.0,0.301,0.193,0.624,0.695
1296852,-881.0,7985.0,1413.0,-51.0,74.0,-67.0,0.301,0.192,0.624,0.695
1296865,-941.0,8023.0,1269.0,-42.0,75.0,-58.0,0.301,0.191,0.624,0.695
1296878,-827.0,7869.0,1381.0,-29.0,103.0,-69.0,0.301,0.19,0.624,0.696
1296901,-973.0,8035.0,1313.0,22.0,99.0,-58.0,0.301,0.189,0.625,0.695
1296914,-773.0,7901.0,1235.0,72.0,101.0,-73.0,0.301,0.188,0.625,0.695
1296937,-849.0,8099.0,1121.0,107.0,122.0,-85.0,0.3,0.187,0.627,0.694
1296950,-1091.0,8035.0,1261.0,113.0,95.0,-69.0,0.3,0.187,0.628,0.694
1296973,-929.0,8097.0,1121.0,91.0,106.0,-74.0,0.3,0.186,0.629,0.693
1296986,-1041.0,8157.0,1111.0,74.0,62.0,-75.0,0.3,0.185,0.629,0.693
1297009,-1089.0,7945.0,1179.0,51.0,65.0,-53.0,0.299,0.185,0.63,0.692
1297022,-1099.0,8121.0,1069.0,44.0,69.0,-48.0,0.299,0.184,0.631,0.692
1297045,-1059.0,8129.0,1133.0,16.0,58.0,-39.0,0.299,0.184,0.631,0.692
1297058,-1003.0,8037.0,1105.0,4.0,59.0,-30.0,0.299,0.183,0.631,0.692
1297071,-1075.0,8049.0,1155.0,-5.0,51.0,-36.0,0.299,0.182,0.631,0.692
1297094,-1139.0,8139.0,1189.0,-22.0,39.0,-14.0,0.299,0.182,0.631,0.692
1297107,-1091.0,8027.0,1157.0,-21.0,24.0,-10.0,0.299,0.182,0.631,0.692
1297130,-1047.0,7977.0,1307.0,2.0,29.0,-14.0,0.298,0.182,0.631,0.692
1297143,-1121.0,8135.0,1297.0,18.0,6.0,-14.0,0.298,0.181,0.632,0.692
1297166,-1067.0,7995.0,1247.0,29.0,18.0,13.0,0.298,0.182,0.632,0.692
1297179,-1107.0,8045.0,1159.0,40.0,6.0,-6.0,0.298,0.182,0.632,0.692
1297202,-1055.0,8161.0,1059.0,47.0,-5.0,13.0,0.298,0.182,0.632,0.692
1297215,-1031.0,7889.0,1113.0,44.0,16.0,17.0,0.298,0.182,0.633,0.691
1297228,-1079.0,8081.0,1103.0,52.0,6.0,4.0,0.297,0.182,0.633,0.691
1297251,-1093.0,8075.0,1115.0,53.0,17.0,8.0,0.297,0.182,0.633,0.691
1297264,-1135.0,8137.0,1053.0,50.0,28.0,15.0,0.297,0.182,0.634,0.691
1297287,-1085.0,8243.0,989.0,15.0,-2.0,6.0,0.297,0.182,0.634,0.691
1297300,-1001.0,8057.0,1085.0,-5.0,-32.0,22.0,0.297,0.183,0.634,0.691
1297323,-1083.0,8117.0,1053.0,-13.0,-42.0,31.0,0.297,0.183,0.633,0.691
1297336,-1051.0,8095.0,1097.0,-29.0,-75.0,35.0,0.297,0.184,0.633,0.691
1297359,-1157.0,8169.0,1045.0,-87.0,-164.0,52.0,0.298,0.185,0.632,0.691
1297372,-955.0,8453.0,1083.0,-209.0,-295.0,62.0,0.299,0.187,0.63,0.692
1297395,-823.0,8005.0,1009.0,-228.0,-213.0,110.0,0.3,0.188,0.627,0.694
1297408,-869.0,7869.0,1029.0,-163.0,-136.0,69.0,0.301,0.189,0.626,0.694
1297421,-903.0,7879.0,1071.0,-77.0,-74.0,28.0,0.301,0.189,0.625,0.695
1297444,-945.0,8053.0,1123.0,-29.0,-19.0,23.0,0.301,0.19,0.625,0.695
1297457,-973.0,8033.0,1145.0,-8.0,10.0,7.0,0.301,0.19,0.625,0.695
1297480,-993.0,8147.0,1103.0,13.0,13.0,-4.0,0.301,0.189,0.625,0.695
1297493,-925.0,7977.0,1055.0,10.0,49.0,5.0,0.3,0.189,0.625,0.695
1297516,-903.0,8003.0,1141.0,41.0,58.0,-17.0,0.3,0.189,0.626,0.695
1297529,-1007.0,8049.0,1211.0,35.0,73.0,-27.0,0.3,0.188,0.626,0.695
1297552,-1003.0,8225.0,1207.0,3.0,39.0,-22.0,0.3,0.188,0.626,0.695
1297565,-1013.0,8003.0,1173.0,-21.0,37.0,-4.0,0.299,0.188,0.626,0.695
1297593,-991.0,8181.0,1235.0,-14.0,30.0,-9.0,0.299,0.187,0.626,0.695
1297606,-879.0,8111.0,1171.0,-23.0,45.0,6.0,0.299,0.187,0.626,0.695
1297619,-987.0,8105.0,1257.0,-12.0,20.0,-4.0,0.299,0.187,0.626,0.695
1297632,-979.0,7989.0,1131.0,-21.0,18.0,5.0,0.299,0.187,0.626,0.696
1297655,-993.0,8065.0,1283.0,-15.0,4.0,-6.0,0.299,0.187,0.626,0.696
1297668,-945.0,8063.0,1287.0,-10.0,7.0,0.0,0.299,0.187,0.626,0.696
1297691,-877.0,8067.0,1151.0,-9.0,8.0,1.0,0.299,0.187,0.626,0.696
1297704,-963.0,8163.0,1165.0,-14.0,7.0,1.0,0.298,0.187,0.626,0.696
1297727,-983.0,7935.0,1451.0,-6.0,2.0,4.0,0.298,0.187,0.626,0.696
1297740,-1015.0,7985.0,1307.0,12.0,15.0,4.0,0.298,0.187,0.626,0.696
1297763,-933.0,8099.0,1211.0,-18.0,-11.0,11.0,0.298,0.187,0.626,0.696
1297776,-925.0,7923.0,1243.0,-26.0,-13.0,24.0,0.298,0.187,0.626,0.696
1297789,-1017.0,8051.0,1317.0,-14.0,-24.0,5.0,0.298,0.187,0.625,0.696
1297812,-959.0,8017.0,1253.0,-14.0,-14.0,18.0,0.298,0.187,0.625,0.697
1297825,-937.0,8115.0,1185.0,-27.0,-7.0,17.0,0.298,0.187,0.625,0.697
1297848,-903.0,8027.0,1189.0,-41.0,-4.0,18.0,0.298,0.187,0.625,0.697
1297861,-905.0,7901.0,1233.0,-27.0,17.0,13.0,0.298,0.187,0.624,0.697
1297884,-971.0,8185.0,1267.0,-19.0,5.0,12.0,0.298,0.187,0.624,0.697
1297897,-873.0,8005.0,1267.0,-17.0,15.0,23.0,0.298,0.187,0.624,0.698
1297920,-871.0,8089.0,1297.0,-17.0,20.0,21.0,0.297,0.187,0.624,0.698
1297933,-933.0,8175.0,1297.0,-20.0,9.0,28.0,0.297,0.187,0.624,0.698
1297946,-925.0,8069.0,1267.0,-30.0,-11.0,33.0,0.297,0.188,0.624,0.698
1297969,-909.0,7987.0,1349.0,-23.0,-15.0,26.0,0.297,0.188,0.623,0.699
1297982,-931.0,8031.0,1355.0,-9.0,-19.0,12.0,0.297,0.188,0.623,0.699
1298005,-913.0,8111.0,1267.0,-13.0,-17.0,20.0,0.297,0.188,0.623,0.699
1298018,-861.0,7969.0,1279.0,-11.0,-20.0,23.0,0.297,0.188,0.623,0.699
1298041,-895.0,7997.0,1283.0,-3.0,-5.0,10.0,0.297,0.189,0.623,0.699
1298054,-847.0,8041.0,1325.0,-6.0,5.0,12.0,0.297,0.189,0.623,0.699
1298077,-889.0,8035.0,1231.0,8.0,9.0,18.0,0.296,0.189,0.623,0.699
1298090,-813.0,8043.0,1237.0,12.0,9.0,9.0,0.296,0.189,0.623,0.699
1298113,-971.0,8041.0,1211.0,-1.0,11.0,10.0,0.296,0.189,0.623,0.699
1298126,-845.0,8067.0,1315.0,-4.0,2.0,13.0,0.296,0.189,0.623,0.699
1298139,-921.0,8011.0,1343.0,1.0,2.0,11.0,0.296,0.189,0.623,0.699
1298162,-825.0,8075.0,1263.0,2.0,1.0,7.0,0.296,0.189,0.623,0.699
1298175,-813.0,8057.0,1251.0,-8.0,-5.0,9.0,0.296,0.189,0.623,0.699
1298198,-811.0,8049.0,1281.0,2.0,-10.0,5.0,0.296,0.189,0.623,0.699
1298211,-879.0,8055.0,1269.0,9.0,-12.0,5.0,0.296,0.189,0.623,0.699
1298234,-849.0,8043.0,1251.0,11.0,-12.0,3.0,0.296,0.19,0.623,0.699
1298247,-869.0,7993.0,1269.0,21.0,-14.0,-2.0,0.296,0.19,0.623,0.699
1298270,-897.0,8025.0,1215.0,14.0,-8.0,-10.0,0.296,0.19,0.623,0.699
1298283,-843.0,8049.0,1221.0,11.0,-11.0,-10.0,0.296,0.19,0.623,0.699
1298306,-809.0,8057.0,1255.0,21.0,-2.0,-10.0,0.296,0.19,0.623,0.699
1298319,-783.0,8055.0,1169.0,11.0,10.0,-9.0,0.296,0.19,0.623,0.698
1298332,-871.0,8061.0,1225.0,3.0,9.0,-10.0,0.296,0.19,0.623,0.698
1298355,-913.0,8119.0,1267.0,-32.0,-8.0,-15.0,0.296,0.19,0.623,0.699
1298368,-919.0,8183.0,1155.0,-98.0,-47.0,-7.0,0.297,0.19,0.622,0.699
1298391,-835.0,8251.0,1263.0,-161.0,-70.0,10.0,0.297,0.19,0.621,0.7
1298404,-873.0,7999.0,1323.0,-139.0,-70.0,23.0,0.298,0.19,0.62,0.701
1298427,-915.0,8097.0,1353.0,-110.0,-74.0,2.0,0.298,0.19,0.619,0.701
1298440,-885.0,8035.0,1323.0,-90.0,-66.0,18.0,0.299,0.191,0.618,0.702
1298463,-923.0,8063.0,1289.0,-72.0,-64.0,14.0,0.299,0.191,0.618,0.702
1298476,-915.0,7907.0,1367.0,-50.0,-25.0,4.0,0.299,0.191,0.617,0.702
1298489,-993.0,8085.0,1313.0,-50.0,-22.0,10.0,0.299,0.191,0.617,0.702
1298512,-899.0,8017.0,1305.0,-57.0,-4.0,20.0,0.299,0.191,0.616,0.703
1298525,-907.0,8023.0,1377.0,-35.0,4.0,13.0,0.299,0.191,0.616,0.703
1298548,-905.0,8021.0,1351.0,-22.0,13.0,26.0,0.299,0.191,0.616,0.703
1298561,-871.0,8039.0,1387.0,-27.0,16.0,18.0,0.299,0.191,0.616,0.703
1298584,-901.0,8035.0,1405.0,-1.0,18.0,22.0,0.299,0.191,0.616,0.704
1298597,-915.0,8103.0,1415.0,6.0,10.0,24.0,0.298,0.191,0.616,0.704
1298620,-837.0,8007.0,1435.0,-1.0,26.0,24.0,0.298,0.191,0.616,0.704
1298633,-809.0,8027.0,1499.0,21.0,37.0,23.0,0.298,0.191,0.616,0.704
1298656,-785.0,8053.0,1507.0,25.0,12.0,12.0,0.298,0.192,0.616,0.704
1298669,-843.0,7909.0,1499.0,34.0,9.0,24.0,0.297,0.192,0.616,0.704
1298682,-871.0,7901.0,1657.0,61.0,43.0,29.0,0.297,0.192,0.617,0.703
1298705,-765.0,7679.0,1451.0,101.0,103.0,14.0,0.296,0.192,0.618,0.703
1298718,-783.0,8177.0,1249.0,127.0,75.0,-12.0,0.295,0.191,0.619,0.702
1298741,-707.0,8055.0,1235.0,91.0,53.0,12.0,0.295,0.191,0.619,0.702
1298754,-791.0,8149.0,1285.0,79.0,88.0,-3.0,0.294,0.191,0.62,0.702
1298777,-891.0,8295.0,1229.0,50.0,41.0,6.0,0.293,0.191,0.621,0.702
1298790,-853.0,8079.0,1215.0,39.0,51.0,43.0,0.293,0.191,0.621,0.702
1298813,-807.0,8059.0,1411.0,35.0,10.0,31.0,0.292,0.191,0.621,0.701
1298826,-781.0,8079.0,1413.0,44.0,-15.0,40.0,0.292,0.192,0.621,0.701
1298849,-785.0,8093.0,1319.0,44.0,-29.0,39.0,0.292,0.192,0.621,0.701
1298862,-693.0,8047.0,1211.0,34.0,-41.0,35.0,0.292,0.193,0.622,0.701
1298875,-669.0,8095.0,1291.0,2.0,-53.0,40.0,0.292,0.194,0.621,0.701
1298898,-669.0,8041.0,1301.0,2.0,-56.0,32.0,0.292,0.194,0.621,0.701
1298911,-631.0,7979.0,1293.0,11.0,-43.0,20.0,0.292,0.195,0.621,0.701
1298934,-635.0,7995.0,1241.0,16.0,-32.0,12.0,0.292,0.195,0.621,0.701
1298947,-619.0,7981.0,1195.0,31.0,-9.0,-3.0,0.292,0.195,0.621,0.701
1298970,-679.0,8073.0,1113.0,29.0,4.0,-19.0,0.292,0.195,0.621,0.7
1298983,-693.0,8059.0,1207.0,29.0,21.0,-23.0,0.292,0.195,0.622,0.7
1299006,-721.0,8049.0,1173.0,26.0,22.0,-30.0,0.292,0.195,0.622,0.7
1299019,-687.0,7999.0,1131.0,27.0,27.0,-40.0,0.292,0.195,0.622,0.7
1299032,-759.0,7957.0,1189.0,33.0,32.0,-41.0,0.292,0.194,0.623,0.699
1299055,-773.0,8149.0,1217.0,37.0,42.0,-52.0,0.292,0.194,0.623,0.699
1299068,-783.0,8067.0,1231.0,29.0,38.0,-38.0,0.292,0.194,0.623,0.699
1299091,-795.0,8119.0,1153.0,27.0,32.0,-49.0,0.292,0.193,0.624,0.699
1299104,-741.0,8189.0,1167.0,6.0,20.0,-49.0,0.292,0.193,0.624,0.699
1299127,-829.0,8133.0,1221.0,-2.0,15.0,-41.0,0.292,0.192,0.624,0.698
1299140,-853.0,8031.0,1241.0,15.0,18.0,-40.0,0.293,0.192,0.624,0.698
1299163,-797.0,8099.0,1201.0,9.0,19.0,-45.0,0.293,0.192,0.624,0.698
1299176,-809.0,8047.0,1171.0,19.0,30.0,-38.0,0.293,0.192,0.625,0.698
1299199,-893.0,8129.0,1181.0,14.0,27.0,-41.0,0.293,0.191,0.625,0.698
1299212,-877.0,8085.0,1177.0,15.0,27.0,-35.0,0.293,0.191,0.625,0.698
1299225,-849.0,8105.0,1137.0,14.0,34.0,-37.0,0.293,0.191,0.626,0.698
1299248,-921.0,8095.0,1203.0,11.0,29.0,-33.0,0.293,0.19,0.626,0.698
1299261,-899.0,8101.0,1195.0,10.0,32.0,-27.0,0.293,0.19,0.626,0.697
1299284,-909.0,8129.0,1177.0,-4.0,22.0,-31.0,0.293,0.19,0.626,0.697
1299297,-833.0,8103.0,1223.0,-2.0,20.0,-25.0,0.293,0.189,0.626,0.697
1299320,-957.0,8095.0,1229.0,1.0,12.0,-27.0,0.293,0.189,0.626,0.697
1299333,-923.0,8015.0,1195.0,4.0,12.0,-19.0,0.293,0.189,0.626,0.697
1299356,-937.0,8089.0,1179.0,8.0,7.0,-22.0,0.293,0.189,0.626,0.697
1299369,-909.0,8021.0,1147.0,-2.0,6.0,-14.0,0.293,0.189,0.626,0.697
1299392,-911.0,8217.0,1241.0,-8.0,-4.0,-23.0,0.293,0.189,0.626,0.697
1299405,-855.0,8065.0,1211.0,-11.0,-12.0,-17.0,0.294,0.189,0.626,0.697
1299418,-897.0,8101.0,1223.0,-4.0,-7.0,-21.0,0.294,0.189,0.626,0.697
1299441,-899.0,8023.0,1175.0,1.0,16.0,-13.0,0.294,0.189,0.626,0.697
1299454,-861.0,8117.0,1247.0,-1.0,18.0,-8.0,0.294,0.188,0.626,0.697
1299477,-939.0,8079.0,1181.0,5.0,7.0,-10.0,0.294,0.188,0.626,0.697
1299490,-859.0,8081.0,1235.0,1.0,6.0,-12.0,0.294,0.188,0.626,0.697
1299513,-841.0,8051.0,1201.0,4.0,17.0,-9.0,0.294,0.188,0.627,0.697
1299526,-837.0,7981.0,1187.0,11.0,34.0,-9.0,0.293,0.188,0.627,0.697
1299549,-867.0,8037.0,1297.0,27.0,34.0,-17.0,0.293,0.188,0.627,0.697
1299562,-883.0,8019.0,1189.0,24.0,42.0,-9.0,0.293,0.188,0.627,0.697
1299575,-903.0,8017.0,1219.0,26.0,44.0,-19.0,0.293,0.187,0.628,0.697
1299603,-891.0,8139.0,1213.0,19.0,49.0,-19.0,0.293,0.187,0.628,0.697
1299616,-865.0,8051.0,1149.0,15.0,52.0,-8.0,0.292,0.187,0.628,0.697
1299629,-889.0,8039.0,1219.0,18.0,37.0,-15.0,0.292,0.186,0.628,0.696
1299652,-917.0,8077.0,1249.0,25.0,32.0,-13.0,0.292,0.186,0.629,0.696
1299665,-925.0,8045.0,1175.0,23.0,23.0,-10.0,0.292,0.186,0.629,0.696
1299688,-871.0,8001.0,1127.0,22.0,31.0,-6.0,0.292,0.186,0.629,0.696
1299701,-877.0,8085.0,1141.0,19.0,23.0,-16.0,0.292,0.186,0.629,0.696
1299724,-897.0,8079.0,1133.0,20.0,22.0,-10.0,0.292,0.186,0.629,0.696
1299737,-959.0,8137.0,1317.0,25.0,3.0,-11.0,0.292,0.186,0.63,0.696
1299760,-865.0,8065.0,1067.0,17.0,11.0,-9.0,0.292,0.186,0.63,0.696
1299773,-831.0,8075.0,1137.0,17.0,17.0,-9.0,0.291,0.186,0.63,0.696
1299786,-915.0,7943.0,1167.0,19.0,16.0,-13.0,0.291,0.186,0.63,0.695
1299809,-891.0,8083.0,1227.0,27.0,11.0,-14.0,0.291,0.186,0.63,0.695
1299822,-943.0,8075.0,1129.0,30.0,14.0,-11.0,0.291,0.186,0.631,0.695
1299845,-847.0,8043.0,1111.0,27.0,17.0,-11.0,0.291,0.186,0.631,0.695
1299858,-857.0,8013.0,1073.0,28.0,23.0,-14.0,0.291,0.185,0.631,0.695
1299881,-935.0,8019.0,1171.0,31.0,29.0,-20.0,0.291,0.185,0.631,0.695
1299894,-947.0,8059.0,1187.0,45.0,23.0,-23.0,0.291,0.185,0.632,0.694
1299917,-913.0,8029.0,1139.0,49.0,31.0,-18.0,0.291,0.185,0.632,0.694
1299930,-905.0,8091.0,1121.0,47.0,38.0,-28.0,0.29,0.185,0.633,0.694
1299943,-891.0,8055.0,1149.0,54.0,57.0,-24.0,0.29,0.184,0.633,0.694
1299966,-1051.0,8155.0,1139.0,55.0,15.0,-21.0,0.29,0.184,0.634,0.693
1299979,-1049.0,8135.0,1195.0,5.0,-14.0,-6.0,0.29,0.184,0.634,0.693
1300002,-925.0,8217.0,1155.0,-47.0,-94.0,16.0,0.291,0.185,0.633,0.693
1300015,-841.0,7979.0,1049.0,-14.0,-49.0,18.0,0.291,0.185,0.633,0.693
1300038,-829.0,8001.0,1123.0,51.0,0.0,-5.0,0.291,0.186,0.633,0.693
1300051,-885.0,8011.0,1135.0,86.0,11.0,-11.0,0.291,0.186,0.634,0.693
1300074,-947.0,8065.0,1015.0,68.0,6.0,-14.0,0.29,0.186,0.634,0.692
1300087,-881.0,8057.0,1099.0,59.0,-2.0,-14.0,0.29,0.186,0.634,0.692
1300110,-821.0,8075.0,1107.0,55.0,-11.0,-15.0,0.29,0.186,0.635,0.691
1300123,-801.0,8033.0,1117.0,63.0,-11.0,-17.0,0.291,0.186,0.635,0.691
1300136,-923.0,8103.0,1085.0,74.0,3.0,-13.0,0.29,0.187,0.636,0.691
1300159,-925.0,8123.0,1097.0,95.0,-28.0,-3.0,0.291,0.187,0.636,0.69
1300172,-1007.0,8351.0,1037.0,94.0,-105.0,-13.0,0.291,0.188,0.636,0.689
1300195,-979.0,8535.0,967.0,63.0,-241.0,-18.0,0.292,0.19,0.636,0.688
1300208,-1005.0,8617.0,1341.0,88.0,-387.0,-24.0,0.295,0.192,0.636,0.687
1300231,-931.0,9027.0,1419.0,13.0,-540.0,-27.0,0.298,0.196,0.634,0.686
1300244,-581.0,9327.0,779.0,-101.0,-458.0,-50.0,0.301,0.198,0.633,0.686
1300267,-539.0,9277.0,1719.0,-152.0,-528.0,-57.0,0.305,0.201,0.63,0.685
1300280,-169.0,8565.0,1157.0,-218.0,-355.0,-78.0,0.308,0.202,0.628,0.686
1300303,-231.0,8073.0,961.0,-250.0,-267.0,-92.0,0.31,0.202,0.626,0.686
1300316,-311.0,7187.0,91.0,-74.0,-134.0,-89.0,0.312,0.203,0.625,0.686
1300329,1.0,7807.0,1125.0,43.0,-252.0,-218.0,0.314,0.203,0.625,0.685
1300352,-1193.0,7213.0,1555.0,-411.0,-237.0,-174.0,0.318,0.203,0.622,0.687
1300365,-711.0,6995.0,801.0,-395.0,-215.0,90.0,0.319,0.203,0.618,0.689
1300388,-515.0,7333.0,919.0,-473.0,-150.0,-29.0,0.321,0.203,0.615,0.691
1300401,-687.0,6847.0,459.0,-283.0,-128.0,43.0,0.322,0.203,0.613,0.693
1300424,-585.0,7557.0,519.0,-71.0,-13.0,-5.0,0.322,0.203,0.612,0.693
1300437,-1029.0,7371.0,571.0,174.0,155.0,-180.0,0.322,0.202,0.614,0.692
1300460,-1255.0,8013.0,795.0,503.0,221.0,-375.0,0.322,0.2,0.619,0.688
1300473,-621.0,8763.0,1553.0,535.0,297.0,-513.0,0.323,0.197,0.624,0.684
1300486,-1293.0,8573.0,1135.0,476.0,322.0,-582.0,0.324,0.193,0.629,0.68
1300509,-1103.0,8541.0,1053.0,443.0,293.0,-588.0,0.325,0.189,0.634,0.676
1300522,-1223.0,8751.0,1313.0,313.0,236.0,-600.0,0.327,0.185,0.638,0.673
1300545,-1217.0,8515.0,1589.0,222.0,197.0,-567.0,0.329,0.181,0.64,0.67
1300558,-1315.0,8893.0,1621.0,58.0,111.0,-482.0,0.331,0.178,0.642,0.668
1300581,-1255.0,8541.0,1537.0,-144.0,68.0,-402.0,0.333,0.174,0.642,0.668
1300594,-849.0,8223.0,335.0,-253.0,71.0,-406.0,0.335,0.171,0.641,0.669
1300617,-1155.0,7563.0,-203.0,-144.0,292.0,-526.0,0.337,0.166,0.642,0.668
1300630,-881.0,8127.0,1307.0,75.0,298.0,-676.0,0.339,0.16,0.645,0.666
1300653,-481.0,9801.0,1833.0,-28.0,249.0,-622.0,0.342,0.155,0.646,0.665
1300666,-891.0,8923.0,1443.0,-285.0,366.0,-616.0,0.344,0.148,0.646,0.665
1300679,-939.0,8623.0,1743.0,-389.0,397.0,-537.0,0.345,0.141,0.646,0.666
1300702,-809.0,8977.0,1229.0,-346.0,579.0,-630.0,0.346,0.133,0.646,0.667
1300715,-1169.0,9481.0,1945.0,-457.0,672.0,-693.0,0.347,0.123,0.646,0.668
1300738,-1399.0,10169.0,2663.0,-565.0,809.0,-727.0,0.347,0.112,0.646,0.67
1300751,-1713.0,10221.0,2931.0,-839.0,808.0,-782.0,0.348,0.1,0.644,0.674
1300774,-1907.0,10551.0,3141.0,-1210.0,884.0,-860.0,0.349,0.085,0.64,0.679
1300787,-2649.0,9837.0,2663.0,-1320.0,1031.0,-886.0,0.35,0.069,0.636,0.684
1300810,-2601.0,9957.0,3395.0,-1444.0,1072.0,-1040.0,0.351,0.051,0.631,0.69
1300823,-3255.0,9821.0,3569.0,-1594.0,1157.0,-1142.0,0.352,0.032,0.625,0.696
1300846,-3251.0,9863.0,4117.0,-1936.0,1087.0,-1182.0,0.354,0.012,0.616,0.704
1300859,-3763.0,9211.0,3225.0,-2293.0,1140.0,-1229.0,0.356,-0.01,0.604,0.713
1300872,-3451.0,9057.0,3345.0,-2535.0,1283.0,-1220.0,0.357,-0.033,0.592,0.722
1300895,-4077.0,8207.0,3825.0,-2660.0,1376.0,-1262.0,0.357,-0.058,0.578,0.732
1300908,-3857.0,8761.0,4035.0,-2755.0,1340.0,-1242.0,0.357,-0.083,0.562,0.741
1300931,-4147.0,8421.0,4249.0,-2931.0,1293.0,-1174.0,0.356,-0.108,0.545,0.751
1300944,-4989.0,6871.0,3633.0,-3193.0,1406.0,-1130.0,0.353,-0.134,0.526,0.762
1300967,-4265.0,6641.0,3931.0,-3401.0,1484.0,-1100.0,0.349,-0.16,0.505,0.773
1300980,-4405.0,6465.0,3475.0,-3285.0,1533.0,-1100.0,0.345,-0.187,0.485,0.782
1301003,-5281.0,5449.0,3933.0,-3238.0,1680.0,-1025.0,0.339,-0.213,0.465,0.79
1301016,-4859.0,6289.0,3975.0,-3326.0,1705.0,-917.0,0.332,-0.24,0.444,0.797
1301029,-5633.0,4967.0,3367.0,-3582.0,1700.0,-775.0,0.323,-0.266,0.421,0.805
1301052,-5805.0,3347.0,1935.0,-3813.0,1808.0,-813.0,0.312,-0.294,0.395,0.812
1301065,-5653.0,4187.0,3085.0,-3543.0,1656.0,-892.0,0.303,-0.32,0.371,0.818
1301088,-5657.0,4027.0,3463.0,-3664.0,1704.0,-752.0,0.292,-0.345,0.346,0.822
1301101,-6073.0,3387.0,2757.0,-3675.0,1647.0,-579.0,0.279,-0.37,0.32,0.827
1301124,-6195.0,2435.0,1267.0,-3675.0,1708.0,-508.0,0.265,-0.393,0.294,0.83
1301137,-7085.0,2243.0,859.0,-3482.0,1599.0,-603.0,0.252,-0.416,0.27,0.831
1301160,-7059.0,1657.0,1461.0,-3489.0,1515.0,-553.0,0.239,-0.437,0.244,0.832
1301173,-6851.0,2497.0,1995.0,-3452.0,1197.0,-225.0,0.224,-0.455,0.22,0.833
1301196,-5857.0,1613.0,871.0,-3374.0,1326.0,-139.0,0.209,-0.472,0.196,0.834
1301209,-6161.0,1683.0,1451.0,-3109.0,1154.0,-415.0,0.196,-0.488,0.172,0.833
1301222,-6257.0,1081.0,1609.0,-2925.0,1111.0,-442.0,0.184,-0.502,0.149,0.832
1301245,-6279.0,1129.0,1171.0,-2702.0,1047.0,-243.0,0.172,-0.515,0.129,0.83
1301258,-6279.0,1153.0,1901.0,-2473.0,945.0,-18.0,0.16,-0.526,0.111,0.828
1301281,-6223.0,1023.0,1519.0,-2178.0,651.0,186.0,0.147,-0.534,0.097,0.827
1301294,-6765.0,181.0,1045.0,-2025.0,731.0,-17.0,0.136,-0.542,0.082,0.825
1301317,-6681.0,431.0,979.0,-1782.0,770.0,-167.0,0.128,-0.55,0.068,0.822
1301330,-7177.0,-35.0,1283.0,-1528.0,756.0,-170.0,0.121,-0.558,0.057,0.819
1301353,-7317.0,-161.0,1387.0,-1270.0,559.0,-64.0,0.115,-0.564,0.047,0.817
1301366,-7283.0,-765.0,1109.0,-1010.0,429.0,-52.0,0.109,-0.568,0.04,0.815
1301389,-7669.0,-719.0,1011.0,-825.0,412.0,-99.0,0.106,-0.573,0.034,0.812
1301402,-7459.0,-755.0,993.0,-657.0,399.0,-158.0,0.103,-0.577,0.028,0.81
1301415,-7665.0,-905.0,1557.0,-412.0,286.0,-172.0,0.102,-0.579,0.025,0.808
1301438,-7645.0,-651.0,1611.0,-148.0,168.0,-165.0,0.103,-0.581,0.023,0.807
1301451,-7659.0,-743.0,1819.0,62.0,75.0,-139.0,0.104,-0.581,0.023,0.807
1301474,-7733.0,-741.0,1499.0,224.0,65.0,-140.0,0.107,-0.582,0.024,0.806
1301487,-7373.0,-731.0,1551.0,274.0,84.0,-183.0,0.109,-0.582,0.025,0.805
1301510,-7247.0,-569.0,2103.0,372.0,70.0,-182.0,0.113,-0.583,0.027,0.804
1301523,-7591.0,-329.0,2205.0,380.0,2.0,-123.0,0.116,-0.582,0.029,0.804
1301546,-7499.0,-677.0,2241.0,240.0,68.0,-69.0,0.118,-0.583,0.031,0.804
1301559,-7949.0,-621.0,2125.0,390.0,172.0,-106.0,0.12,-0.584,0.033,0.802
1301572,-8485.0,-671.0,2269.0,443.0,275.0,-150.0,0.124,-0.585,0.036,0.801
1301595,-8941.0,-705.0,2685.0,450.0,365.0,-152.0,0.127,-0.587,0.039,0.798
1301613,-9595.0,-617.0,2931.0,488.0,375.0,-110.0,0.131,-0.59,0.043,0.796
1301626,-9949.0,-409.0,3199.0,528.0,419.0,-87.0,0.134,-0.592,0.047,0.793
1301649,-10193.0,-641.0,3085.0,532.0,498.0,-123.0,0.138,-0.595,0.051,0.79
1301662,-10273.0,-825.0,2937.0,542.0,596.0,-219.0,0.142,-0.599,0.054,0.786
1301685,-9919.0,-471.0,3267.0,569.0,685.0,-273.0,0.147,-0.603,0.058,0.782
1301698,-9905.0,-803.0,3625.0,567.0,656.0,-276.0,0.152,-0.607,0.061,0.777
1301721,-9905.0,-55.0,3687.0,558.0,607.0,-242.0,0.156,-0.611,0.065,0.773
1301734,-9697.0,-543.0,3189.0,510.0,607.0,-270.0,0.161,-0.615,0.068,0.769
1301747,-9853.0,-793.0,2755.0,471.0,593.0,-302.0,0.165,-0.618,0.071,0.765
1301770,-9761.0,-893.0,2535.0,487.0,559.0,-335.0,0.17,-0.622,0.073,0.761
1301783,-9863.0,-693.0,2717.0,513.0,467.0,-392.0,0.176,-0.624,0.076,0.757
1301806,-9769.0,-689.0,2675.0,516.0,438.0,-417.0,0.182,-0.627,0.078,0.754
1301819,-10071.0,-939.0,1651.0,338.0,474.0,-381.0,0.186,-0.63,0.079,0.75
1301842,-10541.0,-1355.0,1395.0,243.0,498.0,-408.0,0.19,-0.633,0.079,0.746
1301855,-10115.0,-773.0,1111.0,-31.0,470.0,-435.0,0.193,-0.637,0.077,0.743
1301878,-10465.0,-1815.0,1539.0,-102.0,428.0,-566.0,0.196,-0.64,0.074,0.739
1301891,-10109.0,-1027.0,1655.0,10.0,282.0,-587.0,0.2,-0.642,0.072,0.736
1301914,-9865.0,-817.0,1425.0,-36.0,174.0,-520.0,0.203,-0.644,0.069,0.734
1301927,-9055.0,-1493.0,711.0,-419.0,201.0,-388.0,0.204,-0.646,0.064,0.733
1301940,-9027.0,-1121.0,1093.0,-629.0,55.0,-390.0,0.203,-0.648,0.058,0.732
1301963,-8027.0,-941.0,1179.0,-753.0,-80.0,-377.0,0.201,-0.649,0.051,0.732
1301976,-7765.0,-1529.0,959.0,-699.0,-228.0,-322.0,0.199,-0.649,0.044,0.733
1301999,-7045.0,-575.0,1119.0,-657.0,-306.0,-213.0,0.197,-0.648,0.038,0.735
1302012,-6553.0,-1637.0,1811.0,-631.0,-254.0,-78.0,0.194,-0.647,0.033,0.736
1302035,-6265.0,-1413.0,1265.0,-414.0,-189.0,89.0,0.191,-0.647,0.03,0.738
1302048,-6663.0,-1755.0,751.0,-245.0,-165.0,200.0,0.189,-0.646,0.03,0.739
1302071,-6739.0,-2059.0,1073.0,-167.0,0.0,216.0,0.186,-0.646,0.03,0.739
1302084,-6709.0,-1733.0,1121.0,-278.0,-62.0,354.0,0.183,-0.646,0.03,0.74
1302107,-6507.0,-2061.0,657.0,-200.0,-174.0,436.0,0.179,-0.645,0.032,0.742
1302120,-6873.0,-1449.0,707.0,-193.0,-291.0,588.0,0.174,-0.643,0.034,0.745
1302133,-6213.0,-2717.0,-209.0,-376.0,-268.0,700.0,0.167,-0.642,0.035,0.748
1302156,-5993.0,-1991.0,547.0,-297.0,-365.0,798.0,0.16,-0.639,0.038,0.751
1302169,-5761.0,-3255.0,-273.0,-394.0,-439.0,862.0,0.152,-0.636,0.04,0.755
1302192,-4733.0,-1053.0,517.0,-261.0,-762.0,797.0,0.146,-0.631,0.042,0.761
1302205,-3457.0,-2809.0,553.0,-449.0,-863.0,725.0,0.139,-0.625,0.042,0.767
1302228,-1969.0,-1993.0,527.0,-334.0,-686.0,501.0,0.134,-0.62,0.042,0.772
1302241,-1309.0,-1665.0,579.0,-162.0,-393.0,297.0,0.131,-0.617,0.042,0.774
1302264,-1017.0,-2169.0,593.0,5.0,-116.0,151.0,0.13,-0.617,0.043,0.775
1302277,-969.0,-981.0,755.0,101.0,102.0,23.0,0.131,-0.617,0.045,0.775
1302290,-1545.0,-1987.0,1209.0,161.0,248.0,-35.0,0.132,-0.619,0.046,0.773
1302313,-2541.0,-1891.0,955.0,278.0,237.0,-136.0,0.135,-0.62,0.048,0.771
1302326,-2391.0,-1573.0,959.0,314.0,276.0,-266.0,0.139,-0.622,0.049,0.769
1302349,-3859.0,-3139.0,-489.0,292.0,283.0,-398.0,0.144,-0.623,0.05,0.767
1302362,-3567.0,-1009.0,787.0,176.0,230.0,-533.0,0.149,-0.625,0.048,0.765
1302385,-3365.0,-1779.0,783.0,147.0,181.0,-694.0,0.155,-0.626,0.046,0.763
1302398,-4087.0,-1237.0,955.0,343.0,189.0,-603.0,0.161,-0.627,0.045,0.761
1302421,-4775.0,-2175.0,-153.0,338.0,292.0,-505.0,0.167,-0.629,0.046,0.758
1302434,-5729.0,-1169.0,891.0,313.0,329.0,-414.0,0.172,-0.631,0.046,0.755
1302457,-5887.0,-1603.0,1197.0,194.0,361.0,-298.0,0.175,-0.633,0.047,0.752
1302470,-6605.0,-1951.0,1297.0,363.0,434.0,-208.0,0.179,-0.636,0.049,0.749
1302483,-7581.0,-603.0,1563.0,408.0,441.0,-34.0,0.181,-0.638,0.053,0.746
1302506,-7735.0,-1045.0,1105.0,263.0,432.0,36.0,0.183,-0.641,0.056,0.744
1302519,-8341.0,-629.0,1827.0,216.0,448.0,124.0,0.183,-0.643,0.059,0.741
1302542,-8279.0,-1049.0,1313.0,392.0,543.0,189.0,0.184,-0.646,0.064,0.738
1302555,-9021.0,287.0,2091.0,427.0,473.0,323.0,0.184,-0.648,0.07,0.735
1302578,-9175.0,41.0,1309.0,168.0,352.0,409.0,0.182,-0.65,0.074,0.734
1302591,-9511.0,-121.0,1599.0,42.0,353.0,319.0,0.18,-0.652,0.077,0.732
1302614,-8957.0,-97.0,1717.0,234.0,360.0,196.0,0.18,-0.654,0.081,0.73
1302627,-9749.0,629.0,1959.0,115.0,305.0,191.0,0.18,-0.656,0.084,0.729
1302650,-9813.0,371.0,1501.0,11.0,131.0,-203.0,0.181,-0.657,0.083,0.727
1302663,-9195.0,-303.0,1421.0,-155.0,126.0,-450.0,0.183,-0.658,0.079,0.726
1302676,-9263.0,-19.0,1583.0,-126.0,97.0,-329.0,0.185,-0.659,0.077,0.725
1302699,-9771.0,-549.0,1403.0,-32.0,74.0,-169.0,0.186,-0.66,0.076,0.724
1302712,-9901.0,-527.0,1469.0,-31.0,137.0,-47.0,0.186,-0.661,0.076,0.723
1302735,-9953.0,-671.0,1153.0,47.0,118.0,3.0,0.186,-0.661,0.076,0.723
1302748,-10317.0,-19.0,1111.0,-40.0,46.0,53.0,0.186,-0.662,0.077,0.722
1302771,-10387.0,-723.0,477.0,-205.0,67.0,94.0,0.184,-0.662,0.076,0.722
1302784,-10131.0,-1237.0,795.0,-168.0,87.0,138.0,0.182,-0.663,0.076,0.722
1302807,-10755.0,-1337.0,1101.0,-68.0,139.0,276.0,0.18,-0.664,0.078,0.722
1302820,-11347.0,-403.0,687.0,-54.0,102.0,316.0,0.177,-0.664,0.08,0.722
1302833,-12101.0,-889.0,923.0,-183.0,41.0,351.0,0.174,-0.665,0.081,0.722
1302856,-11523.0,-1785.0,-131.0,-270.0,126.0,324.0,0.17,-0.666,0.081,0.722
1302869,-12815.0,-1433.0,527.0,-240.0,42.0,223.0,0.167,-0.666,0.081,0.723
1302892,-13111.0,-1715.0,791.0,-217.0,33.0,137.0,0.165,-0.666,0.081,0.723
1302905,-13139.0,-1631.0,389.0,-190.0,25.0,26.0,0.163,-0.667,0.08,0.723
1302928,-13375.0,-2647.0,311.0,-95.0,73.0,-120.0,0.163,-0.667,0.079,0.722
1302941,-13383.0,-1683.0,1.0,16.0,88.0,-234.0,0.165,-0.668,0.077,0.721
1302964,-13541.0,-2205.0,125.0,-129.0,52.0,-408.0,0.167,-0.669,0.074,0.72
1302977,-13283.0,-1847.0,419.0,-226.0,-6.0,-550.0,0.169,-0.67,0.069,0.72
1303000,-12837.0,-2243.0,269.0,-130.0,-5.0,-749.0,0.174,-0.67,0.064,0.719
1303013,-13091.0,-1557.0,957.0,-44.0,57.0,-882.0,0.179,-0.671,0.058,0.717
1303026,-12459.0,-2039.0,699.0,-119.0,-16.0,-644.0,0.183,-0.671,0.053,0.716
1303049,-11953.0,-1683.0,659.0,-39.0,45.0,-627.0,0.187,-0.672,0.049,0.715
1303062,-12141.0,-1493.0,1301.0,-75.0,-20.0,-668.0,0.191,-0.672,0.045,0.714
1303085,-11733.0,-1401.0,1519.0,10.0,-237.0,-595.0,0.195,-0.671,0.041,0.714
1303098,-11071.0,-1865.0,1271.0,144.0,-334.0,-658.0,0.201,-0.669,0.037,0.715
1303121,-10731.0,-1443.0,675.0,130.0,-431.0,-616.0,0.206,-0.666,0.033,0.717
1303134,-9771.0,-745.0,829.0,-104.0,-540.0,-565.0,0.209,-0.662,0.028,0.719
1303157,-8389.0,-913.0,1157.0,-199.0,-636.0,-497.0,0.211,-0.659,0.023,0.722
1303170,-7991.0,-1231.0,1383.0,-122.0,-679.0,-362.0,0.213,-0.654,0.019,0.725
1303193,-7445.0,-1271.0,963.0,27.0,-654.0,-251.0,0.215,-0.65,0.017,0.729
1303206,-7345.0,-1163.0,491.0,-6.0,-663.0,-115.0,0.216,-0.645,0.015,0.733
1303219,-6553.0,-1431.0,633.0,-186.0,-609.0,1.0,0.215,-0.642,0.012,0.736
1303242,-6581.0,-1219.0,1655.0,-95.0,-646.0,116.0,0.214,-0.637,0.011,0.74
1303255,-6077.0,-1669.0,1053.0,32.0,-615.0,236.0,0.213,-0.633,0.012,0.744
1303278,-6247.0,-2137.0,633.0,34.0,-668.0,463.0,0.21,-0.628,0.014,0.749
1303291,-6273.0,-2811.0,493.0,115.0,-593.0,527.0,0.207,-0.623,0.017,0.754
1303314,-5619.0,-1029.0,1311.0,-190.0,-824.0,655.0,0.202,-0.618,0.018,0.76
1303327,-4369.0,-2163.0,1495.0,-213.0,-928.0,673.0,0.196,-0.612,0.019,0.766
1303350,-3515.0,-1197.0,1689.0,-82.0,-1107.0,790.0,0.19,-0.604,0.021,0.774
1303363,-2007.0,-697.0,687.0,-185.0,-913.0,845.0,0.184,-0.597,0.023,0.781
1303376,-543.0,-803.0,-601.0,-281.0,-737.0,815.0,0.177,-0.592,0.024,0.786
1303399,-4507.0,-5289.0,-57.0,-734.0,140.0,966.0,0.166,-0.594,0.025,0.787
1303412,-485.0,-2613.0,163.0,634.0,-187.0,347.0,0.167,-0.591,0.031,0.788
1303435,-125.0,-717.0,809.0,524.0,258.0,155.0,0.169,-0.592,0.037,0.787
1303448,-793.0,-853.0,1309.0,320.0,410.0,69.0,0.17,-0.595,0.04,0.785
1303471,-1805.0,-2473.0,719.0,231.0,536.0,-27.0,0.172,-0.598,0.043,0.782
1303484,-2497.0,-2447.0,845.0,347.0,625.0,-316.0,0.176,-0.602,0.045,0.777
1303507,-2377.0,-1219.0,1507.0,155.0,556.0,-505.0,0.18,-0.606,0.044,0.773
1303520,-3825.0,-3873.0,699.0,183.0,633.0,-563.0,0.186,-0.611,0.044,0.769
1303543,-3833.0,-2011.0,1561.0,130.0,489.0,-592.0,0.191,-0.614,0.042,0.765
1303556,-3919.0,-2825.0,933.0,31.0,445.0,-623.0,0.195,-0.617,0.04,0.761
1303569,-5167.0,-2291.0,1489.0,281.0,250.0,-718.0,0.202,-0.619,0.039,0.758
1303592,-4901.0,-1795.0,1625.0,73.0,211.0,-631.0,0.207,-0.62,0.036,0.756
1303605,-5037.0,-2021.0,1501.0,49.0,144.0,-568.0,0.212,-0.621,0.034,0.754
1303623,-5807.0,-2631.0,1221.0,80.0,270.0,-537.0,0.216,-0.623,0.032,0.751
1303646,-6443.0,-2065.0,2091.0,129.0,406.0,-411.0,0.22,-0.626,0.031,0.748
1303659,-5873.0,-563.0,2013.0,135.0,380.0,-321.0,0.223,-0.628,0.032,0.745
1303682,-6785.0,-1885.0,1729.0,-18.0,528.0,-178.0,0.224,-0.632,0.032,0.741
1303695,-7399.0,-2557.0,1409.0,330.0,509.0,-232.0,0.228,-0.635,0.034,0.738
1303718,-8351.0,-863.0,2045.0,367.0,606.0,-466.0,0.233,-0.638,0.035,0.733
1303731,-8181.0,-1247.0,2493.0,-101.0,519.0,-58.0,0.232,-0.642,0.035,0.73
1303744,-8609.0,-2019.0,1875.0,-190.0,357.0,157.0,0.23,-0.644,0.036,0.728
1303767,-8825.0,-1843.0,1635.0,-45.0,349.0,-41.0,0.23,-0.647,0.036,0.726
1303780,-9109.0,-1945.0,1203.0,-23.0,297.0,-58.0,0.23,-0.649,0.036,0.724
1303803,-9289.0,-1101.0,2311.0,-198.0,131.0,-273.0,0.231,-0.65,0.034,0.723
1303816,-9727.0,-2197.0,1603.0,-301.0,-2.0,-66.0,0.23,-0.651,0.032,0.723
1303839,-9525.0,-2261.0,1111.0,-214.0,-19.0,-79.0,0.229,-0.651,0.03,0.723
1303852,-10019.0,-2337.0,1185.0,-249.0,23.0,-63.0,0.228,-0.652,0.028,0.723
1303875,-10017.0,-2227.0,1397.0,-272.0,-35.0,139.0,0.226,-0.652,0.027,0.723
1303888,-9731.0,-2199.0,1499.0,-308.0,-57.0,162.0,0.223,-0.652,0.026,0.724
1303911,-9819.0,-2113.0,1559.0,-260.0,-44.0,280.0,0.219,-0.652,0.026,0.725
1303924,-9695.0,-2503.0,817.0,-263.0,49.0,367.0,0.215,-0.653,0.026,0.726
1303937,-9699.0,-2171.0,945.0,-183.0,77.0,380.0,0.212,-0.654,0.028,0.726
1303960,-10157.0,-2499.0,1733.0,-166.0,193.0,466.0,0.207,-0.655,0.03,0.726
1303973,-10539.0,-1977.0,1813.0,-38.0,169.0,447.0,0.204,-0.656,0.033,0.726
1303996,-11249.0,-2581.0,1257.0,-54.0,178.0,476.0,0.2,-0.658,0.036,0.725
1304009,-11331.0,-2211.0,963.0,49.0,274.0,364.0,0.198,-0.659,0.039,0.724
1304032,-12431.0,-2697.0,1471.0,115.0,329.0,310.0,0.197,-0.661,0.042,0.723
1304045,-12945.0,-2343.0,1817.0,188.0,221.0,290.0,0.196,-0.662,0.046,0.722
1304068,-13449.0,-2301.0,1669.0,253.0,91.0,222.0,0.196,-0.662,0.049,0.722
1304081,-13501.0,-2591.0,481.0,186.0,59.0,61.0,0.197,-0.662,0.051,0.721
1304104,-13683.0,-1787.0,1517.0,75.0,4.0,-140.0,0.198,-0.662,0.05,0.721
1304117,-13325.0,-2023.0,1573.0,80.0,-120.0,-302.0,0.201,-0.661,0.049,0.721
1304130,-13141.0,-1945.0,1807.0,173.0,-134.0,-384.0,0.205,-0.66,0.048,0.721
1304153,-13115.0,-2237.0,1325.0,250.0,-103.0,-379.0,0.209,-0.659,0.047,0.721
1304166,-12635.0,-1881.0,1027.0,144.0,-110.0,-435.0,0.213,-0.658,0.045,0.721
1304189,-12381.0,-1837.0,1625.0,143.0,-85.0,-568.0,0.217,-0.657,0.042,0.72
1304202,-12013.0,-2147.0,2009.0,187.0,-122.0,-599.0,0.223,-0.656,0.04,0.72
1304225,-11911.0,-2193.0,1365.0,106.0,-268.0,-524.0,0.227,-0.654,0.037,0.72
1304238,-11061.0,-1907.0,913.0,-161.0,-357.0,-494.0,0.23,-0.652,0.032,0.722
1304261,-10647.0,-1825.0,1311.0,-209.0,-362.0,-657.0,0.233,-0.651,0.026,0.722
1304274,-9459.0,-2087.0,2181.0,-116.0,-372.0,-641.0,0.237,-0.648,0.021,0.723
1304287,-8881.0,-1499.0,2237.0,-48.0,-418.0,-452.0,0.24,-0.646,0.017,0.725
1304310,-8323.0,-1807.0,1619.0,-39.0,-378.0,-254.0,0.241,-0.643,0.014,0.727
1304323,-7809.0,-1969.0,1369.0,-166.0,-260.0,-82.0,0.241,-0.642,0.012,0.728
1304346,-7317.0,-1531.0,1451.0,-70.0,-259.0,-11.0,0.24,-0.64,0.012,0.73
1304359,-6593.0,-1439.0,1587.0,-108.0,-233.0,64.0,0.239,-0.639,0.011,0.731
1304382,-6611.0,-2333.0,1053.0,-208.0,-201.0,215.0,0.237,-0.638,0.01,0.733
1304395,-5629.0,-2117.0,701.0,-136.0,-209.0,349.0,0.234,-0.637,0.011,0.735
1304418,-5129.0,-2021.0,755.0,-136.0,-261.0,423.0,0.23,-0.635,0.012,0.737
1304431,-4383.0,-2371.0,1173.0,-170.0,-270.0,433.0,0.226,-0.633,0.013,0.74
1304454,-3687.0,-1433.0,227.0,-114.0,-420.0,491.0,0.223,-0.631,0.015,0.743
1304467,-3065.0,-2391.0,-631.0,-244.0,-344.0,458.0,0.218,-0.629,0.015,0.746
1304480,-1955.0,-2085.0,135.0,-124.0,-306.0,430.0,0.215,-0.627,0.017,0.749
1304503,-1577.0,-1953.0,463.0,-46.0,-265.0,474.0,0.211,-0.625,0.019,0.751
1304516,-933.0,-1545.0,1021.0,94.0,-243.0,464.0,0.209,-0.623,0.022,0.754
1304539,-1185.0,-1997.0,389.0,122.0,-132.0,461.0,0.207,-0.621,0.025,0.755
1304552,-1675.0,-2473.0,-89.0,115.0,-54.0,358.0,0.205,-0.621,0.028,0.756
1304575,-1179.0,-1429.0,331.0,123.0,95.0,100.0,0.205,-0.621,0.03,0.756
1304588,-1629.0,-2631.0,817.0,62.0,308.0,-113.0,0.206,-0.623,0.031,0.754
1304611,-2001.0,-2137.0,1203.0,275.0,415.0,-270.0,0.21,-0.626,0.032,0.751
1304624,-3309.0,-3341.0,-759.0,105.0,463.0,-342.0,0.213,-0.629,0.032,0.747
1304647,-3185.0,-1915.0,169.0,178.0,371.0,-482.0,0.218,-0.631,0.031,0.744
1304660,-3803.0,-2863.0,127.0,38.0,335.0,-576.0,0.222,-0.633,0.029,0.741
1304673,-4779.0,-4277.0,551.0,287.0,282.0,-533.0,0.227,-0.635,0.029,0.738
1304696,-4967.0,-2633.0,211.0,260.0,145.0,-481.0,0.232,-0.635,0.028,0.736
1304709,-4895.0,-2483.0,357.0,148.0,-2.0,-439.0,0.236,-0.635,0.027,0.735
1304732,-7025.0,-6905.0,-451.0,228.0,460.0,-452.0,0.241,-0.638,0.027,0.731
1304745,-7193.0,-1171.0,1337.0,540.0,318.0,-748.0,0.249,-0.639,0.027,0.727
1304768,-8717.0,-3043.0,1497.0,343.0,91.0,-321.0,0.253,-0.639,0.028,0.726
1304781,-8751.0,-2193.0,2481.0,21.0,-103.0,16.0,0.254,-0.638,0.028,0.727
1304804,-9435.0,-3777.0,1971.0,73.0,-77.0,-4.0,0.254,-0.637,0.028,0.727
1304817,-7821.0,-1245.0,909.0,-145.0,-4.0,-129.0,0.254,-0.637,0.027,0.727
1304830,-7925.0,-1327.0,2339.0,-70.0,-159.0,-144.0,0.255,-0.636,0.025,0.728
1304853,-7639.0,-1663.0,2859.0,0.0,-113.0,-141.0,0.256,-0.635,0.025,0.728
1304866,-7567.0,-1389.0,1335.0,46.0,-25.0,34.0,0.256,-0.635,0.025,0.729
1304889,-10077.0,-5439.0,-959.0,244.0,-58.0,-57.0,0.257,-0.634,0.026,0.729
1304902,-7497.0,-641.0,2007.0,240.0,142.0,-246.0,0.26,-0.634,0.027,0.727
1304925,-7697.0,-1125.0,2845.0,287.0,-21.0,-160.0,0.263,-0.633,0.029,0.727
1304938,-7615.0,-1049.0,2803.0,209.0,14.0,-50.0,0.265,-0.633,0.03,0.727
1304961,-7599.0,-1833.0,1875.0,120.0,117.0,23.0,0.265,-0.633,0.031,0.727
1304974,-8329.0,-2133.0,1779.0,231.0,182.0,75.0,0.266,-0.634,0.034,0.726
1304997,-8139.0,-1715.0,2011.0,305.0,202.0,62.0,0.267,-0.634,0.037,0.725
1305010,-8249.0,-1521.0,2505.0,365.0,187.0,171.0,0.268,-0.634,0.041,0.724
1305033,-9031.0,-1607.0,2507.0,283.0,126.0,476.0,0.266,-0.634,0.046,0.725
1305046,-9219.0,-2363.0,1553.0,226.0,18.0,637.0,0.263,-0.633,0.052,0.726
1305059,-9043.0,-1941.0,1727.0,130.0,11.0,564.0,0.26,-0.633,0.056,0.727
1305082,-9369.0,-2097.0,2267.0,129.0,90.0,492.0,0.257,-0.633,0.06,0.728
1305095,-9753.0,-1945.0,2405.0,169.0,138.0,450.0,0.255,-0.633,0.064,0.728
1305118,-10257.0,-2223.0,2275.0,176.0,178.0,535.0,0.253,-0.633,0.069,0.728
1305131,-10133.0,-1827.0,2205.0,225.0,175.0,501.0,0.25,-0.634,0.074,0.728
1305154,-10543.0,-1863.0,2231.0,119.0,256.0,436.0,0.248,-0.635,0.078,0.728
1305167,-11179.0,-2005.0,2465.0,87.0,249.0,367.0,0.246,-0.636,0.081,0.727
1305190,-11857.0,-2311.0,2213.0,157.0,287.0,206.0,0.245,-0.637,0.084,0.726
1305203,-12681.0,-1877.0,2239.0,146.0,240.0,68.0,0.245,-0.638,0.086,0.724
1305216,-12883.0,-2195.0,2417.0,-4.0,174.0,1.0,0.245,-0.64,0.086,0.723
1305239,-13637.0,-2495.0,1985.0,-94.0,186.0,-128.0,0.245,-0.641,0.085,0.722
1305252,-13625.0,-2781.0,1863.0,1.0,231.0,-309.0,0.247,-0.643,0.084,0.72
1305275,-14025.0,-2347.0,2549.0,65.0,162.0,-371.0,0.25,-0.644,0.083,0.718
1305288,-13867.0,-2361.0,2217.0,-76.0,37.0,-303.0,0.251,-0.645,0.081,0.717
1305311,-13133.0,-2563.0,1545.0,-102.0,48.0,-455.0,0.254,-0.646,0.077,0.716
1305324,-13039.0,-2993.0,2469.0,-83.0,104.0,-548.0,0.257,-0.647,0.074,0.714
1305347,-12433.0,-1839.0,3245.0,-72.0,-69.0,-562.0,0.26,-0.647,0.07,0.713
1305360,-11653.0,-1523.0,2145.0,-210.0,-182.0,-492.0,0.262,-0.646,0.065,0.714
1305373,-11373.0,-2717.0,1421.0,-507.0,-69.0,-429.0,0.262,-0.647,0.059,0.713
1305396,-10537.0,-1761.0,2319.0,-414.0,-151.0,-483.0,0.263,-0.648,0.053,0.713
1305409,-10017.0,-2195.0,3147.0,-419.0,-136.0,-426.0,0.263,-0.648,0.047,0.713
1305432,-9647.0,-1087.0,2937.0,-359.0,-194.0,-197.0,0.262,-0.648,0.043,0.714
1305445,-9571.0,-2635.0,1043.0,-632.0,-102.0,198.0,0.257,-0.648,0.04,0.716
1305468,-9093.0,-2557.0,211.0,-293.0,-194.0,-297.0,0.258,-0.648,0.036,0.716
1305481,-8467.0,-1361.0,1465.0,-429.0,-27.0,187.0,0.254,-0.648,0.034,0.717
1305504,-7451.0,-1093.0,1877.0,-312.0,-138.0,249.0,0.25,-0.648,0.034,0.719
1305517,-7563.0,-1307.0,1659.0,-277.0,-316.0,270.0,0.247,-0.646,0.033,0.721
1305540,-7617.0,-3857.0,-491.0,-477.0,-272.0,412.0,0.241,-0.646,0.031,0.724
1305553,-4777.0,-111.0,521.0,-308.0,-473.0,300.0,0.238,-0.643,0.03,0.727
1305566,-5145.0,-3085.0,629.0,-334.0,-333.0,316.0,0.234,-0.641,0.029,0.73
1305589,-4579.0,-2685.0,1267.0,42.0,-420.0,568.0,0.23,-0.638,0.032,0.734
1305602,-4127.0,-2265.0,93.0,-36.0,-496.0,820.0,0.225,-0.635,0.036,0.738
1305630,-2975.0,-1947.0,495.0,-42.0,-635.0,908.0,0.219,-0.63,0.04,0.744
1305643,-3247.0,-2849.0,-233.0,-125.0,-613.0,946.0,0.212,-0.626,0.044,0.75
1305656,-1971.0,-2931.0,-225.0,-159.0,-430.0,795.0,0.206,-0.622,0.046,0.754
1305679,-1373.0,-2007.0,277.0,33.0,-437.0,585.0,0.202,-0.619,0.049,0.757
1305692,-991.0,-2263.0,-161.0,9.0,-311.0,533.0,0.199,-0.616,0.052,0.76
1305715,-933.0,-2559.0,-239.0,59.0,-161.0,475.0,0.196,-0.615,0.055,0.762
1305728,-1151.0,-2311.0,-659.0,94.0,-3.0,368.0,0.194,-0.614,0.058,0.762
1305741,-1605.0,-2335.0,-31.0,135.0,100.0,174.0,0.194,-0.615,0.061,0.762
1305764,-2037.0,-2271.0,-299.0,128.0,212.0,-9.0,0.195,-0.616,0.062,0.761
1305777,-2003.0,-2225.0,205.0,65.0,242.0,-149.0,0.196,-0.618,0.062,0.759
1305800,-2879.0,-2571.0,67.0,113.0,288.0,-48.0,0.197,-0.619,0.064,0.757
1305813,-3967.0,-2525.0,139.0,-10.0,237.0,-101.0,0.198,-0.621,0.064,0.756
1305836,-3541.0,-2195.0,331.0,-97.0,307.0,-220.0,0.199,-0.624,0.062,0.753
1305849,-4465.0,-3107.0,177.0,-8.0,399.0,-432.0,0.202,-0.627,0.061,0.75
1305872,-4075.0,-1367.0,1041.0,114.0,408.0,-472.0,0.206,-0.629,0.06,0.747
1305885,-5579.0,-2261.0,709.0,113.0,319.0,-410.0,0.21,-0.632,0.059,0.744
1305908,-5569.0,-1575.0,931.0,-10.0,291.0,-367.0,0.212,-0.634,0.057,0.742
1305921,-6589.0,-3097.0,505.0,26.0,412.0,-261.0,0.214,-0.637,0.057,0.739
1305934,-7017.0,-1277.0,1423.0,203.0,345.0,-225.0,0.217,-0.639,0.058,0.736
1305957,-7355.0,-1627.0,1431.0,188.0,218.0,-139.0,0.219,-0.64,0.059,0.734
1305970,-7999.0,-1371.0,1545.0,28.0,54.0,62.0,0.219,-0.64,0.06,0.734
1305993,-7967.0,-1413.0,1823.0,-37.0,6.0,218.0,0.217,-0.64,0.061,0.735
1306006,-8207.0,-2021.0,1405.0,-54.0,85.0,242.0,0.215,-0.64,0.063,0.735
1306029,-8583.0,-1529.0,2019.0,163.0,-6.0,237.0,0.215,-0.64,0.065,0.735
1306042,-8889.0,-1203.0,2441.0,97.0,-13.0,444.0,0.212,-0.639,0.069,0.736
1306065,-8523.0,-557.0,1943.0,-86.0,-111.0,599.0,0.208,-0.638,0.072,0.738
1306078,-8985.0,-1415.0,1989.0,-153.0,-130.0,448.0,0.204,-0.637,0.073,0.74
1306101,-8705.0,-553.0,2281.0,-199.0,-183.0,462.0,0.2,-0.636,0.074,0.742
1306114,-9197.0,-1043.0,2087.0,-263.0,-266.0,544.0,0.195,-0.634,0.075,0.745
1306137,-8391.0,-555.0,1921.0,-305.0,-193.0,437.0,0.19,-0.633,0.075,0.747
1306150,-8811.0,-437.0,2169.0,-284.0,-232.0,443.0,0.185,-0.631,0.076,0.749
1306163,-9327.0,-1215.0,2081.0,-314.0,-220.0,605.0,0.179,-0.63,0.077,0.752
1306186,-9359.0,-579.0,1361.0,-300.0,-360.0,600.0,0.174,-0.627,0.078,0.755
1306199,-9625.0,-861.0,1389.0,-488.0,-246.0,412.0,0.168,-0.626,0.076,0.758
1306222,-10013.0,-609.0,2839.0,-481.0,-267.0,402.0,0.163,-0.624,0.075,0.76
1306235,-10253.0,-587.0,2185.0,-227.0,-264.0,419.0,0.159,-0.623,0.076,0.763
1306258,-11071.0,-1217.0,1577.0,-162.0,-195.0,485.0,0.155,-0.621,0.077,0.765
1306271,-11099.0,-357.0,2233.0,-177.0,-148.0,466.0,0.15,-0.62,0.078,0.766
1306284,-11429.0,-97.0,2137.0,-167.0,-106.0,264.0,0.148,-0.619,0.079,0.767
1306307,-11935.0,-175.0,2565.0,66.0,-117.0,79.0,0.148,-0.618,0.079,0.768
1306320,-12213.0,493.0,2745.0,221.0,-201.0,108.0,0.148,-0.616,0.081,0.769
1306343,-12915.0,-331.0,2067.0,139.0,-190.0,191.0,0.148,-0.614,0.083,0.771
1306356,-12459.0,285.0,2639.0,143.0,-80.0,68.0,0.148,-0.614,0.085,0.771
1306379,-12405.0,675.0,2401.0,164.0,27.0,-162.0,0.15,-0.614,0.085,0.771
1306392,-12713.0,189.0,2863.0,252.0,61.0,-216.0,0.153,-0.614,0.085,0.77
1306415,-12587.0,209.0,2999.0,293.0,-5.0,-59.0,0.155,-0.613,0.087,0.77
1306428,-12879.0,-325.0,1961.0,190.0,47.0,-65.0,0.157,-0.613,0.088,0.769
1306451,-12387.0,163.0,2411.0,154.0,189.0,-329.0,0.16,-0.615,0.088,0.767
1306464,-12401.0,-415.0,3369.0,226.0,247.0,-469.0,0.164,-0.617,0.087,0.765
1306477,-12501.0,-911.0,3717.0,337.0,344.0,-357.0,0.168,-0.619,0.088,0.762
1306500,-11751.0,-665.0,2751.0,433.0,452.0,-325.0,0.173,-0.621,0.09,0.759
1306513,-12215.0,-105.0,2605.0,390.0,341.0,-342.0,0.177,-0.624,0.091,0.756
1306536,-11631.0,-623.0,2505.0,204.0,421.0,-527.0,0.182,-0.627,0.09,0.753
1306549,-11029.0,-545.0,2545.0,220.0,404.0,-752.0,0.188,-0.63,0.088,0.749
1306572,-10345.0,-443.0,3073.0,283.0,302.0,-768.0,0.195,-0.632,0.086,0.745
1306585,-10417.0,-261.0,3197.0,409.0,140.0,-675.0,0.202,-0.632,0.086,0.743
1306608,-9997.0,-591.0,1515.0,302.0,123.0,-489.0,0.207,-0.633,0.085,0.741
1306621,-9475.0,-129.0,1265.0,78.0,19.0,-452.0,0.21,-0.633,0.083,0.74
1306644,-8777.0,-639.0,1745.0,-79.0,56.0,-478.0,0.213,-0.634,0.08,0.739
1306657,-8119.0,29.0,2075.0,-82.0,-92.0,-410.0,0.216,-0.634,0.077,0.739
1306670,-7863.0,-1149.0,1945.0,6.0,-173.0,-324.0,0.218,-0.633,0.075,0.739
1306693,-7437.0,-985.0,-85.0,-71.0,-139.0,-187.0,0.219,-0.632,0.074,0.74
1306706,-7167.0,-1195.0,911.0,-178.0,-243.0,-308.0,0.22,-0.631,0.07,0.74
1306729,-6499.0,-1069.0,1689.0,-285.0,-263.0,-21.0,0.219,-0.63,0.068,0.742
1306742,-6471.0,-1559.0,1473.0,-245.0,-369.0,134.0,0.217,-0.628,0.066,0.745
1306765,-5883.0,-1469.0,1177.0,-221.0,-504.0,267.0,0.215,-0.624,0.065,0.748
1306778,-5647.0,-2265.0,133.0,-268.0,-493.0,382.0,0.211,-0.621,0.065,0.752
1306801,-4853.0,-2101.0,609.0,-304.0,-478.0,426.0,0.207,-0.618,0.065,0.756
1306814,-4535.0,-2217.0,1339.0,-95.0,-465.0,464.0,0.203,-0.615,0.066,0.759
1306827,-3817.0,-1869.0,1071.0,-195.0,-421.0,569.0,0.199,-0.611,0.067,0.763
1306850,-3621.0,-2275.0,779.0,-188.0,-556.0,653.0,0.193,-0.607,0.069,0.767
1306863,-3031.0,-2705.0,143.0,-330.0,-387.0,593.0,0.188,-0.605,0.069,0.771
1306886,-1881.0,-1539.0,1237.0,-151.0,-337.0,409.0,0.184,-0.602,0.07,0.774
1306899,-1703.0,-1813.0,333.0,-148.0,-114.0,300.0,0.182,-0.601,0.071,0.775
1306922,-1427.0,-1593.0,1211.0,-22.0,52.0,240.0,0.18,-0.602,0.072,0.775
1306935,-1557.0,-1267.0,1003.0,-1.0,213.0,183.0,0.179,-0.603,0.074,0.774
1306958,-1887.0,-1651.0,915.0,-50.0,360.0,87.0,0.178,-0.606,0.075,0.772
1306971,-2085.0,-1465.0,787.0,-30.0,465.0,-92.0,0.178,-0.609,0.075,0.769
1306994,-2049.0,-1485.0,1019.0,-83.0,613.0,-328.0,0.18,-0.614,0.074,0.765
1307007,-2567.0,-1493.0,1261.0,-69.0,630.0,-534.0,0.183,-0.619,0.071,0.761
1307020,-2805.0,-1279.0,873.0,-119.0,661.0,-612.0,0.186,-0.624,0.068,0.756
1307043,-3679.0,-2001.0,747.0,-32.0,681.0,-566.0,0.19,-0.629,0.066,0.751
1307056,-4623.0,-2673.0,165.0,-58.0,762.0,-545.0,0.193,-0.635,0.064,0.746
1307079,-4811.0,-957.0,677.0,-102.0,690.0,-752.0,0.197,-0.64,0.06,0.74
1307092,-5023.0,-1703.0,559.0,-106.0,499.0,-856.0,0.202,-0.644,0.056,0.736
1307115,-6847.0,-4525.0,-241.0,31.0,767.0,-566.0,0.207,-0.65,0.054,0.73
1307128,-7257.0,-1069.0,929.0,237.0,619.0,-564.0,0.212,-0.654,0.053,0.725
1307151,-7287.0,-2157.0,893.0,14.0,378.0,-337.0,0.214,-0.656,0.052,0.722
1307164,-7373.0,-1615.0,1121.0,-152.0,241.0,-329.0,0.215,-0.658,0.05,0.72
1307187,-8139.0,-2065.0,1423.0,-60.0,148.0,-408.0,0.218,-0.66,0.047,0.718
1307200,-8543.0,-2793.0,1035.0,-77.0,228.0,-255.0,0.219,-0.661,0.046,0.716
1307213,-8479.0,-1025.0,1093.0,-133.0,141.0,-69.0,0.218,-0.662,0.045,0.715
1307236,-7899.0,-1265.0,1581.0,-229.0,108.0,-57.0,0.217,-0.663,0.043,0.715
1307249,-8419.0,-951.0,2413.0,-307.0,119.0,191.0,0.214,-0.665,0.043,0.715
1307272,-9225.0,-3617.0,19.0,-98.0,229.0,326.0,0.211,-0.666,0.045,0.714
1307285,-8729.0,143.0,1217.0,-107.0,141.0,219.0,0.209,-0.667,0.046,0.714
1307308,-9261.0,-1031.0,1485.0,-371.0,30.0,81.0,0.206,-0.668,0.044,0.714
1307321,-9279.0,-1235.0,1433.0,-448.0,-38.0,-60.0,0.203,-0.668,0.041,0.714
1307344,-9473.0,-1327.0,1775.0,-473.0,-2.0,8.0,0.2,-0.669,0.038,0.715
1307357,-9285.0,-1709.0,729.0,-341.0,14.0,82.0,0.198,-0.67,0.036,0.715
1307370,-9839.0,-1065.0,1131.0,-232.0,-58.0,219.0,0.195,-0.67,0.036,0.716
1307393,-10381.0,-1955.0,1211.0,-429.0,-144.0,436.0,0.189,-0.669,0.035,0.717
1307406,-10087.0,-1781.0,707.0,-402.0,-250.0,455.0,0.184,-0.668,0.035,0.72
1307429,-10763.0,-1895.0,503.0,-472.0,-236.0,481.0,0.178,-0.667,0.035,0.722
1307442,-11561.0,-2417.0,-149.0,-448.0,-289.0,493.0,0.172,-0.666,0.034,0.725
1307465,-11931.0,-2251.0,31.0,-365.0,-360.0,337.0,0.167,-0.664,0.033,0.728
1307478,-12603.0,-2361.0,301.0,-435.0,-404.0,326.0,0.162,-0.662,0.032,0.731
1307501,-12877.0,-1955.0,355.0,-382.0,-516.0,228.0,0.159,-0.659,0.03,0.735
1307514,-12963.0,-2563.0,-129.0,-330.0,-459.0,77.0,0.156,-0.656,0.027,0.738
1307537,-13317.0,-1971.0,-289.0,-304.0,-258.0,-48.0,0.154,-0.655,0.024,0.74
1307550,-13491.0,-2151.0,669.0,-370.0,-207.0,-137.0,0.153,-0.654,0.021,0.741
1307563,-13445.0,-2125.0,1193.0,-272.0,-252.0,-260.0,0.153,-0.652,0.017,0.742
1307586,-12897.0,-2109.0,1321.0,-141.0,-200.0,-426.0,0.155,-0.651,0.013,0.743
1307599,-12551.0,-2231.0,1155.0,-47.0,71.0,-547.0,0.159,-0.652,0.009,0.742
1307622,-12835.0,-1947.0,1493.0,-32.0,196.0,-420.0,0.161,-0.653,0.007,0.74
1307640,-12243.0,-1781.0,1835.0,-78.0,278.0,-388.0,0.163,-0.655,0.004,0.738
1307653,-11701.0,-2131.0,1547.0,76.0,359.0,-502.0,0.167,-0.657,0.002,0.735
1307676,-11687.0,-2101.0,1799.0,245.0,405.0,-533.0,0.172,-0.66,0.001,0.731
1307689,-11979.0,-1899.0,2125.0,187.0,206.0,-431.0,0.176,-0.661,0.0,0.73
1307712,-11487.0,-2607.0,2933.0,156.0,-43.0,-360.0,0.179,-0.66,-0.001,0.729
1307725,-10817.0,-2843.0,3457.0,218.0,-103.0,-164.0,0.182,-0.659,-0.001,0.73
1307738,-10413.0,-913.0,-165.0,320.0,-114.0,-578.0,0.188,-0.658,-0.002,0.729
1307761,-10667.0,-2653.0,-267.0,-227.0,219.0,-290.0,0.188,-0.66,-0.005,0.728
1307774,-9487.0,-2015.0,333.0,-22.0,83.0,-216.0,0.189,-0.66,-0.007,0.727
1307797,-8509.0,-1761.0,1051.0,89.0,-134.0,-306.0,0.192,-0.659,-0.008,0.727
1307810,-7557.0,-1583.0,1385.0,202.0,-226.0,-453.0,0.196,-0.657,-0.01,0.728
1307833,-7561.0,-2347.0,147.0,433.0,-224.0,-515.0,0.202,-0.655,-0.01,0.728
1307846,-7069.0,-3057.0,-163.0,517.0,77.0,-544.0,0.209,-0.654,-0.01,0.727
1307869,-5597.0,-67.0,2405.0,649.0,-17.0,-358.0,0.215,-0.653,-0.008,0.726
1307882,-6135.0,-2023.0,2053.0,804.0,-204.0,-65.0,0.221,-0.65,-0.003,0.727
1307905,-5715.0,-2067.0,1157.0,548.0,-272.0,185.0,0.223,-0.647,0.001,0.729
1307918,-4757.0,-1593.0,573.0,505.0,-317.0,346.0,0.224,-0.644,0.006,0.732
1307931,-4683.0,-2217.0,813.0,704.0,-396.0,282.0,0.226,-0.639,0.012,0.735
1307954,-3839.0,-2409.0,721.0,670.0,-309.0,302.0,0.228,-0.636,0.018,0.737
1307967,-2891.0,-1245.0,1449.0,651.0,-630.0,418.0,0.229,-0.63,0.024,0.742
1307990,-2457.0,-2633.0,693.0,518.0,-616.0,439.0,0.23,-0.624,0.029,0.746
1308003,-787.0,-1027.0,183.0,454.0,-538.0,361.0,0.23,-0.619,0.033,0.75
1308026,-853.0,-2759.0,537.0,568.0,-340.0,281.0,0.232,-0.616,0.038,0.752
1308039,-655.0,-1301.0,1289.0,690.0,-264.0,246.0,0.234,-0.612,0.044,0.754
1308062,-1375.0,-2691.0,291.0,566.0,-78.0,185.0,0.236,-0.61,0.049,0.754
1308075,-1179.0,-1775.0,1109.0,657.0,39.0,-22.0,0.241,-0.609,0.054,0.754
1308088,-1171.0,-2227.0,851.0,415.0,208.0,-232.0,0.245,-0.61,0.056,0.752
1308111,-2041.0,-2527.0,1383.0,508.0,162.0,-355.0,0.25,-0.61,0.058,0.75
1308124,-1577.0,-2071.0,967.0,293.0,271.0,-494.0,0.255,-0.611,0.058,0.747
1308147,-2915.0,-3073.0,985.0,419.0,272.0,-477.0,0.261,-0.612,0.059,0.744
1308160,-3423.0,-1523.0,1243.0,133.0,59.0,-452.0,0.265,-0.613,0.058,0.742
1308183,-2923.0,-3219.0,1113.0,86.0,196.0,-606.0,0.27,-0.614,0.055,0.74
1308196,-4271.0,-4255.0,749.0,469.0,486.0,-700.0,0.277,-0.616,0.056,0.735
1308219,-5861.0,-2143.0,1991.0,657.0,374.0,-475.0,0.284,-0.617,0.059,0.731
1308232,-6131.0,-2787.0,1621.0,339.0,187.0,-275.0,0.288,-0.618,0.06,0.729
1308255,-5405.0,-1729.0,1967.0,143.0,90.0,-261.0,0.291,-0.618,0.06,0.728
1308268,-5929.0,-2915.0,1947.0,127.0,266.0,-250.0,0.293,-0.62,0.061,0.725
1308281,-8047.0,-5717.0,789.0,573.0,680.0,-323.0,0.298,-0.623,0.065,0.72
1308304,-7145.0,29.0,2333.0,317.0,708.0,-351.0,0.302,-0.627,0.067,0.715
1308317,-7235.0,-2263.0,3119.0,95.0,311.0,-91.0,0.303,-0.628,0.068,0.713
1308340,-7089.0,-1175.0,2649.0,137.0,135.0,107.0,0.303,-0.628,0.07,0.713
1308353,-7497.0,-1359.0,2003.0,149.0,226.0,175.0,0.303,-0.629,0.073,0.712
1308376,-8109.0,-3855.0,1169.0,315.0,530.0,141.0,0.303,-0.632,0.078,0.709
1308389,-8605.0,-935.0,2567.0,577.0,517.0,-41.0,0.307,-0.633,0.083,0.706
1308412,-9045.0,-1339.0,2695.0,162.0,395.0,67.0,0.307,-0.635,0.085,0.703
1308425,-9247.0,-1707.0,2483.0,29.0,271.0,96.0,0.306,-0.637,0.087,0.702
1308448,-9417.0,-1221.0,1829.0,-27.0,219.0,164.0,0.305,-0.638,0.089,0.701
1308461,-9745.0,-3359.0,977.0,127.0,246.0,341.0,0.303,-0.639,0.092,0.701
1308474,-9821.0,-1461.0,1369.0,95.0,178.0,400.0,0.301,-0.64,0.096,0.701
1308497,-9841.0,-1489.0,1641.0,-148.0,19.0,424.0,0.297,-0.64,0.098,0.702
1308510,-10329.0,-2193.0,1621.0,-190.0,-90.0,560.0,0.293,-0.639,0.099,0.704
1308533,-10373.0,-1795.0,1589.0,-211.0,-159.0,630.0,0.287,-0.638,0.101,0.707
1308546,-11161.0,-2829.0,1835.0,-218.0,-88.0,706.0,0.282,-0.637,0.104,0.71
1308569,-11141.0,-1317.0,951.0,-331.0,-13.0,708.0,0.275,-0.637,0.106,0.712
1308582,-11371.0,-1679.0,1333.0,-367.0,-39.0,536.0,0.269,-0.638,0.107,0.714
1308605,-11949.0,-1801.0,1083.0,-376.0,-11.0,452.0,0.264,-0.638,0.107,0.716
1308618,-12559.0,-2391.0,689.0,-256.0,53.0,339.0,0.26,-0.639,0.107,0.716
1308631,-13147.0,-1779.0,1073.0,-381.0,34.0,347.0,0.255,-0.639,0.107,0.717
1308654,-13295.0,-2329.0,647.0,-417.0,9.0,218.0,0.252,-0.64,0.106,0.718
1308667,-13493.0,-2645.0,799.0,-460.0,12.0,43.0,0.249,-0.641,0.103,0.719
1308690,-13385.0,-2701.0,1327.0,-339.0,18.0,-86.0,0.247,-0.642,0.1,0.719
1308703,-13413.0,-2653.0,1409.0,-336.0,97.0,-83.0,0.245,-0.644,0.098,0.718
1308726,-13257.0,-2361.0,1265.0,-375.0,160.0,-104.0,0.244,-0.646,0.095,0.718
1308739,-13261.0,-2165.0,1629.0,-396.0,193.0,-190.0,0.242,-0.648,0.091,0.716
1308762,-12909.0,-2271.0,1569.0,-399.0,218.0,-254.0,0.241,-0.65,0.088,0.715
1308775,-12453.0,-2469.0,1341.0,-252.0,283.0,-358.0,0.242,-0.653,0.085,0.713
1308798,-12625.0,-1597.0,1331.0,-176.0,201.0,-298.0,0.243,-0.655,0.082,0.711
1308811,-11605.0,-1789.0,1093.0,-347.0,50.0,-291.0,0.242,-0.656,0.078,0.71
1308824,-11477.0,-1815.0,1621.0,-318.0,6.0,-313.0,0.243,-0.657,0.074,0.71
1308847,-10395.0,-1943.0,1619.0,-226.0,-11.0,-332.0,0.243,-0.658,0.071,0.709
1308860,-10139.0,-1985.0,1321.0,-17.0,-22.0,-321.0,0.246,-0.658,0.069,0.709
1308883,-9817.0,-1921.0,1475.0,-56.0,-110.0,-148.0,0.246,-0.657,0.067,0.709
1308896,-8735.0,-1047.0,2317.0,-200.0,-182.0,-5.0,0.245,-0.657,0.065,0.71
1308919,-8003.0,-1565.0,2327.0,-198.0,-388.0,-184.0,0.246,-0.654,0.062,0.713
1308932,-7293.0,-2341.0,313.0,-47.0,-391.0,8.0,0.245,-0.652,0.061,0.715
1308955,-6481.0,-1309.0,499.0,50.0,-406.0,-129.0,0.247,-0.649,0.06,0.717
1308968,-5409.0,-875.0,1045.0,-307.0,-351.0,-88.0,0.246,-0.647,0.056,0.719
1308991,-5019.0,-937.0,1739.0,-96.0,-514.0,-55.0,0.246,-0.644,0.054,0.722
1309004,-5249.0,-2361.0,955.0,36.0,-403.0,87.0,0.246,-0.641,0.054,0.725
1309017,-5543.0,-3451.0,-213.0,153.0,-252.0,277.0,0.245,-0.639,0.057,0.727
1309040,-5003.0,-1639.0,415.0,142.0,-329.0,396.0,0.244,-0.636,0.059,0.73
1309053,-5405.0,-2475.0,765.0,85.0,-452.0,529.0,0.241,-0.633,0.062,0.733
1309076,-4815.0,-2903.0,1127.0,69.0,-531.0,610.0,0.238,-0.628,0.065,0.738
1309089,-4151.0,-2511.0,237.0,188.0,-608.0,641.0,0.235,-0.623,0.069,0.743
1309112,-3617.0,-2555.0,495.0,223.0,-556.0,665.0,0.232,-0.618,0.074,0.747
1309125,-2685.0,-1985.0,799.0,142.0,-432.0,629.0,0.229,-0.615,0.077,0.751
1309148,-1989.0,-1855.0,925.0,233.0,-359.0,549.0,0.227,-0.611,0.082,0.754
1309161,-1387.0,-1059.0,1157.0,230.0,-289.0,459.0,0.226,-0.608,0.085,0.756
1309174,-1067.0,-1039.0,875.0,194.0,-342.0,376.0,0.224,-0.605,0.088,0.759
1309197,-1327.0,-919.0,1057.0,220.0,-300.0,237.0,0.224,-0.602,0.091,0.761
1309210,-1227.0,-967.0,1059.0,196.0,-1.0,46.0,0.225,-0.602,0.093,0.761
1309233,-2049.0,-1469.0,769.0,211.0,267.0,-107.0,0.227,-0.603,0.094,0.759
1309246,-2977.0,-1549.0,881.0,167.0,378.0,-247.0,0.23,-0.606,0.095,0.756
1309269,-2725.0,-1141.0,1165.0,24.0,363.0,-416.0,0.233,-0.608,0.094,0.753
1309282,-3235.0,-1739.0,1313.0,42.0,262.0,-485.0,0.236,-0.61,0.092,0.75
1309305,-3495.0,-1855.0,583.0,155.0,399.0,-585.0,0.241,-0.613,0.091,0.747
1309318,-4465.0,-3055.0,83.0,289.0,493.0,-598.0,0.247,-0.617,0.091,0.742
1309341,-4843.0,-1385.0,1243.0,340.0,471.0,-595.0,0.252,-0.619,0.091,0.738
1309354,-5041.0,-1477.0,1049.0,170.0,378.0,-526.0,0.257,-0.622,0.09,0.734
1309367,-5705.0,-2267.0,1255.0,143.0,380.0,-472.0,0.261,-0.625,0.089,0.731
1309390,-6523.0,-2361.0,1231.0,384.0,378.0,-453.0,0.266,-0.627,0.09,0.727
1309403,-6729.0,-1285.0,1297.0,211.0,421.0,-477.0,0.27,-0.629,0.09,0.723
1309426,-6633.0,-1095.0,2159.0,95.0,335.0,-386.0,0.273,-0.631,0.09,0.72
1309439,-7915.0,-3163.0,1785.0,118.0,470.0,-268.0,0.276,-0.634,0.09,0.717
1309462,-7647.0,-871.0,1371.0,408.0,349.0,-165.0,0.279,-0.636,0.093,0.714
1309475,-7833.0,-1033.0,1599.0,48.0,406.0,-55.0,0.279,-0.638,0.094,0.711
1309498,-8883.0,-985.0,2363.0,-55.0,299.0,163.0,0.277,-0.64,0.096,0.71
1309511,-8611.0,-1017.0,1919.0,-11.0,237.0,190.0,0.276,-0.641,0.098,0.709
1309534,-9697.0,-1439.0,1427.0,-156.0,264.0,59.0,0.274,-0.644,0.098,0.708
1309547,-10077.0,-759.0,1805.0,-267.0,156.0,94.0,0.272,-0.645,0.097,0.707
1309560,-9919.0,-1063.0,1531.0,-382.0,158.0,80.0,0.269,-0.647,0.095,0.707
1309583,-9991.0,-779.0,2099.0,-363.0,26.0,138.0,0.266,-0.648,0.094,0.708
1309596,-10871.0,-2623.0,1453.0,-423.0,66.0,395.0,0.261,-0.649,0.094,0.709
1309619,-11087.0,-1613.0,1197.0,-286.0,6.0,505.0,0.256,-0.649,0.095,0.71
1309632,-11163.0,-1589.0,1351.0,-402.0,85.0,552.0,0.249,-0.65,0.096,0.711
1309650,-11831.0,-1761.0,1159.0,-506.0,87.0,567.0,0.243,-0.651,0.096,0.712
1309673,-11999.0,-2375.0,1085.0,-472.0,63.0,536.0,0.236,-0.652,0.096,0.714
1309686,-12263.0,-1561.0,1099.0,-361.0,27.0,538.0,0.23,-0.653,0.097,0.715
1309709,-12555.0,-2007.0,509.0,-348.0,-5.0,476.0,0.225,-0.653,0.098,0.717
1309722,-12713.0,-2351.0,383.0,-381.0,-3.0,341.0,0.22,-0.653,0.098,0.718
1309735,-13297.0,-2173.0,669.0,-430.0,15.0,241.0,0.216,-0.654,0.096,0.718
1309758,-13485.0,-2029.0,897.0,-316.0,-46.0,31.0,0.214,-0.654,0.094,0.719
1309771,-13445.0,-2297.0,1327.0,-249.0,-116.0,-49.0,0.213,-0.654,0.092,0.72
1309794,-12891.0,-2811.0,407.0,-174.0,11.0,-176.0,0.213,-0.655,0.09,0.72
1309807,-13375.0,-2069.0,761.0,-223.0,62.0,-303.0,0.213,-0.656,0.087,0.719
1309830,-13229.0,-2253.0,499.0,-303.0,-43.0,-456.0,0.215,-0.656,0.082,0.719
1309843,-13319.0,-2091.0,1715.0,-296.0,-180.0,-554.0,0.217,-0.656,0.076,0.719
1309866,-12899.0,-2395.0,1941.0,-131.0,-303.0,-513.0,0.22,-0.655,0.071,0.72
1309879,-12281.0,-2263.0,959.0,17.0,-288.0,-474.0,0.223,-0.653,0.068,0.721
1309902,-12519.0,-1959.0,1255.0,-34.0,-244.0,-520.0,0.226,-0.652,0.064,0.721
1309915,-11875.0,-2523.0,1821.0,-33.0,-142.0,-532.0,0.23,-0.651,0.06,0.721
1309928,-11711.0,-1629.0,2055.0,35.0,-223.0,-611.0,0.234,-0.65,0.056,0.721
1309951,-11917.0,-2021.0,1655.0,403.0,-365.0,-814.0,0.242,-0.647,0.053,0.721
1309964,-10887.0,-3539.0,307.0,182.0,-230.0,-478.0,0.247,-0.645,0.051,0.721
1309987,-10655.0,-2615.0,1215.0,209.0,-322.0,-268.0,0.25,-0.642,0.05,0.723
1310000,-9487.0,-2029.0,1835.0,88.0,-471.0,-25.0,0.251,-0.639,0.05,0.725
1310023,-8639.0,-2079.0,2221.0,233.0,-616.0,-49.0,0.253,-0.634,0.05,0.729
1310036,-7929.0,-1905.0,1615.0,307.0,-630.0,78.0,0.255,-0.629,0.051,0.733
1310059,-7405.0,-1901.0,727.0,158.0,-563.0,270.0,0.254,-0.625,0.052,0.736
1310072,-6945.0,-2491.0,2195.0,278.0,-530.0,320.0,0.254,-0.62,0.055,0.74
1310085,-5765.0,-1393.0,1955.0,275.0,-445.0,508.0,0.252,-0.616,0.059,0.744
1310108,-5907.0,-1741.0,2045.0,409.0,-431.0,727.0,0.25,-0.612,0.065,0.748
1310121,-5139.0,-1885.0,533.0,319.0,-338.0,948.0,0.245,-0.608,0.072,0.752
1310144,-4203.0,-2251.0,453.0,168.0,-209.0,962.0,0.24,-0.606,0.078,0.755
1310157,-3207.0,-1289.0,1867.0,409.0,-185.0,815.0,0.237,-0.603,0.085,0.757
1310180,-2285.0,-189.0,2037.0,265.0,-271.0,936.0,0.232,-0.599,0.092,0.761
1310193,-2179.0,-2059.0,969.0,144.0,-221.0,1028.0,0.226,-0.596,0.099,0.764
1310216,-1435.0,-1243.0,733.0,161.0,-159.0,988.0,0.22,-0.594,0.105,0.767
1310229,-849.0,-1179.0,765.0,311.0,5.0,763.0,0.217,-0.592,0.112,0.768
1310252,-1051.0,-1601.0,1333.0,463.0,212.0,582.0,0.215,-0.592,0.119,0.767
1310265,-819.0,-53.0,1411.0,410.0,349.0,485.0,0.214,-0.593,0.126,0.766
1310278,-1605.0,-1125.0,1391.0,369.0,422.0,299.0,0.213,-0.595,0.131,0.764
1310301,-1621.0,-803.0,957.0,274.0,459.0,160.0,0.213,-0.598,0.135,0.761
1310314,-2297.0,-1195.0,1353.0,235.0,480.0,-54.0,0.215,-0.601,0.137,0.758
1310337,-2323.0,-1075.0,1159.0,147.0,535.0,-240.0,0.217,-0.604,0.138,0.754
1310350,-2681.0,-1381.0,1145.0,185.0,584.0,-400.0,0.22,-0.608,0.139,0.75
1310373,-3309.0,-1343.0,193.0,195.0,667.0,-480.0,0.224,-0.613,0.139,0.745
1310386,-4117.0,-1591.0,827.0,128.0,688.0,-539.0,0.228,-0.618,0.138,0.739
1310409,-4693.0,-1313.0,875.0,134.0,702.0,-656.0,0.232,-0.624,0.137,0.734
1310422,-5103.0,-913.0,1081.0,41.0,707.0,-716.0,0.237,-0.629,0.135,0.728
1310445,-5833.0,-1825.0,1047.0,83.0,715.0,-731.0,0.241,-0.635,0.133,0.722
1310458,-5777.0,-895.0,451.0,20.0,696.0,-756.0,0.246,-0.64,0.131,0.716
1310471,-6853.0,-1007.0,935.0,213.0,681.0,-991.0,0.253,-0.645,0.128,0.709
1310494,-7087.0,-567.0,711.0,-22.0,632.0,-628.0,0.257,-0.65,0.126,0.704
1310507,-7987.0,-2735.0,731.0,207.0,620.0,-534.0,0.261,-0.654,0.125,0.699
1310530,-7617.0,-389.0,903.0,144.0,634.0,-454.0,0.264,-0.659,0.125,0.694
1310543,-8099.0,-767.0,1015.0,17.0,518.0,-301.0,0.265,-0.662,0.125,0.69
1310566,-8505.0,-757.0,1051.0,-233.0,465.0,-289.0,0.265,-0.666,0.123,0.686
1310579,-8677.0,-1587.0,279.0,-278.0,501.0,-355.0,0.265,-0.67,0.121,0.683
1310602,-8157.0,-1495.0,185.0,-169.0,484.0,-430.0,0.266,-0.674,0.118,0.679
1310615,-9469.0,-1407.0,485.0,-13.0,381.0,-366.0,0.268,-0.677,0.117,0.675
1310628,-9271.0,-1257.0,639.0,-372.0,330.0,-169.0,0.267,-0.68,0.114,0.673
1310651,-9351.0,-1525.0,319.0,-447.0,131.0,-155.0,0.265,-0.682,0.111,0.673
1310664,-9215.0,-1513.0,21.0,-440.0,34.0,-176.0,0.263,-0.683,0.107,0.672
1310687,-9469.0,-1733.0,9.0,-346.0,13.0,-32.0,0.261,-0.684,0.105,0.673
1310700,-10129.0,-2973.0,-661.0,-273.0,135.0,148.0,0.258,-0.686,0.105,0.672
1310723,-10647.0,-1661.0,297.0,-350.0,3.0,295.0,0.254,-0.686,0.104,0.673
1310736,-10803.0,-1615.0,189.0,-393.0,-152.0,304.0,0.25,-0.686,0.104,0.676
1310759,-11051.0,-2749.0,-473.0,-332.0,-125.0,237.0,0.247,-0.685,0.103,0.677
1310772,-11747.0,-2285.0,-609.0,-14.0,-40.0,217.0,0.245,-0.685,0.104,0.678
1310795,-12247.0,-3029.0,-965.0,331.0,86.0,225.0,0.246,-0.685,0.108,0.678
1310808,-13169.0,-2245.0,-5.0,209.0,-50.0,361.0,0.245,-0.683,0.112,0.679
1310831,-13115.0,-2817.0,-145.0,53.0,-179.0,301.0,0.244,-0.682,0.114,0.68
1310844,-13493.0,-2401.0,-207.0,-13.0,-217.0,69.0,0.244,-0.68,0.113,0.682
1310857,-13241.0,-3227.0,-7.0,232.0,-214.0,-198.0,0.247,-0.678,0.113,0.683
1310880,-13761.0,-3215.0,-149.0,382.0,-90.0,-253.0,0.251,-0.677,0.114,0.682
1310893,-13929.0,-2895.0,259.0,277.0,-175.0,-161.0,0.254,-0.676,0.114,0.683
1310916,-12903.0,-3191.0,197.0,163.0,-179.0,-268.0,0.257,-0.674,0.113,0.683
1310929,-12535.0,-2959.0,307.0,229.0,-172.0,-444.0,0.261,-0.673,0.112,0.683
1310952,-12273.0,-3095.0,569.0,275.0,-47.0,-517.0,0.266,-0.673,0.11,0.682
1310965,-11833.0,-3197.0,119.0,301.0,95.0,-404.0,0.27,-0.673,0.11,0.68
1310988,-11689.0,-3023.0,767.0,263.0,259.0,-312.0,0.274,-0.674,0.11,0.677
1311001,-11915.0,-3175.0,1407.0,273.0,242.0,-262.0,0.277,-0.675,0.111,0.675
1311014,-11467.0,-3497.0,775.0,393.0,284.0,-287.0,0.281,-0.676,0.112,0.672
1311037,-11629.0,-3869.0,647.0,555.0,402.0,-242.0,0.286,-0.677,0.115,0.668
1311050,-11635.0,-3041.0,601.0,624.0,386.0,-30.0,0.289,-0.678,0.12,0.665
1311073,-11129.0,-3097.0,883.0,578.0,64.0,-59.0,0.293,-0.677,0.124,0.664
1311086,-10349.0,-1755.0,1481.0,413.0,-235.0,246.0,0.295,-0.674,0.127,0.665
1311109,-8605.0,-1185.0,1603.0,392.0,-413.0,339.0,0.296,-0.67,0.131,0.669
1311122,-8553.0,-1151.0,1487.0,236.0,-557.0,462.0,0.295,-0.665,0.134,0.673
1311145,-7419.0,-733.0,1193.0,-12.0,-580.0,561.0,0.292,-0.66,0.136,0.678
1311158,-6733.0,-2485.0,1097.0,0.0,-501.0,514.0,0.29,-0.656,0.138,0.683
1311171,-5873.0,-459.0,665.0,372.0,-605.0,595.0,0.289,-0.651,0.142,0.688
1311194,-4947.0,597.0,1143.0,234.0,-463.0,624.0,0.287,-0.646,0.146,0.692
1311207,-5173.0,-877.0,763.0,185.0,-493.0,762.0,0.284,-0.641,0.151,0.697
1311230,-5007.0,-1271.0,1003.0,270.0,-393.0,841.0,0.281,-0.637,0.157,0.701
1311243,-3517.0,-497.0,889.0,40.0,-197.0,812.0,0.276,-0.634,0.162,0.704
1311266,-2609.0,-255.0,469.0,233.0,-256.0,721.0,0.273,-0.631,0.167,0.707
1311279,-3317.0,-713.0,973.0,164.0,-221.0,787.0,0.27,-0.627,0.172,0.71
1311302,-2707.0,-445.0,1057.0,-17.0,-210.0,802.0,0.265,-0.625,0.177,0.713
1311315,-2143.0,-1101.0,813.0,77.0,-238.0,678.0,0.261,-0.622,0.181,0.716
1311338,-1953.0,-1363.0,839.0,67.0,-182.0,584.0,0.258,-0.619,0.184,0.718
1311351,-1237.0,-789.0,613.0,-29.0,-7.0,378.0,0.256,-0.618,0.186,0.719
1311364,-1259.0,-877.0,559.0,-59.0,154.0,90.0,0.255,-0.619,0.187,0.719
1311387,-1287.0,-793.0,1281.0,-112.0,232.0,-89.0,0.255,-0.621,0.187,0.717
1311400,-2059.0,-1845.0,669.0,-82.0,287.0,-292.0,0.256,-0.624,0.185,0.715
1311423,-2481.0,-609.0,663.0,-189.0,250.0,-427.0,0.257,-0.626,0.182,0.713
1311436,-2845.0,-1243.0,493.0,-315.0,329.0,-603.0,0.259,-0.63,0.178,0.71
1311459,-3265.0,-1303.0,113.0,-219.0,453.0,-831.0,0.263,-0.635,0.173,0.705
1311472,-3401.0,-2105.0,-501.0,-149.0,662.0,-976.0,0.267,-0.641,0.168,0.699
1311495,-4767.0,-479.0,551.0,30.0,508.0,-899.0,0.273,-0.646,0.164,0.694
1311508,-5353.0,-2029.0,99.0,-156.0,591.0,-784.0,0.276,-0.651,0.16,0.689
1311531,-6195.0,-1249.0,217.0,-150.0,523.0,-613.0,0.279,-0.656,0.157,0.684
1311544,-6243.0,-1071.0,393.0,-176.0,547.0,-625.0,0.281,-0.66,0.154,0.679
1311557,-7531.0,-2903.0,-219.0,-45.0,672.0,-614.0,0.284,-0.666,0.151,0.673
1311580,-7255.0,-281.0,211.0,-122.0,671.0,-501.0,0.285,-0.671,0.149,0.668
1311593,-8361.0,-2319.0,351.0,-130.0,745.0,-466.0,0.287,-0.676,0.147,0.662
1311616,-8721.0,-2391.0,-297.0,-87.0,780.0,-387.0,0.287,-0.682,0.147,0.656
1311629,-9217.0,-753.0,285.0,-10.0,520.0,-138.0,0.288,-0.685,0.147,0.653
1311657,-9165.0,-1391.0,183.0,-159.0,435.0,-156.0,0.287,-0.689,0.147,0.65
1311670,-9745.0,-2357.0,-327.0,-137.0,349.0,-55.0,0.286,-0.691,0.146,0.647
1311683,-9221.0,-797.0,9.0,-154.0,278.0,-114.0,0.285,-0.693,0.145,0.646
1311706,-9369.0,-1737.0,-137.0,-194.0,188.0,-278.0,0.285,-0.695,0.143,0.644
1311719,-8973.0,-1307.0,-245.0,-307.0,123.0,-419.0,0.286,-0.697,0.139,0.643
1311732,-9101.0,-1857.0,-1.0,-258.0,97.0,-358.0,0.286,-0.699,0.135,0.641
1311755,-9069.0,-2683.0,-171.0,-196.0,60.0,-245.0,0.286,-0.7,0.133,0.641
1311768,-9379.0,-1325.0,9.0,-207.0,-92.0,-174.0,0.286,-0.7,0.13,0.641
1311791,-9453.0,-2651.0,-241.0,-320.0,-96.0,-92.0,0.285,-0.701,0.127,0.642
1311804,-9211.0,-2421.0,-555.0,-153.0,-95.0,-3.0,0.284,-0.7,0.126,0.643
1311827,-9711.0,-2513.0,-381.0,-158.0,-34.0,112.0,0.282,-0.7,0.126,0.643
1311840,-9873.0,-2565.0,-509.0,-123.0,-54.0,248.0,0.28,-0.7,0.127,0.644
1311863,-10527.0,-2783.0,-655.0,-25.0,-20.0,356.0,0.278,-0.7,0.129,0.646
1311876,-11059.0,-2743.0,-557.0,29.0,42.0,443.0,0.275,-0.699,0.132,0.646
1311899,-11733.0,-2799.0,-555.0,43.0,-5.0,434.0,0.273,-0.698,0.135,0.648
1311912,-12327.0,-2717.0,-503.0,15.0,-80.0,446.0,0.271,-0.697,0.138,0.649
1311925,-12699.0,-2829.0,-589.0,6.0,-83.0,380.0,0.268,-0.696,0.141,0.651
1311948,-13113.0,-2757.0,-575.0,8.0,-19.0,308.0,0.267,-0.696,0.143,0.652
1311961,-13337.0,-2591.0,-175.0,17.0,-42.0,207.0,0.266,-0.695,0.144,0.652
1311984,-13485.0,-3031.0,-325.0,93.0,-6.0,105.0,0.265,-0.695,0.145,0.653
1311997,-13901.0,-2457.0,15.0,104.0,-12.0,-10.0,0.266,-0.694,0.146,0.653
1312020,-13739.0,-2611.0,71.0,110.0,-3.0,-213.0,0.268,-0.694,0.145,0.652
1312033,-13209.0,-2203.0,-153.0,126.0,33.0,-406.0,0.271,-0.695,0.143,0.651
1312056,-13003.0,-2555.0,83.0,184.0,72.0,-458.0,0.275,-0.695,0.142,0.649
1312069,-12257.0,-2419.0,-173.0,203.0,79.0,-420.0,0.279,-0.696,0.14,0.647
1312082,-12067.0,-2523.0,-183.0,215.0,116.0,-397.0,0.283,-0.696,0.139,0.645
1312105,-11389.0,-2151.0,-281.0,250.0,134.0,-424.0,0.287,-0.697,0.139,0.643
1312118,-11303.0,-2649.0,-3.0,264.0,184.0,-415.0,0.291,-0.698,0.138,0.64
1312141,-10467.0,-2927.0,-89.0,245.0,107.0,-417.0,0.295,-0.698,0.137,0.638
1312154,-9821.0,-1797.0,65.0,255.0,77.0,-141.0,0.297,-0.698,0.138,0.637
1312177,-9327.0,-1901.0,-177.0,181.0,49.0,-91.0,0.299,-0.698,0.139,0.636
1312190,-8549.0,-1963.0,-171.0,237.0,26.0,-18.0,0.3,-0.697,0.14,0.635
1312213,-8417.0,-1935.0,-57.0,293.0,44.0,92.0,0.302,-0.697,0.143,0.635
1312226,-7449.0,-993.0,-101.0,193.0,-50.0,219.0,0.302,-0.695,0.145,0.636
1312249,-6999.0,-1173.0,-591.0,197.0,-117.0,341.0,0.301,-0.694,0.149,0.637
1312262,-6655.0,-665.0,-513.0,104.0,-197.0,470.0,0.299,-0.691,0.152,0.64
1312275,-6389.0,-2115.0,-1487.0,1.0,-339.0,619.0,0.296,-0.689,0.155,0.644
1312298,-4919.0,1173.0,1133.0,128.0,-672.0,704.0,0.294,-0.683,0.159,0.65
1312311,-5037.0,-1397.0,-217.0,-313.0,-473.0,682.0,0.289,-0.68,0.16,0.655
1312334,-4295.0,-1129.0,-123.0,-287.0,-472.0,720.0,0.283,-0.677,0.162,0.66
1312347,-4803.0,-2805.0,-769.0,-80.0,-304.0,759.0,0.279,-0.674,0.165,0.664
1312370,-4313.0,-887.0,663.0,2.0,-274.0,867.0,0.274,-0.671,0.17,0.668
1312383,-5307.0,-1421.0,39.0,53.0,-455.0,1049.0,0.268,-0.666,0.176,0.674
1312406,-5261.0,-3347.0,-449.0,46.0,-395.0,980.0,0.263,-0.661,0.182,0.678
1312419,-5179.0,-2099.0,-391.0,27.0,-472.0,947.0,0.258,-0.657,0.187,0.683
1312442,-3933.0,-1949.0,61.0,17.0,-495.0,727.0,0.255,-0.652,0.19,0.688
1312455,-3081.0,-1591.0,705.0,26.0,-503.0,594.0,0.252,-0.648,0.193,0.693
1312468,-2199.0,-1191.0,81.0,-6.0,-391.0,488.0,0.25,-0.644,0.195,0.696
1312491,-1651.0,-1327.0,141.0,-65.0,-200.0,218.0,0.249,-0.643,0.196,0.698
1312504,-905.0,-93.0,731.0,-89.0,53.0,-103.0,0.249,-0.643,0.195,0.697
1312527,-1527.0,-643.0,631.0,-243.0,200.0,-284.0,0.249,-0.645,0.192,0.696
1312540,-1423.0,-655.0,741.0,-284.0,252.0,-427.0,0.25,-0.648,0.189,0.694
1312563,-2153.0,-965.0,57.0,-267.0,373.0,-645.0,0.252,-0.652,0.184,0.691
1312576,-3413.0,-1593.0,-307.0,-385.0,542.0,-725.0,0.254,-0.658,0.179,0.686
1312599,-3849.0,-1437.0,-481.0,-394.0,547.0,-785.0,0.255,-0.664,0.173,0.682
1312612,-4323.0,-1935.0,-287.0,-339.0,598.0,-871.0,0.258,-0.669,0.167,0.676
1312625,-5145.0,-1485.0,-559.0,-219.0,551.0,-951.0,0.262,-0.675,0.161,0.671
1312648,-6015.0,-1573.0,-247.0,-278.0,452.0,-828.0,0.265,-0.68,0.155,0.666
1312661,-6887.0,-1599.0,-401.0,-318.0,405.0,-723.0,0.267,-0.684,0.15,0.662
1312684,-7253.0,-2425.0,-213.0,-280.0,398.0,-605.0,0.268,-0.688,0.145,0.659
1312697,-6999.0,-1387.0,191.0,-331.0,413.0,-629.0,0.27,-0.692,0.14,0.655
1312720,-7451.0,-1225.0,111.0,-94.0,257.0,-744.0,0.273,-0.695,0.136,0.651
1312733,-8051.0,-1879.0,-381.0,-149.0,200.0,-302.0,0.274,-0.697,0.134,0.65
1312756,-8371.0,-1327.0,-1.0,-201.0,239.0,-261.0,0.274,-0.699,0.131,0.648
1312769,-8273.0,-2359.0,-461.0,-327.0,245.0,-230.0,0.273,-0.701,0.129,0.646
1312792,-9091.0,-1169.0,325.0,-137.0,41.0,-153.0,0.273,-0.702,0.127,0.645
1312805,-8645.0,-1655.0,155.0,-234.0,-30.0,-316.0,0.274,-0.703,0.124,0.645
1312818,-9083.0,-1261.0,-247.0,-393.0,-107.0,-419.0,0.274,-0.704,0.118,0.645
1312841,-9727.0,-3295.0,-269.0,-280.0,-80.0,-300.0,0.274,-0.704,0.114,0.645
1312854,-9609.0,-1667.0,-55.0,-321.0,-84.0,-180.0,0.273,-0.704,0.111,0.646
1312877,-9559.0,-2041.0,-341.0,-262.0,-230.0,-190.0,0.272,-0.704,0.108,0.647
1312890,-9535.0,-2205.0,-331.0,-295.0,-263.0,-225.0,0.272,-0.703,0.104,0.648
1312913,-9747.0,-2255.0,-309.0,-297.0,-344.0,-74.0,0.271,-0.702,0.101,0.651
1312926,-9839.0,-2365.0,-421.0,-316.0,-345.0,57.0,0.269,-0.701,0.098,0.654
1312949,-9725.0,-2179.0,247.0,-337.0,-395.0,91.0,0.267,-0.699,0.096,0.657
1312962,-9175.0,-2005.0,581.0,-347.0,-507.0,142.0,0.264,-0.696,0.094,0.661
1312985,-9095.0,-2037.0,765.0,-358.0,-563.0,224.0,0.261,-0.694,0.092,0.665
1312998,-8717.0,-1473.0,-523.0,-325.0,-598.0,208.0,0.258,-0.691,0.09,0.67
1313011,-8989.0,-2109.0,291.0,-337.0,-510.0,149.0,0.255,-0.688,0.087,0.674
1313034,-9267.0,-2061.0,329.0,-194.0,-446.0,176.0,0.253,-0.685,0.086,0.677
1313047,-9591.0,-1891.0,543.0,-210.0,-455.0,200.0,0.251,-0.683,0.085,0.681
1313070,-9629.0,-2249.0,661.0,-243.0,-454.0,212.0,0.248,-0.68,0.084,0.684
1313083,-9529.0,-1919.0,-49.0,-257.0,-443.0,120.0,0.246,-0.678,0.082,0.688
1313106,-9761.0,-2911.0,103.0,-263.0,-298.0,76.0,0.244,-0.677,0.08,0.69
1313119,-9967.0,-2555.0,307.0,-230.0,-205.0,101.0,0.242,-0.676,0.079,0.692
1313142,-9837.0,-2621.0,523.0,-141.0,-209.0,102.0,0.241,-0.675,0.078,0.694
1313155,-9863.0,-2965.0,505.0,-82.0,-201.0,128.0,0.239,-0.673,0.078,0.695
1313168,-9601.0,-2671.0,501.0,-54.0,-183.0,122.0,0.238,-0.672,0.078,0.697
1313191,-9445.0,-2667.0,473.0,-10.0,-171.0,135.0,0.237,-0.671,0.078,0.698
1313204,-9435.0,-2617.0,323.0,49.0,-184.0,175.0,0.237,-0.669,0.079,0.7
1313227,-9161.0,-2585.0,155.0,118.0,-200.0,183.0,0.236,-0.668,0.08,0.701
1313240,-8987.0,-2653.0,125.0,274.0,-220.0,142.0,0.237,-0.665,0.083,0.703
