timeMs,ax,ay,az,gx,gy,gz,q0,q1,q2,q3
141716,-1094.0,6544.0,4430.0,159.0,-1183.0,62.0,0.483,0.374,-0.306,-0.73
141728,-980.0,7092.0,3572.0,-130.0,-1186.0,345.0,0.482,0.365,-0.312,-0.733
141750,-514.0,6472.0,3826.0,-26.0,-1182.0,422.0,0.482,0.355,-0.319,-0.735
141762,-924.0,7174.0,4258.0,-96.0,-1088.0,572.0,0.483,0.345,-0.325,-0.736
141784,-1250.0,5760.0,4174.0,-48.0,-1059.0,605.0,0.484,0.336,-0.331,-0.737
141796,-1120.0,6856.0,4850.0,143.0,-1106.0,543.0,0.484,0.327,-0.339,-0.737
141818,-1194.0,5402.0,5368.0,223.0,-1044.0,408.0,0.483,0.32,-0.346,-0.738
141840,-760.0,5868.0,4878.0,661.0,-908.0,317.0,0.48,0.315,-0.356,-0.737
141852,-518.0,6830.0,4388.0,693.0,-821.0,493.0,0.479,0.311,-0.366,-0.735
141874,-714.0,7512.0,4172.0,706.0,-784.0,478.0,0.477,0.307,-0.375,-0.733
141886,-514.0,10430.0,4132.0,791.0,-768.0,346.0,0.475,0.304,-0.385,-0.731
141908,-668.0,8934.0,5430.0,-154.0,-441.0,1874.0,0.486,0.294,-0.391,-0.724
141920,-554.0,8920.0,6798.0,-485.0,-233.0,1956.0,0.5,0.283,-0.395,-0.717
141942,-916.0,7754.0,5772.0,-819.0,25.0,1634.0,0.513,0.273,-0.393,-0.713
141954,-100.0,6986.0,4132.0,-1147.0,213.0,1298.0,0.525,0.264,-0.388,-0.71
141976,-1410.0,7306.0,496.0,-1336.0,-225.0,-550.0,0.523,0.259,-0.379,-0.718
141998,2226.0,7776.0,2080.0,-1377.0,-619.0,-631.0,0.52,0.25,-0.372,-0.727
142010,1150.0,5152.0,2930.0,-1644.0,-512.0,-388.0,0.52,0.24,-0.363,-0.735
142032,440.0,7058.0,3866.0,-1386.0,-737.0,-378.0,0.518,0.23,-0.356,-0.743
142044,940.0,6610.0,4098.0,-1548.0,-669.0,-13.0,0.518,0.218,-0.349,-0.75
142066,1548.0,10254.0,4202.0,-1394.0,-691.0,439.0,0.522,0.205,-0.343,-0.754
142078,1508.0,2770.0,3230.0,-1249.0,-620.0,325.0,0.525,0.193,-0.338,-0.757
142100,3066.0,6490.0,3818.0,-1027.0,-773.0,231.0,0.526,0.182,-0.335,-0.76
142112,1662.0,8158.0,4718.0,-1305.0,-586.0,75.0,0.528,0.172,-0.329,-0.764
142134,1102.0,6400.0,5436.0,-1333.0,-700.0,48.0,0.529,0.16,-0.323,-0.768
142146,1420.0,5800.0,5772.0,-1003.0,-677.0,86.0,0.529,0.15,-0.319,-0.771
142168,1792.0,6922.0,5110.0,-1006.0,-643.0,-63.0,0.529,0.141,-0.316,-0.775
142190,2024.0,6912.0,5104.0,-1294.0,-644.0,-269.0,0.527,0.131,-0.309,-0.78
142202,2640.0,5944.0,6780.0,-1493.0,-588.0,-483.0,0.524,0.121,-0.301,-0.787
142224,3168.0,5572.0,7814.0,-1198.0,-330.0,-630.0,0.521,0.115,-0.293,-0.794
142236,3498.0,4490.0,8282.0,-807.0,-289.0,-357.0,0.518,0.11,-0.288,-0.798
142258,3982.0,4050.0,8750.0,-367.0,-139.0,-49.0,0.518,0.107,-0.286,-0.799
142270,3642.0,4068.0,8688.0,59.0,121.0,137.0,0.52,0.108,-0.286,-0.798
142292,2790.0,4158.0,7888.0,324.0,230.0,196.0,0.522,0.111,-0.287,-0.795
142304,2390.0,3904.0,6990.0,493.0,204.0,156.0,0.523,0.114,-0.29,-0.793
142326,2154.0,3850.0,6392.0,612.0,131.0,13.0,0.523,0.118,-0.294,-0.791
142348,1630.0,3624.0,5936.0,662.0,172.0,-118.0,0.523,0.123,-0.298,-0.789
142360,1808.0,3924.0,5586.0,542.0,189.0,-194.0,0.522,0.128,-0.3,-0.788
142382,2130.0,4542.0,5706.0,376.0,152.0,-245.0,0.52,0.131,-0.302,-0.788
142394,1564.0,4094.0,5342.0,147.0,197.0,-223.0,0.519,0.134,-0.302,-0.789
142416,1898.0,3632.0,6130.0,176.0,258.0,-233.0,0.518,0.137,-0.302,-0.789
142428,2202.0,6054.0,6050.0,119.0,345.0,-279.0,0.517,0.141,-0.301,-0.789
142450,2358.0,6820.0,6348.0,-309.0,349.0,-239.0,0.517,0.143,-0.297,-0.79
142462,1526.0,4298.0,6668.0,-234.0,278.0,-185.0,0.517,0.144,-0.293,-0.791
142484,1822.0,5344.0,6676.0,-106.0,294.0,-269.0,0.516,0.146,-0.291,-0.792
142506,1458.0,5982.0,5962.0,-71.0,256.0,-307.0,0.515,0.149,-0.289,-0.793
142518,976.0,6614.0,6278.0,24.0,236.0,-348.0,0.513,0.152,-0.287,-0.794
142540,1088.0,6020.0,5990.0,-127.0,152.0,-288.0,0.512,0.153,-0.285,-0.795
142552,238.0,5006.0,5740.0,-111.0,170.0,-239.0,0.512,0.155,-0.283,-0.796
142574,780.0,5054.0,6190.0,-144.0,160.0,-107.0,0.512,0.156,-0.281,-0.796
142586,334.0,4890.0,6094.0,-31.0,107.0,-49.0,0.513,0.157,-0.28,-0.796
142608,580.0,3934.0,5324.0,72.0,-35.0,-183.0,0.512,0.158,-0.281,-0.797
142620,502.0,3096.0,5618.0,116.0,-83.0,-256.0,0.51,0.158,-0.282,-0.797
142642,988.0,6378.0,5530.0,-179.0,-237.0,-211.0,0.509,0.157,-0.281,-0.799
142654,26.0,2446.0,5952.0,-276.0,-692.0,68.0,0.508,0.15,-0.283,-0.8
142676,-900.0,6126.0,7058.0,603.0,-929.0,935.0,0.512,0.144,-0.293,-0.794
142698,1754.0,10724.0,6264.0,578.0,-508.0,844.0,0.517,0.141,-0.3,-0.789
142710,1464.0,7152.0,5080.0,196.0,-309.0,1031.0,0.524,0.137,-0.305,-0.783
142732,2078.0,6210.0,7382.0,160.0,-523.0,770.0,0.528,0.132,-0.31,-0.78
142744,1140.0,6046.0,6576.0,446.0,-164.0,331.0,0.53,0.132,-0.314,-0.776
142766,1046.0,5188.0,6470.0,528.0,-194.0,220.0,0.531,0.133,-0.319,-0.774
142778,1106.0,6172.0,5010.0,375.0,-20.0,-252.0,0.529,0.136,-0.322,-0.774
142800,1364.0,5980.0,5616.0,367.0,-124.0,-413.0,0.526,0.138,-0.325,-0.774
142812,266.0,5108.0,4920.0,450.0,-104.0,-526.0,0.522,0.141,-0.328,-0.775
142834,714.0,4800.0,4986.0,611.0,-229.0,-522.0,0.517,0.144,-0.332,-0.776
142856,844.0,4902.0,4354.0,801.0,-41.0,-628.0,0.512,0.15,-0.337,-0.776
142868,564.0,5154.0,3776.0,890.0,-24.0,-596.0,0.507,0.156,-0.343,-0.775
142890,950.0,5846.0,3444.0,861.0,-136.0,-478.0,0.502,0.161,-0.349,-0.775
142902,1150.0,5524.0,3804.0,721.0,-280.0,-417.0,0.497,0.164,-0.355,-0.774
142924,1154.0,6232.0,4188.0,700.0,-440.0,-226.0,0.494,0.165,-0.362,-0.773
142936,502.0,3382.0,5606.0,817.0,-482.0,-435.0,0.488,0.167,-0.369,-0.773
142958,2158.0,5818.0,5708.0,979.0,-457.0,-821.0,0.48,0.171,-0.377,-0.773
142970,2292.0,6258.0,5402.0,831.0,-300.0,-498.0,0.475,0.175,-0.383,-0.773
142992,2388.0,7504.0,5750.0,491.0,-190.0,-200.0,0.473,0.177,-0.387,-0.772
143014,2168.0,7710.0,6380.0,188.0,-25.0,-149.0,0.472,0.178,-0.388,-0.771
143026,1626.0,7792.0,6036.0,19.0,88.0,-286.0,0.47,0.18,-0.387,-0.772
143048,2176.0,7220.0,5536.0,-269.0,76.0,-274.0,0.47,0.181,-0.384,-0.774
143060,1550.0,6630.0,4920.0,-380.0,255.0,-81.0,0.471,0.181,-0.38,-0.775
143082,1434.0,6520.0,4208.0,-366.0,235.0,-90.0,0.473,0.182,-0.377,-0.775
143094,1582.0,6456.0,4140.0,-393.0,244.0,-70.0,0.475,0.183,-0.373,-0.776
143116,1536.0,6334.0,4494.0,-465.0,221.0,-76.0,0.476,0.183,-0.368,-0.777
143128,1440.0,5958.0,5052.0,-483.0,218.0,-98.0,0.478,0.182,-0.364,-0.779
143150,1410.0,5476.0,5502.0,-410.0,237.0,-65.0,0.479,0.183,-0.36,-0.779
143162,1316.0,5918.0,5632.0,-300.0,289.0,14.0,0.482,0.183,-0.356,-0.78
143184,1328.0,6570.0,5498.0,-244.0,313.0,61.0,0.484,0.185,-0.353,-0.779
143206,1126.0,7010.0,5146.0,-357.0,315.0,37.0,0.487,0.185,-0.349,-0.779
143218,960.0,6546.0,5214.0,-478.0,309.0,-19.0,0.489,0.186,-0.344,-0.78
143240,888.0,5664.0,5414.0,-479.0,294.0,-68.0,0.491,0.186,-0.339,-0.781
143252,882.0,5682.0,5544.0,-319.0,261.0,6.0,0.493,0.187,-0.336,-0.781
143274,822.0,5760.0,5682.0,-215.0,196.0,34.0,0.495,0.187,-0.333,-0.781
143286,902.0,6240.0,5850.0,-236.0,203.0,48.0,0.497,0.188,-0.331,-0.78
143308,578.0,6044.0,5424.0,-314.0,216.0,52.0,0.499,0.188,-0.328,-0.78
143320,442.0,6112.0,5174.0,-294.0,211.0,20.0,0.501,0.188,-0.324,-0.78
143342,384.0,5990.0,5082.0,-288.0,104.0,-4.0,0.502,0.188,-0.322,-0.78
143364,418.0,5836.0,5150.0,-285.0,-31.0,3.0,0.503,0.187,-0.32,-0.781
143376,490.0,5714.0,5424.0,-203.0,-14.0,-16.0,0.504,0.186,-0.318,-0.781
143398,722.0,6172.0,5862.0,-166.0,7.0,-64.0,0.504,0.186,-0.317,-0.781
143415,682.0,6598.0,6130.0,-160.0,122.0,-145.0,0.505,0.186,-0.315,-0.782
143427,394.0,6072.0,6010.0,-370.0,132.0,-158.0,0.505,0.186,-0.311,-0.783
143449,192.0,5328.0,5640.0,-373.0,115.0,-174.0,0.505,0.186,-0.308,-0.784
143461,364.0,5404.0,5700.0,-194.0,130.0,-198.0,0.505,0.187,-0.305,-0.785
143483,510.0,5474.0,5942.0,-19.0,109.0,-227.0,0.505,0.189,-0.304,-0.786
143495,644.0,5832.0,6156.0,137.0,126.0,-138.0,0.504,0.191,-0.304,-0.785
143517,878.0,6270.0,6594.0,178.0,195.0,-62.0,0.505,0.193,-0.304,-0.784
143539,678.0,6424.0,6376.0,149.0,260.0,-119.0,0.505,0.197,-0.304,-0.784
143551,514.0,6252.0,5926.0,34.0,296.0,-140.0,0.506,0.2,-0.302,-0.783
143573,336.0,5658.0,5554.0,-15.0,297.0,-175.0,0.506,0.202,-0.301,-0.783
143585,206.0,5494.0,5398.0,35.0,238.0,-186.0,0.506,0.205,-0.299,-0.783
143607,458.0,5792.0,5530.0,142.0,217.0,-138.0,0.506,0.208,-0.299,-0.782
143619,506.0,6164.0,5594.0,123.0,188.0,-101.0,0.506,0.21,-0.299,-0.781
143641,578.0,6260.0,5774.0,78.0,147.0,-101.0,0.506,0.212,-0.298,-0.781
143653,444.0,5898.0,5994.0,55.0,130.0,-135.0,0.506,0.214,-0.298,-0.78
143675,392.0,5286.0,6472.0,105.0,165.0,-118.0,0.507,0.216,-0.297,-0.78
143697,534.0,5054.0,6784.0,213.0,291.0,-95.0,0.507,0.219,-0.297,-0.779
143709,562.0,5360.0,7126.0,307.0,511.0,-31.0,0.508,0.225,-0.297,-0.777
143731,230.0,5402.0,7176.0,288.0,647.0,69.0,0.511,0.231,-0.295,-0.774
143743,448.0,6168.0,7110.0,222.0,865.0,161.0,0.515,0.238,-0.293,-0.77
143765,482.0,6262.0,6780.0,10.0,1054.0,209.0,0.52,0.245,-0.288,-0.766
143777,490.0,6110.0,6590.0,-148.0,1237.0,163.0,0.525,0.252,-0.282,-0.763
143799,298.0,5906.0,6456.0,-273.0,1378.0,135.0,0.531,0.261,-0.273,-0.759
143811,-158.0,5904.0,6518.0,-287.0,1435.0,192.0,0.537,0.269,-0.264,-0.754
143833,-478.0,5574.0,6352.0,-361.0,1378.0,284.0,0.544,0.276,-0.255,-0.75
143855,-554.0,5330.0,6036.0,-398.0,1412.0,348.0,0.552,0.283,-0.246,-0.745
143867,-1062.0,5884.0,5814.0,-408.0,1402.0,408.0,0.56,0.29,-0.237,-0.739
143889,-1470.0,6022.0,5896.0,-547.0,1373.0,473.0,0.569,0.296,-0.227,-0.733
143901,-1840.0,6386.0,6238.0,-661.0,1385.0,388.0,0.577,0.301,-0.216,-0.728
143923,-2244.0,6216.0,5922.0,-782.0,1344.0,274.0,0.584,0.306,-0.203,-0.724
143935,-2440.0,6084.0,5582.0,-920.0,1267.0,218.0,0.591,0.31,-0.191,-0.72
143957,-2940.0,5444.0,5066.0,-1068.0,1277.0,288.0,0.6,0.312,-0.177,-0.715
143969,-3784.0,5330.0,4582.0,-1106.0,1155.0,379.0,0.608,0.314,-0.163,-0.711
143991,-3720.0,5610.0,4448.0,-1132.0,1002.0,478.0,0.616,0.314,-0.151,-0.706
144003,-3320.0,5944.0,4484.0,-1239.0,921.0,301.0,0.624,0.313,-0.138,-0.702
144025,-3342.0,5798.0,4668.0,-1298.0,795.0,-117.0,0.629,0.312,-0.125,-0.701
144047,-3520.0,4884.0,4430.0,-1329.0,667.0,-280.0,0.632,0.309,-0.111,-0.702
144059,-3814.0,4290.0,4142.0,-1389.0,539.0,-281.0,0.636,0.305,-0.097,-0.703
144081,-4198.0,3180.0,3888.0,-1408.0,343.0,-263.0,0.639,0.299,-0.085,-0.704
144093,-3664.0,2696.0,4182.0,-1233.0,157.0,-220.0,0.642,0.293,-0.075,-0.705
144115,-1852.0,5396.0,7146.0,-793.0,147.0,-179.0,0.644,0.289,-0.068,-0.705
144127,-1114.0,6092.0,6946.0,-586.0,174.0,-204.0,0.645,0.287,-0.062,-0.706
144149,-1478.0,5016.0,6550.0,-636.0,192.0,-191.0,0.646,0.285,-0.056,-0.706
144161,-1274.0,3806.0,5626.0,-547.0,148.0,-284.0,0.647,0.283,-0.051,-0.706
144183,-1162.0,3428.0,5218.0,-359.0,71.0,-231.0,0.647,0.281,-0.047,-0.707
144205,-1160.0,2804.0,6172.0,-169.0,-33.0,54.0,0.649,0.28,-0.046,-0.706
144217,-1838.0,7044.0,6798.0,-1044.0,-120.0,-214.0,0.651,0.273,-0.039,-0.707
144239,-388.0,1704.0,6606.0,-644.0,-230.0,-238.0,0.652,0.268,-0.035,-0.709
144251,-356.0,2302.0,6114.0,-7.0,-432.0,487.0,0.656,0.265,-0.039,-0.706
144273,58.0,2766.0,6484.0,239.0,-584.0,585.0,0.66,0.262,-0.045,-0.703
144285,654.0,5268.0,6704.0,206.0,-666.0,456.0,0.663,0.259,-0.052,-0.7
144307,576.0,5852.0,7294.0,-279.0,-653.0,150.0,0.666,0.253,-0.054,-0.7
144319,472.0,4490.0,7794.0,-658.0,-662.0,-124.0,0.666,0.244,-0.054,-0.703
144341,468.0,3482.0,7852.0,-765.0,-614.0,-119.0,0.668,0.235,-0.053,-0.704
144363,346.0,2622.0,7878.0,-618.0,-565.0,-87.0,0.669,0.227,-0.052,-0.706
144375,1178.0,3032.0,9112.0,-78.0,-436.0,-115.0,0.668,0.224,-0.054,-0.708
144397,1154.0,4478.0,9482.0,13.0,-165.0,-130.0,0.667,0.223,-0.055,-0.709
144409,640.0,4008.0,8650.0,-219.0,14.0,-208.0,0.666,0.222,-0.053,-0.71
144431,-390.0,2782.0,7590.0,-263.0,108.0,-258.0,0.665,0.221,-0.05,-0.712
144443,-938.0,2686.0,6938.0,-135.0,126.0,-80.0,0.665,0.22,-0.049,-0.712
144465,-1238.0,2680.0,6800.0,-22.0,63.0,19.0,0.665,0.221,-0.048,-0.712
144477,-1246.0,3236.0,6614.0,43.0,-57.0,17.0,0.665,0.22,-0.049,-0.712
144499,-1198.0,2986.0,7540.0,59.0,-68.0,-98.0,0.664,0.22,-0.05,-0.713
144511,-1068.0,3416.0,8112.0,136.0,-51.0,105.0,0.665,0.221,-0.052,-0.712
144533,-1270.0,3564.0,7994.0,101.0,34.0,210.0,0.666,0.221,-0.053,-0.711
144555,-1446.0,3746.0,7480.0,-47.0,73.0,149.0,0.667,0.221,-0.052,-0.709
144567,-1436.0,3682.0,6924.0,-112.0,44.0,49.0,0.668,0.221,-0.052,-0.709
144589,-1418.0,3582.0,6912.0,-123.0,11.0,61.0,0.668,0.22,-0.051,-0.709
144601,-1252.0,3466.0,7492.0,-134.0,25.0,120.0,0.669,0.219,-0.05,-0.708
144623,-1246.0,3352.0,7526.0,-123.0,41.0,119.0,0.671,0.219,-0.05,-0.707
144635,-1322.0,3188.0,7506.0,-75.0,71.0,51.0,0.673,0.219,-0.049,-0.705
144657,-1434.0,3064.0,7304.0,0.0,89.0,33.0,0.673,0.219,-0.048,-0.705
144669,-1452.0,3102.0,7316.0,32.0,104.0,76.0,0.673,0.22,-0.048,-0.704
144691,-1338.0,3306.0,7778.0,28.0,123.0,98.0,0.674,0.221,-0.048,-0.703
144713,-1536.0,3260.0,7766.0,-1.0,100.0,78.0,0.675,0.221,-0.048,-0.703
144725,-1516.0,3288.0,7680.0,-29.0,64.0,60.0,0.675,0.222,-0.047,-0.702
144747,-1408.0,3470.0,7356.0,-54.0,31.0,43.0,0.677,0.222,-0.046,-0.7
144759,-1338.0,3188.0,7460.0,-84.0,9.0,42.0,0.677,0.221,-0.046,-0.7
144781,-1170.0,2988.0,7508.0,-49.0,12.0,45.0,0.679,0.221,-0.045,-0.699
144793,-1116.0,3496.0,7534.0,-31.0,12.0,43.0,0.68,0.22,-0.046,-0.698
144815,-1152.0,3106.0,7522.0,-62.0,15.0,-2.0,0.68,0.22,-0.045,-0.698
144827,-1120.0,3198.0,7280.0,43.0,-61.0,-37.0,0.679,0.22,-0.046,-0.699
144849,-202.0,2786.0,7438.0,224.0,-9.0,-118.0,0.678,0.221,-0.047,-0.699
144861,762.0,2826.0,8354.0,464.0,204.0,-186.0,0.676,0.225,-0.049,-0.7
144883,2032.0,4610.0,8856.0,685.0,450.0,-297.0,0.675,0.232,-0.05,-0.699
144905,1908.0,6422.0,8394.0,664.0,598.0,-405.0,0.672,0.241,-0.049,-0.699
144917,2150.0,6862.0,7886.0,803.0,735.0,-711.0,0.667,0.251,-0.048,-0.7
144939,1278.0,5988.0,6304.0,805.0,717.0,-901.0,0.661,0.261,-0.047,-0.702
144951,1032.0,4648.0,5964.0,892.0,705.0,-1123.0,0.653,0.271,-0.046,-0.706
144973,650.0,4974.0,6238.0,1005.0,685.0,-1224.0,0.644,0.282,-0.046,-0.71
144985,42.0,4784.0,5848.0,831.0,567.0,-1259.0,0.635,0.291,-0.045,-0.714
145007,-420.0,4192.0,5682.0,664.0,437.0,-1314.0,0.625,0.299,-0.042,-0.72
145029,-1048.0,3002.0,5214.0,597.0,268.0,-1223.0,0.617,0.305,-0.041,-0.725
145041,-1416.0,2028.0,4858.0,761.0,96.0,-1067.0,0.608,0.31,-0.042,-0.73
145063,-2036.0,2064.0,4404.0,989.0,-111.0,-826.0,0.6,0.315,-0.047,-0.734
145075,-2490.0,2462.0,4262.0,1118.0,-365.0,-651.0,0.593,0.319,-0.054,-0.737
145097,-2614.0,2712.0,4432.0,1191.0,-613.0,-486.0,0.587,0.322,-0.064,-0.74
145109,-2752.0,2922.0,4928.0,1165.0,-840.0,-214.0,0.582,0.323,-0.076,-0.742
145131,-3098.0,2696.0,5430.0,1260.0,-976.0,-684.0,0.574,0.323,-0.087,-0.747
145143,-2820.0,3640.0,6106.0,889.0,-1028.0,35.0,0.571,0.321,-0.099,-0.749
145165,-2830.0,3192.0,6442.0,689.0,-1027.0,477.0,0.572,0.317,-0.11,-0.748
145177,-2652.0,2766.0,5760.0,744.0,-903.0,784.0,0.576,0.314,-0.122,-0.745
145199,-2586.0,4152.0,5814.0,673.0,-898.0,293.0,0.575,0.311,-0.132,-0.745
145221,-1842.0,5176.0,7164.0,132.0,-720.0,1199.0,0.583,0.306,-0.14,-0.74
145233,-1642.0,4654.0,9202.0,154.0,-419.0,1406.0,0.593,0.302,-0.147,-0.732
145255,-1886.0,5462.0,9858.0,589.0,-100.0,718.0,0.597,0.304,-0.153,-0.727
145267,-1960.0,5566.0,9054.0,328.0,70.0,1084.0,0.604,0.304,-0.157,-0.72
145289,-2332.0,4620.0,7824.0,303.0,282.0,805.0,0.61,0.307,-0.16,-0.713
145301,-1814.0,5064.0,7056.0,153.0,450.0,1377.0,0.62,0.309,-0.162,-0.703
145323,-2038.0,6122.0,7364.0,104.0,585.0,1343.0,0.63,0.311,-0.163,-0.692
145335,-2036.0,6002.0,7724.0,46.0,699.0,768.0,0.637,0.315,-0.161,-0.685
145357,-2186.0,5254.0,7586.0,-91.0,757.0,489.0,0.642,0.319,-0.157,-0.679
145369,-2160.0,5098.0,7362.0,-154.0,820.0,518.0,0.648,0.323,-0.152,-0.673
145391,-2146.0,5214.0,7066.0,-215.0,836.0,597.0,0.654,0.326,-0.147,-0.666
145418,-2130.0,5212.0,6806.0,-278.0,805.0,638.0,0.661,0.329,-0.142,-0.66
145430,-2028.0,5726.0,6730.0,-337.0,831.0,540.0,0.667,0.331,-0.136,-0.653
145442,-2056.0,5766.0,6400.0,-422.0,818.0,512.0,0.674,0.333,-0.129,-0.647
145464,-2332.0,5040.0,6082.0,-313.0,717.0,439.0,0.679,0.335,-0.124,-0.642
145476,-2552.0,4998.0,5522.0,245.0,612.0,427.0,0.682,0.34,-0.122,-0.636
145498,-2234.0,5540.0,5136.0,948.0,647.0,327.0,0.682,0.35,-0.124,-0.63
145510,-2484.0,6672.0,4950.0,1221.0,678.0,209.0,0.681,0.362,-0.128,-0.624
145532,-2918.0,6936.0,4708.0,967.0,590.0,105.0,0.68,0.372,-0.129,-0.619
145554,-2920.0,5958.0,5004.0,768.0,527.0,34.0,0.678,0.38,-0.131,-0.616
145566,-2874.0,5704.0,5336.0,680.0,552.0,-88.0,0.676,0.387,-0.13,-0.613
145588,-2920.0,4464.0,5826.0,733.0,510.0,-73.0,0.675,0.395,-0.13,-0.61
145600,-2654.0,4040.0,5970.0,990.0,554.0,-11.0,0.672,0.404,-0.132,-0.607
145622,-3074.0,3630.0,5718.0,1406.0,477.0,-72.0,0.667,0.416,-0.136,-0.603
145634,-2948.0,3114.0,5468.0,1891.0,522.0,64.0,0.661,0.43,-0.143,-0.598
145656,-3200.0,4078.0,5114.0,1932.0,523.0,28.0,0.654,0.445,-0.151,-0.593
145668,-3230.0,4168.0,5504.0,1629.0,553.0,213.0,0.649,0.457,-0.157,-0.587
145690,-3364.0,3760.0,5538.0,1297.0,488.0,365.0,0.646,0.467,-0.162,-0.581
145702,-3220.0,2546.0,5174.0,1327.0,591.0,747.0,0.645,0.477,-0.169,-0.572
145724,-3324.0,3486.0,4678.0,1653.0,667.0,1125.0,0.645,0.489,-0.179,-0.56
145746,-2950.0,4596.0,4012.0,2098.0,751.0,1479.0,0.644,0.502,-0.192,-0.544
145758,-3060.0,4780.0,3332.0,2397.0,794.0,1734.0,0.643,0.518,-0.208,-0.525
145780,-2506.0,5548.0,2486.0,2253.0,797.0,1969.0,0.643,0.531,-0.223,-0.505
145792,-1880.0,6840.0,2174.0,1347.0,897.0,2200.0,0.648,0.539,-0.235,-0.484
145814,-1842.0,8682.0,1754.0,-502.0,997.0,2509.0,0.664,0.534,-0.239,-0.465
145826,-2066.0,8344.0,1444.0,-1950.0,785.0,2701.0,0.687,0.52,-0.239,-0.449
145848,-1210.0,7086.0,1198.0,-2052.0,292.0,2586.0,0.708,0.502,-0.241,-0.435
145860,-312.0,5464.0,616.0,-1415.0,-179.0,2607.0,0.724,0.486,-0.249,-0.422
145882,1916.0,4032.0,1024.0,-527.0,-425.0,2644.0,0.736,0.474,-0.261,-0.407
145904,3732.0,9368.0,1766.0,-630.0,-347.0,2679.0,0.748,0.462,-0.273,-0.391
145916,3568.0,10750.0,3002.0,-1863.0,-247.0,2879.0,0.765,0.44,-0.28,-0.377
145938,3838.0,9566.0,3544.0,-2908.0,-256.0,2907.0,0.786,0.411,-0.284,-0.364
145950,3894.0,7974.0,3462.0,-3295.0,-398.0,2976.0,0.807,0.377,-0.287,-0.353
145972,4306.0,6972.0,3786.0,-3201.0,-699.0,2545.0,0.824,0.344,-0.29,-0.344
145984,5106.0,5584.0,4076.0,-2636.0,-937.0,2381.0,0.838,0.314,-0.297,-0.335
146006,5756.0,4722.0,4176.0,-1907.0,-1093.0,2127.0,0.847,0.289,-0.306,-0.325
146018,6210.0,4510.0,4150.0,-1246.0,-988.0,2107.0,0.854,0.27,-0.316,-0.314
146040,6214.0,6070.0,4394.0,-943.0,-826.0,2124.0,0.86,0.254,-0.325,-0.301
146052,6100.0,7608.0,4038.0,-1414.0,-820.0,2117.0,0.867,0.235,-0.332,-0.289
146075,5642.0,7722.0,3612.0,-2503.0,-1014.0,1913.0,0.874,0.206,-0.337,-0.283
146097,5870.0,4484.0,3798.0,-3311.0,-1156.0,1865.0,0.881,0.17,-0.342,-0.279
146109,6156.0,3378.0,4582.0,-4036.0,-1406.0,1542.0,0.886,0.129,-0.345,-0.281
146131,6270.0,2316.0,5662.0,-4633.0,-1545.0,1361.0,0.89,0.082,-0.347,-0.285
146143,6454.0,2940.0,5814.0,-5059.0,-1580.0,1428.0,0.891,0.031,-0.348,-0.29
146165,7170.0,3694.0,6108.0,-5328.0,-1612.0,1246.0,0.89,-0.021,-0.346,-0.296
146177,6266.0,3560.0,5342.0,-5418.0,-1845.0,663.0,0.883,-0.073,-0.347,-0.307
146199,7160.0,-3012.0,4806.0,-4115.0,-1293.0,1190.0,0.879,-0.114,-0.344,-0.309
146211,6774.0,-1738.0,4634.0,-2380.0,-993.0,238.0,0.874,-0.137,-0.346,-0.313
146233,7578.0,-2738.0,4960.0,-689.0,-806.0,-1035.0,0.867,-0.142,-0.352,-0.323
146255,8060.0,-2710.0,5150.0,1627.0,-266.0,-1267.0,0.865,-0.125,-0.36,-0.326
146267,8022.0,-2468.0,6526.0,3867.0,538.0,-911.0,0.868,-0.089,-0.369,-0.32
146289,7378.0,2190.0,7320.0,4444.0,448.0,-1998.0,0.867,-0.044,-0.38,-0.32
146301,10128.0,-1750.0,6980.0,6014.0,1350.0,-1185.0,0.87,0.013,-0.386,-0.307
146323,9398.0,1646.0,4606.0,7757.0,1963.0,-795.0,0.871,0.085,-0.391,-0.284
146335,8776.0,5436.0,3290.0,7987.0,2009.0,-1492.0,0.866,0.16,-0.394,-0.264
146357,9136.0,9538.0,4536.0,6828.0,2021.0,-2368.0,0.855,0.229,-0.39,-0.254
146369,9000.0,11178.0,6276.0,5035.0,2020.0,-3295.0,0.843,0.286,-0.377,-0.256
146391,8254.0,9484.0,6608.0,3139.0,1891.0,-3832.0,0.831,0.328,-0.359,-0.269
146413,6742.0,7770.0,5922.0,1812.0,1765.0,-4013.0,0.821,0.36,-0.338,-0.289
146425,7278.0,5000.0,4578.0,1277.0,1462.0,-4434.0,0.808,0.387,-0.315,-0.314
146447,3470.0,4672.0,3858.0,1144.0,1492.0,-2240.0,0.801,0.406,-0.298,-0.322
146459,2178.0,5544.0,3130.0,899.0,1354.0,-1282.0,0.798,0.421,-0.286,-0.323
146481,1012.0,6158.0,2996.0,826.0,1147.0,-1489.0,0.793,0.434,-0.274,-0.328
146493,140.0,6002.0,3334.0,700.0,989.0,-1572.0,0.788,0.446,-0.263,-0.334
146515,-498.0,6330.0,3654.0,478.0,878.0,-1387.0,0.783,0.456,-0.252,-0.339
146527,-1154.0,6370.0,3974.0,140.0,706.0,-1230.0,0.781,0.462,-0.242,-0.345
146549,-1608.0,6024.0,4522.0,-150.0,638.0,-1170.0,0.779,0.466,-0.231,-0.351
146561,-1844.0,6614.0,4390.0,-452.0,579.0,-1257.0,0.778,0.467,-0.219,-0.359
146583,-2506.0,7164.0,4194.0,-839.0,425.0,-1458.0,0.777,0.465,-0.207,-0.37
146595,-2262.0,6244.0,3702.0,-1145.0,163.0,-1380.0,0.778,0.46,-0.195,-0.381
146618,-1998.0,5914.0,3440.0,-1186.0,105.0,-889.0,0.78,0.454,-0.186,-0.389
146630,-2104.0,6034.0,3410.0,-1202.0,-14.0,-776.0,0.782,0.446,-0.178,-0.396
146652,-1740.0,7098.0,3694.0,-1191.0,-54.0,-866.0,0.784,0.439,-0.17,-0.404
146674,-1416.0,6954.0,3978.0,-1289.0,-144.0,-1049.0,0.785,0.431,-0.162,-0.414
146686,-986.0,6804.0,4184.0,-1360.0,-165.0,-1196.0,0.786,0.423,-0.153,-0.425
146708,-912.0,5876.0,4170.0,-1391.0,-236.0,-1281.0,0.786,0.413,-0.143,-0.436
146720,-714.0,5618.0,4270.0,-1334.0,-195.0,-1263.0,0.786,0.404,-0.134,-0.447
146742,-806.0,4794.0,4274.0,-1196.0,-195.0,-1173.0,0.786,0.396,-0.126,-0.457
146754,-820.0,4316.0,4370.0,-970.0,-185.0,-1074.0,0.785,0.39,-0.119,-0.466
146776,-788.0,4130.0,4306.0,-642.0,-196.0,-945.0,0.784,0.385,-0.113,-0.474
146788,-684.0,4302.0,4322.0,-451.0,-253.0,-842.0,0.782,0.382,-0.11,-0.48
146810,-344.0,4680.0,4326.0,-301.0,-278.0,-747.0,0.78,0.379,-0.107,-0.486
146832,-196.0,4512.0,4650.0,-159.0,-282.0,-673.0,0.778,0.378,-0.106,-0.491
146844,-96.0,4924.0,4844.0,-12.0,-265.0,-594.0,0.775,0.377,-0.105,-0.496
146866,2.0,5248.0,5492.0,-5.0,-258.0,-470.0,0.773,0.376,-0.105,-0.499
146878,220.0,5724.0,5734.0,-49.0,-254.0,-328.0,0.772,0.375,-0.106,-0.501
146900,190.0,5890.0,5646.0,-132.0,-305.0,-297.0,0.772,0.373,-0.106,-0.504
146912,208.0,5484.0,5592.0,-164.0,-359.0,-341.0,0.771,0.37,-0.107,-0.507
146934,154.0,5828.0,5980.0,-99.0,-398.0,-441.0,0.77,0.368,-0.108,-0.51
146946,110.0,5792.0,6350.0,-110.0,-490.0,-409.0,0.768,0.365,-0.109,-0.514
146968,64.0,5500.0,6580.0,-86.0,-537.0,-309.0,0.767,0.362,-0.111,-0.517
146990,46.0,5384.0,6812.0,-24.0,-530.0,-292.0,0.766,0.36,-0.114,-0.52
147002,-48.0,5396.0,6816.0,-37.0,-491.0,-286.0,0.765,0.357,-0.116,-0.523
147024,-180.0,5124.0,6862.0,-116.0,-444.0,-288.0,0.765,0.354,-0.117,-0.526
147036,-142.0,5518.0,7032.0,-163.0,-347.0,-271.0,0.764,0.352,-0.118,-0.528
147058,-278.0,5206.0,6944.0,-228.0,-300.0,-261.0,0.764,0.349,-0.118,-0.53
147070,-264.0,4922.0,6886.0,-203.0,-219.0,-242.0,0.764,0.346,-0.117,-0.532
147092,-438.0,5072.0,6962.0,-141.0,-136.0,-202.0,0.764,0.345,-0.117,-0.533
147104,-666.0,5138.0,6980.0,-111.0,-71.0,-154.0,0.764,0.343,-0.116,-0.533
147126,-728.0,5040.0,6986.0,-80.0,22.0,-118.0,0.765,0.343,-0.115,-0.533
147138,-718.0,5152.0,6800.0,-78.0,120.0,-98.0,0.765,0.343,-0.113,-0.533
147160,-722.0,5260.0,6542.0,-133.0,208.0,-81.0,0.766,0.343,-0.11,-0.532
147182,-880.0,4980.0,6204.0,-199.0,249.0,-62.0,0.767,0.343,-0.107,-0.531
147194,-964.0,4764.0,5848.0,-212.0,237.0,-27.0,0.769,0.343,-0.104,-0.53
147216,-854.0,4890.0,5512.0,-188.0,254.0,22.0,0.77,0.343,-0.101,-0.528
147228,-1160.0,4694.0,4998.0,-176.0,166.0,101.0,0.772,0.342,-0.099,-0.526
147250,-832.0,4690.0,4966.0,-131.0,164.0,219.0,0.775,0.342,-0.097,-0.523
147262,-1052.0,4800.0,5152.0,-67.0,173.0,376.0,0.777,0.342,-0.096,-0.519
147284,-1070.0,4700.0,5208.0,-15.0,138.0,430.0,0.78,0.342,-0.096,-0.515
147296,-1030.0,4862.0,5346.0,63.0,54.0,441.0,0.783,0.343,-0.097,-0.51
147318,-816.0,5164.0,5442.0,121.0,51.0,426.0,0.785,0.344,-0.099,-0.506
147340,-912.0,5604.0,5346.0,106.0,55.0,417.0,0.787,0.345,-0.1,-0.502
147352,-844.0,6292.0,5496.0,-51.0,-28.0,410.0,0.79,0.344,-0.101,-0.498
147374,-580.0,6572.0,6052.0,-198.0,56.0,392.0,0.793,0.343,-0.101,-0.494
147386,-808.0,6356.0,6018.0,-385.0,47.0,334.0,0.796,0.34,-0.1,-0.491
147408,-888.0,6222.0,5620.0,-467.0,-87.0,226.0,0.799,0.336,-0.099,-0.489
147425,-672.0,6000.0,5484.0,-391.0,-219.0,83.0,0.801,0.332,-0.099,-0.488
147437,-402.0,5594.0,5650.0,-265.0,-309.0,-11.0,0.802,0.329,-0.1,-0.489
147459,-76.0,5666.0,6096.0,-147.0,-386.0,-38.0,0.802,0.326,-0.102,-0.489
147471,126.0,5836.0,6522.0,-162.0,-393.0,-54.0,0.803,0.323,-0.104,-0.49
147493,28.0,5280.0,6380.0,-190.0,-432.0,-108.0,0.803,0.32,-0.106,-0.491
147515,-94.0,4714.0,5894.0,-132.0,-498.0,-164.0,0.803,0.317,-0.108,-0.493
147527,-182.0,4452.0,5520.0,-46.0,-568.0,-210.0,0.802,0.314,-0.111,-0.496
147549,-346.0,4342.0,5582.0,10.0,-612.0,-229.0,0.801,0.312,-0.115,-0.498
147561,-418.0,4614.0,5784.0,-8.0,-640.0,-177.0,0.8,0.309,-0.119,-0.5
147583,-252.0,4780.0,5866.0,-90.0,-683.0,-108.0,0.799,0.306,-0.123,-0.502
147595,-216.0,4836.0,6204.0,-178.0,-630.0,-47.0,0.8,0.301,-0.126,-0.504
147617,-358.0,5322.0,6334.0,-305.0,-582.0,6.0,0.8,0.297,-0.129,-0.505
147629,-596.0,5110.0,6478.0,-398.0,-599.0,26.0,0.801,0.291,-0.132,-0.506
147651,-574.0,4720.0,6712.0,-260.0,-532.0,-8.0,0.802,0.287,-0.134,-0.507
147673,-568.0,4892.0,7018.0,-84.0,-471.0,-24.0,0.802,0.284,-0.137,-0.507
147685,-576.0,5206.0,7116.0,-27.0,-410.0,10.0,0.802,0.282,-0.139,-0.508
147707,-410.0,5240.0,6644.0,-17.0,-424.0,-17.0,0.802,0.28,-0.142,-0.508
147719,-158.0,4996.0,6206.0,-26.0,-404.0,5.0,0.802,0.278,-0.145,-0.508
147741,-122.0,4178.0,5876.0,119.0,-389.0,-86.0,0.802,0.277,-0.148,-0.509
147753,66.0,4486.0,6120.0,164.0,-377.0,-39.0,0.801,0.277,-0.151,-0.509
147775,496.0,4640.0,7088.0,265.0,-265.0,-40.0,0.8,0.278,-0.154,-0.508
147787,618.0,5422.0,7186.0,113.0,-184.0,177.0,0.801,0.278,-0.156,-0.506
147809,578.0,5852.0,7232.0,-67.0,-120.0,257.0,0.803,0.276,-0.157,-0.504
147821,430.0,6136.0,7490.0,-318.0,-107.0,299.0,0.806,0.273,-0.157,-0.502
147844,336.0,4854.0,8056.0,-299.0,-140.0,158.0,0.807,0.27,-0.156,-0.501
147856,360.0,4558.0,8660.0,1.0,-57.0,104.0,0.808,0.27,-0.157,-0.499
147879,318.0,4352.0,8532.0,148.0,-14.0,-24.0,0.808,0.271,-0.157,-0.498
147901,444.0,4232.0,7728.0,123.0,14.0,74.0,0.809,0.272,-0.158,-0.497
147913,578.0,4636.0,6992.0,108.0,48.0,163.0,0.81,0.273,-0.158,-0.494
147935,660.0,4674.0,6356.0,112.0,-25.0,120.0,0.811,0.273,-0.159,-0.492
147947,838.0,4758.0,6082.0,166.0,-38.0,30.0,0.811,0.275,-0.16,-0.491
147969,1008.0,4854.0,6106.0,161.0,-44.0,-29.0,0.811,0.276,-0.161,-0.49
147981,1050.0,4998.0,6348.0,119.0,-37.0,21.0,0.811,0.276,-0.162,-0.489
148003,1022.0,5046.0,6342.0,63.0,-1.0,70.0,0.812,0.277,-0.162,-0.487
148015,828.0,5198.0,6138.0,-35.0,-29.0,82.0,0.813,0.277,-0.162,-0.486
148037,974.0,5208.0,6208.0,-64.0,-10.0,51.0,0.814,0.276,-0.162,-0.485
148049,1094.0,5330.0,6200.0,-73.0,-1.0,37.0,0.815,0.276,-0.162,-0.484
148071,1108.0,5076.0,6088.0,-37.0,34.0,24.0,0.816,0.275,-0.161,-0.483
148093,1194.0,4940.0,6168.0,38.0,85.0,5.0,0.816,0.276,-0.161,-0.481
148105,1076.0,4998.0,6226.0,104.0,131.0,2.0,0.816,0.278,-0.16,-0.48
148127,1094.0,5090.0,6066.0,136.0,177.0,30.0,0.817,0.279,-0.16,-0.478
148139,810.0,5082.0,5942.0,181.0,184.0,82.0,0.818,0.282,-0.159,-0.476
148161,744.0,5320.0,5846.0,224.0,216.0,68.0,0.818,0.284,-0.159,-0.474
148173,416.0,5358.0,5812.0,221.0,215.0,-37.0,0.818,0.287,-0.158,-0.472
148195,206.0,5514.0,5956.0,203.0,186.0,-97.0,0.818,0.29,-0.157,-0.472
148207,-42.0,5600.0,6170.0,176.0,191.0,-66.0,0.818,0.293,-0.156,-0.47
148229,-114.0,5666.0,6428.0,117.0,222.0,-74.0,0.818,0.295,-0.154,-0.469
148251,-240.0,5304.0,6462.0,97.0,243.0,-74.0,0.818,0.297,-0.152,-0.468
148263,-348.0,4968.0,6296.0,168.0,272.0,-65.0,0.818,0.3,-0.151,-0.467
148285,-374.0,4974.0,6226.0,251.0,313.0,-81.0,0.818,0.303,-0.149,-0.466
148297,-240.0,5178.0,6504.0,199.0,324.0,-65.0,0.818,0.306,-0.147,-0.464
148319,14.0,5308.0,6712.0,164.0,316.0,-17.0,0.818,0.309,-0.145,-0.463
148331,294.0,5326.0,6838.0,143.0,313.0,28.0,0.819,0.311,-0.143,-0.461
148353,374.0,4774.0,6602.0,222.0,251.0,81.0,0.819,0.314,-0.142,-0.458
148365,654.0,4802.0,6318.0,313.0,223.0,153.0,0.82,0.317,-0.142,-0.455
148387,876.0,5074.0,6266.0,396.0,195.0,191.0,0.82,0.32,-0.143,-0.452
148409,906.0,5412.0,6378.0,309.0,169.0,129.0,0.821,0.323,-0.143,-0.449
148421,1094.0,5592.0,6454.0,273.0,183.0,52.0,0.821,0.326,-0.143,-0.447
148443,898.0,5592.0,6294.0,298.0,160.0,-72.0,0.82,0.329,-0.143,-0.446
148455,724.0,5692.0,5930.0,341.0,138.0,-119.0,0.819,0.332,-0.143,-0.445
148477,476.0,5640.0,5676.0,291.0,97.0,-142.0,0.818,0.335,-0.143,-0.445
148489,322.0,5680.0,5678.0,230.0,61.0,-184.0,0.817,0.338,-0.142,-0.445
148511,200.0,5696.0,5764.0,158.0,48.0,-198.0,0.816,0.339,-0.142,-0.445
148523,74.0,5694.0,5980.0,110.0,34.0,-187.0,0.816,0.341,-0.141,-0.446
148545,-134.0,5736.0,5950.0,64.0,31.0,-158.0,0.815,0.342,-0.141,-0.446
148557,-334.0,5666.0,5918.0,46.0,23.0,-120.0,0.815,0.342,-0.14,-0.446
148579,-384.0,5628.0,5912.0,69.0,33.0,-81.0,0.815,0.343,-0.14,-0.446
148601,-370.0,5686.0,5936.0,95.0,57.0,-30.0,0.815,0.344,-0.139,-0.445
148613,-280.0,5892.0,5952.0,81.0,78.0,-12.0,0.815,0.345,-0.139,-0.444
148635,-234.0,5876.0,5826.0,73.0,91.0,-5.0,0.815,0.346,-0.138,-0.443
148647,-68.0,5846.0,5830.0,59.0,94.0,4.0,0.816,0.347,-0.138,-0.442
148669,-118.0,5810.0,5838.0,23.0,91.0,23.0,0.816,0.348,-0.137,-0.44
148681,14.0,5716.0,5728.0,5.0,69.0,37.0,0.817,0.348,-0.136,-0.439
148703,-2.0,5678.0,5800.0,7.0,57.0,44.0,0.817,0.349,-0.136,-0.438
148715,42.0,5628.0,5798.0,16.0,51.0,35.0,0.818,0.349,-0.136,-0.437
148737,40.0,5652.0,5722.0,29.0,40.0,11.0,0.818,0.349,-0.135,-0.436
148759,22.0,5720.0,5676.0,45.0,30.0,0.0,0.819,0.35,-0.135,-0.435
148771,-30.0,5874.0,5818.0,53.0,23.0,-21.0,0.819,0.351,-0.135,-0.434
148793,-44.0,5922.0,5782.0,39.0,22.0,-38.0,0.819,0.351,-0.135,-0.433
148805,-114.0,5952.0,5864.0,19.0,12.0,-35.0,0.819,0.351,-0.134,-0.433
148827,-256.0,5856.0,5816.0,-1.0,6.0,-40.0,0.819,0.352,-0.134,-0.432
148839,-240.0,5750.0,5712.0,-10.0,-3.0,-22.0,0.82,0.352,-0.134,-0.432
148861,-274.0,5636.0,5750.0,-13.0,7.0,-10.0,0.82,0.352,-0.133,-0.431
148873,-240.0,5760.0,5734.0,4.0,9.0,-7.0,0.82,0.352,-0.133,-0.431
148895,-252.0,5792.0,5706.0,8.0,2.0,-4.0,0.821,0.352,-0.133,-0.43
148907,-226.0,5764.0,5648.0,4.0,-8.0,-1.0,0.821,0.352,-0.133,-0.429
148930,-100.0,5766.0,5702.0,-6.0,-19.0,7.0,0.821,0.352,-0.133,-0.429
148952,-30.0,5680.0,5816.0,-33.0,-15.0,18.0,0.822,0.352,-0.133,-0.428
148964,66.0,5592.0,5858.0,-29.0,-16.0,31.0,0.822,0.351,-0.133,-0.427
148986,34.0,5722.0,5844.0,7.0,-10.0,30.0,0.823,0.352,-0.133,-0.426
148998,-32.0,5848.0,5840.0,17.0,-3.0,18.0,0.823,0.352,-0.133,-0.425
149020,-120.0,5812.0,5840.0,4.0,-12.0,7.0,0.824,0.352,-0.133,-0.425
149032,-92.0,5772.0,5820.0,-24.0,-27.0,-2.0,0.824,0.352,-0.133,-0.424
149054,-28.0,5692.0,5960.0,-48.0,-37.0,-3.0,0.824,0.351,-0.133,-0.424
149066,32.0,5596.0,5960.0,-53.0,-44.0,17.0,0.825,0.35,-0.133,-0.423
149088,30.0,5580.0,6012.0,-35.0,-53.0,37.0,0.825,0.35,-0.133,-0.422
149100,104.0,5520.0,5954.0,-3.0,-50.0,44.0,0.826,0.35,-0.133,-0.421
149122,64.0,5714.0,5856.0,-12.0,-59.0,57.0,0.827,0.349,-0.134,-0.421
149144,116.0,5844.0,5850.0,-18.0,-69.0,22.0,0.827,0.349,-0.134,-0.42
149156,234.0,5938.0,5926.0,-35.0,-56.0,16.0,0.827,0.349,-0.135,-0.419
149178,202.0,5892.0,5896.0,-51.0,-58.0,11.0,0.828,0.348,-0.135,-0.419
149190,160.0,5836.0,5838.0,-73.0,-66.0,2.0,0.828,0.347,-0.135,-0.419
149212,212.0,5708.0,5842.0,-78.0,-72.0,-13.0,0.829,0.346,-0.135,-0.418
149224,184.0,5604.0,5818.0,-84.0,-80.0,-6.0,0.829,0.346,-0.135,-0.418
149246,88.0,5554.0,5894.0,-77.0,-82.0,5.0,0.83,0.345,-0.135,-0.417
149258,116.0,5588.0,5840.0,-62.0,-72.0,-4.0,0.83,0.344,-0.135,-0.417
149280,-14.0,5576.0,5818.0,-27.0,-54.0,-8.0,0.831,0.344,-0.136,-0.417
149302,16.0,5676.0,5852.0,-3.0,-34.0,-13.0,0.831,0.344,-0.136,-0.416
149314,-42.0,5720.0,5850.0,-16.0,-32.0,-15.0,0.831,0.343,-0.136,-0.416
149336,-80.0,5756.0,5816.0,-28.0,-23.0,-25.0,0.831,0.343,-0.135,-0.415
149348,-64.0,5798.0,5794.0,-41.0,-32.0,-2.0,0.832,0.343,-0.135,-0.415
149370,6.0,5716.0,5868.0,-69.0,-33.0,13.0,0.832,0.342,-0.135,-0.414
149382,76.0,5580.0,5960.0,-77.0,-40.0,16.0,0.833,0.342,-0.135,-0.414
149404,194.0,5516.0,5944.0,-63.0,-32.0,25.0,0.834,0.341,-0.135,-0.413
149416,246.0,5476.0,5998.0,-43.0,-24.0,32.0,0.834,0.341,-0.135,-0.412
149433,354.0,5476.0,5928.0,-26.0,-6.0,41.0,0.835,0.34,-0.135,-0.411
149455,398.0,5516.0,5898.0,-10.0,8.0,40.0,0.835,0.34,-0.135,-0.411
149477,426.0,5542.0,5918.0,-10.0,18.0,47.0,0.836,0.34,-0.135,-0.41
149489,282.0,5548.0,5934.0,-10.0,17.0,34.0,0.836,0.34,-0.135,-0.408
149511,272.0,5636.0,5926.0,-5.0,22.0,40.0,0.837,0.34,-0.135,-0.407
149523,174.0,5766.0,6006.0,0.0,23.0,36.0,0.837,0.34,-0.134,-0.406
149545,120.0,5742.0,5946.0,-11.0,15.0,23.0,0.838,0.34,-0.134,-0.405
149557,56.0,5730.0,5906.0,-20.0,7.0,23.0,0.838,0.34,-0.134,-0.405
149579,110.0,5604.0,5970.0,-50.0,7.0,28.0,0.839,0.34,-0.134,-0.404
149591,226.0,5554.0,6076.0,-64.0,11.0,40.0,0.839,0.34,-0.133,-0.403
149613,206.0,5450.0,6024.0,-46.0,17.0,46.0,0.84,0.339,-0.133,-0.402
149635,216.0,5544.0,5942.0,-16.0,18.0,60.0,0.841,0.339,-0.133,-0.401
149647,174.0,5540.0,5886.0,-8.0,12.0,64.0,0.841,0.339,-0.133,-0.4
149669,252.0,5770.0,5864.0,-8.0,3.0,50.0,0.842,0.339,-0.133,-0.399
149681,218.0,5766.0,5926.0,-27.0,-4.0,37.0,0.842,0.339,-0.133,-0.398
149703,332.0,5684.0,5960.0,-41.0,-7.0,27.0,0.843,0.339,-0.133,-0.397
149715,310.0,5566.0,5966.0,-42.0,-10.0,18.0,0.843,0.338,-0.133,-0.396
149737,190.0,5514.0,5946.0,-36.0,-7.0,21.0,0.844,0.338,-0.133,-0.395
149749,176.0,5538.0,5966.0,-35.0,-1.0,23.0,0.844,0.338,-0.132,-0.395
149771,134.0,5530.0,5992.0,-28.0,2.0,25.0,0.845,0.337,-0.132,-0.394
149783,178.0,5584.0,6030.0,-27.0,11.0,32.0,0.845,0.337,-0.132,-0.393
149805,116.0,5540.0,6014.0,-22.0,10.0,20.0,0.846,0.337,-0.132,-0.392
149827,126.0,5554.0,5998.0,-18.0,11.0,20.0,0.846,0.337,-0.132,-0.391
149839,188.0,5490.0,5868.0,-1.0,1.0,14.0,0.846,0.337,-0.131,-0.391
149861,218.0,5600.0,5792.0,-2.0,5.0,10.0,0.847,0.337,-0.131,-0.39
149873,208.0,5622.0,5724.0,-16.0,-5.0,7.0,0.847,0.337,-0.131,-0.389
149895,200.0,5684.0,5770.0,-20.0,-18.0,3.0,0.847,0.337,-0.131,-0.389
149907,186.0,5704.0,5856.0,-35.0,-16.0,-8.0,0.848,0.337,-0.131,-0.388
149929,142.0,5584.0,5918.0,-35.0,-22.0,-10.0,0.848,0.337,-0.131,-0.388
149941,186.0,5502.0,5966.0,-36.0,-28.0,-5.0,0.848,0.336,-0.131,-0.387
149963,262.0,5378.0,6050.0,-27.0,-3.0,2.0,0.849,0.336,-0.131,-0.387
149985,320.0,5348.0,6174.0,-11.0,20.0,21.0,0.849,0.336,-0.13,-0.386
149997,308.0,5372.0,6198.0,0.0,34.0,38.0,0.85,0.336,-0.13,-0.385
150019,354.0,5358.0,6128.0,6.0,43.0,49.0,0.85,0.336,-0.13,-0.384
150031,426.0,5406.0,6140.0,13.0,53.0,45.0,0.851,0.336,-0.13,-0.383
150053,420.0,5404.0,6078.0,8.0,44.0,46.0,0.851,0.337,-0.129,-0.382
150065,444.0,5428.0,6050.0,12.0,39.0,55.0,0.852,0.337,-0.129,-0.38
150087,374.0,5474.0,6074.0,9.0,45.0,56.0,0.852,0.337,-0.129,-0.379
150099,322.0,5548.0,6018.0,9.0,46.0,57.0,0.853,0.337,-0.129,-0.378
150121,306.0,5608.0,6062.0,3.0,34.0,56.0,0.853,0.337,-0.128,-0.377
150143,254.0,5626.0,6052.0,1.0,26.0,46.0,0.854,0.337,-0.128,-0.376
150155,258.0,5638.0,6048.0,-3.0,7.0,42.0,0.854,0.337,-0.128,-0.375
150177,244.0,5638.0,6020.0,-19.0,-15.0,43.0,0.854,0.337,-0.128,-0.374
150189,268.0,5634.0,6002.0,-35.0,-21.0,33.0,0.855,0.337,-0.128,-0.373
150211,242.0,5542.0,6040.0,-41.0,-31.0,25.0,0.855,0.337,-0.128,-0.372
150223,254.0,5496.0,5978.0,-25.0,-34.0,20.0,0.856,0.336,-0.129,-0.372
150245,306.0,5414.0,5914.0,-23.0,-20.0,12.0,0.856,0.336,-0.129,-0.371
150257,238.0,5462.0,6008.0,-11.0,-16.0,7.0,0.856,0.336,-0.129,-0.371
150279,258.0,5536.0,5956.0,-8.0,-22.0,7.0,0.857,0.336,-0.129,-0.37
150291,266.0,5620.0,5956.0,-7.0,-26.0,2.0,0.857,0.336,-0.129,-0.369
150313,226.0,5656.0,5942.0,-5.0,-24.0,1.0,0.857,0.336,-0.129,-0.369
150335,326.0,5642.0,5902.0,0.0,-21.0,4.0,0.857,0.336,-0.129,-0.368
150347,304.0,5666.0,5892.0,10.0,-3.0,0.0,0.857,0.336,-0.129,-0.368
150369,210.0,5634.0,5930.0,13.0,13.0,-11.0,0.858,0.336,-0.129,-0.367
150381,228.0,5708.0,5954.0,12.0,18.0,-29.0,0.858,0.336,-0.128,-0.367
150403,294.0,5650.0,5962.0,15.0,31.0,-39.0,0.858,0.337,-0.128,-0.366
150415,226.0,5564.0,5944.0,19.0,18.0,-37.0,0.858,0.337,-0.128,-0.366
150437,334.0,5544.0,6006.0,3.0,6.0,-49.0,0.858,0.337,-0.127,-0.366
150449,292.0,5514.0,5990.0,0.0,9.0,-39.0,0.858,0.337,-0.127,-0.365
150471,328.0,5466.0,6020.0,2.0,27.0,-32.0,0.858,0.338,-0.127,-0.365
150493,360.0,5476.0,6066.0,9.0,40.0,-27.0,0.859,0.338,-0.126,-0.364
150505,376.0,5496.0,6106.0,17.0,33.0,-25.0,0.859,0.338,-0.126,-0.364
150527,398.0,5516.0,6064.0,15.0,33.0,-26.0,0.859,0.338,-0.125,-0.364
150539,358.0,5528.0,6062.0,-2.0,5.0,-15.0,0.859,0.338,-0.125,-0.363
150561,382.0,5546.0,6014.0,-22.0,-22.0,-5.0,0.859,0.338,-0.125,-0.363
150573,342.0,5444.0,6100.0,-31.0,-4.0,11.0,0.86,0.338,-0.125,-0.362
150595,388.0,5478.0,6068.0,-15.0,20.0,19.0,0.86,0.338,-0.125,-0.361
150607,298.0,5496.0,6024.0,-2.0,31.0,25.0,0.86,0.338,-0.125,-0.36
150629,288.0,5440.0,5994.0,16.0,37.0,16.0,0.861,0.338,-0.124,-0.36
150651,350.0,5514.0,6030.0,21.0,34.0,10.0,0.861,0.339,-0.124,-0.359
150663,310.0,5582.0,6012.0,26.0,33.0,6.0,0.861,0.339,-0.124,-0.358
150685,228.0,5602.0,5952.0,21.0,35.0,8.0,0.861,0.339,-0.123,-0.357
150697,218.0,5624.0,5954.0,22.0,30.0,13.0,0.862,0.34,-0.123,-0.356
150719,210.0,5684.0,5932.0,14.0,27.0,16.0,0.862,0.34,-0.123,-0.356
150731,208.0,5682.0,5930.0,15.0,8.0,4.0,0.862,0.34,-0.123,-0.355
150753,176.0,5596.0,5932.0,15.0,11.0,-7.0,0.862,0.34,-0.123,-0.355
150765,216.0,5592.0,5966.0,8.0,17.0,-11.0,0.862,0.341,-0.123,-0.354
150787,214.0,5582.0,5994.0,7.0,21.0,-15.0,0.863,0.341,-0.122,-0.354
150799,260.0,5606.0,5980.0,10.0,25.0,-8.0,0.863,0.341,-0.122,-0.353
150821,314.0,5518.0,5982.0,5.0,21.0,4.0,0.863,0.341,-0.122,-0.352
150843,338.0,5526.0,5998.0,5.0,18.0,8.0,0.863,0.341,-0.122,-0.352
150855,304.0,5566.0,5932.0,2.0,19.0,9.0,0.863,0.341,-0.121,-0.351
150877,340.0,5498.0,5964.0,3.0,24.0,8.0,0.864,0.341,-0.121,-0.35
150889,300.0,5510.0,5964.0,8.0,37.0,2.0,0.864,0.342,-0.121,-0.35
150911,232.0,5544.0,6006.0,8.0,32.0,4.0,0.864,0.342,-0.12,-0.349
150923,210.0,5500.0,5986.0,9.0,29.0,6.0,0.864,0.342,-0.12,-0.348
150945,274.0,5540.0,5992.0,5.0,22.0,8.0,0.865,0.342,-0.12,-0.347
150957,264.0,5584.0,5942.0,0.0,12.0,7.0,0.865,0.342,-0.12,-0.347
150979,272.0,5508.0,6044.0,4.0,10.0,6.0,0.865,0.342,-0.12,-0.346
151001,288.0,5544.0,6014.0,11.0,12.0,-3.0,0.865,0.343,-0.119,-0.346
151013,308.0,5502.0,5946.0,19.0,6.0,-6.0,0.866,0.343,-0.119,-0.345
151035,292.0,5532.0,5918.0,24.0,1.0,-8.0,0.866,0.343,-0.119,-0.345
151047,304.0,5646.0,5982.0,21.0,-3.0,-13.0,0.866,0.343,-0.119,-0.344
151069,266.0,5592.0,6006.0,12.0,-11.0,-17.0,0.866,0.343,-0.119,-0.344
151081,174.0,5580.0,6008.0,11.0,-20.0,-16.0,0.866,0.343,-0.119,-0.343
151103,260.0,5542.0,6020.0,7.0,-23.0,-6.0,0.866,0.343,-0.119,-0.343
151115,218.0,5572.0,6014.0,14.0,-23.0,2.0,0.866,0.344,-0.12,-0.342
151137,278.0,5634.0,5984.0,8.0,-23.0,-6.0,0.866,0.344,-0.12,-0.342
151149,272.0,5528.0,5922.0,-4.0,-30.0,-2.0,0.867,0.344,-0.12,-0.342
151172,270.0,5562.0,5958.0,-11.0,-31.0,-9.0,0.867,0.343,-0.12,-0.341
151184,322.0,5572.0,5956.0,-12.0,-33.0,-6.0,0.867,0.343,-0.12,-0.341
151207,264.0,5528.0,5978.0,-12.0,-31.0,-8.0,0.867,0.343,-0.12,-0.341
151229,326.0,5596.0,5950.0,-11.0,-26.0,-11.0,0.867,0.343,-0.12,-0.34
151241,312.0,5570.0,5922.0,-9.0,-20.0,-11.0,0.867,0.343,-0.12,-0.34
151263,328.0,5602.0,5910.0,-6.0,-23.0,-7.0,0.868,0.343,-0.12,-0.34
151275,288.0,5642.0,5950.0,-7.0,-10.0,-1.0,0.868,0.343,-0.12,-0.339
151297,332.0,5598.0,5950.0,1.0,-10.0,6.0,0.868,0.343,-0.12,-0.339
151309,312.0,5658.0,5932.0,-2.0,-9.0,6.0,0.868,0.343,-0.12,-0.338
151331,350.0,5528.0,5974.0,-8.0,-9.0,-6.0,0.868,0.343,-0.12,-0.338
151343,326.0,5592.0,5974.0,-6.0,-10.0,-1.0,0.869,0.343,-0.12,-0.337
151365,296.0,5586.0,6016.0,-5.0,-9.0,3.0,0.869,0.343,-0.12,-0.337
151377,290.0,5610.0,5988.0,3.0,-4.0,7.0,0.869,0.343,-0.12,-0.336
151399,288.0,5556.0,5996.0,1.0,-3.0,4.0,0.869,0.343,-0.12,-0.336
151421,334.0,5560.0,6004.0,1.0,-6.0,-1.0,0.869,0.343,-0.12,-0.335
151438,348.0,5492.0,5974.0,3.0,-7.0,-4.0,0.87,0.343,-0.12,-0.335
151450,360.0,5520.0,5980.0,4.0,-11.0,-3.0,0.87,0.343,-0.12,-0.334
151472,384.0,5572.0,5968.0,1.0,-9.0,-6.0,0.87,0.343,-0.12,-0.334
151484,346.0,5580.0,5946.0,-4.0,-10.0,-6.0,0.87,0.343,-0.12,-0.333
151506,342.0,5546.0,5958.0,-1.0,-10.0,-3.0,0.87,0.343,-0.12,-0.333
151518,358.0,5572.0,5972.0,0.0,-15.0,-1.0,0.87,0.343,-0.12,-0.333
151540,318.0,5588.0,5974.0,-5.0,-11.0,-1.0,0.87,0.343,-0.12,-0.332
151552,288.0,5628.0,5996.0,-1.0,-13.0,1.0,0.871,0.343,-0.12,-0.332
151574,316.0,5580.0,5960.0,-7.0,-11.0,0.0,0.871,0.343,-0.12,-0.331
151596,270.0,5592.0,5986.0,-7.0,-11.0,0.0,0.871,0.343,-0.12,-0.331
151608,372.0,5536.0,5938.0,-12.0,-14.0,0.0,0.871,0.343,-0.12,-0.331
151630,304.0,5616.0,5964.0,-8.0,-15.0,0.0,0.871,0.342,-0.12,-0.33
151642,386.0,5530.0,5914.0,-1.0,-14.0,-3.0,0.871,0.342,-0.12,-0.33
151664,414.0,5596.0,5968.0,-16.0,-8.0,-7.0,0.872,0.342,-0.12,-0.329
151676,400.0,5618.0,5968.0,-11.0,-2.0,-8.0,0.872,0.342,-0.12,-0.329
151698,436.0,5702.0,6016.0,-9.0,15.0,-16.0,0.872,0.342,-0.12,-0.329
151710,500.0,5814.0,5948.0,-25.0,29.0,-25.0,0.872,0.342,-0.119,-0.328
151732,514.0,5870.0,5970.0,-64.0,44.0,-42.0,0.873,0.342,-0.119,-0.328
151754,444.0,5716.0,6084.0,-109.0,27.0,-67.0,0.873,0.341,-0.118,-0.328
151766,450.0,5898.0,6122.0,-137.0,52.0,-96.0,0.873,0.341,-0.117,-0.328
151788,394.0,5494.0,6106.0,-193.0,31.0,-115.0,0.874,0.339,-0.115,-0.329
151800,364.0,5346.0,5958.0,-200.0,45.0,-126.0,0.874,0.338,-0.114,-0.329
151822,344.0,5400.0,6032.0,-192.0,78.0,-117.0,0.875,0.337,-0.112,-0.33
151834,206.0,5260.0,6062.0,-189.0,69.0,-81.0,0.875,0.336,-0.111,-0.33
151856,206.0,5414.0,6194.0,-141.0,107.0,-66.0,0.876,0.335,-0.109,-0.33
151868,234.0,5428.0,6542.0,-128.0,144.0,-72.0,0.876,0.334,-0.107,-0.33
151890,398.0,5676.0,6892.0,-173.0,213.0,-80.0,0.877,0.334,-0.105,-0.329
151912,488.0,5796.0,7336.0,-203.0,291.0,-101.0,0.878,0.333,-0.101,-0.329
151924,574.0,5926.0,7290.0,-190.0,347.0,-128.0,0.879,0.333,-0.097,-0.329
151946,418.0,5634.0,6984.0,-72.0,401.0,-160.0,0.879,0.333,-0.093,-0.328
151958,302.0,4898.0,6508.0,118.0,401.0,-213.0,0.878,0.336,-0.09,-0.328
151980,628.0,5402.0,6408.0,471.0,430.0,-250.0,0.877,0.341,-0.087,-0.328
151992,544.0,6260.0,6684.0,680.0,490.0,-385.0,0.874,0.348,-0.084,-0.329
152014,574.0,7254.0,6858.0,633.0,502.0,-508.0,0.871,0.355,-0.08,-0.33
152026,392.0,7018.0,6622.0,724.0,517.0,-631.0,0.867,0.363,-0.075,-0.333
152048,-354.0,7746.0,5912.0,751.0,482.0,-796.0,0.862,0.371,-0.071,-0.337
152070,-722.0,7164.0,5396.0,691.0,405.0,-914.0,0.857,0.379,-0.067,-0.342
152082,-1130.0,7152.0,5286.0,711.0,367.0,-1065.0,0.852,0.387,-0.062,-0.348
152104,-1394.0,7412.0,5376.0,666.0,298.0,-1187.0,0.846,0.394,-0.058,-0.355
152116,-1816.0,7384.0,5166.0,615.0,201.0,-1280.0,0.839,0.4,-0.053,-0.364
152138,-2012.0,6874.0,5064.0,638.0,79.0,-1400.0,0.832,0.406,-0.049,-0.374
152150,-2174.0,6316.0,4634.0,779.0,-38.0,-1500.0,0.824,0.413,-0.047,-0.385
152172,-2172.0,5372.0,4302.0,933.0,-121.0,-1551.0,0.815,0.42,-0.045,-0.396
152184,-2262.0,5264.0,4178.0,1085.0,-186.0,-1543.0,0.805,0.428,-0.044,-0.408
152206,-2256.0,5930.0,4118.0,1171.0,-208.0,-1526.0,0.795,0.437,-0.043,-0.419
152228,-2352.0,5662.0,4206.0,1089.0,-244.0,-1459.0,0.784,0.445,-0.043,-0.43
152240,-2336.0,5350.0,4532.0,1061.0,-268.0,-1375.0,0.775,0.452,-0.043,-0.44
152262,-1648.0,1780.0,4736.0,1442.0,-256.0,-985.0,0.765,0.462,-0.047,-0.447
152274,-3548.0,9066.0,4232.0,426.0,-371.0,-737.0,0.76,0.464,-0.048,-0.453
152296,-1408.0,3570.0,4650.0,325.0,-365.0,-936.0,0.755,0.465,-0.047,-0.461
152308,-2218.0,5274.0,4498.0,381.0,-258.0,-816.0,0.75,0.467,-0.047,-0.467
152330,-2150.0,4536.0,4500.0,351.0,-346.0,-833.0,0.745,0.468,-0.047,-0.474
152342,-1912.0,4304.0,4254.0,528.0,-318.0,-587.0,0.74,0.471,-0.048,-0.478
152364,-1880.0,4994.0,4174.0,668.0,-280.0,-483.0,0.735,0.474,-0.051,-0.482
152376,-1920.0,5006.0,3744.0,601.0,-271.0,-284.0,0.731,0.477,-0.054,-0.484
152398,-320.0,6906.0,5370.0,345.0,242.0,-154.0,0.729,0.481,-0.054,-0.484
152410,-2296.0,4180.0,7174.0,-180.0,305.0,19.0,0.731,0.48,-0.051,-0.483
152433,-2310.0,4346.0,6486.0,-307.0,298.0,48.0,0.733,0.479,-0.047,-0.481
152455,-2752.0,4620.0,5254.0,-25.0,304.0,100.0,0.734,0.479,-0.046,-0.479
152467,-2706.0,5768.0,4540.0,354.0,247.0,146.0,0.733,0.483,-0.046,-0.477
152489,-2972.0,6756.0,3872.0,453.0,90.0,157.0,0.732,0.486,-0.048,-0.475
152501,-3044.0,8164.0,3070.0,230.0,133.0,133.0,0.731,0.488,-0.049,-0.474
152523,-3254.0,7170.0,3460.0,-116.0,90.0,120.0,0.732,0.488,-0.049,-0.473
152535,-3080.0,6114.0,3744.0,83.0,63.0,148.0,0.732,0.489,-0.049,-0.471
152557,-3062.0,5992.0,3964.0,336.0,17.0,100.0,0.731,0.491,-0.051,-0.47
152569,-3124.0,5644.0,3804.0,685.0,-104.0,90.0,0.728,0.496,-0.055,-0.47
152591,-2760.0,6222.0,3924.0,1114.0,-151.0,97.0,0.724,0.502,-0.062,-0.469
152603,-2036.0,7532.0,3742.0,1267.0,-34.0,114.0,0.718,0.511,-0.068,-0.468
152625,-2332.0,7212.0,4592.0,1007.0,-59.0,159.0,0.714,0.517,-0.074,-0.466
152647,-2174.0,6622.0,4032.0,815.0,-78.0,85.0,0.711,0.522,-0.078,-0.465
152659,-2668.0,6482.0,4014.0,318.0,128.0,138.0,0.71,0.524,-0.08,-0.464
152681,-2084.0,5788.0,3726.0,208.0,14.0,206.0,0.71,0.525,-0.082,-0.462
152693,-1770.0,7398.0,2966.0,560.0,46.0,50.0,0.707,0.529,-0.084,-0.461
152715,-2386.0,8150.0,2232.0,-32.0,82.0,200.0,0.708,0.53,-0.085,-0.459
152727,-2818.0,6986.0,1640.0,-235.0,-21.0,127.0,0.71,0.528,-0.085,-0.458
152749,-3082.0,5808.0,2270.0,31.0,-135.0,110.0,0.71,0.528,-0.086,-0.458
152761,-3294.0,4788.0,2724.0,900.0,-290.0,210.0,0.706,0.532,-0.093,-0.457
152783,-2570.0,5166.0,2730.0,2019.0,-184.0,268.0,0.697,0.544,-0.104,-0.455
152805,-2788.0,8230.0,2394.0,2387.0,-66.0,293.0,0.686,0.559,-0.116,-0.451
152817,-1668.0,10460.0,3626.0,2006.0,189.0,61.0,0.676,0.573,-0.124,-0.447
152839,-2974.0,9036.0,5208.0,186.0,210.0,11.0,0.675,0.575,-0.123,-0.446
152851,-1994.0,5026.0,4646.0,177.0,275.0,30.0,0.675,0.577,-0.122,-0.444
152873,-1652.0,6112.0,2186.0,644.0,395.0,-24.0,0.671,0.583,-0.122,-0.441
152885,-1712.0,8822.0,878.0,318.0,504.0,283.0,0.671,0.586,-0.122,-0.436
152907,-2790.0,8152.0,1702.0,177.0,522.0,207.0,0.672,0.59,-0.121,-0.432
152919,-2412.0,5674.0,3114.0,117.0,428.0,156.0,0.672,0.592,-0.119,-0.428
152941,-1384.0,6920.0,2866.0,166.0,449.0,280.0,0.673,0.594,-0.119,-0.424
152953,-1288.0,7634.0,1472.0,171.0,451.0,309.0,0.674,0.597,-0.119,-0.419
152976,-1858.0,8068.0,1424.0,161.0,458.0,343.0,0.675,0.599,-0.119,-0.414
152998,-2058.0,7602.0,2034.0,34.0,408.0,304.0,0.676,0.601,-0.118,-0.41
153010,-1440.0,8084.0,2060.0,-59.0,429.0,280.0,0.678,0.602,-0.117,-0.405
153032,-1740.0,8842.0,956.0,-135.0,472.0,290.0,0.681,0.602,-0.115,-0.401
153044,-2338.0,9036.0,750.0,-81.0,455.0,185.0,0.682,0.603,-0.113,-0.397
153066,-2210.0,8758.0,1616.0,-199.0,432.0,28.0,0.684,0.603,-0.11,-0.395
153078,-1768.0,8806.0,2062.0,-271.0,482.0,-10.0,0.686,0.603,-0.105,-0.393
153100,-2300.0,9030.0,2378.0,-419.0,528.0,-60.0,0.689,0.603,-0.1,-0.39
153112,-2126.0,7972.0,2294.0,-507.0,602.0,-44.0,0.692,0.602,-0.094,-0.388
153134,-2172.0,8592.0,2526.0,-558.0,680.0,-46.0,0.696,0.601,-0.088,-0.385
153146,-2386.0,8068.0,3594.0,-699.0,701.0,-50.0,0.7,0.599,-0.08,-0.382
153168,-2322.0,8366.0,3614.0,-805.0,730.0,-76.0,0.705,0.596,-0.072,-0.379
153190,-2288.0,7992.0,3796.0,-896.0,784.0,-48.0,0.71,0.593,-0.064,-0.375
153202,-2526.0,7930.0,3352.0,-975.0,794.0,-132.0,0.715,0.589,-0.054,-0.372
153224,-2424.0,7984.0,3242.0,-1029.0,779.0,-137.0,0.721,0.585,-0.045,-0.369
153236,-2426.0,7928.0,3844.0,-1084.0,826.0,-143.0,0.727,0.58,-0.034,-0.365
153258,-2466.0,7874.0,3632.0,-1124.0,913.0,-101.0,0.733,0.576,-0.023,-0.361
153270,-2528.0,7938.0,3586.0,-1164.0,984.0,-92.0,0.74,0.571,-0.012,-0.356
153292,-2626.0,7874.0,3588.0,-1199.0,1026.0,-147.0,0.746,0.566,0.001,-0.351
153304,-2506.0,7852.0,3504.0,-1253.0,1080.0,-183.0,0.752,0.561,0.013,-0.345
153326,-2706.0,7740.0,3530.0,-1288.0,1133.0,-193.0,0.758,0.555,0.027,-0.34
153348,-2758.0,7556.0,3410.0,-1303.0,1154.0,-239.0,0.764,0.55,0.041,-0.334
153360,-2806.0,7612.0,3370.0,-1297.0,1168.0,-259.0,0.77,0.544,0.055,-0.329
153382,-2952.0,7434.0,3224.0,-1286.0,1185.0,-308.0,0.775,0.538,0.069,-0.324
153394,-3026.0,7210.0,3550.0,-1272.0,1200.0,-362.0,0.78,0.532,0.083,-0.319
153416,-3008.0,7096.0,3656.0,-1220.0,1224.0,-386.0,0.784,0.527,0.098,-0.313
153428,-3260.0,6942.0,3412.0,-1268.0,1233.0,-380.0,0.788,0.52,0.113,-0.308
153445,-3264.0,6496.0,3426.0,-1293.0,1194.0,-398.0,0.792,0.514,0.128,-0.303
153467,-3240.0,6532.0,3426.0,-1178.0,1166.0,-453.0,0.796,0.508,0.142,-0.299
153479,-3448.0,6198.0,3186.0,-1152.0,1101.0,-516.0,0.798,0.502,0.156,-0.295
153501,-3376.0,6172.0,3248.0,-1124.0,1048.0,-553.0,0.801,0.495,0.17,-0.292
153523,-3520.0,5950.0,3188.0,-1112.0,997.0,-556.0,0.803,0.489,0.183,-0.288
153535,-3636.0,5736.0,3162.0,-1098.0,971.0,-533.0,0.805,0.482,0.195,-0.286
153557,-3586.0,5524.0,3262.0,-1034.0,971.0,-511.0,0.806,0.476,0.208,-0.283
153569,-3704.0,5410.0,3224.0,-985.0,984.0,-461.0,0.807,0.47,0.22,-0.281
153591,-3748.0,5008.0,2782.0,-919.0,980.0,-403.0,0.808,0.465,0.231,-0.277
153603,-3866.0,4150.0,2128.0,-800.0,864.0,-345.0,0.809,0.461,0.241,-0.275
153625,-3860.0,4568.0,2204.0,-620.0,770.0,-271.0,0.809,0.457,0.25,-0.272
153637,-4056.0,4634.0,2584.0,-554.0,609.0,-215.0,0.809,0.454,0.257,-0.27
153659,-4322.0,4488.0,2648.0,-565.0,504.0,-141.0,0.81,0.451,0.263,-0.267
153681,-4296.0,4266.0,2642.0,-513.0,400.0,-101.0,0.811,0.448,0.267,-0.265
153693,-4708.0,4186.0,2754.0,-527.0,301.0,-50.0,0.813,0.444,0.271,-0.263
153715,-4786.0,4492.0,2846.0,-505.0,271.0,48.0,0.814,0.441,0.274,-0.26
153727,-5184.0,4076.0,3372.0,-428.0,283.0,144.0,0.815,0.439,0.277,-0.257
153749,-5532.0,4344.0,3326.0,-397.0,267.0,247.0,0.817,0.437,0.279,-0.253
153761,-5814.0,4122.0,3524.0,-391.0,260.0,330.0,0.819,0.436,0.28,-0.248
153783,-6082.0,3940.0,3466.0,-347.0,261.0,388.0,0.82,0.435,0.282,-0.243
153795,-6194.0,4208.0,3466.0,-305.0,258.0,402.0,0.821,0.434,0.283,-0.239
153817,-6336.0,3870.0,3616.0,-248.0,233.0,355.0,0.823,0.433,0.284,-0.234
153829,-6490.0,3904.0,3558.0,-231.0,170.0,437.0,0.824,0.433,0.285,-0.23
153851,-6022.0,4024.0,3756.0,-230.0,182.0,401.0,0.825,0.432,0.285,-0.226
153873,-5658.0,4376.0,3776.0,-182.0,194.0,380.0,0.826,0.432,0.285,-0.221
153885,-5902.0,4392.0,3790.0,-120.0,158.0,261.0,0.827,0.432,0.286,-0.218
153907,-5628.0,4386.0,4016.0,-40.0,107.0,212.0,0.827,0.433,0.286,-0.216
153919,-5492.0,4610.0,3956.0,-26.0,43.0,197.0,0.827,0.433,0.286,-0.215
153941,-5240.0,4942.0,4264.0,-15.0,14.0,177.0,0.828,0.434,0.285,-0.213
153953,-5232.0,4960.0,4358.0,27.0,-18.0,166.0,0.828,0.434,0.284,-0.212
153975,-5062.0,5244.0,4544.0,11.0,-32.0,143.0,0.829,0.434,0.283,-0.211
153987,-5032.0,5416.0,4554.0,-61.0,-38.0,90.0,0.829,0.434,0.282,-0.21
154009,-4916.0,5582.0,4588.0,-166.0,-29.0,-15.0,0.83,0.433,0.282,-0.21
154031,-4908.0,5682.0,4700.0,-197.0,-1.0,-126.0,0.831,0.431,0.283,-0.21
154043,-4844.0,5490.0,4930.0,-135.0,63.0,-247.0,0.831,0.429,0.284,-0.212
154065,-5100.0,5610.0,4672.0,-160.0,107.0,-324.0,0.831,0.427,0.287,-0.213
154077,-5218.0,5778.0,4884.0,-371.0,157.0,-365.0,0.831,0.424,0.29,-0.214
154099,-5354.0,5360.0,5172.0,-498.0,194.0,-409.0,0.831,0.419,0.294,-0.216
154111,-5502.0,5304.0,5236.0,-464.0,250.0,-495.0,0.832,0.415,0.299,-0.217
154133,-5618.0,5394.0,5276.0,-498.0,305.0,-545.0,0.832,0.41,0.304,-0.219
154145,-5546.0,5228.0,5482.0,-550.0,412.0,-605.0,0.831,0.405,0.311,-0.22
154167,-5714.0,4896.0,5568.0,-579.0,479.0,-641.0,0.831,0.399,0.318,-0.222
154179,-5688.0,5368.0,5558.0,-686.0,601.0,-648.0,0.83,0.393,0.327,-0.223
154202,-5824.0,4766.0,5736.0,-804.0,680.0,-660.0,0.829,0.386,0.336,-0.223
154224,-5898.0,4954.0,5594.0,-829.0,759.0,-679.0,0.829,0.379,0.346,-0.223
154236,-6106.0,4630.0,5494.0,-908.0,804.0,-711.0,0.828,0.372,0.357,-0.222
154258,-5820.0,4606.0,5396.0,-845.0,817.0,-769.0,0.826,0.364,0.368,-0.223
154270,-6134.0,3812.0,4824.0,-910.0,851.0,-785.0,0.825,0.356,0.378,-0.223
154292,-5830.0,4136.0,4956.0,-943.0,885.0,-765.0,0.823,0.348,0.389,-0.222
154304,-5768.0,3688.0,5008.0,-1007.0,895.0,-771.0,0.822,0.339,0.4,-0.221
154326,-5572.0,4160.0,4534.0,-1000.0,910.0,-746.0,0.82,0.331,0.411,-0.22
154338,-5664.0,3370.0,4492.0,-934.0,930.0,-777.0,0.818,0.323,0.423,-0.22
154360,-5564.0,3066.0,3520.0,-877.0,934.0,-771.0,0.815,0.315,0.434,-0.219
154382,-5710.0,3186.0,3422.0,-792.0,900.0,-777.0,0.812,0.308,0.444,-0.219
154394,-5620.0,2670.0,4044.0,-775.0,891.0,-779.0,0.809,0.3,0.455,-0.219
154416,-5594.0,3060.0,3586.0,-723.0,901.0,-718.0,0.806,0.294,0.465,-0.219
154428,-5614.0,2738.0,3454.0,-814.0,876.0,-669.0,0.803,0.286,0.475,-0.218
154450,-5358.0,1732.0,2962.0,-925.0,861.0,-609.0,0.8,0.278,0.485,-0.216
154462,-5436.0,1718.0,3116.0,-948.0,855.0,-531.0,0.798,0.271,0.494,-0.214
154484,-5778.0,2076.0,2830.0,-881.0,835.0,-453.0,0.795,0.264,0.503,-0.211
154496,-5936.0,1950.0,2766.0,-805.0,785.0,-367.0,0.793,0.257,0.512,-0.208
154518,-6190.0,1854.0,2392.0,-738.0,794.0,-287.0,0.79,0.252,0.52,-0.205
154530,-6406.0,1432.0,2520.0,-700.0,814.0,-209.0,0.788,0.247,0.528,-0.201
154552,-6502.0,1292.0,2384.0,-710.0,855.0,-24.0,0.785,0.244,0.535,-0.195
154574,-6952.0,1232.0,1970.0,-681.0,782.0,-97.0,0.782,0.24,0.542,-0.191
154586,-7134.0,1310.0,2092.0,-690.0,730.0,-119.0,0.78,0.235,0.549,-0.186
154608,-7154.0,1392.0,2136.0,-718.0,705.0,-125.0,0.778,0.231,0.556,-0.182
154620,-7534.0,1152.0,2188.0,-675.0,669.0,-138.0,0.775,0.226,0.562,-0.178
154642,-7592.0,862.0,1768.0,-593.0,655.0,-114.0,0.773,0.222,0.568,-0.175
154654,-7842.0,720.0,1538.0,-526.0,649.0,-63.0,0.77,0.219,0.574,-0.171
154676,-7946.0,924.0,1508.0,-559.0,629.0,-65.0,0.768,0.216,0.579,-0.167
154688,-8150.0,460.0,1292.0,-614.0,557.0,-114.0,0.766,0.212,0.585,-0.164
154710,-8052.0,728.0,1654.0,-615.0,539.0,-154.0,0.764,0.207,0.59,-0.16
154722,-8194.0,292.0,1444.0,-664.0,499.0,-127.0,0.762,0.202,0.595,-0.157
154744,-8118.0,472.0,1630.0,-600.0,466.0,-120.0,0.76,0.198,0.599,-0.153
154766,-8198.0,510.0,1572.0,-634.0,438.0,-99.0,0.759,0.193,0.603,-0.15
154778,-8192.0,412.0,1480.0,-630.0,394.0,-91.0,0.758,0.189,0.607,-0.146
154800,-8270.0,226.0,1232.0,-655.0,344.0,-104.0,0.757,0.184,0.611,-0.143
154812,-8042.0,680.0,1348.0,-694.0,343.0,-127.0,0.756,0.179,0.614,-0.139
154834,-7992.0,646.0,1594.0,-715.0,325.0,-168.0,0.755,0.173,0.618,-0.136
154846,-7854.0,678.0,1536.0,-677.0,310.0,-208.0,0.754,0.168,0.621,-0.133
154868,-7962.0,468.0,1380.0,-650.0,269.0,-245.0,0.753,0.162,0.624,-0.13
154880,-7822.0,516.0,1312.0,-634.0,267.0,-272.0,0.752,0.156,0.627,-0.128
154902,-7672.0,552.0,1560.0,-625.0,269.0,-301.0,0.751,0.15,0.63,-0.126
154924,-7742.0,594.0,1686.0,-569.0,251.0,-332.0,0.75,0.145,0.633,-0.125
154936,-7756.0,306.0,1526.0,-515.0,230.0,-345.0,0.749,0.139,0.636,-0.124
154958,-7844.0,270.0,1482.0,-460.0,226.0,-325.0,0.748,0.134,0.638,-0.123
154970,-7802.0,330.0,1562.0,-437.0,212.0,-284.0,0.747,0.13,0.64,-0.122
154992,-7904.0,222.0,1720.0,-399.0,171.0,-256.0,0.746,0.126,0.642,-0.121
155004,-8190.0,-52.0,1490.0,-409.0,108.0,-217.0,0.746,0.122,0.644,-0.12
155026,-8130.0,-32.0,1592.0,-382.0,89.0,-202.0,0.746,0.118,0.645,-0.119
155038,-8308.0,-338.0,1558.0,-360.0,38.0,-176.0,0.746,0.114,0.646,-0.119
155060,-8322.0,-84.0,1870.0,-318.0,34.0,-170.0,0.746,0.111,0.646,-0.118
155082,-8518.0,-294.0,1610.0,-315.0,1.0,-160.0,0.746,0.108,0.647,-0.117
155094,-8496.0,-200.0,1684.0,-305.0,7.0,-180.0,0.746,0.105,0.647,-0.117
155116,-8808.0,-452.0,1674.0,-329.0,10.0,-185.0,0.746,0.101,0.648,-0.116
155128,-8916.0,-324.0,1900.0,-361.0,9.0,-190.0,0.746,0.097,0.648,-0.115
155150,-9114.0,-340.0,1912.0,-411.0,31.0,-228.0,0.746,0.093,0.649,-0.114
155162,-9472.0,-342.0,1860.0,-436.0,66.0,-268.0,0.746,0.089,0.651,-0.113
155184,-9612.0,-416.0,2008.0,-493.0,112.0,-290.0,0.745,0.084,0.652,-0.112
155196,-9864.0,-668.0,1892.0,-527.0,157.0,-313.0,0.744,0.078,0.654,-0.111
155218,-10034.0,-752.0,1878.0,-543.0,178.0,-342.0,0.743,0.072,0.656,-0.11
155230,-10214.0,-1338.0,1602.0,-566.0,224.0,-356.0,0.742,0.067,0.658,-0.109
155252,-10334.0,-880.0,1896.0,-557.0,278.0,-368.0,0.74,0.061,0.661,-0.108
155274,-10178.0,-1212.0,1930.0,-623.0,304.0,-370.0,0.738,0.054,0.664,-0.106
155286,-9990.0,-964.0,1852.0,-657.0,299.0,-363.0,0.736,0.048,0.667,-0.105
155308,-10348.0,-1358.0,1912.0,-782.0,418.0,-341.0,0.734,0.041,0.671,-0.102
155320,-10364.0,-1052.0,1780.0,-736.0,495.0,-371.0,0.73,0.034,0.675,-0.1
155342,-10656.0,-1336.0,1296.0,-664.0,589.0,-386.0,0.727,0.028,0.679,-0.098
155354,-10722.0,-1174.0,1016.0,-587.0,668.0,-392.0,0.722,0.022,0.685,-0.097
155376,-10752.0,-846.0,866.0,-651.0,692.0,-418.0,0.717,0.015,0.69,-0.095
155388,-10388.0,-592.0,1228.0,-723.0,659.0,-500.0,0.713,0.008,0.695,-0.094
155410,-10012.0,-754.0,1286.0,-754.0,611.0,-567.0,0.708,-0.0,0.7,-0.093
155432,-9566.0,-920.0,1410.0,-703.0,577.0,-607.0,0.704,-0.008,0.704,-0.092
155449,-9360.0,-694.0,1308.0,-603.0,524.0,-605.0,0.7,-0.016,0.708,-0.092
155461,-9162.0,-730.0,1134.0,-560.0,471.0,-583.0,0.696,-0.023,0.711,-0.092
155483,-8692.0,-928.0,1286.0,-563.0,441.0,-554.0,0.693,-0.03,0.714,-0.092
155495,-8568.0,-764.0,808.0,-494.0,386.0,-537.0,0.69,-0.036,0.717,-0.092
155517,-8344.0,-1090.0,724.0,-470.0,335.0,-510.0,0.687,-0.042,0.719,-0.093
155529,-7860.0,-604.0,916.0,-401.0,283.0,-535.0,0.685,-0.048,0.721,-0.093
155551,-7842.0,-950.0,300.0,-399.0,198.0,-500.0,0.683,-0.054,0.722,-0.094
155563,-7802.0,-1304.0,392.0,-396.0,156.0,-462.0,0.682,-0.059,0.723,-0.094
155585,-7190.0,-902.0,800.0,-363.0,121.0,-443.0,0.68,-0.064,0.724,-0.094
155607,-6840.0,-1122.0,466.0,-370.0,79.0,-435.0,0.679,-0.069,0.725,-0.095
155619,-6928.0,-1718.0,252.0,-351.0,49.0,-357.0,0.678,-0.074,0.725,-0.095
155641,-6630.0,-1460.0,432.0,-300.0,48.0,-266.0,0.677,-0.078,0.725,-0.094
155653,-6386.0,-1666.0,150.0,-291.0,6.0,-210.0,0.677,-0.081,0.725,-0.094
155675,-6928.0,-2114.0,-426.0,-289.0,-34.0,-106.0,0.677,-0.083,0.725,-0.092
155687,-6416.0,-2078.0,-372.0,-334.0,-52.0,-44.0,0.677,-0.086,0.725,-0.09
155709,-7038.0,-2066.0,-240.0,-396.0,-98.0,20.0,0.677,-0.088,0.725,-0.088
155721,-6596.0,-1736.0,110.0,-410.0,-114.0,39.0,0.678,-0.091,0.725,-0.084
155743,-6738.0,-2790.0,-160.0,-387.0,-166.0,112.0,0.679,-0.093,0.724,-0.081
155765,-7424.0,-2752.0,-872.0,-380.0,-190.0,207.0,0.68,-0.094,0.723,-0.077
155777,-6758.0,-2324.0,216.0,-370.0,-197.0,300.0,0.681,-0.094,0.723,-0.072
155799,-7212.0,-2462.0,154.0,-398.0,-270.0,362.0,0.683,-0.095,0.721,-0.067
155811,-7090.0,-2932.0,-564.0,-437.0,-304.0,468.0,0.685,-0.095,0.72,-0.061
155833,-7180.0,-2476.0,374.0,-462.0,-307.0,618.0,0.687,-0.094,0.719,-0.054
155845,-6974.0,-2654.0,-120.0,-503.0,-320.0,695.0,0.689,-0.093,0.718,-0.046
155867,-7256.0,-2966.0,802.0,-529.0,-337.0,831.0,0.691,-0.091,0.716,-0.037
155879,-7020.0,-2676.0,2.0,-477.0,-343.0,809.0,0.693,-0.089,0.715,-0.029
155901,-7074.0,-2766.0,282.0,-409.0,-330.0,880.0,0.695,-0.086,0.713,-0.021
155923,-7294.0,-2480.0,-192.0,-365.0,-88.0,1143.0,0.696,-0.081,0.714,-0.011
155935,-7700.0,-1710.0,118.0,-120.0,-154.0,502.0,0.697,-0.079,0.713,-0.007
155957,-7264.0,-1542.0,402.0,-360.0,-263.0,710.0,0.698,-0.076,0.712,0.0
155969,-7238.0,-2224.0,494.0,-150.0,-274.0,729.0,0.7,-0.071,0.71,0.004
155991,-7060.0,-1958.0,-32.0,-42.0,-304.0,743.0,0.702,-0.065,0.709,0.008
156003,-6452.0,-1076.0,604.0,75.0,-346.0,812.0,0.705,-0.057,0.707,0.011
156025,-8324.0,-2644.0,-1678.0,-57.0,-487.0,842.0,0.707,-0.05,0.705,0.015
156037,-7464.0,-768.0,-106.0,95.0,-527.0,890.0,0.711,-0.042,0.702,0.019
156059,-6018.0,-182.0,1836.0,-85.0,-536.0,743.0,0.714,-0.036,0.699,0.023
156071,-4936.0,-748.0,1330.0,40.0,-664.0,572.0,0.718,-0.03,0.695,0.025
156093,-4782.0,-1480.0,1026.0,461.0,-617.0,552.0,0.722,-0.022,0.691,0.024
156115,-4680.0,-1120.0,-242.0,566.0,-279.0,480.0,0.724,-0.013,0.689,0.022
156127,-5846.0,-1212.0,-938.0,385.0,-124.0,291.0,0.725,-0.007,0.688,0.019
156149,-4570.0,-868.0,314.0,-81.0,72.0,111.0,0.725,-0.005,0.689,0.019
156161,-3564.0,-1058.0,426.0,-120.0,253.0,-237.0,0.723,-0.006,0.691,0.016
156183,-3688.0,-1100.0,112.0,178.0,450.0,-545.0,0.72,-0.006,0.694,0.01
156195,-3660.0,-374.0,1306.0,386.0,660.0,-622.0,0.716,-0.006,0.698,0.001
156217,-3556.0,-906.0,1228.0,312.0,740.0,-754.0,0.711,-0.007,0.703,-0.008
156229,-3220.0,-960.0,1016.0,311.0,799.0,-892.0,0.706,-0.009,0.708,-0.017
156251,-4648.0,-990.0,-1646.0,59.0,933.0,-922.0,0.699,-0.013,0.714,-0.026
156273,-5512.0,-1278.0,-240.0,-124.0,852.0,-784.0,0.693,-0.017,0.72,-0.032
156285,-5552.0,-1222.0,660.0,-300.0,751.0,-840.0,0.688,-0.023,0.724,-0.037
156307,-5114.0,-1516.0,1026.0,-87.0,589.0,-941.0,0.684,-0.028,0.728,-0.044
156319,-6138.0,-1954.0,178.0,70.0,565.0,-922.0,0.679,-0.032,0.731,-0.052
156341,-5342.0,-1160.0,148.0,341.0,553.0,-794.0,0.675,-0.033,0.735,-0.061
156353,-7984.0,-3068.0,-1360.0,177.0,450.0,-528.0,0.671,-0.036,0.737,-0.066
156375,-7044.0,-1156.0,2.0,569.0,960.0,-714.0,0.664,-0.035,0.743,-0.076
156387,-7074.0,-686.0,480.0,192.0,410.0,-675.0,0.661,-0.036,0.745,-0.084
156409,-8338.0,-1608.0,-756.0,116.0,349.0,-668.0,0.658,-0.038,0.747,-0.09
156421,-8874.0,-2338.0,-44.0,379.0,182.0,-378.0,0.656,-0.037,0.748,-0.097
156444,-9964.0,-2080.0,-942.0,320.0,178.0,-227.0,0.655,-0.035,0.748,-0.102
156466,-9212.0,-798.0,662.0,370.0,98.0,-267.0,0.654,-0.033,0.749,-0.107
156478,-9774.0,-1902.0,-318.0,233.0,21.0,-450.0,0.653,-0.033,0.748,-0.113
156500,-9568.0,-2388.0,-240.0,306.0,28.0,-441.0,0.652,-0.034,0.748,-0.118
156512,-9616.0,-1578.0,-408.0,195.0,49.0,-411.0,0.651,-0.034,0.748,-0.123
156534,-8892.0,-1562.0,-298.0,76.0,12.0,-294.0,0.651,-0.036,0.748,-0.125
156546,-9068.0,-1760.0,-458.0,30.0,1.0,-344.0,0.65,-0.038,0.748,-0.128
156568,-8530.0,-1584.0,-282.0,165.0,-8.0,-354.0,0.65,-0.039,0.747,-0.131
156580,-8932.0,-2430.0,-654.0,234.0,46.0,-401.0,0.649,-0.039,0.747,-0.136
156602,-9084.0,-1930.0,-850.0,259.0,44.0,-385.0,0.649,-0.04,0.747,-0.14
156614,-8878.0,-1782.0,-810.0,17.0,52.0,-395.0,0.647,-0.041,0.747,-0.144
156636,-8530.0,-2156.0,-510.0,-11.0,-23.0,-425.0,0.647,-0.043,0.747,-0.148
156658,-8544.0,-2492.0,-520.0,25.0,-49.0,-349.0,0.646,-0.043,0.747,-0.152
156670,-8468.0,-2638.0,-40.0,91.0,-100.0,-245.0,0.647,-0.043,0.746,-0.155
156692,-8456.0,-2092.0,-246.0,25.0,-160.0,-102.0,0.647,-0.042,0.745,-0.157
156704,-8324.0,-2386.0,-672.0,-22.0,-261.0,-55.0,0.649,-0.043,0.743,-0.157
156726,-8824.0,-2954.0,-518.0,-34.0,-333.0,31.0,0.651,-0.042,0.741,-0.158
156738,-8238.0,-2216.0,-80.0,-88.0,-358.0,81.0,0.654,-0.041,0.739,-0.158
156760,-8286.0,-2096.0,166.0,-183.0,-448.0,126.0,0.657,-0.041,0.737,-0.157
156772,-8402.0,-2156.0,-238.0,-219.0,-486.0,186.0,0.66,-0.04,0.734,-0.155
156794,-8066.0,-2390.0,-130.0,-159.0,-500.0,283.0,0.664,-0.038,0.731,-0.153
156816,-8568.0,-2498.0,-292.0,-47.0,-546.0,151.0,0.667,-0.037,0.728,-0.153
156828,-8312.0,-1912.0,-230.0,-113.0,-591.0,346.0,0.671,-0.035,0.725,-0.151
156850,-8142.0,-2084.0,-310.0,-160.0,-623.0,440.0,0.676,-0.033,0.721,-0.149
156862,-8054.0,-2002.0,78.0,-112.0,-594.0,381.0,0.68,-0.03,0.718,-0.146
156884,-8046.0,-2002.0,-52.0,-157.0,-527.0,302.0,0.684,-0.029,0.715,-0.145
156896,-8110.0,-2126.0,-24.0,-210.0,-493.0,286.0,0.687,-0.029,0.712,-0.141
156918,-8232.0,-2008.0,-76.0,-215.0,-450.0,372.0,0.691,-0.027,0.709,-0.138
156930,-8838.0,-2318.0,-120.0,-204.0,-413.0,462.0,0.694,-0.024,0.707,-0.135
156952,-8972.0,-2272.0,212.0,-169.0,-384.0,530.0,0.697,-0.021,0.705,-0.132
156964,-9776.0,-2356.0,590.0,-230.0,-376.0,570.0,0.7,-0.018,0.703,-0.128
156987,-10146.0,-2628.0,718.0,-270.0,-350.0,559.0,0.702,-0.016,0.701,-0.124
156999,-11162.0,-2900.0,770.0,-233.0,-307.0,547.0,0.705,-0.013,0.699,-0.12
157022,-11942.0,-3168.0,1000.0,-202.0,-264.0,552.0,0.707,-0.01,0.698,-0.116
157044,-12518.0,-3206.0,1298.0,-206.0,-152.0,531.0,0.708,-0.006,0.697,-0.112
157056,-12742.0,-3130.0,1340.0,-155.0,-49.0,404.0,0.709,-0.004,0.697,-0.11
157078,-12860.0,-2984.0,988.0,-122.0,44.0,241.0,0.708,-0.002,0.697,-0.109
157090,-12738.0,-3012.0,912.0,-82.0,95.0,71.0,0.708,-0.0,0.698,-0.109
157112,-12086.0,-2716.0,578.0,-105.0,177.0,-75.0,0.706,-0.0,0.699,-0.11
157124,-12036.0,-2698.0,418.0,-74.0,210.0,-202.0,0.704,-0.001,0.701,-0.112
157146,-10928.0,-2458.0,640.0,-37.0,266.0,-328.0,0.702,-0.002,0.703,-0.115
157158,-10788.0,-2610.0,420.0,18.0,302.0,-357.0,0.7,-0.002,0.705,-0.119
157180,-10242.0,-2088.0,254.0,85.0,348.0,-338.0,0.697,-0.002,0.707,-0.123
157192,-10060.0,-2452.0,54.0,145.0,339.0,-309.0,0.694,-0.002,0.709,-0.127
157214,-9714.0,-1864.0,250.0,204.0,330.0,-278.0,0.691,-0.001,0.711,-0.131
157236,-9668.0,-1886.0,12.0,147.0,290.0,-222.0,0.689,0.0,0.712,-0.135
157248,-8802.0,-1128.0,1554.0,224.0,269.0,-227.0,0.687,0.002,0.714,-0.139
157270,-8944.0,-1566.0,1106.0,211.0,168.0,-196.0,0.685,0.004,0.714,-0.143
157282,-8726.0,-1472.0,986.0,222.0,136.0,-167.0,0.684,0.005,0.715,-0.146
157304,-8728.0,-1888.0,350.0,178.0,113.0,-126.0,0.683,0.007,0.715,-0.15
157316,-8496.0,-1126.0,1004.0,123.0,121.0,-133.0,0.682,0.008,0.716,-0.152
157338,-7960.0,-1328.0,1244.0,36.0,116.0,-209.0,0.681,0.009,0.716,-0.155
157350,-8028.0,-1410.0,640.0,34.0,84.0,-8.0,0.68,0.01,0.716,-0.156
157372,-8026.0,-1568.0,680.0,153.0,85.0,173.0,0.679,0.014,0.716,-0.158
157394,-7878.0,-1170.0,438.0,232.0,109.0,320.0,0.679,0.019,0.717,-0.158
157406,-7934.0,-1206.0,474.0,236.0,130.0,379.0,0.679,0.024,0.717,-0.158
157428,-7644.0,-930.0,820.0,187.0,134.0,372.0,0.678,0.029,0.717,-0.158
157440,-7792.0,-1214.0,496.0,120.0,141.0,396.0,0.678,0.034,0.718,-0.158
157457,-7450.0,-852.0,950.0,183.0,157.0,374.0,0.677,0.039,0.718,-0.157
157479,-7342.0,-850.0,1072.0,163.0,112.0,407.0,0.677,0.044,0.718,-0.157
157491,-7394.0,-1038.0,168.0,48.0,39.0,436.0,0.677,0.049,0.718,-0.156
157513,-8110.0,-2020.0,-182.0,-47.0,-54.0,484.0,0.678,0.052,0.717,-0.153
157525,-7410.0,-748.0,514.0,-60.0,-44.0,503.0,0.679,0.057,0.717,-0.151
157547,-7370.0,-628.0,920.0,-183.0,-65.0,479.0,0.68,0.06,0.716,-0.148
157569,-7380.0,-1298.0,980.0,-194.0,-163.0,476.0,0.682,0.062,0.715,-0.145
157581,-8092.0,-1852.0,-438.0,-235.0,-208.0,486.0,0.684,0.065,0.713,-0.141
157603,-7930.0,-950.0,536.0,-125.0,-191.0,563.0,0.686,0.068,0.712,-0.138
157615,-7982.0,-990.0,278.0,-191.0,-220.0,576.0,0.688,0.072,0.71,-0.134
157637,-7644.0,-1390.0,92.0,-22.0,-334.0,680.0,0.691,0.077,0.707,-0.131
157649,-8712.0,-2868.0,-570.0,20.0,-400.0,829.0,0.694,0.083,0.704,-0.127
157671,-7118.0,208.0,858.0,137.0,-327.0,902.0,0.697,0.09,0.701,-0.123
157683,-7220.0,-826.0,764.0,-129.0,-365.0,843.0,0.7,0.095,0.698,-0.118
157705,-6604.0,-1332.0,874.0,14.0,-477.0,838.0,0.704,0.101,0.694,-0.114
157727,-6570.0,-1066.0,1104.0,112.0,-449.0,850.0,0.708,0.108,0.689,-0.111
157739,-6254.0,-884.0,816.0,136.0,-492.0,892.0,0.711,0.115,0.685,-0.108
157761,-6492.0,-100.0,440.0,-24.0,-590.0,852.0,0.716,0.121,0.68,-0.103
157773,-5910.0,268.0,720.0,-246.0,-594.0,788.0,0.72,0.125,0.675,-0.098
157795,-5884.0,262.0,744.0,-448.0,-662.0,781.0,0.726,0.127,0.67,-0.092
157807,-5942.0,-274.0,722.0,-604.0,-708.0,797.0,0.731,0.128,0.665,-0.085
157829,-5396.0,14.0,744.0,-616.0,-617.0,788.0,0.736,0.129,0.66,-0.077
157841,-4636.0,214.0,456.0,-525.0,-583.0,676.0,0.741,0.13,0.655,-0.071
157863,-5666.0,-740.0,116.0,-294.0,-597.0,605.0,0.745,0.133,0.65,-0.067
157875,-5238.0,60.0,792.0,-335.0,-358.0,510.0,0.748,0.134,0.647,-0.063
157897,-4634.0,-348.0,642.0,-347.0,-222.0,329.0,0.75,0.135,0.645,-0.06
157919,-4608.0,-862.0,638.0,-286.0,-69.0,-3.0,0.751,0.134,0.644,-0.06
157931,-4512.0,-1090.0,560.0,-102.0,193.0,-252.0,0.749,0.132,0.646,-0.062
157953,-3946.0,-428.0,996.0,4.0,450.0,-532.0,0.746,0.131,0.65,-0.066
157965,-3230.0,114.0,1868.0,-150.0,665.0,-832.0,0.742,0.126,0.655,-0.071
157987,-3450.0,-988.0,1396.0,-228.0,788.0,-1122.0,0.736,0.119,0.662,-0.078
157999,-3490.0,-736.0,1286.0,-234.0,897.0,-1244.0,0.73,0.112,0.669,-0.085
158021,-4330.0,-764.0,244.0,-373.0,979.0,-1213.0,0.723,0.103,0.677,-0.091
158033,-5088.0,272.0,384.0,-525.0,918.0,-1184.0,0.716,0.094,0.685,-0.096
158055,-5598.0,-1244.0,774.0,-853.0,860.0,-1136.0,0.71,0.083,0.692,-0.099
158077,-6330.0,-1856.0,734.0,-707.0,669.0,-1097.0,0.705,0.073,0.698,-0.102
158089,-6872.0,-1128.0,1460.0,-395.0,542.0,-1039.0,0.701,0.066,0.702,-0.108
158111,-6964.0,-1440.0,1226.0,-290.0,394.0,-931.0,0.697,0.059,0.706,-0.113
158123,-7744.0,-1572.0,114.0,-171.0,288.0,-877.0,0.694,0.054,0.708,-0.118
158145,-8382.0,-1190.0,826.0,-86.0,225.0,-737.0,0.692,0.05,0.71,-0.124
158157,-7556.0,-1240.0,1196.0,-159.0,320.0,-632.0,0.689,0.046,0.712,-0.128
158179,-8338.0,-1098.0,1154.0,226.0,219.0,-788.0,0.687,0.043,0.713,-0.135
158191,-8680.0,-1834.0,16.0,-81.0,116.0,-688.0,0.685,0.04,0.714,-0.14
158213,-9470.0,-2038.0,218.0,216.0,101.0,-517.0,0.683,0.039,0.715,-0.146
158235,-8718.0,-946.0,262.0,197.0,158.0,-434.0,0.681,0.039,0.715,-0.151
158247,-8874.0,-1026.0,678.0,236.0,39.0,-459.0,0.68,0.038,0.715,-0.157
158269,-9546.0,-1854.0,-212.0,192.0,9.0,-452.0,0.679,0.038,0.715,-0.162
158281,-8794.0,-1728.0,990.0,347.0,95.0,-472.0,0.677,0.038,0.715,-0.168
158303,-8946.0,-1710.0,958.0,123.0,103.0,-488.0,0.676,0.037,0.716,-0.173
158315,-8490.0,-1448.0,750.0,18.0,51.0,-481.0,0.674,0.035,0.716,-0.177
158337,-8710.0,-2172.0,722.0,77.0,26.0,-466.0,0.673,0.033,0.716,-0.182
158349,-8574.0,-2600.0,704.0,169.0,98.0,-393.0,0.672,0.033,0.716,-0.187
158371,-8408.0,-1570.0,934.0,156.0,111.0,-352.0,0.67,0.033,0.716,-0.191
158383,-8242.0,-1924.0,680.0,33.0,47.0,-378.0,0.669,0.032,0.717,-0.194
158405,-8824.0,-2614.0,-62.0,-22.0,17.0,-389.0,0.668,0.03,0.717,-0.198
158427,-8482.0,-2112.0,694.0,77.0,19.0,-333.0,0.667,0.029,0.717,-0.201
158439,-8408.0,-2162.0,824.0,-37.0,-21.0,-278.0,0.667,0.028,0.716,-0.204
158461,-8330.0,-2370.0,544.0,-112.0,-86.0,-181.0,0.667,0.027,0.716,-0.205
158473,-8310.0,-2424.0,318.0,-146.0,-151.0,-93.0,0.667,0.026,0.715,-0.206
158495,-8468.0,-2284.0,270.0,-101.0,-191.0,-50.0,0.668,0.026,0.714,-0.207
158507,-8264.0,-2396.0,614.0,-62.0,-233.0,2.0,0.67,0.026,0.713,-0.207
158529,-8406.0,-1888.0,710.0,-120.0,-302.0,97.0,0.672,0.027,0.711,-0.207
158541,-8160.0,-2034.0,1046.0,-245.0,-377.0,79.0,0.674,0.026,0.709,-0.206
158563,-7808.0,-1874.0,1114.0,-247.0,-389.0,105.0,0.677,0.025,0.706,-0.205
158585,-8068.0,-2038.0,864.0,-242.0,-379.0,-5.0,0.679,0.024,0.704,-0.204
158597,-7674.0,-1568.0,738.0,-231.0,-465.0,139.0,0.683,0.024,0.702,-0.203
158619,-8040.0,-2046.0,580.0,-150.0,-437.0,259.0,0.686,0.024,0.699,-0.201
158631,-7966.0,-1810.0,638.0,-35.0,-357.0,307.0,0.689,0.026,0.697,-0.2
158653,-8206.0,-1492.0,146.0,43.0,-345.0,325.0,0.691,0.029,0.694,-0.199
158665,-8584.0,-1770.0,210.0,131.0,-311.0,311.0,0.693,0.032,0.692,-0.198
158687,-8914.0,-2072.0,-54.0,144.0,-218.0,388.0,0.695,0.036,0.69,-0.198
158699,-10074.0,-2228.0,-98.0,121.0,-223.0,464.0,0.697,0.04,0.688,-0.197
158721,-10368.0,-2130.0,-154.0,136.0,-213.0,424.0,0.699,0.044,0.686,-0.196
158733,-10980.0,-2194.0,390.0,78.0,-206.0,328.0,0.701,0.047,0.685,-0.195
158756,-11436.0,-3000.0,1024.0,28.0,-151.0,240.0,0.702,0.05,0.683,-0.194
158778,-12048.0,-3004.0,1762.0,115.0,-35.0,176.0,0.702,0.052,0.683,-0.195
158790,-12666.0,-3476.0,1888.0,47.0,88.0,141.0,0.702,0.054,0.683,-0.195
158812,-13310.0,-4006.0,1576.0,78.0,199.0,88.0,0.7,0.056,0.684,-0.195
158824,-13594.0,-3462.0,1494.0,82.0,420.0,-18.0,0.697,0.058,0.687,-0.196
158846,-13256.0,-3440.0,1282.0,9.0,581.0,-186.0,0.693,0.059,0.691,-0.198
158858,-12988.0,-3412.0,810.0,48.0,700.0,-315.0,0.688,0.06,0.695,-0.201
158880,-12562.0,-3236.0,510.0,113.0,771.0,-389.0,0.682,0.06,0.7,-0.205
158892,-11960.0,-3118.0,462.0,201.0,830.0,-417.0,0.675,0.061,0.705,-0.209
158914,-11672.0,-2584.0,276.0,227.0,862.0,-524.0,0.668,0.062,0.71,-0.214
158926,-11226.0,-2632.0,124.0,259.0,942.0,-490.0,0.66,0.063,0.716,-0.219
158948,-10704.0,-2172.0,204.0,276.0,1011.0,-485.0,0.652,0.064,0.722,-0.224
158970,-10026.0,-2348.0,254.0,371.0,1000.0,-387.0,0.644,0.067,0.727,-0.229
158982,-9290.0,-2152.0,96.0,380.0,919.0,-315.0,0.636,0.07,0.732,-0.234
159004,-8890.0,-2348.0,112.0,406.0,813.0,-269.0,0.63,0.073,0.736,-0.238
159016,-8330.0,-1904.0,32.0,376.0,742.0,-221.0,0.624,0.076,0.739,-0.242
159038,-8240.0,-2744.0,-24.0,338.0,626.0,-202.0,0.619,0.079,0.742,-0.246
159050,-7304.0,-1834.0,506.0,301.0,623.0,-122.0,0.614,0.082,0.745,-0.249
159072,-7172.0,-1878.0,414.0,145.0,557.0,-176.0,0.609,0.084,0.747,-0.252
159084,-7134.0,-2236.0,-364.0,73.0,468.0,-168.0,0.605,0.085,0.75,-0.254
159106,-7632.0,-2754.0,-354.0,190.0,388.0,63.0,0.602,0.088,0.751,-0.255
159128,-6846.0,-1422.0,-30.0,242.0,368.0,228.0,0.6,0.093,0.752,-0.256
159140,-6988.0,-2104.0,-268.0,134.0,353.0,329.0,0.598,0.098,0.754,-0.256
159162,-7406.0,-2416.0,-1184.0,173.0,295.0,414.0,0.596,0.103,0.754,-0.255
159174,-6892.0,-1738.0,-384.0,315.0,327.0,473.0,0.594,0.11,0.755,-0.255
159196,-6890.0,-1520.0,44.0,259.0,317.0,476.0,0.593,0.116,0.755,-0.254
159208,-6874.0,-1910.0,-364.0,189.0,269.0,526.0,0.592,0.123,0.756,-0.253
159230,-6360.0,-1512.0,-280.0,154.0,215.0,579.0,0.591,0.129,0.756,-0.251
159242,-7404.0,-2094.0,-928.0,192.0,45.0,634.0,0.592,0.135,0.754,-0.25
159264,-6450.0,-1500.0,-64.0,202.0,60.0,671.0,0.592,0.142,0.753,-0.248
159276,-6684.0,-1626.0,-630.0,53.0,-44.0,680.0,0.594,0.148,0.752,-0.245
159299,-7142.0,-2002.0,-722.0,92.0,-201.0,702.0,0.597,0.153,0.749,-0.243
159321,-7076.0,-1436.0,-954.0,116.0,-250.0,704.0,0.6,0.159,0.747,-0.241
159333,-6380.0,-1510.0,88.0,133.0,-312.0,686.0,0.603,0.164,0.743,-0.239
159355,-7410.0,-2318.0,-1096.0,127.0,-453.0,713.0,0.607,0.169,0.739,-0.237
159367,-6904.0,-1150.0,-1038.0,312.0,-540.0,743.0,0.612,0.176,0.734,-0.237
159389,-7502.0,-2712.0,-444.0,381.0,-615.0,816.0,0.617,0.182,0.728,-0.236
159401,-6832.0,-1104.0,-416.0,361.0,-614.0,802.0,0.622,0.189,0.722,-0.236
159423,-6728.0,-720.0,-164.0,260.0,-656.0,813.0,0.628,0.195,0.716,-0.234
159435,-7040.0,-2284.0,-908.0,307.0,-716.0,763.0,0.633,0.201,0.71,-0.234
159462,-6806.0,-1268.0,-188.0,528.0,-581.0,809.0,0.638,0.208,0.704,-0.234
159474,-6720.0,-696.0,-294.0,406.0,-492.0,837.0,0.642,0.216,0.698,-0.233
159496,-7108.0,-186.0,-1572.0,110.0,-572.0,784.0,0.647,0.22,0.693,-0.231
159508,-7204.0,-86.0,-648.0,102.0,-638.0,713.0,0.652,0.225,0.687,-0.229
159530,-6844.0,-1154.0,-208.0,-81.0,-535.0,697.0,0.657,0.228,0.682,-0.225
159542,-6422.0,-40.0,-88.0,120.0,-621.0,712.0,0.662,0.232,0.677,-0.223
159564,-6102.0,398.0,552.0,69.0,-569.0,784.0,0.667,0.236,0.671,-0.22
159576,-5666.0,-98.0,236.0,116.0,-595.0,724.0,0.672,0.241,0.666,-0.218
159598,-6686.0,-2088.0,24.0,487.0,-631.0,571.0,0.676,0.246,0.659,-0.219
159610,-6460.0,200.0,290.0,597.0,-536.0,599.0,0.679,0.253,0.653,-0.22
159632,-5672.0,-968.0,116.0,367.0,-489.0,371.0,0.682,0.256,0.649,-0.221
159654,-5246.0,-606.0,186.0,417.0,-457.0,-28.0,0.683,0.258,0.645,-0.225
159666,-4842.0,-968.0,-136.0,413.0,-211.0,-321.0,0.683,0.258,0.643,-0.23
159688,-4284.0,-458.0,24.0,534.0,-44.0,-603.0,0.68,0.258,0.643,-0.238
159700,-3332.0,-222.0,864.0,660.0,138.0,-904.0,0.676,0.258,0.645,-0.248
159722,-3442.0,-186.0,1404.0,710.0,382.0,-1172.0,0.669,0.256,0.648,-0.259
159734,-3804.0,-602.0,1016.0,652.0,519.0,-1335.0,0.661,0.254,0.653,-0.27
159756,-4588.0,-942.0,1156.0,410.0,606.0,-1333.0,0.653,0.25,0.658,-0.279
159768,-5458.0,-294.0,1336.0,85.0,599.0,-1316.0,0.645,0.244,0.665,-0.287
159790,-5436.0,-840.0,896.0,-210.0,426.0,-1288.0,0.639,0.236,0.671,-0.292
159812,-5576.0,-752.0,890.0,-498.0,412.0,-1268.0,0.634,0.227,0.677,-0.296
159824,-6146.0,-1888.0,682.0,-695.0,358.0,-1153.0,0.63,0.217,0.683,-0.298
159846,-6502.0,-1672.0,580.0,-457.0,283.0,-1060.0,0.626,0.208,0.688,-0.301
159858,-7102.0,-1374.0,750.0,-239.0,243.0,-938.0,0.622,0.202,0.692,-0.305
159880,-7500.0,-2468.0,598.0,-67.0,186.0,-762.0,0.619,0.197,0.695,-0.309
159892,-8108.0,-1262.0,24.0,-6.0,138.0,-696.0,0.616,0.193,0.697,-0.313
159914,-8172.0,-1178.0,254.0,4.0,108.0,-589.0,0.613,0.19,0.698,-0.317
159926,-8366.0,-2128.0,522.0,-19.0,78.0,-561.0,0.611,0.187,0.699,-0.32
159948,-8130.0,-1364.0,1184.0,-34.0,105.0,-468.0,0.609,0.185,0.7,-0.323
159960,-8210.0,-2086.0,342.0,-73.0,85.0,-453.0,0.608,0.182,0.702,-0.325
159982,-9208.0,-2284.0,272.0,93.0,98.0,-308.0,0.606,0.181,0.702,-0.327
160004,-8390.0,-2132.0,830.0,16.0,173.0,-202.0,0.604,0.181,0.703,-0.329
160016,-8628.0,-1986.0,580.0,-43.0,130.0,-204.0,0.602,0.18,0.704,-0.33
160038,-9414.0,-3224.0,-304.0,-135.0,94.0,-148.0,0.601,0.179,0.705,-0.33
160050,-8676.0,-1636.0,366.0,-144.0,130.0,-33.0,0.601,0.178,0.706,-0.329
160072,-8998.0,-2316.0,76.0,-264.0,81.0,-37.0,0.6,0.177,0.708,-0.328
160084,-8672.0,-2274.0,8.0,-284.0,23.0,5.0,0.601,0.176,0.708,-0.326
160106,-9204.0,-2744.0,-360.0,-373.0,-44.0,75.0,0.602,0.175,0.709,-0.324
160118,-8520.0,-1760.0,208.0,-407.0,-54.0,92.0,0.603,0.173,0.71,-0.321
160140,-8320.0,-2020.0,428.0,-482.0,-91.0,80.0,0.604,0.171,0.71,-0.318
160152,-8484.0,-1732.0,-78.0,-438.0,-221.0,104.0,0.607,0.169,0.71,-0.315
160174,-8460.0,-2018.0,208.0,-400.0,-173.0,90.0,0.609,0.168,0.71,-0.313
160196,-8156.0,-1894.0,344.0,-449.0,-266.0,121.0,0.611,0.166,0.709,-0.31
160208,-7942.0,-1404.0,414.0,-471.0,-355.0,209.0,0.615,0.164,0.708,-0.306
160230,-8008.0,-1764.0,502.0,-516.0,-369.0,185.0,0.619,0.161,0.707,-0.303
160242,-7826.0,-1608.0,500.0,-522.0,-365.0,179.0,0.622,0.159,0.705,-0.299
160264,-7708.0,-1278.0,652.0,-547.0,-382.0,210.0,0.626,0.156,0.704,-0.296
160276,-7858.0,-1310.0,358.0,-568.0,-416.0,278.0,0.631,0.154,0.703,-0.291
160298,-8220.0,-1488.0,250.0,-563.0,-469.0,347.0,0.635,0.152,0.701,-0.286
160310,-7874.0,-1236.0,308.0,-495.0,-479.0,363.0,0.64,0.151,0.699,-0.282
160332,-8358.0,-1180.0,390.0,-466.0,-488.0,365.0,0.645,0.15,0.696,-0.278
160354,-8028.0,-858.0,476.0,-399.0,-529.0,378.0,0.65,0.149,0.693,-0.274
160366,-8400.0,-1028.0,150.0,-262.0,-591.0,409.0,0.655,0.149,0.69,-0.271
160388,-8644.0,-964.0,-70.0,-57.0,-607.0,446.0,0.66,0.15,0.685,-0.269
160400,-9020.0,-810.0,262.0,151.0,-629.0,482.0,0.665,0.153,0.68,-0.268
160422,-9800.0,-880.0,950.0,180.0,-683.0,459.0,0.67,0.155,0.675,-0.267
160434,-9654.0,-768.0,1372.0,81.0,-627.0,379.0,0.675,0.157,0.67,-0.267
160456,-11098.0,-1076.0,696.0,-6.0,-722.0,313.0,0.68,0.157,0.665,-0.266
160468,-12118.0,-1906.0,626.0,-19.0,-703.0,267.0,0.685,0.157,0.66,-0.265
160490,-12930.0,-2488.0,954.0,29.0,-603.0,227.0,0.689,0.157,0.656,-0.265
160512,-13630.0,-1732.0,1618.0,32.0,-461.0,133.0,0.692,0.157,0.653,-0.265
160524,-14084.0,-2674.0,1546.0,-17.0,-353.0,-43.0,0.694,0.156,0.65,-0.266
160546,-14524.0,-2992.0,1112.0,91.0,-191.0,-148.0,0.695,0.156,0.649,-0.268
160558,-14284.0,-2840.0,934.0,114.0,57.0,-268.0,0.693,0.155,0.65,-0.271
160580,-13688.0,-2602.0,1320.0,162.0,314.0,-424.0,0.69,0.155,0.652,-0.274
160592,-12974.0,-2402.0,1628.0,203.0,484.0,-593.0,0.685,0.154,0.655,-0.279
160614,-12518.0,-2450.0,1390.0,155.0,605.0,-710.0,0.679,0.153,0.66,-0.284
160626,-11724.0,-2024.0,1702.0,150.0,707.0,-811.0,0.672,0.151,0.665,-0.289
160648,-11162.0,-2224.0,1408.0,159.0,754.0,-806.0,0.665,0.149,0.67,-0.294
160660,-11100.0,-2304.0,1384.0,241.0,698.0,-744.0,0.658,0.148,0.675,-0.3
160682,-10378.0,-2058.0,1260.0,168.0,693.0,-669.0,0.651,0.147,0.679,-0.304
160704,-11354.0,-2002.0,772.0,86.0,544.0,-659.0,0.646,0.145,0.683,-0.308
160716,-10090.0,-2030.0,2078.0,26.0,516.0,-485.0,0.641,0.144,0.687,-0.311
160738,-10204.0,-2020.0,1952.0,2.0,305.0,-415.0,0.638,0.143,0.689,-0.314
160750,-9358.0,-1976.0,2068.0,-103.0,186.0,-401.0,0.635,0.14,0.691,-0.315
160772,-8502.0,-1492.0,1814.0,-132.0,87.0,-399.0,0.634,0.138,0.692,-0.317
160784,-7822.0,-1872.0,1822.0,-77.0,41.0,-371.0,0.633,0.135,0.692,-0.319
160806,-7572.0,-1760.0,1062.0,11.0,7.0,-307.0,0.632,0.134,0.693,-0.321
160818,-7140.0,-1848.0,1396.0,-130.0,-34.0,-11.0,0.632,0.133,0.693,-0.321
160840,-6544.0,-1140.0,1146.0,-281.0,-37.0,193.0,0.633,0.133,0.693,-0.319
160862,-6626.0,-1572.0,754.0,-345.0,-69.0,249.0,0.634,0.133,0.693,-0.315
160874,-6046.0,-1436.0,900.0,-276.0,-1.0,370.0,0.636,0.134,0.693,-0.312
160896,-6228.0,-2388.0,642.0,-306.0,13.0,451.0,0.637,0.136,0.694,-0.307
160908,-5604.0,-600.0,1020.0,-186.0,51.0,502.0,0.638,0.138,0.694,-0.303
160930,-5588.0,-938.0,712.0,-243.0,51.0,489.0,0.64,0.141,0.694,-0.299
160942,-6138.0,-2440.0,-138.0,-118.0,-42.0,530.0,0.641,0.144,0.693,-0.296
160964,-6034.0,-1564.0,504.0,-111.0,-6.0,726.0,0.643,0.148,0.692,-0.291
160976,-5588.0,-1012.0,490.0,-186.0,-77.0,741.0,0.646,0.152,0.691,-0.286
160998,-6282.0,-1882.0,64.0,-239.0,-131.0,747.0,0.649,0.155,0.69,-0.281
161010,-5684.0,-1632.0,1302.0,-53.0,-86.0,867.0,0.652,0.161,0.688,-0.275
161033,-6120.0,-698.0,1228.0,-83.0,-32.0,826.0,0.654,0.166,0.687,-0.27
161055,-6756.0,-1272.0,-160.0,-50.0,-93.0,839.0,0.656,0.171,0.685,-0.265
161067,-7816.0,-2526.0,-672.0,-80.0,-69.0,824.0,0.659,0.176,0.684,-0.26
161089,-7568.0,-178.0,-330.0,-131.0,4.0,1011.0,0.661,0.182,0.682,-0.254
161101,-7750.0,-1314.0,-178.0,-453.0,-25.0,1134.0,0.665,0.187,0.681,-0.244
161123,-7468.0,-932.0,172.0,-241.0,-154.0,1159.0,0.668,0.192,0.679,-0.236
161135,-8516.0,-1884.0,-384.0,-32.0,-271.0,1278.0,0.673,0.2,0.675,-0.229
161157,-7828.0,-778.0,90.0,203.0,-329.0,1409.0,0.677,0.209,0.669,-0.222
161169,-8674.0,-1028.0,286.0,43.0,-400.0,1535.0,0.683,0.218,0.664,-0.214
161191,-6854.0,-346.0,1204.0,134.0,-499.0,1490.0,0.688,0.228,0.657,-0.207
161203,-6890.0,-1348.0,812.0,282.0,-630.0,1306.0,0.694,0.237,0.65,-0.202
161225,-5488.0,-750.0,1282.0,672.0,-631.0,1097.0,0.698,0.247,0.642,-0.2
161247,-4590.0,-1016.0,916.0,950.0,-656.0,853.0,0.701,0.257,0.634,-0.202
161259,-4378.0,-776.0,-492.0,1021.0,-508.0,420.0,0.703,0.265,0.627,-0.206
161281,-4116.0,452.0,-420.0,743.0,-217.0,-115.0,0.702,0.269,0.625,-0.212
161293,-3316.0,-132.0,222.0,7.0,9.0,-497.0,0.701,0.266,0.626,-0.216
161315,-2082.0,-732.0,906.0,-108.0,187.0,-812.0,0.698,0.261,0.629,-0.22
161327,-2812.0,-1040.0,568.0,175.0,385.0,-1008.0,0.693,0.257,0.634,-0.227
161349,-2880.0,-654.0,1116.0,408.0,656.0,-1146.0,0.686,0.255,0.64,-0.235
161361,-3244.0,-214.0,934.0,207.0,708.0,-1289.0,0.678,0.25,0.647,-0.243
161383,-4668.0,-1074.0,-76.0,-1.0,620.0,-1328.0,0.671,0.243,0.654,-0.25
161405,-4342.0,270.0,1218.0,-116.0,645.0,-1393.0,0.664,0.236,0.661,-0.257
161417,-4804.0,-1824.0,1120.0,-18.0,555.0,-1438.0,0.657,0.229,0.667,-0.265
161439,-7002.0,-2776.0,-1834.0,92.0,506.0,-1390.0,0.65,0.222,0.674,-0.273
161451,-7118.0,-1196.0,1304.0,92.0,479.0,-1084.0,0.644,0.217,0.678,-0.28
161468,-5544.0,-70.0,2066.0,-19.0,378.0,-1125.0,0.638,0.211,0.683,-0.286
161490,-6300.0,-1738.0,658.0,189.0,182.0,-1249.0,0.633,0.205,0.686,-0.295
161502,-7920.0,-3696.0,-494.0,177.0,141.0,-999.0,0.629,0.2,0.688,-0.302
161524,-7164.0,-1046.0,722.0,236.0,274.0,-710.0,0.625,0.198,0.69,-0.307
161536,-7156.0,-1246.0,572.0,137.0,138.0,-598.0,0.621,0.196,0.691,-0.312
161558,-7250.0,-1734.0,932.0,126.0,104.0,-493.0,0.619,0.194,0.692,-0.316
161580,-7364.0,-1538.0,338.0,198.0,130.0,-351.0,0.617,0.193,0.693,-0.319
161592,-8622.0,-3158.0,-134.0,107.0,161.0,-70.0,0.615,0.194,0.694,-0.32
161614,-8288.0,-1232.0,196.0,189.0,178.0,124.0,0.614,0.197,0.694,-0.321
161626,-8432.0,-1532.0,748.0,92.0,97.0,196.0,0.614,0.199,0.693,-0.32
161648,-8860.0,-2258.0,-102.0,48.0,80.0,166.0,0.614,0.201,0.693,-0.32
161660,-8842.0,-1500.0,70.0,80.0,110.0,214.0,0.614,0.204,0.693,-0.319
161682,-9184.0,-1476.0,526.0,61.0,133.0,-45.0,0.612,0.204,0.694,-0.319
161694,-9470.0,-1832.0,-246.0,-316.0,11.0,-123.0,0.612,0.202,0.695,-0.318
161716,-8898.0,-1166.0,340.0,-280.0,-24.0,-247.0,0.612,0.199,0.696,-0.318
161738,-9298.0,-1868.0,664.0,-480.0,-58.0,-274.0,0.613,0.195,0.697,-0.317
161750,-8988.0,-1536.0,706.0,-420.0,-130.0,-250.0,0.613,0.19,0.698,-0.316
161772,-8548.0,-1530.0,1092.0,-417.0,-205.0,-206.0,0.615,0.186,0.698,-0.315
161784,-8756.0,-1908.0,76.0,-452.0,-261.0,-166.0,0.617,0.182,0.698,-0.314
161806,-8600.0,-1246.0,468.0,-329.0,-294.0,-164.0,0.619,0.179,0.698,-0.313
161818,-8340.0,-840.0,590.0,-337.0,-310.0,-165.0,0.621,0.175,0.697,-0.313
161840,-8398.0,-1388.0,606.0,-371.0,-368.0,-42.0,0.624,0.172,0.696,-0.311
161852,-8210.0,-1472.0,926.0,-368.0,-384.0,142.0,0.628,0.17,0.694,-0.309
161874,-8234.0,-1146.0,462.0,-328.0,-362.0,223.0,0.631,0.169,0.692,-0.306
161886,-8572.0,-1654.0,494.0,-226.0,-411.0,301.0,0.635,0.168,0.69,-0.304
161908,-8590.0,-1000.0,374.0,-231.0,-442.0,376.0,0.639,0.168,0.687,-0.301
161930,-8536.0,-1154.0,946.0,-298.0,-519.0,399.0,0.644,0.168,0.684,-0.298
161942,-8720.0,-928.0,1072.0,-512.0,-554.0,485.0,0.65,0.167,0.681,-0.293
161964,-8378.0,-1078.0,714.0,-579.0,-552.0,345.0,0.655,0.164,0.679,-0.288
161976,-8374.0,-1062.0,136.0,-480.0,-604.0,378.0,0.661,0.162,0.676,-0.284
161998,-8410.0,-1474.0,-418.0,-208.0,-589.0,442.0,0.666,0.162,0.672,-0.281
162010,-8740.0,-1054.0,-692.0,85.0,-571.0,546.0,0.67,0.165,0.667,-0.279
162032,-8706.0,-880.0,196.0,40.0,-486.0,665.0,0.675,0.169,0.663,-0.276
162044,-9004.0,-222.0,282.0,-30.0,-496.0,693.0,0.68,0.172,0.659,-0.272
162066,-8690.0,-226.0,830.0,70.0,-505.0,517.0,0.684,0.174,0.655,-0.27
162088,-9266.0,-686.0,572.0,222.0,-466.0,487.0,0.688,0.178,0.65,-0.269
162100,-9632.0,-678.0,954.0,354.0,-398.0,558.0,0.691,0.182,0.646,-0.268
162122,-10490.0,-146.0,1626.0,252.0,-342.0,579.0,0.694,0.187,0.642,-0.267
162134,-10764.0,-336.0,2234.0,-12.0,-319.0,457.0,0.697,0.189,0.639,-0.264
162156,-11648.0,-942.0,3330.0,-122.0,-302.0,301.0,0.7,0.189,0.637,-0.262
162168,-12624.0,-972.0,2778.0,-66.0,-261.0,169.0,0.702,0.189,0.635,-0.261
162190,-13954.0,-2056.0,2622.0,-59.0,-172.0,115.0,0.703,0.189,0.634,-0.261
162202,-14066.0,-1280.0,2516.0,-85.0,-6.0,24.0,0.703,0.189,0.634,-0.26
162224,-13548.0,-1076.0,3072.0,-98.0,143.0,-213.0,0.702,0.187,0.636,-0.261
162246,-13260.0,-1732.0,2546.0,-57.0,276.0,-398.0,0.7,0.185,0.638,-0.263
162258,-13790.0,-2328.0,1438.0,4.0,359.0,-454.0,0.696,0.184,0.641,-0.265
162280,-13484.0,-1612.0,1446.0,73.0,480.0,-533.0,0.692,0.182,0.645,-0.268
162292,-12388.0,-1368.0,1748.0,-47.0,572.0,-822.0,0.686,0.179,0.65,-0.273
162314,-11826.0,-1774.0,2106.0,2.0,613.0,-965.0,0.68,0.174,0.656,-0.278
162326,-11106.0,-1574.0,1948.0,44.0,692.0,-966.0,0.673,0.171,0.661,-0.284
162348,-10992.0,-1446.0,1458.0,44.0,667.0,-963.0,0.666,0.167,0.667,-0.289
162360,-10634.0,-1354.0,1372.0,-46.0,644.0,-863.0,0.66,0.164,0.672,-0.293
162382,-9956.0,-1666.0,1840.0,-152.0,548.0,-810.0,0.654,0.159,0.677,-0.297
162394,-9570.0,-1086.0,1742.0,-260.0,468.0,-829.0,0.649,0.154,0.682,-0.3
162416,-9132.0,-1554.0,1604.0,-260.0,360.0,-771.0,0.645,0.149,0.686,-0.303
162438,-8570.0,-1452.0,1860.0,-180.0,321.0,-659.0,0.641,0.145,0.689,-0.305
162450,-7998.0,-1092.0,912.0,-158.0,278.0,-517.0,0.638,0.142,0.691,-0.307
162472,-8046.0,-1402.0,538.0,-254.0,200.0,-405.0,0.636,0.139,0.694,-0.308
162484,-7682.0,-1574.0,962.0,-289.0,176.0,-360.0,0.634,0.136,0.696,-0.308
162506,-6310.0,-468.0,1308.0,-304.0,132.0,-238.0,0.633,0.133,0.698,-0.308
162518,-6706.0,-1426.0,1136.0,-416.0,25.0,25.0,0.633,0.131,0.699,-0.305
162540,-6312.0,-1160.0,820.0,-362.0,9.0,212.0,0.634,0.131,0.7,-0.302
162552,-6336.0,-1576.0,408.0,-330.0,-53.0,250.0,0.635,0.131,0.7,-0.299
162574,-6512.0,-1866.0,-260.0,-313.0,-66.0,326.0,0.637,0.131,0.7,-0.296
162596,-6662.0,-1828.0,-586.0,-514.0,-61.0,431.0,0.639,0.131,0.7,-0.29
162608,-6128.0,-1816.0,1040.0,-675.0,-112.0,513.0,0.642,0.131,0.701,-0.283
162630,-6474.0,-1798.0,1128.0,-551.0,-247.0,509.0,0.645,0.13,0.7,-0.277
162642,-6072.0,-1912.0,768.0,-456.0,-271.0,565.0,0.649,0.131,0.699,-0.271
162664,-6572.0,-2094.0,374.0,-438.0,-322.0,724.0,0.653,0.133,0.697,-0.265
162676,-6158.0,-1668.0,852.0,-518.0,-292.0,787.0,0.658,0.134,0.695,-0.257
162698,-6216.0,-1790.0,1376.0,-499.0,-305.0,821.0,0.662,0.136,0.693,-0.25
162710,-7012.0,-2952.0,-302.0,-404.0,-289.0,854.0,0.666,0.139,0.692,-0.243
162732,-6968.0,-1690.0,688.0,-92.0,-213.0,1014.0,0.67,0.144,0.689,-0.237
162754,-7754.0,-2090.0,1310.0,-164.0,-40.0,1200.0,0.673,0.151,0.687,-0.229
162766,-8138.0,-830.0,1708.0,171.0,-214.0,1061.0,0.676,0.159,0.684,-0.224
162788,-7548.0,-1704.0,1910.0,87.0,-329.0,1300.0,0.681,0.167,0.679,-0.217
162800,-7820.0,-2008.0,1004.0,274.0,-330.0,1496.0,0.685,0.178,0.674,-0.211
162822,-8156.0,-1786.0,2086.0,345.0,-300.0,1622.0,0.69,0.189,0.668,-0.204
162834,-7372.0,-70.0,1532.0,313.0,-356.0,1659.0,0.695,0.201,0.662,-0.196
162856,-7422.0,-730.0,696.0,187.0,-594.0,1519.0,0.701,0.211,0.655,-0.189
162868,-6902.0,-468.0,940.0,150.0,-726.0,1386.0,0.707,0.219,0.647,-0.182
162890,-5404.0,1028.0,1514.0,-10.0,-697.0,1116.0,0.713,0.225,0.64,-0.176
162902,-4902.0,720.0,462.0,-342.0,-703.0,951.0,0.72,0.227,0.634,-0.169
162924,-5674.0,-126.0,-390.0,-451.0,-824.0,856.0,0.727,0.228,0.627,-0.163
162946,-4192.0,740.0,-490.0,-294.0,-896.0,683.0,0.734,0.228,0.62,-0.158
162958,-3912.0,330.0,66.0,-497.0,-546.0,584.0,0.739,0.227,0.616,-0.152
162980,-4044.0,160.0,294.0,-433.0,-317.0,338.0,0.742,0.226,0.614,-0.148
162992,-4912.0,-1042.0,-84.0,-418.0,-63.0,105.0,0.743,0.224,0.613,-0.146
163014,-4754.0,-744.0,62.0,-150.0,175.0,-224.0,0.742,0.222,0.615,-0.146
163026,-4458.0,-598.0,214.0,-6.0,438.0,-532.0,0.739,0.22,0.619,-0.149
163048,-4822.0,-376.0,838.0,153.0,610.0,-728.0,0.734,0.217,0.625,-0.154
163060,-5184.0,-404.0,954.0,170.0,812.0,-876.0,0.728,0.215,0.632,-0.16
163082,-5316.0,-504.0,964.0,180.0,858.0,-924.0,0.721,0.212,0.639,-0.166
163104,-5254.0,-476.0,882.0,130.0,851.0,-1055.0,0.714,0.209,0.646,-0.172
163116,-5364.0,-640.0,860.0,226.0,886.0,-1035.0,0.706,0.206,0.654,-0.179
163138,-6114.0,-1326.0,-412.0,148.0,882.0,-1033.0,0.698,0.202,0.661,-0.186
163150,-5512.0,-38.0,902.0,162.0,842.0,-995.0,0.691,0.199,0.668,-0.192
163172,-6628.0,-1372.0,592.0,269.0,1076.0,-1205.0,0.681,0.196,0.676,-0.2
163184,-5234.0,706.0,796.0,18.0,944.0,-1208.0,0.673,0.191,0.684,-0.207
163206,-7102.0,-2120.0,44.0,-130.0,884.0,-1030.0,0.665,0.185,0.692,-0.212
163218,-6864.0,-344.0,8.0,229.0,798.0,-965.0,0.657,0.183,0.698,-0.218
163240,-7664.0,-1546.0,-296.0,93.0,651.0,-716.0,0.651,0.18,0.703,-0.223
163252,-7380.0,-590.0,450.0,335.0,626.0,-780.0,0.645,0.179,0.707,-0.229
163275,-8642.0,-1548.0,-118.0,57.0,495.0,-763.0,0.64,0.176,0.711,-0.234
163297,-8122.0,-1014.0,422.0,161.0,391.0,-852.0,0.635,0.173,0.714,-0.24
163309,-8316.0,-854.0,926.0,245.0,209.0,-714.0,0.632,0.17,0.715,-0.246
163331,-8480.0,-1858.0,-234.0,388.0,167.0,-705.0,0.628,0.169,0.716,-0.253
163343,-7526.0,-1020.0,986.0,598.0,126.0,-615.0,0.625,0.169,0.716,-0.261
163365,-8254.0,-1968.0,-892.0,503.0,107.0,-576.0,0.622,0.169,0.716,-0.268
163377,-8542.0,-988.0,-446.0,602.0,38.0,-435.0,0.619,0.17,0.715,-0.275
163399,-8422.0,-1442.0,-346.0,307.0,103.0,-421.0,0.617,0.169,0.716,-0.28
163411,-8390.0,-1396.0,608.0,253.0,79.0,-384.0,0.615,0.169,0.716,-0.284
163433,-8980.0,-1684.0,-18.0,292.0,48.0,-394.0,0.613,0.169,0.716,-0.288
163445,-9058.0,-1838.0,100.0,478.0,67.0,-282.0,0.611,0.17,0.715,-0.293
163472,-9146.0,-2118.0,156.0,513.0,111.0,-143.0,0.609,0.173,0.715,-0.298
163484,-9118.0,-1792.0,-300.0,413.0,118.0,-25.0,0.607,0.175,0.714,-0.301
163506,-9136.0,-1752.0,-282.0,246.0,75.0,76.0,0.607,0.178,0.714,-0.302
163518,-8748.0,-1194.0,200.0,294.0,71.0,92.0,0.606,0.181,0.713,-0.304
163540,-8802.0,-1878.0,356.0,315.0,33.0,140.0,0.606,0.184,0.712,-0.305
163552,-9028.0,-2052.0,-618.0,274.0,2.0,200.0,0.606,0.187,0.71,-0.306
163574,-8852.0,-1494.0,282.0,259.0,-91.0,211.0,0.606,0.19,0.709,-0.307
163586,-8792.0,-1410.0,-472.0,120.0,-126.0,210.0,0.608,0.192,0.707,-0.307
163608,-8952.0,-1678.0,-14.0,69.0,-194.0,208.0,0.609,0.193,0.705,-0.307
163620,-8608.0,-1168.0,-86.0,-26.0,-255.0,223.0,0.612,0.194,0.703,-0.306
163642,-8670.0,-1474.0,122.0,-146.0,-293.0,207.0,0.614,0.194,0.702,-0.305
163664,-8308.0,-1188.0,136.0,-286.0,-304.0,178.0,0.617,0.193,0.7,-0.303
163676,-8444.0,-916.0,-412.0,-377.0,-389.0,59.0,0.621,0.191,0.699,-0.301
163698,-8394.0,-1338.0,-282.0,-384.0,-426.0,207.0,0.625,0.189,0.697,-0.298
163710,-8412.0,-1410.0,-96.0,-362.0,-356.0,284.0,0.628,0.188,0.695,-0.295
163732,-8426.0,-896.0,-68.0,-419.0,-308.0,277.0,0.632,0.187,0.694,-0.291
163744,-8488.0,-836.0,-48.0,-436.0,-277.0,217.0,0.635,0.185,0.693,-0.288
163766,-8324.0,-706.0,218.0,-302.0,-225.0,212.0,0.637,0.184,0.692,-0.285
163778,-8660.0,-816.0,102.0,-217.0,-136.0,262.0,0.639,0.185,0.691,-0.282
163800,-8904.0,-644.0,-462.0,-201.0,-88.0,294.0,0.641,0.185,0.691,-0.279
163822,-9372.0,-802.0,-584.0,-253.0,-88.0,301.0,0.643,0.186,0.69,-0.276
163834,-9330.0,-582.0,-376.0,-240.0,-96.0,265.0,0.644,0.186,0.69,-0.274
163856,-9622.0,-952.0,-98.0,-220.0,-115.0,238.0,0.646,0.186,0.689,-0.271
163868,-10132.0,-1024.0,-72.0,-161.0,-134.0,232.0,0.648,0.186,0.688,-0.269
163890,-10620.0,-836.0,-224.0,-180.0,-187.0,227.0,0.65,0.187,0.687,-0.267
163902,-10744.0,-1480.0,806.0,-260.0,-153.0,205.0,0.651,0.186,0.686,-0.265
163924,-11132.0,-1494.0,732.0,-158.0,-156.0,106.0,0.653,0.186,0.685,-0.264
163936,-11854.0,-1864.0,870.0,-137.0,-36.0,12.0,0.653,0.185,0.686,-0.263
163958,-11850.0,-1820.0,646.0,-130.0,105.0,-84.0,0.653,0.184,0.687,-0.262
163980,-12422.0,-2566.0,614.0,-109.0,202.0,-187.0,0.651,0.183,0.688,-0.263
163992,-12290.0,-2080.0,530.0,-49.0,321.0,-304.0,0.648,0.182,0.691,-0.264
164014,-11842.0,-2262.0,646.0,-91.0,426.0,-439.0,0.644,0.18,0.694,-0.266
164026,-11736.0,-2236.0,184.0,-43.0,456.0,-548.0,0.64,0.178,0.698,-0.268
164048,-11696.0,-2718.0,256.0,17.0,484.0,-598.0,0.635,0.175,0.702,-0.271
164060,-11236.0,-2306.0,212.0,-6.0,555.0,-590.0,0.63,0.173,0.706,-0.274
164082,-10312.0,-2384.0,806.0,42.0,616.0,-481.0,0.624,0.172,0.71,-0.277
164094,-10222.0,-1702.0,592.0,60.0,539.0,-755.0,0.618,0.169,0.714,-0.281
164116,-9976.0,-2432.0,996.0,-56.0,445.0,-661.0,0.614,0.166,0.718,-0.284
164128,-9684.0,-2206.0,674.0,-44.0,407.0,-525.0,0.609,0.164,0.721,-0.287
164150,-9924.0,-2506.0,158.0,-94.0,336.0,-374.0,0.606,0.162,0.724,-0.288
164172,-10032.0,-2402.0,312.0,-66.0,320.0,-359.0,0.603,0.161,0.726,-0.289
164184,-9114.0,-1464.0,560.0,-117.0,314.0,-443.0,0.6,0.158,0.729,-0.291
164206,-8806.0,-1834.0,754.0,-46.0,237.0,-399.0,0.597,0.157,0.73,-0.293
164218,-8756.0,-2168.0,-418.0,14.0,236.0,-316.0,0.594,0.156,0.732,-0.295
164240,-8450.0,-1700.0,-320.0,97.0,226.0,-151.0,0.592,0.156,0.733,-0.296
164252,-7590.0,-1098.0,-430.0,89.0,215.0,23.0,0.59,0.158,0.734,-0.297
164274,-7244.0,-1492.0,-388.0,169.0,137.0,98.0,0.589,0.161,0.734,-0.298
164286,-7750.0,-1984.0,-656.0,205.0,116.0,227.0,0.589,0.164,0.733,-0.298
164308,-7746.0,-1362.0,-792.0,141.0,133.0,253.0,0.588,0.167,0.733,-0.298
164330,-7222.0,-930.0,-312.0,-49.0,128.0,114.0,0.588,0.169,0.734,-0.297
164342,-7380.0,-1274.0,-674.0,-38.0,-6.0,46.0,0.588,0.169,0.734,-0.297
164364,-7638.0,-2308.0,-546.0,94.0,-80.0,168.0,0.588,0.171,0.732,-0.297
164376,-7456.0,-1732.0,-998.0,117.0,-69.0,328.0,0.59,0.174,0.731,-0.296
164398,-7738.0,-1066.0,-1070.0,122.0,-210.0,390.0,0.592,0.177,0.729,-0.295
164410,-7992.0,-1978.0,-1114.0,-71.0,-243.0,458.0,0.595,0.179,0.727,-0.293
164432,-7584.0,-2022.0,-958.0,-15.0,-272.0,547.0,0.598,0.183,0.724,-0.291
164444,-7802.0,-1938.0,-1110.0,3.0,-306.0,700.0,0.602,0.187,0.721,-0.288
164466,-8660.0,-2424.0,-1844.0,154.0,-273.0,583.0,0.605,0.191,0.718,-0.286
164488,-7912.0,-996.0,-626.0,87.0,-320.0,747.0,0.608,0.196,0.715,-0.283
164500,-8682.0,-3156.0,-590.0,-158.0,-448.0,881.0,0.614,0.2,0.711,-0.278
164522,-7672.0,-1076.0,-224.0,-39.0,-431.0,961.0,0.619,0.206,0.707,-0.274
164534,-8288.0,-2396.0,-784.0,-177.0,-556.0,1013.0,0.626,0.21,0.702,-0.268
164556,-7418.0,-1268.0,-238.0,-6.0,-539.0,1110.0,0.632,0.216,0.697,-0.263
164568,-8132.0,-1480.0,-104.0,-255.0,-596.0,1200.0,0.639,0.221,0.691,-0.256
164590,-5934.0,718.0,734.0,-258.0,-572.0,1176.0,0.646,0.226,0.686,-0.248
164602,-7340.0,-1486.0,218.0,-243.0,-823.0,1236.0,0.654,0.23,0.679,-0.242
164624,-6222.0,-254.0,-170.0,-121.0,-724.0,1288.0,0.662,0.236,0.672,-0.235
164636,-5892.0,52.0,1440.0,-75.0,-842.0,1356.0,0.67,0.242,0.663,-0.228
164658,-4824.0,404.0,738.0,-264.0,-753.0,1201.0,0.678,0.247,0.656,-0.221
164680,-5038.0,-642.0,584.0,82.0,-966.0,1100.0,0.686,0.252,0.647,-0.217
164692,-4580.0,708.0,500.0,182.0,-811.0,993.0,0.692,0.258,0.639,-0.213
164714,-4760.0,-458.0,712.0,-45.0,-714.0,1004.0,0.698,0.262,0.632,-0.208
164726,-3714.0,1018.0,1042.0,-306.0,-638.0,792.0,0.704,0.264,0.627,-0.203
164748,-3962.0,-444.0,674.0,-368.0,-606.0,508.0,0.71,0.263,0.622,-0.199
164760,-4372.0,-936.0,386.0,-176.0,-388.0,224.0,0.713,0.263,0.619,-0.198
164782,-5136.0,-982.0,180.0,-34.0,-293.0,-49.0,0.714,0.262,0.617,-0.199
164794,-4298.0,-322.0,1054.0,-222.0,20.0,-302.0,0.714,0.259,0.619,-0.2
164816,-3700.0,-70.0,956.0,-259.0,167.0,-592.0,0.713,0.255,0.622,-0.202
164838,-4048.0,174.0,1208.0,-233.0,364.0,-918.0,0.709,0.249,0.627,-0.207
164850,-5220.0,-1676.0,308.0,-328.0,516.0,-971.0,0.705,0.242,0.633,-0.21
164872,-5364.0,-160.0,908.0,-420.0,625.0,-1018.0,0.7,0.235,0.64,-0.213
164884,-5294.0,-614.0,1726.0,-791.0,668.0,-998.0,0.696,0.225,0.648,-0.214
164906,-5450.0,-920.0,782.0,-585.0,619.0,-1082.0,0.691,0.216,0.655,-0.216
164918,-5650.0,-1996.0,1328.0,-413.0,1185.0,-1048.0,0.682,0.21,0.665,-0.218
164940,-5228.0,-568.0,1470.0,-348.0,874.0,-1101.0,0.675,0.203,0.674,-0.222
164952,-5586.0,-1762.0,1250.0,-339.0,953.0,-1201.0,0.667,0.196,0.682,-0.226
164974,-6348.0,-276.0,948.0,-150.0,852.0,-1168.0,0.659,0.19,0.69,-0.231
164996,-6506.0,-486.0,2266.0,-238.0,894.0,-1264.0,0.651,0.182,0.698,-0.236
165008,-5928.0,-1490.0,1342.0,-175.0,733.0,-1214.0,0.643,0.176,0.705,-0.242
165030,-8166.0,-2492.0,-662.0,46.0,566.0,-1238.0,0.637,0.169,0.71,-0.249
165042,-11564.0,-3854.0,-2376.0,139.0,372.0,-935.0,0.631,0.165,0.713,-0.255
165064,-8320.0,-480.0,422.0,269.0,421.0,-856.0,0.626,0.163,0.716,-0.262
165076,-7592.0,-894.0,696.0,-73.0,174.0,-803.0,0.623,0.158,0.718,-0.266
165098,-8224.0,-2326.0,144.0,146.0,93.0,-820.0,0.62,0.154,0.719,-0.273
165110,-9060.0,-2276.0,118.0,221.0,1.0,-670.0,0.618,0.151,0.72,-0.278
165132,-8188.0,-1604.0,-550.0,195.0,53.0,-702.0,0.615,0.148,0.72,-0.284
165144,-8140.0,-2202.0,126.0,194.0,29.0,-593.0,0.613,0.146,0.72,-0.289
165166,-9516.0,-3352.0,-648.0,104.0,-2.0,-463.0,0.612,0.144,0.721,-0.293
165188,-8162.0,-1676.0,820.0,161.0,134.0,-401.0,0.609,0.143,0.721,-0.297
165200,-7904.0,-1950.0,522.0,129.0,94.0,-450.0,0.607,0.142,0.722,-0.3
165222,-8442.0,-2732.0,72.0,266.0,2.0,-390.0,0.606,0.141,0.721,-0.305
165234,-9508.0,-3662.0,-1214.0,151.0,5.0,-167.0,0.605,0.141,0.721,-0.307
165256,-8834.0,-2734.0,-102.0,133.0,52.0,63.0,0.604,0.143,0.721,-0.308
165268,-8340.0,-1746.0,348.0,12.0,37.0,-102.0,0.604,0.143,0.721,-0.309
165290,-8268.0,-2374.0,342.0,90.0,-80.0,-31.0,0.604,0.143,0.72,-0.31
165302,-8420.0,-3304.0,-178.0,177.0,-48.0,77.0,0.604,0.145,0.719,-0.312
165324,-8500.0,-2402.0,408.0,165.0,-57.0,193.0,0.605,0.148,0.718,-0.312
165346,-8242.0,-1866.0,304.0,10.0,-85.0,130.0,0.606,0.149,0.717,-0.312
165358,-8702.0,-2874.0,-284.0,4.0,-121.0,198.0,0.607,0.15,0.716,-0.311
165380,-8366.0,-2182.0,420.0,132.0,-148.0,245.0,0.609,0.152,0.714,-0.311
165392,-8218.0,-1564.0,492.0,-77.0,-170.0,190.0,0.61,0.153,0.712,-0.31
165414,-8412.0,-2286.0,452.0,-72.0,-213.0,243.0,0.613,0.154,0.711,-0.309
165426,-8522.0,-2150.0,294.0,-111.0,-193.0,310.0,0.615,0.155,0.709,-0.307
165448,-8184.0,-2254.0,546.0,-140.0,-175.0,370.0,0.617,0.157,0.708,-0.305
165460,-8194.0,-1878.0,414.0,-116.0,-152.0,351.0,0.619,0.158,0.707,-0.303
165477,-8024.0,-2428.0,702.0,-128.0,-121.0,435.0,0.622,0.16,0.706,-0.3
165499,-8230.0,-2112.0,262.0,-73.0,-77.0,605.0,0.624,0.164,0.704,-0.296
165521,-8058.0,-1240.0,-196.0,-15.0,-56.0,728.0,0.626,0.168,0.703,-0.292
165533,-8274.0,-1518.0,-204.0,14.0,-36.0,770.0,0.628,0.174,0.701,-0.288
165555,-8088.0,-1222.0,-204.0,105.0,-58.0,772.0,0.631,0.18,0.699,-0.285
165567,-8138.0,-938.0,-276.0,143.0,-86.0,842.0,0.633,0.186,0.697,-0.281
165589,-8272.0,-800.0,-186.0,219.0,-98.0,767.0,0.635,0.192,0.694,-0.278
165601,-8468.0,-886.0,-86.0,187.0,-73.0,711.0,0.637,0.198,0.692,-0.275
165623,-8410.0,-674.0,-786.0,232.0,-101.0,668.0,0.639,0.204,0.69,-0.273
165635,-8786.0,-578.0,-874.0,387.0,-172.0,586.0,0.641,0.209,0.686,-0.272
165657,-8930.0,-706.0,16.0,488.0,-156.0,576.0,0.642,0.216,0.683,-0.272
165679,-8678.0,-320.0,242.0,467.0,-161.0,562.0,0.644,0.222,0.68,-0.272
165691,-9650.0,-838.0,-24.0,435.0,-287.0,525.0,0.646,0.227,0.676,-0.273
165713,-10324.0,-658.0,-298.0,432.0,-342.0,464.0,0.649,0.232,0.672,-0.273
165725,-10590.0,-438.0,572.0,346.0,-270.0,349.0,0.65,0.235,0.668,-0.274
165747,-10464.0,-398.0,1156.0,277.0,-223.0,209.0,0.652,0.238,0.666,-0.275
165759,-11434.0,-442.0,1398.0,224.0,-217.0,165.0,0.653,0.239,0.664,-0.276
165781,-11852.0,-178.0,1184.0,116.0,-123.0,157.0,0.654,0.241,0.662,-0.276
165793,-12494.0,-210.0,858.0,-51.0,-25.0,84.0,0.654,0.241,0.662,-0.275
165815,-12830.0,-578.0,518.0,-70.0,76.0,-87.0,0.654,0.24,0.663,-0.275
165827,-12922.0,-720.0,598.0,26.0,227.0,-279.0,0.652,0.239,0.665,-0.276
165849,-12742.0,-690.0,508.0,54.0,397.0,-407.0,0.648,0.238,0.668,-0.278
165871,-12206.0,-446.0,570.0,120.0,499.0,-532.0,0.643,0.237,0.672,-0.281
165883,-11952.0,-1012.0,496.0,104.0,580.0,-592.0,0.638,0.235,0.676,-0.284
165905,-11514.0,-964.0,282.0,114.0,639.0,-629.0,0.632,0.234,0.681,-0.287
165917,-10948.0,-990.0,316.0,70.0,651.0,-702.0,0.626,0.232,0.686,-0.291
165939,-10444.0,-1204.0,360.0,19.0,616.0,-742.0,0.619,0.229,0.691,-0.294
165951,-10086.0,-1202.0,214.0,-32.0,576.0,-690.0,0.614,0.226,0.696,-0.296
165973,-9654.0,-1024.0,204.0,-141.0,541.0,-641.0,0.609,0.223,0.701,-0.298
165985,-9398.0,-1174.0,-62.0,-218.0,488.0,-574.0,0.604,0.219,0.705,-0.299
166007,-9030.0,-1100.0,-48.0,-202.0,426.0,-540.0,0.6,0.216,0.709,-0.3
166029,-8738.0,-994.0,292.0,-287.0,410.0,-485.0,0.597,0.213,0.713,-0.301
166041,-8154.0,-656.0,-108.0,-281.0,320.0,-446.0,0.594,0.209,0.716,-0.301
166063,-7906.0,-1062.0,102.0,-370.0,325.0,-431.0,0.591,0.206,0.719,-0.3
166075,-7918.0,-1098.0,-524.0,-289.0,209.0,-246.0,0.59,0.204,0.722,-0.3
166097,-8094.0,-1398.0,156.0,-383.0,262.0,-44.0,0.589,0.202,0.724,-0.297
166109,-7522.0,-748.0,-932.0,-417.0,246.0,-24.0,0.588,0.201,0.726,-0.294
166131,-7360.0,-640.0,-238.0,-340.0,230.0,-33.0,0.587,0.2,0.728,-0.292
166143,-7708.0,-1252.0,-596.0,-282.0,263.0,88.0,0.586,0.2,0.73,-0.289
166165,-7428.0,-1164.0,-588.0,-134.0,306.0,129.0,0.584,0.202,0.732,-0.288
166187,-7486.0,-1138.0,-782.0,-101.0,326.0,104.0,0.582,0.203,0.733,-0.286
166199,-7428.0,-568.0,-1158.0,29.0,226.0,96.0,0.581,0.205,0.734,-0.285
166221,-7696.0,-1574.0,-274.0,36.0,209.0,160.0,0.58,0.207,0.735,-0.285
166233,-7298.0,-1196.0,-416.0,-14.0,231.0,268.0,0.579,0.21,0.735,-0.283
166255,-7592.0,-1094.0,-874.0,-78.0,125.0,174.0,0.578,0.212,0.736,-0.282
166267,-8064.0,-1554.0,-1310.0,40.0,6.0,163.0,0.579,0.213,0.735,-0.282
166289,-7788.0,-1548.0,-362.0,34.0,49.0,254.0,0.579,0.216,0.734,-0.281
166301,-7128.0,-1044.0,-166.0,-146.0,2.0,286.0,0.58,0.217,0.734,-0.279
166323,-7800.0,-1914.0,-950.0,-113.0,-140.0,397.0,0.582,0.219,0.733,-0.276
166335,-7378.0,-1256.0,-458.0,-52.0,-111.0,491.0,0.584,0.222,0.731,-0.274
166357,-7610.0,-1284.0,-874.0,200.0,-4.0,532.0,0.585,0.228,0.729,-0.273
166379,-7110.0,-1030.0,-156.0,-8.0,-120.0,480.0,0.587,0.231,0.727,-0.271
166391,-7326.0,-2244.0,-812.0,58.0,-106.0,536.0,0.588,0.235,0.725,-0.269
166413,-7974.0,-1088.0,-1066.0,197.0,-144.0,509.0,0.59,0.239,0.723,-0.268
166425,-7006.0,-632.0,-254.0,151.0,-196.0,519.0,0.592,0.243,0.72,-0.267
166447,-7128.0,-2198.0,-544.0,85.0,-255.0,502.0,0.595,0.247,0.717,-0.266
166459,-8742.0,-1806.0,-1104.0,303.0,-397.0,552.0,0.598,0.251,0.713,-0.267
166481,-7556.0,-182.0,-832.0,279.0,-362.0,540.0,0.601,0.256,0.709,-0.266
166493,-6120.0,-938.0,864.0,103.0,-481.0,510.0,0.605,0.259,0.704,-0.266
166515,-7512.0,-2190.0,-984.0,62.0,-616.0,727.0,0.611,0.262,0.699,-0.264
166537,-7288.0,212.0,-1066.0,356.0,-691.0,834.0,0.616,0.268,0.692,-0.263
166549,-7650.0,-1024.0,-386.0,260.0,-727.0,924.0,0.622,0.274,0.685,-0.262
166571,-7482.0,-1006.0,2.0,130.0,-790.0,910.0,0.629,0.279,0.677,-0.26
166583,-5806.0,178.0,522.0,33.0,-860.0,848.0,0.636,0.282,0.67,-0.257
166605,-4820.0,-404.0,708.0,79.0,-982.0,790.0,0.644,0.285,0.662,-0.256
166617,-4632.0,-708.0,906.0,412.0,-982.0,751.0,0.651,0.29,0.653,-0.256
166639,-5172.0,-1140.0,560.0,433.0,-846.0,642.0,0.656,0.295,0.645,-0.258
166651,-5234.0,-1128.0,-120.0,302.0,-644.0,382.0,0.66,0.298,0.639,-0.259
166673,-4838.0,-454.0,-174.0,49.0,-440.0,129.0,0.663,0.298,0.636,-0.26
166685,-4450.0,-958.0,-374.0,-64.0,-298.0,-208.0,0.664,0.295,0.635,-0.262
166708,-3904.0,-816.0,-642.0,-121.0,-43.0,-552.0,0.664,0.292,0.636,-0.265
166720,-2564.0,-148.0,80.0,-123.0,250.0,-888.0,0.66,0.286,0.64,-0.269
166743,-992.0,268.0,1554.0,-139.0,603.0,-1219.0,0.654,0.28,0.647,-0.274
166765,-2142.0,-1852.0,1596.0,-82.0,802.0,-1371.0,0.645,0.273,0.656,-0.28
166777,-2864.0,-1282.0,1372.0,136.0,1044.0,-1425.0,0.635,0.268,0.665,-0.287
166799,-4848.0,-1382.0,-432.0,-80.0,1117.0,-1446.0,0.624,0.262,0.676,-0.293
166811,-5498.0,-1374.0,-836.0,-91.0,1004.0,-1318.0,0.614,0.256,0.685,-0.297
166833,-7320.0,-1546.0,994.0,108.0,840.0,-1648.0,0.604,0.249,0.693,-0.306
166845,-7394.0,-2580.0,676.0,-312.0,631.0,-1424.0,0.596,0.24,0.7,-0.311
166867,-8020.0,-4056.0,-740.0,117.0,547.0,-1281.0,0.589,0.234,0.706,-0.318
166879,-8566.0,-2128.0,-156.0,223.0,410.0,-1031.0,0.582,0.23,0.709,-0.324
166901,-7948.0,-2254.0,-10.0,39.0,304.0,-840.0,0.578,0.225,0.712,-0.329
166913,-7814.0,-2130.0,-748.0,139.0,144.0,-756.0,0.574,0.221,0.714,-0.334
166935,-7840.0,-2560.0,216.0,138.0,20.0,-606.0,0.572,0.218,0.715,-0.338
166957,-7442.0,-2556.0,734.0,309.0,-52.0,-617.0,0.569,0.216,0.715,-0.344
166969,-7532.0,-2202.0,1068.0,507.0,-164.0,-495.0,0.568,0.215,0.713,-0.351
166991,-8328.0,-1870.0,-1244.0,536.0,-237.0,-354.0,0.567,0.215,0.71,-0.357
167003,-8646.0,-1856.0,-478.0,414.0,-268.0,-130.0,0.568,0.216,0.708,-0.361
167025,-8316.0,-1684.0,-782.0,238.0,-287.0,-188.0,0.568,0.215,0.706,-0.364
167037,-8274.0,-1636.0,220.0,131.0,-234.0,-216.0,0.569,0.214,0.704,-0.367
167059,-8670.0,-2890.0,466.0,11.0,-133.0,-175.0,0.569,0.212,0.704,-0.368
167071,-8412.0,-1792.0,388.0,26.0,-107.0,-219.0,0.569,0.211,0.703,-0.37
167093,-9366.0,-2800.0,-422.0,-35.0,-113.0,-213.0,0.569,0.209,0.703,-0.371
167115,-9338.0,-2944.0,-580.0,-37.0,-72.0,-109.0,0.569,0.208,0.703,-0.372
167127,-9200.0,-2700.0,818.0,-101.0,-47.0,42.0,0.57,0.208,0.703,-0.371
167149,-9052.0,-2316.0,712.0,-350.0,-74.0,149.0,0.571,0.207,0.703,-0.368
167161,-9142.0,-2410.0,-2.0,-369.0,-198.0,138.0,0.574,0.205,0.703,-0.366
167183,-8648.0,-2264.0,22.0,-270.0,-195.0,186.0,0.576,0.205,0.703,-0.364
167195,-8650.0,-2466.0,640.0,-282.0,-112.0,307.0,0.579,0.205,0.702,-0.36
167217,-9024.0,-2272.0,90.0,-452.0,-108.0,440.0,0.581,0.205,0.702,-0.356
167229,-8682.0,-1508.0,-98.0,-585.0,-151.0,394.0,0.585,0.204,0.703,-0.35
167251,-8468.0,-1902.0,368.0,-514.0,-189.0,345.0,0.588,0.203,0.702,-0.345
167273,-8446.0,-1832.0,462.0,-438.0,-206.0,391.0,0.592,0.203,0.702,-0.341
167285,-8836.0,-1674.0,4.0,-390.0,-223.0,389.0,0.595,0.203,0.701,-0.337
167307,-8914.0,-1682.0,230.0,-441.0,-279.0,382.0,0.599,0.202,0.7,-0.332
167319,-9072.0,-2134.0,-28.0,-520.0,-228.0,512.0,0.603,0.202,0.699,-0.327
167341,-9392.0,-1448.0,-310.0,-291.0,-223.0,292.0,0.606,0.202,0.698,-0.324
167353,-9378.0,-1166.0,216.0,-494.0,-255.0,206.0,0.609,0.2,0.698,-0.32
167375,-9526.0,-1914.0,126.0,-487.0,-254.0,152.0,0.612,0.197,0.697,-0.317
167387,-9478.0,-1540.0,-22.0,-411.0,-205.0,141.0,0.614,0.196,0.697,-0.314
167409,-9450.0,-1278.0,-114.0,-326.0,-168.0,134.0,0.616,0.194,0.697,-0.311
167421,-9302.0,-1344.0,-324.0,-250.0,-114.0,132.0,0.618,0.194,0.697,-0.309
167443,-9208.0,-1040.0,-494.0,-146.0,-81.0,135.0,0.619,0.194,0.696,-0.308
167465,-9058.0,-1080.0,-382.0,-49.0,-4.0,112.0,0.619,0.194,0.696,-0.307
167482,-8758.0,-1006.0,-496.0,56.0,54.0,28.0,0.619,0.195,0.696,-0.307
167494,-8794.0,-822.0,-586.0,172.0,110.0,-59.0,0.618,0.196,0.696,-0.308
167516,-8526.0,-946.0,-262.0,236.0,173.0,-126.0,0.616,0.198,0.697,-0.31
167528,-8406.0,-788.0,-194.0,298.0,209.0,-160.0,0.613,0.199,0.697,-0.313
167550,-8256.0,-678.0,56.0,350.0,249.0,-213.0,0.611,0.201,0.698,-0.316
167562,-8148.0,-1182.0,190.0,371.0,273.0,-228.0,0.607,0.202,0.699,-0.319
167584,-8754.0,-940.0,-144.0,397.0,290.0,-195.0,0.604,0.205,0.699,-0.322
167596,-9038.0,-498.0,-542.0,301.0,300.0,-208.0,0.601,0.206,0.7,-0.325
167618,-9668.0,-1836.0,68.0,92.0,243.0,-176.0,0.599,0.206,0.702,-0.326
167640,-10398.0,-3222.0,-1044.0,-104.0,108.0,-41.0,0.598,0.206,0.703,-0.326
167652,-11316.0,-4028.0,-2346.0,-200.0,-35.0,142.0,0.599,0.206,0.703,-0.324
167674,-11520.0,-3446.0,-1464.0,-98.0,-8.0,170.0,0.6,0.207,0.703,-0.323
167686,-10280.0,-3282.0,-160.0,-133.0,31.0,131.0,0.6,0.207,0.703,-0.321
167708,-10848.0,-3188.0,-130.0,-64.0,14.0,138.0,0.6,0.208,0.703,-0.32
167720,-11324.0,-2896.0,-592.0,12.0,75.0,177.0,0.6,0.209,0.703,-0.319
167742,-11272.0,-3052.0,-268.0,113.0,224.0,116.0,0.599,0.212,0.704,-0.319
167754,-11038.0,-2478.0,-134.0,112.0,325.0,46.0,0.596,0.214,0.705,-0.319
167776,-11186.0,-2418.0,-422.0,178.0,492.0,-387.0,0.592,0.214,0.708,-0.321
167798,-11012.0,-2346.0,-268.0,6.0,343.0,-317.0,0.588,0.213,0.71,-0.323
167810,-10746.0,-2166.0,-74.0,118.0,379.0,-416.0,0.584,0.212,0.713,-0.325
167832,-10524.0,-2052.0,-206.0,77.0,285.0,-401.0,0.581,0.211,0.715,-0.327
167844,-9892.0,-2096.0,-106.0,91.0,260.0,-453.0,0.577,0.209,0.717,-0.33
167866,-10172.0,-2080.0,-462.0,189.0,187.0,-388.0,0.574,0.209,0.718,-0.333
167878,-9360.0,-1640.0,132.0,225.0,224.0,-426.0,0.571,0.208,0.719,-0.337
167900,-8958.0,-1624.0,176.0,117.0,196.0,-440.0,0.568,0.206,0.721,-0.34
167912,-8472.0,-1882.0,130.0,74.0,194.0,-346.0,0.566,0.205,0.722,-0.342
167934,-8080.0,-1120.0,-274.0,71.0,145.0,-358.0,0.563,0.204,0.723,-0.344
167956,-7762.0,-1430.0,-34.0,-6.0,55.0,-282.0,0.562,0.203,0.723,-0.346
167968,-7512.0,-2238.0,-92.0,-61.0,21.0,-61.0,0.562,0.202,0.724,-0.346
167990,-8014.0,-2064.0,-436.0,-2.0,-49.0,74.0,0.563,0.203,0.723,-0.346
168002,-7290.0,-1638.0,-38.0,21.0,-5.0,74.0,0.563,0.204,0.723,-0.346
168024,-6750.0,-1934.0,124.0,-57.0,13.0,144.0,0.563,0.205,0.722,-0.345
168036,-7066.0,-1764.0,-634.0,4.0,-36.0,278.0,0.564,0.207,0.722,-0.344
168058,-8080.0,-2980.0,-144.0,41.0,-60.0,421.0,0.566,0.21,0.72,-0.342
168070,-6640.0,-980.0,222.0,-107.0,-4.0,397.0,0.567,0.212,0.72,-0.34
168092,-6758.0,-1760.0,-108.0,-270.0,-179.0,388.0,0.57,0.213,0.719,-0.336
168104,-7488.0,-2320.0,-722.0,-129.0,-299.0,588.0,0.574,0.215,0.716,-0.333
168126,-8238.0,-2698.0,-764.0,-83.0,-289.0,738.0,0.578,0.219,0.713,-0.33
168148,-6772.0,-908.0,440.0,-140.0,-244.0,712.0,0.582,0.223,0.711,-0.325
168160,-6792.0,-1406.0,-56.0,-395.0,-444.0,632.0,0.588,0.223,0.708,-0.32
168182,-7658.0,-1962.0,-360.0,-215.0,-638.0,734.0,0.595,0.225,0.704,-0.317
168194,-7980.0,-2116.0,-264.0,-135.0,-612.0,849.0,0.601,0.228,0.699,-0.313
168216,-6896.0,-598.0,-424.0,-107.0,-460.0,825.0,0.607,0.232,0.695,-0.308
168228,-7502.0,-590.0,82.0,-105.0,-659.0,680.0,0.613,0.234,0.69,-0.305
168250,-7322.0,-1246.0,130.0,-257.0,-689.0,683.0,0.62,0.235,0.685,-0.301
168262,-8106.0,-1620.0,-302.0,-109.0,-778.0,776.0,0.628,0.237,0.679,-0.298
168284,-8124.0,-412.0,502.0,-238.0,-783.0,922.0,0.636,0.239,0.673,-0.293
168306,-7932.0,-406.0,110.0,-415.0,-955.0,847.0,0.645,0.24,0.666,-0.288
168318,-8824.0,-1876.0,758.0,-527.0,-1022.0,876.0,0.655,0.239,0.66,-0.281
168340,-7560.0,-230.0,1002.0,-766.0,-988.0,868.0,0.665,0.237,0.653,-0.274
168352,-7928.0,-1100.0,990.0,-947.0,-1147.0,903.0,0.676,0.234,0.647,-0.265
168374,-6846.0,-1002.0,1128.0,-948.0,-1178.0,999.0,0.688,0.231,0.639,-0.256
168386,-6024.0,-1090.0,1552.0,-727.0,-1179.0,1139.0,0.699,0.23,0.631,-0.247
168408,-5158.0,-640.0,1698.0,-548.0,-1157.0,1230.0,0.709,0.232,0.622,-0.238
168420,-5830.0,-1236.0,528.0,-532.0,-1035.0,1150.0,0.719,0.232,0.613,-0.229
168442,-4710.0,-418.0,922.0,-268.0,-813.0,1037.0,0.726,0.235,0.606,-0.223
168464,-4400.0,-554.0,552.0,-117.0,-611.0,831.0,0.732,0.238,0.601,-0.218
168476,-4108.0,-966.0,1030.0,283.0,-456.0,511.0,0.735,0.241,0.596,-0.217
168498,-4010.0,-646.0,418.0,304.0,14.0,306.0,0.735,0.245,0.594,-0.217
168510,-3288.0,-606.0,248.0,496.0,259.0,-50.0,0.732,0.249,0.595,-0.219
168532,-3726.0,-842.0,746.0,571.0,467.0,-297.0,0.727,0.252,0.598,-0.223
168544,-3528.0,162.0,1034.0,562.0,661.0,-529.0,0.721,0.255,0.602,-0.229
168566,-3312.0,110.0,1458.0,323.0,740.0,-851.0,0.714,0.254,0.609,-0.234
168578,-2840.0,-380.0,1796.0,114.0,850.0,-1149.0,0.707,0.25,0.617,-0.241
168600,-3206.0,-1042.0,1138.0,9.0,1228.0,-1147.0,0.697,0.246,0.627,-0.246
168612,-4662.0,278.0,936.0,-78.0,994.0,-1385.0,0.688,0.24,0.637,-0.252
168634,-4898.0,52.0,1414.0,-380.0,955.0,-1500.0,0.679,0.231,0.647,-0.257
168656,-4806.0,-1688.0,576.0,-346.0,868.0,-1411.0,0.671,0.222,0.657,-0.262
168668,-8846.0,-3792.0,-1754.0,-345.0,770.0,-1083.0,0.665,0.215,0.665,-0.265
168690,-7312.0,176.0,2208.0,-48.0,787.0,-1032.0,0.658,0.21,0.671,-0.27
168702,-6288.0,-1256.0,2868.0,-437.0,533.0,-984.0,0.653,0.203,0.677,-0.272
168724,-7774.0,-2926.0,60.0,111.0,382.0,-932.0,0.648,0.198,0.681,-0.278
168736,-9864.0,-2932.0,-1574.0,273.0,298.0,-524.0,0.644,0.197,0.683,-0.282
168758,-8050.0,-922.0,986.0,338.0,298.0,-389.0,0.64,0.198,0.685,-0.286
168770,-8362.0,-1170.0,850.0,255.0,88.0,-408.0,0.639,0.197,0.685,-0.29
168792,-8372.0,-404.0,262.0,465.0,60.0,-486.0,0.636,0.197,0.685,-0.296
168814,-8772.0,-2152.0,558.0,338.0,-10.0,-305.0,0.635,0.196,0.685,-0.3
168826,-8184.0,-1358.0,470.0,432.0,84.0,-361.0,0.632,0.197,0.685,-0.304
168848,-8424.0,-728.0,568.0,308.0,85.0,-318.0,0.631,0.197,0.685,-0.308
168860,-8592.0,-206.0,396.0,326.0,79.0,-476.0,0.628,0.196,0.685,-0.312
168882,-8524.0,-2658.0,1424.0,235.0,127.0,-507.0,0.626,0.195,0.686,-0.317
168894,-8062.0,-1340.0,696.0,474.0,102.0,-629.0,0.622,0.194,0.686,-0.323
168916,-9342.0,-2568.0,-60.0,540.0,49.0,-596.0,0.619,0.193,0.686,-0.33
168928,-8348.0,-1044.0,874.0,747.0,145.0,-450.0,0.616,0.195,0.685,-0.337
168950,-8370.0,-1736.0,1476.0,667.0,127.0,-301.0,0.613,0.197,0.684,-0.343
168962,-8382.0,-1632.0,1258.0,775.0,63.0,-136.0,0.611,0.201,0.682,-0.348
168985,-8656.0,-1640.0,-366.0,733.0,33.0,-78.0,0.609,0.204,0.68,-0.353
168997,-9036.0,-2580.0,366.0,732.0,63.0,80.0,0.608,0.209,0.678,-0.357
169020,-8884.0,-2324.0,536.0,638.0,51.0,194.0,0.607,0.214,0.675,-0.36
169042,-8622.0,-1366.0,1218.0,454.0,11.0,358.0,0.608,0.219,0.673,-0.36
169054,-8606.0,-1210.0,1140.0,335.0,-42.0,325.0,0.609,0.222,0.671,-0.361
169076,-8946.0,-2704.0,754.0,267.0,-89.0,463.0,0.61,0.226,0.669,-0.359
169088,-9034.0,-1536.0,810.0,271.0,-96.0,588.0,0.612,0.231,0.666,-0.358
169110,-9342.0,-1468.0,864.0,142.0,-163.0,527.0,0.615,0.234,0.664,-0.356
169122,-8992.0,-1956.0,1010.0,160.0,-95.0,494.0,0.617,0.237,0.662,-0.354
169144,-8680.0,-394.0,814.0,5.0,-199.0,517.0,0.62,0.24,0.659,-0.351
169156,-8606.0,-392.0,900.0,-70.0,-219.0,610.0,0.624,0.242,0.657,-0.347
169178,-8664.0,-1010.0,958.0,-109.0,-130.0,563.0,0.627,0.244,0.655,-0.343
169190,-8774.0,-442.0,492.0,-147.0,-74.0,464.0,0.63,0.246,0.654,-0.339
169212,-8878.0,-320.0,328.0,-177.0,-39.0,394.0,0.632,0.247,0.653,-0.336
169234,-8860.0,-36.0,154.0,-63.0,-22.0,371.0,0.634,0.249,0.653,-0.333
169246,-9004.0,-286.0,632.0,-105.0,44.0,427.0,0.635,0.25,0.652,-0.329
169268,-8888.0,-370.0,646.0,-128.0,72.0,441.0,0.637,0.252,0.652,-0.325
169280,-9046.0,-124.0,544.0,-119.0,77.0,384.0,0.638,0.254,0.652,-0.321
169302,-9604.0,-616.0,362.0,-165.0,83.0,385.0,0.639,0.255,0.653,-0.318
169314,-9556.0,-190.0,-118.0,-102.0,79.0,361.0,0.64,0.256,0.653,-0.314
169336,-10010.0,-532.0,190.0,-35.0,26.0,324.0,0.641,0.258,0.652,-0.312
169348,-10072.0,-510.0,278.0,28.0,5.0,348.0,0.642,0.26,0.651,-0.309
169370,-10412.0,-424.0,184.0,24.0,-14.0,348.0,0.643,0.262,0.65,-0.308
169392,-10708.0,-594.0,378.0,24.0,-94.0,275.0,0.645,0.263,0.649,-0.306
169404,-11126.0,-756.0,270.0,2.0,-158.0,184.0,0.646,0.263,0.648,-0.305
169426,-11552.0,-900.0,138.0,-54.0,-176.0,119.0,0.648,0.263,0.647,-0.303
169438,-11738.0,-676.0,280.0,-161.0,-41.0,35.0,0.649,0.261,0.647,-0.302
169460,-11694.0,-650.0,422.0,-265.0,83.0,-86.0,0.649,0.259,0.649,-0.3
169472,-12098.0,-1122.0,604.0,-306.0,271.0,-208.0,0.648,0.256,0.652,-0.298
169489,-11966.0,-742.0,1172.0,-210.0,416.0,-336.0,0.645,0.253,0.656,-0.298
169511,-11890.0,-1360.0,796.0,-257.0,496.0,-449.0,0.642,0.25,0.661,-0.297
169523,-11830.0,-1422.0,152.0,65.0,874.0,-638.0,0.634,0.249,0.668,-0.299
169545,-11694.0,-240.0,-42.0,-105.0,673.0,-737.0,0.629,0.245,0.674,-0.301
169567,-11202.0,-1256.0,676.0,-228.0,583.0,-739.0,0.623,0.24,0.68,-0.302
169579,-10428.0,-726.0,670.0,-220.0,553.0,-820.0,0.618,0.235,0.685,-0.304
169601,-10086.0,-950.0,656.0,-225.0,580.0,-848.0,0.613,0.23,0.691,-0.306
169613,-10322.0,-1726.0,-30.0,-211.0,589.0,-712.0,0.607,0.226,0.697,-0.307
169635,-9180.0,-1380.0,1472.0,-18.0,368.0,-568.0,0.603,0.223,0.7,-0.31
169647,-9214.0,-488.0,282.0,-97.0,145.0,-526.0,0.601,0.219,0.702,-0.312
169669,-8944.0,-1426.0,-180.0,-32.0,67.0,-574.0,0.599,0.215,0.704,-0.314
169681,-8710.0,-1058.0,-258.0,193.0,131.0,-725.0,0.596,0.212,0.706,-0.319
169703,-8004.0,-1274.0,302.0,-164.0,232.0,-297.0,0.594,0.21,0.708,-0.319
169725,-7518.0,-452.0,794.0,-52.0,91.0,-227.0,0.593,0.208,0.709,-0.32
169737,-7446.0,-1640.0,342.0,83.0,201.0,-93.0,0.592,0.208,0.71,-0.321
169759,-8184.0,-2062.0,-904.0,355.0,318.0,-37.0,0.589,0.211,0.71,-0.323
169771,-7978.0,-1878.0,-952.0,136.0,232.0,217.0,0.588,0.214,0.711,-0.322
169793,-7060.0,772.0,378.0,18.0,225.0,126.0,0.587,0.215,0.712,-0.321
169805,-7020.0,-1268.0,-322.0,-105.0,185.0,-70.0,0.585,0.215,0.713,-0.32
169827,-7162.0,-1670.0,-464.0,104.0,73.0,2.0,0.585,0.215,0.713,-0.32
169839,-6848.0,-1604.0,-578.0,110.0,57.0,129.0,0.584,0.217,0.713,-0.32
169861,-8206.0,-1636.0,-514.0,5.0,-4.0,334.0,0.586,0.219,0.713,-0.318
169873,-7222.0,-1292.0,62.0,-188.0,4.0,489.0,0.587,0.221,0.712,-0.314
169895,-7584.0,-1724.0,-518.0,-339.0,13.0,450.0,0.589,0.222,0.712,-0.31
169917,-6180.0,-886.0,-146.0,-166.0,264.0,417.0,0.589,0.225,0.713,-0.306
169929,-7774.0,-850.0,-234.0,-13.0,-26.0,406.0,0.591,0.227,0.712,-0.303
169951,-7636.0,-520.0,254.0,-15.0,63.0,363.0,0.592,0.23,0.712,-0.301
169963,-7692.0,-1740.0,-206.0,-145.0,62.0,387.0,0.593,0.231,0.712,-0.298
169985,-7412.0,-1798.0,-1314.0,67.0,89.0,466.0,0.593,0.235,0.711,-0.295
169997,-8816.0,-2240.0,-1098.0,-145.0,49.0,682.0,0.595,0.239,0.71,-0.29
170019,-6210.0,942.0,1028.0,-219.0,143.0,647.0,0.597,0.242,0.71,-0.285
170031,-8816.0,-1492.0,-574.0,-229.0,-125.0,594.0,0.6,0.244,0.709,-0.28
170053,-7294.0,-462.0,-496.0,188.0,-125.0,483.0,0.601,0.248,0.706,-0.279
170075,-9330.0,-3144.0,-1474.0,-91.0,-303.0,839.0,0.606,0.252,0.703,-0.274
170087,-6602.0,592.0,130.0,10.0,-216.0,828.0,0.609,0.257,0.7,-0.27
170109,-8596.0,-610.0,156.0,-205.0,-420.0,796.0,0.615,0.26,0.696,-0.265
170121,-6240.0,406.0,440.0,47.0,-395.0,746.0,0.619,0.264,0.692,-0.262
170143,-8490.0,-2162.0,-492.0,-50.0,-643.0,905.0,0.625,0.267,0.686,-0.258
170155,-7458.0,-516.0,-828.0,104.0,-627.0,968.0,0.631,0.272,0.68,-0.255
170177,-8646.0,-1610.0,-1326.0,-124.0,-694.0,1150.0,0.639,0.277,0.673,-0.249
170189,-6076.0,1020.0,1468.0,-266.0,-583.0,1124.0,0.646,0.281,0.668,-0.242
170212,-5224.0,686.0,1084.0,-228.0,-624.0,753.0,0.652,0.283,0.662,-0.238
170224,-6676.0,-1030.0,306.0,164.0,-763.0,646.0,0.657,0.286,0.656,-0.237
170246,-6236.0,-1518.0,-194.0,368.0,-697.0,788.0,0.662,0.291,0.648,-0.236
170268,-5350.0,-164.0,-488.0,272.0,-603.0,892.0,0.667,0.297,0.642,-0.234
170280,-4788.0,-40.0,208.0,242.0,-539.0,627.0,0.671,0.301,0.636,-0.233
170302,-4164.0,282.0,-12.0,347.0,-341.0,251.0,0.673,0.304,0.633,-0.234
170314,-3730.0,250.0,246.0,264.0,-61.0,-56.0,0.672,0.305,0.632,-0.236
170336,-3738.0,-1488.0,74.0,160.0,71.0,-299.0,0.671,0.304,0.633,-0.239
170348,-3786.0,-814.0,-204.0,148.0,337.0,-597.0,0.667,0.303,0.636,-0.242
170370,-4466.0,-1786.0,142.0,-104.0,488.0,-666.0,0.663,0.299,0.641,-0.245
170382,-3684.0,-68.0,302.0,-225.0,611.0,-907.0,0.658,0.294,0.648,-0.247
170404,-3496.0,154.0,660.0,50.0,918.0,-1367.0,0.649,0.288,0.657,-0.253
170426,-4812.0,-1436.0,-1008.0,-303.0,856.0,-1524.0,0.641,0.279,0.667,-0.258
170438,-4662.0,-1376.0,-526.0,-161.0,816.0,-1550.0,0.632,0.27,0.676,-0.265
170460,-5458.0,-1012.0,186.0,-426.0,809.0,-1557.0,0.624,0.26,0.686,-0.269
170472,-5008.0,-36.0,14.0,-519.0,901.0,-1686.0,0.615,0.248,0.696,-0.273
170494,-7578.0,-2282.0,-36.0,-300.0,544.0,-1374.0,0.609,0.238,0.703,-0.278
170506,-6382.0,-1572.0,294.0,-170.0,584.0,-1462.0,0.602,0.229,0.71,-0.284
170528,-6868.0,-2326.0,-316.0,48.0,327.0,-1294.0,0.596,0.222,0.715,-0.291
170540,-8732.0,-3704.0,-2188.0,129.0,254.0,-1029.0,0.591,0.217,0.718,-0.297
170562,-9582.0,-2152.0,-1470.0,-259.0,199.0,-597.0,0.589,0.212,0.721,-0.298
170574,-8312.0,-1896.0,752.0,-497.0,100.0,-635.0,0.587,0.205,0.724,-0.298
170596,-7254.0,-1626.0,1144.0,-259.0,21.0,-773.0,0.586,0.198,0.726,-0.301
170618,-7818.0,-1372.0,-52.0,216.0,-45.0,-677.0,0.584,0.195,0.726,-0.306
170630,-9192.0,-3288.0,-1234.0,220.0,-100.0,-300.0,0.584,0.194,0.725,-0.31
170652,-7756.0,-2752.0,-1390.0,2.0,-5.0,-208.0,0.583,0.192,0.726,-0.311
170664,-9236.0,-3044.0,-918.0,-279.0,-105.0,-185.0,0.583,0.189,0.726,-0.31
170686,-7330.0,374.0,950.0,-379.0,0.0,-341.0,0.583,0.185,0.728,-0.31
170698,-7012.0,-612.0,1210.0,-355.0,16.0,-588.0,0.582,0.179,0.73,-0.31
170720,-8218.0,-3824.0,-1172.0,-37.0,-20.0,-627.0,0.58,0.175,0.731,-0.314
170732,-8850.0,-2626.0,-936.0,244.0,-69.0,-271.0,0.58,0.175,0.73,-0.317
