timeMs,ax,ay,az,gx,gy,gz,q0,q1,q2,q3
4591,-3324.0,4542.0,5948.0,20.0,14.0,32.0,0.976,0.165,0.14,0.019
4603,-3306.0,4510.0,5946.0,-15.0,-1.0,28.0,0.976,0.165,0.141,0.019
4625,-3276.0,4380.0,5998.0,-28.0,2.0,2.0,0.976,0.166,0.141,0.019
4637,-3340.0,4428.0,6040.0,10.0,4.0,-51.0,0.976,0.166,0.141,0.019
4659,-3246.0,4572.0,5996.0,10.0,3.0,-31.0,0.976,0.167,0.142,0.018
4671,-3302.0,4510.0,6012.0,-16.0,-5.0,26.0,0.976,0.167,0.142,0.018
4693,-3458.0,4508.0,5994.0,-31.0,-1.0,52.0,0.975,0.167,0.142,0.019
4715,-3406.0,4486.0,5974.0,-50.0,-14.0,-28.0,0.975,0.167,0.142,0.018
4727,-3382.0,4520.0,6022.0,-34.0,-8.0,-44.0,0.975,0.167,0.142,0.018
4749,-3436.0,4470.0,6020.0,-17.0,-7.0,-40.0,0.975,0.168,0.143,0.017
4761,-3306.0,4446.0,5996.0,2.0,-1.0,5.0,0.975,0.168,0.143,0.017
4783,-3376.0,4410.0,5986.0,1.0,9.0,43.0,0.975,0.169,0.143,0.017
4795,-3290.0,4434.0,5950.0,-3.0,4.0,9.0,0.975,0.169,0.144,0.017
4817,-3226.0,4580.0,5956.0,-17.0,6.0,-1.0,0.975,0.169,0.144,0.017
4829,-3358.0,4536.0,6088.0,-22.0,1.0,-35.0,0.975,0.17,0.144,0.017
4851,-3230.0,4408.0,6046.0,-6.0,7.0,-14.0,0.975,0.17,0.145,0.016
4873,-3288.0,4490.0,6018.0,4.0,9.0,19.0,0.974,0.171,0.145,0.016
4885,-3368.0,4454.0,5954.0,-4.0,6.0,22.0,0.974,0.171,0.145,0.016
4907,-3362.0,4408.0,5968.0,-14.0,-3.0,9.0,0.974,0.171,0.145,0.016
4919,-3330.0,4510.0,6020.0,-17.0,5.0,-11.0,0.974,0.172,0.146,0.016
4941,-3382.0,4438.0,6008.0,-25.0,6.0,0.0,0.974,0.172,0.146,0.016
4953,-3308.0,4506.0,6084.0,-6.0,10.0,15.0,0.974,0.172,0.146,0.016
4975,-3344.0,4428.0,6012.0,6.0,10.0,10.0,0.974,0.173,0.147,0.016
4987,-3336.0,4448.0,5972.0,10.0,7.0,10.0,0.974,0.174,0.147,0.016
5009,-3320.0,4522.0,5930.0,0.0,14.0,9.0,0.974,0.174,0.147,0.016
5031,-3328.0,4492.0,6048.0,-9.0,8.0,13.0,0.973,0.174,0.148,0.015
5043,-3282.0,4458.0,6060.0,-2.0,20.0,8.0,0.973,0.175,0.148,0.015
5065,-3280.0,4432.0,6028.0,21.0,21.0,7.0,0.973,0.176,0.149,0.015
5077,-3350.0,4564.0,6022.0,28.0,15.0,5.0,0.973,0.176,0.149,0.015
5099,-3364.0,4490.0,5978.0,24.0,7.0,10.0,0.973,0.177,0.149,0.015
5111,-3322.0,4572.0,6060.0,16.0,2.0,12.0,0.973,0.178,0.15,0.015
5133,-3444.0,4690.0,6130.0,47.0,-8.0,9.0,0.972,0.179,0.15,0.015
5145,-3412.0,4378.0,6282.0,172.0,-77.0,-50.0,0.972,0.18,0.149,0.014
5167,-3262.0,4500.0,6370.0,376.0,-134.0,-132.0,0.972,0.184,0.149,0.012
5179,-3164.0,4838.0,6344.0,445.0,-113.0,-154.0,0.971,0.188,0.148,0.009
5201,-3114.0,4766.0,6362.0,403.0,-76.0,-139.0,0.97,0.192,0.148,0.007
5223,-3200.0,4864.0,5518.0,429.0,-112.0,-124.0,0.969,0.197,0.147,0.005
5235,-3256.0,5076.0,5714.0,274.0,-44.0,-129.0,0.969,0.199,0.147,0.003
5257,-3300.0,4460.0,5670.0,237.0,-77.0,-154.0,0.968,0.202,0.147,0.001
5269,-3128.0,4612.0,5872.0,124.0,-17.0,-126.0,0.968,0.203,0.148,-0.0
5291,-3394.0,4252.0,5932.0,10.0,-15.0,-41.0,0.968,0.203,0.148,-0.001
5303,-3546.0,4272.0,5764.0,-2.0,-12.0,-8.0,0.968,0.204,0.148,-0.001
5325,-3528.0,4704.0,5636.0,31.0,-69.0,28.0,0.968,0.205,0.148,-0.002
5337,-3540.0,4710.0,5850.0,-2.0,-45.0,2.0,0.968,0.205,0.147,-0.002
5359,-3292.0,4978.0,5724.0,-156.0,-14.0,33.0,0.968,0.204,0.147,-0.002
5381,-3490.0,4586.0,5638.0,-266.0,-22.0,63.0,0.968,0.202,0.147,-0.001
5393,-3484.0,4342.0,5742.0,-240.0,-18.0,73.0,0.969,0.201,0.147,-0.0
5415,-3432.0,4622.0,5752.0,-173.0,-5.0,58.0,0.969,0.2,0.147,0.0
5427,-3260.0,4886.0,5900.0,-154.0,-25.0,60.0,0.969,0.199,0.147,0.001
5449,-3000.0,4984.0,6170.0,-139.0,-13.0,75.0,0.969,0.198,0.147,0.001
5461,-3130.0,4690.0,5920.0,-120.0,21.0,61.0,0.969,0.198,0.147,0.002
5483,-3154.0,4532.0,5752.0,-82.0,23.0,20.0,0.969,0.197,0.148,0.002
5495,-3172.0,4446.0,5368.0,-9.0,10.0,-11.0,0.969,0.198,0.148,0.002
5517,-3290.0,4146.0,5234.0,22.0,0.0,-23.0,0.969,0.198,0.148,0.001
5539,-3162.0,4316.0,5362.0,43.0,1.0,-23.0,0.969,0.199,0.149,0.001
5551,-3242.0,4498.0,5760.0,-12.0,15.0,19.0,0.969,0.199,0.149,0.0
5573,-3132.0,4736.0,6118.0,-49.0,16.0,39.0,0.968,0.199,0.149,0.001
5585,-3252.0,4722.0,6014.0,-71.0,30.0,42.0,0.968,0.199,0.15,0.001
5607,-3426.0,4472.0,5976.0,-32.0,24.0,-3.0,0.968,0.199,0.15,0.0
5619,-3478.0,4412.0,6020.0,7.0,13.0,-26.0,0.968,0.2,0.15,-0.0
5641,-3366.0,4602.0,6056.0,23.0,1.0,-13.0,0.968,0.2,0.151,-0.001
5653,-3422.0,4476.0,6066.0,-32.0,6.0,46.0,0.968,0.201,0.151,-0.001
5675,-3468.0,4408.0,6078.0,-16.0,-5.0,70.0,0.968,0.201,0.151,-0.0
5687,-3396.0,4566.0,6054.0,9.0,-20.0,40.0,0.968,0.202,0.151,-0.0
5709,-3358.0,4618.0,6032.0,-9.0,-18.0,18.0,0.968,0.202,0.151,-0.0
5731,-3238.0,4722.0,6042.0,-19.0,-32.0,3.0,0.968,0.202,0.151,-0.001
5743,-3200.0,4592.0,6024.0,-30.0,-33.0,1.0,0.968,0.202,0.15,-0.001
5765,-3116.0,4624.0,6110.0,-22.0,-35.0,-21.0,0.968,0.203,0.15,-0.002
5777,-3034.0,4648.0,6100.0,-32.0,-35.0,-11.0,0.968,0.203,0.15,-0.002
5799,-3112.0,4552.0,6128.0,-44.0,-41.0,2.0,0.968,0.203,0.15,-0.002
5811,-3106.0,4750.0,6228.0,-48.0,-48.0,-4.0,0.968,0.203,0.15,-0.003
5833,-3246.0,4802.0,6316.0,-51.0,-44.0,-10.0,0.968,0.203,0.149,-0.003
5845,-3190.0,4880.0,6450.0,-45.0,-27.0,7.0,0.968,0.203,0.149,-0.003
5867,-3158.0,5266.0,6956.0,-24.0,-12.0,32.0,0.968,0.203,0.149,-0.003
5889,-3080.0,5854.0,7048.0,-30.0,-6.0,56.0,0.968,0.202,0.149,-0.003
5901,-3234.0,6218.0,6724.0,-12.0,7.0,52.0,0.968,0.202,0.149,-0.003
5923,-3306.0,6206.0,5812.0,-28.0,65.0,16.0,0.968,0.202,0.149,-0.003
5935,-3598.0,5820.0,5388.0,-38.0,85.0,-77.0,0.968,0.203,0.15,-0.004
5957,-3602.0,5572.0,5282.0,-53.0,1.0,-241.0,0.968,0.202,0.151,-0.007
5969,-3952.0,5808.0,4344.0,75.0,-174.0,-438.0,0.967,0.203,0.151,-0.011
5991,-3710.0,5942.0,5288.0,103.0,-178.0,-723.0,0.967,0.204,0.151,-0.019
6003,-3652.0,7260.0,5382.0,-165.0,-132.0,-976.0,0.967,0.201,0.151,-0.028
6020,-4200.0,5850.0,5652.0,-241.0,-226.0,-1186.0,0.968,0.197,0.151,-0.039
6042,-4446.0,5122.0,5030.0,-48.0,-343.0,-1386.0,0.968,0.196,0.151,-0.053
6064,-4638.0,4600.0,4722.0,136.0,-494.0,-1539.0,0.967,0.195,0.15,-0.068
6076,-4728.0,3868.0,5214.0,200.0,-591.0,-1577.0,0.966,0.195,0.148,-0.084
6098,-4778.0,3180.0,5006.0,156.0,-673.0,-1496.0,0.965,0.194,0.145,-0.1
6110,-4808.0,2496.0,4868.0,49.0,-735.0,-1292.0,0.965,0.192,0.14,-0.113
6132,-4968.0,2198.0,4752.0,-112.0,-795.0,-1119.0,0.965,0.189,0.135,-0.125
6144,-4696.0,2168.0,5532.0,-189.0,-876.0,-1020.0,0.965,0.185,0.13,-0.136
6166,-3846.0,2676.0,6304.0,-309.0,-849.0,-873.0,0.965,0.18,0.124,-0.145
6178,-3852.0,2344.0,6274.0,-479.0,-791.0,-684.0,0.966,0.174,0.119,-0.153
6200,-3660.0,1882.0,6622.0,-494.0,-786.0,-532.0,0.966,0.168,0.114,-0.159
6222,-3094.0,2208.0,6344.0,-404.0,-770.0,-440.0,0.967,0.163,0.109,-0.164
6234,1232.0,502.0,7692.0,-668.0,-778.0,2816.0,0.973,0.158,0.098,-0.14
6256,-4110.0,2792.0,6142.0,-706.0,-432.0,1447.0,0.976,0.153,0.093,-0.127
6268,-2402.0,3664.0,7642.0,-769.0,-625.0,1287.0,0.979,0.146,0.086,-0.116
6290,-1692.0,2636.0,9120.0,-794.0,-382.0,955.0,0.981,0.139,0.082,-0.109
6302,-1674.0,3136.0,9584.0,-685.0,-99.0,913.0,0.983,0.134,0.081,-0.101
6324,-1512.0,2086.0,8926.0,-421.0,-5.0,823.0,0.984,0.131,0.08,-0.094
6336,-1532.0,2620.0,7982.0,-278.0,-21.0,554.0,0.984,0.129,0.079,-0.09
6358,-1242.0,2574.0,7498.0,-28.0,-24.0,482.0,0.985,0.129,0.078,-0.087
6370,-1422.0,3808.0,7250.0,-20.0,80.0,332.0,0.985,0.13,0.078,-0.085
6392,-1802.0,3640.0,7308.0,-117.0,124.0,163.0,0.985,0.129,0.079,-0.084
6414,-2218.0,3248.0,6732.0,-96.0,34.0,-53.0,0.985,0.129,0.08,-0.086
6426,-2362.0,4288.0,6252.0,11.0,-14.0,-22.0,0.984,0.13,0.08,-0.087
6448,-1478.0,2166.0,6296.0,-12.0,-92.0,73.0,0.984,0.13,0.079,-0.088
6460,-2574.0,3534.0,6732.0,-65.0,-156.0,-40.0,0.984,0.13,0.077,-0.09
6482,-2440.0,3174.0,7100.0,-108.0,-169.0,-78.0,0.984,0.129,0.076,-0.092
6494,-2802.0,3068.0,6782.0,-198.0,-143.0,-116.0,0.985,0.127,0.075,-0.094
6516,-3090.0,2576.0,6874.0,-106.0,-212.0,68.0,0.985,0.126,0.074,-0.095
6528,-2874.0,3586.0,7038.0,-146.0,-251.0,18.0,0.985,0.125,0.072,-0.096
6550,-2550.0,2592.0,7778.0,-291.0,-185.0,96.0,0.985,0.123,0.07,-0.096
6572,-2666.0,2412.0,8304.0,-329.0,-9.0,214.0,0.986,0.12,0.07,-0.095
6584,-2572.0,2762.0,8070.0,-325.0,-12.0,172.0,0.986,0.117,0.07,-0.094
6606,-2320.0,2318.0,7590.0,-210.0,-7.0,200.0,0.986,0.116,0.07,-0.093
6618,-2278.0,3218.0,7292.0,-194.0,-14.0,158.0,0.987,0.115,0.07,-0.093
6640,-2146.0,2942.0,7102.0,-245.0,-10.0,57.0,0.987,0.113,0.07,-0.093
6652,-2170.0,2904.0,6774.0,-238.0,39.0,100.0,0.987,0.111,0.071,-0.093
6674,-2226.0,2568.0,6774.0,-283.0,-27.0,58.0,0.987,0.109,0.071,-0.093
6686,-2220.0,2604.0,7212.0,-175.0,-4.0,133.0,0.987,0.108,0.071,-0.093
6708,-2354.0,2994.0,6946.0,-190.0,-55.0,129.0,0.988,0.106,0.071,-0.092
6730,-2074.0,2516.0,6730.0,-187.0,-88.0,107.0,0.988,0.105,0.07,-0.092
6742,-1840.0,2840.0,6540.0,-22.0,-212.0,89.0,0.988,0.105,0.068,-0.092
6764,-1376.0,3784.0,7432.0,-61.0,-209.0,6.0,0.988,0.104,0.066,-0.092
6776,-1832.0,3596.0,8354.0,-331.0,-64.0,-191.0,0.988,0.101,0.066,-0.095
6798,-1980.0,1976.0,8176.0,-389.0,62.0,-177.0,0.988,0.098,0.067,-0.097
6810,-2380.0,1730.0,7612.0,-235.0,57.0,-85.0,0.988,0.096,0.068,-0.098
6832,-2364.0,2116.0,7570.0,-91.0,-29.0,-21.0,0.988,0.095,0.068,-0.099
6844,-2254.0,2690.0,8010.0,-54.0,2.0,30.0,0.988,0.095,0.068,-0.1
6866,-2456.0,2680.0,7912.0,-15.0,97.0,72.0,0.988,0.095,0.069,-0.1
6878,-2548.0,2810.0,7480.0,-85.0,155.0,62.0,0.988,0.095,0.071,-0.1
6900,-2372.0,3290.0,7350.0,-118.0,125.0,24.0,0.988,0.095,0.072,-0.101
6922,-2554.0,3294.0,7808.0,-100.0,138.0,-12.0,0.988,0.095,0.073,-0.101
6934,-2706.0,3448.0,7838.0,-127.0,122.0,-65.0,0.987,0.094,0.075,-0.103
6956,-2480.0,2724.0,7566.0,-63.0,60.0,-85.0,0.987,0.094,0.076,-0.104
6968,-2210.0,2430.0,7182.0,103.0,-35.0,-53.0,0.987,0.095,0.076,-0.105
6990,-1964.0,2330.0,6668.0,174.0,-75.0,-115.0,0.987,0.097,0.075,-0.107
7002,-1664.0,2438.0,6806.0,423.0,-164.0,-186.0,0.986,0.1,0.073,-0.11
7024,-2022.0,3688.0,6886.0,409.0,-177.0,-359.0,0.985,0.104,0.071,-0.115
7036,-1978.0,3782.0,7044.0,99.0,-132.0,-483.0,0.985,0.105,0.07,-0.12
7058,-2514.0,2516.0,7374.0,-28.0,-85.0,-391.0,0.984,0.105,0.07,-0.124
7080,-2954.0,2050.0,7822.0,40.0,-153.0,-226.0,0.984,0.105,0.069,-0.127
7092,-2892.0,950.0,8296.0,214.0,-186.0,-20.0,0.984,0.107,0.068,-0.128
7114,-1870.0,2148.0,8026.0,134.0,-82.0,21.0,0.983,0.108,0.067,-0.129
7126,-1760.0,2526.0,8480.0,31.0,83.0,-108.0,0.983,0.109,0.068,-0.131
7148,-1304.0,2846.0,8326.0,190.0,68.0,-249.0,0.982,0.111,0.068,-0.133
7160,-434.0,2924.0,8298.0,355.0,109.0,-392.0,0.981,0.114,0.069,-0.138
7182,-530.0,3280.0,7810.0,539.0,296.0,-439.0,0.98,0.12,0.071,-0.142
7194,-1180.0,3578.0,7108.0,513.0,342.0,-643.0,0.978,0.125,0.074,-0.149
7216,-1574.0,4142.0,6736.0,514.0,363.0,-943.0,0.976,0.13,0.077,-0.158
7238,-2258.0,4798.0,6530.0,455.0,256.0,-1208.0,0.973,0.134,0.08,-0.169
7250,-2160.0,4724.0,6450.0,391.0,163.0,-1284.0,0.97,0.138,0.083,-0.181
7272,-2280.0,3800.0,6172.0,465.0,32.0,-1206.0,0.967,0.142,0.084,-0.193
7284,-2816.0,3232.0,5964.0,587.0,-167.0,-1089.0,0.965,0.146,0.083,-0.204
7306,-2858.0,2674.0,5916.0,781.0,-339.0,-923.0,0.962,0.152,0.079,-0.213
7318,-2690.0,2778.0,6312.0,808.0,-324.0,-793.0,0.959,0.158,0.076,-0.222
7340,-2814.0,2194.0,6768.0,750.0,-248.0,-752.0,0.957,0.164,0.074,-0.229
7352,-2944.0,1856.0,7254.0,657.0,-201.0,-784.0,0.954,0.168,0.072,-0.237
7374,-3020.0,690.0,7670.0,682.0,-156.0,-747.0,0.951,0.173,0.071,-0.245
7386,-2976.0,1442.0,7956.0,636.0,-47.0,-547.0,0.949,0.178,0.07,-0.25
7408,-2986.0,1664.0,8274.0,482.0,50.0,-283.0,0.948,0.182,0.07,-0.253
7430,-3250.0,952.0,8204.0,444.0,179.0,-353.0,0.946,0.186,0.072,-0.256
7442,-2912.0,1428.0,8092.0,405.0,207.0,-51.0,0.945,0.19,0.073,-0.256
7464,-2700.0,1774.0,8092.0,326.0,267.0,163.0,0.945,0.193,0.074,-0.254
7476,-2622.0,2230.0,8100.0,194.0,390.0,255.0,0.945,0.196,0.077,-0.252
7498,-2818.0,2328.0,8212.0,24.0,482.0,454.0,0.945,0.198,0.081,-0.247
7510,-2796.0,2060.0,8400.0,-37.0,560.0,645.0,0.946,0.199,0.084,-0.24
7532,-2830.0,2454.0,8584.0,-150.0,673.0,760.0,0.948,0.2,0.089,-0.232
7544,-3066.0,2346.0,8386.0,-313.0,730.0,882.0,0.95,0.199,0.095,-0.223
7566,-3260.0,2632.0,8044.0,-394.0,791.0,975.0,0.952,0.198,0.101,-0.212
7588,-3586.0,3248.0,7574.0,-498.0,838.0,1083.0,0.954,0.197,0.107,-0.201
7600,-3664.0,3726.0,7120.0,-591.0,791.0,1189.0,0.956,0.194,0.113,-0.188
7622,-3630.0,3856.0,6558.0,-639.0,748.0,1294.0,0.958,0.192,0.119,-0.175
7634,-3548.0,4526.0,5904.0,-593.0,695.0,1405.0,0.961,0.19,0.124,-0.161
7656,-3888.0,5342.0,5442.0,-511.0,609.0,1386.0,0.963,0.188,0.128,-0.147
7668,-4006.0,6514.0,5042.0,-427.0,465.0,1221.0,0.964,0.187,0.13,-0.135
7690,-4280.0,6982.0,4198.0,-341.0,231.0,992.0,0.966,0.185,0.131,-0.126
7702,-4076.0,7946.0,3390.0,-207.0,-9.0,637.0,0.967,0.184,0.13,-0.12
7724,-4098.0,7962.0,3518.0,-170.0,-170.0,286.0,0.968,0.183,0.128,-0.118
7736,-3946.0,7182.0,3968.0,-111.0,-306.0,-51.0,0.968,0.181,0.126,-0.119
7759,-3750.0,6484.0,4584.0,-38.0,-411.0,-363.0,0.968,0.181,0.123,-0.124
7781,-3700.0,5728.0,5136.0,42.0,-457.0,-589.0,0.967,0.181,0.12,-0.13
7793,-3886.0,4704.0,5284.0,118.0,-496.0,-725.0,0.967,0.182,0.117,-0.138
7815,-3998.0,4010.0,5350.0,211.0,-524.0,-841.0,0.966,0.183,0.114,-0.147
7827,-3842.0,3628.0,5660.0,322.0,-456.0,-874.0,0.964,0.184,0.111,-0.156
7849,-4054.0,3696.0,6144.0,414.0,-333.0,-821.0,0.962,0.187,0.109,-0.164
7861,-4678.0,4172.0,6360.0,460.0,-326.0,-923.0,0.96,0.19,0.108,-0.174
7883,-4926.0,4396.0,6234.0,483.0,-374.0,-1011.0,0.958,0.193,0.105,-0.184
7895,-5192.0,4996.0,5476.0,555.0,-412.0,-1037.0,0.956,0.196,0.102,-0.194
7917,-5200.0,5510.0,5438.0,519.0,-524.0,-1096.0,0.953,0.199,0.099,-0.206
7929,-4626.0,5130.0,5702.0,418.0,-613.0,-1071.0,0.951,0.201,0.095,-0.216
7951,-4556.0,4748.0,5902.0,310.0,-665.0,-1069.0,0.948,0.202,0.091,-0.227
7973,-4522.0,3774.0,6360.0,176.0,-733.0,-1197.0,0.946,0.201,0.087,-0.239
7985,-4118.0,3448.0,6552.0,153.0,-804.0,-1219.0,0.943,0.2,0.082,-0.252
8007,-3540.0,3452.0,6934.0,122.0,-798.0,-1138.0,0.941,0.199,0.077,-0.263
8024,-2904.0,3080.0,7804.0,-39.0,-750.0,-924.0,0.939,0.196,0.073,-0.272
8036,-2556.0,2452.0,8148.0,-134.0,-671.0,-684.0,0.938,0.193,0.069,-0.279
8058,-2722.0,1184.0,6876.0,-125.0,-666.0,-511.0,0.938,0.189,0.064,-0.285
8070,-2396.0,1288.0,5918.0,-19.0,-697.0,-581.0,0.937,0.187,0.059,-0.291
8092,-2050.0,2196.0,6106.0,5.0,-652.0,-711.0,0.935,0.185,0.055,-0.298
8104,-1894.0,2700.0,7740.0,-194.0,-554.0,-720.0,0.934,0.181,0.052,-0.304
8126,-1218.0,2994.0,8860.0,-398.0,-488.0,-578.0,0.933,0.176,0.05,-0.31
8148,-1178.0,2604.0,9018.0,-454.0,-423.0,-368.0,0.933,0.171,0.048,-0.313
8160,-1448.0,1548.0,7800.0,-315.0,-433.0,-213.0,0.933,0.166,0.046,-0.315
8182,232.0,4428.0,7744.0,-80.0,-174.0,1431.0,0.938,0.166,0.042,-0.303
8194,-1996.0,2434.0,7580.0,-52.0,-346.0,626.0,0.94,0.165,0.038,-0.297
8216,-374.0,3324.0,8322.0,-145.0,-193.0,358.0,0.941,0.163,0.036,-0.294
8228,-1316.0,2978.0,8294.0,-286.0,-69.0,323.0,0.943,0.161,0.036,-0.291
8250,-1754.0,2242.0,8134.0,-105.0,-70.0,-131.0,0.942,0.16,0.036,-0.292
8262,-1066.0,3780.0,8058.0,14.0,-47.0,281.0,0.943,0.16,0.035,-0.289
8284,-1962.0,2278.0,7938.0,-41.0,-76.0,184.0,0.944,0.159,0.034,-0.287
8306,-2282.0,3632.0,7580.0,-71.0,-71.0,70.0,0.944,0.159,0.034,-0.286
8318,-2154.0,1354.0,7166.0,-108.0,-61.0,89.0,0.945,0.158,0.034,-0.285
8340,-2286.0,3136.0,7440.0,-64.0,-29.0,191.0,0.945,0.157,0.034,-0.283
8352,-2360.0,2698.0,7594.0,-136.0,-82.0,181.0,0.946,0.156,0.033,-0.282
8374,-2006.0,2628.0,7550.0,-82.0,-15.0,257.0,0.947,0.156,0.033,-0.279
8386,-2408.0,3026.0,7264.0,-180.0,-48.0,156.0,0.948,0.154,0.033,-0.277
8408,-2170.0,2692.0,7266.0,-166.0,-47.0,172.0,0.948,0.153,0.033,-0.276
8420,-2090.0,2946.0,7630.0,-199.0,-29.0,112.0,0.949,0.151,0.034,-0.274
8442,-2116.0,2934.0,7772.0,-213.0,10.0,93.0,0.95,0.15,0.034,-0.273
8464,-2234.0,2846.0,7552.0,-227.0,8.0,85.0,0.95,0.148,0.035,-0.272
8476,-2232.0,2190.0,7220.0,-142.0,-22.0,78.0,0.951,0.147,0.035,-0.271
8498,-2202.0,2986.0,7184.0,-62.0,-74.0,61.0,0.951,0.146,0.035,-0.271
8510,-2122.0,2994.0,7312.0,-70.0,-77.0,42.0,0.951,0.146,0.035,-0.27
8532,-2174.0,2974.0,7546.0,-120.0,-57.0,17.0,0.951,0.145,0.035,-0.27
8544,-2162.0,2706.0,7556.0,-139.0,-23.0,0.0,0.951,0.144,0.035,-0.27
8566,-2312.0,2482.0,7524.0,-113.0,-18.0,0.0,0.952,0.143,0.035,-0.27
8578,-2434.0,2500.0,7324.0,-67.0,-33.0,13.0,0.952,0.142,0.035,-0.27
8600,-2258.0,2330.0,7190.0,-31.0,-58.0,31.0,0.952,0.142,0.035,-0.269
8612,-2082.0,2748.0,7352.0,-25.0,-42.0,36.0,0.952,0.142,0.035,-0.269
8634,-2124.0,2504.0,7654.0,-51.0,-23.0,28.0,0.952,0.142,0.035,-0.269
8656,-2082.0,2642.0,7738.0,-49.0,13.0,27.0,0.952,0.142,0.035,-0.268
8668,-2214.0,2532.0,7630.0,-20.0,7.0,27.0,0.952,0.142,0.036,-0.268
8690,-2262.0,2702.0,7440.0,2.0,-35.0,14.0,0.952,0.142,0.036,-0.268
8702,-2174.0,2738.0,7440.0,-3.0,-36.0,6.0,0.952,0.142,0.035,-0.268
8724,-2122.0,2650.0,7704.0,-1.0,-8.0,7.0,0.952,0.142,0.036,-0.268
8736,-2140.0,2608.0,7750.0,8.0,27.0,2.0,0.952,0.142,0.036,-0.268
8758,-2212.0,2686.0,7520.0,18.0,25.0,-13.0,0.952,0.143,0.036,-0.267
8770,-2262.0,2744.0,7366.0,31.0,0.0,-32.0,0.952,0.143,0.037,-0.268
8792,-2224.0,2692.0,7496.0,17.0,4.0,-23.0,0.952,0.144,0.037,-0.268
8814,-2292.0,2714.0,7568.0,30.0,18.0,-7.0,0.952,0.144,0.037,-0.268
8826,-2336.0,2736.0,7572.0,50.0,11.0,5.0,0.952,0.145,0.037,-0.268
8848,-2346.0,2626.0,7476.0,65.0,1.0,13.0,0.952,0.146,0.037,-0.268
8860,-2164.0,2792.0,7502.0,54.0,3.0,6.0,0.952,0.146,0.037,-0.267
8882,-2170.0,2738.0,7586.0,65.0,36.0,10.0,0.952,0.147,0.038,-0.267
8894,-2370.0,2778.0,7422.0,60.0,38.0,18.0,0.952,0.148,0.038,-0.267
8916,-2448.0,2802.0,7240.0,58.0,32.0,21.0,0.951,0.149,0.038,-0.267
8928,-2298.0,2802.0,7356.0,28.0,23.0,36.0,0.951,0.149,0.039,-0.266
8950,-2362.0,2820.0,7332.0,34.0,5.0,37.0,0.951,0.15,0.039,-0.266
8972,-2238.0,3016.0,7330.0,38.0,-9.0,40.0,0.951,0.151,0.039,-0.266
8984,-2130.0,2896.0,7178.0,4.0,-18.0,10.0,0.951,0.151,0.039,-0.265
9006,-2156.0,2954.0,7334.0,-19.0,-11.0,-4.0,0.951,0.151,0.039,-0.265
9018,-2280.0,2844.0,7526.0,-23.0,-7.0,-5.0,0.951,0.151,0.039,-0.265
9040,-2214.0,2976.0,7458.0,-4.0,-10.0,-9.0,0.951,0.151,0.039,-0.265
9052,-2232.0,2736.0,7344.0,7.0,-32.0,-13.0,0.951,0.151,0.039,-0.265
9074,-2080.0,2742.0,7448.0,24.0,-42.0,-19.0,0.951,0.151,0.039,-0.266
9086,-2074.0,2948.0,7494.0,-19.0,-11.0,-44.0,0.951,0.151,0.039,-0.266
9108,-2094.0,2708.0,7500.0,-31.0,-16.0,-49.0,0.951,0.151,0.039,-0.266
9120,-2062.0,2576.0,7480.0,-9.0,10.0,-45.0,0.951,0.151,0.04,-0.267
9142,-2218.0,2736.0,7572.0,-19.0,24.0,-50.0,0.951,0.151,0.04,-0.267
9164,-2210.0,2630.0,7456.0,-14.0,14.0,-40.0,0.951,0.151,0.04,-0.267
9176,-2072.0,2670.0,7362.0,14.0,-1.0,-27.0,0.951,0.152,0.041,-0.268
9198,-2270.0,2628.0,7556.0,-12.0,17.0,-26.0,0.951,0.152,0.041,-0.268
9210,-2150.0,2722.0,7478.0,-34.0,16.0,-9.0,0.951,0.152,0.041,-0.268
9232,-2148.0,2718.0,7492.0,-43.0,8.0,-5.0,0.951,0.152,0.042,-0.268
9244,-2014.0,2756.0,7620.0,-37.0,23.0,-29.0,0.951,0.151,0.042,-0.268
9266,-2284.0,2750.0,7540.0,15.0,23.0,-30.0,0.95,0.152,0.043,-0.268
9278,-2320.0,2790.0,7412.0,23.0,3.0,-12.0,0.95,0.152,0.043,-0.268
9300,-2224.0,2814.0,7436.0,-5.0,8.0,-18.0,0.95,0.152,0.043,-0.268
9322,-2432.0,2756.0,7374.0,-27.0,13.0,-11.0,0.95,0.152,0.044,-0.268
9334,-2428.0,2808.0,7330.0,-13.0,-18.0,9.0,0.95,0.152,0.044,-0.268
9356,-2356.0,2704.0,7366.0,-20.0,-16.0,26.0,0.95,0.152,0.044,-0.268
9368,-2074.0,2626.0,7362.0,-26.0,-33.0,28.0,0.95,0.152,0.044,-0.268
9390,-1838.0,2732.0,7742.0,-34.0,32.0,-1.0,0.95,0.152,0.044,-0.268
9402,-2146.0,2718.0,7564.0,-20.0,48.0,-25.0,0.95,0.152,0.045,-0.268
9424,-2226.0,2688.0,7336.0,1.0,21.0,-30.0,0.95,0.153,0.045,-0.268
9436,-2314.0,2726.0,7244.0,2.0,-25.0,-25.0,0.95,0.153,0.045,-0.268
9458,-2212.0,2800.0,7486.0,-31.0,-24.0,-24.0,0.95,0.153,0.045,-0.269
9480,-2130.0,2748.0,7596.0,-40.0,10.0,-25.0,0.95,0.152,0.045,-0.269
9492,-2204.0,2688.0,7422.0,-36.0,12.0,-38.0,0.95,0.152,0.046,-0.269
9514,-2264.0,2712.0,7422.0,-10.0,11.0,-42.0,0.95,0.152,0.046,-0.269
9526,-2272.0,2716.0,7502.0,1.0,-6.0,-29.0,0.95,0.153,0.046,-0.27
9548,-2194.0,2712.0,7560.0,3.0,23.0,0.0,0.95,0.153,0.047,-0.27
9560,-2258.0,2728.0,7520.0,16.0,37.0,2.0,0.95,0.153,0.047,-0.27
9582,-2310.0,2726.0,7426.0,29.0,27.0,-6.0,0.949,0.154,0.047,-0.27
9594,-2308.0,2740.0,7450.0,39.0,-1.0,-10.0,0.949,0.154,0.047,-0.27
9616,-2182.0,2786.0,7520.0,20.0,2.0,-8.0,0.949,0.155,0.048,-0.27
9628,-2204.0,2788.0,7492.0,-4.0,13.0,0.0,0.949,0.155,0.048,-0.27
9650,-2164.0,2762.0,7482.0,-3.0,19.0,-7.0,0.949,0.155,0.048,-0.27
9672,-2204.0,2682.0,7562.0,9.0,14.0,-14.0,0.949,0.155,0.048,-0.27
9684,-2240.0,2728.0,7502.0,5.0,15.0,-21.0,0.949,0.156,0.049,-0.27
9706,-2220.0,2704.0,7340.0,0.0,6.0,-21.0,0.949,0.156,0.049,-0.27
9718,-2166.0,2720.0,7418.0,-1.0,19.0,-13.0,0.949,0.156,0.049,-0.271
9740,-2058.0,2732.0,7584.0,9.0,35.0,-20.0,0.949,0.156,0.05,-0.271
9752,-2258.0,2692.0,7410.0,18.0,44.0,-44.0,0.948,0.157,0.05,-0.271
9774,-2368.0,2782.0,7262.0,32.0,14.0,-42.0,0.948,0.157,0.05,-0.271
9786,-2388.0,2728.0,7350.0,11.0,6.0,-38.0,0.948,0.157,0.051,-0.272
9808,-2336.0,2756.0,7514.0,13.0,6.0,-2.0,0.948,0.158,0.051,-0.272
9830,-2190.0,2962.0,7826.0,-17.0,74.0,-2.0,0.948,0.158,0.052,-0.272
9842,-2462.0,2724.0,7758.0,40.0,77.0,27.0,0.948,0.159,0.052,-0.271
9864,-2090.0,2708.0,7760.0,44.0,93.0,38.0,0.948,0.159,0.053,-0.271
9876,-2168.0,2734.0,7742.0,68.0,120.0,20.0,0.948,0.161,0.054,-0.271
9898,-1994.0,2794.0,7584.0,98.0,19.0,-23.0,0.947,0.162,0.054,-0.271
9910,-1726.0,2758.0,7614.0,165.0,-107.0,-130.0,0.947,0.163,0.053,-0.272
9932,-648.0,1182.0,8138.0,405.0,-82.0,-172.0,0.946,0.166,0.051,-0.274
9944,-262.0,3136.0,8906.0,603.0,171.0,-318.0,0.944,0.171,0.052,-0.277
9966,-344.0,2832.0,8974.0,433.0,431.0,-525.0,0.942,0.176,0.055,-0.281
9978,-646.0,2084.0,8652.0,431.0,654.0,-606.0,0.939,0.181,0.061,-0.285
10001,-1002.0,2312.0,8466.0,351.0,694.0,-660.0,0.937,0.185,0.067,-0.29
10028,-660.0,1440.0,7650.0,230.0,560.0,-367.0,0.935,0.188,0.072,-0.292
10040,-334.0,1274.0,7616.0,256.0,639.0,-58.0,0.934,0.192,0.076,-0.292
10052,-752.0,1464.0,7506.0,251.0,753.0,10.0,0.933,0.196,0.082,-0.29
10074,-914.0,1196.0,7390.0,228.0,801.0,161.0,0.933,0.2,0.088,-0.288
10086,-1054.0,1582.0,7602.0,159.0,834.0,377.0,0.933,0.203,0.094,-0.283
10108,-1416.0,1692.0,7284.0,36.0,811.0,565.0,0.933,0.206,0.099,-0.277
10120,-1904.0,1568.0,6768.0,-39.0,732.0,771.0,0.935,0.208,0.104,-0.268
10142,-1856.0,2166.0,6630.0,-153.0,716.0,940.0,0.937,0.21,0.109,-0.259
10154,-2116.0,2700.0,6680.0,-318.0,701.0,1087.0,0.939,0.21,0.114,-0.247
10176,-2532.0,2578.0,6640.0,-361.0,620.0,1143.0,0.942,0.209,0.118,-0.236
10198,-2632.0,3108.0,6872.0,-386.0,477.0,1076.0,0.944,0.208,0.121,-0.225
10210,-2474.0,4110.0,7074.0,-498.0,442.0,1138.0,0.947,0.206,0.123,-0.214
10232,-2858.0,4472.0,7054.0,-662.0,430.0,1224.0,0.95,0.203,0.126,-0.201
10244,-3128.0,4726.0,6868.0,-737.0,367.0,1238.0,0.953,0.199,0.128,-0.189
10266,-3352.0,4618.0,6680.0,-772.0,304.0,1162.0,0.956,0.195,0.13,-0.177
10278,-3298.0,4960.0,6662.0,-733.0,209.0,1167.0,0.959,0.19,0.131,-0.166
10300,-3282.0,4868.0,6390.0,-678.0,159.0,1267.0,0.961,0.187,0.132,-0.153
10312,-3244.0,5318.0,6290.0,-674.0,126.0,1312.0,0.964,0.183,0.131,-0.141
10334,-3298.0,5366.0,6346.0,-611.0,79.0,1308.0,0.966,0.18,0.131,-0.128
10346,-3196.0,5152.0,6118.0,-443.0,7.0,1242.0,0.968,0.178,0.129,-0.117
10368,-3278.0,5428.0,5784.0,-348.0,-73.0,1162.0,0.97,0.177,0.127,-0.106
10390,-3172.0,5622.0,5268.0,-248.0,-182.0,1023.0,0.971,0.177,0.124,-0.097
10402,-3228.0,5112.0,4900.0,-78.0,-321.0,853.0,0.973,0.178,0.12,-0.09
10424,-3288.0,4918.0,5130.0,28.0,-457.0,695.0,0.973,0.179,0.115,-0.085
10436,-3396.0,4590.0,5366.0,115.0,-549.0,534.0,0.974,0.181,0.11,-0.081
10458,-3618.0,3868.0,5712.0,219.0,-604.0,425.0,0.974,0.183,0.104,-0.079
10470,-3760.0,3684.0,5532.0,417.0,-599.0,303.0,0.974,0.187,0.098,-0.078
10492,-3876.0,4154.0,5698.0,551.0,-624.0,190.0,0.974,0.192,0.092,-0.078
10504,-3766.0,4602.0,6122.0,575.0,-605.0,76.0,0.973,0.198,0.086,-0.079
10526,-3728.0,4954.0,6182.0,603.0,-568.0,-14.0,0.972,0.203,0.081,-0.081
10548,-3742.0,5100.0,5980.0,681.0,-551.0,-135.0,0.971,0.209,0.076,-0.084
10560,-3534.0,5170.0,5568.0,796.0,-566.0,-316.0,0.97,0.217,0.071,-0.089
10582,-3560.0,5138.0,5236.0,882.0,-597.0,-505.0,0.967,0.224,0.067,-0.096
10594,-3464.0,5686.0,5344.0,911.0,-646.0,-685.0,0.965,0.232,0.062,-0.104
10616,-3384.0,6562.0,5466.0,841.0,-720.0,-849.0,0.963,0.239,0.056,-0.114
10628,-3272.0,6246.0,5366.0,774.0,-857.0,-1006.0,0.96,0.245,0.051,-0.125
10650,-2930.0,6258.0,5310.0,726.0,-1050.0,-1243.0,0.957,0.25,0.043,-0.139
10662,-2788.0,5868.0,4916.0,640.0,-1286.0,-1498.0,0.954,0.254,0.035,-0.156
10685,-2546.0,5576.0,4712.0,556.0,-1588.0,-1716.0,0.95,0.257,0.024,-0.175
10697,-1992.0,5800.0,4964.0,423.0,-1888.0,-1921.0,0.946,0.258,0.012,-0.197
10719,-1744.0,5526.0,4984.0,151.0,-2127.0,-2004.0,0.942,0.255,-0.002,-0.219
10741,-1638.0,4344.0,4854.0,-139.0,-2343.0,-2031.0,0.937,0.249,-0.018,-0.243
10753,-1566.0,2858.0,4392.0,-267.0,-2557.0,-2096.0,0.932,0.241,-0.035,-0.267
10775,-1406.0,1502.0,3864.0,-254.0,-2769.0,-2157.0,0.926,0.233,-0.053,-0.291
10787,-702.0,2778.0,5620.0,-235.0,-3027.0,-2269.0,0.919,0.224,-0.074,-0.317
10809,612.0,4462.0,6560.0,-412.0,-3229.0,-2350.0,0.91,0.212,-0.095,-0.344
10821,1404.0,3928.0,7936.0,-931.0,-3261.0,-2168.0,0.901,0.195,-0.116,-0.369
10843,2450.0,3134.0,8102.0,-1268.0,-3162.0,-2032.0,0.892,0.176,-0.134,-0.393
10855,2520.0,1382.0,7990.0,-1445.0,-2875.0,-1787.0,0.884,0.155,-0.15,-0.414
10877,2454.0,600.0,7712.0,-1281.0,-2669.0,-1549.0,0.876,0.136,-0.165,-0.432
10889,2924.0,1754.0,8150.0,-1131.0,-2537.0,-1280.0,0.869,0.118,-0.179,-0.447
10911,3644.0,374.0,8756.0,-1128.0,-2319.0,-839.0,0.862,0.1,-0.192,-0.458
10933,3480.0,-706.0,9016.0,-815.0,-1962.0,-259.0,0.859,0.086,-0.204,-0.462
10945,5486.0,-466.0,12910.0,-316.0,-1268.0,1694.0,0.864,0.075,-0.214,-0.449
10967,4984.0,3346.0,17164.0,418.0,-1321.0,763.0,0.865,0.072,-0.227,-0.442
10979,6904.0,9294.0,16024.0,495.0,-385.0,855.0,0.868,0.073,-0.233,-0.433
11001,4678.0,6968.0,11600.0,-281.0,566.0,546.0,0.871,0.071,-0.227,-0.429
11013,3776.0,3838.0,9136.0,-841.0,830.0,588.0,0.876,0.067,-0.217,-0.424
11035,4378.0,3314.0,8032.0,-801.0,1168.0,885.0,0.883,0.063,-0.205,-0.417
11047,3902.0,2950.0,7340.0,-556.0,1468.0,976.0,0.89,0.063,-0.192,-0.408
11069,4204.0,1994.0,7284.0,191.0,1564.0,1272.0,0.898,0.068,-0.181,-0.395
11091,4166.0,2148.0,6862.0,1051.0,1876.0,1467.0,0.906,0.081,-0.17,-0.379
11103,3536.0,2578.0,6638.0,1783.0,2050.0,1064.0,0.912,0.102,-0.16,-0.365
11125,3600.0,5114.0,6378.0,1764.0,1976.0,649.0,0.915,0.123,-0.15,-0.354
11137,3494.0,4512.0,5950.0,1636.0,2271.0,773.0,0.919,0.144,-0.138,-0.341
11159,2684.0,4872.0,5610.0,1586.0,2365.0,942.0,0.922,0.164,-0.124,-0.327
11171,1612.0,5016.0,5346.0,1460.0,2356.0,745.0,0.925,0.183,-0.11,-0.314
11193,1064.0,4514.0,5308.0,1341.0,2179.0,727.0,0.927,0.201,-0.096,-0.302
11205,392.0,3976.0,5226.0,1285.0,2127.0,634.0,0.928,0.217,-0.082,-0.29
11227,-206.0,4922.0,5074.0,1086.0,1929.0,656.0,0.929,0.231,-0.069,-0.279
11249,-1566.0,4468.0,5250.0,901.0,1637.0,333.0,0.929,0.243,-0.058,-0.272
11261,-2110.0,3966.0,5004.0,790.0,1207.0,133.0,0.928,0.253,-0.05,-0.267
11283,-1774.0,4990.0,5020.0,444.0,846.0,550.0,0.929,0.259,-0.045,-0.26
11295,-3572.0,3482.0,5578.0,295.0,294.0,-321.0,0.928,0.262,-0.041,-0.261
11317,-2956.0,3928.0,6302.0,-60.0,77.0,-51.0,0.928,0.262,-0.04,-0.261
11329,-3680.0,2872.0,6454.0,-99.0,-231.0,-63.0,0.928,0.261,-0.041,-0.262
11351,-3600.0,2528.0,6752.0,-166.0,-485.0,-56.0,0.928,0.258,-0.043,-0.264
11363,-3466.0,1994.0,6678.0,-167.0,-719.0,-309.0,0.928,0.255,-0.048,-0.268
11385,-3138.0,2352.0,6642.0,-119.0,-780.0,-424.0,0.927,0.252,-0.052,-0.273
11397,-3012.0,2538.0,6332.0,-129.0,-779.0,-441.0,0.926,0.249,-0.057,-0.278
11419,-2916.0,2414.0,6012.0,-115.0,-709.0,-252.0,0.925,0.247,-0.062,-0.282
11441,-2586.0,3072.0,6166.0,-77.0,-699.0,-103.0,0.925,0.244,-0.067,-0.284
11453,-2066.0,4128.0,6772.0,-151.0,-597.0,99.0,0.925,0.241,-0.072,-0.284
11475,-1726.0,5010.0,7462.0,-332.0,-503.0,237.0,0.926,0.237,-0.076,-0.283
11487,-1232.0,5436.0,8086.0,-537.0,-417.0,256.0,0.928,0.231,-0.078,-0.282
11509,-714.0,5142.0,8234.0,-587.0,-296.0,250.0,0.93,0.225,-0.08,-0.28
11521,-282.0,4456.0,8202.0,-388.0,-149.0,246.0,0.931,0.221,-0.08,-0.278
11543,-170.0,4908.0,8438.0,-95.0,-42.0,138.0,0.932,0.22,-0.081,-0.276
11555,142.0,4972.0,8068.0,40.0,57.0,71.0,0.932,0.221,-0.08,-0.275
11577,-86.0,4908.0,7900.0,100.0,145.0,85.0,0.933,0.222,-0.079,-0.273
11599,-24.0,5120.0,7520.0,132.0,131.0,-28.0,0.932,0.224,-0.078,-0.273
11611,-68.0,4828.0,7056.0,46.0,99.0,-21.0,0.933,0.225,-0.077,-0.272
11633,158.0,4690.0,7124.0,-45.0,43.0,-9.0,0.933,0.225,-0.077,-0.271
11645,292.0,4506.0,6934.0,-114.0,-39.0,-135.0,0.933,0.224,-0.076,-0.272
11667,308.0,3894.0,6428.0,-104.0,-78.0,-150.0,0.933,0.223,-0.077,-0.273
11679,220.0,3400.0,5990.0,-47.0,-147.0,-186.0,0.932,0.222,-0.077,-0.274
11701,10.0,2926.0,5536.0,79.0,-213.0,-237.0,0.932,0.223,-0.079,-0.276
11713,-326.0,2306.0,5032.0,225.0,-286.0,-231.0,0.931,0.224,-0.081,-0.278
11735,-840.0,1414.0,4284.0,429.0,-409.0,-196.0,0.929,0.227,-0.085,-0.279
11757,-1094.0,632.0,3826.0,774.0,-591.0,-56.0,0.927,0.232,-0.092,-0.28
11769,-1166.0,354.0,3636.0,1303.0,-803.0,154.0,0.924,0.241,-0.102,-0.278
11791,-634.0,2346.0,4710.0,1242.0,-902.0,505.0,0.922,0.249,-0.114,-0.274
11803,-150.0,2642.0,6576.0,981.0,-932.0,862.0,0.921,0.254,-0.127,-0.268
11825,2174.0,9676.0,13046.0,397.0,-952.0,1424.0,0.922,0.254,-0.139,-0.257
11837,2066.0,11738.0,13518.0,-770.0,-334.0,1348.0,0.927,0.245,-0.144,-0.247
11859,1102.0,6836.0,10456.0,-379.0,-64.0,950.0,0.929,0.24,-0.145,-0.24
11871,1528.0,5950.0,8524.0,227.0,1.0,553.0,0.93,0.241,-0.147,-0.235
11893,1564.0,5828.0,6372.0,432.0,94.0,407.0,0.93,0.245,-0.148,-0.23
11905,724.0,4444.0,5596.0,408.0,155.0,492.0,0.93,0.248,-0.149,-0.225
11927,902.0,4216.0,5104.0,167.0,111.0,580.0,0.931,0.249,-0.15,-0.219
11949,954.0,4326.0,5354.0,-162.0,11.0,563.0,0.933,0.247,-0.15,-0.214
11961,1268.0,4452.0,6160.0,-412.0,-71.0,490.0,0.935,0.243,-0.151,-0.21
11983,1752.0,4594.0,6860.0,-496.0,-140.0,381.0,0.937,0.238,-0.152,-0.208
11995,1748.0,5150.0,7300.0,-466.0,-142.0,213.0,0.938,0.233,-0.153,-0.207
12017,1742.0,5084.0,7410.0,-369.0,-93.0,77.0,0.939,0.229,-0.153,-0.206
12034,1742.0,5160.0,7254.0,-256.0,-18.0,-58.0,0.939,0.227,-0.153,-0.207
12046,1388.0,4250.0,7102.0,-138.0,71.0,-153.0,0.94,0.227,-0.151,-0.208
12068,1142.0,3898.0,6958.0,-39.0,75.0,-163.0,0.94,0.227,-0.15,-0.208
12080,842.0,3820.0,6806.0,58.0,70.0,-127.0,0.939,0.228,-0.149,-0.209
12102,862.0,4162.0,6662.0,76.0,31.0,-99.0,0.939,0.229,-0.148,-0.209
12124,844.0,4242.0,6650.0,45.0,11.0,-53.0,0.939,0.229,-0.148,-0.209
12136,942.0,4396.0,6752.0,6.0,34.0,7.0,0.939,0.23,-0.147,-0.208
12158,954.0,4458.0,6932.0,0.0,51.0,46.0,0.939,0.23,-0.147,-0.207
12170,1002.0,4448.0,6972.0,-13.0,66.0,53.0,0.94,0.23,-0.146,-0.206
12192,974.0,4256.0,6908.0,-1.0,82.0,71.0,0.94,0.23,-0.145,-0.205
12204,928.0,4232.0,6798.0,20.0,74.0,87.0,0.94,0.231,-0.145,-0.204
12226,902.0,4332.0,6734.0,45.0,73.0,98.0,0.941,0.231,-0.144,-0.202
12238,1004.0,4554.0,6724.0,60.0,55.0,86.0,0.941,0.232,-0.144,-0.201
12260,994.0,4614.0,6736.0,46.0,31.0,81.0,0.941,0.232,-0.144,-0.199
12282,1002.0,4734.0,6728.0,19.0,23.0,48.0,0.941,0.233,-0.143,-0.199
12294,922.0,4632.0,6738.0,-5.0,2.0,26.0,0.941,0.233,-0.143,-0.198
12316,910.0,4634.0,6744.0,-14.0,-1.0,0.0,0.941,0.233,-0.143,-0.198
12328,828.0,4542.0,6698.0,-20.0,-14.0,-8.0,0.941,0.233,-0.143,-0.197
12350,898.0,4532.0,6756.0,-13.0,-7.0,-25.0,0.941,0.233,-0.143,-0.197
12362,880.0,4550.0,6800.0,-2.0,3.0,-36.0,0.941,0.234,-0.142,-0.197
12384,838.0,4562.0,6788.0,-3.0,17.0,-47.0,0.941,0.234,-0.142,-0.197
12396,838.0,4560.0,6794.0,-6.0,25.0,-54.0,0.942,0.234,-0.141,-0.197
12418,894.0,4588.0,6776.0,-8.0,28.0,-52.0,0.942,0.234,-0.141,-0.197
12440,878.0,4458.0,6754.0,-19.0,26.0,-43.0,0.942,0.234,-0.14,-0.197
12452,970.0,4418.0,6832.0,-22.0,36.0,-34.0,0.942,0.235,-0.14,-0.197
12474,988.0,4374.0,6892.0,-13.0,38.0,-30.0,0.942,0.235,-0.139,-0.197
12486,1026.0,4368.0,6848.0,-13.0,46.0,-18.0,0.942,0.235,-0.138,-0.196
12508,1072.0,4336.0,6934.0,2.0,51.0,-6.0,0.942,0.235,-0.138,-0.196
12520,1092.0,4252.0,6864.0,13.0,52.0,6.0,0.942,0.235,-0.137,-0.195
12542,1072.0,4274.0,6854.0,10.0,45.0,25.0,0.942,0.236,-0.137,-0.194
12554,1088.0,4264.0,6844.0,-10.0,42.0,36.0,0.943,0.236,-0.136,-0.194
12576,1184.0,4370.0,6884.0,-19.0,39.0,40.0,0.943,0.236,-0.136,-0.193
12588,1120.0,4348.0,6896.0,-8.0,43.0,37.0,0.943,0.236,-0.135,-0.192
12610,1082.0,4408.0,6848.0,2.0,36.0,35.0,0.943,0.236,-0.135,-0.191
12632,970.0,4428.0,6812.0,1.0,33.0,30.0,0.943,0.236,-0.135,-0.19
12644,1018.0,4448.0,6774.0,7.0,36.0,18.0,0.943,0.237,-0.134,-0.19
12666,906.0,4522.0,6742.0,4.0,29.0,18.0,0.944,0.237,-0.134,-0.189
12678,846.0,4630.0,6728.0,-1.0,31.0,5.0,0.944,0.237,-0.133,-0.189
12700,780.0,4608.0,6738.0,-10.0,27.0,-3.0,0.944,0.237,-0.133,-0.189
12712,778.0,4624.0,6786.0,-12.0,15.0,-30.0,0.944,0.237,-0.133,-0.188
12734,768.0,4638.0,6818.0,-14.0,17.0,-43.0,0.944,0.237,-0.132,-0.188
12746,724.0,4652.0,6822.0,-12.0,17.0,-52.0,0.944,0.238,-0.132,-0.189
12768,752.0,4542.0,6804.0,-14.0,8.0,-52.0,0.944,0.238,-0.131,-0.189
12790,716.0,4456.0,6834.0,-8.0,-1.0,-45.0,0.944,0.238,-0.131,-0.189
12802,760.0,4500.0,6872.0,-2.0,-18.0,-27.0,0.944,0.238,-0.131,-0.189
12824,810.0,4432.0,6816.0,-3.0,-21.0,-11.0,0.944,0.238,-0.131,-0.188
12836,888.0,4416.0,6920.0,-6.0,-29.0,8.0,0.944,0.238,-0.131,-0.188
12858,1002.0,4336.0,6938.0,0.0,-29.0,6.0,0.944,0.238,-0.131,-0.188
12870,1120.0,4370.0,6978.0,18.0,-19.0,4.0,0.944,0.239,-0.131,-0.187
12892,1330.0,4482.0,7196.0,66.0,-4.0,-17.0,0.944,0.239,-0.131,-0.187
12904,1418.0,4610.0,7050.0,74.0,31.0,-64.0,0.944,0.24,-0.131,-0.187
12926,1432.0,4794.0,7456.0,95.0,15.0,-109.0,0.943,0.241,-0.131,-0.187
12948,1614.0,5302.0,7486.0,88.0,41.0,-199.0,0.943,0.242,-0.13,-0.189
12960,1590.0,4882.0,7848.0,71.0,42.0,-359.0,0.942,0.244,-0.129,-0.191
12982,1500.0,4540.0,7348.0,79.0,114.0,-505.0,0.941,0.245,-0.127,-0.195
12994,1200.0,4394.0,7290.0,123.0,153.0,-614.0,0.94,0.247,-0.124,-0.199
13016,1134.0,4262.0,7524.0,221.0,182.0,-703.0,0.939,0.25,-0.121,-0.204
13028,1352.0,4482.0,8330.0,347.0,234.0,-810.0,0.937,0.255,-0.118,-0.21
13050,1822.0,5498.0,9350.0,387.0,325.0,-904.0,0.934,0.26,-0.113,-0.216
13062,2432.0,5864.0,9502.0,111.0,529.0,-803.0,0.933,0.263,-0.107,-0.222
13084,2176.0,4424.0,9178.0,-83.0,893.0,-646.0,0.933,0.265,-0.097,-0.225
13096,1570.0,3570.0,8816.0,115.0,1181.0,-498.0,0.933,0.269,-0.086,-0.226
13118,926.0,3004.0,8268.0,452.0,1421.0,-351.0,0.932,0.275,-0.073,-0.224
13140,500.0,3014.0,7946.0,868.0,1612.0,-176.0,0.931,0.286,-0.061,-0.221
13152,-272.0,1258.0,7586.0,1146.0,1635.0,-236.0,0.928,0.299,-0.048,-0.218
13174,158.0,4840.0,7680.0,1084.0,1986.0,375.0,0.927,0.312,-0.034,-0.208
13186,-1290.0,4002.0,7376.0,1096.0,1965.0,56.0,0.924,0.325,-0.019,-0.201
13208,-780.0,5048.0,6804.0,857.0,2052.0,261.0,0.922,0.336,-0.004,-0.193
13220,-1632.0,4264.0,6096.0,442.0,2189.0,552.0,0.922,0.343,0.013,-0.181
13242,-2626.0,4444.0,5700.0,78.0,2097.0,651.0,0.922,0.347,0.029,-0.169
13264,-2662.0,5636.0,5010.0,-578.0,2058.0,757.0,0.924,0.346,0.045,-0.155
13276,-3172.0,5412.0,4434.0,-1324.0,1884.0,1026.0,0.929,0.338,0.06,-0.14
13298,-3764.0,4286.0,4146.0,-1894.0,1671.0,1269.0,0.935,0.324,0.073,-0.123
13310,-3850.0,4264.0,4218.0,-2129.0,1305.0,1301.0,0.942,0.308,0.083,-0.106
13332,-3322.0,4636.0,4798.0,-2138.0,951.0,1302.0,0.948,0.292,0.09,-0.091
13344,-2890.0,4490.0,4662.0,-2266.0,681.0,1378.0,0.954,0.273,0.094,-0.075
13366,-3162.0,3432.0,3754.0,-2563.0,360.0,1489.0,0.961,0.252,0.095,-0.059
13378,-3228.0,2620.0,2864.0,-2734.0,-11.0,1517.0,0.968,0.229,0.093,-0.043
13400,-3162.0,1326.0,2406.0,-2649.0,-396.0,1539.0,0.974,0.206,0.087,-0.028
13412,-2828.0,696.0,2866.0,-2328.0,-801.0,1716.0,0.979,0.186,0.077,-0.012
13434,-1870.0,1814.0,3948.0,-1941.0,-1133.0,1693.0,0.984,0.169,0.064,0.003
13456,-864.0,2026.0,4802.0,-1771.0,-1430.0,1540.0,0.987,0.154,0.048,0.016
13468,-144.0,1338.0,4902.0,-1668.0,-1613.0,1467.0,0.989,0.139,0.031,0.028
13490,356.0,1294.0,4952.0,-1494.0,-1740.0,1352.0,0.991,0.126,0.013,0.038
13502,964.0,1344.0,5476.0,-1284.0,-1844.0,1235.0,0.992,0.115,-0.006,0.048
13524,2152.0,2526.0,6680.0,-971.0,-1928.0,1171.0,0.992,0.107,-0.026,0.056
13536,2980.0,2058.0,7012.0,-759.0,-1855.0,1210.0,0.992,0.101,-0.045,0.066
13558,2876.0,1708.0,7116.0,-481.0,-1717.0,1313.0,0.99,0.097,-0.063,0.076
13570,2948.0,2274.0,6902.0,-337.0,-1663.0,1295.0,0.989,0.095,-0.08,0.086
13592,3102.0,2348.0,6628.0,-349.0,-1612.0,1342.0,0.986,0.092,-0.097,0.097
13604,2964.0,1894.0,6224.0,-294.0,-1617.0,1443.0,0.984,0.089,-0.113,0.108
13626,3812.0,1368.0,6492.0,4.0,-1677.0,1895.0,0.98,0.089,-0.131,0.124
13648,3936.0,1748.0,6634.0,141.0,-1608.0,1861.0,0.975,0.09,-0.147,0.14
13660,4552.0,1528.0,6284.0,213.0,-1726.0,1689.0,0.97,0.092,-0.164,0.154
13682,4658.0,3118.0,6432.0,-57.0,-1933.0,1089.0,0.965,0.094,-0.183,0.162
13694,5392.0,1842.0,6584.0,-1.0,-1932.0,1237.0,0.96,0.095,-0.202,0.172
13716,5630.0,2508.0,6928.0,27.0,-1931.0,1440.0,0.953,0.095,-0.22,0.183
13728,5864.0,2068.0,7390.0,-81.0,-2012.0,1334.0,0.947,0.095,-0.239,0.193
13750,6442.0,1710.0,7532.0,-111.0,-1951.0,1522.0,0.94,0.094,-0.258,0.204
13772,6346.0,1454.0,7454.0,-78.0,-1890.0,1506.0,0.932,0.094,-0.276,0.215
13784,6532.0,1046.0,7460.0,54.0,-1886.0,1297.0,0.924,0.094,-0.293,0.225
13806,6734.0,1530.0,7008.0,139.0,-1793.0,1285.0,0.916,0.096,-0.31,0.235
13818,7110.0,1560.0,6680.0,129.0,-1692.0,1314.0,0.908,0.097,-0.325,0.245
13840,7194.0,1476.0,6784.0,126.0,-1563.0,1268.0,0.9,0.097,-0.339,0.254
13852,7296.0,1398.0,6930.0,181.0,-1437.0,1142.0,0.893,0.099,-0.352,0.263
13874,7222.0,694.0,6004.0,351.0,-1294.0,985.0,0.886,0.101,-0.363,0.27
13886,6956.0,80.0,5220.0,488.0,-1196.0,758.0,0.88,0.106,-0.372,0.276
13908,6478.0,-836.0,5036.0,488.0,-1190.0,634.0,0.874,0.11,-0.382,0.281
13920,6520.0,-1202.0,5162.0,338.0,-1239.0,620.0,0.867,0.113,-0.392,0.285
13942,7286.0,-94.0,6228.0,73.0,-1296.0,749.0,0.861,0.114,-0.403,0.29
13954,7578.0,554.0,6520.0,-192.0,-1172.0,987.0,0.854,0.112,-0.414,0.295
13977,7082.0,-160.0,5418.0,-324.0,-1028.0,1144.0,0.847,0.107,-0.424,0.3
13999,6852.0,-1212.0,4948.0,-214.0,-942.0,1059.0,0.841,0.103,-0.434,0.306
14011,7578.0,-352.0,5884.0,-93.0,-848.0,806.0,0.836,0.101,-0.441,0.31
14038,7528.0,690.0,6188.0,-210.0,-647.0,609.0,0.832,0.099,-0.448,0.313
14050,7480.0,808.0,6170.0,-581.0,-519.0,574.0,0.829,0.093,-0.454,0.313
14062,7448.0,326.0,6000.0,-993.0,-388.0,518.0,0.827,0.083,-0.46,0.312
14084,7266.0,-642.0,5648.0,-1189.0,-323.0,404.0,0.825,0.073,-0.467,0.309
14096,7320.0,-570.0,5628.0,-1296.0,-271.0,291.0,0.825,0.062,-0.473,0.305
14118,7226.0,-1088.0,5608.0,-1300.0,-211.0,225.0,0.824,0.052,-0.478,0.3
14130,7052.0,-524.0,5568.0,-1404.0,-128.0,195.0,0.824,0.04,-0.483,0.295
14152,7264.0,2148.0,5644.0,-2650.0,-67.0,159.0,0.824,0.019,-0.491,0.283
14174,7620.0,2270.0,5728.0,-4442.0,56.0,242.0,0.824,-0.017,-0.502,0.264
14186,7454.0,1110.0,3750.0,-5979.0,156.0,236.0,0.822,-0.064,-0.514,0.237
14208,7324.0,-2088.0,2114.0,-6332.0,195.0,39.0,0.817,-0.112,-0.526,0.206
14220,7030.0,-3290.0,1584.0,-5932.0,172.0,-160.0,0.811,-0.157,-0.536,0.175
14242,6964.0,-4774.0,1798.0,-5081.0,137.0,-233.0,0.804,-0.194,-0.543,0.148
14254,6946.0,-4832.0,2144.0,-4104.0,61.0,-203.0,0.796,-0.224,-0.548,0.126
14276,6784.0,-5260.0,1940.0,-3182.0,-21.0,-150.0,0.789,-0.246,-0.552,0.109
14288,6534.0,-5226.0,1980.0,-2333.0,-54.0,-135.0,0.783,-0.263,-0.555,0.096
14310,6676.0,-4538.0,1924.0,-1935.0,-120.0,-146.0,0.778,-0.276,-0.558,0.086
14332,6698.0,-4502.0,1890.0,-1642.0,-128.0,-47.0,0.773,-0.287,-0.561,0.078
14344,6718.0,-4246.0,1840.0,-1392.0,-139.0,69.0,0.768,-0.297,-0.563,0.072
14366,6912.0,-3528.0,1922.0,-1295.0,-161.0,95.0,0.764,-0.306,-0.565,0.066
14378,6958.0,-3576.0,1732.0,-1256.0,-138.0,70.0,0.759,-0.315,-0.566,0.061
14400,7086.0,-3860.0,1710.0,-1167.0,-125.0,1.0,0.755,-0.322,-0.568,0.055
14412,6998.0,-4384.0,1932.0,-949.0,-111.0,-131.0,0.752,-0.328,-0.57,0.05
14434,7034.0,-4234.0,1742.0,-789.0,-97.0,-200.0,0.749,-0.332,-0.571,0.045
14446,7174.0,-4202.0,1640.0,-762.0,-79.0,-193.0,0.747,-0.335,-0.573,0.041
14468,7092.0,-4512.0,1544.0,-774.0,-46.0,-126.0,0.744,-0.34,-0.574,0.036
14480,7036.0,-4336.0,1446.0,-710.0,-36.0,-113.0,0.742,-0.343,-0.575,0.033
14502,6976.0,-4300.0,1484.0,-569.0,-42.0,-80.0,0.74,-0.346,-0.576,0.03
14524,7018.0,-4176.0,1338.0,-496.0,-45.0,-55.0,0.738,-0.349,-0.577,0.027
14536,6876.0,-4232.0,1262.0,-481.0,-59.0,-70.0,0.736,-0.351,-0.578,0.025
14558,7136.0,-4266.0,1400.0,-530.0,-59.0,-85.0,0.734,-0.354,-0.579,0.022
14570,7112.0,-4076.0,1246.0,-517.0,-29.0,-70.0,0.732,-0.357,-0.58,0.019
14592,7000.0,-4128.0,1030.0,-436.0,2.0,-81.0,0.731,-0.359,-0.58,0.017
14604,7054.0,-4272.0,886.0,-355.0,-6.0,-108.0,0.73,-0.36,-0.581,0.015
14626,7208.0,-4084.0,1280.0,-283.0,0.0,-135.0,0.729,-0.361,-0.582,0.013
14638,7218.0,-4264.0,1260.0,-245.0,9.0,-138.0,0.728,-0.361,-0.582,0.011
14660,6970.0,-4466.0,1210.0,-94.0,28.0,-147.0,0.728,-0.36,-0.583,0.01
14682,7340.0,-4216.0,960.0,-133.0,46.0,-168.0,0.728,-0.36,-0.583,0.008
14694,7176.0,-4746.0,794.0,-204.0,72.0,-131.0,0.728,-0.36,-0.583,0.007
14716,7160.0,-4706.0,914.0,-239.0,91.0,-159.0,0.728,-0.36,-0.584,0.005
14728,7164.0,-4578.0,922.0,-270.0,77.0,-98.0,0.727,-0.361,-0.584,0.003
14750,7098.0,-4632.0,988.0,-220.0,51.0,-23.0,0.727,-0.362,-0.583,0.002
14762,7146.0,-4432.0,942.0,-177.0,33.0,20.0,0.727,-0.363,-0.583,0.001
14784,7106.0,-4316.0,704.0,-218.0,21.0,7.0,0.726,-0.364,-0.583,0.001
14796,7168.0,-4418.0,840.0,-239.0,21.0,-33.0,0.725,-0.365,-0.584,-0.0
14818,6988.0,-4342.0,832.0,-129.0,40.0,-6.0,0.725,-0.365,-0.584,-0.001
14830,7066.0,-4256.0,930.0,35.0,38.0,-5.0,0.726,-0.365,-0.584,-0.0
14852,7160.0,-4698.0,1068.0,261.0,42.0,-34.0,0.727,-0.362,-0.584,0.001
14874,7094.0,-4894.0,1326.0,518.0,39.0,-69.0,0.729,-0.358,-0.584,0.004
14886,7282.0,-4976.0,1350.0,732.0,52.0,-113.0,0.732,-0.352,-0.584,0.008
14908,6946.0,-6602.0,840.0,1363.0,69.0,-141.0,0.737,-0.341,-0.584,0.015
14920,6726.0,-8312.0,494.0,2761.0,52.0,-229.0,0.745,-0.321,-0.584,0.028
14942,6610.0,-7050.0,1280.0,4151.0,26.0,-235.0,0.757,-0.29,-0.583,0.05
14954,7174.0,-5836.0,3152.0,5063.0,91.0,-226.0,0.771,-0.252,-0.58,0.076
14976,7672.0,-4700.0,4036.0,5564.0,274.0,-236.0,0.784,-0.211,-0.574,0.103
14998,8422.0,-3650.0,4630.0,5610.0,537.0,-418.0,0.798,-0.168,-0.565,0.129
15010,9244.0,-4148.0,5338.0,5744.0,928.0,-825.0,0.811,-0.122,-0.551,0.151
15032,9772.0,-3520.0,5484.0,6006.0,1438.0,-1140.0,0.826,-0.073,-0.532,0.171
15044,10394.0,-2822.0,5934.0,6186.0,1974.0,-1384.0,0.841,-0.022,-0.507,0.189
15066,10324.0,-1294.0,6646.0,6110.0,2514.0,-1488.0,0.855,0.028,-0.476,0.205
15078,10382.0,468.0,7268.0,5487.0,2916.0,-1545.0,0.868,0.073,-0.441,0.216
15100,10134.0,1056.0,8424.0,4591.0,3208.0,-1539.0,0.88,0.109,-0.404,0.223
15112,10142.0,784.0,8190.0,3879.0,3407.0,-1573.0,0.891,0.139,-0.366,0.227
15134,9678.0,1422.0,7270.0,3538.0,3599.0,-1665.0,0.902,0.166,-0.327,0.228
15146,8994.0,2782.0,6818.0,3467.0,3723.0,-1827.0,0.911,0.192,-0.285,0.228
15169,8252.0,3058.0,7488.0,3152.0,3764.0,-2050.0,0.919,0.216,-0.243,0.224
15181,7222.0,3812.0,7256.0,2541.0,3775.0,-2055.0,0.926,0.234,-0.201,0.218
15203,5994.0,3802.0,7100.0,1810.0,3702.0,-1932.0,0.932,0.245,-0.161,0.211
15225,4860.0,3266.0,7228.0,1209.0,3538.0,-1790.0,0.938,0.251,-0.125,0.204
15237,4210.0,3962.0,6494.0,917.0,3399.0,-1677.0,0.943,0.254,-0.09,0.197
15259,3484.0,4720.0,5466.0,549.0,3321.0,-1601.0,0.947,0.255,-0.057,0.189
15271,2666.0,3674.0,5508.0,317.0,3235.0,-1523.0,0.95,0.252,-0.024,0.182
15293,1576.0,2940.0,5438.0,355.0,3100.0,-1404.0,0.952,0.25,0.007,0.176
15305,1160.0,4142.0,4800.0,270.0,2927.0,-1380.0,0.953,0.248,0.036,0.169
15327,536.0,3328.0,4442.0,77.0,2812.0,-1308.0,0.954,0.244,0.064,0.162
15339,-602.0,2552.0,4540.0,24.0,2633.0,-1229.0,0.954,0.239,0.09,0.156
15361,-844.0,2858.0,4660.0,-26.0,2390.0,-1245.0,0.954,0.235,0.113,0.149
15383,-1360.0,2860.0,4206.0,-159.0,2208.0,-1207.0,0.954,0.229,0.135,0.142
15395,-1760.0,2784.0,4020.0,-273.0,2045.0,-997.0,0.953,0.223,0.155,0.136
15417,-2172.0,2360.0,4106.0,-330.0,1901.0,-867.0,0.952,0.216,0.173,0.131
15429,-2488.0,2114.0,4196.0,-224.0,1675.0,-737.0,0.951,0.211,0.188,0.127
15451,-2742.0,2634.0,3882.0,-124.0,1463.0,-571.0,0.949,0.208,0.202,0.124
15463,-3252.0,2342.0,3656.0,-202.0,1265.0,-385.0,0.948,0.204,0.213,0.122
15485,-3286.0,2260.0,4284.0,-337.0,1038.0,-243.0,0.947,0.2,0.222,0.121
15497,-3284.0,2464.0,4892.0,-449.0,805.0,-136.0,0.946,0.195,0.229,0.122
15519,-3298.0,2250.0,5122.0,-514.0,549.0,23.0,0.946,0.189,0.233,0.124
15541,-3058.0,2530.0,5422.0,-433.0,422.0,209.0,0.945,0.186,0.236,0.128
15553,-2896.0,1828.0,5910.0,-112.0,222.0,351.0,0.944,0.185,0.237,0.131
15575,-2402.0,2052.0,5420.0,314.0,173.0,315.0,0.943,0.189,0.239,0.132
15587,-2094.0,3530.0,6218.0,389.0,304.0,288.0,0.942,0.193,0.241,0.133
15609,-2360.0,3300.0,7158.0,384.0,286.0,281.0,0.94,0.197,0.243,0.134
15621,-2604.0,4694.0,7084.0,571.0,339.0,322.0,0.938,0.203,0.245,0.135
15643,-2876.0,4760.0,6334.0,425.0,287.0,445.0,0.937,0.208,0.247,0.137
15655,-2750.0,4728.0,6414.0,166.0,263.0,538.0,0.935,0.211,0.248,0.14
15677,-3068.0,3610.0,6574.0,148.0,131.0,528.0,0.934,0.213,0.248,0.143
15689,-2990.0,2608.0,6082.0,742.0,-16.0,248.0,0.932,0.221,0.248,0.142
15711,-2778.0,3096.0,5798.0,1625.0,-161.0,-62.0,0.93,0.235,0.248,0.136
15733,-2984.0,2384.0,5534.0,3087.0,-422.0,-316.0,0.924,0.262,0.249,0.124
15745,-2742.0,3020.0,5172.0,4379.0,-589.0,-351.0,0.914,0.3,0.249,0.108
15767,-2194.0,3198.0,4896.0,5397.0,-682.0,-172.0,0.9,0.346,0.248,0.091
15779,-1976.0,3562.0,4144.0,6248.0,-749.0,-16.0,0.88,0.399,0.247,0.072
15801,-1692.0,4722.0,3288.0,6662.0,-785.0,88.0,0.856,0.453,0.244,0.055
15813,-906.0,6300.0,1730.0,6497.0,-713.0,117.0,0.828,0.505,0.241,0.038
15835,-1094.0,7756.0,-558.0,5659.0,-555.0,204.0,0.801,0.549,0.237,0.024
15847,-882.0,9882.0,-422.0,3958.0,-189.0,135.0,0.781,0.579,0.235,0.016
15869,-226.0,13388.0,1322.0,1917.0,323.0,231.0,0.769,0.593,0.237,0.015
15881,-2698.0,6478.0,314.0,1471.0,228.0,58.0,0.761,0.604,0.238,0.013
15903,-1830.0,10114.0,-1356.0,561.0,-14.0,-86.0,0.758,0.607,0.239,0.011
15925,-2800.0,8768.0,-2508.0,-1269.0,187.0,232.0,0.764,0.599,0.239,0.017
15937,-3680.0,6188.0,-486.0,-1244.0,-112.0,84.0,0.771,0.59,0.237,0.02
15959,-1790.0,6984.0,1440.0,-649.0,-178.0,-199.0,0.775,0.585,0.237,0.019
15971,-1494.0,7370.0,1990.0,-560.0,-68.0,-289.0,0.779,0.58,0.238,0.018
15993,-932.0,9310.0,2006.0,-772.0,37.0,-248.0,0.783,0.574,0.239,0.018
16005,-1564.0,7478.0,1298.0,-660.0,117.0,-326.0,0.786,0.569,0.241,0.018
16027,-1662.0,6878.0,1906.0,-278.0,-4.0,-466.0,0.788,0.566,0.244,0.015
16044,-832.0,8710.0,2202.0,-272.0,-67.0,-567.0,0.789,0.562,0.246,0.011
16056,-896.0,7130.0,1518.0,-352.0,-10.0,-627.0,0.791,0.558,0.249,0.007
16078,-1412.0,6880.0,1536.0,-153.0,-52.0,-636.0,0.792,0.556,0.252,0.002
16100,-1906.0,7412.0,788.0,28.0,-117.0,-696.0,0.792,0.555,0.255,-0.003
16112,-1766.0,7266.0,2776.0,-122.0,-227.0,-755.0,0.793,0.552,0.257,-0.009
16134,-1240.0,6086.0,2242.0,-176.0,-136.0,-802.0,0.794,0.549,0.26,-0.016
16146,-2288.0,6282.0,1092.0,-200.0,-111.0,-756.0,0.796,0.545,0.263,-0.021
16168,-2988.0,6816.0,1566.0,-502.0,-155.0,-744.0,0.798,0.54,0.266,-0.026
16180,-2266.0,5676.0,2610.0,-596.0,-188.0,-939.0,0.801,0.533,0.269,-0.033
16202,-2314.0,6356.0,232.0,-534.0,-151.0,-949.0,0.804,0.527,0.273,-0.039
16224,-2332.0,7966.0,1186.0,-534.0,-62.0,-953.0,0.806,0.52,0.277,-0.045
16236,-1118.0,8732.0,3538.0,-518.0,26.0,-1045.0,0.808,0.514,0.283,-0.051
16258,-1862.0,7420.0,2838.0,-571.0,163.0,-1002.0,0.81,0.507,0.288,-0.056
16270,-1896.0,7290.0,2178.0,-357.0,171.0,-1083.0,0.811,0.502,0.295,-0.062
16292,-1918.0,8496.0,3568.0,-142.0,178.0,-1087.0,0.81,0.498,0.301,-0.07
16304,-2494.0,7638.0,2274.0,66.0,242.0,-1051.0,0.809,0.496,0.307,-0.076
16326,-4168.0,6560.0,722.0,223.0,216.0,-931.0,0.806,0.495,0.313,-0.083
16338,-3642.0,8012.0,3058.0,418.0,51.0,-901.0,0.803,0.496,0.317,-0.091
16360,-4454.0,7060.0,3130.0,501.0,-70.0,-879.0,0.8,0.497,0.32,-0.099
16372,-5178.0,7292.0,1560.0,399.0,-240.0,-786.0,0.799,0.498,0.321,-0.107
16394,-5840.0,4910.0,1634.0,355.0,-221.0,-669.0,0.797,0.498,0.323,-0.114
16416,-5808.0,5504.0,2158.0,584.0,-310.0,-684.0,0.794,0.5,0.323,-0.123
16428,-6294.0,5766.0,1606.0,641.0,-292.0,-585.0,0.791,0.502,0.323,-0.13
16450,-7190.0,5282.0,2474.0,427.0,-311.0,-439.0,0.79,0.504,0.323,-0.136
16462,-7348.0,5304.0,2148.0,426.0,-309.0,-376.0,0.788,0.506,0.322,-0.142
16484,-8350.0,5192.0,1852.0,433.0,-367.0,-147.0,0.787,0.508,0.319,-0.146
16496,-8246.0,5052.0,2448.0,532.0,-346.0,-197.0,0.785,0.511,0.317,-0.151
16518,-7564.0,5084.0,2042.0,494.0,-224.0,423.0,0.784,0.515,0.312,-0.15
16530,-9122.0,5872.0,1812.0,314.0,-209.0,-980.0,0.782,0.514,0.315,-0.159
16552,-8026.0,4598.0,2484.0,372.0,-151.0,-985.0,0.779,0.514,0.318,-0.168
16564,-8154.0,5092.0,2472.0,404.0,-61.0,-782.0,0.776,0.514,0.321,-0.175
16586,-7838.0,5392.0,2362.0,354.0,-34.0,-993.0,0.773,0.514,0.325,-0.184
16608,-7334.0,4984.0,2132.0,436.0,22.0,-857.0,0.769,0.514,0.328,-0.191
16620,-6476.0,4770.0,2114.0,515.0,57.0,-639.0,0.765,0.516,0.331,-0.197
16642,-7474.0,6052.0,2330.0,333.0,65.0,-1146.0,0.761,0.515,0.336,-0.205
16654,-6326.0,4740.0,2378.0,279.0,-5.0,-1426.0,0.757,0.512,0.343,-0.216
16676,-5934.0,4880.0,2804.0,239.0,-96.0,-1203.0,0.754,0.509,0.348,-0.225
16688,-5558.0,5006.0,2632.0,313.0,-284.0,-1129.0,0.752,0.507,0.351,-0.235
16710,-5118.0,4656.0,922.0,408.0,-316.0,-894.0,0.749,0.506,0.352,-0.243
16722,-5840.0,3174.0,-698.0,512.0,-480.0,-837.0,0.746,0.505,0.352,-0.253
16744,-4990.0,4050.0,28.0,610.0,-744.0,-819.0,0.744,0.505,0.35,-0.263
16766,-4598.0,4304.0,318.0,643.0,-971.0,-849.0,0.742,0.504,0.346,-0.275
16778,-4450.0,3814.0,10.0,626.0,-1167.0,-726.0,0.742,0.502,0.34,-0.287
16800,-4112.0,3968.0,-390.0,668.0,-1306.0,-497.0,0.741,0.501,0.332,-0.298
16812,-4164.0,3732.0,-814.0,735.0,-1415.0,-248.0,0.742,0.501,0.322,-0.308
16834,-4170.0,3480.0,-494.0,891.0,-1534.0,9.0,0.743,0.503,0.309,-0.317
16846,-4446.0,2984.0,102.0,1032.0,-1573.0,281.0,0.743,0.506,0.294,-0.324
16868,-4570.0,3518.0,422.0,1092.0,-1586.0,485.0,0.744,0.51,0.278,-0.331
16880,-5560.0,2260.0,-40.0,1121.0,-1573.0,643.0,0.745,0.514,0.261,-0.336
16902,-5704.0,2774.0,-90.0,1365.0,-1597.0,761.0,0.745,0.52,0.243,-0.34
16924,-6042.0,3744.0,1636.0,1503.0,-1567.0,936.0,0.745,0.527,0.223,-0.344
16936,-6414.0,4166.0,2878.0,1346.0,-1443.0,1061.0,0.744,0.533,0.204,-0.346
16958,-7006.0,3848.0,2670.0,1310.0,-1341.0,1125.0,0.744,0.54,0.186,-0.346
16970,-6600.0,4630.0,2584.0,1446.0,-1342.0,1166.0,0.743,0.547,0.167,-0.348
16992,-6108.0,5296.0,2958.0,1485.0,-1253.0,1411.0,0.741,0.556,0.146,-0.347
17004,-7228.0,5842.0,2696.0,1367.0,-1446.0,600.0,0.738,0.561,0.129,-0.352
17026,-5582.0,5550.0,2250.0,1294.0,-1486.0,-67.0,0.733,0.565,0.115,-0.362
17038,-3744.0,6454.0,3120.0,1169.0,-1309.0,263.0,0.729,0.569,0.1,-0.368
17060,-4420.0,6658.0,1930.0,1288.0,-1329.0,-359.0,0.722,0.573,0.089,-0.378
17072,-2354.0,7184.0,2528.0,778.0,-988.0,1039.0,0.722,0.575,0.073,-0.377
17094,-4340.0,6152.0,2678.0,993.0,-1130.0,942.0,0.721,0.578,0.057,-0.377
17116,-3044.0,7264.0,3490.0,749.0,-987.0,1025.0,0.721,0.58,0.042,-0.376
17128,-3424.0,7808.0,2808.0,536.0,-813.0,924.0,0.722,0.581,0.029,-0.374
17150,-2992.0,7466.0,2748.0,357.0,-753.0,704.0,0.722,0.581,0.019,-0.374
17162,-2726.0,7164.0,2874.0,267.0,-585.0,640.0,0.723,0.581,0.011,-0.372
17184,-2588.0,7760.0,3148.0,230.0,-491.0,721.0,0.725,0.581,0.002,-0.37
17196,-2750.0,8112.0,3764.0,-52.0,-410.0,692.0,0.727,0.579,-0.004,-0.368
17218,-2434.0,7704.0,3738.0,-379.0,-278.0,647.0,0.732,0.576,-0.008,-0.365
17230,-2628.0,6846.0,3958.0,-321.0,-186.0,768.0,0.736,0.572,-0.013,-0.361
17252,-2738.0,8318.0,4074.0,-367.0,-135.0,691.0,0.741,0.569,-0.016,-0.357
17274,-2768.0,7710.0,4258.0,-542.0,-45.0,640.0,0.746,0.565,-0.018,-0.352
17286,-2588.0,8166.0,4186.0,-670.0,40.0,652.0,0.751,0.561,-0.019,-0.348
17308,-2864.0,7498.0,4056.0,-668.0,139.0,550.0,0.757,0.556,-0.019,-0.343
17320,-2616.0,8020.0,3966.0,-669.0,234.0,537.0,0.762,0.552,-0.018,-0.338
17342,-2972.0,7774.0,3776.0,-714.0,313.0,543.0,0.767,0.548,-0.016,-0.333
17354,-2924.0,7880.0,3658.0,-661.0,305.0,481.0,0.772,0.544,-0.014,-0.328
17376,-2936.0,7526.0,3700.0,-600.0,276.0,445.0,0.777,0.54,-0.013,-0.324
17388,-2804.0,7098.0,3140.0,-554.0,239.0,446.0,0.781,0.537,-0.012,-0.319
17410,-2680.0,6970.0,3332.0,-485.0,183.0,453.0,0.784,0.534,-0.011,-0.315
17432,-2616.0,7258.0,3196.0,-411.0,130.0,457.0,0.788,0.532,-0.011,-0.311
17444,-2638.0,6808.0,3006.0,-440.0,93.0,468.0,0.791,0.529,-0.012,-0.307
17466,-2568.0,6716.0,2930.0,-290.0,74.0,420.0,0.794,0.527,-0.012,-0.303
17478,-2744.0,6962.0,3010.0,-280.0,81.0,414.0,0.797,0.525,-0.012,-0.299
17500,-2720.0,6196.0,3332.0,-192.0,123.0,389.0,0.799,0.524,-0.012,-0.295
17512,-2964.0,6674.0,3128.0,-118.0,126.0,353.0,0.8,0.523,-0.012,-0.292
17534,-3042.0,6480.0,3200.0,-56.0,156.0,341.0,0.801,0.524,-0.013,-0.289
17546,-2996.0,6886.0,3418.0,-82.0,170.0,371.0,0.803,0.523,-0.013,-0.285
17568,-2744.0,6302.0,3444.0,-46.0,240.0,377.0,0.804,0.524,-0.012,-0.281
17580,-2920.0,6374.0,3128.0,-11.0,300.0,381.0,0.805,0.524,-0.011,-0.276
17602,-2952.0,6100.0,3114.0,134.0,348.0,338.0,0.806,0.526,-0.01,-0.272
17624,-2832.0,7256.0,3148.0,134.0,339.0,315.0,0.806,0.528,-0.01,-0.268
17636,-2610.0,6730.0,3154.0,111.0,361.0,287.0,0.806,0.53,-0.008,-0.264
17658,-2316.0,7436.0,2830.0,156.0,353.0,276.0,0.806,0.532,-0.007,-0.259
17670,-2174.0,7062.0,2960.0,167.0,405.0,270.0,0.806,0.535,-0.006,-0.255
17692,-2208.0,7090.0,2882.0,247.0,404.0,213.0,0.805,0.537,-0.004,-0.251
17704,-2266.0,7202.0,2558.0,269.0,403.0,174.0,0.804,0.541,-0.002,-0.248
17726,-2210.0,7550.0,2712.0,348.0,346.0,204.0,0.803,0.544,-0.001,-0.244
17738,-2080.0,7678.0,2582.0,275.0,278.0,222.0,0.802,0.547,-0.001,-0.24
17760,-2016.0,7212.0,2404.0,282.0,219.0,240.0,0.801,0.55,-0.001,-0.237
17782,-1870.0,7174.0,2304.0,317.0,147.0,245.0,0.8,0.552,-0.002,-0.234
17794,-1822.0,7172.0,2080.0,375.0,94.0,244.0,0.799,0.556,-0.003,-0.231
17816,-1816.0,7484.0,2018.0,444.0,33.0,246.0,0.797,0.559,-0.005,-0.229
17828,-1700.0,7354.0,2352.0,376.0,6.0,286.0,0.795,0.562,-0.007,-0.226
17850,-1438.0,8130.0,2542.0,319.0,2.0,290.0,0.794,0.565,-0.009,-0.224
17862,-1542.0,7776.0,2666.0,333.0,37.0,284.0,0.793,0.567,-0.011,-0.221
17884,-1460.0,8550.0,2758.0,346.0,83.0,288.0,0.792,0.57,-0.012,-0.218
17896,-1594.0,8262.0,2714.0,320.0,131.0,281.0,0.791,0.573,-0.013,-0.215
17918,-1702.0,8364.0,3118.0,265.0,134.0,265.0,0.79,0.575,-0.014,-0.212
17930,-2008.0,9028.0,3116.0,-2.0,166.0,69.0,0.79,0.575,-0.013,-0.211
17953,-1776.0,7480.0,2762.0,2.0,110.0,126.0,0.791,0.575,-0.012,-0.209
17975,-1902.0,7744.0,2560.0,61.0,47.0,164.0,0.791,0.576,-0.013,-0.207
17987,-1928.0,7876.0,2454.0,77.0,-31.0,48.0,0.79,0.576,-0.013,-0.207
18009,-1688.0,7156.0,2108.0,108.0,-74.0,56.0,0.79,0.577,-0.014,-0.206
18021,-1638.0,7242.0,2206.0,142.0,-105.0,122.0,0.789,0.578,-0.016,-0.206
18048,-1680.0,7200.0,1862.0,90.0,-98.0,117.0,0.789,0.579,-0.017,-0.205
18060,-1460.0,7198.0,2030.0,27.0,-118.0,121.0,0.789,0.579,-0.019,-0.205
18072,-1388.0,7322.0,2412.0,-59.0,-104.0,154.0,0.79,0.578,-0.02,-0.204
18094,-1364.0,7102.0,2248.0,-98.0,-75.0,166.0,0.791,0.577,-0.021,-0.203
18106,-1396.0,7384.0,1926.0,-74.0,-22.0,189.0,0.791,0.577,-0.022,-0.201
18128,-1542.0,7576.0,2140.0,41.0,-3.0,171.0,0.792,0.577,-0.023,-0.2
18150,-1546.0,7960.0,2396.0,49.0,25.0,136.0,0.792,0.578,-0.023,-0.198
18162,-1644.0,8034.0,2580.0,23.0,23.0,108.0,0.792,0.578,-0.024,-0.197
18184,-1696.0,8122.0,2770.0,-35.0,25.0,86.0,0.792,0.578,-0.024,-0.196
18196,-1752.0,7958.0,2564.0,-47.0,18.0,56.0,0.792,0.577,-0.024,-0.195
18218,-1724.0,8050.0,2540.0,-33.0,29.0,18.0,0.793,0.577,-0.023,-0.195
18230,-1706.0,7982.0,2396.0,3.0,24.0,-34.0,0.793,0.577,-0.023,-0.195
18252,-1620.0,7692.0,2276.0,-27.0,23.0,-43.0,0.793,0.577,-0.022,-0.195
18264,-1490.0,7520.0,2316.0,-38.0,24.0,-25.0,0.793,0.577,-0.022,-0.195
18286,-1484.0,7340.0,2470.0,-44.0,18.0,-21.0,0.793,0.577,-0.021,-0.194
18298,-1426.0,7208.0,2412.0,-32.0,0.0,-23.0,0.793,0.577,-0.021,-0.194
18320,-1420.0,7326.0,2334.0,-64.0,-5.0,-11.0,0.794,0.576,-0.02,-0.194
18342,-1392.0,7320.0,2458.0,-8.0,-5.0,-1.0,0.794,0.576,-0.02,-0.194
18354,-1412.0,7652.0,2434.0,-13.0,8.0,11.0,0.794,0.576,-0.02,-0.194
18376,-1490.0,7524.0,2444.0,-4.0,16.0,13.0,0.794,0.576,-0.02,-0.193
18388,-1524.0,7590.0,2400.0,-3.0,27.0,11.0,0.794,0.576,-0.02,-0.193
18410,-1554.0,7658.0,2618.0,-16.0,30.0,15.0,0.794,0.576,-0.019,-0.192
18422,-1594.0,8020.0,2608.0,-39.0,18.0,9.0,0.794,0.576,-0.019,-0.192
18444,-1682.0,7484.0,2354.0,-63.0,15.0,-1.0,0.795,0.576,-0.019,-0.191
18456,-1610.0,7532.0,2474.0,-40.0,18.0,0.0,0.795,0.576,-0.018,-0.191
18478,-1650.0,7568.0,2468.0,-9.0,13.0,-7.0,0.795,0.576,-0.018,-0.191
18500,-1532.0,7544.0,2506.0,-5.0,7.0,-16.0,0.795,0.576,-0.018,-0.191
18512,-1604.0,7384.0,2460.0,0.0,-2.0,-9.0,0.795,0.576,-0.017,-0.191
18534,-1556.0,7446.0,2452.0,18.0,-10.0,-10.0,0.795,0.576,-0.017,-0.191
18546,-1536.0,7386.0,2502.0,15.0,-13.0,7.0,0.795,0.576,-0.017,-0.19
18568,-1578.0,7440.0,2370.0,19.0,-18.0,7.0,0.795,0.576,-0.017,-0.19
18580,-1536.0,7650.0,2296.0,18.0,-15.0,5.0,0.795,0.576,-0.017,-0.19
18602,-1542.0,7540.0,2334.0,12.0,-14.0,9.0,0.795,0.577,-0.017,-0.19
18614,-1556.0,7734.0,2482.0,-5.0,-5.0,12.0,0.795,0.577,-0.017,-0.19
18636,-1552.0,7568.0,2370.0,-17.0,-12.0,1.0,0.795,0.576,-0.017,-0.189
18658,-1556.0,7626.0,2470.0,-5.0,-1.0,5.0,0.795,0.576,-0.017,-0.189
18670,-1552.0,7480.0,2400.0,-6.0,1.0,0.0,0.795,0.577,-0.017,-0.189
18692,-1516.0,7488.0,2416.0,5.0,7.0,-10.0,0.795,0.577,-0.017,-0.189
18704,-1544.0,7446.0,2362.0,12.0,23.0,-12.0,0.795,0.577,-0.016,-0.188
18726,-1452.0,7602.0,2428.0,17.0,25.0,-13.0,0.795,0.577,-0.016,-0.188
18738,-1560.0,7470.0,2466.0,25.0,26.0,-16.0,0.794,0.577,-0.016,-0.188
18760,-1552.0,7490.0,2398.0,31.0,21.0,-20.0,0.794,0.578,-0.015,-0.188
18772,-1518.0,7650.0,2400.0,19.0,19.0,-13.0,0.794,0.578,-0.015,-0.187
18794,-1576.0,7524.0,2414.0,5.0,20.0,-12.0,0.794,0.578,-0.015,-0.187
18806,-1566.0,7596.0,2390.0,9.0,22.0,-16.0,0.794,0.578,-0.014,-0.187
18828,-1596.0,7570.0,2380.0,12.0,17.0,-21.0,0.794,0.578,-0.014,-0.187
18850,-1538.0,7644.0,2444.0,16.0,9.0,-18.0,0.794,0.579,-0.014,-0.187
18862,-1556.0,7466.0,2356.0,14.0,14.0,-25.0,0.794,0.579,-0.013,-0.187
18884,-1514.0,7596.0,2396.0,11.0,11.0,-26.0,0.794,0.579,-0.013,-0.186
18896,-1510.0,7578.0,2332.0,14.0,3.0,-31.0,0.794,0.579,-0.013,-0.186
18918,-1570.0,7578.0,2312.0,-8.0,1.0,-31.0,0.794,0.579,-0.012,-0.186
18930,-1554.0,7620.0,2416.0,-12.0,-5.0,-28.0,0.794,0.579,-0.012,-0.186
18952,-1610.0,7522.0,2428.0,-24.0,-4.0,-34.0,0.794,0.579,-0.012,-0.187
18964,-1542.0,7554.0,2374.0,-27.0,3.0,-31.0,0.794,0.579,-0.011,-0.187
18986,-1608.0,7540.0,2402.0,-15.0,4.0,-39.0,0.794,0.579,-0.011,-0.187
19008,-1560.0,7568.0,2392.0,-8.0,5.0,-44.0,0.794,0.579,-0.01,-0.187
19020,-1666.0,7592.0,2456.0,-11.0,8.0,-33.0,0.794,0.579,-0.01,-0.187
19042,-1608.0,7448.0,2320.0,-15.0,5.0,-40.0,0.794,0.579,-0.01,-0.187
19054,-1640.0,7518.0,2396.0,-13.0,2.0,-40.0,0.794,0.579,-0.009,-0.187
19076,-1580.0,7528.0,2450.0,-16.0,-1.0,-39.0,0.794,0.579,-0.009,-0.187
19088,-1652.0,7540.0,2398.0,-22.0,-6.0,-29.0,0.794,0.578,-0.009,-0.187
19110,-1602.0,7506.0,2420.0,-31.0,-10.0,-29.0,0.794,0.578,-0.008,-0.187
19122,-1592.0,7486.0,2382.0,-24.0,-13.0,-30.0,0.794,0.578,-0.008,-0.187
19144,-1670.0,7500.0,2440.0,-30.0,-14.0,-31.0,0.794,0.578,-0.008,-0.187
19166,-1648.0,7538.0,2454.0,-22.0,-13.0,-29.0,0.794,0.578,-0.008,-0.187
19178,-1654.0,7532.0,2370.0,-20.0,-17.0,-31.0,0.794,0.578,-0.007,-0.187
19200,-1672.0,7492.0,2482.0,-23.0,-15.0,-31.0,0.795,0.578,-0.007,-0.187
19212,-1622.0,7574.0,2394.0,-31.0,-15.0,-35.0,0.795,0.577,-0.007,-0.187
19234,-1662.0,7474.0,2490.0,-36.0,-15.0,-26.0,0.795,0.577,-0.006,-0.188
19246,-1614.0,7550.0,2416.0,-31.0,-15.0,-28.0,0.795,0.577,-0.006,-0.188
19268,-1706.0,7530.0,2488.0,-27.0,-9.0,-30.0,0.795,0.577,-0.006,-0.187
19280,-1626.0,7454.0,2188.0,8.0,2.0,-42.0,0.795,0.577,-0.005,-0.187
19302,-1706.0,7762.0,2056.0,51.0,8.0,-67.0,0.795,0.577,-0.005,-0.188
19314,-1566.0,8044.0,2216.0,117.0,35.0,-84.0,0.794,0.579,-0.004,-0.188
19336,-1494.0,8926.0,2888.0,131.0,86.0,-128.0,0.793,0.58,-0.003,-0.188
19358,-1396.0,9506.0,2904.0,-44.0,168.0,-166.0,0.793,0.58,-0.001,-0.188
19370,-862.0,10026.0,3084.0,-171.0,290.0,-299.0,0.793,0.579,0.003,-0.189
19392,-872.0,8840.0,3290.0,-122.0,495.0,-469.0,0.793,0.579,0.01,-0.189
19404,-1170.0,9930.0,3616.0,3.0,587.0,-611.0,0.792,0.58,0.018,-0.19
19426,-1688.0,10686.0,4054.0,-83.0,681.0,-759.0,0.791,0.58,0.027,-0.192
19438,-1806.0,10926.0,4574.0,-413.0,771.0,-825.0,0.792,0.578,0.039,-0.193
19460,-2524.0,10070.0,4628.0,-517.0,902.0,-871.0,0.793,0.576,0.051,-0.195
19472,-2824.0,11692.0,5492.0,-463.0,584.0,-812.0,0.793,0.573,0.061,-0.197
19494,-3274.0,11190.0,5158.0,-698.0,1069.0,-1072.0,0.794,0.569,0.076,-0.199
19516,-3320.0,11050.0,5606.0,-826.0,1022.0,-1406.0,0.795,0.564,0.092,-0.203
19528,-3458.0,10420.0,5542.0,-1125.0,1118.0,-1463.0,0.797,0.556,0.111,-0.207
19550,-4102.0,9606.0,4980.0,-1290.0,1163.0,-1481.0,0.8,0.547,0.13,-0.21
19562,-3702.0,9564.0,4656.0,-1456.0,1310.0,-1807.0,0.802,0.536,0.152,-0.215
19584,-3880.0,8644.0,4474.0,-1626.0,1380.0,-2130.0,0.804,0.524,0.176,-0.221
19596,-3746.0,8058.0,4122.0,-1775.0,1385.0,-2233.0,0.805,0.509,0.201,-0.227
19618,-3632.0,7078.0,3070.0,-1985.0,1430.0,-2301.0,0.807,0.493,0.227,-0.233
19630,-3658.0,6666.0,2638.0,-2085.0,1427.0,-2429.0,0.808,0.475,0.253,-0.24
19652,-3376.0,5836.0,2008.0,-2279.0,1477.0,-2434.0,0.809,0.455,0.28,-0.246
19674,-3654.0,4650.0,1918.0,-2339.0,1466.0,-2432.0,0.809,0.434,0.306,-0.252
19686,-3588.0,4066.0,1864.0,-2376.0,1438.0,-2321.0,0.808,0.413,0.332,-0.257
19708,-3596.0,4008.0,1458.0,-2397.0,1414.0,-2169.0,0.807,0.391,0.357,-0.26
19720,-3620.0,3184.0,1340.0,-2388.0,1388.0,-1992.0,0.806,0.37,0.38,-0.262
19742,-3930.0,2744.0,1060.0,-2316.0,1304.0,-1962.0,0.804,0.348,0.402,-0.264
19754,-4210.0,2272.0,664.0,-2352.0,1162.0,-2155.0,0.802,0.325,0.423,-0.267
19776,-4030.0,1664.0,606.0,-2316.0,1041.0,-2121.0,0.799,0.302,0.443,-0.271
19788,-4052.0,1614.0,260.0,-2273.0,964.0,-1931.0,0.797,0.279,0.461,-0.273
19810,-4358.0,938.0,750.0,-2170.0,862.0,-1713.0,0.794,0.258,0.478,-0.274
19822,-4738.0,388.0,706.0,-2066.0,754.0,-1473.0,0.791,0.238,0.492,-0.274
19844,-5054.0,140.0,648.0,-1946.0,650.0,-1261.0,0.789,0.22,0.504,-0.273
19866,-5642.0,-252.0,292.0,-1871.0,563.0,-1009.0,0.788,0.202,0.515,-0.27
19878,-6266.0,-328.0,1096.0,-1866.0,467.0,-799.0,0.787,0.186,0.525,-0.266
19900,-6684.0,-638.0,1022.0,-2002.0,416.0,-560.0,0.787,0.17,0.534,-0.26
19912,-7446.0,-1852.0,1320.0,-1855.0,382.0,-256.0,0.787,0.155,0.542,-0.252
19934,-7796.0,-1390.0,944.0,-1834.0,334.0,39.0,0.787,0.143,0.549,-0.242
19946,-8322.0,-1804.0,1338.0,-1802.0,345.0,308.0,0.788,0.132,0.555,-0.23
19968,-8804.0,-408.0,1536.0,-2030.0,387.0,452.0,0.79,0.12,0.562,-0.216
19980,-9466.0,-996.0,1708.0,-2600.0,444.0,376.0,0.791,0.104,0.57,-0.199
20002,-10250.0,-2314.0,3058.0,-2353.0,299.0,194.0,0.791,0.088,0.576,-0.184
20024,-10416.0,-1622.0,3040.0,-1988.0,193.0,125.0,0.792,0.074,0.581,-0.173
20036,-10830.0,-1278.0,3472.0,-1952.0,187.0,56.0,0.792,0.06,0.585,-0.161
20053,-10450.0,-750.0,4126.0,-1874.0,212.0,32.0,0.792,0.047,0.589,-0.151
20075,-10490.0,-404.0,3054.0,-1826.0,310.0,103.0,0.791,0.035,0.594,-0.14
20087,-10504.0,-420.0,3202.0,-1767.0,397.0,-24.0,0.79,0.022,0.599,-0.13
20109,-10444.0,-54.0,2934.0,-1822.0,535.0,-112.0,0.787,0.008,0.605,-0.121
20121,-10952.0,-830.0,2558.0,-1888.0,645.0,-207.0,0.783,-0.006,0.612,-0.111
20143,-11416.0,-582.0,3128.0,-1970.0,770.0,-282.0,0.778,-0.021,0.62,-0.102
20165,-11480.0,-1640.0,2748.0,-1925.0,826.0,-321.0,0.772,-0.036,0.627,-0.094
20177,-11502.0,-3042.0,2320.0,-1900.0,902.0,-275.0,0.766,-0.051,0.635,-0.085
20199,-11566.0,-1068.0,934.0,-1647.0,2305.0,877.0,0.752,-0.055,0.653,-0.07
20211,-11364.0,-878.0,1288.0,-1525.0,981.0,-1337.0,0.744,-0.073,0.66,-0.07
20233,-9996.0,-2826.0,1212.0,-1467.0,991.0,-715.0,0.736,-0.087,0.667,-0.067
20245,-10590.0,-1808.0,-380.0,-1347.0,718.0,-503.0,0.731,-0.099,0.673,-0.063
20267,-8858.0,-1542.0,416.0,-1390.0,754.0,-92.0,0.724,-0.109,0.679,-0.055
20279,-8758.0,-1296.0,836.0,-1409.0,542.0,-1.0,0.72,-0.118,0.683,-0.047
20301,-8436.0,-1322.0,1124.0,-1446.0,431.0,140.0,0.715,-0.126,0.686,-0.037
20313,-8164.0,-1374.0,1422.0,-1182.0,242.0,-63.0,0.713,-0.134,0.688,-0.03
20335,-7850.0,-1550.0,250.0,-1049.0,62.0,-28.0,0.711,-0.142,0.689,-0.023
20357,-7606.0,-2724.0,-1300.0,-821.0,-113.0,196.0,0.71,-0.146,0.688,-0.017
20369,-6762.0,-676.0,176.0,-841.0,-74.0,465.0,0.71,-0.149,0.689,-0.008
20391,-7022.0,-1064.0,386.0,-928.0,-149.0,570.0,0.709,-0.151,0.689,0.002
20403,-7062.0,-1586.0,-46.0,-1038.0,-208.0,607.0,0.709,-0.154,0.688,0.013
20425,-6838.0,-1624.0,4.0,-981.0,-314.0,677.0,0.71,-0.156,0.687,0.024
20437,-7070.0,-1422.0,-710.0,-956.0,-307.0,737.0,0.71,-0.158,0.685,0.035
20459,-6900.0,-1488.0,-808.0,-995.0,-316.0,714.0,0.71,-0.159,0.684,0.047
20471,-6526.0,-1718.0,1140.0,-931.0,-390.0,686.0,0.711,-0.161,0.682,0.058
20493,-6210.0,-1372.0,912.0,-822.0,-525.0,648.0,0.713,-0.162,0.679,0.068
20505,-5738.0,-1140.0,222.0,-775.0,-511.0,598.0,0.714,-0.163,0.676,0.078
20527,-6440.0,-2196.0,-842.0,-908.0,-484.0,683.0,0.715,-0.165,0.673,0.089
20549,-5892.0,-1802.0,386.0,-951.0,-466.0,723.0,0.716,-0.166,0.67,0.1
20561,-6510.0,-1398.0,568.0,-963.0,-538.0,843.0,0.717,-0.167,0.667,0.113
20583,-5672.0,-1718.0,1330.0,-737.0,-649.0,860.0,0.719,-0.165,0.663,0.124
20595,-4978.0,-968.0,480.0,-442.0,-712.0,925.0,0.722,-0.162,0.659,0.134
20617,-5336.0,-1594.0,24.0,-483.0,-640.0,1041.0,0.724,-0.158,0.656,0.145
20629,-4132.0,-1778.0,564.0,-199.0,-655.0,963.0,0.726,-0.152,0.653,0.154
20651,-3496.0,260.0,448.0,-85.0,-586.0,929.0,0.728,-0.147,0.65,0.162
20663,-3066.0,-1428.0,-78.0,137.0,-482.0,734.0,0.73,-0.14,0.648,0.166
20685,-2290.0,-838.0,376.0,135.0,-205.0,539.0,0.731,-0.136,0.647,0.17
20707,-2172.0,-704.0,222.0,36.0,106.0,256.0,0.73,-0.134,0.648,0.171
20719,-1774.0,-1306.0,916.0,71.0,370.0,-131.0,0.728,-0.135,0.651,0.169
20741,-1754.0,-1008.0,1220.0,219.0,582.0,-458.0,0.725,-0.137,0.655,0.164
20753,928.0,-2084.0,1424.0,101.0,858.0,106.0,0.72,-0.137,0.661,0.163
20775,-4222.0,1508.0,670.0,-49.0,1042.0,-1454.0,0.715,-0.148,0.666,0.152
20787,-1556.0,-2068.0,678.0,-311.0,1111.0,-1379.0,0.71,-0.16,0.671,0.143
20809,-4454.0,-910.0,1000.0,-260.0,1153.0,-1306.0,0.704,-0.172,0.676,0.135
20821,-5050.0,-1512.0,-1578.0,-534.0,1145.0,-1156.0,0.697,-0.184,0.681,0.128
20844,-7468.0,-1994.0,278.0,-593.0,994.0,-805.0,0.691,-0.194,0.685,0.125
20856,-8156.0,-2938.0,1164.0,-276.0,757.0,-494.0,0.687,-0.2,0.688,0.122
20878,-8102.0,-886.0,1748.0,230.0,444.0,-761.0,0.685,-0.204,0.69,0.115
20900,-6796.0,-1668.0,2206.0,578.0,334.0,-1030.0,0.685,-0.208,0.69,0.104
20912,-6922.0,-1320.0,-24.0,486.0,411.0,-913.0,0.684,-0.211,0.692,0.094
20934,-7548.0,-1712.0,-220.0,100.0,470.0,-772.0,0.682,-0.215,0.693,0.088
20946,-8032.0,-2050.0,-434.0,-52.0,579.0,-742.0,0.679,-0.221,0.695,0.082
20968,-7618.0,-1100.0,1350.0,117.0,438.0,-666.0,0.677,-0.225,0.696,0.076
20980,-8744.0,-1126.0,342.0,277.0,385.0,-429.0,0.676,-0.226,0.698,0.071
21002,-8688.0,-2074.0,-306.0,413.0,321.0,-216.0,0.675,-0.225,0.7,0.066
21014,-9842.0,-3180.0,-2912.0,318.0,416.0,9.0,0.673,-0.223,0.703,0.063
21036,-9280.0,-1574.0,-358.0,363.0,483.0,29.0,0.67,-0.221,0.706,0.06
21048,-9832.0,-2140.0,-88.0,393.0,393.0,44.0,0.668,-0.219,0.709,0.057
21070,-9110.0,-2534.0,-340.0,506.0,270.0,20.0,0.668,-0.215,0.711,0.053
21092,-8926.0,-2632.0,-408.0,636.0,212.0,-253.0,0.668,-0.213,0.712,0.047
21104,-8668.0,-1676.0,-442.0,624.0,144.0,-208.0,0.668,-0.211,0.712,0.041
21126,-8382.0,-2044.0,-30.0,498.0,65.0,-205.0,0.669,-0.209,0.712,0.037
21138,-8916.0,-2252.0,-1410.0,412.0,71.0,-138.0,0.669,-0.207,0.713,0.033
21160,-8256.0,-1224.0,-628.0,315.0,25.0,-132.0,0.67,-0.206,0.713,0.03
21172,-8886.0,-1586.0,-956.0,214.0,-32.0,-130.0,0.67,-0.206,0.712,0.028
21194,-8466.0,-1482.0,-776.0,231.0,-93.0,-151.0,0.672,-0.205,0.712,0.026
21206,-8698.0,-1546.0,-264.0,197.0,-128.0,-205.0,0.673,-0.205,0.71,0.023
21228,-8420.0,-1510.0,-416.0,214.0,-159.0,-116.0,0.674,-0.204,0.709,0.022
21250,-8770.0,-2154.0,-834.0,286.0,-166.0,-51.0,0.676,-0.203,0.708,0.02
21262,-8698.0,-1666.0,-872.0,250.0,-97.0,57.0,0.677,-0.201,0.708,0.019
21284,-8938.0,-1608.0,-366.0,126.0,-83.0,115.0,0.678,-0.199,0.707,0.019
21296,-9446.0,-2172.0,-1002.0,20.0,-129.0,71.0,0.679,-0.199,0.707,0.019
21318,-9916.0,-1746.0,-562.0,50.0,-107.0,81.0,0.68,-0.198,0.706,0.02
21330,-10550.0,-3042.0,-1676.0,-14.0,-114.0,70.0,0.68,-0.197,0.706,0.021
21352,-11176.0,-2748.0,-1702.0,-92.0,-55.0,82.0,0.68,-0.197,0.705,0.022
21364,-12156.0,-3212.0,-1366.0,-180.0,-24.0,124.0,0.68,-0.198,0.705,0.024
21386,-13076.0,-3764.0,-1498.0,-136.0,-6.0,178.0,0.68,-0.197,0.706,0.026
21408,-13994.0,-3860.0,-1802.0,-206.0,94.0,231.0,0.679,-0.197,0.707,0.028
21420,-14666.0,-3970.0,-1700.0,-227.0,167.0,237.0,0.677,-0.197,0.708,0.031
21442,-15294.0,-3700.0,-1460.0,-243.0,248.0,63.0,0.675,-0.198,0.71,0.033
21454,-15190.0,-3708.0,-934.0,-198.0,269.0,-71.0,0.673,-0.2,0.711,0.033
21476,-14674.0,-3526.0,-754.0,-42.0,235.0,-119.0,0.672,-0.201,0.712,0.032
21488,-13918.0,-2844.0,-624.0,78.0,229.0,-125.0,0.67,-0.202,0.714,0.03
21510,-13394.0,-2694.0,-1624.0,203.0,216.0,-116.0,0.669,-0.201,0.715,0.028
21522,-12538.0,-2086.0,-1014.0,155.0,229.0,-86.0,0.668,-0.201,0.716,0.026
21544,-11712.0,-1604.0,-990.0,180.0,143.0,-72.0,0.667,-0.2,0.717,0.024
21556,-10740.0,-1104.0,-1238.0,117.0,121.0,-48.0,0.667,-0.2,0.718,0.023
21578,-9822.0,-1744.0,-2212.0,-47.0,99.0,23.0,0.666,-0.198,0.719,0.021
21600,-9104.0,-992.0,-732.0,-179.0,113.0,169.0,0.665,-0.196,0.72,0.022
21612,-8686.0,-1418.0,-340.0,-296.0,29.0,414.0,0.664,-0.195,0.721,0.026
21634,-8252.0,-1190.0,-138.0,-272.0,-76.0,634.0,0.664,-0.191,0.722,0.03
21646,-7738.0,-784.0,660.0,-299.0,-198.0,744.0,0.665,-0.187,0.722,0.037
21668,-7402.0,-1190.0,596.0,-232.0,-348.0,795.0,0.667,-0.181,0.721,0.043
21680,-7140.0,-1760.0,-822.0,-36.0,-449.0,757.0,0.67,-0.174,0.72,0.047
21702,-6420.0,-842.0,-148.0,-111.0,-446.0,753.0,0.673,-0.168,0.719,0.051
21714,-6386.0,-1200.0,-420.0,-244.0,-467.0,902.0,0.675,-0.161,0.718,0.057
21736,-5696.0,296.0,990.0,-203.0,-513.0,980.0,0.678,-0.153,0.716,0.064
21758,-6252.0,-1328.0,262.0,-343.0,-575.0,1044.0,0.681,-0.146,0.714,0.071
21770,-5758.0,-258.0,248.0,-388.0,-641.0,1016.0,0.684,-0.14,0.712,0.079
21792,-5966.0,-1108.0,-154.0,-457.0,-723.0,1148.0,0.687,-0.133,0.709,0.089
21804,-6090.0,-904.0,-1028.0,-567.0,-727.0,1307.0,0.691,-0.125,0.705,0.1
21826,-6124.0,-908.0,-1600.0,-715.0,-739.0,1453.0,0.693,-0.117,0.702,0.113
21838,-6696.0,-1282.0,-858.0,-990.0,-782.0,1628.0,0.696,-0.11,0.698,0.129
21860,-6654.0,-1668.0,-306.0,-1197.0,-821.0,1659.0,0.698,-0.105,0.693,0.147
21872,-4492.0,-184.0,2874.0,-868.0,-1019.0,1511.0,0.702,-0.097,0.686,0.161
21894,-3462.0,-482.0,3294.0,-408.0,-1110.0,1270.0,0.708,-0.088,0.68,0.171
21916,-3048.0,-1588.0,570.0,53.0,-1019.0,1062.0,0.713,-0.078,0.674,0.177
21928,-3308.0,-1748.0,-502.0,310.0,-889.0,959.0,0.717,-0.066,0.67,0.18
21950,-2380.0,-444.0,-190.0,265.0,-485.0,741.0,0.72,-0.057,0.667,0.182
21962,-2940.0,-1530.0,-216.0,319.0,-317.0,390.0,0.722,-0.051,0.666,0.181
21984,-1790.0,-562.0,1060.0,198.0,64.0,16.0,0.722,-0.047,0.667,0.177
21996,-1518.0,-634.0,942.0,381.0,324.0,-407.0,0.721,-0.046,0.67,0.17
22018,-1634.0,-692.0,214.0,534.0,539.0,-726.0,0.72,-0.046,0.674,0.16
22030,-1692.0,-176.0,-602.0,459.0,791.0,-1058.0,0.717,-0.049,0.68,0.148
22057,-1804.0,-174.0,160.0,250.0,1346.0,-1122.0,0.71,-0.054,0.689,0.136
22069,-2134.0,4.0,376.0,-129.0,1206.0,-1644.0,0.705,-0.066,0.696,0.123
22091,-2556.0,654.0,932.0,-294.0,1349.0,-1766.0,0.698,-0.078,0.703,0.111
22103,-4630.0,-1016.0,-764.0,-582.0,1416.0,-1624.0,0.69,-0.092,0.711,0.101
22125,-5184.0,-1122.0,-68.0,-485.0,1410.0,-1332.0,0.682,-0.104,0.718,0.093
22137,-8116.0,-2822.0,-680.0,-450.0,1323.0,-1220.0,0.674,-0.114,0.725,0.084
22159,-8062.0,-1032.0,924.0,-301.0,1037.0,-1145.0,0.668,-0.123,0.73,0.076
22171,-9240.0,-1798.0,174.0,-243.0,750.0,-1020.0,0.663,-0.13,0.734,0.069
22193,-9322.0,-768.0,174.0,-61.0,647.0,-1126.0,0.659,-0.136,0.737,0.06
22205,-8728.0,-1902.0,-456.0,214.0,445.0,-1037.0,0.657,-0.14,0.739,0.049
22227,-9378.0,-2016.0,-2608.0,142.0,462.0,-785.0,0.655,-0.143,0.741,0.041
22239,-9314.0,-902.0,-1458.0,89.0,583.0,-669.0,0.651,-0.146,0.744,0.034
22261,-9314.0,-772.0,-386.0,37.0,489.0,-498.0,0.648,-0.147,0.747,0.028
22283,-9608.0,-1328.0,-20.0,172.0,478.0,-569.0,0.645,-0.148,0.749,0.021
22295,-8668.0,-416.0,122.0,332.0,414.0,-409.0,0.643,-0.147,0.751,0.014
22317,-9514.0,-2322.0,-3350.0,197.0,446.0,-216.0,0.64,-0.145,0.754,0.009
22329,-8700.0,-1480.0,-1086.0,335.0,532.0,-258.0,0.637,-0.143,0.757,0.003
22351,-9236.0,-416.0,-1544.0,208.0,486.0,-265.0,0.634,-0.141,0.76,-0.002
22363,-9690.0,-1450.0,-1014.0,281.0,464.0,-457.0,0.631,-0.141,0.763,-0.009
22385,-9114.0,-1408.0,-1638.0,282.0,284.0,-404.0,0.629,-0.14,0.764,-0.016
22397,-9200.0,-1216.0,-1442.0,270.0,241.0,-360.0,0.628,-0.139,0.765,-0.022
22419,-8766.0,-1672.0,-1498.0,263.0,115.0,-342.0,0.627,-0.138,0.766,-0.027
22441,-8838.0,-1790.0,-1974.0,361.0,49.0,-355.0,0.627,-0.136,0.766,-0.034
22453,-8538.0,-1764.0,-1138.0,372.0,-50.0,-337.0,0.628,-0.135,0.765,-0.04
22475,-8564.0,-1286.0,-1094.0,503.0,-177.0,-315.0,0.63,-0.132,0.764,-0.046
22487,-8388.0,-1696.0,-1732.0,495.0,-261.0,-354.0,0.632,-0.13,0.762,-0.053
22509,-8222.0,-1864.0,-1850.0,370.0,-254.0,-237.0,0.634,-0.129,0.76,-0.057
22521,-8366.0,-1906.0,-1318.0,346.0,-275.0,-119.0,0.636,-0.126,0.759,-0.061
22543,-8930.0,-1828.0,-1430.0,344.0,-270.0,-9.0,0.638,-0.123,0.757,-0.065
22555,-9436.0,-2056.0,-1186.0,359.0,-299.0,33.0,0.641,-0.119,0.755,-0.069
22577,-10138.0,-2700.0,-1882.0,324.0,-302.0,46.0,0.643,-0.115,0.754,-0.072
22599,-11064.0,-3218.0,-3002.0,306.0,-233.0,5.0,0.645,-0.111,0.752,-0.075
22611,-12134.0,-3906.0,-2674.0,206.0,-139.0,32.0,0.646,-0.108,0.752,-0.078
22633,-13726.0,-4140.0,-3406.0,-34.0,-15.0,147.0,0.646,-0.106,0.752,-0.078
22645,-15318.0,-5054.0,-1884.0,-76.0,7.0,175.0,0.646,-0.103,0.753,-0.078
22667,-16388.0,-5988.0,-2344.0,49.0,-14.0,102.0,0.646,-0.1,0.753,-0.079
22679,-16386.0,-5880.0,-2224.0,157.0,46.0,0.0,0.646,-0.1,0.753,-0.08
22701,-16172.0,-5060.0,-864.0,166.0,150.0,78.0,0.645,-0.096,0.754,-0.083
22713,-15396.0,-4542.0,-1330.0,238.0,127.0,114.0,0.644,-0.092,0.755,-0.085
22735,-14640.0,-2744.0,-1348.0,344.0,124.0,-33.0,0.643,-0.088,0.756,-0.089
22747,-13372.0,-2568.0,-1516.0,287.0,141.0,-48.0,0.642,-0.085,0.756,-0.093
22769,-12268.0,-1832.0,-1744.0,217.0,145.0,-43.0,0.641,-0.082,0.757,-0.097
22791,-10934.0,-1056.0,-1372.0,89.0,138.0,4.0,0.64,-0.08,0.758,-0.099
22803,-9712.0,-1036.0,-1366.0,-68.0,69.0,145.0,0.639,-0.077,0.759,-0.099
22825,-9322.0,-1250.0,-726.0,-242.0,50.0,292.0,0.639,-0.075,0.76,-0.097
22837,-8150.0,-662.0,-82.0,-230.0,-86.0,357.0,0.639,-0.072,0.76,-0.095
22859,-8098.0,-684.0,-720.0,-387.0,-119.0,502.0,0.64,-0.069,0.76,-0.09
22871,-7588.0,-1096.0,-356.0,-374.0,-189.0,717.0,0.642,-0.064,0.759,-0.084
22893,-6884.0,-1760.0,-570.0,-162.0,-357.0,865.0,0.645,-0.058,0.758,-0.079
22905,-6588.0,174.0,-120.0,-58.0,-414.0,1005.0,0.648,-0.049,0.756,-0.074
22927,-6746.0,-1406.0,-1326.0,-104.0,-525.0,1064.0,0.653,-0.041,0.754,-0.068
22949,-6110.0,-420.0,-1172.0,-144.0,-503.0,1034.0,0.656,-0.034,0.751,-0.062
22961,-6452.0,-292.0,-1212.0,-206.0,-535.0,1085.0,0.661,-0.026,0.748,-0.055
22983,-6428.0,-666.0,-1046.0,-259.0,-567.0,1085.0,0.665,-0.019,0.745,-0.048
22995,-6288.0,-284.0,102.0,-173.0,-611.0,1192.0,0.67,-0.01,0.742,-0.041
23017,-6334.0,-190.0,-168.0,-158.0,-682.0,1262.0,0.675,-0.001,0.737,-0.033
23029,-6034.0,480.0,-936.0,-161.0,-791.0,1352.0,0.68,0.009,0.732,-0.025
23051,-7660.0,-2494.0,-2912.0,-437.0,-875.0,1504.0,0.686,0.017,0.727,-0.014
23063,-6334.0,-390.0,4.0,-461.0,-835.0,1715.0,0.692,0.027,0.721,-0.002
23085,-6054.0,1086.0,1834.0,-452.0,-1024.0,1648.0,0.699,0.037,0.714,0.01
23107,-5142.0,20.0,1574.0,-430.0,-1210.0,1545.0,0.707,0.046,0.705,0.021
23119,-3836.0,-1400.0,744.0,-183.0,-1237.0,1440.0,0.715,0.056,0.696,0.03
23141,-4148.0,-2490.0,182.0,82.0,-1119.0,1441.0,0.722,0.067,0.688,0.037
23153,-1650.0,438.0,2736.0,333.0,-1014.0,1207.0,0.728,0.079,0.68,0.041
23175,-2818.0,-1332.0,-870.0,211.0,-980.0,915.0,0.733,0.087,0.673,0.045
23187,-2554.0,-2038.0,-358.0,373.0,-671.0,446.0,0.737,0.094,0.668,0.043
23209,-982.0,-864.0,216.0,551.0,-209.0,-34.0,0.738,0.099,0.667,0.038
23221,-1098.0,118.0,910.0,465.0,348.0,-531.0,0.735,0.1,0.669,0.03
23243,-1466.0,-772.0,590.0,314.0,717.0,-1016.0,0.731,0.097,0.675,0.021
23255,-1858.0,-168.0,212.0,70.0,1052.0,-1413.0,0.725,0.089,0.683,0.01
23277,-1100.0,-2220.0,-118.0,-3.0,1255.0,-1512.0,0.717,0.081,0.693,-0.001
23299,-3352.0,-328.0,814.0,-80.0,1433.0,-2100.0,0.707,0.069,0.704,-0.015
23311,-3648.0,-1384.0,732.0,-145.0,1480.0,-2013.0,0.697,0.056,0.714,-0.027
23333,-4934.0,-1604.0,280.0,-117.0,1417.0,-1962.0,0.687,0.044,0.724,-0.04
23345,-6392.0,-1122.0,750.0,-95.0,1294.0,-1785.0,0.677,0.034,0.733,-0.052
23367,-6682.0,-1862.0,620.0,212.0,1040.0,-1511.0,0.669,0.027,0.74,-0.064
23379,-6888.0,-1156.0,-1356.0,357.0,946.0,-1582.0,0.661,0.02,0.746,-0.078
23401,-8266.0,-1870.0,-1794.0,42.0,931.0,-1381.0,0.653,0.013,0.752,-0.088
23413,-8656.0,-1110.0,-738.0,-34.0,932.0,-1315.0,0.646,0.006,0.758,-0.097
23435,-8396.0,-1506.0,-100.0,90.0,604.0,-1140.0,0.64,0.001,0.761,-0.106
23457,-9080.0,-1842.0,-1158.0,282.0,687.0,-1037.0,0.634,-0.003,0.765,-0.115
23469,-8328.0,-1802.0,-994.0,444.0,600.0,-899.0,0.629,-0.004,0.768,-0.125
23491,-9352.0,-2560.0,-2124.0,340.0,552.0,-754.0,0.623,-0.005,0.77,-0.133
23503,-9000.0,-1688.0,-1404.0,276.0,590.0,-582.0,0.618,-0.006,0.774,-0.14
23525,-8780.0,-1266.0,-1048.0,363.0,544.0,-375.0,0.614,-0.004,0.776,-0.146
23537,-9332.0,-2066.0,-2056.0,341.0,593.0,-333.0,0.609,-0.002,0.779,-0.152
23559,-8946.0,-1074.0,-1770.0,237.0,675.0,-350.0,0.603,-0.0,0.782,-0.156
23571,-9126.0,-2002.0,-2480.0,167.0,639.0,-449.0,0.597,-0.0,0.786,-0.161
23593,-9308.0,-2094.0,-2184.0,65.0,685.0,-577.0,0.591,-0.001,0.789,-0.166
23615,-9432.0,-2082.0,-2594.0,85.0,647.0,-586.0,0.585,-0.003,0.793,-0.171
23627,-9676.0,-2512.0,-2134.0,95.0,505.0,-616.0,0.58,-0.004,0.795,-0.177
23649,-9510.0,-2002.0,-2532.0,82.0,447.0,-545.0,0.575,-0.005,0.798,-0.181
23661,-9038.0,-2862.0,-2038.0,70.0,327.0,-524.0,0.571,-0.007,0.799,-0.186
23683,-9112.0,-2496.0,-2050.0,34.0,262.0,-461.0,0.568,-0.008,0.801,-0.19
23695,-8658.0,-3370.0,-2240.0,76.0,68.0,-472.0,0.567,-0.009,0.801,-0.194
23717,-8208.0,-2004.0,-1928.0,226.0,-103.0,-484.0,0.566,-0.01,0.8,-0.199
23729,-7794.0,-2856.0,-2170.0,232.0,-211.0,-458.0,0.567,-0.011,0.798,-0.205
23751,-7078.0,-2132.0,-1522.0,242.0,-310.0,-382.0,0.568,-0.012,0.796,-0.209
23763,-7182.0,-2370.0,-2396.0,209.0,-362.0,-334.0,0.569,-0.012,0.794,-0.214
23785,-7032.0,-2662.0,-2202.0,123.0,-370.0,-317.0,0.571,-0.013,0.791,-0.217
23807,-7196.0,-2294.0,-2478.0,39.0,-368.0,-172.0,0.573,-0.013,0.789,-0.219
23819,-7656.0,-3458.0,-2314.0,-29.0,-360.0,-106.0,0.575,-0.014,0.788,-0.221
23841,-8050.0,-3190.0,-2242.0,49.0,-330.0,-9.0,0.577,-0.013,0.786,-0.222
23853,-8674.0,-3836.0,-2394.0,91.0,-337.0,127.0,0.579,-0.01,0.784,-0.223
23875,-9466.0,-4130.0,-2602.0,76.0,-304.0,214.0,0.582,-0.008,0.782,-0.224
23887,-10162.0,-4740.0,-3382.0,57.0,-281.0,292.0,0.584,-0.004,0.78,-0.224
23909,-11244.0,-5042.0,-2658.0,24.0,-196.0,366.0,0.586,-0.001,0.779,-0.223
23921,-12474.0,-4972.0,-2506.0,-37.0,-163.0,378.0,0.587,0.003,0.779,-0.221
23943,-13432.0,-5172.0,-2304.0,60.0,-129.0,301.0,0.588,0.007,0.778,-0.221
23965,-14058.0,-5156.0,-2050.0,102.0,-14.0,239.0,0.589,0.01,0.777,-0.222
23977,-14794.0,-4696.0,-1790.0,13.0,185.0,197.0,0.587,0.013,0.778,-0.222
23999,-15638.0,-5164.0,-2122.0,109.0,326.0,18.0,0.585,0.016,0.78,-0.223
24011,-15318.0,-4466.0,-2508.0,269.0,363.0,-217.0,0.581,0.018,0.781,-0.227
24033,-14074.0,-4254.0,-2708.0,391.0,361.0,-263.0,0.577,0.021,0.782,-0.233
24045,-13032.0,-3384.0,-3296.0,313.0,330.0,-274.0,0.574,0.022,0.783,-0.237
24062,-11762.0,-3226.0,-2188.0,181.0,337.0,-167.0,0.571,0.024,0.785,-0.241
24084,-11138.0,-3070.0,-2544.0,68.0,227.0,-51.0,0.568,0.026,0.786,-0.242
24096,-10022.0,-3338.0,-1478.0,31.0,85.0,94.0,0.567,0.028,0.786,-0.243
24118,-9532.0,-2414.0,-1044.0,106.0,-41.0,233.0,0.568,0.032,0.786,-0.243
24140,-8410.0,-1952.0,-1464.0,132.0,-155.0,396.0,0.57,0.037,0.784,-0.243
24152,-7654.0,-2218.0,-1318.0,43.0,-135.0,590.0,0.572,0.042,0.783,-0.241
24174,-7326.0,-2026.0,-1728.0,44.0,-286.0,744.0,0.575,0.049,0.781,-0.239
24186,-7584.0,-1468.0,-1698.0,-109.0,-269.0,805.0,0.579,0.055,0.779,-0.234
24208,-6768.0,-1206.0,-2414.0,-216.0,-448.0,888.0,0.583,0.06,0.777,-0.229
24220,-6998.0,-1480.0,-1730.0,-395.0,-426.0,1026.0,0.589,0.066,0.775,-0.222
24242,-6566.0,-1280.0,-10.0,-420.0,-506.0,1159.0,0.594,0.072,0.772,-0.214
24254,-6922.0,-2300.0,-1104.0,-379.0,-568.0,1194.0,0.601,0.079,0.768,-0.206
24276,-6222.0,-1892.0,-844.0,-238.0,-637.0,1269.0,0.608,0.086,0.764,-0.198
24298,-6282.0,-1118.0,-1606.0,-90.0,-765.0,1366.0,0.615,0.095,0.759,-0.192
24310,-6282.0,-1962.0,-1800.0,-190.0,-718.0,1448.0,0.623,0.104,0.753,-0.183
24332,-5468.0,-1206.0,-1600.0,-301.0,-733.0,1597.0,0.631,0.114,0.748,-0.174
24344,-6464.0,-1222.0,-462.0,-425.0,-744.0,1669.0,0.639,0.123,0.742,-0.163
24366,-5730.0,-506.0,-1282.0,-380.0,-887.0,1664.0,0.647,0.132,0.735,-0.152
24378,-5810.0,-1334.0,-1332.0,-467.0,-963.0,1638.0,0.657,0.14,0.728,-0.141
24400,-5548.0,-894.0,-972.0,-549.0,-863.0,1766.0,0.665,0.148,0.72,-0.129
24412,-4038.0,-698.0,1090.0,-350.0,-915.0,1753.0,0.674,0.158,0.712,-0.118
24434,-4344.0,-1562.0,814.0,-217.0,-883.0,1648.0,0.682,0.166,0.705,-0.107
24446,-2842.0,-638.0,-56.0,-42.0,-842.0,1444.0,0.688,0.176,0.697,-0.1
24468,-2026.0,334.0,-308.0,45.0,-592.0,1108.0,0.693,0.184,0.691,-0.095
24490,-2720.0,-1700.0,-198.0,-17.0,-359.0,805.0,0.696,0.188,0.687,-0.09
24502,-2218.0,-870.0,-76.0,47.0,-156.0,369.0,0.697,0.192,0.685,-0.089
24524,-1996.0,-458.0,572.0,35.0,105.0,-180.0,0.696,0.192,0.686,-0.092
24536,-1896.0,-1290.0,216.0,121.0,339.0,-628.0,0.693,0.189,0.689,-0.096
24558,-1798.0,-382.0,444.0,114.0,561.0,-996.0,0.688,0.184,0.694,-0.102
24570,-1692.0,-278.0,-10.0,67.0,727.0,-1445.0,0.682,0.177,0.701,-0.112
24592,-3036.0,208.0,146.0,40.0,1029.0,-1979.0,0.673,0.166,0.71,-0.124
24614,-3018.0,-1888.0,-1104.0,-332.0,1146.0,-1860.0,0.663,0.155,0.72,-0.133
24626,-4556.0,-218.0,-1408.0,-423.0,1264.0,-1913.0,0.653,0.142,0.731,-0.141
24648,-5968.0,-1996.0,260.0,-461.0,1140.0,-1647.0,0.643,0.131,0.74,-0.148
24660,-7352.0,-2724.0,-218.0,-181.0,1037.0,-1474.0,0.634,0.122,0.748,-0.155
24682,-6666.0,-932.0,-788.0,2.0,825.0,-1472.0,0.625,0.114,0.754,-0.164
24694,-7360.0,-2442.0,-1424.0,15.0,806.0,-1315.0,0.617,0.107,0.76,-0.172
24716,-7724.0,-1298.0,-1312.0,-94.0,853.0,-1280.0,0.609,0.1,0.766,-0.179
24728,-7662.0,-1064.0,-1418.0,-269.0,708.0,-1244.0,0.602,0.092,0.772,-0.185
24750,-9302.0,-2760.0,-1904.0,-456.0,767.0,-1140.0,0.594,0.084,0.778,-0.188
24762,-9328.0,-1080.0,-796.0,-284.0,630.0,-1172.0,0.587,0.076,0.782,-0.193
24784,-9882.0,-1494.0,-810.0,-265.0,459.0,-1174.0,0.582,0.068,0.786,-0.198
24806,-10014.0,-2696.0,-2498.0,-293.0,469.0,-1077.0,0.576,0.061,0.789,-0.203
24818,-9242.0,-2342.0,-772.0,133.0,372.0,-978.0,0.571,0.057,0.792,-0.21
24840,-9628.0,-2148.0,-2208.0,257.0,359.0,-792.0,0.566,0.055,0.793,-0.217
24852,-9238.0,-3022.0,-2824.0,292.0,413.0,-711.0,0.561,0.053,0.795,-0.223
24874,-9392.0,-2844.0,-3166.0,246.0,377.0,-626.0,0.557,0.052,0.797,-0.229
24886,-9276.0,-2148.0,-2152.0,114.0,390.0,-606.0,0.552,0.05,0.799,-0.234
24908,-9002.0,-2660.0,-1998.0,109.0,323.0,-617.0,0.548,0.048,0.8,-0.239
24920,-8356.0,-3016.0,-2304.0,28.0,262.0,-583.0,0.544,0.046,0.802,-0.243
24942,-7820.0,-2646.0,-1418.0,48.0,195.0,-556.0,0.541,0.044,0.803,-0.247
24954,-8082.0,-3500.0,-2084.0,131.0,86.0,-505.0,0.539,0.043,0.803,-0.251
24976,-7568.0,-2700.0,-1442.0,242.0,78.0,-459.0,0.537,0.042,0.803,-0.256
24998,-7874.0,-2784.0,-1610.0,254.0,1.0,-338.0,0.535,0.042,0.802,-0.261
25010,-7658.0,-3070.0,-1960.0,317.0,-59.0,-348.0,0.535,0.042,0.801,-0.266
25032,-7750.0,-2834.0,-2058.0,357.0,-101.0,-313.0,0.534,0.043,0.8,-0.271
25044,-7508.0,-2784.0,-1774.0,344.0,-144.0,-253.0,0.534,0.044,0.798,-0.276
25066,-7862.0,-3126.0,-2380.0,277.0,-147.0,-168.0,0.534,0.045,0.797,-0.28
25078,-7590.0,-3088.0,-1474.0,329.0,-175.0,-128.0,0.535,0.047,0.795,-0.284
25100,-7742.0,-3136.0,-1416.0,334.0,-258.0,-60.0,0.536,0.049,0.792,-0.287
25122,-7648.0,-3444.0,-2108.0,380.0,-331.0,-116.0,0.537,0.05,0.79,-0.292
25134,-7668.0,-3216.0,-1576.0,360.0,-354.0,-23.0,0.54,0.052,0.787,-0.295
25156,-8140.0,-3354.0,-1830.0,339.0,-346.0,80.0,0.542,0.054,0.784,-0.298
25168,-8308.0,-3672.0,-1972.0,350.0,-370.0,159.0,0.544,0.057,0.781,-0.301
25190,-8676.0,-3714.0,-2108.0,287.0,-344.0,201.0,0.547,0.06,0.778,-0.303
25202,-9056.0,-3764.0,-2446.0,174.0,-320.0,188.0,0.549,0.063,0.776,-0.304
25224,-9876.0,-4600.0,-3028.0,0.0,-221.0,156.0,0.551,0.064,0.774,-0.304
25236,-10430.0,-4874.0,-2380.0,-81.0,-138.0,255.0,0.552,0.066,0.774,-0.303
25258,-11698.0,-5490.0,-2970.0,-214.0,-88.0,344.0,0.553,0.069,0.774,-0.301
25270,-12752.0,-5492.0,-3084.0,-256.0,-35.0,341.0,0.554,0.071,0.774,-0.298
25292,-13532.0,-5508.0,-2462.0,-326.0,22.0,465.0,0.555,0.074,0.774,-0.294
25314,-13920.0,-5876.0,-1800.0,-241.0,24.0,387.0,0.556,0.076,0.775,-0.291
25326,-13906.0,-5528.0,-2142.0,-171.0,66.0,284.0,0.556,0.079,0.775,-0.289
25348,-13686.0,-5350.0,-1172.0,-49.0,84.0,253.0,0.556,0.081,0.776,-0.288
25360,-13472.0,-4136.0,-1574.0,172.0,27.0,141.0,0.555,0.084,0.775,-0.289
25382,-12686.0,-3834.0,-1484.0,207.0,-63.0,100.0,0.556,0.087,0.774,-0.291
25394,-11912.0,-3166.0,-1742.0,274.0,-113.0,70.0,0.556,0.09,0.772,-0.294
25416,-11260.0,-3232.0,-2076.0,273.0,-109.0,128.0,0.556,0.093,0.771,-0.296
25428,-10268.0,-2872.0,-2394.0,215.0,-98.0,221.0,0.557,0.096,0.769,-0.297
25450,-9450.0,-2122.0,-2370.0,0.0,-78.0,409.0,0.559,0.1,0.769,-0.296
25462,-9158.0,-1802.0,-1240.0,-130.0,-53.0,510.0,0.56,0.104,0.768,-0.293
25484,-8782.0,-2734.0,-1978.0,-215.0,-115.0,635.0,0.562,0.108,0.767,-0.289
25506,-8022.0,-1694.0,-964.0,-251.0,-132.0,790.0,0.566,0.113,0.766,-0.283
25518,-7672.0,-2118.0,-976.0,-315.0,-200.0,959.0,0.57,0.118,0.765,-0.277
25540,-7530.0,-1572.0,-478.0,-412.0,-233.0,1074.0,0.574,0.124,0.763,-0.269
25552,-6834.0,-1504.0,-342.0,-336.0,-358.0,1128.0,0.58,0.13,0.76,-0.262
25574,-6904.0,-1888.0,-1230.0,-46.0,-454.0,1042.0,0.585,0.137,0.757,-0.257
25586,-6604.0,-1440.0,-2172.0,37.0,-540.0,1072.0,0.591,0.144,0.752,-0.253
25608,-6622.0,-796.0,-872.0,-80.0,-449.0,1167.0,0.597,0.152,0.748,-0.247
25630,-6404.0,-790.0,-566.0,-138.0,-507.0,1270.0,0.604,0.16,0.743,-0.24
25642,-7252.0,-724.0,-1450.0,-312.0,-542.0,1391.0,0.61,0.167,0.739,-0.232
25664,-6528.0,-832.0,416.0,-295.0,-613.0,1346.0,0.618,0.174,0.734,-0.223
25676,-6518.0,394.0,-448.0,-214.0,-776.0,1396.0,0.626,0.181,0.727,-0.216
25698,-6824.0,-2672.0,-1962.0,-197.0,-806.0,1394.0,0.634,0.189,0.72,-0.209
25710,-5844.0,-212.0,-172.0,-46.0,-841.0,1553.0,0.643,0.198,0.712,-0.201
25732,-6258.0,-1340.0,42.0,-164.0,-846.0,1695.0,0.651,0.207,0.704,-0.192
25744,-4968.0,-614.0,626.0,0.0,-884.0,1639.0,0.66,0.217,0.695,-0.184
25766,-4810.0,-796.0,-512.0,-41.0,-857.0,1503.0,0.668,0.225,0.687,-0.177
25778,-3012.0,218.0,50.0,87.0,-819.0,1271.0,0.675,0.232,0.679,-0.171
25800,-3084.0,-388.0,-512.0,41.0,-699.0,1026.0,0.681,0.238,0.672,-0.167
25812,-2992.0,-690.0,-170.0,-17.0,-632.0,835.0,0.686,0.243,0.666,-0.163
25835,-2670.0,-136.0,738.0,-79.0,-414.0,507.0,0.689,0.246,0.662,-0.161
25857,-2890.0,-1058.0,-22.0,12.0,-276.0,159.0,0.691,0.247,0.66,-0.162
25869,-2530.0,-462.0,202.0,144.0,-31.0,-159.0,0.691,0.247,0.66,-0.164
25891,-2328.0,-562.0,296.0,225.0,182.0,-512.0,0.688,0.246,0.661,-0.169
25903,-2344.0,-804.0,622.0,220.0,395.0,-935.0,0.684,0.243,0.665,-0.176
25925,-2028.0,-204.0,-38.0,203.0,570.0,-1364.0,0.677,0.238,0.672,-0.185
25937,-2690.0,-608.0,8.0,-33.0,763.0,-1577.0,0.669,0.229,0.68,-0.194
25959,-3002.0,-1034.0,412.0,-365.0,952.0,-1674.0,0.661,0.219,0.689,-0.201
25971,-4204.0,-870.0,844.0,-218.0,1228.0,-1787.0,0.65,0.209,0.701,-0.208
25993,-4868.0,-1598.0,1136.0,-279.0,1035.0,-1790.0,0.639,0.199,0.711,-0.216
26005,-7588.0,-4932.0,-3636.0,-96.0,1079.0,-1730.0,0.629,0.189,0.72,-0.224
26027,-7740.0,526.0,-116.0,-165.0,1122.0,-1531.0,0.618,0.182,0.729,-0.231
26049,-8938.0,-3586.0,748.0,-168.0,713.0,-1268.0,0.61,0.174,0.736,-0.236
26066,-8030.0,-970.0,472.0,205.0,347.0,-1383.0,0.605,0.168,0.739,-0.246
26078,-7656.0,-2862.0,-1170.0,207.0,277.0,-1269.0,0.599,0.161,0.742,-0.255
26100,-7346.0,-2658.0,-2094.0,169.0,267.0,-1141.0,0.594,0.156,0.744,-0.263
26112,-8004.0,-2396.0,-1584.0,196.0,303.0,-1066.0,0.588,0.151,0.747,-0.27
26134,-8316.0,-1554.0,198.0,131.0,253.0,-910.0,0.584,0.147,0.749,-0.277
26146,-9380.0,-2848.0,-472.0,351.0,99.0,-778.0,0.58,0.144,0.749,-0.284
26168,-8612.0,-2324.0,-550.0,655.0,10.0,-697.0,0.577,0.144,0.748,-0.293
26180,-8530.0,-2798.0,-2142.0,593.0,-36.0,-349.0,0.576,0.146,0.747,-0.3
26202,-9368.0,-2886.0,-2470.0,360.0,191.0,-307.0,0.573,0.147,0.747,-0.304
26224,-9048.0,-1824.0,-1096.0,242.0,167.0,-266.0,0.57,0.147,0.748,-0.308
26236,-9542.0,-2508.0,-1370.0,123.0,91.0,-238.0,0.568,0.147,0.748,-0.31
26258,-9112.0,-2292.0,-886.0,192.0,75.0,-370.0,0.566,0.147,0.748,-0.314
26270,-8670.0,-2146.0,-688.0,236.0,23.0,-337.0,0.564,0.147,0.748,-0.318
26292,-8338.0,-2054.0,-1056.0,264.0,54.0,-360.0,0.562,0.147,0.747,-0.322
26304,-8050.0,-2132.0,-518.0,177.0,41.0,-343.0,0.561,0.146,0.747,-0.326
26326,-8214.0,-2424.0,-268.0,221.0,52.0,-317.0,0.559,0.146,0.747,-0.329
26338,-7812.0,-1494.0,16.0,276.0,-22.0,-323.0,0.558,0.146,0.746,-0.334
26360,-8226.0,-2048.0,-722.0,199.0,-69.0,-345.0,0.557,0.145,0.745,-0.337
26382,-7892.0,-2456.0,-872.0,245.0,-100.0,-336.0,0.556,0.145,0.744,-0.341
26394,-8374.0,-2544.0,-1084.0,183.0,-105.0,-228.0,0.555,0.144,0.743,-0.344
26416,-8160.0,-2518.0,-482.0,156.0,-89.0,-95.0,0.555,0.145,0.742,-0.347
26428,-8278.0,-2194.0,-324.0,199.0,-155.0,-35.0,0.556,0.146,0.74,-0.349
26450,-8312.0,-2268.0,-398.0,247.0,-195.0,43.0,0.557,0.148,0.738,-0.351
26462,-8388.0,-2502.0,-682.0,240.0,-207.0,123.0,0.558,0.15,0.736,-0.353
26484,-8386.0,-2400.0,-968.0,253.0,-182.0,123.0,0.559,0.152,0.734,-0.354
26496,-8886.0,-2076.0,-804.0,63.0,-111.0,148.0,0.56,0.154,0.733,-0.355
26518,-9274.0,-2482.0,-200.0,35.0,-97.0,152.0,0.561,0.155,0.732,-0.355
26540,-9918.0,-2684.0,-174.0,99.0,-115.0,92.0,0.562,0.157,0.731,-0.355
26552,-10418.0,-3054.0,-1062.0,44.0,-33.0,40.0,0.562,0.157,0.73,-0.356
26574,-11448.0,-4040.0,-1524.0,39.0,121.0,-75.0,0.56,0.158,0.731,-0.357
26586,-12156.0,-4580.0,-2212.0,-18.0,225.0,-100.0,0.558,0.159,0.732,-0.357
26608,-13416.0,-4754.0,-1814.0,-75.0,371.0,-174.0,0.555,0.158,0.734,-0.357
26620,-13884.0,-5152.0,-1282.0,-3.0,378.0,-250.0,0.551,0.158,0.737,-0.358
26642,-13574.0,-5376.0,-1952.0,7.0,358.0,-260.0,0.548,0.158,0.739,-0.359
26654,-13380.0,-5080.0,-1752.0,-82.0,462.0,-239.0,0.544,0.158,0.742,-0.36
26676,-13316.0,-5088.0,-1072.0,-93.0,429.0,-173.0,0.54,0.158,0.744,-0.36
26688,-12634.0,-4384.0,-686.0,11.0,377.0,-216.0,0.536,0.159,0.746,-0.361
26710,-12344.0,-4236.0,-1214.0,121.0,305.0,-281.0,0.533,0.159,0.748,-0.363
26732,-12034.0,-3962.0,-1316.0,256.0,276.0,-365.0,0.529,0.159,0.749,-0.366
26744,-11672.0,-4124.0,-1496.0,340.0,169.0,-263.0,0.526,0.16,0.749,-0.37
26766,-11108.0,-3312.0,-1880.0,330.0,135.0,-204.0,0.524,0.162,0.748,-0.374
26778,-10732.0,-3224.0,-1682.0,237.0,91.0,-75.0,0.522,0.163,0.748,-0.376
26800,-10340.0,-4136.0,-1680.0,201.0,-7.0,85.0,0.522,0.165,0.747,-0.378
26812,-9592.0,-2522.0,-1438.0,151.0,-110.0,258.0,0.523,0.168,0.745,-0.378
26834,-9316.0,-3620.0,-1776.0,-33.0,-237.0,538.0,0.526,0.171,0.743,-0.376
26846,-8548.0,-2782.0,-1212.0,-96.0,-224.0,675.0,0.53,0.175,0.741,-0.373
26868,-8370.0,-2980.0,-1048.0,-203.0,-325.0,938.0,0.536,0.18,0.738,-0.368
26890,-7806.0,-2196.0,-248.0,-139.0,-417.0,1022.0,0.542,0.186,0.735,-0.363
26902,-7890.0,-2396.0,-1088.0,-91.0,-555.0,1135.0,0.55,0.192,0.73,-0.358
26924,-7704.0,-3158.0,-1582.0,-148.0,-584.0,1151.0,0.557,0.197,0.726,-0.352
26936,-6696.0,-1832.0,-702.0,-142.0,-587.0,1302.0,0.566,0.204,0.72,-0.346
26958,-6850.0,-1728.0,-268.0,-196.0,-615.0,1436.0,0.575,0.211,0.715,-0.338
26970,-6560.0,-1838.0,-474.0,-250.0,-587.0,1556.0,0.584,0.218,0.709,-0.33
26992,-6640.0,-1312.0,-1228.0,-302.0,-690.0,1701.0,0.594,0.226,0.703,-0.32
27004,-6900.0,-1090.0,-348.0,-324.0,-659.0,1707.0,0.604,0.234,0.696,-0.31
27027,-6600.0,-1778.0,-914.0,-320.0,-778.0,1725.0,0.614,0.241,0.689,-0.3
27039,-5922.0,-358.0,20.0,-309.0,-781.0,1736.0,0.624,0.249,0.681,-0.29
27061,-5442.0,-1102.0,700.0,-329.0,-847.0,1788.0,0.635,0.256,0.673,-0.28
27083,-5550.0,-2180.0,-94.0,-341.0,-823.0,1781.0,0.646,0.263,0.664,-0.27
27095,-4718.0,-976.0,-674.0,-217.0,-869.0,1744.0,0.656,0.271,0.655,-0.26
27117,-3914.0,250.0,856.0,-170.0,-872.0,1777.0,0.666,0.279,0.645,-0.25
27129,-3946.0,-1038.0,902.0,-184.0,-742.0,1659.0,0.674,0.286,0.637,-0.241
27151,-2610.0,292.0,646.0,-182.0,-776.0,1506.0,0.683,0.292,0.628,-0.233
27163,-2266.0,-164.0,780.0,-279.0,-613.0,1215.0,0.69,0.296,0.621,-0.225
27185,-2288.0,-510.0,-370.0,-325.0,-490.0,902.0,0.695,0.298,0.616,-0.219
27197,-2816.0,-1068.0,-220.0,-373.0,-250.0,535.0,0.699,0.299,0.614,-0.214
27219,-2282.0,-1018.0,500.0,-175.0,-52.0,138.0,0.7,0.298,0.614,-0.212
27231,-2410.0,-546.0,740.0,-2.0,183.0,-321.0,0.698,0.297,0.616,-0.214
27253,-2382.0,-176.0,832.0,44.0,397.0,-750.0,0.694,0.294,0.62,-0.218
27275,-2418.0,-202.0,1206.0,-51.0,565.0,-1157.0,0.688,0.288,0.627,-0.224
27287,-2574.0,-572.0,418.0,-183.0,677.0,-1496.0,0.682,0.28,0.635,-0.231
27309,-3478.0,-896.0,-30.0,-474.0,867.0,-1585.0,0.674,0.27,0.646,-0.237
27321,-4544.0,-348.0,222.0,-783.0,1086.0,-1562.0,0.666,0.258,0.658,-0.24
27343,-4396.0,-2386.0,1818.0,-661.0,1092.0,-1210.0,0.658,0.25,0.669,-0.241
27355,-6616.0,-1162.0,1596.0,-241.0,984.0,-1928.0,0.647,0.239,0.68,-0.249
27377,-5254.0,-1368.0,178.0,-344.0,855.0,-1634.0,0.639,0.229,0.689,-0.255
27389,-7080.0,-2956.0,-1362.0,-175.0,973.0,-1454.0,0.629,0.221,0.698,-0.262
27411,-7080.0,-1142.0,1012.0,-316.0,967.0,-1292.0,0.62,0.214,0.707,-0.266
27433,-7194.0,-1272.0,768.0,-236.0,736.0,-1167.0,0.612,0.207,0.714,-0.27
27445,-9004.0,-3232.0,-2088.0,-326.0,758.0,-1053.0,0.605,0.201,0.721,-0.273
27467,-7768.0,-1330.0,308.0,-142.0,665.0,-823.0,0.598,0.196,0.726,-0.276
27479,-9610.0,-1806.0,-270.0,-102.0,506.0,-642.0,0.593,0.193,0.73,-0.278
27501,-8608.0,-1198.0,162.0,-52.0,476.0,-654.0,0.588,0.191,0.734,-0.281
27513,-9114.0,-2916.0,-1436.0,-49.0,365.0,-488.0,0.584,0.189,0.737,-0.283
27535,-9222.0,-1186.0,272.0,49.0,400.0,-329.0,0.58,0.188,0.739,-0.285
27547,-9004.0,-1786.0,-908.0,72.0,211.0,-118.0,0.578,0.189,0.74,-0.287
27569,-9510.0,-1536.0,-1294.0,56.0,273.0,-199.0,0.576,0.189,0.742,-0.288
27591,-8948.0,-1760.0,-572.0,47.0,197.0,-164.0,0.573,0.19,0.743,-0.289
27603,-9678.0,-1398.0,90.0,68.0,98.0,-231.0,0.572,0.189,0.743,-0.291
27625,-9222.0,-1694.0,-956.0,17.0,24.0,-318.0,0.57,0.188,0.744,-0.294
27637,-9268.0,-1600.0,-1664.0,98.0,26.0,-289.0,0.569,0.187,0.744,-0.296
27659,-8934.0,-1166.0,-132.0,82.0,-38.0,-225.0,0.569,0.187,0.743,-0.299
27671,-9284.0,-1254.0,-938.0,4.0,-94.0,-266.0,0.568,0.185,0.743,-0.301
27693,-8564.0,-1848.0,-446.0,16.0,-104.0,-244.0,0.568,0.184,0.743,-0.303
27705,-8604.0,-1322.0,-988.0,77.0,-146.0,-154.0,0.569,0.183,0.742,-0.305
27727,-8708.0,-2006.0,-950.0,169.0,-178.0,-131.0,0.569,0.184,0.74,-0.307
27739,-8314.0,-986.0,-750.0,268.0,-191.0,-98.0,0.57,0.184,0.738,-0.31
27761,-8430.0,-1298.0,-420.0,153.0,-185.0,-26.0,0.57,0.185,0.737,-0.312
27783,-8268.0,-1086.0,-950.0,46.0,-211.0,123.0,0.572,0.186,0.735,-0.313
27795,-8874.0,-1574.0,-1074.0,6.0,-187.0,73.0,0.573,0.187,0.734,-0.313
27817,-8652.0,-1108.0,-1104.0,48.0,-160.0,101.0,0.575,0.188,0.732,-0.313
27829,-9400.0,-1302.0,-996.0,53.0,-109.0,197.0,0.576,0.19,0.731,-0.313
27851,-9456.0,-1242.0,-836.0,46.0,-75.0,174.0,0.576,0.191,0.73,-0.313
27863,-10178.0,-1806.0,-1650.0,8.0,-18.0,261.0,0.577,0.194,0.73,-0.312
27885,-10940.0,-1584.0,-1362.0,-75.0,104.0,309.0,0.577,0.196,0.73,-0.31
27897,-11886.0,-2794.0,-2518.0,-160.0,167.0,346.0,0.577,0.199,0.73,-0.307
27919,-12742.0,-2108.0,-2340.0,-218.0,300.0,169.0,0.576,0.2,0.732,-0.305
27941,-13160.0,-2444.0,-944.0,-265.0,320.0,118.0,0.574,0.201,0.734,-0.302
27953,-13974.0,-3140.0,-1976.0,-203.0,306.0,51.0,0.572,0.201,0.736,-0.3
27975,-14006.0,-3198.0,-2084.0,-146.0,353.0,-15.0,0.57,0.202,0.738,-0.299
27987,-14460.0,-3696.0,-2430.0,-191.0,404.0,-27.0,0.567,0.202,0.741,-0.297
28009,-14284.0,-2714.0,-1972.0,-122.0,425.0,-183.0,0.564,0.202,0.744,-0.297
28021,-13632.0,-2636.0,-1434.0,-121.0,379.0,-265.0,0.56,0.201,0.746,-0.297
28043,-12852.0,-2666.0,-1776.0,-84.0,321.0,-282.0,0.557,0.2,0.749,-0.298
28055,-12148.0,-2378.0,-1448.0,7.0,273.0,-248.0,0.555,0.2,0.75,-0.299
28072,-11486.0,-1922.0,-1500.0,71.0,227.0,-166.0,0.552,0.2,0.751,-0.301
28094,-10974.0,-1982.0,-2148.0,118.0,175.0,-116.0,0.55,0.201,0.752,-0.302
28116,-10414.0,-1130.0,-1446.0,119.0,166.0,9.0,0.549,0.203,0.752,-0.303
28128,-9854.0,-1706.0,-1444.0,90.0,88.0,130.0,0.548,0.205,0.752,-0.303
28150,-9446.0,-1588.0,-1944.0,67.0,47.0,202.0,0.548,0.207,0.752,-0.303
28162,-8796.0,-1132.0,-1888.0,17.0,25.0,362.0,0.548,0.211,0.751,-0.301
28184,-8780.0,-1294.0,-1844.0,-61.0,5.0,503.0,0.55,0.214,0.75,-0.299
28196,-8794.0,-1404.0,-1696.0,-207.0,-50.0,625.0,0.552,0.218,0.749,-0.295
28218,-8604.0,-1386.0,-1532.0,-249.0,-144.0,715.0,0.555,0.222,0.747,-0.29
28230,-7996.0,-1160.0,-674.0,-240.0,-254.0,810.0,0.56,0.226,0.745,-0.285
28252,-7628.0,-580.0,-674.0,-217.0,-347.0,920.0,0.565,0.231,0.741,-0.28
28274,-7066.0,-1478.0,-838.0,-184.0,-454.0,1042.0,0.571,0.237,0.737,-0.274
28286,-6408.0,-942.0,-364.0,-69.0,-520.0,1142.0,0.577,0.243,0.731,-0.269
28308,-6586.0,-1558.0,-1624.0,105.0,-599.0,1197.0,0.584,0.251,0.725,-0.265
28320,-5796.0,-590.0,-934.0,188.0,-591.0,1276.0,0.591,0.259,0.718,-0.261
28342,-6550.0,-1144.0,-2304.0,103.0,-654.0,1348.0,0.598,0.268,0.711,-0.256
28354,-5816.0,462.0,-944.0,-54.0,-652.0,1388.0,0.606,0.275,0.704,-0.25
28376,-6422.0,-254.0,-306.0,-267.0,-706.0,1458.0,0.614,0.282,0.696,-0.242
28388,-6446.0,-1166.0,-428.0,-266.0,-808.0,1372.0,0.623,0.288,0.688,-0.235
28410,-5848.0,310.0,-222.0,-252.0,-883.0,1340.0,0.632,0.293,0.68,-0.228
28422,-6674.0,-984.0,-908.0,-321.0,-952.0,1433.0,0.642,0.298,0.671,-0.22
28444,-5722.0,-852.0,476.0,9.0,-967.0,1404.0,0.651,0.306,0.661,-0.215
28466,-5508.0,-1210.0,-438.0,185.0,-1017.0,1413.0,0.659,0.313,0.65,-0.21
28478,-3698.0,402.0,712.0,336.0,-893.0,1181.0,0.666,0.321,0.641,-0.208
28500,-3210.0,-744.0,-402.0,266.0,-805.0,827.0,0.671,0.326,0.633,-0.207
28512,-3462.0,-1434.0,-1038.0,168.0,-743.0,548.0,0.676,0.329,0.626,-0.207
28534,-2950.0,-984.0,-562.0,101.0,-562.0,244.0,0.68,0.33,0.621,-0.208
28546,-1744.0,214.0,1230.0,-30.0,-228.0,-129.0,0.681,0.329,0.62,-0.21
28568,-1816.0,-310.0,1374.0,78.0,32.0,-628.0,0.679,0.326,0.622,-0.214
28580,-1886.0,298.0,736.0,150.0,279.0,-937.0,0.675,0.322,0.626,-0.22
28602,-1594.0,656.0,730.0,95.0,544.0,-1313.0,0.669,0.316,0.633,-0.227
28624,-1686.0,-570.0,536.0,-49.0,650.0,-1604.0,0.661,0.308,0.642,-0.235
28636,-2184.0,-324.0,696.0,-277.0,695.0,-1716.0,0.654,0.298,0.652,-0.243
28658,-4548.0,-2256.0,-904.0,-423.0,640.0,-1472.0,0.648,0.289,0.66,-0.248
28670,-4832.0,-240.0,-422.0,-479.0,806.0,-1490.0,0.64,0.279,0.67,-0.252
28692,-5242.0,-40.0,928.0,-329.0,753.0,-1434.0,0.633,0.27,0.679,-0.257
28704,-6598.0,-1514.0,606.0,-293.0,673.0,-1381.0,0.626,0.262,0.687,-0.262
28726,-5562.0,-220.0,1094.0,-134.0,531.0,-1358.0,0.619,0.254,0.693,-0.268
28738,-7300.0,-2862.0,-1928.0,-167.0,580.0,-967.0,0.613,0.249,0.699,-0.272
28760,-7648.0,402.0,-570.0,22.0,619.0,-1293.0,0.605,0.242,0.705,-0.278
28782,-7830.0,-1994.0,-870.0,-207.0,465.0,-1012.0,0.6,0.236,0.711,-0.282
28794,-8416.0,-472.0,184.0,-72.0,477.0,-869.0,0.594,0.232,0.715,-0.286
28816,-8318.0,-1374.0,-104.0,-91.0,285.0,-571.0,0.591,0.229,0.718,-0.289
28828,-9298.0,-1612.0,-946.0,-42.0,339.0,-599.0,0.587,0.226,0.721,-0.291
28850,-8862.0,-1152.0,-1032.0,61.0,209.0,-539.0,0.584,0.224,0.723,-0.295
28862,-9326.0,-1470.0,-1166.0,44.0,269.0,-420.0,0.581,0.222,0.725,-0.297
28884,-9774.0,-1508.0,-1334.0,20.0,318.0,-240.0,0.578,0.222,0.727,-0.298
28896,-9282.0,-1144.0,-274.0,108.0,257.0,-126.0,0.575,0.223,0.728,-0.3
28918,-9796.0,-686.0,-666.0,7.0,191.0,-206.0,0.573,0.223,0.729,-0.301
28930,-9030.0,-980.0,-752.0,21.0,133.0,-355.0,0.571,0.222,0.73,-0.303
28952,-9238.0,-1136.0,-922.0,-74.0,108.0,-290.0,0.569,0.22,0.732,-0.304
28974,-8906.0,-640.0,108.0,-37.0,130.0,-403.0,0.567,0.218,0.733,-0.306
28986,-8938.0,-1158.0,-656.0,-153.0,83.0,-408.0,0.566,0.215,0.734,-0.307
29008,-8762.0,-1444.0,-478.0,-59.0,46.0,-451.0,0.564,0.212,0.735,-0.31
29020,-9168.0,-800.0,-934.0,-21.0,-33.0,-474.0,0.563,0.209,0.736,-0.312
29042,-9092.0,-1672.0,-872.0,50.0,-70.0,-458.0,0.562,0.207,0.736,-0.316
29054,-8838.0,-1490.0,-240.0,51.0,-112.0,-379.0,0.561,0.205,0.736,-0.319
29076,-8906.0,-1138.0,-476.0,14.0,-128.0,-255.0,0.561,0.203,0.735,-0.321
29088,-8916.0,-1768.0,-798.0,49.0,-150.0,-244.0,0.561,0.202,0.735,-0.323
29110,-8658.0,-1888.0,-332.0,86.0,-192.0,-163.0,0.562,0.201,0.733,-0.325
29132,-9010.0,-1482.0,-884.0,109.0,-200.0,-66.0,0.563,0.201,0.732,-0.327
29144,-8984.0,-2378.0,-852.0,89.0,-173.0,-28.0,0.564,0.201,0.731,-0.328
29166,-9172.0,-1266.0,-668.0,135.0,-166.0,-24.0,0.564,0.202,0.729,-0.33
29178,-9590.0,-2352.0,-794.0,133.0,-156.0,-2.0,0.565,0.202,0.728,-0.331
29200,-10016.0,-1972.0,-1142.0,150.0,-126.0,90.0,0.565,0.204,0.727,-0.333
29212,-10858.0,-2772.0,-1540.0,51.0,-67.0,143.0,0.566,0.205,0.726,-0.333
29234,-11788.0,-3516.0,-2360.0,96.0,26.0,50.0,0.566,0.206,0.725,-0.333
29246,-12378.0,-2846.0,-1760.0,122.0,148.0,-46.0,0.564,0.208,0.726,-0.334
29268,-13226.0,-3684.0,-1440.0,60.0,222.0,-40.0,0.562,0.209,0.727,-0.335
29290,-13792.0,-4066.0,-1692.0,73.0,257.0,-92.0,0.56,0.21,0.728,-0.336
29302,-13938.0,-3940.0,-1968.0,53.0,328.0,-134.0,0.557,0.21,0.73,-0.336
29324,-13844.0,-3826.0,-1718.0,135.0,386.0,-286.0,0.553,0.211,0.732,-0.338
29336,-13286.0,-3720.0,-1588.0,205.0,394.0,-332.0,0.549,0.211,0.734,-0.341
29358,-12826.0,-3454.0,-1672.0,301.0,388.0,-385.0,0.544,0.212,0.735,-0.344
29370,-11924.0,-2774.0,-1538.0,321.0,361.0,-421.0,0.539,0.212,0.737,-0.348
29392,-11402.0,-2762.0,-1656.0,307.0,301.0,-401.0,0.535,0.212,0.738,-0.352
29404,-10844.0,-2886.0,-1946.0,304.0,285.0,-387.0,0.531,0.212,0.739,-0.356
29426,-10248.0,-2924.0,-1688.0,255.0,248.0,-261.0,0.528,0.213,0.74,-0.359
29438,-10026.0,-2262.0,-1086.0,238.0,210.0,-128.0,0.525,0.214,0.74,-0.361
29460,-9426.0,-2572.0,-1048.0,247.0,91.0,17.0,0.524,0.217,0.74,-0.363
29482,-9110.0,-2300.0,-1096.0,267.0,42.0,130.0,0.523,0.219,0.739,-0.364
29494,-9042.0,-2454.0,-1562.0,213.0,6.0,274.0,0.524,0.222,0.737,-0.364
29516,-8822.0,-1988.0,-1188.0,173.0,-31.0,357.0,0.525,0.226,0.736,-0.364
29528,-8652.0,-2374.0,-1536.0,70.0,-108.0,407.0,0.526,0.229,0.734,-0.363
29550,-8194.0,-1760.0,-1394.0,-27.0,-167.0,534.0,0.529,0.233,0.732,-0.361
29562,-8110.0,-1438.0,-450.0,-64.0,-197.0,603.0,0.533,0.236,0.729,-0.358
29584,-7568.0,-1736.0,-856.0,-57.0,-363.0,713.0,0.538,0.24,0.726,-0.355
29596,-7764.0,-1730.0,-542.0,-151.0,-394.0,838.0,0.544,0.244,0.722,-0.351
29618,-7144.0,-2382.0,-924.0,-141.0,-432.0,976.0,0.55,0.248,0.718,-0.346
29640,-7196.0,-1690.0,-1030.0,-115.0,-441.0,1115.0,0.556,0.254,0.714,-0.341
29652,-6872.0,-2086.0,-1110.0,-155.0,-441.0,1293.0,0.564,0.261,0.709,-0.335
29674,-6332.0,-1404.0,-564.0,-52.0,-488.0,1360.0,0.571,0.268,0.703,-0.328
29686,-6876.0,-1612.0,-788.0,-124.0,-570.0,1398.0,0.579,0.275,0.697,-0.322
29708,-6250.0,-782.0,-708.0,-113.0,-650.0,1428.0,0.588,0.282,0.69,-0.315
29720,-6502.0,-1280.0,-1342.0,-233.0,-716.0,1501.0,0.598,0.288,0.682,-0.307
29742,-6482.0,-780.0,-612.0,-303.0,-705.0,1516.0,0.607,0.294,0.675,-0.299
29754,-6904.0,-764.0,-1832.0,-365.0,-764.0,1432.0,0.617,0.299,0.668,-0.291
29776,-5932.0,244.0,-916.0,-342.0,-859.0,1330.0,0.627,0.303,0.66,-0.283
29798,-6848.0,-314.0,-722.0,-457.0,-806.0,1360.0,0.636,0.307,0.652,-0.275
29810,-6104.0,-292.0,-396.0,-475.0,-630.0,1204.0,0.644,0.31,0.646,-0.267
29832,-4426.0,-524.0,850.0,-451.0,-533.0,867.0,0.651,0.311,0.642,-0.26
29844,-3242.0,292.0,1706.0,-441.0,-525.0,619.0,0.657,0.311,0.638,-0.256
29866,-2228.0,-868.0,1434.0,-243.0,-437.0,440.0,0.661,0.311,0.634,-0.253
29878,-2372.0,-1378.0,386.0,20.0,-254.0,385.0,0.663,0.313,0.631,-0.252
29900,-2528.0,-118.0,144.0,88.0,-5.0,298.0,0.664,0.316,0.63,-0.251
29912,-2238.0,-260.0,646.0,98.0,232.0,-56.0,0.662,0.317,0.631,-0.251
29934,-1970.0,-468.0,1144.0,177.0,421.0,-470.0,0.658,0.316,0.635,-0.254
29946,-1932.0,-284.0,1148.0,217.0,585.0,-796.0,0.652,0.315,0.64,-0.259
29968,-2270.0,-284.0,1082.0,46.0,729.0,-1063.0,0.644,0.311,0.647,-0.264
29990,-2258.0,1014.0,888.0,-393.0,834.0,-1265.0,0.637,0.303,0.657,-0.267
30002,-3044.0,-814.0,-920.0,-744.0,811.0,-1410.0,0.63,0.292,0.667,-0.269
30024,-5000.0,-3130.0,-2046.0,-770.0,894.0,-1322.0,0.623,0.282,0.678,-0.269
30036,-5524.0,-1000.0,-1314.0,-660.0,1029.0,-1133.0,0.616,0.274,0.688,-0.27
30058,-4230.0,676.0,3876.0,-496.0,1007.0,-1176.0,0.607,0.267,0.698,-0.271
30075,-4036.0,-1792.0,2278.0,-183.0,1076.0,-1136.0,0.598,0.261,0.707,-0.274
30087,-5180.0,-816.0,-1306.0,90.0,518.0,-1802.0,0.589,0.252,0.714,-0.284
30109,-8242.0,-5708.0,-5326.0,-18.0,613.0,-1451.0,0.581,0.244,0.72,-0.29
30121,-6974.0,-466.0,-800.0,-47.0,882.0,-1321.0,0.571,0.238,0.728,-0.295
30143,-6394.0,-1096.0,3038.0,-183.0,674.0,-1220.0,0.563,0.231,0.735,-0.3
30165,-7982.0,-2104.0,-482.0,268.0,341.0,-1334.0,0.557,0.224,0.738,-0.308
30177,-8698.0,-3878.0,-5084.0,206.0,367.0,-1044.0,0.55,0.22,0.741,-0.315
30199,-8648.0,-2510.0,-1980.0,208.0,529.0,-554.0,0.545,0.219,0.744,-0.318
30211,-9836.0,-2210.0,-1852.0,55.0,490.0,-244.0,0.54,0.22,0.747,-0.319
30233,-10240.0,-1430.0,-1844.0,-15.0,379.0,-373.0,0.536,0.219,0.75,-0.321
30245,-9810.0,-3650.0,-2212.0,-171.0,203.0,-373.0,0.534,0.216,0.752,-0.321
30267,-9900.0,-2308.0,-1426.0,-121.0,160.0,-158.0,0.532,0.215,0.753,-0.321
30279,-9514.0,-1928.0,-1046.0,-91.0,50.0,46.0,0.532,0.216,0.753,-0.32
30301,-9430.0,-1762.0,-1012.0,49.0,2.0,-55.0,0.531,0.216,0.753,-0.321
30323,-9258.0,-2204.0,-1034.0,31.0,-38.0,-118.0,0.531,0.216,0.753,-0.323
30335,-8708.0,-2010.0,-764.0,168.0,-93.0,-138.0,0.531,0.216,0.752,-0.325
30357,-9008.0,-1892.0,-1088.0,91.0,-189.0,-187.0,0.531,0.215,0.751,-0.327
30369,-8942.0,-2356.0,-1884.0,119.0,-205.0,-262.0,0.532,0.214,0.75,-0.33
30391,-8502.0,-872.0,-356.0,161.0,-206.0,-250.0,0.532,0.213,0.749,-0.333
30403,-9108.0,-1538.0,-180.0,32.0,-278.0,-41.0,0.534,0.212,0.747,-0.335
30425,-8728.0,-2552.0,-342.0,97.0,-316.0,98.0,0.536,0.213,0.745,-0.336
30437,-8788.0,-2012.0,-748.0,220.0,-314.0,130.0,0.538,0.214,0.742,-0.337
30459,-8946.0,-1916.0,-700.0,277.0,-334.0,162.0,0.54,0.216,0.739,-0.339
30481,-9050.0,-2344.0,-930.0,292.0,-326.0,186.0,0.542,0.218,0.736,-0.341
30493,-9016.0,-1728.0,-866.0,290.0,-349.0,324.0,0.545,0.221,0.733,-0.343
30515,-9310.0,-1794.0,-1024.0,274.0,-363.0,377.0,0.548,0.224,0.729,-0.344
30527,-9344.0,-1752.0,-580.0,175.0,-387.0,391.0,0.551,0.227,0.726,-0.344
30549,-9374.0,-1758.0,-638.0,141.0,-446.0,492.0,0.555,0.229,0.722,-0.343
30561,-9890.0,-2150.0,-1362.0,200.0,-425.0,532.0,0.559,0.233,0.718,-0.343
30583,-10704.0,-2390.0,-1566.0,156.0,-317.0,472.0,0.562,0.236,0.715,-0.342
30595,-10950.0,-2180.0,-1176.0,111.0,-281.0,449.0,0.565,0.239,0.712,-0.342
30617,-11956.0,-2216.0,-1512.0,61.0,-221.0,397.0,0.568,0.241,0.709,-0.34
30629,-12378.0,-2578.0,-1850.0,43.0,-150.0,303.0,0.57,0.243,0.708,-0.34
30651,-12830.0,-2600.0,-1750.0,-24.0,-7.0,297.0,0.571,0.245,0.707,-0.338
30673,-13190.0,-2856.0,-1906.0,48.0,77.0,163.0,0.57,0.247,0.707,-0.337
30685,-13046.0,-2010.0,-1044.0,78.0,186.0,29.0,0.569,0.248,0.708,-0.337
30707,-13074.0,-2678.0,-1290.0,33.0,184.0,-72.0,0.568,0.249,0.709,-0.338
30719,-12882.0,-2604.0,-2120.0,29.0,219.0,-219.0,0.565,0.248,0.71,-0.339
30741,-12458.0,-1984.0,-1208.0,42.0,284.0,-258.0,0.562,0.248,0.712,-0.34
30753,-12070.0,-2048.0,-918.0,12.0,247.0,-247.0,0.56,0.247,0.714,-0.341
30775,-11406.0,-1988.0,-758.0,54.0,190.0,-274.0,0.557,0.246,0.715,-0.342
30787,-10788.0,-1892.0,-1062.0,33.0,129.0,-241.0,0.556,0.246,0.716,-0.344
30809,-10386.0,-2102.0,-1248.0,91.0,91.0,-184.0,0.554,0.245,0.717,-0.345
30831,-10060.0,-1746.0,-1136.0,77.0,86.0,-80.0,0.553,0.246,0.717,-0.346
30843,-9846.0,-1468.0,-978.0,-45.0,55.0,51.0,0.553,0.246,0.717,-0.346
30865,-9492.0,-1378.0,-604.0,-116.0,34.0,79.0,0.553,0.246,0.718,-0.344
30877,-9054.0,-1180.0,-636.0,-118.0,-66.0,79.0,0.554,0.246,0.717,-0.344
30899,-8872.0,-1192.0,-326.0,-214.0,-80.0,203.0,0.556,0.247,0.717,-0.341
30911,-8422.0,-1410.0,-154.0,-261.0,-143.0,333.0,0.558,0.247,0.716,-0.338
30933,-8722.0,-1500.0,-740.0,-284.0,-169.0,421.0,0.561,0.248,0.715,-0.335
30945,-8276.0,-544.0,212.0,-272.0,-177.0,488.0,0.565,0.25,0.713,-0.331
30967,-8352.0,-1226.0,-166.0,-296.0,-269.0,573.0,0.569,0.252,0.711,-0.327
30989,-8112.0,-824.0,-384.0,-194.0,-301.0,612.0,0.574,0.254,0.708,-0.323
31001,-7920.0,-748.0,-448.0,-178.0,-369.0,738.0,0.579,0.257,0.705,-0.319
31023,-7584.0,-1042.0,70.0,-227.0,-376.0,791.0,0.584,0.26,0.702,-0.315
31035,-7026.0,-92.0,190.0,-239.0,-416.0,927.0,0.59,0.264,0.698,-0.309
31057,-7394.0,-1282.0,-902.0,-284.0,-483.0,987.0,0.597,0.267,0.693,-0.303
31069,-6720.0,-386.0,320.0,-249.0,-509.0,1044.0,0.603,0.271,0.689,-0.297
31091,-6346.0,-690.0,280.0,-241.0,-597.0,1036.0,0.611,0.275,0.683,-0.291
31103,-6284.0,484.0,76.0,-220.0,-629.0,1074.0,0.618,0.279,0.677,-0.286
31125,-7582.0,-2060.0,-1900.0,-428.0,-665.0,1129.0,0.626,0.282,0.672,-0.278
31137,-5694.0,654.0,1346.0,-416.0,-621.0,1076.0,0.634,0.285,0.666,-0.271
31159,-7232.0,-586.0,-934.0,-477.0,-799.0,1166.0,0.643,0.287,0.66,-0.264
31181,-7318.0,-652.0,-906.0,-548.0,-780.0,1161.0,0.651,0.289,0.653,-0.256
31193,-7246.0,8.0,414.0,-553.0,-850.0,1171.0,0.661,0.291,0.646,-0.247
31215,-7266.0,-1132.0,168.0,-535.0,-924.0,1236.0,0.671,0.293,0.638,-0.239
31227,-6472.0,-502.0,398.0,-340.0,-999.0,1229.0,0.68,0.296,0.629,-0.232
31249,-5136.0,-420.0,1070.0,-169.0,-1031.0,1138.0,0.689,0.3,0.62,-0.227
31261,-3172.0,966.0,1148.0,-42.0,-837.0,958.0,0.696,0.303,0.612,-0.223
31283,-4164.0,-46.0,-484.0,-379.0,-786.0,929.0,0.703,0.304,0.605,-0.217
31295,-3742.0,-280.0,906.0,-665.0,-654.0,802.0,0.71,0.303,0.599,-0.21
31317,-3374.0,-1624.0,754.0,-719.0,-495.0,491.0,0.716,0.301,0.596,-0.205
31339,-3146.0,-630.0,1120.0,-442.0,-333.0,148.0,0.719,0.298,0.594,-0.202
31351,-2556.0,366.0,1242.0,-120.0,43.0,-121.0,0.719,0.297,0.595,-0.202
31373,-2990.0,-440.0,430.0,171.0,265.0,-448.0,0.716,0.296,0.597,-0.206
31385,-2810.0,-196.0,1326.0,201.0,517.0,-835.0,0.711,0.294,0.603,-0.211
31407,-2674.0,414.0,1074.0,53.0,725.0,-1087.0,0.705,0.29,0.61,-0.217
31419,-2986.0,132.0,1266.0,-182.0,844.0,-1238.0,0.698,0.284,0.619,-0.222
31441,-3264.0,622.0,1552.0,-495.0,923.0,-1247.0,0.691,0.275,0.629,-0.226
31453,-4046.0,-698.0,158.0,-741.0,906.0,-1234.0,0.685,0.266,0.64,-0.227
31475,-6084.0,-808.0,-768.0,-932.0,952.0,-1026.0,0.679,0.256,0.65,-0.226
31497,-6572.0,-1040.0,1586.0,-689.0,1343.0,-1095.0,0.67,0.248,0.662,-0.226
31509,-5420.0,-1312.0,2760.0,-356.0,800.0,-1284.0,0.663,0.24,0.671,-0.231
31531,-6566.0,-608.0,334.0,-173.0,734.0,-1236.0,0.656,0.233,0.678,-0.236
31543,-6682.0,-1560.0,-428.0,-169.0,713.0,-1050.0,0.649,0.228,0.685,-0.24
31565,-7686.0,-1760.0,-186.0,-60.0,775.0,-936.0,0.642,0.223,0.692,-0.244
31577,-6832.0,-608.0,1894.0,146.0,663.0,-859.0,0.635,0.221,0.697,-0.25
31599,-7880.0,-1418.0,-1052.0,191.0,559.0,-734.0,0.629,0.219,0.701,-0.254
31611,-7792.0,-1186.0,-836.0,264.0,595.0,-600.0,0.623,0.218,0.705,-0.259
31633,-8398.0,-1328.0,-928.0,266.0,593.0,-435.0,0.617,0.219,0.709,-0.262
31655,-8406.0,-796.0,-450.0,162.0,533.0,-351.0,0.612,0.219,0.712,-0.265
31667,-9076.0,-1676.0,-1226.0,104.0,543.0,-378.0,0.607,0.219,0.716,-0.267
31689,-8582.0,-1348.0,582.0,234.0,450.0,-243.0,0.603,0.22,0.718,-0.269
31701,-8684.0,-572.0,366.0,300.0,325.0,16.0,0.601,0.223,0.718,-0.271
31723,-8666.0,-1572.0,-702.0,371.0,317.0,-29.0,0.598,0.226,0.719,-0.273
31735,-8418.0,-1272.0,-328.0,403.0,260.0,-83.0,0.595,0.228,0.719,-0.276
31757,-9046.0,-886.0,-996.0,329.0,237.0,-45.0,0.592,0.231,0.72,-0.279
31769,-8698.0,-262.0,-114.0,361.0,161.0,-91.0,0.59,0.233,0.72,-0.281
31791,-8950.0,-732.0,-164.0,322.0,106.0,-92.0,0.589,0.235,0.719,-0.284
31803,-8702.0,-552.0,-314.0,399.0,44.0,-81.0,0.588,0.237,0.718,-0.287
31825,-8806.0,284.0,-324.0,352.0,-30.0,-29.0,0.587,0.239,0.717,-0.29
31847,-8848.0,-626.0,-594.0,406.0,-65.0,-42.0,0.586,0.241,0.715,-0.293
31859,-8752.0,-698.0,-514.0,392.0,-60.0,0.0,0.586,0.243,0.714,-0.296
31881,-8924.0,-154.0,-208.0,391.0,-48.0,48.0,0.586,0.246,0.712,-0.299
31893,-8922.0,80.0,-72.0,341.0,-76.0,72.0,0.586,0.249,0.71,-0.301
31915,-9088.0,-216.0,-536.0,350.0,-89.0,97.0,0.586,0.251,0.709,-0.303
31927,-8980.0,-32.0,-294.0,316.0,-114.0,145.0,0.586,0.254,0.706,-0.305
31949,-9260.0,-314.0,-672.0,337.0,-118.0,199.0,0.587,0.257,0.704,-0.306
31961,-9570.0,-128.0,-638.0,248.0,-95.0,201.0,0.587,0.259,0.703,-0.307
31983,-9802.0,-324.0,-754.0,199.0,-87.0,159.0,0.588,0.261,0.701,-0.308
31995,-10120.0,-382.0,-548.0,174.0,-89.0,109.0,0.588,0.263,0.7,-0.309
32018,-10832.0,-322.0,-786.0,129.0,-111.0,120.0,0.589,0.264,0.698,-0.309
32040,-11526.0,-1350.0,-1046.0,168.0,-112.0,181.0,0.59,0.266,0.697,-0.31
32052,-12306.0,-1236.0,-1276.0,141.0,-93.0,117.0,0.59,0.267,0.696,-0.31
32079,-12912.0,-1640.0,-1422.0,141.0,-72.0,-130.0,0.59,0.267,0.695,-0.312
32091,-13320.0,-2052.0,-992.0,174.0,-93.0,-320.0,0.589,0.266,0.695,-0.315
32103,-13520.0,-2360.0,-1344.0,333.0,-118.0,-393.0,0.588,0.265,0.694,-0.32
32125,-13586.0,-2416.0,-1268.0,276.0,-125.0,-372.0,0.587,0.263,0.694,-0.324
32137,-13182.0,-2266.0,-1274.0,164.0,-134.0,-393.0,0.586,0.261,0.693,-0.328
32159,-12624.0,-1884.0,-902.0,202.0,-146.0,-544.0,0.585,0.259,0.693,-0.332
32171,-11914.0,-2012.0,-940.0,219.0,-166.0,-571.0,0.584,0.256,0.693,-0.337
32193,-11306.0,-1806.0,-844.0,219.0,-144.0,-574.0,0.582,0.253,0.693,-0.342
32215,-10892.0,-1792.0,-974.0,225.0,-95.0,-608.0,0.58,0.25,0.693,-0.347
32227,-10154.0,-1606.0,-858.0,244.0,-40.0,-599.0,0.578,0.247,0.693,-0.352
32249,-9728.0,-1066.0,-560.0,179.0,17.0,-496.0,0.576,0.245,0.694,-0.356
32261,-9180.0,-1380.0,-358.0,120.0,35.0,-371.0,0.574,0.244,0.694,-0.359
32283,-9180.0,-1672.0,-618.0,55.0,99.0,-260.0,0.572,0.243,0.695,-0.361
32295,-9138.0,-1430.0,-588.0,-18.0,115.0,-161.0,0.571,0.242,0.696,-0.361
32317,-9142.0,-1654.0,78.0,-23.0,113.0,-157.0,0.57,0.241,0.697,-0.362
32329,-8842.0,-1486.0,-160.0,-4.0,54.0,-116.0,0.569,0.241,0.698,-0.362
32351,-8664.0,-1410.0,450.0,-128.0,41.0,-34.0,0.569,0.24,0.698,-0.362
32363,-8300.0,-1218.0,234.0,-146.0,-32.0,66.0,0.57,0.24,0.698,-0.36
32385,-8216.0,-1946.0,-334.0,-62.0,-85.0,95.0,0.571,0.24,0.698,-0.36
32407,-7808.0,-1178.0,12.0,-8.0,-116.0,176.0,0.573,0.241,0.696,-0.359
32419,-7844.0,-1602.0,-24.0,-136.0,-138.0,240.0,0.575,0.242,0.695,-0.358
32441,-7890.0,-744.0,-144.0,-125.0,-146.0,219.0,0.577,0.242,0.694,-0.356
32453,-7822.0,-1576.0,-488.0,-95.0,-194.0,266.0,0.579,0.243,0.693,-0.354
32475,-7970.0,-818.0,-184.0,-185.0,-201.0,378.0,0.582,0.244,0.692,-0.352
32487,-7684.0,-1546.0,156.0,-254.0,-222.0,373.0,0.585,0.244,0.69,-0.349
32509,-7632.0,-474.0,190.0,-308.0,-281.0,404.0,0.589,0.244,0.688,-0.345
32521,-7518.0,-1192.0,642.0,-367.0,-336.0,385.0,0.594,0.244,0.687,-0.342
32543,-7508.0,-1664.0,14.0,-361.0,-352.0,471.0,0.598,0.244,0.685,-0.338
32565,-7664.0,-1434.0,-318.0,-341.0,-434.0,516.0,0.603,0.244,0.682,-0.334
32577,-7778.0,-1298.0,466.0,-191.0,-366.0,461.0,0.607,0.245,0.679,-0.331
32599,-7874.0,-734.0,502.0,-239.0,-373.0,504.0,0.612,0.246,0.677,-0.328
32611,-7450.0,-1148.0,996.0,-244.0,-387.0,448.0,0.616,0.246,0.674,-0.325
32633,-7716.0,-1108.0,180.0,-256.0,-392.0,525.0,0.621,0.247,0.671,-0.321
32645,-7482.0,-958.0,-194.0,-255.0,-321.0,516.0,0.625,0.248,0.669,-0.317
32667,-7658.0,-730.0,-312.0,-389.0,-230.0,610.0,0.629,0.249,0.667,-0.312
32679,-7524.0,-856.0,-228.0,-493.0,-177.0,734.0,0.633,0.25,0.666,-0.305
32701,-7800.0,-618.0,1226.0,-570.0,-131.0,778.0,0.638,0.251,0.665,-0.298
32723,-7816.0,-718.0,148.0,-568.0,-175.0,821.0,0.642,0.252,0.663,-0.29
32735,-8224.0,-1558.0,-484.0,-596.0,-182.0,815.0,0.647,0.253,0.662,-0.282
32757,-7976.0,-742.0,536.0,-623.0,-189.0,866.0,0.652,0.254,0.66,-0.273
32769,-7974.0,-840.0,778.0,-757.0,-213.0,893.0,0.657,0.255,0.658,-0.264
32791,-7814.0,-880.0,1048.0,-754.0,-312.0,870.0,0.663,0.255,0.656,-0.255
32803,-8464.0,-1384.0,-1624.0,-820.0,-403.0,967.0,0.669,0.255,0.653,-0.246
32825,-8378.0,-30.0,-16.0,-878.0,-494.0,1003.0,0.676,0.254,0.65,-0.236
32837,-7460.0,-774.0,366.0,-798.0,-648.0,1014.0,0.684,0.254,0.645,-0.226
32859,-7848.0,-464.0,596.0,-664.0,-773.0,944.0,0.692,0.254,0.639,-0.219
32871,-6000.0,-484.0,2212.0,-289.0,-863.0,609.0,0.699,0.254,0.633,-0.215
32893,-3398.0,118.0,4150.0,149.0,-863.0,523.0,0.705,0.257,0.625,-0.215
32915,-4722.0,-986.0,1628.0,498.0,-677.0,689.0,0.709,0.263,0.618,-0.215
32927,-4104.0,76.0,2038.0,666.0,-609.0,673.0,0.712,0.27,0.611,-0.216
32949,-4914.0,-854.0,1042.0,328.0,-565.0,521.0,0.715,0.275,0.605,-0.217
32961,-3804.0,270.0,1762.0,71.0,-600.0,152.0,0.719,0.275,0.6,-0.218
32983,-3444.0,-204.0,1132.0,-63.0,-414.0,-163.0,0.721,0.273,0.598,-0.22
32995,-3152.0,164.0,1136.0,-53.0,-33.0,-394.0,0.72,0.271,0.599,-0.223
33017,-3232.0,136.0,1232.0,-31.0,269.0,-732.0,0.717,0.267,0.602,-0.227
33029,-2584.0,338.0,1558.0,-48.0,553.0,-1128.0,0.712,0.262,0.609,-0.233
33051,-2578.0,-120.0,1474.0,-31.0,770.0,-1354.0,0.704,0.256,0.617,-0.241
33073,-2264.0,540.0,2012.0,-152.0,980.0,-1444.0,0.695,0.249,0.627,-0.247
33085,-2400.0,500.0,2050.0,-483.0,1080.0,-1463.0,0.686,0.241,0.638,-0.252
33107,-4324.0,-794.0,330.0,-635.0,896.0,-1325.0,0.679,0.231,0.648,-0.255
33119,-5168.0,-344.0,38.0,-606.0,963.0,-1269.0,0.671,0.222,0.658,-0.258
33141,-4066.0,-2576.0,1004.0,-431.0,892.0,-1089.0,0.664,0.216,0.667,-0.261
33153,-7114.0,-2044.0,430.0,53.0,1346.0,-1269.0,0.652,0.212,0.677,-0.267
33175,-6256.0,-48.0,808.0,29.0,1013.0,-1111.0,0.643,0.208,0.685,-0.272
33187,-7288.0,-2454.0,546.0,507.0,891.0,-1169.0,0.633,0.206,0.691,-0.281
33209,-7720.0,-2238.0,-476.0,755.0,812.0,-974.0,0.623,0.207,0.696,-0.291
33231,-8690.0,-2080.0,-1338.0,607.0,862.0,-663.0,0.614,0.209,0.7,-0.298
33243,-8918.0,-1810.0,-818.0,631.0,802.0,-487.0,0.606,0.212,0.704,-0.303
33265,-8740.0,-1784.0,1228.0,773.0,627.0,-498.0,0.599,0.215,0.706,-0.311
33277,-8690.0,-1726.0,308.0,814.0,462.0,-424.0,0.593,0.218,0.707,-0.318
33299,-9244.0,-2840.0,-670.0,832.0,395.0,-301.0,0.588,0.222,0.707,-0.324
33311,-8674.0,-2592.0,410.0,1052.0,308.0,-223.0,0.583,0.228,0.706,-0.332
33333,-8664.0,-1864.0,258.0,1236.0,221.0,-160.0,0.578,0.234,0.703,-0.341
33345,-8600.0,-934.0,38.0,1182.0,52.0,-3.0,0.575,0.241,0.699,-0.349
33367,-8418.0,-1946.0,366.0,1051.0,-49.0,95.0,0.574,0.247,0.695,-0.355
33379,-8466.0,-2000.0,-524.0,1196.0,-90.0,52.0,0.572,0.254,0.691,-0.363
33401,-8584.0,-846.0,-788.0,1052.0,-95.0,87.0,0.57,0.26,0.686,-0.37
33423,-8522.0,-446.0,-208.0,966.0,-79.0,151.0,0.569,0.266,0.682,-0.375
33435,-8520.0,-1140.0,348.0,928.0,-135.0,153.0,0.568,0.271,0.677,-0.38
33457,-8610.0,-696.0,1114.0,876.0,-151.0,144.0,0.568,0.276,0.673,-0.385
33469,-8702.0,-1490.0,504.0,880.0,-244.0,118.0,0.568,0.281,0.668,-0.391
33491,-8722.0,-1462.0,546.0,1236.0,-381.0,152.0,0.567,0.287,0.661,-0.399
33503,-9098.0,-348.0,-392.0,1145.0,-263.0,264.0,0.567,0.293,0.655,-0.405
33525,-9466.0,-1458.0,-100.0,1037.0,-273.0,265.0,0.567,0.299,0.649,-0.41
33537,-9708.0,-1402.0,94.0,945.0,-296.0,244.0,0.567,0.304,0.643,-0.415
33559,-9870.0,-1004.0,506.0,1129.0,-421.0,227.0,0.568,0.309,0.636,-0.422
33581,-10252.0,-1422.0,120.0,1336.0,-531.0,269.0,0.568,0.316,0.627,-0.43
33593,-10672.0,-2572.0,-754.0,1662.0,-543.0,335.0,0.568,0.324,0.616,-0.439
33615,-11004.0,-1060.0,-1054.0,1495.0,-471.0,486.0,0.568,0.332,0.606,-0.446
33627,-11482.0,-1632.0,-450.0,1283.0,-496.0,547.0,0.57,0.34,0.597,-0.451
33649,-11674.0,-1676.0,-272.0,1244.0,-601.0,592.0,0.572,0.347,0.587,-0.456
33661,-11916.0,-2208.0,-746.0,1223.0,-655.0,599.0,0.574,0.353,0.577,-0.461
33683,-11954.0,-1954.0,-750.0,1142.0,-668.0,580.0,0.577,0.359,0.566,-0.466
33695,-11712.0,-2042.0,-260.0,1077.0,-729.0,508.0,0.58,0.364,0.556,-0.471
33717,-11178.0,-1530.0,116.0,1118.0,-820.0,404.0,0.583,0.368,0.546,-0.477
33739,-10628.0,-1194.0,204.0,1164.0,-922.0,323.0,0.585,0.371,0.535,-0.484
33751,-9988.0,-1208.0,380.0,1195.0,-995.0,246.0,0.587,0.374,0.524,-0.491
