timeMs,ax,ay,az,q0,q1,q2,q3
1195460,780.0,7636.0,2329.0,0.763,0.641,-0.032,0.076
1195476,996.0,7278.0,2187.0,0.764,0.64,-0.031,0.076
1195492,964.0,7576.0,2031.0,0.763,0.641,-0.03,0.077
1195508,1170.0,7604.0,1867.0,0.762,0.642,-0.029,0.078
1195534,1146.0,7670.0,1609.0,0.761,0.643,-0.028,0.079
1195550,1252.0,8750.0,1799.0,0.759,0.645,-0.027,0.08
1195566,1476.0,9414.0,1423.0,0.759,0.646,-0.027,0.081
1195583,1776.0,8942.0,1443.0,0.76,0.645,-0.027,0.082
1195599,1312.0,7766.0,1257.0,0.761,0.642,-0.027,0.082
1195616,1442.0,6668.0,1055.0,0.763,0.641,-0.028,0.082
1195633,1496.0,7288.0,1055.0,0.763,0.641,-0.029,0.081
1195649,1468.0,7910.0,985.0,0.763,0.641,-0.03,0.081
1195666,1404.0,8726.0,1551.0,0.763,0.641,-0.031,0.08
1195683,1034.0,8248.0,1533.0,0.764,0.639,-0.032,0.079
1195710,1096.0,8774.0,1493.0,0.766,0.637,-0.033,0.077
1195726,1118.0,8798.0,1673.0,0.769,0.634,-0.034,0.076
1195742,1362.0,7744.0,1991.0,0.773,0.629,-0.035,0.074
1195758,978.0,4934.0,1433.0,0.776,0.625,-0.037,0.074
1195774,1598.0,6174.0,1777.0,0.775,0.626,-0.038,0.073
1195790,2166.0,9156.0,2133.0,0.774,0.628,-0.038,0.073
1195816,1336.0,7856.0,1991.0,0.773,0.629,-0.038,0.073
1195832,1174.0,7126.0,1957.0,0.772,0.631,-0.038,0.074
1195848,1322.0,7320.0,1733.0,0.769,0.634,-0.037,0.075
1195865,1474.0,7612.0,1505.0,0.766,0.637,-0.035,0.077
1195881,1386.0,7616.0,1507.0,0.763,0.641,-0.033,0.08
1195898,1514.0,8496.0,2049.0,0.759,0.645,-0.031,0.083
1195914,1110.0,8600.0,2051.0,0.756,0.648,-0.029,0.086
1195940,1228.0,8160.0,1923.0,0.753,0.651,-0.027,0.089
1195957,1494.0,8356.0,1603.0,0.751,0.654,-0.025,0.092
1195974,1264.0,8072.0,1389.0,0.748,0.656,-0.023,0.095
1195990,1304.0,8094.0,1227.0,0.746,0.659,-0.021,0.098
1196006,1332.0,8188.0,1093.0,0.743,0.661,-0.019,0.101
1196022,1308.0,8354.0,919.0,0.741,0.664,-0.018,0.103
1196038,1386.0,8240.0,747.0,0.739,0.666,-0.017,0.105
1196055,1492.0,8280.0,661.0,0.737,0.667,-0.016,0.107
1196081,1502.0,8110.0,591.0,0.736,0.668,-0.016,0.108
1196098,1570.0,8056.0,509.0,0.735,0.669,-0.016,0.108
1196115,1606.0,8210.0,435.0,0.735,0.67,-0.016,0.109
1196131,1560.0,8248.0,493.0,0.734,0.67,-0.017,0.109
1196147,1566.0,8274.0,735.0,0.734,0.67,-0.017,0.108
1196164,1542.0,8226.0,793.0,0.734,0.67,-0.018,0.107
1196180,1544.0,8196.0,819.0,0.735,0.67,-0.019,0.106
1196196,1548.0,8136.0,905.0,0.736,0.669,-0.019,0.105
1196223,1480.0,8064.0,915.0,0.736,0.668,-0.02,0.105
1196239,1530.0,8048.0,1091.0,0.737,0.667,-0.021,0.104
1196255,1500.0,8064.0,1169.0,0.738,0.667,-0.021,0.103
1196271,1464.0,8066.0,1227.0,0.739,0.666,-0.021,0.103
1196287,1470.0,7994.0,1283.0,0.739,0.665,-0.022,0.102
1196303,1474.0,8032.0,1275.0,0.739,0.665,-0.022,0.102
1196329,1392.0,8000.0,1221.0,0.74,0.665,-0.021,0.103
1196345,1424.0,7948.0,1273.0,0.74,0.665,-0.021,0.103
1196361,1390.0,8016.0,1203.0,0.74,0.665,-0.021,0.103
1196377,1426.0,8044.0,1301.0,0.739,0.665,-0.021,0.104
1196393,1346.0,7980.0,1225.0,0.739,0.665,-0.021,0.104
1196409,1410.0,8052.0,1265.0,0.739,0.665,-0.021,0.104
1196435,1244.0,7470.0,995.0,0.739,0.666,-0.02,0.104
1196451,1332.0,7872.0,975.0,0.738,0.666,-0.02,0.104
1196467,1398.0,8128.0,913.0,0.737,0.667,-0.02,0.104
1196483,1484.0,8376.0,935.0,0.737,0.668,-0.021,0.104
1196499,1524.0,8268.0,1019.0,0.736,0.668,-0.021,0.104
1196516,1526.0,8148.0,963.0,0.736,0.669,-0.022,0.104
1196542,1712.0,8160.0,909.0,0.736,0.669,-0.022,0.104
1196558,1694.0,8178.0,995.0,0.735,0.669,-0.023,0.104
1196574,1602.0,8164.0,1011.0,0.735,0.669,-0.023,0.105
1196590,1476.0,8214.0,991.0,0.735,0.669,-0.023,0.105
1196607,1578.0,8266.0,1101.0,0.735,0.669,-0.023,0.105
1196623,1524.0,8008.0,1085.0,0.735,0.669,-0.022,0.105
1196639,1490.0,8022.0,1085.0,0.735,0.669,-0.022,0.105
1196665,1466.0,8002.0,1007.0,0.736,0.669,-0.022,0.105
1196682,1386.0,7896.0,949.0,0.736,0.669,-0.022,0.105
1196698,1422.0,8018.0,953.0,0.736,0.669,-0.021,0.105
1196715,1450.0,8132.0,995.0,0.735,0.669,-0.021,0.105
1196732,1448.0,8116.0,993.0,0.735,0.669,-0.021,0.106
1196748,1432.0,8072.0,1029.0,0.735,0.669,-0.021,0.106
1196764,1494.0,8046.0,1075.0,0.735,0.669,-0.021,0.106
1196780,1482.0,7990.0,1069.0,0.735,0.669,-0.021,0.106
1196806,1446.0,8126.0,1041.0,0.735,0.669,-0.021,0.106
1196823,1572.0,8090.0,1081.0,0.735,0.669,-0.021,0.106
1196839,1440.0,7980.0,1071.0,0.735,0.669,-0.021,0.106
1196855,1418.0,8080.0,927.0,0.735,0.669,-0.021,0.106
1196871,1480.0,8128.0,941.0,0.735,0.669,-0.021,0.106
1196887,1464.0,8042.0,929.0,0.735,0.669,-0.021,0.106
1196913,1508.0,8084.0,1015.0,0.735,0.669,-0.021,0.106
1196930,1378.0,8088.0,1009.0,0.735,0.669,-0.021,0.106
1196946,1358.0,8154.0,1091.0,0.735,0.669,-0.021,0.106
1196962,1444.0,8062.0,1011.0,0.735,0.669,-0.022,0.106
1196978,1452.0,8134.0,1087.0,0.735,0.669,-0.022,0.106
1196995,1522.0,7958.0,1059.0,0.735,0.67,-0.022,0.107
1197012,1560.0,7962.0,1019.0,0.734,0.67,-0.022,0.107
1197029,1514.0,7970.0,1069.0,0.734,0.67,-0.022,0.108
1197055,1516.0,7878.0,1143.0,0.733,0.671,-0.022,0.108
1197071,1598.0,8062.0,965.0,0.733,0.671,-0.021,0.109
1197087,1624.0,8016.0,933.0,0.732,0.672,-0.021,0.109
1197103,1602.0,8014.0,907.0,0.732,0.672,-0.021,0.11
1197119,1592.0,8054.0,951.0,0.731,0.673,-0.021,0.111
1197135,1568.0,8128.0,913.0,0.731,0.673,-0.02,0.111
1197161,1542.0,8138.0,829.0,0.73,0.674,-0.02,0.112
1197178,1552.0,8080.0,785.0,0.73,0.674,-0.02,0.112
1197194,1442.0,8150.0,741.0,0.73,0.674,-0.02,0.112
1197211,1434.0,8148.0,777.0,0.729,0.675,-0.02,0.112
1197228,1508.0,8222.0,791.0,0.729,0.675,-0.02,0.112
1197244,1526.0,8224.0,701.0,0.729,0.675,-0.02,0.112
1197260,1576.0,8106.0,799.0,0.73,0.674,-0.02,0.111
1197276,1608.0,8120.0,823.0,0.73,0.674,-0.02,0.111
1197303,1590.0,8062.0,835.0,0.73,0.674,-0.02,0.11
1197319,1578.0,8112.0,881.0,0.731,0.673,-0.021,0.11
1197336,1528.0,8068.0,961.0,0.731,0.673,-0.021,0.109
1197352,1528.0,8120.0,933.0,0.732,0.673,-0.021,0.109
1197368,1530.0,8106.0,941.0,0.732,0.672,-0.021,0.109
1197384,1516.0,8062.0,951.0,0.732,0.672,-0.021,0.108
1197400,1504.0,8070.0,1011.0,0.733,0.672,-0.021,0.108
1197426,1524.0,8036.0,1053.0,0.733,0.672,-0.021,0.108
1197443,1580.0,7998.0,1029.0,0.733,0.671,-0.021,0.108
1197459,1510.0,8026.0,1025.0,0.733,0.671,-0.021,0.108
1197475,1490.0,8082.0,1019.0,0.733,0.671,-0.021,0.108
1197492,1428.0,7994.0,975.0,0.733,0.671,-0.021,0.108
1197508,1432.0,8018.0,929.0,0.733,0.672,-0.021,0.108
1197525,1468.0,8172.0,971.0,0.733,0.672,-0.021,0.108
1197551,1466.0,8076.0,951.0,0.733,0.672,-0.021,0.109
1197567,1518.0,7992.0,897.0,0.732,0.672,-0.021,0.109
1197583,1428.0,8008.0,951.0,0.732,0.672,-0.021,0.109
1197599,1536.0,8096.0,925.0,0.732,0.672,-0.021,0.109
1197616,1560.0,8126.0,905.0,0.732,0.672,-0.021,0.11
1197632,1560.0,8092.0,933.0,0.732,0.672,-0.021,0.11
1197649,1598.0,7996.0,939.0,0.731,0.673,-0.021,0.111
1197675,1588.0,8054.0,863.0,0.731,0.673,-0.021,0.111
1197691,1604.0,8098.0,859.0,0.731,0.673,-0.021,0.111
1197707,1558.0,8098.0,845.0,0.731,0.673,-0.021,0.111
1197723,1464.0,8138.0,817.0,0.731,0.673,-0.021,0.111
1197740,1506.0,8072.0,797.0,0.731,0.673,-0.02,0.111
1197756,1466.0,8144.0,847.0,0.731,0.673,-0.02,0.111
1197772,1520.0,8240.0,823.0,0.731,0.673,-0.02,0.111
1197798,1476.0,8060.0,839.0,0.732,0.672,-0.02,0.111
1197814,1536.0,8026.0,939.0,0.732,0.672,-0.02,0.111
1197831,1528.0,8020.0,983.0,0.732,0.672,-0.02,0.111
1197847,1532.0,8012.0,989.0,0.733,0.671,-0.02,0.11
1197864,1528.0,8042.0,927.0,0.733,0.671,-0.02,0.11
1197880,1494.0,8094.0,955.0,0.733,0.671,-0.02,0.11
1197896,1538.0,8130.0,955.0,0.733,0.671,-0.02,0.11
1197922,1436.0,8082.0,983.0,0.733,0.671,-0.02,0.11
1197938,1472.0,8100.0,937.0,0.733,0.671,-0.02,0.109
1197954,1458.0,8006.0,913.0,0.733,0.671,-0.02,0.109
1197970,1482.0,8058.0,931.0,0.733,0.671,-0.02,0.109
1197986,1544.0,8126.0,959.0,0.733,0.671,-0.02,0.109
1198002,1484.0,8012.0,913.0,0.733,0.671,-0.02,0.109
1198028,1552.0,8100.0,861.0,0.733,0.671,-0.02,0.109
1198044,1470.0,8092.0,949.0,0.734,0.67,-0.02,0.109
1198060,1490.0,8054.0,997.0,0.734,0.67,-0.02,0.109
1198076,1444.0,8020.0,961.0,0.734,0.67,-0.02,0.109
1198092,1508.0,8052.0,893.0,0.734,0.67,-0.02,0.109
1198108,1518.0,8082.0,979.0,0.734,0.67,-0.021,0.109
1198134,1546.0,8086.0,941.0,0.734,0.67,-0.021,0.109
1198150,1502.0,8034.0,935.0,0.734,0.67,-0.021,0.109
1198166,1498.0,8096.0,971.0,0.734,0.67,-0.021,0.109
1198182,1496.0,8066.0,939.0,0.734,0.67,-0.021,0.109
1198198,1504.0,8116.0,1001.0,0.734,0.67,-0.021,0.109
1198214,1488.0,8038.0,973.0,0.734,0.67,-0.021,0.109
1198240,1480.0,8074.0,919.0,0.734,0.67,-0.021,0.109
1198256,1500.0,8052.0,937.0,0.734,0.67,-0.021,0.109
1198272,1476.0,8156.0,967.0,0.734,0.67,-0.021,0.109
1198288,1462.0,8096.0,905.0,0.734,0.67,-0.021,0.109
1198304,1534.0,8060.0,867.0,0.734,0.67,-0.021,0.109
1198330,1476.0,8100.0,907.0,0.734,0.67,-0.021,0.109
1198346,1526.0,8090.0,903.0,0.734,0.67,-0.021,0.109
1198362,1562.0,8074.0,961.0,0.734,0.67,-0.022,0.108
1198378,1524.0,8076.0,997.0,0.734,0.67,-0.022,0.108
1198394,1544.0,8102.0,1005.0,0.734,0.67,-0.022,0.108
1198410,1546.0,8070.0,977.0,0.734,0.67,-0.022,0.108
1198436,1570.0,8128.0,973.0,0.734,0.67,-0.022,0.108
1198452,1518.0,8094.0,933.0,0.734,0.67,-0.022,0.108
1198468,1492.0,8052.0,967.0,0.734,0.67,-0.022,0.108
1198484,1468.0,8126.0,971.0,0.734,0.67,-0.022,0.108
1198500,1514.0,8078.0,955.0,0.734,0.67,-0.022,0.108
1198516,1424.0,8048.0,901.0,0.734,0.67,-0.022,0.108
1198542,1478.0,8112.0,993.0,0.734,0.67,-0.022,0.108
1198558,1506.0,8086.0,951.0,0.734,0.67,-0.022,0.108
1198574,1526.0,8058.0,917.0,0.734,0.67,-0.022,0.108
1198590,1506.0,8078.0,951.0,0.734,0.67,-0.022,0.108
1198606,1500.0,8114.0,927.0,0.734,0.67,-0.022,0.108
1198622,1518.0,8072.0,927.0,0.734,0.67,-0.022,0.108
1198648,1526.0,8090.0,971.0,0.734,0.67,-0.023,0.108
1198664,1540.0,8096.0,885.0,0.734,0.67,-0.023,0.108
1198680,1652.0,8146.0,891.0,0.734,0.67,-0.023,0.108
1198696,1544.0,8074.0,909.0,0.734,0.67,-0.022,0.109
1198712,1540.0,8182.0,891.0,0.734,0.67,-0.022,0.109
1198728,1574.0,8124.0,921.0,0.735,0.669,-0.022,0.109
1198745,1562.0,8180.0,875.0,0.735,0.669,-0.021,0.109
1198771,1478.0,8018.0,935.0,0.735,0.668,-0.021,0.109
1198787,1432.0,7878.0,1047.0,0.736,0.668,-0.021,0.11
1198803,1450.0,8010.0,1015.0,0.736,0.668,-0.021,0.11
1198819,1486.0,8076.0,1041.0,0.736,0.668,-0.021,0.109
1198835,1474.0,8050.0,1033.0,0.736,0.668,-0.021,0.109
1198861,1502.0,8046.0,1071.0,0.736,0.668,-0.021,0.109
1198877,1478.0,8024.0,1053.0,0.736,0.668,-0.021,0.109
1198893,1470.0,7992.0,1051.0,0.736,0.668,-0.021,0.109
1198909,1494.0,7992.0,1087.0,0.736,0.668,-0.022,0.109
1198925,1488.0,8094.0,1043.0,0.736,0.668,-0.022,0.109
1198941,1498.0,8036.0,993.0,0.736,0.668,-0.022,0.11
1198967,1528.0,8118.0,1013.0,0.736,0.668,-0.022,0.11
1198983,1510.0,8050.0,953.0,0.736,0.668,-0.022,0.11
1198999,1514.0,8036.0,925.0,0.736,0.668,-0.022,0.11
1199015,1514.0,8056.0,973.0,0.736,0.668,-0.021,0.11
1199031,1542.0,8110.0,943.0,0.735,0.668,-0.021,0.11
1199047,1562.0,8146.0,947.0,0.735,0.668,-0.021,0.11
1199073,1542.0,8136.0,911.0,0.735,0.668,-0.021,0.11
1199089,1534.0,8128.0,875.0,0.735,0.668,-0.021,0.11
1199105,1528.0,8100.0,985.0,0.736,0.668,-0.021,0.11
1199121,1534.0,8106.0,975.0,0.736,0.668,-0.021,0.11
1199137,1532.0,8078.0,953.0,0.736,0.668,-0.021,0.11
1199153,1476.0,8070.0,999.0,0.736,0.668,-0.021,0.11
1199179,1488.0,8082.0,1017.0,0.736,0.668,-0.021,0.11
1199195,1502.0,8022.0,1019.0,0.736,0.667,-0.021,0.11
1199211,1516.0,8108.0,995.0,0.736,0.667,-0.021,0.11
1199227,1498.0,8042.0,987.0,0.736,0.667,-0.021,0.11
1199243,1484.0,8074.0,1023.0,0.736,0.667,-0.021,0.11
1199259,1498.0,8098.0,1023.0,0.736,0.667,-0.021,0.11
1199285,1530.0,8090.0,997.0,0.737,0.667,-0.021,0.11
1199301,1502.0,8074.0,977.0,0.737,0.667,-0.021,0.11
1199317,1522.0,8016.0,1009.0,0.737,0.667,-0.021,0.11
1199333,1494.0,8052.0,999.0,0.737,0.667,-0.021,0.109
1199349,1462.0,8040.0,991.0,0.737,0.667,-0.021,0.109
1199365,1452.0,8048.0,979.0,0.737,0.667,-0.021,0.109
1199391,1498.0,8070.0,985.0,0.737,0.667,-0.021,0.109
1199407,1486.0,8054.0,1011.0,0.737,0.667,-0.021,0.109
1199423,1458.0,8040.0,973.0,0.737,0.667,-0.021,0.109
1199439,1484.0,8044.0,971.0,0.737,0.666,-0.021,0.109
1199455,1464.0,8070.0,1003.0,0.737,0.666,-0.021,0.109
1199471,1488.0,8056.0,995.0,0.737,0.666,-0.021,0.109
1199497,1566.0,8084.0,997.0,0.737,0.666,-0.021,0.109
1199514,1506.0,8050.0,1029.0,0.738,0.666,-0.021,0.109
1199530,1482.0,8064.0,1007.0,0.738,0.666,-0.021,0.109
1199547,1494.0,8060.0,1043.0,0.738,0.666,-0.021,0.109
1199564,1462.0,8028.0,1033.0,0.738,0.666,-0.021,0.109
1199580,1554.0,8078.0,989.0,0.738,0.666,-0.021,0.109
1199596,1498.0,8050.0,1011.0,0.738,0.666,-0.02,0.109
1199622,1418.0,8042.0,1045.0,0.738,0.666,-0.02,0.109
1199638,1448.0,8088.0,1015.0,0.738,0.665,-0.02,0.109
1199654,1470.0,8056.0,991.0,0.738,0.665,-0.02,0.109
1199670,1502.0,8060.0,1007.0,0.738,0.665,-0.02,0.108
1199686,1544.0,8086.0,1023.0,0.738,0.665,-0.02,0.108
1199702,1484.0,8092.0,1041.0,0.738,0.665,-0.02,0.108
1199728,1448.0,8042.0,1003.0,0.738,0.665,-0.02,0.108
1199744,1484.0,8082.0,1041.0,0.738,0.665,-0.02,0.108
1199760,1504.0,8028.0,997.0,0.738,0.665,-0.02,0.108
1199776,1484.0,8054.0,1031.0,0.738,0.665,-0.02,0.108
1199792,1490.0,8070.0,1003.0,0.738,0.665,-0.02,0.108
1199808,1458.0,8052.0,1017.0,0.738,0.665,-0.021,0.108
1199834,1420.0,8052.0,1039.0,0.738,0.665,-0.02,0.108
1199850,1482.0,8078.0,1051.0,0.738,0.665,-0.02,0.108
1199866,1470.0,8080.0,1039.0,0.739,0.665,-0.02,0.108
1199882,1472.0,8058.0,1029.0,0.739,0.665,-0.02,0.108
1199898,1448.0,8090.0,1045.0,0.739,0.665,-0.02,0.108
1199914,1476.0,8066.0,1015.0,0.739,0.665,-0.02,0.108
1199940,1474.0,8000.0,1053.0,0.739,0.665,-0.02,0.108
1199956,1504.0,8100.0,1027.0,0.739,0.665,-0.02,0.108
1199972,1428.0,8122.0,1029.0,0.739,0.665,-0.02,0.108
1199988,1486.0,8078.0,1041.0,0.739,0.665,-0.02,0.108
1200004,1470.0,8090.0,1067.0,0.739,0.665,-0.02,0.108
1200020,1484.0,8046.0,1053.0,0.739,0.665,-0.02,0.108
1200046,1492.0,8052.0,1009.0,0.739,0.665,-0.02,0.108
1200062,1432.0,8032.0,1041.0,0.739,0.665,-0.02,0.108
1200078,1476.0,8068.0,1013.0,0.739,0.665,-0.02,0.108
1200094,1394.0,8114.0,1033.0,0.739,0.665,-0.02,0.108
1200110,1482.0,8008.0,1003.0,0.739,0.665,-0.02,0.108
1200126,1444.0,8068.0,1011.0,0.739,0.665,-0.02,0.108
1200152,1476.0,8014.0,1015.0,0.739,0.665,-0.02,0.108
1200168,1474.0,8064.0,1037.0,0.739,0.665,-0.02,0.108
1200184,1460.0,8074.0,1089.0,0.739,0.665,-0.02,0.108
1200200,1526.0,8040.0,1033.0,0.739,0.665,-0.02,0.108
1200216,1478.0,8078.0,1045.0,0.739,0.665,-0.02,0.108
1200232,1446.0,8040.0,1051.0,0.739,0.665,-0.02,0.108
1200258,1488.0,8080.0,1061.0,0.739,0.665,-0.02,0.108
1200274,1486.0,8060.0,1041.0,0.739,0.665,-0.02,0.108
1200290,1410.0,8062.0,1023.0,0.739,0.665,-0.02,0.108
1200306,1468.0,8078.0,1051.0,0.739,0.665,-0.02,0.108
1200322,1442.0,8048.0,1055.0,0.739,0.665,-0.02,0.108
1200338,1478.0,8100.0,999.0,0.739,0.665,-0.02,0.108
1200364,1446.0,8020.0,993.0,0.739,0.665,-0.02,0.108
1200381,1466.0,8054.0,1043.0,0.739,0.665,-0.02,0.108
1200397,1482.0,8096.0,1011.0,0.739,0.665,-0.02,0.108
1200413,1474.0,8060.0,1005.0,0.739,0.665,-0.02,0.108
1200429,1490.0,8102.0,965.0,0.739,0.665,-0.02,0.108
1200445,1500.0,8078.0,1003.0,0.739,0.665,-0.02,0.108
1200471,1486.0,8106.0,1041.0,0.739,0.665,-0.02,0.108
1200487,1466.0,8096.0,1029.0,0.739,0.665,-0.02,0.108
1200503,1520.0,8076.0,997.0,0.739,0.665,-0.02,0.108
1200519,1476.0,8080.0,1009.0,0.739,0.665,-0.02,0.108
1200535,1456.0,8080.0,1041.0,0.739,0.665,-0.02,0.108
1200551,1494.0,8060.0,1015.0,0.739,0.665,-0.02,0.108
1200577,1508.0,8072.0,1051.0,0.739,0.665,-0.02,0.108
1200593,1474.0,8074.0,1005.0,0.739,0.665,-0.02,0.108
1200609,1436.0,8056.0,1031.0,0.739,0.665,-0.02,0.108
1200625,1458.0,8094.0,1033.0,0.739,0.665,-0.02,0.108
1200641,1514.0,8070.0,993.0,0.739,0.665,-0.02,0.108
1200657,1416.0,8050.0,1053.0,0.739,0.665,-0.02,0.108
1200683,1490.0,8050.0,1011.0,0.739,0.665,-0.02,0.108
1200699,1464.0,8044.0,1053.0,0.739,0.665,-0.02,0.108
1200715,1488.0,8058.0,1017.0,0.739,0.665,-0.02,0.108
1200731,1514.0,8044.0,1003.0,0.739,0.665,-0.02,0.108
1200747,1456.0,8064.0,1087.0,0.739,0.665,-0.02,0.108
1200764,1454.0,8074.0,1043.0,0.739,0.665,-0.02,0.108
1200790,1484.0,8084.0,957.0,0.739,0.665,-0.02,0.108
1200806,1496.0,8054.0,999.0,0.739,0.665,-0.02,0.108
1200822,1412.0,8100.0,1027.0,0.739,0.665,-0.02,0.108
1200838,1446.0,8098.0,1003.0,0.739,0.665,-0.02,0.108
1200854,1484.0,8112.0,987.0,0.739,0.665,-0.02,0.108
1200870,1476.0,8036.0,1021.0,0.739,0.665,-0.02,0.108
1200896,1506.0,8048.0,1019.0,0.739,0.665,-0.021,0.108
1200912,1500.0,8054.0,1057.0,0.739,0.665,-0.021,0.108
1200928,1438.0,8062.0,1007.0,0.739,0.665,-0.021,0.108
1200944,1408.0,8074.0,1037.0,0.739,0.665,-0.021,0.108
1200960,1462.0,8056.0,1039.0,0.739,0.665,-0.021,0.108
1200976,1452.0,8082.0,975.0,0.739,0.665,-0.021,0.108
1201002,1550.0,8056.0,1003.0,0.739,0.665,-0.021,0.108
1201018,1524.0,8010.0,1017.0,0.739,0.665,-0.021,0.109
1201034,1490.0,8040.0,957.0,0.739,0.665,-0.021,0.109
1201050,1502.0,8092.0,1043.0,0.739,0.665,-0.021,0.109
1201066,1412.0,8128.0,977.0,0.739,0.665,-0.021,0.109
1201082,1538.0,8096.0,969.0,0.739,0.665,-0.021,0.109
1201108,1460.0,8080.0,1055.0,0.739,0.665,-0.021,0.109
1201124,1484.0,8062.0,1029.0,0.739,0.665,-0.021,0.109
1201140,1518.0,7974.0,1051.0,0.739,0.664,-0.021,0.109
1201157,1430.0,8046.0,1063.0,0.739,0.664,-0.021,0.109
1201173,1494.0,8086.0,1037.0,0.739,0.664,-0.021,0.109
1201190,1510.0,8004.0,1077.0,0.739,0.664,-0.021,0.109
1201206,1552.0,8002.0,1039.0,0.739,0.664,-0.021,0.109
1201232,1526.0,8028.0,1025.0,0.739,0.665,-0.021,0.109
1201248,1468.0,8044.0,1009.0,0.739,0.665,-0.021,0.109
1201264,1476.0,8030.0,989.0,0.738,0.665,-0.021,0.11
1201280,1482.0,8072.0,943.0,0.738,0.665,-0.021,0.11
1201296,1502.0,8124.0,937.0,0.738,0.666,-0.021,0.11
1201312,1480.0,8158.0,961.0,0.738,0.666,-0.021,0.11
1201339,1562.0,8130.0,987.0,0.738,0.666,-0.02,0.111
1201355,1542.0,8136.0,925.0,0.738,0.666,-0.02,0.111
1201371,1490.0,8138.0,979.0,0.738,0.666,-0.02,0.111
1201387,1454.0,8164.0,1027.0,0.738,0.665,-0.02,0.11
1201403,1474.0,8152.0,1027.0,0.738,0.665,-0.021,0.11
1201419,1476.0,8036.0,1067.0,0.739,0.665,-0.021,0.11
1201445,1470.0,8030.0,1137.0,0.739,0.664,-0.021,0.109
1201461,1436.0,8014.0,1161.0,0.74,0.664,-0.021,0.109
1201477,1460.0,7948.0,1161.0,0.74,0.663,-0.021,0.109
1201493,1420.0,7962.0,1139.0,0.74,0.663,-0.021,0.109
1201509,1444.0,8002.0,1141.0,0.74,0.664,-0.021,0.109
1201525,1496.0,8004.0,1115.0,0.74,0.664,-0.021,0.109
1201551,1500.0,8032.0,1039.0,0.739,0.664,-0.021,0.11
1201567,1514.0,8096.0,981.0,0.739,0.664,-0.021,0.11
1201583,1552.0,8112.0,963.0,0.739,0.665,-0.021,0.11
1201599,1532.0,8132.0,993.0,0.739,0.665,-0.02,0.11
1201615,1490.0,8080.0,903.0,0.739,0.665,-0.02,0.111
1201632,1530.0,8112.0,943.0,0.739,0.665,-0.02,0.111
1201648,1472.0,8068.0,953.0,0.739,0.665,-0.02,0.11
1201674,1426.0,8092.0,977.0,0.739,0.665,-0.021,0.11
1201690,1484.0,8074.0,963.0,0.739,0.665,-0.021,0.11
1201706,1486.0,8066.0,1011.0,0.739,0.664,-0.021,0.11
1201722,1508.0,8068.0,1051.0,0.739,0.664,-0.021,0.11
1201738,1534.0,8010.0,1087.0,0.739,0.664,-0.021,0.11
1201764,1554.0,8036.0,1069.0,0.739,0.664,-0.021,0.11
1201780,1514.0,8056.0,1035.0,0.739,0.664,-0.021,0.11
1201797,1452.0,8066.0,1037.0,0.739,0.664,-0.021,0.11
1201813,1500.0,8044.0,1027.0,0.739,0.664,-0.021,0.11
1201829,1432.0,8040.0,1041.0,0.739,0.664,-0.021,0.11
1201845,1466.0,8046.0,1007.0,0.74,0.664,-0.021,0.11
1201861,1462.0,8076.0,1069.0,0.74,0.664,-0.021,0.11
1201887,1434.0,8062.0,1039.0,0.74,0.664,-0.021,0.11
1201903,1468.0,8012.0,1071.0,0.74,0.664,-0.021,0.11
1201919,1522.0,8060.0,1023.0,0.74,0.664,-0.021,0.11
1201935,1524.0,8064.0,1049.0,0.739,0.664,-0.021,0.11
1201951,1504.0,8098.0,1033.0,0.739,0.664,-0.021,0.11
1201967,1502.0,8050.0,1019.0,0.739,0.664,-0.02,0.11
1201993,1536.0,8074.0,1019.0,0.739,0.664,-0.021,0.11
1202009,1442.0,8068.0,1017.0,0.739,0.664,-0.021,0.11
1202025,1484.0,8100.0,1037.0,0.739,0.664,-0.021,0.11
1202041,1532.0,8066.0,1065.0,0.74,0.664,-0.02,0.11
1202057,1506.0,8068.0,997.0,0.74,0.664,-0.02,0.11
1202073,1498.0,8042.0,1017.0,0.74,0.664,-0.02,0.11
1202100,1472.0,8062.0,1075.0,0.74,0.664,-0.021,0.11
1202116,1472.0,8054.0,1085.0,0.74,0.663,-0.021,0.11
1202132,1474.0,8086.0,1041.0,0.74,0.663,-0.02,0.11
1202148,1498.0,8078.0,1039.0,0.74,0.663,-0.02,0.11
1202164,1484.0,8030.0,1027.0,0.74,0.663,-0.02,0.11
1202180,1460.0,8048.0,1083.0,0.74,0.663,-0.02,0.11
1202197,1500.0,8074.0,1025.0,0.74,0.663,-0.02,0.11
1202223,1474.0,8110.0,1045.0,0.74,0.663,-0.02,0.11
1202239,1494.0,8052.0,1053.0,0.74,0.663,-0.02,0.11
1202255,1490.0,8060.0,1061.0,0.74,0.663,-0.02,0.11
1202271,1502.0,8076.0,1021.0,0.74,0.663,-0.02,0.11
1202287,1448.0,8058.0,1051.0,0.74,0.663,-0.02,0.11
1202303,1486.0,8068.0,1049.0,0.74,0.663,-0.02,0.11
1202329,1460.0,8086.0,1033.0,0.74,0.663,-0.02,0.11
1202345,1414.0,8094.0,1027.0,0.74,0.663,-0.02,0.11
1202361,1516.0,8094.0,1019.0,0.74,0.663,-0.02,0.11
1202378,1474.0,8044.0,1033.0,0.74,0.663,-0.02,0.11
1202394,1464.0,8016.0,1031.0,0.74,0.663,-0.02,0.11
1202410,1480.0,8054.0,1043.0,0.74,0.663,-0.02,0.11
1202427,1512.0,8006.0,1011.0,0.74,0.663,-0.02,0.11
1202454,1494.0,8058.0,1023.0,0.74,0.663,-0.02,0.11
1202470,1500.0,8072.0,1011.0,0.74,0.663,-0.02,0.11
1202486,1474.0,8084.0,1015.0,0.74,0.663,-0.02,0.11
1202502,1466.0,8080.0,1041.0,0.74,0.663,-0.02,0.11
1202518,1484.0,8054.0,1051.0,0.74,0.663,-0.02,0.11
1202534,1494.0,8094.0,1041.0,0.74,0.663,-0.02,0.11
1202560,1470.0,8054.0,1061.0,0.74,0.663,-0.02,0.11
1202577,1494.0,8092.0,1087.0,0.74,0.663,-0.02,0.11
1202593,1492.0,8054.0,1109.0,0.741,0.663,-0.02,0.11
1202609,1468.0,8084.0,1031.0,0.741,0.663,-0.02,0.11
1202625,1528.0,8038.0,1033.0,0.741,0.663,-0.02,0.11
1202641,1480.0,8016.0,1029.0,0.741,0.663,-0.02,0.11
1202657,1472.0,8028.0,1049.0,0.741,0.662,-0.02,0.11
1202683,1546.0,8064.0,1019.0,0.741,0.662,-0.02,0.11
1202703,1420.0,8042.0,1023.0,0.741,0.662,-0.02,0.11
1202719,1536.0,8098.0,1061.0,0.741,0.662,-0.02,0.11
1202735,1516.0,8044.0,1063.0,0.741,0.662,-0.02,0.11
1202751,1488.0,8094.0,1087.0,0.741,0.662,-0.02,0.11
1202767,1510.0,8048.0,1025.0,0.741,0.662,-0.02,0.11
1202783,1490.0,8102.0,1029.0,0.741,0.662,-0.02,0.11
1202799,1514.0,8100.0,1069.0,0.741,0.662,-0.02,0.11
1202825,1476.0,8056.0,1057.0,0.741,0.662,-0.02,0.11
1202841,1476.0,8098.0,1043.0,0.741,0.662,-0.02,0.11
1202857,1468.0,8110.0,1081.0,0.741,0.662,-0.02,0.11
1202873,1514.0,8076.0,1027.0,0.741,0.662,-0.02,0.11
1202889,1474.0,8032.0,1047.0,0.741,0.662,-0.02,0.11
1202905,1502.0,8044.0,1089.0,0.741,0.662,-0.02,0.11
1202931,1508.0,8050.0,1049.0,0.741,0.662,-0.02,0.11
1202947,1520.0,8060.0,1085.0,0.741,0.662,-0.02,0.11
1202963,1478.0,8052.0,1059.0,0.741,0.662,-0.02,0.11
1202979,1488.0,8060.0,1079.0,0.741,0.662,-0.02,0.11
1202996,1462.0,8030.0,1071.0,0.741,0.662,-0.02,0.11
1203012,1444.0,8086.0,1073.0,0.741,0.662,-0.02,0.11
1203038,1484.0,8054.0,1037.0,0.741,0.662,-0.02,0.11
1203054,1476.0,8076.0,1053.0,0.741,0.662,-0.02,0.11
1203070,1494.0,8094.0,1063.0,0.741,0.662,-0.02,0.11
1203086,1504.0,8064.0,1079.0,0.741,0.662,-0.02,0.11
1203102,1476.0,8088.0,1019.0,0.742,0.662,-0.02,0.11
1203118,1496.0,8058.0,1081.0,0.742,0.662,-0.02,0.11
1203144,1520.0,8074.0,1115.0,0.742,0.661,-0.02,0.11
1203160,1510.0,8032.0,1083.0,0.742,0.661,-0.02,0.11
1203176,1458.0,8066.0,1041.0,0.742,0.661,-0.02,0.11
1203192,1474.0,8094.0,1055.0,0.742,0.661,-0.02,0.11
1203208,1462.0,8032.0,1073.0,0.742,0.661,-0.02,0.11
1203224,1500.0,8050.0,1089.0,0.742,0.661,-0.02,0.11
1203250,1446.0,8090.0,1091.0,0.742,0.661,-0.02,0.11
1203266,1460.0,8042.0,1079.0,0.742,0.661,-0.02,0.11
1203282,1442.0,8074.0,1083.0,0.742,0.661,-0.02,0.11
1203298,1478.0,8042.0,1139.0,0.742,0.661,-0.02,0.11
1203314,1500.0,8032.0,1083.0,0.742,0.661,-0.02,0.11
1203330,1466.0,8082.0,1029.0,0.742,0.661,-0.02,0.11
1203356,1486.0,8036.0,1069.0,0.742,0.661,-0.02,0.11
1203372,1468.0,8108.0,1097.0,0.742,0.661,-0.02,0.111
1203388,1482.0,8032.0,1119.0,0.742,0.661,-0.02,0.111
1203404,1540.0,8062.0,1071.0,0.742,0.661,-0.02,0.111
1203420,1478.0,8080.0,1095.0,0.742,0.661,-0.02,0.111
1203436,1526.0,8112.0,1123.0,0.742,0.661,-0.02,0.11
1203462,1430.0,8058.0,1075.0,0.742,0.661,-0.02,0.11
1203478,1498.0,8036.0,1027.0,0.742,0.661,-0.02,0.11
1203494,1458.0,8038.0,1111.0,0.742,0.66,-0.02,0.11
1203510,1470.0,8082.0,1115.0,0.742,0.66,-0.02,0.11
1203526,1506.0,8044.0,1075.0,0.743,0.66,-0.02,0.11
1203542,1490.0,8068.0,1085.0,0.743,0.66,-0.02,0.11
1203568,1552.0,8060.0,1109.0,0.743,0.66,-0.02,0.11
1203584,1564.0,8150.0,1079.0,0.743,0.66,-0.02,0.11
1203600,1606.0,8142.0,1003.0,0.743,0.66,-0.02,0.111
1203616,1772.0,8580.0,1005.0,0.743,0.66,-0.02,0.111
1203632,1828.0,8636.0,947.0,0.744,0.659,-0.019,0.112
1203648,1822.0,8626.0,1155.0,0.746,0.657,-0.018,0.113
1203674,1736.0,8280.0,1271.0,0.748,0.654,-0.018,0.114
1203690,2000.0,8784.0,1029.0,0.75,0.651,-0.018,0.115
1203706,2974.0,10662.0,1015.0,0.755,0.645,-0.018,0.116
1203722,2444.0,9206.0,1591.0,0.763,0.635,-0.019,0.119
1203738,2174.0,10174.0,2055.0,0.775,0.62,-0.021,0.125
1203764,1572.0,7252.0,2203.0,0.788,0.602,-0.024,0.13
1203780,2108.0,7228.0,2241.0,0.799,0.586,-0.026,0.134
1203796,3658.0,8638.0,2511.0,0.811,0.569,-0.029,0.138
1203812,2810.0,8588.0,2549.0,0.823,0.549,-0.032,0.145
1203828,3456.0,8266.0,3669.0,0.837,0.524,-0.036,0.151
1203844,2690.0,6506.0,3719.0,0.852,0.497,-0.042,0.16
1203870,3446.0,5350.0,3813.0,0.865,0.471,-0.047,0.167
1203886,3346.0,4220.0,4301.0,0.874,0.451,-0.05,0.174
1203902,3242.0,3862.0,4473.0,0.881,0.434,-0.052,0.181
1203918,3396.0,3920.0,5279.0,0.886,0.42,-0.054,0.19
1203934,3776.0,4164.0,6047.0,0.889,0.408,-0.055,0.199
1203950,3480.0,5240.0,6245.0,0.892,0.397,-0.055,0.207
1203976,3918.0,5452.0,6197.0,0.896,0.385,-0.055,0.215
1203992,3514.0,4888.0,6429.0,0.9,0.371,-0.055,0.224
1204008,3566.0,2998.0,6833.0,0.902,0.358,-0.053,0.233
1204024,3294.0,892.0,7405.0,0.903,0.351,-0.049,0.244
1204040,3492.0,1836.0,8019.0,0.9,0.35,-0.042,0.257
1204056,3928.0,2466.0,8271.0,0.895,0.353,-0.031,0.27
1204082,3342.0,3674.0,8487.0,0.89,0.357,-0.016,0.284
1204098,2644.0,3924.0,7819.0,0.883,0.361,0.0,0.301
1204114,2198.0,4362.0,6987.0,0.875,0.362,0.015,0.321
1204130,1996.0,4584.0,6287.0,0.866,0.362,0.03,0.343
1204146,1468.0,4084.0,5737.0,0.857,0.358,0.045,0.367
1204172,596.0,3050.0,4959.0,0.847,0.355,0.059,0.391
1204188,-92.0,2386.0,4113.0,0.834,0.357,0.074,0.414
1204204,-288.0,1378.0,3333.0,0.818,0.365,0.089,0.436
1204220,-546.0,78.0,2629.0,0.797,0.383,0.106,0.455
1204236,-384.0,-90.0,1621.0,0.771,0.41,0.126,0.47
1204252,74.0,690.0,465.0,0.74,0.444,0.149,0.482
1204278,692.0,1284.0,-487.0,0.704,0.482,0.172,0.493
1204294,1704.0,2418.0,-1153.0,0.664,0.52,0.194,0.502
1204310,2946.0,4096.0,-1547.0,0.621,0.554,0.213,0.511
1204327,4430.0,6210.0,-2307.0,0.579,0.583,0.227,0.523
1204343,6122.0,10834.0,-3203.0,0.544,0.6,0.231,0.54
1204359,5928.0,16518.0,-4665.0,0.524,0.598,0.217,0.566
1204376,3174.0,17156.0,-5751.0,0.527,0.575,0.175,0.601
1204393,1460.0,11482.0,-7123.0,0.546,0.538,0.103,0.635
1204419,2662.0,6578.0,-7435.0,0.57,0.494,0.012,0.657
1204435,5276.0,2816.0,-6593.0,0.59,0.452,-0.089,0.663
1204451,8598.0,1166.0,-4205.0,0.607,0.412,-0.19,0.653
1204467,11594.0,-166.0,-1283.0,0.618,0.376,-0.287,0.628
1204483,13934.0,-1402.0,2331.0,0.622,0.345,-0.375,0.594
1204499,14552.0,-1664.0,4617.0,0.621,0.319,-0.449,0.557
1204525,14782.0,-2462.0,5917.0,0.619,0.296,-0.508,0.521
1204541,14764.0,-4508.0,6833.0,0.618,0.276,-0.548,0.492
1204557,13584.0,-7410.0,7957.0,0.621,0.264,-0.566,0.474
1204573,11504.0,-8652.0,8213.0,0.627,0.265,-0.562,0.47
1204589,10032.0,-9962.0,7857.0,0.631,0.283,-0.541,0.479
1204606,8428.0,-9522.0,7043.0,0.629,0.32,-0.504,0.499
1204622,7890.0,-8030.0,5797.0,0.617,0.371,-0.454,0.525
1204649,8150.0,-6254.0,4531.0,0.596,0.429,-0.393,0.553
1204665,8722.0,-5312.0,2401.0,0.565,0.49,-0.321,0.582
1204681,8796.0,-4224.0,-881.0,0.525,0.548,-0.234,0.608
1204697,7732.0,-2838.0,-4149.0,0.476,0.601,-0.134,0.628
1204718,5744.0,-628.0,-7061.0,0.42,0.647,-0.022,0.637
1204734,4134.0,3196.0,-9323.0,0.36,0.68,0.092,0.632
1204750,3682.0,7346.0,-9317.0,0.302,0.697,0.197,0.62
1204766,3138.0,13408.0,-6831.0,0.252,0.701,0.276,0.608
1204782,2084.0,18728.0,-3699.0,0.223,0.698,0.312,0.604
1204808,756.0,16966.0,-3001.0,0.228,0.694,0.302,0.613
1204824,2204.0,11794.0,-5939.0,0.258,0.685,0.257,0.631
1204840,3072.0,10784.0,-7951.0,0.308,0.668,0.187,0.652
1204856,4024.0,8796.0,-9001.0,0.369,0.642,0.095,0.666
1204872,5556.0,6404.0,-9343.0,0.433,0.605,-0.008,0.668
1204898,7412.0,5254.0,-9035.0,0.499,0.557,-0.117,0.653
1204914,8708.0,848.0,-7691.0,0.558,0.5,-0.223,0.624
1204930,10038.0,-3962.0,-5033.0,0.604,0.44,-0.312,0.587
1204946,10512.0,-7986.0,-393.0,0.634,0.389,-0.378,0.551
1204962,9780.0,-10984.0,4903.0,0.654,0.352,-0.418,0.523
1204979,9494.0,-15308.0,8941.0,0.665,0.334,-0.435,0.507
1204995,9036.0,-17662.0,8399.0,0.665,0.343,-0.424,0.511
1205012,8438.0,-13278.0,5695.0,0.654,0.377,-0.385,0.532
1205029,8418.0,-7580.0,2093.0,0.631,0.425,-0.325,0.561
1205055,8618.0,-2256.0,-547.0,0.599,0.482,-0.247,0.589
1205071,8310.0,1758.0,-2899.0,0.56,0.539,-0.154,0.61
1205087,7016.0,6286.0,-4783.0,0.513,0.592,-0.049,0.62
1205103,6806.0,11684.0,-6249.0,0.463,0.635,0.057,0.616
1205120,6698.0,16168.0,-6271.0,0.419,0.662,0.152,0.602
1205136,6832.0,20098.0,-4687.0,0.393,0.672,0.225,0.586
1205162,6370.0,18634.0,-3429.0,0.39,0.666,0.269,0.576
1205178,5650.0,12290.0,-3935.0,0.406,0.651,0.29,0.572
1205194,4400.0,8818.0,-5045.0,0.431,0.633,0.297,0.57
1205211,3250.0,6878.0,-5739.0,0.461,0.616,0.297,0.565
1205227,3136.0,7268.0,-5623.0,0.493,0.603,0.295,0.554
1205243,3322.0,7468.0,-5055.0,0.527,0.592,0.289,0.537
1205269,3126.0,6458.0,-3757.0,0.563,0.582,0.279,0.516
1205285,2874.0,5248.0,-2855.0,0.6,0.572,0.264,0.493
1205301,2694.0,3816.0,-2143.0,0.633,0.564,0.247,0.47
1205317,2540.0,4500.0,-1685.0,0.662,0.557,0.229,0.446
1205333,2508.0,5088.0,-559.0,0.69,0.548,0.207,0.425
1205349,1732.0,3424.0,257.0,0.717,0.538,0.183,0.404
1205375,842.0,1414.0,615.0,0.741,0.529,0.158,0.382
1205391,702.0,946.0,1415.0,0.758,0.527,0.133,0.359
1205407,1974.0,1934.0,2005.0,0.77,0.53,0.109,0.337
1205423,2396.0,3270.0,2585.0,0.779,0.535,0.085,0.316
1205439,2384.0,3794.0,3277.0,0.786,0.539,0.062,0.297
1205455,2678.0,3646.0,4027.0,0.791,0.543,0.041,0.279
1205481,2976.0,3006.0,4397.0,0.794,0.549,0.022,0.262
1205497,3174.0,3124.0,4209.0,0.792,0.559,0.008,0.246
1205513,3896.0,6008.0,4561.0,0.788,0.571,-0.004,0.231
1205529,3974.0,8144.0,4055.0,0.783,0.582,-0.013,0.218
1205545,4412.0,9342.0,4005.0,0.781,0.59,-0.021,0.206
1205561,4472.0,8718.0,4161.0,0.781,0.592,-0.03,0.197
1205587,5234.0,7066.0,5079.0,0.782,0.593,-0.036,0.189
1205603,4964.0,6686.0,5305.0,0.78,0.596,-0.04,0.183
1205619,5466.0,7670.0,5639.0,0.777,0.602,-0.041,0.179
1205635,5124.0,7620.0,5085.0,0.773,0.608,-0.04,0.177
1205651,4204.0,6686.0,4619.0,0.768,0.615,-0.038,0.175
1205667,3660.0,7234.0,3415.0,0.762,0.623,-0.036,0.173
1205693,2902.0,5838.0,2129.0,0.755,0.632,-0.034,0.172
1205710,3030.0,7298.0,1063.0,0.748,0.641,-0.033,0.171
1205726,2460.0,7510.0,453.0,0.743,0.647,-0.033,0.17
1205742,2456.0,6926.0,645.0,0.74,0.65,-0.034,0.171
1205758,2272.0,7212.0,377.0,0.737,0.653,-0.037,0.171
1205774,2712.0,7740.0,745.0,0.734,0.656,-0.04,0.172
1205790,3192.0,8478.0,1185.0,0.731,0.659,-0.043,0.172
1205816,3632.0,8558.0,1369.0,0.729,0.661,-0.044,0.173
1205832,3232.0,8258.0,1765.0,0.727,0.662,-0.044,0.174
1205848,3080.0,7924.0,1593.0,0.725,0.665,-0.043,0.175
1205864,1656.0,8672.0,627.0,0.722,0.668,-0.042,0.175
1205880,2484.0,7290.0,859.0,0.719,0.671,-0.04,0.175
1205896,1914.0,7374.0,1027.0,0.716,0.675,-0.038,0.176
1205922,1776.0,8324.0,763.0,0.712,0.679,-0.036,0.175
1205938,2012.0,8202.0,967.0,0.709,0.682,-0.034,0.175
1205954,1672.0,8520.0,891.0,0.706,0.686,-0.031,0.174
1205970,1954.0,7730.0,437.0,0.703,0.689,-0.029,0.174
1205986,2040.0,7692.0,191.0,0.699,0.693,-0.026,0.173
1206012,1998.0,7780.0,-595.0,0.695,0.698,-0.023,0.172
1206028,2324.0,7438.0,-71.0,0.69,0.703,-0.02,0.169
1206044,2078.0,7966.0,-431.0,0.685,0.709,-0.016,0.167
1206060,1808.0,7734.0,123.0,0.679,0.715,-0.013,0.165
1206076,2630.0,6348.0,419.0,0.672,0.722,-0.01,0.165
1206092,1734.0,9596.0,653.0,0.664,0.729,-0.007,0.164
1206118,1640.0,8134.0,77.0,0.66,0.733,-0.005,0.165
1206134,1896.0,7060.0,-175.0,0.655,0.737,-0.004,0.165
1206150,1808.0,8490.0,-497.0,0.651,0.741,-0.001,0.165
1206166,2274.0,8666.0,-747.0,0.647,0.744,0.0,0.165
1206182,2340.0,8434.0,-859.0,0.645,0.746,0.002,0.164
1206198,1650.0,7866.0,-897.0,0.643,0.748,0.004,0.165
1206224,2468.0,7450.0,-643.0,0.641,0.75,0.007,0.165
1206240,2162.0,8054.0,-655.0,0.639,0.751,0.009,0.166
1206256,2164.0,8102.0,-661.0,0.637,0.752,0.011,0.168
1206272,2044.0,7746.0,-1061.0,0.635,0.753,0.014,0.17
1206288,2660.0,7402.0,-1495.0,0.633,0.754,0.018,0.173
1206304,3008.0,7724.0,-1367.0,0.632,0.754,0.022,0.178
1206330,2050.0,7598.0,-989.0,0.63,0.754,0.026,0.184
1206346,1498.0,7588.0,355.0,0.628,0.755,0.031,0.189
1206362,1926.0,8258.0,-481.0,0.623,0.757,0.034,0.192
1206378,2442.0,8358.0,-1671.0,0.62,0.759,0.037,0.193
1206394,2978.0,7458.0,-1715.0,0.618,0.761,0.041,0.195
1206410,2898.0,8160.0,-1353.0,0.614,0.763,0.044,0.198
1206436,2622.0,8078.0,-1237.0,0.61,0.765,0.048,0.2
1206452,2414.0,7500.0,-1701.0,0.606,0.767,0.052,0.202
1206468,2696.0,7812.0,-1333.0,0.602,0.77,0.057,0.205
1206484,2936.0,7636.0,-1177.0,0.597,0.772,0.062,0.209
1206500,2890.0,8778.0,-1017.0,0.594,0.773,0.068,0.212
1206516,2776.0,8508.0,-1083.0,0.592,0.773,0.074,0.216
1206542,2642.0,9504.0,-1267.0,0.591,0.772,0.081,0.22
1206558,2806.0,9964.0,-1435.0,0.591,0.77,0.088,0.223
1206574,2484.0,10414.0,-1555.0,0.593,0.767,0.097,0.225
1206590,2474.0,10446.0,-1903.0,0.596,0.763,0.106,0.226
1206606,2296.0,10790.0,-1843.0,0.6,0.758,0.117,0.226
1206622,2022.0,10822.0,-1743.0,0.606,0.753,0.127,0.225
1206648,1836.0,10466.0,-1671.0,0.611,0.747,0.139,0.223
1206664,1642.0,10810.0,-1469.0,0.617,0.741,0.15,0.22
1206680,1196.0,10858.0,-839.0,0.623,0.735,0.162,0.216
1206696,1426.0,10686.0,-903.0,0.629,0.728,0.174,0.211
1206712,1336.0,11096.0,-757.0,0.634,0.721,0.186,0.206
1206730,1124.0,11104.0,-301.0,0.641,0.714,0.198,0.201
1206746,968.0,11004.0,-207.0,0.648,0.706,0.209,0.195
1206772,754.0,10772.0,53.0,0.655,0.697,0.221,0.19
1206788,748.0,10784.0,89.0,0.663,0.687,0.232,0.184
1206804,774.0,10554.0,185.0,0.672,0.676,0.244,0.18
1206820,472.0,10130.0,475.0,0.681,0.664,0.255,0.174
1206836,212.0,9934.0,783.0,0.69,0.651,0.267,0.169
1206862,230.0,10010.0,781.0,0.7,0.637,0.278,0.163
1206878,138.0,9414.0,765.0,0.711,0.621,0.29,0.158
1206894,32.0,9530.0,831.0,0.721,0.605,0.303,0.153
1206910,118.0,9426.0,551.0,0.73,0.587,0.315,0.15
1206927,-174.0,8982.0,653.0,0.739,0.569,0.329,0.147
1206944,-910.0,8826.0,1053.0,0.748,0.55,0.342,0.144
1206960,-768.0,8642.0,1203.0,0.757,0.53,0.355,0.142
1206977,-884.0,8562.0,847.0,0.765,0.509,0.369,0.14
1207003,-1060.0,7506.0,1231.0,0.773,0.487,0.383,0.139
1207019,-1578.0,7856.0,1171.0,0.78,0.464,0.397,0.138
1207035,-1518.0,7262.0,937.0,0.786,0.441,0.411,0.137
1207051,-1694.0,7032.0,721.0,0.792,0.416,0.425,0.135
1207067,-2212.0,6732.0,775.0,0.797,0.391,0.44,0.135
1207083,-2472.0,6158.0,705.0,0.801,0.366,0.454,0.135
1207109,-3020.0,5636.0,861.0,0.805,0.339,0.468,0.135
1207125,-3704.0,5458.0,1055.0,0.808,0.313,0.481,0.135
1207141,-3862.0,4954.0,837.0,0.81,0.287,0.493,0.136
1207157,-4098.0,4476.0,841.0,0.812,0.26,0.504,0.137
1207173,-4334.0,4198.0,687.0,0.814,0.233,0.514,0.137
1207199,-4802.0,3886.0,737.0,0.815,0.207,0.524,0.139
1207215,-5150.0,3786.0,807.0,0.815,0.18,0.532,0.14
1207231,-5312.0,3344.0,863.0,0.815,0.154,0.54,0.142
1207247,-5460.0,2736.0,739.0,0.815,0.128,0.546,0.144
1207263,-5812.0,2590.0,1139.0,0.815,0.102,0.552,0.146
1207279,-5894.0,2392.0,1145.0,0.814,0.076,0.557,0.149
1207295,-6000.0,1808.0,1191.0,0.813,0.05,0.56,0.152
1207321,-5832.0,1646.0,1255.0,0.811,0.024,0.563,0.156
1207337,-5718.0,1192.0,1103.0,0.809,-0.002,0.565,0.16
1207353,-5852.0,754.0,1099.0,0.807,-0.028,0.566,0.165
1207369,-6030.0,862.0,1131.0,0.804,-0.054,0.567,0.171
1207385,-6144.0,246.0,867.0,0.8,-0.08,0.567,0.178
1207401,-6352.0,-560.0,591.0,0.796,-0.105,0.567,0.186
1207427,-6808.0,-478.0,477.0,0.79,-0.13,0.568,0.193
1207444,-7138.0,-526.0,435.0,0.783,-0.153,0.568,0.201
1207461,-7532.0,-770.0,215.0,0.776,-0.176,0.568,0.209
1207478,-7860.0,-1222.0,69.0,0.768,-0.199,0.568,0.217
1207494,-8290.0,-1384.0,29.0,0.76,-0.22,0.568,0.226
1207511,-8618.0,-1382.0,-35.0,0.753,-0.241,0.566,0.235
1207528,-8854.0,-1464.0,39.0,0.746,-0.26,0.563,0.245
1207544,-8904.0,-1596.0,41.0,0.739,-0.278,0.558,0.255
1207561,-8730.0,-1934.0,-167.0,0.733,-0.295,0.552,0.265
1207578,-8710.0,-1800.0,-53.0,0.728,-0.311,0.546,0.274
1207605,-8588.0,-1804.0,3.0,0.722,-0.326,0.54,0.284
1207621,-8598.0,-2042.0,83.0,0.717,-0.34,0.533,0.293
1207637,-8332.0,-1952.0,9.0,0.712,-0.353,0.527,0.301
1207654,-8340.0,-1836.0,51.0,0.707,-0.365,0.521,0.309
1207671,-8228.0,-2048.0,119.0,0.701,-0.377,0.516,0.316
1207688,-8204.0,-1972.0,229.0,0.696,-0.388,0.511,0.322
1207705,-8310.0,-1944.0,339.0,0.69,-0.398,0.507,0.328
1207721,-8244.0,-2000.0,389.0,0.685,-0.408,0.503,0.334
1207738,-8060.0,-2242.0,369.0,0.68,-0.417,0.499,0.339
1207755,-7906.0,-1944.0,335.0,0.675,-0.426,0.496,0.342
1207782,-8030.0,-2204.0,403.0,0.67,-0.434,0.493,0.346
1207798,-7894.0,-2086.0,343.0,0.666,-0.441,0.49,0.349
1207814,-7880.0,-2120.0,451.0,0.662,-0.448,0.488,0.351
1207830,-7894.0,-1960.0,575.0,0.659,-0.454,0.485,0.353
1207846,-7756.0,-2164.0,591.0,0.656,-0.459,0.482,0.355
1207862,-7640.0,-2190.0,537.0,0.655,-0.463,0.48,0.357
1207888,-7700.0,-2092.0,669.0,0.653,-0.467,0.477,0.358
1207904,-7740.0,-1998.0,723.0,0.652,-0.47,0.475,0.359
1207920,-7622.0,-2242.0,665.0,0.652,-0.472,0.472,0.36
1207936,-7476.0,-1614.0,545.0,0.651,-0.475,0.47,0.361
1207953,-7608.0,-2024.0,751.0,0.65,-0.478,0.467,0.362
1207969,-7566.0,-2162.0,845.0,0.649,-0.482,0.464,0.364
1207986,-7558.0,-2764.0,745.0,0.648,-0.485,0.461,0.365
1208004,-7582.0,-2164.0,745.0,0.646,-0.488,0.458,0.366
1208021,-7702.0,-2616.0,839.0,0.645,-0.491,0.456,0.368
1208047,-7706.0,-2736.0,769.0,0.643,-0.494,0.453,0.369
1208063,-7844.0,-2718.0,805.0,0.642,-0.497,0.451,0.371
1208079,-7954.0,-2768.0,807.0,0.641,-0.499,0.449,0.372
1208096,-8004.0,-2670.0,905.0,0.64,-0.502,0.446,0.373
1208112,-8084.0,-2644.0,789.0,0.639,-0.504,0.444,0.375
1208128,-8316.0,-2788.0,951.0,0.638,-0.506,0.441,0.377
1208144,-8284.0,-2666.0,881.0,0.637,-0.508,0.438,0.379
1208171,-8594.0,-2852.0,1153.0,0.637,-0.51,0.435,0.381
1208187,-8650.0,-2846.0,1221.0,0.637,-0.511,0.432,0.383
1208203,-8662.0,-3038.0,1225.0,0.637,-0.512,0.428,0.385
1208219,-8890.0,-3002.0,1395.0,0.638,-0.514,0.424,0.387
1208236,-9210.0,-2688.0,1591.0,0.638,-0.516,0.42,0.388
1208252,-9600.0,-2544.0,1617.0,0.638,-0.519,0.415,0.389
1208268,-10256.0,-3180.0,1777.0,0.638,-0.522,0.41,0.39
1208295,-10534.0,-2336.0,1661.0,0.638,-0.526,0.404,0.391
1208311,-10920.0,-4224.0,2203.0,0.637,-0.531,0.399,0.393
1208327,-10206.0,-4404.0,2055.0,0.637,-0.535,0.393,0.391
1208344,-9994.0,-3892.0,2197.0,0.637,-0.54,0.389,0.389
1208360,-9632.0,-4362.0,2065.0,0.637,-0.545,0.386,0.385
1208377,-9912.0,-4612.0,2215.0,0.636,-0.55,0.384,0.381
1208394,-9680.0,-4172.0,2013.0,0.634,-0.555,0.384,0.378
1208410,-9444.0,-4272.0,1549.0,0.631,-0.56,0.385,0.375
1208427,-9366.0,-4928.0,1241.0,0.627,-0.564,0.386,0.373
1208454,-8600.0,-4682.0,743.0,0.624,-0.568,0.389,0.37
1208471,-8570.0,-3976.0,729.0,0.62,-0.572,0.392,0.367
1208487,-7890.0,-3750.0,371.0,0.616,-0.577,0.395,0.364
1208503,-8306.0,-3918.0,461.0,0.611,-0.581,0.398,0.361
1208519,-8236.0,-3650.0,293.0,0.607,-0.585,0.401,0.359
1208535,-8454.0,-3726.0,397.0,0.602,-0.588,0.405,0.357
1208551,-8438.0,-3442.0,211.0,0.598,-0.59,0.409,0.357
1208577,-8034.0,-3364.0,53.0,0.594,-0.591,0.414,0.357
1208594,-8048.0,-2738.0,57.0,0.59,-0.591,0.418,0.358
1208610,-7588.0,-2490.0,-125.0,0.586,-0.591,0.422,0.359
1208626,-7480.0,-2444.0,-313.0,0.582,-0.59,0.427,0.362
1208642,-6700.0,-2862.0,-669.0,0.579,-0.588,0.431,0.364
1208658,-6882.0,-1874.0,-541.0,0.577,-0.586,0.435,0.366
1208675,-7024.0,-1786.0,-389.0,0.575,-0.584,0.439,0.369
1208701,-7076.0,-1798.0,-545.0,0.573,-0.58,0.442,0.373
1208717,-6834.0,-2714.0,-477.0,0.572,-0.577,0.445,0.378
1208733,-6758.0,-1222.0,-501.0,0.572,-0.572,0.446,0.383
1208749,-7178.0,-1466.0,-335.0,0.571,-0.568,0.447,0.39
1208766,-6760.0,-2934.0,-383.0,0.571,-0.563,0.447,0.397
1208782,-6530.0,-1924.0,-493.0,0.572,-0.556,0.449,0.403
1208808,-6526.0,-1000.0,-269.0,0.573,-0.55,0.45,0.409
1208824,-6232.0,-2238.0,-611.0,0.573,-0.545,0.45,0.415
1208840,-6254.0,-1530.0,-483.0,0.573,-0.539,0.452,0.42
1208856,-6484.0,-1464.0,-499.0,0.572,-0.534,0.454,0.426
1208872,-7022.0,-1376.0,-181.0,0.57,-0.53,0.455,0.432
1208888,-6854.0,-1968.0,-359.0,0.568,-0.526,0.456,0.439
1208914,-6762.0,-2112.0,-647.0,0.566,-0.521,0.458,0.445
1208932,-6812.0,-1486.0,-291.0,0.564,-0.517,0.46,0.451
1208948,-6448.0,-1236.0,-253.0,0.561,-0.512,0.461,0.458
1208964,-4700.0,-616.0,-65.0,0.559,-0.508,0.461,0.466
1208981,-2666.0,-592.0,-447.0,0.556,-0.504,0.462,0.473
1208997,-1142.0,-1178.0,-569.0,0.554,-0.502,0.462,0.477
1209013,-696.0,-2916.0,199.0,0.553,-0.503,0.462,0.476
1209029,-936.0,-1666.0,233.0,0.556,-0.505,0.462,0.471
1209056,-878.0,-572.0,-131.0,0.559,-0.51,0.462,0.463
1209072,-1210.0,-130.0,-99.0,0.561,-0.517,0.46,0.453
1209088,-2120.0,-618.0,-107.0,0.563,-0.527,0.458,0.443
1209104,-3340.0,-1450.0,61.0,0.564,-0.536,0.456,0.432
1209120,-4296.0,-1670.0,219.0,0.565,-0.545,0.454,0.422
1209136,-5398.0,-2492.0,-447.0,0.566,-0.554,0.451,0.411
1209162,-6658.0,-3296.0,-331.0,0.568,-0.561,0.449,0.401
1209178,-7704.0,-3784.0,-365.0,0.572,-0.567,0.445,0.39
1209194,-8074.0,-3302.0,-287.0,0.578,-0.571,0.442,0.381
1209211,-8032.0,-2996.0,-441.0,0.584,-0.573,0.437,0.373
1209228,-8088.0,-3668.0,-395.0,0.59,-0.576,0.432,0.366
1209244,-7992.0,-4228.0,717.0,0.596,-0.577,0.427,0.359
1209260,-7506.0,-3858.0,373.0,0.603,-0.577,0.423,0.352
1209277,-8410.0,-2824.0,995.0,0.611,-0.576,0.418,0.346
1209303,-7580.0,-4036.0,791.0,0.618,-0.576,0.413,0.341
1209319,-7008.0,-4110.0,403.0,0.625,-0.574,0.409,0.335
1209335,-8354.0,-2598.0,1259.0,0.632,-0.572,0.405,0.33
1209351,-8260.0,-2868.0,1171.0,0.638,-0.57,0.402,0.326
1209367,-8178.0,-4156.0,1025.0,0.643,-0.569,0.398,0.323
1209393,-7938.0,-3208.0,1301.0,0.648,-0.567,0.394,0.32
1209410,-7772.0,-2982.0,997.0,0.652,-0.566,0.392,0.318
1209426,-8218.0,-3716.0,1233.0,0.655,-0.565,0.39,0.316
1209443,-8560.0,-3954.0,1315.0,0.658,-0.563,0.388,0.314
1209460,-8522.0,-3596.0,1413.0,0.661,-0.562,0.386,0.313
1209477,-8174.0,-3348.0,1305.0,0.664,-0.561,0.383,0.313
1209493,-8092.0,-3708.0,1539.0,0.666,-0.56,0.381,0.313
1209510,-7862.0,-3812.0,1397.0,0.668,-0.558,0.379,0.313
1209527,-7724.0,-4314.0,1299.0,0.67,-0.557,0.377,0.314
1209543,-7902.0,-3862.0,1365.0,0.672,-0.556,0.375,0.315
1209570,-7578.0,-4458.0,1085.0,0.673,-0.554,0.374,0.316
1209586,-7712.0,-4662.0,1177.0,0.675,-0.553,0.373,0.316
1209602,-7850.0,-4394.0,1231.0,0.676,-0.551,0.372,0.316
1209618,-8034.0,-4854.0,1113.0,0.678,-0.551,0.371,0.316
1209634,-8246.0,-5400.0,1181.0,0.679,-0.55,0.371,0.316
1209650,-8260.0,-4924.0,1013.0,0.679,-0.549,0.372,0.315
1209676,-9130.0,-5122.0,1157.0,0.679,-0.549,0.373,0.314
1209693,-9670.0,-5740.0,1325.0,0.677,-0.549,0.375,0.314
1209709,-10886.0,-6018.0,1485.0,0.675,-0.551,0.378,0.313
1209726,-11466.0,-6550.0,915.0,0.673,-0.552,0.381,0.311
1209743,-12300.0,-6928.0,1167.0,0.67,-0.555,0.384,0.309
1209760,-12786.0,-7012.0,747.0,0.668,-0.557,0.387,0.306
1209776,-12854.0,-6994.0,613.0,0.666,-0.56,0.389,0.304
1209793,-12470.0,-6462.0,705.0,0.664,-0.562,0.391,0.301
1209810,-11664.0,-6302.0,717.0,0.663,-0.564,0.392,0.298
1209826,-10514.0,-6342.0,325.0,0.662,-0.567,0.392,0.294
1209852,-9842.0,-5612.0,411.0,0.662,-0.569,0.392,0.29
1209868,-9224.0,-5516.0,207.0,0.661,-0.572,0.392,0.286
1209884,-9234.0,-5316.0,407.0,0.66,-0.575,0.393,0.282
1209900,-8506.0,-5246.0,-35.0,0.659,-0.578,0.393,0.279
1209916,-8048.0,-5586.0,-109.0,0.656,-0.581,0.394,0.276
1209932,-7976.0,-5136.0,-175.0,0.653,-0.585,0.396,0.272
1209959,-8022.0,-4724.0,-101.0,0.649,-0.589,0.398,0.27
1209976,-7982.0,-5054.0,-45.0,0.645,-0.593,0.401,0.269
1209993,-7886.0,-5036.0,-59.0,0.64,-0.596,0.403,0.269
1210009,-7648.0,-4392.0,-87.0,0.636,-0.598,0.407,0.27
1210026,-7324.0,-4790.0,-239.0,0.631,-0.6,0.41,0.271
1210042,-7612.0,-4204.0,179.0,0.628,-0.6,0.413,0.272
1210059,-7628.0,-3482.0,257.0,0.625,-0.601,0.416,0.275
1210076,-7116.0,-3756.0,77.0,0.622,-0.601,0.417,0.278
1210093,-6612.0,-4426.0,-375.0,0.619,-0.601,0.419,0.281
1210110,-6414.0,-3792.0,-417.0,0.617,-0.602,0.421,0.283
1210136,-6838.0,-2974.0,-385.0,0.613,-0.602,0.425,0.286
1210152,-7032.0,-3750.0,-253.0,0.609,-0.601,0.429,0.29
1210168,-6682.0,-2796.0,-189.0,0.604,-0.6,0.433,0.295
1210184,-6170.0,-2910.0,-603.0,0.598,-0.599,0.439,0.302
1210200,-6374.0,-4052.0,-497.0,0.593,-0.597,0.444,0.309
1210216,-6490.0,-3046.0,-799.0,0.588,-0.593,0.45,0.315
1210242,-6462.0,-1878.0,-519.0,0.584,-0.589,0.456,0.322
1210259,-6638.0,-2656.0,-639.0,0.58,-0.584,0.461,0.331
1210276,-6748.0,-3264.0,-595.0,0.578,-0.578,0.465,0.339
1210293,-6734.0,-1578.0,-719.0,0.578,-0.569,0.47,0.349
1210309,-6560.0,-2778.0,-997.0,0.579,-0.559,0.473,0.359
1210325,-6892.0,-2474.0,-737.0,0.581,-0.548,0.476,0.369
1210342,-6242.0,-2484.0,-973.0,0.585,-0.535,0.477,0.379
1210358,-5350.0,-1858.0,-1113.0,0.59,-0.522,0.477,0.389
1210384,-4266.0,-1592.0,-949.0,0.595,-0.509,0.478,0.399
1210400,-3666.0,-712.0,-327.0,0.599,-0.496,0.479,0.408
1210417,-2500.0,-1108.0,-391.0,0.601,-0.484,0.479,0.418
1210433,-1582.0,-1862.0,-171.0,0.603,-0.474,0.48,0.425
1210449,-1446.0,-1144.0,11.0,0.605,-0.466,0.482,0.429
1210465,-1546.0,-1436.0,-35.0,0.607,-0.463,0.484,0.428
1210481,-1682.0,-1564.0,191.0,0.609,-0.463,0.486,0.424
1210507,-2186.0,-1222.0,387.0,0.61,-0.465,0.488,0.416
1210524,-2612.0,-1802.0,75.0,0.611,-0.47,0.49,0.407
1210541,-3782.0,-1378.0,293.0,0.612,-0.477,0.492,0.395
1210557,-4252.0,-604.0,297.0,0.612,-0.484,0.493,0.385
1210574,-4200.0,-1702.0,351.0,0.611,-0.492,0.493,0.376
1210591,-4128.0,-2966.0,147.0,0.611,-0.5,0.493,0.366
1210608,-4396.0,-2360.0,-25.0,0.612,-0.508,0.492,0.355
1210624,-5054.0,-2386.0,175.0,0.613,-0.515,0.491,0.344
1210641,-5720.0,-2100.0,349.0,0.614,-0.522,0.489,0.334
1210667,-5648.0,-3224.0,19.0,0.616,-0.528,0.486,0.325
1210683,-6174.0,-4026.0,-421.0,0.619,-0.533,0.485,0.313
1210699,-7654.0,-3352.0,-335.0,0.622,-0.537,0.482,0.303
1210715,-7790.0,-3544.0,-211.0,0.625,-0.54,0.48,0.294
1210731,-8548.0,-3934.0,-283.0,0.628,-0.542,0.479,0.287
1210747,-8686.0,-3660.0,-189.0,0.632,-0.543,0.477,0.281
1210773,-8378.0,-5884.0,-875.0,0.635,-0.543,0.476,0.274
1210789,-9898.0,-5026.0,127.0,0.64,-0.543,0.475,0.265
1210805,-10460.0,-5748.0,243.0,0.647,-0.54,0.473,0.258
1210821,-10598.0,-4672.0,-171.0,0.654,-0.537,0.47,0.251
1210837,-9514.0,-3772.0,133.0,0.66,-0.533,0.469,0.247
1210853,-9006.0,-4216.0,497.0,0.665,-0.528,0.468,0.244
1210879,-8628.0,-3190.0,683.0,0.669,-0.524,0.468,0.243
1210895,-8508.0,-2314.0,1087.0,0.673,-0.519,0.468,0.242
1210911,-8360.0,-3600.0,1273.0,0.676,-0.515,0.468,0.241
1210927,-7400.0,-2294.0,605.0,0.681,-0.511,0.467,0.24
1210943,-7496.0,-1340.0,919.0,0.683,-0.507,0.468,0.239
1210959,-7796.0,-3352.0,1157.0,0.686,-0.502,0.469,0.239
1210986,-7452.0,-2542.0,853.0,0.69,-0.496,0.471,0.237
1211002,-7342.0,-1828.0,841.0,0.693,-0.491,0.471,0.235
1211018,-7608.0,-2574.0,1057.0,0.696,-0.486,0.473,0.235
1211034,-7592.0,-3440.0,923.0,0.699,-0.481,0.474,0.235
1211050,-7880.0,-2640.0,945.0,0.702,-0.475,0.476,0.235
1211066,-8480.0,-3170.0,1005.0,0.704,-0.469,0.478,0.236
1211092,-8258.0,-3940.0,745.0,0.706,-0.463,0.48,0.239
1211109,-8658.0,-4204.0,645.0,0.708,-0.457,0.482,0.24
1211126,-9324.0,-3512.0,863.0,0.709,-0.452,0.483,0.243
1211143,-9738.0,-4248.0,783.0,0.71,-0.448,0.484,0.246
1211159,-10504.0,-4840.0,949.0,0.711,-0.445,0.484,0.248
1211176,-11048.0,-4994.0,979.0,0.712,-0.442,0.484,0.251
1211193,-11822.0,-5096.0,1159.0,0.714,-0.44,0.483,0.253
1211209,-12342.0,-5562.0,1513.0,0.715,-0.439,0.481,0.254
1211226,-12384.0,-6046.0,1529.0,0.716,-0.44,0.479,0.256
1211242,-12744.0,-5608.0,1659.0,0.716,-0.441,0.476,0.256
1211268,-12688.0,-5980.0,1773.0,0.717,-0.444,0.472,0.257
1211284,-12052.0,-5624.0,1739.0,0.717,-0.448,0.469,0.256
1211300,-11350.0,-5382.0,1595.0,0.716,-0.453,0.466,0.255
1211316,-11268.0,-4654.0,1725.0,0.715,-0.459,0.463,0.253
1211332,-10808.0,-4186.0,1751.0,0.713,-0.466,0.461,0.251
1211348,-10266.0,-4704.0,1561.0,0.709,-0.473,0.459,0.25
1211374,-10554.0,-3796.0,1857.0,0.706,-0.481,0.457,0.248
1211390,-10634.0,-3808.0,2017.0,0.703,-0.489,0.454,0.246
1211406,-10504.0,-3070.0,2251.0,0.7,-0.497,0.45,0.246
1211422,-10114.0,-3098.0,2193.0,0.696,-0.505,0.445,0.248
1211438,-9216.0,-3774.0,1605.0,0.693,-0.512,0.441,0.25
1211454,-7134.0,-6040.0,221.0,0.69,-0.519,0.437,0.251
1211481,-7602.0,-2844.0,695.0,0.689,-0.525,0.434,0.248
1211498,-6932.0,-1508.0,759.0,0.685,-0.532,0.432,0.248
1211514,-6948.0,-2840.0,647.0,0.679,-0.539,0.431,0.25
1211530,-6594.0,-3748.0,493.0,0.673,-0.546,0.43,0.253
1211546,-6576.0,-2926.0,675.0,0.667,-0.552,0.43,0.256
1211562,-6704.0,-3172.0,481.0,0.66,-0.558,0.43,0.261
1211578,-6674.0,-4006.0,491.0,0.654,-0.563,0.43,0.266
1211604,-6264.0,-4288.0,341.0,0.649,-0.566,0.431,0.27
1211620,-6560.0,-3828.0,-167.0,0.645,-0.568,0.432,0.274
1211636,-6482.0,-3498.0,89.0,0.641,-0.569,0.433,0.278
1211652,-6622.0,-4606.0,-307.0,0.638,-0.569,0.435,0.282
1211669,-6330.0,-4774.0,-1065.0,0.636,-0.568,0.437,0.286
1211685,-6696.0,-3382.0,-905.0,0.635,-0.566,0.439,0.289
1211711,-6584.0,-3108.0,-857.0,0.632,-0.564,0.442,0.294
1211727,-5976.0,-3324.0,-971.0,0.629,-0.561,0.445,0.302
1211743,-5792.0,-3896.0,-1035.0,0.626,-0.557,0.449,0.309
1211759,-5896.0,-4144.0,-1015.0,0.625,-0.552,0.453,0.316
1211776,-6190.0,-2532.0,-521.0,0.624,-0.546,0.457,0.322
1211792,-5174.0,-2742.0,-899.0,0.623,-0.539,0.461,0.331
1211809,-5304.0,-2248.0,-451.0,0.622,-0.53,0.465,0.34
1211835,-4448.0,-2824.0,-499.0,0.623,-0.52,0.468,0.349
1211851,-3192.0,-2034.0,-979.0,0.624,-0.511,0.471,0.356
1211867,-2994.0,-2392.0,-253.0,0.626,-0.503,0.473,0.361
1211883,-2638.0,-1532.0,-213.0,0.628,-0.497,0.475,0.366
1211899,-2344.0,-2436.0,43.0,0.63,-0.491,0.476,0.368
1211915,-1572.0,-2428.0,-217.0,0.633,-0.487,0.477,0.368
1211941,-1186.0,-2078.0,-381.0,0.635,-0.485,0.479,0.364
1211958,-2086.0,-2276.0,91.0,0.637,-0.485,0.481,0.357
1211975,-2556.0,-1490.0,73.0,0.639,-0.486,0.483,0.349
1211992,-3006.0,-1790.0,161.0,0.64,-0.489,0.484,0.341
1212009,-3414.0,-3356.0,-271.0,0.64,-0.493,0.486,0.333
1212026,-4326.0,-2614.0,161.0,0.641,-0.497,0.487,0.323
1212042,-4750.0,-1796.0,153.0,0.642,-0.502,0.487,0.315
1212059,-4214.0,-2546.0,331.0,0.643,-0.507,0.486,0.308
1212075,-4870.0,-4674.0,-505.0,0.644,-0.511,0.485,0.3
1212092,-5534.0,-3468.0,-463.0,0.647,-0.514,0.483,0.289
1212109,-6854.0,-3398.0,-263.0,0.65,-0.517,0.482,0.279
1212136,-7274.0,-2684.0,159.0,0.653,-0.52,0.48,0.271
1212152,-7138.0,-3680.0,-83.0,0.656,-0.522,0.477,0.265
1212169,-7270.0,-5380.0,-907.0,0.659,-0.523,0.475,0.258
1212186,-7456.0,-5158.0,-979.0,0.663,-0.522,0.474,0.25
1212203,-8756.0,-3142.0,59.0,0.667,-0.521,0.473,0.244
1212219,-8484.0,-3250.0,315.0,0.67,-0.52,0.471,0.24
1212235,-7750.0,-3398.0,399.0,0.673,-0.519,0.47,0.239
1212251,-8094.0,-4406.0,713.0,0.675,-0.518,0.469,0.238
1212277,-8192.0,-3928.0,1029.0,0.678,-0.516,0.467,0.236
1212293,-8090.0,-4098.0,1035.0,0.681,-0.513,0.466,0.235
1212309,-8510.0,-3012.0,1343.0,0.685,-0.51,0.464,0.233
1212325,-8512.0,-3452.0,1325.0,0.688,-0.508,0.463,0.233
1212342,-8290.0,-3240.0,1337.0,0.692,-0.504,0.461,0.233
1212359,-7972.0,-3260.0,1395.0,0.694,-0.502,0.46,0.233
1212375,-8244.0,-2820.0,1693.0,0.697,-0.499,0.46,0.233
1212402,-7910.0,-3170.0,1593.0,0.699,-0.497,0.459,0.233
1212418,-8130.0,-3016.0,1915.0,0.7,-0.495,0.458,0.234
1212434,-8034.0,-3040.0,1829.0,0.701,-0.493,0.458,0.235
1212450,-8010.0,-3372.0,1729.0,0.702,-0.492,0.457,0.237
1212466,-8058.0,-3270.0,1741.0,0.703,-0.49,0.457,0.238
1212482,-8164.0,-3194.0,1725.0,0.703,-0.489,0.457,0.241
1212508,-8026.0,-3540.0,1521.0,0.704,-0.487,0.456,0.243
1212525,-7918.0,-3962.0,1411.0,0.705,-0.486,0.455,0.245
1212542,-8026.0,-3518.0,1497.0,0.706,-0.484,0.454,0.247
1212559,-8140.0,-3734.0,1625.0,0.707,-0.482,0.453,0.249
1212575,-7976.0,-4150.0,1537.0,0.708,-0.48,0.453,0.252
1212592,-8098.0,-4352.0,1461.0,0.709,-0.478,0.452,0.253
1212608,-8668.0,-4370.0,1371.0,0.71,-0.476,0.453,0.255
1212625,-9360.0,-5034.0,1363.0,0.711,-0.473,0.453,0.255
1212641,-10194.0,-5124.0,1293.0,0.711,-0.472,0.454,0.256
1212658,-10856.0,-5588.0,1053.0,0.711,-0.47,0.456,0.256
1212685,-11290.0,-6244.0,967.0,0.71,-0.47,0.458,0.256
1212701,-11918.0,-6074.0,1163.0,0.709,-0.47,0.459,0.256
1212717,-12148.0,-6474.0,1335.0,0.707,-0.472,0.461,0.254
1212733,-12206.0,-6144.0,1427.0,0.706,-0.474,0.462,0.252
1212749,-11696.0,-6148.0,1193.0,0.704,-0.477,0.464,0.25
1212765,-11504.0,-5790.0,1351.0,0.702,-0.481,0.464,0.247
1212791,-10946.0,-5316.0,1289.0,0.7,-0.485,0.465,0.243
1212807,-10708.0,-4980.0,1221.0,0.697,-0.49,0.465,0.239
1212824,-10524.0,-5014.0,1239.0,0.694,-0.496,0.465,0.235
1212840,-10252.0,-5042.0,1153.0,0.691,-0.502,0.465,0.231
1212857,-10214.0,-4796.0,1153.0,0.688,-0.508,0.466,0.227
1212873,-9802.0,-4702.0,957.0,0.685,-0.513,0.466,0.224
1212889,-8898.0,-4818.0,675.0,0.681,-0.519,0.467,0.22
1212915,-8436.0,-4148.0,447.0,0.677,-0.525,0.468,0.217
1212931,-8012.0,-4204.0,231.0,0.672,-0.531,0.47,0.215
1212947,-7940.0,-4326.0,25.0,0.666,-0.537,0.472,0.213
1212963,-7458.0,-3566.0,-285.0,0.66,-0.542,0.475,0.212
1212979,-7104.0,-3692.0,-395.0,0.654,-0.546,0.478,0.212
1212995,-6842.0,-3706.0,-509.0,0.648,-0.549,0.482,0.213
1213021,-6696.0,-3236.0,-469.0,0.644,-0.551,0.485,0.216
1213037,-6272.0,-2306.0,-739.0,0.639,-0.552,0.488,0.219
1213054,-6154.0,-3690.0,-1075.0,0.635,-0.553,0.492,0.223
1213070,-6414.0,-3978.0,-1047.0,0.632,-0.552,0.495,0.225
1213086,-7098.0,-2886.0,-975.0,0.63,-0.551,0.497,0.229
1213102,-6990.0,-2888.0,-1091.0,0.628,-0.549,0.499,0.234
1213118,-6532.0,-3792.0,-1159.0,0.627,-0.545,0.502,0.24
1213144,-6594.0,-3492.0,-1181.0,0.627,-0.541,0.504,0.246
1213160,-6200.0,-2718.0,-1225.0,0.627,-0.536,0.506,0.253
1213176,-6174.0,-3124.0,-1245.0,0.627,-0.53,0.509,0.26
1213192,-6166.0,-3090.0,-1163.0,0.626,-0.523,0.512,0.268
1213208,-6560.0,-3338.0,-965.0,0.627,-0.516,0.515,0.275
1213225,-6892.0,-3190.0,-957.0,0.629,-0.507,0.518,0.282
1213251,-6402.0,-3046.0,-1413.0,0.63,-0.498,0.521,0.29
1213268,-6910.0,-2116.0,-541.0,0.632,-0.488,0.524,0.297
1213284,-5938.0,-3238.0,-1605.0,0.634,-0.476,0.527,0.307
1213300,-5706.0,-2984.0,-777.0,0.637,-0.466,0.529,0.314
1213317,-5112.0,-1032.0,-805.0,0.638,-0.455,0.531,0.322
1213333,-4006.0,-1702.0,-591.0,0.639,-0.446,0.533,0.33
1213349,-3368.0,-2018.0,-475.0,0.64,-0.438,0.535,0.337
1213375,-2988.0,-2346.0,-257.0,0.64,-0.43,0.537,0.342
1213392,-3094.0,-2346.0,-25.0,0.642,-0.425,0.538,0.344
1213408,-3038.0,-1492.0,-23.0,0.643,-0.42,0.54,0.345
1213425,-2788.0,-1478.0,133.0,0.644,-0.417,0.54,0.345
1213441,-3020.0,-1692.0,155.0,0.645,-0.416,0.541,0.343
1213458,-3040.0,-1974.0,303.0,0.647,-0.416,0.541,0.34
1213475,-3252.0,-2142.0,141.0,0.649,-0.419,0.54,0.335
1213491,-3530.0,-1626.0,403.0,0.652,-0.422,0.537,0.329
1213508,-3202.0,-712.0,453.0,0.654,-0.427,0.534,0.323
1213534,-3262.0,-1480.0,389.0,0.656,-0.433,0.531,0.317
1213550,-3324.0,-1686.0,545.0,0.658,-0.44,0.527,0.31
1213566,-4298.0,-1922.0,793.0,0.66,-0.447,0.523,0.302
1213583,-4544.0,-1618.0,713.0,0.662,-0.454,0.519,0.294
1213599,-4668.0,-1650.0,837.0,0.663,-0.46,0.515,0.287
1213615,-5320.0,-512.0,749.0,0.664,-0.467,0.513,0.28
1213641,-5228.0,-2062.0,667.0,0.663,-0.473,0.511,0.274
1213658,-5612.0,-3148.0,357.0,0.663,-0.478,0.51,0.268
1213675,-6876.0,-2204.0,471.0,0.664,-0.482,0.509,0.26
1213692,-7482.0,-1840.0,443.0,0.664,-0.486,0.508,0.254
1213708,-8312.0,-3076.0,503.0,0.665,-0.489,0.507,0.248
1213725,-8548.0,-3818.0,85.0,0.666,-0.491,0.506,0.242
1213741,-9704.0,-3474.0,455.0,0.668,-0.492,0.505,0.238
1213758,-10030.0,-3650.0,635.0,0.671,-0.491,0.504,0.234
1213775,-9378.0,-3738.0,601.0,0.674,-0.489,0.503,0.231
1213791,-9864.0,-4408.0,789.0,0.677,-0.486,0.503,0.228
1213817,-10184.0,-4084.0,799.0,0.682,-0.482,0.502,0.226
1213833,-9958.0,-4664.0,837.0,0.686,-0.477,0.501,0.224
1213849,-10126.0,-4760.0,865.0,0.692,-0.471,0.5,0.222
1213865,-10506.0,-4328.0,1263.0,0.698,-0.464,0.499,0.22
1213881,-9958.0,-4294.0,1013.0,0.704,-0.456,0.498,0.219
1213897,-9842.0,-4564.0,1263.0,0.709,-0.449,0.498,0.219
1213923,-9522.0,-4212.0,1365.0,0.714,-0.441,0.498,0.219
1213940,-9214.0,-4066.0,1475.0,0.719,-0.433,0.497,0.22
1213956,-9246.0,-4782.0,1589.0,0.724,-0.425,0.496,0.22
1213972,-8364.0,-2954.0,1151.0,0.729,-0.418,0.496,0.219
1213988,-8854.0,-3320.0,1565.0,0.733,-0.411,0.495,0.221
1214004,-8402.0,-3990.0,1607.0,0.736,-0.405,0.495,0.222
1214030,-8218.0,-3484.0,1587.0,0.739,-0.399,0.494,0.224
1214046,-8224.0,-2992.0,1783.0,0.741,-0.394,0.494,0.226
1214062,-8300.0,-3186.0,1903.0,0.743,-0.39,0.494,0.229
1214078,-8668.0,-3580.0,2171.0,0.743,-0.386,0.495,0.233
1214094,-9206.0,-3308.0,2089.0,0.742,-0.383,0.496,0.237
1214110,-10172.0,-3336.0,2277.0,0.74,-0.382,0.498,0.241
1214136,-11578.0,-3680.0,2555.0,0.738,-0.382,0.499,0.246
1214152,-12390.0,-3876.0,2641.0,0.735,-0.383,0.5,0.251
1214168,-12966.0,-3964.0,2913.0,0.732,-0.385,0.5,0.256
1214184,-12620.0,-4178.0,2653.0,0.729,-0.39,0.5,0.259
1214200,-12208.0,-4008.0,2663.0,0.726,-0.395,0.499,0.26
1214217,-11286.0,-3050.0,2217.0,0.722,-0.403,0.499,0.261
1214233,-10806.0,-3158.0,2155.0,0.717,-0.411,0.499,0.262
1214260,-10408.0,-2478.0,2029.0,0.711,-0.421,0.499,0.262
1214276,-9596.0,-3196.0,1551.0,0.704,-0.432,0.499,0.263
1214292,-9364.0,-3116.0,1525.0,0.697,-0.443,0.499,0.263
1214308,-8962.0,-3320.0,1179.0,0.689,-0.456,0.499,0.262
1214324,-9118.0,-2880.0,1121.0,0.681,-0.468,0.498,0.262
1214340,-9106.0,-2888.0,911.0,0.673,-0.48,0.498,0.262
1214367,-8956.0,-3850.0,763.0,0.664,-0.491,0.499,0.262
1214383,-8802.0,-4044.0,325.0,0.657,-0.501,0.5,0.261
1214399,-8598.0,-3266.0,291.0,0.65,-0.509,0.502,0.259
1214415,-8386.0,-2988.0,-117.0,0.643,-0.517,0.503,0.258
1214432,-8022.0,-3386.0,-257.0,0.636,-0.524,0.506,0.256
1214448,-8414.0,-3536.0,41.0,0.63,-0.529,0.509,0.254
1214464,-7764.0,-2858.0,-281.0,0.626,-0.531,0.512,0.253
1214490,-7480.0,-2734.0,-423.0,0.622,-0.533,0.515,0.252
1214506,-7350.0,-2718.0,-327.0,0.619,-0.533,0.519,0.252
1214523,-6826.0,-3342.0,-869.0,0.616,-0.533,0.522,0.252
1214540,-6786.0,-2562.0,-955.0,0.614,-0.532,0.526,0.251
1214557,-7352.0,-2344.0,-851.0,0.613,-0.529,0.53,0.252
1214574,-7522.0,-2596.0,-537.0,0.613,-0.525,0.533,0.253
1214591,-7350.0,-4210.0,-1251.0,0.615,-0.519,0.536,0.255
1214608,-6754.0,-2906.0,-1273.0,0.62,-0.511,0.538,0.255
1214624,-6616.0,-1874.0,-1499.0,0.624,-0.502,0.541,0.257
1214641,-6778.0,-2396.0,-1185.0,0.627,-0.494,0.543,0.261
1214668,-6562.0,-3118.0,-1057.0,0.63,-0.486,0.545,0.265
1214684,-6680.0,-2862.0,-847.0,0.634,-0.476,0.547,0.268
1214700,-6116.0,-3110.0,-759.0,0.637,-0.467,0.55,0.272
1214716,-6562.0,-3356.0,-1221.0,0.641,-0.457,0.553,0.274
1214732,-6162.0,-2982.0,-1175.0,0.643,-0.448,0.557,0.275
1214748,-6976.0,-3086.0,-911.0,0.644,-0.439,0.563,0.275
1214765,-7266.0,-1898.0,-893.0,0.644,-0.431,0.569,0.276
1214782,-7390.0,-1498.0,-1103.0,0.643,-0.423,0.575,0.279
1214808,-7502.0,-2504.0,-1271.0,0.64,-0.416,0.581,0.283
1214824,-6692.0,-1772.0,-1003.0,0.637,-0.409,0.586,0.29
1214840,-5630.0,-534.0,-735.0,0.635,-0.401,0.59,0.298
1214856,-4192.0,-442.0,-569.0,0.632,-0.394,0.592,0.308
1214872,-3940.0,-2500.0,-561.0,0.629,-0.388,0.594,0.317
1214898,-2994.0,-2138.0,-183.0,0.629,-0.382,0.596,0.321
1214914,-2870.0,-508.0,105.0,0.63,-0.377,0.597,0.324
1214930,-2874.0,-594.0,395.0,0.631,-0.373,0.597,0.327
1214946,-2718.0,-1152.0,269.0,0.633,-0.371,0.596,0.327
1214963,-2564.0,-1256.0,79.0,0.635,-0.371,0.595,0.325
1214979,-2236.0,-226.0,41.0,0.638,-0.373,0.593,0.32
1214995,-2916.0,74.0,173.0,0.639,-0.378,0.591,0.315
1215021,-3180.0,-474.0,197.0,0.641,-0.385,0.587,0.31
1215038,-3940.0,-1476.0,253.0,0.643,-0.393,0.584,0.303
1215055,-4514.0,-158.0,433.0,0.645,-0.4,0.58,0.295
1215071,-5076.0,-616.0,179.0,0.646,-0.409,0.576,0.29
1215087,-5576.0,-2174.0,141.0,0.647,-0.418,0.571,0.284
1215103,-6402.0,-2822.0,-85.0,0.648,-0.427,0.566,0.277
1215119,-7484.0,-1738.0,145.0,0.649,-0.436,0.562,0.271
1215145,-7728.0,-3226.0,115.0,0.65,-0.444,0.557,0.266
1215161,-8206.0,-1940.0,-311.0,0.65,-0.45,0.553,0.262
1215177,-8006.0,-2850.0,-315.0,0.65,-0.458,0.548,0.259
1215193,-8714.0,-2992.0,103.0,0.651,-0.464,0.544,0.257
1215209,-8690.0,-2386.0,69.0,0.652,-0.47,0.538,0.255
1215225,-8506.0,-4132.0,-523.0,0.653,-0.475,0.532,0.255
1215251,-8834.0,-3768.0,-189.0,0.656,-0.48,0.526,0.252
1215267,-9398.0,-1782.0,485.0,0.658,-0.483,0.52,0.25
1215283,-8782.0,-2256.0,563.0,0.66,-0.487,0.514,0.252
1215299,-8154.0,-4210.0,177.0,0.662,-0.489,0.508,0.254
1215315,-8426.0,-3202.0,657.0,0.665,-0.491,0.502,0.255
1215331,-8360.0,-2942.0,667.0,0.668,-0.492,0.496,0.256
1215357,-8428.0,-3244.0,621.0,0.671,-0.493,0.491,0.257
1215374,-8486.0,-3582.0,655.0,0.674,-0.493,0.486,0.259
1215390,-8464.0,-2676.0,861.0,0.677,-0.492,0.481,0.261
1215407,-8210.0,-3032.0,913.0,0.68,-0.492,0.476,0.263
1215423,-8218.0,-3324.0,1077.0,0.682,-0.492,0.471,0.266
1215440,-7792.0,-2858.0,1159.0,0.685,-0.491,0.467,0.269
1215457,-7530.0,-2704.0,1211.0,0.686,-0.491,0.463,0.271
1215474,-7450.0,-3058.0,1381.0,0.687,-0.491,0.46,0.274
1215491,-7726.0,-2650.0,1487.0,0.688,-0.491,0.458,0.276
1215517,-7912.0,-2858.0,1545.0,0.689,-0.491,0.455,0.278
1215533,-7800.0,-3362.0,1471.0,0.689,-0.492,0.453,0.28
1215549,-7818.0,-3284.0,1643.0,0.689,-0.493,0.452,0.281
1215565,-7880.0,-3278.0,1465.0,0.688,-0.493,0.451,0.283
1215581,-8140.0,-3454.0,1393.0,0.688,-0.493,0.451,0.284
1215598,-8968.0,-4280.0,1393.0,0.687,-0.493,0.452,0.285
1215614,-9348.0,-4630.0,1293.0,0.687,-0.493,0.452,0.286
1215640,-9790.0,-5144.0,1025.0,0.687,-0.492,0.453,0.285
1215657,-10568.0,-5494.0,929.0,0.687,-0.491,0.454,0.284
1215673,-11398.0,-5948.0,995.0,0.688,-0.491,0.454,0.282
1215690,-12074.0,-6262.0,1203.0,0.689,-0.491,0.454,0.281
1215707,-12060.0,-6458.0,1039.0,0.69,-0.491,0.453,0.279
1215724,-12064.0,-6284.0,1097.0,0.69,-0.492,0.452,0.277
1215740,-12416.0,-5590.0,1171.0,0.691,-0.495,0.451,0.274
1215757,-12630.0,-6226.0,1081.0,0.69,-0.5,0.448,0.271
1215773,-12912.0,-6882.0,1003.0,0.69,-0.506,0.445,0.265
1215800,-12382.0,-5994.0,809.0,0.69,-0.513,0.44,0.258
1215816,-11478.0,-6086.0,841.0,0.691,-0.52,0.436,0.25
1215832,-10606.0,-5412.0,705.0,0.692,-0.526,0.432,0.241
1215848,-9636.0,-4680.0,595.0,0.691,-0.534,0.428,0.233
1215864,-8512.0,-4940.0,519.0,0.689,-0.542,0.425,0.227
1215880,-7916.0,-4908.0,457.0,0.686,-0.55,0.423,0.221
1215906,-7496.0,-5296.0,289.0,0.682,-0.557,0.422,0.217
1215922,-7160.0,-4276.0,405.0,0.678,-0.562,0.422,0.214
1215938,-6522.0,-4536.0,11.0,0.673,-0.567,0.424,0.214
1215954,-6164.0,-4426.0,-209.0,0.667,-0.572,0.426,0.215
1215971,-6396.0,-4406.0,-145.0,0.661,-0.576,0.429,0.216
1215987,-5964.0,-4348.0,-87.0,0.656,-0.58,0.432,0.218
1216004,-5852.0,-3802.0,-361.0,0.65,-0.583,0.435,0.22
1216021,-6252.0,-4072.0,-249.0,0.644,-0.586,0.439,0.221
1216047,-5916.0,-4272.0,-665.0,0.639,-0.589,0.443,0.222
1216063,-6664.0,-3546.0,-209.0,0.634,-0.59,0.446,0.224
1216079,-6666.0,-3302.0,-507.0,0.629,-0.592,0.45,0.228
1216095,-6892.0,-4654.0,-809.0,0.625,-0.593,0.453,0.23
1216111,-6910.0,-4740.0,-877.0,0.622,-0.592,0.456,0.233
1216137,-6858.0,-4006.0,-921.0,0.62,-0.591,0.459,0.236
1216153,-6836.0,-3410.0,-1053.0,0.617,-0.59,0.462,0.24
1216169,-6588.0,-4044.0,-965.0,0.614,-0.588,0.465,0.245
1216185,-6404.0,-3742.0,-907.0,0.612,-0.585,0.468,0.251
1216201,-6144.0,-4136.0,-1295.0,0.611,-0.582,0.472,0.257
1216217,-6252.0,-3876.0,-1235.0,0.609,-0.577,0.476,0.262
1216243,-6162.0,-3460.0,-1207.0,0.608,-0.573,0.48,0.269
1216259,-6048.0,-4482.0,-1485.0,0.606,-0.568,0.484,0.276
1216275,-6068.0,-3486.0,-1359.0,0.606,-0.561,0.489,0.282
1216291,-6186.0,-3354.0,-1565.0,0.605,-0.554,0.493,0.289
1216307,-6128.0,-4294.0,-1585.0,0.605,-0.547,0.497,0.297
1216323,-5820.0,-2638.0,-1213.0,0.605,-0.538,0.502,0.305
1216349,-4822.0,-1976.0,-1191.0,0.605,-0.528,0.505,0.316
1216366,-4162.0,-2758.0,-1181.0,0.605,-0.518,0.509,0.326
1216382,-3604.0,-2400.0,-885.0,0.606,-0.509,0.512,0.335
1216398,-3018.0,-1582.0,-909.0,0.607,-0.501,0.514,0.342
1216414,-2866.0,-1310.0,-557.0,0.607,-0.494,0.516,0.347
1216430,-2298.0,-1246.0,-523.0,0.608,-0.49,0.517,0.351
1216446,-2110.0,-2310.0,-703.0,0.609,-0.487,0.518,0.351
1216472,-2578.0,-3808.0,-767.0,0.611,-0.486,0.519,0.347
1216488,-2932.0,-3428.0,-595.0,0.615,-0.485,0.521,0.339
1216505,-4048.0,-378.0,-523.0,0.62,-0.484,0.523,0.328
1216522,-4242.0,-40.0,-195.0,0.624,-0.484,0.523,0.32
1216539,-4394.0,-390.0,-81.0,0.626,-0.486,0.523,0.314
1216556,-3614.0,-1238.0,-437.0,0.628,-0.488,0.521,0.309
1216573,-4068.0,-2508.0,-639.0,0.629,-0.491,0.521,0.303
1216590,-5108.0,-2682.0,-595.0,0.631,-0.495,0.52,0.296
1216607,-6336.0,-2410.0,-389.0,0.633,-0.498,0.518,0.288
1216633,-7114.0,-2100.0,-215.0,0.635,-0.5,0.516,0.281
1216649,-7098.0,-1870.0,-345.0,0.638,-0.502,0.514,0.277
1216665,-6988.0,-3460.0,-455.0,0.64,-0.504,0.512,0.273
1216681,-7232.0,-5236.0,-1027.0,0.643,-0.505,0.51,0.267
1216697,-8214.0,-3716.0,-527.0,0.648,-0.505,0.508,0.26
1216713,-8120.0,-2214.0,-419.0,0.651,-0.505,0.505,0.255
1216729,-7730.0,-2430.0,-295.0,0.654,-0.505,0.503,0.253
1216755,-7812.0,-2730.0,69.0,0.657,-0.505,0.5,0.251
1216771,-7738.0,-3404.0,149.0,0.66,-0.505,0.497,0.249
1216788,-7692.0,-3112.0,435.0,0.664,-0.505,0.493,0.247
1216804,-7718.0,-4216.0,351.0,0.668,-0.505,0.49,0.243
1216821,-8490.0,-3446.0,501.0,0.672,-0.504,0.487,0.238
1216837,-8642.0,-3494.0,535.0,0.677,-0.503,0.485,0.234
1216853,-9550.0,-2980.0,839.0,0.681,-0.501,0.482,0.231
1216879,-9686.0,-3416.0,971.0,0.685,-0.5,0.478,0.229
1216895,-9582.0,-3944.0,1123.0,0.69,-0.498,0.473,0.229
1216911,-9084.0,-3244.0,1185.0,0.696,-0.495,0.467,0.229
1216927,-8806.0,-4272.0,1333.0,0.702,-0.493,0.461,0.228
1216943,-8938.0,-3166.0,1757.0,0.708,-0.491,0.453,0.228
1216959,-8708.0,-3550.0,1979.0,0.715,-0.488,0.445,0.228
1216986,-7918.0,-3804.0,1841.0,0.721,-0.486,0.438,0.229
1217002,-7620.0,-3278.0,2171.0,0.728,-0.482,0.43,0.229
1217018,-6908.0,-3566.0,1951.0,0.734,-0.48,0.423,0.228
1217034,-7128.0,-3394.0,2307.0,0.739,-0.478,0.417,0.227
1217050,-7410.0,-3210.0,2781.0,0.744,-0.476,0.411,0.227
1217066,-7024.0,-3728.0,2609.0,0.748,-0.475,0.405,0.227
1217092,-6394.0,-4292.0,2431.0,0.751,-0.474,0.4,0.226
1217108,-6662.0,-4576.0,2555.0,0.755,-0.473,0.396,0.224
1217124,-7108.0,-4652.0,2771.0,0.758,-0.471,0.393,0.221
1217140,-7486.0,-4738.0,2831.0,0.761,-0.47,0.39,0.218
1217156,-7468.0,-5514.0,2793.0,0.764,-0.469,0.387,0.215
1217173,-7836.0,-6154.0,2773.0,0.767,-0.467,0.384,0.212
1217190,-8514.0,-6596.0,2845.0,0.77,-0.466,0.382,0.209
1217216,-9206.0,-7270.0,3003.0,0.774,-0.464,0.38,0.205
1217232,-9458.0,-7808.0,3243.0,0.777,-0.463,0.377,0.201
1217249,-9440.0,-8038.0,3219.0,0.78,-0.462,0.374,0.198
1217265,-9192.0,-7532.0,3215.0,0.781,-0.463,0.371,0.194
1217281,-9546.0,-7208.0,3735.0,0.782,-0.466,0.369,0.19
1217297,-9248.0,-7434.0,3795.0,0.781,-0.469,0.367,0.187
1217313,-8806.0,-7580.0,3719.0,0.78,-0.474,0.365,0.184
1217339,-8390.0,-6998.0,3415.0,0.778,-0.479,0.365,0.181
1217356,-8112.0,-6812.0,3153.0,0.775,-0.485,0.366,0.176
1217373,-7758.0,-7830.0,2843.0,0.771,-0.491,0.368,0.171
1217390,-8396.0,-6940.0,2969.0,0.768,-0.496,0.37,0.164
1217406,-8160.0,-5986.0,2687.0,0.764,-0.502,0.373,0.159
1217423,-7464.0,-6708.0,2261.0,0.759,-0.508,0.376,0.155
1217440,-7338.0,-6072.0,2303.0,0.754,-0.514,0.379,0.151
1217456,-6840.0,-5370.0,1843.0,0.749,-0.52,0.383,0.149
1217473,-6724.0,-5632.0,1705.0,0.742,-0.527,0.388,0.148
1217490,-6490.0,-6314.0,1491.0,0.735,-0.533,0.393,0.147
1217516,-6544.0,-5536.0,1425.0,0.728,-0.538,0.398,0.147
1217532,-6230.0,-5434.0,899.0,0.721,-0.544,0.404,0.147
1217548,-6600.0,-5884.0,1047.0,0.714,-0.548,0.41,0.148
1217564,-6538.0,-5276.0,927.0,0.707,-0.552,0.416,0.15
1217580,-6382.0,-5008.0,401.0,0.7,-0.555,0.423,0.153
1217606,-6224.0,-5896.0,-135.0,0.692,-0.559,0.429,0.156
1217623,-6448.0,-5738.0,131.0,0.685,-0.561,0.436,0.159
1217639,-6398.0,-4916.0,-187.0,0.678,-0.563,0.443,0.163
1217656,-6420.0,-5368.0,-467.0,0.671,-0.565,0.449,0.168
1217672,-6684.0,-4870.0,-457.0,0.665,-0.566,0.456,0.173
1217689,-6852.0,-4928.0,-649.0,0.658,-0.566,0.462,0.179
1217706,-6488.0,-5404.0,-953.0,0.653,-0.565,0.468,0.187
1217723,-6752.0,-4522.0,-793.0,0.649,-0.563,0.473,0.195
1217739,-6470.0,-4324.0,-1063.0,0.645,-0.56,0.479,0.204
1217756,-5964.0,-4584.0,-1125.0,0.641,-0.556,0.484,0.213
1217773,-6132.0,-3940.0,-939.0,0.639,-0.55,0.489,0.222
1217800,-6046.0,-3842.0,-1161.0,0.638,-0.544,0.494,0.231
1217816,-5954.0,-3362.0,-1017.0,0.636,-0.537,0.499,0.24
1217832,-6252.0,-4140.0,-1103.0,0.636,-0.529,0.504,0.249
1217848,-6222.0,-3488.0,-1503.0,0.636,-0.52,0.509,0.257
1217864,-6868.0,-2768.0,-1165.0,0.636,-0.511,0.513,0.268
1217880,-6626.0,-2338.0,-703.0,0.636,-0.5,0.516,0.28
1217906,-5538.0,-2560.0,-1293.0,0.637,-0.49,0.518,0.294
1217923,-5866.0,-1990.0,-513.0,0.64,-0.479,0.518,0.306
1217939,-4620.0,-2234.0,-907.0,0.642,-0.469,0.516,0.319
1217956,-4246.0,-2386.0,-829.0,0.645,-0.459,0.514,0.33
1217975,-3272.0,-3734.0,-591.0,0.648,-0.45,0.513,0.338
1217991,-2154.0,-1396.0,-1111.0,0.652,-0.443,0.512,0.342
1218007,-1702.0,-298.0,-887.0,0.654,-0.436,0.514,0.344
1218023,-1684.0,-144.0,-625.0,0.653,-0.434,0.516,0.345
1218039,-1774.0,-1782.0,-297.0,0.651,-0.434,0.519,0.344
1218066,-2098.0,-1728.0,-199.0,0.651,-0.435,0.522,0.339
1218082,-1714.0,560.0,-291.0,0.651,-0.439,0.523,0.331
1218098,-1722.0,-386.0,-487.0,0.649,-0.446,0.523,0.325
1218114,-3738.0,-2730.0,211.0,0.647,-0.455,0.524,0.317
1218131,-4262.0,-636.0,-133.0,0.647,-0.464,0.522,0.307
1218148,-3732.0,-246.0,-393.0,0.644,-0.473,0.521,0.3
1218164,-4160.0,-2482.0,-41.0,0.64,-0.483,0.52,0.293
1218190,-6120.0,-6026.0,-137.0,0.638,-0.492,0.521,0.283
1218206,-7624.0,-3158.0,-957.0,0.638,-0.498,0.522,0.27
1218222,-10030.0,-3638.0,-515.0,0.637,-0.502,0.524,0.261
1218238,-9730.0,-3238.0,305.0,0.638,-0.502,0.526,0.253
1218255,-8494.0,-2054.0,359.0,0.64,-0.5,0.528,0.247
1218271,-7716.0,-2266.0,149.0,0.642,-0.499,0.529,0.242
1218288,-7240.0,-4934.0,-449.0,0.643,-0.499,0.531,0.236
1218305,-7888.0,-3904.0,-11.0,0.646,-0.498,0.532,0.226
1218322,-8620.0,-2208.0,275.0,0.65,-0.497,0.534,0.216
1218348,-8830.0,-2726.0,419.0,0.652,-0.495,0.535,0.208
1218364,-8674.0,-3642.0,147.0,0.656,-0.492,0.536,0.2
1218380,-8110.0,-3582.0,-107.0,0.66,-0.488,0.538,0.192
1218396,-8272.0,-2756.0,63.0,0.664,-0.484,0.539,0.185
1218412,-8190.0,-3298.0,239.0,0.668,-0.48,0.54,0.179
1218428,-7864.0,-3750.0,45.0,0.672,-0.477,0.54,0.173
1218454,-8244.0,-3540.0,203.0,0.676,-0.473,0.54,0.167
1218471,-8134.0,-3764.0,-29.0,0.68,-0.468,0.54,0.163
1218488,-7972.0,-3514.0,97.0,0.685,-0.464,0.539,0.159
1218504,-7972.0,-3716.0,219.0,0.689,-0.459,0.538,0.157
1218521,-7820.0,-3218.0,189.0,0.694,-0.455,0.536,0.156
1218538,-7496.0,-3674.0,65.0,0.698,-0.451,0.533,0.155
1218555,-7574.0,-3464.0,449.0,0.703,-0.448,0.53,0.155
1218572,-7454.0,-3250.0,391.0,0.708,-0.444,0.527,0.156
1218589,-7666.0,-3144.0,311.0,0.712,-0.441,0.524,0.157
1218606,-7532.0,-3116.0,81.0,0.715,-0.438,0.521,0.158
1218623,-8028.0,-3298.0,211.0,0.719,-0.435,0.519,0.16
1218650,-8658.0,-3948.0,515.0,0.722,-0.432,0.515,0.162
1218666,-9064.0,-4752.0,761.0,0.726,-0.43,0.511,0.163
1218682,-9258.0,-4702.0,567.0,0.732,-0.426,0.507,0.163
1218698,-9256.0,-3318.0,551.0,0.736,-0.424,0.502,0.163
1218714,-9878.0,-4658.0,583.0,0.739,-0.424,0.497,0.165
1218730,-10594.0,-5924.0,1083.0,0.742,-0.425,0.492,0.166
1218756,-11352.0,-6010.0,1615.0,0.743,-0.427,0.487,0.167
1218777,-11252.0,-6376.0,1519.0,0.744,-0.431,0.482,0.168
1218793,-11128.0,-6548.0,1603.0,0.744,-0.437,0.477,0.169
1218810,-11004.0,-7268.0,2073.0,0.741,-0.446,0.473,0.169
1218826,-10734.0,-6734.0,2221.0,0.737,-0.455,0.471,0.168
1218843,-9890.0,-6372.0,1941.0,0.732,-0.465,0.469,0.167
1218859,-9402.0,-5982.0,1867.0,0.726,-0.476,0.468,0.166
1218875,-8948.0,-5728.0,1717.0,0.719,-0.487,0.468,0.164
1218891,-8778.0,-5736.0,1611.0,0.712,-0.497,0.469,0.162
1218907,-8394.0,-5050.0,1209.0,0.704,-0.508,0.47,0.159
1218933,-7980.0,-5464.0,781.0,0.696,-0.519,0.471,0.155
1218949,-8168.0,-5190.0,313.0,0.688,-0.53,0.472,0.151
1218965,-8028.0,-4792.0,569.0,0.68,-0.54,0.473,0.148
1218981,-7944.0,-4818.0,463.0,0.672,-0.55,0.473,0.146
1218998,-7352.0,-5364.0,131.0,0.665,-0.559,0.473,0.144
1219014,-7218.0,-5566.0,9.0,0.658,-0.568,0.473,0.142
1219030,-7336.0,-5508.0,-415.0,0.652,-0.576,0.472,0.139
1219056,-8182.0,-4928.0,-319.0,0.647,-0.584,0.471,0.138
1219072,-8078.0,-5656.0,-513.0,0.642,-0.59,0.47,0.138
1219089,-7218.0,-6430.0,-991.0,0.639,-0.593,0.469,0.139
1219106,-7030.0,-5626.0,-983.0,0.638,-0.595,0.469,0.14
1219123,-6506.0,-4804.0,-1395.0,0.636,-0.597,0.469,0.142
1219139,-6292.0,-5476.0,-1487.0,0.633,-0.598,0.47,0.145
1219155,-6208.0,-5918.0,-1519.0,0.631,-0.599,0.471,0.147
1219181,-6044.0,-5028.0,-1799.0,0.628,-0.599,0.473,0.149
1219198,-6128.0,-4606.0,-1707.0,0.625,-0.6,0.475,0.152
1219214,-6660.0,-5326.0,-1455.0,0.623,-0.599,0.478,0.155
1219231,-6160.0,-5862.0,-1845.0,0.622,-0.597,0.482,0.159
1219247,-6264.0,-5064.0,-1827.0,0.621,-0.593,0.486,0.163
1219263,-6058.0,-4772.0,-2087.0,0.621,-0.589,0.49,0.167
1219279,-6324.0,-4856.0,-1907.0,0.62,-0.584,0.495,0.172
1219305,-6474.0,-5616.0,-1927.0,0.62,-0.578,0.501,0.176
1219322,-6822.0,-4818.0,-1679.0,0.621,-0.571,0.506,0.181
1219339,-6622.0,-3476.0,-1809.0,0.623,-0.562,0.511,0.187
1219356,-5756.0,-4736.0,-2199.0,0.623,-0.554,0.516,0.194
1219372,-6158.0,-4520.0,-1891.0,0.625,-0.546,0.521,0.2
1219389,-5996.0,-2516.0,-1779.0,0.626,-0.536,0.527,0.208
1219406,-5670.0,-1878.0,-1455.0,0.627,-0.527,0.532,0.217
1219422,-5920.0,-4840.0,-1449.0,0.627,-0.517,0.537,0.226
1219439,-5840.0,-3588.0,-1641.0,0.63,-0.506,0.541,0.234
1219455,-5094.0,-992.0,-1961.0,0.632,-0.495,0.545,0.243
1219482,-4666.0,-1002.0,-1365.0,0.631,-0.486,0.549,0.254
1219498,-4508.0,-3320.0,-999.0,0.631,-0.476,0.553,0.264
1219514,-3622.0,-1570.0,-1051.0,0.632,-0.467,0.555,0.273
1219530,-2972.0,-852.0,-893.0,0.632,-0.459,0.557,0.281
1219546,-2644.0,-1488.0,-589.0,0.632,-0.454,0.558,0.289
1219562,-2462.0,-2374.0,-323.0,0.633,-0.449,0.559,0.293
1219588,-1946.0,-1832.0,-219.0,0.635,-0.446,0.558,0.293
1219605,-1764.0,-2150.0,-109.0,0.639,-0.445,0.557,0.29
1219622,-1528.0,-1878.0,237.0,0.644,-0.444,0.556,0.283
1219638,-1558.0,-692.0,-191.0,0.648,-0.446,0.553,0.273
1219655,-2158.0,224.0,-333.0,0.652,-0.449,0.551,0.264
1219672,-3698.0,-930.0,115.0,0.653,-0.454,0.55,0.255
1219688,-5156.0,-3018.0,-31.0,0.654,-0.46,0.547,0.246
1219705,-7482.0,-6146.0,-143.0,0.657,-0.464,0.545,0.236
1219721,-9260.0,-4238.0,-861.0,0.662,-0.465,0.543,0.225
1219738,-8724.0,-4720.0,-1249.0,0.668,-0.465,0.539,0.216
1219765,-8168.0,-3930.0,-657.0,0.674,-0.464,0.536,0.209
1219781,-8208.0,-3912.0,-129.0,0.68,-0.463,0.531,0.202
1219797,-6930.0,-3370.0,-607.0,0.685,-0.464,0.526,0.197
1219813,-6770.0,-3798.0,-195.0,0.69,-0.466,0.52,0.191
1219829,-7184.0,-3076.0,209.0,0.693,-0.468,0.515,0.186
1219845,-6720.0,-3180.0,769.0,0.695,-0.471,0.511,0.183
1219871,-6930.0,-5932.0,551.0,0.697,-0.473,0.508,0.18
1219888,-6924.0,-4460.0,737.0,0.701,-0.473,0.504,0.175
1219904,-7080.0,-2436.0,857.0,0.704,-0.472,0.502,0.171
1219920,-7066.0,-3026.0,1339.0,0.706,-0.472,0.501,0.169
1219936,-6902.0,-5574.0,955.0,0.707,-0.472,0.5,0.167
1219953,-7168.0,-3376.0,903.0,0.71,-0.47,0.499,0.164
1219970,-7356.0,-2910.0,1077.0,0.711,-0.468,0.499,0.162
1219987,-7362.0,-2996.0,1193.0,0.712,-0.467,0.5,0.162
1220004,-7360.0,-3548.0,1089.0,0.712,-0.465,0.5,0.162
1220031,-7438.0,-3614.0,959.0,0.713,-0.463,0.501,0.162
1220048,-7436.0,-3960.0,779.0,0.714,-0.461,0.502,0.161
1220065,-7748.0,-2898.0,1069.0,0.715,-0.459,0.502,0.16
1220081,-7790.0,-2816.0,1059.0,0.716,-0.457,0.503,0.161
1220097,-7758.0,-3358.0,1059.0,0.716,-0.456,0.503,0.162
1220113,-7824.0,-3120.0,1197.0,0.717,-0.455,0.503,0.163
1220129,-7532.0,-3384.0,1183.0,0.717,-0.454,0.502,0.164
1220155,-7730.0,-3290.0,1141.0,0.718,-0.454,0.501,0.165
1220172,-7822.0,-3848.0,1261.0,0.718,-0.455,0.5,0.167
1220188,-7884.0,-3380.0,1365.0,0.719,-0.455,0.499,0.168
1220204,-7924.0,-3586.0,1287.0,0.719,-0.455,0.497,0.169
1220220,-7930.0,-3992.0,1281.0,0.72,-0.455,0.495,0.17
1220236,-7916.0,-4084.0,1071.0,0.722,-0.455,0.493,0.17
1220252,-8150.0,-4220.0,1027.0,0.723,-0.455,0.492,0.169
1220278,-8180.0,-4854.0,1053.0,0.724,-0.455,0.491,0.168
1220294,-8774.0,-5004.0,1143.0,0.726,-0.454,0.489,0.167
1220310,-8938.0,-5458.0,889.0,0.728,-0.452,0.488,0.165
1220326,-9288.0,-6066.0,941.0,0.73,-0.45,0.487,0.164
1220342,-9370.0,-6658.0,855.0,0.732,-0.448,0.486,0.163
1220358,-10142.0,-6952.0,1193.0,0.734,-0.446,0.485,0.162
1220384,-10686.0,-6874.0,1325.0,0.736,-0.444,0.484,0.161
1220400,-10746.0,-6872.0,1357.0,0.738,-0.443,0.483,0.161
1220417,-10508.0,-6820.0,1439.0,0.739,-0.442,0.482,0.162
1220433,-10410.0,-6776.0,1583.0,0.74,-0.442,0.481,0.161
1220449,-10116.0,-5816.0,1641.0,0.739,-0.443,0.481,0.16
1220465,-9564.0,-5380.0,1641.0,0.738,-0.445,0.481,0.159
1220491,-9076.0,-5602.0,1473.0,0.737,-0.447,0.482,0.157
1220507,-8882.0,-4736.0,1539.0,0.735,-0.449,0.484,0.154
1220523,-8496.0,-4264.0,1271.0,0.732,-0.452,0.486,0.152
1220539,-8190.0,-4406.0,1573.0,0.729,-0.456,0.489,0.15
1220555,-7920.0,-4164.0,1749.0,0.725,-0.46,0.491,0.148
1220571,-8470.0,-3550.0,2389.0,0.721,-0.465,0.493,0.148
1220597,-7746.0,-4064.0,1757.0,0.716,-0.469,0.495,0.148
1220613,-7400.0,-4888.0,1073.0,0.711,-0.475,0.498,0.146
1220629,-7066.0,-4744.0,905.0,0.706,-0.48,0.5,0.142
1220645,-7234.0,-2644.0,897.0,0.701,-0.486,0.503,0.138
1220661,-6954.0,-2248.0,473.0,0.694,-0.493,0.506,0.135
1220677,-6954.0,-4378.0,73.0,0.687,-0.501,0.509,0.134
1220703,-7084.0,-4214.0,-247.0,0.68,-0.509,0.512,0.131
1220720,-7004.0,-4378.0,-847.0,0.672,-0.516,0.515,0.129
1220737,-7914.0,-4788.0,-803.0,0.665,-0.523,0.518,0.127
1220754,-8060.0,-5522.0,-1145.0,0.658,-0.529,0.52,0.127
1220771,-7550.0,-5334.0,-1429.0,0.652,-0.534,0.522,0.127
1220789,-7556.0,-5342.0,-1623.0,0.647,-0.538,0.524,0.128
1220805,-7512.0,-5998.0,-1729.0,0.643,-0.541,0.526,0.13
1220821,-7580.0,-5156.0,-1853.0,0.64,-0.543,0.528,0.131
1220838,-7110.0,-4986.0,-1929.0,0.638,-0.544,0.529,0.135
1220855,-6944.0,-6052.0,-1917.0,0.636,-0.543,0.53,0.138
1220871,-7052.0,-4510.0,-1857.0,0.636,-0.541,0.532,0.141
1220898,-6264.0,-3810.0,-2177.0,0.635,-0.539,0.534,0.145
1220914,-6068.0,-4650.0,-2097.0,0.633,-0.537,0.537,0.15
1220930,-6306.0,-4690.0,-1999.0,0.632,-0.534,0.54,0.154
1220947,-6270.0,-3644.0,-1899.0,0.631,-0.53,0.543,0.159
1220964,-5894.0,-3836.0,-2057.0,0.63,-0.526,0.547,0.163
1220980,-6060.0,-4434.0,-2007.0,0.629,-0.521,0.552,0.168
1220996,-6318.0,-3450.0,-2043.0,0.628,-0.516,0.557,0.172
1221022,-6418.0,-3600.0,-2147.0,0.627,-0.511,0.561,0.177
1221038,-6714.0,-3586.0,-2089.0,0.625,-0.506,0.566,0.181
1221055,-7122.0,-3608.0,-1867.0,0.624,-0.501,0.57,0.187
1221071,-6808.0,-4116.0,-2023.0,0.623,-0.495,0.574,0.192
1221087,-7320.0,-5182.0,-2055.0,0.623,-0.488,0.579,0.197
1221103,-8170.0,-4964.0,-2495.0,0.625,-0.48,0.582,0.199
1221120,-7930.0,-2818.0,-2605.0,0.626,-0.472,0.586,0.203
1221137,-7430.0,-2014.0,-2007.0,0.626,-0.464,0.59,0.21
1221164,-7236.0,-2308.0,-1393.0,0.626,-0.456,0.594,0.219
1221180,-5468.0,-2500.0,-2029.0,0.626,-0.449,0.596,0.228
1221196,-5522.0,-3110.0,-1323.0,0.626,-0.442,0.597,0.236
1221212,-5660.0,-960.0,-765.0,0.627,-0.436,0.598,0.244
1221228,-5718.0,-3006.0,-749.0,0.628,-0.428,0.598,0.254
1221245,-4988.0,-1330.0,-581.0,0.632,-0.42,0.596,0.261
1221261,-3854.0,-432.0,-657.0,0.635,-0.412,0.595,0.27
1221287,-3092.0,-192.0,-483.0,0.636,-0.407,0.593,0.279
1221303,-2946.0,-1834.0,35.0,0.637,-0.404,0.591,0.287
1221320,-2540.0,-2858.0,153.0,0.638,-0.402,0.589,0.291
1221337,-2262.0,-2530.0,-149.0,0.641,-0.401,0.587,0.29
1221354,-3286.0,-1604.0,645.0,0.644,-0.402,0.586,0.285
1221371,-3832.0,-254.0,477.0,0.646,-0.404,0.584,0.279
1221388,-3970.0,42.0,193.0,0.647,-0.409,0.582,0.274
1221405,-3742.0,-818.0,155.0,0.647,-0.416,0.58,0.269
1221421,-3892.0,-820.0,15.0,0.645,-0.425,0.577,0.265
1221438,-4218.0,-1542.0,-121.0,0.643,-0.435,0.575,0.259
1221455,-5400.0,-2490.0,-107.0,0.641,-0.445,0.572,0.253
1221481,-5694.0,-1472.0,-365.0,0.64,-0.455,0.569,0.246
1221497,-5518.0,-1154.0,-441.0,0.639,-0.464,0.565,0.24
1221513,-6150.0,-3432.0,-549.0,0.637,-0.473,0.562,0.235
1221529,-6912.0,-3380.0,-699.0,0.638,-0.48,0.557,0.228
1221545,-7248.0,-2652.0,-873.0,0.639,-0.487,0.553,0.221
1221571,-7502.0,-2166.0,-527.0,0.64,-0.493,0.548,0.216
1221588,-7302.0,-4426.0,-815.0,0.643,-0.499,0.542,0.211
1221604,-8194.0,-3104.0,-661.0,0.646,-0.503,0.536,0.206
1221621,-8028.0,-3878.0,-945.0,0.65,-0.507,0.529,0.2
1221638,-8682.0,-4424.0,-707.0,0.655,-0.511,0.521,0.195
1221654,-9072.0,-4752.0,-519.0,0.661,-0.513,0.513,0.19
1221671,-9114.0,-4176.0,-297.0,0.667,-0.515,0.505,0.187
1221688,-8542.0,-3902.0,159.0,0.673,-0.517,0.496,0.184
1221704,-7946.0,-4090.0,553.0,0.678,-0.518,0.487,0.184
1221721,-7468.0,-4550.0,877.0,0.683,-0.519,0.479,0.184
1221748,-7276.0,-3982.0,1089.0,0.688,-0.521,0.471,0.183
1221764,-7002.0,-4582.0,1203.0,0.692,-0.522,0.464,0.183
1221780,-7484.0,-5024.0,1761.0,0.696,-0.523,0.457,0.182
1221796,-7366.0,-4900.0,1377.0,0.701,-0.521,0.451,0.18
1221812,-7320.0,-4726.0,1127.0,0.705,-0.521,0.446,0.178
1221828,-8180.0,-4942.0,1669.0,0.708,-0.521,0.442,0.177
1221854,-7836.0,-4686.0,1499.0,0.71,-0.522,0.438,0.175
1221871,-7738.0,-4402.0,1385.0,0.712,-0.522,0.435,0.175
1221887,-7546.0,-4682.0,1497.0,0.713,-0.523,0.432,0.176
1221904,-7136.0,-5056.0,1395.0,0.714,-0.525,0.429,0.175
1221920,-7140.0,-4944.0,1395.0,0.715,-0.526,0.426,0.175
1221937,-7302.0,-5564.0,1405.0,0.716,-0.528,0.423,0.174
1221954,-7330.0,-5632.0,1367.0,0.717,-0.529,0.42,0.172
1221971,-7682.0,-5152.0,1239.0,0.719,-0.529,0.417,0.17
1221988,-7690.0,-5856.0,1145.0,0.721,-0.528,0.415,0.169
1222004,-7768.0,-6856.0,1111.0,0.724,-0.527,0.413,0.167
1222030,-7922.0,-7764.0,921.0,0.728,-0.525,0.41,0.164
1222046,-8722.0,-7910.0,859.0,0.733,-0.522,0.407,0.16
1222062,-9338.0,-8240.0,597.0,0.737,-0.52,0.403,0.156
1222078,-10308.0,-9564.0,963.0,0.74,-0.519,0.399,0.152
1222094,-10108.0,-9484.0,1183.0,0.744,-0.518,0.395,0.15
1222110,-9154.0,-8114.0,1157.0,0.745,-0.519,0.391,0.15
1222136,-8702.0,-8372.0,1469.0,0.745,-0.521,0.389,0.151
1222152,-8374.0,-8268.0,1729.0,0.743,-0.524,0.387,0.153
1222168,-8132.0,-7854.0,1815.0,0.741,-0.528,0.386,0.153
1222184,-7918.0,-7582.0,1729.0,0.738,-0.531,0.387,0.153
1222200,-7890.0,-7548.0,1719.0,0.735,-0.534,0.388,0.153
1222226,-7832.0,-6718.0,1303.0,0.732,-0.537,0.391,0.151
1222242,-7820.0,-6506.0,1315.0,0.729,-0.54,0.394,0.15
1222258,-7246.0,-6236.0,1041.0,0.725,-0.542,0.398,0.149
1222274,-6514.0,-6520.0,475.0,0.72,-0.545,0.403,0.149
1222290,-6560.0,-5406.0,501.0,0.716,-0.547,0.409,0.148
1222306,-6252.0,-4730.0,151.0,0.709,-0.55,0.415,0.149
1222332,-6292.0,-4808.0,229.0,0.702,-0.553,0.422,0.152
1222348,-6056.0,-5326.0,-13.0,0.695,-0.556,0.429,0.155
1222365,-5858.0,-5476.0,-445.0,0.688,-0.558,0.435,0.159
1222381,-6150.0,-4650.0,-393.0,0.681,-0.56,0.442,0.162
1222397,-6472.0,-4460.0,-351.0,0.674,-0.562,0.448,0.167
1222413,-6370.0,-5220.0,-561.0,0.668,-0.563,0.454,0.173
1222429,-6780.0,-4738.0,-463.0,0.663,-0.563,0.46,0.178
1222455,-6178.0,-4356.0,-691.0,0.659,-0.562,0.465,0.184
1222471,-6170.0,-4438.0,-545.0,0.655,-0.561,0.469,0.19
1222488,-6084.0,-4460.0,-547.0,0.651,-0.56,0.473,0.196
1222505,-6302.0,-4016.0,-521.0,0.647,-0.56,0.477,0.202
1222521,-6800.0,-4612.0,-827.0,0.642,-0.56,0.481,0.208
1222537,-6746.0,-5108.0,-1117.0,0.637,-0.56,0.484,0.214
1222554,-7428.0,-5686.0,-1025.0,0.632,-0.56,0.488,0.22
1222571,-8006.0,-4546.0,-999.0,0.627,-0.559,0.493,0.226
1222597,-7768.0,-3818.0,-1127.0,0.621,-0.558,0.498,0.235
1222613,-7338.0,-3560.0,-871.0,0.614,-0.556,0.504,0.245
1222629,-6644.0,-3366.0,-1257.0,0.607,-0.554,0.51,0.255
1222645,-6846.0,-3578.0,-1123.0,0.6,-0.551,0.516,0.264
1222662,-7176.0,-2870.0,-813.0,0.595,-0.547,0.521,0.274
1222679,-7158.0,-2826.0,-1139.0,0.59,-0.543,0.526,0.284
1222695,-6940.0,-2000.0,-1067.0,0.587,-0.537,0.53,0.293
1222712,-6838.0,-2540.0,-1291.0,0.584,-0.53,0.534,0.304
1222738,-6714.0,-2518.0,-1289.0,0.583,-0.522,0.538,0.313
1222754,-6744.0,-2048.0,-1299.0,0.583,-0.514,0.541,0.322
1222770,-6628.0,-692.0,-975.0,0.583,-0.505,0.543,0.332
1222787,-5666.0,-2378.0,-1713.0,0.583,-0.495,0.546,0.344
1222804,-5714.0,-2812.0,-1365.0,0.585,-0.485,0.548,0.351
1222821,-5422.0,-164.0,-1267.0,0.587,-0.474,0.551,0.358
1222838,-5250.0,-154.0,-993.0,0.587,-0.465,0.552,0.366
1222854,-4870.0,-770.0,-877.0,0.586,-0.458,0.553,0.376
1222871,-4642.0,-3338.0,-737.0,0.586,-0.452,0.554,0.383
1222898,-4944.0,-276.0,-693.0,0.586,-0.446,0.555,0.387
1222914,-5060.0,258.0,-427.0,0.586,-0.441,0.555,0.392
1222930,-4926.0,-1824.0,-267.0,0.586,-0.438,0.555,0.396
1222946,-4978.0,-950.0,-391.0,0.586,-0.437,0.555,0.397
1222962,-5216.0,-586.0,-497.0,0.587,-0.439,0.554,0.396
1222988,-5860.0,-1020.0,-155.0,0.588,-0.442,0.552,0.393
1223004,-5698.0,-568.0,-489.0,0.589,-0.446,0.55,0.39
1223021,-6046.0,-600.0,-367.0,0.591,-0.45,0.548,0.385
1223038,-6306.0,-754.0,-373.0,0.592,-0.456,0.545,0.38
1223054,-6176.0,-298.0,-151.0,0.593,-0.462,0.543,0.375
1223070,-5784.0,-694.0,-7.0,0.594,-0.468,0.539,0.37
1223086,-4590.0,-576.0,41.0,0.595,-0.475,0.535,0.365
1223103,-4316.0,-1088.0,279.0,0.596,-0.483,0.531,0.36
1223119,-4272.0,-1200.0,253.0,0.596,-0.491,0.527,0.354
1223146,-4292.0,-1020.0,335.0,0.597,-0.499,0.524,0.346
1223162,-4098.0,-1054.0,27.0,0.597,-0.507,0.521,0.339
1223178,-4352.0,-2352.0,-623.0,0.597,-0.514,0.52,0.331
1223194,-5502.0,-2240.0,-25.0,0.598,-0.52,0.52,0.32
1223211,-6148.0,-1754.0,-661.0,0.599,-0.525,0.519,0.311
1223227,-6276.0,-1384.0,-729.0,0.599,-0.53,0.518,0.302
1223243,-6612.0,-1640.0,-829.0,0.599,-0.535,0.518,0.294
1223269,-7014.0,-3306.0,-1067.0,0.599,-0.539,0.518,0.288
1223286,-7330.0,-4368.0,-1115.0,0.601,-0.542,0.517,0.279
1223302,-7656.0,-2946.0,-1503.0,0.603,-0.543,0.517,0.272
1223318,-8366.0,-2108.0,-1133.0,0.606,-0.543,0.517,0.267
1223334,-8368.0,-4412.0,-1529.0,0.608,-0.542,0.518,0.263
1223350,-8872.0,-4546.0,-1193.0,0.612,-0.539,0.518,0.259
1223367,-8782.0,-3986.0,-1229.0,0.617,-0.534,0.518,0.256
1223393,-8482.0,-3004.0,-1241.0,0.623,-0.528,0.518,0.253
1223409,-8454.0,-2920.0,-915.0,0.629,-0.522,0.518,0.252
1223425,-8596.0,-3218.0,-749.0,0.635,-0.516,0.518,0.251
1223441,-8362.0,-4476.0,-691.0,0.642,-0.509,0.517,0.25
1223457,-8976.0,-2276.0,-285.0,0.649,-0.5,0.516,0.249
1223473,-9160.0,-2914.0,-265.0,0.656,-0.493,0.515,0.249
1223499,-9208.0,-3346.0,187.0,0.663,-0.484,0.513,0.25
1223515,-9456.0,-2916.0,603.0,0.671,-0.474,0.511,0.252
1223531,-9082.0,-2638.0,515.0,0.678,-0.465,0.509,0.255
1223547,-9128.0,-2938.0,827.0,0.685,-0.457,0.506,0.257
1223563,-9988.0,-3226.0,1171.0,0.691,-0.448,0.504,0.26
1223589,-10196.0,-3890.0,1205.0,0.696,-0.44,0.503,0.263
1223605,-10438.0,-3938.0,1377.0,0.701,-0.432,0.501,0.265
1223621,-10444.0,-4300.0,1261.0,0.706,-0.425,0.5,0.267
1223637,-10652.0,-4292.0,1407.0,0.71,-0.418,0.499,0.269
1223654,-10896.0,-4384.0,1583.0,0.713,-0.412,0.498,0.27
1223671,-11080.0,-4704.0,1729.0,0.716,-0.406,0.498,0.272
1223687,-10728.0,-4642.0,1563.0,0.719,-0.401,0.498,0.273
1223703,-10448.0,-4378.0,1625.0,0.721,-0.397,0.497,0.274
1223729,-9892.0,-4210.0,1449.0,0.723,-0.393,0.497,0.276
1223745,-9516.0,-3780.0,1405.0,0.724,-0.389,0.497,0.278
