timeMs,ax,ay,az,q0,q1,q2,q3
2859025,1929.0,7513.0,2013.0,0.766,0.617,0.022,0.177
2859041,1913.0,7627.0,2137.0,0.766,0.617,0.021,0.176
2859057,1869.0,7855.0,2169.0,0.767,0.617,0.019,0.176
2859073,1893.0,7811.0,2133.0,0.767,0.617,0.017,0.176
2859090,1879.0,7585.0,2029.0,0.767,0.617,0.016,0.175
2859116,1913.0,7539.0,2039.0,0.768,0.616,0.015,0.175
2859132,1951.0,7599.0,2155.0,0.768,0.616,0.014,0.175
2859148,1883.0,7743.0,2153.0,0.768,0.616,0.013,0.175
2859164,1891.0,7653.0,2101.0,0.768,0.616,0.013,0.175
2859180,1837.0,7637.0,2109.0,0.768,0.616,0.013,0.175
2859196,1889.0,7631.0,2101.0,0.768,0.616,0.013,0.175
2859222,1871.0,7623.0,2129.0,0.768,0.616,0.014,0.175
2859238,1827.0,7699.0,2139.0,0.768,0.616,0.015,0.176
2859254,1795.0,7755.0,2141.0,0.768,0.616,0.017,0.176
2859270,1801.0,7777.0,2165.0,0.768,0.615,0.018,0.177
2859286,1713.0,7777.0,2289.0,0.768,0.615,0.02,0.178
2859302,1807.0,7727.0,2203.0,0.768,0.615,0.022,0.179
2859328,1681.0,7703.0,2151.0,0.768,0.614,0.023,0.18
2859344,1719.0,7601.0,2287.0,0.768,0.614,0.025,0.181
2859360,1609.0,7681.0,2145.0,0.768,0.614,0.026,0.182
2859376,1489.0,7859.0,2193.0,0.768,0.614,0.028,0.182
2859392,1401.0,7909.0,2247.0,0.767,0.614,0.029,0.182
2859408,1345.0,7247.0,2205.0,0.768,0.613,0.03,0.182
2859434,1333.0,7709.0,2207.0,0.768,0.613,0.031,0.181
2859450,1427.0,7889.0,2321.0,0.768,0.613,0.031,0.18
2859466,1383.0,7827.0,2291.0,0.769,0.613,0.032,0.179
2859482,1467.0,7901.0,2319.0,0.769,0.613,0.032,0.177
2859499,1503.0,7745.0,2305.0,0.769,0.614,0.032,0.176
2859515,1581.0,7691.0,2283.0,0.769,0.614,0.032,0.174
2859541,1677.0,7789.0,2255.0,0.769,0.614,0.032,0.173
2859557,1591.0,7775.0,2073.0,0.769,0.615,0.031,0.172
2859574,1755.0,7927.0,2185.0,0.768,0.616,0.031,0.172
2859590,1727.0,8113.0,2101.0,0.768,0.616,0.031,0.171
2859606,1673.0,7851.0,2055.0,0.768,0.617,0.03,0.171
2859622,1673.0,7821.0,2025.0,0.768,0.617,0.03,0.17
2859638,1633.0,7725.0,1991.0,0.767,0.618,0.029,0.169
2859664,1665.0,7667.0,1823.0,0.767,0.618,0.029,0.169
2859680,1627.0,7567.0,1767.0,0.767,0.618,0.029,0.168
2859696,1533.0,7969.0,1965.0,0.767,0.619,0.029,0.167
2859712,1479.0,8125.0,2137.0,0.767,0.619,0.028,0.166
2859728,1477.0,8323.0,2153.0,0.768,0.618,0.028,0.165
2859745,1525.0,8107.0,2099.0,0.769,0.617,0.027,0.164
2859771,1567.0,7599.0,2151.0,0.77,0.616,0.026,0.162
2859787,1505.0,7685.0,2251.0,0.771,0.615,0.025,0.161
2859804,1593.0,7801.0,2131.0,0.772,0.615,0.025,0.16
2859820,1455.0,7655.0,2117.0,0.772,0.615,0.024,0.159
2859836,1377.0,7679.0,2209.0,0.772,0.615,0.024,0.158
2859852,1333.0,7785.0,2299.0,0.773,0.615,0.024,0.157
2859868,1407.0,7907.0,2311.0,0.773,0.615,0.024,0.157
2859894,1347.0,7789.0,2221.0,0.773,0.615,0.024,0.156
2859911,1391.0,7761.0,2279.0,0.773,0.615,0.024,0.156
2859928,1465.0,7757.0,2267.0,0.773,0.615,0.023,0.156
2859944,1533.0,7759.0,2237.0,0.772,0.615,0.023,0.156
2859961,1555.0,7775.0,2221.0,0.772,0.616,0.023,0.156
2859977,1549.0,7841.0,2137.0,0.772,0.616,0.023,0.156
2859994,1521.0,7827.0,2125.0,0.771,0.616,0.022,0.156
2860011,1443.0,7871.0,2051.0,0.771,0.617,0.022,0.156
2860037,1471.0,7961.0,2013.0,0.771,0.617,0.021,0.156
2860053,1449.0,7887.0,1987.0,0.772,0.617,0.02,0.155
2860069,1481.0,7849.0,2047.0,0.772,0.616,0.02,0.154
2860085,1579.0,7807.0,2103.0,0.772,0.616,0.019,0.153
2860101,1507.0,7785.0,2123.0,0.773,0.616,0.018,0.152
2860117,1501.0,7827.0,2215.0,0.773,0.615,0.018,0.151
2860143,1511.0,7823.0,2271.0,0.774,0.615,0.017,0.151
2860159,1501.0,7831.0,2251.0,0.774,0.615,0.017,0.15
2860175,1495.0,7787.0,2157.0,0.774,0.615,0.016,0.15
2860191,1365.0,7653.0,2225.0,0.774,0.615,0.016,0.149
2860207,1417.0,7743.0,2279.0,0.774,0.615,0.016,0.149
2860224,1453.0,7789.0,2223.0,0.774,0.615,0.015,0.149
2860241,1467.0,7769.0,2185.0,0.774,0.616,0.015,0.149
2860267,1473.0,7845.0,2199.0,0.774,0.616,0.015,0.148
2860283,1495.0,7821.0,2177.0,0.774,0.616,0.014,0.148
2860299,1539.0,7811.0,2155.0,0.774,0.616,0.014,0.148
2860316,1509.0,7777.0,2087.0,0.774,0.616,0.013,0.148
2860332,1531.0,7833.0,2125.0,0.774,0.616,0.013,0.147
2860348,1477.0,7801.0,2113.0,0.774,0.616,0.013,0.147
2860364,1529.0,7795.0,2115.0,0.774,0.616,0.012,0.147
2860390,1529.0,7761.0,2073.0,0.774,0.616,0.012,0.146
2860406,1553.0,7897.0,2131.0,0.774,0.616,0.011,0.146
2860423,1527.0,7759.0,2167.0,0.774,0.616,0.011,0.145
2860439,1451.0,7781.0,2137.0,0.774,0.616,0.011,0.145
2860456,1475.0,7823.0,2139.0,0.774,0.616,0.01,0.144
2860472,1489.0,7833.0,2157.0,0.774,0.616,0.01,0.144
2860488,1465.0,7801.0,2187.0,0.774,0.616,0.01,0.143
2860514,1477.0,7885.0,2205.0,0.774,0.616,0.01,0.143
2860530,1465.0,7759.0,2177.0,0.774,0.616,0.009,0.143
2860546,1487.0,7769.0,2171.0,0.774,0.616,0.009,0.142
2860562,1505.0,7809.0,2173.0,0.775,0.616,0.009,0.142
2860578,1501.0,7813.0,2137.0,0.775,0.616,0.009,0.142
2860594,1515.0,7867.0,2155.0,0.775,0.616,0.008,0.141
2860620,1503.0,7803.0,2141.0,0.775,0.617,0.008,0.141
2860636,1485.0,7847.0,2141.0,0.775,0.617,0.008,0.14
2860653,1505.0,7801.0,2135.0,0.775,0.617,0.008,0.14
2860669,1529.0,7811.0,2083.0,0.775,0.617,0.007,0.139
2860686,1519.0,7847.0,2165.0,0.775,0.617,0.007,0.139
2860702,1513.0,7833.0,2149.0,0.775,0.617,0.007,0.138
2860722,1465.0,7823.0,2163.0,0.775,0.616,0.007,0.138
2860738,1505.0,7783.0,2093.0,0.775,0.616,0.007,0.137
2860754,1495.0,7783.0,2145.0,0.776,0.616,0.006,0.136
2860780,1457.0,7847.0,2197.0,0.776,0.616,0.006,0.136
2860796,1433.0,7809.0,2169.0,0.776,0.616,0.006,0.135
2860812,1481.0,7793.0,2157.0,0.776,0.616,0.006,0.135
2860828,1485.0,7777.0,2163.0,0.776,0.616,0.006,0.134
2860844,1543.0,7853.0,2203.0,0.776,0.616,0.005,0.134
2860861,1417.0,7793.0,2123.0,0.776,0.616,0.005,0.133
2860877,1505.0,7829.0,2121.0,0.776,0.616,0.005,0.133
2860903,1407.0,7801.0,2135.0,0.777,0.616,0.005,0.132
2860919,1441.0,7791.0,2221.0,0.777,0.616,0.004,0.132
2860935,1471.0,7829.0,2137.0,0.777,0.616,0.004,0.131
2860951,1435.0,7765.0,2117.0,0.777,0.616,0.004,0.13
2860967,1463.0,7809.0,2155.0,0.777,0.616,0.004,0.13
2860993,1417.0,7801.0,2141.0,0.777,0.616,0.003,0.129
2861009,1433.0,7829.0,2133.0,0.777,0.616,0.003,0.129
2861025,1431.0,7851.0,2147.0,0.777,0.616,0.003,0.128
2861041,1393.0,7821.0,2151.0,0.778,0.616,0.003,0.128
2861057,1439.0,7783.0,2193.0,0.778,0.616,0.002,0.127
2861073,1459.0,7817.0,2177.0,0.778,0.616,0.002,0.127
2861099,1441.0,7795.0,2167.0,0.778,0.616,0.002,0.126
2861116,1435.0,7841.0,2139.0,0.778,0.616,0.002,0.126
2861133,1425.0,7869.0,2155.0,0.778,0.616,0.001,0.125
2861149,1465.0,7859.0,2175.0,0.778,0.616,0.001,0.125
2861165,1421.0,7855.0,2093.0,0.778,0.616,0.001,0.124
2861181,1377.0,7849.0,2133.0,0.778,0.616,0.0,0.124
2861197,1425.0,7817.0,2151.0,0.778,0.616,0.0,0.124
2861214,1421.0,7873.0,2203.0,0.778,0.615,-0.0,0.123
2861231,1455.0,7835.0,2161.0,0.779,0.615,-0.001,0.123
2861257,1427.0,7827.0,2167.0,0.779,0.615,-0.001,0.123
2861273,1465.0,7785.0,2195.0,0.779,0.615,-0.001,0.123
2861290,1391.0,7741.0,2173.0,0.779,0.615,-0.001,0.122
2861306,1379.0,7797.0,2123.0,0.779,0.615,-0.002,0.122
2861322,1371.0,7837.0,2183.0,0.779,0.615,-0.002,0.122
2861339,1387.0,7803.0,2147.0,0.779,0.615,-0.002,0.121
2861356,1377.0,7837.0,2165.0,0.779,0.615,-0.002,0.121
2861373,1357.0,7771.0,2197.0,0.78,0.615,-0.002,0.12
2861400,1395.0,7839.0,2193.0,0.78,0.615,-0.002,0.12
2861417,1367.0,7787.0,2203.0,0.78,0.615,-0.002,0.119
2861434,1363.0,7815.0,2239.0,0.78,0.615,-0.003,0.119
2861451,1361.0,7877.0,2213.0,0.78,0.615,-0.003,0.118
2861468,1373.0,7861.0,2179.0,0.78,0.615,-0.003,0.118
2861485,1393.0,7787.0,2197.0,0.78,0.615,-0.004,0.117
2861502,1453.0,7857.0,2171.0,0.78,0.615,-0.004,0.117
2861518,1393.0,7885.0,2127.0,0.78,0.615,-0.004,0.116
2861534,1373.0,7861.0,2147.0,0.78,0.615,-0.005,0.116
2861551,1425.0,7839.0,2117.0,0.78,0.615,-0.005,0.115
2861577,1429.0,7809.0,2101.0,0.78,0.615,-0.005,0.115
2861594,1443.0,7881.0,2145.0,0.78,0.616,-0.005,0.114
2861611,1405.0,7851.0,2193.0,0.78,0.616,-0.006,0.114
2861627,1399.0,7773.0,2159.0,0.78,0.616,-0.006,0.113
2861643,1435.0,7857.0,2175.0,0.78,0.616,-0.006,0.113
2861659,1411.0,7837.0,2133.0,0.78,0.616,-0.006,0.112
2861676,1369.0,7835.0,2177.0,0.78,0.616,-0.006,0.112
2861692,1405.0,7863.0,2221.0,0.78,0.616,-0.007,0.111
2861709,1339.0,7829.0,2189.0,0.78,0.616,-0.007,0.111
2861735,1377.0,7829.0,2105.0,0.78,0.616,-0.007,0.111
2861752,1399.0,7859.0,2145.0,0.78,0.616,-0.007,0.11
2861768,1397.0,7833.0,2147.0,0.78,0.616,-0.008,0.11
2861784,1367.0,7795.0,2201.0,0.78,0.616,-0.008,0.11
2861800,1387.0,7793.0,2183.0,0.78,0.616,-0.008,0.109
2861816,1375.0,7849.0,2171.0,0.78,0.616,-0.008,0.109
2861842,1325.0,7841.0,2149.0,0.781,0.616,-0.009,0.109
2861859,1325.0,7841.0,2199.0,0.781,0.616,-0.009,0.108
2861875,1361.0,7787.0,2107.0,0.781,0.616,-0.009,0.108
2861891,1407.0,7847.0,2149.0,0.781,0.616,-0.009,0.108
2861907,1395.0,7829.0,2187.0,0.781,0.616,-0.01,0.107
2861923,1355.0,7829.0,2167.0,0.781,0.616,-0.01,0.107
2861939,1359.0,7837.0,2127.0,0.781,0.616,-0.01,0.106
2861965,1355.0,7817.0,2173.0,0.781,0.616,-0.01,0.106
2861981,1365.0,7865.0,2181.0,0.781,0.616,-0.01,0.106
2861997,1349.0,7825.0,2177.0,0.781,0.616,-0.011,0.105
2862013,1371.0,7823.0,2147.0,0.781,0.616,-0.011,0.105
2862029,1389.0,7891.0,2145.0,0.781,0.616,-0.011,0.105
2862055,1401.0,7839.0,2149.0,0.781,0.616,-0.011,0.104
2862071,1367.0,7821.0,2159.0,0.781,0.616,-0.012,0.104
2862087,1331.0,7871.0,2141.0,0.781,0.616,-0.012,0.104
2862103,1347.0,7887.0,2163.0,0.781,0.616,-0.012,0.104
2862119,1327.0,7815.0,2177.0,0.781,0.615,-0.012,0.103
2862135,1349.0,7843.0,2129.0,0.781,0.615,-0.013,0.103
2862161,1413.0,7829.0,2151.0,0.781,0.615,-0.013,0.103
2862177,1401.0,7851.0,2151.0,0.781,0.615,-0.013,0.103
2862193,1429.0,7913.0,2175.0,0.782,0.615,-0.013,0.102
2862209,1373.0,7899.0,2135.0,0.782,0.615,-0.014,0.102
2862225,1407.0,7889.0,2201.0,0.782,0.615,-0.014,0.102
2862241,1305.0,7923.0,2207.0,0.782,0.615,-0.014,0.102
2862258,1445.0,8023.0,2215.0,0.782,0.614,-0.015,0.102
2862284,1611.0,7815.0,2157.0,0.783,0.614,-0.015,0.101
2862300,1569.0,8041.0,2167.0,0.783,0.613,-0.016,0.101
2862316,1469.0,8081.0,2227.0,0.784,0.612,-0.016,0.101
2862332,1431.0,7725.0,2191.0,0.785,0.611,-0.016,0.101
2862348,1315.0,7435.0,2147.0,0.786,0.61,-0.017,0.101
2862364,1287.0,7657.0,2121.0,0.786,0.61,-0.017,0.101
2862390,1357.0,7811.0,2187.0,0.786,0.609,-0.018,0.1
2862406,1299.0,7761.0,2321.0,0.787,0.609,-0.018,0.1
2862422,1355.0,7747.0,2327.0,0.787,0.608,-0.018,0.1
2862438,1383.0,7791.0,2413.0,0.788,0.608,-0.019,0.1
2862454,1465.0,8003.0,2457.0,0.788,0.607,-0.019,0.1
2862470,1475.0,8119.0,2515.0,0.789,0.606,-0.02,0.1
2862496,1459.0,7889.0,2489.0,0.789,0.605,-0.02,0.1
2862513,1443.0,7933.0,2353.0,0.79,0.604,-0.021,0.101
2862529,1715.0,7879.0,2463.0,0.791,0.603,-0.021,0.101
2862545,1651.0,8155.0,2647.0,0.793,0.6,-0.022,0.102
2862561,2329.0,8457.0,2753.0,0.796,0.596,-0.023,0.103
2862577,1695.0,8005.0,2799.0,0.799,0.592,-0.023,0.103
2862603,2029.0,7645.0,2765.0,0.803,0.587,-0.024,0.103
2862619,1417.0,7159.0,2731.0,0.806,0.582,-0.025,0.103
2862635,1525.0,7213.0,2673.0,0.809,0.578,-0.026,0.103
2862651,2013.0,7243.0,2749.0,0.811,0.575,-0.027,0.103
2862667,1643.0,7563.0,3227.0,0.813,0.572,-0.027,0.104
2862683,1643.0,7559.0,3539.0,0.816,0.568,-0.028,0.105
2862709,1469.0,7401.0,3457.0,0.818,0.564,-0.03,0.106
2862729,2363.0,7925.0,3581.0,0.821,0.559,-0.033,0.107
2862745,2341.0,6541.0,3479.0,0.825,0.553,-0.035,0.109
2862761,2505.0,6683.0,3469.0,0.827,0.55,-0.036,0.11
2862778,2225.0,6421.0,3561.0,0.828,0.548,-0.037,0.112
2862795,2403.0,7747.0,3465.0,0.829,0.547,-0.037,0.114
2862811,1869.0,7595.0,3321.0,0.83,0.544,-0.037,0.116
2862827,2095.0,7881.0,3621.0,0.832,0.541,-0.038,0.118
2862844,1707.0,7327.0,3563.0,0.835,0.535,-0.039,0.12
2862860,1563.0,7175.0,3725.0,0.838,0.53,-0.041,0.122
2862877,1967.0,6993.0,3857.0,0.841,0.525,-0.042,0.124
2862903,2117.0,7013.0,3895.0,0.844,0.52,-0.043,0.126
2862919,1781.0,6759.0,3899.0,0.846,0.515,-0.044,0.129
2862936,1585.0,6413.0,3829.0,0.848,0.511,-0.044,0.132
2862952,1451.0,6413.0,3875.0,0.849,0.509,-0.044,0.135
2862968,1495.0,6421.0,3841.0,0.849,0.509,-0.044,0.137
2862984,1517.0,6933.0,3671.0,0.848,0.51,-0.044,0.14
2863010,1601.0,7637.0,3801.0,0.847,0.511,-0.044,0.142
2863027,1667.0,7877.0,4025.0,0.847,0.51,-0.045,0.143
2863043,1801.0,7977.0,4563.0,0.849,0.507,-0.045,0.145
2863059,2075.0,7887.0,5003.0,0.852,0.501,-0.045,0.147
2863075,2329.0,7749.0,5427.0,0.856,0.493,-0.044,0.15
2863092,2359.0,7491.0,5723.0,0.861,0.483,-0.044,0.153
2863109,2469.0,7213.0,6201.0,0.867,0.471,-0.043,0.157
2863126,2435.0,6715.0,6295.0,0.873,0.458,-0.043,0.162
2863153,2315.0,5907.0,6279.0,0.879,0.445,-0.042,0.167
2863169,2233.0,5347.0,6215.0,0.884,0.432,-0.042,0.173
2863185,2205.0,5021.0,6275.0,0.889,0.42,-0.041,0.18
2863201,2179.0,4871.0,6233.0,0.892,0.409,-0.039,0.188
2863217,2153.0,4629.0,6139.0,0.895,0.399,-0.038,0.197
2863233,1963.0,4323.0,6221.0,0.897,0.389,-0.037,0.207
2863259,1927.0,3981.0,6417.0,0.898,0.379,-0.035,0.219
2863275,1929.0,3577.0,6643.0,0.899,0.371,-0.035,0.232
2863291,2127.0,3153.0,6355.0,0.898,0.363,-0.034,0.246
2863307,2245.0,2785.0,6007.0,0.896,0.357,-0.033,0.261
2863323,2247.0,2705.0,5925.0,0.893,0.353,-0.029,0.276
2863339,2251.0,2997.0,5677.0,0.889,0.351,-0.025,0.292
2863355,2319.0,3535.0,5715.0,0.884,0.351,-0.019,0.308
2863381,2449.0,4597.0,5777.0,0.878,0.353,-0.014,0.324
2863397,2729.0,4869.0,5719.0,0.871,0.355,-0.008,0.34
2863413,2593.0,4129.0,5765.0,0.863,0.358,-0.003,0.356
2863429,2451.0,2819.0,5553.0,0.854,0.364,0.003,0.371
2863445,2597.0,2167.0,5109.0,0.844,0.375,0.012,0.385
2863471,2457.0,1081.0,4591.0,0.83,0.39,0.024,0.398
2863487,2323.0,751.0,3805.0,0.814,0.41,0.039,0.41
2863503,2407.0,1235.0,3069.0,0.793,0.435,0.057,0.422
2863519,2789.0,2759.0,2505.0,0.77,0.461,0.074,0.435
2863535,3199.0,3917.0,2113.0,0.746,0.483,0.09,0.45
2863551,3679.0,5313.0,1689.0,0.722,0.501,0.102,0.466
2863577,4019.0,5703.0,1603.0,0.699,0.513,0.109,0.485
2863593,4705.0,6767.0,1187.0,0.677,0.522,0.111,0.506
2863609,5355.0,6755.0,699.0,0.657,0.527,0.109,0.528
2863625,5167.0,5581.0,433.0,0.639,0.529,0.104,0.549
2863642,5119.0,4575.0,283.0,0.62,0.531,0.097,0.569
2863659,5273.0,4091.0,53.0,0.601,0.534,0.088,0.588
2863676,5655.0,4173.0,-55.0,0.582,0.539,0.076,0.605
2863693,6275.0,4593.0,-25.0,0.561,0.545,0.06,0.62
2863710,6941.0,5137.0,159.0,0.541,0.55,0.04,0.635
2863736,7789.0,5391.0,471.0,0.523,0.552,0.014,0.649
2863752,8565.0,5601.0,1067.0,0.507,0.552,-0.017,0.662
2863768,9307.0,5803.0,1519.0,0.495,0.548,-0.052,0.672
2863784,9923.0,5631.0,1829.0,0.485,0.542,-0.092,0.68
2863800,10151.0,5349.0,2219.0,0.477,0.534,-0.133,0.685
2863826,10043.0,5011.0,2587.0,0.471,0.524,-0.174,0.687
2863843,9847.0,4285.0,3013.0,0.467,0.515,-0.212,0.687
2863859,9587.0,3851.0,3427.0,0.464,0.507,-0.246,0.684
2863876,9563.0,3415.0,3661.0,0.461,0.501,-0.273,0.679
2863892,9207.0,4251.0,3663.0,0.46,0.499,-0.294,0.673
2863909,9677.0,6231.0,3771.0,0.461,0.498,-0.313,0.665
2863926,9577.0,6917.0,3879.0,0.468,0.495,-0.333,0.653
2863943,9675.0,4901.0,3547.0,0.481,0.489,-0.353,0.636
2863959,9523.0,2081.0,3235.0,0.498,0.482,-0.373,0.617
2863976,8913.0,-139.0,3733.0,0.515,0.476,-0.389,0.597
2863993,8249.0,-1423.0,4373.0,0.53,0.472,-0.402,0.579
2864019,7983.0,-2351.0,4713.0,0.542,0.47,-0.412,0.562
2864035,8167.0,-2673.0,4431.0,0.549,0.47,-0.419,0.549
2864051,8361.0,-2247.0,3679.0,0.552,0.472,-0.423,0.542
2864067,8455.0,87.0,3745.0,0.553,0.473,-0.426,0.537
2864083,8421.0,1301.0,3953.0,0.557,0.472,-0.43,0.532
2864099,8565.0,553.0,3879.0,0.563,0.467,-0.437,0.524
2864125,8607.0,-1441.0,4367.0,0.57,0.461,-0.442,0.516
2864142,8821.0,-4239.0,5565.0,0.576,0.459,-0.445,0.509
2864159,8871.0,-7129.0,4643.0,0.576,0.462,-0.439,0.512
2864176,8013.0,-7423.0,4641.0,0.568,0.474,-0.422,0.524
2864192,7993.0,-4937.0,4593.0,0.551,0.494,-0.396,0.544
2864209,8091.0,-2941.0,3973.0,0.528,0.517,-0.362,0.568
2864225,8777.0,-1677.0,2945.0,0.502,0.54,-0.323,0.594
2864242,9105.0,-397.0,1689.0,0.472,0.562,-0.278,0.62
2864259,8791.0,189.0,929.0,0.439,0.581,-0.229,0.645
2864285,8529.0,1241.0,-31.0,0.403,0.599,-0.177,0.668
2864301,8205.0,3093.0,-523.0,0.366,0.615,-0.125,0.687
2864317,7601.0,4317.0,-555.0,0.331,0.627,-0.076,0.701
2864333,7511.0,4601.0,-615.0,0.299,0.636,-0.033,0.71
2864349,7451.0,4919.0,-653.0,0.272,0.643,0.005,0.716
2864365,7343.0,5167.0,-351.0,0.249,0.648,0.037,0.719
2864391,7359.0,4441.0,-209.0,0.23,0.651,0.063,0.721
2864408,7557.0,3795.0,-169.0,0.213,0.654,0.086,0.721
2864424,7557.0,4189.0,-157.0,0.201,0.655,0.105,0.721
2864441,7607.0,4041.0,137.0,0.191,0.655,0.121,0.721
2864458,7505.0,3339.0,153.0,0.184,0.655,0.132,0.721
2864475,7117.0,3067.0,235.0,0.18,0.654,0.139,0.721
2864492,7161.0,1993.0,657.0,0.176,0.653,0.145,0.722
2864509,7507.0,2539.0,649.0,0.172,0.652,0.148,0.724
2864526,7719.0,3243.0,447.0,0.17,0.65,0.148,0.726
2864542,7569.0,4705.0,61.0,0.172,0.646,0.142,0.73
2864559,7371.0,6139.0,-229.0,0.181,0.64,0.127,0.736
2864586,7311.0,7573.0,-789.0,0.2,0.631,0.101,0.743
2864602,6837.0,7617.0,-1699.0,0.231,0.617,0.061,0.75
2864618,6837.0,7669.0,-2785.0,0.274,0.597,0.007,0.754
2864634,6915.0,6085.0,-3285.0,0.324,0.57,-0.058,0.752
2864650,7001.0,3393.0,-2911.0,0.377,0.54,-0.129,0.741
2864666,7737.0,1363.0,-2599.0,0.429,0.505,-0.197,0.722
2864692,7797.0,-911.0,-1203.0,0.477,0.469,-0.258,0.697
2864709,8177.0,-2811.0,-347.0,0.518,0.434,-0.31,0.669
2864731,8125.0,-4685.0,833.0,0.551,0.403,-0.35,0.642
2864747,7715.0,-6757.0,2153.0,0.574,0.379,-0.38,0.618
2864763,7255.0,-7743.0,3499.0,0.588,0.366,-0.397,0.601
2864779,7001.0,-7805.0,4585.0,0.594,0.364,-0.405,0.593
2864795,7243.0,-7037.0,4953.0,0.591,0.37,-0.402,0.593
2864812,7671.0,-6235.0,4653.0,0.581,0.385,-0.389,0.603
2864828,7869.0,-5935.0,4051.0,0.565,0.407,-0.364,0.619
2864845,7801.0,-6371.0,2653.0,0.541,0.436,-0.325,0.641
2864861,7497.0,-5911.0,489.0,0.507,0.473,-0.272,0.667
2864877,7331.0,-3935.0,-1299.0,0.461,0.515,-0.207,0.692
2864904,7617.0,-1701.0,-2795.0,0.406,0.556,-0.133,0.712
2864920,7741.0,991.0,-3933.0,0.346,0.593,-0.057,0.725
2864936,7605.0,5203.0,-3387.0,0.286,0.619,0.014,0.731
2864952,7399.0,8631.0,-1837.0,0.234,0.635,0.07,0.733
2864968,7045.0,9221.0,-713.0,0.193,0.644,0.109,0.732
2864994,6725.0,8425.0,263.0,0.165,0.648,0.132,0.732
2865010,6915.0,6395.0,733.0,0.144,0.65,0.144,0.732
2865026,7321.0,6007.0,727.0,0.13,0.652,0.15,0.732
2865042,7713.0,5879.0,577.0,0.121,0.653,0.153,0.732
2865059,7839.0,7769.0,-83.0,0.118,0.652,0.15,0.734
2865076,7779.0,10969.0,-497.0,0.128,0.648,0.135,0.739
2865092,8105.0,13359.0,-2043.0,0.156,0.639,0.1,0.746
2865109,7533.0,13307.0,-4129.0,0.206,0.623,0.04,0.754
2865126,7079.0,9793.0,-6729.0,0.272,0.597,-0.041,0.754
2865152,6765.0,5297.0,-7959.0,0.345,0.561,-0.133,0.741
2865168,7361.0,573.0,-7673.0,0.415,0.517,-0.224,0.715
2865184,8145.0,-4175.0,-5731.0,0.477,0.47,-0.303,0.678
2865200,8633.0,-8627.0,-2383.0,0.525,0.429,-0.365,0.639
2865216,8661.0,-10409.0,1275.0,0.557,0.399,-0.406,0.605
2865242,8167.0,-9877.0,3561.0,0.574,0.384,-0.429,0.582
2865259,7993.0,-8089.0,4415.0,0.58,0.381,-0.437,0.572
2865276,7993.0,-5233.0,4063.0,0.581,0.387,-0.434,0.57
2865292,7827.0,-4325.0,3573.0,0.577,0.397,-0.423,0.574
2865309,7243.0,-2741.0,3903.0,0.571,0.41,-0.407,0.583
2865326,7085.0,-2907.0,4517.0,0.562,0.425,-0.388,0.593
2865343,7563.0,-4917.0,4219.0,0.548,0.446,-0.362,0.608
2865359,7811.0,-6789.0,3065.0,0.525,0.475,-0.323,0.629
2865375,8333.0,-6255.0,625.0,0.489,0.512,-0.266,0.655
2865392,8513.0,-3691.0,-1979.0,0.441,0.554,-0.192,0.679
2865419,7951.0,-933.0,-4601.0,0.383,0.595,-0.107,0.698
2865435,6891.0,2497.0,-5825.0,0.322,0.629,-0.017,0.708
2865451,6257.0,5559.0,-5583.0,0.263,0.653,0.067,0.707
2865467,6463.0,9501.0,-4113.0,0.213,0.666,0.135,0.702
2865483,6283.0,12497.0,-2377.0,0.178,0.671,0.178,0.698
2865499,5759.0,12229.0,-1103.0,0.163,0.668,0.192,0.7
2865515,5411.0,9489.0,-643.0,0.164,0.664,0.182,0.706
2865541,5473.0,7419.0,-933.0,0.177,0.659,0.156,0.714
2865558,6525.0,8381.0,-1451.0,0.202,0.652,0.116,0.722
2865575,7069.0,8725.0,-2733.0,0.239,0.64,0.062,0.728
2865592,7437.0,7735.0,-3859.0,0.285,0.621,-0.006,0.73
2865609,7337.0,6219.0,-4623.0,0.338,0.596,-0.083,0.723
2865625,7865.0,4117.0,-4705.0,0.394,0.565,-0.164,0.706
2865643,8527.0,1187.0,-4449.0,0.449,0.528,-0.241,0.679
2865659,8649.0,-3361.0,-3109.0,0.499,0.49,-0.307,0.646
2865676,8619.0,-8079.0,-557.0,0.538,0.457,-0.355,0.613
2865693,7939.0,-10457.0,3027.0,0.563,0.437,-0.383,0.588
2865709,7269.0,-11611.0,5803.0,0.571,0.436,-0.391,0.575
2865735,7851.0,-10953.0,6457.0,0.564,0.452,-0.383,0.576
2865751,8535.0,-8861.0,4209.0,0.542,0.482,-0.356,0.589
2865767,8915.0,-5833.0,2035.0,0.509,0.519,-0.312,0.612
2865783,8783.0,-2767.0,103.0,0.468,0.558,-0.254,0.637
2865799,8283.0,-193.0,-1537.0,0.42,0.594,-0.187,0.66
2865825,7785.0,2167.0,-2503.0,0.368,0.626,-0.113,0.678
2865842,7085.0,3707.0,-2957.0,0.316,0.652,-0.04,0.688
2865859,6839.0,5785.0,-3207.0,0.268,0.668,0.025,0.693
2865875,6745.0,8983.0,-2385.0,0.229,0.677,0.077,0.695
2865892,6397.0,11297.0,-1271.0,0.202,0.68,0.107,0.696
2865908,5829.0,9507.0,-421.0,0.191,0.68,0.115,0.699
2865924,6369.0,7241.0,-361.0,0.192,0.677,0.107,0.702
2865941,6969.0,6157.0,-355.0,0.201,0.674,0.09,0.706
2865958,7705.0,7521.0,-463.0,0.217,0.668,0.065,0.709
2865985,8219.0,10529.0,-1397.0,0.247,0.657,0.027,0.712
2866001,7785.0,9285.0,-2667.0,0.29,0.638,-0.025,0.713
2866017,7139.0,6161.0,-3307.0,0.342,0.612,-0.087,0.708
2866033,7225.0,2505.0,-2743.0,0.394,0.583,-0.149,0.695
2866049,7243.0,-547.0,-311.0,0.442,0.554,-0.205,0.675
2866065,8169.0,-3773.0,2095.0,0.48,0.53,-0.249,0.653
2866091,8619.0,-7999.0,5079.0,0.505,0.515,-0.276,0.635
2866108,8589.0,-13059.0,7197.0,0.509,0.519,-0.277,0.629
2866125,8545.0,-12331.0,5463.0,0.486,0.544,-0.247,0.638
2866142,8527.0,-6699.0,1253.0,0.443,0.584,-0.188,0.653
2866158,7891.0,-541.0,-2089.0,0.389,0.627,-0.112,0.666
2866175,7331.0,5761.0,-3825.0,0.332,0.663,-0.028,0.67
2866192,7543.0,11315.0,-4073.0,0.284,0.687,0.05,0.668
2866209,7883.0,15815.0,-3249.0,0.252,0.696,0.112,0.663
2866225,7873.0,17509.0,-2329.0,0.244,0.694,0.149,0.661
2866242,7795.0,14347.0,-2325.0,0.258,0.683,0.164,0.664
2866259,7343.0,9975.0,-2559.0,0.284,0.669,0.165,0.667
2866285,7275.0,7993.0,-2587.0,0.316,0.656,0.159,0.667
2866301,7991.0,6555.0,-2197.0,0.35,0.644,0.153,0.662
2866317,7981.0,5909.0,-1417.0,0.384,0.635,0.153,0.653
2866333,7729.0,7105.0,-999.0,0.417,0.627,0.155,0.639
2866349,7613.0,8741.0,-907.0,0.451,0.618,0.155,0.625
2866365,7893.0,12945.0,-973.0,0.494,0.599,0.144,0.614
2866391,8559.0,131.0,3183.0,0.534,0.568,0.126,0.613
2866408,4091.0,849.0,2909.0,0.57,0.539,0.111,0.61
2866425,2135.0,181.0,2807.0,0.598,0.519,0.106,0.601
2866442,3775.0,4213.0,2269.0,0.622,0.506,0.104,0.588
2866459,3631.0,4965.0,2303.0,0.644,0.494,0.102,0.575
2866475,3181.0,4479.0,2211.0,0.663,0.485,0.101,0.561
2866491,2593.0,4211.0,1935.0,0.678,0.481,0.101,0.546
2866508,2475.0,4913.0,2185.0,0.691,0.481,0.1,0.53
2866525,2699.0,6355.0,2175.0,0.702,0.486,0.099,0.511
2866542,2565.0,5733.0,1595.0,0.713,0.493,0.096,0.49
2866568,2575.0,5061.0,727.0,0.721,0.504,0.094,0.466
2866584,2549.0,5059.0,257.0,0.724,0.522,0.092,0.441
2866600,2393.0,7715.0,7.0,0.727,0.541,0.089,0.414
2866616,2965.0,9335.0,87.0,0.731,0.556,0.081,0.387
2866632,3861.0,10367.0,217.0,0.74,0.564,0.069,0.359
2866648,4633.0,8941.0,711.0,0.754,0.564,0.053,0.333
2866674,4081.0,5355.0,1283.0,0.766,0.564,0.037,0.306
2866691,3239.0,2869.0,1795.0,0.773,0.57,0.023,0.277
2866708,2381.0,3553.0,2343.0,0.774,0.583,0.01,0.246
2866725,3677.0,6351.0,3159.0,0.773,0.597,-0.005,0.215
2866746,5483.0,7519.0,4031.0,0.775,0.603,-0.021,0.189
2866762,6123.0,6075.0,4491.0,0.78,0.602,-0.035,0.168
2866778,6073.0,4279.0,4707.0,0.786,0.598,-0.045,0.153
2866794,5447.0,3385.0,5033.0,0.789,0.596,-0.052,0.141
2866810,4429.0,4135.0,4289.0,0.79,0.596,-0.057,0.133
2866826,5215.0,5005.0,4073.0,0.789,0.599,-0.061,0.126
2866842,7597.0,-1329.0,6965.0,0.784,0.605,-0.059,0.128
2866868,4685.0,8637.0,5541.0,0.779,0.612,-0.053,0.128
2866884,989.0,10911.0,3749.0,0.78,0.61,-0.051,0.128
2866900,3413.0,8585.0,3663.0,0.784,0.605,-0.052,0.129
2866916,2275.0,6819.0,3475.0,0.787,0.6,-0.053,0.131
2866932,2171.0,7301.0,3061.0,0.787,0.6,-0.052,0.134
2866948,1979.0,7529.0,2729.0,0.786,0.601,-0.05,0.138
2866974,1403.0,7465.0,2635.0,0.784,0.603,-0.049,0.142
2866991,695.0,8589.0,2817.0,0.783,0.603,-0.051,0.143
2867007,1811.0,8101.0,2617.0,0.785,0.6,-0.057,0.142
2867024,2793.0,7815.0,2695.0,0.788,0.596,-0.064,0.142
2867041,2711.0,7555.0,2713.0,0.791,0.591,-0.068,0.142
2867057,2657.0,7147.0,2775.0,0.793,0.588,-0.071,0.142
2867074,2683.0,6271.0,2715.0,0.794,0.587,-0.073,0.143
2867091,2237.0,5869.0,2561.0,0.793,0.587,-0.074,0.144
2867108,1899.0,6501.0,2495.0,0.791,0.589,-0.075,0.145
2867134,2419.0,6657.0,2255.0,0.79,0.59,-0.078,0.145
2867150,2837.0,7397.0,2121.0,0.789,0.591,-0.08,0.146
2867166,3079.0,7699.0,2219.0,0.789,0.59,-0.082,0.146
2867182,3269.0,7683.0,2277.0,0.79,0.59,-0.084,0.147
2867198,3167.0,7553.0,2453.0,0.789,0.59,-0.085,0.148
2867214,3099.0,7853.0,2577.0,0.788,0.592,-0.085,0.148
2867240,3627.0,8559.0,2947.0,0.787,0.593,-0.085,0.148
2867257,3717.0,8091.0,3269.0,0.787,0.593,-0.084,0.147
2867274,2999.0,7361.0,3221.0,0.788,0.592,-0.083,0.147
2867291,3095.0,7203.0,3241.0,0.788,0.592,-0.082,0.147
2867308,2959.0,7059.0,2971.0,0.787,0.594,-0.081,0.146
2867325,2757.0,7265.0,2747.0,0.786,0.595,-0.08,0.146
2867341,2627.0,7567.0,2647.0,0.785,0.597,-0.079,0.144
2867358,2595.0,7635.0,2513.0,0.784,0.599,-0.078,0.143
2867375,2573.0,7579.0,2475.0,0.784,0.6,-0.077,0.141
2867391,2513.0,7797.0,2469.0,0.783,0.602,-0.076,0.139
2867417,2487.0,7853.0,2421.0,0.782,0.603,-0.075,0.136
2867433,2231.0,7383.0,2361.0,0.782,0.605,-0.074,0.133
2867449,2025.0,7365.0,2133.0,0.78,0.608,-0.073,0.13
2867465,1983.0,7671.0,2055.0,0.778,0.611,-0.071,0.126
2867481,1833.0,7631.0,1879.0,0.777,0.614,-0.069,0.122
2867497,1767.0,7601.0,1815.0,0.775,0.617,-0.068,0.118
2867523,1797.0,7765.0,1709.0,0.774,0.619,-0.067,0.114
2867540,1861.0,7333.0,1881.0,0.774,0.62,-0.066,0.11
2867557,2189.0,6655.0,2407.0,0.773,0.621,-0.064,0.107
2867574,2259.0,6525.0,2905.0,0.772,0.624,-0.062,0.104
2867591,2285.0,8029.0,2715.0,0.771,0.626,-0.058,0.102
2867608,2469.0,8621.0,2059.0,0.771,0.627,-0.055,0.099
2867624,2463.0,7745.0,2279.0,0.773,0.625,-0.052,0.095
2867641,3043.0,7363.0,2585.0,0.774,0.625,-0.049,0.092
2867658,2363.0,7367.0,2153.0,0.774,0.625,-0.046,0.09
2867674,2085.0,7127.0,1743.0,0.773,0.627,-0.043,0.088
2867701,1049.0,7287.0,1539.0,0.771,0.63,-0.04,0.086
2867717,1083.0,8559.0,1711.0,0.767,0.635,-0.037,0.084
2867733,1127.0,8685.0,1929.0,0.765,0.637,-0.035,0.082
2867749,1169.0,8337.0,2153.0,0.765,0.639,-0.034,0.079
2867765,1429.0,7405.0,2049.0,0.764,0.64,-0.032,0.076
2867781,1629.0,7309.0,1995.0,0.762,0.642,-0.03,0.074
2867807,1621.0,7847.0,2011.0,0.76,0.646,-0.029,0.073
2867824,1181.0,8131.0,1967.0,0.757,0.649,-0.027,0.072
2867841,941.0,8247.0,2075.0,0.754,0.652,-0.025,0.072
2867857,801.0,7977.0,1919.0,0.751,0.656,-0.023,0.071
2867874,827.0,8153.0,1717.0,0.748,0.659,-0.021,0.07
2867891,901.0,8063.0,1565.0,0.745,0.663,-0.019,0.07
2867908,603.0,6511.0,1689.0,0.742,0.666,-0.017,0.07
2867924,899.0,7951.0,1345.0,0.738,0.671,-0.015,0.07
2867941,923.0,8531.0,1313.0,0.734,0.675,-0.013,0.071
2867957,853.0,8275.0,1521.0,0.731,0.678,-0.012,0.071
2867984,983.0,7717.0,1249.0,0.728,0.682,-0.01,0.072
2868000,1023.0,7583.0,993.0,0.724,0.686,-0.009,0.073
2868016,1155.0,7773.0,867.0,0.719,0.691,-0.008,0.074
2868032,1193.0,8089.0,1001.0,0.714,0.696,-0.006,0.075
2868048,1075.0,7965.0,929.0,0.71,0.7,-0.005,0.077
2868064,1383.0,8171.0,489.0,0.705,0.705,-0.004,0.078
2868090,1329.0,7433.0,255.0,0.7,0.71,-0.003,0.08
2868106,1313.0,7679.0,399.0,0.694,0.715,-0.002,0.083
2868123,1267.0,8253.0,445.0,0.687,0.721,-0.002,0.085
2868140,1435.0,8245.0,-65.0,0.681,0.727,-0.001,0.088
2868157,1461.0,7409.0,-147.0,0.675,0.733,-0.001,0.091
2868174,1491.0,8249.0,-335.0,0.668,0.738,0.001,0.094
2868190,1609.0,7747.0,-309.0,0.661,0.744,0.002,0.097
2868206,1723.0,7951.0,-737.0,0.654,0.75,0.003,0.1
2868223,1895.0,7805.0,-761.0,0.647,0.756,0.004,0.103
2868250,2083.0,7895.0,-1095.0,0.64,0.761,0.006,0.106
2868266,2207.0,7685.0,-1113.0,0.633,0.767,0.008,0.109
2868282,1903.0,7877.0,-1155.0,0.625,0.773,0.01,0.112
2868298,2223.0,7965.0,-1629.0,0.617,0.779,0.012,0.115
2868314,2413.0,7865.0,-1785.0,0.608,0.785,0.015,0.117
2868330,2269.0,7877.0,-1939.0,0.6,0.791,0.017,0.12
2868356,2273.0,7939.0,-2025.0,0.591,0.797,0.02,0.123
2868372,2343.0,7735.0,-2159.0,0.583,0.802,0.022,0.126
2868389,2243.0,7983.0,-2415.0,0.575,0.808,0.025,0.129
2868406,2053.0,7787.0,-2453.0,0.567,0.813,0.028,0.132
2868422,2411.0,7647.0,-2753.0,0.56,0.817,0.032,0.134
2868438,2121.0,7499.0,-2737.0,0.552,0.821,0.036,0.138
2868454,2039.0,7633.0,-2811.0,0.545,0.826,0.04,0.141
2868470,1875.0,7759.0,-2809.0,0.538,0.83,0.045,0.145
2868496,1885.0,7653.0,-2817.0,0.53,0.833,0.049,0.148
2868512,1849.0,7053.0,-3153.0,0.523,0.837,0.054,0.152
2868528,1781.0,7383.0,-3167.0,0.516,0.84,0.058,0.155
2868544,1725.0,7373.0,-3265.0,0.509,0.844,0.063,0.158
2868560,1801.0,7181.0,-3375.0,0.501,0.847,0.067,0.162
2868586,1803.0,7331.0,-3509.0,0.494,0.851,0.071,0.165
2868602,1487.0,6993.0,-3631.0,0.487,0.854,0.074,0.168
2868618,1641.0,7161.0,-3797.0,0.48,0.857,0.077,0.17
2868634,1743.0,7129.0,-3889.0,0.473,0.86,0.08,0.172
2868650,1749.0,7241.0,-4261.0,0.467,0.863,0.082,0.175
2868666,1853.0,7081.0,-4393.0,0.462,0.865,0.084,0.176
2868692,1897.0,7105.0,-4489.0,0.457,0.867,0.085,0.178
2868708,1979.0,7203.0,-4607.0,0.453,0.869,0.087,0.18
2868724,1933.0,7185.0,-4553.0,0.449,0.871,0.088,0.181
2868740,2047.0,7219.0,-4767.0,0.446,0.872,0.09,0.182
2868757,2113.0,6949.0,-4811.0,0.444,0.872,0.091,0.183
2868774,2059.0,7027.0,-4759.0,0.442,0.873,0.093,0.184
2868791,1909.0,6839.0,-4691.0,0.441,0.873,0.094,0.185
2868807,1937.0,6869.0,-4727.0,0.439,0.874,0.096,0.185
2868833,1821.0,6849.0,-4415.0,0.438,0.874,0.098,0.186
2868849,1885.0,6877.0,-4589.0,0.438,0.874,0.1,0.186
2868865,1857.0,6879.0,-4361.0,0.437,0.874,0.101,0.186
2868881,1821.0,6885.0,-4289.0,0.437,0.874,0.103,0.187
2868897,2011.0,7037.0,-4343.0,0.438,0.873,0.105,0.186
2868913,2037.0,6939.0,-4241.0,0.438,0.873,0.107,0.186
2868939,2065.0,7105.0,-4231.0,0.439,0.872,0.109,0.186
2868956,2069.0,7049.0,-4179.0,0.441,0.871,0.111,0.186
2868973,2069.0,7107.0,-4179.0,0.444,0.869,0.112,0.186
2868990,2023.0,7117.0,-4167.0,0.447,0.867,0.114,0.186
2869007,2001.0,6949.0,-4113.0,0.451,0.865,0.116,0.186
2869024,1957.0,7147.0,-4217.0,0.455,0.863,0.117,0.186
2869040,1779.0,6957.0,-4147.0,0.459,0.861,0.118,0.186
2869057,1617.0,6551.0,-4139.0,0.463,0.858,0.119,0.186
2869074,1669.0,6807.0,-4089.0,0.467,0.856,0.119,0.186
2869090,1553.0,6635.0,-4087.0,0.47,0.854,0.12,0.186
2869117,1579.0,6775.0,-3849.0,0.472,0.853,0.121,0.187
2869133,1627.0,6777.0,-3529.0,0.474,0.852,0.122,0.188
2869149,1419.0,7119.0,-3419.0,0.475,0.851,0.123,0.189
2869165,1341.0,7113.0,-3399.0,0.476,0.85,0.124,0.19
2869181,1449.0,6891.0,-3515.0,0.477,0.848,0.124,0.192
2869197,1591.0,6919.0,-3565.0,0.478,0.848,0.125,0.195
2869223,1535.0,7229.0,-3599.0,0.478,0.847,0.125,0.197
2869240,1507.0,6673.0,-3543.0,0.477,0.846,0.126,0.201
2869257,1569.0,7039.0,-3491.0,0.477,0.846,0.126,0.204
2869274,1731.0,6965.0,-3499.0,0.475,0.846,0.126,0.207
2869290,1927.0,7005.0,-3487.0,0.474,0.845,0.127,0.211
2869307,2217.0,7315.0,-3609.0,0.473,0.845,0.127,0.214
2869324,2297.0,7367.0,-3541.0,0.472,0.845,0.128,0.217
2869340,2725.0,7325.0,-3693.0,0.471,0.844,0.129,0.22
2869357,2773.0,7557.0,-3681.0,0.471,0.844,0.13,0.222
2869374,3017.0,7529.0,-3777.0,0.47,0.843,0.132,0.225
2869400,3045.0,7565.0,-3741.0,0.47,0.842,0.134,0.228
2869416,2979.0,7697.0,-3737.0,0.47,0.841,0.137,0.23
2869432,3539.0,7573.0,-4097.0,0.471,0.839,0.14,0.234
2869448,3145.0,7723.0,-3819.0,0.472,0.837,0.144,0.237
2869464,3355.0,7843.0,-3549.0,0.474,0.834,0.148,0.24
2869480,3453.0,8369.0,-3627.0,0.477,0.831,0.153,0.244
2869506,3107.0,8349.0,-3437.0,0.48,0.827,0.158,0.247
2869522,3037.0,8589.0,-3537.0,0.484,0.822,0.163,0.251
2869538,2389.0,8553.0,-3191.0,0.488,0.818,0.168,0.253
2869555,4171.0,7851.0,-3011.0,0.492,0.814,0.173,0.255
2869572,2323.0,8167.0,-2819.0,0.496,0.81,0.179,0.256
2869589,2201.0,9115.0,-2951.0,0.5,0.807,0.184,0.256
2869606,2241.0,9355.0,-2741.0,0.504,0.803,0.19,0.256
2869623,1689.0,8637.0,-2319.0,0.508,0.799,0.196,0.255
2869640,2041.0,9527.0,-2319.0,0.512,0.795,0.202,0.253
2869657,1667.0,8951.0,-2079.0,0.517,0.791,0.209,0.251
2869674,1693.0,9199.0,-2051.0,0.521,0.788,0.217,0.249
2869700,1551.0,9467.0,-2027.0,0.525,0.783,0.226,0.246
2869716,1225.0,9543.0,-1917.0,0.529,0.778,0.235,0.243
2869732,1215.0,9723.0,-2021.0,0.534,0.773,0.244,0.24
2869748,707.0,9863.0,-1649.0,0.539,0.767,0.254,0.237
2869764,563.0,9909.0,-1557.0,0.545,0.761,0.265,0.233
2869780,377.0,10169.0,-1451.0,0.551,0.754,0.275,0.229
2869806,213.0,10187.0,-1353.0,0.559,0.745,0.285,0.224
2869823,15.0,10225.0,-1339.0,0.568,0.737,0.295,0.22
2869840,-237.0,10235.0,-1227.0,0.577,0.727,0.305,0.215
2869857,-423.0,10087.0,-1073.0,0.587,0.715,0.315,0.211
2869873,-675.0,9877.0,-951.0,0.598,0.703,0.326,0.206
2869890,-821.0,9951.0,-887.0,0.609,0.689,0.336,0.202
2869907,-753.0,9929.0,-833.0,0.621,0.674,0.347,0.197
2869923,-907.0,9391.0,-577.0,0.633,0.658,0.358,0.193
2869940,-885.0,9495.0,-587.0,0.646,0.641,0.37,0.189
2869966,-909.0,9311.0,-501.0,0.658,0.622,0.382,0.186
2869982,-1325.0,9159.0,-133.0,0.671,0.601,0.393,0.184
2869998,-1459.0,8771.0,-57.0,0.682,0.58,0.405,0.182
2870014,-2193.0,8313.0,417.0,0.694,0.558,0.417,0.182
2870030,-2569.0,8153.0,611.0,0.705,0.535,0.429,0.181
2870056,-2905.0,8513.0,781.0,0.716,0.512,0.44,0.179
2870073,-3007.0,7729.0,779.0,0.727,0.488,0.45,0.179
2870090,-2937.0,7913.0,697.0,0.737,0.463,0.46,0.179
2870106,-3035.0,7717.0,717.0,0.746,0.437,0.469,0.18
2870122,-3179.0,7487.0,837.0,0.755,0.411,0.478,0.181
2870138,-3377.0,6967.0,955.0,0.763,0.385,0.487,0.183
2870155,-3391.0,6467.0,1049.0,0.77,0.358,0.495,0.184
2870172,-3481.0,6311.0,1161.0,0.776,0.33,0.504,0.186
2870188,-3645.0,6323.0,1223.0,0.782,0.302,0.512,0.189
2870214,-3627.0,5645.0,1245.0,0.787,0.272,0.519,0.191
2870230,-3733.0,5295.0,1313.0,0.791,0.242,0.527,0.194
2870246,-4065.0,4767.0,1343.0,0.794,0.212,0.534,0.198
2870262,-4253.0,4387.0,1369.0,0.796,0.182,0.542,0.201
2870278,-4721.0,3909.0,1469.0,0.797,0.152,0.548,0.204
2870304,-5031.0,3751.0,1439.0,0.797,0.123,0.554,0.207
2870320,-5243.0,3411.0,1575.0,0.796,0.093,0.559,0.211
2870337,-4985.0,3091.0,1487.0,0.795,0.065,0.564,0.214
2870354,-4971.0,2843.0,1409.0,0.794,0.037,0.567,0.217
2870371,-4847.0,2429.0,1353.0,0.791,0.009,0.571,0.22
2870388,-5047.0,2117.0,1165.0,0.787,-0.018,0.575,0.223
2870405,-5517.0,1485.0,1217.0,0.782,-0.045,0.579,0.226
2870422,-5763.0,1313.0,1107.0,0.777,-0.07,0.582,0.228
2870439,-5995.0,873.0,949.0,0.772,-0.095,0.585,0.231
2870456,-6159.0,531.0,913.0,0.766,-0.118,0.587,0.234
2870474,-6141.0,417.0,831.0,0.76,-0.14,0.589,0.236
2870490,-6461.0,271.0,1005.0,0.754,-0.162,0.589,0.239
2870506,-6417.0,-91.0,899.0,0.749,-0.183,0.589,0.242
2870533,-6363.0,-251.0,739.0,0.744,-0.203,0.589,0.245
2870549,-6257.0,-475.0,625.0,0.738,-0.222,0.588,0.247
2870565,-6467.0,-501.0,565.0,0.732,-0.24,0.587,0.25
2870581,-6655.0,-571.0,465.0,0.726,-0.258,0.586,0.253
2870597,-6861.0,-821.0,525.0,0.72,-0.275,0.584,0.256
2870613,-6735.0,-1183.0,219.0,0.713,-0.291,0.582,0.259
2870639,-6845.0,-1431.0,87.0,0.707,-0.307,0.581,0.261
2870656,-7083.0,-1381.0,1.0,0.7,-0.323,0.58,0.264
2870673,-7255.0,-1305.0,-187.0,0.694,-0.337,0.578,0.266
2870690,-7581.0,-1603.0,-99.0,0.687,-0.352,0.576,0.269
2870707,-7675.0,-1987.0,-237.0,0.681,-0.366,0.574,0.271
2870724,-7267.0,-2637.0,-743.0,0.675,-0.38,0.571,0.273
2870741,-7681.0,-2543.0,-439.0,0.669,-0.393,0.568,0.274
2870758,-7401.0,-1837.0,-863.0,0.663,-0.406,0.565,0.276
2870775,-7787.0,-2475.0,-613.0,0.657,-0.418,0.562,0.278
2870791,-7707.0,-2833.0,-781.0,0.651,-0.43,0.559,0.28
2870808,-7717.0,-2569.0,-851.0,0.646,-0.44,0.556,0.282
2870825,-7719.0,-2703.0,-893.0,0.64,-0.45,0.554,0.284
2870851,-7519.0,-2819.0,-1027.0,0.635,-0.46,0.551,0.285
2870867,-7253.0,-2297.0,-1297.0,0.63,-0.469,0.549,0.285
2870883,-7401.0,-2317.0,-1189.0,0.625,-0.478,0.547,0.286
2870900,-7297.0,-2365.0,-1313.0,0.62,-0.486,0.545,0.287
2870917,-7231.0,-2455.0,-1403.0,0.616,-0.493,0.543,0.288
2870934,-7027.0,-2177.0,-1571.0,0.612,-0.499,0.542,0.288
2870951,-7125.0,-2105.0,-1503.0,0.608,-0.505,0.54,0.288
2870968,-7031.0,-2625.0,-1667.0,0.605,-0.51,0.54,0.288
2870984,-7201.0,-2347.0,-1691.0,0.601,-0.515,0.539,0.287
2871010,-7463.0,-2323.0,-1731.0,0.599,-0.519,0.539,0.287
2871026,-7557.0,-2583.0,-1717.0,0.596,-0.522,0.539,0.286
2871042,-7681.0,-2661.0,-1721.0,0.595,-0.525,0.538,0.285
2871059,-7741.0,-2967.0,-1789.0,0.594,-0.527,0.538,0.284
2871075,-7859.0,-2855.0,-1893.0,0.593,-0.528,0.538,0.283
2871091,-8041.0,-3001.0,-1889.0,0.593,-0.529,0.538,0.281
2871117,-8059.0,-2929.0,-1763.0,0.594,-0.53,0.537,0.279
2871133,-8037.0,-3021.0,-1743.0,0.595,-0.53,0.536,0.278
2871149,-7897.0,-3055.0,-1719.0,0.596,-0.53,0.536,0.276
2871165,-7877.0,-2903.0,-1539.0,0.598,-0.531,0.535,0.274
2871181,-7867.0,-2963.0,-1409.0,0.6,-0.531,0.533,0.272
2871197,-7711.0,-3243.0,-1399.0,0.602,-0.531,0.532,0.269
2871223,-7669.0,-3319.0,-1369.0,0.604,-0.531,0.531,0.267
2871240,-7743.0,-3107.0,-1199.0,0.606,-0.531,0.53,0.264
2871257,-7585.0,-3271.0,-1191.0,0.608,-0.531,0.529,0.261
2871274,-7493.0,-3149.0,-1219.0,0.61,-0.531,0.528,0.258
2871290,-7483.0,-3245.0,-1139.0,0.612,-0.531,0.527,0.255
2871306,-7497.0,-3387.0,-1107.0,0.614,-0.531,0.527,0.253
2871323,-7499.0,-3423.0,-1071.0,0.615,-0.532,0.526,0.25
2871340,-7477.0,-3445.0,-1071.0,0.616,-0.532,0.525,0.248
2871357,-7485.0,-3571.0,-979.0,0.618,-0.532,0.524,0.246
2871374,-7313.0,-3631.0,-1065.0,0.619,-0.532,0.523,0.244
2871400,-7463.0,-3623.0,-981.0,0.621,-0.533,0.522,0.242
2871416,-7407.0,-3653.0,-1005.0,0.622,-0.533,0.522,0.24
2871432,-7477.0,-3651.0,-977.0,0.623,-0.533,0.521,0.238
2871448,-7379.0,-3671.0,-1011.0,0.624,-0.533,0.52,0.237
2871464,-7403.0,-3683.0,-989.0,0.624,-0.534,0.519,0.237
2871481,-7417.0,-3663.0,-917.0,0.625,-0.535,0.518,0.236
2871497,-7409.0,-3767.0,-967.0,0.625,-0.535,0.517,0.236
2871523,-7463.0,-3581.0,-909.0,0.626,-0.535,0.516,0.235
2871540,-7425.0,-3711.0,-845.0,0.627,-0.535,0.515,0.235
2871557,-7391.0,-3623.0,-873.0,0.627,-0.536,0.514,0.236
2871574,-7347.0,-3649.0,-893.0,0.628,-0.537,0.512,0.236
2871591,-7419.0,-3633.0,-849.0,0.628,-0.537,0.511,0.236
2871608,-7387.0,-3675.0,-859.0,0.628,-0.538,0.51,0.236
2871625,-7373.0,-3581.0,-839.0,0.629,-0.538,0.509,0.236
2871642,-7341.0,-3635.0,-889.0,0.629,-0.539,0.507,0.237
2871658,-7247.0,-3671.0,-858.0,0.629,-0.541,0.506,0.238
2871675,-7320.0,-3576.0,-944.0,0.628,-0.542,0.505,0.238
2871701,-7300.0,-3753.0,-839.0,0.628,-0.542,0.504,0.239
2871717,-7293.0,-3677.0,-923.0,0.627,-0.544,0.504,0.239
2871733,-7519.0,-3729.0,-815.0,0.626,-0.545,0.504,0.239
2871749,-7760.0,-3966.0,-1015.0,0.625,-0.546,0.504,0.239
2871765,-7964.0,-4298.0,-999.0,0.624,-0.548,0.504,0.239
2871781,-8366.0,-4478.0,-1035.0,0.622,-0.549,0.504,0.238
2871807,-8556.0,-4626.0,-1195.0,0.62,-0.552,0.504,0.238
2871824,-9166.0,-4752.0,-1127.0,0.619,-0.554,0.504,0.238
2871840,-9084.0,-5298.0,-1505.0,0.617,-0.557,0.503,0.238
2871856,-9432.0,-5226.0,-1551.0,0.615,-0.559,0.503,0.237
2871873,-9470.0,-5358.0,-1857.0,0.612,-0.563,0.503,0.237
2871890,-9698.0,-5034.0,-1707.0,0.609,-0.567,0.502,0.236
2871906,-9246.0,-5248.0,-1813.0,0.606,-0.571,0.501,0.235
2871923,-9234.0,-4842.0,-1691.0,0.602,-0.576,0.501,0.234
2871940,-9172.0,-4468.0,-1375.0,0.598,-0.581,0.5,0.232
2871957,-8790.0,-4168.0,-1315.0,0.594,-0.586,0.499,0.232
2871984,-8174.0,-4284.0,-1571.0,0.589,-0.591,0.5,0.231
2872000,-8060.0,-4086.0,-1689.0,0.584,-0.597,0.5,0.228
2872016,-8108.0,-3640.0,-1619.0,0.579,-0.603,0.5,0.226
2872032,-7898.0,-3460.0,-1701.0,0.573,-0.608,0.501,0.223
2872048,-7776.0,-3922.0,-1861.0,0.568,-0.614,0.503,0.22
2872064,-7706.0,-4206.0,-2049.0,0.562,-0.619,0.504,0.217
2872090,-7892.0,-3768.0,-2237.0,0.557,-0.624,0.506,0.214
2872106,-8120.0,-3964.0,-2099.0,0.551,-0.628,0.507,0.211
2872122,-7660.0,-4660.0,-2537.0,0.547,-0.631,0.509,0.209
2872139,-7890.0,-4028.0,-2499.0,0.544,-0.633,0.511,0.207
2872156,-7556.0,-4190.0,-2703.0,0.541,-0.634,0.513,0.206
2872173,-7284.0,-4124.0,-2705.0,0.538,-0.635,0.515,0.206
2872189,-6994.0,-4364.0,-2969.0,0.537,-0.635,0.517,0.205
2872206,-7258.0,-3920.0,-2815.0,0.536,-0.634,0.518,0.204
2872232,-6978.0,-4052.0,-2761.0,0.536,-0.633,0.52,0.204
2872248,-6334.0,-4340.0,-3069.0,0.537,-0.631,0.521,0.204
2872265,-6390.0,-3570.0,-2821.0,0.539,-0.628,0.523,0.204
2872281,-5916.0,-3784.0,-2875.0,0.541,-0.625,0.524,0.204
2872297,-5694.0,-4118.0,-2749.0,0.543,-0.622,0.526,0.205
2872313,-5466.0,-3270.0,-2603.0,0.546,-0.617,0.528,0.207
2872329,-5046.0,-3768.0,-2673.0,0.548,-0.612,0.53,0.209
2872355,-4874.0,-3828.0,-2931.0,0.55,-0.607,0.533,0.211
2872372,-5318.0,-3640.0,-2575.0,0.552,-0.602,0.537,0.212
2872389,-5548.0,-3890.0,-2625.0,0.554,-0.597,0.54,0.212
2872405,-6036.0,-2394.0,-2447.0,0.556,-0.592,0.544,0.213
2872422,-5746.0,-2530.0,-2415.0,0.557,-0.585,0.548,0.216
2872439,-5434.0,-3970.0,-2591.0,0.559,-0.579,0.551,0.219
2872456,-5956.0,-3390.0,-2421.0,0.562,-0.573,0.555,0.221
2872472,-6346.0,-3268.0,-2273.0,0.565,-0.566,0.557,0.223
2872489,-6248.0,-2994.0,-2257.0,0.569,-0.559,0.559,0.226
2872506,-6058.0,-1920.0,-1903.0,0.573,-0.552,0.56,0.232
2872532,-5334.0,-1876.0,-1331.0,0.577,-0.543,0.561,0.24
2872548,-3768.0,-3978.0,-2107.0,0.581,-0.536,0.56,0.249
2872564,-4132.0,-3476.0,-1485.0,0.586,-0.528,0.561,0.252
2872580,-3952.0,-452.0,-761.0,0.591,-0.52,0.56,0.256
2872597,-3168.0,-2122.0,-989.0,0.595,-0.515,0.559,0.261
2872613,-2752.0,-3420.0,-1137.0,0.598,-0.511,0.558,0.263
2872639,-2748.0,-2246.0,-691.0,0.602,-0.508,0.557,0.263
2872655,-3114.0,-1806.0,-357.0,0.605,-0.507,0.555,0.262
2872672,-3502.0,-1942.0,-283.0,0.607,-0.507,0.554,0.261
2872689,-3284.0,-1098.0,-383.0,0.608,-0.508,0.552,0.26
2872705,-3654.0,-4400.0,-695.0,0.608,-0.51,0.551,0.258
2872721,-4552.0,-1280.0,-203.0,0.608,-0.513,0.55,0.254
2872738,-4562.0,-1628.0,-473.0,0.607,-0.517,0.548,0.253
2872755,-4150.0,-4598.0,-1329.0,0.605,-0.52,0.548,0.251
2872772,-5464.0,-3014.0,-643.0,0.605,-0.524,0.547,0.246
2872798,-6076.0,-1900.0,-599.0,0.603,-0.528,0.546,0.243
2872814,-5366.0,-3454.0,-837.0,0.601,-0.532,0.545,0.241
2872830,-5102.0,-5422.0,-1751.0,0.6,-0.536,0.545,0.236
2872846,-6730.0,-3264.0,-1471.0,0.599,-0.541,0.545,0.229
2872862,-7848.0,-2606.0,-1249.0,0.597,-0.545,0.544,0.224
2872878,-7814.0,-3364.0,-1551.0,0.596,-0.548,0.544,0.222
2872904,-7912.0,-4884.0,-1883.0,0.594,-0.551,0.543,0.218
2872921,-9074.0,-3682.0,-1843.0,0.594,-0.554,0.543,0.214
2872938,-9340.0,-3700.0,-1689.0,0.594,-0.556,0.542,0.21
2872955,-8984.0,-3288.0,-1883.0,0.594,-0.558,0.541,0.207
2872972,-8828.0,-3934.0,-1825.0,0.595,-0.56,0.539,0.203
2872989,-8812.0,-3546.0,-1469.0,0.596,-0.561,0.538,0.199
2873005,-8098.0,-3180.0,-1641.0,0.598,-0.563,0.536,0.196
2873021,-8134.0,-3410.0,-1275.0,0.599,-0.564,0.535,0.194
2873038,-7464.0,-4274.0,-1565.0,0.6,-0.565,0.533,0.192
2873055,-7612.0,-3492.0,-1191.0,0.602,-0.566,0.531,0.189
2873081,-7126.0,-3348.0,-1109.0,0.603,-0.567,0.529,0.188
2873097,-6674.0,-3570.0,-1117.0,0.604,-0.567,0.528,0.187
2873113,-6498.0,-4340.0,-1259.0,0.604,-0.569,0.526,0.186
2873130,-6814.0,-3180.0,-1163.0,0.605,-0.57,0.524,0.185
2873147,-6522.0,-3694.0,-1317.0,0.605,-0.571,0.523,0.186
2873163,-6358.0,-4210.0,-1585.0,0.605,-0.573,0.522,0.185
2873179,-6778.0,-3640.0,-1619.0,0.604,-0.575,0.521,0.184
2873205,-7154.0,-3572.0,-1595.0,0.603,-0.576,0.52,0.184
2873222,-6806.0,-3566.0,-1619.0,0.602,-0.578,0.519,0.185
2873238,-6700.0,-3688.0,-1695.0,0.6,-0.58,0.518,0.186
2873255,-7024.0,-3626.0,-1517.0,0.599,-0.582,0.517,0.188
2873272,-6814.0,-4744.0,-1749.0,0.597,-0.584,0.516,0.189
2873288,-7460.0,-3348.0,-1687.0,0.596,-0.586,0.515,0.19
2873305,-7486.0,-4750.0,-2009.0,0.596,-0.588,0.513,0.191
2873322,-8262.0,-4086.0,-2311.0,0.595,-0.59,0.512,0.192
2873339,-8888.0,-4840.0,-2605.0,0.593,-0.592,0.511,0.193
2873365,-8976.0,-6772.0,-3421.0,0.592,-0.594,0.51,0.192
2873381,-10256.0,-6492.0,-3721.0,0.59,-0.598,0.508,0.189
2873397,-11136.0,-7954.0,-4131.0,0.589,-0.602,0.507,0.184
2873413,-12204.0,-7336.0,-4207.0,0.588,-0.606,0.504,0.18
2873429,-11782.0,-8912.0,-4459.0,0.587,-0.61,0.503,0.176
2873445,-11648.0,-8896.0,-4367.0,0.585,-0.614,0.501,0.172
2873471,-11802.0,-8732.0,-3901.0,0.584,-0.617,0.5,0.169
2873488,-11104.0,-8266.0,-3729.0,0.583,-0.619,0.499,0.166
2873505,-10478.0,-7298.0,-3363.0,0.582,-0.621,0.499,0.164
2873522,-9480.0,-6646.0,-3293.0,0.581,-0.621,0.5,0.162
2873538,-9372.0,-5624.0,-2737.0,0.58,-0.622,0.502,0.16
2873555,-8672.0,-5218.0,-2723.0,0.579,-0.622,0.503,0.159
2873572,-8166.0,-5140.0,-2543.0,0.578,-0.621,0.505,0.158
2873588,-7992.0,-4480.0,-2271.0,0.577,-0.621,0.507,0.158
2873605,-7494.0,-4556.0,-2325.0,0.576,-0.62,0.509,0.159
2873622,-7580.0,-4222.0,-2017.0,0.576,-0.618,0.51,0.161
2873648,-7174.0,-4164.0,-2181.0,0.576,-0.615,0.513,0.164
2873664,-7174.0,-4014.0,-2019.0,0.577,-0.612,0.514,0.167
2873680,-6724.0,-4198.0,-2353.0,0.578,-0.609,0.516,0.171
2873696,-6850.0,-4472.0,-2125.0,0.58,-0.604,0.518,0.175
2873712,-7052.0,-3498.0,-1793.0,0.583,-0.598,0.52,0.179
2873728,-6402.0,-4374.0,-1879.0,0.589,-0.589,0.522,0.184
2873754,-5698.0,-3552.0,-1919.0,0.595,-0.58,0.523,0.189
2873771,-5842.0,-2932.0,-1919.0,0.601,-0.57,0.525,0.194
2873788,-5702.0,-6040.0,-2489.0,0.607,-0.56,0.528,0.198
2873805,-6676.0,-4598.0,-2635.0,0.614,-0.551,0.53,0.198
2873822,-7844.0,-2522.0,-1965.0,0.62,-0.538,0.533,0.203
2873838,-6774.0,-2566.0,-1919.0,0.626,-0.524,0.538,0.212
2873855,-5346.0,-4282.0,-1807.0,0.63,-0.508,0.543,0.223
2873872,-4044.0,-1210.0,-951.0,0.635,-0.49,0.549,0.234
2873888,-3614.0,-1264.0,-353.0,0.638,-0.474,0.556,0.244
2873905,-3856.0,-3278.0,-125.0,0.638,-0.462,0.561,0.254
2873922,-3186.0,-1114.0,-43.0,0.638,-0.45,0.566,0.262
2873949,-3514.0,-2078.0,71.0,0.638,-0.439,0.571,0.271
2873965,-3178.0,-2172.0,-31.0,0.638,-0.428,0.577,0.279
2873981,-3056.0,-2018.0,17.0,0.638,-0.416,0.582,0.285
2873997,-3078.0,-1610.0,331.0,0.637,-0.406,0.588,0.289
2874013,-3140.0,-852.0,221.0,0.636,-0.399,0.593,0.292
2874029,-3518.0,-900.0,467.0,0.635,-0.395,0.595,0.293
2874055,-3430.0,-1182.0,143.0,0.634,-0.396,0.596,0.294
2874071,-3508.0,-52.0,19.0,0.633,-0.399,0.595,0.293
2874088,-3892.0,-1286.0,-159.0,0.631,-0.405,0.593,0.293
2874105,-4308.0,-938.0,7.0,0.629,-0.412,0.591,0.291
2874121,-4298.0,-2196.0,-429.0,0.627,-0.421,0.589,0.289
2874138,-5552.0,-1858.0,263.0,0.625,-0.43,0.585,0.285
2874155,-6014.0,-2212.0,-11.0,0.625,-0.44,0.581,0.281
2874171,-6068.0,-2010.0,341.0,0.625,-0.449,0.575,0.277
2874188,-5332.0,-2538.0,-225.0,0.626,-0.458,0.57,0.273
2874205,-5594.0,-1488.0,-21.0,0.627,-0.467,0.564,0.268
2874231,-6366.0,-2668.0,-169.0,0.628,-0.476,0.557,0.262
2874247,-6560.0,-2436.0,-427.0,0.628,-0.486,0.552,0.257
2874263,-6908.0,-1056.0,-75.0,0.628,-0.493,0.547,0.252
2874279,-6244.0,-2444.0,-331.0,0.627,-0.501,0.542,0.25
2874295,-6778.0,-4408.0,-319.0,0.627,-0.509,0.537,0.244
2874311,-7570.0,-1832.0,-379.0,0.626,-0.517,0.533,0.239
2874337,-7964.0,-2894.0,-309.0,0.625,-0.523,0.529,0.235
2874354,-7290.0,-4488.0,-1215.0,0.624,-0.53,0.525,0.231
2874371,-8616.0,-2900.0,-809.0,0.623,-0.536,0.522,0.227
2874388,-8742.0,-4244.0,-1129.0,0.622,-0.542,0.519,0.224
2874405,-8874.0,-3380.0,-989.0,0.621,-0.547,0.515,0.223
2874421,-8270.0,-4516.0,-1385.0,0.62,-0.551,0.512,0.221
2874438,-8198.0,-4900.0,-1607.0,0.62,-0.556,0.509,0.22
2874454,-8652.0,-4006.0,-1335.0,0.619,-0.56,0.506,0.218
2874471,-8206.0,-3768.0,-1281.0,0.619,-0.564,0.502,0.217
2874488,-7418.0,-4628.0,-1295.0,0.619,-0.567,0.499,0.217
2874515,-7364.0,-3586.0,-1079.0,0.619,-0.57,0.495,0.216
2874531,-7156.0,-4166.0,-1209.0,0.618,-0.574,0.492,0.216
2874547,-7538.0,-3776.0,-1033.0,0.618,-0.577,0.489,0.215
2874563,-7026.0,-3880.0,-1137.0,0.618,-0.58,0.486,0.215
2874579,-6716.0,-3842.0,-1067.0,0.618,-0.582,0.483,0.214
2874595,-6622.0,-4356.0,-1191.0,0.618,-0.585,0.48,0.214
2874621,-6900.0,-3996.0,-1109.0,0.618,-0.587,0.477,0.213
2874638,-6988.0,-3856.0,-1031.0,0.618,-0.589,0.475,0.213
2874655,-6716.0,-4240.0,-1091.0,0.618,-0.591,0.473,0.214
2874671,-6580.0,-3818.0,-1109.0,0.617,-0.593,0.47,0.215
2874688,-6590.0,-3910.0,-1173.0,0.617,-0.594,0.468,0.216
2874704,-6852.0,-3888.0,-1247.0,0.617,-0.596,0.466,0.217
2874721,-7034.0,-4688.0,-1493.0,0.617,-0.597,0.465,0.217
2874738,-7584.0,-4028.0,-1627.0,0.617,-0.598,0.463,0.217
2874755,-8040.0,-5516.0,-2157.0,0.617,-0.6,0.462,0.216
2874771,-9254.0,-5670.0,-2201.0,0.616,-0.602,0.46,0.215
2874789,-10240.0,-6892.0,-2467.0,0.616,-0.604,0.459,0.214
2874815,-10704.0,-7614.0,-2869.0,0.616,-0.605,0.459,0.213
2874831,-11172.0,-8588.0,-2853.0,0.616,-0.606,0.458,0.211
2874847,-11488.0,-8686.0,-2763.0,0.616,-0.607,0.458,0.209
2874863,-11542.0,-8672.0,-2659.0,0.616,-0.607,0.457,0.207
2874879,-11540.0,-8346.0,-2027.0,0.616,-0.607,0.457,0.207
2874895,-10558.0,-8190.0,-1851.0,0.617,-0.606,0.458,0.207
2874921,-9728.0,-7698.0,-1637.0,0.617,-0.605,0.459,0.207
2874938,-8926.0,-7240.0,-1539.0,0.617,-0.604,0.461,0.206
2874954,-8444.0,-6284.0,-1539.0,0.617,-0.603,0.463,0.204
2874971,-8514.0,-5890.0,-1273.0,0.616,-0.601,0.467,0.202
2874988,-8232.0,-5854.0,-1371.0,0.614,-0.601,0.47,0.201
2875004,-8512.0,-5462.0,-1341.0,0.612,-0.6,0.474,0.2
2875021,-8694.0,-5774.0,-1389.0,0.611,-0.599,0.478,0.2
2875038,-8190.0,-5706.0,-1593.0,0.609,-0.597,0.482,0.2
2875064,-8210.0,-5472.0,-1463.0,0.608,-0.596,0.485,0.201
2875081,-7832.0,-5090.0,-1795.0,0.606,-0.594,0.488,0.202
2875097,-7790.0,-4920.0,-1801.0,0.605,-0.594,0.491,0.203
2875113,-7360.0,-4916.0,-2007.0,0.604,-0.593,0.492,0.203
2875129,-6994.0,-3802.0,-2219.0,0.602,-0.594,0.494,0.203
2875145,-7712.0,-3822.0,-1663.0,0.601,-0.594,0.495,0.203
2875161,-7376.0,-3486.0,-1563.0,0.6,-0.593,0.495,0.204
2875187,-6838.0,-3298.0,-1701.0,0.6,-0.592,0.496,0.207
2875204,-6560.0,-4024.0,-1609.0,0.6,-0.591,0.496,0.209
2875221,-6624.0,-3278.0,-1537.0,0.601,-0.59,0.496,0.212
2875238,-6676.0,-2006.0,-1281.0,0.603,-0.587,0.495,0.215
2875254,-6346.0,-3004.0,-1331.0,0.604,-0.585,0.494,0.221
2875272,-5810.0,-4200.0,-1467.0,0.607,-0.582,0.492,0.226
2875288,-6128.0,-3862.0,-1133.0,0.612,-0.578,0.489,0.229
2875304,-6188.0,-2534.0,-961.0,0.618,-0.573,0.485,0.232
2875321,-5798.0,-2926.0,-1255.0,0.625,-0.568,0.479,0.237
2875347,-6020.0,-1786.0,-1057.0,0.633,-0.564,0.472,0.242
2875363,-5110.0,-1626.0,-1579.0,0.638,-0.56,0.465,0.251
2875380,-5100.0,-3208.0,-1617.0,0.642,-0.557,0.458,0.26
2875396,-5556.0,-3870.0,-1493.0,0.646,-0.554,0.45,0.27
2875412,-5740.0,-1676.0,-1113.0,0.649,-0.55,0.444,0.28
2875428,-5352.0,-3760.0,-1399.0,0.649,-0.548,0.439,0.293
2875444,-5180.0,-2392.0,-671.0,0.649,-0.544,0.435,0.306
2875470,-4768.0,-2852.0,-573.0,0.647,-0.54,0.432,0.32
2875487,-4264.0,-3262.0,-335.0,0.644,-0.537,0.43,0.334
2875504,-4016.0,-2344.0,395.0,0.642,-0.534,0.429,0.345
2875521,-3144.0,-2312.0,337.0,0.638,-0.532,0.428,0.355
2875537,-2516.0,-3554.0,541.0,0.635,-0.531,0.428,0.361
2875554,-2122.0,-3400.0,427.0,0.633,-0.531,0.429,0.364
2875571,-2432.0,-1834.0,819.0,0.632,-0.533,0.43,0.363
2875587,-2724.0,-1834.0,771.0,0.629,-0.537,0.431,0.362
2875604,-3024.0,-214.0,353.0,0.626,-0.542,0.431,0.359
2875621,-2800.0,-2726.0,-183.0,0.62,-0.55,0.431,0.358
2875647,-3986.0,-3422.0,53.0,0.615,-0.557,0.432,0.353
2875663,-4290.0,-1428.0,-241.0,0.61,-0.565,0.433,0.348
2875680,-4480.0,-3168.0,193.0,0.604,-0.573,0.433,0.344
2875696,-3544.0,-4506.0,-919.0,0.6,-0.58,0.434,0.339
2875712,-5642.0,-3512.0,-81.0,0.597,-0.587,0.435,0.33
2875728,-6166.0,-3458.0,-281.0,0.595,-0.593,0.436,0.324
2875754,-6280.0,-4404.0,-261.0,0.595,-0.597,0.435,0.316
2875771,-6082.0,-4678.0,-1085.0,0.596,-0.6,0.436,0.308
2875787,-7280.0,-4044.0,-513.0,0.599,-0.601,0.436,0.3
2875804,-7628.0,-3560.0,-359.0,0.602,-0.602,0.435,0.294
2875821,-7002.0,-3300.0,-621.0,0.606,-0.601,0.433,0.289
2875837,-6934.0,-5316.0,-859.0,0.61,-0.601,0.433,0.283
2875854,-7562.0,-4724.0,-587.0,0.615,-0.599,0.432,0.276
2875871,-8106.0,-3272.0,-429.0,0.62,-0.597,0.431,0.27
2875888,-8190.0,-3320.0,-195.0,0.625,-0.595,0.43,0.267
2875904,-7854.0,-4844.0,-241.0,0.629,-0.592,0.429,0.264
2875931,-7810.0,-3822.0,-211.0,0.633,-0.589,0.429,0.262
2875947,-7954.0,-4550.0,-79.0,0.636,-0.587,0.428,0.261
2875964,-8096.0,-3482.0,117.0,0.639,-0.584,0.427,0.26
2875980,-8010.0,-4706.0,-133.0,0.642,-0.583,0.426,0.259
2875997,-8222.0,-4002.0,35.0,0.644,-0.581,0.425,0.259
2876013,-7652.0,-4230.0,-409.0,0.646,-0.579,0.424,0.26
2876029,-8012.0,-4304.0,-137.0,0.647,-0.579,0.423,0.26
2876055,-8178.0,-3478.0,71.0,0.648,-0.578,0.421,0.262
2876071,-7572.0,-4102.0,-69.0,0.648,-0.578,0.419,0.265
2876088,-7418.0,-4018.0,-91.0,0.647,-0.578,0.418,0.268
2876104,-7352.0,-4194.0,87.0,0.647,-0.579,0.416,0.271
2876120,-7220.0,-3924.0,49.0,0.646,-0.58,0.414,0.274
2876136,-7150.0,-3984.0,153.0,0.645,-0.58,0.413,0.277
2876152,-7156.0,-3606.0,57.0,0.643,-0.581,0.412,0.281
2876179,-7728.0,-3928.0,317.0,0.642,-0.582,0.411,0.284
2876196,-7940.0,-4374.0,-11.0,0.64,-0.583,0.41,0.287
2876212,-8464.0,-5550.0,-117.0,0.639,-0.583,0.41,0.289
2876228,-9006.0,-5592.0,-489.0,0.638,-0.584,0.41,0.289
2876244,-10594.0,-6042.0,-473.0,0.638,-0.585,0.41,0.287
2876260,-11120.0,-7210.0,-997.0,0.638,-0.586,0.411,0.285
2876276,-11240.0,-9448.0,-1415.0,0.639,-0.587,0.411,0.28
2876303,-12046.0,-8052.0,-1379.0,0.639,-0.588,0.412,0.274
2876320,-12526.0,-9788.0,-933.0,0.64,-0.59,0.414,0.268
2876337,-12252.0,-8758.0,-921.0,0.641,-0.59,0.415,0.263
2876354,-11552.0,-8562.0,-623.0,0.641,-0.591,0.416,0.26
2876371,-10730.0,-7682.0,-497.0,0.641,-0.59,0.418,0.257
2876388,-9876.0,-7622.0,-523.0,0.641,-0.589,0.42,0.254
2876405,-9436.0,-6308.0,-381.0,0.642,-0.588,0.424,0.251
2876421,-8820.0,-5508.0,-495.0,0.642,-0.587,0.427,0.248
2876438,-8362.0,-5330.0,-587.0,0.641,-0.586,0.431,0.245
2876457,-8344.0,-4614.0,-401.0,0.64,-0.584,0.436,0.242
2876473,-8046.0,-3640.0,-405.0,0.639,-0.583,0.44,0.24
2876490,-7974.0,-4120.0,-429.0,0.636,-0.583,0.445,0.24
2876506,-8064.0,-3494.0,-125.0,0.633,-0.582,0.45,0.24
2876532,-7842.0,-3540.0,223.0,0.63,-0.581,0.455,0.242
2876548,-7734.0,-3946.0,431.0,0.628,-0.579,0.46,0.245
2876564,-7782.0,-3842.0,735.0,0.628,-0.574,0.464,0.246
2876580,-6766.0,-2930.0,215.0,0.629,-0.568,0.47,0.246
2876596,-6378.0,-2428.0,-151.0,0.63,-0.564,0.475,0.245
2876612,-6482.0,-3704.0,-605.0,0.628,-0.562,0.48,0.243
2876638,-6866.0,-3134.0,-261.0,0.627,-0.559,0.485,0.241
2876655,-7400.0,-2210.0,-539.0,0.627,-0.555,0.491,0.24
2876672,-6646.0,-3724.0,-835.0,0.627,-0.55,0.497,0.239
2876689,-6058.0,-2420.0,-1615.0,0.627,-0.545,0.503,0.237
2876706,-6156.0,-2680.0,-1501.0,0.626,-0.542,0.509,0.236
2876723,-6282.0,-4412.0,-1365.0,0.625,-0.538,0.515,0.235
2876740,-6890.0,-3634.0,-1067.0,0.624,-0.535,0.52,0.233
2876757,-6892.0,-3732.0,-1027.0,0.624,-0.53,0.525,0.233
2876773,-6706.0,-4166.0,-1357.0,0.624,-0.524,0.53,0.234
2876791,-6872.0,-4104.0,-1231.0,0.625,-0.518,0.535,0.233
2876808,-6664.0,-3328.0,-1179.0,0.627,-0.512,0.539,0.235
2876834,-6458.0,-3706.0,-1415.0,0.627,-0.505,0.543,0.237
2876851,-6164.0,-3620.0,-1391.0,0.629,-0.499,0.547,0.239
2876868,-6270.0,-3552.0,-1305.0,0.629,-0.492,0.551,0.242
2876885,-5966.0,-2634.0,-1141.0,0.63,-0.485,0.556,0.244
2876902,-6270.0,-3102.0,-885.0,0.63,-0.478,0.559,0.249
2876919,-5746.0,-1696.0,-723.0,0.631,-0.471,0.561,0.255
2876936,-4806.0,-1344.0,-1113.0,0.63,-0.464,0.564,0.264
2876953,-4686.0,-2140.0,-811.0,0.629,-0.459,0.565,0.274
2876970,-4172.0,-1844.0,-517.0,0.628,-0.454,0.566,0.282
2876987,-3184.0,-590.0,-361.0,0.626,-0.45,0.566,0.29
2877004,-2538.0,-1538.0,-317.0,0.624,-0.449,0.566,0.298
2877021,-2374.0,-3160.0,-591.0,0.623,-0.448,0.565,0.301
2877038,-2362.0,-2206.0,-195.0,0.624,-0.448,0.566,0.3
2877055,-2700.0,-818.0,-255.0,0.624,-0.449,0.566,0.297
2877081,-3184.0,-254.0,-277.0,0.624,-0.452,0.566,0.294
2877098,-3486.0,-234.0,-401.0,0.622,-0.456,0.566,0.291
2877115,-4004.0,-1698.0,-367.0,0.62,-0.462,0.564,0.289
2877131,-3946.0,-1412.0,-707.0,0.618,-0.468,0.563,0.287
2877147,-4984.0,-2714.0,-537.0,0.617,-0.474,0.561,0.283
2877164,-6316.0,-3106.0,-1183.0,0.616,-0.48,0.558,0.28
2877181,-6778.0,-2816.0,-1205.0,0.616,-0.485,0.556,0.276
2877197,-7506.0,-4004.0,-1409.0,0.616,-0.49,0.553,0.273
2877214,-7842.0,-2868.0,-1119.0,0.616,-0.494,0.55,0.271
2877241,-7682.0,-4854.0,-1121.0,0.618,-0.496,0.547,0.269
2877257,-6882.0,-2240.0,-1363.0,0.621,-0.497,0.544,0.266
2877273,-6900.0,-1946.0,-1123.0,0.623,-0.499,0.541,0.265
2877289,-7160.0,-2560.0,-853.0,0.623,-0.502,0.539,0.263
2877306,-7304.0,-3154.0,-511.0,0.624,-0.504,0.536,0.261
2877323,-7530.0,-3528.0,-451.0,0.626,-0.506,0.534,0.259
2877339,-7784.0,-1824.0,-573.0,0.629,-0.506,0.531,0.257
2877366,-7600.0,-3568.0,-551.0,0.631,-0.507,0.529,0.254
2877383,-8068.0,-2724.0,-445.0,0.633,-0.508,0.527,0.252
2877399,-7980.0,-2324.0,-419.0,0.634,-0.508,0.526,0.25
2877415,-7710.0,-3606.0,-685.0,0.635,-0.509,0.525,0.249
2877431,-8152.0,-3546.0,-637.0,0.637,-0.51,0.524,0.246
2877447,-8092.0,-1916.0,-665.0,0.637,-0.51,0.523,0.245
2877463,-8030.0,-2924.0,-491.0,0.638,-0.511,0.522,0.245
2877489,-7770.0,-3306.0,-587.0,0.637,-0.512,0.521,0.245
2877506,-8070.0,-2538.0,-403.0,0.637,-0.513,0.52,0.247
2877523,-8064.0,-2970.0,-401.0,0.636,-0.514,0.519,0.249
2877539,-7808.0,-2902.0,-515.0,0.635,-0.515,0.518,0.252
2877556,-7986.0,-3538.0,-307.0,0.634,-0.516,0.516,0.254
2877573,-8074.0,-2666.0,-545.0,0.634,-0.517,0.515,0.258
2877590,-8174.0,-3182.0,-685.0,0.633,-0.517,0.513,0.261
2877606,-8218.0,-2784.0,-605.0,0.632,-0.518,0.512,0.266
2877623,-7520.0,-3622.0,-937.0,0.631,-0.518,0.51,0.27
2877639,-6858.0,-2938.0,-1665.0,0.63,-0.519,0.51,0.272
2877666,-8348.0,-2032.0,-871.0,0.629,-0.519,0.509,0.274
2877683,-8964.0,-2496.0,-735.0,0.628,-0.521,0.506,0.279
2877700,-9338.0,-3356.0,-669.0,0.628,-0.521,0.503,0.284
2877717,-9688.0,-3240.0,-975.0,0.629,-0.522,0.498,0.289
2877734,-10676.0,-3774.0,-519.0,0.63,-0.523,0.493,0.294
2877751,-10900.0,-4272.0,-687.0,0.631,-0.524,0.488,0.298
2877768,-12060.0,-4788.0,-405.0,0.633,-0.527,0.481,0.301
2877785,-12220.0,-4844.0,-639.0,0.634,-0.529,0.474,0.305
2877802,-12528.0,-5742.0,-219.0,0.635,-0.532,0.467,0.308
2877819,-11900.0,-6054.0,-265.0,0.636,-0.536,0.46,0.31
2877836,-11910.0,-5762.0,3.0,0.636,-0.541,0.454,0.311
2877853,-11574.0,-5528.0,53.0,0.634,-0.548,0.448,0.311
2877870,-11230.0,-5682.0,213.0,0.63,-0.556,0.444,0.311
2877887,-10862.0,-5672.0,219.0,0.626,-0.564,0.44,0.31
2877913,-10818.0,-5250.0,269.0,0.62,-0.573,0.437,0.308
2877930,-10948.0,-4972.0,71.0,0.613,-0.583,0.436,0.307
2877947,-11008.0,-4960.0,143.0,0.606,-0.591,0.435,0.307
2877963,-10314.0,-4880.0,-225.0,0.599,-0.598,0.435,0.306
2877979,-9598.0,-4890.0,-587.0,0.593,-0.605,0.436,0.304
2877995,-9200.0,-4238.0,-959.0,0.587,-0.612,0.436,0.301
2878011,-8956.0,-3816.0,-1249.0,0.581,-0.619,0.437,0.298
2878037,-9108.0,-3684.0,-1131.0,0.575,-0.624,0.438,0.295
2878054,-8360.0,-3402.0,-1353.0,0.571,-0.628,0.439,0.294
2878071,-7716.0,-3422.0,-1541.0,0.566,-0.631,0.441,0.294
2878088,-7056.0,-3374.0,-1779.0,0.563,-0.632,0.444,0.293
2878105,-6962.0,-3060.0,-1885.0,0.56,-0.633,0.447,0.293
2878121,-7448.0,-2880.0,-1547.0,0.557,-0.634,0.45,0.292
2878138,-7180.0,-2786.0,-1725.0,0.555,-0.633,0.452,0.294
2878155,-6782.0,-2600.0,-1721.0,0.555,-0.63,0.455,0.297
2878172,-6250.0,-3152.0,-1915.0,0.554,-0.626,0.459,0.301
2878189,-6202.0,-1760.0,-2071.0,0.555,-0.622,0.462,0.305
2878205,-6140.0,-3244.0,-2419.0,0.554,-0.618,0.464,0.309
2878231,-6198.0,-2720.0,-2389.0,0.555,-0.615,0.466,0.311
2878247,-7122.0,-1622.0,-2215.0,0.555,-0.611,0.468,0.318
2878263,-7210.0,-2862.0,-1851.0,0.555,-0.607,0.467,0.325
2878279,-6850.0,-3228.0,-2135.0,0.557,-0.601,0.466,0.334
2878295,-6840.0,-2624.0,-2131.0,0.559,-0.594,0.465,0.345
2878311,-6476.0,-2558.0,-1695.0,0.561,-0.586,0.464,0.356
2878337,-5862.0,-3246.0,-1599.0,0.562,-0.578,0.463,0.368
2878354,-5768.0,-2830.0,-909.0,0.565,-0.57,0.462,0.378
2878370,-4872.0,-1708.0,-1063.0,0.566,-0.562,0.461,0.388
2878386,-3792.0,-2254.0,-1275.0,0.567,-0.555,0.461,0.397
2878403,-4204.0,-2206.0,-517.0,0.568,-0.547,0.462,0.405
2878420,-3650.0,814.0,-381.0,0.567,-0.541,0.464,0.414
2878437,-2782.0,-2026.0,-579.0,0.564,-0.535,0.465,0.424
2878454,-2646.0,-966.0,-123.0,0.562,-0.531,0.465,0.431
2878471,-2708.0,-3422.0,-111.0,0.561,-0.529,0.466,0.435
2878488,-3144.0,-978.0,-191.0,0.561,-0.528,0.466,0.436
2878515,-3358.0,-974.0,-51.0,0.56,-0.529,0.465,0.435
2878531,-3402.0,-2166.0,-239.0,0.56,-0.533,0.463,0.433
2878548,-3714.0,172.0,33.0,0.56,-0.537,0.461,0.43
2878564,-3322.0,-844.0,81.0,0.559,-0.544,0.458,0.427
2878581,-3686.0,-2356.0,299.0,0.558,-0.55,0.454,0.424
2878597,-3874.0,-1758.0,-437.0,0.558,-0.554,0.453,0.42
2878613,-5248.0,-1542.0,71.0,0.558,-0.561,0.45,0.415
2878639,-5128.0,-3130.0,-43.0,0.559,-0.565,0.446,0.41
2878655,-5050.0,-4826.0,-1213.0,0.563,-0.57,0.444,0.402
2878672,-7026.0,-2600.0,-201.0,0.568,-0.574,0.441,0.392
2878689,-7352.0,-3440.0,-423.0,0.573,-0.577,0.437,0.384
2878705,-7170.0,-1994.0,-301.0,0.578,-0.579,0.434,0.377
2878721,-6268.0,-3926.0,-377.0,0.583,-0.581,0.43,0.371
2878738,-6006.0,-5850.0,-1147.0,0.588,-0.584,0.427,0.362
2878755,-7792.0,-2718.0,-289.0,0.593,-0.586,0.425,0.353
2878772,-8324.0,-3904.0,69.0,0.597,-0.589,0.422,0.345
2878793,-8086.0,-3676.0,185.0,0.601,-0.589,0.419,0.34
2878809,-7372.0,-3824.0,275.0,0.606,-0.589,0.416,0.336
2878825,-6674.0,-4494.0,-215.0,0.61,-0.589,0.414,0.331
2878851,-7124.0,-4402.0,131.0,0.614,-0.59,0.412,0.324
2878868,-7966.0,-3568.0,479.0,0.618,-0.59,0.41,0.319
2878884,-7842.0,-3854.0,265.0,0.621,-0.59,0.408,0.316
2878900,-7832.0,-3880.0,287.0,0.624,-0.59,0.407,0.312
2878917,-7564.0,-4214.0,-61.0,0.626,-0.589,0.405,0.311
2878934,-7560.0,-4214.0,113.0,0.628,-0.589,0.404,0.308
2878951,-7284.0,-3796.0,89.0,0.63,-0.588,0.403,0.307
2878968,-7278.0,-3592.0,431.0,0.631,-0.588,0.402,0.307
2878985,-6872.0,-4414.0,225.0,0.631,-0.588,0.401,0.309
2879002,-6944.0,-3736.0,309.0,0.631,-0.587,0.4,0.31
2879019,-6732.0,-3482.0,249.0,0.631,-0.587,0.4,0.313
2879046,-7002.0,-3638.0,495.0,0.63,-0.586,0.4,0.316
2879062,-7152.0,-2992.0,539.0,0.628,-0.585,0.4,0.321
2879078,-7508.0,-3168.0,517.0,0.626,-0.584,0.399,0.327
2879094,-8124.0,-3370.0,765.0,0.625,-0.582,0.399,0.333
2879110,-8020.0,-3830.0,261.0,0.623,-0.581,0.399,0.339
2879126,-8766.0,-3320.0,269.0,0.622,-0.579,0.399,0.345
2879152,-9574.0,-3384.0,209.0,0.621,-0.577,0.399,0.351
2879169,-10484.0,-3410.0,81.0,0.62,-0.574,0.398,0.356
2879186,-10558.0,-4444.0,-403.0,0.619,-0.572,0.398,0.362
2879203,-10964.0,-5158.0,-693.0,0.62,-0.57,0.397,0.365
2879220,-12540.0,-4498.0,-201.0,0.62,-0.569,0.396,0.368
2879237,-12332.0,-6290.0,-197.0,0.621,-0.568,0.394,0.371
2879254,-12260.0,-5834.0,19.0,0.622,-0.566,0.392,0.373
2879271,-11338.0,-7890.0,-197.0,0.623,-0.565,0.391,0.373
2879288,-11512.0,-6328.0,7.0,0.625,-0.565,0.39,0.371
2879304,-12000.0,-7296.0,551.0,0.626,-0.566,0.389,0.368
2879320,-11266.0,-5784.0,397.0,0.627,-0.568,0.389,0.365
2879346,-10848.0,-5982.0,529.0,0.625,-0.57,0.39,0.363
2879362,-10258.0,-5184.0,439.0,0.622,-0.574,0.392,0.361
2879378,-10290.0,-4826.0,745.0,0.618,-0.577,0.395,0.358
2879394,-9346.0,-4960.0,273.0,0.613,-0.581,0.399,0.356
2879410,-9492.0,-3936.0,533.0,0.609,-0.584,0.405,0.353
2879436,-8898.0,-3958.0,137.0,0.604,-0.586,0.411,0.35
2879453,-8828.0,-2650.0,337.0,0.599,-0.588,0.418,0.347
2879470,-8098.0,-2558.0,-19.0,0.594,-0.59,0.425,0.345
2879487,-7862.0,-2184.0,-53.0,0.589,-0.591,0.431,0.343
2879503,-7710.0,-2398.0,-187.0,0.583,-0.593,0.438,0.342
2879520,-7452.0,-1188.0,-395.0,0.578,-0.594,0.444,0.341
2879537,-7558.0,-2314.0,-437.0,0.572,-0.595,0.45,0.342
2879554,-7386.0,-2564.0,-369.0,0.567,-0.594,0.457,0.342
2879571,-6764.0,-2170.0,-943.0,0.563,-0.593,0.463,0.342
2879587,-6696.0,-2542.0,-1243.0,0.559,-0.592,0.47,0.342
2879613,-6316.0,-3336.0,-1695.0,0.555,-0.592,0.476,0.339
2879629,-8022.0,-1954.0,-787.0,0.551,-0.591,0.483,0.337
2879645,-8022.0,-1934.0,-987.0,0.549,-0.587,0.49,0.337
2879661,-7294.0,-2356.0,-1459.0,0.546,-0.583,0.498,0.338
2879677,-6756.0,-2624.0,-1165.0,0.544,-0.578,0.505,0.339
2879693,-6372.0,-2246.0,-1869.0,0.542,-0.573,0.512,0.339
2879719,-6676.0,-1838.0,-1923.0,0.54,-0.569,0.52,0.337
2879736,-7176.0,-1838.0,-2075.0,0.539,-0.566,0.527,0.335
2879752,-7184.0,-1778.0,-2149.0,0.537,-0.563,0.533,0.333
2879769,-7776.0,-2706.0,-2555.0,0.536,-0.559,0.54,0.33
2879786,-7930.0,-1900.0,-2577.0,0.537,-0.554,0.545,0.327
2879802,-8300.0,-1556.0,-2683.0,0.537,-0.55,0.551,0.326
2879819,-8944.0,-1852.0,-2631.0,0.538,-0.545,0.555,0.326
2879836,-9314.0,-3018.0,-2799.0,0.54,-0.539,0.558,0.328
2879853,-9698.0,-2216.0,-2735.0,0.544,-0.531,0.559,0.33
2879870,-8906.0,-2608.0,-2209.0,0.552,-0.521,0.56,0.333
2879897,-6984.0,550.0,-2145.0,0.559,-0.509,0.56,0.339
2879913,-5828.0,354.0,-1787.0,0.565,-0.5,0.557,0.347
2879929,-5032.0,-3228.0,-1727.0,0.57,-0.492,0.555,0.354
2879946,-4946.0,-1584.0,-1241.0,0.578,-0.482,0.553,0.358
2879962,-4784.0,60.0,-739.0,0.584,-0.473,0.551,0.362
2879979,-4188.0,-66.0,-561.0,0.59,-0.466,0.548,0.367
2879995,-3178.0,172.0,-791.0,0.593,-0.46,0.544,0.374
2880021,-3206.0,-390.0,-725.0,0.595,-0.456,0.543,0.38
2880038,-3228.0,-2590.0,-437.0,0.595,-0.453,0.542,0.383
2880055,-3202.0,-418.0,-47.0,0.596,-0.45,0.543,0.384
2880071,-3150.0,-184.0,9.0,0.596,-0.451,0.543,0.383
2880087,-3048.0,-1790.0,-43.0,0.597,-0.453,0.542,0.38
2880104,-2996.0,-1104.0,319.0,0.598,-0.456,0.542,0.374
2880120,-2478.0,336.0,389.0,0.599,-0.462,0.541,0.368
2880136,-2498.0,-944.0,381.0,0.599,-0.469,0.539,0.361
2880152,-3686.0,-2590.0,-159.0,0.598,-0.478,0.538,0.353
2880179,-3918.0,1252.0,213.0,0.597,-0.489,0.536,0.343
2880195,-4754.0,652.0,-159.0,0.593,-0.499,0.534,0.339
2880211,-5150.0,-5034.0,-1185.0,0.587,-0.508,0.533,0.336
2880227,-5980.0,-3758.0,-701.0,0.584,-0.519,0.532,0.326
2880243,-7588.0,-1864.0,-1305.0,0.58,-0.53,0.531,0.319
2880259,-8368.0,-3002.0,-1163.0,0.576,-0.539,0.529,0.314
2880285,-7610.0,-3070.0,-1493.0,0.573,-0.547,0.527,0.309
2880302,-7834.0,-3564.0,-1321.0,0.571,-0.553,0.524,0.305
2880319,-7360.0,-4258.0,-1487.0,0.571,-0.56,0.521,0.298
2880336,-8092.0,-2074.0,-1309.0,0.571,-0.566,0.517,0.292
2880353,-7664.0,-3568.0,-1709.0,0.571,-0.573,0.514,0.287
2880369,-8066.0,-3462.0,-1273.0,0.571,-0.579,0.51,0.281
2880385,-8538.0,-2564.0,-1579.0,0.571,-0.584,0.506,0.276
2880402,-8776.0,-2952.0,-1279.0,0.571,-0.591,0.502,0.271
2880419,-8152.0,-3622.0,-1903.0,0.571,-0.597,0.497,0.268
2880436,-8732.0,-3924.0,-1589.0,0.571,-0.602,0.491,0.264
2880463,-8048.0,-4074.0,-1971.0,0.572,-0.608,0.486,0.26
2880479,-8350.0,-3572.0,-1931.0,0.572,-0.613,0.481,0.256
2880495,-8148.0,-3308.0,-1651.0,0.573,-0.617,0.476,0.253
2880511,-7490.0,-3354.0,-1675.0,0.573,-0.622,0.471,0.252
2880527,-7186.0,-3058.0,-1557.0,0.572,-0.626,0.467,0.252
2880543,-6780.0,-3514.0,-1533.0,0.571,-0.63,0.462,0.252
2880559,-6766.0,-3334.0,-1539.0,0.569,-0.634,0.458,0.253
2880585,-6930.0,-3706.0,-1579.0,0.568,-0.638,0.454,0.252
2880602,-6748.0,-4388.0,-1699.0,0.566,-0.643,0.451,0.251
2880619,-7194.0,-3730.0,-1625.0,0.564,-0.647,0.448,0.251
2880636,-7240.0,-4122.0,-1895.0,0.562,-0.65,0.445,0.25
2880652,-7290.0,-4378.0,-2327.0,0.56,-0.653,0.444,0.251
2880669,-7536.0,-5390.0,-2549.0,0.558,-0.656,0.443,0.25
2880686,-8176.0,-4742.0,-2645.0,0.556,-0.658,0.442,0.251
2880703,-8628.0,-5582.0,-3057.0,0.553,-0.66,0.442,0.252
2880719,-9104.0,-6492.0,-3369.0,0.552,-0.66,0.443,0.253
2880746,-9652.0,-6624.0,-3627.0,0.552,-0.659,0.443,0.254
2880762,-9948.0,-7436.0,-4131.0,0.552,-0.658,0.444,0.255
2880778,-10770.0,-7596.0,-3991.0,0.553,-0.657,0.444,0.255
2880794,-11038.0,-7966.0,-4045.0,0.555,-0.655,0.444,0.256
2880810,-11040.0,-7626.0,-3787.0,0.558,-0.653,0.444,0.256
2880826,-10736.0,-7138.0,-3435.0,0.561,-0.65,0.444,0.256
2880852,-10284.0,-6570.0,-2947.0,0.563,-0.648,0.444,0.257
2880869,-9500.0,-6490.0,-2677.0,0.565,-0.646,0.445,0.257
2880885,-9074.0,-5446.0,-2269.0,0.565,-0.645,0.447,0.256
2880902,-8710.0,-4842.0,-1923.0,0.565,-0.644,0.449,0.254
2880918,-8354.0,-4592.0,-1663.0,0.562,-0.645,0.452,0.253
2880935,-7808.0,-4250.0,-1623.0,0.559,-0.646,0.456,0.251
2880951,-7328.0,-4864.0,-1823.0,0.554,-0.646,0.462,0.248
2880968,-7240.0,-4306.0,-2049.0,0.549,-0.647,0.47,0.242
2880985,-7466.0,-3914.0,-2331.0,0.542,-0.649,0.479,0.235
2881002,-8120.0,-3836.0,-2415.0,0.535,-0.652,0.487,0.227
2881028,-8594.0,-3324.0,-2581.0,0.529,-0.654,0.494,0.221
2881044,-7572.0,-4210.0,-3243.0,0.522,-0.656,0.501,0.215
2881060,-7516.0,-4396.0,-3495.0,0.516,-0.658,0.507,0.21
2881076,-7698.0,-3634.0,-3541.0,0.511,-0.659,0.514,0.204
2881092,-7728.0,-4076.0,-3459.0,0.505,-0.659,0.519,0.201
2881108,-7288.0,-4638.0,-3703.0,0.502,-0.659,0.525,0.198
2881134,-7480.0,-3632.0,-3519.0,0.499,-0.658,0.529,0.194
2881151,-7058.0,-3516.0,-3707.0,0.497,-0.656,0.534,0.192
2881168,-6744.0,-4078.0,-3787.0,0.496,-0.654,0.538,0.19
2881185,-7156.0,-3674.0,-3439.0,0.496,-0.651,0.542,0.189
2881202,-6838.0,-3094.0,-3519.0,0.497,-0.647,0.546,0.189
2881219,-6174.0,-4038.0,-3595.0,0.498,-0.643,0.55,0.189
2881235,-6160.0,-3036.0,-3747.0,0.5,-0.638,0.554,0.189
2881252,-6300.0,-2792.0,-3547.0,0.502,-0.632,0.559,0.19
2881269,-6178.0,-3188.0,-3441.0,0.504,-0.626,0.563,0.192
2881285,-5570.0,-2970.0,-3517.0,0.507,-0.619,0.568,0.195
2881302,-5462.0,-3366.0,-3383.0,0.51,-0.611,0.572,0.198
2881329,-5152.0,-3224.0,-3673.0,0.513,-0.604,0.576,0.2
2881345,-5480.0,-2804.0,-3887.0,0.516,-0.597,0.58,0.203
2881361,-5992.0,-2964.0,-3677.0,0.518,-0.59,0.584,0.206
2881378,-6192.0,-2836.0,-3625.0,0.52,-0.582,0.588,0.212
2881394,-6318.0,-2360.0,-3451.0,0.522,-0.573,0.592,0.219
2881410,-5644.0,-3382.0,-3953.0,0.524,-0.565,0.596,0.226
2881426,-6290.0,-2396.0,-3269.0,0.526,-0.557,0.598,0.234
2881453,-5820.0,-2760.0,-3165.0,0.528,-0.55,0.6,0.242
2881470,-5772.0,-3732.0,-3245.0,0.53,-0.543,0.602,0.25
2881486,-6200.0,-2028.0,-2715.0,0.532,-0.536,0.603,0.257
2881502,-5578.0,-1928.0,-2775.0,0.534,-0.529,0.603,0.267
2881518,-5718.0,-2318.0,-2271.0,0.535,-0.522,0.604,0.276
2881535,-5362.0,-1098.0,-2155.0,0.537,-0.515,0.603,0.287
2881552,-4570.0,-934.0,-1941.0,0.537,-0.51,0.602,0.299
2881569,-3482.0,-1312.0,-1791.0,0.538,-0.505,0.6,0.31
2881586,-2980.0,-1538.0,-1683.0,0.538,-0.501,0.598,0.318
2881603,-2450.0,-1142.0,-1483.0,0.538,-0.5,0.596,0.324
2881630,-2186.0,-570.0,-1433.0,0.538,-0.5,0.594,0.328
2881647,-2506.0,-596.0,-1161.0,0.538,-0.501,0.592,0.33
2881663,-2818.0,-1598.0,-1201.0,0.538,-0.504,0.59,0.33
2881679,-3204.0,-436.0,-1261.0,0.537,-0.508,0.588,0.328
2881695,-4042.0,214.0,-975.0,0.536,-0.514,0.585,0.326
2881711,-3988.0,-352.0,-1559.0,0.534,-0.52,0.581,0.326
2881728,-4316.0,-1806.0,-1439.0,0.532,-0.528,0.577,0.324
2881745,-5524.0,-2136.0,-1401.0,0.53,-0.536,0.573,0.321
2881771,-6030.0,-512.0,-1827.0,0.529,-0.543,0.569,0.319
2881787,-6078.0,-1670.0,-1619.0,0.527,-0.55,0.565,0.318
2881803,-5626.0,-3326.0,-2247.0,0.525,-0.556,0.561,0.317
2881819,-7162.0,-2602.0,-1779.0,0.525,-0.563,0.557,0.313
2881836,-6778.0,-1640.0,-2445.0,0.524,-0.569,0.553,0.309
2881852,-7642.0,-1978.0,-1813.0,0.524,-0.574,0.549,0.307
2881869,-6866.0,-2834.0,-2095.0,0.525,-0.579,0.545,0.304
2881895,-7208.0,-2266.0,-2127.0,0.526,-0.583,0.541,0.301
2881911,-7416.0,-3130.0,-2251.0,0.528,-0.588,0.537,0.295
2881928,-8560.0,-1666.0,-1897.0,0.53,-0.592,0.533,0.292
2881945,-8482.0,-2352.0,-1467.0,0.532,-0.595,0.529,0.29
2881962,-7088.0,-3026.0,-1975.0,0.535,-0.597,0.524,0.289
2881978,-7686.0,-2378.0,-1579.0,0.538,-0.599,0.52,0.287
2881994,-7034.0,-4334.0,-2247.0,0.54,-0.601,0.516,0.284
2882010,-8620.0,-2502.0,-1565.0,0.544,-0.603,0.512,0.28
2882037,-8678.0,-2154.0,-1485.0,0.547,-0.604,0.508,0.279
2882054,-7966.0,-2702.0,-1605.0,0.55,-0.604,0.504,0.28
2882071,-7556.0,-2694.0,-1421.0,0.552,-0.605,0.499,0.282
2882087,-7236.0,-2858.0,-1365.0,0.555,-0.605,0.495,0.284
2882103,-7330.0,-2518.0,-1195.0,0.557,-0.606,0.491,0.286
2882120,-7298.0,-3094.0,-1325.0,0.558,-0.607,0.486,0.288
2882136,-7398.0,-2664.0,-1395.0,0.559,-0.608,0.483,0.29
2882153,-7846.0,-2608.0,-1263.0,0.56,-0.609,0.479,0.293
2882170,-7926.0,-2742.0,-1493.0,0.56,-0.61,0.476,0.296
2882197,-7876.0,-2676.0,-1683.0,0.559,-0.611,0.473,0.3
2882213,-7998.0,-3126.0,-1831.0,0.558,-0.612,0.471,0.305
2882229,-8372.0,-3056.0,-1983.0,0.556,-0.613,0.468,0.309
2882245,-8768.0,-3618.0,-2271.0,0.555,-0.614,0.467,0.312
2882261,-9778.0,-3646.0,-2383.0,0.553,-0.615,0.465,0.315
2882277,-10386.0,-4462.0,-2617.0,0.552,-0.616,0.463,0.319
2882294,-10698.0,-4726.0,-3067.0,0.552,-0.615,0.461,0.322
2882311,-11156.0,-5680.0,-3187.0,0.553,-0.615,0.46,0.324
2882338,-11722.0,-5796.0,-3153.0,0.554,-0.614,0.458,0.325
2882354,-11922.0,-6324.0,-3041.0,0.556,-0.613,0.456,0.326
2882370,-11922.0,-6190.0,-2777.0,0.558,-0.612,0.454,0.327
2882387,-11694.0,-6078.0,-2367.0,0.561,-0.61,0.453,0.328
2882403,-11034.0,-5634.0,-2187.0,0.563,-0.609,0.452,0.329
2882419,-10430.0,-5314.0,-1937.0,0.564,-0.608,0.451,0.33
2882436,-10148.0,-4762.0,-1601.0,0.565,-0.607,0.451,0.33
2882462,-9788.0,-3988.0,-1391.0,0.564,-0.607,0.452,0.329
2882478,-9272.0,-3898.0,-1367.0,0.562,-0.608,0.454,0.329
2882494,-9432.0,-3280.0,-1299.0,0.559,-0.61,0.456,0.327
2882511,-9816.0,-2868.0,-991.0,0.556,-0.612,0.459,0.326
2882528,-9770.0,-2506.0,-785.0,0.552,-0.614,0.461,0.326
2882544,-9546.0,-2356.0,-875.0,0.547,-0.616,0.463,0.326
2882561,-8874.0,-2794.0,-1271.0,0.542,-0.619,0.465,0.326
2882577,-8656.0,-3266.0,-1271.0,0.536,-0.622,0.469,0.325
2882604,-8506.0,-2530.0,-1441.0,0.531,-0.625,0.473,0.323
2882620,-8496.0,-2398.0,-1521.0,0.526,-0.628,0.477,0.32
2882637,-8164.0,-1856.0,-1695.0,0.52,-0.63,0.481,0.318
2882653,-7850.0,-1920.0,-1831.0,0.515,-0.633,0.484,0.316
2882669,-7522.0,-2552.0,-2081.0,0.509,-0.635,0.487,0.315
2882685,-6932.0,-2426.0,-2537.0,0.504,-0.638,0.491,0.314
2882701,-7482.0,-2442.0,-2213.0,0.498,-0.641,0.493,0.312
2882728,-7602.0,-2350.0,-2309.0,0.494,-0.643,0.496,0.312
2882745,-7234.0,-2700.0,-2535.0,0.49,-0.643,0.499,0.312
2882761,-7056.0,-2840.0,-2573.0,0.488,-0.643,0.501,0.312
2882777,-6782.0,-2958.0,-2881.0,0.486,-0.642,0.504,0.312
2882793,-7464.0,-1974.0,-2977.0,0.485,-0.641,0.507,0.312
2882809,-7800.0,-2510.0,-2933.0,0.484,-0.638,0.51,0.314
2882825,-7236.0,-2862.0,-3123.0,0.484,-0.635,0.513,0.315
2882851,-7526.0,-2144.0,-2993.0,0.486,-0.631,0.516,0.316
2882868,-7124.0,-2048.0,-3235.0,0.488,-0.627,0.518,0.318
2882885,-7274.0,-1468.0,-3259.0,0.49,-0.623,0.52,0.32
2882902,-7158.0,-2184.0,-3205.0,0.492,-0.62,0.52,0.321
2882919,-6882.0,-2490.0,-3411.0,0.495,-0.617,0.52,0.321
2882936,-7316.0,-1686.0,-3025.0,0.499,-0.615,0.519,0.322
2882952,-7124.0,-1088.0,-2953.0,0.504,-0.612,0.517,0.324
2882969,-7118.0,-1508.0,-2643.0,0.509,-0.608,0.515,0.327
2882985,-6500.0,-1910.0,-2477.0,0.514,-0.604,0.512,0.331
2883011,-5944.0,-1448.0,-2765.0,0.52,-0.6,0.508,0.334
2883027,-6542.0,-2080.0,-2525.0,0.524,-0.597,0.504,0.338
2883043,-6826.0,-2006.0,-2367.0,0.529,-0.594,0.499,0.343
2883059,-6704.0,-1952.0,-2355.0,0.533,-0.592,0.495,0.348
2883075,-6918.0,-3692.0,-2195.0,0.536,-0.59,0.49,0.354
2883091,-7040.0,-1020.0,-1821.0,0.539,-0.587,0.484,0.361
2883117,-5974.0,-2560.0,-2101.0,0.541,-0.585,0.478,0.37
2883134,-5890.0,-3382.0,-1593.0,0.542,-0.584,0.471,0.378
2883151,-6148.0,-2412.0,-921.0,0.545,-0.583,0.464,0.385
2883167,-5524.0,-1516.0,-761.0,0.547,-0.581,0.456,0.395
2883184,-4806.0,-1838.0,-659.0,0.548,-0.58,0.446,0.405
2883201,-3644.0,-1824.0,-733.0,0.548,-0.582,0.436,0.414
2883217,-3174.0,-3180.0,-321.0,0.549,-0.583,0.425,0.421
2883234,-3086.0,-878.0,-11.0,0.552,-0.586,0.415,0.425
2883251,-2088.0,-360.0,-81.0,0.553,-0.59,0.403,0.429
2883267,-1196.0,-1352.0,-229.0,0.553,-0.596,0.392,0.431
2883294,-1166.0,-578.0,215.0,0.552,-0.603,0.383,0.43
2883310,-1420.0,-810.0,439.0,0.55,-0.612,0.374,0.428
2883326,-1626.0,-1824.0,383.0,0.547,-0.622,0.366,0.425
2883342,-2136.0,-2184.0,-325.0,0.544,-0.632,0.36,0.42
2883358,-4154.0,-2980.0,265.0,0.541,-0.642,0.355,0.412
2883374,-4968.0,-2356.0,-529.0,0.538,-0.651,0.35,0.405
2883400,-5836.0,-3832.0,-217.0,0.534,-0.66,0.345,0.399
2883417,-5920.0,-5604.0,-773.0,0.532,-0.668,0.342,0.391
2883434,-6830.0,-3380.0,-831.0,0.532,-0.673,0.341,0.385
2883450,-7284.0,-4280.0,-385.0,0.531,-0.677,0.34,0.379
2883467,-6384.0,-6328.0,-1457.0,0.532,-0.679,0.34,0.374
2883484,-7486.0,-4358.0,-847.0,0.536,-0.68,0.341,0.365
2883500,-7400.0,-4756.0,-1323.0,0.54,-0.681,0.343,0.357
2883516,-7980.0,-3940.0,-973.0,0.545,-0.68,0.344,0.35
2883533,-7982.0,-4634.0,-805.0,0.549,-0.678,0.347,0.343
2883550,-7824.0,-4062.0,-941.0,0.555,-0.675,0.35,0.338
2883577,-7664.0,-4606.0,-887.0,0.561,-0.671,0.353,0.333
2883593,-7184.0,-4400.0,-1311.0,0.567,-0.667,0.357,0.327
2883609,-7854.0,-4298.0,-915.0,0.573,-0.662,0.361,0.32
2883625,-8238.0,-3762.0,-701.0,0.579,-0.658,0.365,0.315
2883641,-7556.0,-4976.0,-1295.0,0.584,-0.653,0.368,0.311
2883657,-7428.0,-4970.0,-1451.0,0.59,-0.647,0.373,0.307
2883683,-7902.0,-3706.0,-1153.0,0.595,-0.642,0.377,0.303
2883700,-7678.0,-4324.0,-1157.0,0.599,-0.637,0.381,0.3
2883717,-7344.0,-4370.0,-1121.0,0.602,-0.633,0.385,0.298
2883734,-7282.0,-4000.0,-975.0,0.605,-0.628,0.389,0.297
2883750,-7590.0,-3786.0,-765.0,0.607,-0.623,0.394,0.296
2883767,-7228.0,-4082.0,-1107.0,0.609,-0.619,0.398,0.296
2883784,-7322.0,-3772.0,-1179.0,0.61,-0.615,0.403,0.295
2883801,-7442.0,-4270.0,-1193.0,0.61,-0.612,0.408,0.293
2883818,-7950.0,-3874.0,-1143.0,0.61,-0.609,0.415,0.291
2883835,-8564.0,-4168.0,-1407.0,0.609,-0.607,0.421,0.287
2883851,-9488.0,-4496.0,-1497.0,0.607,-0.606,0.428,0.284
2883877,-10534.0,-4790.0,-1309.0,0.604,-0.606,0.435,0.281
2883893,-11202.0,-6042.0,-1619.0,0.601,-0.605,0.441,0.279
2883909,-11568.0,-6902.0,-2059.0,0.598,-0.605,0.447,0.276
2883925,-11482.0,-6970.0,-2275.0,0.595,-0.605,0.453,0.272
2883941,-11938.0,-7304.0,-2205.0,0.592,-0.606,0.459,0.268
2883957,-11542.0,-7098.0,-2307.0,0.588,-0.607,0.464,0.264
2883983,-11034.0,-7026.0,-2153.0,0.585,-0.609,0.468,0.261
2884000,-10392.0,-6160.0,-2031.0,0.581,-0.61,0.472,0.258
2884017,-9586.0,-5366.0,-1939.0,0.578,-0.612,0.476,0.256
2884034,-8928.0,-4884.0,-1781.0,0.574,-0.613,0.48,0.254
2884050,-7908.0,-4546.0,-2075.0,0.57,-0.614,0.484,0.253
2884067,-7852.0,-3402.0,-1897.0,0.565,-0.616,0.487,0.251
2884084,-7502.0,-3288.0,-1939.0,0.56,-0.619,0.49,0.251
2884101,-7198.0,-3256.0,-1993.0,0.554,-0.622,0.493,0.251
2884117,-6848.0,-3880.0,-2327.0,0.548,-0.625,0.496,0.251
2884134,-7232.0,-3042.0,-2251.0,0.542,-0.628,0.499,0.251
2884161,-7412.0,-2806.0,-2405.0,0.534,-0.632,0.501,0.252
2884178,-7336.0,-3258.0,-2603.0,0.527,-0.636,0.504,0.253
2884194,-7744.0,-2936.0,-2663.0,0.518,-0.641,0.506,0.255
2884210,-7928.0,-3042.0,-2711.0,0.509,-0.645,0.508,0.257
2884226,-7644.0,-3238.0,-2933.0,0.5,-0.65,0.511,0.259
2884242,-7304.0,-3052.0,-2933.0,0.49,-0.654,0.514,0.26
2884258,-7098.0,-2048.0,-3037.0,0.479,-0.658,0.519,0.261
2884284,-6954.0,-2748.0,-3021.0,0.467,-0.662,0.525,0.261
2884301,-6536.0,-2728.0,-3519.0,0.455,-0.665,0.532,0.26
2884318,-6794.0,-2704.0,-3509.0,0.442,-0.668,0.541,0.257
2884335,-6606.0,-1792.0,-3951.0,0.429,-0.67,0.549,0.253
2884352,-6544.0,-1914.0,-3923.0,0.416,-0.673,0.558,0.25
2884369,-6412.0,-1832.0,-4651.0,0.401,-0.676,0.567,0.246
2884386,-6456.0,-1294.0,-4619.0,0.386,-0.68,0.574,0.244
2884402,-6240.0,-2136.0,-5197.0,0.371,-0.683,0.58,0.242
2884419,-6854.0,-1884.0,-4513.0,0.359,-0.686,0.586,0.24
2884436,-6744.0,-2056.0,-4453.0,0.349,-0.686,0.592,0.24
2884453,-5886.0,-2132.0,-5565.0,0.343,-0.684,0.598,0.239
2884479,-6082.0,-50.0,-6089.0,0.338,-0.682,0.603,0.239
2884495,-6184.0,-2014.0,-5353.0,0.336,-0.679,0.608,0.238
2884511,-6072.0,-1392.0,-5839.0,0.335,-0.676,0.612,0.237
2884527,-6428.0,-1124.0,-5749.0,0.335,-0.673,0.615,0.237
2884543,-6336.0,-1038.0,-5951.0,0.338,-0.669,0.618,0.237
2884559,-5904.0,-142.0,-5933.0,0.341,-0.665,0.621,0.238
2884585,-5318.0,-760.0,-6057.0,0.344,-0.661,0.622,0.24
2884602,-5344.0,-1268.0,-5841.0,0.348,-0.658,0.623,0.24
2884619,-5588.0,-642.0,-5353.0,0.353,-0.654,0.623,0.242
2884636,-5750.0,-384.0,-4661.0,0.36,-0.649,0.624,0.244
2884652,-4108.0,-1238.0,-5555.0,0.369,-0.644,0.623,0.247
2884668,-4562.0,-1468.0,-5485.0,0.377,-0.64,0.622,0.248
2884685,-4778.0,-1124.0,-5451.0,0.386,-0.636,0.619,0.25
2884701,-5154.0,-1084.0,-5031.0,0.396,-0.633,0.616,0.251
2884727,-4390.0,-36.0,-5375.0,0.405,-0.629,0.613,0.254
2884743,-4808.0,-1578.0,-5345.0,0.411,-0.627,0.61,0.256
2884759,-5458.0,-2226.0,-5119.0,0.417,-0.627,0.605,0.259
2884775,-5726.0,-1876.0,-4995.0,0.423,-0.626,0.601,0.262
2884792,-5922.0,-2490.0,-5005.0,0.428,-0.625,0.597,0.264
2884808,-6314.0,-3412.0,-5101.0,0.432,-0.626,0.593,0.266
2884825,-7206.0,-2412.0,-4473.0,0.438,-0.625,0.588,0.268
2884851,-6892.0,-1732.0,-4193.0,0.443,-0.623,0.584,0.272
2884868,-6310.0,-2376.0,-4223.0,0.447,-0.621,0.581,0.277
2884885,-6372.0,-1958.0,-3869.0,0.452,-0.62,0.577,0.282
2884901,-6318.0,-2796.0,-3831.0,0.455,-0.619,0.572,0.288
2884917,-6714.0,-3042.0,-3227.0,0.461,-0.617,0.567,0.292
2884934,-6434.0,-2678.0,-3419.0,0.467,-0.615,0.561,0.297
2884950,-6714.0,-1120.0,-2703.0,0.474,-0.612,0.556,0.302
2884967,-5632.0,48.0,-2413.0,0.481,-0.608,0.55,0.31
2884993,-4858.0,-1174.0,-1647.0,0.487,-0.603,0.545,0.32
2885009,-3416.0,-1600.0,-1725.0,0.493,-0.599,0.539,0.328
2885025,-3098.0,-2254.0,-1455.0,0.499,-0.598,0.532,0.332
2885041,-3030.0,-2080.0,-959.0,0.506,-0.598,0.526,0.333
2885057,-2646.0,310.0,-817.0,0.511,-0.598,0.52,0.332
2885073,-2758.0,402.0,-583.0,0.515,-0.599,0.516,0.332
2885099,-2640.0,-1628.0,-601.0,0.517,-0.601,0.511,0.331
2885116,-2824.0,-2922.0,-999.0,0.519,-0.604,0.508,0.328
2885134,-4016.0,-1284.0,-651.0,0.522,-0.608,0.504,0.322
2885151,-4810.0,-1310.0,-1019.0,0.523,-0.613,0.501,0.317
2885167,-5684.0,-2226.0,-1181.0,0.524,-0.616,0.498,0.313
2885184,-5900.0,-3156.0,-1237.0,0.525,-0.62,0.495,0.309
2885201,-5486.0,-3996.0,-2175.0,0.525,-0.623,0.493,0.306
2885218,-6888.0,-3104.0,-1701.0,0.526,-0.626,0.49,0.3
2885235,-7114.0,-3692.0,-2055.0,0.528,-0.629,0.488,0.296
2885251,-7354.0,-4362.0,-2219.0,0.531,-0.631,0.485,0.292
2885267,-7540.0,-3914.0,-2707.0,0.534,-0.633,0.482,0.287
2885294,-8300.0,-3374.0,-2375.0,0.538,-0.634,0.479,0.283
2885311,-8238.0,-3518.0,-2343.0,0.542,-0.634,0.476,0.281
2885327,-8132.0,-3018.0,-2121.0,0.546,-0.633,0.472,0.28
2885343,-7700.0,-4590.0,-2027.0,0.551,-0.632,0.468,0.279
2885360,-8208.0,-3014.0,-1621.0,0.557,-0.63,0.463,0.278
2885376,-7498.0,-2860.0,-1787.0,0.563,-0.629,0.459,0.278
2885392,-7536.0,-3050.0,-1451.0,0.569,-0.626,0.454,0.279
2885409,-7414.0,-4544.0,-1571.0,0.575,-0.624,0.45,0.279
2885435,-7942.0,-2604.0,-1413.0,0.58,-0.621,0.447,0.279
2885452,-7922.0,-3356.0,-1343.0,0.585,-0.619,0.442,0.281
2885468,-7670.0,-3230.0,-1259.0,0.59,-0.616,0.438,0.283
2885485,-7590.0,-3086.0,-937.0,0.594,-0.613,0.435,0.286
2885501,-7650.0,-3840.0,-789.0,0.598,-0.611,0.431,0.289
2885518,-7644.0,-3642.0,-783.0,0.601,-0.609,0.428,0.292
2885534,-7830.0,-3380.0,-569.0,0.603,-0.607,0.425,0.295
2885551,-7894.0,-3892.0,-585.0,0.605,-0.606,0.422,0.299
2885568,-8262.0,-3720.0,-397.0,0.606,-0.605,0.419,0.302
2885594,-8444.0,-3850.0,-309.0,0.606,-0.604,0.417,0.306
2885611,-8514.0,-4456.0,-433.0,0.607,-0.603,0.415,0.309
2885627,-8734.0,-4650.0,-545.0,0.607,-0.603,0.414,0.311
2885643,-9458.0,-4706.0,-501.0,0.608,-0.603,0.412,0.313
2885659,-9714.0,-5600.0,-865.0,0.608,-0.603,0.41,0.315
2885675,-10668.0,-5854.0,-771.0,0.609,-0.602,0.408,0.316
2885701,-11292.0,-5760.0,-741.0,0.61,-0.602,0.405,0.317
2885718,-10724.0,-7156.0,-1137.0,0.611,-0.603,0.403,0.318
2885735,-11286.0,-6786.0,-693.0,0.612,-0.603,0.4,0.318
2885751,-10916.0,-7054.0,-607.0,0.613,-0.604,0.397,0.319
2885768,-10566.0,-6646.0,-441.0,0.614,-0.605,0.395,0.319
2885785,-10108.0,-6076.0,-371.0,0.613,-0.606,0.394,0.318
2885802,-9684.0,-5934.0,-373.0,0.612,-0.608,0.393,0.318
2885819,-9602.0,-5586.0,-435.0,0.61,-0.611,0.393,0.317
2885835,-9564.0,-5094.0,-291.0,0.607,-0.613,0.394,0.316
2885852,-8808.0,-4874.0,-605.0,0.604,-0.616,0.395,0.315
2885878,-8758.0,-4590.0,-409.0,0.601,-0.62,0.396,0.313
2885895,-8202.0,-4324.0,-603.0,0.597,-0.623,0.398,0.312
2885911,-8246.0,-3728.0,-445.0,0.593,-0.626,0.401,0.31
2885927,-8012.0,-3544.0,-395.0,0.588,-0.628,0.404,0.31
2885944,-7572.0,-3646.0,-629.0,0.583,-0.631,0.408,0.309
2885960,-7300.0,-4024.0,-1017.0,0.578,-0.633,0.412,0.308
2885976,-7386.0,-3782.0,-1357.0,0.574,-0.635,0.417,0.306
2886002,-7620.0,-2994.0,-1401.0,0.569,-0.637,0.422,0.303
2886018,-7418.0,-3074.0,-1647.0,0.565,-0.638,0.427,0.302
2886035,-7748.0,-3480.0,-1307.0,0.562,-0.638,0.431,0.302
2886051,-6650.0,-3390.0,-1833.0,0.56,-0.638,0.435,0.302
2886068,-6664.0,-3090.0,-1699.0,0.558,-0.636,0.439,0.302
2886085,-6312.0,-3300.0,-1899.0,0.557,-0.635,0.442,0.302
2886101,-6752.0,-3166.0,-1665.0,0.556,-0.633,0.446,0.301
2886117,-6506.0,-3326.0,-1933.0,0.556,-0.631,0.45,0.301
2886144,-7334.0,-3442.0,-1483.0,0.556,-0.628,0.453,0.302
2886160,-6680.0,-3094.0,-1963.0,0.557,-0.624,0.456,0.303
2886176,-6950.0,-2830.0,-1849.0,0.558,-0.62,0.459,0.305
2886192,-7032.0,-3630.0,-1943.0,0.559,-0.617,0.462,0.307
2886208,-7430.0,-3486.0,-1803.0,0.561,-0.613,0.464,0.308
2886225,-7596.0,-2984.0,-1807.0,0.563,-0.609,0.466,0.31
2886241,-7614.0,-3422.0,-1627.0,0.564,-0.604,0.468,0.312
2886267,-7634.0,-3130.0,-1637.0,0.566,-0.6,0.47,0.314
2886284,-7462.0,-2702.0,-1511.0,0.568,-0.596,0.471,0.317
2886301,-7644.0,-2952.0,-1243.0,0.569,-0.592,0.473,0.321
2886318,-7318.0,-2294.0,-1157.0,0.569,-0.588,0.474,0.326
2886334,-7184.0,-3422.0,-1283.0,0.57,-0.584,0.475,0.33
2886351,-7218.0,-3272.0,-1463.0,0.57,-0.581,0.476,0.334
2886367,-7632.0,-2804.0,-1309.0,0.571,-0.577,0.477,0.337
2886383,-7586.0,-2502.0,-1187.0,0.571,-0.574,0.478,0.342
2886409,-7212.0,-3442.0,-1421.0,0.57,-0.571,0.478,0.347
2886425,-7604.0,-2432.0,-1237.0,0.57,-0.568,0.479,0.352
2886441,-7280.0,-2438.0,-1567.0,0.569,-0.564,0.479,0.358
2886457,-7122.0,-2042.0,-1165.0,0.568,-0.561,0.479,0.365
2886473,-6506.0,-2860.0,-1311.0,0.566,-0.558,0.479,0.372
2886489,-6166.0,-3192.0,-1555.0,0.565,-0.555,0.478,0.379
2886515,-6520.0,-1360.0,-859.0,0.564,-0.552,0.478,0.385
2886533,-5992.0,-646.0,-637.0,0.563,-0.548,0.477,0.394
2886550,-4376.0,-1502.0,-1099.0,0.562,-0.544,0.475,0.403
2886566,-3916.0,-1848.0,-745.0,0.561,-0.541,0.475,0.41
2886583,-3716.0,-1138.0,-365.0,0.56,-0.537,0.474,0.416
2886600,-3466.0,-1184.0,-171.0,0.56,-0.536,0.472,0.421
2886616,-2792.0,-1084.0,-77.0,0.56,-0.535,0.47,0.424
2886632,-2404.0,-1096.0,-217.0,0.561,-0.535,0.468,0.425
2886649,-2366.0,-662.0,-19.0,0.561,-0.537,0.466,0.424
2886666,-2446.0,88.0,95.0,0.561,-0.54,0.465,0.423
2886692,-2556.0,66.0,-101.0,0.559,-0.544,0.463,0.421
2886708,-2630.0,-830.0,-93.0,0.557,-0.55,0.462,0.418
2886724,-2900.0,-634.0,61.0,0.555,-0.555,0.461,0.414
2886740,-3526.0,-596.0,-341.0,0.553,-0.561,0.46,0.41
2886756,-4628.0,-1620.0,-193.0,0.551,-0.566,0.459,0.406
2886772,-4942.0,-2104.0,-669.0,0.551,-0.571,0.458,0.401
2886799,-5286.0,-2600.0,-1129.0,0.551,-0.575,0.458,0.396
2886816,-6444.0,-2064.0,-675.0,0.553,-0.578,0.456,0.389
2886833,-6318.0,-3340.0,-1283.0,0.556,-0.581,0.455,0.383
2886849,-7632.0,-2946.0,-657.0,0.561,-0.581,0.453,0.377
2886866,-6862.0,-1452.0,-1141.0,0.566,-0.58,0.451,0.373
2886882,-7044.0,-2080.0,-907.0,0.571,-0.579,0.449,0.37
2886899,-6960.0,-3034.0,-455.0,0.577,-0.578,0.446,0.367
2886916,-7460.0,-2004.0,-145.0,0.584,-0.574,0.443,0.365
2886933,-7538.0,-2008.0,259.0,0.591,-0.57,0.44,0.363
2886959,-7700.0,-1384.0,303.0,0.599,-0.565,0.436,0.364
2886975,-7628.0,-2316.0,537.0,0.606,-0.56,0.432,0.365
2886991,-8044.0,-2448.0,853.0,0.614,-0.554,0.426,0.366
2887007,-8478.0,-1594.0,1129.0,0.622,-0.548,0.421,0.368
2887023,-8566.0,-2176.0,1143.0,0.629,-0.543,0.415,0.371
2887039,-9184.0,-2750.0,1423.0,0.636,-0.537,0.409,0.374
2887055,-9228.0,-3694.0,909.0,0.642,-0.531,0.405,0.376
2887081,-10332.0,-4580.0,1025.0,0.649,-0.524,0.402,0.378
2887098,-11472.0,-4018.0,1245.0,0.656,-0.516,0.399,0.379
2887115,-11812.0,-5170.0,667.0,0.662,-0.509,0.396,0.381
2887131,-11574.0,-6816.0,309.0,0.669,-0.501,0.395,0.381
2887147,-11802.0,-5836.0,-129.0,0.677,-0.492,0.394,0.38
2887163,-12024.0,-5718.0,-121.0,0.683,-0.483,0.394,0.381
2887179,-11770.0,-6650.0,293.0,0.69,-0.471,0.393,0.383
2887205,-10452.0,-6172.0,19.0,0.699,-0.457,0.392,0.386
2887221,-9662.0,-5086.0,117.0,0.708,-0.439,0.391,0.391
2887237,-8984.0,-4272.0,305.0,0.718,-0.418,0.392,0.396
2887253,-8244.0,-2906.0,601.0,0.728,-0.392,0.394,0.401
2887270,-7280.0,-2408.0,653.0,0.738,-0.365,0.394,0.408
2887287,-6242.0,-1112.0,837.0,0.748,-0.337,0.394,0.414
2887303,-6974.0,-1198.0,1679.0,0.758,-0.308,0.392,0.42
2887329,-6598.0,-1044.0,1773.0,0.768,-0.278,0.39,0.425
