timeMs,ax,ay,az,q0,q1,q2,q3
1884518,-1496.0,8929.0,-1163.0,0.526,0.488,0.554,0.423
1884534,-1712.0,8173.0,-1039.0,0.523,0.485,0.555,0.427
1884550,-1562.0,7635.0,-1193.0,0.521,0.484,0.557,0.43
1884576,-1528.0,7745.0,-1419.0,0.518,0.483,0.559,0.431
1884592,-1482.0,8199.0,-1553.0,0.516,0.482,0.561,0.432
1884608,-1696.0,8253.0,-1379.0,0.514,0.481,0.563,0.433
1884624,-1690.0,8487.0,-1527.0,0.513,0.479,0.564,0.434
1884640,-1620.0,8267.0,-1633.0,0.513,0.477,0.565,0.436
1884656,-1662.0,8159.0,-1597.0,0.513,0.475,0.566,0.437
1884682,-1762.0,8067.0,-1603.0,0.514,0.473,0.566,0.437
1884698,-1814.0,8021.0,-1455.0,0.515,0.471,0.567,0.438
1884714,-1846.0,7991.0,-1265.0,0.517,0.469,0.567,0.438
1884731,-1920.0,7907.0,-1251.0,0.519,0.467,0.567,0.438
1884747,-1980.0,7613.0,-1139.0,0.521,0.466,0.566,0.437
1884763,-2234.0,7007.0,-813.0,0.522,0.466,0.566,0.435
1884780,-2392.0,6845.0,-635.0,0.522,0.469,0.566,0.432
1884806,-2270.0,7363.0,-547.0,0.522,0.473,0.567,0.427
1884823,-2112.0,8385.0,-671.0,0.523,0.476,0.567,0.422
1884839,-2000.0,8631.0,-653.0,0.524,0.479,0.566,0.418
1884856,-1844.0,8525.0,-689.0,0.525,0.482,0.565,0.415
1884873,-1704.0,8377.0,-727.0,0.527,0.484,0.563,0.413
1884890,-1754.0,8489.0,-659.0,0.529,0.485,0.561,0.412
1884907,-1828.0,8183.0,-457.0,0.531,0.485,0.559,0.412
1884923,-1778.0,7869.0,-439.0,0.534,0.485,0.556,0.413
1884940,-1762.0,7659.0,-409.0,0.535,0.486,0.554,0.413
1884957,-1720.0,7733.0,-461.0,0.537,0.486,0.553,0.413
1884984,-1660.0,7609.0,-381.0,0.537,0.487,0.551,0.412
1885000,-1678.0,8009.0,-411.0,0.538,0.489,0.55,0.411
1885017,-1542.0,7961.0,-469.0,0.538,0.489,0.549,0.411
1885033,-1560.0,7937.0,-459.0,0.539,0.49,0.549,0.41
1885050,-1602.0,7527.0,-393.0,0.538,0.491,0.549,0.41
1885066,-1692.0,7333.0,-299.0,0.538,0.493,0.549,0.408
1885083,-1580.0,7509.0,-395.0,0.536,0.495,0.551,0.405
1885099,-1632.0,7599.0,-487.0,0.534,0.498,0.553,0.402
1885116,-1560.0,8201.0,-641.0,0.532,0.5,0.555,0.399
1885142,-1690.0,8075.0,-629.0,0.53,0.503,0.557,0.396
1885158,-1766.0,8355.0,-851.0,0.528,0.505,0.558,0.393
1885175,-1606.0,8413.0,-947.0,0.526,0.507,0.559,0.391
1885192,-1574.0,8459.0,-937.0,0.525,0.509,0.56,0.39
1885208,-1492.0,8475.0,-973.0,0.525,0.51,0.559,0.389
1885224,-1456.0,8251.0,-921.0,0.524,0.512,0.559,0.389
1885240,-1426.0,8489.0,-915.0,0.525,0.512,0.558,0.389
1885266,-1416.0,8493.0,-931.0,0.526,0.512,0.556,0.39
1885282,-1476.0,8647.0,-897.0,0.528,0.512,0.554,0.392
1885298,-1456.0,8357.0,-943.0,0.53,0.51,0.551,0.394
1885314,-1488.0,7615.0,-757.0,0.532,0.509,0.549,0.396
1885330,-1432.0,7465.0,-659.0,0.533,0.508,0.547,0.397
1885346,-1256.0,7953.0,-685.0,0.534,0.508,0.546,0.398
1885373,-1206.0,7843.0,-771.0,0.535,0.507,0.546,0.398
1885389,-1274.0,7795.0,-841.0,0.536,0.507,0.546,0.398
1885405,-1384.0,7799.0,-415.0,0.536,0.506,0.547,0.397
1885421,-1562.0,7585.0,-143.0,0.536,0.506,0.548,0.396
1885438,-1526.0,7137.0,-453.0,0.535,0.506,0.55,0.394
1885454,-1294.0,7483.0,-765.0,0.533,0.507,0.553,0.391
1885470,-1614.0,8253.0,-665.0,0.53,0.509,0.556,0.389
1885496,-1932.0,8461.0,-875.0,0.528,0.51,0.559,0.387
1885512,-1746.0,8321.0,-993.0,0.526,0.511,0.561,0.385
1885528,-1646.0,8375.0,-1211.0,0.524,0.511,0.562,0.384
1885544,-1610.0,8393.0,-1181.0,0.524,0.511,0.564,0.384
1885560,-1764.0,8135.0,-1029.0,0.523,0.51,0.564,0.384
1885576,-1838.0,8099.0,-893.0,0.523,0.509,0.565,0.385
1885602,-1810.0,8019.0,-929.0,0.523,0.508,0.566,0.385
1885618,-1682.0,7971.0,-1021.0,0.522,0.507,0.566,0.386
1885634,-1646.0,7969.0,-1097.0,0.522,0.507,0.567,0.387
1885650,-1620.0,7943.0,-1089.0,0.521,0.506,0.567,0.387
1885666,-1610.0,8007.0,-1159.0,0.521,0.506,0.568,0.388
1885692,-1574.0,7915.0,-1187.0,0.52,0.505,0.569,0.388
1885708,-1638.0,7893.0,-1117.0,0.519,0.505,0.57,0.389
1885725,-1654.0,7929.0,-1175.0,0.518,0.504,0.571,0.39
1885741,-1674.0,7869.0,-1149.0,0.517,0.503,0.572,0.39
1885758,-1738.0,7951.0,-1187.0,0.516,0.502,0.573,0.391
1885775,-1748.0,7933.0,-1151.0,0.515,0.501,0.575,0.392
1885791,-1830.0,7853.0,-1121.0,0.514,0.5,0.576,0.392
1885807,-1732.0,7879.0,-1165.0,0.513,0.5,0.577,0.392
1885833,-1672.0,7851.0,-1237.0,0.512,0.499,0.579,0.392
1885850,-1680.0,7763.0,-1269.0,0.511,0.498,0.58,0.392
1885867,-1708.0,7727.0,-1257.0,0.509,0.498,0.582,0.392
1885884,-1754.0,7885.0,-1297.0,0.508,0.498,0.584,0.391
1885901,-1742.0,7947.0,-1321.0,0.506,0.498,0.586,0.391
1885917,-1796.0,7991.0,-1319.0,0.505,0.497,0.588,0.391
1885933,-1808.0,8093.0,-1391.0,0.503,0.497,0.589,0.391
1885949,-1790.0,8385.0,-1469.0,0.502,0.496,0.591,0.391
1885975,-1650.0,8923.0,-1669.0,0.502,0.493,0.592,0.394
1885992,-1622.0,8501.0,-1717.0,0.503,0.489,0.592,0.397
1886009,-1872.0,7649.0,-1409.0,0.504,0.484,0.592,0.401
1886025,-2074.0,7369.0,-1093.0,0.505,0.48,0.592,0.405
1886042,-2080.0,7327.0,-929.0,0.505,0.477,0.593,0.407
1886059,-2038.0,7491.0,-1019.0,0.505,0.475,0.594,0.408
1886076,-1674.0,9247.0,-1593.0,0.506,0.473,0.594,0.41
1886093,-1802.0,8579.0,-1481.0,0.507,0.468,0.594,0.413
1886109,-1920.0,7547.0,-1203.0,0.509,0.464,0.593,0.417
1886125,-1950.0,7231.0,-923.0,0.509,0.461,0.593,0.42
1886151,-1890.0,7349.0,-927.0,0.509,0.459,0.594,0.421
1886168,-1980.0,7617.0,-993.0,0.508,0.458,0.595,0.422
1886185,-1900.0,8179.0,-1131.0,0.507,0.457,0.595,0.423
1886202,-1902.0,8239.0,-1145.0,0.507,0.456,0.595,0.425
1886218,-1884.0,8291.0,-1253.0,0.508,0.454,0.595,0.427
1886234,-2132.0,7963.0,-1011.0,0.508,0.451,0.595,0.429
1886250,-2026.0,7761.0,-947.0,0.508,0.45,0.595,0.431
1886267,-2120.0,7593.0,-947.0,0.507,0.448,0.595,0.432
1886293,-1884.0,8685.0,-1213.0,0.508,0.447,0.595,0.434
1886310,-2004.0,8245.0,-1033.0,0.509,0.444,0.594,0.437
1886327,-2122.0,7737.0,-959.0,0.51,0.442,0.593,0.439
1886344,-2116.0,7667.0,-937.0,0.511,0.44,0.592,0.441
1886360,-2038.0,7795.0,-933.0,0.512,0.439,0.591,0.442
1886376,-2050.0,8131.0,-941.0,0.514,0.437,0.59,0.444
1886392,-2014.0,8057.0,-917.0,0.516,0.435,0.588,0.446
1886418,-2042.0,7905.0,-847.0,0.518,0.433,0.586,0.447
1886435,-2078.0,8011.0,-787.0,0.52,0.432,0.584,0.449
1886452,-2080.0,7959.0,-773.0,0.522,0.43,0.582,0.451
1886469,-2062.0,7685.0,-545.0,0.524,0.429,0.58,0.452
1886485,-2136.0,7545.0,-383.0,0.526,0.429,0.578,0.453
1886501,-2146.0,7367.0,-23.0,0.528,0.429,0.576,0.453
1886517,-2318.0,6395.0,-27.0,0.53,0.432,0.574,0.451
1886533,-2004.0,6033.0,-65.0,0.529,0.437,0.574,0.447
1886559,-1844.0,6693.0,-525.0,0.527,0.444,0.576,0.44
1886575,-1886.0,7949.0,-369.0,0.524,0.451,0.579,0.432
1886591,-1762.0,10315.0,-491.0,0.522,0.457,0.581,0.425
1886608,-1584.0,9861.0,-563.0,0.523,0.46,0.581,0.422
1886625,-1512.0,8505.0,-533.0,0.524,0.461,0.579,0.421
1886642,-1528.0,8021.0,-549.0,0.525,0.462,0.578,0.421
1886659,-1430.0,7947.0,-471.0,0.526,0.461,0.577,0.421
1886675,-1500.0,8049.0,-283.0,0.527,0.461,0.576,0.422
1886701,-1710.0,7987.0,-165.0,0.527,0.46,0.576,0.423
1886718,-1726.0,8015.0,-181.0,0.528,0.459,0.575,0.424
1886735,-1682.0,8011.0,-295.0,0.528,0.458,0.575,0.425
1886752,-1600.0,7989.0,-339.0,0.528,0.457,0.575,0.427
1886768,-1674.0,7887.0,-355.0,0.528,0.456,0.575,0.427
1886784,-1686.0,7831.0,-369.0,0.528,0.455,0.575,0.428
1886800,-1756.0,7761.0,-319.0,0.527,0.455,0.576,0.429
1886816,-1742.0,7985.0,-281.0,0.526,0.455,0.577,0.428
1886833,-1702.0,8029.0,-361.0,0.525,0.455,0.577,0.428
1886860,-1744.0,8147.0,-375.0,0.524,0.455,0.578,0.428
1886876,-1698.0,8091.0,-347.0,0.524,0.455,0.579,0.428
1886893,-1710.0,7953.0,-451.0,0.523,0.455,0.58,0.428
1886909,-1694.0,8001.0,-399.0,0.522,0.455,0.582,0.428
1886926,-1764.0,8135.0,-469.0,0.521,0.454,0.583,0.428
1886942,-1696.0,8201.0,-547.0,0.52,0.454,0.584,0.428
1886958,-1724.0,8709.0,-687.0,0.519,0.452,0.585,0.429
1886975,-1670.0,8491.0,-783.0,0.52,0.449,0.585,0.431
1887002,-1784.0,7807.0,-709.0,0.52,0.447,0.585,0.434
1887022,-1940.0,7349.0,-517.0,0.519,0.444,0.586,0.435
1887038,-1972.0,7693.0,-565.0,0.518,0.443,0.587,0.437
1887054,-2020.0,7831.0,-623.0,0.517,0.441,0.588,0.437
1887070,-2018.0,7885.0,-605.0,0.516,0.44,0.59,0.438
1887086,-2008.0,7859.0,-661.0,0.515,0.44,0.591,0.438
1887102,-2000.0,7865.0,-637.0,0.515,0.44,0.591,0.438
1887118,-2046.0,7937.0,-515.0,0.514,0.44,0.592,0.438
1887135,-1994.0,7841.0,-591.0,0.513,0.44,0.593,0.438
1887161,-1954.0,7753.0,-729.0,0.512,0.44,0.593,0.438
1887177,-1960.0,7821.0,-759.0,0.512,0.44,0.594,0.437
1887193,-1972.0,8067.0,-723.0,0.511,0.44,0.595,0.437
1887210,-1962.0,7995.0,-777.0,0.51,0.44,0.596,0.437
1887227,-2052.0,8063.0,-777.0,0.51,0.44,0.597,0.436
1887243,-1958.0,7943.0,-813.0,0.509,0.44,0.597,0.437
1887259,-2030.0,7817.0,-801.0,0.509,0.439,0.598,0.437
1887285,-1980.0,7767.0,-857.0,0.508,0.439,0.599,0.437
1887301,-2026.0,7763.0,-869.0,0.507,0.438,0.6,0.437
1887317,-2178.0,7869.0,-759.0,0.506,0.438,0.601,0.437
1887333,-2230.0,7971.0,-677.0,0.505,0.438,0.602,0.437
1887349,-2004.0,7909.0,-957.0,0.505,0.438,0.603,0.436
1887366,-1922.0,7801.0,-1121.0,0.503,0.439,0.604,0.436
1887382,-1904.0,7861.0,-1269.0,0.502,0.439,0.605,0.436
1887409,-1858.0,7951.0,-1401.0,0.5,0.439,0.606,0.435
1887425,-1914.0,8083.0,-1223.0,0.499,0.439,0.607,0.436
1887441,-2062.0,8009.0,-1149.0,0.498,0.438,0.608,0.436
1887457,-2154.0,8099.0,-1071.0,0.497,0.438,0.608,0.437
1887474,-2058.0,8195.0,-963.0,0.497,0.438,0.608,0.437
1887490,-2036.0,8183.0,-1017.0,0.497,0.438,0.607,0.438
1887507,-1930.0,8077.0,-1029.0,0.498,0.439,0.606,0.439
1887533,-1876.0,8089.0,-949.0,0.498,0.439,0.604,0.44
1887549,-1910.0,8205.0,-885.0,0.499,0.439,0.603,0.441
1887566,-1842.0,8103.0,-839.0,0.501,0.439,0.6,0.442
1887582,-1856.0,8043.0,-857.0,0.502,0.44,0.598,0.443
1887598,-1734.0,7995.0,-761.0,0.504,0.441,0.596,0.444
1887614,-1670.0,8033.0,-801.0,0.506,0.442,0.594,0.443
1887630,-1646.0,8205.0,-777.0,0.507,0.443,0.592,0.443
1887656,-1488.0,8363.0,-843.0,0.509,0.444,0.59,0.443
1887673,-1476.0,7925.0,-777.0,0.511,0.444,0.588,0.442
1887689,-1514.0,7987.0,-745.0,0.513,0.444,0.587,0.442
1887705,-1444.0,7739.0,-459.0,0.514,0.444,0.586,0.441
1887722,-1412.0,7565.0,-329.0,0.516,0.444,0.585,0.441
1887738,-1358.0,7177.0,-479.0,0.517,0.444,0.584,0.441
1887754,-1342.0,7223.0,-629.0,0.518,0.443,0.584,0.442
1887771,-1504.0,7409.0,-487.0,0.519,0.442,0.583,0.442
1887797,-1692.0,7799.0,-213.0,0.52,0.44,0.583,0.443
1887814,-1896.0,7211.0,-157.0,0.521,0.438,0.583,0.444
1887830,-1956.0,7251.0,-137.0,0.522,0.437,0.582,0.445
1887846,-2392.0,8265.0,-495.0,0.522,0.435,0.583,0.445
1887862,-2482.0,10393.0,-1031.0,0.523,0.433,0.585,0.443
1887878,-1952.0,9387.0,-529.0,0.525,0.43,0.587,0.442
1887904,-1166.0,7497.0,-137.0,0.526,0.426,0.588,0.442
1887920,-1474.0,6145.0,497.0,0.527,0.423,0.59,0.442
1887936,-1912.0,7539.0,451.0,0.527,0.42,0.592,0.442
1887952,-2072.0,8243.0,-25.0,0.527,0.417,0.595,0.441
1887968,-2110.0,8669.0,-29.0,0.527,0.413,0.598,0.441
1887984,-2232.0,8377.0,199.0,0.527,0.41,0.6,0.441
1888010,-2174.0,7815.0,165.0,0.526,0.407,0.602,0.442
1888026,-2186.0,7603.0,-93.0,0.526,0.405,0.604,0.442
1888042,-2374.0,8223.0,-177.0,0.526,0.403,0.605,0.442
1888058,-2540.0,8391.0,-215.0,0.526,0.401,0.605,0.443
1888074,-2616.0,8277.0,-185.0,0.527,0.4,0.604,0.445
1888090,-2696.0,7863.0,-3.0,0.528,0.399,0.602,0.446
1888116,-2542.0,7369.0,47.0,0.528,0.4,0.601,0.447
1888132,-2340.0,7697.0,-171.0,0.529,0.402,0.599,0.447
1888148,-2210.0,7763.0,-365.0,0.529,0.404,0.598,0.447
1888164,-2086.0,7765.0,-587.0,0.528,0.406,0.597,0.447
1888180,-2036.0,7801.0,-525.0,0.528,0.408,0.596,0.446
1888196,-2076.0,7893.0,-439.0,0.527,0.41,0.596,0.446
1888222,-1918.0,7883.0,-363.0,0.526,0.411,0.596,0.446
1888238,-1988.0,7767.0,-493.0,0.525,0.411,0.596,0.446
1888254,-2100.0,7651.0,-635.0,0.524,0.412,0.597,0.446
1888270,-1968.0,7787.0,-635.0,0.521,0.413,0.599,0.446
1888286,-1972.0,7819.0,-739.0,0.519,0.413,0.601,0.446
1888302,-2140.0,8371.0,-1123.0,0.517,0.412,0.603,0.446
1888328,-2350.0,8051.0,-805.0,0.515,0.411,0.605,0.447
1888344,-2460.0,7715.0,-601.0,0.514,0.409,0.606,0.448
1888360,-2510.0,7529.0,-607.0,0.513,0.407,0.608,0.449
1888376,-2564.0,7887.0,-677.0,0.512,0.406,0.609,0.449
1888392,-2542.0,8149.0,-701.0,0.513,0.405,0.61,0.449
1888418,-2546.0,7925.0,-731.0,0.513,0.404,0.61,0.449
1888434,-2526.0,7875.0,-821.0,0.514,0.404,0.609,0.449
1888450,-2508.0,7923.0,-693.0,0.515,0.403,0.608,0.45
1888466,-2486.0,7927.0,-715.0,0.517,0.403,0.607,0.45
1888482,-2402.0,7773.0,-711.0,0.518,0.402,0.606,0.45
1888498,-2350.0,7829.0,-667.0,0.52,0.402,0.605,0.45
1888524,-2386.0,7895.0,-679.0,0.522,0.401,0.603,0.45
1888540,-2318.0,8287.0,-489.0,0.524,0.401,0.601,0.451
1888556,-2382.0,7477.0,-311.0,0.526,0.4,0.6,0.451
1888572,-2408.0,7663.0,-273.0,0.528,0.399,0.598,0.451
1888588,-2494.0,7581.0,19.0,0.531,0.399,0.597,0.451
1888604,-2410.0,7607.0,21.0,0.533,0.398,0.595,0.451
1888630,-2400.0,7915.0,145.0,0.536,0.397,0.593,0.451
1888646,-2416.0,8229.0,195.0,0.539,0.396,0.592,0.451
1888662,-2488.0,7993.0,329.0,0.542,0.394,0.59,0.451
1888678,-2570.0,7667.0,521.0,0.544,0.393,0.587,0.452
1888694,-2766.0,8025.0,623.0,0.547,0.391,0.585,0.453
1888710,-2590.0,7991.0,447.0,0.549,0.389,0.583,0.455
1888736,-2500.0,8209.0,379.0,0.551,0.388,0.581,0.457
1888752,-2614.0,7791.0,577.0,0.552,0.387,0.578,0.459
1888768,-2402.0,7383.0,571.0,0.553,0.386,0.576,0.461
1888784,-2288.0,7257.0,393.0,0.553,0.387,0.576,0.462
1888800,-2324.0,7595.0,737.0,0.552,0.387,0.575,0.464
1888816,-2462.0,7363.0,785.0,0.55,0.388,0.576,0.465
1888842,-2302.0,7461.0,621.0,0.547,0.389,0.577,0.465
1888858,-2158.0,7473.0,483.0,0.544,0.391,0.578,0.465
1888874,-2130.0,7663.0,379.0,0.541,0.394,0.58,0.465
1888890,-2006.0,7661.0,297.0,0.537,0.396,0.582,0.464
1888906,-1980.0,7777.0,215.0,0.532,0.399,0.585,0.464
1888922,-1956.0,7935.0,159.0,0.528,0.401,0.588,0.464
1888948,-2068.0,8099.0,109.0,0.524,0.404,0.59,0.463
1888964,-1912.0,8309.0,29.0,0.52,0.406,0.591,0.463
1888980,-1854.0,8237.0,-117.0,0.517,0.408,0.593,0.463
1888996,-1806.0,8087.0,-259.0,0.514,0.41,0.594,0.464
1889013,-1690.0,8133.0,-545.0,0.511,0.412,0.595,0.464
1889030,-1666.0,8105.0,-501.0,0.508,0.414,0.595,0.465
1889056,-1592.0,8235.0,-443.0,0.506,0.415,0.596,0.465
1889072,-1616.0,8369.0,-451.0,0.503,0.417,0.596,0.466
1889088,-1606.0,8459.0,-473.0,0.501,0.419,0.596,0.467
1889104,-1486.0,8189.0,-545.0,0.5,0.42,0.596,0.468
1889120,-1448.0,7949.0,-655.0,0.499,0.421,0.595,0.469
1889136,-1358.0,7831.0,-687.0,0.498,0.421,0.594,0.47
1889152,-1394.0,8001.0,-679.0,0.498,0.422,0.594,0.471
1889178,-1458.0,8053.0,-657.0,0.497,0.423,0.594,0.471
1889195,-1388.0,8189.0,-661.0,0.498,0.423,0.593,0.471
1889211,-1374.0,8045.0,-691.0,0.498,0.423,0.593,0.471
1889227,-1456.0,7917.0,-535.0,0.499,0.422,0.592,0.471
1889243,-1562.0,7771.0,-583.0,0.5,0.421,0.592,0.471
1889259,-1582.0,7807.0,-399.0,0.5,0.421,0.593,0.47
1889276,-1736.0,7819.0,-313.0,0.501,0.42,0.593,0.469
1889302,-1678.0,8121.0,-393.0,0.502,0.42,0.594,0.468
1889318,-1638.0,8115.0,-629.0,0.503,0.419,0.594,0.468
1889334,-1576.0,8267.0,-615.0,0.503,0.418,0.595,0.467
1889351,-1674.0,8105.0,-427.0,0.504,0.417,0.595,0.467
1889368,-1706.0,8105.0,-469.0,0.504,0.416,0.595,0.467
1889384,-1796.0,8079.0,-291.0,0.505,0.414,0.596,0.468
1889400,-1946.0,8261.0,21.0,0.505,0.413,0.596,0.469
1889426,-2006.0,8299.0,23.0,0.506,0.412,0.595,0.47
1889442,-1952.0,7911.0,-93.0,0.507,0.411,0.594,0.471
1889458,-1984.0,7847.0,-243.0,0.508,0.41,0.593,0.472
1889474,-1946.0,7899.0,-127.0,0.509,0.409,0.592,0.472
1889491,-1920.0,8155.0,133.0,0.51,0.409,0.591,0.473
1889507,-1788.0,7837.0,-33.0,0.511,0.408,0.59,0.474
1889533,-1574.0,7709.0,-223.0,0.511,0.408,0.59,0.474
1889549,-1608.0,7739.0,-335.0,0.51,0.407,0.591,0.474
1889565,-1684.0,7869.0,-217.0,0.509,0.407,0.592,0.474
1889581,-1704.0,7921.0,-113.0,0.508,0.407,0.593,0.474
1889597,-1758.0,7993.0,-195.0,0.506,0.407,0.595,0.474
1889613,-1712.0,7923.0,-231.0,0.505,0.407,0.596,0.474
1889639,-1724.0,7969.0,-243.0,0.503,0.407,0.598,0.473
1889655,-1758.0,7979.0,-297.0,0.501,0.407,0.6,0.473
1889671,-1762.0,7979.0,-347.0,0.499,0.407,0.601,0.472
1889687,-1806.0,8019.0,-437.0,0.498,0.408,0.603,0.472
1889703,-1795.0,8028.0,-580.0,0.496,0.408,0.605,0.471
1889719,-1761.0,8052.0,-594.0,0.495,0.408,0.606,0.47
1889745,-1707.0,8084.0,-608.0,0.493,0.409,0.608,0.469
1889762,-1739.0,8114.0,-614.0,0.492,0.409,0.609,0.469
1889778,-1733.0,8112.0,-620.0,0.491,0.409,0.61,0.468
1889794,-1777.0,8056.0,-654.0,0.49,0.41,0.611,0.468
1889810,-1681.0,8036.0,-712.0,0.489,0.41,0.612,0.467
1889826,-1727.0,7932.0,-730.0,0.488,0.41,0.613,0.467
1889852,-1777.0,8010.0,-770.0,0.487,0.41,0.614,0.466
1889868,-1747.0,7966.0,-812.0,0.487,0.41,0.615,0.465
1889884,-1803.0,8034.0,-788.0,0.487,0.409,0.616,0.465
1889900,-1799.0,8100.0,-844.0,0.486,0.409,0.617,0.464
1889916,-1791.0,7794.0,-822.0,0.486,0.408,0.618,0.464
1889933,-1849.0,8126.0,-912.0,0.486,0.407,0.619,0.463
1889949,-1855.0,8178.0,-928.0,0.486,0.406,0.62,0.463
1889975,-1945.0,7824.0,-874.0,0.486,0.404,0.621,0.463
1889991,-2001.0,7768.0,-836.0,0.486,0.403,0.622,0.463
1890007,-2077.0,7908.0,-854.0,0.486,0.402,0.623,0.462
1890023,-2047.0,8158.0,-818.0,0.486,0.401,0.624,0.462
1890039,-2057.0,7836.0,-776.0,0.486,0.4,0.625,0.462
1890055,-2095.0,7866.0,-848.0,0.486,0.4,0.626,0.461
1890081,-2079.0,8062.0,-856.0,0.486,0.399,0.626,0.461
1890097,-2123.0,8016.0,-860.0,0.487,0.398,0.626,0.46
1890113,-2135.0,7866.0,-838.0,0.487,0.398,0.627,0.46
1890129,-2209.0,7832.0,-806.0,0.488,0.397,0.627,0.46
1890146,-2215.0,8002.0,-818.0,0.489,0.397,0.627,0.459
1890162,-2135.0,7908.0,-736.0,0.489,0.396,0.627,0.459
1890179,-2175.0,7906.0,-814.0,0.49,0.395,0.627,0.459
1890206,-2189.0,7854.0,-784.0,0.491,0.395,0.626,0.459
1890222,-2161.0,7850.0,-754.0,0.492,0.394,0.626,0.459
1890238,-2214.0,7867.0,-763.0,0.493,0.393,0.626,0.458
1890255,-2151.0,7842.0,-707.0,0.494,0.393,0.626,0.458
1890271,-2219.0,7808.0,-736.0,0.495,0.392,0.626,0.458
1890287,-2216.0,7866.0,-687.0,0.496,0.391,0.626,0.457
1890313,-2222.0,7924.0,-686.0,0.497,0.391,0.625,0.457
1890329,-2267.0,7943.0,-674.0,0.498,0.39,0.625,0.457
1890346,-2246.0,8028.0,-686.0,0.5,0.389,0.625,0.456
1890362,-2167.0,7909.0,-650.0,0.501,0.388,0.624,0.456
1890379,-2230.0,7929.0,-582.0,0.503,0.388,0.624,0.456
1890396,-2036.0,8467.0,-710.0,0.504,0.386,0.623,0.456
1890412,-2070.0,8191.0,-708.0,0.506,0.385,0.622,0.457
1890429,-2130.0,8093.0,-632.0,0.508,0.382,0.621,0.458
1890446,-2234.0,7891.0,-438.0,0.511,0.38,0.619,0.459
1890462,-2162.0,7819.0,-412.0,0.514,0.378,0.618,0.459
1890489,-2110.0,7881.0,-536.0,0.517,0.377,0.617,0.459
1890505,-2082.0,7925.0,-438.0,0.52,0.374,0.615,0.46
1890521,-2162.0,7765.0,-380.0,0.523,0.372,0.613,0.46
1890537,-2130.0,7745.0,-290.0,0.527,0.37,0.612,0.46
1890553,-2196.0,7731.0,-322.0,0.531,0.368,0.61,0.459
1890569,-2234.0,7713.0,-108.0,0.535,0.365,0.609,0.458
1890595,-2292.0,8175.0,16.0,0.539,0.362,0.607,0.458
1890611,-2362.0,7761.0,132.0,0.543,0.359,0.605,0.458
1890628,-2330.0,7553.0,14.0,0.548,0.356,0.603,0.458
1890644,-2322.0,7621.0,282.0,0.552,0.353,0.601,0.458
1890660,-2370.0,7673.0,272.0,0.556,0.35,0.599,0.457
1890676,-2318.0,7241.0,200.0,0.56,0.347,0.598,0.457
1890692,-2490.0,7193.0,366.0,0.563,0.343,0.597,0.456
1890719,-2636.0,7323.0,650.0,0.566,0.34,0.597,0.455
1890735,-2752.0,7441.0,704.0,0.568,0.336,0.598,0.455
1890751,-2942.0,7301.0,768.0,0.57,0.332,0.599,0.454
1890767,-3116.0,7351.0,930.0,0.571,0.329,0.6,0.453
1890783,-3388.0,7563.0,900.0,0.572,0.325,0.602,0.453
1890799,-3594.0,7571.0,1102.0,0.572,0.321,0.604,0.453
1890825,-3608.0,7373.0,1076.0,0.573,0.318,0.605,0.453
1890841,-4260.0,7555.0,1008.0,0.573,0.315,0.606,0.453
1890857,-4210.0,7573.0,1182.0,0.574,0.313,0.606,0.453
1890873,-4412.0,8073.0,1216.0,0.576,0.31,0.605,0.455
1890889,-4496.0,7147.0,1034.0,0.578,0.307,0.603,0.456
1890905,-4176.0,6843.0,926.0,0.579,0.306,0.601,0.458
1890931,-4032.0,7543.0,752.0,0.581,0.305,0.599,0.459
1890947,-4412.0,7807.0,884.0,0.582,0.305,0.597,0.46
1890963,-4244.0,7599.0,878.0,0.584,0.304,0.594,0.461
1890979,-4050.0,7343.0,776.0,0.586,0.304,0.592,0.462
1890995,-4000.0,7279.0,758.0,0.586,0.303,0.591,0.464
1891011,-4314.0,7131.0,1080.0,0.587,0.303,0.589,0.465
1891028,-4188.0,6961.0,1044.0,0.588,0.303,0.588,0.466
1891054,-4206.0,6913.0,1052.0,0.588,0.303,0.587,0.467
1891070,-4274.0,7041.0,1194.0,0.588,0.303,0.587,0.467
1891086,-4160.0,7067.0,1216.0,0.587,0.304,0.586,0.468
1891102,-4054.0,7113.0,1144.0,0.587,0.304,0.586,0.469
1891118,-3948.0,7113.0,1172.0,0.586,0.305,0.585,0.47
1891144,-3760.0,7065.0,1172.0,0.584,0.307,0.586,0.47
1891160,-3562.0,7227.0,1074.0,0.583,0.309,0.586,0.47
1891176,-3360.0,7255.0,984.0,0.58,0.312,0.588,0.47
1891192,-3254.0,7407.0,1012.0,0.577,0.315,0.589,0.469
1891208,-3126.0,7411.0,1032.0,0.574,0.319,0.591,0.468
1891224,-2906.0,7491.0,816.0,0.57,0.323,0.593,0.467
1891250,-2878.0,7479.0,698.0,0.566,0.327,0.596,0.466
1891266,-2870.0,7197.0,712.0,0.561,0.332,0.598,0.465
1891282,-2824.0,7435.0,470.0,0.557,0.337,0.602,0.464
1891298,-2762.0,7633.0,434.0,0.551,0.342,0.605,0.462
1891314,-2676.0,8169.0,266.0,0.547,0.346,0.607,0.461
1891330,-2602.0,8035.0,216.0,0.542,0.35,0.61,0.461
1891356,-2642.0,7945.0,16.0,0.537,0.353,0.612,0.461
1891372,-2800.0,7691.0,50.0,0.532,0.357,0.614,0.462
1891388,-2750.0,7873.0,-58.0,0.527,0.36,0.615,0.462
1891404,-2698.0,7799.0,-106.0,0.523,0.364,0.616,0.463
1891420,-2602.0,8719.0,-346.0,0.519,0.367,0.616,0.464
1891437,-2520.0,8413.0,-538.0,0.516,0.369,0.616,0.467
1891453,-2608.0,7803.0,-360.0,0.513,0.372,0.614,0.471
1891480,-2728.0,7923.0,-438.0,0.51,0.374,0.613,0.474
1891496,-2632.0,7785.0,-366.0,0.508,0.377,0.611,0.477
1891512,-2526.0,7801.0,-320.0,0.506,0.379,0.608,0.48
1891528,-2366.0,7855.0,-346.0,0.504,0.382,0.605,0.483
1891544,-2236.0,7669.0,-160.0,0.503,0.384,0.602,0.487
1891560,-2182.0,7605.0,20.0,0.501,0.387,0.598,0.49
1891577,-1866.0,7081.0,-112.0,0.499,0.391,0.596,0.493
1891604,-1714.0,6733.0,-190.0,0.496,0.396,0.594,0.494
1891621,-1456.0,7667.0,-386.0,0.492,0.402,0.593,0.495
1891638,-1460.0,7551.0,-326.0,0.489,0.406,0.592,0.495
1891655,-1054.0,8363.0,-486.0,0.485,0.41,0.592,0.496
1891671,-1104.0,8645.0,-350.0,0.482,0.413,0.591,0.497
1891687,-1042.0,7781.0,26.0,0.48,0.414,0.591,0.499
1891703,-974.0,7461.0,-68.0,0.478,0.416,0.59,0.501
1891719,-758.0,6839.0,-272.0,0.475,0.418,0.59,0.501
1891745,-628.0,7491.0,-194.0,0.472,0.42,0.592,0.5
1891762,-596.0,8247.0,-256.0,0.467,0.423,0.595,0.499
1891778,-414.0,8813.0,-670.0,0.463,0.425,0.598,0.498
1891794,-186.0,9221.0,-596.0,0.458,0.427,0.599,0.498
1891811,-506.0,9021.0,-456.0,0.454,0.429,0.601,0.499
1891828,-560.0,8233.0,-536.0,0.45,0.43,0.601,0.501
1891844,-382.0,7903.0,-608.0,0.447,0.431,0.602,0.502
1891860,-956.0,8083.0,-778.0,0.443,0.433,0.603,0.502
1891886,-524.0,8467.0,-550.0,0.44,0.435,0.604,0.502
1891902,-372.0,8893.0,-948.0,0.437,0.436,0.605,0.503
1891918,-168.0,8715.0,-1110.0,0.434,0.438,0.604,0.505
1891934,-238.0,8313.0,-900.0,0.431,0.439,0.604,0.506
1891950,-298.0,8301.0,-768.0,0.429,0.44,0.604,0.508
1891966,-248.0,8603.0,-844.0,0.427,0.44,0.603,0.51
1891993,-228.0,8023.0,-720.0,0.425,0.441,0.602,0.512
1892009,-178.0,8091.0,-804.0,0.423,0.442,0.602,0.513
1892025,20.0,8377.0,-1182.0,0.42,0.443,0.602,0.515
1892041,170.0,8027.0,-1114.0,0.418,0.444,0.602,0.516
1892057,100.0,8105.0,-986.0,0.416,0.444,0.602,0.517
1892073,46.0,8111.0,-1002.0,0.415,0.443,0.603,0.517
1892099,-58.0,8189.0,-1006.0,0.413,0.443,0.604,0.518
1892115,-20.0,8171.0,-1148.0,0.412,0.443,0.605,0.518
1892131,114.0,8165.0,-1188.0,0.411,0.442,0.606,0.517
1892147,154.0,8303.0,-1240.0,0.411,0.442,0.608,0.516
1892163,-8.0,8227.0,-1070.0,0.411,0.441,0.609,0.516
1892179,-164.0,8201.0,-1040.0,0.411,0.44,0.611,0.514
1892205,-140.0,8395.0,-1126.0,0.412,0.439,0.612,0.513
1892221,-82.0,8515.0,-1154.0,0.413,0.438,0.613,0.512
1892237,-140.0,8371.0,-1152.0,0.415,0.437,0.613,0.51
1892253,-168.0,8263.0,-1232.0,0.417,0.436,0.614,0.509
1892269,-126.0,8221.0,-1268.0,0.42,0.434,0.614,0.509
1892285,-334.0,8381.0,-1246.0,0.422,0.431,0.614,0.508
1892311,-390.0,8147.0,-1212.0,0.425,0.429,0.615,0.507
1892327,-414.0,8045.0,-1170.0,0.427,0.426,0.616,0.507
1892343,-558.0,8041.0,-1156.0,0.43,0.423,0.616,0.506
1892359,-640.0,8099.0,-1128.0,0.433,0.419,0.617,0.506
1892375,-798.0,8095.0,-1050.0,0.435,0.416,0.618,0.505
1892391,-918.0,8049.0,-982.0,0.438,0.412,0.619,0.505
1892418,-1100.0,8133.0,-858.0,0.441,0.408,0.62,0.504
1892434,-1232.0,8329.0,-928.0,0.444,0.405,0.621,0.504
1892450,-1256.0,8145.0,-910.0,0.446,0.401,0.622,0.504
1892466,-1448.0,7827.0,-726.0,0.448,0.397,0.623,0.503
1892482,-1462.0,7759.0,-694.0,0.45,0.394,0.624,0.503
1892498,-1454.0,8285.0,-856.0,0.452,0.391,0.625,0.502
1892524,-1406.0,8939.0,-920.0,0.454,0.387,0.626,0.502
1892540,-1572.0,8471.0,-902.0,0.457,0.382,0.625,0.504
1892556,-2110.0,7601.0,-482.0,0.46,0.377,0.625,0.506
1892572,-2188.0,7665.0,-190.0,0.463,0.373,0.624,0.507
1892588,-2096.0,7789.0,-276.0,0.466,0.37,0.624,0.507
1892604,-2084.0,7731.0,-308.0,0.468,0.368,0.623,0.507
1892630,-1812.0,9145.0,-650.0,0.472,0.364,0.622,0.508
1892646,-1796.0,8763.0,-546.0,0.477,0.36,0.619,0.51
1892662,-2022.0,7753.0,-430.0,0.481,0.355,0.616,0.514
1892678,-2108.0,6989.0,-128.0,0.484,0.35,0.613,0.516
1892695,-2232.0,7117.0,-68.0,0.488,0.347,0.612,0.517
1892711,-2246.0,7861.0,18.0,0.491,0.344,0.611,0.517
1892737,-2182.0,7619.0,162.0,0.494,0.342,0.609,0.517
1892753,-2208.0,7663.0,90.0,0.497,0.34,0.608,0.517
1892769,-2296.0,7417.0,148.0,0.5,0.339,0.607,0.516
1892785,-2364.0,7295.0,408.0,0.502,0.339,0.607,0.514
1892801,-2288.0,7289.0,272.0,0.504,0.34,0.608,0.511
1892817,-2300.0,7595.0,138.0,0.506,0.341,0.609,0.508
1892843,-2170.0,8055.0,152.0,0.508,0.341,0.609,0.504
1892859,-2158.0,8057.0,174.0,0.51,0.341,0.61,0.502
1892875,-2314.0,8345.0,346.0,0.513,0.34,0.609,0.5
1892892,-2452.0,8211.0,448.0,0.516,0.338,0.609,0.498
1892908,-2432.0,8333.0,578.0,0.52,0.336,0.607,0.498
1892924,-2378.0,7927.0,648.0,0.525,0.334,0.604,0.498
1892940,-2386.0,7649.0,610.0,0.529,0.331,0.602,0.498
1892966,-2382.0,7523.0,576.0,0.534,0.328,0.6,0.498
1892982,-2438.0,8217.0,686.0,0.538,0.325,0.598,0.498
1892998,-2760.0,8105.0,1012.0,0.542,0.321,0.595,0.499
1893014,-2900.0,7583.0,982.0,0.546,0.317,0.592,0.501
1893030,-3170.0,7629.0,1202.0,0.551,0.314,0.588,0.502
1893049,-3316.0,7207.0,1370.0,0.555,0.311,0.585,0.504
1893065,-3376.0,7397.0,1408.0,0.559,0.308,0.582,0.505
1893091,-3492.0,7581.0,1496.0,0.562,0.306,0.579,0.506
1893107,-3836.0,7279.0,1662.0,0.565,0.304,0.576,0.507
1893123,-3846.0,7223.0,1696.0,0.567,0.303,0.573,0.508
1893139,-3730.0,7233.0,1726.0,0.568,0.303,0.571,0.509
1893155,-3596.0,6859.0,1658.0,0.569,0.303,0.57,0.51
1893171,-3540.0,7029.0,1642.0,0.568,0.303,0.57,0.51
1893197,-3438.0,7165.0,1710.0,0.567,0.305,0.57,0.51
1893213,-3430.0,7163.0,1714.0,0.565,0.307,0.571,0.511
1893229,-3152.0,7051.0,1574.0,0.562,0.309,0.573,0.511
1893245,-3076.0,7249.0,1492.0,0.559,0.312,0.575,0.51
1893261,-2938.0,7499.0,1476.0,0.555,0.315,0.577,0.51
1893278,-2880.0,7781.0,1438.0,0.551,0.319,0.578,0.51
1893294,-2846.0,7811.0,1298.0,0.547,0.323,0.58,0.51
1893320,-2502.0,7375.0,1114.0,0.543,0.327,0.581,0.51
1893336,-2360.0,7417.0,1040.0,0.539,0.331,0.583,0.51
1893352,-2218.0,7727.0,914.0,0.534,0.336,0.585,0.51
1893368,-2256.0,7881.0,866.0,0.53,0.341,0.586,0.509
1893384,-2072.0,7631.0,676.0,0.525,0.345,0.588,0.509
1893400,-1930.0,7563.0,528.0,0.52,0.349,0.591,0.508
1893427,-1788.0,7783.0,448.0,0.515,0.353,0.593,0.507
1893443,-1796.0,7941.0,276.0,0.51,0.357,0.596,0.507
1893459,-1844.0,8729.0,58.0,0.505,0.361,0.598,0.507
1893475,-1992.0,8845.0,56.0,0.5,0.363,0.599,0.509
1893491,-1950.0,8185.0,136.0,0.496,0.365,0.6,0.511
1893507,-1886.0,7697.0,160.0,0.491,0.367,0.601,0.513
1893533,-1928.0,8479.0,-168.0,0.487,0.369,0.601,0.515
1893549,-1786.0,8293.0,-140.0,0.483,0.371,0.6,0.519
1893565,-1712.0,8419.0,-106.0,0.479,0.372,0.599,0.523
1893581,-1710.0,7949.0,8.0,0.476,0.374,0.597,0.527
1893597,-1864.0,7903.0,158.0,0.472,0.377,0.595,0.53
1893613,-1562.0,8103.0,34.0,0.469,0.38,0.592,0.533
1893639,-1244.0,7901.0,-32.0,0.466,0.383,0.59,0.536
1893655,-1110.0,7701.0,90.0,0.463,0.387,0.587,0.539
1893671,-1016.0,7103.0,62.0,0.46,0.392,0.586,0.54
1893687,-724.0,6949.0,-144.0,0.456,0.397,0.586,0.54
1893703,-482.0,7769.0,-286.0,0.45,0.403,0.587,0.538
1893719,-358.0,7913.0,-394.0,0.445,0.409,0.589,0.537
1893745,-216.0,8141.0,-682.0,0.439,0.414,0.591,0.535
1893761,-6.0,8419.0,-958.0,0.434,0.417,0.593,0.534
1893777,260.0,8337.0,-870.0,0.429,0.42,0.596,0.533
1893794,204.0,7947.0,-698.0,0.424,0.422,0.599,0.533
1893810,-2.0,8057.0,-700.0,0.419,0.424,0.602,0.532
1893826,186.0,8559.0,-822.0,0.414,0.426,0.605,0.531
1893843,224.0,8793.0,-1098.0,0.41,0.427,0.607,0.53
1893870,290.0,8585.0,-988.0,0.406,0.429,0.609,0.529
1893886,234.0,8783.0,-958.0,0.404,0.43,0.61,0.529
1893902,234.0,8457.0,-826.0,0.402,0.431,0.611,0.528
1893918,282.0,8497.0,-926.0,0.4,0.432,0.612,0.528
1893934,376.0,8787.0,-1048.0,0.4,0.432,0.612,0.528
1893950,358.0,8427.0,-998.0,0.399,0.432,0.613,0.528
1893976,158.0,8265.0,-822.0,0.4,0.432,0.613,0.528
1893992,254.0,8207.0,-930.0,0.4,0.431,0.613,0.527
1894008,376.0,8697.0,-1148.0,0.401,0.431,0.613,0.527
1894024,234.0,8607.0,-1062.0,0.402,0.43,0.613,0.526
1894040,148.0,8361.0,-984.0,0.404,0.428,0.613,0.526
1894056,162.0,8425.0,-998.0,0.406,0.427,0.613,0.526
1894082,80.0,8503.0,-1020.0,0.409,0.425,0.612,0.527
1894099,-46.0,7871.0,-916.0,0.411,0.422,0.612,0.527
1894115,-178.0,7973.0,-832.0,0.413,0.42,0.612,0.527
1894131,-202.0,8103.0,-884.0,0.416,0.419,0.612,0.526
1894147,-232.0,8331.0,-910.0,0.418,0.417,0.613,0.526
1894163,-304.0,8351.0,-942.0,0.42,0.415,0.613,0.525
1894179,-500.0,8113.0,-836.0,0.423,0.412,0.613,0.525
1894205,-554.0,7803.0,-804.0,0.425,0.409,0.613,0.525
1894221,-680.0,7861.0,-712.0,0.427,0.406,0.614,0.524
1894237,-786.0,7679.0,-642.0,0.429,0.404,0.616,0.523
1894253,-828.0,7901.0,-640.0,0.431,0.401,0.618,0.522
1894269,-996.0,8085.0,-668.0,0.432,0.399,0.62,0.52
1894295,-1068.0,8357.0,-786.0,0.434,0.396,0.621,0.518
1894312,-1126.0,8179.0,-770.0,0.436,0.394,0.623,0.517
1894328,-1312.0,8051.0,-626.0,0.437,0.391,0.625,0.516
1894344,-1366.0,7675.0,-576.0,0.439,0.388,0.626,0.514
1894360,-1498.0,7811.0,-472.0,0.44,0.387,0.628,0.512
1894376,-1536.0,7901.0,-582.0,0.44,0.385,0.631,0.51
1894392,-1576.0,8169.0,-648.0,0.441,0.383,0.633,0.508
1894409,-1674.0,8259.0,-634.0,0.442,0.382,0.635,0.506
1894435,-1538.0,8521.0,-808.0,0.442,0.379,0.637,0.505
1894452,-1688.0,8299.0,-744.0,0.443,0.376,0.638,0.505
1894468,-1698.0,7803.0,-586.0,0.444,0.373,0.639,0.505
1894484,-1840.0,7951.0,-542.0,0.445,0.37,0.64,0.505
1894500,-1800.0,8021.0,-608.0,0.445,0.367,0.641,0.505
1894516,-1694.0,8339.0,-898.0,0.446,0.364,0.643,0.506
1894542,-1666.0,7947.0,-728.0,0.447,0.361,0.644,0.506
1894558,-1980.0,7359.0,-542.0,0.447,0.358,0.645,0.506
1894574,-1874.0,7789.0,-430.0,0.447,0.356,0.647,0.505
1894590,-1714.0,8319.0,-552.0,0.448,0.355,0.648,0.503
1894606,-1404.0,10177.0,-992.0,0.449,0.353,0.648,0.503
1894622,-1690.0,9695.0,-926.0,0.452,0.348,0.646,0.506
1894648,-1854.0,6723.0,-392.0,0.456,0.344,0.643,0.51
1894664,-1668.0,5671.0,-762.0,0.458,0.34,0.642,0.512
1894680,-1750.0,6815.0,-846.0,0.461,0.338,0.643,0.511
1894696,-1956.0,7481.0,-798.0,0.463,0.336,0.643,0.509
1894712,-2072.0,7693.0,-758.0,0.465,0.333,0.644,0.508
1894728,-2346.0,7863.0,-744.0,0.467,0.331,0.645,0.507
1894754,-2572.0,7931.0,-732.0,0.469,0.328,0.646,0.505
1894770,-2702.0,7939.0,-608.0,0.471,0.325,0.646,0.504
1894786,-2834.0,7619.0,-644.0,0.474,0.323,0.646,0.503
1894802,-3122.0,7717.0,-598.0,0.477,0.321,0.646,0.502
1894819,-3408.0,7787.0,-394.0,0.48,0.319,0.646,0.501
1894835,-3562.0,8055.0,-302.0,0.483,0.318,0.645,0.499
1894861,-3666.0,7885.0,-318.0,0.486,0.317,0.644,0.499
1894877,-3716.0,7821.0,-234.0,0.489,0.316,0.643,0.498
1894893,-3902.0,7649.0,2.0,0.492,0.315,0.641,0.498
1894909,-3866.0,7677.0,122.0,0.494,0.315,0.639,0.498
1894925,-3762.0,7643.0,46.0,0.496,0.314,0.637,0.499
1894942,-3728.0,7449.0,242.0,0.498,0.314,0.635,0.5
1894958,-3630.0,7489.0,272.0,0.499,0.315,0.634,0.5
1894985,-3542.0,7421.0,302.0,0.499,0.316,0.633,0.501
1895001,-3360.0,7499.0,276.0,0.499,0.317,0.632,0.501
1895017,-3148.0,7481.0,236.0,0.499,0.318,0.631,0.502
1895033,-3004.0,7471.0,186.0,0.498,0.32,0.63,0.502
1895049,-2864.0,7517.0,218.0,0.496,0.323,0.63,0.503
1895067,-2596.0,7869.0,106.0,0.494,0.325,0.63,0.503
1895083,-2504.0,7645.0,102.0,0.492,0.328,0.63,0.504
1895109,-2294.0,7715.0,46.0,0.49,0.331,0.63,0.504
1895125,-2288.0,7789.0,84.0,0.487,0.334,0.63,0.504
1895141,-2112.0,7849.0,-10.0,0.484,0.337,0.63,0.504
1895157,-1986.0,8469.0,-194.0,0.481,0.341,0.63,0.505
1895174,-1926.0,7983.0,-108.0,0.478,0.344,0.63,0.506
1895191,-2024.0,7867.0,-128.0,0.476,0.347,0.629,0.507
1895208,-1834.0,7881.0,-260.0,0.473,0.351,0.629,0.508
1895224,-1804.0,7879.0,-278.0,0.47,0.355,0.628,0.509
1895250,-1710.0,8137.0,-340.0,0.467,0.358,0.627,0.511
1895266,-1546.0,7997.0,-446.0,0.463,0.361,0.626,0.512
1895282,-1530.0,8055.0,-440.0,0.46,0.364,0.625,0.514
1895298,-1522.0,8139.0,-328.0,0.456,0.367,0.625,0.516
1895314,-1592.0,8111.0,-416.0,0.453,0.37,0.624,0.518
1895330,-1610.0,8165.0,-356.0,0.45,0.372,0.623,0.52
1895356,-1408.0,7649.0,-616.0,0.447,0.374,0.622,0.522
1895372,-1228.0,7841.0,-726.0,0.444,0.376,0.622,0.524
1895388,-1152.0,7969.0,-644.0,0.441,0.378,0.621,0.526
1895404,-1160.0,7739.0,-600.0,0.438,0.38,0.621,0.527
1895420,-1086.0,7599.0,-604.0,0.435,0.382,0.621,0.528
1895436,-952.0,7873.0,-548.0,0.432,0.385,0.621,0.528
1895462,-900.0,7983.0,-594.0,0.43,0.388,0.622,0.527
1895478,-522.0,8799.0,-966.0,0.427,0.391,0.622,0.526
1895494,-532.0,8769.0,-806.0,0.425,0.393,0.622,0.527
1895510,-612.0,8045.0,-596.0,0.423,0.395,0.621,0.528
1895527,-540.0,7951.0,-652.0,0.421,0.397,0.621,0.529
1895543,-568.0,8197.0,-734.0,0.419,0.399,0.621,0.529
1895560,-590.0,8089.0,-644.0,0.417,0.401,0.621,0.53
1895586,-418.0,8071.0,-746.0,0.415,0.403,0.621,0.53
1895602,-204.0,8369.0,-942.0,0.413,0.405,0.621,0.53
1895618,-248.0,8437.0,-912.0,0.411,0.406,0.62,0.531
1895634,-506.0,8033.0,-690.0,0.409,0.407,0.62,0.531
1895650,-426.0,8013.0,-694.0,0.407,0.409,0.62,0.532
1895666,-474.0,8015.0,-718.0,0.405,0.41,0.62,0.532
1895692,-538.0,8241.0,-858.0,0.404,0.412,0.62,0.532
1895708,-468.0,8187.0,-846.0,0.402,0.413,0.62,0.532
1895724,-262.0,8499.0,-994.0,0.401,0.415,0.62,0.532
1895741,-188.0,8687.0,-1068.0,0.399,0.416,0.62,0.532
1895757,-198.0,8221.0,-876.0,0.398,0.417,0.619,0.534
1895773,-96.0,8169.0,-896.0,0.397,0.418,0.618,0.535
1895799,-170.0,8173.0,-884.0,0.396,0.418,0.617,0.536
1895815,-142.0,8111.0,-878.0,0.395,0.419,0.616,0.537
1895831,-2.0,8061.0,-828.0,0.395,0.42,0.616,0.537
1895847,8.0,8495.0,-988.0,0.394,0.42,0.615,0.538
1895863,2.0,8351.0,-994.0,0.394,0.42,0.615,0.539
1895879,-24.0,8157.0,-922.0,0.394,0.42,0.614,0.54
1895905,68.0,8171.0,-1034.0,0.394,0.42,0.614,0.54
1895921,112.0,8199.0,-1096.0,0.394,0.419,0.613,0.541
1895937,58.0,8021.0,-1040.0,0.395,0.419,0.613,0.542
1895953,98.0,8271.0,-1012.0,0.396,0.418,0.613,0.542
1895969,28.0,8419.0,-916.0,0.397,0.416,0.612,0.543
1895985,-16.0,8295.0,-866.0,0.398,0.415,0.612,0.543
1896002,28.0,8159.0,-850.0,0.399,0.414,0.612,0.544
1896028,26.0,8295.0,-820.0,0.401,0.412,0.611,0.544
1896044,-46.0,8347.0,-796.0,0.403,0.41,0.611,0.544
1896060,-114.0,8115.0,-782.0,0.405,0.409,0.61,0.545
1896076,-188.0,8231.0,-742.0,0.407,0.407,0.61,0.545
1896093,-196.0,8407.0,-744.0,0.41,0.404,0.61,0.545
1896109,-238.0,8321.0,-726.0,0.413,0.402,0.609,0.545
1896126,-318.0,8125.0,-912.0,0.417,0.398,0.609,0.545
1896153,-386.0,7937.0,-478.0,0.42,0.394,0.608,0.545
1896169,-758.0,8779.0,-258.0,0.424,0.39,0.608,0.546
1896185,-900.0,8997.0,-356.0,0.428,0.387,0.607,0.547
1896201,-762.0,8171.0,-446.0,0.432,0.383,0.606,0.548
1896217,-700.0,7905.0,-202.0,0.436,0.379,0.605,0.549
1896233,-814.0,8273.0,-160.0,0.439,0.375,0.604,0.55
1896259,-910.0,8267.0,-112.0,0.443,0.372,0.602,0.551
1896275,-1052.0,7977.0,102.0,0.446,0.368,0.601,0.552
1896291,-1180.0,8229.0,100.0,0.45,0.365,0.599,0.553
1896307,-1110.0,8195.0,124.0,0.453,0.362,0.598,0.553
1896324,-1208.0,8197.0,180.0,0.457,0.359,0.597,0.554
1896340,-1218.0,7905.0,322.0,0.46,0.355,0.595,0.555
1896356,-1342.0,7949.0,332.0,0.463,0.352,0.594,0.555
1896382,-1324.0,8079.0,288.0,0.467,0.349,0.593,0.555
1896398,-1382.0,8041.0,510.0,0.47,0.346,0.592,0.555
1896414,-1370.0,8039.0,536.0,0.474,0.343,0.591,0.555
1896430,-1386.0,8145.0,490.0,0.478,0.34,0.591,0.555
1896446,-1222.0,7817.0,474.0,0.482,0.337,0.59,0.554
1896472,-1424.0,7985.0,576.0,0.485,0.333,0.589,0.554
1896488,-1438.0,8033.0,646.0,0.489,0.329,0.589,0.553
1896504,-1606.0,8747.0,898.0,0.494,0.325,0.588,0.552
1896520,-1672.0,8609.0,1010.0,0.499,0.32,0.586,0.553
1896536,-1374.0,8055.0,1036.0,0.503,0.315,0.585,0.553
1896552,-1100.0,7871.0,836.0,0.507,0.309,0.584,0.553
1896578,-1578.0,7213.0,1200.0,0.51,0.304,0.584,0.553
1896594,-1892.0,7809.0,1214.0,0.513,0.299,0.585,0.552
1896610,-2094.0,7591.0,1240.0,0.517,0.294,0.585,0.551
1896626,-2466.0,7857.0,1538.0,0.52,0.289,0.586,0.55
1896642,-2680.0,8037.0,1640.0,0.524,0.285,0.585,0.548
1896659,-2898.0,8055.0,1684.0,0.529,0.281,0.585,0.547
1896676,-2782.0,8069.0,1700.0,0.533,0.278,0.583,0.546
1896693,-2858.0,8165.0,1782.0,0.538,0.274,0.582,0.545
1896719,-2692.0,8253.0,1760.0,0.543,0.271,0.579,0.544
1896735,-2514.0,8007.0,1790.0,0.547,0.268,0.577,0.544
1896751,-2514.0,8119.0,1908.0,0.551,0.264,0.574,0.544
1896767,-2388.0,8231.0,1850.0,0.555,0.26,0.572,0.545
1896783,-2392.0,7855.0,2072.0,0.559,0.256,0.57,0.545
1896799,-2420.0,7937.0,2152.0,0.562,0.252,0.569,0.545
1896825,-2798.0,8165.0,2488.0,0.566,0.249,0.567,0.544
1896841,-2906.0,8157.0,2690.0,0.57,0.247,0.566,0.543
1896857,-3032.0,8999.0,2990.0,0.574,0.244,0.564,0.541
1896874,-2996.0,8673.0,3056.0,0.578,0.242,0.561,0.541
1896891,-3374.0,7407.0,3298.0,0.582,0.239,0.558,0.541
1896907,-3420.0,8201.0,3712.0,0.587,0.235,0.555,0.541
1896924,-3404.0,8299.0,3754.0,0.591,0.23,0.552,0.542
1896940,-3402.0,7697.0,3812.0,0.595,0.224,0.548,0.543
1896967,-3338.0,7997.0,3838.0,0.6,0.217,0.546,0.543
1896983,-3540.0,7701.0,3796.0,0.603,0.207,0.545,0.545
1896999,-3756.0,7867.0,3686.0,0.607,0.196,0.544,0.546
1897015,-3906.0,7481.0,3654.0,0.61,0.184,0.543,0.548
1897031,-3734.0,7275.0,3284.0,0.612,0.171,0.542,0.549
1897047,-4154.0,7235.0,3326.0,0.615,0.157,0.542,0.55
1897066,-4256.0,7609.0,3186.0,0.618,0.143,0.542,0.551
1897082,-4546.0,7049.0,3324.0,0.621,0.129,0.542,0.551
1897108,-4626.0,7183.0,3224.0,0.625,0.115,0.542,0.55
1897125,-4794.0,6715.0,3220.0,0.628,0.101,0.541,0.549
1897141,-5026.0,6859.0,3126.0,0.633,0.087,0.541,0.548
1897158,-5144.0,6419.0,3178.0,0.637,0.074,0.539,0.546
1897174,-5022.0,6081.0,3012.0,0.641,0.06,0.538,0.544
1897190,-5262.0,5915.0,2962.0,0.646,0.045,0.537,0.541
1897207,-5472.0,5757.0,2914.0,0.65,0.031,0.535,0.538
1897233,-5642.0,5361.0,2926.0,0.655,0.017,0.534,0.535
1897249,-5872.0,5265.0,2916.0,0.659,0.002,0.532,0.532
1897265,-6012.0,4873.0,2946.0,0.663,-0.013,0.529,0.529
1897281,-6174.0,4593.0,2900.0,0.667,-0.028,0.526,0.527
1897297,-6226.0,4421.0,3066.0,0.671,-0.043,0.523,0.524
1897313,-6456.0,3847.0,3222.0,0.675,-0.058,0.519,0.521
1897339,-6294.0,3709.0,3218.0,0.679,-0.072,0.515,0.518
1897355,-6334.0,3731.0,3138.0,0.684,-0.087,0.51,0.515
1897371,-6334.0,3599.0,3176.0,0.687,-0.102,0.505,0.512
1897387,-6366.0,3093.0,3272.0,0.691,-0.117,0.499,0.51
1897403,-6154.0,3093.0,3304.0,0.695,-0.131,0.493,0.507
1897419,-6132.0,2761.0,3252.0,0.698,-0.147,0.487,0.505
1897445,-6052.0,2399.0,3286.0,0.7,-0.162,0.48,0.502
1897461,-6020.0,2029.0,3244.0,0.703,-0.178,0.474,0.5
1897477,-5934.0,1809.0,3226.0,0.704,-0.194,0.468,0.497
1897493,-5996.0,1703.0,3158.0,0.705,-0.21,0.463,0.494
1897509,-6028.0,1645.0,3158.0,0.706,-0.226,0.457,0.492
1897526,-5938.0,1099.0,3120.0,0.706,-0.242,0.451,0.489
1897542,-5888.0,493.0,3016.0,0.706,-0.258,0.445,0.487
1897569,-5982.0,719.0,3034.0,0.705,-0.274,0.44,0.484
1897585,-5784.0,225.0,2884.0,0.704,-0.29,0.434,0.482
1897601,-5834.0,103.0,2914.0,0.702,-0.306,0.428,0.479
1897617,-5890.0,-75.0,2742.0,0.7,-0.321,0.422,0.477
1897633,-5892.0,-309.0,2596.0,0.698,-0.336,0.417,0.475
1897649,-5888.0,-601.0,2428.0,0.695,-0.351,0.412,0.473
1897675,-6000.0,-785.0,2330.0,0.693,-0.364,0.408,0.47
1897692,-6106.0,-529.0,2224.0,0.69,-0.377,0.403,0.468
1897709,-6286.0,-995.0,1924.0,0.687,-0.39,0.398,0.467
1897726,-6368.0,-1451.0,2120.0,0.684,-0.402,0.393,0.465
1897742,-6162.0,-1753.0,1758.0,0.681,-0.413,0.388,0.463
1897759,-6420.0,-1821.0,1758.0,0.679,-0.424,0.384,0.461
1897775,-6642.0,-1829.0,1714.0,0.676,-0.433,0.379,0.46
1897791,-6868.0,-2349.0,1672.0,0.674,-0.442,0.374,0.458
1897808,-7154.0,-2683.0,1670.0,0.672,-0.45,0.37,0.457
1897835,-7270.0,-3109.0,1576.0,0.67,-0.457,0.365,0.456
1897852,-7562.0,-3447.0,1604.0,0.669,-0.463,0.36,0.455
1897869,-7860.0,-3659.0,1620.0,0.669,-0.468,0.356,0.454
1897885,-7174.0,-2647.0,2604.0,0.669,-0.472,0.352,0.453
1897901,-8316.0,-3659.0,1542.0,0.669,-0.475,0.348,0.454
1897917,-8426.0,-3815.0,1458.0,0.668,-0.478,0.344,0.454
1897933,-8746.0,-4173.0,1718.0,0.668,-0.48,0.339,0.456
1897959,-9056.0,-4151.0,2026.0,0.668,-0.481,0.334,0.459
1897975,-9382.0,-4133.0,2090.0,0.669,-0.481,0.329,0.461
1897992,-8938.0,-4227.0,1998.0,0.67,-0.48,0.323,0.465
1898009,-9076.0,-3885.0,2262.0,0.672,-0.481,0.317,0.467
1898025,-9880.0,-3369.0,3058.0,0.673,-0.481,0.31,0.469
1898042,-9916.0,-3729.0,3250.0,0.673,-0.482,0.303,0.472
1898059,-9770.0,-4279.0,3510.0,0.673,-0.484,0.296,0.474
1898075,-9646.0,-4151.0,3852.0,0.674,-0.486,0.29,0.475
1898092,-9206.0,-3755.0,3952.0,0.673,-0.491,0.284,0.476
1898109,-9226.0,-4217.0,4214.0,0.671,-0.496,0.278,0.475
1898135,-8830.0,-4017.0,3964.0,0.67,-0.503,0.274,0.472
1898151,-8748.0,-3609.0,3978.0,0.667,-0.511,0.27,0.47
1898168,-8694.0,-3359.0,4170.0,0.663,-0.521,0.267,0.467
1898185,-8822.0,-3345.0,4098.0,0.657,-0.53,0.264,0.466
1898201,-7518.0,-4049.0,2512.0,0.651,-0.541,0.261,0.465
1898217,-7160.0,-4363.0,2588.0,0.645,-0.552,0.259,0.461
1898233,-7546.0,-3767.0,2948.0,0.639,-0.562,0.258,0.458
1898259,-7676.0,-2885.0,2546.0,0.632,-0.572,0.257,0.455
1898275,-7638.0,-2897.0,2280.0,0.624,-0.581,0.257,0.455
1898292,-7258.0,-4203.0,1744.0,0.616,-0.589,0.257,0.456
1898309,-5018.0,-4753.0,-1272.0,0.608,-0.598,0.257,0.455
1898326,-6098.0,-4233.0,-2.0,0.601,-0.608,0.258,0.45
1898342,-7820.0,-3417.0,830.0,0.594,-0.618,0.259,0.446
1898359,-7626.0,-3641.0,884.0,0.586,-0.626,0.259,0.445
1898375,-7038.0,-4455.0,670.0,0.578,-0.632,0.259,0.447
1898392,-7198.0,-4347.0,740.0,0.571,-0.636,0.26,0.449
1898418,-7004.0,-3969.0,462.0,0.566,-0.639,0.261,0.452
1898434,-6976.0,-4039.0,604.0,0.56,-0.64,0.262,0.456
1898450,-7088.0,-4441.0,460.0,0.556,-0.641,0.263,0.46
1898466,-6770.0,-3921.0,408.0,0.553,-0.64,0.265,0.463
1898482,-7038.0,-3115.0,482.0,0.551,-0.638,0.267,0.467
1898498,-7128.0,-3117.0,254.0,0.549,-0.636,0.268,0.472
1898524,-7166.0,-2495.0,794.0,0.548,-0.632,0.27,0.477
1898541,-6850.0,-2555.0,510.0,0.547,-0.628,0.272,0.483
1898558,-6468.0,-2615.0,272.0,0.545,-0.624,0.272,0.489
1898575,-5974.0,-3333.0,-138.0,0.543,-0.62,0.274,0.495
1898592,-5800.0,-2705.0,308.0,0.542,-0.617,0.275,0.5
1898609,-5696.0,-1979.0,472.0,0.541,-0.614,0.278,0.503
1898625,-5892.0,-2849.0,186.0,0.539,-0.611,0.281,0.507
1898642,-5468.0,-1847.0,288.0,0.537,-0.608,0.284,0.511
1898659,-5656.0,-2827.0,-36.0,0.534,-0.607,0.288,0.514
1898675,-5676.0,-2873.0,226.0,0.531,-0.605,0.291,0.517
1898702,-5960.0,-3241.0,260.0,0.528,-0.604,0.295,0.519
1898718,-6360.0,-3185.0,-44.0,0.525,-0.604,0.299,0.52
1898734,-6434.0,-3385.0,-22.0,0.523,-0.602,0.302,0.522
1898750,-6496.0,-3467.0,-436.0,0.521,-0.602,0.306,0.522
1898766,-6768.0,-2883.0,-100.0,0.518,-0.601,0.309,0.525
1898782,-5978.0,-2583.0,162.0,0.515,-0.599,0.312,0.528
1898808,-5302.0,-2361.0,268.0,0.512,-0.597,0.315,0.531
1898825,-4268.0,-1447.0,518.0,0.51,-0.594,0.316,0.536
1898842,-2904.0,-2089.0,580.0,0.508,-0.592,0.316,0.539
1898859,-2020.0,-2149.0,534.0,0.508,-0.592,0.315,0.54
1898875,-1956.0,-2827.0,446.0,0.51,-0.593,0.314,0.538
1898892,-1670.0,-2427.0,784.0,0.514,-0.595,0.312,0.533
1898908,-1392.0,-1471.0,634.0,0.519,-0.599,0.31,0.525
1898925,-2648.0,-3483.0,184.0,0.524,-0.602,0.309,0.517
1898942,-3102.0,-1421.0,514.0,0.532,-0.605,0.309,0.505
1898968,-3900.0,-889.0,118.0,0.536,-0.611,0.307,0.495
1898984,-6084.0,-2927.0,396.0,0.539,-0.615,0.306,0.488
1899000,-6248.0,-2955.0,128.0,0.542,-0.618,0.304,0.481
1899016,-6050.0,-2967.0,-18.0,0.545,-0.621,0.301,0.476
1899032,-6156.0,-4659.0,-664.0,0.549,-0.623,0.298,0.471
1899048,-7152.0,-3231.0,-214.0,0.553,-0.625,0.295,0.465
1899074,-7892.0,-4025.0,158.0,0.558,-0.626,0.292,0.46
1899090,-8528.0,-2961.0,694.0,0.563,-0.626,0.289,0.456
1899107,-7886.0,-3533.0,372.0,0.567,-0.625,0.285,0.454
1899123,-7792.0,-3335.0,666.0,0.572,-0.624,0.281,0.452
1899140,-7574.0,-4073.0,980.0,0.577,-0.623,0.277,0.45
1899157,-7720.0,-3041.0,1150.0,0.583,-0.621,0.273,0.447
1899174,-7740.0,-4413.0,998.0,0.589,-0.619,0.271,0.444
1899191,-8200.0,-3135.0,1156.0,0.594,-0.617,0.269,0.441
1899208,-7850.0,-3369.0,1094.0,0.599,-0.615,0.267,0.439
1899224,-7874.0,-3291.0,1090.0,0.602,-0.613,0.265,0.437
1899251,-8186.0,-4695.0,1296.0,0.606,-0.612,0.264,0.435
1899267,-7778.0,-4059.0,1262.0,0.61,-0.61,0.262,0.434
1899283,-7542.0,-3985.0,1290.0,0.613,-0.608,0.26,0.432
1899299,-7824.0,-3773.0,1548.0,0.616,-0.607,0.259,0.431
1899315,-7676.0,-4735.0,1536.0,0.618,-0.605,0.257,0.43
1899331,-7760.0,-4143.0,1552.0,0.621,-0.603,0.255,0.43
1899357,-7220.0,-4351.0,1364.0,0.623,-0.602,0.253,0.43
1899374,-7410.0,-4327.0,1554.0,0.625,-0.6,0.252,0.431
1899390,-7332.0,-4235.0,1766.0,0.628,-0.598,0.25,0.431
1899407,-6670.0,-4323.0,1518.0,0.63,-0.595,0.249,0.432
1899424,-6962.0,-3927.0,1736.0,0.632,-0.593,0.248,0.433
1899440,-7250.0,-4073.0,1970.0,0.633,-0.591,0.247,0.434
1899457,-7028.0,-4685.0,1800.0,0.634,-0.589,0.246,0.435
1899474,-7560.0,-4577.0,1858.0,0.636,-0.587,0.246,0.436
1899491,-8280.0,-4783.0,2002.0,0.637,-0.585,0.246,0.437
1899508,-8640.0,-5743.0,1900.0,0.638,-0.583,0.247,0.439
1899525,-9348.0,-5721.0,1874.0,0.64,-0.58,0.247,0.439
1899551,-9828.0,-5501.0,1602.0,0.64,-0.578,0.247,0.441
1899567,-10378.0,-7407.0,1868.0,0.641,-0.577,0.247,0.442
1899583,-10920.0,-6631.0,1856.0,0.642,-0.577,0.245,0.442
1899600,-11980.0,-7569.0,2588.0,0.642,-0.578,0.243,0.442
1899616,-11952.0,-7565.0,2692.0,0.642,-0.578,0.241,0.442
1899633,-11786.0,-7247.0,2866.0,0.641,-0.58,0.238,0.443
1899649,-11182.0,-7433.0,2778.0,0.64,-0.581,0.236,0.443
1899675,-10498.0,-6655.0,2448.0,0.639,-0.584,0.235,0.443
1899691,-10388.0,-5991.0,2496.0,0.637,-0.587,0.234,0.442
1899707,-9732.0,-6057.0,2210.0,0.634,-0.591,0.233,0.441
1899724,-9140.0,-5209.0,1912.0,0.631,-0.595,0.233,0.439
1899741,-9030.0,-4901.0,1972.0,0.627,-0.6,0.233,0.438
1899758,-8050.0,-5125.0,1332.0,0.623,-0.605,0.233,0.437
1899775,-7712.0,-4903.0,1108.0,0.619,-0.611,0.234,0.435
1899791,-8052.0,-4413.0,1270.0,0.615,-0.616,0.235,0.433
1899818,-7548.0,-4233.0,958.0,0.61,-0.621,0.236,0.432
1899835,-7428.0,-4177.0,916.0,0.605,-0.625,0.238,0.432
1899852,-6982.0,-4159.0,492.0,0.6,-0.63,0.239,0.432
1899868,-7202.0,-4125.0,432.0,0.595,-0.633,0.241,0.433
1899884,-7070.0,-4377.0,468.0,0.59,-0.637,0.243,0.434
1899901,-7034.0,-4361.0,366.0,0.586,-0.638,0.244,0.435
1899917,-6754.0,-3931.0,350.0,0.582,-0.64,0.246,0.437
1899934,-7286.0,-4029.0,432.0,0.579,-0.64,0.248,0.439
1899950,-7696.0,-4289.0,504.0,0.576,-0.64,0.25,0.442
1899976,-7078.0,-4579.0,558.0,0.574,-0.639,0.253,0.445
1899992,-7292.0,-3873.0,606.0,0.572,-0.637,0.256,0.448
1900008,-6664.0,-3733.0,806.0,0.57,-0.635,0.26,0.452
1900025,-5906.0,-3919.0,406.0,0.569,-0.632,0.264,0.456
1900041,-6616.0,-3493.0,668.0,0.568,-0.628,0.269,0.459
1900058,-6022.0,-3823.0,690.0,0.568,-0.624,0.272,0.463
1900074,-5372.0,-1485.0,-56.0,0.567,-0.62,0.277,0.467
1900100,-5702.0,-4097.0,328.0,0.565,-0.616,0.281,0.472
1900116,-6076.0,-3849.0,494.0,0.565,-0.611,0.285,0.476
1900132,-5848.0,-2873.0,198.0,0.566,-0.606,0.288,0.48
1900148,-6142.0,-3767.0,46.0,0.566,-0.6,0.291,0.484
1900164,-6330.0,-3437.0,256.0,0.567,-0.594,0.294,0.489
1900190,-6510.0,-2931.0,356.0,0.567,-0.588,0.296,0.495
1900207,-5518.0,-2705.0,432.0,0.565,-0.581,0.299,0.504
1900224,-5124.0,-3419.0,82.0,0.562,-0.575,0.303,0.512
1900241,-4432.0,-2557.0,270.0,0.557,-0.568,0.308,0.521
1900257,-3360.0,-2057.0,966.0,0.553,-0.561,0.315,0.53
1900273,-2500.0,-613.0,1150.0,0.548,-0.553,0.322,0.539
1900289,-1662.0,-1195.0,1168.0,0.543,-0.548,0.328,0.546
1900305,-1472.0,-2317.0,960.0,0.539,-0.546,0.332,0.548
1900321,-986.0,-3451.0,648.0,0.538,-0.547,0.336,0.546
1900348,-1384.0,-3419.0,1054.0,0.541,-0.55,0.34,0.538
1900364,-1546.0,-1523.0,754.0,0.545,-0.554,0.343,0.528
1900380,-2200.0,695.0,626.0,0.549,-0.561,0.344,0.516
1900396,-3044.0,-363.0,566.0,0.549,-0.57,0.342,0.506
1900412,-4570.0,-2923.0,466.0,0.549,-0.579,0.34,0.498
1900438,-5114.0,-2613.0,500.0,0.55,-0.587,0.337,0.489
1900454,-6070.0,-3137.0,536.0,0.551,-0.593,0.334,0.483
1900470,-5876.0,-3769.0,584.0,0.553,-0.597,0.332,0.477
1900486,-6364.0,-3127.0,344.0,0.557,-0.6,0.329,0.471
1900502,-8024.0,-1813.0,422.0,0.561,-0.604,0.324,0.465
1900518,-8798.0,-3619.0,1170.0,0.564,-0.608,0.318,0.46
1900534,-8278.0,-3977.0,1810.0,0.57,-0.609,0.312,0.456
1900560,-7588.0,-2193.0,992.0,0.576,-0.609,0.306,0.451
1900576,-7332.0,-2349.0,300.0,0.58,-0.612,0.301,0.445
1900592,-7146.0,-4911.0,692.0,0.584,-0.616,0.296,0.437
1900608,-8428.0,-3273.0,1254.0,0.589,-0.619,0.293,0.429
1900624,-7852.0,-2479.0,912.0,0.592,-0.623,0.29,0.421
1900641,-7078.0,-4575.0,622.0,0.594,-0.627,0.288,0.413
1900667,-7576.0,-3201.0,724.0,0.596,-0.631,0.286,0.406
1900683,-7438.0,-4239.0,852.0,0.598,-0.635,0.284,0.399
1900699,-7006.0,-5355.0,364.0,0.6,-0.638,0.281,0.392
1900715,-7050.0,-4561.0,202.0,0.603,-0.64,0.28,0.385
1900732,-7412.0,-4431.0,-28.0,0.606,-0.642,0.278,0.379
1900748,-7564.0,-5107.0,380.0,0.609,-0.643,0.276,0.373
1900764,-7168.0,-5641.0,-70.0,0.613,-0.643,0.274,0.369
1900791,-7452.0,-5469.0,96.0,0.618,-0.641,0.272,0.365
1900807,-7166.0,-5449.0,-80.0,0.623,-0.639,0.27,0.361
1900824,-6860.0,-5523.0,-136.0,0.629,-0.636,0.268,0.358
1900841,-7496.0,-5149.0,372.0,0.634,-0.633,0.266,0.355
1900858,-6952.0,-6095.0,56.0,0.638,-0.63,0.265,0.354
1900874,-7480.0,-5843.0,354.0,0.644,-0.626,0.264,0.352
1900891,-7308.0,-5939.0,256.0,0.649,-0.622,0.263,0.351
1900908,-7384.0,-5863.0,386.0,0.653,-0.618,0.263,0.349
1900924,-7638.0,-6257.0,822.0,0.658,-0.614,0.263,0.348
1900951,-7492.0,-5915.0,750.0,0.662,-0.609,0.264,0.348
1900967,-7592.0,-5861.0,830.0,0.666,-0.604,0.265,0.349
1900983,-7746.0,-6631.0,884.0,0.669,-0.6,0.266,0.349
1900999,-8442.0,-6827.0,1306.0,0.673,-0.595,0.267,0.349
1901015,-8934.0,-7237.0,1374.0,0.676,-0.591,0.268,0.35
1901031,-9192.0,-7215.0,1260.0,0.679,-0.587,0.27,0.35
1901047,-9862.0,-7729.0,1630.0,0.681,-0.584,0.271,0.35
1901073,-10962.0,-7549.0,2260.0,0.681,-0.583,0.271,0.35
1901090,-11144.0,-7939.0,2400.0,0.681,-0.583,0.272,0.35
1901107,-11116.0,-7593.0,2538.0,0.679,-0.584,0.273,0.35
1901123,-9994.0,-8217.0,2080.0,0.677,-0.587,0.275,0.35
1901140,-9730.0,-7701.0,2070.0,0.673,-0.591,0.277,0.348
1901157,-9674.0,-7143.0,1950.0,0.669,-0.596,0.28,0.344
1901173,-10014.0,-7477.0,2014.0,0.664,-0.602,0.284,0.341
1901189,-9594.0,-6989.0,1878.0,0.659,-0.607,0.288,0.337
1901215,-8710.0,-6517.0,1288.0,0.654,-0.612,0.293,0.334
1901231,-8370.0,-6029.0,1128.0,0.649,-0.617,0.299,0.33
1901247,-8012.0,-5261.0,572.0,0.643,-0.621,0.306,0.327
1901263,-7654.0,-4287.0,96.0,0.636,-0.625,0.313,0.326
1901279,-6920.0,-4819.0,-610.0,0.629,-0.629,0.321,0.325
1901295,-6936.0,-4567.0,-840.0,0.623,-0.632,0.328,0.324
1901321,-7406.0,-4267.0,-664.0,0.618,-0.633,0.334,0.325
1901338,-6986.0,-3869.0,-752.0,0.614,-0.633,0.34,0.326
1901355,-6930.0,-4093.0,-702.0,0.611,-0.632,0.346,0.329
1901372,-6790.0,-3541.0,-454.0,0.609,-0.629,0.351,0.332
1901389,-6268.0,-3627.0,-698.0,0.608,-0.625,0.357,0.336
1901406,-5902.0,-3835.0,-760.0,0.607,-0.62,0.362,0.34
1901423,-6108.0,-3563.0,-456.0,0.608,-0.614,0.368,0.344
1901440,-6266.0,-3531.0,-496.0,0.609,-0.607,0.374,0.348
1901457,-6194.0,-4223.0,-618.0,0.611,-0.599,0.38,0.352
1901474,-6320.0,-4191.0,-624.0,0.615,-0.589,0.386,0.355
1901491,-6938.0,-3613.0,-566.0,0.618,-0.579,0.393,0.358
1901517,-7120.0,-3281.0,-124.0,0.622,-0.568,0.399,0.363
1901534,-6236.0,-3601.0,-380.0,0.626,-0.555,0.405,0.369
1901550,-5488.0,-2405.0,-406.0,0.629,-0.543,0.411,0.374
1901566,-4892.0,-2897.0,-402.0,0.631,-0.533,0.416,0.38
1901582,-6158.0,-2723.0,206.0,0.633,-0.524,0.421,0.385
1901598,-6478.0,-2379.0,670.0,0.635,-0.514,0.425,0.391
1901614,-6302.0,-2523.0,770.0,0.635,-0.504,0.429,0.399
1901640,-5884.0,-3371.0,1224.0,0.636,-0.495,0.432,0.406
1901657,-4616.0,-1539.0,736.0,0.636,-0.486,0.434,0.413
1901673,-3968.0,-457.0,1186.0,0.634,-0.479,0.436,0.422
1901690,-2980.0,-881.0,1192.0,0.63,-0.474,0.437,0.432
1901707,-2068.0,-1391.0,916.0,0.626,-0.472,0.438,0.439
1901724,-1810.0,-2503.0,824.0,0.623,-0.471,0.44,0.443
1901740,-1642.0,-2459.0,984.0,0.622,-0.471,0.442,0.442
1901757,-1822.0,-1765.0,800.0,0.623,-0.472,0.445,0.436
1901774,-2122.0,-1559.0,1166.0,0.626,-0.475,0.446,0.428
1901800,-2226.0,-607.0,854.0,0.63,-0.479,0.447,0.417
1901816,-2244.0,-397.0,718.0,0.634,-0.484,0.445,0.407
1901832,-3150.0,-1723.0,1068.0,0.639,-0.489,0.443,0.396
1901848,-5136.0,-4507.0,1408.0,0.644,-0.493,0.44,0.384
1901865,-6362.0,-1515.0,504.0,0.654,-0.496,0.435,0.372
1901882,-6736.0,-1021.0,272.0,0.66,-0.499,0.428,0.364
1901898,-6050.0,-4755.0,1080.0,0.665,-0.502,0.42,0.359
1901924,-6446.0,-5319.0,988.0,0.673,-0.504,0.413,0.352
1901940,-7018.0,-3667.0,898.0,0.68,-0.504,0.406,0.344
1901957,-6726.0,-2187.0,1038.0,0.687,-0.505,0.398,0.339
1901974,-6366.0,-2595.0,1556.0,0.691,-0.507,0.391,0.336
1901990,-5816.0,-3959.0,1684.0,0.694,-0.51,0.383,0.333
1902007,-6024.0,-4147.0,1862.0,0.698,-0.513,0.377,0.328
1902024,-6246.0,-2413.0,1978.0,0.701,-0.515,0.371,0.323
1902040,-6166.0,-3247.0,2288.0,0.703,-0.518,0.367,0.32
1902057,-6284.0,-4495.0,2352.0,0.705,-0.521,0.362,0.316
1902074,-6568.0,-2529.0,2070.0,0.707,-0.524,0.359,0.312
1902100,-6604.0,-3153.0,2210.0,0.707,-0.527,0.356,0.309
1902116,-6398.0,-3171.0,2378.0,0.706,-0.53,0.354,0.307
1902132,-6408.0,-4007.0,2182.0,0.705,-0.534,0.352,0.306
1902149,-6676.0,-4537.0,2052.0,0.705,-0.536,0.352,0.304
1902165,-6688.0,-4803.0,1518.0,0.703,-0.539,0.352,0.301
1902181,-7302.0,-4341.0,1622.0,0.703,-0.541,0.354,0.297
1902207,-8606.0,-2617.0,1934.0,0.701,-0.544,0.355,0.296
1902223,-8284.0,-4769.0,1584.0,0.696,-0.548,0.356,0.297
1902240,-8154.0,-4913.0,1234.0,0.692,-0.552,0.357,0.3
1902257,-8164.0,-4873.0,1102.0,0.687,-0.555,0.358,0.303
1902273,-8392.0,-5017.0,1218.0,0.682,-0.559,0.358,0.306
1902290,-8294.0,-4557.0,1010.0,0.677,-0.563,0.358,0.31
1902307,-8470.0,-5111.0,956.0,0.672,-0.567,0.358,0.314
1902324,-8452.0,-4899.0,856.0,0.667,-0.571,0.359,0.318
1902340,-8694.0,-5117.0,836.0,0.662,-0.573,0.358,0.322
1902357,-8870.0,-5105.0,660.0,0.658,-0.576,0.358,0.326
1902383,-9250.0,-5889.0,492.0,0.655,-0.577,0.359,0.33
1902399,-9990.0,-5747.0,510.0,0.652,-0.578,0.359,0.334
1902415,-10502.0,-6111.0,340.0,0.65,-0.579,0.359,0.337
1902432,-11204.0,-6687.0,318.0,0.647,-0.58,0.359,0.34
1902449,-11456.0,-7051.0,28.0,0.645,-0.581,0.359,0.343
1902465,-11766.0,-6641.0,50.0,0.644,-0.582,0.359,0.344
1902481,-12042.0,-6285.0,256.0,0.641,-0.585,0.357,0.346
1902508,-11736.0,-6395.0,240.0,0.639,-0.588,0.355,0.347
1902524,-11190.0,-6725.0,86.0,0.637,-0.592,0.353,0.346
1902540,-10822.0,-6187.0,168.0,0.635,-0.596,0.35,0.345
1902556,-10232.0,-5707.0,40.0,0.633,-0.6,0.349,0.342
1902573,-9928.0,-5741.0,-66.0,0.632,-0.605,0.347,0.339
1902590,-9898.0,-5317.0,-106.0,0.63,-0.61,0.345,0.336
1902606,-9448.0,-5587.0,-328.0,0.628,-0.615,0.343,0.332
1902623,-9258.0,-5493.0,-304.0,0.626,-0.62,0.341,0.328
1902649,-9060.0,-4773.0,-314.0,0.624,-0.625,0.339,0.324
1902666,-8276.0,-5985.0,-660.0,0.622,-0.63,0.337,0.322
1902683,-8234.0,-5467.0,-472.0,0.62,-0.633,0.336,0.319
1902699,-8102.0,-4429.0,-428.0,0.618,-0.637,0.335,0.316
1902715,-7796.0,-4607.0,-390.0,0.616,-0.64,0.335,0.316
1902731,-7458.0,-5637.0,-486.0,0.614,-0.642,0.335,0.315
1902747,-7448.0,-4617.0,-182.0,0.613,-0.642,0.336,0.315
1902773,-6842.0,-3481.0,-474.0,0.612,-0.642,0.337,0.317
1902789,-6318.0,-4397.0,-570.0,0.61,-0.641,0.34,0.32
1902806,-6220.0,-4155.0,-332.0,0.608,-0.64,0.343,0.322
1902823,-6752.0,-4233.0,-516.0,0.608,-0.638,0.346,0.323
1902840,-6414.0,-3747.0,-484.0,0.608,-0.635,0.349,0.325
1902857,-6402.0,-3591.0,-360.0,0.607,-0.632,0.353,0.327
1902873,-6442.0,-3199.0,-226.0,0.607,-0.629,0.357,0.33
1902890,-6282.0,-3319.0,-290.0,0.607,-0.625,0.36,0.333
1902907,-6394.0,-3545.0,-580.0,0.606,-0.622,0.363,0.337
1902933,-6244.0,-3581.0,-410.0,0.605,-0.62,0.365,0.34
1902949,-6468.0,-3041.0,-352.0,0.604,-0.617,0.367,0.346
1902965,-6290.0,-4279.0,-100.0,0.603,-0.614,0.368,0.352
1902981,-6586.0,-3605.0,-90.0,0.602,-0.61,0.369,0.358
1902997,-6286.0,-3311.0,-110.0,0.601,-0.607,0.37,0.366
1903013,-6142.0,-4103.0,-220.0,0.6,-0.603,0.37,0.373
1903039,-6572.0,-4073.0,-74.0,0.599,-0.6,0.37,0.379
1903055,-6466.0,-3211.0,-42.0,0.598,-0.597,0.371,0.386
1903071,-6328.0,-3169.0,-136.0,0.595,-0.594,0.372,0.393
1903087,-6716.0,-4459.0,-262.0,0.592,-0.591,0.374,0.4
1903103,-6696.0,-2699.0,-330.0,0.59,-0.588,0.376,0.406
1903119,-5748.0,-2185.0,-638.0,0.585,-0.584,0.379,0.415
1903145,-5422.0,-3183.0,-290.0,0.579,-0.581,0.383,0.424
1903162,-5326.0,-2613.0,-122.0,0.574,-0.578,0.387,0.432
1903178,-4190.0,-381.0,-68.0,0.569,-0.574,0.39,0.441
1903194,-3274.0,-1593.0,-46.0,0.563,-0.571,0.392,0.45
1903210,-2512.0,-1259.0,144.0,0.558,-0.57,0.394,0.457
1903226,-1852.0,-2455.0,130.0,0.554,-0.571,0.394,0.46
1903242,-1372.0,-2853.0,222.0,0.553,-0.573,0.394,0.459
1903268,-1220.0,-2293.0,-140.0,0.554,-0.576,0.395,0.453
1903284,-1560.0,-2125.0,-292.0,0.556,-0.581,0.395,0.445
1903300,-2426.0,-1577.0,-154.0,0.558,-0.587,0.394,0.435
1903316,-3340.0,123.0,-546.0,0.56,-0.594,0.392,0.425
1903332,-4534.0,-3379.0,-1004.0,0.559,-0.602,0.389,0.417
1903358,-5804.0,-3645.0,-538.0,0.56,-0.609,0.385,0.409
1903374,-6178.0,-4233.0,-1112.0,0.562,-0.614,0.382,0.402
1903390,-6282.0,-3929.0,-966.0,0.564,-0.619,0.378,0.395
1903406,-6194.0,-4363.0,-860.0,0.567,-0.622,0.374,0.389
1903422,-6306.0,-3459.0,-482.0,0.571,-0.624,0.37,0.384
1903438,-6004.0,-4109.0,-574.0,0.575,-0.626,0.366,0.38
1903455,-6022.0,-4659.0,-612.0,0.58,-0.627,0.361,0.374
1903472,-5870.0,-4647.0,-760.0,0.588,-0.627,0.357,0.366
1903499,-6846.0,-2775.0,-454.0,0.593,-0.628,0.353,0.359
1903515,-7024.0,-3169.0,58.0,0.598,-0.629,0.35,0.353
1903531,-6482.0,-5279.0,-546.0,0.602,-0.629,0.347,0.349
1903547,-6588.0,-4341.0,-98.0,0.608,-0.628,0.345,0.343
1903563,-6704.0,-3421.0,-382.0,0.612,-0.628,0.343,0.338
1903579,-6782.0,-4651.0,0.0,0.616,-0.627,0.342,0.333
1903605,-7234.0,-4047.0,94.0,0.619,-0.626,0.34,0.329
1903622,-7098.0,-3517.0,76.0,0.622,-0.625,0.34,0.327
1903638,-6760.0,-4279.0,22.0,0.625,-0.624,0.339,0.324
1903655,-6864.0,-4329.0,-294.0,0.627,-0.623,0.339,0.322
1903672,-7068.0,-4623.0,-92.0,0.63,-0.622,0.339,0.319
1903689,-7410.0,-4611.0,-236.0,0.632,-0.621,0.339,0.317
1903706,-7964.0,-4027.0,96.0,0.634,-0.62,0.339,0.315
1903723,-7980.0,-3919.0,12.0,0.634,-0.619,0.339,0.316
1903739,-7988.0,-4759.0,368.0,0.635,-0.618,0.337,0.317
1903756,-7608.0,-4611.0,368.0,0.636,-0.617,0.336,0.319
1903773,-7736.0,-4169.0,370.0,0.636,-0.616,0.334,0.322
1903799,-7750.0,-4765.0,548.0,0.637,-0.615,0.332,0.324
1903815,-7778.0,-3993.0,730.0,0.639,-0.613,0.33,0.327
1903831,-7716.0,-3899.0,970.0,0.64,-0.611,0.327,0.331
1903847,-7422.0,-4487.0,768.0,0.64,-0.609,0.325,0.336
1903863,-7638.0,-4263.0,810.0,0.641,-0.607,0.323,0.341
1903879,-7614.0,-4553.0,946.0,0.642,-0.605,0.321,0.345
1903905,-7936.0,-4883.0,930.0,0.643,-0.603,0.319,0.349
1903921,-8858.0,-5133.0,1194.0,0.643,-0.601,0.318,0.353
1903937,-9614.0,-5793.0,1056.0,0.643,-0.599,0.318,0.356
1903953,-10042.0,-6825.0,924.0,0.644,-0.597,0.317,0.358
1903969,-10568.0,-7283.0,616.0,0.645,-0.596,0.317,0.358
1903995,-11642.0,-7579.0,644.0,0.645,-0.596,0.317,0.357
1904011,-12346.0,-8385.0,610.0,0.645,-0.597,0.317,0.356
1904027,-12298.0,-8825.0,708.0,0.645,-0.599,0.316,0.354
1904043,-11650.0,-8129.0,770.0,0.645,-0.6,0.316,0.352
1904059,-11016.0,-7927.0,856.0,0.644,-0.602,0.316,0.35
1904075,-10306.0,-7113.0,686.0,0.643,-0.605,0.316,0.348
1904101,-10116.0,-6917.0,856.0,0.642,-0.607,0.317,0.345
1904117,-9556.0,-6381.0,764.0,0.641,-0.609,0.318,0.343
1904133,-9028.0,-5413.0,660.0,0.64,-0.61,0.32,0.341
1904149,-8552.0,-6037.0,442.0,0.638,-0.612,0.322,0.338
1904165,-8294.0,-5637.0,274.0,0.638,-0.613,0.325,0.335
1904181,-8074.0,-5337.0,114.0,0.637,-0.614,0.328,0.331
1904207,-8286.0,-4931.0,246.0,0.636,-0.615,0.332,0.328
1904223,-7778.0,-5277.0,126.0,0.635,-0.615,0.336,0.326
1904239,-7554.0,-5513.0,-168.0,0.633,-0.614,0.341,0.324
1904256,-7646.0,-4849.0,-42.0,0.632,-0.614,0.346,0.323
1904273,-7360.0,-4569.0,-132.0,0.63,-0.613,0.35,0.323
1904289,-7076.0,-4743.0,-176.0,0.628,-0.612,0.355,0.324
1904306,-7176.0,-4215.0,-44.0,0.626,-0.611,0.36,0.325
1904322,-7346.0,-4129.0,-152.0,0.624,-0.609,0.364,0.327
1904348,-7528.0,-4285.0,-150.0,0.623,-0.607,0.367,0.329
1904364,-7486.0,-4193.0,-86.0,0.623,-0.605,0.369,0.331
1904380,-7474.0,-3415.0,-2.0,0.623,-0.602,0.371,0.335
1904396,-7118.0,-2865.0,236.0,0.623,-0.598,0.373,0.339
1904412,-6746.0,-3467.0,-66.0,0.622,-0.595,0.374,0.345
1904428,-6968.0,-4149.0,104.0,0.622,-0.591,0.375,0.351
1904454,-6810.0,-2599.0,290.0,0.623,-0.587,0.374,0.356
1904470,-6486.0,-2137.0,270.0,0.622,-0.583,0.374,0.365
1904486,-5946.0,-3251.0,398.0,0.62,-0.58,0.373,0.374
1904502,-5362.0,-3207.0,514.0,0.619,-0.575,0.373,0.384
1904518,-5618.0,-2377.0,468.0,0.618,-0.571,0.372,0.393
1904534,-5408.0,-3011.0,286.0,0.615,-0.567,0.371,0.404
1904560,-5466.0,-3703.0,400.0,0.613,-0.562,0.371,0.414
1904576,-5058.0,-2107.0,458.0,0.611,-0.557,0.371,0.423
1904592,-4778.0,-1835.0,310.0,0.608,-0.553,0.372,0.432
1904608,-5170.0,-3589.0,238.0,0.603,-0.549,0.374,0.442
1904624,-4966.0,-2125.0,538.0,0.599,-0.544,0.376,0.451
1904650,-4772.0,-1765.0,352.0,0.595,-0.54,0.378,0.459
1904666,-3806.0,-2551.0,306.0,0.591,-0.536,0.382,0.466
1904682,-2902.0,-857.0,-328.0,0.587,-0.534,0.385,0.471
1904698,-3098.0,-2523.0,476.0,0.584,-0.533,0.389,0.474
1904714,-3536.0,-2497.0,756.0,0.581,-0.533,0.392,0.473
1904730,-3126.0,-1711.0,520.0,0.581,-0.535,0.394,0.47
1904756,-3264.0,-641.0,580.0,0.582,-0.538,0.395,0.466
1904772,-3370.0,-1469.0,644.0,0.582,-0.543,0.394,0.46
1904789,-3154.0,-873.0,648.0,0.584,-0.548,0.391,0.453
1904805,-2776.0,-1155.0,492.0,0.585,-0.555,0.388,0.445
1904822,-3118.0,-1421.0,778.0,0.587,-0.563,0.385,0.437
1904838,-3524.0,-1641.0,1152.0,0.588,-0.571,0.38,0.429
1904855,-4424.0,-1337.0,1028.0,0.589,-0.578,0.375,0.422
1904872,-4544.0,-1591.0,1162.0,0.589,-0.587,0.369,0.417
1904889,-5248.0,-4817.0,152.0,0.588,-0.594,0.364,0.411
1904916,-6360.0,-6405.0,-4.0,0.592,-0.6,0.36,0.4
1904932,-7594.0,-3923.0,234.0,0.597,-0.605,0.357,0.388
1904948,-7586.0,-2485.0,256.0,0.6,-0.609,0.354,0.379
1904964,-8166.0,-5449.0,218.0,0.602,-0.613,0.351,0.372
1904980,-7810.0,-5149.0,-318.0,0.605,-0.616,0.349,0.364
1904996,-7490.0,-4567.0,-174.0,0.609,-0.618,0.346,0.357
1905012,-8010.0,-4459.0,-172.0,0.611,-0.621,0.344,0.35
1905038,-7848.0,-5675.0,-800.0,0.614,-0.622,0.342,0.344
1905055,-7190.0,-5213.0,-82.0,0.618,-0.623,0.341,0.336
1905072,-8386.0,-4221.0,-68.0,0.621,-0.624,0.34,0.33
1905090,-7978.0,-4129.0,658.0,0.624,-0.624,0.34,0.326
1905106,-7006.0,-6077.0,-622.0,0.625,-0.624,0.34,0.323
1905122,-7154.0,-5205.0,60.0,0.629,-0.623,0.34,0.318
1905138,-7842.0,-4045.0,388.0,0.632,-0.622,0.34,0.315
1905155,-7330.0,-4015.0,362.0,0.633,-0.621,0.339,0.313
1905172,-6452.0,-6321.0,-68.0,0.635,-0.621,0.339,0.311
1905189,-7016.0,-4315.0,218.0,0.637,-0.621,0.339,0.307
1905215,-7064.0,-3487.0,328.0,0.638,-0.621,0.339,0.304
1905231,-6988.0,-4907.0,98.0,0.638,-0.621,0.339,0.302
1905247,-6326.0,-6687.0,342.0,0.639,-0.622,0.339,0.3
1905263,-6922.0,-4479.0,58.0,0.641,-0.621,0.34,0.296
1905279,-7118.0,-4413.0,100.0,0.642,-0.622,0.34,0.292
1905295,-7294.0,-5535.0,12.0,0.642,-0.623,0.34,0.29
1905321,-7348.0,-5569.0,236.0,0.643,-0.622,0.341,0.289
1905337,-7126.0,-4555.0,36.0,0.644,-0.621,0.341,0.289
1905353,-6980.0,-4725.0,364.0,0.645,-0.62,0.341,0.29
1905369,-6596.0,-5187.0,-8.0,0.645,-0.618,0.342,0.291
1905385,-6606.0,-4933.0,80.0,0.645,-0.618,0.342,0.293
1905411,-6380.0,-4505.0,100.0,0.645,-0.617,0.343,0.294
1905427,-6738.0,-5101.0,270.0,0.645,-0.616,0.343,0.295
1905443,-6806.0,-4801.0,172.0,0.645,-0.615,0.344,0.296
1905459,-6550.0,-4503.0,-454.0,0.644,-0.614,0.346,0.298
1905475,-7050.0,-5475.0,-158.0,0.643,-0.613,0.347,0.301
1905491,-6772.0,-5649.0,-492.0,0.643,-0.611,0.349,0.303
1905517,-7166.0,-5325.0,-502.0,0.642,-0.609,0.351,0.305
1905533,-7358.0,-6003.0,-602.0,0.642,-0.607,0.352,0.308
1905549,-8102.0,-6137.0,-238.0,0.642,-0.604,0.354,0.311
1905566,-8228.0,-6067.0,-456.0,0.642,-0.601,0.356,0.315
1905582,-8840.0,-6657.0,-338.0,0.641,-0.599,0.358,0.319
1905598,-9550.0,-6305.0,-70.0,0.641,-0.597,0.359,0.323
1905614,-10108.0,-6493.0,-228.0,0.639,-0.596,0.36,0.326
1905640,-10670.0,-7059.0,-70.0,0.637,-0.596,0.361,0.33
1905656,-11488.0,-6015.0,198.0,0.635,-0.597,0.361,0.331
1905672,-11118.0,-6293.0,-96.0,0.633,-0.599,0.36,0.333
1905688,-10938.0,-6589.0,-140.0,0.63,-0.602,0.36,0.333
1905704,-10864.0,-6241.0,-76.0,0.628,-0.605,0.359,0.332
1905721,-11402.0,-4731.0,240.0,0.626,-0.609,0.358,0.33
1905747,-10506.0,-4999.0,-192.0,0.623,-0.614,0.357,0.329
1905763,-10538.0,-5323.0,158.0,0.62,-0.619,0.355,0.327
1905779,-9392.0,-5809.0,-320.0,0.618,-0.623,0.354,0.325
1905795,-9586.0,-4873.0,-76.0,0.616,-0.627,0.352,0.321
1905811,-9198.0,-4437.0,-300.0,0.614,-0.632,0.35,0.319
1905827,-8246.0,-5301.0,-630.0,0.611,-0.637,0.348,0.317
1905853,-7958.0,-5279.0,-782.0,0.608,-0.641,0.348,0.315
1905869,-7948.0,-4485.0,-770.0,0.604,-0.645,0.348,0.313
1905886,-7172.0,-5105.0,-1130.0,0.6,-0.648,0.348,0.313
1905903,-6778.0,-5223.0,-1296.0,0.596,-0.651,0.35,0.313
1905920,-6720.0,-4291.0,-1156.0,0.593,-0.653,0.352,0.314
1905937,-6728.0,-4283.0,-1098.0,0.589,-0.654,0.355,0.315
1905953,-6610.0,-4119.0,-1114.0,0.585,-0.655,0.358,0.318
1905969,-6370.0,-5107.0,-1092.0,0.582,-0.654,0.361,0.321
1905995,-6512.0,-4001.0,-744.0,0.581,-0.652,0.364,0.325
1906011,-5904.0,-3255.0,-946.0,0.579,-0.649,0.367,0.329
1906027,-5890.0,-3475.0,-916.0,0.578,-0.646,0.37,0.334
1906043,-5676.0,-3277.0,-746.0,0.576,-0.642,0.374,0.34
1906059,-5674.0,-3713.0,-558.0,0.575,-0.638,0.377,0.346
1906075,-5086.0,-3815.0,-898.0,0.575,-0.633,0.381,0.352
1906101,-5678.0,-3767.0,-870.0,0.575,-0.628,0.384,0.356
1906117,-5768.0,-2433.0,-1000.0,0.576,-0.623,0.388,0.362
1906133,-6026.0,-2913.0,-674.0,0.575,-0.618,0.391,0.367
1906150,-5980.0,-3625.0,-588.0,0.574,-0.612,0.395,0.373
1906166,-6530.0,-2927.0,-674.0,0.574,-0.606,0.399,0.379
1906182,-6346.0,-3215.0,-742.0,0.574,-0.601,0.402,0.385
1906198,-6608.0,-2563.0,-560.0,0.573,-0.596,0.405,0.391
1906224,-6382.0,-2411.0,-446.0,0.571,-0.591,0.408,0.398
1906240,-6306.0,-3405.0,-602.0,0.568,-0.586,0.411,0.405
1906256,-6234.0,-5041.0,-962.0,0.568,-0.582,0.414,0.409
1906272,-6276.0,-1685.0,-442.0,0.568,-0.577,0.417,0.412
1906288,-6076.0,-605.0,-254.0,0.566,-0.573,0.419,0.419
1906305,-4958.0,-1451.0,-220.0,0.562,-0.57,0.421,0.427
1906322,-4056.0,-927.0,-206.0,0.559,-0.566,0.422,0.435
1906348,-3178.0,-1601.0,-310.0,0.555,-0.564,0.421,0.442
1906364,-2478.0,-1665.0,-462.0,0.553,-0.564,0.421,0.446
1906380,-2224.0,-2277.0,-442.0,0.552,-0.565,0.42,0.447
1906396,-2462.0,-4869.0,-802.0,0.552,-0.566,0.421,0.444
1906412,-2782.0,-3655.0,-90.0,0.557,-0.567,0.423,0.434
1906428,-3686.0,-493.0,-342.0,0.563,-0.569,0.425,0.423
1906454,-3936.0,1283.0,-648.0,0.565,-0.573,0.424,0.415
1906471,-5180.0,-4237.0,-466.0,0.565,-0.578,0.424,0.408
1906487,-5824.0,-2937.0,-818.0,0.569,-0.582,0.422,0.4
1906504,-5736.0,-2759.0,-1076.0,0.571,-0.586,0.42,0.393
1906521,-5598.0,-2481.0,-1044.0,0.573,-0.59,0.417,0.388
1906538,-5208.0,-2395.0,-804.0,0.574,-0.594,0.413,0.384
1906555,-5238.0,-3141.0,-456.0,0.575,-0.597,0.409,0.381
1906571,-4770.0,-2777.0,-584.0,0.576,-0.601,0.405,0.379
1906598,-5128.0,-3271.0,-456.0,0.577,-0.604,0.402,0.375
1906614,-5732.0,-3909.0,-816.0,0.578,-0.608,0.399,0.37
1906630,-6338.0,-4263.0,-408.0,0.581,-0.611,0.397,0.363
1906647,-7542.0,-2547.0,108.0,0.584,-0.613,0.395,0.357
1906664,-7226.0,-3431.0,-534.0,0.586,-0.614,0.393,0.354
1906680,-7280.0,-4119.0,-306.0,0.588,-0.615,0.393,0.35
1906696,-7570.0,-4267.0,-304.0,0.59,-0.615,0.392,0.346
1906712,-8024.0,-2813.0,-224.0,0.592,-0.615,0.393,0.343
1906738,-7790.0,-5037.0,-350.0,0.593,-0.615,0.394,0.34
1906755,-8506.0,-3219.0,-270.0,0.595,-0.613,0.395,0.337
1906771,-8332.0,-3607.0,-318.0,0.596,-0.612,0.397,0.335
1906788,-8238.0,-3941.0,-132.0,0.597,-0.611,0.398,0.333
1906804,-8292.0,-3857.0,-96.0,0.599,-0.609,0.4,0.331
1906821,-8362.0,-2779.0,20.0,0.6,-0.607,0.402,0.331
1906838,-7682.0,-3085.0,-202.0,0.601,-0.605,0.403,0.331
1906855,-7900.0,-3555.0,-86.0,0.602,-0.603,0.405,0.331
1906871,-7938.0,-3917.0,-328.0,0.603,-0.601,0.407,0.33
1906898,-8556.0,-2837.0,-68.0,0.604,-0.599,0.409,0.33
1906914,-8586.0,-2953.0,-116.0,0.605,-0.597,0.409,0.331
1906930,-8466.0,-3009.0,-140.0,0.605,-0.594,0.411,0.334
1906946,-8420.0,-3595.0,-122.0,0.605,-0.592,0.412,0.337
1906962,-8708.0,-2929.0,6.0,0.606,-0.59,0.412,0.34
1906978,-8352.0,-3067.0,-132.0,0.605,-0.587,0.413,0.344
1907004,-8516.0,-3097.0,-56.0,0.605,-0.585,0.413,0.348
1907021,-8500.0,-3117.0,-66.0,0.604,-0.583,0.414,0.352
1907038,-8630.0,-3365.0,-148.0,0.604,-0.58,0.415,0.356
1907055,-8902.0,-3165.0,20.0,0.603,-0.578,0.416,0.359
1907071,-9182.0,-3377.0,-346.0,0.602,-0.576,0.417,0.363
1907088,-10062.0,-3841.0,-350.0,0.601,-0.575,0.417,0.366
1907105,-10464.0,-4099.0,-242.0,0.601,-0.574,0.417,0.369
1907121,-10878.0,-4463.0,-318.0,0.6,-0.573,0.417,0.371
1907138,-11264.0,-4855.0,-398.0,0.6,-0.573,0.416,0.372
1907155,-11466.0,-5239.0,-462.0,0.6,-0.574,0.415,0.371
1907181,-11704.0,-5439.0,-606.0,0.601,-0.576,0.414,0.37
1907197,-11936.0,-5563.0,-546.0,0.601,-0.578,0.412,0.367
1907213,-11382.0,-5193.0,-862.0,0.601,-0.58,0.41,0.365
1907229,-10958.0,-5599.0,-750.0,0.601,-0.583,0.408,0.362
1907245,-10278.0,-5209.0,-790.0,0.601,-0.587,0.406,0.359
1907261,-10002.0,-5491.0,-780.0,0.601,-0.591,0.404,0.355
1907287,-9926.0,-4801.0,-560.0,0.601,-0.594,0.403,0.351
1907304,-9382.0,-4751.0,-724.0,0.601,-0.598,0.401,0.347
1907321,-9328.0,-4781.0,-390.0,0.601,-0.601,0.399,0.344
1907338,-8878.0,-4443.0,-340.0,0.601,-0.605,0.397,0.341
1907355,-8514.0,-4883.0,-348.0,0.601,-0.608,0.395,0.337
1907371,-8844.0,-4357.0,92.0,0.6,-0.611,0.393,0.333
1907388,-8382.0,-4113.0,-68.0,0.6,-0.614,0.392,0.33
1907404,-7884.0,-4435.0,-236.0,0.599,-0.617,0.391,0.327
1907420,-7562.0,-4245.0,-326.0,0.598,-0.621,0.391,0.324
1907447,-7444.0,-4301.0,-432.0,0.596,-0.623,0.392,0.321
1907463,-7584.0,-4513.0,-616.0,0.594,-0.625,0.394,0.318
1907480,-7504.0,-3771.0,-790.0,0.592,-0.627,0.396,0.315
1907496,-7488.0,-3975.0,-600.0,0.59,-0.628,0.399,0.314
1907512,-7010.0,-3735.0,-820.0,0.588,-0.627,0.402,0.314
1907528,-6606.0,-4087.0,-1364.0,0.587,-0.626,0.406,0.314
1907544,-7156.0,-3409.0,-610.0,0.586,-0.625,0.409,0.315
1907570,-6336.0,-3045.0,-710.0,0.585,-0.623,0.413,0.316
1907587,-6654.0,-3267.0,-644.0,0.583,-0.621,0.416,0.318
1907604,-6108.0,-3135.0,-692.0,0.582,-0.619,0.42,0.319
1907621,-6070.0,-2749.0,-914.0,0.58,-0.618,0.423,0.321
1907638,-6952.0,-3893.0,-330.0,0.578,-0.617,0.426,0.321
1907654,-6708.0,-3231.0,-436.0,0.577,-0.615,0.429,0.323
1907671,-6904.0,-2625.0,-564.0,0.576,-0.612,0.433,0.325
1907688,-6514.0,-2811.0,-998.0,0.574,-0.611,0.436,0.328
1907704,-6384.0,-2363.0,-1048.0,0.571,-0.61,0.44,0.33
1907721,-6466.0,-2401.0,-890.0,0.568,-0.609,0.443,0.331
1907738,-7094.0,-3447.0,-1242.0,0.564,-0.609,0.447,0.333
1907764,-7756.0,-3779.0,-698.0,0.563,-0.606,0.451,0.335
1907780,-7670.0,-2239.0,-286.0,0.563,-0.6,0.456,0.339
1907797,-7584.0,-1639.0,-2700.0,0.562,-0.596,0.46,0.344
1907814,-6756.0,-3885.0,-1564.0,0.562,-0.59,0.463,0.349
1907830,-5908.0,-3377.0,-1386.0,0.563,-0.586,0.465,0.352
1907846,-6720.0,-1555.0,-1450.0,0.561,-0.583,0.467,0.356
1907862,-7132.0,-3717.0,-926.0,0.559,-0.581,0.47,0.36
1907888,-6806.0,-4133.0,-1186.0,0.557,-0.577,0.473,0.364
1907904,-7388.0,-2387.0,-916.0,0.557,-0.572,0.476,0.368
1907921,-6344.0,-2113.0,-1034.0,0.556,-0.567,0.479,0.374
1907938,-5030.0,-2191.0,-1136.0,0.555,-0.561,0.481,0.381
1907954,-4476.0,-1577.0,-650.0,0.555,-0.556,0.483,0.387
1907971,-3534.0,-735.0,-544.0,0.553,-0.553,0.484,0.393
1907988,-3276.0,-1971.0,-222.0,0.552,-0.55,0.484,0.398
1908004,-2608.0,-1961.0,-256.0,0.551,-0.549,0.484,0.4
1908030,-2270.0,-1053.0,-306.0,0.551,-0.55,0.484,0.401
1908046,-2334.0,-1315.0,-304.0,0.55,-0.552,0.483,0.399
1908062,-2918.0,-2379.0,-350.0,0.55,-0.556,0.483,0.395
1908078,-3570.0,-2025.0,-516.0,0.55,-0.56,0.483,0.389
1908094,-4252.0,-1155.0,-810.0,0.55,-0.565,0.481,0.382
1908110,-4506.0,-1229.0,-962.0,0.55,-0.571,0.48,0.377
1908136,-4716.0,-4091.0,-1312.0,0.549,-0.577,0.478,0.37
1908152,-5930.0,-2157.0,-1300.0,0.55,-0.583,0.476,0.363
1908169,-6026.0,-1853.0,-1502.0,0.55,-0.588,0.473,0.358
1908186,-5528.0,-3831.0,-1832.0,0.55,-0.593,0.47,0.354
1908203,-6218.0,-3407.0,-1550.0,0.552,-0.598,0.467,0.348
1908219,-6476.0,-2339.0,-1614.0,0.554,-0.601,0.463,0.343
1908235,-6218.0,-2247.0,-1166.0,0.556,-0.604,0.459,0.339
1908261,-6252.0,-4135.0,-1758.0,0.557,-0.608,0.456,0.335
1908280,-6906.0,-2953.0,-1286.0,0.561,-0.609,0.453,0.33
1908296,-6830.0,-4093.0,-1802.0,0.564,-0.611,0.451,0.324
1908312,-7966.0,-2607.0,-1648.0,0.567,-0.614,0.449,0.317
1908328,-8626.0,-4691.0,-1796.0,0.57,-0.616,0.447,0.311
1908344,-9510.0,-3871.0,-1576.0,0.573,-0.618,0.444,0.305
1908360,-9032.0,-3287.0,-1512.0,0.576,-0.618,0.442,0.3
1908376,-8266.0,-3809.0,-1412.0,0.579,-0.619,0.439,0.297
1908402,-7606.0,-3499.0,-1310.0,0.582,-0.619,0.437,0.295
1908419,-7022.0,-3537.0,-1544.0,0.584,-0.62,0.436,0.292
1908436,-7358.0,-3771.0,-1010.0,0.586,-0.62,0.434,0.289
1908453,-7448.0,-2843.0,-898.0,0.588,-0.62,0.434,0.286
1908470,-7384.0,-3369.0,-952.0,0.59,-0.619,0.433,0.284
1908486,-7048.0,-4527.0,-1120.0,0.592,-0.619,0.432,0.282
1908503,-7328.0,-3975.0,-1000.0,0.594,-0.618,0.432,0.279
1908520,-7924.0,-2839.0,-886.0,0.596,-0.617,0.432,0.278
1908537,-7772.0,-3935.0,-988.0,0.597,-0.617,0.432,0.277
1908554,-7604.0,-4473.0,-1154.0,0.598,-0.616,0.431,0.277
1908571,-7932.0,-4655.0,-1098.0,0.6,-0.615,0.43,0.276
1908597,-8268.0,-4003.0,-1080.0,0.602,-0.614,0.429,0.277
1908613,-7836.0,-4459.0,-1196.0,0.603,-0.612,0.428,0.278
1908630,-7880.0,-4145.0,-936.0,0.605,-0.611,0.427,0.28
1908646,-7522.0,-3807.0,-882.0,0.606,-0.609,0.426,0.283
1908663,-7506.0,-4009.0,-736.0,0.607,-0.607,0.425,0.287
1908680,-7296.0,-3815.0,-790.0,0.608,-0.605,0.425,0.29
1908696,-7614.0,-3757.0,-502.0,0.609,-0.602,0.424,0.294
1908712,-7282.0,-3771.0,-686.0,0.61,-0.6,0.424,0.298
1908729,-7790.0,-3803.0,-506.0,0.61,-0.597,0.424,0.301
1908756,-7666.0,-3915.0,-650.0,0.611,-0.595,0.424,0.305
1908772,-7938.0,-3649.0,-534.0,0.61,-0.593,0.425,0.308
1908788,-8138.0,-3495.0,-730.0,0.609,-0.592,0.426,0.311
1908804,-8728.0,-4219.0,-782.0,0.607,-0.592,0.428,0.313
1908820,-9420.0,-4733.0,-860.0,0.604,-0.593,0.429,0.316
1908836,-9564.0,-4939.0,-1012.0,0.603,-0.592,0.43,0.317
1908862,-10054.0,-5275.0,-1282.0,0.601,-0.593,0.432,0.317
1908878,-10210.0,-5445.0,-1472.0,0.599,-0.594,0.433,0.317
1908894,-10710.0,-5641.0,-1482.0,0.596,-0.597,0.434,0.316
1908910,-11088.0,-6463.0,-1288.0,0.593,-0.6,0.435,0.315
1908926,-11078.0,-6427.0,-1214.0,0.591,-0.602,0.436,0.312
1908942,-10562.0,-6121.0,-1362.0,0.59,-0.605,0.436,0.31
1908969,-10228.0,-6065.0,-1310.0,0.59,-0.607,0.436,0.306
1908986,-10268.0,-5783.0,-1334.0,0.59,-0.609,0.436,0.302
1909003,-10428.0,-5221.0,-1232.0,0.59,-0.612,0.435,0.298
1909020,-10018.0,-6045.0,-1316.0,0.59,-0.614,0.434,0.294
1909037,-9898.0,-5865.0,-1394.0,0.592,-0.615,0.432,0.29
1909054,-9590.0,-4961.0,-1502.0,0.595,-0.616,0.43,0.285
1909070,-9304.0,-4973.0,-1502.0,0.597,-0.618,0.428,0.281
1909087,-9054.0,-5159.0,-1490.0,0.598,-0.619,0.426,0.278
1909105,-8632.0,-4641.0,-1230.0,0.6,-0.62,0.424,0.275
1909121,-8022.0,-4333.0,-1446.0,0.602,-0.62,0.424,0.272
1909137,-7504.0,-4467.0,-1380.0,0.603,-0.62,0.423,0.27
1909154,-7224.0,-4177.0,-1274.0,0.603,-0.621,0.424,0.268
1909180,-7154.0,-4341.0,-1326.0,0.603,-0.621,0.425,0.266
1909197,-7024.0,-3815.0,-1334.0,0.602,-0.621,0.427,0.265
1909213,-6844.0,-3727.0,-1080.0,0.601,-0.62,0.43,0.264
1909229,-6696.0,-3443.0,-1136.0,0.599,-0.619,0.433,0.265
1909245,-6616.0,-3421.0,-1204.0,0.598,-0.618,0.437,0.265
1909261,-6602.0,-4369.0,-1378.0,0.596,-0.616,0.441,0.266
1909287,-6804.0,-3989.0,-1300.0,0.594,-0.615,0.446,0.266
1909304,-7158.0,-2811.0,-1160.0,0.592,-0.612,0.45,0.267
1909321,-6794.0,-3029.0,-1192.0,0.59,-0.61,0.455,0.269
1909337,-6450.0,-3761.0,-1292.0,0.588,-0.607,0.46,0.272
1909353,-6542.0,-3441.0,-1046.0,0.587,-0.604,0.465,0.275
1909370,-6414.0,-3547.0,-1242.0,0.585,-0.6,0.47,0.278
1909387,-6674.0,-3873.0,-1330.0,0.585,-0.595,0.475,0.28
1909404,-6580.0,-3021.0,-1370.0,0.585,-0.591,0.479,0.282
1909420,-7384.0,-2745.0,-1404.0,0.585,-0.586,0.484,0.285
1909447,-7298.0,-2641.0,-1294.0,0.584,-0.581,0.488,0.291
1909463,-7044.0,-2953.0,-1228.0,0.583,-0.575,0.492,0.297
1909479,-6480.0,-3509.0,-1314.0,0.582,-0.568,0.496,0.304
1909495,-6394.0,-3453.0,-1166.0,0.583,-0.56,0.5,0.31
1909511,-6560.0,-2467.0,-1408.0,0.584,-0.552,0.504,0.316
1909527,-6330.0,-1705.0,-1218.0,0.584,-0.545,0.508,0.323
1909553,-6274.0,-2253.0,-930.0,0.583,-0.537,0.512,0.332
1909569,-5916.0,-2451.0,-770.0,0.583,-0.528,0.515,0.341
1909585,-5766.0,-2623.0,-592.0,0.582,-0.521,0.518,0.349
1909602,-5050.0,-1525.0,-614.0,0.581,-0.513,0.521,0.358
1909619,-4106.0,-1259.0,-676.0,0.579,-0.506,0.523,0.368
1909636,-3564.0,-1563.0,-700.0,0.576,-0.5,0.526,0.376
1909653,-3376.0,-1347.0,-474.0,0.573,-0.496,0.528,0.382
1909669,-3208.0,-2815.0,-512.0,0.571,-0.493,0.53,0.386
1909685,-2840.0,-2131.0,-328.0,0.571,-0.49,0.532,0.387
1909712,-2376.0,-997.0,-260.0,0.571,-0.489,0.534,0.386
1909728,-2612.0,-1313.0,-268.0,0.571,-0.49,0.535,0.383
1909744,-2808.0,-407.0,-216.0,0.572,-0.493,0.535,0.379
1909760,-3380.0,-617.0,-336.0,0.571,-0.498,0.534,0.375
1909776,-3642.0,-2093.0,-480.0,0.571,-0.505,0.531,0.37
1909792,-3874.0,-1803.0,-458.0,0.572,-0.512,0.528,0.364
1909818,-4250.0,-2117.0,-906.0,0.573,-0.519,0.524,0.357
1909835,-5182.0,-2955.0,-680.0,0.575,-0.526,0.52,0.351
1909852,-6090.0,-3395.0,-1012.0,0.577,-0.532,0.515,0.344
1909869,-6878.0,-2861.0,-1164.0,0.581,-0.538,0.511,0.336
1909886,-7394.0,-1601.0,-1022.0,0.584,-0.543,0.505,0.33
1909903,-7772.0,-3191.0,-1024.0,0.587,-0.549,0.499,0.325
1909920,-7358.0,-3941.0,-1632.0,0.589,-0.554,0.493,0.32
1909937,-8208.0,-5581.0,-1400.0,0.593,-0.558,0.487,0.314
1909953,-9636.0,-3239.0,-766.0,0.599,-0.561,0.482,0.309
1909970,-8476.0,-2705.0,-610.0,0.604,-0.561,0.476,0.306
1909987,-7408.0,-2199.0,-334.0,0.609,-0.561,0.471,0.306
1910013,-7366.0,-2081.0,-192.0,0.612,-0.561,0.465,0.306
1910029,-6576.0,-3233.0,-732.0,0.615,-0.563,0.459,0.307
1910045,-6464.0,-5945.0,-862.0,0.617,-0.565,0.454,0.305
1910061,-7486.0,-2629.0,-144.0,0.622,-0.565,0.45,0.302
1910078,-7844.0,-1809.0,-142.0,0.624,-0.566,0.447,0.301
1910094,-8206.0,-2545.0,330.0,0.625,-0.567,0.444,0.301
1910110,-7962.0,-2885.0,-114.0,0.626,-0.568,0.441,0.303
1910136,-7996.0,-4561.0,-214.0,0.626,-0.568,0.438,0.305
1910153,-8216.0,-4357.0,-98.0,0.626,-0.568,0.436,0.307
1910170,-8608.0,-2861.0,192.0,0.627,-0.568,0.434,0.309
1910186,-8480.0,-3967.0,-54.0,0.627,-0.568,0.432,0.313
1910202,-9000.0,-4183.0,234.0,0.626,-0.568,0.431,0.316
1910218,-8868.0,-4165.0,358.0,0.626,-0.567,0.429,0.321
1910234,-8930.0,-4071.0,368.0,0.625,-0.567,0.427,0.326
1910260,-8728.0,-4479.0,148.0,0.623,-0.566,0.425,0.332
1910276,-8732.0,-4061.0,414.0,0.622,-0.565,0.424,0.338
1910292,-8332.0,-3485.0,450.0,0.619,-0.563,0.424,0.345
1910308,-8158.0,-3545.0,236.0,0.616,-0.563,0.424,0.352
1910324,-8030.0,-3513.0,288.0,0.613,-0.562,0.425,0.358
1910340,-8376.0,-3331.0,416.0,0.609,-0.561,0.427,0.365
1910366,-8262.0,-3349.0,298.0,0.604,-0.559,0.428,0.372
1910383,-8398.0,-3465.0,242.0,0.601,-0.558,0.43,0.379
1910399,-8350.0,-2615.0,82.0,0.597,-0.556,0.431,0.385
1910415,-8798.0,-2465.0,172.0,0.594,-0.554,0.433,0.392
1910431,-8730.0,-2777.0,-20.0,0.591,-0.552,0.433,0.398
1910447,-9004.0,-2971.0,-170.0,0.588,-0.55,0.434,0.404
1910473,-9284.0,-2121.0,-164.0,0.586,-0.548,0.434,0.409
1910489,-9970.0,-2095.0,-160.0,0.584,-0.547,0.433,0.414
1910505,-9946.0,-2857.0,-318.0,0.582,-0.547,0.432,0.419
1910521,-10500.0,-2467.0,-372.0,0.58,-0.547,0.431,0.423
1910537,-11818.0,-2995.0,206.0,0.578,-0.548,0.429,0.427
1910553,-11976.0,-3419.0,118.0,0.576,-0.549,0.426,0.43
1910570,-12054.0,-3621.0,154.0,0.575,-0.551,0.424,0.431
1910596,-12196.0,-3925.0,346.0,0.575,-0.553,0.422,0.431
1910612,-11776.0,-3357.0,340.0,0.574,-0.557,0.42,0.429
1910628,-11314.0,-3155.0,294.0,0.573,-0.561,0.419,0.426
1910644,-10836.0,-3597.0,296.0,0.571,-0.566,0.419,0.422
1910660,-10488.0,-3507.0,158.0,0.569,-0.571,0.419,0.417
1910686,-10316.0,-2701.0,88.0,0.566,-0.577,0.42,0.413
1910702,-9690.0,-2563.0,-16.0,0.563,-0.582,0.421,0.408
1910718,-8864.0,-3203.0,-404.0,0.56,-0.588,0.422,0.404
1910734,-9060.0,-3231.0,-320.0,0.557,-0.593,0.423,0.399
1910750,-8912.0,-2547.0,-504.0,0.554,-0.599,0.424,0.394
1910767,-8332.0,-2957.0,-658.0,0.551,-0.603,0.426,0.389
1910784,-8500.0,-2681.0,-714.0,0.548,-0.608,0.428,0.384
1910801,-8128.0,-2839.0,-912.0,0.546,-0.611,0.43,0.379
1910818,-7926.0,-2217.0,-874.0,0.544,-0.613,0.433,0.376
1910845,-7544.0,-2553.0,-1108.0,0.542,-0.615,0.436,0.372
1910861,-7478.0,-2839.0,-1162.0,0.54,-0.617,0.438,0.368
1910877,-7744.0,-2593.0,-1324.0,0.539,-0.618,0.442,0.365
1910893,-8158.0,-2109.0,-886.0,0.538,-0.617,0.444,0.364
1910909,-7666.0,-1923.0,-986.0,0.538,-0.615,0.447,0.364
1910925,-8080.0,-1619.0,-480.0,0.537,-0.613,0.45,0.365
1910951,-7598.0,-2569.0,-1082.0,0.536,-0.611,0.452,0.367
1910967,-7770.0,-2523.0,-450.0,0.536,-0.609,0.454,0.369
1910984,-7500.0,-2485.0,-976.0,0.535,-0.606,0.457,0.371
1911000,-7562.0,-1497.0,-520.0,0.534,-0.604,0.46,0.371
1911016,-7180.0,-2037.0,-1104.0,0.532,-0.602,0.465,0.373
1911032,-6850.0,-2115.0,-1114.0,0.53,-0.599,0.47,0.373
1911048,-6442.0,-2113.0,-1344.0,0.527,-0.597,0.476,0.373
1911074,-6526.0,-1845.0,-1258.0,0.525,-0.595,0.482,0.372
1911090,-6632.0,-1539.0,-1208.0,0.522,-0.593,0.488,0.372
1911111,-6926.0,-1173.0,-1458.0,0.519,-0.59,0.493,0.373
1911127,-7314.0,-2037.0,-1520.0,0.517,-0.587,0.499,0.374
1911143,-7194.0,-1787.0,-1634.0,0.515,-0.583,0.504,0.376
1911159,-7372.0,-1515.0,-1954.0,0.514,-0.579,0.508,0.379
1911175,-7068.0,-1699.0,-2094.0,0.512,-0.575,0.511,0.382
1911191,-7606.0,-2213.0,-2070.0,0.511,-0.57,0.515,0.386
1911217,-7848.0,-2789.0,-2154.0,0.51,-0.565,0.518,0.39
1911234,-7924.0,-2185.0,-2314.0,0.51,-0.559,0.522,0.394
1911251,-7704.0,-1375.0,-2078.0,0.511,-0.55,0.526,0.4
1911268,-6774.0,-1161.0,-2070.0,0.512,-0.54,0.529,0.408
1911284,-6104.0,-811.0,-1692.0,0.513,-0.528,0.533,0.417
1911300,-5334.0,-809.0,-1256.0,0.515,-0.517,0.536,0.425
1911317,-4280.0,-145.0,-1518.0,0.516,-0.506,0.538,0.433
1911334,-3552.0,-1259.0,-1036.0,0.518,-0.498,0.539,0.439
1911351,-2738.0,-723.0,-1248.0,0.519,-0.493,0.539,0.443
1911368,-3180.0,-949.0,-658.0,0.52,-0.49,0.54,0.445
1911385,-3340.0,-501.0,-456.0,0.521,-0.49,0.54,0.444
1911402,-2932.0,-969.0,-700.0,0.523,-0.491,0.539,0.441
1911429,-3264.0,-1811.0,-452.0,0.525,-0.494,0.539,0.435
1911445,-3452.0,-669.0,-510.0,0.529,-0.499,0.538,0.427
1911461,-3924.0,-1097.0,-734.0,0.532,-0.505,0.536,0.418
1911477,-4840.0,-19.0,-772.0,0.535,-0.513,0.533,0.41
1911493,-4710.0,-817.0,-956.0,0.537,-0.521,0.528,0.402
1911509,-4812.0,-1577.0,-1082.0,0.539,-0.529,0.523,0.395
1911535,-5286.0,-3273.0,-1004.0,0.542,-0.537,0.519,0.386
1911552,-6184.0,-2971.0,-1454.0,0.546,-0.543,0.515,0.376
1911569,-6192.0,-2115.0,-1452.0,0.551,-0.549,0.511,0.367
1911586,-6426.0,-2969.0,-1620.0,0.555,-0.555,0.506,0.358
1911603,-7118.0,-1703.0,-1564.0,0.56,-0.56,0.502,0.349
1911619,-7042.0,-2963.0,-2012.0,0.563,-0.566,0.496,0.341
1911636,-7350.0,-3509.0,-1198.0,0.567,-0.571,0.491,0.334
1911652,-7052.0,-3133.0,-1308.0,0.571,-0.576,0.485,0.327
1911669,-6626.0,-1947.0,-1188.0,0.574,-0.58,0.481,0.321
1911686,-6516.0,-3415.0,-1290.0,0.576,-0.586,0.475,0.315
1911713,-6974.0,-3629.0,-878.0,0.578,-0.591,0.47,0.309
1911729,-6774.0,-3485.0,-968.0,0.581,-0.595,0.466,0.302
1911745,-6624.0,-4493.0,-1318.0,0.582,-0.6,0.462,0.295
1911761,-7900.0,-3285.0,-1060.0,0.585,-0.603,0.459,0.288
1911777,-8906.0,-2023.0,-588.0,0.588,-0.605,0.456,0.282
1911793,-7964.0,-3535.0,-1200.0,0.589,-0.607,0.454,0.28
1911809,-7526.0,-5635.0,-1284.0,0.591,-0.609,0.451,0.276
1911835,-7786.0,-5279.0,-1464.0,0.595,-0.609,0.449,0.271
1911852,-8754.0,-2779.0,-976.0,0.598,-0.608,0.448,0.267
1911869,-8704.0,-3473.0,-844.0,0.601,-0.608,0.445,0.265
1911886,-7880.0,-4909.0,-1166.0,0.603,-0.608,0.443,0.264
1911902,-7802.0,-5137.0,-1104.0,0.607,-0.607,0.441,0.262
1911918,-8414.0,-4393.0,-654.0,0.61,-0.606,0.439,0.26
1911934,-8334.0,-4479.0,-562.0,0.614,-0.604,0.437,0.259
1911961,-7374.0,-4919.0,-1086.0,0.618,-0.601,0.435,0.259
1911977,-7718.0,-4343.0,-662.0,0.621,-0.599,0.434,0.259
1911993,-7446.0,-4651.0,-756.0,0.624,-0.596,0.434,0.259
1912009,-7580.0,-4865.0,-676.0,0.626,-0.593,0.434,0.26
1912025,-7780.0,-4749.0,-376.0,0.629,-0.59,0.433,0.262
1912041,-7378.0,-4833.0,-464.0,0.633,-0.585,0.433,0.264
1912067,-7406.0,-3813.0,-214.0,0.636,-0.58,0.433,0.268
1912083,-7814.0,-4663.0,-366.0,0.638,-0.575,0.432,0.274
1912099,-8114.0,-4285.0,-2.0,0.64,-0.57,0.432,0.279
1912115,-8560.0,-4749.0,98.0,0.642,-0.566,0.431,0.285
1912131,-9552.0,-5195.0,186.0,0.644,-0.561,0.431,0.291
1912147,-9854.0,-4885.0,168.0,0.646,-0.557,0.429,0.297
1912163,-10140.0,-5331.0,208.0,0.648,-0.553,0.428,0.303
1912189,-10750.0,-5067.0,206.0,0.649,-0.55,0.426,0.308
1912206,-11030.0,-5153.0,322.0,0.65,-0.548,0.424,0.313
1912222,-10878.0,-5283.0,326.0,0.651,-0.546,0.421,0.317
1912238,-10648.0,-5519.0,342.0,0.651,-0.546,0.419,0.32
1912254,-10272.0,-5201.0,446.0,0.652,-0.546,0.416,0.322
1912270,-9954.0,-4803.0,334.0,0.651,-0.547,0.414,0.324
1912296,-9556.0,-5093.0,432.0,0.649,-0.549,0.413,0.326
1912312,-9184.0,-4543.0,194.0,0.647,-0.552,0.412,0.327
1912328,-8688.0,-4563.0,-66.0,0.643,-0.556,0.411,0.328
1912345,-8806.0,-4797.0,-320.0,0.639,-0.56,0.412,0.328
1912361,-8846.0,-4821.0,-742.0,0.633,-0.566,0.413,0.328
1912377,-9128.0,-4927.0,-642.0,0.627,-0.571,0.415,0.327
1912393,-8936.0,-5121.0,-874.0,0.622,-0.576,0.418,0.327
1912420,-8952.0,-4653.0,-708.0,0.617,-0.58,0.42,0.326
1912436,-8550.0,-4217.0,-672.0,0.613,-0.582,0.423,0.325
1912452,-7806.0,-4023.0,-502.0,0.61,-0.585,0.426,0.324
1912469,-7742.0,-4249.0,-654.0,0.606,-0.587,0.428,0.323
1912486,-8044.0,-3377.0,-382.0,0.603,-0.589,0.431,0.322
1912502,-7642.0,-3217.0,-308.0,0.601,-0.589,0.434,0.322
1912519,-7398.0,-2955.0,-356.0,0.598,-0.589,0.437,0.322
1912535,-7316.0,-2811.0,-194.0,0.596,-0.589,0.441,0.323
1912561,-7466.0,-4305.0,-286.0,0.593,-0.589,0.444,0.323
1912577,-7636.0,-2611.0,-288.0,0.592,-0.588,0.447,0.322
1912593,-8144.0,-2571.0,-62.0,0.591,-0.587,0.45,0.321
1912609,-8162.0,-1969.0,162.0,0.59,-0.585,0.453,0.323
1912625,-7478.0,-2739.0,72.0,0.589,-0.584,0.455,0.325
1912641,-6756.0,-2339.0,104.0,0.587,-0.582,0.459,0.326
1912667,-6636.0,-2779.0,308.0,0.585,-0.581,0.463,0.326
1912684,-6784.0,-1517.0,442.0,0.583,-0.58,0.467,0.325
1912701,-6374.0,-1665.0,148.0,0.58,-0.58,0.471,0.324
1912718,-6886.0,-2363.0,16.0,0.576,-0.58,0.477,0.323
1912735,-6800.0,-2829.0,12.0,0.573,-0.579,0.484,0.321
1912752,-6110.0,-1283.0,-786.0,0.57,-0.578,0.49,0.317
1912769,-6530.0,-1697.0,-776.0,0.566,-0.579,0.496,0.315
1912785,-7024.0,-2285.0,-1066.0,0.562,-0.579,0.501,0.313
1912802,-7612.0,-2323.0,-1018.0,0.56,-0.578,0.506,0.311
1912819,-7470.0,-2515.0,-1444.0,0.558,-0.576,0.51,0.31
1912845,-7350.0,-2625.0,-1758.0,0.558,-0.574,0.513,0.309
1912861,-7074.0,-2617.0,-1858.0,0.557,-0.573,0.515,0.309
1912877,-7464.0,-2661.0,-1736.0,0.558,-0.572,0.517,0.308
1912893,-8024.0,-3297.0,-1882.0,0.559,-0.57,0.518,0.308
1912909,-8106.0,-3627.0,-1730.0,0.561,-0.568,0.518,0.307
1912925,-7760.0,-3065.0,-1806.0,0.565,-0.564,0.518,0.307
1912951,-7120.0,-2293.0,-1848.0,0.568,-0.56,0.519,0.306
1912968,-7064.0,-2179.0,-1852.0,0.57,-0.558,0.52,0.307
1912985,-7274.0,-2581.0,-1654.0,0.571,-0.556,0.52,0.308
1913002,-6810.0,-2365.0,-1744.0,0.571,-0.553,0.521,0.31
1913019,-6726.0,-2961.0,-1536.0,0.572,-0.551,0.522,0.312
1913035,-6548.0,-3691.0,-1548.0,0.573,-0.549,0.523,0.311
1913051,-6774.0,-2785.0,-2114.0,0.574,-0.546,0.525,0.31
1913068,-7620.0,-2715.0,-1964.0,0.575,-0.544,0.527,0.309
1913085,-8204.0,-2853.0,-1934.0,0.575,-0.542,0.529,0.309
1913102,-8214.0,-2845.0,-2130.0,0.575,-0.539,0.531,0.312
1913119,-8814.0,-4573.0,-2154.0,0.575,-0.536,0.532,0.314
1913145,-8996.0,-2337.0,-2442.0,0.575,-0.532,0.534,0.318
1913162,-8164.0,-1441.0,-1822.0,0.576,-0.527,0.534,0.325
1913178,-5800.0,-1109.0,-1308.0,0.575,-0.522,0.533,0.335
1913194,-4640.0,-2209.0,-1658.0,0.575,-0.519,0.531,0.344
1913210,-4160.0,-4295.0,-1112.0,0.575,-0.516,0.529,0.351
1913227,-4080.0,-319.0,-494.0,0.578,-0.512,0.528,0.354
1913244,-3146.0,-363.0,-472.0,0.579,-0.51,0.525,0.359
1913270,-2574.0,-1433.0,-758.0,0.58,-0.509,0.523,0.361
1913286,-2252.0,-2587.0,-620.0,0.582,-0.51,0.522,0.36
1913302,-2258.0,-2087.0,-322.0,0.584,-0.512,0.521,0.354
1913318,-2642.0,-2077.0,-586.0,0.587,-0.516,0.519,0.347
1913334,-3376.0,-1647.0,-250.0,0.59,-0.52,0.517,0.337
1913350,-3548.0,63.0,-452.0,0.592,-0.526,0.514,0.329
1913367,-3666.0,-883.0,-786.0,0.593,-0.534,0.509,0.323
1913394,-3820.0,-2343.0,-436.0,0.594,-0.541,0.504,0.317
1913411,-3010.0,-2361.0,-1428.0,0.594,-0.549,0.499,0.312
1913427,-4300.0,-2561.0,-622.0,0.595,-0.557,0.493,0.305
1913443,-4932.0,-5603.0,-1454.0,0.595,-0.564,0.488,0.298
1913459,-6740.0,-3777.0,-1060.0,0.599,-0.569,0.483,0.29
1913475,-6800.0,-3399.0,-1836.0,0.601,-0.574,0.478,0.284
1913491,-6458.0,-3553.0,-1040.0,0.604,-0.577,0.472,0.28
1913517,-6480.0,-5943.0,-1308.0,0.607,-0.581,0.467,0.276
1913534,-7598.0,-4333.0,-1028.0,0.61,-0.584,0.462,0.271
1913550,-7536.0,-3731.0,-1020.0,0.613,-0.586,0.457,0.268
1913567,-7406.0,-5425.0,-1286.0,0.615,-0.589,0.452,0.267
1913583,-8264.0,-5501.0,-690.0,0.619,-0.589,0.447,0.264
1913600,-8194.0,-5027.0,-694.0,0.623,-0.59,0.443,0.262
1913617,-8462.0,-4713.0,-412.0,0.626,-0.589,0.438,0.261
1913634,-8006.0,-4001.0,-310.0,0.63,-0.588,0.434,0.262
1913651,-7624.0,-5143.0,-568.0,0.632,-0.588,0.431,0.263
1913668,-7674.0,-4715.0,-256.0,0.634,-0.587,0.428,0.264
1913695,-7558.0,-4017.0,6.0,0.637,-0.585,0.426,0.265
1913711,-7670.0,-3841.0,108.0,0.639,-0.583,0.424,0.267
1913727,-7114.0,-4017.0,-200.0,0.641,-0.581,0.423,0.269
1913744,-7540.0,-3559.0,272.0,0.642,-0.58,0.423,0.271
1913760,-7380.0,-4321.0,88.0,0.642,-0.578,0.423,0.274
1913776,-7802.0,-4047.0,274.0,0.643,-0.575,0.423,0.277
1913793,-7712.0,-3873.0,160.0,0.643,-0.572,0.424,0.28
1913819,-7766.0,-3783.0,32.0,0.644,-0.569,0.426,0.284
1913835,-7988.0,-3569.0,210.0,0.643,-0.566,0.428,0.288
1913851,-8362.0,-3955.0,260.0,0.642,-0.563,0.429,0.292
1913867,-8218.0,-3929.0,320.0,0.643,-0.56,0.431,0.297
1913883,-8026.0,-3861.0,250.0,0.643,-0.555,0.433,0.301
1913900,-8000.0,-3443.0,396.0,0.644,-0.551,0.435,0.305
1913917,-8196.0,-3393.0,266.0,0.644,-0.546,0.438,0.308
1913943,-8472.0,-3941.0,308.0,0.645,-0.541,0.441,0.311
1913959,-8728.0,-4023.0,342.0,0.646,-0.535,0.445,0.314
1913975,-8840.0,-3643.0,204.0,0.648,-0.528,0.449,0.316
1913991,-9208.0,-3643.0,92.0,0.65,-0.521,0.453,0.318
1914007,-9686.0,-4187.0,146.0,0.652,-0.514,0.457,0.319
1914023,-9848.0,-3893.0,-114.0,0.654,-0.506,0.463,0.319
1914049,-10194.0,-4227.0,-128.0,0.657,-0.497,0.468,0.319
1914066,-10118.0,-4063.0,-216.0,0.661,-0.488,0.473,0.318
1914083,-10204.0,-4065.0,-166.0,0.665,-0.479,0.478,0.316
1914100,-10332.0,-4015.0,-88.0,0.67,-0.469,0.482,0.313
1914117,-10104.0,-3891.0,-74.0,0.675,-0.46,0.486,0.311
1914134,-9530.0,-3467.0,-22.0,0.681,-0.45,0.49,0.307
