timeMs,ax,ay,az,q0,q1,q2,q3
1093105,-2101.0,7774.0,1491.0,0.587,0.38,0.526,0.484
1093121,-1941.0,7840.0,1389.0,0.588,0.38,0.525,0.484
1093147,-1939.0,7696.0,1435.0,0.589,0.381,0.523,0.484
1093163,-1907.0,7846.0,1471.0,0.59,0.38,0.522,0.485
1093180,-1863.0,7786.0,1533.0,0.591,0.38,0.521,0.485
1093196,-1969.0,7748.0,1565.0,0.591,0.38,0.52,0.485
1093213,-1917.0,7798.0,1489.0,0.592,0.38,0.519,0.486
1093229,-1919.0,7804.0,1575.0,0.592,0.38,0.518,0.486
1093245,-1985.0,7632.0,1631.0,0.593,0.38,0.518,0.486
1093261,-1909.0,7674.0,1547.0,0.593,0.38,0.517,0.486
1093287,-1895.0,7698.0,1473.0,0.593,0.38,0.517,0.486
1093303,-1889.0,7634.0,1577.0,0.593,0.379,0.517,0.486
1093320,-1929.0,7628.0,1633.0,0.593,0.379,0.518,0.486
1093337,-1969.0,7694.0,1587.0,0.592,0.38,0.518,0.486
1093353,-1949.0,7710.0,1587.0,0.592,0.38,0.519,0.486
1093369,-1949.0,7690.0,1575.0,0.591,0.38,0.52,0.486
1093385,-1987.0,7756.0,1541.0,0.591,0.38,0.52,0.485
1093411,-2007.0,7752.0,1501.0,0.59,0.38,0.521,0.485
1093427,-2017.0,7710.0,1439.0,0.589,0.381,0.522,0.485
1093443,-2047.0,7736.0,1421.0,0.588,0.381,0.524,0.485
1093459,-2045.0,7748.0,1401.0,0.587,0.381,0.525,0.484
1093476,-2093.0,7784.0,1355.0,0.586,0.381,0.526,0.484
1093492,-2119.0,7778.0,1255.0,0.586,0.381,0.527,0.483
1093518,-2153.0,7800.0,1291.0,0.585,0.382,0.529,0.483
1093535,-2123.0,7772.0,1273.0,0.584,0.382,0.53,0.482
1093552,-2093.0,7770.0,1167.0,0.583,0.383,0.531,0.481
1093568,-2083.0,7928.0,1113.0,0.582,0.383,0.532,0.481
1093585,-2067.0,8010.0,1063.0,0.582,0.384,0.533,0.48
1093602,-2115.0,7974.0,1077.0,0.581,0.384,0.533,0.48
1093619,-2195.0,7848.0,1071.0,0.581,0.384,0.534,0.48
1093636,-2183.0,7874.0,1083.0,0.58,0.384,0.534,0.479
1093652,-2257.0,7874.0,1051.0,0.58,0.385,0.535,0.479
1093668,-2199.0,7824.0,1019.0,0.58,0.385,0.535,0.479
1093694,-2159.0,7872.0,1011.0,0.58,0.385,0.535,0.478
1093710,-2161.0,7902.0,967.0,0.58,0.385,0.536,0.478
1093726,-2171.0,7848.0,963.0,0.58,0.385,0.536,0.478
1093742,-2189.0,7878.0,1001.0,0.58,0.385,0.535,0.478
1093758,-2139.0,7884.0,995.0,0.581,0.385,0.535,0.478
1093775,-2215.0,7924.0,989.0,0.581,0.384,0.535,0.478
1093801,-2171.0,7854.0,1069.0,0.582,0.384,0.535,0.478
1093817,-2133.0,7824.0,1073.0,0.582,0.384,0.534,0.478
1093833,-2155.0,7824.0,1067.0,0.583,0.383,0.534,0.478
1093849,-2197.0,7824.0,1153.0,0.584,0.383,0.533,0.478
1093866,-2183.0,7708.0,1315.0,0.584,0.383,0.533,0.478
1093883,-2127.0,7666.0,1265.0,0.585,0.383,0.532,0.478
1093899,-1929.0,7804.0,1183.0,0.585,0.382,0.532,0.477
1093925,-1909.0,7918.0,1075.0,0.586,0.382,0.532,0.477
1093941,-2015.0,7766.0,1193.0,0.586,0.381,0.533,0.477
1093957,-2107.0,7792.0,1261.0,0.587,0.38,0.533,0.477
1093973,-2139.0,7718.0,1261.0,0.587,0.379,0.533,0.477
1093989,-2197.0,7554.0,1483.0,0.587,0.378,0.534,0.477
1094005,-2177.0,7694.0,1419.0,0.587,0.378,0.534,0.477
1094031,-2157.0,7794.0,1335.0,0.587,0.377,0.534,0.477
1094047,-2229.0,7738.0,1333.0,0.587,0.377,0.534,0.476
1094063,-2171.0,7718.0,1349.0,0.587,0.377,0.535,0.476
1094080,-2147.0,7784.0,1363.0,0.587,0.377,0.535,0.476
1094097,-2113.0,7740.0,1333.0,0.587,0.378,0.535,0.476
1094114,-2115.0,7764.0,1315.0,0.587,0.378,0.535,0.476
1094130,-2159.0,7794.0,1257.0,0.587,0.378,0.535,0.475
1094146,-2195.0,7788.0,1253.0,0.587,0.378,0.536,0.475
1094172,-2207.0,7808.0,1285.0,0.586,0.378,0.536,0.475
1094188,-2267.0,7796.0,1257.0,0.586,0.378,0.536,0.475
1094204,-2259.0,7808.0,1231.0,0.586,0.378,0.536,0.475
1094220,-2255.0,7722.0,1163.0,0.586,0.378,0.536,0.475
1094236,-2305.0,7722.0,1213.0,0.586,0.379,0.536,0.475
1094252,-2333.0,7774.0,1125.0,0.586,0.379,0.537,0.475
1094279,-2227.0,7810.0,1167.0,0.585,0.379,0.537,0.475
1094295,-2221.0,7824.0,1167.0,0.585,0.379,0.537,0.475
1094311,-2245.0,7786.0,1067.0,0.585,0.379,0.537,0.475
1094327,-2215.0,7792.0,1067.0,0.585,0.379,0.538,0.475
1094343,-2227.0,7810.0,1017.0,0.584,0.379,0.538,0.474
1094359,-2321.0,7780.0,1015.0,0.584,0.379,0.539,0.474
1094376,-2289.0,7730.0,1043.0,0.583,0.379,0.539,0.474
1094403,-2279.0,7750.0,999.0,0.583,0.379,0.54,0.474
1094419,-2265.0,7818.0,1077.0,0.582,0.379,0.54,0.474
1094435,-2315.0,7772.0,1081.0,0.582,0.38,0.541,0.474
1094451,-2219.0,7820.0,1075.0,0.582,0.38,0.541,0.474
1094467,-2301.0,7812.0,1021.0,0.581,0.38,0.542,0.473
1094483,-2313.0,7852.0,963.0,0.581,0.38,0.542,0.473
1094509,-2329.0,7876.0,1015.0,0.581,0.38,0.542,0.473
1094525,-2285.0,7764.0,1005.0,0.581,0.381,0.542,0.473
1094541,-2297.0,7808.0,1001.0,0.581,0.381,0.542,0.473
1094557,-2283.0,7822.0,1015.0,0.581,0.381,0.542,0.473
1094573,-2229.0,7846.0,991.0,0.581,0.381,0.542,0.473
1094590,-2295.0,7850.0,991.0,0.581,0.381,0.542,0.473
1094606,-2183.0,7860.0,987.0,0.581,0.382,0.542,0.473
1094633,-2275.0,7892.0,995.0,0.581,0.382,0.542,0.473
1094649,-2165.0,7868.0,1017.0,0.581,0.381,0.541,0.473
1094665,-2253.0,7816.0,1035.0,0.581,0.381,0.541,0.473
1094682,-2201.0,7762.0,1049.0,0.581,0.381,0.541,0.473
1094699,-2183.0,7766.0,1025.0,0.582,0.381,0.541,0.473
1094715,-2155.0,7780.0,1035.0,0.582,0.381,0.54,0.473
1094731,-2139.0,7810.0,1037.0,0.582,0.381,0.54,0.473
1094748,-2109.0,7808.0,1041.0,0.582,0.381,0.54,0.473
1094774,-2163.0,7798.0,1043.0,0.583,0.381,0.54,0.474
1094790,-2229.0,7798.0,1077.0,0.583,0.381,0.54,0.474
1094806,-2141.0,7798.0,1097.0,0.583,0.38,0.539,0.474
1094823,-2197.0,7764.0,1083.0,0.583,0.38,0.539,0.474
1094839,-2179.0,7758.0,1125.0,0.583,0.38,0.539,0.474
1094856,-2163.0,7762.0,1131.0,0.584,0.38,0.539,0.474
1094872,-2203.0,7812.0,1143.0,0.584,0.38,0.539,0.474
1094898,-2243.0,7746.0,1133.0,0.584,0.38,0.539,0.474
1094914,-2251.0,7902.0,979.0,0.584,0.38,0.539,0.474
1094930,-2223.0,7746.0,1149.0,0.584,0.38,0.539,0.474
1094946,-2249.0,7646.0,1169.0,0.584,0.38,0.539,0.473
1094962,-2241.0,7724.0,1163.0,0.584,0.38,0.539,0.473
1094981,-2231.0,7804.0,1099.0,0.584,0.381,0.539,0.473
1094997,-2249.0,7850.0,1097.0,0.584,0.381,0.539,0.472
1095014,-2253.0,7808.0,1087.0,0.584,0.381,0.539,0.472
1095040,-2245.0,7802.0,1059.0,0.584,0.381,0.54,0.472
1095056,-2291.0,7708.0,1031.0,0.583,0.381,0.54,0.472
1095073,-2253.0,7798.0,1075.0,0.583,0.381,0.54,0.472
1095089,-2309.0,7718.0,1023.0,0.582,0.382,0.541,0.472
1095106,-2261.0,7824.0,959.0,0.582,0.382,0.541,0.472
1095122,-2205.0,7862.0,1009.0,0.582,0.382,0.541,0.472
1095138,-2203.0,7886.0,1069.0,0.581,0.382,0.541,0.472
1095164,-2235.0,7860.0,1045.0,0.581,0.382,0.541,0.472
1095181,-2209.0,7856.0,987.0,0.581,0.383,0.541,0.472
1095198,-2223.0,7824.0,993.0,0.581,0.383,0.541,0.472
1095214,-2233.0,7810.0,995.0,0.581,0.383,0.541,0.473
1095230,-2203.0,7802.0,983.0,0.581,0.383,0.541,0.473
1095246,-2221.0,7824.0,989.0,0.581,0.383,0.541,0.473
1095262,-2181.0,7838.0,949.0,0.581,0.383,0.541,0.473
1095288,-2173.0,7840.0,955.0,0.581,0.382,0.541,0.473
1095304,-2149.0,7822.0,999.0,0.581,0.382,0.541,0.473
1095320,-2155.0,7868.0,993.0,0.581,0.382,0.541,0.473
1095336,-2151.0,7782.0,971.0,0.581,0.382,0.54,0.473
1095352,-2145.0,7814.0,1031.0,0.581,0.383,0.54,0.473
1095368,-2153.0,7864.0,1057.0,0.582,0.382,0.54,0.473
1095385,-2151.0,7894.0,1015.0,0.582,0.382,0.54,0.473
1095411,-2141.0,7810.0,1055.0,0.582,0.382,0.539,0.473
1095427,-2179.0,7746.0,1091.0,0.583,0.382,0.539,0.473
1095444,-2143.0,7758.0,1087.0,0.583,0.382,0.539,0.473
1095461,-2163.0,7746.0,1073.0,0.583,0.382,0.539,0.473
1095478,-2181.0,7810.0,1141.0,0.583,0.381,0.539,0.473
1095495,-2127.0,7806.0,1085.0,0.584,0.381,0.538,0.473
1095512,-2171.0,7744.0,1177.0,0.584,0.381,0.538,0.473
1095529,-2207.0,7754.0,1163.0,0.584,0.381,0.538,0.473
1095545,-2145.0,7808.0,1107.0,0.584,0.381,0.538,0.473
1095571,-2227.0,7798.0,1135.0,0.584,0.381,0.538,0.473
1095588,-2203.0,7750.0,1169.0,0.584,0.381,0.538,0.473
1095604,-2235.0,7798.0,1129.0,0.584,0.381,0.538,0.473
1095621,-2233.0,7760.0,1109.0,0.584,0.381,0.538,0.473
1095638,-2251.0,7804.0,1191.0,0.584,0.381,0.538,0.473
1095654,-2197.0,7766.0,1101.0,0.584,0.381,0.538,0.473
1095670,-2243.0,7830.0,1081.0,0.584,0.381,0.538,0.473
1095686,-2235.0,7786.0,1035.0,0.584,0.381,0.538,0.474
1095712,-2233.0,7760.0,1071.0,0.583,0.381,0.538,0.474
1095728,-2267.0,7764.0,1099.0,0.583,0.381,0.539,0.474
1095745,-2173.0,7836.0,1089.0,0.583,0.382,0.539,0.474
1095761,-2221.0,7748.0,1063.0,0.583,0.382,0.539,0.474
1095777,-2199.0,7846.0,1047.0,0.583,0.382,0.539,0.474
1095793,-2169.0,7874.0,1043.0,0.582,0.382,0.539,0.474
1095810,-2203.0,7840.0,1003.0,0.582,0.382,0.539,0.474
1095837,-2181.0,7800.0,1029.0,0.582,0.382,0.539,0.474
1095854,-2203.0,7836.0,1033.0,0.582,0.383,0.539,0.474
1095871,-2179.0,7842.0,1065.0,0.582,0.383,0.539,0.474
1095887,-2109.0,7804.0,1045.0,0.582,0.383,0.538,0.474
1095904,-2141.0,7920.0,1051.0,0.582,0.383,0.538,0.474
1095920,-2093.0,7832.0,1047.0,0.582,0.383,0.538,0.474
1095937,-2145.0,7832.0,1051.0,0.582,0.383,0.538,0.474
1095954,-2139.0,7842.0,1047.0,0.582,0.383,0.537,0.474
1095970,-2157.0,7826.0,1067.0,0.582,0.383,0.537,0.475
1095996,-2153.0,7818.0,1075.0,0.583,0.383,0.537,0.475
1096012,-2107.0,7802.0,1087.0,0.583,0.383,0.536,0.475
1096028,-2205.0,7748.0,1079.0,0.583,0.383,0.536,0.475
1096044,-2135.0,7860.0,1095.0,0.583,0.383,0.536,0.475
1096061,-2185.0,7824.0,1125.0,0.584,0.383,0.535,0.475
1096078,-2167.0,7832.0,1129.0,0.584,0.383,0.535,0.476
1096094,-2135.0,7780.0,1101.0,0.584,0.383,0.535,0.476
1096120,-2167.0,7824.0,1165.0,0.584,0.383,0.534,0.476
1096136,-2117.0,7808.0,1159.0,0.585,0.383,0.534,0.476
1096152,-2151.0,7824.0,1157.0,0.585,0.383,0.533,0.476
1096169,-2127.0,7732.0,1189.0,0.585,0.382,0.533,0.476
1096186,-2127.0,7842.0,1183.0,0.586,0.382,0.533,0.477
1096203,-2173.0,7842.0,1199.0,0.586,0.382,0.532,0.477
1096219,-2181.0,7812.0,1201.0,0.586,0.382,0.532,0.477
1096236,-2139.0,7702.0,1217.0,0.586,0.382,0.532,0.477
1096262,-2143.0,7716.0,1243.0,0.587,0.382,0.531,0.477
1096278,-2185.0,7748.0,1245.0,0.587,0.382,0.531,0.477
1096294,-2093.0,7770.0,1211.0,0.587,0.382,0.531,0.477
1096310,-2075.0,7836.0,1171.0,0.587,0.382,0.531,0.477
1096327,-2073.0,7752.0,1221.0,0.587,0.382,0.531,0.477
1096344,-2145.0,7728.0,1249.0,0.587,0.382,0.531,0.477
1096360,-2067.0,7750.0,1199.0,0.587,0.382,0.531,0.477
1096376,-2107.0,7754.0,1205.0,0.587,0.382,0.531,0.477
1096402,-2083.0,7848.0,1201.0,0.587,0.382,0.531,0.477
1096418,-2099.0,7816.0,1223.0,0.587,0.382,0.531,0.477
1096434,-2085.0,7850.0,1229.0,0.587,0.383,0.531,0.477
1096450,-2037.0,7838.0,1233.0,0.586,0.383,0.531,0.477
1096466,-2073.0,7792.0,1203.0,0.586,0.383,0.531,0.477
1096492,-2063.0,7790.0,1219.0,0.586,0.383,0.531,0.477
1096508,-2091.0,7784.0,1207.0,0.586,0.383,0.531,0.477
1096524,-2061.0,7784.0,1171.0,0.586,0.383,0.531,0.477
1096540,-2141.0,7822.0,1183.0,0.586,0.383,0.531,0.477
1096556,-2051.0,7806.0,1179.0,0.586,0.383,0.531,0.477
1096573,-2101.0,7880.0,1201.0,0.586,0.382,0.532,0.477
1096589,-2085.0,7818.0,1161.0,0.586,0.382,0.532,0.477
1096606,-2061.0,7830.0,1133.0,0.586,0.382,0.532,0.477
1096633,-2105.0,7768.0,1203.0,0.586,0.382,0.532,0.478
1096649,-2153.0,7786.0,1147.0,0.586,0.382,0.532,0.478
1096665,-2111.0,7796.0,1129.0,0.586,0.381,0.532,0.478
1096681,-2177.0,7830.0,1131.0,0.586,0.381,0.532,0.478
1096697,-2181.0,7802.0,1199.0,0.586,0.381,0.532,0.478
1096713,-2113.0,7816.0,1189.0,0.586,0.381,0.532,0.478
1096739,-2157.0,7840.0,1189.0,0.586,0.38,0.532,0.478
1096755,-2169.0,7792.0,1183.0,0.586,0.38,0.532,0.478
1096771,-2189.0,7724.0,1191.0,0.587,0.38,0.532,0.478
1096787,-2179.0,7822.0,1197.0,0.587,0.38,0.532,0.478
1096803,-2169.0,7784.0,1199.0,0.587,0.379,0.532,0.478
1096819,-2223.0,7752.0,1199.0,0.587,0.379,0.532,0.478
1096845,-2231.0,7780.0,1223.0,0.588,0.379,0.532,0.478
1096861,-2223.0,7796.0,1215.0,0.588,0.379,0.532,0.478
1096877,-2195.0,7782.0,1195.0,0.588,0.379,0.532,0.478
1096893,-2187.0,7732.0,1217.0,0.588,0.378,0.532,0.478
1096909,-2177.0,7778.0,1279.0,0.588,0.378,0.532,0.478
1096925,-2181.0,7856.0,1273.0,0.589,0.378,0.532,0.477
1096951,-2143.0,7756.0,1237.0,0.589,0.378,0.531,0.477
1096968,-2165.0,7826.0,1311.0,0.589,0.378,0.531,0.477
1096985,-2137.0,7822.0,1275.0,0.589,0.378,0.531,0.477
1097001,-2181.0,7790.0,1275.0,0.589,0.378,0.531,0.477
1097018,-2183.0,7770.0,1269.0,0.589,0.378,0.531,0.477
1097035,-2151.0,7724.0,1279.0,0.589,0.378,0.531,0.477
1097051,-2145.0,7720.0,1249.0,0.589,0.378,0.531,0.477
1097068,-2119.0,7742.0,1299.0,0.589,0.378,0.532,0.477
1097085,-2147.0,7794.0,1313.0,0.589,0.378,0.532,0.477
1097102,-2123.0,7776.0,1345.0,0.589,0.378,0.532,0.477
1097129,-2159.0,7786.0,1327.0,0.589,0.378,0.532,0.477
1097145,-2111.0,7758.0,1273.0,0.589,0.377,0.532,0.477
1097161,-2157.0,7724.0,1227.0,0.588,0.377,0.533,0.477
1097177,-2203.0,7770.0,1237.0,0.588,0.378,0.533,0.477
1097193,-2123.0,7768.0,1251.0,0.588,0.378,0.534,0.477
1097209,-2153.0,7806.0,1237.0,0.587,0.378,0.534,0.476
1097235,-2139.0,7828.0,1167.0,0.587,0.378,0.535,0.476
1097251,-2189.0,7746.0,1165.0,0.586,0.378,0.535,0.476
1097267,-2193.0,7792.0,1143.0,0.586,0.378,0.536,0.476
1097283,-2203.0,7756.0,1103.0,0.585,0.378,0.536,0.476
1097299,-2245.0,7758.0,1109.0,0.585,0.379,0.537,0.476
1097315,-2291.0,7798.0,1077.0,0.584,0.379,0.537,0.476
1097341,-2247.0,7798.0,1053.0,0.584,0.379,0.538,0.476
1097357,-2319.0,7812.0,1079.0,0.583,0.379,0.538,0.476
1097373,-2277.0,7812.0,1075.0,0.582,0.379,0.539,0.476
1097389,-2279.0,7814.0,1083.0,0.582,0.379,0.539,0.476
1097405,-2265.0,7860.0,1041.0,0.582,0.379,0.539,0.476
1097421,-2223.0,7890.0,1035.0,0.582,0.38,0.539,0.476
1097447,-2207.0,7878.0,1015.0,0.582,0.38,0.539,0.476
1097463,-2179.0,7878.0,1019.0,0.582,0.38,0.539,0.476
1097479,-2173.0,7820.0,1007.0,0.582,0.38,0.539,0.476
1097495,-2145.0,7766.0,1011.0,0.582,0.38,0.539,0.476
1097511,-2117.0,7838.0,979.0,0.582,0.38,0.539,0.476
1097527,-2113.0,7854.0,999.0,0.582,0.38,0.538,0.476
1097553,-2113.0,7806.0,1061.0,0.582,0.38,0.538,0.477
1097569,-2085.0,7782.0,1077.0,0.583,0.38,0.538,0.477
1097585,-2081.0,7906.0,1045.0,0.583,0.379,0.537,0.477
1097601,-2085.0,7842.0,1055.0,0.583,0.379,0.537,0.477
1097617,-2083.0,7818.0,1139.0,0.584,0.379,0.537,0.477
1097633,-2139.0,7854.0,1227.0,0.584,0.378,0.536,0.478
1097659,-2039.0,7870.0,1203.0,0.585,0.377,0.536,0.478
1097675,-2087.0,7826.0,1193.0,0.586,0.377,0.535,0.478
1097691,-2111.0,7728.0,1165.0,0.586,0.376,0.535,0.479
1097707,-2119.0,7734.0,1347.0,0.586,0.375,0.535,0.479
1097723,-2239.0,7698.0,1199.0,0.587,0.374,0.535,0.479
1097739,-2187.0,7764.0,1411.0,0.587,0.373,0.535,0.479
1097765,-2201.0,7704.0,1265.0,0.587,0.373,0.535,0.479
1097781,-2173.0,7780.0,1455.0,0.588,0.372,0.535,0.479
1097797,-2135.0,7712.0,1351.0,0.588,0.372,0.535,0.479
1097813,-2195.0,7728.0,1359.0,0.588,0.372,0.535,0.479
1097829,-2235.0,7676.0,1353.0,0.588,0.371,0.535,0.479
1097845,-2231.0,7646.0,1305.0,0.588,0.371,0.536,0.479
1097871,-2319.0,7574.0,1323.0,0.587,0.371,0.536,0.479
1097887,-2281.0,7706.0,1347.0,0.587,0.371,0.537,0.479
1097903,-2329.0,7720.0,1281.0,0.586,0.371,0.537,0.479
1097919,-2291.0,7676.0,1307.0,0.586,0.371,0.538,0.479
1097935,-2335.0,7724.0,1221.0,0.585,0.372,0.539,0.479
1097961,-2305.0,7682.0,1203.0,0.584,0.372,0.54,0.479
1097977,-2285.0,7710.0,1209.0,0.583,0.373,0.541,0.478
1097993,-2323.0,7692.0,1133.0,0.582,0.374,0.541,0.478
1098009,-2279.0,7762.0,1069.0,0.581,0.375,0.542,0.477
1098025,-2263.0,7784.0,1165.0,0.58,0.376,0.543,0.477
1098041,-2265.0,7858.0,1081.0,0.579,0.377,0.544,0.476
1098067,-2227.0,7838.0,1063.0,0.578,0.378,0.545,0.476
1098083,-2177.0,7842.0,981.0,0.577,0.378,0.546,0.475
1098099,-2237.0,7896.0,955.0,0.576,0.379,0.547,0.475
1098115,-2215.0,8168.0,825.0,0.576,0.379,0.548,0.475
1098131,-2341.0,8062.0,851.0,0.575,0.378,0.548,0.475
1098147,-2239.0,7810.0,915.0,0.575,0.378,0.549,0.475
1098173,-2205.0,7844.0,983.0,0.575,0.378,0.549,0.475
1098189,-2293.0,7858.0,917.0,0.574,0.378,0.549,0.475
1098205,-2225.0,7724.0,863.0,0.574,0.377,0.55,0.475
1098221,-2137.0,7948.0,693.0,0.574,0.377,0.55,0.475
1098237,-2251.0,7992.0,743.0,0.574,0.377,0.55,0.476
1098254,-2281.0,7678.0,809.0,0.574,0.376,0.55,0.476
1098270,-2241.0,7856.0,823.0,0.574,0.376,0.55,0.476
1098296,-2255.0,7812.0,819.0,0.575,0.375,0.549,0.477
1098312,-2273.0,7778.0,825.0,0.575,0.375,0.549,0.477
1098328,-2237.0,7840.0,895.0,0.575,0.375,0.549,0.477
1098345,-2311.0,7808.0,863.0,0.576,0.375,0.548,0.477
1098362,-2285.0,7772.0,925.0,0.576,0.374,0.548,0.477
1098378,-2259.0,7792.0,1009.0,0.577,0.374,0.547,0.477
1098394,-2193.0,7780.0,1079.0,0.577,0.374,0.547,0.478
1098420,-2189.0,7810.0,1011.0,0.578,0.374,0.546,0.478
1098436,-2189.0,7804.0,1061.0,0.578,0.373,0.546,0.478
1098452,-2205.0,7732.0,993.0,0.579,0.373,0.545,0.478
1098468,-2243.0,7902.0,1007.0,0.579,0.372,0.545,0.479
1098484,-2281.0,7746.0,1155.0,0.58,0.372,0.544,0.479
1098500,-2335.0,7720.0,1185.0,0.581,0.371,0.544,0.479
1098527,-2289.0,7794.0,1169.0,0.581,0.371,0.543,0.479
1098543,-2257.0,7736.0,1199.0,0.582,0.371,0.543,0.479
1098560,-2181.0,7776.0,1213.0,0.582,0.371,0.542,0.479
1098577,-2207.0,7766.0,1215.0,0.582,0.371,0.542,0.479
1098593,-2173.0,7796.0,1129.0,0.583,0.371,0.541,0.479
1098609,-2213.0,7744.0,1237.0,0.583,0.371,0.541,0.48
1098625,-2205.0,7766.0,1263.0,0.583,0.371,0.54,0.48
1098651,-2209.0,7772.0,1235.0,0.583,0.371,0.54,0.48
1098667,-2203.0,7660.0,1257.0,0.583,0.371,0.54,0.48
1098683,-2143.0,7704.0,1297.0,0.584,0.371,0.54,0.48
1098699,-2197.0,7720.0,1291.0,0.584,0.371,0.54,0.48
1098715,-2159.0,7774.0,1199.0,0.584,0.371,0.54,0.48
1098731,-2187.0,7796.0,1257.0,0.583,0.371,0.54,0.48
1098757,-2161.0,7698.0,1315.0,0.583,0.371,0.541,0.48
1098773,-2161.0,7638.0,1191.0,0.583,0.371,0.541,0.48
1098789,-2217.0,7706.0,1217.0,0.582,0.371,0.542,0.48
1098805,-2217.0,7706.0,1183.0,0.582,0.371,0.542,0.48
1098821,-2241.0,7754.0,1217.0,0.581,0.371,0.543,0.479
1098837,-2205.0,7766.0,1165.0,0.58,0.372,0.544,0.479
1098863,-2125.0,8058.0,999.0,0.58,0.372,0.544,0.479
1098880,-2245.0,7712.0,1143.0,0.579,0.372,0.545,0.479
1098897,-2247.0,7784.0,1099.0,0.578,0.372,0.545,0.479
1098913,-2319.0,7854.0,1071.0,0.578,0.373,0.546,0.479
1098929,-2317.0,7766.0,1069.0,0.577,0.373,0.546,0.479
1098946,-2285.0,7694.0,1025.0,0.577,0.374,0.546,0.479
1098963,-2281.0,7912.0,985.0,0.576,0.374,0.547,0.479
1098979,-2257.0,7854.0,937.0,0.576,0.374,0.547,0.479
1099005,-2275.0,7762.0,893.0,0.575,0.374,0.547,0.479
1099021,-2307.0,7758.0,869.0,0.574,0.374,0.548,0.479
1099037,-2323.0,7900.0,937.0,0.574,0.375,0.548,0.479
1099054,-2349.0,7858.0,927.0,0.573,0.375,0.549,0.479
1099070,-2325.0,7860.0,903.0,0.573,0.375,0.549,0.48
1099087,-2289.0,7912.0,917.0,0.573,0.375,0.549,0.48
1099103,-2301.0,7906.0,875.0,0.573,0.375,0.548,0.48
1099129,-2263.0,7812.0,861.0,0.573,0.375,0.548,0.48
1099146,-2227.0,7812.0,905.0,0.573,0.375,0.548,0.48
1099163,-2205.0,7806.0,911.0,0.574,0.375,0.547,0.48
1099180,-2201.0,7794.0,873.0,0.574,0.375,0.547,0.48
1099196,-2175.0,7846.0,941.0,0.575,0.375,0.546,0.48
1099212,-2171.0,7822.0,991.0,0.575,0.375,0.546,0.48
1099228,-2079.0,7788.0,997.0,0.575,0.375,0.545,0.48
1099244,-2175.0,7710.0,1057.0,0.576,0.376,0.544,0.481
1099270,-2111.0,7838.0,1017.0,0.576,0.376,0.544,0.48
1099287,-2091.0,7928.0,1005.0,0.577,0.376,0.543,0.481
1099303,-2171.0,7816.0,1059.0,0.577,0.375,0.543,0.481
1099320,-2169.0,7814.0,1125.0,0.578,0.375,0.542,0.481
1099337,-2113.0,7954.0,1077.0,0.578,0.375,0.542,0.481
1099353,-2181.0,7828.0,1079.0,0.579,0.375,0.541,0.481
1099370,-2191.0,7854.0,1175.0,0.58,0.374,0.54,0.482
1099387,-2179.0,7818.0,1135.0,0.58,0.374,0.539,0.482
1099404,-2179.0,7802.0,1225.0,0.581,0.374,0.538,0.482
1099430,-2145.0,7778.0,1169.0,0.582,0.374,0.537,0.483
1099446,-2215.0,7812.0,1217.0,0.583,0.373,0.537,0.483
1099463,-2173.0,7752.0,1249.0,0.583,0.373,0.536,0.483
1099479,-2183.0,7692.0,1301.0,0.584,0.373,0.535,0.483
1099495,-2145.0,7682.0,1231.0,0.584,0.373,0.535,0.484
1099511,-2107.0,7780.0,1345.0,0.585,0.372,0.534,0.484
1099527,-2077.0,7776.0,1261.0,0.585,0.372,0.533,0.484
1099554,-2155.0,7758.0,1261.0,0.586,0.372,0.533,0.484
1099570,-2177.0,7750.0,1329.0,0.586,0.371,0.532,0.485
1099586,-2165.0,7766.0,1307.0,0.587,0.371,0.532,0.485
1099603,-2149.0,7724.0,1373.0,0.587,0.371,0.532,0.485
1099620,-2089.0,7796.0,1407.0,0.587,0.371,0.531,0.485
1099637,-2113.0,7710.0,1369.0,0.587,0.371,0.531,0.485
1099653,-2075.0,7716.0,1353.0,0.588,0.371,0.531,0.485
1099670,-2045.0,7808.0,1413.0,0.588,0.371,0.531,0.485
1099686,-2103.0,7748.0,1343.0,0.588,0.371,0.531,0.485
1099713,-2099.0,7740.0,1383.0,0.588,0.371,0.531,0.485
1099729,-2115.0,7720.0,1403.0,0.588,0.371,0.531,0.485
1099745,-2127.0,7774.0,1397.0,0.588,0.371,0.531,0.485
1099762,-2169.0,7762.0,1395.0,0.588,0.371,0.531,0.484
1099779,-2153.0,7752.0,1387.0,0.588,0.371,0.531,0.484
1099795,-2091.0,7730.0,1369.0,0.588,0.371,0.531,0.484
1099812,-2133.0,7770.0,1361.0,0.588,0.371,0.532,0.484
1099828,-2173.0,7732.0,1369.0,0.588,0.371,0.532,0.484
1099854,-2163.0,7758.0,1327.0,0.588,0.371,0.532,0.484
1099870,-2163.0,7804.0,1323.0,0.588,0.371,0.532,0.484
1099886,-2187.0,7754.0,1345.0,0.587,0.371,0.533,0.484
1099903,-2215.0,7776.0,1351.0,0.587,0.371,0.533,0.483
1099920,-2201.0,7806.0,1277.0,0.587,0.371,0.533,0.484
1099936,-2237.0,7718.0,1329.0,0.587,0.371,0.533,0.483
1099953,-2199.0,7756.0,1387.0,0.586,0.371,0.534,0.483
1099969,-2189.0,7804.0,1207.0,0.586,0.371,0.534,0.483
1099995,-2195.0,7774.0,1233.0,0.586,0.372,0.534,0.483
1100011,-2207.0,7736.0,1215.0,0.586,0.372,0.534,0.483
1100027,-2145.0,7808.0,1229.0,0.586,0.372,0.534,0.483
1100043,-2185.0,7798.0,1215.0,0.586,0.372,0.534,0.483
1100059,-2171.0,7804.0,1217.0,0.586,0.372,0.534,0.483
1100076,-2155.0,7802.0,1173.0,0.586,0.372,0.534,0.483
1100093,-2261.0,7796.0,1243.0,0.586,0.372,0.534,0.483
1100120,-2183.0,7790.0,1213.0,0.586,0.372,0.534,0.483
1100136,-2179.0,7774.0,1217.0,0.586,0.372,0.534,0.483
1100153,-2199.0,7844.0,1223.0,0.586,0.372,0.534,0.483
1100169,-2159.0,7782.0,1251.0,0.586,0.372,0.534,0.483
1100186,-2213.0,7800.0,1263.0,0.586,0.372,0.534,0.482
1100202,-2139.0,7882.0,1275.0,0.586,0.371,0.534,0.483
1100219,-2191.0,7796.0,1231.0,0.587,0.371,0.534,0.483
1100235,-2205.0,7736.0,1277.0,0.587,0.371,0.534,0.483
1100261,-2167.0,7734.0,1325.0,0.587,0.371,0.534,0.483
1100277,-2167.0,7730.0,1271.0,0.587,0.371,0.534,0.483
1100293,-2213.0,7802.0,1289.0,0.587,0.371,0.533,0.483
1100310,-2221.0,7798.0,1271.0,0.588,0.371,0.533,0.483
1100326,-2159.0,7766.0,1283.0,0.588,0.37,0.533,0.483
1100342,-2191.0,7766.0,1301.0,0.588,0.37,0.533,0.483
1100368,-2197.0,7750.0,1283.0,0.588,0.37,0.533,0.483
1100384,-2211.0,7772.0,1325.0,0.588,0.37,0.532,0.483
1100401,-2249.0,7790.0,1311.0,0.589,0.37,0.532,0.483
1100418,-2197.0,7790.0,1291.0,0.589,0.37,0.532,0.483
1100434,-2163.0,7832.0,1295.0,0.589,0.37,0.532,0.483
1100450,-2179.0,7790.0,1341.0,0.589,0.37,0.531,0.483
1100466,-2163.0,7788.0,1329.0,0.59,0.369,0.531,0.483
1100492,-2207.0,7750.0,1321.0,0.59,0.369,0.531,0.484
1100508,-2191.0,7752.0,1367.0,0.59,0.369,0.531,0.484
1100525,-2209.0,7720.0,1379.0,0.591,0.369,0.53,0.484
1100542,-2237.0,7756.0,1453.0,0.591,0.369,0.53,0.484
1100559,-2191.0,7744.0,1355.0,0.591,0.369,0.53,0.484
1100576,-2203.0,7688.0,1369.0,0.592,0.369,0.529,0.484
1100593,-2233.0,7736.0,1423.0,0.592,0.368,0.529,0.484
1100610,-2205.0,7698.0,1421.0,0.592,0.368,0.529,0.484
1100626,-2117.0,7748.0,1373.0,0.592,0.368,0.529,0.484
1100643,-2185.0,7730.0,1391.0,0.593,0.368,0.528,0.484
1100660,-2217.0,7774.0,1445.0,0.593,0.368,0.528,0.484
1100677,-2205.0,7764.0,1465.0,0.593,0.368,0.528,0.484
1100703,-2255.0,7700.0,1455.0,0.593,0.368,0.528,0.484
1100719,-2215.0,7658.0,1467.0,0.593,0.368,0.528,0.484
1100736,-2237.0,7762.0,1425.0,0.593,0.368,0.528,0.484
1100752,-2179.0,7700.0,1483.0,0.593,0.368,0.528,0.484
1100768,-2149.0,7702.0,1433.0,0.593,0.368,0.528,0.484
1100784,-2175.0,7740.0,1461.0,0.593,0.368,0.528,0.484
1100810,-2207.0,7726.0,1459.0,0.593,0.368,0.528,0.484
1100827,-2167.0,7704.0,1469.0,0.593,0.368,0.528,0.484
1100844,-2151.0,7796.0,1475.0,0.593,0.368,0.528,0.484
1100860,-2149.0,7702.0,1423.0,0.592,0.368,0.528,0.484
1100877,-2167.0,7760.0,1411.0,0.592,0.368,0.528,0.484
1100894,-2097.0,7780.0,1419.0,0.592,0.369,0.529,0.484
1100911,-2201.0,7766.0,1415.0,0.592,0.369,0.529,0.484
1100927,-2173.0,7726.0,1395.0,0.592,0.369,0.529,0.484
1100944,-2161.0,7768.0,1395.0,0.592,0.369,0.529,0.483
1100970,-2199.0,7798.0,1405.0,0.591,0.369,0.53,0.483
1100986,-2191.0,7812.0,1403.0,0.591,0.369,0.53,0.483
1101002,-2185.0,7760.0,1375.0,0.591,0.369,0.53,0.483
1101018,-2183.0,7726.0,1393.0,0.591,0.369,0.53,0.483
1101034,-2241.0,7712.0,1343.0,0.591,0.369,0.531,0.483
1101050,-2191.0,7748.0,1345.0,0.591,0.369,0.531,0.483
1101076,-2191.0,7746.0,1325.0,0.59,0.369,0.531,0.483
1101092,-2241.0,7774.0,1309.0,0.59,0.369,0.531,0.483
1101108,-2215.0,7720.0,1319.0,0.59,0.369,0.532,0.483
1101125,-2239.0,7726.0,1305.0,0.59,0.369,0.532,0.483
1101142,-2245.0,7748.0,1315.0,0.59,0.369,0.532,0.483
1101158,-2245.0,7782.0,1329.0,0.59,0.369,0.532,0.483
1101175,-2271.0,7824.0,1245.0,0.59,0.369,0.532,0.483
1101191,-2259.0,7844.0,1237.0,0.589,0.369,0.532,0.483
1101208,-2199.0,7680.0,1279.0,0.589,0.369,0.532,0.483
1101235,-2279.0,7808.0,1325.0,0.589,0.369,0.532,0.483
1101251,-2269.0,7714.0,1391.0,0.589,0.369,0.532,0.484
1101267,-2247.0,7710.0,1313.0,0.589,0.369,0.532,0.484
1101283,-2189.0,7786.0,1281.0,0.589,0.369,0.531,0.484
1101299,-2197.0,7800.0,1291.0,0.589,0.369,0.531,0.484
1101315,-2223.0,7780.0,1311.0,0.589,0.369,0.531,0.484
1101341,-2209.0,7842.0,1343.0,0.589,0.369,0.531,0.484
1101358,-2179.0,7884.0,1333.0,0.59,0.369,0.531,0.484
1101374,-2209.0,8022.0,1333.0,0.59,0.369,0.53,0.484
1101390,-2263.0,7856.0,1607.0,0.59,0.37,0.53,0.484
1101406,-2365.0,7710.0,1323.0,0.59,0.37,0.53,0.484
1101422,-2495.0,7680.0,1351.0,0.59,0.371,0.53,0.483
1101438,-2753.0,7868.0,1559.0,0.59,0.374,0.531,0.48
1101464,-2635.0,8294.0,1603.0,0.589,0.378,0.532,0.477
1101480,-2395.0,9292.0,1067.0,0.588,0.38,0.533,0.474
1101496,-2785.0,8560.0,1291.0,0.588,0.38,0.534,0.473
1101513,-2579.0,7770.0,1469.0,0.588,0.38,0.536,0.472
1101529,-2253.0,7594.0,905.0,0.587,0.379,0.537,0.472
1101546,-2567.0,7312.0,1089.0,0.586,0.378,0.539,0.473
1101562,-2821.0,7604.0,1453.0,0.585,0.376,0.541,0.474
1101588,-2601.0,8018.0,1329.0,0.583,0.374,0.543,0.475
1101604,-2611.0,8522.0,1073.0,0.582,0.371,0.545,0.476
1101620,-2643.0,8424.0,747.0,0.581,0.367,0.548,0.477
1101636,-2821.0,8002.0,969.0,0.58,0.364,0.55,0.478
1101652,-2661.0,7884.0,997.0,0.58,0.361,0.552,0.478
1101668,-2219.0,8386.0,735.0,0.58,0.359,0.554,0.478
1101695,-2265.0,8614.0,935.0,0.581,0.356,0.555,0.477
1101711,-2213.0,8028.0,731.0,0.582,0.353,0.557,0.476
1101727,-2543.0,7866.0,865.0,0.585,0.349,0.558,0.474
1101743,-2547.0,8106.0,829.0,0.587,0.345,0.558,0.474
1101759,-2593.0,7454.0,913.0,0.59,0.34,0.558,0.474
1101785,-2471.0,7262.0,981.0,0.593,0.335,0.558,0.474
1101802,-2879.0,7228.0,1475.0,0.595,0.331,0.557,0.475
1101818,-2831.0,6680.0,1447.0,0.598,0.326,0.556,0.477
1101835,-2885.0,6746.0,1593.0,0.6,0.322,0.554,0.478
1101852,-2723.0,6488.0,1669.0,0.602,0.319,0.552,0.48
1101869,-2681.0,6230.0,1795.0,0.604,0.317,0.55,0.482
1101885,-2757.0,6438.0,2033.0,0.605,0.316,0.548,0.484
1101901,-2657.0,6474.0,2077.0,0.606,0.315,0.545,0.486
1101917,-2637.0,6068.0,2175.0,0.607,0.314,0.541,0.489
1101934,-2483.0,6432.0,2155.0,0.608,0.315,0.538,0.492
1101961,-2371.0,6408.0,2091.0,0.608,0.316,0.534,0.495
1101977,-2313.0,6734.0,2081.0,0.607,0.317,0.531,0.498
1101993,-2283.0,7238.0,2009.0,0.606,0.32,0.529,0.501
1102009,-2335.0,7354.0,1879.0,0.604,0.322,0.527,0.504
1102025,-2279.0,7796.0,1673.0,0.602,0.325,0.525,0.506
1102041,-2329.0,8004.0,1425.0,0.6,0.329,0.524,0.507
1102058,-2333.0,8446.0,1203.0,0.597,0.334,0.524,0.507
1102084,-2285.0,8228.0,1129.0,0.595,0.339,0.523,0.508
1102100,-2335.0,7240.0,1501.0,0.592,0.345,0.522,0.508
1102116,-1851.0,7372.0,1421.0,0.589,0.352,0.521,0.508
1102132,-1665.0,7594.0,1407.0,0.587,0.359,0.52,0.507
1102149,-1557.0,7744.0,1475.0,0.585,0.366,0.519,0.505
1102165,-1463.0,8260.0,1379.0,0.583,0.373,0.519,0.502
1102182,-1397.0,8380.0,1333.0,0.581,0.38,0.518,0.5
1102199,-1177.0,8536.0,1007.0,0.579,0.385,0.518,0.498
1102226,-1301.0,8098.0,1131.0,0.578,0.389,0.518,0.496
1102242,-1147.0,8034.0,871.0,0.577,0.394,0.518,0.494
1102258,-1133.0,7540.0,787.0,0.576,0.398,0.518,0.492
1102274,-1139.0,7380.0,785.0,0.575,0.402,0.518,0.49
1102290,-1219.0,7774.0,713.0,0.574,0.407,0.518,0.486
1102306,-1185.0,7930.0,699.0,0.573,0.412,0.519,0.483
1102332,-1333.0,8138.0,641.0,0.571,0.417,0.521,0.479
1102348,-1515.0,8174.0,759.0,0.57,0.421,0.522,0.474
1102364,-1457.0,8746.0,677.0,0.569,0.425,0.524,0.47
1102380,-1691.0,8236.0,975.0,0.568,0.428,0.525,0.467
1102396,-1573.0,8260.0,977.0,0.568,0.431,0.527,0.463
1102413,-1491.0,8124.0,965.0,0.567,0.433,0.528,0.46
1102439,-1455.0,7996.0,961.0,0.567,0.435,0.53,0.458
1102455,-1497.0,7958.0,793.0,0.566,0.436,0.531,0.455
1102471,-1629.0,8160.0,659.0,0.566,0.438,0.532,0.453
1102487,-1807.0,8258.0,447.0,0.566,0.439,0.533,0.451
1102503,-1773.0,8092.0,443.0,0.565,0.439,0.534,0.45
1102519,-1787.0,7442.0,663.0,0.565,0.44,0.535,0.448
1102545,-1613.0,7598.0,661.0,0.564,0.442,0.537,0.446
1102562,-1571.0,7656.0,645.0,0.563,0.443,0.538,0.443
1102579,-1461.0,8018.0,567.0,0.563,0.444,0.54,0.441
1102595,-1589.0,8024.0,493.0,0.562,0.444,0.542,0.44
1102611,-1735.0,7674.0,601.0,0.562,0.444,0.543,0.438
1102627,-1833.0,7518.0,607.0,0.561,0.445,0.544,0.437
1102644,-1899.0,7580.0,465.0,0.561,0.445,0.546,0.435
1102660,-2121.0,7600.0,375.0,0.561,0.446,0.548,0.433
1102677,-2281.0,7744.0,291.0,0.56,0.447,0.549,0.43
1102704,-2393.0,8146.0,85.0,0.56,0.448,0.552,0.427
1102720,-2567.0,8342.0,61.0,0.559,0.449,0.554,0.423
1102736,-2717.0,8230.0,127.0,0.559,0.45,0.556,0.42
1102752,-2941.0,8256.0,321.0,0.559,0.451,0.558,0.416
1102768,-2917.0,8176.0,171.0,0.56,0.452,0.559,0.412
1102784,-2563.0,8234.0,151.0,0.56,0.453,0.56,0.409
1102810,-2345.0,8354.0,-81.0,0.561,0.454,0.561,0.406
1102827,-2251.0,8342.0,-243.0,0.561,0.454,0.561,0.405
1102844,-2265.0,8124.0,-173.0,0.561,0.454,0.562,0.404
1102860,-2209.0,8004.0,-257.0,0.561,0.454,0.562,0.404
1102876,-2173.0,8008.0,-307.0,0.561,0.454,0.562,0.404
1102892,-2085.0,7986.0,-451.0,0.561,0.455,0.562,0.404
1102909,-1961.0,8220.0,-873.0,0.56,0.455,0.562,0.404
1102926,-1813.0,7852.0,-581.0,0.56,0.456,0.562,0.404
1102952,-1611.0,7730.0,-671.0,0.558,0.457,0.563,0.404
1102969,-1705.0,7692.0,-681.0,0.556,0.459,0.563,0.403
1102985,-1721.0,7604.0,-581.0,0.554,0.461,0.565,0.402
1103001,-1777.0,7690.0,-597.0,0.552,0.463,0.566,0.401
1103017,-1859.0,7782.0,-659.0,0.549,0.466,0.568,0.399
1103033,-1737.0,7780.0,-943.0,0.546,0.469,0.57,0.397
1103050,-1975.0,7686.0,-973.0,0.543,0.471,0.572,0.395
1103067,-2061.0,7764.0,-1051.0,0.539,0.474,0.574,0.393
1103093,-2219.0,7822.0,-941.0,0.536,0.477,0.576,0.391
1103110,-2301.0,7918.0,-907.0,0.533,0.48,0.579,0.389
1103127,-2175.0,7970.0,-1033.0,0.529,0.482,0.581,0.387
1103144,-2297.0,7910.0,-1075.0,0.526,0.485,0.584,0.384
1103160,-2291.0,7856.0,-1259.0,0.522,0.488,0.586,0.381
1103176,-2395.0,7928.0,-1327.0,0.518,0.491,0.589,0.379
1103192,-2409.0,7766.0,-1291.0,0.514,0.494,0.592,0.376
1103208,-2525.0,7806.0,-1349.0,0.51,0.497,0.594,0.373
1103235,-2497.0,8036.0,-1645.0,0.506,0.501,0.597,0.37
1103251,-2355.0,8188.0,-1735.0,0.502,0.505,0.599,0.366
1103268,-2175.0,8002.0,-1945.0,0.498,0.508,0.602,0.363
1103285,-2057.0,7466.0,-1753.0,0.494,0.511,0.605,0.36
1103302,-2125.0,7494.0,-1577.0,0.489,0.515,0.607,0.357
1103318,-1941.0,7552.0,-1395.0,0.485,0.518,0.609,0.354
1103334,-1765.0,7342.0,-1763.0,0.481,0.52,0.611,0.353
1103350,-1055.0,7960.0,-2291.0,0.478,0.522,0.613,0.353
1103377,-1133.0,8582.0,-2113.0,0.474,0.522,0.614,0.355
1103393,-1523.0,7676.0,-1825.0,0.472,0.521,0.615,0.358
1103409,-1599.0,8294.0,-2177.0,0.47,0.52,0.615,0.361
1103425,-1427.0,8140.0,-2381.0,0.468,0.519,0.616,0.363
1103441,-1215.0,8124.0,-2749.0,0.467,0.516,0.617,0.366
1103458,-1427.0,8354.0,-2791.0,0.467,0.514,0.618,0.369
1103475,-1149.0,8092.0,-2859.0,0.467,0.51,0.619,0.372
1103501,-977.0,7288.0,-2761.0,0.468,0.507,0.619,0.375
1103518,-1309.0,7412.0,-2695.0,0.469,0.504,0.62,0.377
1103535,-1371.0,7704.0,-2819.0,0.471,0.501,0.62,0.378
1103551,-1399.0,7854.0,-2705.0,0.473,0.498,0.62,0.38
1103567,-1473.0,7998.0,-2547.0,0.475,0.495,0.619,0.382
1103584,-1409.0,7672.0,-2445.0,0.477,0.492,0.618,0.384
1103600,-1491.0,7336.0,-2545.0,0.48,0.49,0.617,0.386
1103617,-1939.0,8196.0,-2519.0,0.482,0.488,0.617,0.387
1103634,-1733.0,8736.0,-2209.0,0.484,0.485,0.616,0.389
1103651,-1633.0,7816.0,-1877.0,0.486,0.483,0.615,0.391
1103678,-1783.0,7272.0,-1625.0,0.488,0.48,0.613,0.393
1103695,-1909.0,7438.0,-1493.0,0.491,0.478,0.611,0.395
1103711,-1817.0,7808.0,-1557.0,0.494,0.476,0.609,0.398
1103727,-1799.0,7870.0,-1581.0,0.496,0.474,0.607,0.4
1103743,-1647.0,7886.0,-1507.0,0.499,0.473,0.605,0.401
1103760,-1715.0,7918.0,-1479.0,0.502,0.471,0.603,0.403
1103776,-1745.0,7850.0,-1323.0,0.505,0.469,0.601,0.405
1103793,-1793.0,7718.0,-1429.0,0.507,0.468,0.599,0.407
1103819,-1793.0,7724.0,-1443.0,0.51,0.467,0.596,0.408
1103836,-1747.0,7786.0,-1445.0,0.512,0.465,0.594,0.41
1103852,-1853.0,7972.0,-1349.0,0.514,0.464,0.593,0.411
1103868,-1963.0,7788.0,-1167.0,0.516,0.462,0.591,0.413
1103884,-1977.0,7828.0,-1091.0,0.518,0.461,0.59,0.414
1103900,-1977.0,7804.0,-899.0,0.521,0.459,0.588,0.415
1103916,-1969.0,7480.0,-749.0,0.523,0.457,0.587,0.416
1103942,-1883.0,7600.0,-785.0,0.525,0.455,0.587,0.416
1103958,-1863.0,7900.0,-717.0,0.526,0.452,0.587,0.416
1103975,-1989.0,7818.0,-613.0,0.528,0.449,0.588,0.417
1103992,-2003.0,7672.0,-621.0,0.53,0.446,0.589,0.417
1104008,-2063.0,8198.0,-659.0,0.531,0.442,0.59,0.417
1104024,-2153.0,8154.0,-559.0,0.532,0.44,0.592,0.416
1104041,-1507.0,8314.0,-909.0,0.531,0.439,0.594,0.415
1104067,171.0,10532.0,-1417.0,0.53,0.438,0.597,0.414
1104083,-563.0,11590.0,-1043.0,0.531,0.432,0.597,0.418
1104100,-2377.0,8836.0,-733.0,0.534,0.424,0.595,0.426
1104117,-1833.0,5120.0,-637.0,0.536,0.417,0.593,0.432
1104133,-2975.0,4728.0,-1189.0,0.536,0.415,0.595,0.431
1104149,-1867.0,14932.0,1761.0,0.538,0.409,0.602,0.424
1104165,-4149.0,11318.0,-197.0,0.541,0.403,0.604,0.425
1104182,-4701.0,5778.0,-511.0,0.545,0.394,0.603,0.429
1104208,-4671.0,1200.0,-587.0,0.548,0.389,0.603,0.431
1104224,-4349.0,2154.0,27.0,0.548,0.389,0.602,0.43
1104240,-3619.0,4454.0,743.0,0.548,0.39,0.602,0.429
1104256,-3057.0,5060.0,1343.0,0.546,0.396,0.604,0.425
1104272,-3523.0,6900.0,-675.0,0.543,0.405,0.607,0.415
1104288,-2845.0,11560.0,-2225.0,0.542,0.415,0.609,0.404
1104314,-1011.0,14104.0,-2137.0,0.544,0.417,0.609,0.4
1104330,-1851.0,10784.0,-1015.0,0.549,0.412,0.605,0.404
1104346,-2413.0,5956.0,359.0,0.554,0.406,0.601,0.41
1104362,-2453.0,4540.0,747.0,0.556,0.402,0.599,0.412
1104378,-2451.0,6822.0,-51.0,0.557,0.401,0.599,0.412
1104394,-2583.0,8212.0,-233.0,0.557,0.4,0.599,0.413
1104421,-2875.0,8184.0,-133.0,0.558,0.397,0.599,0.415
1104437,-3015.0,7852.0,-165.0,0.558,0.395,0.599,0.417
1104453,-3089.0,7644.0,-67.0,0.558,0.393,0.599,0.419
1104469,-2999.0,7090.0,-83.0,0.558,0.391,0.599,0.421
1104485,-2919.0,7018.0,-179.0,0.557,0.391,0.599,0.422
1104501,-2837.0,7214.0,-391.0,0.557,0.391,0.599,0.422
1104527,-2805.0,7578.0,-363.0,0.556,0.391,0.6,0.422
1104543,-2839.0,7848.0,-389.0,0.555,0.392,0.6,0.422
1104559,-2823.0,7914.0,-299.0,0.554,0.393,0.6,0.422
1104575,-2813.0,7756.0,-255.0,0.553,0.394,0.601,0.422
1104592,-2641.0,7556.0,-329.0,0.553,0.395,0.601,0.421
1104609,-2553.0,7590.0,-383.0,0.552,0.396,0.601,0.421
1104625,-2625.0,7822.0,-273.0,0.551,0.397,0.602,0.42
1104642,-2565.0,8058.0,-257.0,0.55,0.398,0.602,0.42
1104668,-2525.0,8076.0,-303.0,0.55,0.399,0.602,0.42
1104684,-2441.0,7862.0,-277.0,0.549,0.399,0.602,0.42
1104700,-2391.0,7800.0,-391.0,0.549,0.399,0.602,0.421
1104716,-2353.0,7706.0,-373.0,0.549,0.399,0.602,0.422
1104732,-2427.0,7800.0,-421.0,0.548,0.398,0.602,0.422
1104748,-2271.0,7756.0,-527.0,0.548,0.397,0.603,0.423
1104774,-2411.0,7780.0,-497.0,0.548,0.395,0.603,0.424
1104791,-2575.0,7716.0,-305.0,0.548,0.393,0.604,0.425
1104807,-2325.0,7380.0,-461.0,0.549,0.391,0.604,0.425
1104823,-2469.0,7716.0,-269.0,0.549,0.389,0.606,0.425
1104840,-2597.0,7906.0,-21.0,0.55,0.386,0.607,0.424
1104857,-2439.0,7870.0,-29.0,0.55,0.385,0.609,0.423
1104873,-2389.0,8102.0,27.0,0.55,0.384,0.611,0.422
1104899,-2291.0,8236.0,45.0,0.549,0.383,0.612,0.42
1104915,-2131.0,8222.0,161.0,0.549,0.382,0.614,0.419
1104931,-1935.0,8384.0,77.0,0.548,0.382,0.616,0.418
1104947,-1761.0,8610.0,-49.0,0.547,0.381,0.618,0.417
1104963,-1895.0,8430.0,-81.0,0.544,0.381,0.62,0.417
1104979,-1825.0,8334.0,-107.0,0.542,0.381,0.622,0.417
1105005,-2127.0,7870.0,121.0,0.538,0.381,0.625,0.418
1105021,-2173.0,8132.0,-165.0,0.535,0.381,0.629,0.417
1105037,-2331.0,8466.0,-387.0,0.531,0.38,0.633,0.416
1105053,-2613.0,8794.0,-347.0,0.527,0.379,0.638,0.414
1105069,-2929.0,9272.0,-73.0,0.523,0.378,0.644,0.412
1105085,-3091.0,9844.0,-151.0,0.52,0.374,0.649,0.411
1105111,-3313.0,10154.0,-397.0,0.517,0.37,0.653,0.411
1105127,-3627.0,10428.0,-513.0,0.516,0.363,0.658,0.411
1105143,-3801.0,10330.0,-541.0,0.516,0.355,0.661,0.413
1105160,-4071.0,10402.0,-663.0,0.517,0.345,0.663,0.416
1105176,-4113.0,10394.0,-667.0,0.52,0.334,0.665,0.42
1105193,-4059.0,9900.0,-615.0,0.523,0.32,0.666,0.425
1105209,-4065.0,9866.0,-527.0,0.528,0.304,0.666,0.431
1105226,-4111.0,9640.0,-529.0,0.533,0.287,0.665,0.436
1105252,-4145.0,9492.0,-711.0,0.54,0.268,0.664,0.442
1105268,-4177.0,9476.0,-677.0,0.547,0.247,0.662,0.449
1105284,-4253.0,9050.0,-675.0,0.555,0.225,0.659,0.455
1105300,-4331.0,8772.0,-613.0,0.563,0.202,0.655,0.462
1105316,-4579.0,8314.0,-441.0,0.571,0.178,0.651,0.468
1105332,-4641.0,7990.0,-347.0,0.579,0.153,0.646,0.473
1105359,-4599.0,7638.0,-255.0,0.587,0.128,0.641,0.477
1105375,-4689.0,7408.0,-75.0,0.595,0.103,0.635,0.482
1105392,-4625.0,6738.0,7.0,0.603,0.077,0.629,0.485
1105409,-4685.0,6588.0,129.0,0.611,0.052,0.622,0.487
1105425,-4877.0,6030.0,397.0,0.618,0.026,0.614,0.49
1105441,-5187.0,5446.0,667.0,0.625,-0.0,0.606,0.491
1105457,-5199.0,5064.0,779.0,0.632,-0.026,0.598,0.493
1105474,-5315.0,4316.0,1029.0,0.638,-0.051,0.589,0.494
1105501,-5147.0,4246.0,1007.0,0.644,-0.077,0.579,0.494
1105517,-5381.0,3362.0,1251.0,0.648,-0.102,0.57,0.495
1105533,-5585.0,2848.0,1453.0,0.652,-0.127,0.56,0.494
1105550,-5593.0,2900.0,1443.0,0.656,-0.151,0.55,0.494
1105566,-5651.0,2222.0,1451.0,0.659,-0.175,0.54,0.493
1105582,-5881.0,1798.0,1481.0,0.662,-0.198,0.53,0.492
1105599,-6081.0,1546.0,1445.0,0.663,-0.221,0.519,0.491
1105616,-6027.0,1212.0,1593.0,0.665,-0.243,0.508,0.491
1105633,-6143.0,934.0,1499.0,0.666,-0.264,0.497,0.49
1105660,-6255.0,590.0,1589.0,0.666,-0.285,0.486,0.489
1105677,-6251.0,186.0,1585.0,0.666,-0.305,0.474,0.489
1105694,-6141.0,-120.0,1401.0,0.665,-0.325,0.462,0.488
1105711,-6257.0,-66.0,1389.0,0.664,-0.343,0.451,0.488
1105727,-6219.0,-442.0,1409.0,0.662,-0.362,0.44,0.487
1105743,-6301.0,-768.0,1343.0,0.66,-0.379,0.428,0.487
1105760,-6319.0,-1080.0,1365.0,0.657,-0.396,0.418,0.487
1105777,-6517.0,-1446.0,1301.0,0.654,-0.412,0.407,0.487
1105793,-6511.0,-1508.0,1103.0,0.65,-0.427,0.397,0.487
1105810,-6647.0,-1882.0,1121.0,0.647,-0.442,0.386,0.487
1105836,-6889.0,-2140.0,1115.0,0.644,-0.455,0.377,0.487
1105852,-6655.0,-2346.0,975.0,0.641,-0.467,0.367,0.487
1105868,-6873.0,-2330.0,987.0,0.637,-0.479,0.357,0.487
1105884,-6935.0,-2836.0,1043.0,0.634,-0.49,0.348,0.488
1105900,-7063.0,-3436.0,1035.0,0.63,-0.5,0.339,0.488
1105917,-7299.0,-3672.0,1155.0,0.627,-0.51,0.33,0.488
1105934,-7575.0,-4028.0,1201.0,0.623,-0.519,0.323,0.488
1105960,-7655.0,-4310.0,1239.0,0.621,-0.526,0.315,0.488
1105977,-7691.0,-4804.0,1307.0,0.619,-0.532,0.309,0.489
1105994,-7869.0,-4630.0,1307.0,0.617,-0.536,0.304,0.489
1106010,-7545.0,-4722.0,1133.0,0.615,-0.541,0.299,0.489
1106027,-7733.0,-4682.0,1337.0,0.614,-0.545,0.294,0.49
1106043,-7857.0,-4750.0,1321.0,0.612,-0.548,0.291,0.491
1106059,-7345.0,-4250.0,1083.0,0.61,-0.551,0.287,0.492
1106085,-7073.0,-3888.0,803.0,0.607,-0.556,0.284,0.493
1106101,-7525.0,-3604.0,1045.0,0.603,-0.561,0.28,0.494
1106117,-7863.0,-4472.0,1479.0,0.599,-0.565,0.277,0.495
1106134,-7657.0,-3800.0,1407.0,0.596,-0.568,0.274,0.497
1106150,-7575.0,-3526.0,1449.0,0.594,-0.57,0.272,0.498
1106167,-7551.0,-3150.0,1427.0,0.592,-0.572,0.27,0.5
1106184,-7651.0,-2946.0,1435.0,0.59,-0.574,0.268,0.501
1106200,-7975.0,-3140.0,1607.0,0.588,-0.575,0.266,0.503
1106217,-8039.0,-3436.0,1505.0,0.587,-0.576,0.264,0.503
1106243,-7977.0,-3394.0,1371.0,0.587,-0.578,0.261,0.504
1106260,-8515.0,-4164.0,1653.0,0.586,-0.58,0.258,0.504
1106277,-8883.0,-3916.0,1497.0,0.584,-0.583,0.254,0.504
1106294,-10015.0,-5032.0,2173.0,0.582,-0.588,0.249,0.503
1106310,-9901.0,-5184.0,1797.0,0.579,-0.594,0.244,0.503
1106327,-10651.0,-5502.0,2599.0,0.575,-0.599,0.238,0.503
1106344,-10347.0,-5466.0,2487.0,0.572,-0.605,0.233,0.503
1106360,-10083.0,-5118.0,2351.0,0.568,-0.612,0.228,0.502
1106377,-10067.0,-5182.0,2441.0,0.563,-0.619,0.223,0.501
1106404,-9743.0,-4592.0,2141.0,0.558,-0.626,0.219,0.499
1106420,-9407.0,-4436.0,1871.0,0.553,-0.634,0.214,0.497
1106436,-9081.0,-4414.0,1699.0,0.547,-0.642,0.211,0.495
1106452,-8941.0,-4196.0,1677.0,0.541,-0.649,0.208,0.493
1106468,-8593.0,-4414.0,1339.0,0.535,-0.656,0.205,0.491
1106484,-8503.0,-3852.0,1113.0,0.529,-0.663,0.204,0.489
1106510,-8239.0,-3678.0,781.0,0.523,-0.669,0.203,0.488
1106527,-7733.0,-3584.0,415.0,0.516,-0.675,0.202,0.487
1106544,-7757.0,-3604.0,461.0,0.51,-0.681,0.201,0.486
1106560,-7839.0,-3434.0,323.0,0.504,-0.685,0.202,0.486
1106577,-7037.0,-3356.0,-53.0,0.498,-0.689,0.203,0.486
1106594,-6567.0,-3348.0,-221.0,0.492,-0.692,0.204,0.487
1106611,-6727.0,-2820.0,-119.0,0.487,-0.696,0.205,0.487
1106628,-6377.0,-3164.0,-365.0,0.481,-0.698,0.207,0.488
1106644,-6341.0,-2836.0,-449.0,0.476,-0.7,0.21,0.49
1106660,-6275.0,-3472.0,-621.0,0.471,-0.7,0.213,0.492
1106677,-6709.0,-3360.0,-833.0,0.466,-0.701,0.217,0.495
1106704,-6603.0,-3692.0,-1119.0,0.462,-0.7,0.221,0.497
1106720,-6609.0,-3066.0,-1025.0,0.457,-0.7,0.225,0.501
1106736,-6731.0,-2522.0,-697.0,0.453,-0.698,0.229,0.505
1106752,-6209.0,-3742.0,-1141.0,0.448,-0.697,0.234,0.51
1106768,-6539.0,-3320.0,-897.0,0.444,-0.694,0.24,0.514
1106784,-6513.0,-2356.0,-899.0,0.44,-0.691,0.246,0.519
1106810,-6349.0,-3076.0,-1041.0,0.435,-0.688,0.252,0.524
1106827,-6731.0,-2884.0,-761.0,0.431,-0.684,0.258,0.529
1106843,-6541.0,-2738.0,-959.0,0.427,-0.679,0.265,0.535
1106860,-6529.0,-2538.0,-793.0,0.423,-0.674,0.271,0.541
1106876,-6223.0,-2986.0,-1193.0,0.42,-0.669,0.278,0.546
1106893,-6681.0,-2556.0,-1079.0,0.417,-0.664,0.285,0.552
1106909,-6721.0,-2664.0,-1121.0,0.414,-0.657,0.292,0.558
1106926,-6387.0,-2352.0,-1155.0,0.411,-0.65,0.299,0.565
1106943,-6125.0,-1134.0,-903.0,0.409,-0.642,0.304,0.573
1106970,-4963.0,-1692.0,-507.0,0.407,-0.634,0.307,0.582
1106986,-3131.0,-1004.0,-447.0,0.406,-0.626,0.309,0.59
1107002,-1753.0,-1470.0,-173.0,0.405,-0.62,0.309,0.597
1107018,-561.0,-1810.0,-307.0,0.406,-0.617,0.31,0.599
1107034,-247.0,-1772.0,-81.0,0.409,-0.616,0.309,0.598
1107050,-709.0,-660.0,345.0,0.414,-0.619,0.307,0.593
1107067,-829.0,216.0,345.0,0.419,-0.624,0.303,0.586
1107093,-1397.0,-824.0,521.0,0.423,-0.63,0.297,0.579
1107110,-2579.0,-786.0,699.0,0.427,-0.638,0.29,0.571
1107127,-2793.0,-390.0,133.0,0.43,-0.646,0.283,0.564
1107143,-3877.0,-1864.0,359.0,0.432,-0.654,0.276,0.556
1107160,-5135.0,-3040.0,-3.0,0.434,-0.662,0.271,0.548
1107177,-6911.0,-2966.0,-5.0,0.436,-0.669,0.266,0.54
1107194,-7581.0,-3030.0,-183.0,0.439,-0.674,0.261,0.533
1107210,-7893.0,-3280.0,-813.0,0.441,-0.68,0.257,0.527
1107226,-8867.0,-4312.0,-873.0,0.443,-0.684,0.254,0.521
1107253,-9119.0,-3372.0,-441.0,0.446,-0.686,0.251,0.516
1107270,-9019.0,-3024.0,-981.0,0.449,-0.689,0.248,0.513
1107286,-8899.0,-5336.0,-999.0,0.451,-0.691,0.245,0.509
1107302,-10545.0,-3424.0,-3.0,0.454,-0.692,0.242,0.506
1107318,-9495.0,-2756.0,-191.0,0.457,-0.691,0.24,0.506
1107334,-8939.0,-4340.0,-125.0,0.46,-0.689,0.238,0.507
1107350,-8701.0,-3824.0,-29.0,0.463,-0.687,0.237,0.508
1107376,-8419.0,-3362.0,113.0,0.467,-0.684,0.236,0.509
1107392,-8229.0,-3080.0,229.0,0.47,-0.68,0.235,0.511
1107408,-7953.0,-3680.0,281.0,0.473,-0.676,0.235,0.514
1107425,-7753.0,-3008.0,21.0,0.476,-0.672,0.235,0.516
1107442,-8003.0,-3030.0,177.0,0.478,-0.669,0.235,0.518
1107458,-8391.0,-3124.0,505.0,0.48,-0.666,0.235,0.521
1107475,-8065.0,-3480.0,223.0,0.481,-0.662,0.235,0.525
1107501,-8313.0,-3206.0,257.0,0.481,-0.659,0.235,0.528
1107517,-8499.0,-2902.0,443.0,0.482,-0.656,0.235,0.531
1107533,-8365.0,-3122.0,435.0,0.481,-0.653,0.235,0.535
1107549,-8449.0,-2844.0,483.0,0.481,-0.65,0.235,0.539
1107566,-8687.0,-2764.0,447.0,0.48,-0.648,0.235,0.542
1107583,-8907.0,-2876.0,305.0,0.48,-0.646,0.235,0.546
1107600,-9719.0,-2732.0,579.0,0.479,-0.644,0.234,0.549
1107616,-10479.0,-2854.0,673.0,0.478,-0.642,0.232,0.552
1107633,-11281.0,-3436.0,681.0,0.478,-0.641,0.23,0.555
1107659,-12175.0,-4304.0,801.0,0.478,-0.639,0.227,0.557
1107676,-13183.0,-4246.0,449.0,0.479,-0.639,0.224,0.559
1107693,-14333.0,-5024.0,765.0,0.48,-0.639,0.219,0.56
1107709,-14297.0,-5678.0,929.0,0.481,-0.64,0.215,0.559
1107726,-14009.0,-5754.0,1001.0,0.482,-0.642,0.21,0.558
1107743,-13455.0,-5420.0,1203.0,0.483,-0.644,0.206,0.556
1107759,-12455.0,-4936.0,971.0,0.483,-0.648,0.202,0.553
1107775,-11809.0,-4884.0,1065.0,0.482,-0.653,0.198,0.55
1107792,-11283.0,-4552.0,1049.0,0.48,-0.659,0.193,0.545
1107819,-10639.0,-4180.0,1029.0,0.478,-0.665,0.19,0.541
1107835,-10335.0,-3792.0,1225.0,0.476,-0.671,0.187,0.537
1107851,-9563.0,-3904.0,809.0,0.473,-0.676,0.185,0.534
1107867,-8873.0,-3900.0,367.0,0.471,-0.68,0.184,0.531
1107884,-8377.0,-3758.0,175.0,0.469,-0.684,0.184,0.527
1107901,-8363.0,-3256.0,291.0,0.468,-0.687,0.184,0.524
1107917,-7891.0,-2802.0,55.0,0.465,-0.691,0.185,0.522
1107934,-7587.0,-3304.0,-97.0,0.462,-0.693,0.187,0.521
1107961,-7191.0,-3022.0,131.0,0.458,-0.695,0.19,0.52
1107977,-7003.0,-2534.0,91.0,0.455,-0.696,0.194,0.521
1107993,-6551.0,-2590.0,1.0,0.451,-0.696,0.198,0.522
1108009,-6139.0,-2672.0,-343.0,0.448,-0.696,0.204,0.523
1108026,-5531.0,-3534.0,-1107.0,0.444,-0.695,0.209,0.525
1108043,-5639.0,-4146.0,-1323.0,0.442,-0.695,0.216,0.524
1108060,-5953.0,-4056.0,-1515.0,0.441,-0.695,0.222,0.522
1108076,-7523.0,-2290.0,-1441.0,0.439,-0.696,0.228,0.521
1108093,-8565.0,-2104.0,-533.0,0.434,-0.695,0.235,0.523
1108120,-6877.0,-2944.0,-689.0,0.43,-0.692,0.242,0.527
1108136,-6039.0,-3368.0,-979.0,0.426,-0.688,0.249,0.532
1108152,-6193.0,-2752.0,-965.0,0.424,-0.684,0.257,0.536
1108168,-6233.0,-2642.0,-381.0,0.421,-0.679,0.264,0.54
1108184,-6055.0,-2280.0,-657.0,0.419,-0.673,0.272,0.545
1108210,-6015.0,-1750.0,-331.0,0.418,-0.667,0.28,0.549
1108226,-5845.0,-2752.0,-659.0,0.417,-0.66,0.289,0.554
1108243,-5679.0,-3696.0,-851.0,0.418,-0.654,0.297,0.557
1108259,-5667.0,-2590.0,-1141.0,0.419,-0.649,0.304,0.558
1108276,-5105.0,42.0,-793.0,0.415,-0.648,0.307,0.56
1108293,-4641.0,-428.0,-113.0,0.409,-0.646,0.313,0.564
1108310,-2049.0,-868.0,17.0,0.402,-0.645,0.318,0.567
1108326,-1617.0,-1704.0,791.0,0.398,-0.643,0.325,0.568
1108343,-1177.0,-618.0,41.0,0.396,-0.644,0.328,0.566
1108359,-563.0,-2116.0,685.0,0.396,-0.647,0.329,0.563
1108386,-839.0,-484.0,167.0,0.397,-0.651,0.328,0.558
1108402,-1041.0,-418.0,279.0,0.397,-0.658,0.325,0.552
1108418,-2025.0,-202.0,5.0,0.398,-0.665,0.32,0.544
1108434,-2099.0,308.0,-389.0,0.398,-0.673,0.316,0.537
1108450,-3361.0,-1788.0,-757.0,0.397,-0.682,0.311,0.53
1108467,-4811.0,-2982.0,-1003.0,0.397,-0.69,0.307,0.521
1108483,-6555.0,-6.0,-771.0,0.397,-0.698,0.301,0.514
1108500,-7127.0,-2670.0,-525.0,0.397,-0.704,0.295,0.51
1108527,-6363.0,-2248.0,-1583.0,0.398,-0.708,0.29,0.506
1108543,-6361.0,-3876.0,-2527.0,0.4,-0.712,0.284,0.502
1108559,-7729.0,-3432.0,-1833.0,0.402,-0.716,0.278,0.498
1108576,-8201.0,-3532.0,-1763.0,0.405,-0.719,0.272,0.494
1108593,-8947.0,-2924.0,-1711.0,0.407,-0.721,0.267,0.493
1108610,-9003.0,-3138.0,-1415.0,0.41,-0.721,0.263,0.493
1108626,-8271.0,-3530.0,-2061.0,0.413,-0.721,0.258,0.493
1108643,-8651.0,-4344.0,-2211.0,0.414,-0.721,0.254,0.494
1108669,-9269.0,-3718.0,-1521.0,0.417,-0.721,0.249,0.495
1108685,-9425.0,-3736.0,-1441.0,0.419,-0.719,0.245,0.497
1108701,-9301.0,-3336.0,-1359.0,0.421,-0.717,0.242,0.5
1108717,-8675.0,-3458.0,-1767.0,0.422,-0.715,0.24,0.504
1108734,-9039.0,-3508.0,-977.0,0.423,-0.712,0.238,0.508
1108750,-8523.0,-3780.0,-1089.0,0.424,-0.708,0.236,0.513
1108767,-8429.0,-3090.0,-783.0,0.426,-0.704,0.234,0.518
1108784,-8207.0,-2734.0,-781.0,0.427,-0.7,0.233,0.523
1108810,-7739.0,-3502.0,-657.0,0.43,-0.696,0.231,0.527
1108826,-7983.0,-1384.0,-587.0,0.431,-0.692,0.231,0.531
1108843,-8523.0,-2208.0,-69.0,0.431,-0.689,0.23,0.535
1108859,-8417.0,-2492.0,-425.0,0.431,-0.687,0.23,0.538
1108876,-8753.0,-2222.0,21.0,0.432,-0.684,0.229,0.541
1108892,-9447.0,-1764.0,267.0,0.432,-0.681,0.229,0.545
1108909,-9937.0,-1944.0,249.0,0.433,-0.678,0.228,0.549
1108926,-10473.0,-2406.0,393.0,0.434,-0.674,0.227,0.553
1108943,-11115.0,-2182.0,421.0,0.435,-0.671,0.226,0.557
1108969,-11213.0,-3918.0,243.0,0.436,-0.668,0.224,0.559
1108985,-12367.0,-3804.0,417.0,0.439,-0.667,0.222,0.56
1109001,-12915.0,-4392.0,431.0,0.443,-0.666,0.22,0.559
1109017,-13327.0,-4616.0,239.0,0.446,-0.665,0.219,0.557
1109033,-13599.0,-5304.0,281.0,0.448,-0.666,0.218,0.555
1109050,-12937.0,-5374.0,-13.0,0.449,-0.669,0.218,0.551
1109067,-12493.0,-5182.0,-51.0,0.45,-0.672,0.218,0.546
1109094,-12033.0,-5306.0,-119.0,0.449,-0.677,0.218,0.54
1109111,-11437.0,-5218.0,-169.0,0.448,-0.683,0.219,0.534
1109127,-11021.0,-4714.0,-303.0,0.446,-0.689,0.219,0.527
1109143,-10473.0,-4512.0,-317.0,0.443,-0.695,0.22,0.521
1109159,-10093.0,-4300.0,-187.0,0.441,-0.7,0.221,0.516
1109176,-9701.0,-3684.0,-381.0,0.439,-0.705,0.223,0.511
1109192,-9119.0,-3836.0,-587.0,0.437,-0.708,0.225,0.507
1109208,-8595.0,-3636.0,-657.0,0.436,-0.711,0.227,0.503
1109236,-8503.0,-3086.0,-785.0,0.435,-0.713,0.23,0.5
1109252,-8591.0,-2694.0,-447.0,0.435,-0.714,0.233,0.498
1109268,-7721.0,-2826.0,-895.0,0.435,-0.714,0.237,0.496
1109284,-7253.0,-3208.0,-923.0,0.435,-0.713,0.241,0.494
1109300,-7379.0,-2782.0,-833.0,0.437,-0.711,0.247,0.492
1109316,-7225.0,-2100.0,-653.0,0.44,-0.709,0.253,0.49
1109333,-6193.0,-1316.0,-1351.0,0.441,-0.706,0.26,0.489
1109350,-5585.0,-1328.0,-1729.0,0.44,-0.705,0.267,0.488
1109377,-5955.0,-2362.0,-1307.0,0.436,-0.705,0.274,0.488
1109394,-6291.0,-1892.0,-969.0,0.433,-0.705,0.28,0.487
1109410,-6401.0,-2694.0,-1169.0,0.429,-0.705,0.286,0.486
1109426,-6643.0,-2492.0,-1147.0,0.426,-0.705,0.293,0.486
1109442,-6871.0,-2556.0,-1091.0,0.424,-0.704,0.298,0.486
1109459,-7189.0,-2264.0,-1421.0,0.422,-0.702,0.304,0.486
1109475,-7145.0,-3042.0,-1681.0,0.419,-0.701,0.309,0.487
1109501,-7549.0,-3236.0,-1297.0,0.418,-0.698,0.314,0.489
1109517,-7793.0,-1666.0,-1401.0,0.417,-0.695,0.32,0.491
1109533,-7609.0,-2492.0,-1489.0,0.416,-0.691,0.325,0.494
1109550,-7303.0,-2642.0,-1769.0,0.415,-0.686,0.331,0.497
1109566,-7561.0,-1648.0,-1667.0,0.415,-0.681,0.336,0.502
1109583,-7163.0,-1690.0,-1457.0,0.413,-0.675,0.34,0.507
1109599,-7345.0,-1864.0,-1555.0,0.413,-0.668,0.344,0.514
1109616,-7097.0,-1242.0,-1007.0,0.413,-0.66,0.347,0.523
1109633,-6385.0,-1316.0,-1497.0,0.412,-0.651,0.349,0.533
1109660,-5467.0,-2170.0,-1561.0,0.412,-0.642,0.351,0.543
1109676,-4363.0,-1946.0,-1251.0,0.414,-0.633,0.352,0.552
1109692,-3089.0,-1300.0,-659.0,0.416,-0.624,0.353,0.559
1109709,-869.0,-792.0,-1105.0,0.418,-0.618,0.354,0.564
1109726,-203.0,-1974.0,-675.0,0.421,-0.613,0.355,0.566
1109742,453.0,-2326.0,-387.0,0.427,-0.612,0.356,0.563
1109759,139.0,1834.0,-115.0,0.431,-0.614,0.355,0.558
1109775,-695.0,232.0,3.0,0.432,-0.62,0.349,0.554
1109802,-1771.0,-928.0,287.0,0.434,-0.627,0.344,0.548
1109818,-2563.0,-682.0,259.0,0.437,-0.634,0.337,0.542
1109834,-3379.0,-1460.0,-125.0,0.44,-0.642,0.329,0.535
1109850,-4107.0,-2022.0,-169.0,0.443,-0.65,0.32,0.527
1109866,-5397.0,-1312.0,467.0,0.446,-0.658,0.312,0.52
1109886,-5591.0,-2508.0,-643.0,0.448,-0.665,0.304,0.514
1109902,-6297.0,-3502.0,-561.0,0.451,-0.672,0.297,0.507
1109918,-7771.0,-3420.0,-745.0,0.455,-0.678,0.29,0.5
1109944,-8319.0,-2930.0,-327.0,0.459,-0.682,0.283,0.494
1109960,-7829.0,-4048.0,-1545.0,0.462,-0.686,0.278,0.489
1109976,-9077.0,-3156.0,-709.0,0.466,-0.689,0.273,0.484
1109992,-8585.0,-4162.0,-1071.0,0.468,-0.692,0.268,0.48
1110009,-9413.0,-3222.0,-381.0,0.47,-0.694,0.264,0.477
1110025,-9091.0,-3444.0,-247.0,0.471,-0.696,0.26,0.475
1110042,-8541.0,-4022.0,-311.0,0.473,-0.697,0.256,0.474
1110059,-8071.0,-3800.0,-373.0,0.475,-0.697,0.253,0.474
1110076,-8273.0,-3696.0,-61.0,0.477,-0.696,0.25,0.474
1110102,-8575.0,-3270.0,41.0,0.479,-0.695,0.247,0.475
1110118,-8419.0,-3594.0,-113.0,0.481,-0.693,0.245,0.477
1110134,-8319.0,-3608.0,-93.0,0.483,-0.691,0.243,0.48
1110151,-8469.0,-3136.0,125.0,0.485,-0.689,0.241,0.482
1110167,-7997.0,-4206.0,-401.0,0.487,-0.686,0.239,0.485
1110183,-8473.0,-3262.0,-225.0,0.489,-0.684,0.238,0.487
1110209,-8449.0,-2964.0,-277.0,0.489,-0.682,0.237,0.489
1110225,-8747.0,-4034.0,-33.0,0.49,-0.68,0.236,0.492
1110242,-8817.0,-3828.0,-261.0,0.49,-0.678,0.236,0.494
1110259,-9313.0,-3768.0,-351.0,0.491,-0.676,0.235,0.496
1110275,-10189.0,-4200.0,-419.0,0.491,-0.675,0.234,0.498
1110292,-11433.0,-4888.0,-249.0,0.492,-0.674,0.233,0.499
1110309,-12009.0,-6004.0,-537.0,0.493,-0.672,0.232,0.501
1110325,-12807.0,-6550.0,-783.0,0.495,-0.671,0.231,0.501
1110342,-13919.0,-6304.0,-405.0,0.498,-0.67,0.229,0.501
1110359,-13789.0,-7430.0,-457.0,0.501,-0.669,0.227,0.5
1110385,-13623.0,-6596.0,-297.0,0.504,-0.669,0.224,0.499
1110401,-12705.0,-6476.0,-135.0,0.505,-0.669,0.221,0.498
1110417,-11849.0,-5966.0,-101.0,0.506,-0.671,0.218,0.495
1110434,-10977.0,-5784.0,-175.0,0.506,-0.675,0.216,0.492
1110450,-10529.0,-5892.0,-395.0,0.505,-0.68,0.214,0.487
1110466,-10461.0,-5042.0,-449.0,0.504,-0.686,0.214,0.48
1110483,-10133.0,-4790.0,-629.0,0.5,-0.692,0.214,0.474
1110509,-10237.0,-4576.0,-359.0,0.497,-0.699,0.214,0.467
1110525,-10397.0,-5112.0,-341.0,0.493,-0.706,0.214,0.462
1110542,-10207.0,-5046.0,61.0,0.491,-0.71,0.216,0.457
1110558,-8709.0,-4206.0,-775.0,0.49,-0.713,0.218,0.452
1110575,-8041.0,-3910.0,-1219.0,0.487,-0.717,0.22,0.448
1110592,-8001.0,-3866.0,-919.0,0.484,-0.721,0.223,0.444
1110608,-7463.0,-2736.0,-1245.0,0.48,-0.724,0.226,0.44
1110625,-7025.0,-3432.0,-1415.0,0.476,-0.728,0.23,0.438
1110651,-6859.0,-3898.0,-1267.0,0.472,-0.73,0.233,0.436
1110668,-7017.0,-3274.0,-1229.0,0.469,-0.731,0.236,0.435
1110684,-6751.0,-2958.0,-1249.0,0.466,-0.732,0.24,0.436
1110700,-6435.0,-3188.0,-1359.0,0.463,-0.731,0.244,0.438
1110716,-6175.0,-3628.0,-1449.0,0.461,-0.73,0.247,0.44
1110732,-6843.0,-3248.0,-1453.0,0.46,-0.728,0.251,0.442
1110748,-7351.0,-3282.0,-1201.0,0.459,-0.725,0.255,0.446
1110774,-6575.0,-4016.0,-1695.0,0.458,-0.722,0.259,0.45
1110791,-6941.0,-3094.0,-1451.0,0.459,-0.716,0.264,0.454
1110808,-6587.0,-2872.0,-1173.0,0.461,-0.709,0.27,0.46
1110825,-5967.0,-3028.0,-1109.0,0.463,-0.702,0.277,0.466
1110842,-5909.0,-2650.0,-1245.0,0.465,-0.693,0.284,0.472
1110859,-5067.0,-3082.0,-1643.0,0.467,-0.684,0.292,0.478
1110876,-5417.0,-3088.0,-1549.0,0.468,-0.676,0.3,0.483
1110893,-5851.0,-3582.0,-1439.0,0.469,-0.668,0.308,0.489
1110909,-6003.0,-2586.0,-1569.0,0.47,-0.66,0.316,0.494
1110925,-5707.0,-4536.0,-2215.0,0.469,-0.651,0.325,0.5
1110951,-6891.0,-3310.0,-1835.0,0.469,-0.643,0.334,0.506
1110968,-5391.0,-1034.0,-2183.0,0.465,-0.634,0.343,0.514
1110985,-5127.0,-2102.0,-413.0,0.458,-0.626,0.351,0.525
1111001,-3065.0,-2484.0,-483.0,0.452,-0.617,0.358,0.535
1111017,-2183.0,-1482.0,65.0,0.448,-0.61,0.364,0.544
1111034,-1407.0,-2292.0,-187.0,0.444,-0.603,0.369,0.551
1111050,-1357.0,-1818.0,277.0,0.442,-0.599,0.373,0.554
1111077,-1085.0,-1554.0,151.0,0.443,-0.597,0.375,0.554
1111094,-1055.0,-1144.0,143.0,0.446,-0.598,0.375,0.551
1111111,-1681.0,-232.0,395.0,0.45,-0.602,0.373,0.545
1111128,-1713.0,-838.0,-119.0,0.453,-0.607,0.368,0.539
1111145,-2865.0,-2022.0,369.0,0.458,-0.614,0.363,0.53
1111162,-4039.0,-950.0,-185.0,0.463,-0.621,0.357,0.522
1111179,-5449.0,-884.0,15.0,0.466,-0.628,0.35,0.515
1111196,-5979.0,-1784.0,267.0,0.469,-0.635,0.344,0.509
1111212,-5699.0,-2676.0,173.0,0.472,-0.64,0.337,0.504
1111228,-4995.0,-2390.0,-409.0,0.476,-0.645,0.331,0.499
1111245,-4645.0,-2290.0,-111.0,0.478,-0.651,0.324,0.493
1111272,-5885.0,-2464.0,203.0,0.48,-0.656,0.318,0.487
1111288,-5431.0,-2336.0,359.0,0.482,-0.662,0.313,0.481
1111305,-5999.0,-2940.0,-829.0,0.483,-0.667,0.308,0.476
1111322,-6525.0,-3712.0,-1005.0,0.484,-0.673,0.305,0.469
1111339,-9109.0,-3154.0,-7.0,0.484,-0.68,0.3,0.463
1111356,-9753.0,-2180.0,-209.0,0.483,-0.684,0.297,0.459
1111373,-8309.0,-4786.0,-1223.0,0.481,-0.688,0.294,0.457
1111389,-9697.0,-4224.0,-415.0,0.48,-0.691,0.292,0.455
1111406,-9691.0,-2834.0,-619.0,0.479,-0.693,0.289,0.455
1111423,-9519.0,-3946.0,-569.0,0.478,-0.694,0.287,0.455
1111440,-9007.0,-4896.0,-567.0,0.479,-0.695,0.285,0.455
1111457,-9925.0,-3398.0,-297.0,0.481,-0.694,0.283,0.455
1111474,-9415.0,-2916.0,-549.0,0.483,-0.693,0.282,0.456
1111501,-9041.0,-3252.0,-577.0,0.484,-0.692,0.281,0.457
1111518,-8915.0,-3614.0,-511.0,0.484,-0.691,0.281,0.458
1111535,-9057.0,-3174.0,-159.0,0.486,-0.689,0.281,0.459
1111552,-8747.0,-2438.0,-469.0,0.486,-0.687,0.281,0.461
1111569,-8403.0,-2192.0,-621.0,0.485,-0.686,0.282,0.464
1111586,-8487.0,-3040.0,-391.0,0.484,-0.685,0.282,0.466
1111603,-8913.0,-2992.0,-393.0,0.483,-0.684,0.283,0.468
1111620,-8965.0,-3418.0,-651.0,0.483,-0.683,0.283,0.47
1111637,-9301.0,-3052.0,-751.0,0.483,-0.682,0.284,0.471
1111654,-10115.0,-3246.0,-607.0,0.482,-0.681,0.283,0.473
1111671,-10545.0,-3750.0,-863.0,0.483,-0.68,0.282,0.473
1111688,-11169.0,-4358.0,-931.0,0.485,-0.679,0.281,0.474
1111704,-11655.0,-4666.0,-1209.0,0.487,-0.678,0.279,0.474
1111731,-12085.0,-5166.0,-1341.0,0.491,-0.677,0.277,0.474
1111747,-12107.0,-5840.0,-1575.0,0.494,-0.676,0.275,0.473
1111763,-12423.0,-5590.0,-1363.0,0.497,-0.676,0.272,0.471
1111779,-11873.0,-5676.0,-1469.0,0.5,-0.677,0.269,0.469
1111796,-11457.0,-5556.0,-1155.0,0.502,-0.679,0.266,0.466
1111813,-10705.0,-5862.0,-1357.0,0.502,-0.681,0.264,0.462
1111829,-10715.0,-5530.0,-1025.0,0.503,-0.685,0.261,0.458
1111855,-10359.0,-5540.0,-1079.0,0.503,-0.69,0.259,0.453
1111871,-10295.0,-5468.0,-1019.0,0.502,-0.695,0.256,0.448
1111887,-10131.0,-5468.0,-967.0,0.5,-0.7,0.254,0.442
1111904,-9673.0,-4676.0,-1107.0,0.498,-0.705,0.252,0.437
1111920,-9293.0,-4976.0,-1187.0,0.495,-0.711,0.251,0.432
1111937,-9001.0,-4450.0,-1105.0,0.492,-0.716,0.25,0.427
1111954,-8345.0,-4244.0,-1403.0,0.488,-0.721,0.251,0.422
1111971,-8081.0,-3930.0,-1437.0,0.484,-0.726,0.252,0.418
1111987,-7819.0,-3928.0,-1441.0,0.48,-0.731,0.254,0.414
1112014,-7589.0,-3748.0,-1587.0,0.475,-0.735,0.257,0.41
1112030,-7605.0,-3962.0,-1757.0,0.471,-0.738,0.26,0.407
1112046,-7631.0,-3320.0,-1967.0,0.467,-0.741,0.264,0.405
1112063,-7343.0,-3614.0,-2099.0,0.464,-0.742,0.268,0.403
1112079,-7481.0,-3812.0,-2145.0,0.462,-0.742,0.273,0.402
1112096,-8155.0,-3566.0,-1991.0,0.462,-0.741,0.277,0.402
1112113,-8265.0,-3194.0,-1953.0,0.463,-0.738,0.28,0.405
1112129,-8621.0,-4752.0,-1841.0,0.465,-0.733,0.282,0.408
1112155,-8813.0,-4180.0,-2373.0,0.471,-0.726,0.284,0.412
1112172,-9729.0,-3668.0,-1125.0,0.478,-0.717,0.286,0.419
1112189,-8941.0,-3860.0,-907.0,0.487,-0.706,0.287,0.427
1112206,-7421.0,-5024.0,-1733.0,0.499,-0.692,0.289,0.435
1112222,-5209.0,-1682.0,-2549.0,0.511,-0.677,0.292,0.442
1112239,-4359.0,-584.0,-1825.0,0.517,-0.667,0.294,0.449
1112256,-4997.0,-2328.0,-1567.0,0.519,-0.659,0.297,0.456
1112273,-4701.0,-3670.0,-907.0,0.521,-0.652,0.3,0.463
1112290,-5193.0,-2662.0,-989.0,0.524,-0.644,0.303,0.469
1112307,-4909.0,-1658.0,-653.0,0.525,-0.637,0.306,0.474
1112334,-5213.0,-1966.0,-935.0,0.524,-0.631,0.309,0.481
1112351,-6265.0,-4022.0,23.0,0.521,-0.627,0.312,0.488
1112367,-6793.0,-5210.0,-369.0,0.518,-0.623,0.315,0.494
1112383,-7795.0,-4578.0,-581.0,0.517,-0.617,0.319,0.501
1112400,-8557.0,-4204.0,-171.0,0.513,-0.609,0.326,0.509
1112417,-7791.0,-2044.0,-143.0,0.509,-0.6,0.333,0.52
1112433,-4533.0,-2846.0,123.0,0.5,-0.589,0.343,0.534
1112449,-2523.0,-428.0,-155.0,0.492,-0.576,0.354,0.548
1112465,-253.0,434.0,-547.0,0.483,-0.565,0.367,0.559
1112492,-1059.0,-462.0,-1237.0,0.473,-0.559,0.38,0.565
1112509,-2015.0,-2608.0,-441.0,0.467,-0.556,0.391,0.566
1112526,-2341.0,-3844.0,347.0,0.465,-0.555,0.398,0.563
1112543,-2671.0,-1832.0,779.0,0.47,-0.555,0.403,0.555
1112560,-2863.0,-1178.0,355.0,0.477,-0.557,0.405,0.547
1112577,-3003.0,-598.0,505.0,0.487,-0.559,0.403,0.536
1112594,-2937.0,2058.0,-633.0,0.496,-0.563,0.399,0.527
1112611,-2629.0,-450.0,-177.0,0.502,-0.568,0.393,0.521
1112628,-6515.0,-5584.0,1307.0,0.506,-0.574,0.386,0.515
1112644,-6627.0,136.0,417.0,0.516,-0.578,0.378,0.507
1112661,-5545.0,-650.0,-205.0,0.52,-0.58,0.371,0.505
1112678,-5607.0,-3386.0,761.0,0.525,-0.581,0.366,0.503
1112695,-4233.0,-2432.0,915.0,0.533,-0.581,0.36,0.498
1112721,-3697.0,-1492.0,411.0,0.539,-0.583,0.354,0.493
1112738,-4703.0,-3404.0,619.0,0.544,-0.586,0.349,0.489
1112755,-6313.0,-1032.0,851.0,0.55,-0.588,0.344,0.483
1112772,-6287.0,-1216.0,665.0,0.554,-0.591,0.338,0.479
1112789,-7665.0,-1568.0,735.0,0.556,-0.595,0.332,0.476
1112807,-8545.0,-3514.0,801.0,0.558,-0.598,0.326,0.474
1112824,-8765.0,-5148.0,345.0,0.56,-0.601,0.32,0.471
1112841,-9657.0,-2692.0,697.0,0.563,-0.604,0.314,0.468
1112858,-10159.0,-1708.0,909.0,0.564,-0.607,0.308,0.467
1112875,-9243.0,-2454.0,997.0,0.563,-0.611,0.302,0.468
1112892,-8459.0,-3394.0,1175.0,0.562,-0.614,0.295,0.469
1112909,-8313.0,-2366.0,1237.0,0.561,-0.617,0.289,0.47
1112926,-7589.0,-3234.0,1319.0,0.56,-0.62,0.283,0.471
1112943,-8249.0,-2372.0,1565.0,0.559,-0.623,0.279,0.472
1112970,-7669.0,-2092.0,1443.0,0.557,-0.625,0.275,0.473
1112987,-7553.0,-2586.0,1155.0,0.554,-0.628,0.271,0.474
1113004,-7777.0,-2258.0,1309.0,0.551,-0.632,0.269,0.475
1113020,-8167.0,-2632.0,1229.0,0.547,-0.635,0.267,0.476
1113036,-8229.0,-3304.0,1385.0,0.543,-0.638,0.265,0.478
1113058,-8079.0,-3292.0,833.0,0.54,-0.64,0.263,0.479
1113075,-8441.0,-3244.0,813.0,0.536,-0.643,0.262,0.48
1113092,-9191.0,-3604.0,675.0,0.533,-0.645,0.262,0.481
1113109,-10209.0,-4228.0,437.0,0.529,-0.649,0.26,0.481
1113126,-10711.0,-6790.0,-205.0,0.526,-0.652,0.259,0.481
1113143,-13063.0,-7240.0,5.0,0.525,-0.654,0.257,0.48
1113160,-14337.0,-8508.0,-189.0,0.525,-0.656,0.254,0.479
1113177,-15993.0,-9446.0,-989.0,0.525,-0.658,0.252,0.478
1113194,-16589.0,-10538.0,-1579.0,0.524,-0.66,0.25,0.476
1113211,-16129.0,-9662.0,-1289.0,0.524,-0.662,0.249,0.474
1113228,-14447.0,-8180.0,-1089.0,0.523,-0.665,0.249,0.472
1113245,-13141.0,-7874.0,-545.0,0.521,-0.668,0.25,0.469
1113271,-12109.0,-6522.0,-291.0,0.52,-0.67,0.252,0.465
1113288,-11285.0,-5736.0,-273.0,0.519,-0.673,0.256,0.46
1113305,-11163.0,-5048.0,117.0,0.519,-0.676,0.259,0.454
1113321,-10553.0,-4634.0,-109.0,0.518,-0.678,0.264,0.449
1113338,-10309.0,-4034.0,-29.0,0.519,-0.679,0.27,0.444
1113355,-9869.0,-3504.0,-221.0,0.52,-0.678,0.276,0.44
1113371,-9257.0,-3314.0,-303.0,0.521,-0.677,0.282,0.436
1113388,-8209.0,-3752.0,-867.0,0.522,-0.675,0.29,0.433
1113405,-8205.0,-3268.0,-805.0,0.523,-0.673,0.297,0.431
1113422,-7691.0,-2442.0,-907.0,0.524,-0.67,0.305,0.43
1113448,-7283.0,-1840.0,-703.0,0.523,-0.665,0.313,0.431
1113465,-6573.0,-2248.0,-675.0,0.522,-0.661,0.321,0.433
1113481,-5677.0,-2458.0,-819.0,0.521,-0.655,0.33,0.436
1113498,-5659.0,-1820.0,-693.0,0.521,-0.649,0.338,0.44
1113514,-5287.0,-1878.0,-579.0,0.52,-0.643,0.345,0.444
1113530,-5175.0,-1700.0,-867.0,0.519,-0.637,0.352,0.449
1113546,-5253.0,-2076.0,-853.0,0.517,-0.632,0.358,0.453
1113563,-5267.0,-2344.0,-725.0,0.516,-0.627,0.364,0.457
1113589,-5483.0,-2030.0,-779.0,0.514,-0.621,0.37,0.462
1113606,-5573.0,-1452.0,-767.0,0.512,-0.616,0.375,0.466
1113623,-5677.0,-2494.0,-673.0,0.51,-0.61,0.381,0.472
1113640,-6115.0,-2280.0,-705.0,0.507,-0.605,0.387,0.477
1113657,-6509.0,-2090.0,-703.0,0.504,-0.599,0.392,0.483
1113674,-6577.0,-1942.0,-473.0,0.502,-0.592,0.398,0.49
1113691,-6709.0,-666.0,-259.0,0.499,-0.585,0.402,0.497
1113708,-6397.0,-1484.0,-703.0,0.496,-0.578,0.406,0.506
1113725,-6331.0,-1236.0,-189.0,0.493,-0.571,0.407,0.514
1113742,-5953.0,-1334.0,-261.0,0.491,-0.563,0.409,0.524
1113759,-5403.0,-1290.0,335.0,0.491,-0.555,0.408,0.533
1113776,-4807.0,-532.0,543.0,0.492,-0.547,0.406,0.542
1113793,-2945.0,964.0,149.0,0.493,-0.539,0.402,0.552
1113819,-1715.0,792.0,-407.0,0.493,-0.536,0.397,0.558
1113835,-2039.0,-1346.0,-317.0,0.492,-0.536,0.392,0.562
1113852,-2273.0,-3494.0,95.0,0.494,-0.538,0.388,0.562
1113868,-3299.0,-2904.0,1285.0,0.5,-0.54,0.384,0.558
1113885,-4091.0,-868.0,805.0,0.508,-0.542,0.38,0.551
1113902,-4691.0,32.0,961.0,0.515,-0.545,0.375,0.545
1113919,-5787.0,-1174.0,1109.0,0.52,-0.55,0.367,0.54
1113936,-5667.0,-886.0,303.0,0.525,-0.556,0.358,0.536
1113952,-5601.0,-1958.0,697.0,0.528,-0.562,0.348,0.532
1113979,-5741.0,-3570.0,949.0,0.53,-0.57,0.338,0.529
1113995,-6123.0,-2330.0,989.0,0.534,-0.576,0.328,0.526
1114011,-5129.0,-1436.0,999.0,0.536,-0.583,0.316,0.522
1114027,-5243.0,-2266.0,1309.0,0.538,-0.59,0.304,0.52
1114044,-5883.0,-3280.0,1283.0,0.539,-0.597,0.292,0.517
1114061,-5831.0,-3102.0,1307.0,0.542,-0.603,0.281,0.514
1114077,-5927.0,-2746.0,1621.0,0.544,-0.609,0.269,0.511
1114103,-6761.0,-3988.0,1049.0,0.546,-0.613,0.259,0.508
1114120,-7203.0,-4134.0,1545.0,0.55,-0.618,0.249,0.504
1114137,-7587.0,-3584.0,1079.0,0.552,-0.622,0.24,0.501
1114153,-7963.0,-2842.0,1753.0,0.554,-0.625,0.231,0.5
1114169,-7801.0,-3724.0,1633.0,0.555,-0.628,0.222,0.499
1114186,-7363.0,-4658.0,1265.0,0.556,-0.63,0.214,0.498
1114203,-7601.0,-4440.0,1641.0,0.558,-0.631,0.207,0.498
1114219,-7271.0,-3284.0,1423.0,0.56,-0.631,0.201,0.497
1114236,-7233.0,-4660.0,1083.0,0.561,-0.632,0.195,0.497
1114253,-7587.0,-4616.0,1621.0,0.564,-0.632,0.19,0.496
1114270,-8031.0,-3930.0,1949.0,0.566,-0.632,0.186,0.496
1114297,-7953.0,-4382.0,1745.0,0.567,-0.631,0.182,0.497
1114313,-7635.0,-5236.0,1621.0,0.569,-0.63,0.179,0.498
1114329,-7703.0,-5596.0,1471.0,0.571,-0.628,0.177,0.499
1114345,-8035.0,-4840.0,1821.0,0.573,-0.626,0.176,0.499
1114361,-8271.0,-4494.0,1735.0,0.575,-0.624,0.174,0.499
1114377,-7939.0,-4838.0,2013.0,0.576,-0.622,0.174,0.501
1114394,-7397.0,-5166.0,1771.0,0.577,-0.62,0.174,0.503
1114421,-7123.0,-5036.0,1825.0,0.578,-0.618,0.174,0.504
1114438,-7465.0,-4610.0,2243.0,0.578,-0.617,0.175,0.505
1114455,-7907.0,-4796.0,2601.0,0.579,-0.615,0.177,0.505
1114471,-8059.0,-4946.0,2815.0,0.578,-0.614,0.179,0.506
1114488,-7957.0,-6268.0,2621.0,0.577,-0.613,0.184,0.507
1114504,-8587.0,-6476.0,2201.0,0.578,-0.612,0.19,0.506
1114521,-9371.0,-5310.0,1867.0,0.578,-0.612,0.197,0.503
1114538,-10071.0,-6048.0,1449.0,0.576,-0.614,0.205,0.499
1114555,-11127.0,-6806.0,1213.0,0.574,-0.617,0.212,0.495
1114572,-11817.0,-6916.0,997.0,0.571,-0.621,0.22,0.49
1114598,-11957.0,-7188.0,457.0,0.569,-0.624,0.227,0.484
1114614,-11617.0,-6552.0,259.0,0.567,-0.628,0.234,0.479
1114630,-11689.0,-6576.0,789.0,0.565,-0.631,0.24,0.475
1114646,-11145.0,-6462.0,977.0,0.564,-0.633,0.246,0.471
1114662,-10343.0,-5246.0,693.0,0.563,-0.634,0.25,0.467
1114679,-9985.0,-5540.0,891.0,0.562,-0.635,0.254,0.465
1114695,-9721.0,-5380.0,1127.0,0.562,-0.636,0.258,0.462
1114721,-9165.0,-4574.0,1037.0,0.561,-0.636,0.262,0.46
1114738,-8433.0,-4264.0,787.0,0.561,-0.636,0.266,0.458
1114755,-8125.0,-4234.0,775.0,0.56,-0.637,0.27,0.457
1114772,-8077.0,-3406.0,857.0,0.558,-0.637,0.274,0.455
1114789,-8137.0,-3070.0,949.0,0.556,-0.638,0.279,0.455
1114806,-7843.0,-3382.0,649.0,0.552,-0.639,0.283,0.455
1114823,-7115.0,-3960.0,171.0,0.548,-0.64,0.288,0.454
1114840,-7529.0,-2934.0,41.0,0.544,-0.642,0.293,0.454
1114857,-7921.0,-2502.0,145.0,0.539,-0.645,0.297,0.454
1114874,-7501.0,-3202.0,-321.0,0.532,-0.648,0.301,0.454
1114891,-7821.0,-3066.0,-165.0,0.527,-0.65,0.305,0.455
1114908,-7147.0,-1872.0,-361.0,0.521,-0.652,0.309,0.457
1114925,-6775.0,-2534.0,-891.0,0.514,-0.655,0.311,0.459
1114952,-7035.0,-2916.0,-785.0,0.506,-0.657,0.314,0.461
1114969,-7063.0,-2674.0,-767.0,0.5,-0.66,0.316,0.464
1114986,-7069.0,-2434.0,-971.0,0.493,-0.661,0.318,0.467
1115003,-7291.0,-2284.0,-935.0,0.487,-0.663,0.32,0.47
1115020,-6869.0,-2740.0,-1133.0,0.481,-0.664,0.322,0.474
1115037,-6807.0,-2228.0,-1267.0,0.476,-0.664,0.324,0.478
1115054,-6635.0,-2524.0,-1523.0,0.47,-0.664,0.326,0.481
1115071,-7079.0,-2652.0,-1423.0,0.466,-0.664,0.328,0.484
1115088,-6901.0,-2350.0,-1497.0,0.461,-0.663,0.331,0.488
1115104,-6915.0,-1194.0,-1431.0,0.457,-0.663,0.333,0.491
1115121,-7031.0,-1662.0,-1395.0,0.452,-0.662,0.335,0.495
1115147,-6899.0,-3062.0,-1975.0,0.447,-0.661,0.337,0.499
1115163,-7447.0,-2684.0,-1659.0,0.445,-0.66,0.339,0.502
1115179,-6821.0,-1684.0,-1751.0,0.442,-0.658,0.341,0.506
1115196,-6849.0,-1940.0,-1665.0,0.438,-0.656,0.342,0.51
1115213,-6551.0,-1910.0,-1449.0,0.435,-0.654,0.343,0.515
1115230,-5579.0,-1072.0,-1259.0,0.431,-0.652,0.344,0.52
1115247,-4141.0,-1088.0,-887.0,0.426,-0.649,0.345,0.527
1115264,-3053.0,-852.0,-669.0,0.423,-0.646,0.345,0.533
1115281,-1935.0,-424.0,-615.0,0.42,-0.643,0.345,0.539
1115298,-1487.0,-742.0,-547.0,0.419,-0.643,0.343,0.542
1115324,-1453.0,-2004.0,-591.0,0.418,-0.644,0.339,0.543
1115341,-1641.0,-4236.0,-823.0,0.42,-0.647,0.336,0.541
1115358,-1413.0,-3024.0,-269.0,0.425,-0.65,0.335,0.534
1115375,-1915.0,170.0,-313.0,0.431,-0.654,0.332,0.526
1115392,-3417.0,174.0,-435.0,0.435,-0.659,0.329,0.518
1115409,-4059.0,-730.0,-633.0,0.436,-0.665,0.325,0.511
1115426,-4709.0,-1568.0,-723.0,0.437,-0.672,0.32,0.505
1115443,-5395.0,-3086.0,-713.0,0.437,-0.679,0.316,0.498
1115460,-6879.0,-2926.0,-1225.0,0.438,-0.685,0.311,0.492
1115477,-7205.0,-3276.0,-1061.0,0.44,-0.689,0.305,0.488
1115494,-7455.0,-3838.0,-1345.0,0.444,-0.692,0.3,0.484
1115510,-7669.0,-3468.0,-1413.0,0.448,-0.694,0.296,0.48
1115527,-8489.0,-3346.0,-1567.0,0.453,-0.694,0.291,0.477
1115553,-8859.0,-3276.0,-1269.0,0.459,-0.694,0.286,0.475
1115570,-8909.0,-3814.0,-1385.0,0.464,-0.693,0.282,0.474
1115587,-8977.0,-4524.0,-1369.0,0.47,-0.692,0.277,0.473
1115604,-9887.0,-4008.0,-1007.0,0.477,-0.689,0.271,0.473
1115621,-9427.0,-3522.0,-541.0,0.485,-0.686,0.266,0.473
1115638,-8405.0,-2448.0,-759.0,0.491,-0.682,0.261,0.474
1115655,-7361.0,-2958.0,-329.0,0.495,-0.68,0.257,0.475
1115672,-7743.0,-2588.0,289.0,0.497,-0.679,0.254,0.477
1115689,-7117.0,-2986.0,-197.0,0.499,-0.678,0.251,0.478
1115706,-6853.0,-5188.0,95.0,0.5,-0.678,0.25,0.478
1115723,-8227.0,-2752.0,313.0,0.502,-0.677,0.249,0.477
1115740,-7797.0,-1968.0,55.0,0.502,-0.677,0.248,0.478
1115757,-8379.0,-3058.0,299.0,0.5,-0.677,0.248,0.48
1115784,-8377.0,-3748.0,249.0,0.498,-0.678,0.247,0.481
1115800,-8279.0,-3608.0,-131.0,0.497,-0.678,0.248,0.482
1115816,-8451.0,-3076.0,85.0,0.495,-0.678,0.248,0.484
1115832,-8411.0,-3338.0,-29.0,0.493,-0.677,0.249,0.486
1115848,-8817.0,-2882.0,257.0,0.492,-0.676,0.249,0.489
1115864,-8311.0,-3088.0,-323.0,0.491,-0.674,0.25,0.492
1115890,-9049.0,-2738.0,-61.0,0.49,-0.672,0.25,0.496
1115907,-8979.0,-3488.0,-673.0,0.49,-0.669,0.25,0.499
1115924,-10259.0,-3794.0,-301.0,0.491,-0.666,0.25,0.503
1115940,-10651.0,-4862.0,-645.0,0.493,-0.663,0.248,0.506
1115956,-11721.0,-5570.0,-573.0,0.498,-0.658,0.247,0.508
1115972,-12319.0,-4752.0,-757.0,0.502,-0.654,0.246,0.509
1115989,-12789.0,-5806.0,-521.0,0.507,-0.651,0.243,0.51
1116006,-12447.0,-7146.0,-587.0,0.511,-0.648,0.241,0.511
1116032,-12489.0,-6186.0,-75.0,0.516,-0.646,0.239,0.51
1116049,-11783.0,-6018.0,205.0,0.52,-0.644,0.236,0.509
1116066,-10549.0,-5818.0,375.0,0.522,-0.644,0.233,0.508
1116082,-9847.0,-5990.0,557.0,0.524,-0.645,0.23,0.506
1116098,-9815.0,-5574.0,837.0,0.526,-0.647,0.227,0.503
1116115,-9499.0,-4856.0,821.0,0.526,-0.65,0.225,0.5
1116132,-9093.0,-5046.0,805.0,0.524,-0.654,0.222,0.498
1116148,-9079.0,-5572.0,743.0,0.522,-0.658,0.22,0.496
1116165,-9111.0,-4700.0,771.0,0.52,-0.662,0.217,0.495
1116191,-9433.0,-4638.0,963.0,0.517,-0.665,0.214,0.495
1116208,-9125.0,-5360.0,701.0,0.514,-0.667,0.211,0.496
1116225,-9103.0,-5188.0,803.0,0.513,-0.667,0.209,0.498
1116242,-9051.0,-3924.0,933.0,0.512,-0.666,0.208,0.501
1116259,-8685.0,-4176.0,879.0,0.511,-0.665,0.205,0.505
1116276,-8145.0,-3442.0,1107.0,0.509,-0.663,0.202,0.51
1116293,-7215.0,-2870.0,619.0,0.507,-0.662,0.199,0.514
1116310,-6825.0,-3782.0,475.0,0.503,-0.663,0.197,0.518
1116326,-6975.0,-2782.0,651.0,0.499,-0.663,0.195,0.522
1116343,-6829.0,-2336.0,467.0,0.494,-0.665,0.194,0.526
1116360,-6801.0,-2494.0,615.0,0.488,-0.666,0.193,0.531
1116386,-6819.0,-2554.0,543.0,0.481,-0.667,0.192,0.536
1116402,-6167.0,-2340.0,425.0,0.474,-0.667,0.192,0.541
1116419,-5821.0,-2970.0,25.0,0.467,-0.668,0.194,0.546
1116436,-6505.0,-3036.0,91.0,0.461,-0.669,0.197,0.549
1116453,-7195.0,-2520.0,255.0,0.456,-0.669,0.202,0.552
1116470,-7901.0,-2380.0,119.0,0.451,-0.668,0.208,0.555
1116487,-7907.0,-3386.0,-53.0,0.448,-0.665,0.216,0.557
1116504,-8175.0,-2940.0,317.0,0.447,-0.661,0.224,0.559
1116520,-6891.0,-2136.0,-851.0,0.447,-0.656,0.233,0.562
1116537,-6297.0,-1960.0,-1435.0,0.447,-0.651,0.242,0.563
1116554,-6341.0,-1870.0,-927.0,0.446,-0.647,0.251,0.565
1116571,-7025.0,-2334.0,-829.0,0.445,-0.643,0.259,0.567
1116598,-6543.0,-2802.0,-1055.0,0.445,-0.637,0.268,0.57
1116614,-6583.0,-2420.0,-663.0,0.446,-0.629,0.276,0.574
1116631,-5825.0,-2468.0,-651.0,0.447,-0.621,0.284,0.578
1116647,-5233.0,-1942.0,-405.0,0.449,-0.612,0.291,0.582
1116663,-4169.0,-1144.0,15.0,0.452,-0.603,0.298,0.586
1116680,-3381.0,-798.0,299.0,0.453,-0.596,0.303,0.59
1116696,-2839.0,-1132.0,825.0,0.455,-0.589,0.307,0.593
1116713,-1891.0,-1374.0,789.0,0.457,-0.585,0.31,0.594
1116739,-1601.0,-782.0,857.0,0.461,-0.581,0.312,0.593
1116756,-1239.0,-652.0,1065.0,0.466,-0.579,0.313,0.59
1116773,-1373.0,-2260.0,1191.0,0.473,-0.579,0.313,0.585
1116790,-1115.0,-2926.0,1171.0,0.483,-0.578,0.314,0.578
1116807,-1927.0,-914.0,1275.0,0.495,-0.578,0.314,0.568
1116824,-2531.0,46.0,1375.0,0.506,-0.579,0.314,0.557
1116841,-2799.0,-120.0,837.0,0.515,-0.581,0.311,0.548
1116858,-4933.0,-2866.0,1365.0,0.523,-0.585,0.309,0.538
1116875,-5895.0,-2934.0,985.0,0.532,-0.586,0.306,0.529
1116892,-7369.0,-3646.0,841.0,0.541,-0.587,0.302,0.52
1116909,-8295.0,-4124.0,1053.0,0.55,-0.587,0.298,0.514
1116926,-8493.0,-3678.0,893.0,0.56,-0.586,0.293,0.508
1116943,-7889.0,-3888.0,809.0,0.568,-0.585,0.287,0.504
1116969,-8745.0,-4392.0,1163.0,0.575,-0.584,0.281,0.5
1116986,-8293.0,-4612.0,1325.0,0.582,-0.582,0.275,0.497
1117003,-8815.0,-2210.0,1601.0,0.587,-0.582,0.268,0.496
1117020,-8371.0,-2432.0,2191.0,0.589,-0.583,0.26,0.495
1117037,-7709.0,-3872.0,2051.0,0.59,-0.585,0.251,0.496
1117054,-7827.0,-3068.0,1905.0,0.592,-0.587,0.243,0.496
1117072,-8067.0,-4426.0,2183.0,0.593,-0.59,0.235,0.495
1117089,-8599.0,-3290.0,2545.0,0.595,-0.592,0.227,0.494
1117106,-8571.0,-3540.0,2467.0,0.597,-0.594,0.219,0.493
1117123,-7707.0,-3838.0,2029.0,0.598,-0.595,0.212,0.493
1117140,-7423.0,-4002.0,2429.0,0.6,-0.597,0.206,0.491
1117157,-7529.0,-3158.0,2465.0,0.602,-0.598,0.2,0.49
1117174,-7233.0,-4230.0,2649.0,0.603,-0.6,0.194,0.488
1117191,-7057.0,-3522.0,2227.0,0.604,-0.602,0.189,0.487
1117218,-6833.0,-3450.0,2173.0,0.603,-0.605,0.184,0.486
1117235,-6383.0,-4146.0,2007.0,0.602,-0.608,0.179,0.486
1117252,-6053.0,-4214.0,1711.0,0.601,-0.611,0.174,0.485
1117269,-5991.0,-4072.0,1755.0,0.6,-0.614,0.17,0.484
1117286,-6697.0,-4788.0,1629.0,0.598,-0.617,0.166,0.483
1117302,-6867.0,-5314.0,1667.0,0.598,-0.619,0.162,0.483
1117319,-7609.0,-6640.0,1607.0,0.599,-0.619,0.159,0.482
1117335,-8031.0,-6890.0,1197.0,0.602,-0.617,0.157,0.481
1117351,-9215.0,-6904.0,1069.0,0.606,-0.614,0.156,0.481
1117368,-9711.0,-8672.0,993.0,0.61,-0.609,0.156,0.481
1117395,-10631.0,-8970.0,1309.0,0.616,-0.603,0.158,0.482
1117412,-11543.0,-9612.0,1967.0,0.623,-0.594,0.16,0.483
1117429,-11385.0,-9130.0,2491.0,0.631,-0.583,0.162,0.485
1117445,-10545.0,-8372.0,3101.0,0.64,-0.572,0.164,0.486
1117462,-10043.0,-7106.0,3669.0,0.649,-0.561,0.165,0.486
1117479,-9197.0,-6568.0,3975.0,0.657,-0.552,0.166,0.486
1117496,-8333.0,-5890.0,4267.0,0.663,-0.545,0.167,0.485
1117512,-7567.0,-5386.0,3701.0,0.669,-0.539,0.17,0.482
1117528,-6813.0,-5100.0,3785.0,0.674,-0.536,0.173,0.478
1117554,-6581.0,-4650.0,3731.0,0.678,-0.535,0.177,0.473
1117571,-6933.0,-4368.0,4017.0,0.68,-0.535,0.181,0.467
1117588,-6937.0,-4756.0,3967.0,0.681,-0.537,0.185,0.462
1117605,-6653.0,-5376.0,3779.0,0.682,-0.539,0.189,0.457
1117622,-6117.0,-5146.0,3337.0,0.683,-0.54,0.192,0.452
1117639,-5789.0,-3762.0,2959.0,0.683,-0.543,0.196,0.447
1117656,-6151.0,-4438.0,3025.0,0.682,-0.548,0.199,0.443
1117673,-6461.0,-5306.0,2985.0,0.679,-0.552,0.202,0.439
1117690,-6337.0,-5194.0,2659.0,0.678,-0.556,0.204,0.436
1117707,-6485.0,-6088.0,2575.0,0.676,-0.56,0.206,0.433
1117724,-6643.0,-4942.0,2061.0,0.673,-0.564,0.207,0.43
1117741,-6731.0,-4852.0,1955.0,0.669,-0.57,0.208,0.429
1117758,-7129.0,-5456.0,2117.0,0.663,-0.577,0.209,0.428
1117775,-7685.0,-6300.0,2455.0,0.658,-0.582,0.209,0.429
1117802,-7361.0,-5040.0,2155.0,0.654,-0.586,0.21,0.43
1117819,-6863.0,-4344.0,1909.0,0.648,-0.59,0.211,0.433
1117836,-6873.0,-5832.0,1763.0,0.64,-0.596,0.213,0.435
1117853,-6695.0,-4986.0,1621.0,0.634,-0.602,0.215,0.436
1117870,-6985.0,-3780.0,1591.0,0.626,-0.607,0.218,0.438
1117887,-7305.0,-4380.0,1741.0,0.617,-0.614,0.222,0.44
1117904,-6845.0,-4958.0,1169.0,0.608,-0.62,0.225,0.443
1117921,-7245.0,-4320.0,1179.0,0.599,-0.625,0.229,0.445
1117938,-7533.0,-3734.0,937.0,0.59,-0.629,0.233,0.449
1117955,-7333.0,-4868.0,635.0,0.579,-0.635,0.237,0.453
1117972,-7801.0,-4248.0,547.0,0.57,-0.639,0.241,0.458
1117989,-7471.0,-3248.0,493.0,0.56,-0.642,0.245,0.463
1118006,-7227.0,-3678.0,209.0,0.549,-0.645,0.25,0.47
1118023,-6941.0,-5006.0,-33.0,0.538,-0.647,0.254,0.476
1118050,-7491.0,-3636.0,-57.0,0.53,-0.648,0.259,0.482
1118067,-7087.0,-3810.0,-153.0,0.52,-0.649,0.264,0.489
1118084,-7103.0,-4208.0,-225.0,0.511,-0.649,0.268,0.496
1118100,-6709.0,-4056.0,-93.0,0.503,-0.648,0.273,0.503
1118117,-6261.0,-3172.0,-429.0,0.495,-0.645,0.279,0.51
1118134,-5203.0,-3616.0,-603.0,0.488,-0.642,0.285,0.518
1118151,-4781.0,-3420.0,-925.0,0.481,-0.638,0.292,0.525
1118168,-3521.0,-674.0,-1311.0,0.475,-0.634,0.3,0.532
1118185,-2049.0,458.0,-1441.0,0.466,-0.631,0.308,0.539
1118201,-2191.0,-666.0,-1419.0,0.455,-0.629,0.316,0.546
1118218,-2729.0,-2014.0,-839.0,0.446,-0.628,0.323,0.55
1118235,-2659.0,-2424.0,-479.0,0.441,-0.627,0.328,0.552
1118262,-2469.0,-1932.0,-551.0,0.44,-0.628,0.331,0.551
1118278,-2219.0,-1288.0,-947.0,0.441,-0.629,0.333,0.547
1118294,-2251.0,-2204.0,-823.0,0.444,-0.632,0.333,0.541
1118311,-2261.0,-1546.0,-599.0,0.449,-0.635,0.332,0.533
1118328,-2203.0,-2252.0,-1671.0,0.454,-0.64,0.33,0.525
1118344,-4023.0,-2498.0,-67.0,0.459,-0.646,0.328,0.515
1118360,-5547.0,-1318.0,-1823.0,0.462,-0.652,0.325,0.505
1118377,-8089.0,-2206.0,-1747.0,0.463,-0.659,0.32,0.499
1118403,-9273.0,-6732.0,-565.0,0.464,-0.662,0.317,0.496
1118419,-7773.0,-5864.0,-773.0,0.472,-0.66,0.316,0.492
1118435,-6267.0,-1994.0,-1051.0,0.481,-0.657,0.314,0.488
1118452,-5631.0,-2266.0,-783.0,0.487,-0.656,0.311,0.486
1118468,-6333.0,-3618.0,-889.0,0.493,-0.656,0.307,0.483
1118485,-6891.0,-3446.0,31.0,0.499,-0.655,0.302,0.48
1118501,-6841.0,-3186.0,-313.0,0.506,-0.653,0.299,0.477
1118518,-7169.0,-2314.0,-103.0,0.512,-0.652,0.296,0.475
1118545,-7631.0,-2960.0,23.0,0.518,-0.65,0.293,0.472
1118561,-8175.0,-3408.0,137.0,0.522,-0.649,0.291,0.47
1118577,-9161.0,-3026.0,703.0,0.527,-0.648,0.288,0.468
1118593,-9027.0,-2258.0,911.0,0.531,-0.647,0.284,0.468
1118610,-8731.0,-2660.0,1145.0,0.533,-0.646,0.281,0.468
1118626,-7907.0,-2666.0,871.0,0.536,-0.646,0.278,0.468
1118642,-6905.0,-4094.0,659.0,0.538,-0.646,0.275,0.467
1118668,-7689.0,-2454.0,1129.0,0.541,-0.645,0.274,0.465
1118684,-7977.0,-1974.0,1231.0,0.542,-0.646,0.272,0.463
1118700,-7739.0,-3020.0,1125.0,0.542,-0.647,0.271,0.462
1118716,-7557.0,-3774.0,521.0,0.541,-0.649,0.271,0.461
1118733,-7657.0,-2986.0,621.0,0.542,-0.65,0.271,0.46
1118750,-8241.0,-2354.0,415.0,0.54,-0.651,0.27,0.459
1118767,-8003.0,-3684.0,273.0,0.538,-0.654,0.268,0.46
1118793,-7425.0,-4360.0,195.0,0.537,-0.655,0.266,0.46
1118809,-6955.0,-3618.0,-29.0,0.536,-0.657,0.264,0.46
1118825,-7807.0,-2432.0,-219.0,0.534,-0.658,0.262,0.461
1118841,-7279.0,-4310.0,-307.0,0.532,-0.661,0.259,0.462
1118857,-7887.0,-5030.0,-119.0,0.531,-0.662,0.257,0.463
1118873,-8061.0,-4234.0,-145.0,0.531,-0.661,0.255,0.464
1118899,-7935.0,-3934.0,-587.0,0.531,-0.661,0.254,0.466
1118915,-8343.0,-4108.0,-611.0,0.53,-0.661,0.252,0.468
1118931,-9509.0,-5532.0,-439.0,0.53,-0.66,0.25,0.47
1118947,-11101.0,-6444.0,-327.0,0.531,-0.659,0.247,0.473
1118963,-11853.0,-6826.0,-357.0,0.533,-0.656,0.244,0.475
1118979,-12999.0,-6516.0,-157.0,0.537,-0.653,0.24,0.477
1119005,-13785.0,-7188.0,-63.0,0.54,-0.65,0.236,0.48
1119022,-14225.0,-7400.0,429.0,0.544,-0.647,0.232,0.482
1119039,-12999.0,-6668.0,337.0,0.547,-0.644,0.229,0.483
1119056,-12003.0,-5934.0,541.0,0.549,-0.643,0.227,0.483
1119073,-11623.0,-5614.0,937.0,0.551,-0.643,0.226,0.482
1119091,-10501.0,-5876.0,435.0,0.552,-0.643,0.226,0.48
1119108,-10599.0,-5032.0,759.0,0.553,-0.645,0.226,0.477
1119125,-10159.0,-5062.0,779.0,0.553,-0.647,0.227,0.473
1119142,-9113.0,-5314.0,291.0,0.553,-0.649,0.229,0.47
1119159,-8937.0,-4758.0,269.0,0.552,-0.651,0.231,0.467
1119175,-8645.0,-4220.0,135.0,0.551,-0.653,0.233,0.464
1119191,-8303.0,-4310.0,115.0,0.548,-0.656,0.236,0.462
1119218,-8105.0,-4216.0,383.0,0.545,-0.658,0.238,0.462
1119235,-7307.0,-3586.0,39.0,0.542,-0.658,0.241,0.463
1119251,-6829.0,-3984.0,-23.0,0.539,-0.658,0.244,0.465
1119268,-6517.0,-4034.0,177.0,0.536,-0.658,0.248,0.468
1119285,-6507.0,-3752.0,283.0,0.534,-0.656,0.252,0.47
1119302,-6411.0,-3346.0,363.0,0.531,-0.654,0.256,0.473
1119319,-6503.0,-2932.0,461.0,0.529,-0.652,0.261,0.476
1119337,-6167.0,-3482.0,499.0,0.526,-0.65,0.266,0.479
1119354,-6649.0,-4184.0,781.0,0.525,-0.646,0.272,0.483
1119371,-6963.0,-4070.0,953.0,0.526,-0.641,0.277,0.485
1119388,-6719.0,-3628.0,877.0,0.53,-0.635,0.28,0.487
1119405,-5821.0,-2560.0,13.0,0.534,-0.629,0.284,0.489
1119422,-5671.0,-2300.0,-415.0,0.535,-0.624,0.288,0.491
1119439,-6141.0,-2286.0,-85.0,0.536,-0.62,0.292,0.493
1119456,-5619.0,-2292.0,-767.0,0.536,-0.616,0.296,0.496
1119483,-5663.0,-2230.0,-599.0,0.534,-0.612,0.3,0.5
1119500,-5231.0,-2982.0,-269.0,0.531,-0.608,0.305,0.505
1119516,-6935.0,-1466.0,-217.0,0.531,-0.603,0.308,0.51
1119532,-5419.0,-2590.0,43.0,0.528,-0.598,0.313,0.515
1119549,-5701.0,-1066.0,-123.0,0.526,-0.593,0.315,0.522
1119565,-4625.0,78.0,303.0,0.521,-0.589,0.317,0.53
1119581,-3881.0,-684.0,697.0,0.515,-0.588,0.316,0.538
1119608,-3151.0,-1714.0,935.0,0.509,-0.588,0.315,0.545
1119624,-2603.0,-2116.0,691.0,0.505,-0.588,0.313,0.549
1119640,-2483.0,-2134.0,353.0,0.503,-0.589,0.312,0.55
1119657,-2355.0,-2506.0,297.0,0.503,-0.592,0.31,0.548
1119674,-2101.0,-3090.0,469.0,0.507,-0.593,0.31,0.543
1119691,-2401.0,-2854.0,419.0,0.513,-0.594,0.311,0.536
1119708,-2719.0,-2012.0,557.0,0.521,-0.595,0.312,0.526
1119724,-2945.0,-310.0,279.0,0.529,-0.596,0.314,0.516
1119741,-4445.0,-2212.0,349.0,0.534,-0.599,0.314,0.507
1119758,-6175.0,-3252.0,633.0,0.539,-0.603,0.313,0.498
1119784,-6921.0,-1454.0,-279.0,0.544,-0.605,0.31,0.491
1119801,-6775.0,-2602.0,-317.0,0.546,-0.609,0.307,0.488
1119818,-7189.0,-5020.0,301.0,0.548,-0.611,0.304,0.485
1119835,-6797.0,-5990.0,5.0,0.552,-0.61,0.301,0.482
1119852,-7221.0,-3352.0,-69.0,0.559,-0.608,0.298,0.478
1119869,-6921.0,-2104.0,171.0,0.564,-0.607,0.294,0.477
1119885,-7139.0,-3404.0,431.0,0.568,-0.606,0.289,0.476
1119902,-7357.0,-5040.0,441.0,0.573,-0.604,0.284,0.475
1119919,-7221.0,-4616.0,559.0,0.58,-0.601,0.28,0.474
1119936,-7401.0,-2198.0,1079.0,0.586,-0.597,0.276,0.473
1119962,-6879.0,-2200.0,967.0,0.589,-0.596,0.272,0.473
1119978,-7207.0,-2920.0,1065.0,0.592,-0.594,0.269,0.473
1119994,-7519.0,-5486.0,1413.0,0.595,-0.592,0.266,0.474
1120011,-7735.0,-3698.0,1309.0,0.6,-0.589,0.265,0.473
1120028,-7789.0,-2546.0,1537.0,0.604,-0.585,0.263,0.473
1120044,-7613.0,-2810.0,1575.0,0.605,-0.583,0.262,0.475
1120061,-8131.0,-4572.0,1921.0,0.607,-0.58,0.262,0.477
1120077,-8041.0,-3810.0,1715.0,0.609,-0.576,0.262,0.478
1120094,-7771.0,-3634.0,1799.0,0.61,-0.572,0.263,0.481
1120111,-7961.0,-3202.0,1917.0,0.611,-0.569,0.265,0.483
1120137,-8129.0,-3454.0,1897.0,0.611,-0.565,0.267,0.486
1120154,-8539.0,-3518.0,1917.0,0.61,-0.562,0.269,0.489
1120171,-7981.0,-3742.0,1833.0,0.61,-0.557,0.271,0.493
1120188,-7937.0,-3686.0,1605.0,0.61,-0.553,0.275,0.497
1120205,-9135.0,-2704.0,1979.0,0.609,-0.548,0.278,0.501
1120222,-9231.0,-3616.0,2083.0,0.608,-0.544,0.281,0.505
1120239,-9507.0,-4768.0,1975.0,0.608,-0.538,0.284,0.51
1120256,-9457.0,-4440.0,1857.0,0.61,-0.53,0.287,0.513
1120273,-10115.0,-3438.0,1921.0,0.613,-0.522,0.291,0.517
1120290,-10773.0,-3694.0,2275.0,0.616,-0.513,0.294,0.521
1120307,-10667.0,-5090.0,2171.0,0.62,-0.503,0.296,0.524
1120324,-10641.0,-4868.0,2101.0,0.626,-0.491,0.298,0.527
