timeMs,ax,ay,az,q0,q1,q2,q3
1579073,4202.0,1544.0,7078.0,0.955,0.091,-0.264,-0.098
1579092,3938.0,1380.0,7160.0,0.955,0.088,-0.263,-0.1
1579109,3856.0,984.0,7118.0,0.956,0.086,-0.263,-0.101
1579128,3924.0,902.0,7094.0,0.956,0.085,-0.262,-0.102
1579147,3938.0,1188.0,7184.0,0.956,0.084,-0.261,-0.103
1579166,3740.0,1442.0,7488.0,0.956,0.083,-0.261,-0.104
1579185,3714.0,1302.0,7492.0,0.956,0.082,-0.261,-0.104
1579205,3654.0,1312.0,7222.0,0.956,0.082,-0.261,-0.104
1579224,3586.0,1506.0,7184.0,0.956,0.082,-0.262,-0.104
1579242,3514.0,1470.0,7208.0,0.955,0.083,-0.264,-0.103
1579261,3582.0,1472.0,7304.0,0.955,0.084,-0.266,-0.102
1579280,3946.0,1520.0,7194.0,0.954,0.085,-0.268,-0.102
1579300,4254.0,1778.0,7004.0,0.954,0.086,-0.27,-0.101
1579311,4236.0,2050.0,7018.0,0.953,0.088,-0.271,-0.099
1579331,4210.0,2174.0,7066.0,0.953,0.088,-0.272,-0.098
1579351,4230.0,2050.0,7030.0,0.953,0.089,-0.273,-0.096
1579372,4128.0,2332.0,7092.0,0.953,0.09,-0.274,-0.094
1579383,4248.0,2286.0,7000.0,0.953,0.091,-0.275,-0.093
1579404,4490.0,2266.0,6768.0,0.952,0.092,-0.276,-0.092
1579424,4582.0,2304.0,6622.0,0.952,0.093,-0.277,-0.091
1579435,4430.0,2502.0,6748.0,0.952,0.093,-0.277,-0.091
1579453,4502.0,2296.0,6930.0,0.952,0.093,-0.277,-0.092
1579472,4548.0,2156.0,6712.0,0.952,0.092,-0.277,-0.092
1579492,4628.0,2228.0,6642.0,0.952,0.09,-0.277,-0.093
1579503,4146.0,1914.0,7146.0,0.952,0.088,-0.278,-0.094
1579520,3950.0,1656.0,7494.0,0.952,0.085,-0.28,-0.095
1579538,3972.0,1586.0,7480.0,0.951,0.082,-0.284,-0.097
1579557,4100.0,1322.0,7314.0,0.949,0.079,-0.288,-0.099
1579578,4166.0,1424.0,7010.0,0.948,0.077,-0.293,-0.101
1579598,4562.0,886.0,6820.0,0.946,0.075,-0.297,-0.104
1579609,4622.0,722.0,6604.0,0.945,0.073,-0.3,-0.107
1579629,4494.0,1060.0,6576.0,0.944,0.072,-0.303,-0.109
1579649,4108.0,1424.0,7046.0,0.943,0.073,-0.305,-0.111
1579660,4222.0,1610.0,7032.0,0.942,0.073,-0.307,-0.11
1579678,4362.0,1388.0,6800.0,0.942,0.075,-0.31,-0.109
1579698,4588.0,1480.0,6498.0,0.941,0.077,-0.312,-0.108
1579718,4536.0,1652.0,6560.0,0.94,0.079,-0.313,-0.106
1579738,4670.0,1632.0,6560.0,0.94,0.082,-0.314,-0.103
1579748,4900.0,1956.0,6410.0,0.94,0.086,-0.315,-0.101
1579769,5064.0,2034.0,6328.0,0.94,0.089,-0.315,-0.098
1579789,5154.0,2404.0,6374.0,0.94,0.093,-0.315,-0.095
1579800,4666.0,2722.0,6894.0,0.94,0.095,-0.314,-0.092
1579820,4534.0,2818.0,6924.0,0.94,0.097,-0.315,-0.089
1579840,4730.0,2476.0,6578.0,0.94,0.097,-0.315,-0.086
1579859,4764.0,1976.0,6446.0,0.94,0.097,-0.315,-0.084
1579869,4708.0,2108.0,6344.0,0.941,0.097,-0.314,-0.084
1579890,4606.0,2374.0,6414.0,0.941,0.097,-0.314,-0.083
1579909,4580.0,2416.0,6486.0,0.941,0.097,-0.313,-0.083
1579929,4750.0,2354.0,6388.0,0.942,0.096,-0.311,-0.083
1579938,4834.0,2640.0,6474.0,0.942,0.095,-0.31,-0.083
1579958,4956.0,2770.0,6472.0,0.943,0.093,-0.309,-0.083
1579978,4892.0,2512.0,6618.0,0.944,0.091,-0.307,-0.083
1579998,4658.0,2000.0,6796.0,0.944,0.088,-0.306,-0.083
1580018,4508.0,2054.0,6912.0,0.945,0.085,-0.304,-0.084
1580028,4490.0,1942.0,6984.0,0.946,0.082,-0.303,-0.086
1580049,4522.0,1690.0,7042.0,0.946,0.08,-0.302,-0.088
1580066,4500.0,1642.0,7016.0,0.946,0.077,-0.301,-0.09
1580083,4252.0,1700.0,6926.0,0.947,0.074,-0.299,-0.092
1580103,4414.0,1388.0,6736.0,0.947,0.071,-0.298,-0.094
1580124,4616.0,1338.0,6502.0,0.948,0.068,-0.296,-0.095
1580135,4894.0,1400.0,6350.0,0.949,0.065,-0.294,-0.097
1580155,5052.0,1520.0,6470.0,0.95,0.063,-0.291,-0.098
1580175,4452.0,1490.0,7086.0,0.951,0.06,-0.287,-0.099
1580185,4156.0,1284.0,7530.0,0.952,0.057,-0.285,-0.1
1580204,4046.0,1190.0,7598.0,0.952,0.055,-0.284,-0.101
1580221,4154.0,736.0,7444.0,0.952,0.053,-0.284,-0.102
1580239,4298.0,540.0,7034.0,0.952,0.052,-0.285,-0.103
1580258,4628.0,520.0,6768.0,0.952,0.052,-0.284,-0.105
1580278,4590.0,672.0,6716.0,0.952,0.051,-0.283,-0.108
1580289,4244.0,1088.0,6900.0,0.952,0.051,-0.281,-0.11
1580309,4064.0,1080.0,7042.0,0.953,0.05,-0.279,-0.11
1580328,4160.0,1238.0,6952.0,0.953,0.051,-0.277,-0.11
1580349,4402.0,1290.0,6788.0,0.954,0.052,-0.276,-0.11
1580358,4486.0,1230.0,6870.0,0.954,0.052,-0.275,-0.109
1580379,4448.0,1234.0,7244.0,0.954,0.053,-0.273,-0.109
1580400,4138.0,1076.0,7696.0,0.954,0.053,-0.273,-0.109
1580420,4026.0,1316.0,7604.0,0.954,0.054,-0.274,-0.109
1580430,3820.0,1196.0,7488.0,0.954,0.054,-0.275,-0.109
1580451,3830.0,1234.0,7206.0,0.953,0.055,-0.276,-0.11
1580470,3888.0,1010.0,7056.0,0.953,0.055,-0.276,-0.111
1580489,3934.0,1088.0,7064.0,0.953,0.055,-0.276,-0.112
1580500,3870.0,1394.0,7190.0,0.953,0.057,-0.275,-0.112
1580517,3806.0,1612.0,7224.0,0.953,0.059,-0.275,-0.112
1580539,4008.0,1642.0,7248.0,0.953,0.061,-0.275,-0.11
1580557,4232.0,1758.0,7226.0,0.953,0.064,-0.275,-0.109
1580578,4290.0,1860.0,7010.0,0.953,0.066,-0.275,-0.107
1580588,4286.0,1642.0,6988.0,0.953,0.068,-0.275,-0.106
1580607,4266.0,1632.0,7118.0,0.953,0.07,-0.276,-0.105
1580628,4308.0,1794.0,7390.0,0.953,0.071,-0.276,-0.105
1580639,4496.0,1584.0,7300.0,0.952,0.071,-0.277,-0.105
1580659,4632.0,1290.0,7018.0,0.952,0.07,-0.277,-0.106
1580679,4504.0,1402.0,6906.0,0.952,0.07,-0.277,-0.106
1580699,4140.0,1626.0,6952.0,0.952,0.071,-0.276,-0.107
1580708,4068.0,1644.0,6868.0,0.952,0.072,-0.277,-0.107
1580728,4510.0,1976.0,6760.0,0.952,0.074,-0.277,-0.107
1580748,4890.0,2008.0,6694.0,0.952,0.077,-0.277,-0.107
1580768,4896.0,2060.0,6742.0,0.952,0.078,-0.276,-0.107
1580780,4464.0,1842.0,6972.0,0.952,0.079,-0.275,-0.107
1580800,4026.0,1844.0,7148.0,0.952,0.08,-0.274,-0.107
1580821,3902.0,1736.0,7428.0,0.952,0.081,-0.274,-0.108
1580832,4156.0,1640.0,7382.0,0.952,0.081,-0.274,-0.108
1580851,4478.0,1388.0,7220.0,0.952,0.081,-0.275,-0.108
1580872,4366.0,1594.0,7528.0,0.952,0.081,-0.275,-0.109
1580891,4172.0,1528.0,7958.0,0.952,0.081,-0.276,-0.109
1580902,4006.0,1592.0,8124.0,0.951,0.081,-0.277,-0.109
1580919,4000.0,1398.0,7900.0,0.951,0.083,-0.279,-0.108
1580936,4124.0,1370.0,6978.0,0.95,0.086,-0.281,-0.108
1580953,4360.0,1564.0,6380.0,0.949,0.089,-0.282,-0.107
1580973,4342.0,694.0,5796.0,0.949,0.094,-0.281,-0.107
1580993,4252.0,1316.0,5600.0,0.949,0.099,-0.28,-0.107
1581012,3506.0,2186.0,6038.0,0.949,0.104,-0.279,-0.106
1581023,3130.0,2284.0,6568.0,0.949,0.108,-0.278,-0.105
1581041,3332.0,2024.0,6320.0,0.948,0.113,-0.279,-0.103
1581061,3986.0,1754.0,6152.0,0.947,0.117,-0.281,-0.101
1581082,4368.0,1602.0,6554.0,0.946,0.122,-0.283,-0.099
1581091,4328.0,1882.0,7126.0,0.945,0.126,-0.284,-0.097
1581110,4078.0,2344.0,7172.0,0.944,0.131,-0.286,-0.095
1581130,3750.0,2434.0,7170.0,0.943,0.135,-0.289,-0.094
1581149,3326.0,2476.0,7346.0,0.941,0.14,-0.292,-0.093
1581169,3954.0,4184.0,7362.0,0.939,0.144,-0.297,-0.092
1581188,4612.0,4742.0,6550.0,0.938,0.146,-0.301,-0.092
1581197,5120.0,2726.0,5934.0,0.936,0.148,-0.305,-0.093
1581217,5200.0,2990.0,5734.0,0.935,0.152,-0.307,-0.093
1581235,4392.0,3354.0,5832.0,0.934,0.155,-0.308,-0.094
1581255,4530.0,3590.0,6334.0,0.933,0.159,-0.309,-0.094
1581275,4476.0,3640.0,6082.0,0.932,0.162,-0.309,-0.095
1581285,4574.0,3278.0,6020.0,0.932,0.164,-0.309,-0.095
1581304,4450.0,2866.0,6096.0,0.932,0.164,-0.308,-0.095
1581324,4362.0,2720.0,6266.0,0.932,0.165,-0.308,-0.095
1581343,3960.0,2698.0,6442.0,0.933,0.165,-0.307,-0.095
1581363,3892.0,2650.0,6630.0,0.932,0.165,-0.307,-0.095
1581373,3834.0,2816.0,6648.0,0.932,0.165,-0.308,-0.096
1581392,4010.0,2690.0,6480.0,0.931,0.166,-0.311,-0.096
1581411,4034.0,2612.0,6444.0,0.93,0.167,-0.314,-0.097
1581429,3792.0,2316.0,6694.0,0.928,0.168,-0.317,-0.098
1581447,4152.0,2342.0,7156.0,0.926,0.171,-0.322,-0.098
1581466,4636.0,3506.0,6972.0,0.923,0.176,-0.327,-0.099
1581485,5034.0,3734.0,6674.0,0.921,0.18,-0.332,-0.099
1581495,5120.0,3250.0,6236.0,0.918,0.185,-0.336,-0.098
1581515,4860.0,2988.0,5504.0,0.916,0.19,-0.34,-0.098
1581535,4470.0,3306.0,5530.0,0.913,0.195,-0.344,-0.097
1581552,4168.0,3590.0,5564.0,0.911,0.2,-0.348,-0.095
1581571,4206.0,3308.0,5660.0,0.909,0.205,-0.352,-0.093
1581590,4492.0,3310.0,5682.0,0.906,0.21,-0.357,-0.091
1581601,4868.0,3520.0,5578.0,0.903,0.216,-0.362,-0.089
1581621,5194.0,3476.0,5466.0,0.899,0.222,-0.367,-0.087
1581640,5246.0,3916.0,5198.0,0.896,0.228,-0.371,-0.085
1581660,5140.0,4170.0,5228.0,0.893,0.234,-0.376,-0.083
1581670,5316.0,4158.0,5078.0,0.89,0.24,-0.38,-0.082
1581690,5354.0,4354.0,5014.0,0.886,0.246,-0.384,-0.08
1581710,5428.0,4580.0,4580.0,0.883,0.251,-0.388,-0.079
1581728,5396.0,4394.0,4472.0,0.88,0.255,-0.392,-0.077
1581745,5608.0,4078.0,4430.0,0.878,0.259,-0.396,-0.075
1581762,5786.0,4510.0,4242.0,0.875,0.263,-0.4,-0.074
1581783,5862.0,4796.0,4226.0,0.873,0.265,-0.403,-0.072
1581795,5712.0,4442.0,4328.0,0.871,0.266,-0.406,-0.071
1581816,5766.0,4342.0,4282.0,0.87,0.267,-0.409,-0.069
1581826,5590.0,4168.0,4324.0,0.868,0.268,-0.411,-0.068
1581847,5578.0,4098.0,4404.0,0.867,0.27,-0.414,-0.067
1581866,5638.0,4306.0,4400.0,0.864,0.272,-0.417,-0.067
1581886,5812.0,4420.0,4174.0,0.862,0.275,-0.421,-0.066
1581904,5918.0,4250.0,3942.0,0.86,0.277,-0.424,-0.065
1581914,6186.0,4598.0,3630.0,0.858,0.279,-0.426,-0.064
1581934,6572.0,5560.0,3094.0,0.857,0.279,-0.428,-0.064
1581955,7110.0,5148.0,2974.0,0.859,0.277,-0.427,-0.064
1581975,6744.0,4608.0,3484.0,0.861,0.273,-0.425,-0.064
1581983,5678.0,4414.0,3852.0,0.863,0.27,-0.422,-0.064
1582003,5384.0,4568.0,4440.0,0.865,0.268,-0.42,-0.063
1582024,5154.0,4148.0,4332.0,0.866,0.266,-0.419,-0.063
1582047,4950.0,4104.0,4378.0,0.866,0.266,-0.419,-0.063
1582058,4882.0,4160.0,4516.0,0.865,0.267,-0.42,-0.063
1582077,5130.0,4416.0,4642.0,0.864,0.268,-0.421,-0.063
1582097,5244.0,4366.0,4452.0,0.863,0.268,-0.424,-0.063
1582106,5430.0,4296.0,4060.0,0.861,0.269,-0.426,-0.063
1582127,5556.0,4282.0,3912.0,0.86,0.268,-0.429,-0.063
1582148,5766.0,4220.0,4134.0,0.859,0.268,-0.431,-0.064
1582158,6008.0,4126.0,4202.0,0.858,0.268,-0.433,-0.064
1582178,5986.0,4278.0,4222.0,0.857,0.268,-0.435,-0.064
1582199,5990.0,4324.0,4298.0,0.857,0.268,-0.436,-0.065
1582219,5880.0,4102.0,4240.0,0.856,0.266,-0.437,-0.065
1582227,5718.0,3856.0,4266.0,0.856,0.265,-0.439,-0.064
1582245,5474.0,3624.0,4216.0,0.855,0.265,-0.441,-0.064
1582263,5468.0,3552.0,4130.0,0.854,0.265,-0.444,-0.063
1582282,5844.0,3720.0,3830.0,0.852,0.266,-0.447,-0.062
1582300,6122.0,3718.0,3500.0,0.85,0.266,-0.451,-0.061
1582317,6528.0,3670.0,3292.0,0.848,0.266,-0.454,-0.06
1582335,6858.0,3896.0,3012.0,0.846,0.267,-0.457,-0.059
1582352,7252.0,4652.0,2690.0,0.846,0.266,-0.459,-0.058
1582369,7720.0,4470.0,2694.0,0.846,0.264,-0.459,-0.056
1582386,7796.0,4290.0,2630.0,0.847,0.263,-0.459,-0.054
1582403,7578.0,4522.0,2750.0,0.849,0.26,-0.457,-0.052
1582420,7236.0,4252.0,3198.0,0.851,0.258,-0.455,-0.049
1582438,6956.0,4696.0,3446.0,0.854,0.255,-0.452,-0.047
1582456,6468.0,4202.0,3820.0,0.857,0.251,-0.448,-0.045
1582473,6052.0,3930.0,4138.0,0.86,0.246,-0.444,-0.044
1582490,5618.0,3596.0,4330.0,0.864,0.24,-0.44,-0.044
1582507,5116.0,2996.0,4636.0,0.867,0.235,-0.437,-0.045
1582524,4824.0,2546.0,4930.0,0.869,0.231,-0.434,-0.046
1582541,4946.0,2546.0,4914.0,0.871,0.228,-0.433,-0.047
1582559,5314.0,2878.0,4926.0,0.871,0.227,-0.432,-0.046
1582577,5832.0,3242.0,4852.0,0.872,0.227,-0.432,-0.045
1582596,6136.0,3168.0,4668.0,0.872,0.226,-0.433,-0.043
1582615,6372.0,3584.0,4366.0,0.872,0.226,-0.433,-0.04
1582633,6532.0,3592.0,4116.0,0.872,0.226,-0.433,-0.036
1582651,6298.0,3408.0,4168.0,0.873,0.225,-0.432,-0.033
1582669,6168.0,3378.0,4114.0,0.873,0.225,-0.431,-0.03
1582687,6132.0,3576.0,4418.0,0.873,0.225,-0.431,-0.027
1582704,6006.0,3728.0,4664.0,0.873,0.225,-0.431,-0.024
1582721,5512.0,3846.0,4734.0,0.873,0.225,-0.433,-0.022
1582739,5860.0,3764.0,4412.0,0.872,0.225,-0.435,-0.019
1582757,6270.0,3146.0,3964.0,0.87,0.225,-0.438,-0.016
1582775,7024.0,3982.0,3708.0,0.87,0.225,-0.439,-0.013
1582793,7024.0,4382.0,3712.0,0.871,0.222,-0.439,-0.011
1582811,6918.0,3832.0,3754.0,0.872,0.219,-0.437,-0.01
1582829,6832.0,4042.0,3998.0,0.874,0.215,-0.435,-0.009
1582846,6446.0,4196.0,4412.0,0.877,0.211,-0.432,-0.008
1582864,6944.0,4600.0,3868.0,0.879,0.205,-0.43,-0.008
1582882,6780.0,3550.0,3926.0,0.883,0.197,-0.427,-0.009
1582890,6364.0,3072.0,4104.0,0.886,0.187,-0.424,-0.011
1582908,6294.0,3126.0,4276.0,0.89,0.178,-0.42,-0.015
1582926,5950.0,2706.0,4488.0,0.893,0.167,-0.416,-0.019
1582946,5726.0,2508.0,4838.0,0.897,0.156,-0.412,-0.025
1582965,5284.0,1552.0,5312.0,0.901,0.144,-0.409,-0.03
1582983,5320.0,1268.0,5548.0,0.903,0.133,-0.406,-0.035
1583002,5406.0,1122.0,5600.0,0.905,0.124,-0.404,-0.039
1583021,6086.0,1016.0,5430.0,0.907,0.117,-0.402,-0.042
1583039,6556.0,1086.0,5144.0,0.909,0.11,-0.399,-0.045
1583057,6618.0,344.0,5346.0,0.912,0.104,-0.395,-0.046
1583067,6218.0,404.0,5606.0,0.914,0.099,-0.39,-0.047
1583086,5778.0,944.0,6068.0,0.917,0.097,-0.384,-0.047
1583104,5198.0,1568.0,6068.0,0.92,0.096,-0.378,-0.047
1583123,4872.0,2194.0,6146.0,0.922,0.095,-0.373,-0.047
1583142,4732.0,1560.0,6266.0,0.923,0.093,-0.369,-0.046
1583160,4740.0,1308.0,6244.0,0.925,0.092,-0.366,-0.045
1583178,5018.0,1198.0,6082.0,0.926,0.092,-0.364,-0.044
1583196,5256.0,1402.0,6208.0,0.927,0.092,-0.361,-0.044
1583214,5382.0,1220.0,6430.0,0.928,0.091,-0.359,-0.043
1583222,5522.0,1436.0,6298.0,0.929,0.091,-0.356,-0.042
1583240,5588.0,2096.0,6382.0,0.93,0.091,-0.354,-0.041
1583260,5302.0,2328.0,6124.0,0.931,0.09,-0.352,-0.039
1583277,5342.0,1848.0,6054.0,0.932,0.089,-0.35,-0.037
1583297,5434.0,1492.0,5670.0,0.933,0.088,-0.348,-0.036
1583317,5618.0,1512.0,5516.0,0.933,0.087,-0.347,-0.034
1583335,6024.0,1884.0,5520.0,0.934,0.087,-0.345,-0.033
1583353,6346.0,2200.0,5944.0,0.935,0.084,-0.344,-0.032
1583372,5940.0,1808.0,6568.0,0.935,0.08,-0.343,-0.032
1583381,5732.0,1616.0,7024.0,0.936,0.076,-0.341,-0.033
1583398,5510.0,2230.0,7224.0,0.938,0.072,-0.338,-0.035
1583418,5476.0,1276.0,6470.0,0.939,0.067,-0.334,-0.038
1583436,5372.0,382.0,5586.0,0.941,0.062,-0.33,-0.041
1583454,4770.0,168.0,5598.0,0.943,0.059,-0.325,-0.044
1583472,4170.0,604.0,5832.0,0.945,0.056,-0.32,-0.046
1583490,3570.0,220.0,6452.0,0.946,0.054,-0.317,-0.046
1583510,3758.0,922.0,6734.0,0.946,0.055,-0.317,-0.045
1583527,4160.0,2200.0,6674.0,0.946,0.056,-0.318,-0.043
1583545,4394.0,1736.0,6980.0,0.945,0.055,-0.319,-0.041
1583563,4884.0,848.0,7124.0,0.945,0.053,-0.321,-0.04
1583580,5208.0,454.0,7348.0,0.944,0.052,-0.322,-0.039
1583597,5364.0,576.0,7372.0,0.944,0.052,-0.323,-0.039
1583616,5248.0,1160.0,7078.0,0.944,0.052,-0.322,-0.039
1583623,4998.0,1410.0,6980.0,0.945,0.051,-0.321,-0.04
1583640,4750.0,954.0,6740.0,0.946,0.05,-0.318,-0.04
1583657,4388.0,978.0,6758.0,0.947,0.05,-0.316,-0.041
1583674,4242.0,976.0,6698.0,0.947,0.051,-0.314,-0.041
1583691,4192.0,1636.0,6610.0,0.948,0.052,-0.313,-0.041
1583708,4164.0,1584.0,7008.0,0.948,0.053,-0.313,-0.041
1583725,4304.0,1350.0,6894.0,0.947,0.053,-0.314,-0.041
1583743,4760.0,1468.0,6718.0,0.947,0.054,-0.315,-0.041
1583762,5038.0,1502.0,6730.0,0.946,0.053,-0.316,-0.042
1583781,5166.0,1248.0,6698.0,0.946,0.051,-0.317,-0.042
1583800,5172.0,1594.0,6718.0,0.946,0.049,-0.318,-0.043
1583819,5062.0,1342.0,6658.0,0.946,0.046,-0.318,-0.044
1583837,4944.0,1470.0,6560.0,0.946,0.042,-0.317,-0.045
1583855,4714.0,972.0,6882.0,0.947,0.038,-0.317,-0.046
1583873,4504.0,484.0,6778.0,0.947,0.035,-0.316,-0.047
1583891,4974.0,644.0,6624.0,0.947,0.034,-0.317,-0.048
1583909,5360.0,1014.0,6466.0,0.947,0.032,-0.316,-0.05
1583928,5426.0,532.0,6396.0,0.947,0.03,-0.315,-0.052
1583946,5264.0,556.0,6464.0,0.948,0.029,-0.313,-0.054
1583965,5022.0,530.0,6570.0,0.948,0.028,-0.312,-0.056
1583984,5212.0,940.0,6616.0,0.949,0.026,-0.31,-0.057
1583992,5140.0,990.0,6602.0,0.949,0.024,-0.309,-0.059
1584011,5120.0,446.0,6784.0,0.949,0.023,-0.308,-0.06
1584029,5110.0,434.0,6786.0,0.95,0.022,-0.307,-0.06
1584047,4916.0,558.0,7352.0,0.949,0.022,-0.307,-0.06
1584065,4902.0,436.0,7174.0,0.949,0.024,-0.309,-0.06
1584083,5412.0,786.0,6648.0,0.948,0.027,-0.31,-0.059
1584101,5634.0,1078.0,6376.0,0.948,0.029,-0.311,-0.059
1584119,5372.0,674.0,6346.0,0.948,0.03,-0.311,-0.06
1584137,4934.0,688.0,6392.0,0.948,0.032,-0.311,-0.06
1584155,4592.0,638.0,6326.0,0.948,0.033,-0.311,-0.061
1584171,4772.0,298.0,5986.0,0.948,0.033,-0.31,-0.063
1584187,4720.0,682.0,6306.0,0.948,0.033,-0.309,-0.065
1584204,4628.0,360.0,6694.0,0.949,0.033,-0.307,-0.067
1584221,4658.0,616.0,6866.0,0.949,0.032,-0.305,-0.069
1584237,4624.0,584.0,7120.0,0.95,0.032,-0.303,-0.071
1584254,4426.0,986.0,7506.0,0.95,0.032,-0.301,-0.073
1584272,4076.0,1060.0,7248.0,0.951,0.032,-0.299,-0.074
1584290,4182.0,1156.0,7190.0,0.951,0.033,-0.298,-0.074
1584307,4646.0,2096.0,7202.0,0.951,0.033,-0.297,-0.075
1584325,5236.0,3642.0,6328.0,0.952,0.029,-0.295,-0.077
1584343,5200.0,3538.0,7090.0,0.953,0.019,-0.291,-0.079
1584363,4336.0,576.0,7780.0,0.954,0.009,-0.288,-0.08
1584383,4418.0,478.0,7630.0,0.955,0.003,-0.287,-0.081
1584403,4336.0,352.0,7046.0,0.955,-0.003,-0.286,-0.081
1584414,4424.0,-356.0,6668.0,0.955,-0.007,-0.286,-0.081
1584433,4664.0,426.0,6112.0,0.955,-0.009,-0.286,-0.083
1584452,4870.0,216.0,6040.0,0.955,-0.013,-0.285,-0.085
1584471,4528.0,-76.0,6390.0,0.955,-0.016,-0.284,-0.088
1584492,4304.0,-206.0,6792.0,0.955,-0.018,-0.281,-0.09
1584503,4352.0,-326.0,6946.0,0.956,-0.02,-0.279,-0.093
1584522,4388.0,-780.0,7408.0,0.956,-0.022,-0.275,-0.095
1584542,4236.0,-962.0,7542.0,0.957,-0.023,-0.272,-0.097
1584551,4414.0,-1266.0,7612.0,0.958,-0.023,-0.269,-0.099
1584570,4330.0,-484.0,7516.0,0.958,-0.022,-0.266,-0.1
1584588,4194.0,-644.0,7594.0,0.959,-0.021,-0.263,-0.101
1584606,3948.0,-754.0,7560.0,0.96,-0.019,-0.261,-0.1
1584624,4070.0,-504.0,7712.0,0.961,-0.016,-0.259,-0.1
1584642,3950.0,30.0,7538.0,0.961,-0.013,-0.258,-0.098
1584661,3826.0,342.0,7214.0,0.961,-0.009,-0.257,-0.097
1584679,3904.0,-60.0,7018.0,0.962,-0.005,-0.257,-0.095
1584698,4120.0,132.0,6898.0,0.962,-0.001,-0.257,-0.094
1584716,4386.0,892.0,6838.0,0.962,0.004,-0.257,-0.093
1584734,4320.0,1260.0,7152.0,0.962,0.007,-0.256,-0.092
1584753,4256.0,1070.0,8148.0,0.962,0.01,-0.256,-0.092
1584762,4362.0,562.0,8246.0,0.962,0.014,-0.256,-0.093
1584781,4470.0,1274.0,8030.0,0.962,0.02,-0.257,-0.094
1584799,4396.0,1294.0,7160.0,0.961,0.027,-0.257,-0.096
1584818,4162.0,1214.0,6312.0,0.961,0.033,-0.257,-0.098
1584835,4044.0,1188.0,6066.0,0.961,0.039,-0.256,-0.1
1584854,3800.0,1200.0,6266.0,0.96,0.043,-0.255,-0.102
1584871,3678.0,1214.0,6792.0,0.96,0.047,-0.255,-0.104
1584889,3604.0,1246.0,6984.0,0.96,0.05,-0.254,-0.106
1584907,3734.0,1248.0,6856.0,0.96,0.053,-0.254,-0.108
1584925,4042.0,1434.0,6690.0,0.959,0.054,-0.255,-0.109
1584942,4110.0,2330.0,6904.0,0.96,0.053,-0.254,-0.11
1584960,4214.0,1700.0,7614.0,0.96,0.05,-0.252,-0.111
1584978,4268.0,1554.0,8024.0,0.96,0.047,-0.25,-0.113
1584995,4148.0,1630.0,7826.0,0.961,0.045,-0.248,-0.114
1585013,3686.0,1552.0,7488.0,0.962,0.044,-0.246,-0.115
1585031,3338.0,1046.0,7202.0,0.962,0.044,-0.244,-0.115
1585049,3200.0,1372.0,6984.0,0.962,0.045,-0.243,-0.115
1585057,3396.0,1338.0,7210.0,0.962,0.046,-0.244,-0.115
1585074,3716.0,1016.0,7456.0,0.962,0.047,-0.244,-0.114
1585091,4374.0,1338.0,7808.0,0.962,0.048,-0.245,-0.114
1585108,4506.0,1220.0,7736.0,0.962,0.047,-0.244,-0.113
1585125,4332.0,962.0,7692.0,0.962,0.046,-0.243,-0.113
1585143,4024.0,1014.0,7466.0,0.963,0.045,-0.242,-0.113
1585161,3564.0,1054.0,7052.0,0.963,0.044,-0.241,-0.113
1585179,3410.0,1156.0,6994.0,0.963,0.043,-0.24,-0.113
1585197,3330.0,1002.0,6916.0,0.963,0.042,-0.239,-0.114
1585215,3460.0,1418.0,7046.0,0.963,0.041,-0.239,-0.114
1585233,3490.0,1278.0,7322.0,0.963,0.04,-0.239,-0.114
1585251,3558.0,1114.0,7556.0,0.963,0.04,-0.24,-0.115
1585268,3676.0,1038.0,7576.0,0.963,0.041,-0.241,-0.114
1585286,3632.0,942.0,7656.0,0.963,0.041,-0.242,-0.114
1585303,3720.0,818.0,7750.0,0.962,0.042,-0.245,-0.113
1585320,3858.0,974.0,7680.0,0.961,0.044,-0.247,-0.113
1585338,4142.0,1296.0,7590.0,0.961,0.045,-0.25,-0.112
1585357,4248.0,1050.0,7332.0,0.96,0.047,-0.253,-0.111
1585376,4336.0,1192.0,7100.0,0.959,0.048,-0.255,-0.111
1585396,4312.0,1082.0,6956.0,0.959,0.05,-0.256,-0.11
1585415,4080.0,1280.0,7080.0,0.959,0.053,-0.257,-0.11
1585434,4034.0,1280.0,7158.0,0.959,0.055,-0.258,-0.109
1585442,4188.0,1810.0,7254.0,0.958,0.058,-0.258,-0.108
1585460,4290.0,1564.0,7336.0,0.958,0.061,-0.258,-0.107
1585480,4356.0,1602.0,7438.0,0.958,0.064,-0.258,-0.107
1585499,4312.0,1670.0,7522.0,0.958,0.067,-0.258,-0.106
1585518,4154.0,1598.0,7538.0,0.958,0.07,-0.258,-0.105
1585537,4150.0,1810.0,7308.0,0.958,0.073,-0.258,-0.105
1585555,4006.0,1936.0,7020.0,0.958,0.075,-0.257,-0.105
1585574,3922.0,2100.0,6846.0,0.957,0.077,-0.258,-0.105
1585593,3962.0,2122.0,6716.0,0.957,0.078,-0.258,-0.105
1585602,3820.0,1752.0,6578.0,0.957,0.079,-0.258,-0.104
1585620,3786.0,1740.0,6558.0,0.957,0.079,-0.258,-0.104
1585638,3780.0,1844.0,6700.0,0.957,0.079,-0.259,-0.105
1585657,3818.0,2024.0,7022.0,0.957,0.078,-0.259,-0.105
1585675,3736.0,1802.0,7398.0,0.957,0.077,-0.259,-0.105
1585695,3786.0,1616.0,7528.0,0.957,0.075,-0.259,-0.105
1585715,3842.0,1398.0,7586.0,0.957,0.074,-0.259,-0.106
1585724,3822.0,1518.0,7398.0,0.957,0.073,-0.259,-0.106
1585744,3824.0,1742.0,7158.0,0.957,0.072,-0.259,-0.106
1585763,3752.0,1814.0,7056.0,0.957,0.071,-0.26,-0.107
1585783,3788.0,1656.0,7082.0,0.957,0.07,-0.26,-0.107
1585792,3928.0,1580.0,7156.0,0.957,0.069,-0.261,-0.107
1585812,4066.0,1572.0,7220.0,0.957,0.069,-0.262,-0.107
1585832,4146.0,1606.0,7278.0,0.956,0.069,-0.263,-0.107
1585851,4290.0,1496.0,7338.0,0.956,0.068,-0.264,-0.106
1585869,4368.0,1346.0,7322.0,0.956,0.069,-0.265,-0.105
1585887,4374.0,1474.0,7110.0,0.956,0.069,-0.266,-0.105
1585905,4364.0,1424.0,6976.0,0.955,0.07,-0.268,-0.104
1585925,4556.0,1600.0,6750.0,0.955,0.07,-0.269,-0.103
1585935,4882.0,1808.0,6666.0,0.955,0.071,-0.27,-0.102
1585955,4940.0,1864.0,6726.0,0.955,0.07,-0.269,-0.102
1585974,4636.0,1750.0,6946.0,0.955,0.07,-0.268,-0.102
1585994,4300.0,1846.0,7054.0,0.956,0.07,-0.267,-0.102
1586004,4024.0,1646.0,7168.0,0.956,0.07,-0.266,-0.101
1586023,3888.0,1444.0,7154.0,0.956,0.071,-0.265,-0.101
1586042,3890.0,1528.0,7076.0,0.956,0.071,-0.265,-0.1
1586063,3924.0,1498.0,7164.0,0.957,0.072,-0.264,-0.099
1586072,3942.0,1582.0,7274.0,0.957,0.073,-0.264,-0.099
1586092,3982.0,1754.0,7340.0,0.957,0.073,-0.264,-0.098
1586111,3884.0,1622.0,7284.0,0.957,0.073,-0.264,-0.098
1586131,3882.0,1420.0,7208.0,0.957,0.073,-0.265,-0.099
1586151,3810.0,1742.0,7200.0,0.956,0.073,-0.265,-0.099
1586161,3872.0,1724.0,7100.0,0.956,0.073,-0.266,-0.099
1586181,4014.0,1776.0,7064.0,0.956,0.074,-0.266,-0.099
1586200,4062.0,1756.0,7070.0,0.956,0.074,-0.267,-0.099
1586219,4114.0,1692.0,7118.0,0.956,0.073,-0.267,-0.099
1586239,4150.0,1556.0,7102.0,0.956,0.073,-0.267,-0.099
1586249,4264.0,1616.0,7094.0,0.956,0.073,-0.268,-0.099
1586267,4236.0,1730.0,7086.0,0.956,0.073,-0.268,-0.099
1586286,4320.0,1898.0,6962.0,0.956,0.074,-0.268,-0.099
1586305,4268.0,1816.0,7046.0,0.956,0.074,-0.267,-0.099
1586324,4062.0,1606.0,7202.0,0.956,0.074,-0.267,-0.099
1586343,4028.0,1776.0,7292.0,0.956,0.075,-0.267,-0.1
1586351,4090.0,1830.0,7188.0,0.956,0.077,-0.267,-0.1
1586370,4058.0,1926.0,7108.0,0.956,0.078,-0.266,-0.1
1586390,4196.0,1564.0,7028.0,0.956,0.079,-0.266,-0.099
1586408,4186.0,1762.0,7004.0,0.956,0.079,-0.266,-0.099
1586428,4102.0,1526.0,7038.0,0.956,0.08,-0.265,-0.099
1586447,4246.0,1618.0,6980.0,0.956,0.08,-0.264,-0.098
1586456,4182.0,1502.0,6918.0,0.956,0.08,-0.263,-0.097
1586473,4338.0,1572.0,6946.0,0.957,0.079,-0.263,-0.096
1586491,4296.0,1566.0,7136.0,0.957,0.079,-0.262,-0.095
1586512,4246.0,1552.0,7286.0,0.958,0.078,-0.261,-0.095
1586531,4236.0,1562.0,7356.0,0.958,0.077,-0.26,-0.094
1586551,4094.0,1542.0,7376.0,0.958,0.076,-0.26,-0.094
1586571,4092.0,1278.0,7248.0,0.958,0.076,-0.261,-0.094
1586582,4194.0,1270.0,7002.0,0.958,0.076,-0.261,-0.094
1586602,4108.0,1488.0,6916.0,0.957,0.077,-0.263,-0.093
1586622,4124.0,1726.0,6862.0,0.957,0.077,-0.264,-0.093
1586629,4150.0,1748.0,6868.0,0.957,0.077,-0.265,-0.092
1586646,4290.0,1704.0,6902.0,0.956,0.077,-0.267,-0.092
1586663,4276.0,1836.0,6888.0,0.956,0.078,-0.268,-0.093
1586682,4306.0,1876.0,6976.0,0.956,0.079,-0.268,-0.093
1586701,4308.0,1784.0,7100.0,0.956,0.08,-0.268,-0.094
1586721,4236.0,1636.0,7206.0,0.956,0.081,-0.267,-0.094
1586740,4206.0,1730.0,7168.0,0.955,0.083,-0.267,-0.094
1586757,4202.0,1862.0,7020.0,0.956,0.085,-0.266,-0.094
1586777,4260.0,2082.0,6874.0,0.956,0.087,-0.266,-0.093
1586798,4154.0,2132.0,6852.0,0.956,0.087,-0.264,-0.092
1586808,4170.0,2206.0,7008.0,0.956,0.087,-0.263,-0.092
1586827,3852.0,2014.0,7174.0,0.957,0.086,-0.262,-0.091
1586846,3720.0,1744.0,7366.0,0.957,0.086,-0.26,-0.091
1586866,3650.0,1664.0,7476.0,0.958,0.085,-0.259,-0.092
1586883,3558.0,1672.0,7540.0,0.958,0.086,-0.259,-0.092
1586904,3478.0,1536.0,7528.0,0.958,0.086,-0.259,-0.092
1586914,3618.0,1682.0,7382.0,0.958,0.087,-0.259,-0.092
1586933,3732.0,1738.0,7268.0,0.957,0.089,-0.259,-0.092
1586953,3776.0,1930.0,7188.0,0.957,0.09,-0.259,-0.092
1586973,3816.0,1912.0,7114.0,0.957,0.092,-0.259,-0.092
1586980,3884.0,1898.0,6990.0,0.957,0.093,-0.259,-0.091
1586999,3872.0,1794.0,6848.0,0.957,0.095,-0.258,-0.09
1587019,4004.0,2026.0,6786.0,0.957,0.097,-0.259,-0.089
1587040,4182.0,2140.0,6770.0,0.957,0.098,-0.259,-0.088
1587060,4302.0,2230.0,6768.0,0.957,0.1,-0.259,-0.086
1587069,4268.0,2274.0,6992.0,0.957,0.1,-0.259,-0.085
1587089,4316.0,2088.0,7066.0,0.957,0.1,-0.259,-0.084
1587106,4232.0,2066.0,7122.0,0.957,0.101,-0.26,-0.083
1587127,4148.0,2018.0,7160.0,0.957,0.101,-0.26,-0.083
1587148,4134.0,1966.0,7216.0,0.957,0.1,-0.261,-0.083
1587159,4062.0,1924.0,7172.0,0.956,0.1,-0.262,-0.083
1587180,4180.0,2348.0,6926.0,0.956,0.101,-0.264,-0.083
1587200,4128.0,2234.0,6932.0,0.955,0.1,-0.266,-0.083
1587209,4134.0,2008.0,6910.0,0.955,0.1,-0.268,-0.083
1587228,4064.0,1930.0,6888.0,0.954,0.1,-0.27,-0.084
1587248,4102.0,1902.0,6944.0,0.953,0.099,-0.271,-0.086
1587267,4188.0,1810.0,6996.0,0.953,0.099,-0.272,-0.087
1587286,4290.0,1832.0,6930.0,0.953,0.099,-0.273,-0.089
1587296,4278.0,2084.0,6948.0,0.953,0.098,-0.273,-0.09
1587313,4232.0,2016.0,6996.0,0.953,0.097,-0.273,-0.091
1587330,4098.0,1780.0,7088.0,0.953,0.096,-0.273,-0.091
1587348,4168.0,1892.0,7180.0,0.953,0.095,-0.273,-0.09
1587366,4086.0,1996.0,7190.0,0.953,0.094,-0.273,-0.089
1587383,4236.0,2052.0,7004.0,0.953,0.095,-0.273,-0.087
1587401,4132.0,2124.0,6942.0,0.953,0.095,-0.274,-0.084
1587423,3942.0,1962.0,7020.0,0.953,0.096,-0.276,-0.082
1587441,4028.0,1942.0,6868.0,0.952,0.096,-0.278,-0.08
1587460,4400.0,1822.0,6700.0,0.952,0.097,-0.279,-0.079
1587479,4578.0,1682.0,6776.0,0.952,0.096,-0.281,-0.079
1587490,4642.0,1766.0,6794.0,0.952,0.095,-0.281,-0.08
1587510,4440.0,1654.0,6972.0,0.952,0.094,-0.28,-0.081
1587528,4240.0,1576.0,7038.0,0.952,0.093,-0.279,-0.082
1587545,4122.0,1688.0,7076.0,0.952,0.093,-0.278,-0.082
1587563,4022.0,1792.0,7122.0,0.953,0.093,-0.278,-0.081
1587582,4022.0,1728.0,7318.0,0.953,0.095,-0.278,-0.08
1587602,4120.0,1782.0,7126.0,0.952,0.097,-0.279,-0.078
1587610,4436.0,2046.0,6888.0,0.952,0.101,-0.281,-0.076
1587629,4492.0,2566.0,6750.0,0.951,0.104,-0.282,-0.073
1587646,4412.0,1940.0,6560.0,0.95,0.106,-0.284,-0.071
1587664,4416.0,1862.0,6396.0,0.95,0.108,-0.285,-0.07
1587682,4860.0,2522.0,6260.0,0.949,0.11,-0.286,-0.07
1587700,5122.0,2820.0,6178.0,0.949,0.109,-0.286,-0.071
1587718,4996.0,2056.0,6558.0,0.95,0.107,-0.284,-0.073
1587736,4728.0,2078.0,6812.0,0.951,0.105,-0.282,-0.074
1587756,4438.0,2372.0,6898.0,0.951,0.104,-0.28,-0.076
1587774,4196.0,2228.0,6762.0,0.952,0.102,-0.277,-0.078
1587794,4004.0,1910.0,6806.0,0.953,0.101,-0.276,-0.079
1587805,4022.0,2032.0,6812.0,0.953,0.1,-0.274,-0.08
1587824,4040.0,2192.0,6982.0,0.953,0.099,-0.273,-0.081
1587842,3982.0,2160.0,7178.0,0.954,0.097,-0.273,-0.081
1587859,3992.0,1952.0,7258.0,0.954,0.096,-0.273,-0.082
1587879,4028.0,1790.0,7304.0,0.954,0.094,-0.273,-0.083
1587897,3948.0,1610.0,7144.0,0.954,0.093,-0.273,-0.084
1587916,4038.0,1706.0,6968.0,0.954,0.092,-0.274,-0.085
1587926,4118.0,1774.0,7014.0,0.953,0.092,-0.274,-0.086
1587945,4128.0,1690.0,7046.0,0.953,0.091,-0.275,-0.087
1587964,4160.0,1672.0,7100.0,0.953,0.09,-0.275,-0.089
1587984,4132.0,1396.0,7112.0,0.953,0.089,-0.274,-0.089
1588004,4074.0,1248.0,6956.0,0.953,0.089,-0.274,-0.09
1588014,4158.0,1486.0,6900.0,0.953,0.089,-0.274,-0.091
1588035,4240.0,1664.0,6840.0,0.954,0.089,-0.273,-0.092
1588055,4294.0,1658.0,6922.0,0.954,0.089,-0.272,-0.092
1588066,4280.0,1562.0,6984.0,0.954,0.089,-0.27,-0.093
1588086,4284.0,1652.0,7028.0,0.955,0.09,-0.268,-0.093
1588106,4196.0,1972.0,7092.0,0.955,0.091,-0.266,-0.093
1588126,4188.0,2190.0,7162.0,0.956,0.092,-0.264,-0.092
1588136,4412.0,2376.0,6848.0,0.956,0.093,-0.262,-0.092
1588156,4538.0,2372.0,6640.0,0.957,0.094,-0.258,-0.09
1588176,4458.0,2030.0,6776.0,0.958,0.094,-0.254,-0.089
1588195,4318.0,2002.0,6800.0,0.96,0.095,-0.25,-0.087
1588204,4258.0,1878.0,6816.0,0.961,0.095,-0.246,-0.085
1588221,4096.0,1940.0,7058.0,0.962,0.095,-0.242,-0.084
1588239,4082.0,2110.0,7122.0,0.963,0.095,-0.238,-0.083
1588257,4088.0,2148.0,7104.0,0.964,0.093,-0.235,-0.083
1588275,3782.0,1892.0,7328.0,0.965,0.091,-0.231,-0.084
1588293,3486.0,1606.0,7534.0,0.966,0.089,-0.227,-0.084
1588311,3174.0,1578.0,7786.0,0.967,0.088,-0.224,-0.085
1588330,2926.0,1524.0,7874.0,0.967,0.087,-0.222,-0.086
1588349,2716.0,1364.0,7928.0,0.968,0.086,-0.22,-0.087
1588367,2662.0,1280.0,7912.0,0.968,0.087,-0.22,-0.088
1588386,2650.0,1402.0,7886.0,0.968,0.088,-0.22,-0.089
1588403,2690.0,1432.0,7818.0,0.967,0.089,-0.221,-0.089
1588420,2852.0,1526.0,7640.0,0.967,0.091,-0.222,-0.09
1588438,3026.0,1620.0,7554.0,0.966,0.093,-0.224,-0.09
1588455,3216.0,1720.0,7548.0,0.965,0.094,-0.226,-0.09
1588472,3372.0,1716.0,7480.0,0.965,0.096,-0.228,-0.09
1588490,3628.0,1640.0,7330.0,0.964,0.098,-0.231,-0.09
1588506,3812.0,1716.0,7290.0,0.963,0.1,-0.234,-0.09
1588524,4030.0,1868.0,7202.0,0.962,0.103,-0.236,-0.089
1588541,4202.0,2152.0,7036.0,0.961,0.106,-0.239,-0.089
1588559,4258.0,2248.0,6872.0,0.96,0.108,-0.242,-0.089
1588577,4296.0,2408.0,6748.0,0.959,0.11,-0.244,-0.088
1588595,4442.0,2252.0,6676.0,0.959,0.111,-0.246,-0.088
1588612,4498.0,2460.0,6632.0,0.958,0.113,-0.248,-0.088
1588629,4558.0,2326.0,6652.0,0.958,0.113,-0.248,-0.088
1588647,4330.0,2374.0,6660.0,0.958,0.114,-0.248,-0.088
1588665,4062.0,2420.0,6966.0,0.958,0.114,-0.248,-0.088
1588683,3852.0,2438.0,7120.0,0.958,0.114,-0.247,-0.088
1588701,3660.0,2552.0,7160.0,0.958,0.113,-0.247,-0.088
1588719,3584.0,2242.0,7258.0,0.959,0.113,-0.246,-0.088
1588727,3484.0,2166.0,7312.0,0.959,0.113,-0.245,-0.088
1588745,3404.0,2228.0,7408.0,0.959,0.113,-0.244,-0.088
1588762,3222.0,2310.0,7374.0,0.959,0.114,-0.243,-0.088
1588780,3194.0,2246.0,7478.0,0.959,0.114,-0.242,-0.088
1588800,3164.0,2278.0,7510.0,0.96,0.114,-0.242,-0.088
1588818,3228.0,2298.0,7470.0,0.96,0.113,-0.242,-0.087
1588836,3362.0,2242.0,7290.0,0.96,0.113,-0.243,-0.087
1588853,3538.0,2228.0,7252.0,0.959,0.113,-0.243,-0.087
1588870,3702.0,2304.0,7140.0,0.959,0.112,-0.244,-0.087
1588887,3830.0,2310.0,7122.0,0.959,0.112,-0.245,-0.087
1588905,3880.0,2232.0,7074.0,0.959,0.11,-0.246,-0.087
1588923,4036.0,2178.0,7048.0,0.959,0.109,-0.247,-0.088
1588941,4090.0,2054.0,6966.0,0.959,0.108,-0.248,-0.088
1588959,4158.0,2046.0,7004.0,0.959,0.107,-0.248,-0.088
1588977,4136.0,1980.0,7016.0,0.959,0.105,-0.248,-0.089
1588995,4060.0,2098.0,7054.0,0.959,0.104,-0.248,-0.089
1589015,4004.0,1906.0,7084.0,0.959,0.103,-0.248,-0.09
1589036,3932.0,1836.0,7078.0,0.959,0.102,-0.248,-0.09
1589046,3924.0,1762.0,7050.0,0.959,0.102,-0.249,-0.091
1589065,3950.0,1846.0,7150.0,0.959,0.102,-0.249,-0.091
1589084,3940.0,1890.0,7180.0,0.959,0.102,-0.249,-0.091
1589104,3980.0,1872.0,7134.0,0.959,0.103,-0.249,-0.092
1589115,3946.0,1880.0,7088.0,0.959,0.103,-0.249,-0.092
1589134,3860.0,2028.0,7146.0,0.959,0.104,-0.249,-0.092
1589154,3816.0,1994.0,7258.0,0.959,0.104,-0.249,-0.092
1589172,3796.0,2016.0,7226.0,0.959,0.104,-0.249,-0.092
1589191,3784.0,2028.0,7214.0,0.959,0.105,-0.248,-0.091
1589202,3712.0,1986.0,7192.0,0.959,0.105,-0.249,-0.091
1589222,3836.0,2098.0,7168.0,0.959,0.105,-0.249,-0.091
1589239,3834.0,2034.0,7158.0,0.959,0.105,-0.249,-0.09
1589259,3828.0,1944.0,7122.0,0.959,0.105,-0.249,-0.09
1589276,3882.0,2134.0,7126.0,0.959,0.105,-0.249,-0.089
1589293,3858.0,2112.0,7178.0,0.959,0.106,-0.249,-0.089
1589311,3848.0,2156.0,7136.0,0.959,0.106,-0.249,-0.088
1589329,3906.0,2136.0,7150.0,0.959,0.107,-0.249,-0.088
1589348,3874.0,2186.0,7108.0,0.959,0.108,-0.249,-0.087
1589359,3874.0,2220.0,7186.0,0.958,0.108,-0.249,-0.088
1589378,3784.0,2276.0,7146.0,0.958,0.109,-0.249,-0.088
1589398,3714.0,2276.0,7160.0,0.958,0.11,-0.249,-0.088
1589417,3704.0,2318.0,7132.0,0.958,0.11,-0.249,-0.089
1589436,3734.0,2312.0,7112.0,0.958,0.111,-0.25,-0.09
1589445,3718.0,2320.0,7124.0,0.958,0.112,-0.25,-0.09
1589464,3794.0,2392.0,7126.0,0.958,0.112,-0.25,-0.091
1589483,3870.0,2174.0,7118.0,0.958,0.111,-0.25,-0.091
1589502,3868.0,2146.0,7122.0,0.958,0.11,-0.249,-0.092
1589521,3890.0,2202.0,7134.0,0.958,0.109,-0.249,-0.092
1589540,3848.0,2158.0,7190.0,0.958,0.108,-0.249,-0.092
1589560,3826.0,2082.0,7266.0,0.958,0.106,-0.249,-0.092
1589570,3754.0,2080.0,7330.0,0.958,0.106,-0.25,-0.092
1589589,3720.0,2012.0,7196.0,0.958,0.105,-0.251,-0.092
1589609,3794.0,1880.0,7060.0,0.957,0.104,-0.253,-0.093
1589629,4110.0,1920.0,6864.0,0.957,0.104,-0.254,-0.094
1589639,4170.0,1730.0,6924.0,0.956,0.104,-0.256,-0.095
1589658,4252.0,2094.0,6902.0,0.956,0.104,-0.257,-0.096
1589678,4142.0,1928.0,7002.0,0.956,0.103,-0.257,-0.098
1589695,4036.0,1820.0,7110.0,0.956,0.103,-0.257,-0.1
1589715,3920.0,1880.0,7116.0,0.955,0.103,-0.257,-0.101
1589725,3890.0,1952.0,7096.0,0.955,0.104,-0.258,-0.102
1589744,3992.0,1874.0,7074.0,0.955,0.105,-0.258,-0.103
1589762,4032.0,1858.0,7022.0,0.955,0.107,-0.258,-0.103
1589779,3950.0,2058.0,7044.0,0.954,0.109,-0.257,-0.104
1589797,4004.0,2232.0,7096.0,0.954,0.112,-0.257,-0.104
1589816,3874.0,2168.0,7102.0,0.954,0.114,-0.257,-0.104
1589835,3862.0,2162.0,7178.0,0.954,0.116,-0.257,-0.104
1589855,3808.0,2024.0,7236.0,0.954,0.119,-0.257,-0.104
1589865,3826.0,2128.0,7140.0,0.953,0.122,-0.256,-0.104
1589884,3850.0,2204.0,7042.0,0.953,0.124,-0.256,-0.104
1589904,3752.0,2290.0,7010.0,0.953,0.127,-0.256,-0.104
1589924,3780.0,2418.0,7080.0,0.952,0.13,-0.256,-0.104
1589944,3546.0,2570.0,6998.0,0.952,0.133,-0.256,-0.104
1589953,3528.0,2392.0,7076.0,0.952,0.135,-0.256,-0.104
1589970,3494.0,2598.0,7286.0,0.951,0.138,-0.257,-0.104
1589989,3394.0,2566.0,7280.0,0.95,0.14,-0.257,-0.104
1590007,3298.0,2450.0,7204.0,0.949,0.144,-0.259,-0.104
1590028,3322.0,2542.0,7014.0,0.948,0.147,-0.261,-0.104
1590048,3376.0,2588.0,6836.0,0.947,0.151,-0.263,-0.104
1590058,3466.0,2840.0,6784.0,0.945,0.156,-0.266,-0.104
1590078,3596.0,2842.0,6738.0,0.944,0.161,-0.269,-0.105
1590095,3710.0,2826.0,6654.0,0.942,0.166,-0.273,-0.106
1590114,3846.0,3184.0,6642.0,0.94,0.171,-0.276,-0.107
1590135,4150.0,3426.0,6650.0,0.938,0.175,-0.28,-0.108
1590149,4328.0,3636.0,6378.0,0.936,0.179,-0.283,-0.109
1590167,4458.0,3698.0,6114.0,0.934,0.181,-0.286,-0.111
1590186,4272.0,3276.0,6194.0,0.933,0.183,-0.288,-0.112
1590205,4226.0,3164.0,6308.0,0.933,0.185,-0.289,-0.113
1590216,4240.0,3232.0,6342.0,0.932,0.186,-0.29,-0.114
1590235,4134.0,3432.0,6458.0,0.931,0.189,-0.291,-0.115
1590256,4056.0,3404.0,6552.0,0.93,0.192,-0.292,-0.115
1590276,4136.0,3566.0,6494.0,0.929,0.196,-0.293,-0.114
1590287,4256.0,3820.0,6208.0,0.928,0.2,-0.294,-0.113
1590307,4426.0,3828.0,6078.0,0.927,0.203,-0.294,-0.111
1590327,4358.0,3458.0,6124.0,0.927,0.206,-0.293,-0.11
1590337,4168.0,3598.0,6250.0,0.927,0.209,-0.292,-0.109
1590356,4004.0,3802.0,6398.0,0.926,0.212,-0.292,-0.108
1590376,3962.0,3748.0,6420.0,0.926,0.216,-0.291,-0.107
1590396,3912.0,3802.0,6212.0,0.925,0.219,-0.291,-0.106
1590417,3958.0,3928.0,6080.0,0.925,0.223,-0.291,-0.104
1590428,4048.0,4134.0,6108.0,0.924,0.227,-0.291,-0.103
1590448,4032.0,4180.0,6040.0,0.923,0.23,-0.292,-0.102
1590467,4034.0,3882.0,5994.0,0.922,0.233,-0.292,-0.101
1590476,4064.0,3914.0,5786.0,0.921,0.237,-0.293,-0.099
1590495,4210.0,4030.0,5668.0,0.919,0.241,-0.295,-0.098
1590514,4204.0,4264.0,5750.0,0.918,0.245,-0.296,-0.097
1590533,4016.0,4546.0,5800.0,0.916,0.249,-0.298,-0.096
1590553,4178.0,4766.0,5820.0,0.914,0.254,-0.301,-0.094
1590574,4268.0,4902.0,5514.0,0.913,0.257,-0.303,-0.093
1590584,4412.0,4670.0,5242.0,0.911,0.26,-0.306,-0.092
1590604,4686.0,4638.0,5244.0,0.91,0.262,-0.309,-0.091
1590624,4692.0,4550.0,5262.0,0.908,0.264,-0.312,-0.09
1590635,4646.0,4416.0,5228.0,0.907,0.266,-0.314,-0.09
1590655,4646.0,4396.0,5080.0,0.906,0.267,-0.316,-0.09
1590675,4646.0,4440.0,5072.0,0.905,0.269,-0.317,-0.091
1590692,4634.0,4526.0,5154.0,0.904,0.271,-0.319,-0.092
1590710,4804.0,4788.0,5174.0,0.903,0.272,-0.32,-0.094
1590727,4836.0,4838.0,5296.0,0.902,0.274,-0.32,-0.096
1590744,4662.0,4636.0,5506.0,0.901,0.275,-0.32,-0.098
1590762,4570.0,4636.0,5560.0,0.9,0.276,-0.321,-0.1
1590779,4388.0,4484.0,5526.0,0.9,0.277,-0.321,-0.103
1590796,4584.0,4276.0,5378.0,0.899,0.278,-0.322,-0.106
1590813,4408.0,4602.0,5278.0,0.898,0.278,-0.324,-0.109
1590830,4342.0,4560.0,5436.0,0.897,0.278,-0.325,-0.114
1590847,3846.0,4054.0,5646.0,0.895,0.277,-0.328,-0.12
1590865,3484.0,4160.0,5764.0,0.893,0.276,-0.331,-0.126
1590882,3486.0,3328.0,5816.0,0.891,0.273,-0.337,-0.132
1590899,4292.0,3678.0,5718.0,0.888,0.272,-0.346,-0.136
1590916,5110.0,4684.0,5166.0,0.884,0.27,-0.356,-0.137
1590933,5620.0,5086.0,5096.0,0.881,0.266,-0.365,-0.137
1590951,5718.0,5002.0,5124.0,0.879,0.261,-0.374,-0.136
1590968,5690.0,4918.0,4740.0,0.878,0.256,-0.381,-0.135
1590985,5614.0,4696.0,4516.0,0.878,0.251,-0.386,-0.133
1591003,5244.0,4478.0,4484.0,0.877,0.246,-0.391,-0.13
1591020,4788.0,4674.0,4536.0,0.877,0.242,-0.395,-0.128
1591037,4484.0,4598.0,4884.0,0.877,0.238,-0.399,-0.125
1591054,4750.0,4758.0,4806.0,0.876,0.236,-0.403,-0.121
1591071,5072.0,4748.0,4890.0,0.875,0.233,-0.407,-0.118
1591089,5150.0,4304.0,4712.0,0.874,0.231,-0.411,-0.114
1591106,5166.0,4174.0,4688.0,0.874,0.229,-0.415,-0.11
1591123,5092.0,4246.0,4414.0,0.872,0.227,-0.419,-0.107
1591140,5224.0,3828.0,4136.0,0.871,0.225,-0.423,-0.105
1591157,5544.0,4530.0,3848.0,0.87,0.224,-0.428,-0.102
1591174,5854.0,4340.0,3704.0,0.869,0.22,-0.431,-0.1
1591191,6302.0,3856.0,3852.0,0.869,0.216,-0.434,-0.098
1591209,6476.0,3656.0,3766.0,0.869,0.213,-0.437,-0.095
1591227,6540.0,3492.0,3740.0,0.868,0.211,-0.439,-0.092
1591244,7054.0,4480.0,3632.0,0.868,0.211,-0.441,-0.088
1591261,6994.0,4812.0,3378.0,0.869,0.21,-0.44,-0.084
1591278,6674.0,4500.0,3368.0,0.87,0.209,-0.44,-0.079
1591295,6208.0,4268.0,3518.0,0.871,0.209,-0.438,-0.074
1591313,6368.0,4280.0,3698.0,0.872,0.209,-0.436,-0.069
1591330,6784.0,4350.0,3854.0,0.874,0.209,-0.434,-0.064
1591347,6578.0,4094.0,4234.0,0.876,0.208,-0.431,-0.058
1591364,6572.0,3994.0,4340.0,0.879,0.206,-0.427,-0.053
1591382,6088.0,4156.0,4460.0,0.882,0.203,-0.423,-0.048
1591399,5736.0,3734.0,4544.0,0.885,0.198,-0.418,-0.043
1591416,5496.0,3564.0,4706.0,0.889,0.193,-0.414,-0.038
1591433,5470.0,3328.0,5118.0,0.892,0.188,-0.41,-0.034
1591451,5628.0,3282.0,5368.0,0.895,0.182,-0.407,-0.031
1591468,5600.0,3412.0,5400.0,0.898,0.175,-0.403,-0.029
1591485,5526.0,3196.0,5628.0,0.9,0.168,-0.401,-0.028
1591502,5518.0,2970.0,5776.0,0.903,0.159,-0.398,-0.027
1591520,5418.0,2678.0,6152.0,0.906,0.148,-0.396,-0.026
1591537,5778.0,2552.0,6570.0,0.908,0.138,-0.395,-0.025
1591554,6012.0,2300.0,6332.0,0.909,0.127,-0.396,-0.025
1591572,6158.0,2046.0,5624.0,0.91,0.116,-0.396,-0.026
1591590,6446.0,1436.0,5530.0,0.912,0.106,-0.396,-0.027
1591607,6446.0,1070.0,5430.0,0.912,0.097,-0.396,-0.029
1591625,6520.0,1272.0,5390.0,0.913,0.09,-0.396,-0.031
1591641,6772.0,1364.0,5112.0,0.914,0.083,-0.396,-0.035
1591659,6992.0,1526.0,4882.0,0.915,0.077,-0.394,-0.038
1591677,6950.0,1480.0,4974.0,0.916,0.072,-0.392,-0.04
1591695,6500.0,1544.0,5282.0,0.918,0.067,-0.388,-0.042
1591712,5968.0,1582.0,5688.0,0.92,0.062,-0.385,-0.044
1591728,5548.0,1228.0,5838.0,0.921,0.058,-0.382,-0.046
1591745,4866.0,168.0,5512.0,0.922,0.052,-0.38,-0.05
1591762,3338.0,-2160.0,5676.0,0.922,0.048,-0.38,-0.056
1591779,4264.0,-1214.0,5838.0,0.92,0.055,-0.383,-0.062
1591796,4876.0,3564.0,5888.0,0.916,0.066,-0.389,-0.068
1591813,4578.0,4652.0,5530.0,0.913,0.07,-0.396,-0.071
1591830,4870.0,1820.0,6028.0,0.909,0.067,-0.404,-0.074
1591856,5834.0,538.0,6094.0,0.905,0.06,-0.413,-0.077
1591872,5806.0,-1150.0,4628.0,0.901,0.051,-0.423,-0.082
1591889,5548.0,-1344.0,3406.0,0.896,0.043,-0.432,-0.087
1591906,5146.0,-436.0,3228.0,0.892,0.034,-0.441,-0.094
1591923,5564.0,1404.0,3754.0,0.888,0.025,-0.448,-0.099
1591940,5214.0,2024.0,4182.0,0.885,0.012,-0.454,-0.103
1591956,5264.0,1526.0,4710.0,0.882,-0.003,-0.459,-0.107
1591973,5384.0,1042.0,4966.0,0.88,-0.019,-0.461,-0.112
1591990,5892.0,-1184.0,5064.0,0.878,-0.036,-0.462,-0.119
1592007,7062.0,116.0,5220.0,0.877,-0.05,-0.461,-0.128
1592024,7538.0,1568.0,5114.0,0.877,-0.062,-0.457,-0.137
1592041,6862.0,288.0,5584.0,0.878,-0.075,-0.449,-0.146
1592058,7472.0,-1292.0,6486.0,0.88,-0.085,-0.442,-0.155
1592075,7670.0,-2030.0,7128.0,0.881,-0.091,-0.434,-0.162
1592092,7714.0,-2666.0,7074.0,0.882,-0.095,-0.429,-0.169
1592109,7824.0,-2484.0,6304.0,0.883,-0.094,-0.425,-0.175
1592136,7612.0,-1478.0,5312.0,0.883,-0.092,-0.422,-0.181
1592153,7678.0,-1480.0,4616.0,0.884,-0.089,-0.42,-0.185
1592171,7164.0,-1596.0,4088.0,0.884,-0.084,-0.418,-0.189
1592188,6672.0,-1502.0,4184.0,0.885,-0.077,-0.417,-0.191
1592206,6480.0,-826.0,4284.0,0.886,-0.069,-0.415,-0.193
1592223,6268.0,-464.0,4502.0,0.888,-0.059,-0.414,-0.193
1592240,6116.0,-260.0,4942.0,0.889,-0.05,-0.412,-0.193
1592257,6038.0,68.0,5182.0,0.89,-0.04,-0.411,-0.193
1592274,6134.0,400.0,5412.0,0.891,-0.03,-0.41,-0.191
1592292,6042.0,636.0,5558.0,0.892,-0.02,-0.41,-0.189
1592311,6146.0,950.0,5574.0,0.893,-0.01,-0.409,-0.188
1592329,6128.0,1266.0,5400.0,0.893,-0.001,-0.409,-0.186
1592347,6108.0,1608.0,5464.0,0.894,0.007,-0.408,-0.184
1592364,6200.0,1792.0,5356.0,0.895,0.014,-0.408,-0.182
1592382,6196.0,1266.0,5376.0,0.895,0.02,-0.407,-0.18
1592401,5908.0,1790.0,5486.0,0.896,0.027,-0.406,-0.178
1592419,6092.0,1686.0,5408.0,0.896,0.032,-0.405,-0.176
1592438,6104.0,1878.0,5404.0,0.897,0.038,-0.404,-0.175
1592455,6158.0,1648.0,5552.0,0.898,0.042,-0.402,-0.174
1592473,6114.0,1686.0,5768.0,0.899,0.048,-0.4,-0.173
1592492,5954.0,2028.0,5584.0,0.899,0.053,-0.398,-0.172
1592511,6218.0,2204.0,5530.0,0.9,0.059,-0.396,-0.17
1592520,6296.0,2178.0,5380.0,0.901,0.066,-0.394,-0.168
1592537,6246.0,2450.0,4820.0,0.902,0.073,-0.392,-0.166
1592555,6196.0,2678.0,4762.0,0.903,0.08,-0.389,-0.163
1592573,5732.0,2908.0,5036.0,0.905,0.087,-0.384,-0.16
1592591,5584.0,2878.0,5434.0,0.907,0.093,-0.38,-0.157
1592609,5450.0,3182.0,5584.0,0.908,0.1,-0.377,-0.153
1592628,5518.0,3264.0,5742.0,0.909,0.105,-0.373,-0.15
1592647,5572.0,3348.0,5746.0,0.911,0.111,-0.37,-0.147
1592665,5342.0,3344.0,5652.0,0.912,0.116,-0.367,-0.144
1592683,5226.0,3478.0,5624.0,0.913,0.12,-0.364,-0.142
1592702,4690.0,3312.0,5834.0,0.914,0.125,-0.361,-0.14
1592720,4484.0,3272.0,5996.0,0.914,0.129,-0.359,-0.139
1592737,4532.0,3440.0,5842.0,0.914,0.133,-0.357,-0.138
1592754,4694.0,3316.0,5626.0,0.914,0.136,-0.356,-0.137
1592772,4886.0,3260.0,5794.0,0.915,0.139,-0.354,-0.136
1592790,4792.0,3866.0,6132.0,0.915,0.142,-0.353,-0.135
1592808,4464.0,3732.0,6248.0,0.916,0.144,-0.351,-0.134
1592817,4486.0,3590.0,6138.0,0.916,0.145,-0.349,-0.134
1592835,4510.0,3514.0,6156.0,0.916,0.146,-0.348,-0.134
1592853,4568.0,3382.0,6160.0,0.917,0.147,-0.346,-0.135
1592871,4660.0,3366.0,6252.0,0.917,0.148,-0.345,-0.136
1592888,4700.0,3538.0,6604.0,0.917,0.149,-0.343,-0.137
1592905,4716.0,3858.0,6714.0,0.917,0.15,-0.342,-0.138
1592922,4844.0,4020.0,6608.0,0.918,0.149,-0.341,-0.138
1592940,4788.0,3496.0,6236.0,0.918,0.148,-0.34,-0.139
1592958,4688.0,3022.0,5860.0,0.919,0.146,-0.34,-0.139
1592976,4550.0,2668.0,5636.0,0.919,0.143,-0.339,-0.139
1592994,4476.0,2270.0,5742.0,0.92,0.141,-0.338,-0.14
1593013,4700.0,2364.0,6114.0,0.92,0.14,-0.337,-0.139
1593031,4718.0,2894.0,6248.0,0.921,0.14,-0.337,-0.139
1593050,4794.0,2678.0,6334.0,0.921,0.139,-0.336,-0.138
1593068,4964.0,2762.0,6350.0,0.922,0.138,-0.335,-0.138
1593086,4802.0,2794.0,6348.0,0.922,0.136,-0.334,-0.139
1593104,4774.0,2836.0,6424.0,0.923,0.135,-0.332,-0.139
1593121,4638.0,2504.0,6864.0,0.924,0.133,-0.331,-0.138
1593139,4462.0,3168.0,7984.0,0.924,0.132,-0.331,-0.137
1593157,4050.0,4844.0,7746.0,0.924,0.132,-0.334,-0.134
1593175,4198.0,4708.0,6718.0,0.923,0.13,-0.337,-0.129
1593183,4368.0,3502.0,5940.0,0.923,0.128,-0.341,-0.123
1593201,4716.0,1372.0,5066.0,0.923,0.125,-0.345,-0.118
1593220,5730.0,2090.0,4692.0,0.922,0.123,-0.349,-0.115
1593238,5944.0,1820.0,4640.0,0.922,0.12,-0.351,-0.112
1593255,5994.0,1444.0,5098.0,0.922,0.119,-0.352,-0.111
1593273,5664.0,2936.0,5356.0,0.922,0.118,-0.352,-0.11
1593291,5324.0,1900.0,6114.0,0.923,0.116,-0.35,-0.109
1593309,5118.0,1592.0,6474.0,0.924,0.114,-0.349,-0.11
1593327,5070.0,1464.0,5978.0,0.923,0.114,-0.349,-0.11
1593345,5510.0,1916.0,5594.0,0.923,0.115,-0.35,-0.111
1593364,5382.0,1938.0,5616.0,0.923,0.116,-0.349,-0.112
1593381,5162.0,1780.0,6026.0,0.923,0.116,-0.349,-0.113
1593399,4668.0,1430.0,6364.0,0.923,0.117,-0.349,-0.114
1593417,4784.0,1526.0,6562.0,0.922,0.119,-0.349,-0.116
1593435,4968.0,1236.0,6632.0,0.921,0.122,-0.351,-0.117
1593452,5110.0,1862.0,6628.0,0.919,0.128,-0.354,-0.118
1593470,5286.0,2422.0,6190.0,0.916,0.135,-0.358,-0.118
1593487,5350.0,2778.0,5954.0,0.914,0.141,-0.362,-0.118
1593505,5250.0,2418.0,6100.0,0.912,0.148,-0.365,-0.119
1593522,5276.0,2184.0,6100.0,0.909,0.155,-0.369,-0.118
1593539,5200.0,2596.0,5830.0,0.906,0.164,-0.373,-0.117
1593557,5610.0,2760.0,5568.0,0.902,0.174,-0.377,-0.115
1593574,5098.0,3346.0,5086.0,0.899,0.184,-0.382,-0.114
1593591,5714.0,2678.0,5608.0,0.895,0.194,-0.387,-0.112
1593608,5880.0,1620.0,6266.0,0.889,0.208,-0.392,-0.109
1593625,4462.0,3814.0,4598.0,0.882,0.224,-0.4,-0.107
1593643,5792.0,6376.0,3286.0,0.875,0.237,-0.408,-0.106
1593661,5804.0,6956.0,2668.0,0.87,0.244,-0.415,-0.106
1593679,5490.0,6698.0,2726.0,0.868,0.243,-0.419,-0.109
1593697,5654.0,5788.0,3456.0,0.868,0.239,-0.421,-0.112
1593716,5722.0,5140.0,4332.0,0.869,0.232,-0.422,-0.117
1593735,5952.0,3312.0,4740.0,0.87,0.224,-0.423,-0.121
1593744,5852.0,3348.0,4900.0,0.87,0.219,-0.423,-0.124
1593761,5742.0,3194.0,4638.0,0.871,0.215,-0.424,-0.126
1593778,5752.0,4144.0,4272.0,0.871,0.212,-0.423,-0.129
1593795,5632.0,4756.0,3914.0,0.873,0.208,-0.422,-0.132
1593814,5256.0,4244.0,4078.0,0.875,0.202,-0.418,-0.136
1593832,5306.0,3414.0,4404.0,0.878,0.195,-0.414,-0.139
1593851,5360.0,2808.0,4222.0,0.882,0.188,-0.409,-0.143
1593870,5412.0,2676.0,4058.0,0.885,0.181,-0.402,-0.147
1593889,5626.0,2526.0,4518.0,0.89,0.174,-0.394,-0.151
1593907,5670.0,3394.0,5216.0,0.894,0.169,-0.384,-0.154
1593926,5230.0,3638.0,5686.0,0.899,0.164,-0.374,-0.158
1593945,4304.0,4030.0,6320.0,0.904,0.157,-0.363,-0.161
1593955,3334.0,4102.0,7624.0,0.909,0.148,-0.353,-0.165
1593973,3004.0,1746.0,8042.0,0.913,0.139,-0.346,-0.168
1593992,3542.0,1144.0,7468.0,0.914,0.135,-0.344,-0.168
1594011,4250.0,2956.0,6444.0,0.914,0.135,-0.343,-0.168
1594030,4588.0,3126.0,5588.0,0.915,0.134,-0.342,-0.168
1594048,4608.0,3524.0,5864.0,0.916,0.132,-0.34,-0.169
1594066,4348.0,2940.0,6242.0,0.917,0.129,-0.338,-0.168
1594085,4362.0,2512.0,6500.0,0.918,0.127,-0.335,-0.167
1594093,4322.0,3038.0,6922.0,0.92,0.126,-0.333,-0.166
1594110,4522.0,2892.0,7230.0,0.92,0.125,-0.332,-0.164
1594128,4262.0,2222.0,7096.0,0.921,0.126,-0.332,-0.162
1594146,4524.0,2550.0,6274.0,0.92,0.129,-0.333,-0.16
1594165,4886.0,3812.0,6496.0,0.92,0.132,-0.334,-0.158
1594183,4758.0,2608.0,6226.0,0.919,0.133,-0.336,-0.156
1594200,4828.0,2704.0,6228.0,0.918,0.136,-0.339,-0.154
1594218,5130.0,2772.0,5884.0,0.917,0.139,-0.342,-0.153
1594235,5052.0,2956.0,5720.0,0.915,0.142,-0.345,-0.152
1594253,5242.0,3232.0,5810.0,0.914,0.145,-0.348,-0.151
1594271,5468.0,3262.0,5774.0,0.912,0.146,-0.351,-0.15
1594288,5448.0,3336.0,5934.0,0.911,0.146,-0.354,-0.15
1594306,5538.0,2856.0,5764.0,0.91,0.147,-0.357,-0.15
1594325,5708.0,2878.0,5572.0,0.909,0.148,-0.359,-0.15
1594343,5382.0,2864.0,5610.0,0.908,0.149,-0.361,-0.15
1594362,5394.0,2802.0,5592.0,0.907,0.151,-0.363,-0.15
1594381,5418.0,2692.0,5628.0,0.906,0.153,-0.364,-0.149
1594390,5082.0,2958.0,5786.0,0.906,0.156,-0.366,-0.148
1594409,5152.0,3044.0,5792.0,0.904,0.159,-0.368,-0.147
1594428,5256.0,2996.0,5560.0,0.903,0.162,-0.37,-0.145
1594446,5382.0,3198.0,5422.0,0.902,0.165,-0.372,-0.143
1594464,4790.0,3424.0,5712.0,0.901,0.169,-0.373,-0.142
1594483,4926.0,3792.0,5746.0,0.9,0.172,-0.376,-0.14
1594502,5386.0,3794.0,5040.0,0.898,0.174,-0.379,-0.138
1594520,6010.0,3894.0,4534.0,0.898,0.175,-0.381,-0.136
1594538,6162.0,3820.0,4470.0,0.898,0.173,-0.381,-0.136
1594546,6340.0,4124.0,4576.0,0.899,0.17,-0.379,-0.137
1594565,5722.0,4028.0,5074.0,0.901,0.166,-0.376,-0.138
1594584,5314.0,3686.0,5324.0,0.903,0.162,-0.374,-0.14
1594602,5646.0,3776.0,5250.0,0.904,0.157,-0.371,-0.142
1594620,5246.0,3218.0,5548.0,0.906,0.153,-0.368,-0.144
1594639,4976.0,3072.0,5750.0,0.907,0.151,-0.366,-0.146
1594657,4954.0,3198.0,5730.0,0.907,0.149,-0.364,-0.148
1594676,5294.0,3024.0,5732.0,0.908,0.147,-0.363,-0.149
1594693,5158.0,3260.0,5816.0,0.909,0.147,-0.361,-0.15
1594710,4428.0,3340.0,6142.0,0.909,0.146,-0.359,-0.151
1594728,4652.0,3112.0,5980.0,0.91,0.146,-0.358,-0.151
1594747,4890.0,3002.0,5938.0,0.91,0.146,-0.356,-0.151
1594765,4648.0,2856.0,6078.0,0.911,0.146,-0.355,-0.151
1594783,4724.0,2972.0,6090.0,0.911,0.146,-0.355,-0.151
1594792,4682.0,3030.0,6174.0,0.911,0.146,-0.354,-0.15
1594811,4856.0,2784.0,6160.0,0.911,0.147,-0.354,-0.149
1594830,4626.0,2734.0,6232.0,0.911,0.148,-0.354,-0.148
1594849,5076.0,2730.0,5956.0,0.911,0.15,-0.355,-0.147
1594867,5244.0,2784.0,5830.0,0.911,0.152,-0.355,-0.145
1594886,5150.0,3098.0,5924.0,0.911,0.153,-0.355,-0.144
1594904,5248.0,3678.0,5978.0,0.911,0.153,-0.355,-0.143
1594922,5422.0,2980.0,5710.0,0.912,0.152,-0.354,-0.143
1594940,5782.0,3370.0,5670.0,0.912,0.151,-0.353,-0.141
1594949,5300.0,3252.0,5520.0,0.913,0.151,-0.352,-0.138
1594967,5372.0,3084.0,5154.0,0.915,0.15,-0.351,-0.134
1594985,5160.0,2742.0,5268.0,0.916,0.149,-0.349,-0.129
1595004,5012.0,2764.0,5938.0,0.918,0.148,-0.347,-0.125
1595021,4938.0,2238.0,6338.0,0.919,0.147,-0.346,-0.121
1595039,5012.0,3118.0,6560.0,0.919,0.148,-0.345,-0.117
1595057,5208.0,3048.0,6384.0,0.92,0.148,-0.345,-0.115
1595075,4940.0,2572.0,6078.0,0.92,0.148,-0.344,-0.113
1595094,4766.0,2602.0,5802.0,0.921,0.148,-0.343,-0.113
1595113,4172.0,2796.0,5884.0,0.921,0.148,-0.342,-0.114
1595132,4166.0,2560.0,6214.0,0.921,0.147,-0.341,-0.115
1595151,4482.0,2358.0,6262.0,0.921,0.147,-0.341,-0.116
1595160,4732.0,2588.0,6242.0,0.921,0.148,-0.34,-0.117
1595179,4730.0,3392.0,6220.0,0.921,0.15,-0.34,-0.117
1595197,4708.0,3528.0,6412.0,0.921,0.151,-0.339,-0.116
1595216,4808.0,3388.0,6368.0,0.922,0.151,-0.337,-0.115
1595235,4680.0,2764.0,6338.0,0.923,0.151,-0.336,-0.113
1595254,4494.0,2906.0,6290.0,0.923,0.151,-0.336,-0.111
1595272,4578.0,3386.0,5970.0,0.923,0.151,-0.336,-0.109
1595281,4906.0,3432.0,5834.0,0.923,0.151,-0.336,-0.107
1595300,4932.0,3692.0,5704.0,0.923,0.151,-0.337,-0.107
1595320,4930.0,3956.0,5720.0,0.923,0.149,-0.338,-0.108
1595338,4612.0,3708.0,6164.0,0.923,0.148,-0.339,-0.11
1595356,4528.0,3676.0,6314.0,0.922,0.147,-0.341,-0.112
1595376,4590.0,4534.0,5920.0,0.92,0.149,-0.344,-0.115
1595394,5126.0,5164.0,5584.0,0.918,0.148,-0.347,-0.12
1595413,5386.0,4396.0,5468.0,0.918,0.145,-0.348,-0.124
1595423,5382.0,3182.0,5552.0,0.918,0.14,-0.347,-0.129
1595441,5166.0,2298.0,5766.0,0.919,0.135,-0.346,-0.134
1595459,5216.0,2012.0,5926.0,0.92,0.13,-0.344,-0.138
1595478,5132.0,1964.0,5854.0,0.92,0.125,-0.343,-0.141
1595496,4796.0,2114.0,5934.0,0.921,0.118,-0.341,-0.144
1595515,4966.0,2080.0,6166.0,0.923,0.112,-0.339,-0.146
1595533,4862.0,1986.0,6316.0,0.924,0.104,-0.337,-0.149
1595552,4876.0,1998.0,6352.0,0.925,0.097,-0.336,-0.151
1595562,4962.0,2404.0,6530.0,0.925,0.091,-0.335,-0.153
1595579,5102.0,2338.0,6630.0,0.926,0.085,-0.333,-0.155
1595598,4948.0,1764.0,6606.0,0.927,0.079,-0.332,-0.157
1595617,4624.0,1224.0,6488.0,0.927,0.076,-0.332,-0.159
1595635,4748.0,1202.0,6238.0,0.927,0.074,-0.332,-0.161
1595653,4900.0,1216.0,6202.0,0.926,0.074,-0.332,-0.163
1595670,5020.0,1294.0,6366.0,0.926,0.075,-0.333,-0.163
1595687,5214.0,1438.0,6450.0,0.925,0.077,-0.334,-0.164
1595704,5330.0,1816.0,6390.0,0.925,0.08,-0.335,-0.164
1595721,5218.0,1822.0,6358.0,0.924,0.082,-0.335,-0.164
1595738,5122.0,1644.0,6360.0,0.924,0.084,-0.334,-0.164
1595755,5082.0,1560.0,6254.0,0.924,0.087,-0.334,-0.163
1595773,5152.0,2022.0,6216.0,0.924,0.089,-0.333,-0.162
1595791,5080.0,2176.0,6326.0,0.925,0.091,-0.332,-0.161
1595809,4844.0,1818.0,6408.0,0.925,0.092,-0.331,-0.16
1595827,4836.0,1896.0,6574.0,0.925,0.094,-0.331,-0.159
1595846,4930.0,2272.0,6660.0,0.926,0.096,-0.33,-0.158
1595864,4960.0,2186.0,6606.0,0.926,0.098,-0.33,-0.156
1595882,4748.0,2284.0,6796.0,0.926,0.1,-0.331,-0.155
1595901,4398.0,2514.0,6674.0,0.925,0.102,-0.332,-0.152
1595919,4614.0,2502.0,6770.0,0.925,0.104,-0.334,-0.15
1595928,4634.0,2148.0,6216.0,0.924,0.107,-0.337,-0.146
1595946,5004.0,2132.0,5880.0,0.923,0.109,-0.34,-0.143
1595965,5230.0,2354.0,5620.0,0.922,0.111,-0.343,-0.14
1595984,5164.0,2488.0,5742.0,0.922,0.113,-0.344,-0.137
1596002,5078.0,2336.0,6022.0,0.922,0.114,-0.345,-0.134
1596020,5208.0,2520.0,6124.0,0.922,0.116,-0.346,-0.131
1596039,5350.0,2684.0,5954.0,0.922,0.118,-0.347,-0.128
1596057,5212.0,2662.0,5916.0,0.922,0.121,-0.347,-0.126
1596075,5164.0,2736.0,5968.0,0.921,0.124,-0.346,-0.125
1596093,5136.0,2880.0,5818.0,0.921,0.127,-0.346,-0.123
1596112,5338.0,2994.0,5740.0,0.921,0.131,-0.345,-0.122
1596122,5156.0,3296.0,5708.0,0.921,0.134,-0.344,-0.122
1596140,5012.0,3342.0,5880.0,0.921,0.137,-0.343,-0.121
1596157,4884.0,3420.0,6054.0,0.922,0.139,-0.342,-0.12
1596174,4610.0,3110.0,6104.0,0.922,0.141,-0.341,-0.12
1596191,4678.0,3112.0,6182.0,0.922,0.142,-0.341,-0.119
1596208,4532.0,3232.0,6374.0,0.921,0.144,-0.342,-0.119
1596226,4384.0,3226.0,6460.0,0.92,0.145,-0.343,-0.119
1596244,4526.0,3608.0,6680.0,0.919,0.145,-0.346,-0.119
1596262,4350.0,3688.0,7088.0,0.918,0.145,-0.349,-0.12
1596282,4198.0,3052.0,6638.0,0.916,0.142,-0.353,-0.123
1596300,4364.0,2810.0,5932.0,0.914,0.14,-0.358,-0.126
1596319,5194.0,2802.0,5362.0,0.913,0.138,-0.363,-0.129
1596338,5510.0,2548.0,5086.0,0.911,0.136,-0.366,-0.131
1596347,5524.0,2494.0,4946.0,0.91,0.135,-0.369,-0.133
1596365,5444.0,2316.0,5028.0,0.909,0.135,-0.37,-0.135
1596383,5330.0,2266.0,5080.0,0.909,0.136,-0.371,-0.136
1596401,5606.0,2378.0,5484.0,0.908,0.138,-0.371,-0.136
1596419,5752.0,2782.0,5786.0,0.908,0.141,-0.37,-0.136
1596438,5792.0,3508.0,5888.0,0.908,0.143,-0.37,-0.135
1596456,5484.0,3522.0,5944.0,0.908,0.145,-0.369,-0.134
1596475,5312.0,3182.0,5768.0,0.908,0.147,-0.368,-0.133
1596494,5340.0,2978.0,5494.0,0.908,0.148,-0.368,-0.132
1596514,5504.0,3098.0,5290.0,0.908,0.15,-0.368,-0.13
1596523,5548.0,3064.0,5348.0,0.908,0.151,-0.368,-0.129
1596541,5670.0,3166.0,5418.0,0.909,0.152,-0.368,-0.127
1596560,5466.0,2888.0,5496.0,0.909,0.152,-0.367,-0.126
1596578,5450.0,2952.0,5600.0,0.909,0.154,-0.366,-0.125
1596597,5320.0,3074.0,5662.0,0.91,0.155,-0.364,-0.124
1596616,5150.0,3216.0,5732.0,0.91,0.156,-0.363,-0.124
1596634,5028.0,3182.0,5876.0,0.911,0.157,-0.361,-0.123
1596652,5032.0,3080.0,5880.0,0.911,0.157,-0.36,-0.123
1596671,4768.0,3152.0,5976.0,0.912,0.158,-0.359,-0.122
1596680,4776.0,3406.0,5988.0,0.912,0.159,-0.358,-0.122
1596699,4712.0,3354.0,6090.0,0.912,0.158,-0.358,-0.121
1596718,4778.0,2926.0,6104.0,0.912,0.158,-0.359,-0.121
1596737,4774.0,3170.0,5932.0,0.912,0.157,-0.359,-0.12
1596755,5106.0,3122.0,5822.0,0.912,0.157,-0.36,-0.12
1596774,5188.0,3046.0,5676.0,0.911,0.157,-0.361,-0.12
1596794,5114.0,2892.0,5648.0,0.911,0.157,-0.362,-0.12
1596803,5064.0,3110.0,5734.0,0.911,0.157,-0.362,-0.12
1596821,5118.0,3090.0,5680.0,0.911,0.157,-0.362,-0.12
1596839,5240.0,3014.0,5582.0,0.911,0.158,-0.363,-0.12
1596857,5376.0,3236.0,5604.0,0.91,0.158,-0.363,-0.12
1596876,5340.0,3186.0,5648.0,0.91,0.159,-0.363,-0.12
1596893,5182.0,3158.0,5692.0,0.91,0.159,-0.363,-0.12
1596911,5258.0,3224.0,5736.0,0.91,0.159,-0.362,-0.12
1596930,5356.0,3284.0,5582.0,0.91,0.159,-0.362,-0.121
1596949,5252.0,3034.0,5624.0,0.911,0.159,-0.362,-0.121
1596967,5044.0,3034.0,5654.0,0.911,0.159,-0.361,-0.121
1596984,5144.0,3018.0,5768.0,0.911,0.159,-0.361,-0.122
1597001,5278.0,3130.0,5664.0,0.911,0.159,-0.36,-0.122
1597018,5240.0,3044.0,5668.0,0.911,0.159,-0.36,-0.122
1597035,5216.0,2986.0,5742.0,0.912,0.159,-0.359,-0.122
1597053,5158.0,3184.0,5712.0,0.912,0.159,-0.358,-0.122
1597071,5056.0,3126.0,5752.0,0.912,0.159,-0.357,-0.122
1597089,4836.0,2962.0,5838.0,0.912,0.159,-0.357,-0.122
1597108,5018.0,3146.0,5824.0,0.912,0.16,-0.356,-0.122
1597117,4996.0,3098.0,5908.0,0.912,0.16,-0.356,-0.122
1597135,5068.0,3096.0,5790.0,0.912,0.161,-0.356,-0.122
1597152,5156.0,3088.0,5680.0,0.912,0.161,-0.356,-0.122
1597170,5072.0,3048.0,5708.0,0.913,0.162,-0.355,-0.121
1597187,4980.0,3128.0,5784.0,0.913,0.163,-0.355,-0.121
1597205,4932.0,3242.0,5862.0,0.913,0.163,-0.354,-0.121
1597223,4922.0,3142.0,5788.0,0.913,0.164,-0.354,-0.121
1597241,4882.0,3300.0,5812.0,0.912,0.165,-0.354,-0.121
1597259,5064.0,3236.0,5774.0,0.912,0.166,-0.354,-0.121
1597278,5048.0,3398.0,5728.0,0.912,0.166,-0.355,-0.122
1597297,5130.0,3418.0,5838.0,0.912,0.166,-0.354,-0.122
1597315,5142.0,3266.0,5960.0,0.912,0.166,-0.354,-0.123
1597334,5090.0,3330.0,5912.0,0.912,0.165,-0.354,-0.123
1597353,5116.0,3276.0,5758.0,0.912,0.165,-0.354,-0.124
1597361,5012.0,3016.0,5754.0,0.912,0.165,-0.354,-0.125
1597379,5040.0,3172.0,5784.0,0.912,0.165,-0.354,-0.125
1597398,4990.0,3252.0,5778.0,0.912,0.165,-0.354,-0.126
1597416,5014.0,3170.0,5694.0,0.912,0.165,-0.353,-0.126
1597435,4774.0,3002.0,5772.0,0.913,0.165,-0.353,-0.125
1597453,4842.0,3012.0,5834.0,0.913,0.165,-0.353,-0.125
1597471,4992.0,3370.0,5844.0,0.913,0.166,-0.352,-0.125
1597490,4978.0,3428.0,5832.0,0.913,0.166,-0.352,-0.125
1597508,4958.0,3276.0,5774.0,0.913,0.167,-0.352,-0.124
1597525,5020.0,3202.0,5684.0,0.912,0.167,-0.352,-0.124
1597543,4892.0,3336.0,5824.0,0.912,0.168,-0.352,-0.124
1597562,5166.0,3430.0,5720.0,0.912,0.169,-0.352,-0.123
1597571,5376.0,3320.0,5552.0,0.913,0.169,-0.351,-0.123
1597589,5400.0,3132.0,5552.0,0.913,0.17,-0.35,-0.122
1597607,5248.0,2866.0,5514.0,0.914,0.17,-0.349,-0.122
1597626,4852.0,3192.0,5732.0,0.914,0.17,-0.347,-0.121
1597645,4802.0,3538.0,5894.0,0.915,0.171,-0.345,-0.121
1597664,4898.0,3554.0,5970.0,0.915,0.171,-0.344,-0.121
1597682,4990.0,3328.0,5972.0,0.915,0.171,-0.343,-0.122
1597701,4940.0,3052.0,5960.0,0.916,0.171,-0.342,-0.122
1597719,4830.0,3166.0,6116.0,0.916,0.171,-0.342,-0.123
1597728,4876.0,3384.0,6118.0,0.916,0.172,-0.341,-0.124
1597745,4864.0,3312.0,5900.0,0.916,0.172,-0.34,-0.124
1597764,4590.0,3156.0,5842.0,0.916,0.173,-0.339,-0.125
1597783,4400.0,3034.0,5802.0,0.916,0.174,-0.338,-0.126
1597802,4316.0,3368.0,5854.0,0.916,0.175,-0.338,-0.126
1597819,4662.0,3706.0,5992.0,0.916,0.175,-0.337,-0.127
1597836,5020.0,3148.0,5890.0,0.917,0.175,-0.336,-0.127
1597855,4716.0,2606.0,5928.0,0.917,0.175,-0.335,-0.127
1597873,4750.0,3022.0,5984.0,0.918,0.175,-0.334,-0.126
1597891,4620.0,3330.0,5898.0,0.918,0.176,-0.333,-0.125
1597909,4586.0,3812.0,5976.0,0.918,0.177,-0.332,-0.124
1597927,4572.0,3976.0,6168.0,0.918,0.177,-0.332,-0.123
1597945,4494.0,3774.0,6270.0,0.918,0.178,-0.332,-0.123
1597963,4746.0,3846.0,5856.0,0.918,0.179,-0.332,-0.124
1597982,4830.0,3810.0,5588.0,0.917,0.179,-0.333,-0.124
1597992,4866.0,3542.0,5556.0,0.918,0.179,-0.332,-0.125
1598009,4562.0,3256.0,5712.0,0.918,0.179,-0.332,-0.126
1598027,4754.0,3228.0,6072.0,0.918,0.178,-0.331,-0.126
1598046,4836.0,3472.0,6146.0,0.918,0.177,-0.331,-0.126
1598065,4776.0,3476.0,6386.0,0.919,0.177,-0.33,-0.125
1598084,4548.0,3448.0,6302.0,0.919,0.176,-0.329,-0.125
1598102,4722.0,3574.0,6122.0,0.92,0.174,-0.329,-0.125
1598121,4808.0,3638.0,5964.0,0.92,0.173,-0.329,-0.124
1598129,4730.0,3416.0,5968.0,0.92,0.171,-0.329,-0.124
1598147,4716.0,3226.0,6030.0,0.921,0.17,-0.329,-0.124
1598165,4498.0,3170.0,6188.0,0.921,0.168,-0.329,-0.124
1598184,4630.0,3158.0,5994.0,0.92,0.167,-0.331,-0.124
1598203,4720.0,3104.0,5796.0,0.92,0.167,-0.332,-0.123
1598221,4848.0,3012.0,5618.0,0.92,0.166,-0.334,-0.123
1598238,4892.0,3160.0,5770.0,0.919,0.165,-0.336,-0.123
1598256,4806.0,3358.0,6014.0,0.918,0.165,-0.338,-0.123
1598275,4782.0,3568.0,6090.0,0.918,0.165,-0.34,-0.124
1598293,4786.0,3454.0,6168.0,0.917,0.164,-0.341,-0.125
1598312,4610.0,3206.0,6268.0,0.917,0.164,-0.343,-0.126
1598330,4636.0,2972.0,6276.0,0.916,0.163,-0.344,-0.127
1598348,4676.0,3030.0,6118.0,0.916,0.162,-0.345,-0.127
1598357,4740.0,2858.0,6112.0,0.915,0.162,-0.347,-0.127
1598375,4684.0,2980.0,6166.0,0.915,0.162,-0.348,-0.127
1598393,4536.0,3164.0,6004.0,0.914,0.162,-0.35,-0.127
1598412,4790.0,3300.0,5756.0,0.913,0.163,-0.351,-0.126
1598429,5150.0,3252.0,5574.0,0.913,0.163,-0.353,-0.125
1598445,5042.0,3342.0,5758.0,0.912,0.163,-0.355,-0.125
1598462,5000.0,3190.0,5876.0,0.911,0.163,-0.357,-0.124
1598479,5214.0,3390.0,5698.0,0.911,0.164,-0.359,-0.123
1598497,5312.0,3140.0,5494.0,0.91,0.164,-0.361,-0.122
1598516,5564.0,3032.0,5260.0,0.909,0.164,-0.363,-0.121
1598535,5546.0,3304.0,5284.0,0.909,0.164,-0.364,-0.12
1598553,5592.0,3190.0,5316.0,0.909,0.163,-0.364,-0.12
1598571,5724.0,3200.0,5242.0,0.909,0.163,-0.364,-0.12
1598589,5490.0,3280.0,5204.0,0.909,0.163,-0.364,-0.12
1598607,5252.0,3112.0,5328.0,0.91,0.162,-0.363,-0.12
1598626,5062.0,3418.0,5632.0,0.91,0.162,-0.363,-0.12
1598645,5088.0,3522.0,5902.0,0.91,0.16,-0.363,-0.119
1598655,5148.0,2958.0,5782.0,0.911,0.159,-0.362,-0.119
1598673,5456.0,2542.0,5566.0,0.911,0.158,-0.362,-0.119
1598692,5558.0,2828.0,5388.0,0.911,0.158,-0.361,-0.119
1598711,5138.0,3026.0,5904.0,0.912,0.158,-0.359,-0.12
1598730,4836.0,3712.0,6070.0,0.913,0.157,-0.357,-0.12
1598748,5318.0,3546.0,5706.0,0.914,0.156,-0.355,-0.121
1598767,5492.0,2884.0,5282.0,0.915,0.154,-0.352,-0.121
1598785,5058.0,2698.0,5506.0,0.917,0.152,-0.349,-0.123
1598793,4768.0,2998.0,6058.0,0.918,0.15,-0.346,-0.125
1598811,4540.0,2964.0,6590.0,0.918,0.148,-0.344,-0.126
1598830,5162.0,2672.0,6058.0,0.919,0.148,-0.343,-0.127
1598848,5596.0,2526.0,5636.0,0.919,0.148,-0.342,-0.128
1598867,5342.0,3284.0,5770.0,0.92,0.148,-0.34,-0.129
1598886,4766.0,3616.0,6032.0,0.921,0.146,-0.337,-0.13
1598904,4942.0,2872.0,6094.0,0.922,0.144,-0.335,-0.131
1598921,4626.0,2566.0,5982.0,0.923,0.142,-0.333,-0.131
1598938,4792.0,2830.0,6016.0,0.923,0.141,-0.331,-0.133
1598956,4994.0,2860.0,6138.0,0.924,0.139,-0.33,-0.134
1598974,4840.0,2552.0,6302.0,0.925,0.137,-0.328,-0.135
1598993,5052.0,2994.0,6302.0,0.926,0.135,-0.326,-0.137
1599011,5122.0,3136.0,6284.0,0.927,0.133,-0.323,-0.138
1599030,4976.0,2348.0,5990.0,0.928,0.13,-0.32,-0.14
1599039,4546.0,2716.0,6256.0,0.929,0.128,-0.317,-0.143
1599057,3682.0,2554.0,6812.0,0.93,0.126,-0.314,-0.144
1599076,4452.0,1984.0,6512.0,0.93,0.124,-0.313,-0.146
1599094,4726.0,2374.0,6476.0,0.93,0.123,-0.312,-0.148
1599113,4702.0,2556.0,6968.0,0.931,0.122,-0.311,-0.15
1599131,4618.0,2656.0,7322.0,0.931,0.122,-0.309,-0.152
1599149,4742.0,2728.0,7064.0,0.931,0.12,-0.308,-0.154
1599167,5044.0,2806.0,6910.0,0.932,0.12,-0.306,-0.155
1599185,4856.0,2398.0,7072.0,0.932,0.119,-0.303,-0.157
1599204,4426.0,2494.0,7262.0,0.933,0.119,-0.302,-0.159
1599212,4716.0,2226.0,7186.0,0.933,0.118,-0.3,-0.162
1599230,4546.0,2508.0,7504.0,0.932,0.118,-0.299,-0.165
1599248,4898.0,2812.0,7156.0,0.932,0.119,-0.298,-0.167
1599265,4798.0,2552.0,7486.0,0.933,0.119,-0.295,-0.168
1599284,5218.0,2508.0,7804.0,0.934,0.119,-0.292,-0.17
1599303,5364.0,2348.0,7776.0,0.935,0.119,-0.289,-0.171
1599321,5098.0,2310.0,7946.0,0.936,0.117,-0.284,-0.173
1599340,4948.0,2322.0,8230.0,0.937,0.116,-0.278,-0.175
1599359,4840.0,2446.0,8642.0,0.94,0.115,-0.27,-0.175
1599378,4756.0,2110.0,8468.0,0.943,0.113,-0.261,-0.175
1599397,4496.0,2118.0,9490.0,0.945,0.112,-0.251,-0.175
1599405,4786.0,2132.0,8860.0,0.948,0.111,-0.241,-0.175
1599423,4654.0,2388.0,9404.0,0.951,0.11,-0.229,-0.174
1599441,5212.0,2830.0,9564.0,0.955,0.107,-0.215,-0.172
1599459,4302.0,2080.0,9690.0,0.959,0.105,-0.2,-0.169
1599477,4632.0,2186.0,10078.0,0.963,0.104,-0.183,-0.166
1599496,3876.0,2652.0,10058.0,0.968,0.102,-0.164,-0.162
1599514,4410.0,2452.0,9906.0,0.972,0.101,-0.144,-0.157
1599532,3748.0,1674.0,10166.0,0.976,0.1,-0.122,-0.153
1599551,3284.0,2446.0,9920.0,0.979,0.099,-0.098,-0.149
1599569,3116.0,2422.0,9862.0,0.982,0.098,-0.073,-0.144
1599587,2972.0,2718.0,9626.0,0.984,0.097,-0.046,-0.139
1599604,2952.0,2224.0,8902.0,0.986,0.095,-0.017,-0.134
1599621,2270.0,1908.0,8664.0,0.987,0.094,0.014,-0.127
1599638,1006.0,2002.0,8692.0,0.987,0.093,0.046,-0.121
1599656,814.0,2266.0,8170.0,0.986,0.093,0.078,-0.114
1599674,320.0,2534.0,7980.0,0.984,0.092,0.112,-0.107
1599692,150.0,2088.0,7506.0,0.98,0.091,0.147,-0.1
1599710,-270.0,2288.0,7220.0,0.975,0.09,0.181,-0.093
1599729,-1124.0,2232.0,7280.0,0.969,0.091,0.215,-0.087
1599739,-1028.0,2742.0,6334.0,0.961,0.091,0.249,-0.082
1599756,-1684.0,2464.0,5978.0,0.951,0.091,0.284,-0.077
1599774,-2250.0,3418.0,5414.0,0.941,0.091,0.319,-0.073
1599792,-2682.0,2660.0,4842.0,0.928,0.089,0.354,-0.069
1599810,-3308.0,2142.0,4464.0,0.915,0.089,0.387,-0.066
1599829,-3658.0,2080.0,3648.0,0.901,0.088,0.419,-0.064
1599846,-4776.0,1294.0,3656.0,0.887,0.087,0.45,-0.062
1599866,-4930.0,1246.0,2856.0,0.872,0.086,0.478,-0.062
1599884,-5490.0,1352.0,2884.0,0.857,0.085,0.505,-0.062
1599902,-5366.0,678.0,1764.0,0.842,0.083,0.529,-0.063
1599921,-5512.0,-152.0,1484.0,0.828,0.082,0.55,-0.065
1599939,-5872.0,1012.0,1672.0,0.816,0.08,0.569,-0.068
1599947,-6150.0,682.0,1464.0,0.804,0.076,0.585,-0.071
1599966,-5910.0,154.0,1096.0,0.794,0.073,0.599,-0.074
1599983,-5798.0,906.0,792.0,0.784,0.069,0.612,-0.078
1600001,-6502.0,870.0,1044.0,0.776,0.064,0.623,-0.081
1600020,-6366.0,592.0,370.0,0.768,0.059,0.633,-0.082
1600038,-6890.0,590.0,622.0,0.76,0.053,0.642,-0.084
1600056,-6974.0,676.0,210.0,0.753,0.046,0.65,-0.085
1600075,-7192.0,506.0,86.0,0.747,0.04,0.658,-0.084
1600094,-7742.0,332.0,-8.0,0.741,0.032,0.666,-0.083
1600113,-8336.0,376.0,106.0,0.734,0.024,0.673,-0.081
1600132,-8636.0,-306.0,-38.0,0.728,0.016,0.681,-0.079
1600142,-8634.0,-570.0,-118.0,0.722,0.007,0.688,-0.077
1600159,-8166.0,-464.0,-798.0,0.714,-0.003,0.696,-0.076
1600178,-8678.0,-498.0,-646.0,0.706,-0.014,0.705,-0.073
1600197,-9154.0,-1316.0,-472.0,0.698,-0.025,0.713,-0.07
1600215,-9248.0,-1494.0,-690.0,0.69,-0.036,0.72,-0.068
1600235,-8680.0,-2254.0,-1440.0,0.683,-0.048,0.726,-0.067
1600246,-8582.0,-2204.0,-1306.0,0.676,-0.061,0.731,-0.066
1600265,-8754.0,-2362.0,-1160.0,0.671,-0.073,0.735,-0.065
1600284,-8492.0,-2724.0,-1306.0,0.666,-0.085,0.738,-0.065
1600301,-7884.0,-2658.0,-1688.0,0.663,-0.095,0.74,-0.065
1600320,-7686.0,-2578.0,-1860.0,0.66,-0.105,0.742,-0.064
1600338,-7812.0,-2380.0,-1670.0,0.657,-0.114,0.743,-0.063
1600357,-7874.0,-2416.0,-1858.0,0.655,-0.121,0.743,-0.061
1600375,-8326.0,-2802.0,-1608.0,0.655,-0.127,0.743,-0.059
1600384,-8350.0,-2698.0,-1606.0,0.655,-0.131,0.742,-0.057
1600401,-8008.0,-2910.0,-1740.0,0.657,-0.135,0.74,-0.057
1600420,-8054.0,-2556.0,-1158.0,0.658,-0.137,0.738,-0.056
1600438,-7558.0,-2334.0,-1212.0,0.661,-0.138,0.736,-0.056
1600457,-7326.0,-2254.0,-864.0,0.663,-0.137,0.734,-0.056
1600476,-6798.0,-2076.0,-990.0,0.665,-0.136,0.733,-0.055
1600495,-6836.0,-2066.0,-908.0,0.666,-0.134,0.732,-0.054
1600514,-7112.0,-1906.0,-418.0,0.666,-0.132,0.732,-0.051
1600532,-7500.0,-2410.0,-106.0,0.667,-0.128,0.732,-0.049
1600551,-7536.0,-2074.0,-158.0,0.668,-0.124,0.732,-0.047
1600560,-7820.0,-1910.0,-30.0,0.669,-0.12,0.732,-0.045
1600579,-8352.0,-1962.0,-348.0,0.67,-0.117,0.732,-0.042
1600598,-8744.0,-2234.0,422.0,0.67,-0.113,0.732,-0.04
1600617,-8614.0,-1934.0,140.0,0.672,-0.11,0.731,-0.04
1600635,-8644.0,-1866.0,150.0,0.674,-0.107,0.73,-0.04
1600655,-8240.0,-1442.0,-100.0,0.675,-0.105,0.729,-0.04
1600664,-8376.0,-1458.0,118.0,0.676,-0.103,0.728,-0.041
1600682,-8272.0,-1408.0,142.0,0.677,-0.103,0.727,-0.041
1600701,-8118.0,-1244.0,192.0,0.678,-0.102,0.727,-0.042
1600721,-7852.0,-1248.0,-28.0,0.678,-0.102,0.727,-0.042
1600739,-7850.0,-930.0,158.0,0.677,-0.102,0.728,-0.043
1600758,-7870.0,-962.0,128.0,0.675,-0.102,0.73,-0.042
1600777,-7904.0,-1030.0,242.0,0.672,-0.103,0.732,-0.042
1600787,-8194.0,-1074.0,462.0,0.669,-0.104,0.735,-0.041
1600804,-8174.0,-1040.0,204.0,0.665,-0.105,0.739,-0.041
1600821,-8282.0,-1368.0,40.0,0.66,-0.106,0.742,-0.041
1600840,-8538.0,-1340.0,-14.0,0.655,-0.108,0.746,-0.041
1600860,-8752.0,-1242.0,-302.0,0.651,-0.11,0.75,-0.043
1600879,-8622.0,-1526.0,-750.0,0.646,-0.112,0.754,-0.045
1600898,-8776.0,-1978.0,-976.0,0.642,-0.114,0.757,-0.047
1600917,-9002.0,-2040.0,-1240.0,0.638,-0.117,0.759,-0.051
1600927,-8748.0,-3288.0,-2022.0,0.635,-0.119,0.761,-0.054
1600946,-9216.0,-3224.0,-1732.0,0.633,-0.122,0.762,-0.059
1600966,-9062.0,-2946.0,-2358.0,0.632,-0.124,0.762,-0.064
1600986,-8590.0,-3364.0,-2676.0,0.632,-0.127,0.761,-0.068
1601006,-8752.0,-3314.0,-2518.0,0.632,-0.129,0.761,-0.071
1601014,-8284.0,-2836.0,-2958.0,0.632,-0.132,0.76,-0.072
1601033,-8650.0,-2836.0,-2342.0,0.63,-0.136,0.761,-0.071
1601052,-9058.0,-3710.0,-1980.0,0.629,-0.139,0.762,-0.07
1601071,-9498.0,-3604.0,-1890.0,0.626,-0.142,0.763,-0.07
1601090,-9916.0,-3612.0,-1638.0,0.624,-0.144,0.765,-0.069
1601110,-10302.0,-3220.0,-1480.0,0.622,-0.145,0.766,-0.069
1601120,-9900.0,-3436.0,-1780.0,0.621,-0.146,0.767,-0.069
1601139,-9876.0,-2352.0,-1680.0,0.619,-0.147,0.768,-0.069
1601157,-9476.0,-2610.0,-2028.0,0.618,-0.148,0.769,-0.069
1601176,-9450.0,-2414.0,-2050.0,0.617,-0.149,0.77,-0.069
1601194,-9288.0,-2382.0,-2030.0,0.616,-0.15,0.771,-0.068
1601211,-9186.0,-2456.0,-1738.0,0.615,-0.151,0.771,-0.067
1601228,-9018.0,-2486.0,-1676.0,0.614,-0.152,0.771,-0.066
1601245,-8646.0,-2416.0,-1772.0,0.615,-0.154,0.771,-0.065
1601263,-8672.0,-2276.0,-1418.0,0.615,-0.156,0.77,-0.064
1601282,-8184.0,-2430.0,-1650.0,0.616,-0.157,0.769,-0.062
1601302,-8022.0,-2090.0,-1560.0,0.617,-0.159,0.768,-0.061
1601312,-7766.0,-1874.0,-1764.0,0.618,-0.16,0.768,-0.058
1601330,-8054.0,-2488.0,-1530.0,0.618,-0.161,0.768,-0.055
1601349,-7958.0,-1894.0,-1664.0,0.616,-0.162,0.769,-0.052
1601368,-8412.0,-2164.0,-1872.0,0.614,-0.162,0.771,-0.049
1601387,-8318.0,-2320.0,-1036.0,0.613,-0.16,0.773,-0.046
1601405,-7746.0,-3132.0,-576.0,0.612,-0.157,0.773,-0.045
1601423,-7094.0,-820.0,-796.0,0.612,-0.155,0.774,-0.043
1601442,-6766.0,-2128.0,-744.0,0.612,-0.153,0.775,-0.041
1601451,-6806.0,-2582.0,-110.0,0.613,-0.151,0.775,-0.039
1601470,-6214.0,-2224.0,-832.0,0.614,-0.15,0.774,-0.039
1601489,-6030.0,-2190.0,-852.0,0.615,-0.148,0.773,-0.039
1601508,-6356.0,-2100.0,-462.0,0.617,-0.147,0.772,-0.039
1601527,-6418.0,-1954.0,-1252.0,0.619,-0.145,0.771,-0.038
1601545,-6844.0,-2752.0,-2222.0,0.62,-0.143,0.77,-0.037
1601565,-8030.0,-1672.0,-292.0,0.624,-0.141,0.768,-0.035
1601574,-8034.0,-2682.0,-1170.0,0.628,-0.138,0.765,-0.032
1601592,-8000.0,-3150.0,-1378.0,0.633,-0.135,0.762,-0.029
1601611,-8160.0,-2306.0,-738.0,0.64,-0.132,0.757,-0.026
1601630,-9050.0,-2038.0,298.0,0.648,-0.128,0.751,-0.024
1601649,-8324.0,-3410.0,-1172.0,0.657,-0.123,0.744,-0.023
1601667,-7588.0,-428.0,-240.0,0.666,-0.118,0.736,-0.022
1601685,-6926.0,-62.0,-54.0,0.674,-0.114,0.73,-0.018
1601703,-5424.0,-780.0,-540.0,0.68,-0.111,0.725,-0.011
1601721,-4610.0,-1116.0,-374.0,0.684,-0.108,0.721,-0.006
1601729,-3438.0,-108.0,-388.0,0.686,-0.103,0.721,-0.001
1601747,-3560.0,-326.0,-374.0,0.684,-0.097,0.723,0.003
1601767,-4460.0,-492.0,-96.0,0.682,-0.09,0.726,0.006
1601786,-5622.0,-604.0,258.0,0.679,-0.084,0.73,0.007
1601805,-6914.0,-412.0,496.0,0.676,-0.08,0.732,0.006
1601823,-7398.0,-672.0,194.0,0.675,-0.078,0.733,0.006
1601842,-7420.0,-404.0,82.0,0.676,-0.078,0.733,0.005
1601859,-7178.0,-1096.0,-606.0,0.677,-0.078,0.732,0.005
1601877,-7388.0,-1500.0,-1030.0,0.677,-0.079,0.732,0.004
1601897,-8688.0,-1900.0,-642.0,0.677,-0.08,0.731,0.001
1601905,-9154.0,-1550.0,-528.0,0.679,-0.08,0.73,-0.002
1601923,-7992.0,-1354.0,-704.0,0.68,-0.08,0.728,-0.004
1601951,-7160.0,-818.0,-416.0,0.683,-0.079,0.726,-0.006
1601959,-7136.0,-1658.0,-330.0,0.684,-0.079,0.725,-0.008
1601976,-7312.0,-1250.0,38.0,0.686,-0.079,0.724,-0.01
1601994,-7290.0,-1620.0,66.0,0.687,-0.079,0.722,-0.013
1602012,-7688.0,-924.0,120.0,0.689,-0.08,0.72,-0.016
1602030,-8042.0,-1274.0,276.0,0.691,-0.081,0.718,-0.02
1602050,-7758.0,-1000.0,100.0,0.693,-0.083,0.716,-0.023
1602068,-8130.0,-1476.0,84.0,0.694,-0.085,0.714,-0.025
1602088,-8408.0,-980.0,200.0,0.695,-0.086,0.713,-0.026
1602097,-8522.0,-1700.0,210.0,0.696,-0.088,0.712,-0.027
1602115,-8294.0,-1372.0,264.0,0.697,-0.089,0.711,-0.027
1602134,-8198.0,-1686.0,364.0,0.698,-0.091,0.71,-0.026
1602152,-8348.0,-1684.0,448.0,0.698,-0.093,0.71,-0.026
1602171,-8118.0,-1632.0,458.0,0.698,-0.095,0.709,-0.024
1602189,-7898.0,-1460.0,572.0,0.698,-0.097,0.709,-0.022
1602208,-7714.0,-2012.0,280.0,0.698,-0.099,0.709,-0.021
1602227,-7914.0,-1726.0,580.0,0.698,-0.102,0.709,-0.019
1602247,-7888.0,-1642.0,494.0,0.698,-0.105,0.709,-0.017
1602257,-7342.0,-1764.0,318.0,0.697,-0.108,0.709,-0.016
1602275,-6888.0,-1720.0,84.0,0.695,-0.111,0.71,-0.014
1602294,-6754.0,-2256.0,-56.0,0.693,-0.114,0.711,-0.012
1602314,-6852.0,-1514.0,354.0,0.691,-0.117,0.713,-0.011
1602333,-6324.0,-1996.0,-246.0,0.688,-0.12,0.715,-0.011
1602342,-5968.0,-2554.0,-816.0,0.685,-0.122,0.718,-0.011
1602360,-6396.0,-1542.0,-600.0,0.68,-0.123,0.722,-0.012
1602380,-7330.0,-1056.0,-144.0,0.676,-0.125,0.726,-0.011
1602398,-7364.0,-2210.0,-476.0,0.672,-0.128,0.73,-0.009
1602417,-6700.0,-2960.0,-654.0,0.669,-0.13,0.732,-0.01
1602435,-7492.0,-2240.0,-182.0,0.666,-0.131,0.734,-0.012
1602454,-7522.0,-2276.0,-358.0,0.664,-0.133,0.736,-0.015
1602471,-7322.0,-2196.0,-322.0,0.662,-0.135,0.737,-0.018
1602489,-6660.0,-2004.0,-706.0,0.661,-0.136,0.738,-0.021
1602508,-7030.0,-2620.0,-388.0,0.659,-0.138,0.739,-0.024
1602518,-7088.0,-2036.0,-986.0,0.656,-0.14,0.741,-0.027
1602535,-7814.0,-2590.0,-584.0,0.655,-0.141,0.742,-0.029
1602554,-7546.0,-1544.0,-606.0,0.653,-0.141,0.743,-0.032
1602572,-7394.0,-2254.0,-406.0,0.652,-0.141,0.744,-0.034
1602591,-7780.0,-2046.0,-176.0,0.651,-0.141,0.745,-0.037
1602610,-7174.0,-1844.0,-640.0,0.65,-0.141,0.746,-0.04
1602630,-7276.0,-2052.0,-484.0,0.649,-0.142,0.746,-0.043
1602639,-7570.0,-1736.0,-488.0,0.648,-0.142,0.746,-0.047
1602657,-7468.0,-1384.0,-616.0,0.648,-0.142,0.747,-0.049
1602676,-7580.0,-1868.0,-644.0,0.648,-0.142,0.747,-0.052
1602696,-6886.0,-1336.0,-1178.0,0.647,-0.142,0.747,-0.055
1602715,-6888.0,-1148.0,-1090.0,0.647,-0.141,0.747,-0.056
1602733,-7184.0,-1684.0,-508.0,0.647,-0.141,0.747,-0.058
1602750,-6854.0,-1938.0,-866.0,0.647,-0.14,0.747,-0.06
1602769,-6644.0,-1512.0,-644.0,0.647,-0.139,0.747,-0.062
1602778,-6458.0,-1580.0,-1232.0,0.646,-0.137,0.748,-0.065
1602796,-7062.0,-1856.0,-574.0,0.646,-0.136,0.748,-0.067
1602814,-7094.0,-2302.0,-1124.0,0.646,-0.135,0.748,-0.069
1602833,-7512.0,-2032.0,-770.0,0.647,-0.134,0.747,-0.072
1602852,-6972.0,-2256.0,-1852.0,0.647,-0.132,0.747,-0.075
1602870,-7732.0,-2468.0,-1272.0,0.647,-0.13,0.747,-0.076
1602888,-7748.0,-2350.0,-1324.0,0.648,-0.128,0.747,-0.077
1602906,-7988.0,-2766.0,-1276.0,0.648,-0.125,0.747,-0.077
1602924,-8426.0,-3092.0,-1142.0,0.649,-0.123,0.747,-0.077
1602942,-8648.0,-2274.0,-1202.0,0.651,-0.119,0.746,-0.077
1602960,-8938.0,-2682.0,-872.0,0.653,-0.116,0.745,-0.076
1602978,-9240.0,-2668.0,-700.0,0.656,-0.112,0.743,-0.076
1602997,-9100.0,-2154.0,-576.0,0.659,-0.107,0.74,-0.076
1603006,-8740.0,-1594.0,-696.0,0.664,-0.102,0.737,-0.076
1603024,-8816.0,-1564.0,-512.0,0.669,-0.096,0.733,-0.075
1603043,-8744.0,-1336.0,-520.0,0.674,-0.09,0.73,-0.074
1603062,-9038.0,-1442.0,-96.0,0.678,-0.084,0.726,-0.074
1603081,-8766.0,-1046.0,-6.0,0.684,-0.078,0.722,-0.074
1603100,-8736.0,-1242.0,-60.0,0.689,-0.072,0.718,-0.074
1603118,-8980.0,-980.0,306.0,0.693,-0.067,0.714,-0.073
1603135,-8688.0,-738.0,250.0,0.697,-0.063,0.711,-0.072
1603153,-8792.0,-1372.0,462.0,0.701,-0.058,0.708,-0.07
1603171,-9068.0,-1026.0,658.0,0.704,-0.054,0.705,-0.069
1603179,-9272.0,-1028.0,692.0,0.706,-0.052,0.703,-0.067
1603197,-9390.0,-1308.0,822.0,0.709,-0.049,0.701,-0.064
1603215,-9800.0,-1572.0,952.0,0.711,-0.047,0.699,-0.063
1603233,-9748.0,-1226.0,774.0,0.712,-0.045,0.698,-0.061
1603251,-9774.0,-992.0,780.0,0.713,-0.044,0.697,-0.06
1603270,-9882.0,-1038.0,1036.0,0.714,-0.043,0.696,-0.059
1603289,-9764.0,-1332.0,848.0,0.715,-0.042,0.695,-0.059
1603307,-9780.0,-1218.0,930.0,0.716,-0.041,0.694,-0.059
1603326,-9706.0,-1354.0,1006.0,0.717,-0.04,0.693,-0.059
1603345,-9566.0,-1300.0,1014.0,0.719,-0.039,0.692,-0.06
1603364,-9534.0,-1432.0,1140.0,0.72,-0.039,0.69,-0.061
1603373,-9382.0,-1346.0,1136.0,0.722,-0.038,0.688,-0.063
1603391,-9240.0,-1490.0,1272.0,0.724,-0.037,0.686,-0.065
1603409,-8946.0,-1578.0,1106.0,0.726,-0.037,0.684,-0.068
1603428,-9056.0,-1666.0,1306.0,0.727,-0.036,0.682,-0.07
1603447,-8878.0,-1666.0,1360.0,0.729,-0.036,0.68,-0.072
1603466,-8548.0,-1624.0,1258.0,0.73,-0.035,0.679,-0.075
1603485,-8560.0,-1614.0,1344.0,0.729,-0.035,0.679,-0.077
1603502,-8674.0,-1318.0,1350.0,0.728,-0.036,0.68,-0.078
1603519,-8620.0,-1200.0,1254.0,0.727,-0.036,0.682,-0.078
1603536,-8744.0,-1578.0,1218.0,0.724,-0.037,0.684,-0.079
1603554,-8694.0,-1210.0,1042.0,0.721,-0.038,0.687,-0.078
1603573,-8836.0,-1246.0,910.0,0.718,-0.039,0.69,-0.078
1603582,-9038.0,-1276.0,744.0,0.715,-0.041,0.694,-0.078
1603600,-9112.0,-1446.0,500.0,0.711,-0.042,0.698,-0.078
1603619,-9080.0,-1520.0,166.0,0.707,-0.044,0.702,-0.078
1603638,-9102.0,-1710.0,-82.0,0.703,-0.046,0.705,-0.08
1603656,-9306.0,-2012.0,-292.0,0.699,-0.048,0.709,-0.081
1603674,-9734.0,-1736.0,-356.0,0.695,-0.051,0.712,-0.083
1603693,-10020.0,-2090.0,-508.0,0.691,-0.053,0.715,-0.085
1603713,-10058.0,-2294.0,-670.0,0.688,-0.057,0.718,-0.087
1603722,-9720.0,-3436.0,-1132.0,0.686,-0.06,0.72,-0.09
1603740,-9808.0,-1894.0,-796.0,0.682,-0.064,0.722,-0.093
1603759,-9872.0,-2584.0,-954.0,0.679,-0.069,0.724,-0.095
1603782,-9738.0,-2680.0,-1108.0,0.676,-0.073,0.727,-0.098
1603799,-9802.0,-2674.0,-1082.0,0.673,-0.078,0.729,-0.099
1603818,-9642.0,-2858.0,-1142.0,0.669,-0.083,0.732,-0.101
1603827,-9790.0,-2494.0,-940.0,0.664,-0.088,0.735,-0.102
1603845,-9478.0,-2952.0,-1208.0,0.66,-0.093,0.738,-0.103
1603865,-9540.0,-2420.0,-1184.0,0.656,-0.098,0.741,-0.104
1603884,-9440.0,-2730.0,-1186.0,0.652,-0.102,0.744,-0.104
1603903,-9318.0,-2668.0,-1240.0,0.649,-0.107,0.746,-0.104
1603920,-9050.0,-2690.0,-1398.0,0.645,-0.111,0.749,-0.103
1603938,-8954.0,-2346.0,-1378.0,0.642,-0.114,0.751,-0.103
1603956,-8778.0,-2426.0,-1296.0,0.64,-0.117,0.752,-0.103
1603974,-8414.0,-1986.0,-1412.0,0.638,-0.12,0.754,-0.102
1603993,-8262.0,-2396.0,-1214.0,0.637,-0.122,0.755,-0.101
1604002,-8076.0,-2048.0,-1218.0,0.636,-0.123,0.755,-0.1
1604021,-7974.0,-1854.0,-1374.0,0.635,-0.124,0.756,-0.098
1604040,-7930.0,-2162.0,-1010.0,0.636,-0.125,0.756,-0.096
1604059,-7774.0,-2096.0,-1340.0,0.636,-0.125,0.755,-0.095
1604079,-8140.0,-2628.0,-1480.0,0.638,-0.126,0.754,-0.094
1604099,-9118.0,-2828.0,-714.0,0.641,-0.128,0.751,-0.093
1604109,-9072.0,-3012.0,-788.0,0.647,-0.13,0.746,-0.095
1604128,-8124.0,-1942.0,-1152.0,0.655,-0.132,0.738,-0.096
1604147,-8154.0,-2752.0,-176.0,0.664,-0.136,0.729,-0.096
1604166,-7486.0,-1394.0,-334.0,0.673,-0.14,0.72,-0.095
1604186,-7096.0,-1958.0,-540.0,0.683,-0.144,0.71,-0.093
1604194,-7098.0,-2930.0,-202.0,0.693,-0.148,0.7,-0.09
1604213,-6168.0,-1392.0,-452.0,0.702,-0.152,0.69,-0.087
1604232,-6066.0,-1818.0,-16.0,0.71,-0.157,0.681,-0.081
1604251,-6316.0,-2344.0,212.0,0.717,-0.161,0.674,-0.074
1604270,-6128.0,-2876.0,-220.0,0.722,-0.164,0.669,-0.065
1604289,-6286.0,-2636.0,-190.0,0.727,-0.167,0.664,-0.057
1604308,-6106.0,-1692.0,154.0,0.73,-0.168,0.66,-0.049
1604317,-6136.0,-2070.0,-44.0,0.733,-0.17,0.658,-0.038
1604336,-6368.0,-2396.0,358.0,0.734,-0.172,0.657,-0.026
1604355,-7208.0,-2336.0,914.0,0.735,-0.173,0.655,-0.015
1604373,-7062.0,-3164.0,606.0,0.737,-0.172,0.654,-0.005
1604391,-6404.0,-1604.0,692.0,0.738,-0.171,0.653,0.004
1604410,-6204.0,-1224.0,844.0,0.739,-0.17,0.651,0.014
1604429,-5896.0,-2596.0,454.0,0.741,-0.168,0.65,0.025
1604447,-5152.0,-898.0,1014.0,0.742,-0.167,0.648,0.035
1604456,-4498.0,-1742.0,1080.0,0.744,-0.165,0.647,0.044
1604474,-4416.0,-2600.0,624.0,0.744,-0.163,0.646,0.05
1604493,-4580.0,-1146.0,1206.0,0.744,-0.162,0.646,0.055
1604510,-5314.0,-2064.0,1384.0,0.744,-0.16,0.646,0.058
1604529,-5370.0,-2416.0,894.0,0.744,-0.159,0.646,0.058
1604549,-6308.0,-1904.0,1338.0,0.744,-0.157,0.647,0.056
1604567,-7036.0,-1760.0,1254.0,0.744,-0.156,0.647,0.054
1604585,-7234.0,-2068.0,1262.0,0.745,-0.155,0.647,0.051
1604603,-7060.0,-2778.0,994.0,0.746,-0.154,0.647,0.047
1604621,-7088.0,-2322.0,1138.0,0.746,-0.153,0.646,0.043
1604639,-7190.0,-2106.0,1364.0,0.747,-0.151,0.646,0.038
1604649,-6676.0,-2166.0,1250.0,0.748,-0.149,0.646,0.034
1604666,-5982.0,-1948.0,1284.0,0.748,-0.147,0.647,0.028
1604684,-5924.0,-1802.0,902.0,0.747,-0.145,0.648,0.023
1604702,-6610.0,-1522.0,1344.0,0.745,-0.145,0.65,0.02
1604720,-7256.0,-2390.0,1796.0,0.745,-0.144,0.652,0.015
1604739,-6744.0,-1562.0,1422.0,0.744,-0.142,0.653,0.01
1604757,-8646.0,-1690.0,2324.0,0.742,-0.141,0.655,0.006
1604776,-8894.0,-1488.0,2136.0,0.741,-0.141,0.656,0.004
1604795,-8652.0,-2424.0,1470.0,0.741,-0.14,0.657,0.002
1604814,-8400.0,-1344.0,1700.0,0.74,-0.139,0.658,0.0
1604823,-8712.0,-2292.0,1496.0,0.739,-0.138,0.659,-0.001
1604841,-7900.0,-1686.0,1138.0,0.738,-0.137,0.66,-0.003
1604859,-7292.0,-1864.0,1122.0,0.737,-0.136,0.663,-0.004
1604878,-7080.0,-1340.0,1406.0,0.735,-0.134,0.665,-0.006
1604898,-6462.0,-1778.0,1438.0,0.732,-0.134,0.668,-0.007
1604916,-5696.0,-1176.0,834.0,0.729,-0.134,0.671,-0.01
1604935,-5596.0,-1378.0,1234.0,0.726,-0.135,0.674,-0.012
1604953,-6580.0,-1602.0,1630.0,0.722,-0.138,0.678,-0.013
1604971,-6006.0,-1796.0,872.0,0.718,-0.141,0.681,-0.016
1604980,-6096.0,-1336.0,-4.0,0.714,-0.145,0.685,-0.019
1604998,-6454.0,-1860.0,144.0,0.709,-0.148,0.689,-0.021
1605018,-7018.0,-1534.0,98.0,0.703,-0.152,0.694,-0.022
1605037,-6770.0,-1902.0,-16.0,0.698,-0.157,0.699,-0.023
1605055,-6882.0,-2668.0,272.0,0.693,-0.161,0.702,-0.025
1605074,-6784.0,-1422.0,252.0,0.688,-0.165,0.706,-0.028
1605092,-6700.0,-1470.0,164.0,0.683,-0.169,0.71,-0.029
1605112,-7068.0,-1460.0,292.0,0.678,-0.172,0.714,-0.031
1605121,-7056.0,-2784.0,182.0,0.674,-0.174,0.717,-0.034
1605139,-7276.0,-1894.0,94.0,0.669,-0.178,0.72,-0.039
1605157,-7440.0,-1620.0,-266.0,0.666,-0.181,0.723,-0.042
1605176,-7690.0,-980.0,-388.0,0.662,-0.182,0.726,-0.046
1605196,-7700.0,-2512.0,-422.0,0.658,-0.184,0.728,-0.049
1605215,-8076.0,-2494.0,-228.0,0.656,-0.185,0.73,-0.052
1605234,-7994.0,-2112.0,-430.0,0.653,-0.185,0.732,-0.056
1605243,-7610.0,-1890.0,-888.0,0.651,-0.185,0.734,-0.059
1605262,-8112.0,-2104.0,-538.0,0.649,-0.184,0.736,-0.062
1605282,-8386.0,-2752.0,-592.0,0.646,-0.183,0.738,-0.064
1605301,-8160.0,-2182.0,-1244.0,0.644,-0.18,0.741,-0.067
1605320,-9092.0,-2798.0,-754.0,0.642,-0.178,0.743,-0.069
1605338,-9104.0,-2806.0,-1392.0,0.64,-0.175,0.745,-0.071
1605347,-9508.0,-3244.0,-1322.0,0.638,-0.171,0.747,-0.073
1605366,-9504.0,-3172.0,-1984.0,0.637,-0.167,0.749,-0.075
1605386,-9974.0,-3532.0,-1782.0,0.636,-0.163,0.75,-0.077
1605405,-10040.0,-3756.0,-2180.0,0.637,-0.158,0.751,-0.078
1605424,-10128.0,-3956.0,-2002.0,0.638,-0.154,0.75,-0.079
1605442,-10290.0,-3882.0,-1818.0,0.641,-0.149,0.748,-0.081
1605460,-10140.0,-3794.0,-1664.0,0.645,-0.144,0.746,-0.083
1605480,-9744.0,-3632.0,-1598.0,0.65,-0.14,0.742,-0.086
1605489,-9332.0,-3198.0,-1326.0,0.656,-0.135,0.738,-0.088
1605508,-9014.0,-2826.0,-1066.0,0.661,-0.13,0.734,-0.089
1605527,-8814.0,-2888.0,-748.0,0.666,-0.125,0.73,-0.091
1605546,-8500.0,-2574.0,-736.0,0.67,-0.12,0.726,-0.092
1605565,-8322.0,-2672.0,-538.0,0.675,-0.114,0.723,-0.092
1605574,-8238.0,-2120.0,-518.0,0.678,-0.109,0.721,-0.092
1605594,-8222.0,-2568.0,-480.0,0.681,-0.105,0.72,-0.09
1605613,-8210.0,-2098.0,-538.0,0.682,-0.1,0.719,-0.088
1605631,-8406.0,-2156.0,-402.0,0.684,-0.096,0.718,-0.086
1605650,-8442.0,-2184.0,-522.0,0.685,-0.092,0.718,-0.083
1605669,-8682.0,-2276.0,-488.0,0.685,-0.088,0.718,-0.08
1605687,-8980.0,-2424.0,-576.0,0.686,-0.085,0.719,-0.077
1605706,-9008.0,-2274.0,-658.0,0.686,-0.083,0.719,-0.074
1605715,-9372.0,-2384.0,-524.0,0.687,-0.08,0.719,-0.072
1605733,-9488.0,-2418.0,-586.0,0.688,-0.079,0.718,-0.07
1605751,-9542.0,-2458.0,-542.0,0.688,-0.078,0.718,-0.068
1605769,-9540.0,-2352.0,-576.0,0.689,-0.078,0.717,-0.067
1605787,-9640.0,-2180.0,-496.0,0.69,-0.079,0.717,-0.066
1605804,-9384.0,-2196.0,-582.0,0.69,-0.08,0.717,-0.064
1605823,-9416.0,-2294.0,-506.0,0.69,-0.082,0.716,-0.063
1605843,-9326.0,-2202.0,-636.0,0.689,-0.084,0.717,-0.062
1605862,-9402.0,-2028.0,-476.0,0.688,-0.088,0.718,-0.061
1605879,-9298.0,-2306.0,-546.0,0.687,-0.091,0.719,-0.059
1605897,-9530.0,-2222.0,-492.0,0.685,-0.095,0.72,-0.057
1605906,-9610.0,-2318.0,-496.0,0.683,-0.099,0.721,-0.056
1605924,-9976.0,-2082.0,-338.0,0.681,-0.104,0.723,-0.055
1605943,-10048.0,-2978.0,-598.0,0.679,-0.109,0.724,-0.055
1605963,-10424.0,-2290.0,-616.0,0.678,-0.115,0.724,-0.056
1605982,-10428.0,-2284.0,-862.0,0.675,-0.123,0.725,-0.057
1606000,-10130.0,-2436.0,-720.0,0.673,-0.131,0.726,-0.058
1606018,-9952.0,-2778.0,-754.0,0.67,-0.138,0.727,-0.058
1606037,-9584.0,-2320.0,-924.0,0.667,-0.145,0.729,-0.058
1606056,-9094.0,-2628.0,-968.0,0.663,-0.152,0.731,-0.057
1606064,-8858.0,-2044.0,-1012.0,0.659,-0.16,0.733,-0.057
1606083,-8864.0,-2658.0,-866.0,0.654,-0.167,0.735,-0.056
1606102,-8590.0,-2458.0,-976.0,0.65,-0.174,0.738,-0.054
1606121,-8360.0,-2170.0,-882.0,0.646,-0.18,0.74,-0.053
1606140,-7884.0,-2684.0,-1156.0,0.642,-0.186,0.742,-0.052
1606159,-8034.0,-2194.0,-844.0,0.638,-0.192,0.744,-0.05
1606179,-7866.0,-2252.0,-1100.0,0.635,-0.197,0.746,-0.048
1606190,-7832.0,-2510.0,-1046.0,0.632,-0.202,0.747,-0.047
1606208,-7558.0,-2342.0,-1292.0,0.63,-0.207,0.747,-0.045
1606228,-7832.0,-2570.0,-1092.0,0.628,-0.211,0.747,-0.043
1606248,-7606.0,-2620.0,-1492.0,0.628,-0.215,0.747,-0.042
1606257,-7648.0,-2440.0,-1278.0,0.628,-0.218,0.746,-0.04
1606276,-7466.0,-2480.0,-1358.0,0.628,-0.221,0.745,-0.038
1606296,-7282.0,-2172.0,-1212.0,0.629,-0.223,0.744,-0.035
1606315,-6828.0,-2068.0,-1248.0,0.63,-0.224,0.743,-0.031
1606334,-6392.0,-1646.0,-1164.0,0.631,-0.225,0.742,-0.026
1606344,-6048.0,-2076.0,-892.0,0.631,-0.226,0.742,-0.019
1606362,-6398.0,-2322.0,-1262.0,0.629,-0.227,0.743,-0.011
1606381,-6760.0,-2758.0,-550.0,0.628,-0.227,0.744,-0.004
1606399,-6790.0,-2954.0,-774.0,0.628,-0.226,0.745,0.002
1606417,-6946.0,-2342.0,-1238.0,0.628,-0.225,0.745,0.007
1606436,-7606.0,-3062.0,-1260.0,0.628,-0.224,0.745,0.012
1606454,-8162.0,-2462.0,-1462.0,0.628,-0.223,0.746,0.017
1606471,-8616.0,-2972.0,-2076.0,0.628,-0.223,0.746,0.022
1606488,-9294.0,-2670.0,-1658.0,0.629,-0.222,0.745,0.027
1606505,-9180.0,-3346.0,-2164.0,0.63,-0.221,0.744,0.032
1606523,-9020.0,-2016.0,-1962.0,0.633,-0.219,0.742,0.038
1606542,-9204.0,-2572.0,-1498.0,0.635,-0.218,0.74,0.045
1606561,-8548.0,-1778.0,-1592.0,0.638,-0.216,0.737,0.052
1606580,-8132.0,-2128.0,-982.0,0.641,-0.215,0.734,0.06
1606589,-8040.0,-1494.0,-1168.0,0.645,-0.213,0.731,0.069
1606607,-7834.0,-1442.0,-1014.0,0.65,-0.21,0.726,0.078
1606626,-7088.0,-1396.0,-128.0,0.656,-0.206,0.721,0.086
1606646,-6242.0,-1186.0,-580.0,0.661,-0.202,0.716,0.094
1606665,-5640.0,-806.0,-72.0,0.666,-0.198,0.712,0.102
1606683,-5250.0,-618.0,-710.0,0.67,-0.194,0.708,0.109
1606701,-5250.0,-764.0,-396.0,0.673,-0.191,0.706,0.115
1606710,-5358.0,-662.0,-8.0,0.675,-0.187,0.704,0.121
1606728,-6348.0,-876.0,228.0,0.677,-0.184,0.702,0.126
1606747,-6540.0,-1086.0,86.0,0.679,-0.181,0.7,0.13
1606765,-6652.0,-414.0,734.0,0.681,-0.179,0.698,0.133
1606783,-7094.0,-1016.0,30.0,0.683,-0.178,0.695,0.136
1606801,-6820.0,-960.0,64.0,0.685,-0.177,0.693,0.139
1606819,-6376.0,-504.0,-146.0,0.687,-0.176,0.691,0.141
1606838,-6886.0,-904.0,64.0,0.688,-0.176,0.689,0.142
1606856,-6804.0,-1024.0,-18.0,0.69,-0.176,0.688,0.143
1606874,-6442.0,-850.0,36.0,0.691,-0.177,0.687,0.142
1606892,-6672.0,-348.0,392.0,0.691,-0.177,0.686,0.141
1606910,-6810.0,-1290.0,56.0,0.692,-0.178,0.686,0.14
1606929,-6830.0,-934.0,252.0,0.692,-0.179,0.686,0.137
1606939,-6788.0,-988.0,310.0,0.692,-0.18,0.686,0.133
1606957,-6760.0,-754.0,348.0,0.692,-0.182,0.687,0.128
1606976,-7030.0,-896.0,362.0,0.691,-0.184,0.688,0.123
1606993,-7344.0,-882.0,24.0,0.691,-0.186,0.689,0.118
1607012,-7270.0,-1194.0,-186.0,0.69,-0.187,0.69,0.113
1607029,-7612.0,-832.0,64.0,0.69,-0.189,0.691,0.107
1607047,-7200.0,-1248.0,-96.0,0.689,-0.191,0.692,0.101
1607066,-7268.0,-1118.0,142.0,0.688,-0.193,0.693,0.095
1607084,-7626.0,-1118.0,-82.0,0.688,-0.195,0.694,0.089
1607102,-7568.0,-1374.0,-90.0,0.687,-0.196,0.695,0.082
1607121,-7122.0,-1254.0,46.0,0.686,-0.197,0.696,0.075
1607130,-6750.0,-1118.0,-182.0,0.685,-0.198,0.697,0.068
1607149,-6778.0,-1790.0,-780.0,0.684,-0.2,0.699,0.062
1607167,-6966.0,-1290.0,-388.0,0.682,-0.2,0.702,0.054
1607186,-7134.0,-974.0,-354.0,0.679,-0.2,0.705,0.048
1607205,-6734.0,-1868.0,-288.0,0.677,-0.2,0.707,0.041
1607223,-6562.0,-1794.0,-344.0,0.674,-0.201,0.71,0.034
1607241,-6076.0,-1430.0,-1040.0,0.67,-0.2,0.714,0.027
1607259,-6590.0,-964.0,-618.0,0.666,-0.198,0.719,0.02
1607278,-6986.0,-2778.0,-668.0,0.662,-0.197,0.723,0.015
1607288,-7650.0,-3082.0,-832.0,0.659,-0.197,0.726,0.007
1607305,-7398.0,-1886.0,-778.0,0.657,-0.195,0.728,-0.001
1607323,-7196.0,-1496.0,-902.0,0.655,-0.192,0.731,-0.007
1607341,-7066.0,-2340.0,-1328.0,0.651,-0.19,0.734,-0.013
1607360,-7902.0,-3222.0,-920.0,0.649,-0.187,0.737,-0.019
1607379,-7402.0,-1804.0,-1158.0,0.647,-0.184,0.739,-0.026
1607399,-7304.0,-2130.0,-1582.0,0.646,-0.18,0.741,-0.031
1607417,-8042.0,-2970.0,-994.0,0.645,-0.175,0.743,-0.036
1607436,-7656.0,-2052.0,-822.0,0.646,-0.17,0.743,-0.042
1607445,-7380.0,-1766.0,-726.0,0.647,-0.165,0.743,-0.047
1607464,-7136.0,-2700.0,-1382.0,0.647,-0.159,0.744,-0.052
1607483,-8038.0,-2034.0,-418.0,0.647,-0.154,0.744,-0.058
1607503,-7522.0,-1036.0,-898.0,0.647,-0.149,0.745,-0.062
1607521,-7632.0,-2096.0,-844.0,0.647,-0.145,0.745,-0.065
1607539,-8148.0,-2774.0,-802.0,0.648,-0.14,0.746,-0.068
1607558,-8312.0,-2556.0,-794.0,0.649,-0.136,0.745,-0.072
1607567,-8146.0,-1082.0,-886.0,0.649,-0.131,0.746,-0.076
1607585,-7816.0,-1602.0,-1428.0,0.648,-0.126,0.747,-0.077
1607603,-8550.0,-2804.0,-872.0,0.647,-0.122,0.748,-0.078
1607621,-8532.0,-2408.0,-1072.0,0.647,-0.119,0.749,-0.079
1607640,-8876.0,-2260.0,-1182.0,0.646,-0.116,0.75,-0.08
1607659,-9020.0,-2320.0,-1114.0,0.647,-0.113,0.75,-0.08
1607678,-9024.0,-2912.0,-654.0,0.648,-0.11,0.749,-0.079
1607697,-8652.0,-2242.0,-776.0,0.65,-0.107,0.748,-0.078
1607706,-8736.0,-2020.0,-322.0,0.652,-0.105,0.747,-0.077
1607724,-8316.0,-1888.0,-438.0,0.655,-0.103,0.745,-0.076
1607742,-8150.0,-1704.0,-362.0,0.658,-0.1,0.743,-0.075
1607761,-8042.0,-1740.0,-388.0,0.661,-0.098,0.74,-0.074
1607780,-8192.0,-1450.0,-240.0,0.665,-0.097,0.737,-0.074
1607798,-8174.0,-1572.0,-292.0,0.669,-0.095,0.734,-0.073
1607815,-8394.0,-1590.0,-172.0,0.673,-0.093,0.73,-0.072
1607833,-8378.0,-1616.0,-174.0,0.678,-0.091,0.726,-0.071
1607852,-8454.0,-1416.0,-260.0,0.682,-0.09,0.722,-0.07
1607871,-8732.0,-1782.0,-168.0,0.687,-0.089,0.718,-0.068
1607889,-8772.0,-1692.0,-322.0,0.692,-0.087,0.714,-0.066
1607908,-9220.0,-2106.0,-310.0,0.696,-0.086,0.71,-0.063
1607917,-9790.0,-1926.0,-236.0,0.7,-0.084,0.707,-0.06
1607935,-10148.0,-2166.0,-410.0,0.703,-0.083,0.704,-0.057
1607953,-10406.0,-2872.0,-338.0,0.706,-0.082,0.702,-0.054
1607972,-10872.0,-2458.0,-204.0,0.708,-0.081,0.7,-0.051
1607991,-10838.0,-2710.0,-456.0,0.709,-0.081,0.699,-0.048
1608010,-11134.0,-2772.0,-244.0,0.71,-0.08,0.698,-0.045
1608030,-11046.0,-2894.0,-256.0,0.71,-0.08,0.698,-0.042
1608038,-10958.0,-2742.0,-176.0,0.71,-0.08,0.698,-0.04
1608057,-10612.0,-2582.0,-266.0,0.71,-0.08,0.698,-0.039
1608076,-10438.0,-2402.0,-10.0,0.71,-0.08,0.699,-0.038
1608095,-9900.0,-2246.0,-84.0,0.71,-0.08,0.699,-0.037
1608115,-9644.0,-2024.0,-18.0,0.709,-0.08,0.7,-0.037
1608133,-9226.0,-1966.0,-104.0,0.708,-0.08,0.701,-0.038
1608152,-9054.0,-1488.0,88.0,0.707,-0.08,0.701,-0.039
1608161,-9020.0,-1614.0,188.0,0.706,-0.08,0.702,-0.04
1608180,-8866.0,-1534.0,40.0,0.705,-0.08,0.703,-0.041
1608198,-8712.0,-1298.0,-36.0,0.704,-0.079,0.704,-0.043
1608217,-8988.0,-1264.0,96.0,0.702,-0.079,0.706,-0.045
1608235,-9124.0,-1536.0,-116.0,0.699,-0.079,0.709,-0.047
1608254,-9528.0,-1796.0,-252.0,0.694,-0.079,0.714,-0.049
1608271,-9402.0,-1642.0,-782.0,0.688,-0.081,0.72,-0.052
1608289,-9948.0,-1872.0,-540.0,0.681,-0.083,0.726,-0.054
1608309,-10054.0,-2578.0,-782.0,0.674,-0.084,0.732,-0.057
1608319,-10366.0,-2676.0,-610.0,0.669,-0.086,0.736,-0.059
1608336,-10054.0,-2510.0,-752.0,0.664,-0.087,0.74,-0.063
1608354,-9654.0,-2404.0,-816.0,0.659,-0.087,0.744,-0.066
1608373,-9624.0,-2412.0,-772.0,0.656,-0.088,0.746,-0.07
1608391,-9584.0,-2226.0,-780.0,0.654,-0.088,0.748,-0.075
1608410,-9090.0,-1762.0,-922.0,0.653,-0.088,0.748,-0.08
1608430,-8632.0,-1884.0,-1108.0,0.652,-0.087,0.748,-0.085
1608449,-8236.0,-1494.0,-1402.0,0.652,-0.086,0.748,-0.09
1608457,-8382.0,-1536.0,-1402.0,0.652,-0.085,0.748,-0.094
1608474,-8598.0,-1528.0,-1094.0,0.652,-0.083,0.747,-0.097
1608491,-7990.0,-1558.0,-1474.0,0.653,-0.08,0.747,-0.1
1608509,-8142.0,-1526.0,-886.0,0.654,-0.078,0.746,-0.101
1608527,-7898.0,-1616.0,-1038.0,0.655,-0.076,0.745,-0.102
1608545,-8236.0,-1934.0,-410.0,0.656,-0.074,0.744,-0.103
1608565,-7564.0,-1938.0,-414.0,0.659,-0.072,0.741,-0.105
1608584,-6604.0,-2052.0,-830.0,0.661,-0.069,0.739,-0.106
1608603,-7146.0,-1486.0,-356.0,0.663,-0.067,0.738,-0.106
1608622,-7424.0,-2252.0,-46.0,0.664,-0.066,0.737,-0.105
1608641,-7618.0,-2816.0,-452.0,0.666,-0.064,0.736,-0.103
1608651,-8280.0,-2368.0,-96.0,0.669,-0.063,0.733,-0.102
1608669,-8074.0,-2422.0,-68.0,0.672,-0.061,0.731,-0.101
1608688,-7744.0,-2078.0,-168.0,0.674,-0.061,0.729,-0.099
1608707,-8036.0,-1806.0,110.0,0.677,-0.06,0.728,-0.096
1608726,-7750.0,-2412.0,-752.0,0.679,-0.06,0.726,-0.091
1608746,-8646.0,-1834.0,130.0,0.682,-0.06,0.724,-0.086
1608755,-8350.0,-1778.0,-4.0,0.685,-0.059,0.722,-0.081
1608773,-8056.0,-2120.0,-198.0,0.688,-0.058,0.719,-0.075
1608792,-8180.0,-1384.0,446.0,0.692,-0.057,0.716,-0.069
1608811,-7756.0,-760.0,236.0,0.696,-0.056,0.713,-0.062
1608830,-7422.0,-1714.0,198.0,0.701,-0.055,0.709,-0.055
1608849,-7180.0,-1728.0,526.0,0.706,-0.054,0.704,-0.049
1608867,-6692.0,-1184.0,608.0,0.713,-0.051,0.698,-0.046
1608885,-6398.0,-542.0,890.0,0.72,-0.049,0.69,-0.042
1608902,-6216.0,144.0,854.0,0.729,-0.05,0.681,-0.036
1608921,-5410.0,-734.0,854.0,0.738,-0.05,0.672,-0.03
1608930,-4536.0,-1158.0,-42.0,0.744,-0.05,0.666,-0.027
1608949,-4348.0,198.0,62.0,0.747,-0.05,0.662,-0.023
1608968,-5280.0,-402.0,674.0,0.747,-0.051,0.662,-0.017
1608987,-5882.0,-1192.0,384.0,0.746,-0.051,0.664,-0.013
1609005,-6926.0,-158.0,892.0,0.743,-0.052,0.667,-0.008
1609024,-7446.0,-1054.0,962.0,0.741,-0.053,0.67,-0.003
1609042,-7834.0,-1412.0,988.0,0.739,-0.054,0.672,0.001
1609062,-8034.0,-1260.0,1152.0,0.737,-0.054,0.673,0.005
1609070,-8252.0,-612.0,1324.0,0.737,-0.055,0.674,0.009
1609088,-7812.0,-1444.0,1132.0,0.736,-0.056,0.674,0.013
1609106,-6896.0,-1532.0,546.0,0.737,-0.055,0.674,0.015
1609124,-6580.0,-378.0,668.0,0.737,-0.055,0.673,0.016
1609141,-6612.0,-792.0,658.0,0.737,-0.055,0.673,0.017
1609161,-6630.0,-914.0,604.0,0.738,-0.055,0.673,0.018
1609181,-6534.0,-1172.0,552.0,0.738,-0.055,0.673,0.017
1609199,-6528.0,-1032.0,394.0,0.738,-0.054,0.673,0.014
1609218,-7084.0,-1550.0,500.0,0.737,-0.053,0.673,0.012
1609231,-7522.0,-610.0,838.0,0.737,-0.052,0.673,0.009
1609250,-7222.0,-968.0,230.0,0.738,-0.051,0.673,0.007
1609268,-7222.0,-1258.0,454.0,0.738,-0.05,0.673,0.005
1609287,-7148.0,-1236.0,724.0,0.738,-0.05,0.673,0.002
1609305,-6922.0,-1728.0,380.0,0.739,-0.05,0.672,-0.002
1609314,-7104.0,-402.0,756.0,0.739,-0.049,0.672,-0.005
1609332,-7048.0,-912.0,982.0,0.74,-0.049,0.671,-0.009
1609351,-6468.0,-1592.0,450.0,0.74,-0.049,0.671,-0.012
1609370,-6896.0,-938.0,1196.0,0.74,-0.049,0.671,-0.016
1609388,-7048.0,-760.0,828.0,0.739,-0.049,0.672,-0.02
1609406,-7376.0,-796.0,804.0,0.738,-0.051,0.673,-0.023
1609424,-7270.0,-334.0,1052.0,0.737,-0.054,0.673,-0.025
1609442,-7862.0,-1648.0,900.0,0.736,-0.058,0.674,-0.026
1609461,-8192.0,-1432.0,1058.0,0.736,-0.063,0.673,-0.03
1609481,-7798.0,-776.0,744.0,0.736,-0.066,0.673,-0.033
1609490,-6946.0,-338.0,714.0,0.736,-0.069,0.673,-0.036
1609508,-6128.0,-404.0,710.0,0.735,-0.073,0.673,-0.039
1609527,-6288.0,-656.0,136.0,0.733,-0.077,0.674,-0.041
1609546,-6840.0,-884.0,994.0,0.732,-0.082,0.675,-0.045
1609565,-7384.0,-864.0,1134.0,0.731,-0.087,0.675,-0.048
1609583,-7148.0,-964.0,406.0,0.73,-0.092,0.676,-0.05
1609601,-6932.0,-1282.0,634.0,0.728,-0.095,0.677,-0.052
1609619,-7438.0,-1504.0,1280.0,0.726,-0.1,0.679,-0.053
1609637,-6976.0,-2260.0,412.0,0.724,-0.103,0.68,-0.055
1609646,-7626.0,-1748.0,928.0,0.722,-0.106,0.682,-0.058
1609665,-7568.0,-1244.0,574.0,0.719,-0.108,0.684,-0.06
1609684,-7788.0,-2582.0,168.0,0.715,-0.11,0.687,-0.06
1609703,-8848.0,-3488.0,926.0,0.712,-0.113,0.69,-0.062
1609722,-8484.0,-1740.0,246.0,0.71,-0.114,0.692,-0.065
1609740,-8988.0,-2100.0,332.0,0.708,-0.114,0.694,-0.066
1609758,-9684.0,-3548.0,1108.0,0.708,-0.116,0.694,-0.068
1609777,-8892.0,-2092.0,290.0,0.71,-0.119,0.691,-0.072
1609787,-8944.0,-2348.0,844.0,0.712,-0.121,0.687,-0.076
1609805,-8458.0,-2438.0,398.0,0.715,-0.124,0.683,-0.08
1609823,-8826.0,-2166.0,484.0,0.717,-0.125,0.68,-0.083
1609841,-8610.0,-2540.0,524.0,0.72,-0.127,0.677,-0.086
1609860,-7986.0,-2100.0,374.0,0.722,-0.128,0.674,-0.088
1609879,-7866.0,-2280.0,586.0,0.724,-0.129,0.672,-0.09
1609898,-7828.0,-1990.0,982.0,0.726,-0.131,0.67,-0.09
1609916,-7476.0,-1976.0,782.0,0.726,-0.133,0.669,-0.089
1609934,-7562.0,-1656.0,1078.0,0.726,-0.135,0.669,-0.087
1609943,-7578.0,-2184.0,1164.0,0.725,-0.137,0.669,-0.085
1609961,-7490.0,-1706.0,1338.0,0.724,-0.139,0.67,-0.083
1609980,-7328.0,-1644.0,1050.0,0.723,-0.141,0.671,-0.081
1609999,-7698.0,-1840.0,1164.0,0.721,-0.143,0.674,-0.078
1610017,-8014.0,-1858.0,1080.0,0.718,-0.145,0.676,-0.075
1610036,-8176.0,-1746.0,944.0,0.715,-0.148,0.679,-0.071
1610054,-8216.0,-1896.0,736.0,0.712,-0.149,0.683,-0.067
1610072,-8500.0,-2424.0,648.0,0.708,-0.151,0.687,-0.063
1610090,-9142.0,-3048.0,382.0,0.705,-0.152,0.69,-0.062
1610109,-9574.0,-3008.0,384.0,0.703,-0.153,0.692,-0.061
1610118,-9550.0,-3006.0,266.0,0.701,-0.154,0.693,-0.062
1610135,-9568.0,-2854.0,10.0,0.701,-0.155,0.694,-0.063
1610154,-9364.0,-3408.0,-238.0,0.701,-0.156,0.693,-0.065
1610172,-9300.0,-3550.0,-208.0,0.701,-0.156,0.693,-0.067
1610190,-9166.0,-3422.0,-234.0,0.701,-0.156,0.692,-0.071
1610208,-8794.0,-3320.0,-126.0,0.702,-0.156,0.691,-0.075
1610226,-8576.0,-3318.0,-34.0,0.702,-0.155,0.691,-0.079
1610244,-8526.0,-3418.0,76.0,0.702,-0.154,0.69,-0.082
1610263,-8504.0,-3196.0,142.0,0.702,-0.152,0.691,-0.086
1610282,-8470.0,-3558.0,142.0,0.701,-0.15,0.692,-0.089
1610301,-8624.0,-3570.0,148.0,0.699,-0.147,0.693,-0.092
1610311,-8598.0,-3442.0,14.0,0.698,-0.144,0.695,-0.096
1610329,-8950.0,-3326.0,106.0,0.697,-0.14,0.696,-0.1
1610348,-8686.0,-3310.0,-262.0,0.695,-0.136,0.698,-0.104
1610366,-8668.0,-3498.0,-282.0,0.693,-0.131,0.701,-0.107
1610383,-8726.0,-3426.0,-270.0,0.691,-0.126,0.703,-0.111
1610401,-8736.0,-3446.0,-416.0,0.688,-0.121,0.706,-0.115
1610420,-8990.0,-3480.0,-372.0,0.686,-0.116,0.708,-0.119
1610439,-8768.0,-3834.0,-734.0,0.684,-0.111,0.711,-0.123
1610457,-8782.0,-3996.0,-780.0,0.682,-0.106,0.712,-0.128
1610477,-8928.0,-3848.0,-818.0,0.68,-0.102,0.714,-0.132
1610487,-8836.0,-4250.0,-976.0,0.678,-0.098,0.716,-0.137
1610505,-8916.0,-4146.0,-1226.0,0.676,-0.094,0.717,-0.14
1610523,-9124.0,-4184.0,-1108.0,0.675,-0.091,0.718,-0.143
1610542,-8572.0,-3728.0,-1538.0,0.674,-0.09,0.718,-0.145
1610561,-9286.0,-4088.0,-1134.0,0.673,-0.09,0.719,-0.145
1610581,-9760.0,-4206.0,-1208.0,0.673,-0.091,0.72,-0.143
1610590,-10356.0,-4178.0,-934.0,0.674,-0.093,0.719,-0.141
1610609,-10528.0,-4524.0,-782.0,0.676,-0.097,0.717,-0.139
1610628,-10486.0,-4068.0,-628.0,0.678,-0.101,0.715,-0.137
1610647,-10216.0,-3308.0,-838.0,0.68,-0.106,0.713,-0.135
1610666,-10074.0,-2848.0,-672.0,0.681,-0.111,0.712,-0.133
1610685,-9822.0,-2976.0,-384.0,0.682,-0.117,0.711,-0.13
1610704,-9200.0,-2330.0,-330.0,0.682,-0.123,0.71,-0.127
1610714,-8528.0,-2206.0,-502.0,0.681,-0.13,0.71,-0.123
1610733,-8348.0,-2112.0,-238.0,0.679,-0.136,0.711,-0.119
1610752,-8364.0,-2024.0,74.0,0.677,-0.142,0.713,-0.115
1610771,-8158.0,-2658.0,32.0,0.674,-0.149,0.715,-0.111
1610789,-7692.0,-2394.0,-114.0,0.671,-0.155,0.717,-0.107
1610808,-7574.0,-2468.0,-166.0,0.668,-0.161,0.719,-0.104
1610818,-7788.0,-2478.0,-234.0,0.664,-0.167,0.721,-0.101
1610836,-7996.0,-3088.0,-100.0,0.661,-0.173,0.723,-0.098
1610855,-7704.0,-2960.0,-474.0,0.659,-0.179,0.724,-0.095
1610873,-7050.0,-4186.0,-1510.0,0.656,-0.184,0.726,-0.094
1610891,-8828.0,-3550.0,-648.0,0.654,-0.19,0.726,-0.093
1610911,-9062.0,-4252.0,-886.0,0.654,-0.195,0.725,-0.091
1610930,-8482.0,-4214.0,-1420.0,0.656,-0.2,0.722,-0.09
1610939,-8606.0,-3920.0,-724.0,0.659,-0.206,0.718,-0.088
1610957,-8220.0,-4412.0,-786.0,0.663,-0.211,0.713,-0.086
1610976,-8258.0,-4166.0,-886.0,0.668,-0.215,0.707,-0.083
1610995,-8056.0,-3890.0,-598.0,0.674,-0.219,0.701,-0.079
1611015,-7966.0,-3708.0,-364.0,0.679,-0.222,0.696,-0.075
1611032,-7374.0,-2846.0,-646.0,0.685,-0.223,0.691,-0.069
1611049,-7470.0,-3380.0,-272.0,0.689,-0.224,0.686,-0.061
1611068,-7170.0,-3064.0,-270.0,0.695,-0.224,0.681,-0.054
1611086,-7000.0,-2290.0,348.0,0.7,-0.224,0.677,-0.045
1611105,-6920.0,-2948.0,522.0,0.704,-0.223,0.673,-0.037
1611113,-6364.0,-2414.0,74.0,0.709,-0.222,0.669,-0.028
1611132,-6478.0,-2610.0,426.0,0.713,-0.221,0.666,-0.019
1611151,-5968.0,-2202.0,500.0,0.716,-0.218,0.663,-0.01
1611169,-5820.0,-2340.0,106.0,0.72,-0.216,0.66,-0.001
1611188,-5880.0,-2056.0,362.0,0.722,-0.213,0.658,0.009
1611206,-6370.0,-2252.0,456.0,0.725,-0.209,0.656,0.019
1611225,-6454.0,-1892.0,684.0,0.728,-0.205,0.654,0.03
1611244,-6704.0,-1622.0,726.0,0.731,-0.2,0.651,0.041
1611264,-6610.0,-1960.0,702.0,0.733,-0.195,0.649,0.053
1611273,-6768.0,-1066.0,836.0,0.735,-0.189,0.648,0.065
1611291,-6972.0,-2208.0,828.0,0.737,-0.182,0.646,0.078
1611309,-6472.0,-664.0,1278.0,0.74,-0.175,0.643,0.091
1611329,-5522.0,-2154.0,1080.0,0.741,-0.168,0.642,0.103
1611347,-4728.0,-1398.0,566.0,0.741,-0.159,0.642,0.113
1611366,-5216.0,-1096.0,878.0,0.74,-0.151,0.644,0.121
1611385,-5714.0,-936.0,1112.0,0.739,-0.143,0.645,0.128
1611394,-6000.0,-1476.0,730.0,0.739,-0.135,0.647,0.133
1611411,-5970.0,-1280.0,618.0,0.739,-0.127,0.648,0.134
1611431,-6932.0,-528.0,1184.0,0.738,-0.12,0.65,0.135
1611449,-6870.0,-96.0,1042.0,0.739,-0.115,0.65,0.135
1611468,-6696.0,-604.0,632.0,0.739,-0.11,0.651,0.135
1611488,-7258.0,-1096.0,660.0,0.739,-0.106,0.652,0.134
1611507,-7510.0,-436.0,872.0,0.739,-0.102,0.652,0.132
1611516,-7350.0,-168.0,736.0,0.74,-0.1,0.653,0.13
1611534,-7570.0,-500.0,926.0,0.74,-0.098,0.653,0.128
1611554,-7498.0,-544.0,904.0,0.741,-0.096,0.653,0.124
1611573,-7176.0,-160.0,912.0,0.741,-0.095,0.654,0.119
1611591,-7402.0,-32.0,1194.0,0.742,-0.094,0.654,0.115
1611610,-7268.0,-124.0,1180.0,0.742,-0.094,0.654,0.11
1611630,-7518.0,-208.0,1204.0,0.743,-0.094,0.654,0.105
1611640,-7242.0,-430.0,1100.0,0.744,-0.094,0.655,0.099
1611658,-6736.0,48.0,1020.0,0.744,-0.095,0.655,0.093
1611676,-6486.0,444.0,904.0,0.743,-0.095,0.657,0.086
1611695,-6576.0,-332.0,1318.0,0.743,-0.097,0.658,0.079
1611714,-6412.0,-442.0,1142.0,0.742,-0.099,0.659,0.071
1611733,-6304.0,-148.0,754.0,0.741,-0.102,0.661,0.062
1611751,-6610.0,-198.0,866.0,0.74,-0.103,0.663,0.054
1611769,-6798.0,-88.0,892.0,0.737,-0.106,0.666,0.046
1611777,-7280.0,-708.0,846.0,0.734,-0.11,0.669,0.039
1611796,-7292.0,-1568.0,168.0,0.731,-0.113,0.672,0.031
1611815,-7374.0,-1042.0,310.0,0.728,-0.116,0.676,0.024
1611834,-7344.0,-906.0,216.0,0.723,-0.118,0.68,0.017
1611853,-7716.0,-2680.0,54.0,0.718,-0.122,0.685,0.011
1611871,-8346.0,-1916.0,350.0,0.714,-0.124,0.689,0.004
1611890,-7576.0,-1562.0,156.0,0.709,-0.126,0.693,-0.002
1611909,-6660.0,-1556.0,-498.0,0.704,-0.127,0.699,-0.007
1611919,-7700.0,-2408.0,470.0,0.699,-0.129,0.704,-0.012
1611937,-7732.0,-1730.0,372.0,0.694,-0.129,0.708,-0.017
1611955,-7034.0,-1578.0,-272.0,0.69,-0.129,0.712,-0.022
1611973,-7178.0,-1804.0,-284.0,0.686,-0.129,0.716,-0.028
1611992,-7700.0,-1354.0,18.0,0.682,-0.129,0.719,-0.033
1612012,-7876.0,-1786.0,-86.0,0.678,-0.129,0.722,-0.037
1612031,-7796.0,-1770.0,-506.0,0.675,-0.129,0.725,-0.042
1612040,-8116.0,-1810.0,-440.0,0.672,-0.129,0.728,-0.046
1612059,-8442.0,-2040.0,-420.0,0.669,-0.129,0.73,-0.05
1612078,-8342.0,-1492.0,-758.0,0.667,-0.13,0.732,-0.053
1612097,-8720.0,-2208.0,-738.0,0.664,-0.131,0.734,-0.056
1612117,-8728.0,-1980.0,-1034.0,0.662,-0.132,0.735,-0.058
1612137,-8614.0,-1808.0,-982.0,0.659,-0.134,0.737,-0.06
1612146,-8664.0,-2032.0,-994.0,0.656,-0.135,0.74,-0.061
1612165,-9016.0,-2222.0,-950.0,0.652,-0.137,0.743,-0.062
1612184,-8988.0,-2042.0,-1018.0,0.648,-0.14,0.746,-0.062
1612201,-9192.0,-2284.0,-944.0,0.645,-0.143,0.748,-0.062
1612219,-8918.0,-2176.0,-1068.0,0.642,-0.146,0.75,-0.062
1612237,-8448.0,-2376.0,-1246.0,0.639,-0.15,0.752,-0.061
1612256,-7976.0,-2478.0,-1716.0,0.636,-0.153,0.754,-0.061
1612275,-9122.0,-2872.0,-1062.0,0.634,-0.156,0.755,-0.062
1612294,-8484.0,-2454.0,-1950.0,0.632,-0.159,0.756,-0.062
1612303,-8324.0,-2710.0,-1894.0,0.631,-0.162,0.756,-0.061
1612321,-8274.0,-2574.0,-1714.0,0.631,-0.165,0.755,-0.061
1612340,-8058.0,-2798.0,-1606.0,0.632,-0.167,0.755,-0.06
1612360,-7754.0,-2132.0,-1500.0,0.633,-0.169,0.753,-0.06
1612380,-7518.0,-2282.0,-1392.0,0.634,-0.171,0.752,-0.059
1612399,-7232.0,-1996.0,-1430.0,0.635,-0.173,0.75,-0.059
1612409,-7094.0,-1938.0,-1274.0,0.637,-0.174,0.749,-0.058
1612428,-6966.0,-1902.0,-1350.0,0.638,-0.174,0.748,-0.058
1612447,-6934.0,-1986.0,-1394.0,0.639,-0.174,0.747,-0.057
1612466,-7116.0,-1882.0,-1182.0,0.641,-0.174,0.746,-0.055
1612485,-7542.0,-2204.0,-1030.0,0.642,-0.172,0.745,-0.052
1612505,-7712.0,-2524.0,-1302.0,0.644,-0.17,0.745,-0.049
1612514,-8182.0,-2886.0,-988.0,0.645,-0.168,0.744,-0.047
1612532,-8486.0,-2760.0,-1218.0,0.647,-0.167,0.742,-0.045
1612552,-9014.0,-3024.0,-1242.0,0.649,-0.165,0.742,-0.043
1612572,-9372.0,-3006.0,-1378.0,0.651,-0.163,0.741,-0.041
1612591,-9330.0,-2908.0,-1626.0,0.652,-0.16,0.74,-0.04
1612599,-9498.0,-2902.0,-1740.0,0.653,-0.157,0.74,-0.039
1612618,-9578.0,-2882.0,-1880.0,0.653,-0.154,0.74,-0.037
1612636,-9580.0,-2958.0,-1892.0,0.654,-0.15,0.741,-0.036
1612656,-10030.0,-2972.0,-1716.0,0.654,-0.146,0.741,-0.035
1612675,-9976.0,-3390.0,-1808.0,0.655,-0.141,0.741,-0.034
1612694,-9906.0,-2952.0,-1720.0,0.656,-0.137,0.741,-0.034
1612713,-9948.0,-3182.0,-1606.0,0.657,-0.133,0.741,-0.034
1612723,-9786.0,-2986.0,-1478.0,0.659,-0.129,0.74,-0.036
1612741,-9484.0,-2658.0,-1546.0,0.661,-0.125,0.739,-0.038
1612760,-9404.0,-2580.0,-1228.0,0.663,-0.121,0.738,-0.041
1612779,-8962.0,-2508.0,-1332.0,0.665,-0.117,0.737,-0.044
1612799,-8850.0,-2090.0,-1142.0,0.666,-0.115,0.735,-0.047
1612817,-8584.0,-2116.0,-1200.0,0.667,-0.113,0.735,-0.05
1612835,-8552.0,-2068.0,-940.0,0.668,-0.111,0.734,-0.053
1612844,-8172.0,-1818.0,-1192.0,0.668,-0.11,0.734,-0.056
1612863,-8058.0,-1646.0,-1234.0,0.667,-0.109,0.735,-0.058
1612882,-8106.0,-2176.0,-1322.0,0.665,-0.11,0.736,-0.06
1612901,-8370.0,-2206.0,-1236.0,0.663,-0.11,0.738,-0.062
1612920,-8904.0,-2328.0,-1024.0,0.661,-0.111,0.739,-0.064
1612939,-8696.0,-2522.0,-1386.0,0.66,-0.111,0.74,-0.066
1612956,-8726.0,-2362.0,-1524.0,0.658,-0.112,0.742,-0.067
1612974,-8804.0,-2552.0,-1676.0,0.656,-0.113,0.743,-0.069
1612992,-9196.0,-2760.0,-1474.0,0.654,-0.114,0.745,-0.07
1613010,-9016.0,-2632.0,-1608.0,0.653,-0.115,0.745,-0.071
1613020,-8756.0,-2526.0,-1702.0,0.652,-0.115,0.746,-0.073
1613038,-8690.0,-2062.0,-1738.0,0.65,-0.115,0.747,-0.074
1613056,-8440.0,-2164.0,-1812.0,0.648,-0.115,0.749,-0.075
1613074,-8644.0,-2280.0,-1548.0,0.646,-0.115,0.751,-0.075
1613093,-8672.0,-2252.0,-1568.0,0.643,-0.114,0.754,-0.075
1613112,-8700.0,-2476.0,-1528.0,0.64,-0.113,0.756,-0.076
1613132,-8812.0,-2078.0,-1548.0,0.636,-0.112,0.759,-0.077
1613142,-8790.0,-2432.0,-1530.0,0.633,-0.111,0.763,-0.077
1613160,-9002.0,-2194.0,-1474.0,0.629,-0.11,0.766,-0.078
1613181,-9216.0,-2590.0,-1282.0,0.625,-0.108,0.769,-0.078
1613200,-8854.0,-2562.0,-1440.0,0.622,-0.107,0.772,-0.079
1613220,-8846.0,-2602.0,-1278.0,0.619,-0.105,0.774,-0.08
1613229,-8784.0,-2594.0,-1134.0,0.616,-0.104,0.776,-0.082
1613248,-8260.0,-2566.0,-1276.0,0.615,-0.102,0.777,-0.085
1613267,-8496.0,-2510.0,-928.0,0.614,-0.1,0.778,-0.088
1613286,-8098.0,-2780.0,-1182.0,0.615,-0.098,0.777,-0.091
1613304,-7874.0,-2438.0,-1194.0,0.616,-0.096,0.776,-0.095
1613322,-7778.0,-2564.0,-1086.0,0.619,-0.093,0.773,-0.099
1613341,-7428.0,-2526.0,-1202.0,0.622,-0.091,0.771,-0.103
1613360,-7324.0,-2186.0,-1336.0,0.625,-0.088,0.768,-0.106
1613369,-7258.0,-2564.0,-1428.0,0.629,-0.086,0.765,-0.109
1613388,-7578.0,-2452.0,-1096.0,0.633,-0.084,0.762,-0.11
1613406,-7544.0,-2446.0,-1052.0,0.638,-0.081,0.758,-0.11
1613423,-7386.0,-1942.0,-708.0,0.642,-0.079,0.755,-0.109
1613442,-6960.0,-1970.0,-584.0,0.646,-0.077,0.752,-0.105
1613459,-6764.0,-1680.0,-626.0,0.649,-0.076,0.75,-0.099
1613476,-7032.0,-2718.0,-994.0,0.651,-0.075,0.75,-0.091
1613494,-7866.0,-2410.0,-674.0,0.653,-0.074,0.749,-0.084
1613512,-8314.0,-2398.0,-382.0,0.655,-0.071,0.748,-0.077
1613531,-7994.0,-2298.0,-696.0,0.657,-0.068,0.747,-0.071
1613549,-8108.0,-1740.0,-522.0,0.659,-0.065,0.746,-0.065
1613568,-8490.0,-1446.0,-416.0,0.662,-0.062,0.745,-0.058
1613587,-8458.0,-1388.0,-744.0,0.665,-0.059,0.743,-0.052
1613596,-8192.0,-1562.0,-614.0,0.669,-0.056,0.74,-0.045
1613615,-8122.0,-1548.0,-486.0,0.673,-0.053,0.736,-0.04
1613634,-7952.0,-1234.0,-562.0,0.678,-0.05,0.732,-0.035
1613654,-8074.0,-814.0,-574.0,0.683,-0.047,0.729,-0.029
1613673,-8108.0,-804.0,-792.0,0.687,-0.044,0.725,-0.022
1613693,-8230.0,-1000.0,-1018.0,0.69,-0.043,0.722,-0.016
1613703,-8906.0,-574.0,-336.0,0.694,-0.041,0.719,-0.008
1613721,-8928.0,-1138.0,-166.0,0.698,-0.039,0.715,-0.0
1613740,-8896.0,-502.0,496.0,0.703,-0.038,0.71,0.008
1613758,-8296.0,-910.0,338.0,0.709,-0.036,0.705,0.016
1613777,-7268.0,-460.0,-52.0,0.714,-0.034,0.699,0.024
1613796,-6146.0,980.0,50.0,0.718,-0.034,0.694,0.034
1613806,-5358.0,64.0,404.0,0.721,-0.033,0.69,0.046
1613823,-4682.0,-504.0,424.0,0.724,-0.032,0.687,0.057
1613841,-4594.0,-862.0,324.0,0.724,-0.029,0.686,0.066
1613860,-5018.0,1050.0,644.0,0.724,-0.026,0.685,0.073
1613877,-5508.0,22.0,868.0,0.724,-0.026,0.684,0.081
1613896,-6078.0,-144.0,884.0,0.724,-0.027,0.683,0.087
1613914,-6258.0,776.0,480.0,0.724,-0.028,0.683,0.092
1613933,-6738.0,248.0,552.0,0.724,-0.03,0.682,0.097
1613951,-7180.0,702.0,448.0,0.724,-0.031,0.681,0.101
1613968,-7718.0,606.0,530.0,0.725,-0.033,0.68,0.105
1613985,-8370.0,676.0,354.0,0.725,-0.035,0.679,0.109
1614002,-8246.0,342.0,352.0,0.726,-0.036,0.677,0.114
1614020,-7770.0,838.0,396.0,0.726,-0.036,0.676,0.119
1614040,-8152.0,750.0,644.0,0.727,-0.035,0.675,0.124
1614058,-7988.0,558.0,866.0,0.727,-0.035,0.674,0.129
1614076,-7490.0,-58.0,706.0,0.726,-0.034,0.674,0.132
1614085,-7670.0,704.0,912.0,0.726,-0.033,0.674,0.134
1614102,-7930.0,402.0,1138.0,0.725,-0.033,0.675,0.134
1614121,-7400.0,968.0,814.0,0.724,-0.032,0.676,0.133
1614139,-7068.0,750.0,678.0,0.723,-0.031,0.677,0.131
1614157,-7530.0,1104.0,632.0,0.722,-0.031,0.679,0.128
1614175,-7622.0,834.0,570.0,0.721,-0.032,0.681,0.125
1614194,-7438.0,1090.0,514.0,0.72,-0.031,0.683,0.12
1614213,-7214.0,1200.0,254.0,0.72,-0.031,0.684,0.114
1614231,-7382.0,1056.0,602.0,0.719,-0.032,0.686,0.109
1614249,-7146.0,1070.0,314.0,0.719,-0.033,0.687,0.102
1614267,-6732.0,772.0,264.0,0.718,-0.033,0.689,0.094
1614285,-6656.0,1322.0,60.0,0.717,-0.035,0.691,0.086
1614303,-6618.0,820.0,218.0,0.716,-0.037,0.693,0.078
1614312,-6622.0,1246.0,28.0,0.715,-0.041,0.695,0.07
1614330,-6318.0,226.0,-18.0,0.713,-0.045,0.697,0.061
1614347,-6998.0,842.0,-98.0,0.711,-0.049,0.699,0.052
1614366,-7636.0,292.0,124.0,0.71,-0.055,0.701,0.044
1614385,-7256.0,186.0,-124.0,0.708,-0.06,0.702,0.036
1614404,-6710.0,-274.0,-714.0,0.706,-0.066,0.704,0.027
1614422,-7600.0,186.0,-600.0,0.703,-0.072,0.708,0.02
1614440,-8194.0,-1156.0,-920.0,0.699,-0.077,0.711,0.014
1614458,-7738.0,-1060.0,-1230.0,0.695,-0.081,0.715,0.008
1614477,-6828.0,-746.0,-1276.0,0.69,-0.084,0.719,0.002
1614497,-6572.0,-1260.0,-2174.0,0.683,-0.087,0.725,-0.001
1614506,-8030.0,-1452.0,-1458.0,0.676,-0.087,0.732,-0.005
1614524,-8356.0,-2418.0,-940.0,0.671,-0.086,0.736,-0.009
1614543,-7740.0,-1494.0,-990.0,0.668,-0.084,0.739,-0.014
1614562,-7048.0,-1046.0,-1444.0,0.665,-0.082,0.742,-0.02
1614583,-7370.0,-1386.0,-662.0,0.663,-0.081,0.744,-0.025
1614592,-7338.0,-886.0,-564.0,0.661,-0.079,0.745,-0.031
1614611,-7058.0,-1016.0,-634.0,0.66,-0.077,0.746,-0.039
1614631,-7206.0,-946.0,-1068.0,0.659,-0.075,0.747,-0.046
1614650,-7426.0,-866.0,-898.0,0.658,-0.074,0.748,-0.052
1614670,-7116.0,-400.0,-762.0,0.657,-0.072,0.748,-0.059
1614679,-6660.0,-164.0,-1752.0,0.654,-0.073,0.75,-0.064
1614697,-7640.0,-2134.0,-2076.0,0.65,-0.073,0.753,-0.068
1614716,-9380.0,-2322.0,-1050.0,0.647,-0.072,0.756,-0.074
1614735,-9236.0,-2674.0,-1254.0,0.645,-0.068,0.757,-0.08
1614754,-9022.0,-1880.0,-1344.0,0.643,-0.065,0.758,-0.087
1614772,-8882.0,-1840.0,-1270.0,0.642,-0.063,0.759,-0.093
1614791,-9474.0,-2554.0,-480.0,0.641,-0.061,0.759,-0.099
1614810,-9178.0,-2396.0,-922.0,0.641,-0.06,0.758,-0.106
1614820,-9296.0,-1772.0,-626.0,0.643,-0.06,0.755,-0.114
1614838,-9226.0,-1820.0,-806.0,0.644,-0.06,0.753,-0.121
1614857,-9428.0,-1946.0,-864.0,0.646,-0.06,0.75,-0.128
1614876,-9056.0,-1962.0,-936.0,0.648,-0.061,0.747,-0.134
1614896,-8992.0,-2178.0,-792.0,0.65,-0.062,0.744,-0.139
1614913,-8740.0,-2008.0,-718.0,0.652,-0.063,0.742,-0.144
1614932,-8644.0,-2472.0,-568.0,0.653,-0.065,0.74,-0.148
1614941,-8810.0,-2156.0,-322.0,0.654,-0.067,0.738,-0.151
1614960,-8600.0,-2694.0,-396.0,0.655,-0.069,0.737,-0.154
1614980,-8616.0,-2946.0,-146.0,0.655,-0.072,0.736,-0.155
1614999,-8276.0,-3312.0,-362.0,0.655,-0.074,0.735,-0.157
1615017,-8276.0,-3026.0,-248.0,0.655,-0.076,0.735,-0.157
1615036,-7882.0,-2796.0,-602.0,0.655,-0.078,0.735,-0.156
1615055,-7844.0,-3076.0,-426.0,0.654,-0.081,0.736,-0.153
1615063,-7822.0,-3026.0,-564.0,0.653,-0.082,0.738,-0.149
1615082,-7942.0,-3012.0,-512.0,0.652,-0.083,0.74,-0.144
1615101,-8064.0,-3214.0,-540.0,0.651,-0.083,0.742,-0.139
1615118,-8124.0,-3010.0,-454.0,0.65,-0.083,0.744,-0.133
1615137,-7982.0,-2756.0,-566.0,0.649,-0.081,0.745,-0.128
1615154,-8116.0,-2294.0,-522.0,0.649,-0.08,0.747,-0.122
1615171,-8078.0,-2646.0,-628.0,0.649,-0.077,0.747,-0.116
1615188,-8178.0,-2506.0,-620.0,0.651,-0.074,0.748,-0.11
1615205,-8124.0,-2528.0,-758.0,0.652,-0.07,0.747,-0.106
1615223,-8140.0,-2160.0,-860.0,0.655,-0.066,0.746,-0.101
1615240,-8192.0,-2334.0,-948.0,0.658,-0.062,0.745,-0.097
1615257,-8178.0,-2228.0,-1124.0,0.661,-0.057,0.743,-0.093
1615274,-8440.0,-2302.0,-1096.0,0.664,-0.051,0.74,-0.09
1615291,-8688.0,-2172.0,-1160.0,0.668,-0.045,0.738,-0.087
1615308,-8984.0,-2424.0,-1072.0,0.672,-0.039,0.734,-0.085
1615325,-9068.0,-1934.0,-1238.0,0.677,-0.033,0.731,-0.083
1615342,-9348.0,-2092.0,-1100.0,0.681,-0.027,0.728,-0.082
1615359,-9662.0,-2392.0,-1012.0,0.685,-0.021,0.724,-0.08
1615376,-9900.0,-2176.0,-858.0,0.688,-0.016,0.721,-0.079
1615393,-9932.0,-2096.0,-872.0,0.692,-0.011,0.717,-0.079
1615410,-9904.0,-1974.0,-652.0,0.696,-0.006,0.714,-0.079
1615429,-9942.0,-1814.0,-568.0,0.698,-0.003,0.711,-0.078
1615448,-9828.0,-1698.0,-480.0,0.701,-0.0,0.709,-0.078
1615466,-9744.0,-1416.0,-314.0,0.702,0.002,0.707,-0.078
1615484,-9452.0,-1394.0,-292.0,0.704,0.003,0.706,-0.078
1615502,-9288.0,-1104.0,-248.0,0.704,0.004,0.706,-0.078
1615520,-9292.0,-1608.0,-416.0,0.704,0.003,0.706,-0.077
1615539,-10292.0,-1700.0,-400.0,0.703,0.002,0.706,-0.078
1615557,-10902.0,-2692.0,-634.0,0.704,-0.0,0.706,-0.08
1615577,-11062.0,-1670.0,-488.0,0.706,-0.004,0.704,-0.083
1615597,-11420.0,-2152.0,-320.0,0.708,-0.01,0.701,-0.086
1615607,-10960.0,-1954.0,-356.0,0.712,-0.015,0.696,-0.089
1615626,-10490.0,-1946.0,-94.0,0.716,-0.02,0.692,-0.092
1615646,-9678.0,-1068.0,268.0,0.72,-0.025,0.687,-0.093
1615665,-9052.0,-1000.0,256.0,0.724,-0.032,0.683,-0.093
1615682,-8626.0,-794.0,484.0,0.726,-0.038,0.68,-0.092
1615699,-8142.0,-862.0,580.0,0.729,-0.044,0.677,-0.091
1615718,-8066.0,-906.0,554.0,0.73,-0.05,0.676,-0.089
1615736,-8386.0,-596.0,1000.0,0.73,-0.056,0.675,-0.086
1615746,-8638.0,-1214.0,1064.0,0.731,-0.064,0.674,-0.083
1615764,-8956.0,-1742.0,1452.0,0.733,-0.072,0.672,-0.081
1615784,-9214.0,-1792.0,1316.0,0.735,-0.083,0.668,-0.081
1615802,-9392.0,-1882.0,1328.0,0.738,-0.094,0.663,-0.081
1615821,-9612.0,-2200.0,1808.0,0.743,-0.106,0.656,-0.082
1615840,-8872.0,-2208.0,1466.0,0.749,-0.117,0.647,-0.082
1615858,-7876.0,-2060.0,1496.0,0.754,-0.129,0.639,-0.082
1615877,-7864.0,-1388.0,1760.0,0.758,-0.141,0.632,-0.08
1615887,-7298.0,-1914.0,1604.0,0.762,-0.153,0.625,-0.077
1615904,-6926.0,-1850.0,1798.0,0.765,-0.164,0.619,-0.073
1615923,-6522.0,-1676.0,1892.0,0.766,-0.175,0.614,-0.068
1615941,-6476.0,-1818.0,1922.0,0.766,-0.187,0.612,-0.062
1615959,-6658.0,-2556.0,2210.0,0.765,-0.197,0.611,-0.056
1615978,-6698.0,-2390.0,2240.0,0.763,-0.207,0.611,-0.05
1615997,-6728.0,-2360.0,1912.0,0.759,-0.215,0.612,-0.043
1616015,-7082.0,-3246.0,2034.0,0.755,-0.224,0.615,-0.037
1616034,-7754.0,-3442.0,1584.0,0.751,-0.233,0.618,-0.03
1616041,-7946.0,-3474.0,1716.0,0.746,-0.24,0.62,-0.024
1616060,-7726.0,-3462.0,1572.0,0.742,-0.244,0.624,-0.018
1616079,-7564.0,-3208.0,688.0,0.737,-0.248,0.628,-0.011
1616098,-8210.0,-3756.0,766.0,0.732,-0.252,0.633,-0.004
1616117,-9252.0,-4806.0,1330.0,0.728,-0.254,0.637,0.004
1616135,-9220.0,-5136.0,1160.0,0.726,-0.251,0.641,0.011
1616154,-8408.0,-2752.0,764.0,0.726,-0.244,0.643,0.016
1616173,-8226.0,-3622.0,-44.0,0.725,-0.239,0.646,0.023
1616182,-8680.0,-2744.0,784.0,0.724,-0.231,0.649,0.029
1616200,-8792.0,-3360.0,1010.0,0.725,-0.222,0.651,0.035
1616218,-7084.0,-1948.0,84.0,0.726,-0.211,0.653,0.041
1616237,-7178.0,-1752.0,1072.0,0.727,-0.199,0.655,0.047
1616256,-6642.0,-2178.0,842.0,0.728,-0.184,0.658,0.052
1616275,-5954.0,-2052.0,360.0,0.729,-0.169,0.661,0.056
1616294,-5528.0,-670.0,612.0,0.73,-0.153,0.664,0.059
1616313,-5612.0,-1010.0,348.0,0.73,-0.137,0.667,0.061
1616332,-5354.0,-426.0,154.0,0.729,-0.12,0.671,0.064
1616342,-5206.0,-212.0,412.0,0.727,-0.105,0.675,0.067
1616359,-6074.0,-680.0,242.0,0.725,-0.089,0.679,0.07
1616377,-5644.0,-144.0,-128.0,0.723,-0.073,0.683,0.074
1616396,-5952.0,-178.0,174.0,0.72,-0.058,0.687,0.077
1616415,-5904.0,256.0,344.0,0.719,-0.043,0.69,0.078
1616434,-5918.0,-10.0,190.0,0.717,-0.029,0.692,0.079
1616453,-5570.0,-312.0,-76.0,0.715,-0.017,0.694,0.078
1616462,-5492.0,56.0,-262.0,0.713,-0.006,0.697,0.075
1616480,-6392.0,296.0,-236.0,0.711,0.005,0.699,0.071
1616498,-7314.0,768.0,-18.0,0.709,0.014,0.702,0.068
1616516,-7702.0,272.0,-264.0,0.708,0.023,0.703,0.065
1616535,-7534.0,982.0,-676.0,0.707,0.03,0.704,0.061
1616553,-7828.0,1416.0,-688.0,0.705,0.037,0.706,0.059
1616571,-8532.0,634.0,-516.0,0.704,0.044,0.706,0.057
1616589,-8332.0,974.0,-520.0,0.704,0.049,0.706,0.055
1616607,-7634.0,1182.0,-454.0,0.705,0.053,0.706,0.053
1616625,-7252.0,690.0,-360.0,0.705,0.056,0.705,0.05
1616643,-7666.0,722.0,64.0,0.706,0.058,0.705,0.045
1616663,-7406.0,1516.0,116.0,0.707,0.058,0.704,0.04
1616671,-7062.0,726.0,-136.0,0.709,0.057,0.702,0.035
1616689,-6458.0,818.0,-90.0,0.71,0.054,0.702,0.027
1616707,-6966.0,996.0,70.0,0.711,0.05,0.701,0.02
1616725,-6906.0,1142.0,-64.0,0.713,0.046,0.7,0.013
1616744,-6942.0,578.0,-2.0,0.714,0.04,0.699,0.006
1616763,-6098.0,328.0,-336.0,0.715,0.033,0.699,-0.003
1616782,-6374.0,856.0,34.0,0.715,0.025,0.699,-0.01
1616800,-6556.0,212.0,-118.0,0.714,0.016,0.7,-0.015
1616818,-6232.0,494.0,-328.0,0.713,0.006,0.701,-0.02
1616836,-6942.0,674.0,-586.0,0.71,-0.007,0.704,-0.021
1616854,-8370.0,-1410.0,-360.0,0.706,-0.019,0.707,-0.021
1616872,-8908.0,-1698.0,-414.0,0.703,-0.03,0.711,-0.022
1616880,-9100.0,-922.0,-196.0,0.699,-0.039,0.714,-0.024
1616898,-8790.0,-1928.0,48.0,0.697,-0.049,0.715,-0.026
1616916,-8466.0,-1436.0,-202.0,0.695,-0.059,0.716,-0.029
1616935,-8192.0,-1810.0,-166.0,0.694,-0.068,0.716,-0.033
1616953,-7238.0,-920.0,-362.0,0.694,-0.076,0.715,-0.037
1616972,-6700.0,-812.0,-1118.0,0.692,-0.084,0.716,-0.041
1616990,-7570.0,-1836.0,-282.0,0.691,-0.092,0.716,-0.044
1617009,-7292.0,-2086.0,-682.0,0.69,-0.1,0.715,-0.047
1617027,-6588.0,-2126.0,-878.0,0.69,-0.105,0.715,-0.051
1617047,-6816.0,-1426.0,-402.0,0.689,-0.11,0.714,-0.055
