timeMs,ax,ay,az,q0,q1,q2,q3
1974478,7139.0,4508.0,1447.0,0.044,-0.594,-0.211,-0.775
1974495,7149.0,4440.0,1403.0,0.045,-0.596,-0.21,-0.774
1974512,7103.0,4542.0,1223.0,0.047,-0.596,-0.209,-0.774
1974539,7031.0,4268.0,1291.0,0.048,-0.597,-0.21,-0.773
1974555,7021.0,4230.0,1219.0,0.05,-0.597,-0.211,-0.773
1974572,7011.0,4604.0,1077.0,0.051,-0.597,-0.213,-0.772
1974588,7023.0,4486.0,1103.0,0.051,-0.597,-0.216,-0.771
1974604,7261.0,4614.0,955.0,0.05,-0.597,-0.22,-0.77
1974621,7487.0,4716.0,831.0,0.049,-0.597,-0.225,-0.768
1974638,7637.0,4940.0,707.0,0.046,-0.598,-0.23,-0.767
1974654,7663.0,5370.0,623.0,0.042,-0.598,-0.236,-0.765
1974680,7597.0,5754.0,559.0,0.036,-0.599,-0.243,-0.762
1974696,7581.0,6050.0,493.0,0.027,-0.601,-0.25,-0.759
1974713,7777.0,6598.0,331.0,0.017,-0.602,-0.258,-0.755
1974730,8109.0,6766.0,233.0,0.003,-0.605,-0.266,-0.751
1974747,8349.0,6354.0,341.0,0.013,0.607,0.274,0.746
1974764,7917.0,7150.0,359.0,0.031,0.609,0.285,0.739
1974780,8325.0,7884.0,-227.0,0.051,0.612,0.295,0.732
1974796,8275.0,8584.0,-269.0,0.073,0.615,0.306,0.723
1974822,8435.0,8424.0,-581.0,0.097,0.617,0.315,0.714
1974838,8283.0,9246.0,-1087.0,0.124,0.619,0.325,0.704
1974855,7901.0,9242.0,-931.0,0.152,0.619,0.334,0.694
1974872,7659.0,9254.0,-1187.0,0.182,0.618,0.342,0.684
1974889,7063.0,8970.0,-1137.0,0.212,0.616,0.348,0.674
1974905,6661.0,8290.0,-819.0,0.242,0.613,0.353,0.664
1974922,6267.0,8026.0,-775.0,0.273,0.608,0.357,0.655
1974938,5575.0,7846.0,-797.0,0.304,0.602,0.36,0.645
1974955,5265.0,7206.0,-697.0,0.334,0.595,0.361,0.636
1974982,4961.0,6590.0,-641.0,0.363,0.587,0.361,0.627
1974999,4379.0,6946.0,-729.0,0.391,0.578,0.361,0.618
1975015,3893.0,6890.0,-641.0,0.419,0.569,0.358,0.611
1975031,3635.0,5716.0,-651.0,0.445,0.56,0.353,0.604
1975047,3259.0,5858.0,-841.0,0.47,0.55,0.347,0.597
1975063,2835.0,5908.0,-719.0,0.495,0.54,0.339,0.591
1975089,2665.0,5378.0,-755.0,0.518,0.531,0.328,0.585
1975105,2621.0,5050.0,-723.0,0.54,0.523,0.316,0.579
1975122,2359.0,5618.0,-931.0,0.561,0.515,0.301,0.574
1975138,2365.0,5220.0,-591.0,0.581,0.507,0.284,0.569
1975155,2571.0,4580.0,-585.0,0.601,0.5,0.265,0.565
1975172,3331.0,4466.0,-643.0,0.619,0.492,0.245,0.561
1975188,3779.0,4756.0,-399.0,0.636,0.484,0.225,0.558
1975205,3999.0,4572.0,247.0,0.651,0.475,0.205,0.555
1975221,4119.0,3966.0,859.0,0.665,0.467,0.186,0.552
1975247,4241.0,3454.0,1175.0,0.677,0.461,0.169,0.548
1975263,4165.0,4196.0,1617.0,0.688,0.456,0.153,0.543
1975279,4167.0,4590.0,2137.0,0.699,0.451,0.137,0.538
1975295,3895.0,4292.0,2621.0,0.708,0.447,0.122,0.533
1975311,3815.0,4178.0,3115.0,0.716,0.445,0.106,0.528
1975327,3859.0,4336.0,3431.0,0.723,0.443,0.089,0.523
1975353,4363.0,4860.0,4233.0,0.73,0.44,0.071,0.518
1975370,4745.0,4542.0,5667.0,0.737,0.435,0.053,0.515
1975387,4781.0,4732.0,6729.0,0.745,0.428,0.035,0.511
1975403,4457.0,5686.0,7565.0,0.753,0.418,0.016,0.509
1975420,4939.0,6288.0,7931.0,0.762,0.404,-0.003,0.506
1975437,5219.0,5730.0,8375.0,0.772,0.387,-0.024,0.504
1975454,5001.0,3986.0,8217.0,0.781,0.368,-0.043,0.502
1975471,4763.0,2632.0,7609.0,0.789,0.349,-0.061,0.501
1975487,4505.0,1616.0,6867.0,0.796,0.333,-0.076,0.5
1975505,4261.0,1384.0,6197.0,0.8,0.32,-0.089,0.499
1975521,4343.0,1226.0,5835.0,0.803,0.31,-0.099,0.499
1975547,3969.0,1210.0,5085.0,0.806,0.302,-0.106,0.498
1975563,3931.0,1274.0,5165.0,0.807,0.296,-0.11,0.499
1975579,3957.0,1240.0,5561.0,0.808,0.292,-0.112,0.499
1975595,4097.0,1418.0,6035.0,0.808,0.29,-0.113,0.501
1975611,4331.0,1728.0,6593.0,0.807,0.289,-0.113,0.503
1975627,4647.0,2026.0,7041.0,0.806,0.288,-0.111,0.506
1975653,4771.0,2436.0,7265.0,0.804,0.287,-0.108,0.509
1975669,4607.0,2292.0,7383.0,0.803,0.284,-0.104,0.514
1975685,4091.0,2226.0,7433.0,0.801,0.281,-0.1,0.518
1975701,3595.0,1946.0,7313.0,0.8,0.279,-0.096,0.523
1975718,3469.0,2082.0,6977.0,0.798,0.279,-0.092,0.527
1975735,3499.0,2740.0,6851.0,0.796,0.279,-0.088,0.53
1975751,3395.0,2926.0,7037.0,0.794,0.28,-0.085,0.534
1975777,3427.0,3176.0,7229.0,0.791,0.281,-0.083,0.537
1975794,3653.0,3476.0,7343.0,0.789,0.283,-0.08,0.539
1975810,3951.0,4350.0,7219.0,0.786,0.285,-0.079,0.542
1975826,3789.0,4958.0,7119.0,0.784,0.286,-0.078,0.545
1975842,3817.0,4582.0,7217.0,0.783,0.286,-0.079,0.547
1975858,4019.0,3564.0,6773.0,0.782,0.286,-0.081,0.548
1975884,3989.0,3216.0,5693.0,0.781,0.285,-0.082,0.549
1975900,4089.0,3644.0,5367.0,0.782,0.283,-0.083,0.549
1975917,3659.0,3214.0,5369.0,0.783,0.279,-0.083,0.55
1975934,3271.0,2550.0,5671.0,0.785,0.274,-0.083,0.55
1975950,2997.0,2252.0,6059.0,0.787,0.269,-0.083,0.55
1975967,2861.0,2338.0,6577.0,0.789,0.264,-0.083,0.549
1975983,2693.0,2328.0,6941.0,0.791,0.259,-0.084,0.549
1975999,2615.0,2342.0,7369.0,0.793,0.253,-0.084,0.548
1976025,2653.0,2332.0,7693.0,0.794,0.248,-0.085,0.548
1976041,2853.0,1980.0,8109.0,0.796,0.242,-0.087,0.548
1976057,2715.0,1696.0,8153.0,0.798,0.237,-0.087,0.547
1976073,2709.0,1868.0,8073.0,0.8,0.233,-0.086,0.546
1976089,2589.0,2062.0,7747.0,0.801,0.231,-0.085,0.546
1976105,2651.0,2416.0,7509.0,0.802,0.23,-0.083,0.545
1976131,2763.0,2078.0,7399.0,0.803,0.23,-0.08,0.544
1976147,2793.0,1896.0,7207.0,0.804,0.232,-0.078,0.543
1976163,3073.0,1846.0,7139.0,0.804,0.234,-0.075,0.541
1976179,3169.0,1944.0,7155.0,0.804,0.238,-0.072,0.54
1976195,3479.0,2236.0,7489.0,0.804,0.241,-0.068,0.539
1976212,3601.0,2802.0,8073.0,0.804,0.245,-0.064,0.538
1976238,3517.0,3096.0,8057.0,0.804,0.249,-0.061,0.537
1976254,3017.0,3582.0,7443.0,0.804,0.252,-0.057,0.536
1976271,2913.0,3216.0,6997.0,0.803,0.255,-0.054,0.535
1976288,2875.0,3036.0,6305.0,0.803,0.258,-0.051,0.535
1976304,2705.0,3536.0,5873.0,0.803,0.261,-0.048,0.534
1976321,2599.0,3570.0,5787.0,0.802,0.264,-0.046,0.533
1976338,2159.0,2606.0,5939.0,0.802,0.268,-0.044,0.532
1976354,2343.0,2558.0,6459.0,0.801,0.272,-0.043,0.531
1976371,2607.0,3176.0,6937.0,0.801,0.278,-0.041,0.529
1976388,2645.0,3668.0,7443.0,0.8,0.283,-0.041,0.528
1976414,2665.0,4150.0,7683.0,0.799,0.288,-0.041,0.526
1976430,2913.0,4784.0,7615.0,0.798,0.292,-0.041,0.525
1976446,2981.0,4822.0,7379.0,0.799,0.295,-0.042,0.523
1976462,2901.0,4526.0,7075.0,0.8,0.296,-0.042,0.521
1976479,2637.0,4112.0,6715.0,0.802,0.294,-0.042,0.518
1976495,2365.0,3590.0,6485.0,0.805,0.291,-0.043,0.516
1976512,2195.0,2966.0,6269.0,0.808,0.288,-0.044,0.513
1976539,2261.0,2836.0,6003.0,0.81,0.284,-0.046,0.51
1976555,2183.0,3176.0,5603.0,0.813,0.281,-0.049,0.508
1976571,2195.0,3408.0,5575.0,0.815,0.277,-0.054,0.505
1976588,2343.0,3256.0,5879.0,0.818,0.274,-0.059,0.503
1976604,2447.0,3888.0,5915.0,0.819,0.272,-0.065,0.501
1976621,2469.0,3714.0,5623.0,0.82,0.269,-0.073,0.499
1976638,3087.0,2882.0,6267.0,0.821,0.267,-0.081,0.498
1976654,4003.0,2294.0,7441.0,0.822,0.265,-0.089,0.496
1976681,4533.0,2886.0,7897.0,0.823,0.263,-0.097,0.494
1976700,4547.0,2976.0,8367.0,0.824,0.261,-0.104,0.492
1976716,4403.0,3022.0,8085.0,0.826,0.257,-0.111,0.489
1976732,4297.0,3058.0,7213.0,0.828,0.253,-0.119,0.487
1976748,4135.0,2308.0,6559.0,0.829,0.246,-0.128,0.485
1976764,4281.0,1356.0,6299.0,0.832,0.24,-0.136,0.482
1976780,4185.0,764.0,6225.0,0.834,0.233,-0.143,0.48
1976796,4121.0,428.0,6363.0,0.836,0.227,-0.149,0.477
1976823,3929.0,394.0,6757.0,0.838,0.221,-0.153,0.474
1976839,3659.0,186.0,7271.0,0.84,0.216,-0.156,0.472
1976855,3453.0,162.0,7435.0,0.841,0.213,-0.159,0.471
1976871,3437.0,-26.0,7711.0,0.841,0.212,-0.161,0.47
1976887,3771.0,-110.0,7997.0,0.841,0.212,-0.163,0.471
1976904,3931.0,114.0,7963.0,0.839,0.215,-0.164,0.472
1976920,4405.0,1030.0,7629.0,0.837,0.22,-0.164,0.473
1976946,4529.0,1736.0,7303.0,0.835,0.226,-0.164,0.475
1976962,4563.0,2220.0,6971.0,0.833,0.231,-0.164,0.476
1976979,4507.0,2550.0,6717.0,0.831,0.236,-0.164,0.477
1976995,4513.0,2546.0,6427.0,0.828,0.24,-0.163,0.479
1977011,4527.0,2762.0,6447.0,0.826,0.244,-0.163,0.481
1977027,4585.0,3192.0,6355.0,0.824,0.248,-0.162,0.482
1977043,4599.0,3246.0,6545.0,0.823,0.251,-0.161,0.484
1977069,4361.0,3270.0,6553.0,0.821,0.254,-0.16,0.487
1977086,4261.0,2956.0,6741.0,0.818,0.256,-0.16,0.489
1977102,3953.0,2924.0,7035.0,0.816,0.258,-0.16,0.492
1977119,3805.0,2670.0,7153.0,0.814,0.261,-0.161,0.494
1977135,3985.0,3080.0,6747.0,0.811,0.265,-0.163,0.495
1977152,4111.0,3112.0,6477.0,0.81,0.267,-0.167,0.496
1977169,4323.0,2930.0,6327.0,0.808,0.268,-0.171,0.496
1977186,4567.0,2422.0,6151.0,0.808,0.267,-0.174,0.495
1977203,4517.0,2020.0,6151.0,0.808,0.266,-0.178,0.494
1977220,4525.0,1954.0,6139.0,0.808,0.265,-0.18,0.493
1977246,4555.0,2252.0,6071.0,0.809,0.264,-0.182,0.493
1977263,4453.0,2236.0,6047.0,0.81,0.261,-0.184,0.491
1977279,4457.0,1836.0,6355.0,0.811,0.258,-0.186,0.49
1977295,4407.0,1524.0,6733.0,0.813,0.255,-0.188,0.49
1977311,4439.0,1378.0,6981.0,0.813,0.252,-0.189,0.489
1977327,4537.0,1370.0,7039.0,0.814,0.251,-0.19,0.488
1977353,4541.0,1304.0,6927.0,0.814,0.25,-0.191,0.488
1977370,4599.0,1300.0,6877.0,0.814,0.249,-0.191,0.488
1977387,4569.0,1242.0,6845.0,0.814,0.249,-0.191,0.488
1977404,4531.0,1350.0,6793.0,0.814,0.249,-0.191,0.489
1977421,4523.0,1552.0,6657.0,0.814,0.25,-0.19,0.489
1977437,4439.0,1688.0,6617.0,0.813,0.251,-0.189,0.489
1977453,4501.0,1596.0,6533.0,0.813,0.252,-0.188,0.49
1977470,4493.0,1666.0,6545.0,0.813,0.254,-0.187,0.49
1977487,4549.0,1946.0,6533.0,0.812,0.255,-0.186,0.49
1977504,4599.0,2072.0,6527.0,0.812,0.257,-0.185,0.49
1977530,4503.0,1960.0,6479.0,0.812,0.258,-0.184,0.49
1977546,4491.0,1844.0,6415.0,0.812,0.258,-0.183,0.49
1977562,4433.0,1810.0,6333.0,0.813,0.258,-0.181,0.49
1977578,4405.0,1868.0,6297.0,0.813,0.258,-0.179,0.49
1977594,4285.0,1940.0,6383.0,0.814,0.258,-0.176,0.49
1977611,4337.0,1966.0,6477.0,0.814,0.257,-0.173,0.491
1977627,4329.0,2030.0,6529.0,0.815,0.256,-0.17,0.491
1977653,4237.0,2090.0,6769.0,0.816,0.256,-0.167,0.491
1977670,4183.0,2186.0,6775.0,0.816,0.255,-0.164,0.492
1977687,4217.0,2180.0,6791.0,0.817,0.255,-0.161,0.492
1977704,4239.0,2026.0,6791.0,0.817,0.255,-0.158,0.493
1977720,4207.0,1934.0,6881.0,0.817,0.254,-0.155,0.493
1977736,4127.0,1926.0,6901.0,0.818,0.254,-0.151,0.494
1977753,4029.0,2012.0,6923.0,0.818,0.255,-0.148,0.494
1977770,3999.0,2156.0,6917.0,0.819,0.255,-0.144,0.494
1977796,3909.0,2088.0,6953.0,0.819,0.255,-0.141,0.494
1977812,3921.0,2046.0,6995.0,0.819,0.256,-0.138,0.494
1977828,3869.0,2148.0,6881.0,0.819,0.257,-0.135,0.494
1977844,3853.0,2286.0,6799.0,0.819,0.259,-0.133,0.494
1977860,3889.0,2370.0,6853.0,0.819,0.26,-0.13,0.494
1977876,3831.0,2396.0,6861.0,0.819,0.262,-0.127,0.494
1977893,3821.0,2496.0,6753.0,0.819,0.264,-0.124,0.494
1977919,3797.0,2638.0,6743.0,0.819,0.265,-0.121,0.494
1977935,3737.0,2646.0,6789.0,0.819,0.267,-0.118,0.494
1977951,3721.0,2658.0,6805.0,0.819,0.269,-0.116,0.494
1977968,3641.0,2784.0,6803.0,0.818,0.27,-0.113,0.494
1977984,3657.0,2774.0,6789.0,0.818,0.271,-0.111,0.495
1978001,3537.0,2706.0,6803.0,0.817,0.273,-0.109,0.496
1978018,3609.0,2756.0,6779.0,0.817,0.274,-0.107,0.496
1978034,3595.0,2952.0,6757.0,0.816,0.275,-0.105,0.497
1978060,3521.0,2908.0,6717.0,0.816,0.276,-0.103,0.497
1978076,3611.0,2970.0,6779.0,0.815,0.277,-0.101,0.498
1978092,3615.0,2936.0,6747.0,0.815,0.278,-0.1,0.499
1978108,3625.0,2950.0,6771.0,0.814,0.279,-0.098,0.5
1978124,3597.0,3058.0,6685.0,0.813,0.28,-0.097,0.5
1978150,3581.0,3064.0,6627.0,0.813,0.281,-0.096,0.501
1978167,3525.0,2984.0,6743.0,0.812,0.282,-0.094,0.502
1978183,3553.0,3068.0,6839.0,0.812,0.283,-0.093,0.503
1978199,3643.0,3294.0,6847.0,0.811,0.284,-0.092,0.503
1978216,3745.0,3470.0,6907.0,0.811,0.285,-0.091,0.503
1978233,3739.0,3556.0,6883.0,0.81,0.285,-0.09,0.504
1978250,3655.0,3190.0,6781.0,0.81,0.285,-0.089,0.505
1978266,3729.0,3144.0,6601.0,0.81,0.285,-0.088,0.505
1978283,3615.0,3252.0,6569.0,0.81,0.285,-0.087,0.506
1978309,3449.0,3216.0,6695.0,0.81,0.284,-0.086,0.506
1978325,3323.0,3066.0,6729.0,0.81,0.284,-0.084,0.507
1978341,3147.0,3194.0,6695.0,0.809,0.283,-0.083,0.508
1978357,3059.0,3210.0,6763.0,0.809,0.283,-0.081,0.508
1978373,3047.0,3018.0,6847.0,0.809,0.283,-0.08,0.508
1978389,2991.0,3106.0,6769.0,0.809,0.284,-0.078,0.509
1978415,2971.0,3158.0,6797.0,0.809,0.284,-0.077,0.509
1978431,3019.0,3260.0,6815.0,0.809,0.285,-0.075,0.509
1978447,2957.0,3134.0,6865.0,0.809,0.286,-0.074,0.509
1978463,3059.0,3168.0,6843.0,0.809,0.287,-0.073,0.509
1978479,3095.0,3200.0,6799.0,0.808,0.288,-0.072,0.509
1978495,3169.0,3302.0,6781.0,0.808,0.289,-0.071,0.508
1978521,3207.0,3312.0,6775.0,0.808,0.289,-0.071,0.508
1978537,3245.0,3358.0,6713.0,0.808,0.29,-0.071,0.508
1978553,3293.0,3356.0,6627.0,0.808,0.291,-0.071,0.508
1978570,3389.0,3298.0,6655.0,0.807,0.291,-0.071,0.508
1978586,3451.0,3282.0,6631.0,0.807,0.292,-0.071,0.508
1978602,3449.0,3286.0,6723.0,0.807,0.292,-0.072,0.508
1978619,3481.0,3280.0,6713.0,0.807,0.293,-0.072,0.508
1978645,3469.0,3286.0,6799.0,0.806,0.293,-0.073,0.509
1978661,3519.0,3240.0,6835.0,0.806,0.293,-0.073,0.509
1978678,3545.0,3246.0,6785.0,0.806,0.293,-0.073,0.509
1978694,3481.0,3258.0,6733.0,0.806,0.293,-0.074,0.509
1978713,3471.0,3202.0,6727.0,0.806,0.293,-0.074,0.51
1978729,3411.0,3238.0,6707.0,0.805,0.294,-0.074,0.51
1978746,3407.0,3212.0,6709.0,0.805,0.294,-0.073,0.51
1978762,3359.0,3338.0,6659.0,0.805,0.294,-0.073,0.51
1978779,3375.0,3252.0,6721.0,0.805,0.294,-0.073,0.51
1978805,3387.0,3464.0,6745.0,0.804,0.295,-0.072,0.511
1978821,3289.0,3482.0,6767.0,0.804,0.295,-0.072,0.511
1978837,3293.0,3384.0,6741.0,0.804,0.296,-0.072,0.511
1978853,3289.0,3418.0,6673.0,0.804,0.296,-0.071,0.511
1978870,3271.0,3414.0,6629.0,0.804,0.296,-0.071,0.511
1978886,3261.0,3474.0,6647.0,0.803,0.297,-0.07,0.511
1978903,3245.0,3500.0,6617.0,0.803,0.297,-0.07,0.512
1978920,3271.0,3480.0,6595.0,0.803,0.297,-0.07,0.512
1978937,3273.0,3482.0,6687.0,0.803,0.297,-0.07,0.512
1978963,3269.0,3486.0,6667.0,0.803,0.297,-0.07,0.512
1978980,3321.0,3484.0,6669.0,0.803,0.297,-0.07,0.511
1978996,3297.0,3448.0,6691.0,0.804,0.297,-0.07,0.511
1979012,3329.0,3446.0,6713.0,0.804,0.297,-0.07,0.511
1979029,3357.0,3416.0,6659.0,0.804,0.296,-0.071,0.511
1979046,3389.0,3338.0,6681.0,0.804,0.296,-0.071,0.51
1979062,3293.0,3246.0,6763.0,0.804,0.296,-0.071,0.51
1979088,3437.0,3262.0,6733.0,0.805,0.296,-0.072,0.51
1979104,3443.0,3212.0,6757.0,0.805,0.295,-0.072,0.51
1979120,3425.0,3240.0,6777.0,0.805,0.295,-0.073,0.509
1979137,3489.0,3170.0,6723.0,0.805,0.295,-0.073,0.509
1979153,3431.0,3146.0,6747.0,0.805,0.295,-0.074,0.509
1979170,3477.0,3134.0,6675.0,0.805,0.295,-0.074,0.509
1979186,3429.0,3120.0,6681.0,0.805,0.295,-0.074,0.509
1979203,3471.0,3166.0,6671.0,0.805,0.295,-0.074,0.509
1979220,3547.0,3194.0,6665.0,0.805,0.296,-0.074,0.509
1979246,3481.0,3216.0,6683.0,0.805,0.296,-0.074,0.509
1979263,3489.0,3234.0,6671.0,0.805,0.296,-0.074,0.509
1979280,3443.0,3246.0,6675.0,0.805,0.297,-0.073,0.509
1979296,3451.0,3238.0,6701.0,0.805,0.297,-0.073,0.509
1979312,3389.0,3312.0,6687.0,0.804,0.297,-0.072,0.509
1979328,3363.0,3324.0,6641.0,0.804,0.298,-0.072,0.509
1979344,3349.0,3362.0,6691.0,0.804,0.298,-0.072,0.509
1979370,3363.0,3390.0,6685.0,0.804,0.298,-0.071,0.509
1979386,3303.0,3388.0,6695.0,0.804,0.298,-0.071,0.509
1979403,3365.0,3360.0,6619.0,0.804,0.299,-0.071,0.509
1979420,3365.0,3424.0,6655.0,0.804,0.299,-0.07,0.509
1979436,3297.0,3344.0,6661.0,0.804,0.299,-0.07,0.51
1979453,3397.0,3374.0,6659.0,0.804,0.299,-0.07,0.51
1979469,3367.0,3422.0,6637.0,0.804,0.299,-0.07,0.51
1979495,3305.0,3378.0,6649.0,0.803,0.299,-0.07,0.51
1979511,3417.0,3396.0,6633.0,0.803,0.3,-0.07,0.51
1979528,3381.0,3418.0,6661.0,0.803,0.3,-0.07,0.51
1979545,3373.0,3458.0,6643.0,0.803,0.3,-0.069,0.51
1979562,3385.0,3484.0,6595.0,0.803,0.3,-0.069,0.51
1979578,3345.0,3450.0,6671.0,0.803,0.3,-0.069,0.51
1979594,3307.0,3402.0,6675.0,0.803,0.3,-0.069,0.51
1979610,3329.0,3430.0,6621.0,0.804,0.3,-0.069,0.509
1979627,3379.0,3368.0,6653.0,0.804,0.3,-0.069,0.509
1979653,3259.0,3462.0,6661.0,0.804,0.3,-0.069,0.509
1979669,3321.0,3380.0,6647.0,0.804,0.3,-0.069,0.508
1979686,3337.0,3452.0,6681.0,0.804,0.3,-0.07,0.508
1979703,3385.0,3376.0,6625.0,0.805,0.3,-0.07,0.508
1979719,3379.0,3350.0,6665.0,0.805,0.3,-0.07,0.508
1979736,3325.0,3346.0,6675.0,0.805,0.3,-0.07,0.508
1979753,3411.0,3418.0,6647.0,0.805,0.3,-0.07,0.507
1979770,3349.0,3320.0,6657.0,0.805,0.3,-0.07,0.507
1979796,3409.0,3260.0,6627.0,0.805,0.3,-0.07,0.507
1979813,3445.0,3366.0,6607.0,0.805,0.3,-0.071,0.507
1979830,3459.0,3334.0,6651.0,0.805,0.3,-0.071,0.507
1979846,3445.0,3344.0,6643.0,0.805,0.3,-0.071,0.507
1979862,3399.0,3318.0,6741.0,0.805,0.3,-0.071,0.507
1979879,3383.0,3350.0,6717.0,0.805,0.3,-0.07,0.507
1979895,3407.0,3386.0,6709.0,0.805,0.301,-0.07,0.507
1979912,3375.0,3386.0,6691.0,0.805,0.301,-0.07,0.507
1979928,3389.0,3406.0,6671.0,0.805,0.301,-0.07,0.507
1979954,3321.0,3410.0,6637.0,0.804,0.301,-0.07,0.507
1979970,3347.0,3402.0,6603.0,0.804,0.301,-0.07,0.507
1979986,3337.0,3422.0,6651.0,0.804,0.302,-0.069,0.507
1980003,3347.0,3454.0,6651.0,0.804,0.302,-0.069,0.507
1980019,3367.0,3424.0,6603.0,0.804,0.302,-0.069,0.507
1980036,3359.0,3482.0,6637.0,0.804,0.302,-0.069,0.507
1980053,3399.0,3518.0,6641.0,0.804,0.303,-0.069,0.507
1980079,3359.0,3446.0,6629.0,0.804,0.303,-0.069,0.507
1980095,3355.0,3486.0,6549.0,0.804,0.303,-0.069,0.507
1980111,3345.0,3428.0,6623.0,0.804,0.303,-0.069,0.507
1980127,3321.0,3422.0,6589.0,0.804,0.303,-0.069,0.507
1980143,3345.0,3420.0,6607.0,0.804,0.303,-0.069,0.507
1980159,3369.0,3480.0,6619.0,0.804,0.303,-0.069,0.507
1980185,3363.0,3402.0,6627.0,0.805,0.303,-0.069,0.506
1980202,3401.0,3376.0,6625.0,0.805,0.303,-0.07,0.506
1980219,3447.0,3356.0,6643.0,0.805,0.303,-0.07,0.506
1980236,3417.0,3328.0,6625.0,0.805,0.303,-0.07,0.505
1980253,3475.0,3274.0,6645.0,0.805,0.303,-0.07,0.505
1980269,3471.0,3350.0,6665.0,0.805,0.303,-0.07,0.505
1980286,3445.0,3344.0,6699.0,0.805,0.303,-0.07,0.505
1980303,3447.0,3308.0,6657.0,0.805,0.303,-0.07,0.505
1980319,3421.0,3380.0,6617.0,0.805,0.304,-0.07,0.506
1980335,3415.0,3308.0,6597.0,0.804,0.304,-0.07,0.506
1980362,3411.0,3306.0,6625.0,0.804,0.304,-0.07,0.506
1980378,3355.0,3256.0,6663.0,0.804,0.304,-0.069,0.506
1980394,3363.0,3364.0,6615.0,0.804,0.304,-0.069,0.507
1980410,3407.0,3408.0,6629.0,0.803,0.305,-0.069,0.507
1980427,3391.0,3448.0,6583.0,0.803,0.306,-0.068,0.507
1980443,3441.0,3472.0,6547.0,0.803,0.306,-0.068,0.508
1980459,3459.0,3474.0,6493.0,0.802,0.307,-0.067,0.508
1980485,3385.0,3518.0,6503.0,0.802,0.308,-0.067,0.508
1980502,3489.0,3596.0,6547.0,0.801,0.308,-0.066,0.508
1980519,3473.0,3592.0,6611.0,0.801,0.309,-0.065,0.509
1980536,3431.0,3596.0,6597.0,0.801,0.31,-0.065,0.509
1980552,3379.0,3624.0,6547.0,0.8,0.31,-0.064,0.509
1980568,3361.0,3670.0,6537.0,0.8,0.31,-0.064,0.509
1980585,3329.0,3670.0,6559.0,0.8,0.311,-0.063,0.509
1980601,3273.0,3690.0,6571.0,0.8,0.311,-0.063,0.509
1980628,3215.0,3576.0,6607.0,0.8,0.311,-0.063,0.509
1980644,3295.0,3590.0,6595.0,0.8,0.311,-0.063,0.509
1980660,3331.0,3594.0,6529.0,0.8,0.312,-0.063,0.509
1980677,3299.0,3660.0,6495.0,0.8,0.312,-0.063,0.509
1980693,3325.0,3666.0,6513.0,0.8,0.312,-0.064,0.508
1980710,3371.0,3610.0,6533.0,0.8,0.313,-0.064,0.508
1980727,3439.0,3668.0,6567.0,0.8,0.313,-0.064,0.508
1980743,3399.0,3626.0,6533.0,0.801,0.313,-0.064,0.507
1980769,3459.0,3652.0,6523.0,0.801,0.313,-0.064,0.507
1980785,3473.0,3642.0,6555.0,0.801,0.313,-0.064,0.507
1980801,3507.0,3616.0,6535.0,0.801,0.313,-0.064,0.507
1980817,3409.0,3538.0,6487.0,0.801,0.312,-0.064,0.507
1980833,3435.0,3554.0,6561.0,0.801,0.312,-0.064,0.507
1980850,3411.0,3488.0,6501.0,0.801,0.312,-0.064,0.507
1980866,3363.0,3520.0,6519.0,0.801,0.312,-0.064,0.507
1980892,3407.0,3500.0,6503.0,0.801,0.312,-0.064,0.506
1980908,3395.0,3578.0,6543.0,0.801,0.312,-0.064,0.506
1980924,3379.0,3554.0,6599.0,0.801,0.312,-0.064,0.506
1980940,3379.0,3560.0,6573.0,0.801,0.312,-0.064,0.506
1980956,3353.0,3628.0,6561.0,0.801,0.312,-0.064,0.506
1980982,3349.0,3564.0,6525.0,0.801,0.312,-0.064,0.506
1980999,3377.0,3558.0,6583.0,0.802,0.312,-0.064,0.506
1981016,3387.0,3574.0,6527.0,0.802,0.312,-0.064,0.506
1981033,3383.0,3582.0,6509.0,0.802,0.313,-0.064,0.506
1981050,3381.0,3548.0,6561.0,0.802,0.313,-0.064,0.506
1981067,3405.0,3610.0,6561.0,0.802,0.313,-0.064,0.505
1981084,3423.0,3576.0,6573.0,0.802,0.313,-0.064,0.505
1981101,3371.0,3558.0,6499.0,0.802,0.313,-0.064,0.505
1981117,3413.0,3640.0,6531.0,0.802,0.313,-0.064,0.505
1981134,3373.0,3584.0,6527.0,0.802,0.313,-0.064,0.505
1981151,3373.0,3608.0,6515.0,0.802,0.313,-0.064,0.505
1981167,3429.0,3570.0,6487.0,0.802,0.313,-0.064,0.505
1981194,3445.0,3638.0,6539.0,0.802,0.313,-0.064,0.505
1981210,3413.0,3564.0,6527.0,0.802,0.313,-0.064,0.505
1981226,3399.0,3606.0,6551.0,0.802,0.313,-0.064,0.505
1981242,3369.0,3570.0,6515.0,0.802,0.313,-0.064,0.505
1981258,3425.0,3602.0,6537.0,0.802,0.313,-0.064,0.505
1981274,3385.0,3640.0,6533.0,0.802,0.313,-0.064,0.505
1981300,3405.0,3624.0,6525.0,0.802,0.313,-0.064,0.504
1981317,3427.0,3644.0,6513.0,0.802,0.313,-0.064,0.504
1981334,3365.0,3606.0,6497.0,0.802,0.313,-0.064,0.504
1981351,3373.0,3600.0,6557.0,0.802,0.313,-0.064,0.504
1981372,3435.0,3632.0,6525.0,0.802,0.313,-0.064,0.504
1981388,3371.0,3648.0,6533.0,0.802,0.314,-0.064,0.504
1981404,3331.0,3638.0,6551.0,0.802,0.314,-0.064,0.504
1981421,3373.0,3640.0,6559.0,0.802,0.314,-0.064,0.504
1981437,3381.0,3636.0,6527.0,0.802,0.314,-0.064,0.504
1981453,3367.0,3620.0,6519.0,0.802,0.314,-0.064,0.504
1981469,3415.0,3622.0,6497.0,0.802,0.314,-0.064,0.503
1981495,3415.0,3636.0,6545.0,0.803,0.314,-0.064,0.503
1981512,3403.0,3590.0,6515.0,0.803,0.314,-0.064,0.503
1981528,3397.0,3586.0,6531.0,0.803,0.314,-0.064,0.503
1981544,3395.0,3598.0,6485.0,0.803,0.314,-0.064,0.503
1981561,3401.0,3654.0,6533.0,0.803,0.314,-0.065,0.503
1981577,3397.0,3560.0,6525.0,0.803,0.314,-0.065,0.503
1981593,3389.0,3588.0,6493.0,0.803,0.314,-0.065,0.502
1981619,3413.0,3586.0,6539.0,0.803,0.314,-0.065,0.502
1981635,3407.0,3564.0,6567.0,0.803,0.314,-0.065,0.502
1981651,3411.0,3618.0,6541.0,0.803,0.314,-0.065,0.502
1981668,3373.0,3580.0,6563.0,0.803,0.314,-0.065,0.502
1981685,3443.0,3586.0,6539.0,0.804,0.314,-0.065,0.502
1981701,3395.0,3602.0,6527.0,0.804,0.314,-0.065,0.502
1981717,3371.0,3598.0,6511.0,0.804,0.314,-0.065,0.502
1981734,3433.0,3580.0,6429.0,0.804,0.314,-0.065,0.502
1981752,3385.0,3620.0,6475.0,0.804,0.314,-0.065,0.502
1981769,3421.0,3606.0,6493.0,0.804,0.314,-0.065,0.501
1981795,3407.0,3624.0,6533.0,0.804,0.314,-0.065,0.501
1981811,3403.0,3624.0,6539.0,0.804,0.314,-0.065,0.501
1981828,3423.0,3630.0,6485.0,0.804,0.314,-0.065,0.501
1981844,3423.0,3652.0,6547.0,0.804,0.314,-0.065,0.501
1981860,3377.0,3650.0,6557.0,0.804,0.314,-0.065,0.501
1981876,3425.0,3658.0,6481.0,0.804,0.314,-0.065,0.501
1981902,3391.0,3600.0,6467.0,0.804,0.314,-0.065,0.501
1981919,3401.0,3676.0,6555.0,0.804,0.314,-0.065,0.5
1981935,3455.0,3650.0,6499.0,0.804,0.314,-0.065,0.5
1981952,3495.0,3604.0,6507.0,0.804,0.314,-0.066,0.5
1981969,3387.0,3666.0,6579.0,0.805,0.313,-0.066,0.5
1981985,3395.0,3594.0,6549.0,0.805,0.313,-0.066,0.5
1982002,3387.0,3502.0,6513.0,0.805,0.313,-0.066,0.5
1982018,3407.0,3538.0,6533.0,0.805,0.313,-0.066,0.499
1982035,3353.0,3572.0,6535.0,0.805,0.313,-0.066,0.499
1982052,3343.0,3582.0,6561.0,0.805,0.313,-0.066,0.499
1982078,3369.0,3610.0,6547.0,0.806,0.313,-0.066,0.499
1982094,3415.0,3520.0,6559.0,0.806,0.313,-0.066,0.499
1982111,3399.0,3578.0,6515.0,0.806,0.313,-0.066,0.499
1982128,3359.0,3604.0,6605.0,0.806,0.313,-0.066,0.499
1982145,3349.0,3618.0,6579.0,0.806,0.313,-0.066,0.498
1982161,3343.0,3610.0,6561.0,0.806,0.313,-0.066,0.498
1982177,3435.0,3608.0,6545.0,0.806,0.313,-0.066,0.498
1982203,3417.0,3630.0,6529.0,0.806,0.313,-0.066,0.498
1982219,3355.0,3654.0,6549.0,0.806,0.313,-0.066,0.498
1982235,3411.0,3670.0,6521.0,0.806,0.313,-0.066,0.498
1982252,3433.0,3652.0,6499.0,0.806,0.313,-0.066,0.498
1982268,3427.0,3614.0,6525.0,0.806,0.313,-0.067,0.498
1982285,3443.0,3622.0,6537.0,0.806,0.313,-0.067,0.497
1982302,3331.0,3594.0,6475.0,0.806,0.313,-0.067,0.497
1982318,3421.0,3556.0,6511.0,0.807,0.313,-0.067,0.497
1982335,3437.0,3546.0,6581.0,0.807,0.313,-0.067,0.497
1982362,3349.0,3578.0,6543.0,0.807,0.313,-0.067,0.497
1982378,3371.0,3600.0,6543.0,0.807,0.313,-0.068,0.497
1982394,3413.0,3600.0,6527.0,0.807,0.313,-0.068,0.496
1982410,3439.0,3624.0,6547.0,0.807,0.313,-0.068,0.496
1982427,3379.0,3620.0,6523.0,0.807,0.313,-0.068,0.496
1982443,3417.0,3574.0,6491.0,0.807,0.313,-0.068,0.496
1982460,3431.0,3574.0,6517.0,0.807,0.313,-0.068,0.496
1982477,3413.0,3646.0,6551.0,0.807,0.313,-0.068,0.496
1982503,3455.0,3616.0,6527.0,0.807,0.313,-0.068,0.495
1982520,3423.0,3570.0,6541.0,0.808,0.313,-0.068,0.495
1982536,3411.0,3652.0,6527.0,0.808,0.313,-0.068,0.495
1982553,3401.0,3546.0,6535.0,0.808,0.313,-0.069,0.495
1982570,3393.0,3578.0,6509.0,0.808,0.313,-0.069,0.495
1982587,3429.0,3606.0,6479.0,0.808,0.313,-0.069,0.495
1982603,3423.0,3580.0,6453.0,0.808,0.313,-0.069,0.494
1982619,3417.0,3584.0,6553.0,0.808,0.313,-0.069,0.494
1982645,3415.0,3602.0,6547.0,0.808,0.313,-0.069,0.494
1982662,3423.0,3572.0,6475.0,0.808,0.313,-0.069,0.494
1982679,3423.0,3652.0,6543.0,0.808,0.313,-0.069,0.494
1982695,3419.0,3614.0,6525.0,0.808,0.313,-0.069,0.494
1982712,3425.0,3604.0,6535.0,0.808,0.313,-0.069,0.494
1982728,3421.0,3558.0,6481.0,0.808,0.313,-0.069,0.494
1982745,3439.0,3634.0,6531.0,0.809,0.313,-0.069,0.493
1982761,3385.0,3582.0,6535.0,0.809,0.313,-0.069,0.493
1982787,3423.0,3598.0,6527.0,0.809,0.313,-0.07,0.493
1982803,3431.0,3602.0,6553.0,0.809,0.313,-0.07,0.493
1982819,3405.0,3586.0,6553.0,0.809,0.313,-0.07,0.493
1982835,3357.0,3566.0,6565.0,0.809,0.313,-0.07,0.493
1982851,3403.0,3522.0,6525.0,0.809,0.313,-0.07,0.493
1982868,3455.0,3592.0,6489.0,0.809,0.313,-0.07,0.492
1982884,3471.0,3580.0,6515.0,0.809,0.313,-0.07,0.492
1982910,3449.0,3568.0,6545.0,0.809,0.313,-0.07,0.492
1982926,3441.0,3552.0,6557.0,0.809,0.313,-0.07,0.492
1982942,3447.0,3580.0,6545.0,0.81,0.313,-0.07,0.492
1982959,3407.0,3574.0,6537.0,0.81,0.313,-0.07,0.492
1982976,3425.0,3618.0,6549.0,0.81,0.313,-0.07,0.492
1982992,3397.0,3552.0,6531.0,0.81,0.313,-0.07,0.491
1983009,3369.0,3602.0,6513.0,0.81,0.313,-0.07,0.491
1983026,3381.0,3544.0,6499.0,0.81,0.313,-0.07,0.491
1983043,3373.0,3626.0,6551.0,0.81,0.313,-0.07,0.491
1983070,3419.0,3610.0,6549.0,0.81,0.313,-0.07,0.491
1983086,3387.0,3640.0,6479.0,0.81,0.313,-0.07,0.491
1983102,3399.0,3646.0,6513.0,0.81,0.313,-0.07,0.491
1983118,3475.0,3632.0,6509.0,0.81,0.313,-0.07,0.491
1983135,3401.0,3594.0,6527.0,0.81,0.313,-0.07,0.491
1983151,3437.0,3606.0,6493.0,0.81,0.313,-0.07,0.491
1983167,3409.0,3586.0,6511.0,0.81,0.313,-0.07,0.491
1983194,3399.0,3628.0,6551.0,0.81,0.313,-0.07,0.49
1983210,3413.0,3612.0,6539.0,0.81,0.312,-0.07,0.49
1983226,3413.0,3546.0,6535.0,0.811,0.312,-0.07,0.49
1983242,3419.0,3546.0,6533.0,0.811,0.312,-0.071,0.49
1983258,3449.0,3578.0,6553.0,0.811,0.312,-0.071,0.49
1983274,3379.0,3498.0,6555.0,0.811,0.312,-0.071,0.49
1983300,3463.0,3540.0,6573.0,0.811,0.312,-0.071,0.49
1983316,3443.0,3522.0,6571.0,0.811,0.312,-0.071,0.49
1983332,3439.0,3554.0,6563.0,0.811,0.312,-0.071,0.49
1983348,3427.0,3484.0,6527.0,0.811,0.312,-0.071,0.489
1983364,3403.0,3492.0,6487.0,0.811,0.312,-0.07,0.489
1983380,3397.0,3556.0,6471.0,0.811,0.312,-0.07,0.489
1983406,3363.0,3576.0,6539.0,0.811,0.312,-0.07,0.489
1983423,3371.0,3544.0,6523.0,0.811,0.312,-0.07,0.489
1983439,3363.0,3652.0,6509.0,0.811,0.313,-0.07,0.489
1983455,3399.0,3668.0,6521.0,0.811,0.313,-0.07,0.489
1983471,3361.0,3702.0,6523.0,0.811,0.313,-0.07,0.489
1983488,3383.0,3594.0,6523.0,0.811,0.313,-0.07,0.489
1983504,3413.0,3666.0,6497.0,0.811,0.313,-0.069,0.489
1983530,3443.0,3650.0,6473.0,0.812,0.313,-0.069,0.489
1983547,3395.0,3680.0,6555.0,0.812,0.313,-0.069,0.489
1983564,3377.0,3662.0,6489.0,0.812,0.313,-0.069,0.488
1983581,3383.0,3604.0,6509.0,0.812,0.313,-0.069,0.488
1983597,3405.0,3654.0,6559.0,0.812,0.312,-0.07,0.488
1983613,3389.0,3566.0,6509.0,0.812,0.312,-0.07,0.488
1983630,3349.0,3570.0,6517.0,0.812,0.312,-0.07,0.488
1983646,3391.0,3610.0,6525.0,0.812,0.312,-0.07,0.488
1983672,3389.0,3538.0,6485.0,0.812,0.312,-0.07,0.488
1983688,3427.0,3580.0,6549.0,0.812,0.312,-0.07,0.488
1983704,3433.0,3592.0,6549.0,0.812,0.312,-0.07,0.487
1983720,3449.0,3572.0,6545.0,0.812,0.312,-0.07,0.487
1983736,3413.0,3652.0,6559.0,0.812,0.312,-0.07,0.487
1983752,3393.0,3624.0,6559.0,0.812,0.312,-0.07,0.487
1983769,3389.0,3602.0,6491.0,0.812,0.312,-0.07,0.487
1983796,3397.0,3586.0,6495.0,0.812,0.312,-0.07,0.487
1983812,3423.0,3690.0,6513.0,0.812,0.313,-0.07,0.487
1983828,3365.0,3698.0,6467.0,0.812,0.312,-0.07,0.487
1983844,3377.0,3690.0,6553.0,0.813,0.312,-0.07,0.487
1983860,3397.0,3742.0,6557.0,0.813,0.312,-0.071,0.487
1983876,3445.0,3650.0,6543.0,0.813,0.312,-0.071,0.487
1983902,3429.0,3710.0,6475.0,0.813,0.312,-0.071,0.487
1983919,3421.0,3640.0,6517.0,0.813,0.312,-0.072,0.487
1983936,3423.0,3652.0,6461.0,0.813,0.312,-0.072,0.486
1983953,3379.0,3600.0,6521.0,0.813,0.312,-0.072,0.486
1983969,3445.0,3566.0,6543.0,0.814,0.311,-0.073,0.486
1983985,3471.0,3524.0,6521.0,0.814,0.311,-0.073,0.486
1984001,3495.0,3472.0,6547.0,0.814,0.311,-0.073,0.485
1984017,3433.0,3464.0,6515.0,0.814,0.31,-0.074,0.485
1984043,3443.0,3486.0,6545.0,0.814,0.31,-0.074,0.485
1984059,3423.0,3502.0,6533.0,0.814,0.31,-0.074,0.485
1984075,3515.0,3456.0,6593.0,0.815,0.31,-0.074,0.485
1984091,3521.0,3446.0,6617.0,0.815,0.31,-0.074,0.485
1984107,3457.0,3434.0,6639.0,0.815,0.31,-0.074,0.485
1984123,3511.0,3438.0,6589.0,0.815,0.31,-0.074,0.485
1984149,3461.0,3464.0,6523.0,0.815,0.31,-0.074,0.485
1984165,3509.0,3606.0,6517.0,0.815,0.31,-0.073,0.484
1984181,3443.0,3568.0,6553.0,0.815,0.31,-0.073,0.484
1984200,3501.0,3556.0,6531.0,0.815,0.311,-0.073,0.484
1984216,3543.0,3532.0,6479.0,0.815,0.311,-0.072,0.484
1984232,3501.0,3584.0,6511.0,0.815,0.311,-0.072,0.483
1984248,3483.0,3694.0,6529.0,0.815,0.311,-0.071,0.483
1984274,3343.0,3600.0,6535.0,0.816,0.311,-0.071,0.483
1984290,3343.0,3650.0,6577.0,0.816,0.311,-0.07,0.482
1984306,3281.0,3660.0,6625.0,0.816,0.311,-0.07,0.482
1984322,3291.0,3666.0,6603.0,0.817,0.311,-0.069,0.482
1984338,3369.0,3710.0,6653.0,0.817,0.311,-0.069,0.481
1984354,3367.0,3694.0,6603.0,0.817,0.311,-0.068,0.481
1984380,3379.0,3716.0,6555.0,0.817,0.311,-0.068,0.48
1984396,3365.0,3736.0,6463.0,0.818,0.311,-0.067,0.48
1984412,3417.0,3700.0,6451.0,0.818,0.311,-0.067,0.479
1984428,3353.0,3704.0,6413.0,0.818,0.311,-0.066,0.478
1984444,3293.0,3652.0,6469.0,0.819,0.311,-0.066,0.478
1984460,3303.0,3632.0,6485.0,0.819,0.311,-0.065,0.477
1984486,3309.0,3616.0,6545.0,0.82,0.311,-0.065,0.476
1984502,3283.0,3494.0,6511.0,0.82,0.311,-0.064,0.475
1984518,3247.0,3508.0,6599.0,0.821,0.311,-0.063,0.475
1984534,3201.0,3584.0,6661.0,0.821,0.311,-0.062,0.474
1984550,3169.0,3608.0,6645.0,0.822,0.31,-0.062,0.474
1984566,3181.0,3412.0,6631.0,0.822,0.31,-0.061,0.473
1984592,3149.0,3496.0,6579.0,0.823,0.31,-0.06,0.473
1984608,3115.0,3514.0,6623.0,0.823,0.31,-0.059,0.472
1984624,2987.0,3536.0,6587.0,0.823,0.311,-0.058,0.472
1984640,3003.0,3544.0,6537.0,0.823,0.311,-0.056,0.472
1984656,2945.0,3698.0,6571.0,0.823,0.312,-0.055,0.471
1984672,2935.0,3652.0,6671.0,0.823,0.313,-0.054,0.47
1984698,2883.0,3704.0,6591.0,0.823,0.314,-0.053,0.47
1984714,2965.0,3886.0,6575.0,0.823,0.315,-0.053,0.469
1984730,2965.0,3950.0,6567.0,0.823,0.316,-0.052,0.469
1984746,3007.0,4048.0,6545.0,0.823,0.318,-0.051,0.468
1984762,3019.0,4046.0,6487.0,0.823,0.319,-0.051,0.467
1984778,3095.0,4090.0,6417.0,0.823,0.32,-0.05,0.467
1984804,3131.0,4174.0,6393.0,0.823,0.322,-0.05,0.466
1984821,3121.0,4240.0,6399.0,0.823,0.322,-0.049,0.465
1984837,3151.0,4190.0,6389.0,0.823,0.323,-0.049,0.465
1984854,3061.0,4180.0,6357.0,0.823,0.324,-0.048,0.464
1984871,2997.0,4164.0,6357.0,0.823,0.324,-0.048,0.464
1984888,3013.0,4190.0,6423.0,0.824,0.324,-0.048,0.463
1984905,2981.0,4100.0,6431.0,0.824,0.324,-0.048,0.462
1984922,2927.0,4112.0,6467.0,0.824,0.324,-0.048,0.462
1984939,2959.0,4080.0,6477.0,0.825,0.324,-0.048,0.461
1984956,2947.0,4136.0,6485.0,0.825,0.324,-0.049,0.461
1984982,2947.0,4038.0,6495.0,0.825,0.323,-0.049,0.46
1984998,2963.0,4030.0,6459.0,0.826,0.323,-0.05,0.46
1985014,3015.0,3994.0,6479.0,0.826,0.323,-0.05,0.46
1985030,2985.0,3964.0,6461.0,0.826,0.323,-0.051,0.459
1985046,2955.0,3910.0,6409.0,0.826,0.323,-0.051,0.459
1985062,2977.0,4094.0,6353.0,0.826,0.323,-0.052,0.459
1985088,2987.0,4058.0,6407.0,0.826,0.323,-0.053,0.459
1985104,2985.0,3940.0,6515.0,0.826,0.323,-0.053,0.458
1985120,2987.0,3924.0,6459.0,0.826,0.323,-0.054,0.458
1985136,3023.0,4012.0,6505.0,0.827,0.323,-0.055,0.458
1985152,3041.0,3986.0,6579.0,0.827,0.323,-0.056,0.457
1985168,3099.0,3848.0,6605.0,0.827,0.323,-0.057,0.456
1985194,3233.0,3890.0,6529.0,0.828,0.323,-0.058,0.456
1985210,3431.0,4054.0,6397.0,0.828,0.324,-0.059,0.455
1985226,3599.0,4144.0,6353.0,0.828,0.324,-0.061,0.454
1985242,3763.0,4118.0,6275.0,0.828,0.324,-0.062,0.453
1985258,3833.0,4132.0,6227.0,0.829,0.325,-0.062,0.452
1985274,3819.0,4108.0,6175.0,0.829,0.325,-0.062,0.45
1985300,3691.0,3998.0,6185.0,0.83,0.324,-0.062,0.449
1985316,3595.0,3906.0,6247.0,0.831,0.324,-0.062,0.448
1985332,3501.0,3916.0,6325.0,0.832,0.323,-0.062,0.447
1985348,3411.0,3812.0,6477.0,0.833,0.322,-0.062,0.446
1985364,3301.0,3588.0,6671.0,0.834,0.321,-0.062,0.445
1985380,3175.0,3418.0,6839.0,0.834,0.321,-0.063,0.444
1985406,3207.0,3634.0,6661.0,0.835,0.321,-0.063,0.443
1985422,3171.0,3550.0,6807.0,0.836,0.321,-0.064,0.441
1985438,3201.0,3526.0,6577.0,0.836,0.322,-0.065,0.439
1985454,3357.0,3918.0,6671.0,0.837,0.323,-0.066,0.437
1985470,3299.0,3800.0,6401.0,0.838,0.324,-0.067,0.434
1985486,3349.0,3810.0,6277.0,0.839,0.324,-0.068,0.432
1985512,3259.0,3760.0,6365.0,0.84,0.325,-0.068,0.429
1985528,3175.0,3626.0,6439.0,0.841,0.326,-0.068,0.427
1985544,3157.0,3836.0,6345.0,0.842,0.327,-0.068,0.425
1985560,3135.0,4166.0,6317.0,0.842,0.328,-0.068,0.423
1985576,3075.0,4090.0,6385.0,0.842,0.329,-0.068,0.421
1985592,3069.0,3964.0,6421.0,0.843,0.329,-0.067,0.42
1985618,3063.0,3760.0,6387.0,0.843,0.33,-0.067,0.42
1985634,2997.0,3806.0,6271.0,0.843,0.331,-0.066,0.419
1985650,3017.0,3818.0,6323.0,0.843,0.332,-0.064,0.419
1985666,2909.0,3912.0,6425.0,0.842,0.333,-0.062,0.419
1985682,2939.0,4208.0,6349.0,0.842,0.334,-0.061,0.42
1985698,3003.0,4414.0,6293.0,0.841,0.336,-0.059,0.42
1985724,3031.0,4420.0,6211.0,0.84,0.337,-0.057,0.421
1985740,2993.0,4372.0,6231.0,0.839,0.338,-0.056,0.422
1985756,2993.0,4396.0,6261.0,0.839,0.34,-0.054,0.422
1985772,2965.0,4476.0,6251.0,0.838,0.341,-0.053,0.422
1985788,3027.0,4594.0,6235.0,0.837,0.343,-0.052,0.423
1985814,2985.0,4728.0,6387.0,0.837,0.344,-0.051,0.423
1985830,2927.0,4916.0,6385.0,0.836,0.346,-0.05,0.423
1985846,3011.0,4818.0,6223.0,0.836,0.347,-0.05,0.423
1985862,3093.0,4732.0,6039.0,0.835,0.349,-0.049,0.422
1985878,2993.0,4668.0,5897.0,0.835,0.35,-0.049,0.422
1985894,3057.0,4720.0,5853.0,0.835,0.35,-0.048,0.421
1985920,3025.0,4800.0,5839.0,0.835,0.351,-0.048,0.42
1985936,3085.0,4762.0,6047.0,0.836,0.351,-0.048,0.419
1985952,3097.0,4740.0,6187.0,0.836,0.35,-0.047,0.419
1985968,3007.0,4646.0,6231.0,0.837,0.35,-0.047,0.418
1985984,3025.0,4546.0,6149.0,0.838,0.349,-0.047,0.418
1986000,2973.0,4484.0,6133.0,0.838,0.348,-0.047,0.417
1986026,2915.0,4464.0,6105.0,0.839,0.347,-0.047,0.416
1986042,2897.0,4414.0,6107.0,0.84,0.346,-0.046,0.416
1986058,2991.0,4448.0,6195.0,0.84,0.345,-0.046,0.415
1986074,2921.0,4266.0,6267.0,0.841,0.344,-0.046,0.415
1986090,2943.0,4304.0,6215.0,0.841,0.344,-0.046,0.415
1986107,2957.0,4400.0,6227.0,0.842,0.343,-0.046,0.414
1986123,2971.0,4316.0,6279.0,0.842,0.342,-0.046,0.414
1986149,2927.0,4252.0,6293.0,0.842,0.342,-0.046,0.414
1986165,2953.0,4272.0,6255.0,0.843,0.342,-0.046,0.414
1986181,2905.0,4364.0,6277.0,0.843,0.341,-0.046,0.414
1986197,2937.0,4250.0,6273.0,0.843,0.341,-0.046,0.414
1986213,2919.0,4298.0,6277.0,0.843,0.341,-0.046,0.414
1986229,2877.0,4444.0,6345.0,0.843,0.342,-0.046,0.414
1986255,2855.0,4496.0,6271.0,0.843,0.342,-0.046,0.414
1986271,2775.0,4488.0,6265.0,0.843,0.342,-0.045,0.414
1986287,2833.0,4566.0,6233.0,0.842,0.343,-0.045,0.413
1986303,2827.0,4594.0,6121.0,0.842,0.343,-0.046,0.413
1986319,2889.0,4550.0,6133.0,0.842,0.343,-0.046,0.413
1986345,2959.0,4424.0,6111.0,0.842,0.343,-0.046,0.413
1986361,3059.0,4432.0,6089.0,0.842,0.343,-0.047,0.413
1986377,3005.0,4412.0,6263.0,0.843,0.343,-0.048,0.413
1986393,3079.0,4410.0,6305.0,0.843,0.342,-0.048,0.413
1986409,3053.0,4404.0,6199.0,0.843,0.342,-0.049,0.413
1986425,3111.0,4396.0,6269.0,0.843,0.341,-0.05,0.413
1986442,3053.0,4244.0,6227.0,0.843,0.341,-0.051,0.412
1986468,3087.0,4204.0,6227.0,0.844,0.34,-0.051,0.412
1986484,3095.0,4136.0,6303.0,0.844,0.339,-0.052,0.412
1986500,3039.0,4128.0,6311.0,0.844,0.338,-0.053,0.413
1986516,3051.0,4056.0,6417.0,0.844,0.338,-0.054,0.413
1986532,3053.0,4044.0,6367.0,0.844,0.337,-0.054,0.413
1986548,3117.0,4008.0,6391.0,0.844,0.336,-0.055,0.414
1986574,3115.0,4158.0,6415.0,0.844,0.336,-0.055,0.414
1986590,3073.0,4168.0,6331.0,0.844,0.336,-0.055,0.415
1986606,3057.0,4110.0,6303.0,0.843,0.336,-0.055,0.415
1986622,3111.0,4196.0,6317.0,0.843,0.337,-0.055,0.416
1986638,3091.0,4278.0,6375.0,0.843,0.337,-0.054,0.416
1986654,3071.0,4280.0,6325.0,0.842,0.338,-0.054,0.416
1986680,3053.0,4382.0,6295.0,0.842,0.339,-0.054,0.417
1986696,3003.0,4380.0,6243.0,0.842,0.339,-0.053,0.417
1986712,2975.0,4410.0,6239.0,0.841,0.34,-0.053,0.417
1986728,2931.0,4432.0,6191.0,0.841,0.34,-0.052,0.417
1986747,2957.0,4502.0,6247.0,0.841,0.341,-0.052,0.417
1986763,2951.0,4516.0,6219.0,0.841,0.341,-0.052,0.416
1986779,2925.0,4630.0,6263.0,0.841,0.342,-0.051,0.416
1986805,2959.0,4534.0,6277.0,0.841,0.342,-0.051,0.416
1986821,2939.0,4516.0,6163.0,0.841,0.342,-0.052,0.416
1986837,2957.0,4470.0,6155.0,0.841,0.341,-0.052,0.416
1986853,2967.0,4476.0,6189.0,0.842,0.341,-0.052,0.416
1986869,3019.0,4380.0,6273.0,0.842,0.341,-0.052,0.415
1986885,2987.0,4456.0,6265.0,0.842,0.34,-0.052,0.415
1986911,3057.0,4350.0,6221.0,0.842,0.34,-0.053,0.415
1986927,3009.0,4288.0,6297.0,0.843,0.339,-0.053,0.415
1986943,3007.0,4370.0,6291.0,0.843,0.339,-0.053,0.415
1986959,3023.0,4278.0,6321.0,0.843,0.339,-0.054,0.415
1986975,3067.0,4214.0,6275.0,0.843,0.338,-0.054,0.414
1986991,3039.0,4216.0,6285.0,0.843,0.338,-0.054,0.414
1987017,3069.0,4266.0,6305.0,0.843,0.338,-0.054,0.414
1987033,3097.0,4222.0,6353.0,0.844,0.338,-0.055,0.414
1987049,3061.0,4134.0,6333.0,0.844,0.337,-0.055,0.414
1987065,3005.0,4162.0,6315.0,0.844,0.337,-0.055,0.414
1987081,3027.0,4178.0,6357.0,0.844,0.337,-0.055,0.414
1987097,3015.0,4154.0,6295.0,0.844,0.337,-0.055,0.414
1987123,3063.0,4230.0,6307.0,0.844,0.337,-0.055,0.414
1987139,3055.0,4226.0,6285.0,0.844,0.337,-0.055,0.414
1987155,3041.0,4264.0,6273.0,0.844,0.338,-0.055,0.414
1987171,3033.0,4300.0,6273.0,0.844,0.338,-0.055,0.414
1987187,3029.0,4372.0,6285.0,0.844,0.338,-0.055,0.414
1987203,3109.0,4314.0,6265.0,0.843,0.338,-0.055,0.414
1987229,3057.0,4442.0,6263.0,0.843,0.338,-0.055,0.414
1987245,3071.0,4384.0,6239.0,0.843,0.339,-0.055,0.414
1987261,3049.0,4450.0,6231.0,0.843,0.339,-0.055,0.414
1987277,3077.0,4328.0,6215.0,0.843,0.339,-0.055,0.414
1987293,3001.0,4360.0,6277.0,0.843,0.339,-0.055,0.413
1987309,2973.0,4344.0,6275.0,0.844,0.338,-0.055,0.413
1987335,2987.0,4366.0,6293.0,0.844,0.338,-0.055,0.413
1987351,2983.0,4314.0,6319.0,0.844,0.338,-0.055,0.413
1987367,2979.0,4310.0,6331.0,0.844,0.338,-0.055,0.413
1987383,3015.0,4302.0,6285.0,0.844,0.338,-0.055,0.413
1987399,2969.0,4344.0,6257.0,0.844,0.338,-0.055,0.413
1987415,3057.0,4274.0,6325.0,0.844,0.338,-0.055,0.413
1987441,3035.0,4302.0,6283.0,0.844,0.338,-0.055,0.413
1987457,3065.0,4306.0,6289.0,0.844,0.338,-0.055,0.413
1987473,3005.0,4324.0,6265.0,0.844,0.338,-0.055,0.413
1987489,2987.0,4280.0,6241.0,0.844,0.338,-0.055,0.413
1987505,3103.0,4348.0,6257.0,0.844,0.338,-0.055,0.412
1987521,3105.0,4256.0,6273.0,0.844,0.338,-0.055,0.412
1987547,3025.0,4318.0,6283.0,0.844,0.338,-0.055,0.412
1987563,3029.0,4298.0,6229.0,0.844,0.338,-0.055,0.412
1987579,3031.0,4292.0,6287.0,0.844,0.338,-0.055,0.412
1987595,3055.0,4266.0,6295.0,0.844,0.338,-0.055,0.412
1987611,3021.0,4304.0,6285.0,0.845,0.338,-0.055,0.412
1987637,3057.0,4304.0,6279.0,0.845,0.338,-0.055,0.412
1987653,2989.0,4310.0,6345.0,0.845,0.338,-0.055,0.412
1987669,3035.0,4272.0,6317.0,0.845,0.338,-0.055,0.412
1987685,3025.0,4312.0,6287.0,0.845,0.338,-0.055,0.412
1987701,2993.0,4328.0,6323.0,0.845,0.338,-0.055,0.412
1987717,3011.0,4294.0,6315.0,0.845,0.338,-0.055,0.411
1987743,3013.0,4280.0,6297.0,0.845,0.338,-0.055,0.411
1987760,3031.0,4342.0,6261.0,0.845,0.338,-0.055,0.411
1987776,3047.0,4324.0,6331.0,0.845,0.338,-0.055,0.411
1987792,3005.0,4354.0,6339.0,0.845,0.338,-0.055,0.411
1987808,3021.0,4282.0,6325.0,0.845,0.338,-0.056,0.411
1987825,3005.0,4306.0,6279.0,0.845,0.338,-0.056,0.411
1987841,2977.0,4258.0,6249.0,0.845,0.338,-0.056,0.41
1987867,3021.0,4270.0,6261.0,0.845,0.338,-0.056,0.41
1987884,3045.0,4286.0,6253.0,0.845,0.338,-0.056,0.41
1987900,3097.0,4338.0,6245.0,0.845,0.338,-0.057,0.41
1987916,3083.0,4306.0,6313.0,0.845,0.338,-0.057,0.41
1987933,3019.0,4300.0,6289.0,0.845,0.338,-0.057,0.41
1987949,3041.0,4356.0,6327.0,0.845,0.338,-0.057,0.41
1987966,3041.0,4288.0,6285.0,0.845,0.338,-0.057,0.41
1987982,3025.0,4370.0,6235.0,0.846,0.338,-0.057,0.409
1988008,3059.0,4260.0,6315.0,0.846,0.338,-0.057,0.409
1988024,3009.0,4288.0,6313.0,0.846,0.338,-0.056,0.409
1988040,3049.0,4340.0,6283.0,0.846,0.338,-0.056,0.409
1988056,3047.0,4330.0,6303.0,0.846,0.338,-0.057,0.409
1988072,2979.0,4272.0,6389.0,0.846,0.337,-0.057,0.409
1988089,3001.0,4228.0,6331.0,0.846,0.337,-0.057,0.409
1988105,2999.0,4234.0,6291.0,0.846,0.337,-0.057,0.409
1988132,3013.0,4278.0,6259.0,0.846,0.338,-0.057,0.409
1988149,3035.0,4228.0,6303.0,0.846,0.338,-0.057,0.409
1988166,3011.0,4322.0,6279.0,0.846,0.338,-0.057,0.408
1988182,3031.0,4280.0,6293.0,0.846,0.338,-0.057,0.408
1988199,3075.0,4298.0,6279.0,0.846,0.338,-0.057,0.408
1988215,3069.0,4324.0,6329.0,0.846,0.338,-0.057,0.408
1988232,3071.0,4312.0,6281.0,0.846,0.338,-0.057,0.408
1988249,3011.0,4314.0,6237.0,0.846,0.338,-0.057,0.407
1988266,3039.0,4352.0,6301.0,0.846,0.338,-0.057,0.407
1988282,3051.0,4250.0,6277.0,0.846,0.338,-0.057,0.407
1988308,3023.0,4326.0,6303.0,0.847,0.338,-0.057,0.407
1988324,3045.0,4294.0,6249.0,0.847,0.338,-0.057,0.407
1988340,3041.0,4338.0,6259.0,0.847,0.338,-0.057,0.407
1988356,2985.0,4324.0,6313.0,0.847,0.338,-0.057,0.407
1988372,3019.0,4320.0,6253.0,0.847,0.338,-0.057,0.406
1988398,3037.0,4218.0,6263.0,0.847,0.338,-0.057,0.406
1988414,2995.0,4326.0,6301.0,0.847,0.338,-0.057,0.406
1988430,3049.0,4298.0,6283.0,0.847,0.338,-0.057,0.406
1988446,3029.0,4340.0,6301.0,0.847,0.338,-0.058,0.406
1988462,3053.0,4332.0,6289.0,0.847,0.338,-0.058,0.406
1988478,3031.0,4268.0,6313.0,0.847,0.339,-0.058,0.406
1988504,3001.0,4348.0,6267.0,0.847,0.339,-0.058,0.406
1988520,3037.0,4342.0,6241.0,0.847,0.339,-0.058,0.406
1988536,3053.0,4368.0,6295.0,0.847,0.339,-0.058,0.405
1988552,3073.0,4314.0,6281.0,0.847,0.339,-0.058,0.405
1988568,3011.0,4354.0,6317.0,0.847,0.339,-0.058,0.405
1988584,3053.0,4300.0,6311.0,0.847,0.339,-0.058,0.405
1988610,3059.0,4338.0,6291.0,0.847,0.339,-0.058,0.405
1988627,2973.0,4310.0,6299.0,0.847,0.339,-0.058,0.405
1988643,3029.0,4334.0,6303.0,0.847,0.339,-0.058,0.405
1988660,2959.0,4372.0,6271.0,0.847,0.339,-0.058,0.405
1988677,3017.0,4388.0,6255.0,0.847,0.339,-0.058,0.405
1988693,3017.0,4326.0,6223.0,0.847,0.339,-0.058,0.405
1988709,3039.0,4348.0,6159.0,0.847,0.339,-0.058,0.405
1988726,3005.0,4310.0,6229.0,0.847,0.339,-0.058,0.404
1988752,3013.0,4340.0,6233.0,0.848,0.339,-0.058,0.404
1988769,3007.0,4344.0,6245.0,0.848,0.339,-0.058,0.404
1988785,3021.0,4290.0,6341.0,0.848,0.339,-0.058,0.404
1988801,3061.0,4268.0,6309.0,0.848,0.338,-0.058,0.404
1988817,3043.0,4292.0,6327.0,0.848,0.338,-0.058,0.403
1988833,3045.0,4312.0,6291.0,0.848,0.338,-0.058,0.403
1988849,3019.0,4248.0,6307.0,0.849,0.338,-0.058,0.403
1988875,3053.0,4190.0,6283.0,0.849,0.338,-0.058,0.403
1988891,2977.0,4250.0,6271.0,0.849,0.338,-0.058,0.403
1988907,2969.0,4258.0,6299.0,0.849,0.338,-0.058,0.403
1988923,3009.0,4260.0,6379.0,0.849,0.338,-0.058,0.403
1988939,2991.0,4216.0,6343.0,0.849,0.338,-0.058,0.403
1988955,3029.0,4282.0,6343.0,0.848,0.339,-0.058,0.403
1988981,3055.0,4250.0,6285.0,0.848,0.339,-0.058,0.403
1988998,3049.0,4324.0,6317.0,0.848,0.339,-0.057,0.403
1989015,3015.0,4408.0,6233.0,0.848,0.34,-0.057,0.403
1989031,3097.0,4366.0,6227.0,0.848,0.34,-0.057,0.402
1989047,3021.0,4446.0,6233.0,0.848,0.34,-0.057,0.402
1989063,3011.0,4350.0,6223.0,0.848,0.341,-0.057,0.402
1989079,3051.0,4372.0,6189.0,0.848,0.341,-0.057,0.402
1989105,3015.0,4402.0,6191.0,0.848,0.341,-0.057,0.402
1989121,2999.0,4420.0,6245.0,0.848,0.341,-0.057,0.402
1989137,3059.0,4416.0,6273.0,0.848,0.341,-0.057,0.402
1989153,3031.0,4422.0,6257.0,0.848,0.341,-0.057,0.401
1989169,3051.0,4432.0,6209.0,0.848,0.341,-0.057,0.401
1989185,2991.0,4434.0,6239.0,0.848,0.341,-0.057,0.401
1989211,2959.0,4390.0,6235.0,0.848,0.341,-0.057,0.401
1989228,2985.0,4364.0,6295.0,0.848,0.341,-0.057,0.401
1989245,2997.0,4332.0,6249.0,0.848,0.341,-0.057,0.401
1989262,3007.0,4362.0,6261.0,0.849,0.341,-0.057,0.401
1989278,2965.0,4354.0,6293.0,0.849,0.341,-0.057,0.401
1989294,2943.0,4302.0,6251.0,0.849,0.34,-0.057,0.401
1989311,2977.0,4324.0,6233.0,0.849,0.34,-0.057,0.4
1989328,3019.0,4256.0,6257.0,0.849,0.34,-0.057,0.4
1989344,3025.0,4320.0,6259.0,0.849,0.34,-0.057,0.4
1989371,3079.0,4306.0,6245.0,0.849,0.34,-0.057,0.4
1989387,3059.0,4348.0,6229.0,0.849,0.341,-0.057,0.4
1989403,3029.0,4380.0,6245.0,0.849,0.341,-0.058,0.4
1989419,3061.0,4356.0,6271.0,0.849,0.341,-0.058,0.4
1989435,3037.0,4314.0,6231.0,0.849,0.341,-0.058,0.4
1989451,2973.0,4342.0,6271.0,0.849,0.341,-0.057,0.4
1989477,2903.0,4338.0,6275.0,0.849,0.341,-0.057,0.399
1989496,2969.0,4354.0,6247.0,0.849,0.341,-0.057,0.399
1989513,2969.0,4360.0,6221.0,0.849,0.341,-0.058,0.399
1989529,2985.0,4378.0,6181.0,0.849,0.341,-0.058,0.399
1989545,3003.0,4440.0,6247.0,0.849,0.341,-0.058,0.399
1989562,3003.0,4408.0,6297.0,0.849,0.341,-0.058,0.399
1989578,3011.0,4402.0,6287.0,0.849,0.341,-0.058,0.399
1989595,3025.0,4358.0,6215.0,0.849,0.341,-0.058,0.399
1989611,2993.0,4392.0,6221.0,0.849,0.341,-0.058,0.399
1989637,2991.0,4424.0,6283.0,0.849,0.34,-0.058,0.399
1989653,2977.0,4342.0,6253.0,0.849,0.34,-0.058,0.399
1989669,2991.0,4362.0,6269.0,0.85,0.34,-0.058,0.399
1989685,2997.0,4352.0,6305.0,0.85,0.34,-0.058,0.399
1989701,2995.0,4344.0,6299.0,0.85,0.34,-0.058,0.399
1989717,2961.0,4296.0,6317.0,0.85,0.34,-0.058,0.399
1989743,2943.0,4294.0,6273.0,0.85,0.34,-0.058,0.399
1989759,2991.0,4272.0,6289.0,0.85,0.34,-0.058,0.399
1989775,2955.0,4314.0,6339.0,0.85,0.34,-0.058,0.399
1989791,3005.0,4318.0,6287.0,0.85,0.34,-0.058,0.399
1989807,3067.0,4312.0,6257.0,0.85,0.34,-0.059,0.399
1989823,3051.0,4344.0,6251.0,0.85,0.34,-0.059,0.399
1989849,3019.0,4348.0,6243.0,0.85,0.34,-0.059,0.398
1989865,3011.0,4332.0,6227.0,0.85,0.34,-0.059,0.398
1989881,3035.0,4286.0,6255.0,0.85,0.34,-0.059,0.398
1989897,3033.0,4338.0,6263.0,0.85,0.34,-0.059,0.398
1989913,3003.0,4316.0,6253.0,0.85,0.34,-0.059,0.398
1989929,2985.0,4296.0,6297.0,0.85,0.34,-0.058,0.398
1989955,2975.0,4324.0,6257.0,0.85,0.34,-0.058,0.398
1989971,2961.0,4328.0,6265.0,0.85,0.34,-0.058,0.398
1989987,3025.0,4324.0,6249.0,0.85,0.34,-0.058,0.398
1990003,2995.0,4378.0,6237.0,0.85,0.34,-0.058,0.398
1990019,3019.0,4380.0,6283.0,0.85,0.34,-0.058,0.398
1990035,3039.0,4368.0,6221.0,0.85,0.34,-0.058,0.397
1990061,3007.0,4348.0,6285.0,0.85,0.34,-0.058,0.397
1990077,2991.0,4378.0,6291.0,0.85,0.34,-0.058,0.397
1990093,2975.0,4432.0,6223.0,0.85,0.34,-0.058,0.397
1990109,2991.0,4388.0,6251.0,0.851,0.34,-0.058,0.397
1990125,2961.0,4392.0,6281.0,0.851,0.34,-0.059,0.397
1990141,3011.0,4352.0,6261.0,0.851,0.339,-0.059,0.397
1990167,3025.0,4250.0,6287.0,0.851,0.339,-0.059,0.397
1990183,2991.0,4388.0,6255.0,0.851,0.339,-0.059,0.396
1990199,3007.0,4360.0,6253.0,0.851,0.339,-0.059,0.396
1990215,3039.0,4330.0,6275.0,0.851,0.339,-0.059,0.396
1990231,3027.0,4362.0,6239.0,0.851,0.339,-0.059,0.396
1990247,3019.0,4326.0,6225.0,0.851,0.339,-0.059,0.396
1990273,3039.0,4292.0,6297.0,0.852,0.339,-0.059,0.396
1990289,2997.0,4328.0,6309.0,0.852,0.339,-0.059,0.396
1990305,2969.0,4296.0,6319.0,0.852,0.338,-0.059,0.396
1990321,3023.0,4298.0,6299.0,0.852,0.338,-0.059,0.395
1990337,2983.0,4312.0,6331.0,0.852,0.338,-0.059,0.395
1990353,2907.0,4284.0,6275.0,0.852,0.338,-0.059,0.395
1990379,2955.0,4266.0,6275.0,0.852,0.338,-0.059,0.395
1990395,2971.0,4270.0,6223.0,0.852,0.338,-0.059,0.395
1990411,3037.0,4320.0,6241.0,0.852,0.339,-0.059,0.394
1990427,3027.0,4368.0,6227.0,0.852,0.339,-0.059,0.394
1990443,2987.0,4350.0,6249.0,0.852,0.339,-0.059,0.394
1990469,3013.0,4416.0,6277.0,0.852,0.339,-0.059,0.394
1990485,2983.0,4400.0,6283.0,0.852,0.339,-0.059,0.394
1990501,2979.0,4394.0,6217.0,0.852,0.339,-0.059,0.394
1990517,3039.0,4338.0,6219.0,0.852,0.339,-0.059,0.394
1990533,2939.0,4330.0,6251.0,0.852,0.339,-0.059,0.394
1990549,2947.0,4444.0,6281.0,0.852,0.339,-0.059,0.394
1990575,2935.0,4392.0,6295.0,0.852,0.339,-0.058,0.394
1990592,2949.0,4386.0,6245.0,0.852,0.339,-0.058,0.394
1990608,2979.0,4320.0,6253.0,0.852,0.339,-0.058,0.394
1990624,2955.0,4344.0,6327.0,0.852,0.339,-0.058,0.394
1990640,2913.0,4370.0,6305.0,0.853,0.339,-0.059,0.394
1990657,3001.0,4286.0,6273.0,0.853,0.339,-0.059,0.394
1990673,2981.0,4328.0,6261.0,0.853,0.339,-0.059,0.393
1990699,2983.0,4360.0,6265.0,0.853,0.339,-0.059,0.393
1990715,2985.0,4326.0,6259.0,0.853,0.339,-0.059,0.393
1990731,2995.0,4352.0,6247.0,0.853,0.339,-0.059,0.393
1990747,3007.0,4350.0,6271.0,0.853,0.339,-0.059,0.393
1990763,3009.0,4368.0,6329.0,0.853,0.339,-0.059,0.393
1990779,2993.0,4318.0,6271.0,0.853,0.339,-0.059,0.393
1990805,3009.0,4354.0,6305.0,0.853,0.339,-0.059,0.393
1990821,2979.0,4308.0,6269.0,0.853,0.339,-0.059,0.393
1990837,3035.0,4368.0,6295.0,0.853,0.339,-0.059,0.393
1990853,3005.0,4362.0,6277.0,0.853,0.339,-0.059,0.393
1990869,2967.0,4444.0,6275.0,0.853,0.339,-0.059,0.393
1990885,2963.0,4334.0,6297.0,0.853,0.339,-0.059,0.392
1990911,2915.0,4404.0,6309.0,0.853,0.339,-0.059,0.392
1990927,2977.0,4344.0,6255.0,0.853,0.339,-0.059,0.392
1990943,3003.0,4404.0,6239.0,0.853,0.339,-0.059,0.392
1990960,2993.0,4384.0,6271.0,0.853,0.339,-0.059,0.392
1990976,2973.0,4352.0,6305.0,0.853,0.339,-0.059,0.392
1990992,2959.0,4328.0,6325.0,0.853,0.339,-0.06,0.392
1991008,3107.0,4402.0,6339.0,0.853,0.339,-0.06,0.392
1991034,2961.0,4396.0,6261.0,0.853,0.339,-0.06,0.392
1991051,3017.0,4300.0,6275.0,0.853,0.339,-0.06,0.392
1991067,3021.0,4368.0,6327.0,0.853,0.339,-0.06,0.392
1991083,3053.0,4270.0,6259.0,0.853,0.339,-0.06,0.391
1991100,3041.0,4336.0,6261.0,0.853,0.339,-0.06,0.391
1991116,2961.0,4298.0,6289.0,0.853,0.339,-0.06,0.391
1991132,2987.0,4352.0,6289.0,0.854,0.339,-0.06,0.391
1991158,3013.0,4302.0,6223.0,0.854,0.339,-0.06,0.391
1991174,2995.0,4304.0,6257.0,0.853,0.339,-0.06,0.391
1991190,2961.0,4362.0,6267.0,0.853,0.339,-0.06,0.391
1991206,3027.0,4346.0,6281.0,0.853,0.339,-0.06,0.391
1991222,2949.0,4354.0,6263.0,0.853,0.339,-0.06,0.391
1991238,3019.0,4408.0,6277.0,0.853,0.339,-0.06,0.391
1991264,2993.0,4428.0,6293.0,0.853,0.34,-0.06,0.391
1991280,3003.0,4426.0,6275.0,0.853,0.34,-0.06,0.391
1991296,2977.0,4448.0,6291.0,0.854,0.34,-0.06,0.39
1991313,2937.0,4380.0,6221.0,0.854,0.34,-0.06,0.39
1991329,2931.0,4368.0,6275.0,0.854,0.34,-0.06,0.39
1991345,2977.0,4348.0,6237.0,0.854,0.34,-0.06,0.39
1991362,2973.0,4374.0,6213.0,0.854,0.34,-0.06,0.39
1991388,2981.0,4368.0,6189.0,0.854,0.34,-0.06,0.39
1991404,3035.0,4400.0,6253.0,0.854,0.34,-0.061,0.39
1991420,3013.0,4392.0,6251.0,0.854,0.34,-0.061,0.39
1991436,3075.0,4364.0,6195.0,0.854,0.34,-0.061,0.389
1991452,3025.0,4392.0,6261.0,0.854,0.34,-0.061,0.389
1991468,3063.0,4304.0,6271.0,0.854,0.34,-0.061,0.389
1991494,3045.0,4308.0,6255.0,0.854,0.34,-0.061,0.389
1991510,3013.0,4368.0,6217.0,0.854,0.339,-0.061,0.389
1991526,3017.0,4310.0,6269.0,0.854,0.339,-0.061,0.389
1991542,3009.0,4338.0,6289.0,0.854,0.339,-0.062,0.389
1991558,3037.0,4310.0,6241.0,0.854,0.339,-0.062,0.389
1991584,3001.0,4326.0,6295.0,0.855,0.339,-0.062,0.389
1991600,2987.0,4386.0,6355.0,0.855,0.339,-0.062,0.389
1991616,2987.0,4322.0,6313.0,0.854,0.339,-0.061,0.389
1991632,2963.0,4394.0,6291.0,0.854,0.339,-0.061,0.389
1991648,2991.0,4388.0,6291.0,0.854,0.339,-0.061,0.389
1991664,2987.0,4358.0,6221.0,0.854,0.339,-0.062,0.389
1991681,2941.0,4352.0,6221.0,0.854,0.339,-0.062,0.389
1991707,2963.0,4394.0,6215.0,0.855,0.339,-0.062,0.388
1991723,2991.0,4454.0,6239.0,0.855,0.339,-0.062,0.388
1991739,2973.0,4346.0,6215.0,0.855,0.339,-0.062,0.388
1991756,3001.0,4366.0,6301.0,0.855,0.339,-0.062,0.388
1991772,2961.0,4360.0,6275.0,0.855,0.339,-0.062,0.388
1991788,3021.0,4362.0,6231.0,0.855,0.339,-0.062,0.387
1991814,2997.0,4336.0,6271.0,0.855,0.339,-0.062,0.387
1991830,3003.0,4374.0,6311.0,0.855,0.339,-0.062,0.387
1991846,2957.0,4360.0,6237.0,0.855,0.339,-0.062,0.387
1991862,3023.0,4316.0,6263.0,0.855,0.339,-0.062,0.387
1991878,3073.0,4354.0,6253.0,0.855,0.339,-0.062,0.387
1991895,3045.0,4364.0,6237.0,0.855,0.339,-0.062,0.387
1991911,2981.0,4344.0,6249.0,0.855,0.339,-0.062,0.387
1991937,3015.0,4330.0,6311.0,0.855,0.339,-0.062,0.387
1991953,3011.0,4350.0,6235.0,0.855,0.339,-0.062,0.387
1991969,3047.0,4324.0,6299.0,0.855,0.339,-0.062,0.387
1991985,3055.0,4350.0,6301.0,0.856,0.339,-0.062,0.387
1992001,2979.0,4320.0,6239.0,0.856,0.339,-0.062,0.387
1992019,3009.0,4330.0,6219.0,0.856,0.339,-0.062,0.387
1992035,2993.0,4388.0,6253.0,0.856,0.339,-0.062,0.387
1992061,3003.0,4380.0,6271.0,0.856,0.339,-0.062,0.386
1992077,3007.0,4346.0,6231.0,0.855,0.339,-0.062,0.387
1992093,3001.0,4376.0,6267.0,0.855,0.339,-0.062,0.386
1992109,2985.0,4356.0,6255.0,0.856,0.339,-0.062,0.386
1992125,3029.0,4402.0,6261.0,0.856,0.339,-0.062,0.386
1992142,3011.0,4386.0,6277.0,0.856,0.339,-0.062,0.386
1992159,2957.0,4416.0,6277.0,0.856,0.339,-0.062,0.386
1992176,2957.0,4350.0,6309.0,0.856,0.339,-0.062,0.386
1992202,2949.0,4404.0,6339.0,0.856,0.339,-0.062,0.386
1992218,2983.0,4318.0,6279.0,0.856,0.339,-0.062,0.386
1992234,2949.0,4308.0,6267.0,0.856,0.339,-0.062,0.386
1992250,2961.0,4396.0,6249.0,0.856,0.339,-0.062,0.386
1992266,2953.0,4380.0,6243.0,0.856,0.339,-0.062,0.386
1992292,3023.0,4386.0,6219.0,0.856,0.34,-0.062,0.386
1992308,3053.0,4434.0,6227.0,0.856,0.34,-0.062,0.386
1992324,2965.0,4416.0,6273.0,0.856,0.34,-0.062,0.385
1992340,2989.0,4428.0,6225.0,0.856,0.34,-0.062,0.385
1992356,3017.0,4414.0,6217.0,0.856,0.34,-0.062,0.385
1992372,2999.0,4390.0,6247.0,0.856,0.34,-0.062,0.385
1992398,2985.0,4422.0,6253.0,0.856,0.34,-0.062,0.385
1992414,3051.0,4358.0,6249.0,0.856,0.34,-0.062,0.385
1992431,3025.0,4374.0,6221.0,0.856,0.34,-0.062,0.385
1992448,3021.0,4404.0,6277.0,0.856,0.339,-0.062,0.385
1992465,3007.0,4322.0,6317.0,0.856,0.339,-0.062,0.385
1992482,2953.0,4386.0,6245.0,0.856,0.339,-0.062,0.385
1992499,2941.0,4368.0,6281.0,0.856,0.339,-0.061,0.385
1992516,2935.0,4334.0,6305.0,0.856,0.339,-0.062,0.385
1992533,2973.0,4320.0,6303.0,0.856,0.339,-0.062,0.385
1992550,2999.0,4332.0,6251.0,0.856,0.339,-0.062,0.385
1992567,3023.0,4328.0,6265.0,0.856,0.339,-0.062,0.385
1992583,3071.0,4342.0,6245.0,0.856,0.339,-0.062,0.385
1992609,3043.0,4214.0,6255.0,0.856,0.339,-0.061,0.385
1992625,3047.0,4348.0,6285.0,0.856,0.34,-0.061,0.385
1992641,3103.0,4104.0,6161.0,0.856,0.34,-0.061,0.385
1992657,3199.0,3928.0,6315.0,0.856,0.34,-0.06,0.384
1992673,3177.0,3902.0,6391.0,0.856,0.341,-0.058,0.384
1992699,3493.0,3246.0,6249.0,0.856,0.343,-0.056,0.384
1992715,3961.0,2332.0,6285.0,0.855,0.346,-0.053,0.384
1992731,3923.0,3492.0,6437.0,0.853,0.351,-0.048,0.384
1992747,3671.0,4584.0,6703.0,0.85,0.357,-0.042,0.385
1992763,3807.0,3388.0,6677.0,0.847,0.363,-0.037,0.387
1992780,4119.0,2332.0,6513.0,0.843,0.371,-0.031,0.389
1992797,4271.0,2862.0,6269.0,0.837,0.381,-0.023,0.392
1992823,4355.0,3510.0,5871.0,0.83,0.392,-0.013,0.397
1992839,4283.0,3568.0,5337.0,0.822,0.403,-0.002,0.402
1992855,3989.0,4252.0,4863.0,0.813,0.415,0.011,0.408
1992871,3473.0,3944.0,4405.0,0.803,0.426,0.026,0.416
1992887,3041.0,3280.0,4445.0,0.792,0.438,0.041,0.425
1992903,2847.0,3054.0,3861.0,0.778,0.451,0.057,0.434
1992929,2613.0,4542.0,2855.0,0.762,0.465,0.073,0.444
1992945,2973.0,5570.0,2247.0,0.746,0.477,0.086,0.456
1992962,3619.0,4918.0,3141.0,0.73,0.488,0.099,0.469
1992979,3311.0,3064.0,3195.0,0.711,0.5,0.111,0.481
1992996,3999.0,3520.0,2501.0,0.69,0.515,0.124,0.494
1993014,4349.0,5020.0,1723.0,0.667,0.53,0.137,0.505
1993030,4577.0,5818.0,1291.0,0.643,0.546,0.148,0.517
1993047,4955.0,4688.0,1235.0,0.618,0.56,0.159,0.529
1993064,5259.0,4056.0,787.0,0.591,0.576,0.171,0.539
1993080,5617.0,4054.0,97.0,0.56,0.594,0.185,0.548
1993097,5901.0,6416.0,-749.0,0.528,0.611,0.199,0.555
1993124,5805.0,7230.0,-933.0,0.496,0.625,0.212,0.564
1993141,6175.0,7224.0,-1079.0,0.466,0.637,0.223,0.573
1993157,6207.0,6232.0,-1159.0,0.435,0.647,0.233,0.582
1993173,6593.0,6920.0,-1631.0,0.404,0.655,0.242,0.591
1993189,6677.0,7568.0,-1801.0,0.375,0.661,0.25,0.6
1993205,6777.0,7328.0,-1903.0,0.347,0.665,0.255,0.611
1993221,6819.0,7084.0,-1685.0,0.32,0.666,0.259,0.621
1993247,6701.0,7042.0,-1663.0,0.295,0.667,0.262,0.632
1993264,6795.0,6786.0,-1695.0,0.272,0.666,0.263,0.643
1993281,6727.0,6540.0,-1609.0,0.25,0.665,0.264,0.653
1993298,6913.0,6544.0,-1617.0,0.23,0.662,0.263,0.663
1993315,6937.0,6338.0,-1509.0,0.21,0.659,0.261,0.673
1993332,7283.0,6236.0,-1375.0,0.192,0.656,0.258,0.683
1993349,7173.0,5806.0,-1265.0,0.175,0.653,0.254,0.692
1993366,7241.0,5830.0,-1051.0,0.159,0.649,0.25,0.7
1993382,7321.0,5692.0,-881.0,0.144,0.646,0.246,0.708
1993398,7489.0,5360.0,-721.0,0.129,0.643,0.242,0.715
1993415,7507.0,5250.0,-579.0,0.115,0.64,0.237,0.721
1993442,7547.0,5004.0,-479.0,0.102,0.637,0.233,0.727
1993459,7737.0,5032.0,-409.0,0.09,0.635,0.229,0.733
1993475,7699.0,4820.0,-319.0,0.078,0.632,0.225,0.738
1993491,7803.0,4802.0,-141.0,0.066,0.629,0.22,0.743
1993509,7875.0,4616.0,-111.0,0.055,0.626,0.216,0.747
1993525,7817.0,4666.0,-47.0,0.045,0.623,0.212,0.752
1993542,7713.0,4456.0,123.0,0.035,0.62,0.207,0.756
1993559,7703.0,4242.0,253.0,0.026,0.618,0.204,0.759
1993575,7739.0,4232.0,329.0,0.017,0.616,0.2,0.762
1993601,7603.0,4190.0,387.0,0.009,0.614,0.196,0.765
1993617,7727.0,4046.0,367.0,0.001,0.613,0.192,0.767
1993633,7597.0,4432.0,553.0,0.006,-0.612,-0.188,-0.768
1993649,7789.0,4028.0,345.0,0.013,-0.611,-0.185,-0.77
1993665,7745.0,3714.0,405.0,0.019,-0.61,-0.182,-0.771
1993681,7827.0,3806.0,475.0,0.024,-0.609,-0.179,-0.772
1993707,7733.0,3808.0,335.0,0.029,-0.609,-0.178,-0.773
1993724,7771.0,3820.0,387.0,0.033,-0.608,-0.177,-0.773
1993741,7587.0,4098.0,451.0,0.036,-0.608,-0.177,-0.773
1993758,7429.0,3876.0,651.0,0.038,-0.608,-0.178,-0.773
1993774,7459.0,4168.0,585.0,0.039,-0.609,-0.179,-0.772
1993791,7627.0,4136.0,227.0,0.038,-0.61,-0.18,-0.771
1993808,7615.0,3846.0,181.0,0.037,-0.611,-0.182,-0.77
1993825,7489.0,4022.0,371.0,0.035,-0.611,-0.185,-0.769
1993841,7513.0,4236.0,261.0,0.032,-0.612,-0.189,-0.767
1993867,7439.0,4014.0,131.0,0.028,-0.612,-0.193,-0.766
1993883,7421.0,4244.0,143.0,0.024,-0.613,-0.199,-0.764
1993900,7173.0,4802.0,345.0,0.019,-0.613,-0.206,-0.763
1993916,7277.0,4648.0,213.0,0.012,-0.613,-0.213,-0.761
1993933,7271.0,4594.0,71.0,0.005,-0.613,-0.221,-0.758
1993950,7331.0,4958.0,13.0,0.003,0.613,0.23,0.755
1993966,7521.0,4994.0,-81.0,0.011,0.614,0.24,0.752
1993992,7547.0,5364.0,-99.0,0.02,0.613,0.251,0.749
1994008,7589.0,5472.0,-153.0,0.03,0.613,0.263,0.744
1994024,7535.0,5650.0,-201.0,0.042,0.613,0.276,0.739
1994041,7683.0,6088.0,-149.0,0.054,0.613,0.291,0.733
1994058,7811.0,6544.0,-527.0,0.067,0.612,0.308,0.725
1994075,7795.0,7370.0,-369.0,0.082,0.612,0.325,0.716
1994092,8329.0,8134.0,519.0,0.097,0.612,0.342,0.706
1994109,8285.0,7802.0,-1053.0,0.114,0.613,0.361,0.694
1994125,8085.0,8378.0,-1103.0,0.132,0.613,0.38,0.68
1994142,8101.0,8552.0,-1507.0,0.151,0.614,0.4,0.664
1994159,7835.0,8434.0,-1637.0,0.17,0.613,0.419,0.647
1994185,7677.0,8790.0,-1969.0,0.189,0.612,0.439,0.63
1994201,7215.0,8576.0,-2415.0,0.209,0.61,0.46,0.61
1994217,6817.0,8892.0,-2365.0,0.228,0.608,0.48,0.59
1994233,6599.0,8982.0,-2717.0,0.247,0.605,0.5,0.568
1994249,6125.0,8938.0,-2809.0,0.265,0.602,0.52,0.545
1994275,5569.0,9028.0,-2973.0,0.283,0.599,0.539,0.521
1994292,5015.0,8580.0,-3063.0,0.3,0.595,0.557,0.495
1994308,4603.0,8614.0,-3313.0,0.317,0.592,0.574,0.468
1994324,4277.0,8286.0,-3739.0,0.333,0.589,0.591,0.44
1994340,3719.0,8118.0,-3739.0,0.349,0.585,0.606,0.41
1994356,3637.0,7968.0,-4119.0,0.364,0.581,0.621,0.38
1994373,2937.0,7548.0,-3945.0,0.377,0.578,0.634,0.35
1994389,2421.0,7196.0,-4009.0,0.39,0.574,0.646,0.319
1994415,1803.0,7026.0,-4127.0,0.403,0.57,0.656,0.287
1994431,1357.0,6704.0,-4093.0,0.415,0.566,0.665,0.256
1994447,1083.0,6246.0,-4127.0,0.426,0.562,0.673,0.224
1994463,749.0,6834.0,-4379.0,0.436,0.559,0.679,0.192
1994479,-185.0,5242.0,-3623.0,0.447,0.555,0.683,0.161
1994496,17.0,5246.0,-4021.0,0.457,0.551,0.686,0.13
1994522,-625.0,5200.0,-3799.0,0.465,0.547,0.688,0.099
1994539,-975.0,4484.0,-3787.0,0.473,0.544,0.69,0.07
1994556,-1657.0,4492.0,-3713.0,0.481,0.54,0.69,0.042
1994573,-2149.0,4008.0,-3101.0,0.487,0.536,0.689,0.015
1994589,-2221.0,4052.0,-3341.0,0.494,0.532,0.688,-0.011
1994606,-2671.0,3290.0,-3005.0,0.499,0.528,0.686,-0.036
1994623,-2949.0,3448.0,-2811.0,0.504,0.524,0.684,-0.059
1994640,-3463.0,2988.0,-2767.0,0.508,0.52,0.682,-0.08
1994657,-3905.0,2756.0,-2513.0,0.512,0.516,0.679,-0.101
1994674,-4267.0,2612.0,-2139.0,0.515,0.513,0.676,-0.121
1994691,-4703.0,2386.0,-1643.0,0.518,0.509,0.673,-0.138
1994708,-5063.0,1884.0,-1311.0,0.521,0.505,0.671,-0.153
1994725,-5291.0,1962.0,-783.0,0.523,0.501,0.669,-0.166
1994751,-5359.0,1304.0,-323.0,0.525,0.498,0.667,-0.176
1994767,-5457.0,838.0,317.0,0.526,0.497,0.666,-0.182
1994783,-5487.0,1100.0,789.0,0.526,0.496,0.665,-0.186
1994799,-5547.0,446.0,1031.0,0.525,0.498,0.665,-0.186
1994816,-5609.0,460.0,997.0,0.521,0.501,0.666,-0.182
1994832,-5649.0,880.0,429.0,0.517,0.505,0.668,-0.175
1994858,-5163.0,830.0,-31.0,0.51,0.512,0.671,-0.165
1994874,-5213.0,1562.0,-603.0,0.502,0.519,0.675,-0.152
1994890,-5301.0,2232.0,-959.0,0.493,0.526,0.679,-0.136
1994906,-5175.0,2784.0,-1433.0,0.484,0.533,0.684,-0.116
1994922,-5305.0,2964.0,-1663.0,0.476,0.539,0.689,-0.094
1994939,-4647.0,3310.0,-2373.0,0.469,0.544,0.692,-0.069
1994956,-4501.0,3038.0,-2983.0,0.462,0.549,0.695,-0.043
1994973,-3493.0,3352.0,-3735.0,0.454,0.553,0.699,-0.015
1994999,-3603.0,4524.0,-4037.0,0.445,0.556,0.702,0.013
1995016,-3083.0,4370.0,-4083.0,0.437,0.559,0.704,0.043
1995032,-2379.0,5264.0,-4737.0,0.428,0.561,0.705,0.074
1995049,-2543.0,4464.0,-3999.0,0.419,0.563,0.705,0.104
1995066,-1345.0,5762.0,-4955.0,0.409,0.564,0.704,0.135
1995083,-1583.0,5824.0,-4689.0,0.4,0.565,0.702,0.167
1995100,-841.0,5822.0,-4721.0,0.389,0.566,0.699,0.198
1995116,-67.0,6270.0,-4975.0,0.378,0.568,0.694,0.229
1995133,549.0,6704.0,-5309.0,0.366,0.571,0.688,0.259
1995159,721.0,7054.0,-5149.0,0.354,0.573,0.68,0.289
1995176,1337.0,6870.0,-4705.0,0.34,0.576,0.672,0.318
1995193,2585.0,7108.0,-5467.0,0.327,0.578,0.663,0.346
1995209,2167.0,7592.0,-4811.0,0.313,0.581,0.653,0.372
1995225,3097.0,7530.0,-4819.0,0.298,0.583,0.643,0.398
1995242,3853.0,7834.0,-4953.0,0.283,0.585,0.632,0.422
1995258,3895.0,7978.0,-4735.0,0.268,0.586,0.621,0.445
1995274,3815.0,7342.0,-4097.0,0.252,0.588,0.61,0.467
1995300,4509.0,7460.0,-4147.0,0.236,0.589,0.599,0.488
1995316,5231.0,7472.0,-4379.0,0.219,0.589,0.588,0.509
1995332,5347.0,8104.0,-4165.0,0.201,0.589,0.577,0.528
1995348,5435.0,7812.0,-3315.0,0.183,0.589,0.566,0.547
1995364,5887.0,7658.0,-3363.0,0.166,0.589,0.555,0.564
1995380,5671.0,7372.0,-2843.0,0.149,0.588,0.543,0.58
1995406,6167.0,6776.0,-2783.0,0.131,0.587,0.533,0.596
1995423,6713.0,7888.0,-3119.0,0.114,0.585,0.522,0.61
1995439,6311.0,7362.0,-2469.0,0.097,0.584,0.51,0.624
1995456,6739.0,7290.0,-2463.0,0.079,0.582,0.498,0.638
1995473,7151.0,7024.0,-2459.0,0.062,0.579,0.486,0.651
1995489,7051.0,6960.0,-1971.0,0.045,0.576,0.475,0.664
1995505,7541.0,6942.0,-2121.0,0.028,0.572,0.463,0.676
1995522,7301.0,7082.0,-1803.0,0.013,0.568,0.452,0.687
1995549,7401.0,6654.0,-1787.0,0.002,-0.565,-0.441,-0.697
1995565,7529.0,6690.0,-1773.0,0.016,-0.562,-0.431,-0.706
1995581,7531.0,6240.0,-1503.0,0.028,-0.559,-0.421,-0.714
1995597,7689.0,6244.0,-1657.0,0.039,-0.556,-0.412,-0.72
1995614,7319.0,6332.0,-1437.0,0.049,-0.554,-0.405,-0.726
1995631,7033.0,6196.0,-1367.0,0.058,-0.551,-0.398,-0.731
1995647,6753.0,6228.0,-1221.0,0.066,-0.55,-0.392,-0.735
1995663,6681.0,6134.0,-1393.0,0.072,-0.548,-0.386,-0.738
1995689,6557.0,6156.0,-1361.0,0.078,-0.547,-0.382,-0.74
1995706,6413.0,6322.0,-1409.0,0.082,-0.547,-0.38,-0.742
1995722,6177.0,6274.0,-1357.0,0.085,-0.546,-0.379,-0.742
1995739,6181.0,6514.0,-1515.0,0.086,-0.546,-0.378,-0.742
1995756,6129.0,6344.0,-1439.0,0.086,-0.547,-0.38,-0.741
1995773,6197.0,6498.0,-1557.0,0.084,-0.547,-0.382,-0.74
1995790,6069.0,6678.0,-1541.0,0.081,-0.548,-0.386,-0.737
1995806,6045.0,6748.0,-1581.0,0.076,-0.55,-0.391,-0.734
1995823,6223.0,6770.0,-1701.0,0.069,-0.552,-0.396,-0.731
1995840,6239.0,6862.0,-1723.0,0.062,-0.554,-0.403,-0.726
1995866,6421.0,7008.0,-1835.0,0.053,-0.556,-0.41,-0.721
1995882,6593.0,7016.0,-1907.0,0.043,-0.557,-0.419,-0.716
1995898,6519.0,7154.0,-1881.0,0.031,-0.559,-0.427,-0.71
1995914,6747.0,7314.0,-1963.0,0.019,-0.56,-0.437,-0.703
1995930,6827.0,7430.0,-1983.0,0.005,-0.562,-0.447,-0.696
1995947,6893.0,7668.0,-2053.0,0.01,0.563,0.458,0.688
1995973,6957.0,7730.0,-2303.0,0.026,0.564,0.47,0.679
1995990,7079.0,8216.0,-2605.0,0.043,0.565,0.482,0.669
1996006,7189.0,8486.0,-2361.0,0.06,0.565,0.494,0.658
1996022,7375.0,8948.0,-2525.0,0.08,0.566,0.507,0.646
1996039,7413.0,8954.0,-2583.0,0.1,0.566,0.52,0.632
1996056,7427.0,9164.0,-2969.0,0.121,0.566,0.533,0.617
1996073,7165.0,9008.0,-3143.0,0.144,0.565,0.547,0.601
1996089,6793.0,9596.0,-3189.0,0.167,0.564,0.561,0.582
1996106,6823.0,9114.0,-3513.0,0.19,0.562,0.576,0.563
1996133,6315.0,9556.0,-3569.0,0.213,0.56,0.59,0.542
1996149,6301.0,9548.0,-3879.0,0.236,0.557,0.604,0.519
1996165,5621.0,8844.0,-3713.0,0.26,0.553,0.617,0.495
1996181,4385.0,8990.0,-3405.0,0.283,0.549,0.631,0.469
1996197,4387.0,8430.0,-3865.0,0.307,0.544,0.644,0.442
1996213,3807.0,8698.0,-3983.0,0.329,0.539,0.656,0.414
1996229,3211.0,8110.0,-3911.0,0.351,0.533,0.667,0.385
1996255,2769.0,7730.0,-3787.0,0.373,0.527,0.676,0.355
1996271,2413.0,7274.0,-3847.0,0.392,0.52,0.685,0.326
1996287,1285.0,6392.0,-3407.0,0.412,0.513,0.693,0.296
1996304,1069.0,6326.0,-3401.0,0.43,0.505,0.699,0.266
1996320,549.0,5866.0,-3569.0,0.448,0.498,0.705,0.235
1996337,-281.0,5074.0,-2879.0,0.464,0.49,0.708,0.206
1996354,-209.0,4884.0,-3083.0,0.48,0.483,0.711,0.176
1996381,-821.0,4946.0,-3265.0,0.494,0.475,0.713,0.148
1996397,-1569.0,3714.0,-2633.0,0.507,0.468,0.714,0.121
1996413,-1739.0,3546.0,-2167.0,0.52,0.46,0.714,0.094
1996429,-1711.0,3690.0,-2365.0,0.531,0.452,0.713,0.069
1996446,-2415.0,3316.0,-2005.0,0.542,0.445,0.711,0.046
1996462,-2291.0,3314.0,-2057.0,0.552,0.437,0.709,0.023
1996478,-2685.0,3008.0,-1915.0,0.561,0.43,0.707,0.003
1996505,-3119.0,2374.0,-1341.0,0.568,0.424,0.705,-0.017
1996521,-3507.0,2284.0,-1067.0,0.574,0.418,0.703,-0.035
1996537,-3875.0,1768.0,-601.0,0.579,0.413,0.701,-0.051
1996553,-4313.0,1428.0,-113.0,0.583,0.408,0.699,-0.065
1996569,-4419.0,1278.0,107.0,0.586,0.404,0.698,-0.077
1996585,-4817.0,1030.0,373.0,0.587,0.401,0.698,-0.085
1996601,-4439.0,228.0,323.0,0.586,0.4,0.699,-0.091
1996627,-4775.0,464.0,929.0,0.582,0.402,0.7,-0.094
1996643,-5345.0,170.0,1133.0,0.576,0.407,0.703,-0.093
1996659,-5619.0,544.0,1327.0,0.568,0.413,0.707,-0.089
1996675,-5677.0,486.0,1183.0,0.558,0.421,0.71,-0.08
1996691,-5633.0,812.0,823.0,0.548,0.43,0.715,-0.068
1996707,-5531.0,1276.0,427.0,0.536,0.44,0.719,-0.052
1996734,-5457.0,1570.0,-445.0,0.523,0.451,0.723,-0.032
1996750,-5219.0,2494.0,-1027.0,0.509,0.461,0.727,-0.011
1996766,-4895.0,3072.0,-1609.0,0.495,0.471,0.73,0.014
1996783,-4537.0,3428.0,-2117.0,0.482,0.479,0.732,0.042
1996800,-3713.0,3934.0,-2995.0,0.468,0.488,0.734,0.071
1996816,-3469.0,4224.0,-3385.0,0.454,0.494,0.734,0.101
1996832,-2419.0,5226.0,-4263.0,0.441,0.5,0.734,0.132
1996858,-1645.0,6220.0,-5563.0,0.428,0.504,0.732,0.163
1996874,-1873.0,6820.0,-5303.0,0.416,0.507,0.729,0.195
1996891,-825.0,5744.0,-5693.0,0.404,0.51,0.725,0.225
1996907,-863.0,7064.0,-5349.0,0.394,0.512,0.72,0.254
1996923,-471.0,6808.0,-5013.0,0.383,0.514,0.713,0.282
1996939,783.0,7506.0,-5667.0,0.373,0.518,0.705,0.309
1996956,411.0,7672.0,-4777.0,0.361,0.523,0.696,0.335
1996973,2137.0,8146.0,-5315.0,0.348,0.529,0.685,0.36
1996999,2157.0,7642.0,-4501.0,0.334,0.535,0.674,0.384
1997015,2801.0,7830.0,-4257.0,0.319,0.542,0.663,0.406
1997031,2881.0,7222.0,-3873.0,0.304,0.548,0.652,0.427
1997047,3585.0,8012.0,-3939.0,0.288,0.554,0.641,0.447
1997063,3911.0,7768.0,-3693.0,0.271,0.559,0.63,0.466
1997089,4797.0,8172.0,-4041.0,0.253,0.564,0.619,0.484
1997105,4465.0,8242.0,-3781.0,0.235,0.568,0.609,0.501
1997121,4763.0,8204.0,-3555.0,0.217,0.572,0.598,0.518
1997137,5423.0,7252.0,-3759.0,0.199,0.574,0.589,0.533
1997153,4977.0,8206.0,-2797.0,0.181,0.576,0.58,0.547
1997169,5693.0,7512.0,-3215.0,0.163,0.577,0.571,0.561
1997185,5601.0,7990.0,-3135.0,0.145,0.577,0.562,0.574
1997211,5563.0,7336.0,-2797.0,0.127,0.577,0.553,0.588
1997228,6037.0,7644.0,-2761.0,0.109,0.576,0.543,0.601
1997244,6105.0,7314.0,-2569.0,0.09,0.575,0.533,0.615
1997260,5975.0,7278.0,-2165.0,0.072,0.573,0.522,0.628
1997277,6325.0,6980.0,-2011.0,0.054,0.571,0.511,0.64
1997293,6867.0,6974.0,-2259.0,0.036,0.568,0.5,0.653
1997309,6927.0,7380.0,-2085.0,0.018,0.566,0.488,0.665
1997335,6923.0,6938.0,-1847.0,0.001,0.563,0.476,0.676
1997351,7623.0,7392.0,-2295.0,0.014,-0.56,-0.465,-0.686
1997367,7257.0,6860.0,-1675.0,0.029,-0.558,-0.454,-0.695
1997384,7731.0,6958.0,-1991.0,0.041,-0.556,-0.444,-0.702
1997401,7687.0,6832.0,-2059.0,0.051,-0.554,-0.435,-0.708
1997418,7159.0,6706.0,-1801.0,0.06,-0.552,-0.428,-0.713
1997435,7017.0,7042.0,-1941.0,0.066,-0.552,-0.422,-0.716
1997452,6737.0,6774.0,-1947.0,0.071,-0.552,-0.417,-0.718
1997469,6637.0,6724.0,-2057.0,0.074,-0.553,-0.413,-0.72
1997486,6475.0,6756.0,-2109.0,0.076,-0.554,-0.409,-0.721
1997513,6223.0,6912.0,-2137.0,0.076,-0.555,-0.407,-0.722
1997529,6065.0,6494.0,-2093.0,0.076,-0.556,-0.405,-0.722
1997545,5661.0,6668.0,-2027.0,0.073,-0.557,-0.406,-0.721
1997561,5331.0,7190.0,-2005.0,0.07,-0.558,-0.407,-0.72
1997577,5271.0,7212.0,-2119.0,0.065,-0.56,-0.409,-0.718
1997593,5401.0,7404.0,-2199.0,0.059,-0.562,-0.411,-0.715
1997610,5639.0,7518.0,-2333.0,0.051,-0.564,-0.415,-0.712
1997636,5787.0,7890.0,-2505.0,0.041,-0.566,-0.419,-0.709
1997652,5977.0,7920.0,-2563.0,0.031,-0.568,-0.425,-0.705
1997668,5893.0,8074.0,-2559.0,0.019,-0.57,-0.431,-0.699
1997684,6171.0,8284.0,-2757.0,0.005,-0.572,-0.438,-0.693
1997700,6179.0,8124.0,-2663.0,0.011,0.573,0.447,0.686
1997726,6523.0,8292.0,-3057.0,0.027,0.575,0.457,0.678
1997742,6695.0,8206.0,-3065.0,0.046,0.576,0.468,0.669
1997758,6705.0,8412.0,-2989.0,0.065,0.576,0.481,0.658
1997774,6779.0,9134.0,-3269.0,0.087,0.576,0.495,0.645
1997790,6617.0,8732.0,-3261.0,0.11,0.576,0.509,0.63
1997806,6285.0,9412.0,-3303.0,0.134,0.575,0.523,0.614
1997822,6533.0,8960.0,-3621.0,0.16,0.574,0.537,0.597
1997848,6327.0,9216.0,-3677.0,0.187,0.572,0.55,0.579
1997864,6351.0,9084.0,-3659.0,0.213,0.569,0.563,0.561
1997880,6037.0,8786.0,-3601.0,0.239,0.565,0.575,0.541
1997896,5745.0,9008.0,-3537.0,0.265,0.56,0.587,0.521
1997912,5441.0,8666.0,-3481.0,0.289,0.555,0.599,0.499
1997938,4759.0,8754.0,-3209.0,0.313,0.55,0.61,0.477
1997954,4573.0,8374.0,-3495.0,0.336,0.544,0.621,0.453
1997970,4327.0,8366.0,-3689.0,0.357,0.539,0.631,0.429
1997986,3919.0,8086.0,-3681.0,0.377,0.532,0.642,0.403
1998002,3129.0,8014.0,-3425.0,0.395,0.526,0.652,0.377
1998018,2417.0,7686.0,-3373.0,0.411,0.52,0.662,0.352
1998044,1851.0,7152.0,-3233.0,0.426,0.513,0.67,0.325
1998061,1197.0,7138.0,-3189.0,0.44,0.507,0.678,0.299
1998078,743.0,6792.0,-3303.0,0.453,0.501,0.686,0.271
1998095,61.0,6192.0,-3075.0,0.465,0.494,0.693,0.244
1998112,-455.0,6212.0,-3173.0,0.476,0.488,0.699,0.216
1998129,-1043.0,5706.0,-2933.0,0.487,0.483,0.703,0.188
1998146,-1241.0,5350.0,-2957.0,0.497,0.477,0.707,0.161
1998163,-1565.0,5060.0,-2865.0,0.506,0.473,0.709,0.135
1998180,-2091.0,4842.0,-2745.0,0.515,0.468,0.71,0.109
1998196,-2083.0,4518.0,-2903.0,0.523,0.463,0.71,0.085
1998212,-2399.0,4092.0,-3011.0,0.531,0.459,0.71,0.062
1998238,-2917.0,3766.0,-2771.0,0.538,0.454,0.709,0.039
1998254,-3135.0,3428.0,-2669.0,0.544,0.451,0.708,0.017
1998270,-3759.0,3466.0,-2097.0,0.549,0.447,0.706,-0.003
1998286,-4247.0,3044.0,-1891.0,0.555,0.443,0.703,-0.022
1998302,-4289.0,2692.0,-1789.0,0.56,0.44,0.701,-0.04
1998318,-4879.0,2216.0,-1209.0,0.564,0.437,0.698,-0.056
1998344,-5003.0,2400.0,-635.0,0.568,0.434,0.695,-0.07
1998361,-5287.0,2064.0,-199.0,0.572,0.432,0.693,-0.081
1998378,-5605.0,1428.0,253.0,0.575,0.43,0.69,-0.09
1998395,-5819.0,1204.0,471.0,0.577,0.428,0.689,-0.097
1998412,-5959.0,704.0,957.0,0.577,0.428,0.688,-0.101
1998429,-6071.0,834.0,1061.0,0.575,0.43,0.688,-0.101
1998445,-5911.0,840.0,1167.0,0.572,0.433,0.69,-0.099
1998461,-5941.0,1032.0,1023.0,0.567,0.437,0.692,-0.094
1998478,-5821.0,1090.0,675.0,0.561,0.442,0.695,-0.084
1998504,-5259.0,1324.0,279.0,0.554,0.448,0.698,-0.073
1998520,-5207.0,1896.0,163.0,0.545,0.454,0.702,-0.058
1998536,-4739.0,2454.0,-395.0,0.537,0.461,0.706,-0.04
1998552,-4299.0,2960.0,-1081.0,0.528,0.467,0.709,-0.02
1998568,-3893.0,2940.0,-1583.0,0.519,0.474,0.712,0.004
1998594,-3735.0,3360.0,-2195.0,0.508,0.48,0.715,0.029
1998611,-3321.0,4258.0,-2691.0,0.497,0.485,0.717,0.056
1998628,-3135.0,4344.0,-2811.0,0.486,0.491,0.718,0.085
1998645,-2701.0,4776.0,-3611.0,0.474,0.495,0.719,0.115
1998662,-2877.0,5244.0,-3315.0,0.462,0.499,0.719,0.145
1998679,-1849.0,5924.0,-4045.0,0.449,0.502,0.718,0.176
1998696,-2229.0,5954.0,-3557.0,0.436,0.505,0.716,0.207
1998713,-1409.0,6754.0,-3885.0,0.422,0.508,0.712,0.238
1998730,-617.0,6672.0,-4463.0,0.408,0.51,0.708,0.268
1998747,63.0,7286.0,-4739.0,0.393,0.512,0.703,0.298
1998764,367.0,7844.0,-4627.0,0.378,0.515,0.697,0.326
1998780,699.0,7850.0,-4193.0,0.362,0.517,0.69,0.354
1998806,1927.0,7688.0,-4991.0,0.347,0.52,0.682,0.38
1998822,1103.0,7396.0,-3905.0,0.33,0.523,0.673,0.405
1998838,3017.0,7718.0,-4765.0,0.313,0.526,0.664,0.429
1998854,2527.0,7894.0,-4291.0,0.296,0.529,0.655,0.452
1998870,3373.0,8018.0,-4063.0,0.277,0.532,0.645,0.473
1998886,4163.0,7868.0,-4445.0,0.259,0.535,0.635,0.493
1998902,3667.0,7886.0,-3655.0,0.24,0.538,0.625,0.512
1998928,4889.0,7440.0,-4153.0,0.22,0.54,0.616,0.53
1998944,4513.0,7796.0,-3661.0,0.199,0.542,0.606,0.547
1998961,4989.0,7812.0,-3557.0,0.178,0.543,0.597,0.563
1998978,5421.0,7892.0,-3329.0,0.157,0.545,0.587,0.578
1998995,5897.0,7686.0,-3425.0,0.136,0.545,0.577,0.592
1999012,5607.0,7482.0,-2611.0,0.116,0.546,0.567,0.606
1999029,6585.0,7386.0,-3063.0,0.095,0.546,0.557,0.619
1999045,6133.0,7248.0,-2275.0,0.075,0.546,0.547,0.631
1999062,6641.0,7162.0,-2429.0,0.055,0.545,0.536,0.642
1999088,7051.0,7020.0,-2423.0,0.034,0.544,0.524,0.654
1999105,7185.0,7150.0,-2113.0,0.014,0.542,0.513,0.666
1999121,7397.0,7072.0,-1853.0,0.006,-0.54,-0.501,-0.676
1999138,7491.0,6818.0,-1679.0,0.024,-0.538,-0.489,-0.686
1999155,7643.0,6552.0,-1665.0,0.041,-0.537,-0.477,-0.695
1999172,7757.0,6534.0,-1579.0,0.057,-0.535,-0.466,-0.703
1999189,7711.0,6570.0,-1351.0,0.072,-0.533,-0.454,-0.71
1999207,7919.0,6562.0,-1459.0,0.085,-0.532,-0.442,-0.717
1999224,7805.0,6224.0,-1385.0,0.096,-0.531,-0.431,-0.723
1999241,7779.0,6180.0,-1367.0,0.106,-0.531,-0.421,-0.727
1999257,7535.0,6054.0,-1293.0,0.115,-0.531,-0.412,-0.732
1999274,7071.0,6112.0,-1143.0,0.121,-0.531,-0.404,-0.735
1999300,6829.0,6086.0,-1223.0,0.125,-0.533,-0.397,-0.737
1999316,6547.0,6106.0,-1219.0,0.127,-0.534,-0.392,-0.738
1999333,6441.0,6264.0,-1323.0,0.128,-0.536,-0.387,-0.739
1999350,6405.0,6314.0,-1415.0,0.128,-0.539,-0.383,-0.739
1999367,6257.0,6300.0,-1487.0,0.126,-0.541,-0.382,-0.739
1999384,6163.0,6382.0,-1391.0,0.123,-0.543,-0.381,-0.738
1999401,6139.0,6598.0,-1477.0,0.119,-0.546,-0.382,-0.737
1999417,5981.0,6486.0,-1359.0,0.113,-0.548,-0.384,-0.734
1999433,6209.0,6650.0,-1443.0,0.107,-0.551,-0.387,-0.732
1999459,6343.0,6740.0,-1377.0,0.099,-0.553,-0.391,-0.729
1999475,6439.0,7012.0,-1471.0,0.09,-0.555,-0.397,-0.725
1999491,6649.0,7016.0,-1507.0,0.08,-0.557,-0.405,-0.721
1999507,6789.0,7194.0,-1607.0,0.068,-0.559,-0.413,-0.716
1999524,6829.0,7322.0,-1627.0,0.056,-0.56,-0.423,-0.71
1999540,7111.0,7414.0,-1835.0,0.042,-0.562,-0.434,-0.703
1999557,7177.0,7562.0,-1797.0,0.028,-0.563,-0.446,-0.695
1999583,7469.0,7740.0,-2033.0,0.012,-0.564,-0.459,-0.687
1999599,7529.0,7800.0,-2143.0,0.005,0.564,0.474,0.677
1999615,7581.0,8126.0,-2341.0,0.022,0.563,0.489,0.666
1999631,7281.0,8238.0,-2291.0,0.04,0.563,0.504,0.654
1999647,7351.0,8430.0,-2673.0,0.06,0.562,0.52,0.64
1999663,7349.0,8544.0,-2837.0,0.08,0.561,0.537,0.625
1999689,7197.0,8622.0,-3053.0,0.101,0.56,0.553,0.609
1999705,7111.0,8634.0,-3321.0,0.122,0.558,0.57,0.591
1999721,6921.0,8496.0,-3541.0,0.143,0.555,0.586,0.572
1999737,6547.0,8536.0,-3709.0,0.164,0.553,0.602,0.552
1999753,5995.0,8396.0,-3709.0,0.185,0.549,0.618,0.531
1999769,5585.0,8214.0,-3877.0,0.205,0.546,0.633,0.509
1999795,5061.0,8094.0,-3847.0,0.225,0.542,0.648,0.485
1999812,5037.0,7904.0,-4175.0,0.245,0.538,0.662,0.46
1999829,4349.0,7686.0,-3971.0,0.264,0.534,0.676,0.435
1999846,3827.0,7742.0,-4053.0,0.282,0.53,0.688,0.408
1999862,3355.0,7266.0,-4069.0,0.299,0.525,0.7,0.381
1999879,2879.0,7444.0,-4097.0,0.316,0.52,0.71,0.354
1999896,2619.0,6750.0,-4343.0,0.332,0.515,0.719,0.327
1999912,1701.0,6442.0,-4147.0,0.347,0.51,0.728,0.3
1999929,1047.0,6368.0,-4447.0,0.362,0.504,0.735,0.272
1999956,483.0,5828.0,-4167.0,0.376,0.499,0.742,0.244
1999972,179.0,5496.0,-4271.0,0.39,0.493,0.747,0.217
1999988,-127.0,5268.0,-4375.0,0.402,0.488,0.751,0.189
2000004,-809.0,4578.0,-4245.0,0.414,0.484,0.754,0.162
2000020,-963.0,4620.0,-4527.0,0.425,0.48,0.756,0.134
2000037,-1503.0,4700.0,-4221.0,0.435,0.476,0.756,0.107
2000054,-2105.0,4272.0,-4157.0,0.446,0.473,0.756,0.081
2000070,-2701.0,4254.0,-4077.0,0.456,0.47,0.754,0.055
2000096,-3267.0,3482.0,-3759.0,0.466,0.468,0.751,0.03
2000113,-3697.0,3160.0,-3373.0,0.475,0.465,0.747,0.006
2000130,-3981.0,2636.0,-3051.0,0.483,0.462,0.743,-0.017
2000147,-4491.0,2308.0,-2497.0,0.491,0.46,0.739,-0.038
2000164,-4561.0,2338.0,-2361.0,0.498,0.457,0.735,-0.059
2000181,-4961.0,1524.0,-1653.0,0.504,0.454,0.73,-0.077
2000197,-4895.0,1082.0,-1527.0,0.51,0.452,0.726,-0.093
2000214,-5221.0,1032.0,-691.0,0.514,0.45,0.722,-0.108
2000231,-5455.0,1028.0,-151.0,0.518,0.449,0.719,-0.119
2000248,-5245.0,394.0,289.0,0.52,0.448,0.716,-0.127
2000274,-5097.0,558.0,451.0,0.521,0.448,0.715,-0.132
2000291,-4799.0,492.0,547.0,0.52,0.449,0.714,-0.133
2000307,-4451.0,658.0,723.0,0.517,0.452,0.715,-0.13
2000324,-4609.0,640.0,117.0,0.511,0.456,0.718,-0.123
2000340,-4411.0,1182.0,-89.0,0.504,0.462,0.721,-0.112
2000357,-4401.0,1690.0,-695.0,0.496,0.467,0.725,-0.097
2000373,-4473.0,2124.0,-811.0,0.488,0.473,0.73,-0.078
2000390,-4219.0,2536.0,-1349.0,0.479,0.479,0.733,-0.056
2000416,-4115.0,2576.0,-1481.0,0.47,0.486,0.736,-0.032
2000432,-3317.0,2834.0,-2475.0,0.46,0.493,0.739,-0.005
2000448,-3269.0,3496.0,-2517.0,0.45,0.499,0.74,0.023
2000464,-2609.0,4478.0,-3081.0,0.439,0.506,0.741,0.053
2000481,-2605.0,4348.0,-3311.0,0.427,0.511,0.741,0.085
2000498,-2025.0,5216.0,-3731.0,0.416,0.516,0.74,0.118
2000514,-1281.0,5296.0,-4505.0,0.403,0.52,0.737,0.153
2000530,-537.0,5612.0,-4969.0,0.389,0.523,0.735,0.188
2000556,-1185.0,6564.0,-4257.0,0.375,0.526,0.73,0.222
2000572,-157.0,7018.0,-4811.0,0.361,0.529,0.724,0.257
2000588,489.0,6454.0,-5147.0,0.347,0.531,0.716,0.291
2000604,743.0,7088.0,-4969.0,0.333,0.533,0.707,0.325
2000620,1831.0,7512.0,-5381.0,0.318,0.535,0.696,0.357
2000646,1493.0,8046.0,-4393.0,0.304,0.538,0.684,0.388
2000662,3547.0,7626.0,-5673.0,0.289,0.54,0.672,0.417
2000678,2799.0,8020.0,-4567.0,0.273,0.541,0.659,0.445
2000694,3461.0,7894.0,-4441.0,0.255,0.543,0.646,0.472
2000710,3669.0,8218.0,-3935.0,0.238,0.545,0.632,0.497
2000726,4583.0,7980.0,-4267.0,0.221,0.546,0.618,0.521
2000752,5059.0,8040.0,-4283.0,0.201,0.547,0.605,0.543
2000768,4705.0,9066.0,-3431.0,0.181,0.548,0.591,0.564
2000784,5635.0,8928.0,-3619.0,0.162,0.548,0.577,0.583
2000800,5365.0,7512.0,-2799.0,0.143,0.55,0.563,0.6
2000816,5589.0,7770.0,-2503.0,0.124,0.55,0.551,0.615
2000832,6625.0,8068.0,-2891.0,0.104,0.55,0.538,0.63
2000858,6589.0,8150.0,-2397.0,0.085,0.549,0.526,0.644
2000874,6379.0,8034.0,-1895.0,0.067,0.549,0.513,0.656
2000890,6697.0,7372.0,-1659.0,0.05,0.548,0.5,0.668
2000906,7289.0,6930.0,-2011.0,0.032,0.547,0.487,0.68
2000922,7563.0,6656.0,-1855.0,0.013,0.544,0.474,0.692
2000948,7825.0,7014.0,-1399.0,0.006,-0.541,-0.462,-0.702
2000965,7753.0,7008.0,-1003.0,0.023,-0.538,-0.451,-0.712
2000981,7623.0,6620.0,-679.0,0.039,-0.536,-0.439,-0.72
2000998,8147.0,6010.0,-1077.0,0.055,-0.533,-0.428,-0.728
2001014,7605.0,5902.0,-481.0,0.069,-0.531,-0.419,-0.734
2001030,7817.0,6210.0,-707.0,0.082,-0.529,-0.41,-0.739
2001046,7529.0,5890.0,-617.0,0.093,-0.528,-0.402,-0.743
2001072,7403.0,5848.0,-683.0,0.103,-0.527,-0.394,-0.746
2001088,7233.0,5454.0,-715.0,0.111,-0.526,-0.387,-0.749
2001104,6925.0,5786.0,-707.0,0.119,-0.525,-0.381,-0.751
2001121,6577.0,5734.0,-743.0,0.124,-0.525,-0.377,-0.753
2001138,6319.0,5722.0,-869.0,0.128,-0.524,-0.373,-0.755
2001155,6243.0,5978.0,-897.0,0.131,-0.524,-0.369,-0.756
2001172,6113.0,5888.0,-885.0,0.132,-0.524,-0.366,-0.757
2001189,6169.0,6066.0,-999.0,0.131,-0.525,-0.364,-0.758
2001206,6313.0,5974.0,-1081.0,0.13,-0.525,-0.363,-0.759
2001223,6313.0,6296.0,-917.0,0.126,-0.526,-0.363,-0.759
2001240,6405.0,6466.0,-929.0,0.122,-0.527,-0.364,-0.759
2001256,6461.0,6330.0,-817.0,0.115,-0.529,-0.366,-0.758
2001283,6745.0,6708.0,-961.0,0.106,-0.531,-0.369,-0.756
2001299,6919.0,6858.0,-943.0,0.095,-0.533,-0.374,-0.753
2001315,7471.0,7368.0,-1145.0,0.082,-0.536,-0.381,-0.749
2001331,7757.0,7100.0,-1353.0,0.068,-0.539,-0.39,-0.744
2001347,7697.0,7540.0,-1121.0,0.051,-0.542,-0.4,-0.737
2001363,7629.0,7958.0,-1159.0,0.032,-0.546,-0.412,-0.729
2001389,7723.0,8236.0,-1491.0,0.011,-0.55,-0.424,-0.719
2001406,7735.0,7920.0,-1675.0,0.011,0.554,0.437,0.709
2001422,7647.0,8344.0,-1895.0,0.035,0.557,0.45,0.697
2001438,7775.0,8214.0,-2129.0,0.06,0.559,0.462,0.686
2001454,7611.0,8432.0,-2067.0,0.085,0.56,0.475,0.674
2001470,7209.0,8254.0,-1843.0,0.11,0.56,0.488,0.661
2001486,7171.0,8494.0,-2043.0,0.136,0.558,0.501,0.647
2001512,6683.0,8822.0,-1711.0,0.162,0.556,0.514,0.633
2001528,6659.0,8852.0,-1799.0,0.188,0.553,0.528,0.617
2001544,6651.0,9146.0,-2041.0,0.213,0.55,0.541,0.599
2001561,6047.0,8946.0,-1875.0,0.239,0.546,0.554,0.581
2001578,5965.0,9270.0,-2161.0,0.264,0.541,0.568,0.561
2001595,5399.0,8918.0,-2143.0,0.289,0.536,0.581,0.54
2001611,4653.0,8638.0,-2121.0,0.314,0.53,0.593,0.518
2001638,4237.0,8474.0,-2579.0,0.338,0.524,0.606,0.494
2001654,3693.0,8398.0,-2655.0,0.36,0.518,0.617,0.47
2001671,2839.0,7934.0,-2547.0,0.381,0.512,0.628,0.445
2001687,2329.0,8074.0,-2655.0,0.401,0.506,0.638,0.42
2001703,1871.0,7480.0,-2595.0,0.42,0.5,0.647,0.393
2001719,1281.0,7100.0,-2693.0,0.437,0.494,0.656,0.366
2001735,673.0,6202.0,-2549.0,0.452,0.489,0.665,0.339
2001761,499.0,6434.0,-2725.0,0.466,0.484,0.673,0.311
2001777,-369.0,5940.0,-2335.0,0.478,0.479,0.68,0.283
2001793,-83.0,6098.0,-3361.0,0.488,0.475,0.686,0.255
2001809,-921.0,5542.0,-2725.0,0.497,0.472,0.692,0.227
2001825,-1091.0,5550.0,-2925.0,0.505,0.47,0.697,0.199
2001842,-1167.0,5510.0,-2971.0,0.511,0.467,0.701,0.171
2001858,-1647.0,4994.0,-3317.0,0.517,0.464,0.704,0.144
2001885,-1921.0,4882.0,-3201.0,0.522,0.462,0.707,0.117
2001901,-2505.0,4756.0,-3267.0,0.527,0.459,0.71,0.09
2001918,-2733.0,4718.0,-3167.0,0.53,0.457,0.711,0.064
2001934,-3203.0,4024.0,-3087.0,0.534,0.454,0.712,0.039
2001950,-3559.0,3322.0,-2755.0,0.537,0.452,0.712,0.015
2001966,-4057.0,2678.0,-2275.0,0.54,0.449,0.712,-0.009
2001982,-4495.0,2812.0,-1953.0,0.543,0.446,0.711,-0.032
2001999,-5169.0,2518.0,-789.0,0.546,0.443,0.709,-0.052
2002026,-5055.0,2218.0,-575.0,0.55,0.44,0.707,-0.069
2002043,-5103.0,1062.0,195.0,0.553,0.436,0.705,-0.083
2002060,-5279.0,606.0,1147.0,0.555,0.434,0.704,-0.093
2002077,-5139.0,478.0,1527.0,0.555,0.432,0.704,-0.1
2002093,-5161.0,574.0,1881.0,0.554,0.432,0.704,-0.103
2002110,-5101.0,672.0,1891.0,0.551,0.433,0.706,-0.101
2002127,-4981.0,748.0,1623.0,0.547,0.437,0.708,-0.095
2002144,-4975.0,1082.0,1225.0,0.54,0.441,0.711,-0.085
2002160,-4869.0,1556.0,837.0,0.533,0.447,0.715,-0.069
2002177,-4777.0,1740.0,151.0,0.524,0.453,0.72,-0.05
2002194,-4783.0,2156.0,-343.0,0.514,0.459,0.724,-0.027
2002221,-4483.0,2390.0,-1105.0,0.503,0.465,0.728,-0.0
2002238,-4083.0,2664.0,-1557.0,0.492,0.47,0.732,0.029
2002254,-3407.0,3706.0,-2431.0,0.48,0.475,0.735,0.059
2002270,-3313.0,4108.0,-2717.0,0.467,0.48,0.737,0.093
2002286,-2591.0,4850.0,-3687.0,0.455,0.484,0.737,0.127
2002302,-2047.0,4686.0,-3961.0,0.441,0.487,0.736,0.162
2002328,-1401.0,5652.0,-4219.0,0.426,0.49,0.735,0.197
2002344,-1367.0,6528.0,-4417.0,0.411,0.493,0.731,0.231
2002360,-1743.0,6452.0,-3181.0,0.397,0.496,0.726,0.263
2002377,1255.0,7928.0,-5375.0,0.383,0.499,0.719,0.296
2002394,505.0,7126.0,-4539.0,0.368,0.502,0.711,0.327
2002411,679.0,8152.0,-4185.0,0.353,0.507,0.701,0.357
2002427,2345.0,7840.0,-4859.0,0.337,0.511,0.69,0.386
2002444,2981.0,7968.0,-4995.0,0.322,0.516,0.677,0.414
2002461,2317.0,7632.0,-3559.0,0.305,0.521,0.664,0.441
2002478,3935.0,7958.0,-4343.0,0.289,0.526,0.65,0.465
2002495,3383.0,8018.0,-3303.0,0.271,0.532,0.636,0.489
2002522,4913.0,8044.0,-3907.0,0.253,0.536,0.621,0.512
2002539,5047.0,8000.0,-3163.0,0.235,0.54,0.607,0.533
2002555,5773.0,8388.0,-3385.0,0.216,0.544,0.593,0.553
2002572,5513.0,7756.0,-2601.0,0.197,0.547,0.579,0.571
2002588,6159.0,8392.0,-2973.0,0.178,0.549,0.566,0.589
2002605,6109.0,7160.0,-2505.0,0.158,0.55,0.552,0.606
2002622,6373.0,8074.0,-2191.0,0.138,0.551,0.538,0.622
2002638,6915.0,7456.0,-2121.0,0.118,0.552,0.524,0.638
2002655,7555.0,8010.0,-2313.0,0.097,0.552,0.511,0.652
2002672,7221.0,7290.0,-1609.0,0.076,0.551,0.497,0.666
2002699,7823.0,7582.0,-1731.0,0.056,0.55,0.483,0.679
2002715,7719.0,7044.0,-1223.0,0.036,0.549,0.47,0.691
2002731,7983.0,7360.0,-1435.0,0.017,0.547,0.456,0.702
2002747,8023.0,7022.0,-1187.0,0.002,-0.544,-0.443,-0.712
2002763,8043.0,7114.0,-1043.0,0.02,-0.542,-0.431,-0.721
2002779,8179.0,7204.0,-979.0,0.037,-0.54,-0.419,-0.729
2002805,8339.0,6932.0,-1033.0,0.052,-0.539,-0.408,-0.735
2002822,8071.0,6544.0,-929.0,0.066,-0.537,-0.398,-0.741
2002839,7751.0,6450.0,-811.0,0.077,-0.536,-0.389,-0.745
2002856,7479.0,6594.0,-877.0,0.087,-0.535,-0.382,-0.748
2002872,7325.0,6324.0,-929.0,0.095,-0.535,-0.376,-0.751
2002889,7027.0,6330.0,-951.0,0.101,-0.534,-0.372,-0.752
2002906,6761.0,6338.0,-899.0,0.106,-0.534,-0.369,-0.753
2002922,6479.0,6450.0,-983.0,0.11,-0.534,-0.367,-0.753
2002939,6151.0,6540.0,-971.0,0.112,-0.535,-0.366,-0.753
2002955,5861.0,6582.0,-927.0,0.112,-0.535,-0.367,-0.752
2002982,5791.0,6768.0,-1045.0,0.111,-0.536,-0.37,-0.751
2002998,5725.0,6650.0,-1027.0,0.109,-0.536,-0.373,-0.749
2003015,5825.0,6820.0,-1149.0,0.107,-0.536,-0.377,-0.748
2003031,5721.0,6844.0,-1143.0,0.103,-0.536,-0.382,-0.746
2003047,5721.0,7230.0,-1123.0,0.098,-0.536,-0.389,-0.743
2003063,5971.0,6994.0,-1317.0,0.092,-0.536,-0.396,-0.74
2003079,6109.0,7210.0,-1291.0,0.084,-0.536,-0.405,-0.735
2003105,6369.0,7382.0,-1409.0,0.075,-0.537,-0.415,-0.731
2003121,6497.0,7520.0,-1531.0,0.064,-0.537,-0.427,-0.725
2003138,6767.0,7508.0,-1695.0,0.053,-0.537,-0.439,-0.719
2003155,6851.0,7808.0,-1777.0,0.04,-0.537,-0.452,-0.711
2003172,6921.0,7776.0,-1875.0,0.025,-0.537,-0.466,-0.703
2003188,7033.0,7794.0,-2131.0,0.009,-0.538,-0.48,-0.693
2003204,7099.0,8104.0,-2327.0,0.008,0.538,0.495,0.682
2003230,7177.0,8166.0,-2613.0,0.026,0.538,0.511,0.67
2003246,7291.0,8480.0,-2889.0,0.045,0.538,0.527,0.657
2003262,7165.0,8576.0,-2999.0,0.065,0.538,0.542,0.642
2003278,7189.0,8812.0,-3261.0,0.086,0.538,0.558,0.626
2003294,6915.0,8806.0,-3291.0,0.108,0.538,0.573,0.609
2003310,6747.0,8936.0,-3353.0,0.131,0.537,0.588,0.59
2003336,6617.0,8986.0,-3521.0,0.155,0.536,0.602,0.571
2003352,6211.0,8876.0,-3515.0,0.179,0.534,0.616,0.55
2003368,5901.0,8920.0,-3595.0,0.203,0.532,0.629,0.529
2003384,5169.0,8710.0,-3469.0,0.228,0.53,0.641,0.507
2003400,4841.0,8772.0,-3659.0,0.252,0.527,0.652,0.483
2003416,4333.0,8406.0,-3659.0,0.276,0.523,0.663,0.46
2003442,4103.0,8212.0,-3925.0,0.299,0.519,0.672,0.435
2003458,3353.0,7792.0,-3665.0,0.32,0.515,0.681,0.41
2003474,3127.0,7662.0,-3927.0,0.342,0.511,0.689,0.385
2003490,2161.0,7292.0,-3583.0,0.362,0.506,0.696,0.359
2003506,1857.0,6860.0,-3709.0,0.38,0.502,0.701,0.334
2003522,1067.0,6378.0,-3335.0,0.399,0.497,0.706,0.307
2003548,1009.0,6592.0,-3603.0,0.416,0.493,0.71,0.281
2003564,769.0,5966.0,-3867.0,0.432,0.488,0.714,0.255
2003580,-337.0,5778.0,-3135.0,0.447,0.483,0.717,0.229
2003596,-341.0,5186.0,-3249.0,0.462,0.478,0.719,0.204
2003612,-779.0,5042.0,-3357.0,0.475,0.473,0.721,0.178
2003628,-1625.0,4730.0,-3171.0,0.486,0.468,0.722,0.153
2003654,-1923.0,4454.0,-2993.0,0.497,0.464,0.722,0.129
2003671,-1967.0,4198.0,-3027.0,0.507,0.459,0.722,0.105
2003687,-2537.0,3940.0,-2891.0,0.516,0.456,0.721,0.082
2003703,-2959.0,3628.0,-2525.0,0.524,0.452,0.72,0.06
2003719,-3109.0,3276.0,-2873.0,0.531,0.448,0.718,0.038
2003735,-3075.0,3176.0,-2591.0,0.536,0.445,0.717,0.018
2003761,-3595.0,2670.0,-2333.0,0.541,0.442,0.716,-0.002
2003777,-4187.0,2620.0,-1945.0,0.544,0.439,0.715,-0.02
2003793,-4599.0,2286.0,-1491.0,0.545,0.437,0.714,-0.036
2003809,-5339.0,1894.0,-837.0,0.546,0.435,0.714,-0.051
2003825,-5473.0,1570.0,-403.0,0.547,0.434,0.713,-0.064
2003841,-5881.0,1040.0,-3.0,0.547,0.434,0.712,-0.075
2003858,-6349.0,1126.0,395.0,0.546,0.435,0.711,-0.084
2003884,-6557.0,1048.0,835.0,0.545,0.436,0.711,-0.089
2003900,-6427.0,704.0,843.0,0.542,0.439,0.711,-0.092
2003916,-6327.0,1012.0,773.0,0.538,0.442,0.712,-0.091
2003932,-6221.0,1002.0,749.0,0.533,0.447,0.713,-0.086
2003948,-5825.0,1732.0,227.0,0.527,0.453,0.715,-0.078
2003964,-5445.0,1958.0,-119.0,0.52,0.459,0.717,-0.066
2003990,-5369.0,2206.0,-221.0,0.512,0.466,0.72,-0.051
2004007,-4609.0,2768.0,-997.0,0.503,0.473,0.723,-0.032
2004023,-4399.0,2934.0,-1413.0,0.495,0.479,0.725,-0.011
2004039,-3973.0,3530.0,-1845.0,0.485,0.485,0.727,0.013
2004055,-3197.0,4116.0,-2641.0,0.476,0.49,0.729,0.04
2004071,-2747.0,4642.0,-3079.0,0.467,0.495,0.73,0.069
2004097,-2479.0,4984.0,-3449.0,0.457,0.498,0.73,0.1
2004113,-2427.0,4880.0,-3403.0,0.448,0.502,0.728,0.132
2004129,-1323.0,5040.0,-4171.0,0.439,0.504,0.726,0.164
2004145,-1317.0,5740.0,-4199.0,0.429,0.506,0.722,0.196
2004161,-797.0,6336.0,-4289.0,0.418,0.508,0.717,0.229
2004187,-465.0,6900.0,-4411.0,0.407,0.51,0.711,0.262
2004203,-63.0,6748.0,-4445.0,0.396,0.513,0.702,0.295
2004219,1017.0,7188.0,-4771.0,0.384,0.516,0.693,0.326
2004236,767.0,7482.0,-4035.0,0.372,0.519,0.682,0.356
2004252,1539.0,7578.0,-4195.0,0.359,0.522,0.671,0.386
2004268,2397.0,8082.0,-4407.0,0.346,0.525,0.659,0.413
2004284,2581.0,8500.0,-4049.0,0.332,0.528,0.646,0.44
2004300,3029.0,8066.0,-3463.0,0.317,0.531,0.634,0.465
2004326,3285.0,8116.0,-3375.0,0.302,0.533,0.621,0.488
2004342,2975.0,7392.0,-2715.0,0.286,0.536,0.609,0.511
2004358,4417.0,8548.0,-3483.0,0.268,0.538,0.597,0.532
2004375,4525.0,8236.0,-3159.0,0.249,0.54,0.585,0.551
2004392,4551.0,8466.0,-2833.0,0.23,0.542,0.574,0.569
2004408,4937.0,7854.0,-2683.0,0.211,0.544,0.563,0.586
2004424,4489.0,7566.0,-2029.0,0.191,0.546,0.552,0.601
2004450,5857.0,7802.0,-2713.0,0.17,0.548,0.541,0.615
2004466,5757.0,7916.0,-2361.0,0.15,0.55,0.53,0.628
2004482,6473.0,8252.0,-2267.0,0.129,0.552,0.519,0.64
2004498,6885.0,7682.0,-2063.0,0.109,0.553,0.508,0.652
2004514,7149.0,7414.0,-1917.0,0.089,0.552,0.497,0.663
2004540,7015.0,7490.0,-1683.0,0.069,0.551,0.487,0.674
2004556,7113.0,7582.0,-1569.0,0.049,0.55,0.476,0.685
2004572,7123.0,7350.0,-1305.0,0.031,0.548,0.465,0.695
2004588,7291.0,7314.0,-1199.0,0.014,0.546,0.453,0.704
2004604,7357.0,6926.0,-923.0,0.003,-0.544,-0.442,-0.714
2004621,7361.0,6966.0,-769.0,0.019,-0.542,-0.43,-0.722
2004647,7387.0,6496.0,-537.0,0.034,-0.539,-0.417,-0.731
2004663,7385.0,6324.0,-463.0,0.05,-0.537,-0.404,-0.739
2004679,7493.0,6272.0,-389.0,0.065,-0.534,-0.391,-0.747
2004695,7411.0,6146.0,-95.0,0.079,-0.532,-0.378,-0.754
2004711,7649.0,5894.0,-61.0,0.091,-0.53,-0.366,-0.76
2004727,7677.0,5568.0,-35.0,0.103,-0.528,-0.353,-0.766
2004753,7595.0,5772.0,-165.0,0.112,-0.526,-0.341,-0.771
2004769,7461.0,5310.0,-85.0,0.12,-0.526,-0.33,-0.775
2004786,7441.0,5406.0,-139.0,0.126,-0.525,-0.321,-0.778
2004803,7361.0,5426.0,-251.0,0.129,-0.526,-0.313,-0.78
2004820,6871.0,5866.0,-193.0,0.13,-0.527,-0.306,-0.782
2004837,6475.0,5764.0,-165.0,0.128,-0.529,-0.301,-0.783
2004854,6225.0,5966.0,-235.0,0.124,-0.532,-0.297,-0.783
2004870,6069.0,6270.0,-187.0,0.117,-0.535,-0.294,-0.783
2004886,6141.0,6324.0,-265.0,0.11,-0.539,-0.292,-0.783
2004903,6355.0,6332.0,-373.0,0.1,-0.542,-0.292,-0.782
2004929,6357.0,6532.0,-223.0,0.09,-0.545,-0.293,-0.781
2004946,6481.0,6650.0,-103.0,0.079,-0.547,-0.295,-0.779
2004962,6649.0,6766.0,-41.0,0.066,-0.55,-0.3,-0.777
2004978,7301.0,6516.0,-287.0,0.053,-0.553,-0.306,-0.773
2004995,7435.0,6952.0,-287.0,0.038,-0.555,-0.316,-0.769
2005011,7815.0,7316.0,-259.0,0.023,-0.557,-0.327,-0.763
2005027,8155.0,7326.0,-557.0,0.006,-0.56,-0.341,-0.755
2005053,8195.0,7454.0,-583.0,0.011,0.561,0.357,0.747
2005069,8161.0,7716.0,-601.0,0.029,0.563,0.374,0.737
2005085,8159.0,7936.0,-845.0,0.048,0.564,0.393,0.725
2005101,7927.0,8082.0,-869.0,0.066,0.564,0.413,0.712
2005118,7833.0,7930.0,-1051.0,0.085,0.564,0.434,0.698
2005134,7553.0,8154.0,-1185.0,0.105,0.563,0.455,0.682
2005150,7061.0,8208.0,-1277.0,0.124,0.563,0.476,0.664
2005176,7003.0,8596.0,-1481.0,0.143,0.562,0.497,0.646
2005193,6913.0,8432.0,-1775.0,0.162,0.561,0.517,0.626
2005209,6533.0,8420.0,-1837.0,0.182,0.56,0.536,0.605
2005226,6409.0,8372.0,-2153.0,0.202,0.559,0.554,0.584
2005242,6249.0,8344.0,-2433.0,0.221,0.556,0.571,0.562
2005258,5777.0,8252.0,-2531.0,0.24,0.553,0.587,0.54
2005284,5305.0,8610.0,-2525.0,0.259,0.55,0.602,0.517
2005300,5363.0,8274.0,-2911.0,0.278,0.546,0.616,0.494
2005317,4643.0,8140.0,-2927.0,0.297,0.542,0.629,0.471
2005333,4439.0,8334.0,-3227.0,0.316,0.538,0.641,0.448
2005349,3959.0,7954.0,-3395.0,0.334,0.533,0.652,0.424
2005366,3523.0,7758.0,-3579.0,0.351,0.528,0.662,0.4
2005382,2701.0,7520.0,-3523.0,0.368,0.524,0.67,0.376
2005398,1923.0,7024.0,-3489.0,0.384,0.519,0.678,0.352
2005424,1781.0,7050.0,-3673.0,0.4,0.515,0.684,0.327
2005440,1131.0,6398.0,-3643.0,0.415,0.511,0.69,0.301
2005456,595.0,6286.0,-3547.0,0.429,0.507,0.695,0.276
2005472,61.0,5844.0,-3415.0,0.442,0.503,0.699,0.25
2005488,-209.0,5628.0,-3369.0,0.454,0.5,0.702,0.224
2005504,-911.0,5288.0,-3081.0,0.466,0.497,0.705,0.198
2005531,-931.0,4956.0,-3369.0,0.476,0.494,0.707,0.173
2005547,-1777.0,4602.0,-2837.0,0.485,0.491,0.708,0.147
2005563,-1955.0,4776.0,-2863.0,0.493,0.489,0.709,0.122
2005579,-2267.0,4196.0,-2863.0,0.5,0.486,0.71,0.098
2005595,-2569.0,4600.0,-3033.0,0.506,0.484,0.71,0.074
2005612,-3197.0,4028.0,-2467.0,0.511,0.483,0.709,0.051
2005628,-3029.0,4406.0,-2937.0,0.516,0.48,0.709,0.029
2005654,-3923.0,3666.0,-2359.0,0.52,0.478,0.708,0.008
2005671,-3913.0,3100.0,-2663.0,0.522,0.476,0.707,-0.013
2005687,-4959.0,3050.0,-1849.0,0.524,0.474,0.706,-0.033
2005704,-5407.0,2540.0,-1689.0,0.527,0.472,0.705,-0.053
2005720,-5603.0,1880.0,-1601.0,0.529,0.47,0.703,-0.07
2005737,-6473.0,1200.0,-811.0,0.531,0.468,0.701,-0.087
2005754,-6923.0,1824.0,-221.0,0.532,0.467,0.699,-0.102
2005771,-6791.0,1650.0,-27.0,0.535,0.465,0.697,-0.113
2005787,-6565.0,1242.0,9.0,0.537,0.464,0.694,-0.121
2005814,-6309.0,828.0,677.0,0.537,0.465,0.693,-0.125
2005830,-6263.0,1208.0,985.0,0.536,0.467,0.692,-0.126
2005846,-5949.0,1554.0,1025.0,0.534,0.47,0.692,-0.123
2005862,-5623.0,1396.0,717.0,0.53,0.474,0.693,-0.116
2005878,-5291.0,1548.0,361.0,0.525,0.48,0.695,-0.105
2005894,-4967.0,2028.0,31.0,0.518,0.485,0.698,-0.091
2005920,-4809.0,2306.0,-259.0,0.511,0.491,0.702,-0.073
2005936,-4521.0,2650.0,-739.0,0.503,0.496,0.706,-0.053
2005952,-3969.0,3104.0,-1325.0,0.495,0.501,0.71,-0.029
2005968,-3697.0,2990.0,-1953.0,0.486,0.505,0.713,-0.003
2005984,-2971.0,3354.0,-2489.0,0.477,0.51,0.716,0.025
2006000,-2645.0,3808.0,-2911.0,0.466,0.514,0.718,0.055
2006026,-2509.0,4472.0,-3061.0,0.456,0.517,0.72,0.086
2006042,-1621.0,4542.0,-3947.0,0.445,0.519,0.721,0.119
2006058,-1677.0,4616.0,-3695.0,0.432,0.52,0.721,0.151
2006074,-1025.0,5444.0,-3995.0,0.419,0.521,0.721,0.183
2006090,-735.0,6584.0,-4141.0,0.405,0.521,0.72,0.216
2006106,487.0,7142.0,-5267.0,0.389,0.522,0.717,0.25
2006132,259.0,6926.0,-4847.0,0.372,0.523,0.714,0.282
2006148,879.0,7886.0,-4799.0,0.354,0.523,0.709,0.313
2006164,1937.0,7778.0,-5545.0,0.337,0.524,0.703,0.342
2006180,1751.0,7996.0,-4773.0,0.32,0.526,0.696,0.37
2006196,2869.0,8560.0,-5215.0,0.303,0.528,0.687,0.397
2006212,3131.0,7960.0,-4867.0,0.286,0.531,0.677,0.422
2006238,3335.0,8548.0,-4657.0,0.269,0.534,0.666,0.446
2006254,4627.0,7998.0,-5091.0,0.252,0.536,0.655,0.469
2006270,3485.0,8214.0,-3811.0,0.235,0.538,0.644,0.49
2006287,4675.0,7798.0,-4249.0,0.218,0.539,0.633,0.511
2006303,4761.0,8290.0,-3721.0,0.201,0.539,0.622,0.531
2006319,6003.0,8148.0,-4167.0,0.183,0.538,0.611,0.55
2006345,5789.0,8092.0,-3665.0,0.165,0.536,0.602,0.569
2006361,5277.0,8122.0,-3013.0,0.147,0.533,0.592,0.586
2006377,5341.0,7904.0,-3129.0,0.13,0.531,0.583,0.601
2006393,4727.0,7928.0,-2513.0,0.112,0.529,0.573,0.615
2006409,5505.0,7766.0,-2679.0,0.095,0.527,0.563,0.629
2006426,5805.0,7866.0,-2563.0,0.077,0.526,0.553,0.641
2006443,5983.0,7826.0,-2265.0,0.059,0.525,0.542,0.653
2006469,6407.0,7524.0,-2149.0,0.042,0.524,0.532,0.664
2006486,6489.0,7474.0,-1959.0,0.025,0.523,0.521,0.674
2006502,6429.0,7194.0,-1647.0,0.008,0.522,0.509,0.684
2006519,6939.0,7104.0,-1695.0,0.009,-0.52,-0.498,-0.694
2006536,6813.0,7228.0,-1361.0,0.024,-0.518,-0.485,-0.704
2006553,6861.0,7006.0,-1099.0,0.039,-0.517,-0.472,-0.713
2006570,7073.0,6678.0,-1013.0,0.052,-0.515,-0.459,-0.722
2006586,7379.0,6532.0,-1159.0,0.065,-0.514,-0.445,-0.731
2006602,7199.0,6370.0,-663.0,0.077,-0.512,-0.431,-0.739
2006619,7323.0,6468.0,-545.0,0.089,-0.51,-0.416,-0.747
2006645,7213.0,6176.0,-269.0,0.099,-0.509,-0.402,-0.755
2006661,7273.0,5764.0,-305.0,0.107,-0.509,-0.387,-0.761
2006677,7353.0,5782.0,-425.0,0.116,-0.508,-0.373,-0.768
2006693,7073.0,5384.0,69.0,0.123,-0.507,-0.361,-0.773
2006709,7067.0,5792.0,-65.0,0.128,-0.507,-0.348,-0.778
2006725,6951.0,5054.0,109.0,0.132,-0.507,-0.338,-0.782
2006751,6895.0,5428.0,77.0,0.134,-0.508,-0.328,-0.785
2006768,6695.0,5254.0,167.0,0.134,-0.51,-0.321,-0.787
2006785,6559.0,5244.0,191.0,0.132,-0.512,-0.314,-0.789
2006801,6483.0,5442.0,147.0,0.129,-0.514,-0.31,-0.789
2006818,6387.0,5532.0,35.0,0.125,-0.517,-0.306,-0.79
2006835,6245.0,5410.0,45.0,0.12,-0.52,-0.304,-0.789
2006852,6113.0,5828.0,-11.0,0.113,-0.523,-0.304,-0.788
2006869,6251.0,5934.0,-121.0,0.105,-0.526,-0.304,-0.787
2006886,6157.0,5818.0,-7.0,0.097,-0.529,-0.305,-0.786
2006903,6469.0,6316.0,-161.0,0.088,-0.532,-0.307,-0.785
2006920,6579.0,5932.0,-5.0,0.077,-0.534,-0.31,-0.783
2006947,6923.0,6376.0,-233.0,0.067,-0.536,-0.314,-0.781
2006963,7185.0,6352.0,-393.0,0.056,-0.538,-0.32,-0.778
2006980,7151.0,6452.0,373.0,0.043,-0.54,-0.328,-0.774
2006996,7515.0,7094.0,211.0,0.028,-0.543,-0.338,-0.768
2007012,8157.0,7250.0,-135.0,0.011,-0.547,-0.35,-0.761
2007028,8407.0,7140.0,-165.0,0.008,0.55,0.363,0.752
2007044,8619.0,7696.0,-187.0,0.027,0.553,0.377,0.743
2007070,8453.0,7778.0,-181.0,0.048,0.555,0.392,0.732
2007086,8453.0,7842.0,-293.0,0.07,0.557,0.408,0.72
2007102,8337.0,7970.0,-273.0,0.092,0.558,0.424,0.707
2007118,8193.0,8258.0,-425.0,0.115,0.559,0.44,0.693
2007134,8129.0,8052.0,-545.0,0.139,0.558,0.456,0.679
2007160,7475.0,8154.0,-385.0,0.163,0.557,0.472,0.664
2007176,7479.0,8140.0,-629.0,0.187,0.555,0.487,0.648
2007192,7435.0,8102.0,-929.0,0.211,0.552,0.502,0.631
2007208,6887.0,8140.0,-891.0,0.234,0.55,0.517,0.613
2007224,6659.0,8388.0,-1215.0,0.257,0.546,0.531,0.594
2007240,6311.0,8130.0,-1315.0,0.28,0.543,0.545,0.575
2007256,5777.0,8210.0,-1471.0,0.301,0.539,0.559,0.554
2007282,5099.0,8032.0,-1417.0,0.322,0.535,0.571,0.533
2007298,4709.0,7914.0,-1795.0,0.342,0.531,0.583,0.511
2007314,4185.0,7710.0,-1753.0,0.36,0.527,0.594,0.489
2007330,3291.0,7834.0,-1579.0,0.378,0.523,0.604,0.467
2007346,2907.0,7578.0,-1791.0,0.396,0.519,0.614,0.444
2007372,2563.0,6886.0,-1845.0,0.412,0.515,0.622,0.421
2007388,2273.0,6938.0,-2053.0,0.427,0.511,0.631,0.397
2007404,1441.0,7430.0,-2261.0,0.441,0.507,0.64,0.373
2007421,877.0,7214.0,-2193.0,0.455,0.502,0.647,0.35
2007437,635.0,6584.0,-2545.0,0.468,0.497,0.654,0.327
2007454,165.0,6340.0,-2435.0,0.479,0.492,0.661,0.303
2007470,-585.0,6440.0,-2321.0,0.489,0.488,0.667,0.28
2007486,-1061.0,6166.0,-2377.0,0.499,0.483,0.672,0.257
2007513,-1779.0,5302.0,-2275.0,0.506,0.48,0.677,0.234
2007529,-2093.0,4892.0,-2305.0,0.513,0.477,0.682,0.211
2007545,-2799.0,4990.0,-2133.0,0.518,0.475,0.686,0.188
2007561,-2959.0,4714.0,-2427.0,0.521,0.475,0.69,0.166
2007577,-3591.0,4720.0,-2543.0,0.523,0.475,0.693,0.143
2007593,-3585.0,4250.0,-2785.0,0.524,0.475,0.696,0.122
2007610,-3895.0,4212.0,-2747.0,0.524,0.476,0.699,0.099
2007636,-4095.0,4254.0,-2961.0,0.523,0.478,0.701,0.078
2007652,-4053.0,4278.0,-3303.0,0.522,0.479,0.704,0.056
2007669,-4471.0,3992.0,-3163.0,0.52,0.481,0.705,0.035
2007685,-4771.0,3662.0,-2915.0,0.517,0.483,0.707,0.015
2007701,-4929.0,3604.0,-2873.0,0.515,0.484,0.707,-0.005
2007718,-5275.0,3414.0,-2909.0,0.514,0.485,0.707,-0.023
2007735,-5341.0,2892.0,-2641.0,0.512,0.486,0.707,-0.04
2007761,-5469.0,2512.0,-2511.0,0.511,0.487,0.706,-0.056
2007777,-5813.0,2620.0,-2073.0,0.51,0.488,0.705,-0.07
2007794,-5993.0,2764.0,-1805.0,0.51,0.488,0.704,-0.081
2007810,-6015.0,1912.0,-1301.0,0.51,0.488,0.703,-0.089
2007827,-6165.0,1758.0,-899.0,0.511,0.487,0.702,-0.095
2007843,-6235.0,1570.0,-489.0,0.512,0.487,0.701,-0.098
2007860,-6031.0,1572.0,-469.0,0.512,0.486,0.701,-0.097
2007877,-5743.0,1586.0,-539.0,0.512,0.487,0.701,-0.093
2007894,-5549.0,1644.0,-565.0,0.511,0.489,0.702,-0.085
2007911,-5273.0,1996.0,-831.0,0.508,0.492,0.703,-0.074
2007937,-5143.0,2318.0,-1151.0,0.505,0.495,0.705,-0.058
2007954,-5091.0,2414.0,-1197.0,0.501,0.498,0.706,-0.04
2007970,-4895.0,2730.0,-1667.0,0.497,0.501,0.708,-0.019
2007987,-4435.0,3078.0,-2023.0,0.492,0.503,0.71,0.004
2008004,-4179.0,3348.0,-2481.0,0.487,0.505,0.712,0.029
2008020,-3833.0,3570.0,-2607.0,0.481,0.507,0.713,0.056
2008037,-3583.0,3992.0,-2893.0,0.474,0.508,0.714,0.083
2008054,-3409.0,4516.0,-3037.0,0.468,0.51,0.714,0.111
2008080,-2833.0,4382.0,-3327.0,0.46,0.511,0.712,0.141
2008096,-2053.0,5146.0,-3521.0,0.452,0.512,0.711,0.17
2008112,-1523.0,5866.0,-3785.0,0.442,0.513,0.708,0.199
2008128,-1017.0,6416.0,-3495.0,0.431,0.516,0.704,0.229
2008144,-163.0,6416.0,-3405.0,0.419,0.518,0.699,0.259
2008160,851.0,6920.0,-4115.0,0.405,0.521,0.693,0.289
2008186,729.0,6596.0,-3841.0,0.391,0.524,0.686,0.319
2008203,1577.0,6816.0,-4121.0,0.375,0.527,0.679,0.347
2008219,2015.0,7758.0,-4027.0,0.358,0.531,0.671,0.374
2008236,2753.0,8374.0,-4295.0,0.341,0.534,0.661,0.401
2008253,2963.0,7548.0,-4021.0,0.324,0.538,0.652,0.425
2008270,3393.0,8360.0,-4033.0,0.306,0.541,0.642,0.448
2008286,3777.0,8098.0,-4227.0,0.289,0.545,0.632,0.47
2008302,3237.0,8516.0,-3525.0,0.271,0.548,0.622,0.49
2008319,4367.0,8134.0,-3805.0,0.253,0.551,0.611,0.509
2008336,4671.0,8364.0,-3695.0,0.235,0.554,0.601,0.526
2008362,4523.0,7908.0,-3187.0,0.217,0.557,0.59,0.542
2008378,4901.0,7806.0,-3061.0,0.199,0.559,0.58,0.558
2008395,5353.0,8050.0,-3117.0,0.18,0.561,0.57,0.573
2008411,5217.0,7714.0,-2691.0,0.161,0.562,0.56,0.587
2008427,5909.0,7956.0,-2959.0,0.142,0.563,0.55,0.601
2008443,5663.0,7582.0,-2375.0,0.123,0.563,0.539,0.615
2008469,6333.0,7488.0,-2405.0,0.103,0.562,0.528,0.628
2008485,6593.0,7496.0,-2243.0,0.084,0.561,0.517,0.641
2008501,6557.0,7554.0,-1945.0,0.065,0.56,0.506,0.653
2008517,6721.0,7276.0,-1641.0,0.047,0.558,0.495,0.664
2008534,7183.0,7124.0,-1651.0,0.029,0.556,0.483,0.676
2008551,7281.0,6836.0,-1351.0,0.012,0.555,0.471,0.686
2008568,7617.0,6636.0,-1333.0,0.005,-0.553,-0.458,-0.696
2008585,7919.0,6418.0,-1259.0,0.022,-0.55,-0.445,-0.707
2008602,7945.0,6206.0,-1029.0,0.038,-0.547,-0.432,-0.716
2008619,7837.0,6202.0,-835.0,0.054,-0.544,-0.419,-0.725
2008645,7823.0,5952.0,-653.0,0.068,-0.541,-0.406,-0.733
2008661,7697.0,5638.0,-391.0,0.081,-0.538,-0.393,-0.741
2008677,7701.0,5388.0,-313.0,0.093,-0.536,-0.381,-0.748
2008693,7687.0,5094.0,-271.0,0.104,-0.534,-0.369,-0.753
2008710,7463.0,5200.0,-101.0,0.114,-0.532,-0.359,-0.759
2008727,7461.0,5016.0,23.0,0.123,-0.531,-0.348,-0.763
2008744,7433.0,4854.0,21.0,0.13,-0.53,-0.339,-0.766
2008770,7323.0,4740.0,-27.0,0.137,-0.53,-0.33,-0.769
2008787,7191.0,4662.0,15.0,0.142,-0.529,-0.322,-0.772
2008804,6977.0,5060.0,93.0,0.147,-0.529,-0.315,-0.774
2008820,6953.0,4822.0,139.0,0.15,-0.53,-0.309,-0.775
2008837,6835.0,4666.0,-9.0,0.152,-0.531,-0.304,-0.776
2008853,6561.0,4766.0,95.0,0.153,-0.532,-0.301,-0.777
2008869,6423.0,5146.0,85.0,0.151,-0.534,-0.298,-0.776
2008885,6535.0,5120.0,-9.0,0.149,-0.536,-0.297,-0.776
2008902,6577.0,5352.0,-87.0,0.145,-0.539,-0.297,-0.775
2008928,6777.0,5428.0,-197.0,0.139,-0.542,-0.298,-0.773
2008944,6871.0,5384.0,-143.0,0.133,-0.545,-0.3,-0.772
2008960,6983.0,5852.0,-137.0,0.125,-0.547,-0.303,-0.77
2008976,7029.0,5694.0,-193.0,0.116,-0.55,-0.307,-0.768
2008992,7179.0,5800.0,-149.0,0.106,-0.552,-0.312,-0.766
2009009,7293.0,6016.0,-121.0,0.094,-0.555,-0.318,-0.763
2009035,7403.0,6054.0,-81.0,0.081,-0.557,-0.326,-0.759
2009052,7511.0,6450.0,-137.0,0.066,-0.56,-0.335,-0.755
2009069,7687.0,6424.0,-173.0,0.05,-0.562,-0.346,-0.75
2009085,7931.0,6730.0,-347.0,0.033,-0.564,-0.357,-0.744
2009102,8033.0,6884.0,-435.0,0.016,-0.565,-0.37,-0.737
2009119,8029.0,7288.0,-371.0,0.003,0.566,0.384,0.729
2009135,8131.0,7442.0,-555.0,0.022,0.567,0.399,0.72
2009151,8129.0,7548.0,-751.0,0.042,0.568,0.414,0.71
2009177,8029.0,7808.0,-825.0,0.062,0.568,0.43,0.699
2009193,8085.0,8054.0,-1051.0,0.082,0.567,0.447,0.687
2009209,7937.0,7968.0,-1243.0,0.103,0.566,0.463,0.674
2009225,7905.0,8234.0,-1523.0,0.123,0.565,0.479,0.66
2009241,7649.0,8348.0,-1639.0,0.143,0.563,0.496,0.645
2009257,7235.0,8268.0,-1695.0,0.163,0.561,0.513,0.629
2009283,6999.0,8776.0,-1975.0,0.183,0.56,0.529,0.611
2009299,6553.0,8342.0,-2123.0,0.204,0.558,0.545,0.592
2009315,5893.0,8448.0,-2241.0,0.225,0.555,0.561,0.571
2009331,5519.0,8434.0,-2587.0,0.246,0.553,0.576,0.55
2009347,5041.0,8628.0,-2801.0,0.266,0.55,0.59,0.528
2009363,4667.0,8468.0,-3039.0,0.287,0.546,0.604,0.505
2009389,4127.0,8594.0,-2873.0,0.308,0.542,0.616,0.482
2009406,3591.0,8096.0,-2941.0,0.329,0.537,0.627,0.459
2009422,3277.0,7992.0,-3215.0,0.349,0.532,0.637,0.435
2009438,2591.0,8230.0,-3027.0,0.369,0.526,0.646,0.412
2009454,1961.0,7878.0,-2955.0,0.388,0.521,0.654,0.388
2009470,1505.0,7818.0,-3031.0,0.408,0.515,0.66,0.364
2009496,1477.0,6864.0,-3273.0,0.426,0.509,0.666,0.34
2009512,1065.0,6742.0,-3163.0,0.444,0.503,0.672,0.315
2009528,235.0,6936.0,-3077.0,0.46,0.497,0.676,0.291
2009545,207.0,6602.0,-3407.0,0.476,0.49,0.68,0.267
2009561,-681.0,5948.0,-3071.0,0.49,0.483,0.683,0.243
2009577,-1251.0,6270.0,-3067.0,0.504,0.477,0.686,0.218
2009593,-1743.0,5822.0,-2987.0,0.517,0.471,0.688,0.194
2009619,-2209.0,5552.0,-2707.0,0.529,0.465,0.689,0.17
2009636,-2257.0,5136.0,-2951.0,0.541,0.46,0.689,0.147
2009652,-3125.0,4820.0,-2275.0,0.551,0.455,0.689,0.123
2009668,-2923.0,4352.0,-2599.0,0.56,0.449,0.689,0.1
2009684,-3221.0,4254.0,-2513.0,0.568,0.445,0.688,0.076
2009700,-3431.0,4036.0,-2535.0,0.575,0.441,0.687,0.053
2009717,-3613.0,3746.0,-2353.0,0.581,0.437,0.686,0.03
2009734,-3703.0,3486.0,-2305.0,0.585,0.434,0.685,0.007
2009760,-4029.0,3216.0,-1955.0,0.589,0.431,0.683,-0.015
2009776,-4259.0,2970.0,-1739.0,0.593,0.429,0.681,-0.036
2009792,-4455.0,2822.0,-1637.0,0.595,0.426,0.679,-0.057
2009808,-4695.0,2334.0,-1207.0,0.597,0.423,0.677,-0.076
2009824,-4873.0,2422.0,-1123.0,0.599,0.421,0.675,-0.093
2009840,-5031.0,2290.0,-793.0,0.6,0.418,0.674,-0.108
2009866,-5595.0,1636.0,229.0,0.601,0.415,0.672,-0.12
2009883,-5855.0,1716.0,581.0,0.601,0.413,0.672,-0.13
2009899,-6053.0,1588.0,951.0,0.6,0.412,0.672,-0.135
2009915,-6305.0,1120.0,1307.0,0.598,0.412,0.673,-0.138
2009932,-6811.0,672.0,1641.0,0.596,0.414,0.675,-0.137
2009949,-7093.0,634.0,2063.0,0.593,0.417,0.676,-0.134
2009966,-7333.0,1004.0,2041.0,0.589,0.421,0.678,-0.127
2009983,-6917.0,1450.0,1571.0,0.585,0.426,0.68,-0.116
2010000,-6409.0,1392.0,955.0,0.58,0.432,0.682,-0.102
2010026,-6001.0,1788.0,493.0,0.575,0.438,0.686,-0.084
2010042,-5369.0,2456.0,-159.0,0.569,0.444,0.689,-0.064
2010058,-4841.0,2890.0,-817.0,0.563,0.449,0.693,-0.039
2010074,-4279.0,3050.0,-1283.0,0.557,0.453,0.697,-0.013
2010090,-3897.0,2994.0,-1757.0,0.549,0.456,0.7,0.016
2010106,-3465.0,3204.0,-2273.0,0.541,0.459,0.703,0.046
2010132,-2955.0,3654.0,-2493.0,0.532,0.462,0.705,0.077
2010148,-2693.0,4146.0,-2835.0,0.523,0.464,0.707,0.108
2010164,-1669.0,4982.0,-3673.0,0.511,0.467,0.708,0.14
2010180,-1965.0,4940.0,-3193.0,0.499,0.47,0.707,0.173
2010196,-1089.0,5466.0,-3327.0,0.486,0.473,0.705,0.206
2010213,-1067.0,5912.0,-3431.0,0.472,0.476,0.703,0.238
2010239,-403.0,7118.0,-3667.0,0.456,0.48,0.699,0.27
2010255,-347.0,7116.0,-3227.0,0.439,0.485,0.694,0.302
2010271,695.0,7254.0,-3637.0,0.421,0.49,0.688,0.333
2010287,927.0,7810.0,-3299.0,0.403,0.495,0.68,0.362
2010303,1405.0,8018.0,-3497.0,0.384,0.501,0.67,0.39
2010319,2301.0,8474.0,-3623.0,0.365,0.508,0.66,0.416
2010345,2331.0,8104.0,-3195.0,0.347,0.515,0.648,0.441
2010361,4153.0,7916.0,-4023.0,0.328,0.522,0.636,0.464
2010377,3433.0,8078.0,-3047.0,0.309,0.528,0.624,0.487
2010393,4293.0,8924.0,-3225.0,0.289,0.533,0.612,0.509
2010409,3975.0,8034.0,-2559.0,0.269,0.537,0.598,0.53
2010425,5447.0,7930.0,-3437.0,0.249,0.541,0.585,0.55
2010451,5327.0,7264.0,-2719.0,0.226,0.543,0.573,0.57
2010467,5831.0,8096.0,-2655.0,0.204,0.544,0.562,0.59
2010484,5923.0,8058.0,-2215.0,0.181,0.544,0.55,0.608
2010501,6441.0,8322.0,-2245.0,0.158,0.544,0.538,0.624
2010517,6417.0,7376.0,-1667.0,0.136,0.545,0.526,0.639
2010534,7097.0,7874.0,-1731.0,0.114,0.544,0.515,0.652
2010551,7681.0,7930.0,-1759.0,0.093,0.544,0.504,0.665
2010568,7387.0,7500.0,-1207.0,0.071,0.543,0.493,0.676
2010584,7511.0,7806.0,-1095.0,0.05,0.543,0.483,0.685
2010611,7923.0,7180.0,-1153.0,0.03,0.543,0.473,0.694
2010627,7863.0,7184.0,-899.0,0.011,0.541,0.463,0.702
2010643,8305.0,7590.0,-1195.0,0.009,-0.539,-0.453,-0.71
2010659,7805.0,7024.0,-577.0,0.028,-0.536,-0.444,-0.718
2010675,7643.0,7244.0,-517.0,0.046,-0.533,-0.434,-0.725
2010691,7967.0,7044.0,-839.0,0.063,-0.531,-0.423,-0.732
2010717,7865.0,6468.0,-933.0,0.079,-0.528,-0.413,-0.738
2010733,7645.0,6532.0,-539.0,0.094,-0.525,-0.404,-0.743
2010749,7175.0,6350.0,-125.0,0.106,-0.522,-0.396,-0.748
2010766,7233.0,6338.0,-291.0,0.116,-0.521,-0.387,-0.752
2010783,7559.0,5506.0,-553.0,0.124,-0.52,-0.379,-0.755
2010800,7645.0,5638.0,-849.0,0.13,-0.52,-0.372,-0.758
2010816,7243.0,5820.0,-521.0,0.136,-0.519,-0.366,-0.76
2010833,7405.0,5034.0,-747.0,0.14,-0.52,-0.36,-0.762
2010852,7197.0,5542.0,-667.0,0.143,-0.52,-0.355,-0.764
2010868,7003.0,5324.0,-703.0,0.145,-0.521,-0.351,-0.764
2010885,6775.0,5206.0,-677.0,0.146,-0.522,-0.348,-0.765
2010911,6417.0,5338.0,-511.0,0.145,-0.524,-0.345,-0.765
2010928,6289.0,5430.0,-515.0,0.144,-0.526,-0.343,-0.765
2010945,6127.0,5574.0,-469.0,0.142,-0.528,-0.342,-0.764
2010962,6151.0,5512.0,-543.0,0.138,-0.53,-0.342,-0.763
2010979,6143.0,5454.0,-559.0,0.134,-0.533,-0.342,-0.762
2010996,6249.0,5738.0,-541.0,0.129,-0.535,-0.344,-0.76
2011013,6251.0,5956.0,-513.0,0.123,-0.538,-0.347,-0.758
2011030,6401.0,5848.0,-511.0,0.116,-0.54,-0.35,-0.756
2011047,6443.0,6190.0,-587.0,0.108,-0.543,-0.355,-0.753
2011064,6605.0,6038.0,-501.0,0.098,-0.546,-0.361,-0.75
2011081,6799.0,6216.0,-603.0,0.088,-0.549,-0.367,-0.746
2011098,7031.0,6434.0,-761.0,0.077,-0.551,-0.374,-0.742
2011124,7101.0,6642.0,-695.0,0.064,-0.554,-0.382,-0.737
2011141,7369.0,6636.0,-849.0,0.05,-0.557,-0.391,-0.731
2011158,7503.0,6794.0,-939.0,0.035,-0.56,-0.401,-0.724
2011175,7633.0,6866.0,-1051.0,0.018,-0.563,-0.412,-0.716
2011191,7661.0,7144.0,-1187.0,0.001,-0.565,-0.424,-0.708
2011207,7827.0,7110.0,-1427.0,0.017,0.567,0.436,0.699
2011224,7761.0,7256.0,-1349.0,0.037,0.569,0.448,0.689
2011241,7835.0,7376.0,-1553.0,0.056,0.57,0.461,0.678
2011258,7845.0,7820.0,-1795.0,0.076,0.571,0.474,0.666
2011274,7757.0,7702.0,-1903.0,0.096,0.571,0.487,0.654
2011301,7663.0,7860.0,-2031.0,0.117,0.571,0.501,0.64
2011317,7291.0,8044.0,-1959.0,0.138,0.57,0.514,0.625
2011334,7307.0,8180.0,-2319.0,0.159,0.57,0.528,0.61
2011350,7289.0,7976.0,-2577.0,0.18,0.568,0.542,0.593
2011366,6653.0,8196.0,-2403.0,0.2,0.567,0.555,0.575
2011382,6647.0,8162.0,-2959.0,0.221,0.565,0.569,0.555
2011408,6309.0,8046.0,-3015.0,0.24,0.562,0.583,0.535
2011424,5525.0,8076.0,-2881.0,0.26,0.559,0.597,0.513
2011440,5095.0,8202.0,-3165.0,0.279,0.556,0.61,0.49
2011456,4765.0,8066.0,-3499.0,0.298,0.552,0.623,0.467
2011472,3781.0,7858.0,-3265.0,0.316,0.549,0.635,0.443
2011488,3421.0,7894.0,-3571.0,0.334,0.544,0.646,0.418
2011504,3159.0,7610.0,-3761.0,0.351,0.54,0.656,0.393
2011530,2523.0,7308.0,-3789.0,0.367,0.536,0.666,0.368
2011546,1981.0,7542.0,-3795.0,0.381,0.531,0.674,0.343
2011562,1407.0,6844.0,-3837.0,0.395,0.527,0.682,0.319
2011578,627.0,6596.0,-3669.0,0.409,0.522,0.689,0.293
2011594,295.0,6248.0,-3731.0,0.422,0.518,0.695,0.267
2011620,-269.0,6020.0,-3741.0,0.434,0.514,0.699,0.242
2011636,-275.0,6000.0,-4047.0,0.445,0.51,0.703,0.216
2011652,-957.0,5786.0,-3825.0,0.456,0.507,0.706,0.191
2011668,-1161.0,5532.0,-3723.0,0.466,0.504,0.708,0.166
2011684,-1507.0,5064.0,-3737.0,0.476,0.501,0.709,0.142
2011701,-1779.0,5502.0,-4103.0,0.484,0.497,0.71,0.117
2011717,-2481.0,4836.0,-3457.0,0.493,0.494,0.71,0.094
2011743,-2315.0,5200.0,-3843.0,0.501,0.491,0.709,0.072
2011759,-3179.0,4776.0,-3515.0,0.509,0.487,0.708,0.05
2011775,-3529.0,4742.0,-3379.0,0.517,0.483,0.706,0.029
2011791,-3657.0,4096.0,-3395.0,0.524,0.479,0.704,0.009
2011807,-3995.0,4010.0,-3277.0,0.531,0.474,0.702,-0.011
2011833,-4167.0,3636.0,-3059.0,0.538,0.47,0.699,-0.03
2011850,-4259.0,3760.0,-3301.0,0.544,0.466,0.697,-0.048
2011866,-4945.0,3592.0,-2567.0,0.55,0.461,0.693,-0.065
2011882,-5063.0,3168.0,-2355.0,0.556,0.457,0.69,-0.081
2011898,-5357.0,2792.0,-1987.0,0.562,0.453,0.685,-0.096
2011914,-5937.0,2484.0,-1459.0,0.568,0.45,0.68,-0.11
2011930,-5985.0,1906.0,-849.0,0.575,0.446,0.675,-0.123
2011956,-6087.0,1544.0,-481.0,0.581,0.441,0.67,-0.135
2011972,-6333.0,1322.0,477.0,0.588,0.437,0.665,-0.144
2011988,-6275.0,966.0,495.0,0.594,0.432,0.661,-0.151
2012004,-6107.0,620.0,1093.0,0.599,0.429,0.658,-0.155
2012020,-6087.0,132.0,1387.0,0.602,0.427,0.656,-0.156
2012036,-5743.0,1338.0,1509.0,0.604,0.426,0.656,-0.155
2012062,-5985.0,860.0,1475.0,0.603,0.428,0.656,-0.15
2012078,-6371.0,986.0,1517.0,0.6,0.43,0.659,-0.141
2012094,-5447.0,1588.0,969.0,0.596,0.434,0.663,-0.129
2012110,-6221.0,340.0,403.0,0.591,0.438,0.668,-0.114
2012126,-5829.0,1230.0,105.0,0.584,0.443,0.673,-0.098
2012142,-5657.0,2592.0,-173.0,0.576,0.448,0.679,-0.079
2012168,-5361.0,2760.0,-747.0,0.568,0.453,0.684,-0.058
2012185,-4967.0,2920.0,-1325.0,0.56,0.458,0.689,-0.035
2012202,-4159.0,3252.0,-1559.0,0.551,0.464,0.693,-0.01
2012218,-4297.0,3140.0,-1877.0,0.542,0.47,0.697,0.017
2012234,-3861.0,3134.0,-1827.0,0.531,0.476,0.7,0.044
2012251,-3165.0,4152.0,-2681.0,0.52,0.482,0.702,0.071
2012267,-3145.0,3524.0,-2309.0,0.508,0.488,0.703,0.1
2012283,-1955.0,4838.0,-3365.0,0.494,0.493,0.705,0.129
2012309,-2537.0,5268.0,-2743.0,0.479,0.499,0.705,0.159
2012325,-1605.0,5618.0,-3137.0,0.463,0.504,0.704,0.189
2012341,-773.0,6246.0,-3823.0,0.447,0.508,0.703,0.218
2012357,-1119.0,6768.0,-3369.0,0.431,0.514,0.699,0.249
2012373,345.0,6838.0,-4165.0,0.414,0.519,0.694,0.28
2012389,251.0,6918.0,-4047.0,0.397,0.524,0.687,0.309
2012415,343.0,7552.0,-3305.0,0.38,0.53,0.678,0.338
2012431,2275.0,7282.0,-4331.0,0.363,0.536,0.668,0.367
2012447,2383.0,8148.0,-4021.0,0.347,0.541,0.657,0.395
2012463,2741.0,8176.0,-3753.0,0.33,0.546,0.644,0.422
2012479,3889.0,7616.0,-3851.0,0.313,0.551,0.63,0.449
2012505,4547.0,8564.0,-3699.0,0.296,0.555,0.616,0.475
2012521,4891.0,7744.0,-3521.0,0.279,0.558,0.601,0.5
2012537,5081.0,8270.0,-3189.0,0.261,0.56,0.586,0.525
2012553,5523.0,8064.0,-2997.0,0.244,0.562,0.57,0.548
2012569,5275.0,7324.0,-2327.0,0.226,0.563,0.553,0.571
2012586,6961.0,7792.0,-2981.0,0.207,0.565,0.537,0.592
2012612,6245.0,7672.0,-2147.0,0.188,0.567,0.519,0.612
2012628,7085.0,7818.0,-2077.0,0.168,0.568,0.501,0.631
2012644,7183.0,7982.0,-1623.0,0.149,0.571,0.482,0.648
2012660,7405.0,7462.0,-1465.0,0.129,0.573,0.462,0.665
2012676,7867.0,6928.0,-1315.0,0.109,0.575,0.443,0.679
2012692,7965.0,7186.0,-1185.0,0.09,0.577,0.425,0.692
2012708,7935.0,7048.0,-913.0,0.071,0.578,0.407,0.704
2012734,7927.0,6860.0,-693.0,0.053,0.58,0.389,0.714
2012751,7949.0,6880.0,-535.0,0.037,0.581,0.371,0.724
2012767,8349.0,6268.0,-603.0,0.021,0.582,0.352,0.733
2012783,8605.0,6318.0,-657.0,0.006,0.582,0.334,0.741
2012799,8559.0,5806.0,-131.0,0.008,-0.582,-0.315,-0.749
2012816,8741.0,5368.0,115.0,0.02,-0.582,-0.298,-0.757
2012833,8549.0,5636.0,153.0,0.031,-0.582,-0.281,-0.763
2012849,8567.0,5128.0,305.0,0.041,-0.582,-0.264,-0.768
