timeMs,ax,ay,az,q0,q1,q2,q3
3858629,3444.0,4000.0,6268.0,0.629,0.337,0.046,0.699
3858645,3456.0,4008.0,6328.0,0.629,0.337,0.046,0.699
3858661,3482.0,3956.0,6288.0,0.629,0.337,0.046,0.699
3858677,3502.0,4016.0,6270.0,0.629,0.337,0.046,0.699
3858693,3446.0,4022.0,6298.0,0.629,0.337,0.046,0.699
3858719,3432.0,3946.0,6314.0,0.629,0.337,0.046,0.699
3858735,3456.0,3974.0,6314.0,0.629,0.337,0.046,0.699
3858751,3452.0,3962.0,6280.0,0.629,0.337,0.046,0.699
3858767,3420.0,4006.0,6332.0,0.629,0.337,0.046,0.699
3858783,3394.0,4012.0,6328.0,0.629,0.337,0.047,0.699
3858800,3408.0,3968.0,6300.0,0.629,0.337,0.047,0.699
3858826,3404.0,4016.0,6300.0,0.629,0.337,0.047,0.699
3858842,3422.0,3998.0,6314.0,0.629,0.337,0.047,0.699
3858858,3352.0,4032.0,6314.0,0.629,0.337,0.047,0.699
3858874,3390.0,4046.0,6292.0,0.629,0.337,0.048,0.699
3858890,3448.0,4072.0,6284.0,0.629,0.337,0.048,0.699
3858906,3400.0,4034.0,6266.0,0.629,0.337,0.048,0.699
3858923,3362.0,4052.0,6330.0,0.629,0.337,0.048,0.698
3858949,3346.0,4056.0,6304.0,0.629,0.337,0.049,0.698
3858965,3384.0,4036.0,6314.0,0.629,0.337,0.049,0.698
3858981,3378.0,4046.0,6272.0,0.629,0.337,0.049,0.698
3858997,3352.0,4160.0,6344.0,0.63,0.337,0.049,0.698
3859013,3356.0,4062.0,6326.0,0.63,0.337,0.049,0.698
3859039,3398.0,4082.0,6290.0,0.63,0.337,0.049,0.698
3859055,3394.0,4110.0,6314.0,0.63,0.337,0.049,0.698
3859071,3396.0,4046.0,6318.0,0.63,0.337,0.049,0.698
3859088,3360.0,4060.0,6366.0,0.63,0.337,0.049,0.698
3859104,3350.0,4018.0,6338.0,0.63,0.337,0.049,0.698
3859120,3420.0,4060.0,6308.0,0.63,0.337,0.049,0.698
3859136,3400.0,4060.0,6332.0,0.63,0.337,0.049,0.698
3859162,3386.0,4052.0,6290.0,0.63,0.337,0.049,0.698
3859178,3390.0,4074.0,6252.0,0.63,0.337,0.049,0.698
3859194,3366.0,4080.0,6248.0,0.63,0.338,0.049,0.698
3859210,3350.0,4036.0,6294.0,0.63,0.338,0.049,0.698
3859226,3336.0,4030.0,6314.0,0.63,0.338,0.049,0.698
3859242,3332.0,4078.0,6266.0,0.629,0.338,0.049,0.698
3859268,3394.0,4086.0,6236.0,0.629,0.338,0.049,0.698
3859284,3348.0,4076.0,6306.0,0.629,0.338,0.048,0.698
3859300,3444.0,4046.0,6240.0,0.629,0.338,0.048,0.698
3859316,3384.0,4080.0,6270.0,0.629,0.338,0.048,0.698
3859333,3426.0,4034.0,6332.0,0.629,0.338,0.048,0.698
3859349,3400.0,4016.0,6270.0,0.629,0.338,0.047,0.698
3859375,3402.0,4038.0,6314.0,0.629,0.338,0.047,0.698
3859391,3420.0,4068.0,6316.0,0.629,0.338,0.047,0.698
3859408,3420.0,4032.0,6278.0,0.629,0.338,0.047,0.698
3859424,3410.0,3968.0,6306.0,0.629,0.338,0.046,0.699
3859440,3474.0,4004.0,6254.0,0.629,0.338,0.046,0.699
3859456,3462.0,4028.0,6284.0,0.629,0.338,0.046,0.699
3859472,3432.0,4002.0,6322.0,0.629,0.338,0.046,0.699
3859498,3440.0,4014.0,6344.0,0.629,0.338,0.045,0.699
3859515,3436.0,3982.0,6284.0,0.629,0.338,0.045,0.699
3859531,3466.0,3988.0,6256.0,0.628,0.339,0.045,0.699
3859547,3436.0,4014.0,6270.0,0.628,0.339,0.045,0.699
3859563,3422.0,3976.0,6318.0,0.628,0.339,0.044,0.699
3859579,3492.0,3966.0,6288.0,0.628,0.339,0.044,0.699
3859605,3450.0,3982.0,6268.0,0.628,0.339,0.044,0.699
3859621,3512.0,3984.0,6288.0,0.628,0.339,0.044,0.699
3859637,3466.0,4052.0,6304.0,0.628,0.339,0.044,0.699
3859653,3460.0,3982.0,6268.0,0.628,0.339,0.044,0.699
3859670,3462.0,4016.0,6238.0,0.628,0.338,0.044,0.699
3859686,3508.0,3980.0,6312.0,0.628,0.338,0.044,0.699
3859702,3494.0,3966.0,6300.0,0.628,0.338,0.044,0.699
3859728,3518.0,3994.0,6300.0,0.628,0.338,0.044,0.699
3859745,3468.0,3968.0,6276.0,0.628,0.338,0.044,0.699
3859762,3472.0,3964.0,6296.0,0.628,0.338,0.045,0.699
3859779,3464.0,3992.0,6304.0,0.628,0.338,0.045,0.699
3859795,3432.0,4020.0,6340.0,0.628,0.338,0.045,0.699
3859811,3464.0,3996.0,6296.0,0.628,0.338,0.045,0.699
3859827,3474.0,4002.0,6310.0,0.628,0.338,0.045,0.699
3859844,3452.0,4024.0,6362.0,0.629,0.338,0.045,0.699
3859870,3458.0,4020.0,6342.0,0.629,0.337,0.045,0.699
3859887,3474.0,3994.0,6334.0,0.629,0.337,0.046,0.699
3859903,3454.0,3950.0,6330.0,0.629,0.337,0.046,0.699
3859923,3468.0,3980.0,6292.0,0.629,0.337,0.046,0.699
3859939,3454.0,4050.0,6252.0,0.629,0.337,0.046,0.699
3859955,3418.0,4018.0,6254.0,0.629,0.337,0.047,0.699
3859972,3412.0,3994.0,6314.0,0.629,0.337,0.047,0.699
3859989,3396.0,4032.0,6298.0,0.629,0.337,0.048,0.699
3860005,3392.0,4064.0,6306.0,0.629,0.337,0.048,0.699
3860021,3376.0,4006.0,6272.0,0.629,0.336,0.048,0.699
3860040,3366.0,4034.0,6298.0,0.629,0.336,0.049,0.699
3860056,3410.0,4048.0,6332.0,0.629,0.336,0.049,0.699
3860082,3376.0,4032.0,6328.0,0.629,0.336,0.049,0.699
3860098,3334.0,4034.0,6302.0,0.629,0.336,0.05,0.699
3860114,3352.0,3996.0,6292.0,0.629,0.335,0.05,0.699
3860131,3320.0,4046.0,6350.0,0.629,0.335,0.05,0.699
3860147,3292.0,4068.0,6368.0,0.629,0.335,0.051,0.699
3860164,3332.0,4092.0,6318.0,0.629,0.335,0.051,0.699
3860180,3286.0,4044.0,6358.0,0.629,0.335,0.051,0.699
3860206,3330.0,4104.0,6334.0,0.629,0.335,0.052,0.699
3860222,3362.0,4090.0,6302.0,0.629,0.335,0.052,0.699
3860238,3320.0,4118.0,6316.0,0.629,0.335,0.052,0.699
3860254,3316.0,4144.0,6328.0,0.629,0.335,0.052,0.699
3860270,3300.0,4120.0,6352.0,0.629,0.335,0.052,0.699
3860286,3332.0,4098.0,6322.0,0.629,0.335,0.052,0.699
3860312,3374.0,4130.0,6266.0,0.629,0.335,0.052,0.699
3860328,3348.0,4086.0,6278.0,0.629,0.335,0.052,0.699
3860344,3378.0,4122.0,6324.0,0.629,0.335,0.052,0.699
3860360,3306.0,4090.0,6332.0,0.629,0.335,0.052,0.699
3860376,3306.0,4082.0,6286.0,0.629,0.335,0.052,0.699
3860392,3340.0,4074.0,6288.0,0.629,0.335,0.052,0.699
3860418,3324.0,4056.0,6354.0,0.629,0.335,0.052,0.699
3860434,3296.0,4062.0,6322.0,0.629,0.335,0.052,0.699
3860450,3304.0,4100.0,6312.0,0.629,0.335,0.052,0.699
3860466,3304.0,4132.0,6316.0,0.629,0.335,0.052,0.7
3860483,3338.0,4104.0,6358.0,0.629,0.335,0.051,0.7
3860499,3346.0,4112.0,6306.0,0.629,0.335,0.051,0.7
3860525,3326.0,4020.0,6330.0,0.629,0.335,0.051,0.7
3860541,3340.0,4098.0,6308.0,0.629,0.335,0.051,0.7
3860557,3382.0,4062.0,6362.0,0.629,0.335,0.05,0.7
3860573,3392.0,4088.0,6322.0,0.629,0.335,0.05,0.7
3860589,3368.0,4050.0,6320.0,0.629,0.335,0.05,0.7
3860605,3374.0,4054.0,6324.0,0.629,0.335,0.05,0.7
3860631,3402.0,4034.0,6326.0,0.629,0.335,0.049,0.7
3860647,3412.0,4048.0,6368.0,0.629,0.335,0.049,0.7
3860664,3362.0,4036.0,6354.0,0.629,0.335,0.049,0.7
3860680,3386.0,4020.0,6366.0,0.629,0.336,0.049,0.7
3860696,3388.0,4008.0,6342.0,0.628,0.336,0.048,0.7
3860712,3392.0,4014.0,6316.0,0.628,0.336,0.048,0.7
3860729,3412.0,4034.0,6262.0,0.628,0.336,0.048,0.7
3860755,3358.0,4022.0,6278.0,0.628,0.336,0.048,0.7
3860773,3398.0,4058.0,6296.0,0.628,0.336,0.048,0.7
3860790,3376.0,4016.0,6288.0,0.628,0.336,0.048,0.7
3860806,3362.0,4022.0,6320.0,0.628,0.336,0.048,0.7
3860822,3386.0,4036.0,6294.0,0.628,0.336,0.047,0.7
3860839,3432.0,4008.0,6338.0,0.628,0.336,0.047,0.7
3860855,3428.0,4028.0,6284.0,0.628,0.336,0.047,0.7
3860871,3416.0,4012.0,6262.0,0.628,0.336,0.047,0.7
3860897,3428.0,4024.0,6306.0,0.628,0.336,0.047,0.7
3860913,3424.0,4034.0,6328.0,0.628,0.336,0.047,0.7
3860929,3386.0,3970.0,6360.0,0.628,0.335,0.047,0.7
3860945,3434.0,4002.0,6330.0,0.629,0.335,0.047,0.7
3860961,3404.0,3962.0,6340.0,0.629,0.335,0.047,0.7
3860977,3484.0,3974.0,6368.0,0.629,0.335,0.047,0.7
3861003,3414.0,3912.0,6336.0,0.629,0.335,0.047,0.7
3861019,3390.0,3964.0,6328.0,0.629,0.335,0.047,0.7
3861035,3416.0,3934.0,6342.0,0.629,0.335,0.047,0.7
3861051,3408.0,3946.0,6382.0,0.629,0.335,0.048,0.7
3861067,3404.0,3994.0,6352.0,0.629,0.335,0.048,0.7
3861083,3408.0,4030.0,6348.0,0.629,0.335,0.048,0.7
3861109,3374.0,4006.0,6300.0,0.629,0.335,0.049,0.7
3861125,3414.0,4058.0,6338.0,0.629,0.335,0.049,0.7
3861141,3390.0,4106.0,6346.0,0.629,0.335,0.05,0.7
3861157,3356.0,4040.0,6324.0,0.629,0.335,0.05,0.7
3861173,3358.0,4078.0,6306.0,0.629,0.335,0.05,0.7
3861189,3336.0,4056.0,6346.0,0.629,0.335,0.051,0.7
3861215,3352.0,4070.0,6306.0,0.629,0.334,0.051,0.7
3861231,3318.0,4016.0,6308.0,0.629,0.334,0.051,0.7
3861247,3270.0,4042.0,6366.0,0.629,0.334,0.052,0.7
3861263,3272.0,4088.0,6330.0,0.629,0.334,0.052,0.7
3861280,3302.0,4108.0,6330.0,0.629,0.334,0.052,0.7
3861296,3326.0,4092.0,6322.0,0.629,0.334,0.053,0.7
3861313,3316.0,4080.0,6344.0,0.629,0.334,0.053,0.7
3861340,3284.0,4116.0,6330.0,0.629,0.334,0.053,0.7
3861356,3322.0,4092.0,6346.0,0.629,0.334,0.053,0.7
3861373,3320.0,4142.0,6328.0,0.629,0.334,0.053,0.7
3861389,3290.0,4080.0,6328.0,0.629,0.334,0.053,0.7
3861405,3300.0,4088.0,6378.0,0.629,0.334,0.053,0.7
3861421,3326.0,4106.0,6338.0,0.629,0.334,0.053,0.7
3861437,3344.0,4114.0,6302.0,0.629,0.334,0.053,0.7
3861463,3338.0,4074.0,6332.0,0.629,0.334,0.053,0.7
3861480,3302.0,4136.0,6370.0,0.629,0.334,0.053,0.7
3861496,3274.0,4080.0,6382.0,0.629,0.334,0.053,0.7
3861513,3350.0,4080.0,6370.0,0.629,0.334,0.053,0.7
3861529,3296.0,4044.0,6316.0,0.629,0.334,0.053,0.7
3861545,3338.0,4090.0,6294.0,0.629,0.334,0.053,0.7
3861562,3342.0,4070.0,6298.0,0.629,0.334,0.053,0.7
3861578,3282.0,4106.0,6284.0,0.629,0.334,0.053,0.7
3861604,3326.0,4116.0,6254.0,0.629,0.334,0.053,0.7
3861620,3310.0,4090.0,6290.0,0.629,0.334,0.052,0.7
3861636,3310.0,4098.0,6332.0,0.629,0.335,0.052,0.7
3861652,3288.0,4052.0,6310.0,0.629,0.335,0.052,0.7
3861668,3324.0,4068.0,6350.0,0.629,0.335,0.051,0.7
3861694,3344.0,4088.0,6350.0,0.629,0.335,0.051,0.7
3861711,3358.0,4088.0,6326.0,0.629,0.335,0.051,0.7
3861727,3366.0,4030.0,6330.0,0.629,0.335,0.05,0.7
3861743,3334.0,4028.0,6314.0,0.629,0.335,0.05,0.7
3861759,3340.0,4010.0,6344.0,0.629,0.335,0.049,0.7
3861775,3330.0,4018.0,6372.0,0.629,0.335,0.049,0.7
3861791,3402.0,4030.0,6344.0,0.629,0.335,0.049,0.7
3861817,3394.0,4004.0,6320.0,0.629,0.335,0.048,0.7
3861833,3386.0,4010.0,6346.0,0.629,0.335,0.048,0.7
3861849,3404.0,4054.0,6364.0,0.629,0.335,0.048,0.7
3861865,3428.0,3974.0,6336.0,0.629,0.335,0.047,0.7
3861881,3412.0,3980.0,6320.0,0.629,0.336,0.047,0.7
3861897,3406.0,3968.0,6362.0,0.629,0.336,0.047,0.7
3861923,3472.0,4040.0,6340.0,0.629,0.336,0.046,0.7
3861939,3440.0,3962.0,6324.0,0.629,0.336,0.046,0.7
3861955,3470.0,3998.0,6322.0,0.629,0.336,0.046,0.7
3861971,3426.0,3956.0,6324.0,0.629,0.336,0.046,0.7
3861987,3452.0,3996.0,6342.0,0.629,0.336,0.046,0.7
3862003,3452.0,3982.0,6290.0,0.629,0.336,0.046,0.7
3862029,3444.0,4002.0,6306.0,0.629,0.336,0.046,0.7
3862046,3420.0,3992.0,6362.0,0.629,0.336,0.046,0.7
3862062,3380.0,3990.0,6350.0,0.629,0.336,0.046,0.7
3862078,3406.0,3996.0,6316.0,0.629,0.336,0.046,0.7
3862094,3454.0,3990.0,6310.0,0.629,0.336,0.047,0.7
3862111,3412.0,3940.0,6318.0,0.629,0.336,0.047,0.7
3862127,3466.0,4020.0,6322.0,0.629,0.336,0.047,0.7
3862153,3410.0,3996.0,6314.0,0.629,0.336,0.047,0.7
3862170,3446.0,4042.0,6326.0,0.629,0.336,0.047,0.699
3862186,3426.0,4032.0,6322.0,0.629,0.337,0.048,0.699
3862203,3430.0,4016.0,6316.0,0.629,0.337,0.048,0.699
3862219,3422.0,4004.0,6312.0,0.629,0.337,0.048,0.699
3862236,3374.0,4044.0,6272.0,0.629,0.337,0.048,0.699
3862252,3448.0,4038.0,6326.0,0.629,0.337,0.049,0.699
3862278,3376.0,4084.0,6350.0,0.629,0.337,0.049,0.699
3862294,3388.0,4112.0,6272.0,0.629,0.337,0.049,0.699
3862310,3412.0,4036.0,6288.0,0.629,0.337,0.049,0.699
3862326,3352.0,4070.0,6312.0,0.629,0.337,0.05,0.699
3862342,3400.0,4078.0,6320.0,0.629,0.337,0.05,0.699
3862358,3388.0,4162.0,6310.0,0.629,0.337,0.05,0.699
3862384,3336.0,4070.0,6330.0,0.629,0.337,0.05,0.698
3862400,3402.0,4078.0,6320.0,0.629,0.337,0.05,0.698
3862417,3364.0,4050.0,6318.0,0.629,0.337,0.05,0.698
3862434,3372.0,4086.0,6256.0,0.629,0.337,0.05,0.698
3862450,3390.0,4060.0,6252.0,0.63,0.337,0.051,0.698
3862467,3380.0,4130.0,6252.0,0.63,0.337,0.051,0.698
3862483,3350.0,4094.0,6308.0,0.63,0.337,0.051,0.698
3862499,3332.0,4050.0,6266.0,0.63,0.337,0.051,0.698
3862525,3358.0,4052.0,6302.0,0.63,0.337,0.051,0.698
3862541,3348.0,4060.0,6282.0,0.63,0.337,0.051,0.698
3862557,3368.0,4084.0,6294.0,0.63,0.337,0.051,0.698
3862573,3330.0,4110.0,6280.0,0.629,0.337,0.051,0.698
3862589,3310.0,4058.0,6300.0,0.629,0.337,0.05,0.698
3862605,3328.0,4088.0,6306.0,0.629,0.337,0.05,0.698
3862631,3316.0,4070.0,6314.0,0.63,0.337,0.05,0.698
3862647,3314.0,4090.0,6288.0,0.629,0.337,0.05,0.698
3862663,3334.0,4078.0,6294.0,0.629,0.338,0.05,0.698
3862679,3380.0,4080.0,6352.0,0.629,0.338,0.05,0.698
3862695,3422.0,4062.0,6326.0,0.629,0.338,0.049,0.698
3862711,3398.0,4100.0,6252.0,0.629,0.338,0.049,0.698
3862737,3422.0,4116.0,6284.0,0.629,0.338,0.049,0.698
3862753,3408.0,4082.0,6304.0,0.629,0.338,0.049,0.698
3862769,3424.0,4086.0,6296.0,0.629,0.338,0.048,0.698
3862785,3402.0,4080.0,6262.0,0.629,0.338,0.048,0.698
3862801,3414.0,4084.0,6292.0,0.629,0.338,0.048,0.699
3862817,3482.0,4096.0,6284.0,0.629,0.338,0.048,0.699
3862843,3416.0,4040.0,6254.0,0.629,0.338,0.047,0.699
3862859,3436.0,4030.0,6266.0,0.629,0.338,0.047,0.699
3862875,3412.0,4034.0,6310.0,0.629,0.338,0.047,0.699
3862891,3394.0,4016.0,6340.0,0.629,0.338,0.047,0.699
3862907,3430.0,3964.0,6318.0,0.629,0.338,0.046,0.699
3862933,3426.0,3992.0,6284.0,0.629,0.338,0.046,0.699
3862949,3416.0,3952.0,6312.0,0.629,0.338,0.046,0.699
3862965,3406.0,3986.0,6318.0,0.629,0.338,0.046,0.699
3862981,3428.0,4018.0,6324.0,0.628,0.338,0.046,0.699
3862997,3418.0,4020.0,6334.0,0.628,0.338,0.046,0.699
3863013,3466.0,4038.0,6288.0,0.628,0.338,0.046,0.699
3863039,3436.0,4036.0,6292.0,0.628,0.338,0.046,0.699
3863055,3468.0,3972.0,6298.0,0.628,0.338,0.046,0.7
3863072,3438.0,3974.0,6280.0,0.628,0.338,0.046,0.7
3863088,3426.0,4002.0,6246.0,0.628,0.338,0.046,0.7
3863104,3422.0,4016.0,6310.0,0.628,0.338,0.046,0.7
3863121,3538.0,4004.0,6320.0,0.628,0.338,0.046,0.7
3863137,3444.0,4016.0,6298.0,0.628,0.338,0.046,0.7
3863163,3450.0,4038.0,6318.0,0.628,0.338,0.046,0.7
3863180,3432.0,4012.0,6318.0,0.628,0.337,0.046,0.7
3863196,3430.0,4004.0,6370.0,0.628,0.337,0.046,0.7
3863212,3390.0,4036.0,6354.0,0.628,0.337,0.046,0.7
3863228,3446.0,4006.0,6368.0,0.628,0.337,0.047,0.7
3863244,3436.0,4026.0,6352.0,0.628,0.337,0.047,0.7
3863260,3426.0,3992.0,6346.0,0.628,0.337,0.047,0.7
3863286,3382.0,3986.0,6304.0,0.628,0.337,0.048,0.7
3863302,3418.0,4006.0,6260.0,0.628,0.337,0.048,0.7
3863318,3398.0,4062.0,6294.0,0.628,0.337,0.048,0.7
3863334,3422.0,4004.0,6294.0,0.628,0.337,0.049,0.7
3863350,3392.0,4030.0,6302.0,0.628,0.336,0.049,0.7
3863366,3368.0,4038.0,6318.0,0.628,0.336,0.049,0.7
3863392,3372.0,4018.0,6330.0,0.628,0.336,0.05,0.7
3863408,3426.0,4052.0,6334.0,0.628,0.336,0.05,0.7
3863424,3314.0,4078.0,6270.0,0.628,0.336,0.05,0.7
3863440,3384.0,4014.0,6322.0,0.628,0.335,0.051,0.7
3863456,3374.0,4092.0,6336.0,0.628,0.335,0.051,0.7
3863472,3320.0,4098.0,6354.0,0.628,0.335,0.051,0.7
3863498,3282.0,4100.0,6308.0,0.628,0.335,0.052,0.7
3863514,3304.0,4070.0,6360.0,0.628,0.335,0.052,0.7
3863530,3304.0,4116.0,6328.0,0.628,0.335,0.052,0.7
3863546,3346.0,4140.0,6352.0,0.628,0.335,0.052,0.7
3863562,3332.0,4156.0,6288.0,0.628,0.335,0.052,0.7
3863578,3348.0,4082.0,6318.0,0.628,0.335,0.052,0.7
3863605,3330.0,4064.0,6334.0,0.628,0.335,0.052,0.7
3863621,3358.0,4092.0,6284.0,0.628,0.335,0.052,0.7
3863637,3346.0,4128.0,6306.0,0.628,0.335,0.052,0.7
3863653,3384.0,4062.0,6298.0,0.628,0.335,0.052,0.7
3863669,3304.0,4086.0,6350.0,0.628,0.335,0.052,0.7
3863685,3394.0,4056.0,6314.0,0.628,0.335,0.052,0.7
3863711,3318.0,4028.0,6340.0,0.628,0.335,0.052,0.7
3863728,3282.0,4056.0,6312.0,0.628,0.335,0.052,0.7
3863744,3316.0,4030.0,6396.0,0.628,0.335,0.052,0.7
3863760,3354.0,4100.0,6350.0,0.628,0.335,0.052,0.7
3863776,3322.0,4088.0,6308.0,0.628,0.335,0.052,0.7
3863792,3378.0,4062.0,6342.0,0.628,0.335,0.052,0.7
3863818,3376.0,4084.0,6324.0,0.628,0.335,0.052,0.701
3863834,3356.0,4094.0,6338.0,0.628,0.335,0.052,0.701
3863850,3342.0,4132.0,6308.0,0.628,0.335,0.052,0.701
3863866,3312.0,4124.0,6358.0,0.628,0.335,0.051,0.701
3863882,3344.0,4094.0,6330.0,0.628,0.335,0.051,0.701
3863898,3382.0,4034.0,6338.0,0.628,0.335,0.051,0.701
3863924,3362.0,4048.0,6358.0,0.628,0.335,0.051,0.701
3863940,3318.0,4024.0,6328.0,0.628,0.335,0.051,0.701
3863959,3330.0,4046.0,6316.0,0.628,0.335,0.05,0.701
3863975,3352.0,4046.0,6310.0,0.628,0.335,0.05,0.701
3863991,3344.0,4052.0,6298.0,0.628,0.335,0.05,0.701
3864007,3398.0,4042.0,6298.0,0.628,0.335,0.05,0.701
3864023,3402.0,4006.0,6318.0,0.628,0.335,0.049,0.701
3864039,3396.0,3994.0,6334.0,0.627,0.335,0.049,0.701
3864056,3408.0,4010.0,6364.0,0.627,0.335,0.049,0.701
3864082,3412.0,3992.0,6350.0,0.627,0.335,0.049,0.701
3864098,3378.0,3976.0,6400.0,0.627,0.335,0.049,0.701
3864114,3440.0,4014.0,6352.0,0.627,0.335,0.049,0.701
3864130,3390.0,3938.0,6332.0,0.627,0.335,0.049,0.701
3864146,3400.0,3980.0,6308.0,0.627,0.335,0.049,0.701
3864163,3366.0,3954.0,6324.0,0.627,0.335,0.049,0.701
3864180,3418.0,3996.0,6276.0,0.627,0.335,0.049,0.701
3864207,3442.0,3992.0,6312.0,0.627,0.335,0.048,0.701
3864223,3370.0,4008.0,6338.0,0.627,0.335,0.048,0.701
3864239,3384.0,4038.0,6334.0,0.627,0.335,0.048,0.701
3864255,3390.0,4026.0,6374.0,0.627,0.335,0.048,0.701
3864271,3388.0,3982.0,6336.0,0.627,0.335,0.048,0.701
3864287,3406.0,3930.0,6310.0,0.627,0.335,0.048,0.701
3864313,3394.0,3962.0,6344.0,0.627,0.335,0.048,0.701
3864329,3408.0,3996.0,6356.0,0.627,0.335,0.048,0.701
3864345,3378.0,3988.0,6334.0,0.627,0.335,0.048,0.701
3864361,3360.0,3974.0,6344.0,0.628,0.335,0.048,0.701
3864377,3414.0,4026.0,6366.0,0.628,0.335,0.049,0.701
3864393,3348.0,4018.0,6296.0,0.628,0.335,0.049,0.701
3864419,3408.0,3984.0,6278.0,0.628,0.335,0.049,0.701
3864435,3386.0,4006.0,6334.0,0.628,0.335,0.049,0.701
3864451,3372.0,3976.0,6354.0,0.628,0.335,0.049,0.701
3864467,3376.0,3992.0,6364.0,0.628,0.335,0.049,0.701
3864483,3394.0,4030.0,6328.0,0.628,0.335,0.05,0.701
3864499,3392.0,4064.0,6340.0,0.628,0.335,0.05,0.701
3864525,3412.0,4032.0,6342.0,0.628,0.335,0.05,0.701
3864541,3360.0,4040.0,6340.0,0.628,0.335,0.05,0.701
3864557,3366.0,4044.0,6310.0,0.628,0.335,0.051,0.701
3864573,3342.0,4074.0,6302.0,0.628,0.335,0.051,0.701
3864589,3340.0,4084.0,6300.0,0.628,0.335,0.051,0.701
3864605,3332.0,4048.0,6340.0,0.628,0.335,0.052,0.701
3864631,3298.0,4064.0,6288.0,0.628,0.335,0.052,0.701
3864647,3316.0,4050.0,6308.0,0.628,0.335,0.052,0.701
3864663,3322.0,4060.0,6348.0,0.628,0.335,0.052,0.701
3864679,3284.0,4114.0,6316.0,0.628,0.335,0.052,0.701
3864695,3298.0,4098.0,6292.0,0.628,0.335,0.053,0.701
3864711,3284.0,4086.0,6348.0,0.628,0.335,0.053,0.701
3864737,3302.0,4096.0,6348.0,0.628,0.335,0.053,0.701
3864753,3340.0,4068.0,6362.0,0.628,0.335,0.053,0.701
3864769,3316.0,4064.0,6286.0,0.628,0.335,0.053,0.701
3864785,3292.0,4066.0,6328.0,0.628,0.335,0.053,0.701
3864801,3314.0,4090.0,6342.0,0.628,0.335,0.053,0.701
3864817,3322.0,4098.0,6344.0,0.628,0.335,0.053,0.701
3864843,3350.0,4090.0,6304.0,0.628,0.335,0.053,0.701
3864859,3322.0,4076.0,6330.0,0.628,0.335,0.053,0.701
3864875,3352.0,4104.0,6298.0,0.628,0.335,0.053,0.701
3864891,3348.0,4054.0,6322.0,0.628,0.335,0.053,0.701
3864907,3300.0,4068.0,6324.0,0.628,0.335,0.052,0.701
3864933,3300.0,4034.0,6346.0,0.628,0.335,0.052,0.701
3864949,3282.0,4078.0,6320.0,0.628,0.335,0.052,0.701
3864965,3320.0,4096.0,6410.0,0.628,0.335,0.052,0.701
3864981,3374.0,4072.0,6342.0,0.628,0.335,0.051,0.701
3864997,3340.0,4052.0,6308.0,0.628,0.335,0.051,0.701
3865013,3396.0,4052.0,6310.0,0.627,0.335,0.051,0.701
3865030,3386.0,4094.0,6290.0,0.627,0.335,0.051,0.701
3865057,3334.0,4042.0,6262.0,0.627,0.335,0.05,0.701
3865073,3356.0,4094.0,6284.0,0.627,0.336,0.05,0.701
3865089,3350.0,4066.0,6314.0,0.628,0.336,0.05,0.701
3865105,3368.0,4004.0,6330.0,0.627,0.336,0.049,0.701
3865121,3352.0,3998.0,6324.0,0.627,0.336,0.049,0.701
3865137,3384.0,4052.0,6364.0,0.627,0.336,0.048,0.701
3865163,3368.0,4026.0,6338.0,0.627,0.336,0.048,0.701
3865180,3380.0,4046.0,6314.0,0.627,0.336,0.047,0.701
3865196,3376.0,4022.0,6268.0,0.627,0.336,0.047,0.701
3865212,3386.0,4030.0,6332.0,0.627,0.337,0.047,0.701
3865228,3406.0,3970.0,6318.0,0.627,0.337,0.046,0.701
3865244,3386.0,3990.0,6330.0,0.627,0.337,0.046,0.701
3865260,3478.0,4014.0,6348.0,0.627,0.337,0.045,0.701
3865286,3434.0,4012.0,6318.0,0.627,0.337,0.045,0.701
3865302,3478.0,4030.0,6344.0,0.627,0.337,0.045,0.701
3865318,3462.0,3962.0,6330.0,0.627,0.338,0.044,0.701
3865334,3438.0,3978.0,6294.0,0.626,0.338,0.044,0.701
3865350,3472.0,3982.0,6304.0,0.626,0.338,0.044,0.701
3865366,3472.0,3982.0,6290.0,0.626,0.338,0.043,0.701
3865392,3496.0,3956.0,6354.0,0.626,0.338,0.043,0.701
3865408,3494.0,3980.0,6296.0,0.626,0.338,0.043,0.701
3865424,3482.0,3960.0,6290.0,0.626,0.338,0.043,0.701
3865440,3490.0,3960.0,6334.0,0.627,0.338,0.043,0.701
3865456,3512.0,3950.0,6364.0,0.627,0.338,0.043,0.701
3865473,3464.0,3978.0,6314.0,0.627,0.338,0.043,0.701
3865499,3516.0,3968.0,6294.0,0.627,0.338,0.043,0.701
3865515,3478.0,3978.0,6326.0,0.627,0.338,0.043,0.701
3865531,3502.0,3980.0,6324.0,0.627,0.338,0.043,0.701
3865547,3516.0,3992.0,6304.0,0.626,0.338,0.043,0.701
3865563,3490.0,3936.0,6298.0,0.626,0.338,0.043,0.701
3865579,3502.0,3994.0,6326.0,0.626,0.338,0.044,0.701
3865605,3486.0,4018.0,6280.0,0.626,0.338,0.044,0.701
3865621,3460.0,4008.0,6296.0,0.626,0.338,0.044,0.701
3865637,3450.0,4016.0,6314.0,0.627,0.338,0.045,0.701
3865653,3422.0,4014.0,6312.0,0.627,0.338,0.045,0.701
3865669,3402.0,4016.0,6294.0,0.627,0.338,0.045,0.701
3865685,3458.0,4008.0,6290.0,0.627,0.338,0.046,0.7
3865702,3454.0,4010.0,6292.0,0.627,0.338,0.046,0.7
3865728,3462.0,4014.0,6374.0,0.627,0.338,0.046,0.7
3865744,3422.0,4022.0,6298.0,0.627,0.338,0.047,0.7
3865760,3450.0,4050.0,6288.0,0.627,0.338,0.047,0.7
3865776,3432.0,4008.0,6274.0,0.627,0.338,0.047,0.7
3865792,3422.0,4046.0,6350.0,0.627,0.338,0.048,0.7
3865818,3426.0,4002.0,6318.0,0.627,0.338,0.048,0.7
3865834,3450.0,4072.0,6308.0,0.627,0.338,0.048,0.7
3865850,3440.0,4048.0,6360.0,0.627,0.338,0.048,0.7
3865866,3398.0,4046.0,6342.0,0.627,0.338,0.049,0.7
3865883,3444.0,4044.0,6306.0,0.627,0.338,0.049,0.7
3865899,3450.0,4060.0,6274.0,0.627,0.338,0.049,0.7
3865915,3414.0,4062.0,6264.0,0.628,0.338,0.049,0.7
3865941,3378.0,4064.0,6298.0,0.628,0.338,0.049,0.7
3865957,3382.0,4072.0,6266.0,0.628,0.338,0.05,0.7
3865973,3396.0,4038.0,6266.0,0.628,0.338,0.05,0.7
3865989,3336.0,4068.0,6268.0,0.628,0.338,0.05,0.7
3866005,3318.0,4100.0,6328.0,0.627,0.338,0.05,0.7
3866021,3372.0,4098.0,6318.0,0.627,0.338,0.05,0.7
3866047,3342.0,4090.0,6284.0,0.627,0.338,0.05,0.7
3866066,3364.0,4086.0,6260.0,0.627,0.338,0.05,0.7
3866082,3354.0,4122.0,6294.0,0.627,0.338,0.05,0.7
3866098,3328.0,4136.0,6306.0,0.627,0.338,0.05,0.7
3866114,3318.0,4092.0,6312.0,0.627,0.338,0.049,0.7
3866130,3370.0,4120.0,6288.0,0.627,0.338,0.049,0.7
3866146,3460.0,4010.0,6306.0,0.627,0.338,0.049,0.7
3866172,3378.0,4056.0,6358.0,0.627,0.338,0.048,0.7
3866188,3392.0,4038.0,6300.0,0.627,0.338,0.048,0.7
3866204,3416.0,4006.0,6298.0,0.627,0.338,0.048,0.7
3866220,3448.0,4010.0,6282.0,0.627,0.338,0.048,0.7
3866236,3432.0,4012.0,6274.0,0.627,0.338,0.048,0.7
3866252,3414.0,4044.0,6320.0,0.627,0.338,0.048,0.7
3866278,3414.0,4062.0,6328.0,0.627,0.338,0.048,0.7
3866294,3412.0,4038.0,6316.0,0.627,0.339,0.048,0.7
3866310,3462.0,4042.0,6302.0,0.627,0.339,0.047,0.7
3866327,3408.0,4040.0,6258.0,0.627,0.339,0.047,0.7
3866343,3392.0,4034.0,6286.0,0.626,0.339,0.047,0.7
3866359,3424.0,4066.0,6296.0,0.626,0.339,0.047,0.701
3866375,3430.0,4030.0,6300.0,0.626,0.339,0.047,0.701
3866401,3426.0,4076.0,6294.0,0.626,0.338,0.047,0.701
3866417,3406.0,4054.0,6296.0,0.626,0.338,0.047,0.701
3866433,3412.0,4058.0,6334.0,0.626,0.338,0.047,0.701
3866450,3398.0,4080.0,6272.0,0.626,0.338,0.047,0.701
3866466,3378.0,4068.0,6288.0,0.626,0.338,0.047,0.701
3866482,3406.0,4068.0,6286.0,0.626,0.338,0.047,0.701
3866508,3440.0,4018.0,6318.0,0.626,0.338,0.047,0.701
3866524,3440.0,4014.0,6296.0,0.626,0.338,0.046,0.701
3866540,3452.0,3960.0,6296.0,0.627,0.337,0.046,0.701
3866556,3448.0,3920.0,6346.0,0.627,0.337,0.046,0.701
3866572,3468.0,3922.0,6322.0,0.627,0.337,0.046,0.701
3866588,3484.0,3886.0,6372.0,0.627,0.337,0.046,0.701
3866614,3480.0,3848.0,6338.0,0.627,0.336,0.046,0.701
3866630,3498.0,3884.0,6368.0,0.627,0.336,0.046,0.701
3866646,3448.0,3874.0,6378.0,0.627,0.336,0.046,0.701
3866663,3444.0,3980.0,6378.0,0.627,0.336,0.047,0.701
3866680,3406.0,3956.0,6382.0,0.627,0.336,0.047,0.701
3866696,3388.0,4004.0,6382.0,0.627,0.337,0.048,0.701
3866712,3402.0,4010.0,6346.0,0.627,0.337,0.048,0.701
3866729,3420.0,4062.0,6300.0,0.627,0.337,0.049,0.701
3866756,3336.0,4074.0,6238.0,0.627,0.337,0.05,0.701
3866772,3330.0,4114.0,6222.0,0.626,0.337,0.05,0.701
3866788,3304.0,4140.0,6290.0,0.626,0.337,0.051,0.701
3866804,3364.0,4176.0,6256.0,0.626,0.337,0.051,0.701
3866820,3314.0,4118.0,6310.0,0.626,0.337,0.051,0.701
3866836,3334.0,4138.0,6294.0,0.627,0.337,0.052,0.701
3866862,3358.0,4130.0,6338.0,0.627,0.336,0.052,0.701
3866878,3340.0,4072.0,6318.0,0.627,0.336,0.052,0.701
3866894,3354.0,4060.0,6350.0,0.627,0.336,0.052,0.701
3866910,3328.0,4062.0,6362.0,0.627,0.336,0.052,0.701
3866926,3282.0,4058.0,6358.0,0.627,0.335,0.052,0.701
3866942,3336.0,4044.0,6346.0,0.627,0.335,0.052,0.701
3866968,3284.0,4000.0,6358.0,0.627,0.335,0.052,0.701
3866984,3344.0,4022.0,6354.0,0.627,0.335,0.052,0.701
3867000,3350.0,4066.0,6338.0,0.627,0.335,0.052,0.701
3867016,3338.0,4068.0,6348.0,0.627,0.335,0.052,0.701
3867032,3362.0,4066.0,6312.0,0.627,0.335,0.053,0.701
3867048,3368.0,4042.0,6304.0,0.627,0.335,0.052,0.701
3867074,3372.0,4092.0,6354.0,0.627,0.335,0.052,0.701
3867090,3364.0,4066.0,6366.0,0.627,0.335,0.052,0.701
3867106,3360.0,4100.0,6344.0,0.627,0.335,0.052,0.701
3867122,3338.0,4102.0,6302.0,0.627,0.335,0.052,0.701
3867138,3342.0,4094.0,6352.0,0.627,0.335,0.053,0.701
3867154,3334.0,4080.0,6294.0,0.627,0.335,0.053,0.701
3867180,3326.0,4080.0,6266.0,0.627,0.335,0.053,0.701
3867196,3284.0,4116.0,6334.0,0.627,0.335,0.053,0.701
3867212,3312.0,4126.0,6320.0,0.627,0.335,0.053,0.701
3867228,3318.0,4106.0,6342.0,0.627,0.335,0.053,0.701
3867244,3280.0,4148.0,6302.0,0.627,0.336,0.053,0.701
3867260,3268.0,4126.0,6332.0,0.627,0.336,0.053,0.701
3867286,3376.0,4126.0,6340.0,0.627,0.336,0.053,0.701
3867302,3384.0,4158.0,6324.0,0.627,0.336,0.052,0.701
3867318,3348.0,4044.0,6312.0,0.627,0.335,0.052,0.701
3867334,3338.0,4070.0,6302.0,0.627,0.335,0.052,0.701
3867350,3344.0,4118.0,6308.0,0.627,0.335,0.052,0.701
3867366,3344.0,4048.0,6342.0,0.627,0.335,0.051,0.701
3867392,3384.0,4022.0,6348.0,0.627,0.335,0.051,0.701
3867408,3414.0,4042.0,6350.0,0.627,0.335,0.051,0.701
3867424,3368.0,4016.0,6338.0,0.627,0.335,0.051,0.701
3867440,3370.0,4058.0,6350.0,0.627,0.335,0.051,0.701
3867456,3340.0,3968.0,6342.0,0.627,0.335,0.05,0.701
3867472,3380.0,4018.0,6332.0,0.627,0.335,0.05,0.701
3867498,3380.0,3988.0,6364.0,0.628,0.335,0.05,0.701
3867514,3436.0,3998.0,6348.0,0.628,0.335,0.05,0.701
3867530,3384.0,4002.0,6348.0,0.627,0.335,0.05,0.701
3867546,3392.0,3974.0,6324.0,0.627,0.335,0.05,0.701
3867562,3376.0,4032.0,6294.0,0.627,0.336,0.05,0.701
3867588,3414.0,4034.0,6372.0,0.627,0.336,0.05,0.701
3867604,3364.0,4048.0,6326.0,0.627,0.336,0.05,0.701
3867620,3360.0,3996.0,6286.0,0.627,0.336,0.05,0.701
3867636,3362.0,4088.0,6290.0,0.627,0.336,0.05,0.701
3867652,3326.0,4026.0,6302.0,0.627,0.336,0.05,0.701
3867668,3344.0,4056.0,6322.0,0.627,0.335,0.05,0.701
3867694,3330.0,4104.0,6352.0,0.627,0.335,0.05,0.701
3867710,3352.0,4066.0,6356.0,0.627,0.335,0.05,0.701
3867726,3334.0,4074.0,6306.0,0.628,0.335,0.051,0.701
3867742,3326.0,4068.0,6326.0,0.628,0.335,0.051,0.701
3867758,3310.0,4056.0,6314.0,0.628,0.335,0.051,0.701
3867774,3356.0,4062.0,6324.0,0.628,0.335,0.051,0.701
3867800,3276.0,3980.0,6360.0,0.628,0.335,0.051,0.701
3867816,3346.0,3996.0,6362.0,0.628,0.335,0.051,0.701
3867832,3340.0,3990.0,6356.0,0.628,0.335,0.051,0.701
3867848,3420.0,4040.0,6390.0,0.628,0.335,0.051,0.701
3867864,3392.0,4022.0,6348.0,0.628,0.335,0.051,0.701
3867880,3336.0,4016.0,6338.0,0.628,0.335,0.051,0.701
3867906,3384.0,4016.0,6300.0,0.628,0.335,0.051,0.701
3867922,3368.0,4074.0,6366.0,0.628,0.335,0.051,0.701
3867938,3344.0,3992.0,6344.0,0.628,0.335,0.051,0.701
3867954,3388.0,4050.0,6356.0,0.628,0.335,0.051,0.701
3867970,3330.0,4028.0,6320.0,0.627,0.335,0.051,0.701
3867986,3382.0,4072.0,6334.0,0.627,0.335,0.052,0.701
3868012,3318.0,4072.0,6350.0,0.627,0.335,0.052,0.701
3868028,3310.0,4052.0,6310.0,0.627,0.335,0.052,0.701
3868044,3354.0,4064.0,6314.0,0.627,0.335,0.052,0.701
3868060,3322.0,4098.0,6340.0,0.627,0.335,0.052,0.701
3868076,3312.0,4110.0,6352.0,0.627,0.335,0.052,0.701
3868092,3294.0,4118.0,6314.0,0.627,0.335,0.052,0.701
3868118,3294.0,4128.0,6294.0,0.627,0.335,0.052,0.701
3868134,3306.0,4118.0,6358.0,0.627,0.335,0.052,0.701
3868150,3348.0,4074.0,6342.0,0.627,0.335,0.052,0.701
3868166,3320.0,4028.0,6304.0,0.627,0.335,0.052,0.701
3868182,3336.0,4070.0,6300.0,0.627,0.335,0.052,0.701
3868198,3390.0,4050.0,6332.0,0.627,0.335,0.052,0.701
3868224,3314.0,4044.0,6354.0,0.627,0.335,0.052,0.701
3868241,3330.0,4038.0,6322.0,0.627,0.335,0.051,0.701
3868257,3318.0,4054.0,6312.0,0.627,0.335,0.051,0.701
3868273,3320.0,4058.0,6362.0,0.628,0.335,0.051,0.701
3868289,3332.0,4078.0,6308.0,0.627,0.335,0.051,0.701
3868305,3362.0,4072.0,6318.0,0.627,0.335,0.051,0.701
3868331,3422.0,4106.0,6362.0,0.627,0.336,0.051,0.701
3868347,3352.0,4094.0,6368.0,0.627,0.336,0.051,0.701
3868363,3326.0,4108.0,6386.0,0.627,0.336,0.051,0.701
3868379,3328.0,4046.0,6362.0,0.627,0.336,0.05,0.701
3868396,3410.0,4066.0,6296.0,0.627,0.336,0.05,0.701
3868412,3394.0,4034.0,6316.0,0.627,0.336,0.05,0.701
3868428,3346.0,4082.0,6280.0,0.627,0.336,0.05,0.701
3868454,3396.0,4026.0,6268.0,0.627,0.336,0.05,0.701
3868470,3366.0,4106.0,6300.0,0.627,0.336,0.05,0.701
3868486,3386.0,4090.0,6336.0,0.627,0.336,0.05,0.701
3868502,3382.0,4070.0,6336.0,0.627,0.336,0.05,0.701
3868518,3344.0,4006.0,6312.0,0.627,0.336,0.05,0.701
3868534,3388.0,4042.0,6304.0,0.627,0.336,0.05,0.701
3868561,3392.0,4050.0,6356.0,0.627,0.336,0.05,0.701
3868577,3352.0,4034.0,6320.0,0.627,0.336,0.049,0.701
3868593,3338.0,4048.0,6304.0,0.627,0.336,0.049,0.701
3868609,3382.0,4016.0,6312.0,0.627,0.336,0.049,0.701
3868625,3336.0,3954.0,6378.0,0.627,0.336,0.049,0.701
3868641,3370.0,4048.0,6346.0,0.627,0.336,0.049,0.701
3868667,3336.0,4014.0,6324.0,0.627,0.337,0.049,0.701
3868683,3392.0,4052.0,6308.0,0.627,0.337,0.049,0.701
3868699,3380.0,4058.0,6302.0,0.627,0.337,0.049,0.701
3868715,3374.0,4034.0,6308.0,0.627,0.337,0.049,0.701
3868731,3406.0,4050.0,6328.0,0.627,0.337,0.049,0.7
3868747,3376.0,4042.0,6294.0,0.627,0.337,0.049,0.7
3868773,3396.0,4042.0,6310.0,0.627,0.337,0.049,0.7
3868789,3400.0,4084.0,6330.0,0.627,0.338,0.049,0.7
3868805,3408.0,4060.0,6248.0,0.627,0.338,0.049,0.7
3868821,3422.0,4064.0,6296.0,0.627,0.338,0.049,0.7
3868837,3416.0,4030.0,6310.0,0.627,0.338,0.049,0.7
3868853,3380.0,4038.0,6298.0,0.627,0.338,0.049,0.7
3868879,3414.0,4050.0,6322.0,0.627,0.338,0.049,0.7
3868895,3340.0,4086.0,6280.0,0.627,0.338,0.049,0.7
3868911,3394.0,4038.0,6316.0,0.627,0.338,0.049,0.7
3868927,3390.0,4042.0,6340.0,0.627,0.338,0.049,0.7
3868943,3350.0,4040.0,6276.0,0.627,0.338,0.049,0.7
3868959,3364.0,4052.0,6256.0,0.627,0.338,0.049,0.7
3868985,3430.0,4068.0,6332.0,0.627,0.338,0.049,0.7
3869001,3400.0,4064.0,6306.0,0.627,0.338,0.049,0.7
3869017,3356.0,4020.0,6302.0,0.627,0.338,0.049,0.7
3869033,3392.0,4066.0,6316.0,0.627,0.338,0.049,0.7
3869049,3384.0,4016.0,6308.0,0.627,0.338,0.049,0.7
3869065,3418.0,4042.0,6304.0,0.627,0.338,0.049,0.7
3869092,3418.0,4074.0,6266.0,0.627,0.338,0.048,0.7
3869108,3416.0,4056.0,6258.0,0.627,0.338,0.048,0.7
3869124,3408.0,4044.0,6274.0,0.627,0.339,0.048,0.7
3869140,3406.0,4026.0,6276.0,0.627,0.339,0.048,0.7
3869156,3396.0,4058.0,6296.0,0.627,0.339,0.048,0.7
3869172,3456.0,4032.0,6294.0,0.627,0.339,0.048,0.7
3869198,3420.0,4034.0,6346.0,0.627,0.339,0.048,0.7
3869214,3424.0,4052.0,6348.0,0.627,0.339,0.048,0.7
3869230,3456.0,4036.0,6304.0,0.627,0.339,0.048,0.7
3869246,3462.0,4044.0,6336.0,0.627,0.339,0.048,0.7
3869262,3446.0,4022.0,6320.0,0.627,0.339,0.048,0.7
3869279,3436.0,4036.0,6268.0,0.626,0.339,0.048,0.7
3869305,3376.0,4060.0,6240.0,0.626,0.339,0.048,0.7
3869321,3432.0,4024.0,6294.0,0.626,0.339,0.048,0.7
3869338,3480.0,4008.0,6288.0,0.626,0.339,0.048,0.7
3869354,3474.0,4088.0,6288.0,0.626,0.339,0.048,0.7
3869370,3422.0,4002.0,6276.0,0.626,0.339,0.048,0.7
3869386,3418.0,4060.0,6306.0,0.626,0.339,0.048,0.701
3869402,3440.0,4080.0,6308.0,0.626,0.339,0.048,0.701
3869428,3418.0,4074.0,6294.0,0.626,0.338,0.048,0.701
3869444,3390.0,4036.0,6254.0,0.626,0.338,0.048,0.701
3869460,3388.0,4032.0,6316.0,0.626,0.338,0.048,0.701
3869476,3366.0,4002.0,6338.0,0.627,0.338,0.049,0.701
3869492,3366.0,4024.0,6336.0,0.627,0.338,0.049,0.701
3869508,3402.0,4052.0,6318.0,0.627,0.338,0.049,0.701
3869534,3398.0,4012.0,6328.0,0.627,0.338,0.049,0.701
3869550,3432.0,4044.0,6346.0,0.627,0.338,0.049,0.701
3869566,3416.0,4034.0,6310.0,0.627,0.338,0.049,0.701
3869582,3390.0,4010.0,6268.0,0.627,0.337,0.049,0.701
3869598,3410.0,4028.0,6322.0,0.627,0.337,0.05,0.701
3869614,3448.0,4050.0,6312.0,0.627,0.337,0.05,0.701
3869640,3356.0,4038.0,6324.0,0.627,0.337,0.05,0.701
3869656,3372.0,4062.0,6306.0,0.627,0.337,0.05,0.701
3869672,3374.0,4084.0,6290.0,0.627,0.337,0.051,0.701
3869688,3342.0,4122.0,6352.0,0.627,0.337,0.051,0.701
3869704,3344.0,4090.0,6322.0,0.627,0.337,0.051,0.701
3869720,3384.0,4094.0,6288.0,0.627,0.337,0.051,0.701
3869746,3376.0,4086.0,6292.0,0.627,0.337,0.052,0.701
3869762,3338.0,4060.0,6292.0,0.627,0.337,0.052,0.701
3869778,3354.0,4066.0,6314.0,0.627,0.337,0.052,0.701
3869794,3366.0,4060.0,6292.0,0.627,0.336,0.052,0.701
3869810,3302.0,4054.0,6294.0,0.627,0.336,0.052,0.701
3869836,3376.0,4102.0,6344.0,0.627,0.336,0.052,0.701
3869852,3360.0,4052.0,6360.0,0.627,0.336,0.052,0.701
3869868,3354.0,4052.0,6294.0,0.627,0.336,0.052,0.701
3869884,3334.0,4030.0,6320.0,0.627,0.336,0.052,0.701
3869900,3328.0,4080.0,6356.0,0.627,0.336,0.052,0.701
3869916,3300.0,4064.0,6300.0,0.627,0.336,0.052,0.701
3869942,3314.0,4060.0,6322.0,0.627,0.336,0.052,0.701
3869958,3280.0,4102.0,6330.0,0.627,0.336,0.052,0.701
3869975,3326.0,4068.0,6364.0,0.627,0.336,0.052,0.701
3869991,3318.0,4106.0,6358.0,0.627,0.336,0.052,0.701
3870007,3312.0,4114.0,6388.0,0.627,0.336,0.052,0.701
3870024,3362.0,4022.0,6332.0,0.627,0.336,0.052,0.701
3870040,3340.0,4044.0,6318.0,0.627,0.336,0.052,0.701
3870057,3374.0,4074.0,6298.0,0.627,0.336,0.052,0.701
3870074,3404.0,4064.0,6270.0,0.627,0.336,0.052,0.701
3870100,3374.0,4070.0,6280.0,0.627,0.336,0.052,0.701
3870116,3348.0,4052.0,6274.0,0.627,0.336,0.052,0.701
3870132,3332.0,4048.0,6314.0,0.627,0.336,0.052,0.701
3870148,3308.0,4064.0,6246.0,0.627,0.336,0.052,0.701
3870164,3358.0,4064.0,6348.0,0.627,0.336,0.051,0.701
3870190,3354.0,4042.0,6356.0,0.627,0.335,0.051,0.701
3870206,3354.0,4014.0,6312.0,0.627,0.335,0.051,0.702
3870222,3322.0,4038.0,6290.0,0.627,0.335,0.051,0.702
3870238,3340.0,4010.0,6318.0,0.627,0.335,0.051,0.701
3870254,3348.0,4020.0,6346.0,0.627,0.335,0.051,0.701
3870270,3300.0,4032.0,6334.0,0.627,0.335,0.051,0.701
3870296,3326.0,4058.0,6360.0,0.627,0.335,0.051,0.701
3870312,3364.0,4014.0,6354.0,0.627,0.335,0.051,0.701
3870329,3376.0,4000.0,6338.0,0.627,0.335,0.051,0.701
3870345,3364.0,4058.0,6326.0,0.627,0.335,0.051,0.701
3870361,3402.0,4016.0,6350.0,0.627,0.335,0.051,0.701
3870377,3346.0,4082.0,6318.0,0.627,0.335,0.051,0.701
3870394,3394.0,4074.0,6320.0,0.627,0.335,0.051,0.701
3870411,3400.0,4014.0,6318.0,0.627,0.335,0.051,0.701
3870437,3388.0,4086.0,6320.0,0.627,0.335,0.051,0.701
3870453,3376.0,4070.0,6310.0,0.627,0.335,0.051,0.701
3870469,3356.0,4030.0,6294.0,0.627,0.335,0.051,0.701
3870485,3382.0,4038.0,6300.0,0.627,0.335,0.051,0.701
3870501,3296.0,4002.0,6316.0,0.627,0.335,0.051,0.701
3870517,3340.0,4112.0,6334.0,0.627,0.335,0.051,0.701
3870543,3342.0,4046.0,6318.0,0.627,0.335,0.051,0.701
3870560,3328.0,4066.0,6344.0,0.627,0.335,0.051,0.701
3870577,3364.0,4028.0,6306.0,0.627,0.335,0.051,0.701
3870594,3344.0,4078.0,6358.0,0.627,0.335,0.051,0.701
3870611,3380.0,4036.0,6332.0,0.627,0.335,0.051,0.701
3870628,3330.0,4060.0,6346.0,0.627,0.335,0.051,0.701
3870645,3366.0,4038.0,6306.0,0.627,0.335,0.051,0.701
3870662,3366.0,4026.0,6312.0,0.627,0.335,0.051,0.701
3870678,3346.0,4014.0,6330.0,0.627,0.335,0.051,0.701
3870695,3328.0,4030.0,6348.0,0.627,0.335,0.051,0.701
3870712,3422.0,4054.0,6360.0,0.627,0.335,0.051,0.701
3870738,3364.0,4042.0,6288.0,0.627,0.335,0.052,0.701
3870754,3394.0,4054.0,6326.0,0.627,0.335,0.052,0.701
3870770,3332.0,4064.0,6326.0,0.627,0.335,0.052,0.701
3870786,3378.0,4056.0,6310.0,0.627,0.335,0.052,0.701
3870803,3352.0,4094.0,6356.0,0.627,0.335,0.052,0.701
3870819,3298.0,4084.0,6360.0,0.627,0.335,0.052,0.701
3870835,3396.0,4096.0,6360.0,0.627,0.335,0.052,0.701
3870862,3366.0,4076.0,6312.0,0.627,0.335,0.052,0.701
3870878,3350.0,4094.0,6304.0,0.627,0.335,0.052,0.701
3870894,3312.0,4048.0,6324.0,0.627,0.335,0.052,0.701
3870911,3264.0,4074.0,6284.0,0.627,0.335,0.052,0.701
3870928,3308.0,4094.0,6294.0,0.627,0.335,0.052,0.701
3870945,3334.0,4062.0,6344.0,0.627,0.335,0.052,0.701
3870961,3344.0,4078.0,6306.0,0.627,0.335,0.052,0.701
3870978,3332.0,4056.0,6328.0,0.627,0.335,0.052,0.701
3871004,3306.0,4030.0,6296.0,0.627,0.335,0.052,0.701
3871020,3330.0,4052.0,6304.0,0.627,0.335,0.052,0.702
3871036,3336.0,4040.0,6350.0,0.627,0.335,0.052,0.702
3871052,3310.0,3986.0,6330.0,0.627,0.335,0.052,0.702
3871068,3332.0,4048.0,6304.0,0.627,0.335,0.052,0.702
3871084,3332.0,4016.0,6354.0,0.627,0.335,0.052,0.701
3871110,3326.0,4028.0,6352.0,0.627,0.335,0.052,0.701
3871127,3350.0,4066.0,6384.0,0.627,0.335,0.052,0.701
3871143,3328.0,4062.0,6340.0,0.627,0.335,0.052,0.701
3871159,3390.0,4036.0,6326.0,0.627,0.335,0.051,0.701
3871175,3332.0,4086.0,6362.0,0.627,0.335,0.051,0.701
3871191,3366.0,4026.0,6282.0,0.627,0.335,0.051,0.701
3871207,3364.0,4046.0,6312.0,0.627,0.335,0.051,0.701
3871233,3380.0,4070.0,6344.0,0.627,0.335,0.051,0.701
3871249,3370.0,4078.0,6342.0,0.627,0.335,0.051,0.701
3871265,3384.0,4034.0,6324.0,0.627,0.335,0.051,0.701
3871281,3384.0,4026.0,6322.0,0.627,0.335,0.052,0.701
3871297,3352.0,4082.0,6306.0,0.627,0.335,0.052,0.702
3871313,3336.0,4002.0,6344.0,0.627,0.335,0.052,0.702
3871340,3360.0,4076.0,6326.0,0.627,0.335,0.052,0.702
3871356,3340.0,4086.0,6296.0,0.627,0.335,0.052,0.702
3871372,3302.0,4046.0,6316.0,0.627,0.335,0.052,0.702
3871388,3320.0,4046.0,6316.0,0.627,0.335,0.052,0.702
3871404,3368.0,4082.0,6338.0,0.627,0.335,0.052,0.701
3871420,3362.0,4008.0,6328.0,0.627,0.335,0.052,0.701
3871446,3340.0,4078.0,6310.0,0.627,0.335,0.051,0.701
3871462,3308.0,4062.0,6288.0,0.627,0.335,0.051,0.701
3871478,3376.0,4048.0,6300.0,0.627,0.335,0.051,0.701
3871494,3372.0,4032.0,6310.0,0.627,0.335,0.051,0.701
3871510,3342.0,4050.0,6346.0,0.627,0.335,0.051,0.701
3871526,3342.0,4034.0,6336.0,0.627,0.335,0.051,0.701
3871552,3366.0,4034.0,6360.0,0.627,0.335,0.051,0.701
3871568,3358.0,4034.0,6342.0,0.627,0.335,0.051,0.701
3871584,3350.0,4000.0,6334.0,0.627,0.335,0.051,0.701
3871600,3374.0,4056.0,6380.0,0.627,0.336,0.051,0.701
3871616,3412.0,4034.0,6334.0,0.627,0.336,0.051,0.701
3871632,3344.0,4116.0,6326.0,0.627,0.336,0.051,0.701
3871658,3310.0,4118.0,6388.0,0.627,0.336,0.051,0.701
3871674,3364.0,4104.0,6350.0,0.627,0.336,0.051,0.701
3871690,3394.0,4074.0,6314.0,0.627,0.336,0.051,0.701
3871706,3416.0,4048.0,6248.0,0.627,0.336,0.051,0.701
3871723,3396.0,4062.0,6310.0,0.627,0.336,0.051,0.701
3871739,3402.0,4056.0,6280.0,0.627,0.336,0.051,0.701
3871765,3368.0,4098.0,6270.0,0.627,0.336,0.05,0.701
3871781,3382.0,4072.0,6278.0,0.627,0.336,0.05,0.701
3871797,3336.0,4014.0,6326.0,0.627,0.336,0.05,0.701
3871813,3356.0,4062.0,6330.0,0.627,0.336,0.05,0.701
3871829,3368.0,4030.0,6306.0,0.627,0.336,0.05,0.701
3871846,3426.0,4008.0,6338.0,0.627,0.336,0.05,0.701
3871862,3350.0,3976.0,6318.0,0.627,0.336,0.05,0.701
3871888,3386.0,4030.0,6296.0,0.627,0.336,0.05,0.701
3871905,3366.0,4020.0,6314.0,0.627,0.337,0.05,0.701
3871921,3382.0,3990.0,6294.0,0.627,0.337,0.049,0.701
3871937,3368.0,4036.0,6356.0,0.627,0.337,0.049,0.701
3871953,3374.0,4026.0,6372.0,0.627,0.337,0.049,0.701
3871969,3408.0,4064.0,6298.0,0.627,0.337,0.049,0.701
3871995,3422.0,4030.0,6288.0,0.627,0.337,0.049,0.701
3872011,3418.0,4034.0,6290.0,0.627,0.337,0.049,0.701
3872028,3370.0,4018.0,6338.0,0.627,0.337,0.049,0.701
3872044,3400.0,4046.0,6300.0,0.627,0.338,0.049,0.701
3872060,3384.0,4036.0,6274.0,0.627,0.338,0.049,0.701
3872077,3420.0,4058.0,6264.0,0.627,0.338,0.049,0.701
3872094,3380.0,4056.0,6314.0,0.627,0.338,0.049,0.701
3872111,3400.0,4068.0,6308.0,0.627,0.338,0.049,0.7
3872129,3432.0,4024.0,6258.0,0.627,0.338,0.049,0.7
3872146,3358.0,4054.0,6308.0,0.627,0.338,0.049,0.7
3872172,3400.0,4052.0,6310.0,0.627,0.338,0.048,0.7
3872188,3430.0,4028.0,6292.0,0.627,0.338,0.048,0.7
3872204,3448.0,4044.0,6298.0,0.627,0.338,0.048,0.7
3872220,3426.0,4056.0,6310.0,0.627,0.338,0.048,0.7
3872238,3430.0,4052.0,6330.0,0.627,0.338,0.048,0.7
3872254,3422.0,4062.0,6284.0,0.627,0.338,0.048,0.7
3872270,3416.0,4052.0,6282.0,0.627,0.338,0.048,0.7
3872296,3422.0,4048.0,6294.0,0.627,0.338,0.048,0.7
3872313,3396.0,3984.0,6306.0,0.627,0.338,0.048,0.7
3872330,3438.0,4072.0,6274.0,0.627,0.338,0.048,0.7
3872348,3456.0,4068.0,6272.0,0.627,0.338,0.048,0.7
3872365,3382.0,4066.0,6292.0,0.627,0.338,0.048,0.7
3872382,3456.0,4104.0,6284.0,0.627,0.338,0.048,0.7
3872399,3398.0,4080.0,6260.0,0.627,0.338,0.048,0.7
3872415,3442.0,4040.0,6318.0,0.627,0.338,0.048,0.701
3872431,3446.0,4052.0,6282.0,0.627,0.338,0.048,0.701
3872448,3422.0,4030.0,6342.0,0.627,0.338,0.048,0.7
3872464,3396.0,4024.0,6308.0,0.627,0.338,0.048,0.701
3872490,3490.0,3996.0,6300.0,0.627,0.338,0.048,0.701
3872506,3532.0,3970.0,6288.0,0.627,0.338,0.048,0.701
3872522,3502.0,3976.0,6280.0,0.627,0.338,0.048,0.701
3872538,3452.0,3984.0,6276.0,0.627,0.338,0.048,0.701
3872555,3378.0,4034.0,6196.0,0.627,0.338,0.049,0.701
3872571,3400.0,4072.0,6282.0,0.627,0.338,0.049,0.701
3872597,3366.0,4054.0,6314.0,0.627,0.338,0.049,0.701
3872613,3400.0,4068.0,6302.0,0.627,0.338,0.049,0.701
3872629,3336.0,4058.0,6260.0,0.627,0.337,0.05,0.701
3872645,3284.0,4068.0,6316.0,0.627,0.337,0.05,0.701
3872661,3372.0,4090.0,6320.0,0.627,0.337,0.05,0.701
3872677,3340.0,4060.0,6256.0,0.627,0.337,0.05,0.701
3872703,3352.0,4076.0,6298.0,0.627,0.337,0.05,0.701
3872719,3378.0,4030.0,6320.0,0.627,0.337,0.05,0.701
3872735,3410.0,4068.0,6326.0,0.627,0.337,0.05,0.701
3872751,3398.0,4072.0,6336.0,0.627,0.337,0.05,0.701
3872767,3388.0,4066.0,6304.0,0.627,0.337,0.05,0.701
3872783,3384.0,4038.0,6342.0,0.627,0.337,0.05,0.701
3872809,3414.0,4066.0,6278.0,0.627,0.337,0.05,0.701
3872825,3372.0,4032.0,6304.0,0.627,0.337,0.05,0.701
3872841,3412.0,4042.0,6236.0,0.627,0.337,0.05,0.701
3872857,3434.0,4026.0,6304.0,0.627,0.337,0.051,0.701
3872873,3392.0,4036.0,6348.0,0.627,0.336,0.051,0.701
3872889,3386.0,4036.0,6296.0,0.627,0.336,0.051,0.701
3872915,3360.0,4042.0,6342.0,0.627,0.336,0.051,0.701
3872931,3364.0,4046.0,6294.0,0.627,0.336,0.051,0.701
3872947,3396.0,4078.0,6312.0,0.627,0.336,0.051,0.701
3872963,3344.0,4030.0,6326.0,0.627,0.336,0.052,0.701
3872979,3322.0,4112.0,6294.0,0.627,0.336,0.052,0.701
3872995,3334.0,4082.0,6322.0,0.626,0.336,0.052,0.701
3873021,3296.0,4148.0,6308.0,0.626,0.336,0.052,0.701
3873037,3330.0,4116.0,6300.0,0.626,0.336,0.052,0.701
3873053,3408.0,4096.0,6274.0,0.626,0.336,0.052,0.701
3873069,3322.0,4146.0,6344.0,0.626,0.336,0.052,0.701
3873085,3350.0,4116.0,6338.0,0.627,0.336,0.052,0.701
3873101,3362.0,4076.0,6332.0,0.627,0.336,0.052,0.701
3873127,3308.0,4052.0,6330.0,0.627,0.336,0.052,0.701
3873143,3372.0,4022.0,6352.0,0.627,0.335,0.052,0.701
3873159,3352.0,4070.0,6334.0,0.627,0.335,0.052,0.701
3873175,3354.0,4042.0,6360.0,0.627,0.335,0.052,0.702
3873191,3360.0,4052.0,6288.0,0.627,0.335,0.052,0.701
3873207,3352.0,4044.0,6326.0,0.627,0.335,0.052,0.701
3873233,3298.0,4054.0,6384.0,0.627,0.335,0.052,0.701
3873249,3308.0,4104.0,6374.0,0.627,0.335,0.052,0.701
3873265,3432.0,4058.0,6334.0,0.627,0.336,0.052,0.701
3873281,3370.0,4056.0,6292.0,0.627,0.336,0.052,0.701
3873297,3364.0,4090.0,6348.0,0.627,0.336,0.052,0.701
3873313,3360.0,4120.0,6320.0,0.627,0.336,0.052,0.702
3873340,3388.0,4102.0,6290.0,0.626,0.336,0.052,0.702
3873356,3330.0,4120.0,6288.0,0.627,0.336,0.052,0.702
3873372,3322.0,4146.0,6318.0,0.627,0.336,0.052,0.702
3873388,3322.0,4080.0,6314.0,0.627,0.335,0.052,0.702
3873404,3370.0,4056.0,6304.0,0.626,0.335,0.052,0.702
3873420,3384.0,4098.0,6292.0,0.627,0.335,0.052,0.702
3873446,3320.0,4098.0,6300.0,0.627,0.335,0.052,0.702
3873462,3322.0,4080.0,6290.0,0.627,0.335,0.052,0.702
3873478,3348.0,3996.0,6298.0,0.627,0.335,0.052,0.702
3873494,3360.0,4046.0,6378.0,0.627,0.335,0.052,0.702
3873510,3272.0,4050.0,6380.0,0.627,0.335,0.052,0.702
3873526,3274.0,4080.0,6390.0,0.627,0.335,0.052,0.702
3873552,3368.0,4060.0,6316.0,0.627,0.335,0.052,0.702
3873569,3352.0,4036.0,6346.0,0.627,0.335,0.052,0.702
3873585,3362.0,4082.0,6328.0,0.626,0.335,0.052,0.702
3873601,3356.0,4044.0,6276.0,0.626,0.335,0.052,0.702
3873617,3372.0,4076.0,6286.0,0.626,0.335,0.052,0.702
3873633,3410.0,4074.0,6300.0,0.626,0.335,0.052,0.702
3873659,3360.0,4082.0,6340.0,0.626,0.335,0.052,0.702
3873675,3352.0,4056.0,6312.0,0.626,0.335,0.052,0.702
3873692,3366.0,4076.0,6282.0,0.627,0.335,0.052,0.702
3873708,3376.0,4080.0,6298.0,0.627,0.335,0.052,0.702
3873724,3366.0,4046.0,6332.0,0.627,0.335,0.052,0.702
3873740,3364.0,4038.0,6306.0,0.627,0.335,0.052,0.702
3873756,3314.0,4078.0,6308.0,0.627,0.335,0.052,0.702
3873783,3290.0,4042.0,6310.0,0.627,0.335,0.052,0.702
3873799,3322.0,4068.0,6334.0,0.627,0.335,0.052,0.702
3873815,3338.0,4052.0,6322.0,0.627,0.335,0.052,0.702
3873831,3378.0,4050.0,6292.0,0.627,0.335,0.052,0.702
3873847,3384.0,4072.0,6378.0,0.627,0.335,0.052,0.702
3873863,3402.0,4072.0,6346.0,0.627,0.335,0.052,0.702
3873889,3390.0,4042.0,6366.0,0.627,0.335,0.052,0.702
3873905,3338.0,4060.0,6312.0,0.627,0.335,0.052,0.702
3873921,3326.0,4068.0,6340.0,0.627,0.335,0.052,0.702
3873937,3442.0,4064.0,6320.0,0.627,0.335,0.052,0.702
3873953,3316.0,4064.0,6346.0,0.627,0.335,0.052,0.702
3873969,3294.0,4034.0,6296.0,0.627,0.335,0.052,0.701
3873995,3334.0,4040.0,6342.0,0.627,0.335,0.052,0.701
3874011,3330.0,4050.0,6358.0,0.627,0.335,0.052,0.702
3874027,3352.0,4106.0,6310.0,0.627,0.335,0.052,0.701
3874043,3322.0,4076.0,6342.0,0.627,0.335,0.052,0.702
3874059,3366.0,4152.0,6314.0,0.627,0.335,0.052,0.702
3874075,3404.0,4100.0,6342.0,0.627,0.335,0.052,0.702
3874101,3410.0,4016.0,6350.0,0.627,0.335,0.052,0.701
3874117,3338.0,4094.0,6300.0,0.627,0.335,0.052,0.701
3874133,3318.0,4050.0,6292.0,0.627,0.335,0.052,0.701
3874149,3312.0,4036.0,6284.0,0.627,0.335,0.052,0.701
3874165,3332.0,4068.0,6284.0,0.627,0.335,0.052,0.701
3874181,3352.0,4052.0,6286.0,0.627,0.335,0.052,0.701
3874207,3340.0,4046.0,6324.0,0.627,0.335,0.052,0.701
3874223,3310.0,4074.0,6356.0,0.627,0.335,0.052,0.701
3874239,3346.0,4026.0,6338.0,0.627,0.335,0.052,0.702
3874255,3298.0,4086.0,6308.0,0.627,0.335,0.052,0.702
3874271,3344.0,4032.0,6304.0,0.627,0.335,0.052,0.702
3874287,3290.0,3980.0,6310.0,0.627,0.335,0.052,0.702
3874313,3336.0,4018.0,6310.0,0.627,0.335,0.052,0.702
3874329,3336.0,4060.0,6296.0,0.627,0.335,0.052,0.701
3874345,3358.0,4032.0,6356.0,0.627,0.335,0.052,0.701
3874361,3328.0,4070.0,6356.0,0.627,0.335,0.052,0.701
3874377,3352.0,4086.0,6356.0,0.627,0.335,0.052,0.701
3874393,3372.0,4086.0,6270.0,0.627,0.335,0.052,0.701
3874420,3386.0,4102.0,6314.0,0.627,0.335,0.052,0.701
3874436,3354.0,4126.0,6342.0,0.627,0.336,0.052,0.701
3874453,3338.0,4050.0,6320.0,0.627,0.336,0.052,0.701
3874469,3346.0,4006.0,6284.0,0.627,0.336,0.052,0.701
3874486,3380.0,4094.0,6340.0,0.627,0.336,0.052,0.701
3874503,3326.0,4110.0,6320.0,0.627,0.336,0.052,0.701
3874520,3390.0,4066.0,6314.0,0.627,0.336,0.052,0.701
3874536,3424.0,4042.0,6236.0,0.627,0.336,0.051,0.701
3874552,3326.0,4064.0,6340.0,0.627,0.336,0.051,0.701
3874579,3368.0,4028.0,6340.0,0.627,0.336,0.051,0.701
3874595,3354.0,4024.0,6332.0,0.627,0.336,0.051,0.701
3874611,3322.0,4056.0,6348.0,0.627,0.336,0.051,0.701
3874627,3452.0,4080.0,6326.0,0.627,0.336,0.051,0.701
3874643,3388.0,4058.0,6314.0,0.627,0.336,0.051,0.701
3874659,3334.0,4096.0,6312.0,0.627,0.336,0.051,0.701
3874676,3372.0,4076.0,6310.0,0.627,0.336,0.051,0.701
3874703,3360.0,4066.0,6292.0,0.627,0.336,0.051,0.701
3874719,3392.0,4068.0,6304.0,0.627,0.336,0.051,0.701
3874736,3392.0,4106.0,6274.0,0.627,0.336,0.051,0.701
3874753,3370.0,4066.0,6296.0,0.627,0.337,0.051,0.701
3874769,3348.0,4112.0,6312.0,0.627,0.337,0.051,0.701
3874785,3400.0,4028.0,6320.0,0.627,0.337,0.05,0.701
3874801,3390.0,4036.0,6286.0,0.627,0.337,0.05,0.701
3874827,3356.0,4040.0,6294.0,0.627,0.337,0.05,0.701
3874843,3392.0,4062.0,6338.0,0.627,0.337,0.05,0.701
3874859,3388.0,4116.0,6374.0,0.627,0.337,0.05,0.701
3874875,3378.0,4088.0,6300.0,0.627,0.337,0.05,0.701
3874892,3348.0,4078.0,6336.0,0.627,0.337,0.05,0.701
3874908,3410.0,4088.0,6316.0,0.627,0.337,0.05,0.701
3874924,3378.0,4132.0,6326.0,0.627,0.337,0.05,0.701
3874950,3424.0,4076.0,6296.0,0.627,0.338,0.05,0.701
3874966,3408.0,4068.0,6282.0,0.627,0.338,0.05,0.701
3874982,3428.0,4000.0,6244.0,0.627,0.338,0.05,0.701
3874998,3398.0,4044.0,6236.0,0.627,0.338,0.05,0.701
3875014,3368.0,4062.0,6238.0,0.627,0.338,0.049,0.701
3875030,3384.0,3994.0,6302.0,0.627,0.338,0.049,0.701
3875056,3424.0,4024.0,6322.0,0.627,0.338,0.049,0.701
3875073,3388.0,4062.0,6358.0,0.627,0.338,0.049,0.701
3875090,3384.0,4032.0,6308.0,0.627,0.338,0.049,0.701
3875107,3398.0,4044.0,6278.0,0.627,0.338,0.049,0.701
3875123,3418.0,4058.0,6292.0,0.627,0.338,0.049,0.701
3875139,3352.0,4110.0,6310.0,0.627,0.338,0.049,0.701
3875155,3354.0,4048.0,6358.0,0.627,0.338,0.049,0.701
3875181,3404.0,4064.0,6232.0,0.627,0.338,0.049,0.7
3875197,3412.0,4028.0,6318.0,0.627,0.338,0.049,0.7
3875213,3412.0,4074.0,6330.0,0.627,0.338,0.049,0.7
3875229,3398.0,4068.0,6276.0,0.627,0.338,0.049,0.7
3875245,3456.0,4092.0,6254.0,0.626,0.339,0.049,0.7
3875261,3416.0,4072.0,6268.0,0.626,0.339,0.048,0.7
3875287,3410.0,4036.0,6324.0,0.626,0.339,0.048,0.7
3875303,3462.0,4044.0,6252.0,0.626,0.339,0.048,0.7
3875319,3418.0,4050.0,6284.0,0.626,0.339,0.048,0.7
3875335,3410.0,4092.0,6248.0,0.626,0.339,0.048,0.7
3875351,3480.0,4004.0,6298.0,0.626,0.339,0.048,0.7
3875367,3484.0,4046.0,6290.0,0.626,0.339,0.048,0.7
3875393,3414.0,4042.0,6266.0,0.626,0.339,0.048,0.7
3875410,3460.0,4072.0,6264.0,0.626,0.339,0.048,0.7
3875426,3438.0,4028.0,6310.0,0.626,0.339,0.048,0.7
3875442,3426.0,4058.0,6282.0,0.626,0.339,0.048,0.7
3875459,3420.0,4040.0,6254.0,0.626,0.339,0.048,0.7
3875476,3430.0,4060.0,6284.0,0.626,0.339,0.048,0.701
3875492,3470.0,4056.0,6274.0,0.626,0.339,0.048,0.701
3875510,3446.0,4080.0,6314.0,0.626,0.339,0.048,0.701
3875526,3482.0,4040.0,6288.0,0.626,0.339,0.048,0.701
3875552,3460.0,4038.0,6266.0,0.626,0.339,0.048,0.701
3875569,3420.0,4046.0,6308.0,0.626,0.339,0.048,0.701
3875586,3472.0,4024.0,6298.0,0.626,0.339,0.048,0.701
3875602,3424.0,4040.0,6256.0,0.626,0.339,0.048,0.701
3875618,3430.0,4030.0,6304.0,0.626,0.339,0.048,0.701
3875634,3442.0,4048.0,6322.0,0.626,0.338,0.048,0.701
3875650,3398.0,4044.0,6288.0,0.626,0.338,0.048,0.701
3875676,3390.0,4040.0,6300.0,0.626,0.338,0.049,0.701
3875692,3378.0,4064.0,6310.0,0.626,0.338,0.049,0.701
3875708,3382.0,4072.0,6356.0,0.626,0.338,0.049,0.701
3875724,3418.0,4080.0,6326.0,0.626,0.338,0.049,0.701
3875740,3410.0,4124.0,6246.0,0.626,0.338,0.049,0.701
3875756,3394.0,4070.0,6310.0,0.626,0.338,0.049,0.701
3875782,3416.0,4100.0,6358.0,0.626,0.338,0.049,0.701
3875798,3430.0,4072.0,6326.0,0.626,0.338,0.049,0.701
3875814,3424.0,4050.0,6266.0,0.626,0.338,0.05,0.701
3875830,3414.0,4072.0,6252.0,0.626,0.338,0.05,0.701
3875846,3412.0,4056.0,6298.0,0.626,0.338,0.05,0.701
3875862,3418.0,4058.0,6240.0,0.626,0.338,0.05,0.701
3875889,3378.0,4032.0,6266.0,0.626,0.337,0.05,0.701
3875905,3406.0,4066.0,6300.0,0.626,0.337,0.05,0.701
3875922,3398.0,4090.0,6306.0,0.626,0.337,0.05,0.701
3875938,3328.0,4074.0,6294.0,0.626,0.337,0.051,0.701
3875954,3378.0,4050.0,6318.0,0.626,0.337,0.051,0.701
3875970,3366.0,4022.0,6302.0,0.626,0.337,0.051,0.701
3875986,3352.0,4040.0,6306.0,0.626,0.337,0.051,0.701
3876012,3350.0,4066.0,6312.0,0.626,0.337,0.051,0.702
3876028,3362.0,4076.0,6288.0,0.626,0.336,0.051,0.702
3876044,3364.0,4076.0,6342.0,0.626,0.336,0.051,0.702
3876060,3370.0,4034.0,6338.0,0.626,0.336,0.051,0.702
3876076,3366.0,4082.0,6314.0,0.626,0.336,0.051,0.702
3876092,3362.0,4122.0,6276.0,0.626,0.336,0.051,0.702
3876118,3356.0,4076.0,6292.0,0.626,0.337,0.051,0.702
3876134,3324.0,4110.0,6330.0,0.626,0.337,0.052,0.702
3876150,3378.0,4076.0,6320.0,0.626,0.336,0.052,0.702
3876166,3322.0,4094.0,6340.0,0.626,0.336,0.052,0.702
3876182,3332.0,4104.0,6336.0,0.626,0.336,0.052,0.702
3876208,3380.0,4096.0,6304.0,0.626,0.336,0.052,0.702
3876224,3336.0,4106.0,6316.0,0.626,0.336,0.052,0.702
3876240,3336.0,4086.0,6318.0,0.626,0.336,0.052,0.702
3876256,3330.0,4060.0,6264.0,0.626,0.336,0.052,0.702
3876272,3386.0,4070.0,6374.0,0.626,0.336,0.052,0.702
3876288,3352.0,4044.0,6336.0,0.626,0.336,0.052,0.702
3876314,3346.0,4054.0,6368.0,0.626,0.336,0.052,0.702
3876330,3380.0,4074.0,6322.0,0.626,0.336,0.052,0.702
3876346,3326.0,4024.0,6378.0,0.626,0.336,0.052,0.702
3876362,3388.0,4068.0,6284.0,0.626,0.336,0.052,0.702
3876378,3380.0,4058.0,6314.0,0.626,0.336,0.052,0.702
3876394,3374.0,4040.0,6354.0,0.626,0.336,0.052,0.702
3876420,3332.0,4108.0,6318.0,0.626,0.336,0.052,0.702
3876436,3338.0,4038.0,6320.0,0.626,0.336,0.052,0.702
3876452,3350.0,4062.0,6330.0,0.626,0.336,0.052,0.702
3876468,3378.0,4098.0,6334.0,0.626,0.336,0.052,0.702
3876484,3324.0,4078.0,6334.0,0.626,0.336,0.052,0.702
3876500,3344.0,4070.0,6318.0,0.626,0.336,0.052,0.702
3876517,3336.0,4096.0,6306.0,0.626,0.336,0.052,0.702
3876543,3372.0,4040.0,6286.0,0.626,0.336,0.052,0.702
3876559,3362.0,4014.0,6324.0,0.626,0.336,0.052,0.702
3876575,3374.0,4038.0,6334.0,0.626,0.336,0.052,0.702
3876591,3326.0,4044.0,6328.0,0.626,0.336,0.052,0.702
3876607,3344.0,4088.0,6346.0,0.626,0.336,0.052,0.702
3876623,3338.0,4072.0,6378.0,0.626,0.336,0.052,0.702
3876649,3372.0,3978.0,6330.0,0.626,0.336,0.052,0.702
3876665,3404.0,4016.0,6326.0,0.626,0.336,0.052,0.702
3876681,3408.0,4072.0,6256.0,0.626,0.336,0.052,0.702
3876697,3376.0,4090.0,6300.0,0.626,0.336,0.052,0.702
3876713,3370.0,4024.0,6294.0,0.626,0.336,0.052,0.702
3876739,3340.0,4112.0,6242.0,0.626,0.336,0.052,0.702
3876755,3330.0,4054.0,6288.0,0.626,0.336,0.052,0.702
3876771,3332.0,4068.0,6332.0,0.626,0.336,0.052,0.702
3876787,3310.0,4028.0,6324.0,0.626,0.336,0.052,0.702
3876803,3310.0,4036.0,6330.0,0.626,0.336,0.052,0.702
3876819,3340.0,4054.0,6320.0,0.626,0.336,0.052,0.702
3876845,3312.0,4036.0,6344.0,0.626,0.336,0.052,0.702
3876861,3354.0,4020.0,6310.0,0.626,0.336,0.052,0.702
3876877,3374.0,4032.0,6316.0,0.626,0.336,0.052,0.702
3876893,3340.0,4056.0,6314.0,0.626,0.336,0.052,0.702
3876909,3332.0,4080.0,6354.0,0.626,0.336,0.052,0.702
3876925,3338.0,4018.0,6368.0,0.626,0.336,0.052,0.702
3876951,3358.0,4062.0,6328.0,0.626,0.336,0.052,0.702
3876967,3366.0,4092.0,6316.0,0.626,0.336,0.052,0.702
3876983,3352.0,4050.0,6294.0,0.626,0.336,0.052,0.702
3876999,3380.0,4080.0,6298.0,0.626,0.336,0.052,0.702
3877015,3384.0,4018.0,6304.0,0.626,0.336,0.052,0.702
3877031,3354.0,4032.0,6304.0,0.626,0.336,0.052,0.702
3877057,3354.0,4106.0,6308.0,0.626,0.336,0.052,0.702
3877073,3380.0,4084.0,6340.0,0.626,0.336,0.052,0.702
3877089,3392.0,4106.0,6292.0,0.626,0.336,0.052,0.702
3877105,3368.0,4068.0,6300.0,0.626,0.336,0.052,0.702
3877121,3304.0,4044.0,6362.0,0.626,0.336,0.052,0.702
3877137,3380.0,4076.0,6290.0,0.626,0.336,0.052,0.702
3877163,3360.0,4096.0,6282.0,0.626,0.336,0.052,0.702
3877179,3296.0,4050.0,6332.0,0.626,0.336,0.052,0.702
3877195,3314.0,4058.0,6342.0,0.626,0.336,0.052,0.702
3877211,3306.0,4034.0,6332.0,0.626,0.336,0.052,0.702
3877227,3320.0,4048.0,6258.0,0.626,0.336,0.052,0.702
3877243,3374.0,4036.0,6324.0,0.626,0.336,0.052,0.702
3877269,3322.0,4066.0,6364.0,0.626,0.336,0.052,0.702
3877285,3312.0,4038.0,6348.0,0.626,0.336,0.052,0.702
3877301,3408.0,4030.0,6346.0,0.626,0.336,0.052,0.702
3877317,3364.0,4096.0,6308.0,0.626,0.336,0.052,0.702
3877333,3392.0,4084.0,6264.0,0.626,0.336,0.052,0.702
3877349,3356.0,4054.0,6318.0,0.626,0.336,0.052,0.702
3877375,3368.0,4100.0,6322.0,0.626,0.336,0.052,0.702
3877391,3352.0,4074.0,6320.0,0.626,0.336,0.052,0.702
3877407,3350.0,4108.0,6350.0,0.626,0.336,0.052,0.702
3877423,3382.0,4078.0,6324.0,0.626,0.336,0.052,0.702
3877439,3344.0,4024.0,6292.0,0.626,0.336,0.052,0.702
3877455,3364.0,4062.0,6294.0,0.626,0.336,0.052,0.702
3877481,3358.0,4054.0,6350.0,0.626,0.336,0.052,0.702
3877497,3384.0,4044.0,6328.0,0.626,0.336,0.052,0.702
3877513,3350.0,4094.0,6362.0,0.626,0.336,0.052,0.702
3877529,3344.0,4084.0,6362.0,0.626,0.336,0.052,0.702
3877545,3360.0,4096.0,6336.0,0.626,0.336,0.052,0.702
3877561,3354.0,4006.0,6298.0,0.626,0.336,0.052,0.702
3877587,3414.0,4080.0,6294.0,0.626,0.336,0.052,0.702
3877603,3372.0,4044.0,6302.0,0.626,0.336,0.052,0.702
3877619,3364.0,4074.0,6314.0,0.626,0.336,0.052,0.702
3877635,3358.0,4070.0,6256.0,0.626,0.336,0.052,0.702
3877651,3310.0,4076.0,6268.0,0.626,0.336,0.052,0.702
3877677,3288.0,4038.0,6300.0,0.626,0.336,0.052,0.702
3877693,3362.0,4064.0,6290.0,0.626,0.336,0.052,0.702
3877709,3378.0,4040.0,6312.0,0.626,0.336,0.052,0.702
3877725,3368.0,4034.0,6272.0,0.626,0.336,0.052,0.702
3877741,3406.0,4054.0,6342.0,0.626,0.336,0.052,0.702
3877757,3340.0,4028.0,6304.0,0.626,0.336,0.052,0.702
3877783,3358.0,4056.0,6344.0,0.626,0.336,0.052,0.702
3877799,3346.0,4078.0,6350.0,0.626,0.336,0.052,0.702
3877815,3348.0,4048.0,6362.0,0.626,0.336,0.052,0.702
3877831,3312.0,4054.0,6412.0,0.626,0.336,0.052,0.702
3877847,3360.0,4064.0,6318.0,0.626,0.336,0.051,0.702
3877863,3366.0,4078.0,6318.0,0.626,0.337,0.051,0.702
3877889,3346.0,4038.0,6306.0,0.626,0.337,0.051,0.702
3877905,3374.0,4040.0,6296.0,0.626,0.337,0.051,0.702
3877921,3378.0,4062.0,6276.0,0.626,0.337,0.051,0.702
3877937,3364.0,4014.0,6284.0,0.626,0.337,0.051,0.702
3877953,3428.0,4108.0,6308.0,0.626,0.337,0.051,0.702
3877969,3406.0,4046.0,6308.0,0.626,0.337,0.051,0.702
3877995,3416.0,4088.0,6302.0,0.625,0.337,0.051,0.702
3878012,3392.0,4044.0,6308.0,0.625,0.337,0.051,0.702
3878028,3376.0,4082.0,6292.0,0.625,0.337,0.051,0.702
3878045,3420.0,4032.0,6302.0,0.625,0.338,0.051,0.702
3878061,3356.0,4026.0,6342.0,0.626,0.338,0.05,0.702
3878077,3368.0,4090.0,6346.0,0.626,0.338,0.05,0.702
3878093,3390.0,4046.0,6288.0,0.626,0.338,0.05,0.702
3878112,3412.0,4036.0,6300.0,0.625,0.338,0.05,0.702
3878128,3416.0,4094.0,6312.0,0.625,0.338,0.05,0.702
3878154,3366.0,4044.0,6284.0,0.625,0.338,0.05,0.702
3878170,3424.0,4040.0,6308.0,0.625,0.338,0.05,0.701
3878186,3348.0,4034.0,6310.0,0.625,0.338,0.05,0.701
3878202,3364.0,4034.0,6262.0,0.625,0.338,0.05,0.701
3878218,3414.0,4082.0,6274.0,0.625,0.338,0.05,0.701
3878234,3378.0,4104.0,6312.0,0.625,0.339,0.05,0.701
3878260,3432.0,4052.0,6328.0,0.625,0.339,0.05,0.701
3878276,3446.0,4054.0,6350.0,0.625,0.339,0.05,0.701
3878293,3406.0,3996.0,6286.0,0.625,0.339,0.049,0.701
3878309,3406.0,4076.0,6308.0,0.625,0.339,0.049,0.701
3878325,3360.0,4018.0,6292.0,0.625,0.339,0.049,0.701
3878341,3386.0,4036.0,6290.0,0.625,0.339,0.049,0.701
3878367,3452.0,4050.0,6280.0,0.625,0.339,0.049,0.701
3878383,3434.0,4024.0,6312.0,0.625,0.339,0.049,0.701
3878399,3398.0,4078.0,6320.0,0.625,0.339,0.049,0.701
3878415,3432.0,4082.0,6348.0,0.625,0.34,0.049,0.701
3878431,3422.0,4074.0,6284.0,0.625,0.34,0.049,0.701
3878447,3522.0,4056.0,6256.0,0.625,0.34,0.049,0.701
3878473,3420.0,4028.0,6238.0,0.625,0.34,0.049,0.701
3878489,3462.0,4046.0,6222.0,0.625,0.34,0.049,0.701
3878505,3472.0,4054.0,6222.0,0.625,0.34,0.049,0.701
3878521,3424.0,4076.0,6290.0,0.625,0.34,0.049,0.701
3878537,3488.0,4050.0,6284.0,0.625,0.34,0.049,0.701
3878553,3412.0,4086.0,6300.0,0.625,0.34,0.049,0.701
3878579,3430.0,4102.0,6268.0,0.625,0.34,0.049,0.701
3878595,3498.0,4060.0,6278.0,0.625,0.34,0.049,0.701
3878611,3444.0,4058.0,6262.0,0.625,0.34,0.049,0.701
3878627,3402.0,4050.0,6252.0,0.625,0.34,0.049,0.701
3878643,3448.0,4074.0,6272.0,0.625,0.34,0.048,0.701
3878659,3410.0,4034.0,6270.0,0.625,0.34,0.048,0.701
3878685,3426.0,4030.0,6340.0,0.625,0.34,0.048,0.701
3878701,3438.0,4104.0,6332.0,0.625,0.34,0.048,0.701
3878717,3496.0,4064.0,6276.0,0.625,0.34,0.048,0.701
3878733,3460.0,4062.0,6294.0,0.625,0.34,0.048,0.701
3878749,3504.0,4052.0,6246.0,0.625,0.34,0.049,0.701
3878765,3464.0,4060.0,6270.0,0.625,0.34,0.049,0.701
3878791,3444.0,4014.0,6268.0,0.625,0.34,0.049,0.701
3878808,3478.0,4038.0,6244.0,0.625,0.34,0.049,0.701
3878824,3448.0,4074.0,6326.0,0.625,0.34,0.049,0.701
3878840,3408.0,4010.0,6298.0,0.625,0.34,0.049,0.701
3878856,3430.0,4038.0,6272.0,0.625,0.34,0.049,0.701
3878872,3406.0,4060.0,6230.0,0.625,0.34,0.049,0.701
3878898,3420.0,4018.0,6296.0,0.625,0.34,0.049,0.701
3878914,3454.0,4064.0,6268.0,0.625,0.34,0.05,0.701
3878930,3440.0,4052.0,6260.0,0.625,0.34,0.05,0.701
3878946,3410.0,4058.0,6268.0,0.625,0.339,0.05,0.701
3878962,3408.0,4074.0,6284.0,0.625,0.339,0.05,0.701
3878978,3426.0,4074.0,6320.0,0.625,0.339,0.05,0.702
3879004,3430.0,4106.0,6276.0,0.625,0.339,0.05,0.702
3879020,3414.0,4072.0,6246.0,0.625,0.339,0.051,0.702
3879036,3392.0,4074.0,6304.0,0.625,0.339,0.051,0.702
3879052,3388.0,4062.0,6304.0,0.625,0.339,0.051,0.702
3879068,3368.0,4058.0,6286.0,0.625,0.339,0.051,0.702
3879084,3398.0,4084.0,6334.0,0.625,0.338,0.051,0.702
3879110,3388.0,4078.0,6328.0,0.625,0.338,0.051,0.702
3879126,3378.0,4080.0,6256.0,0.625,0.338,0.051,0.702
3879142,3376.0,4080.0,6290.0,0.625,0.338,0.051,0.702
3879158,3360.0,4058.0,6296.0,0.625,0.338,0.051,0.702
3879174,3372.0,4064.0,6318.0,0.625,0.338,0.051,0.702
3879190,3380.0,4056.0,6318.0,0.625,0.338,0.052,0.702
3879216,3360.0,4084.0,6330.0,0.625,0.338,0.051,0.702
3879232,3384.0,4044.0,6358.0,0.625,0.338,0.051,0.702
3879248,3372.0,4052.0,6334.0,0.625,0.338,0.052,0.702
3879264,3408.0,4022.0,6298.0,0.625,0.338,0.052,0.702
3879280,3400.0,4042.0,6276.0,0.625,0.338,0.052,0.702
3879296,3392.0,4110.0,6226.0,0.625,0.338,0.052,0.702
3879322,3370.0,4110.0,6274.0,0.625,0.338,0.052,0.702
3879338,3372.0,4078.0,6320.0,0.625,0.337,0.052,0.702
3879354,3364.0,4076.0,6302.0,0.625,0.337,0.052,0.702
3879370,3402.0,4078.0,6310.0,0.625,0.337,0.052,0.702
3879386,3364.0,4088.0,6310.0,0.625,0.337,0.052,0.702
3879402,3348.0,4096.0,6274.0,0.625,0.337,0.052,0.702
3879428,3302.0,4062.0,6276.0,0.625,0.337,0.052,0.702
3879444,3358.0,4054.0,6280.0,0.625,0.337,0.052,0.702
3879460,3354.0,4050.0,6328.0,0.626,0.337,0.052,0.702
3879476,3316.0,4056.0,6334.0,0.626,0.337,0.052,0.702
3879492,3334.0,4038.0,6326.0,0.626,0.337,0.052,0.702
3879508,3310.0,4088.0,6334.0,0.626,0.337,0.052,0.702
3879534,3410.0,4068.0,6326.0,0.626,0.337,0.052,0.702
3879550,3402.0,4088.0,6318.0,0.626,0.337,0.052,0.702
3879566,3374.0,4108.0,6278.0,0.626,0.337,0.052,0.702
3879582,3368.0,4096.0,6288.0,0.626,0.337,0.052,0.702
3879598,3402.0,4096.0,6296.0,0.626,0.337,0.052,0.702
3879624,3396.0,4082.0,6338.0,0.626,0.337,0.052,0.702
3879640,3448.0,4080.0,6252.0,0.626,0.337,0.052,0.702
3879656,3402.0,4040.0,6284.0,0.626,0.337,0.052,0.702
3879672,3360.0,4034.0,6320.0,0.626,0.337,0.052,0.702
3879688,3402.0,4046.0,6290.0,0.626,0.337,0.052,0.702
3879704,3388.0,4046.0,6270.0,0.626,0.337,0.052,0.702
3879730,3376.0,4082.0,6340.0,0.626,0.337,0.052,0.702
3879746,3306.0,4086.0,6322.0,0.626,0.337,0.052,0.702
3879762,3362.0,4046.0,6320.0,0.626,0.337,0.052,0.702
3879778,3362.0,4082.0,6250.0,0.626,0.337,0.052,0.702
3879794,3380.0,4126.0,6262.0,0.626,0.337,0.052,0.702
3879810,3378.0,4112.0,6318.0,0.626,0.337,0.052,0.702
3879836,3386.0,4066.0,6310.0,0.626,0.337,0.052,0.702
3879852,3356.0,4102.0,6272.0,0.626,0.337,0.052,0.702
3879868,3324.0,4070.0,6322.0,0.626,0.337,0.052,0.702
3879884,3368.0,4080.0,6294.0,0.626,0.337,0.052,0.702
3879900,3400.0,4060.0,6284.0,0.626,0.337,0.052,0.702
3879916,3348.0,4086.0,6268.0,0.626,0.337,0.052,0.702
3879942,3330.0,4054.0,6308.0,0.626,0.337,0.052,0.702
3879958,3368.0,4072.0,6310.0,0.626,0.337,0.052,0.702
3879974,3380.0,4074.0,6314.0,0.626,0.337,0.052,0.702
3879990,3324.0,4074.0,6334.0,0.626,0.337,0.052,0.702
3880006,3378.0,4094.0,6342.0,0.626,0.337,0.052,0.702
3880022,3364.0,4088.0,6336.0,0.626,0.337,0.052,0.702
3880048,3384.0,4090.0,6270.0,0.626,0.337,0.052,0.702
3880064,3372.0,4060.0,6328.0,0.626,0.337,0.052,0.702
3880080,3382.0,4072.0,6270.0,0.626,0.337,0.052,0.702
3880096,3348.0,4106.0,6314.0,0.626,0.337,0.052,0.702
3880112,3336.0,4082.0,6276.0,0.626,0.337,0.052,0.702
3880128,3352.0,4064.0,6262.0,0.626,0.337,0.052,0.702
3880154,3328.0,4054.0,6288.0,0.626,0.337,0.052,0.702
3880170,3334.0,4152.0,6356.0,0.626,0.337,0.052,0.702
3880186,3368.0,4086.0,6316.0,0.626,0.337,0.052,0.702
3880202,3382.0,4092.0,6296.0,0.626,0.337,0.052,0.702
3880218,3312.0,4022.0,6272.0,0.626,0.337,0.052,0.702
3880234,3356.0,4016.0,6308.0,0.626,0.337,0.052,0.702
3880260,3360.0,4046.0,6272.0,0.626,0.337,0.052,0.702
3880276,3342.0,3996.0,6340.0,0.626,0.337,0.052,0.702
3880292,3356.0,4064.0,6332.0,0.626,0.337,0.052,0.702
3880308,3366.0,4086.0,6396.0,0.626,0.337,0.052,0.702
3880324,3350.0,4072.0,6304.0,0.626,0.337,0.052,0.702
3880340,3354.0,4116.0,6278.0,0.626,0.337,0.052,0.702
3880366,3382.0,4020.0,6294.0,0.626,0.337,0.052,0.702
3880382,3372.0,4058.0,6306.0,0.626,0.337,0.052,0.702
3880398,3338.0,4086.0,6296.0,0.626,0.337,0.052,0.702
3880414,3390.0,4082.0,6290.0,0.626,0.337,0.052,0.702
3880430,3372.0,4058.0,6284.0,0.625,0.337,0.052,0.702
3880456,3364.0,4054.0,6332.0,0.625,0.337,0.052,0.702
3880472,3372.0,4058.0,6308.0,0.625,0.337,0.052,0.702
3880488,3382.0,4094.0,6280.0,0.625,0.337,0.052,0.702
3880504,3396.0,4060.0,6320.0,0.625,0.337,0.052,0.702
3880520,3298.0,4044.0,6332.0,0.625,0.337,0.052,0.702
3880536,3370.0,4090.0,6278.0,0.625,0.337,0.052,0.702
3880562,3344.0,4078.0,6300.0,0.625,0.337,0.052,0.702
3880578,3336.0,4074.0,6300.0,0.625,0.337,0.053,0.702
3880594,3386.0,4136.0,6312.0,0.625,0.337,0.053,0.702
3880610,3384.0,4056.0,6266.0,0.625,0.337,0.053,0.702
3880626,3386.0,4060.0,6312.0,0.625,0.337,0.053,0.702
3880642,3350.0,4036.0,6288.0,0.625,0.337,0.053,0.702
3880668,3384.0,4078.0,6312.0,0.625,0.337,0.053,0.702
3880684,3350.0,4054.0,6290.0,0.625,0.337,0.053,0.702
3880700,3360.0,4090.0,6322.0,0.625,0.337,0.052,0.702
3880716,3394.0,4072.0,6276.0,0.625,0.337,0.052,0.702
3880732,3342.0,4048.0,6374.0,0.625,0.337,0.052,0.702
3880748,3360.0,4020.0,6320.0,0.625,0.337,0.052,0.702
3880774,3372.0,4090.0,6284.0,0.625,0.337,0.052,0.702
3880790,3362.0,4064.0,6332.0,0.625,0.337,0.052,0.702
3880806,3366.0,4082.0,6320.0,0.625,0.337,0.052,0.702
3880822,3350.0,4092.0,6302.0,0.625,0.337,0.052,0.702
3880838,3392.0,4046.0,6266.0,0.626,0.337,0.052,0.702
3880854,3372.0,4110.0,6294.0,0.626,0.337,0.052,0.702
3880880,3340.0,4074.0,6290.0,0.626,0.337,0.052,0.702
3880896,3346.0,4046.0,6266.0,0.626,0.337,0.052,0.702
3880912,3360.0,4052.0,6264.0,0.626,0.337,0.052,0.702
3880928,3364.0,4066.0,6294.0,0.626,0.337,0.052,0.702
3880944,3412.0,4118.0,6328.0,0.626,0.337,0.052,0.702
3880960,3406.0,4092.0,6304.0,0.626,0.337,0.052,0.702
3880986,3364.0,4052.0,6272.0,0.626,0.337,0.052,0.702
3881002,3350.0,3994.0,6284.0,0.626,0.337,0.052,0.702
3881018,3344.0,4064.0,6314.0,0.626,0.337,0.052,0.702
3881034,3318.0,4078.0,6334.0,0.626,0.337,0.052,0.702
3881050,3344.0,4050.0,6336.0,0.626,0.337,0.052,0.702
3881066,3382.0,4042.0,6326.0,0.626,0.337,0.052,0.702
3881092,3372.0,4080.0,6356.0,0.626,0.337,0.051,0.701
3881108,3394.0,4004.0,6294.0,0.626,0.337,0.051,0.701
3881124,3360.0,4072.0,6266.0,0.626,0.338,0.051,0.701
3881140,3432.0,4070.0,6298.0,0.626,0.338,0.051,0.701
3881156,3430.0,4124.0,6296.0,0.626,0.338,0.051,0.701
3881172,3402.0,4084.0,6278.0,0.626,0.338,0.051,0.701
3881198,3444.0,4094.0,6280.0,0.626,0.338,0.051,0.701
3881214,3416.0,4144.0,6296.0,0.626,0.338,0.051,0.701
3881230,3474.0,4080.0,6262.0,0.626,0.338,0.051,0.701
3881246,3372.0,4070.0,6304.0,0.626,0.338,0.051,0.701
3881262,3358.0,4014.0,6288.0,0.626,0.338,0.051,0.701
3881278,3404.0,4036.0,6330.0,0.626,0.338,0.051,0.701
3881304,3358.0,4034.0,6304.0,0.626,0.338,0.051,0.701
3881320,3388.0,4020.0,6310.0,0.626,0.338,0.05,0.701
3881336,3434.0,4064.0,6250.0,0.626,0.338,0.05,0.701
3881352,3416.0,4052.0,6288.0,0.626,0.339,0.05,0.701
3881368,3430.0,4136.0,6292.0,0.626,0.339,0.05,0.701
3881394,3410.0,4066.0,6330.0,0.626,0.339,0.05,0.701
3881410,3398.0,4108.0,6254.0,0.626,0.339,0.05,0.701
3881426,3404.0,4052.0,6288.0,0.626,0.339,0.05,0.701
3881442,3398.0,4074.0,6298.0,0.626,0.339,0.05,0.701
3881458,3380.0,4030.0,6268.0,0.626,0.339,0.05,0.701
3881474,3414.0,4058.0,6284.0,0.626,0.339,0.05,0.701
3881500,3414.0,4044.0,6256.0,0.626,0.339,0.05,0.701
3881516,3416.0,4076.0,6318.0,0.626,0.339,0.05,0.701
3881532,3414.0,4082.0,6332.0,0.625,0.339,0.049,0.701
3881548,3444.0,4028.0,6278.0,0.625,0.339,0.049,0.701
3881564,3414.0,4022.0,6276.0,0.625,0.34,0.049,0.701
3881580,3426.0,4086.0,6248.0,0.625,0.34,0.049,0.701
3881606,3490.0,4036.0,6266.0,0.625,0.34,0.049,0.701
3881622,3462.0,4064.0,6242.0,0.625,0.34,0.049,0.701
3881638,3438.0,4044.0,6238.0,0.625,0.34,0.049,0.701
3881654,3428.0,4070.0,6274.0,0.626,0.34,0.049,0.7
3881670,3446.0,4036.0,6250.0,0.626,0.34,0.049,0.7
3881686,3404.0,4024.0,6296.0,0.625,0.34,0.049,0.701
3881712,3380.0,4058.0,6250.0,0.625,0.34,0.049,0.701
3881728,3438.0,4126.0,6292.0,0.625,0.34,0.049,0.701
3881744,3418.0,4062.0,6260.0,0.625,0.34,0.049,0.701
3881760,3424.0,4092.0,6278.0,0.625,0.34,0.049,0.7
3881776,3428.0,4060.0,6292.0,0.625,0.34,0.049,0.701
3881792,3434.0,4036.0,6320.0,0.625,0.34,0.049,0.701
3881818,3460.0,4054.0,6320.0,0.625,0.34,0.049,0.7
3881834,3482.0,4032.0,6304.0,0.625,0.341,0.049,0.7
3881850,3480.0,4122.0,6262.0,0.625,0.341,0.049,0.7
3881866,3442.0,4078.0,6238.0,0.625,0.341,0.049,0.7
3881882,3454.0,4056.0,6254.0,0.625,0.341,0.049,0.7
3881898,3522.0,4058.0,6244.0,0.625,0.341,0.049,0.701
3881924,3480.0,4020.0,6232.0,0.625,0.341,0.05,0.7
3881940,3482.0,4036.0,6276.0,0.625,0.341,0.05,0.7
3881956,3492.0,4044.0,6238.0,0.625,0.341,0.05,0.7
3881972,3524.0,4030.0,6284.0,0.625,0.341,0.051,0.7
3881988,3500.0,4052.0,6264.0,0.625,0.341,0.051,0.7
3882004,3480.0,4058.0,6268.0,0.625,0.341,0.052,0.7
3882030,3398.0,3994.0,6296.0,0.625,0.341,0.052,0.7
3882046,3400.0,4104.0,6310.0,0.625,0.341,0.053,0.7
3882062,3362.0,4098.0,6266.0,0.625,0.341,0.053,0.701
3882078,3408.0,4086.0,6288.0,0.625,0.341,0.054,0.701
3882094,3340.0,4118.0,6306.0,0.625,0.341,0.055,0.701
3882110,3342.0,4200.0,6236.0,0.624,0.341,0.055,0.701
3882136,3370.0,4116.0,6238.0,0.624,0.341,0.056,0.701
3882152,3426.0,4158.0,6264.0,0.624,0.341,0.057,0.701
3882168,3460.0,4158.0,6218.0,0.624,0.341,0.057,0.701
3882184,3394.0,4174.0,6184.0,0.624,0.341,0.058,0.701
3882200,3428.0,4146.0,6266.0,0.624,0.342,0.059,0.701
3882226,3352.0,4150.0,6264.0,0.624,0.342,0.06,0.701
3882242,3246.0,4268.0,6426.0,0.624,0.342,0.06,0.7
3882258,3238.0,4196.0,6390.0,0.623,0.342,0.061,0.7
3882274,3406.0,4168.0,6364.0,0.623,0.343,0.061,0.7
3882290,3414.0,4230.0,6220.0,0.622,0.344,0.062,0.7
3882306,3330.0,4242.0,6130.0,0.622,0.344,0.063,0.7
3882332,3290.0,4200.0,6136.0,0.621,0.345,0.064,0.701
3882348,3314.0,4328.0,6152.0,0.621,0.345,0.065,0.701
3882364,3342.0,4366.0,6150.0,0.621,0.346,0.065,0.701
3882380,3332.0,4428.0,6078.0,0.62,0.346,0.066,0.701
3882396,3374.0,4490.0,6052.0,0.62,0.346,0.067,0.701
3882412,3410.0,4458.0,6048.0,0.62,0.346,0.068,0.701
3882438,3422.0,4536.0,6094.0,0.62,0.346,0.069,0.701
3882454,3372.0,4606.0,6092.0,0.62,0.345,0.069,0.701
3882470,3310.0,4478.0,6162.0,0.621,0.344,0.07,0.701
3882486,3274.0,4554.0,6208.0,0.621,0.344,0.07,0.701
3882502,3266.0,4508.0,6276.0,0.622,0.343,0.07,0.7
3882518,3204.0,4460.0,6236.0,0.623,0.342,0.071,0.7
3882544,3168.0,4430.0,6258.0,0.624,0.341,0.071,0.7
3882560,3142.0,4506.0,6332.0,0.625,0.34,0.071,0.699
3882576,3118.0,4610.0,6506.0,0.626,0.339,0.071,0.699
3882592,3148.0,4634.0,6654.0,0.627,0.338,0.072,0.698
3882608,3182.0,4622.0,6618.0,0.629,0.337,0.073,0.697
3882624,3316.0,4678.0,6722.0,0.63,0.336,0.074,0.697
3882650,3206.0,4744.0,6626.0,0.631,0.334,0.076,0.696
3882666,3212.0,4740.0,6478.0,0.633,0.333,0.077,0.695
3882682,3150.0,4844.0,6368.0,0.635,0.331,0.08,0.694
3882698,3078.0,4900.0,6366.0,0.636,0.33,0.082,0.692
3882714,2834.0,5024.0,6208.0,0.638,0.328,0.085,0.691
3882730,2800.0,5112.0,6218.0,0.641,0.326,0.088,0.69
3882756,2748.0,5198.0,6316.0,0.643,0.323,0.091,0.688
3882772,2738.0,5380.0,6496.0,0.646,0.321,0.094,0.686
3882788,2714.0,5604.0,6630.0,0.65,0.317,0.096,0.684
3882804,2580.0,5486.0,6510.0,0.654,0.313,0.097,0.682
3882820,2368.0,5166.0,5966.0,0.658,0.309,0.097,0.68
3882836,2188.0,4820.0,5616.0,0.662,0.304,0.096,0.678
3882862,2028.0,4440.0,5298.0,0.667,0.298,0.094,0.677
3882878,1898.0,4140.0,5254.0,0.671,0.291,0.091,0.676
3882894,1872.0,3964.0,5542.0,0.676,0.284,0.087,0.674
3882910,1862.0,3718.0,5870.0,0.681,0.278,0.083,0.673
3882926,1880.0,3690.0,6284.0,0.685,0.271,0.078,0.671
3882942,1862.0,3518.0,6472.0,0.69,0.265,0.072,0.67
3882968,1732.0,3282.0,6450.0,0.694,0.26,0.065,0.669
3882984,1730.0,2984.0,6348.0,0.697,0.256,0.059,0.667
3883000,1822.0,2754.0,6512.0,0.7,0.252,0.052,0.666
3883016,1940.0,2732.0,6748.0,0.703,0.249,0.045,0.665
3883032,2086.0,2876.0,7226.0,0.705,0.247,0.038,0.663
3883048,2160.0,3074.0,7488.0,0.707,0.246,0.032,0.662
3883074,2126.0,3018.0,7390.0,0.709,0.244,0.025,0.661
3883090,2174.0,2800.0,6890.0,0.71,0.243,0.018,0.66
3883106,2368.0,2552.0,6788.0,0.711,0.243,0.011,0.66
3883122,2772.0,2672.0,7384.0,0.712,0.241,0.004,0.659
3883138,3326.0,3084.0,8602.0,0.713,0.239,-0.003,0.659
3883164,3644.0,3372.0,9514.0,0.715,0.234,-0.01,0.659
3883180,3482.0,3020.0,9416.0,0.716,0.228,-0.019,0.66
3883196,3168.0,1692.0,8122.0,0.717,0.221,-0.027,0.661
3883212,3370.0,1576.0,6986.0,0.717,0.214,-0.036,0.662
3883228,3274.0,1354.0,6508.0,0.718,0.208,-0.043,0.663
3883244,3208.0,1132.0,6624.0,0.719,0.202,-0.049,0.664
3883270,3108.0,1100.0,7040.0,0.72,0.198,-0.054,0.663
3883286,3126.0,888.0,7254.0,0.721,0.195,-0.056,0.663
3883302,3212.0,978.0,7460.0,0.721,0.194,-0.057,0.662
3883318,3264.0,1304.0,7594.0,0.722,0.195,-0.056,0.662
3883334,3392.0,1326.0,7856.0,0.722,0.195,-0.055,0.661
3883350,3484.0,1444.0,8060.0,0.723,0.196,-0.053,0.661
3883376,3312.0,1656.0,8080.0,0.723,0.196,-0.05,0.661
3883392,3150.0,1906.0,7858.0,0.723,0.196,-0.048,0.66
3883408,3058.0,1744.0,7532.0,0.723,0.196,-0.045,0.661
3883424,2992.0,1712.0,7298.0,0.724,0.195,-0.042,0.661
3883440,2940.0,1988.0,7120.0,0.724,0.195,-0.039,0.661
3883456,2964.0,1814.0,7062.0,0.723,0.195,-0.036,0.661
3883473,3112.0,1756.0,7420.0,0.723,0.195,-0.032,0.662
3883499,3344.0,1776.0,7246.0,0.721,0.195,-0.027,0.664
3883515,3378.0,2792.0,6922.0,0.719,0.195,-0.022,0.667
3883531,3016.0,2062.0,7226.0,0.716,0.194,-0.018,0.67
3883547,2710.0,1160.0,7698.0,0.713,0.192,-0.014,0.674
3883563,2652.0,454.0,7794.0,0.711,0.192,-0.009,0.677
3883579,2112.0,698.0,7524.0,0.706,0.193,-0.002,0.681
3883605,1222.0,1536.0,6704.0,0.703,0.194,0.005,0.685
3883622,1042.0,1120.0,7760.0,0.699,0.196,0.012,0.688
3883639,1110.0,1088.0,7930.0,0.694,0.2,0.019,0.691
3883655,996.0,1700.0,7838.0,0.689,0.205,0.026,0.695
3883671,798.0,2114.0,7572.0,0.683,0.211,0.033,0.698
3883688,1118.0,1836.0,7642.0,0.678,0.216,0.04,0.702
3883705,1418.0,1950.0,8266.0,0.672,0.222,0.046,0.705
3883722,1388.0,1866.0,8276.0,0.666,0.229,0.054,0.708
3883748,1450.0,2562.0,7666.0,0.659,0.238,0.063,0.71
3883764,1660.0,2760.0,7438.0,0.652,0.248,0.073,0.713
3883780,2014.0,2902.0,7064.0,0.646,0.258,0.083,0.714
3883796,2374.0,3172.0,6998.0,0.639,0.268,0.094,0.715
3883812,2462.0,3906.0,6756.0,0.632,0.277,0.106,0.716
3883828,2396.0,4110.0,6582.0,0.625,0.286,0.117,0.717
3883854,2680.0,4036.0,6532.0,0.618,0.295,0.129,0.717
3883870,2788.0,4062.0,6418.0,0.61,0.303,0.14,0.718
3883886,3190.0,4278.0,5998.0,0.602,0.312,0.153,0.719
3883902,3254.0,4146.0,5694.0,0.594,0.32,0.165,0.72
3883918,3310.0,3994.0,5592.0,0.584,0.327,0.177,0.721
3883934,3238.0,4178.0,5526.0,0.574,0.335,0.19,0.723
3883960,3272.0,3992.0,5344.0,0.563,0.342,0.202,0.725
3883976,3066.0,3626.0,5148.0,0.551,0.35,0.216,0.727
3883992,3536.0,4478.0,4648.0,0.538,0.359,0.23,0.728
3884008,3738.0,7846.0,3574.0,0.526,0.364,0.241,0.73
3884024,3800.0,7416.0,4198.0,0.517,0.366,0.248,0.733
3884040,3876.0,4572.0,4936.0,0.507,0.366,0.253,0.738
3884066,4222.0,2062.0,5344.0,0.494,0.368,0.262,0.743
3884082,4040.0,2868.0,3992.0,0.479,0.373,0.275,0.746
3884098,3876.0,4062.0,3476.0,0.462,0.379,0.289,0.748
3884114,3460.0,2390.0,3520.0,0.443,0.387,0.306,0.748
3884131,3968.0,5174.0,2456.0,0.423,0.396,0.324,0.748
3884147,2658.0,4864.0,2364.0,0.4,0.408,0.343,0.746
3884173,3216.0,6700.0,1832.0,0.378,0.419,0.36,0.743
3884190,3252.0,7094.0,1332.0,0.354,0.429,0.376,0.741
3884206,3172.0,6974.0,1240.0,0.33,0.437,0.39,0.74
3884222,3206.0,7134.0,1272.0,0.306,0.446,0.4,0.74
3884238,3930.0,7732.0,874.0,0.282,0.453,0.408,0.741
3884254,3886.0,6978.0,896.0,0.258,0.46,0.413,0.743
3884270,4398.0,7000.0,956.0,0.235,0.466,0.417,0.744
3884296,4710.0,6626.0,910.0,0.212,0.473,0.419,0.745
3884312,4708.0,6948.0,674.0,0.19,0.48,0.42,0.746
3884328,5248.0,6726.0,328.0,0.169,0.487,0.42,0.747
3884344,5704.0,6408.0,234.0,0.148,0.493,0.419,0.748
3884360,6086.0,6756.0,154.0,0.129,0.499,0.418,0.748
3884386,6174.0,6710.0,122.0,0.11,0.505,0.415,0.749
3884402,6538.0,6922.0,-60.0,0.093,0.51,0.412,0.749
3884418,6592.0,6038.0,34.0,0.076,0.516,0.408,0.749
3884434,6878.0,6142.0,-22.0,0.061,0.521,0.405,0.749
3884450,6874.0,6094.0,54.0,0.046,0.525,0.401,0.749
3884466,6962.0,6328.0,4.0,0.033,0.53,0.397,0.749
3884483,6964.0,5888.0,74.0,0.02,0.534,0.393,0.748
3884509,6864.0,5450.0,144.0,0.008,0.538,0.389,0.748
3884525,6640.0,5514.0,352.0,0.003,-0.542,-0.386,-0.747
3884541,6630.0,5620.0,504.0,0.014,-0.546,-0.383,-0.745
3884557,6640.0,5238.0,590.0,0.024,-0.55,-0.38,-0.744
3884573,6950.0,4946.0,544.0,0.033,-0.554,-0.377,-0.742
3884589,7168.0,5088.0,254.0,0.042,-0.557,-0.374,-0.74
3884606,7294.0,5320.0,-58.0,0.051,-0.56,-0.372,-0.739
3884632,7496.0,5612.0,26.0,0.058,-0.562,-0.368,-0.739
3884648,7210.0,4698.0,430.0,0.065,-0.563,-0.363,-0.74
3884664,7488.0,4702.0,540.0,0.072,-0.565,-0.357,-0.74
3884680,7400.0,4514.0,592.0,0.078,-0.566,-0.352,-0.742
3884696,7550.0,4696.0,648.0,0.084,-0.567,-0.346,-0.743
3884712,7742.0,4540.0,740.0,0.09,-0.569,-0.339,-0.744
3884739,8012.0,4256.0,530.0,0.096,-0.57,-0.331,-0.746
3884756,7738.0,4030.0,772.0,0.101,-0.572,-0.324,-0.747
3884773,8792.0,3056.0,1982.0,0.106,-0.573,-0.316,-0.749
3884790,8220.0,3538.0,1010.0,0.111,-0.574,-0.31,-0.75
3884807,7574.0,4206.0,978.0,0.115,-0.575,-0.303,-0.752
3884824,7594.0,3210.0,1084.0,0.119,-0.576,-0.295,-0.753
3884841,8078.0,2836.0,1694.0,0.123,-0.577,-0.288,-0.754
3884857,7942.0,2394.0,1400.0,0.126,-0.578,-0.283,-0.755
3884874,7996.0,2132.0,1470.0,0.128,-0.58,-0.279,-0.755
3884891,7540.0,1390.0,1414.0,0.13,-0.581,-0.277,-0.754
3884908,7650.0,1468.0,1502.0,0.134,-0.583,-0.277,-0.752
3884925,8268.0,2642.0,924.0,0.138,-0.585,-0.281,-0.748
3884951,8218.0,3616.0,856.0,0.143,-0.586,-0.284,-0.745
3884968,8258.0,1778.0,654.0,0.147,-0.588,-0.287,-0.742
3884985,8658.0,3626.0,884.0,0.149,-0.588,-0.29,-0.74
3885001,7002.0,4106.0,320.0,0.15,-0.589,-0.29,-0.739
3885017,7706.0,2560.0,1104.0,0.149,-0.59,-0.29,-0.739
3885034,7580.0,2300.0,492.0,0.149,-0.59,-0.291,-0.738
3885051,8184.0,2802.0,498.0,0.148,-0.59,-0.292,-0.738
3885067,8324.0,2246.0,538.0,0.148,-0.589,-0.294,-0.738
3885093,8050.0,2098.0,652.0,0.148,-0.587,-0.297,-0.738
3885110,7354.0,2698.0,1602.0,0.149,-0.585,-0.3,-0.739
3885127,7536.0,2782.0,1698.0,0.151,-0.583,-0.304,-0.738
3885144,7600.0,2498.0,1282.0,0.153,-0.581,-0.308,-0.737
3885160,7418.0,2624.0,1428.0,0.156,-0.58,-0.312,-0.736
3885176,7552.0,2868.0,1296.0,0.159,-0.579,-0.315,-0.735
3885192,7770.0,2810.0,1068.0,0.161,-0.579,-0.318,-0.733
3885208,7830.0,2324.0,890.0,0.163,-0.578,-0.32,-0.733
3885234,7632.0,2266.0,1062.0,0.163,-0.578,-0.322,-0.732
3885251,8026.0,1964.0,1120.0,0.164,-0.577,-0.325,-0.731
3885267,8030.0,2616.0,1008.0,0.166,-0.576,-0.327,-0.73
3885283,7880.0,2334.0,1216.0,0.167,-0.576,-0.328,-0.73
3885300,8092.0,2124.0,1108.0,0.169,-0.576,-0.33,-0.728
3885316,7924.0,2232.0,980.0,0.169,-0.577,-0.331,-0.727
3885333,8024.0,2062.0,690.0,0.17,-0.578,-0.332,-0.726
3885349,8472.0,2458.0,292.0,0.171,-0.578,-0.332,-0.725
3885376,8046.0,2390.0,488.0,0.173,-0.579,-0.332,-0.724
3885392,8126.0,1682.0,742.0,0.175,-0.579,-0.332,-0.724
3885408,7938.0,1788.0,774.0,0.177,-0.579,-0.331,-0.724
3885424,7816.0,2170.0,866.0,0.178,-0.579,-0.331,-0.723
3885440,7772.0,2158.0,826.0,0.179,-0.579,-0.331,-0.723
3885456,7886.0,2224.0,698.0,0.181,-0.579,-0.331,-0.723
3885482,7812.0,2112.0,756.0,0.182,-0.579,-0.331,-0.723
3885498,7816.0,2258.0,692.0,0.183,-0.579,-0.331,-0.722
3885514,7988.0,2256.0,522.0,0.183,-0.579,-0.332,-0.722
3885531,8008.0,2518.0,542.0,0.184,-0.578,-0.334,-0.722
3885547,8122.0,2704.0,490.0,0.184,-0.577,-0.336,-0.721
3885563,8082.0,3024.0,568.0,0.184,-0.576,-0.339,-0.72
3885589,8184.0,3342.0,414.0,0.183,-0.576,-0.343,-0.719
3885605,8154.0,3576.0,142.0,0.183,-0.575,-0.348,-0.718
3885621,7852.0,4046.0,70.0,0.182,-0.573,-0.355,-0.716
3885637,7546.0,4516.0,226.0,0.18,-0.572,-0.363,-0.713
3885654,7788.0,5042.0,-104.0,0.177,-0.57,-0.371,-0.711
3885671,7964.0,5036.0,-532.0,0.173,-0.568,-0.38,-0.709
3885688,7646.0,5372.0,-654.0,0.17,-0.565,-0.39,-0.707
3885705,7658.0,5956.0,-900.0,0.165,-0.561,-0.402,-0.704
3885721,7294.0,6222.0,-722.0,0.16,-0.557,-0.415,-0.702
3885748,7094.0,6548.0,-800.0,0.152,-0.553,-0.428,-0.699
3885764,7024.0,6642.0,-1008.0,0.143,-0.55,-0.441,-0.695
3885780,7098.0,6772.0,-1172.0,0.133,-0.546,-0.455,-0.691
3885796,7124.0,6736.0,-1558.0,0.121,-0.543,-0.47,-0.686
3885812,7216.0,7092.0,-1806.0,0.108,-0.539,-0.485,-0.68
3885828,7142.0,7660.0,-1870.0,0.094,-0.535,-0.501,-0.674
3885845,7236.0,7828.0,-2218.0,0.078,-0.531,-0.517,-0.667
3885871,7234.0,7918.0,-2458.0,0.061,-0.527,-0.533,-0.659
3885887,7178.0,8298.0,-2542.0,0.042,-0.523,-0.549,-0.651
3885903,7034.0,8288.0,-2820.0,0.022,-0.518,-0.565,-0.641
3885920,6948.0,8930.0,-2842.0,0.002,-0.514,-0.581,-0.631
3885936,6882.0,8632.0,-3164.0,0.021,0.51,0.596,0.62
3885952,6546.0,8796.0,-3120.0,0.044,0.506,0.611,0.608
3885978,6380.0,8432.0,-3368.0,0.068,0.501,0.625,0.595
3885994,5974.0,8444.0,-3368.0,0.093,0.496,0.639,0.581
3886010,5866.0,8376.0,-3680.0,0.118,0.491,0.652,0.566
3886026,5756.0,8194.0,-3802.0,0.143,0.485,0.665,0.55
3886042,5126.0,8196.0,-3500.0,0.167,0.479,0.678,0.532
3886068,4784.0,8038.0,-3538.0,0.192,0.472,0.69,0.514
3886085,4264.0,7718.0,-3506.0,0.216,0.465,0.701,0.495
3886102,3978.0,7770.0,-3448.0,0.24,0.458,0.711,0.476
3886119,3862.0,7352.0,-3830.0,0.263,0.451,0.721,0.455
3886138,3130.0,6726.0,-3574.0,0.284,0.444,0.731,0.434
3886154,3054.0,6990.0,-3970.0,0.304,0.437,0.74,0.411
3886170,2354.0,6748.0,-3818.0,0.322,0.43,0.749,0.388
3886187,1608.0,6458.0,-3646.0,0.339,0.424,0.756,0.365
3886203,1340.0,6316.0,-3674.0,0.356,0.418,0.763,0.34
3886219,718.0,5992.0,-3244.0,0.373,0.412,0.769,0.315
3886236,292.0,6088.0,-3442.0,0.389,0.406,0.774,0.29
3886253,-64.0,5488.0,-3338.0,0.405,0.401,0.778,0.266
3886270,-472.0,5384.0,-3516.0,0.419,0.396,0.78,0.241
3886296,-844.0,5336.0,-3444.0,0.433,0.392,0.782,0.218
3886313,-1398.0,5256.0,-3174.0,0.445,0.389,0.783,0.195
3886329,-1636.0,4812.0,-3240.0,0.457,0.385,0.783,0.173
3886345,-1766.0,4940.0,-3416.0,0.467,0.381,0.783,0.152
3886361,-2116.0,4386.0,-3466.0,0.477,0.378,0.783,0.132
3886378,-2544.0,4446.0,-3180.0,0.485,0.374,0.782,0.113
3886395,-3090.0,3870.0,-2660.0,0.493,0.371,0.782,0.094
3886412,-3140.0,3880.0,-2810.0,0.5,0.366,0.781,0.077
3886439,-3528.0,3226.0,-2648.0,0.507,0.362,0.78,0.062
3886455,-4204.0,2852.0,-2090.0,0.514,0.358,0.778,0.047
3886471,-4810.0,2994.0,-2076.0,0.521,0.353,0.776,0.034
3886487,-5160.0,2302.0,-1332.0,0.527,0.349,0.775,0.024
3886503,-5526.0,1772.0,-900.0,0.533,0.344,0.773,0.016
3886519,-5648.0,1980.0,-758.0,0.537,0.34,0.772,0.011
3886535,-5600.0,1358.0,-28.0,0.538,0.337,0.773,0.009
3886562,-5774.0,872.0,186.0,0.536,0.337,0.774,0.009
3886578,-5918.0,928.0,664.0,0.532,0.338,0.776,0.013
3886594,-5978.0,1144.0,672.0,0.527,0.34,0.779,0.019
3886610,-5762.0,1168.0,304.0,0.519,0.343,0.783,0.029
3886626,-5510.0,1184.0,192.0,0.51,0.347,0.786,0.041
3886642,-5294.0,1774.0,-110.0,0.499,0.352,0.79,0.055
3886668,-4578.0,2094.0,-1010.0,0.487,0.357,0.794,0.072
3886684,-4382.0,1982.0,-1152.0,0.474,0.364,0.797,0.09
3886700,-3672.0,2852.0,-2144.0,0.46,0.37,0.799,0.111
3886716,-3214.0,3212.0,-2848.0,0.446,0.376,0.801,0.133
3886732,-3050.0,3680.0,-2966.0,0.43,0.382,0.802,0.158
3886749,-2340.0,4622.0,-3398.0,0.414,0.388,0.803,0.183
3886775,-1904.0,4346.0,-4034.0,0.398,0.394,0.802,0.21
3886791,-1320.0,5334.0,-4420.0,0.381,0.398,0.8,0.237
3886807,-1452.0,5424.0,-3670.0,0.364,0.404,0.797,0.265
3886823,284.0,6124.0,-4856.0,0.346,0.41,0.792,0.292
3886839,-218.0,5710.0,-4040.0,0.328,0.416,0.786,0.319
3886855,1168.0,6868.0,-4960.0,0.308,0.422,0.78,0.346
3886881,1802.0,7300.0,-5152.0,0.287,0.428,0.773,0.371
3886897,2224.0,8780.0,-5048.0,0.266,0.434,0.765,0.396
3886913,1770.0,7644.0,-3976.0,0.245,0.441,0.754,0.42
3886929,4442.0,7330.0,-5426.0,0.224,0.447,0.744,0.442
3886946,3510.0,7824.0,-4408.0,0.204,0.453,0.735,0.462
3886962,4062.0,8430.0,-4102.0,0.183,0.459,0.724,0.481
3886978,5458.0,8982.0,-5160.0,0.163,0.465,0.713,0.499
3887004,4646.0,8140.0,-3914.0,0.142,0.47,0.702,0.515
3887020,5724.0,8290.0,-4452.0,0.123,0.474,0.692,0.53
3887037,5702.0,8416.0,-4636.0,0.103,0.478,0.682,0.544
3887053,4792.0,7704.0,-3538.0,0.083,0.481,0.672,0.557
3887069,5984.0,8388.0,-4264.0,0.064,0.484,0.662,0.569
3887086,4932.0,7618.0,-3210.0,0.045,0.487,0.652,0.58
3887112,5808.0,7494.0,-3472.0,0.026,0.489,0.642,0.59
3887128,5986.0,7260.0,-3396.0,0.006,0.49,0.633,0.599
3887144,5868.0,7262.0,-3124.0,0.014,-0.49,-0.624,-0.608
3887161,5700.0,7304.0,-2692.0,0.033,-0.491,-0.615,-0.617
3887178,6160.0,6698.0,-2658.0,0.051,-0.49,-0.605,-0.625
3887195,6794.0,6982.0,-3042.0,0.07,-0.49,-0.596,-0.632
3887211,6724.0,7160.0,-2696.0,0.088,-0.489,-0.587,-0.639
3887228,7172.0,7002.0,-2836.0,0.105,-0.487,-0.578,-0.646
3887245,7384.0,7106.0,-2790.0,0.12,-0.485,-0.57,-0.652
3887262,7128.0,6972.0,-2770.0,0.134,-0.484,-0.563,-0.657
3887289,6884.0,7216.0,-2850.0,0.146,-0.482,-0.556,-0.661
3887305,6562.0,7124.0,-3102.0,0.156,-0.482,-0.55,-0.664
3887321,6168.0,7228.0,-3228.0,0.164,-0.482,-0.545,-0.667
3887337,6156.0,7610.0,-3672.0,0.169,-0.483,-0.54,-0.668
3887354,6114.0,7504.0,-3958.0,0.172,-0.484,-0.537,-0.669
3887371,5894.0,7558.0,-4032.0,0.173,-0.485,-0.535,-0.67
3887387,5600.0,7702.0,-4054.0,0.171,-0.487,-0.535,-0.669
3887404,5486.0,7830.0,-4036.0,0.166,-0.489,-0.536,-0.668
3887421,5630.0,7810.0,-4186.0,0.16,-0.491,-0.538,-0.666
3887438,5824.0,8130.0,-4160.0,0.151,-0.493,-0.542,-0.664
3887464,5848.0,7944.0,-4164.0,0.139,-0.495,-0.547,-0.661
3887480,5918.0,8608.0,-4188.0,0.125,-0.498,-0.553,-0.656
3887497,5764.0,8924.0,-4186.0,0.109,-0.5,-0.56,-0.651
3887514,5960.0,8984.0,-4176.0,0.09,-0.503,-0.568,-0.645
3887531,6178.0,9010.0,-4240.0,0.07,-0.505,-0.577,-0.638
3887548,6416.0,9148.0,-4350.0,0.048,-0.507,-0.587,-0.63
3887565,6392.0,9366.0,-4246.0,0.025,-0.509,-0.597,-0.62
3887581,6626.0,9376.0,-4332.0,0.001,0.51,0.607,0.609
3887598,6736.0,9408.0,-4232.0,0.026,0.511,0.618,0.596
3887624,6892.0,9134.0,-4340.0,0.052,0.512,0.63,0.582
3887641,6664.0,9154.0,-4192.0,0.08,0.512,0.641,0.566
3887657,6532.0,9262.0,-4202.0,0.108,0.512,0.652,0.549
3887674,6410.0,8946.0,-4356.0,0.136,0.51,0.662,0.531
3887690,6048.0,9038.0,-4296.0,0.166,0.508,0.672,0.512
3887707,6138.0,8832.0,-4640.0,0.195,0.505,0.681,0.492
3887723,5858.0,9052.0,-4698.0,0.225,0.501,0.69,0.471
3887739,6052.0,9256.0,-5158.0,0.255,0.496,0.698,0.449
3887765,4600.0,8558.0,-4166.0,0.285,0.49,0.705,0.426
3887781,4982.0,8658.0,-4892.0,0.314,0.483,0.711,0.402
3887797,3630.0,8136.0,-4184.0,0.344,0.476,0.717,0.376
3887813,2808.0,7328.0,-4070.0,0.372,0.468,0.721,0.35
3887829,2292.0,7162.0,-3828.0,0.399,0.46,0.724,0.323
3887855,1398.0,7116.0,-3344.0,0.425,0.452,0.725,0.297
3887871,1006.0,6440.0,-3222.0,0.451,0.444,0.726,0.269
3887887,606.0,5666.0,-2664.0,0.475,0.436,0.725,0.242
3887903,-452.0,4628.0,-1984.0,0.498,0.428,0.723,0.214
3887919,-728.0,4854.0,-1772.0,0.519,0.42,0.721,0.185
3887935,-978.0,4604.0,-1808.0,0.538,0.411,0.719,0.158
3887961,-1502.0,3508.0,-1488.0,0.555,0.402,0.716,0.131
3887977,-1698.0,3798.0,-1196.0,0.571,0.394,0.713,0.105
3887993,-1958.0,3754.0,-1264.0,0.583,0.385,0.711,0.079
3888009,-2678.0,2932.0,-772.0,0.594,0.378,0.708,0.055
3888025,-3120.0,2626.0,-450.0,0.604,0.37,0.705,0.032
3888041,-3234.0,2154.0,64.0,0.611,0.363,0.703,0.011
3888057,-3884.0,1906.0,474.0,0.617,0.357,0.701,-0.009
3888083,-4208.0,1324.0,760.0,0.622,0.351,0.7,-0.026
3888099,-4344.0,786.0,1150.0,0.624,0.346,0.699,-0.041
3888116,-4568.0,880.0,1028.0,0.625,0.343,0.699,-0.053
3888132,-4966.0,676.0,1094.0,0.623,0.342,0.701,-0.063
3888150,-5054.0,542.0,1440.0,0.619,0.342,0.704,-0.068
3888166,-5190.0,-62.0,1476.0,0.612,0.345,0.708,-0.071
3888183,-5510.0,70.0,1588.0,0.603,0.35,0.714,-0.071
3888199,-5530.0,470.0,1278.0,0.59,0.358,0.72,-0.068
3888225,-5566.0,858.0,710.0,0.576,0.367,0.728,-0.062
3888241,-5786.0,1120.0,476.0,0.561,0.377,0.735,-0.053
3888257,-5478.0,724.0,-196.0,0.544,0.387,0.743,-0.042
3888273,-5410.0,2376.0,-800.0,0.526,0.398,0.751,-0.027
3888289,-4892.0,2630.0,-1840.0,0.509,0.409,0.758,-0.009
3888315,-4912.0,2990.0,-1998.0,0.492,0.419,0.763,0.012
3888331,-4136.0,3232.0,-2512.0,0.476,0.428,0.768,0.035
3888347,-3754.0,3836.0,-3484.0,0.461,0.435,0.771,0.062
3888363,-3566.0,3602.0,-3416.0,0.445,0.443,0.773,0.09
3888379,-2052.0,4088.0,-4852.0,0.43,0.449,0.775,0.119
3888395,-2986.0,4666.0,-3856.0,0.414,0.454,0.775,0.148
3888421,-1998.0,4716.0,-4056.0,0.399,0.458,0.774,0.178
3888437,-1200.0,6054.0,-5050.0,0.385,0.463,0.771,0.21
3888453,-1466.0,5106.0,-3772.0,0.369,0.468,0.765,0.242
3888470,564.0,5708.0,-5286.0,0.352,0.474,0.76,0.273
3888486,-194.0,6522.0,-4322.0,0.334,0.48,0.752,0.304
3888502,902.0,6546.0,-4392.0,0.315,0.486,0.743,0.335
3888519,3032.0,7824.0,-5630.0,0.296,0.491,0.733,0.365
3888535,1734.0,7508.0,-4258.0,0.276,0.497,0.722,0.395
3888562,3376.0,7398.0,-5088.0,0.256,0.502,0.71,0.422
3888578,3998.0,8572.0,-4860.0,0.235,0.508,0.696,0.45
3888594,5298.0,7998.0,-5314.0,0.214,0.512,0.683,0.475
3888610,5094.0,8946.0,-4506.0,0.193,0.516,0.669,0.499
3888626,4750.0,7170.0,-3618.0,0.174,0.521,0.654,0.52
3888642,6370.0,7826.0,-4482.0,0.154,0.525,0.641,0.539
3888668,5502.0,8200.0,-3404.0,0.135,0.529,0.627,0.556
3888684,5338.0,7514.0,-3074.0,0.116,0.533,0.612,0.573
3888700,5996.0,7922.0,-3290.0,0.098,0.537,0.597,0.587
3888716,7130.0,7148.0,-3734.0,0.08,0.541,0.583,0.601
3888732,6516.0,7430.0,-3168.0,0.06,0.544,0.569,0.614
3888748,6830.0,8066.0,-3128.0,0.041,0.545,0.556,0.626
3888774,6936.0,7828.0,-2854.0,0.022,0.546,0.544,0.637
3888790,6424.0,7260.0,-2294.0,0.005,0.546,0.531,0.648
3888806,7226.0,7328.0,-2778.0,0.013,-0.546,-0.519,-0.657
3888822,6624.0,7174.0,-1998.0,0.03,-0.546,-0.507,-0.666
3888839,7450.0,7420.0,-2450.0,0.047,-0.545,-0.496,-0.674
3888856,7570.0,7456.0,-2194.0,0.063,-0.545,-0.484,-0.682
3888873,7762.0,7346.0,-2108.0,0.077,-0.544,-0.473,-0.689
3888890,7224.0,6900.0,-1628.0,0.09,-0.543,-0.463,-0.695
3888916,7372.0,6918.0,-1976.0,0.1,-0.543,-0.453,-0.7
3888933,6946.0,6740.0,-1758.0,0.109,-0.543,-0.445,-0.704
3888950,6862.0,6698.0,-1600.0,0.115,-0.544,-0.438,-0.706
3888967,7052.0,6682.0,-1872.0,0.119,-0.545,-0.433,-0.708
3888984,7040.0,6492.0,-1826.0,0.121,-0.547,-0.429,-0.708
3889001,6750.0,6930.0,-1892.0,0.122,-0.55,-0.427,-0.708
3889018,6554.0,6920.0,-1990.0,0.121,-0.552,-0.426,-0.707
3889035,6296.0,7114.0,-2048.0,0.118,-0.555,-0.426,-0.705
3889052,6060.0,7324.0,-2110.0,0.113,-0.557,-0.427,-0.703
3889069,5922.0,7306.0,-2082.0,0.107,-0.56,-0.429,-0.701
3889086,5808.0,7284.0,-2068.0,0.099,-0.562,-0.433,-0.698
3889103,5866.0,7438.0,-2124.0,0.09,-0.564,-0.437,-0.694
3889120,5908.0,7524.0,-2112.0,0.08,-0.566,-0.443,-0.691
3889137,6176.0,7564.0,-2146.0,0.068,-0.567,-0.451,-0.686
3889164,6408.0,7720.0,-2224.0,0.055,-0.569,-0.459,-0.68
3889181,6874.0,7902.0,-2456.0,0.04,-0.569,-0.469,-0.674
3889197,6982.0,8130.0,-2566.0,0.024,-0.57,-0.48,-0.667
3889214,7160.0,8346.0,-2746.0,0.007,-0.57,-0.492,-0.659
3889230,7348.0,8378.0,-2872.0,0.011,0.569,0.504,0.649
3889246,7268.0,8962.0,-2974.0,0.031,0.568,0.518,0.638
3889262,7336.0,8912.0,-3268.0,0.052,0.567,0.532,0.627
3889288,7120.0,9030.0,-3350.0,0.074,0.566,0.546,0.613
3889304,6638.0,9010.0,-3360.0,0.097,0.563,0.561,0.599
3889320,6478.0,9760.0,-3686.0,0.12,0.561,0.576,0.583
3889337,6420.0,9630.0,-3820.0,0.145,0.558,0.59,0.566
3889353,6420.0,10136.0,-4126.0,0.17,0.554,0.603,0.548
3889369,7060.0,10336.0,-4728.0,0.197,0.549,0.617,0.529
3889386,5896.0,9810.0,-4130.0,0.225,0.543,0.629,0.508
3889413,4978.0,9648.0,-4216.0,0.255,0.536,0.641,0.486
3889429,4130.0,9514.0,-4052.0,0.285,0.529,0.652,0.463
3889445,3430.0,8910.0,-4082.0,0.315,0.521,0.661,0.439
3889461,2754.0,8790.0,-3900.0,0.344,0.512,0.669,0.414
3889477,2346.0,8284.0,-3614.0,0.374,0.503,0.675,0.389
3889493,2060.0,7728.0,-3364.0,0.402,0.494,0.68,0.364
3889519,1670.0,7288.0,-3080.0,0.429,0.484,0.683,0.338
3889536,1168.0,6032.0,-2834.0,0.455,0.474,0.687,0.311
3889552,624.0,6162.0,-2834.0,0.478,0.464,0.69,0.284
3889569,352.0,6028.0,-2376.0,0.499,0.455,0.692,0.256
3889586,138.0,5544.0,-2430.0,0.517,0.447,0.694,0.227
3889603,-466.0,5826.0,-2146.0,0.534,0.44,0.695,0.197
3889620,-632.0,5396.0,-2282.0,0.548,0.434,0.695,0.168
3889637,-1276.0,5080.0,-2246.0,0.561,0.428,0.695,0.138
3889654,-1374.0,3754.0,-2144.0,0.572,0.423,0.694,0.109
3889670,-2026.0,3744.0,-1938.0,0.581,0.419,0.694,0.08
3889687,-2402.0,3200.0,-1872.0,0.588,0.414,0.693,0.051
3889705,-2720.0,3118.0,-1668.0,0.594,0.41,0.692,0.022
3889721,-3290.0,2574.0,-1206.0,0.599,0.406,0.69,-0.005
3889747,-3594.0,2512.0,-1068.0,0.603,0.401,0.689,-0.029
3889763,-3954.0,1876.0,-558.0,0.607,0.396,0.687,-0.052
3889779,-3904.0,1460.0,-504.0,0.609,0.391,0.686,-0.072
3889795,-4256.0,802.0,50.0,0.611,0.386,0.685,-0.09
3889811,-4630.0,928.0,550.0,0.611,0.382,0.686,-0.104
3889837,-4958.0,492.0,1234.0,0.61,0.378,0.687,-0.115
3889853,-5250.0,710.0,1238.0,0.607,0.376,0.69,-0.122
3889869,-5318.0,-20.0,1778.0,0.602,0.376,0.694,-0.125
3889886,-5360.0,-54.0,1344.0,0.594,0.378,0.699,-0.126
3889903,-5576.0,-554.0,1406.0,0.585,0.382,0.705,-0.123
3889919,-5960.0,334.0,1026.0,0.574,0.388,0.711,-0.118
3889935,-5750.0,560.0,688.0,0.563,0.396,0.718,-0.109
3889961,-5570.0,950.0,-172.0,0.55,0.404,0.724,-0.097
3889978,-5418.0,1604.0,-616.0,0.537,0.413,0.731,-0.082
3889994,-5230.0,1926.0,-934.0,0.524,0.422,0.737,-0.064
3890010,-4950.0,2048.0,-1464.0,0.511,0.431,0.743,-0.042
3890026,-4612.0,2328.0,-1732.0,0.498,0.44,0.748,-0.018
3890042,-4380.0,3048.0,-2372.0,0.485,0.448,0.751,0.008
3890059,-3964.0,3066.0,-2736.0,0.471,0.456,0.754,0.036
3890075,-3696.0,3802.0,-3400.0,0.458,0.463,0.756,0.066
3890101,-3954.0,3794.0,-2818.0,0.445,0.471,0.756,0.097
3890117,-3150.0,4756.0,-3668.0,0.431,0.478,0.754,0.13
3890134,-2712.0,4804.0,-3910.0,0.418,0.485,0.75,0.164
3890151,-2258.0,5062.0,-4148.0,0.403,0.493,0.745,0.198
3890171,-1568.0,5514.0,-4308.0,0.388,0.501,0.738,0.231
3890187,294.0,6042.0,-5318.0,0.371,0.508,0.731,0.264
3890203,372.0,8010.0,-5540.0,0.353,0.515,0.723,0.297
3890219,978.0,7636.0,-4676.0,0.335,0.521,0.711,0.331
3890235,2876.0,6654.0,-5450.0,0.317,0.528,0.699,0.363
3890261,2934.0,7902.0,-5528.0,0.299,0.533,0.687,0.392
3890277,2674.0,7048.0,-4276.0,0.281,0.54,0.674,0.419
3890293,4570.0,8364.0,-4968.0,0.263,0.546,0.66,0.444
3890309,4472.0,7960.0,-4272.0,0.245,0.552,0.646,0.467
3890326,5432.0,7746.0,-4682.0,0.227,0.558,0.631,0.489
3890342,5710.0,8052.0,-4366.0,0.207,0.564,0.617,0.508
3890368,5528.0,8360.0,-3492.0,0.186,0.569,0.604,0.526
3890384,5390.0,7772.0,-2630.0,0.167,0.574,0.59,0.542
3890400,7428.0,7642.0,-4156.0,0.147,0.579,0.576,0.558
3890416,6602.0,7054.0,-3100.0,0.125,0.581,0.564,0.573
3890432,7396.0,8568.0,-3160.0,0.104,0.583,0.551,0.588
3890448,7508.0,7924.0,-2810.0,0.084,0.583,0.538,0.602
3890474,7486.0,7530.0,-2326.0,0.065,0.583,0.526,0.616
3890490,8154.0,7450.0,-3046.0,0.046,0.582,0.513,0.63
3890506,7150.0,7162.0,-2060.0,0.029,0.58,0.501,0.642
3890522,7330.0,7160.0,-1992.0,0.012,0.578,0.489,0.653
3890538,7344.0,6988.0,-1864.0,0.004,-0.576,-0.477,-0.664
3890555,7334.0,6782.0,-1884.0,0.02,-0.573,-0.465,-0.674
3890581,7504.0,6336.0,-1998.0,0.035,-0.57,-0.454,-0.684
3890599,7620.0,6772.0,-1966.0,0.05,-0.566,-0.443,-0.694
3890616,7206.0,6926.0,-1620.0,0.064,-0.561,-0.433,-0.702
3890633,7424.0,6590.0,-1588.0,0.076,-0.558,-0.424,-0.71
3890650,7410.0,6526.0,-1612.0,0.087,-0.554,-0.416,-0.716
3890668,7024.0,6536.0,-1436.0,0.096,-0.55,-0.41,-0.722
3890685,6630.0,6742.0,-1432.0,0.104,-0.547,-0.404,-0.726
3890702,6380.0,6826.0,-1414.0,0.11,-0.545,-0.4,-0.728
3890719,6366.0,6682.0,-1596.0,0.114,-0.544,-0.398,-0.73
3890736,6494.0,6948.0,-1778.0,0.116,-0.544,-0.397,-0.73
3890753,6286.0,6858.0,-1880.0,0.117,-0.543,-0.398,-0.73
3890770,6014.0,6990.0,-2022.0,0.116,-0.544,-0.4,-0.729
3890786,5898.0,7338.0,-2214.0,0.114,-0.544,-0.403,-0.727
3890802,5712.0,7464.0,-2328.0,0.111,-0.546,-0.407,-0.724
3890828,5776.0,7526.0,-2518.0,0.105,-0.547,-0.413,-0.721
3890844,5892.0,7550.0,-2426.0,0.098,-0.548,-0.42,-0.717
3890860,6018.0,7578.0,-2432.0,0.09,-0.549,-0.428,-0.712
3890876,6284.0,7532.0,-2486.0,0.079,-0.551,-0.438,-0.706
3890892,6492.0,7832.0,-2656.0,0.067,-0.552,-0.449,-0.699
3890908,6564.0,7936.0,-2670.0,0.053,-0.555,-0.46,-0.691
3890925,7036.0,8312.0,-3022.0,0.037,-0.557,-0.472,-0.682
3890951,7028.0,8166.0,-2974.0,0.021,-0.56,-0.485,-0.672
3890968,7308.0,8330.0,-3258.0,0.003,-0.563,-0.498,-0.66
3890984,7294.0,8432.0,-3272.0,0.016,0.565,0.512,0.647
3891000,6978.0,8708.0,-3202.0,0.036,0.566,0.526,0.633
3891017,6896.0,8774.0,-3400.0,0.057,0.568,0.54,0.618
3891033,6972.0,8900.0,-3702.0,0.079,0.569,0.555,0.602
3891049,7144.0,8980.0,-3910.0,0.101,0.57,0.569,0.585
3891075,6578.0,9006.0,-3730.0,0.124,0.57,0.583,0.566
3891091,6506.0,8998.0,-3938.0,0.148,0.569,0.596,0.547
3891107,6246.0,8774.0,-4028.0,0.172,0.568,0.609,0.526
3891123,6148.0,8990.0,-4182.0,0.196,0.566,0.621,0.505
3891139,6002.0,9100.0,-4236.0,0.221,0.564,0.632,0.483
3891155,5568.0,8940.0,-4218.0,0.246,0.561,0.643,0.46
3891181,5190.0,8348.0,-4384.0,0.272,0.557,0.652,0.436
3891197,4648.0,8240.0,-4322.0,0.297,0.552,0.661,0.412
3891213,3682.0,7420.0,-3864.0,0.322,0.547,0.669,0.388
3891229,3494.0,7684.0,-4218.0,0.346,0.54,0.676,0.363
3891245,2372.0,7198.0,-3718.0,0.369,0.534,0.682,0.338
3891271,2014.0,6840.0,-3592.0,0.391,0.527,0.686,0.312
3891287,978.0,5980.0,-2968.0,0.413,0.52,0.691,0.286
3891304,880.0,6260.0,-3218.0,0.434,0.513,0.694,0.26
3891320,204.0,5368.0,-2904.0,0.453,0.505,0.696,0.234
3891336,-74.0,5668.0,-3106.0,0.47,0.497,0.699,0.208
3891353,-626.0,5488.0,-2774.0,0.486,0.489,0.701,0.184
3891370,-1214.0,4966.0,-2476.0,0.5,0.481,0.702,0.16
3891387,-1636.0,4700.0,-2500.0,0.513,0.474,0.703,0.136
3891404,-1894.0,4596.0,-2628.0,0.523,0.468,0.703,0.113
3891431,-2426.0,4696.0,-2566.0,0.532,0.461,0.704,0.09
3891447,-2780.0,4050.0,-2178.0,0.54,0.456,0.704,0.067
3891463,-2748.0,3482.0,-2110.0,0.547,0.45,0.704,0.046
3891479,-3024.0,2970.0,-2016.0,0.552,0.445,0.704,0.025
3891495,-3402.0,2446.0,-1696.0,0.556,0.441,0.704,0.004
3891511,-3774.0,2684.0,-1390.0,0.56,0.437,0.704,-0.015
3891527,-4076.0,2180.0,-1230.0,0.562,0.433,0.704,-0.032
3891553,-4234.0,1490.0,-910.0,0.564,0.429,0.704,-0.047
3891569,-4672.0,1112.0,-556.0,0.565,0.427,0.704,-0.061
3891585,-4918.0,1360.0,-298.0,0.565,0.425,0.704,-0.072
3891602,-4820.0,1214.0,-194.0,0.564,0.424,0.705,-0.079
3891618,-5362.0,704.0,496.0,0.56,0.425,0.706,-0.082
3891634,-5650.0,572.0,966.0,0.555,0.427,0.709,-0.083
3891660,-5840.0,780.0,1074.0,0.549,0.432,0.711,-0.079
3891676,-6096.0,564.0,1146.0,0.542,0.437,0.715,-0.072
3891692,-6178.0,1096.0,966.0,0.534,0.443,0.718,-0.061
3891708,-5970.0,1302.0,592.0,0.525,0.449,0.722,-0.046
3891724,-5640.0,1340.0,34.0,0.515,0.457,0.725,-0.027
3891740,-5132.0,1788.0,-422.0,0.505,0.464,0.728,-0.005
3891766,-4182.0,2094.0,-1634.0,0.494,0.472,0.73,0.02
3891782,-3904.0,2496.0,-1858.0,0.482,0.48,0.732,0.047
3891799,-3536.0,3478.0,-2370.0,0.47,0.487,0.732,0.075
3891815,-3026.0,4008.0,-2970.0,0.458,0.494,0.731,0.106
3891831,-2174.0,4474.0,-3982.0,0.447,0.5,0.729,0.138
3891848,-2252.0,4900.0,-4014.0,0.435,0.506,0.725,0.169
3891864,-1532.0,5400.0,-4600.0,0.425,0.511,0.72,0.2
3891891,-536.0,5948.0,-5232.0,0.414,0.516,0.714,0.23
3891907,12.0,6386.0,-5242.0,0.401,0.522,0.707,0.259
3891923,964.0,7484.0,-5646.0,0.389,0.527,0.699,0.287
3891939,510.0,6968.0,-4722.0,0.377,0.533,0.689,0.315
3891955,1214.0,7280.0,-4740.0,0.364,0.539,0.678,0.342
3891971,2318.0,7864.0,-5346.0,0.35,0.546,0.667,0.366
3891987,1340.0,8034.0,-3980.0,0.336,0.553,0.655,0.39
3892013,2480.0,8158.0,-4382.0,0.322,0.56,0.643,0.412
3892029,2862.0,7576.0,-3862.0,0.306,0.567,0.63,0.434
3892045,3496.0,8704.0,-4114.0,0.289,0.573,0.618,0.454
3892061,3546.0,8848.0,-3768.0,0.272,0.58,0.605,0.473
3892077,3874.0,8390.0,-3602.0,0.255,0.585,0.592,0.492
3892093,3970.0,7922.0,-3214.0,0.238,0.59,0.579,0.51
3892119,3830.0,7652.0,-2716.0,0.221,0.594,0.566,0.528
3892135,5214.0,8218.0,-3504.0,0.202,0.597,0.554,0.545
3892151,4908.0,8464.0,-2804.0,0.183,0.599,0.541,0.561
3892167,5202.0,8534.0,-2598.0,0.166,0.6,0.528,0.578
3892183,5526.0,8076.0,-2216.0,0.15,0.601,0.515,0.593
3892199,6368.0,7460.0,-2776.0,0.132,0.6,0.502,0.608
3892219,5978.0,7686.0,-1946.0,0.115,0.599,0.489,0.623
3892235,6996.0,8496.0,-2616.0,0.098,0.597,0.477,0.638
3892261,6736.0,7654.0,-1850.0,0.082,0.595,0.464,0.652
3892277,7036.0,8156.0,-1596.0,0.067,0.592,0.451,0.665
3892294,7736.0,7312.0,-1884.0,0.053,0.59,0.438,0.677
3892310,7198.0,7026.0,-1076.0,0.04,0.587,0.425,0.688
3892327,7596.0,7064.0,-1186.0,0.028,0.584,0.413,0.698
3892343,7456.0,6660.0,-958.0,0.016,0.581,0.402,0.708
3892359,7594.0,6614.0,-916.0,0.004,0.578,0.391,0.717
3892385,7688.0,6494.0,-994.0,0.006,-0.575,-0.38,-0.724
3892401,7252.0,6288.0,-594.0,0.016,-0.572,-0.371,-0.731
3892418,7044.0,6094.0,-478.0,0.024,-0.569,-0.363,-0.737
3892435,6896.0,5788.0,-504.0,0.032,-0.567,-0.355,-0.742
3892451,6746.0,5740.0,-488.0,0.038,-0.565,-0.35,-0.746
3892468,6704.0,5672.0,-476.0,0.044,-0.564,-0.346,-0.749
3892484,6762.0,5718.0,-660.0,0.049,-0.563,-0.343,-0.75
3892500,6616.0,5824.0,-718.0,0.053,-0.562,-0.342,-0.751
3892526,6566.0,5758.0,-998.0,0.056,-0.562,-0.342,-0.751
3892542,6354.0,5990.0,-972.0,0.058,-0.561,-0.344,-0.751
3892558,6114.0,6164.0,-992.0,0.058,-0.561,-0.347,-0.749
3892574,6156.0,6072.0,-1164.0,0.057,-0.562,-0.352,-0.747
3892590,6184.0,6302.0,-1294.0,0.055,-0.563,-0.358,-0.743
3892606,6284.0,6466.0,-1516.0,0.053,-0.564,-0.364,-0.739
3892632,6434.0,6694.0,-1754.0,0.049,-0.566,-0.373,-0.734
3892648,6492.0,6806.0,-1862.0,0.043,-0.567,-0.382,-0.728
3892664,6470.0,7082.0,-1958.0,0.036,-0.57,-0.392,-0.721
3892681,6552.0,7134.0,-2100.0,0.027,-0.573,-0.403,-0.713
3892697,6570.0,7406.0,-2170.0,0.016,-0.576,-0.415,-0.704
3892713,6740.0,7650.0,-2328.0,0.004,-0.579,-0.428,-0.694
3892740,6976.0,7776.0,-2498.0,0.009,0.583,0.441,0.683
3892756,7024.0,8008.0,-2628.0,0.025,0.586,0.454,0.67
3892772,7200.0,7594.0,-2684.0,0.041,0.59,0.468,0.657
3892788,7472.0,7902.0,-3066.0,0.058,0.593,0.483,0.642
3892804,7168.0,8320.0,-3038.0,0.076,0.595,0.499,0.625
3892820,7072.0,9138.0,-3330.0,0.096,0.598,0.515,0.607
3892846,6798.0,8648.0,-3472.0,0.116,0.6,0.531,0.587
3892862,6354.0,9056.0,-3448.0,0.138,0.602,0.546,0.566
3892878,6548.0,8964.0,-4174.0,0.158,0.604,0.561,0.544
3892894,5432.0,8688.0,-3714.0,0.179,0.604,0.576,0.521
3892910,5254.0,9076.0,-3924.0,0.2,0.604,0.59,0.497
3892926,5046.0,8472.0,-4104.0,0.221,0.603,0.604,0.473
3892952,4570.0,8646.0,-4176.0,0.241,0.601,0.617,0.448
3892968,4362.0,8474.0,-4312.0,0.26,0.599,0.629,0.423
3892984,3844.0,8210.0,-4302.0,0.278,0.596,0.64,0.397
3893000,3270.0,8088.0,-4140.0,0.296,0.593,0.65,0.371
3893016,3514.0,8294.0,-4824.0,0.314,0.589,0.66,0.345
3893033,2270.0,7368.0,-4114.0,0.331,0.585,0.668,0.319
3893059,2336.0,7454.0,-4530.0,0.348,0.581,0.675,0.293
3893075,1702.0,6998.0,-4246.0,0.364,0.577,0.681,0.267
3893091,1484.0,6430.0,-4544.0,0.379,0.572,0.686,0.242
3893107,654.0,6392.0,-4142.0,0.394,0.567,0.69,0.217
3893123,648.0,6248.0,-4416.0,0.408,0.561,0.694,0.193
3893139,-184.0,5684.0,-3928.0,0.422,0.556,0.697,0.168
3893165,-526.0,5134.0,-3928.0,0.434,0.55,0.699,0.144
3893181,-884.0,5214.0,-3816.0,0.446,0.544,0.7,0.12
3893197,-1132.0,4850.0,-3840.0,0.457,0.538,0.701,0.098
3893213,-1612.0,4316.0,-3606.0,0.467,0.533,0.702,0.075
3893229,-1918.0,4056.0,-3450.0,0.476,0.528,0.702,0.053
3893245,-2276.0,3668.0,-3170.0,0.484,0.523,0.701,0.032
3893261,-2730.0,3386.0,-3124.0,0.491,0.518,0.701,0.01
3893279,-3092.0,3884.0,-2960.0,0.497,0.513,0.7,-0.01
3893305,-3316.0,3410.0,-2702.0,0.502,0.508,0.699,-0.029
3893321,-3968.0,3368.0,-2722.0,0.506,0.504,0.698,-0.048
3893338,-5018.0,2846.0,-1912.0,0.51,0.499,0.697,-0.065
3893354,-5482.0,2608.0,-1478.0,0.514,0.494,0.696,-0.081
3893371,-5726.0,1790.0,-1418.0,0.518,0.489,0.695,-0.095
3893388,-5928.0,1154.0,-758.0,0.521,0.485,0.694,-0.107
3893405,-6114.0,790.0,-344.0,0.523,0.482,0.693,-0.117
3893421,-5964.0,802.0,-208.0,0.525,0.479,0.693,-0.124
3893448,-5782.0,726.0,-300.0,0.526,0.477,0.693,-0.127
3893465,-5572.0,436.0,-294.0,0.525,0.477,0.693,-0.128
3893481,-5380.0,662.0,-302.0,0.523,0.478,0.694,-0.126
3893497,-5308.0,700.0,-310.0,0.519,0.481,0.696,-0.12
3893513,-5006.0,812.0,-690.0,0.515,0.484,0.698,-0.112
3893530,-4946.0,862.0,-796.0,0.509,0.489,0.701,-0.101
3893546,-4852.0,1200.0,-970.0,0.502,0.494,0.704,-0.087
3893562,-4888.0,1384.0,-1104.0,0.496,0.499,0.707,-0.071
3893588,-4530.0,1540.0,-1726.0,0.489,0.504,0.71,-0.051
3893604,-4218.0,2096.0,-2170.0,0.482,0.509,0.712,-0.03
3893620,-4088.0,2596.0,-2506.0,0.475,0.515,0.714,-0.006
3893636,-3744.0,3090.0,-2990.0,0.467,0.521,0.714,0.019
3893652,-3242.0,3780.0,-3652.0,0.459,0.527,0.713,0.046
3893668,-3842.0,4062.0,-2730.0,0.452,0.532,0.712,0.073
3893694,-3140.0,4874.0,-3220.0,0.445,0.537,0.71,0.101
3893710,-1666.0,5332.0,-4546.0,0.437,0.541,0.707,0.13
3893726,-2146.0,5660.0,-4388.0,0.428,0.544,0.704,0.16
3893743,-2132.0,5948.0,-3910.0,0.418,0.548,0.7,0.19
3893760,-1244.0,6734.0,-4494.0,0.407,0.55,0.695,0.22
3893776,-256.0,6902.0,-5236.0,0.395,0.553,0.69,0.249
3893793,-1418.0,6622.0,-4004.0,0.383,0.556,0.684,0.278
3893810,72.0,7300.0,-4714.0,0.369,0.559,0.676,0.305
3893837,370.0,6562.0,-4588.0,0.355,0.563,0.669,0.331
3893853,-28.0,7628.0,-3774.0,0.34,0.567,0.66,0.356
3893870,2260.0,7878.0,-5214.0,0.324,0.572,0.651,0.38
3893886,1994.0,7974.0,-4464.0,0.306,0.576,0.641,0.403
3893902,2886.0,8288.0,-4592.0,0.288,0.58,0.632,0.425
3893918,3512.0,8282.0,-4554.0,0.272,0.584,0.622,0.446
3893935,3038.0,8384.0,-3808.0,0.255,0.587,0.612,0.466
3893962,4230.0,8022.0,-4198.0,0.239,0.589,0.6,0.485
3893978,5132.0,7874.0,-4624.0,0.222,0.59,0.59,0.505
3893994,4844.0,8854.0,-4022.0,0.205,0.59,0.579,0.523
3894010,4644.0,8742.0,-3444.0,0.191,0.591,0.568,0.541
3894027,5220.0,8172.0,-3450.0,0.178,0.591,0.556,0.557
3894043,5154.0,7748.0,-2948.0,0.164,0.59,0.544,0.574
3894059,5678.0,8278.0,-3014.0,0.151,0.59,0.532,0.589
3894086,5702.0,8474.0,-2654.0,0.138,0.589,0.52,0.603
3894103,6154.0,8316.0,-2656.0,0.127,0.587,0.508,0.617
3894120,5446.0,7866.0,-1840.0,0.118,0.586,0.495,0.631
3894137,5770.0,7218.0,-2138.0,0.108,0.584,0.483,0.643
3894154,5696.0,7214.0,-1770.0,0.098,0.583,0.47,0.656
3894171,6030.0,7312.0,-1632.0,0.088,0.581,0.457,0.668
3894187,6268.0,7346.0,-1384.0,0.078,0.579,0.444,0.68
3894203,6272.0,6940.0,-1204.0,0.068,0.576,0.431,0.691
3894219,6388.0,6504.0,-1242.0,0.058,0.574,0.419,0.701
3894235,6152.0,6406.0,-794.0,0.049,0.571,0.407,0.711
3894261,6600.0,6504.0,-904.0,0.039,0.568,0.396,0.72
3894277,6660.0,6530.0,-672.0,0.031,0.566,0.386,0.728
3894293,6842.0,6270.0,-718.0,0.023,0.564,0.376,0.735
3894309,7074.0,6082.0,-720.0,0.016,0.562,0.368,0.741
3894325,7154.0,6146.0,-578.0,0.009,0.56,0.362,0.745
3894341,7054.0,6388.0,-600.0,0.004,0.559,0.357,0.748
3894367,6886.0,6420.0,-732.0,0.001,-0.558,-0.354,-0.75
3894383,6528.0,6398.0,-688.0,0.004,-0.559,-0.353,-0.751
3894399,6476.0,6660.0,-824.0,0.007,-0.56,-0.353,-0.75
3894415,6264.0,6742.0,-976.0,0.008,-0.561,-0.354,-0.748
3894431,6126.0,6834.0,-1184.0,0.008,-0.562,-0.357,-0.746
3894447,5792.0,7020.0,-1338.0,0.008,-0.564,-0.361,-0.743
3894473,5476.0,7240.0,-1314.0,0.006,-0.565,-0.366,-0.739
3894489,5372.0,7468.0,-1402.0,0.003,-0.567,-0.373,-0.735
3894505,5366.0,7988.0,-1360.0,0.002,0.569,0.38,0.73
3894521,5488.0,7632.0,-1502.0,0.008,0.571,0.388,0.724
3894537,5820.0,8062.0,-1588.0,0.016,0.573,0.397,0.716
3894553,5914.0,8126.0,-1714.0,0.026,0.576,0.407,0.709
3894579,6164.0,8286.0,-1990.0,0.038,0.578,0.418,0.7
3894595,6334.0,8488.0,-2148.0,0.051,0.581,0.429,0.69
3894612,6484.0,8520.0,-2256.0,0.065,0.583,0.441,0.68
3894629,6690.0,8706.0,-2518.0,0.081,0.585,0.453,0.668
3894645,6702.0,8666.0,-2622.0,0.097,0.587,0.465,0.655
3894662,6362.0,8620.0,-2440.0,0.114,0.59,0.478,0.641
3894678,6382.0,8692.0,-2702.0,0.132,0.592,0.491,0.626
3894695,6180.0,8708.0,-2828.0,0.15,0.594,0.503,0.609
3894722,6162.0,8750.0,-3020.0,0.169,0.596,0.516,0.591
3894738,6084.0,8868.0,-3224.0,0.187,0.598,0.529,0.572
3894754,5650.0,8704.0,-3142.0,0.206,0.6,0.541,0.552
3894770,5482.0,9044.0,-3406.0,0.225,0.601,0.553,0.531
3894787,4830.0,8616.0,-3264.0,0.244,0.602,0.564,0.509
3894803,4724.0,8756.0,-3668.0,0.263,0.603,0.575,0.486
3894820,4528.0,8368.0,-3950.0,0.282,0.603,0.585,0.462
3894846,4018.0,8576.0,-4058.0,0.302,0.602,0.595,0.438
3894862,3490.0,8294.0,-4026.0,0.321,0.601,0.604,0.413
3894878,3402.0,7996.0,-4282.0,0.34,0.599,0.613,0.387
3894894,2818.0,8276.0,-4104.0,0.359,0.595,0.621,0.361
3894910,2280.0,7764.0,-4116.0,0.378,0.591,0.628,0.336
3894926,2120.0,7708.0,-4238.0,0.396,0.586,0.635,0.31
3894952,1614.0,7136.0,-4102.0,0.413,0.58,0.641,0.286
3894968,1170.0,7082.0,-3868.0,0.429,0.574,0.646,0.261
3894984,506.0,6866.0,-3602.0,0.445,0.568,0.651,0.236
3895000,-28.0,6354.0,-3450.0,0.46,0.561,0.656,0.211
3895016,-154.0,5662.0,-3416.0,0.474,0.553,0.659,0.185
3895032,-886.0,5794.0,-3232.0,0.487,0.546,0.663,0.159
3895050,-822.0,5724.0,-3354.0,0.499,0.539,0.666,0.133
3895077,-1478.0,5286.0,-3120.0,0.51,0.531,0.668,0.107
3895093,-1790.0,5388.0,-3128.0,0.52,0.524,0.67,0.081
3895109,-2122.0,4740.0,-2778.0,0.528,0.516,0.672,0.056
3895125,-2720.0,4440.0,-2508.0,0.536,0.508,0.673,0.03
3895141,-3112.0,4264.0,-2158.0,0.543,0.5,0.674,0.006
3895157,-3290.0,3492.0,-1772.0,0.55,0.491,0.675,-0.016
3895174,-3338.0,2292.0,-1538.0,0.556,0.483,0.675,-0.037
3895200,-4006.0,1628.0,-698.0,0.561,0.475,0.675,-0.057
3895217,-4494.0,2200.0,-484.0,0.566,0.468,0.674,-0.076
3895233,-4664.0,1692.0,-222.0,0.571,0.461,0.673,-0.093
3895249,-4518.0,1108.0,-330.0,0.575,0.455,0.671,-0.106
3895265,-4702.0,842.0,-142.0,0.578,0.451,0.67,-0.116
3895281,-4876.0,462.0,254.0,0.579,0.449,0.669,-0.124
3895297,-5290.0,732.0,730.0,0.578,0.449,0.669,-0.127
3895323,-5650.0,110.0,830.0,0.577,0.451,0.67,-0.128
3895339,-5966.0,248.0,1064.0,0.573,0.454,0.671,-0.125
3895355,-6124.0,626.0,1092.0,0.569,0.458,0.672,-0.119
3895371,-6250.0,656.0,998.0,0.564,0.464,0.675,-0.109
3895387,-6250.0,1158.0,614.0,0.557,0.471,0.677,-0.096
3895403,-5910.0,1384.0,122.0,0.551,0.479,0.679,-0.08
3895429,-5522.0,1898.0,-344.0,0.544,0.487,0.681,-0.061
3895446,-5098.0,2278.0,-520.0,0.536,0.495,0.683,-0.039
3895463,-4628.0,2934.0,-980.0,0.529,0.503,0.683,-0.016
3895479,-4078.0,3386.0,-1068.0,0.522,0.512,0.682,0.01
3895495,-3714.0,4018.0,-1448.0,0.516,0.521,0.679,0.038
3895511,-3294.0,3886.0,-1976.0,0.509,0.529,0.675,0.068
3895528,-1664.0,2468.0,-2796.0,0.501,0.537,0.671,0.1
3895554,-1568.0,5392.0,-3268.0,0.491,0.544,0.668,0.131
3895570,-1074.0,6292.0,-3874.0,0.479,0.55,0.664,0.164
3895586,-1030.0,6614.0,-3592.0,0.467,0.556,0.659,0.197
3895602,-598.0,6788.0,-3384.0,0.454,0.561,0.653,0.231
3895618,98.0,6784.0,-4604.0,0.441,0.565,0.646,0.264
3895634,-302.0,7290.0,-3770.0,0.427,0.569,0.637,0.296
3895660,596.0,7618.0,-4106.0,0.412,0.574,0.628,0.327
3895676,1332.0,8078.0,-4548.0,0.397,0.579,0.617,0.355
3895692,1486.0,7816.0,-3988.0,0.381,0.584,0.606,0.382
3895708,2568.0,8956.0,-4652.0,0.365,0.59,0.595,0.406
3895724,2444.0,8134.0,-4028.0,0.348,0.596,0.583,0.429
3895740,3660.0,8480.0,-4596.0,0.33,0.601,0.572,0.45
3895757,3762.0,8774.0,-4134.0,0.311,0.607,0.562,0.469
3895783,4170.0,8388.0,-3818.0,0.291,0.612,0.55,0.487
3895799,4720.0,8440.0,-3796.0,0.272,0.617,0.539,0.505
3895815,4836.0,7790.0,-3130.0,0.252,0.621,0.529,0.521
3895831,5900.0,8242.0,-3940.0,0.232,0.623,0.518,0.538
3895847,5198.0,7968.0,-3006.0,0.213,0.624,0.508,0.554
3895863,5530.0,8386.0,-3100.0,0.194,0.625,0.498,0.569
3895889,5598.0,7898.0,-2750.0,0.176,0.625,0.488,0.584
3895905,5512.0,7686.0,-2520.0,0.159,0.624,0.477,0.598
3895921,6016.0,8152.0,-2568.0,0.142,0.622,0.467,0.612
3895937,6592.0,8160.0,-2556.0,0.127,0.62,0.457,0.625
3895953,6820.0,8134.0,-2574.0,0.112,0.617,0.447,0.638
3895979,6434.0,8164.0,-1962.0,0.098,0.614,0.437,0.65
3895995,6818.0,7928.0,-2070.0,0.085,0.611,0.427,0.661
3896011,6280.0,7698.0,-1462.0,0.073,0.608,0.418,0.671
3896027,6690.0,7438.0,-1632.0,0.062,0.605,0.408,0.681
3896043,6506.0,7180.0,-1506.0,0.051,0.603,0.399,0.689
3896059,6498.0,7168.0,-1518.0,0.04,0.6,0.39,0.698
3896076,6528.0,7138.0,-1392.0,0.03,0.597,0.382,0.705
3896093,6566.0,6634.0,-1270.0,0.022,0.594,0.374,0.712
3896119,6340.0,6366.0,-976.0,0.014,0.592,0.367,0.717
3896135,6394.0,6196.0,-1172.0,0.006,0.59,0.361,0.722
3896151,6280.0,6080.0,-1110.0,0.0,-0.588,-0.356,-0.726
3896167,6552.0,6190.0,-1356.0,0.007,-0.587,-0.351,-0.729
3896184,6538.0,5852.0,-1134.0,0.011,-0.586,-0.348,-0.732
3896201,6598.0,5954.0,-1330.0,0.015,-0.585,-0.346,-0.734
3896217,6484.0,6028.0,-1286.0,0.017,-0.584,-0.345,-0.734
3896243,6152.0,5864.0,-1034.0,0.018,-0.585,-0.344,-0.734
3896260,6198.0,6148.0,-1240.0,0.018,-0.586,-0.345,-0.733
3896277,6178.0,6282.0,-1470.0,0.016,-0.587,-0.347,-0.731
3896293,6124.0,6504.0,-1554.0,0.014,-0.589,-0.349,-0.729
3896309,6218.0,6644.0,-1644.0,0.01,-0.591,-0.352,-0.726
3896326,6274.0,6816.0,-1846.0,0.005,-0.593,-0.356,-0.722
3896343,6454.0,6894.0,-1992.0,0.002,0.596,0.361,0.718
3896359,6484.0,7036.0,-2014.0,0.009,0.598,0.367,0.713
3896385,6586.0,7234.0,-2100.0,0.018,0.601,0.373,0.707
3896402,6580.0,7246.0,-2100.0,0.028,0.604,0.381,0.7
3896418,6742.0,7532.0,-2222.0,0.039,0.607,0.39,0.692
3896435,7030.0,7586.0,-2434.0,0.052,0.61,0.4,0.682
3896452,6976.0,7812.0,-2358.0,0.066,0.613,0.41,0.672
3896468,7188.0,6840.0,-1318.0,0.08,0.616,0.423,0.66
3896485,6990.0,8158.0,-2766.0,0.096,0.619,0.435,0.647
3896511,6852.0,8370.0,-2820.0,0.112,0.622,0.448,0.632
3896527,6602.0,8584.0,-2914.0,0.129,0.625,0.461,0.617
3896544,6536.0,8706.0,-3060.0,0.147,0.627,0.475,0.6
3896560,6442.0,8904.0,-3276.0,0.165,0.628,0.488,0.583
3896577,6208.0,9124.0,-3306.0,0.183,0.629,0.502,0.565
3896593,6196.0,9180.0,-3512.0,0.203,0.63,0.515,0.545
3896609,5888.0,9136.0,-3586.0,0.223,0.63,0.527,0.525
3896625,5460.0,8848.0,-3684.0,0.244,0.63,0.539,0.503
3896642,5150.0,8464.0,-3832.0,0.267,0.629,0.55,0.481
3896668,4786.0,8768.0,-4004.0,0.289,0.627,0.561,0.457
3896684,4364.0,8992.0,-4230.0,0.312,0.624,0.572,0.432
3896701,4052.0,8650.0,-4348.0,0.334,0.62,0.581,0.407
3896718,3626.0,8422.0,-4352.0,0.357,0.616,0.59,0.382
3896734,3254.0,8298.0,-4350.0,0.379,0.61,0.598,0.356
3896751,2176.0,7846.0,-3766.0,0.4,0.604,0.605,0.33
3896768,1640.0,7416.0,-3676.0,0.42,0.597,0.612,0.304
3896785,1376.0,6896.0,-3704.0,0.438,0.591,0.619,0.277
3896802,698.0,6358.0,-3544.0,0.454,0.584,0.625,0.249
3896819,94.0,6256.0,-3274.0,0.468,0.578,0.631,0.221
3896846,-206.0,5958.0,-3670.0,0.481,0.572,0.636,0.192
3896863,-1118.0,5900.0,-3084.0,0.492,0.567,0.64,0.163
3896879,-1430.0,5270.0,-3174.0,0.501,0.563,0.644,0.134
3896895,-2008.0,5242.0,-3310.0,0.508,0.559,0.647,0.104
3896911,-2394.0,5106.0,-3260.0,0.514,0.556,0.65,0.075
3896927,-2716.0,4564.0,-3034.0,0.518,0.553,0.651,0.046
3896953,-2928.0,4578.0,-3122.0,0.522,0.549,0.652,0.016
3896969,-3396.0,4160.0,-2734.0,0.526,0.546,0.652,-0.013
3896986,-3442.0,3790.0,-3046.0,0.529,0.543,0.651,-0.041
3897002,-3630.0,3188.0,-2564.0,0.532,0.539,0.65,-0.069
3897019,-3736.0,3448.0,-2802.0,0.535,0.534,0.648,-0.095
3897035,-4100.0,3210.0,-2182.0,0.538,0.529,0.645,-0.12
3897051,-4288.0,2636.0,-1704.0,0.542,0.523,0.642,-0.142
3897067,-4282.0,2284.0,-1222.0,0.546,0.518,0.639,-0.162
3897093,-4622.0,1842.0,-632.0,0.549,0.512,0.635,-0.18
3897110,-4550.0,1586.0,-266.0,0.553,0.506,0.632,-0.195
3897126,-4460.0,816.0,390.0,0.556,0.501,0.63,-0.207
3897142,-4936.0,478.0,902.0,0.558,0.497,0.628,-0.216
3897159,-4930.0,580.0,1160.0,0.558,0.496,0.627,-0.222
3897175,-5070.0,580.0,1250.0,0.557,0.497,0.627,-0.224
3897191,-5256.0,172.0,1546.0,0.553,0.5,0.628,-0.222
3897217,-5488.0,400.0,1558.0,0.548,0.506,0.63,-0.217
3897234,-5582.0,984.0,1410.0,0.542,0.513,0.632,-0.208
3897250,-5442.0,858.0,882.0,0.535,0.522,0.635,-0.195
3897266,-5410.0,1478.0,198.0,0.528,0.531,0.638,-0.179
3897282,-5318.0,2076.0,-232.0,0.52,0.541,0.642,-0.159
3897298,-5006.0,2296.0,-710.0,0.513,0.55,0.645,-0.136
3897324,-4622.0,2472.0,-1084.0,0.506,0.558,0.648,-0.11
3897340,-4018.0,2820.0,-2144.0,0.499,0.567,0.65,-0.082
3897356,-3618.0,3374.0,-2766.0,0.492,0.575,0.652,-0.053
3897372,-2952.0,3782.0,-3218.0,0.484,0.583,0.653,-0.022
3897389,-3472.0,4450.0,-3432.0,0.476,0.589,0.653,0.009
3897405,-2506.0,4700.0,-3920.0,0.468,0.595,0.652,0.041
3897431,-2374.0,5132.0,-4260.0,0.46,0.599,0.651,0.073
3897447,-1906.0,5556.0,-4388.0,0.452,0.603,0.649,0.104
3897464,-1470.0,5952.0,-4802.0,0.443,0.607,0.646,0.135
3897480,-1254.0,6296.0,-4746.0,0.432,0.61,0.643,0.166
3897496,-916.0,7194.0,-4702.0,0.42,0.614,0.639,0.195
3897512,-890.0,7076.0,-4436.0,0.408,0.618,0.633,0.225
3897528,184.0,7298.0,-5082.0,0.395,0.622,0.627,0.253
3897554,-388.0,6696.0,-3940.0,0.379,0.626,0.62,0.281
3897570,1474.0,7600.0,-4924.0,0.362,0.631,0.613,0.308
3897586,740.0,7254.0,-3906.0,0.344,0.635,0.605,0.335
3897602,2368.0,7642.0,-4672.0,0.325,0.639,0.597,0.361
3897618,3140.0,7796.0,-4734.0,0.305,0.642,0.588,0.386
3897634,3830.0,7798.0,-4726.0,0.284,0.644,0.579,0.411
3897660,4654.0,8630.0,-4938.0,0.264,0.645,0.571,0.435
3897677,4494.0,8762.0,-4532.0,0.244,0.645,0.561,0.458
3897693,5514.0,8012.0,-4878.0,0.225,0.644,0.552,0.48
3897709,5596.0,8076.0,-4380.0,0.207,0.642,0.544,0.5
3897725,5414.0,8234.0,-4062.0,0.189,0.638,0.535,0.52
3897741,6058.0,8178.0,-4260.0,0.172,0.635,0.526,0.539
3897767,5680.0,7956.0,-3714.0,0.155,0.632,0.516,0.557
3897783,6360.0,7880.0,-3864.0,0.139,0.628,0.506,0.575
3897799,6480.0,7796.0,-3658.0,0.123,0.624,0.496,0.592
3897816,6178.0,7660.0,-2934.0,0.107,0.619,0.486,0.608
3897833,6808.0,7916.0,-3010.0,0.093,0.614,0.475,0.624
3897849,6396.0,7344.0,-2458.0,0.079,0.609,0.464,0.638
3897866,6660.0,7502.0,-2696.0,0.066,0.603,0.453,0.653
3897883,6710.0,7292.0,-2416.0,0.054,0.598,0.443,0.666
3897900,6514.0,7242.0,-2058.0,0.044,0.593,0.432,0.678
3897917,6664.0,6904.0,-2256.0,0.034,0.588,0.422,0.689
3897934,6246.0,7082.0,-1922.0,0.026,0.583,0.411,0.7
3897961,6086.0,6926.0,-1786.0,0.018,0.579,0.401,0.71
3897978,6402.0,6756.0,-2040.0,0.012,0.575,0.391,0.719
3897995,6234.0,6672.0,-1844.0,0.005,0.571,0.382,0.727
3898012,6162.0,6928.0,-1744.0,0.0,-0.567,-0.373,-0.734
3898029,6300.0,6886.0,-1838.0,0.004,-0.565,-0.366,-0.74
3898046,6234.0,6638.0,-1714.0,0.007,-0.563,-0.359,-0.744
3898062,6388.0,6676.0,-1662.0,0.007,-0.562,-0.354,-0.747
3898079,6516.0,6658.0,-1786.0,0.006,-0.563,-0.351,-0.748
3898096,6472.0,6854.0,-1808.0,0.003,-0.565,-0.349,-0.747
3898113,6450.0,6998.0,-1932.0,0.001,0.568,0.349,0.745
3898129,6634.0,7210.0,-2260.0,0.008,0.572,0.351,0.741
3898146,6424.0,7250.0,-2256.0,0.015,0.577,0.354,0.736
3898173,6300.0,7556.0,-2342.0,0.024,0.581,0.359,0.73
3898190,6002.0,7566.0,-2254.0,0.034,0.586,0.364,0.723
3898206,5886.0,7716.0,-2188.0,0.046,0.592,0.372,0.714
3898222,6050.0,7928.0,-2266.0,0.058,0.597,0.38,0.704
3898238,6468.0,7828.0,-2476.0,0.072,0.603,0.389,0.693
3898254,6744.0,8426.0,-2544.0,0.086,0.609,0.4,0.68
3898270,7148.0,8316.0,-2700.0,0.101,0.614,0.411,0.666
3898296,7358.0,8804.0,-2720.0,0.117,0.62,0.423,0.65
3898312,7506.0,8872.0,-2840.0,0.135,0.625,0.436,0.633
3898328,7440.0,9024.0,-3046.0,0.154,0.63,0.449,0.614
3898344,7362.0,9262.0,-3314.0,0.173,0.635,0.463,0.594
3898361,7498.0,9532.0,-3684.0,0.193,0.639,0.477,0.572
3898378,6868.0,9676.0,-3632.0,0.214,0.642,0.491,0.549
3898404,6442.0,9688.0,-3828.0,0.235,0.644,0.504,0.525
3898420,6054.0,9184.0,-3872.0,0.257,0.646,0.517,0.5
3898436,5486.0,8784.0,-3866.0,0.278,0.647,0.529,0.473
3898452,5090.0,9068.0,-4004.0,0.298,0.647,0.542,0.446
3898468,4720.0,8986.0,-4240.0,0.319,0.646,0.553,0.419
3898484,4130.0,8714.0,-4162.0,0.339,0.644,0.563,0.391
3898510,3658.0,8346.0,-3958.0,0.359,0.641,0.573,0.363
3898526,2820.0,7952.0,-3650.0,0.379,0.637,0.581,0.335
3898542,2408.0,7562.0,-3716.0,0.398,0.633,0.589,0.307
3898558,2332.0,7926.0,-3954.0,0.417,0.627,0.596,0.279
3898575,1724.0,6998.0,-3854.0,0.434,0.621,0.602,0.251
3898591,1198.0,7036.0,-3702.0,0.451,0.614,0.608,0.223
3898608,1290.0,6454.0,-3956.0,0.467,0.606,0.614,0.195
