timeMs,ax,ay,az,gx,gy,gz,q0,q1,q2,q3
289420,8102.0,3020.0,698.0,-701.0,-85.0,89.0,0.645,-0.134,-0.659,-0.363
289432,8048.0,3066.0,622.0,-707.0,-75.0,32.0,0.644,-0.138,-0.657,-0.367
289454,7874.0,3032.0,522.0,-704.0,-61.0,-18.0,0.642,-0.143,-0.655,-0.371
289476,7840.0,2892.0,508.0,-687.0,-46.0,-70.0,0.641,-0.147,-0.653,-0.376
289488,7510.0,2728.0,612.0,-647.0,-35.0,-123.0,0.639,-0.15,-0.651,-0.381
289510,7382.0,2718.0,668.0,-618.0,-34.0,-195.0,0.637,-0.153,-0.65,-0.386
289522,7450.0,2822.0,822.0,-588.0,-32.0,-265.0,0.635,-0.155,-0.648,-0.391
289544,7436.0,2870.0,860.0,-567.0,-47.0,-320.0,0.633,-0.156,-0.647,-0.396
289556,7482.0,3030.0,776.0,-560.0,-46.0,-344.0,0.63,-0.157,-0.646,-0.402
289578,7584.0,2982.0,610.0,-577.0,-61.0,-349.0,0.627,-0.159,-0.644,-0.407
289590,7644.0,3220.0,448.0,-567.0,-44.0,-339.0,0.625,-0.16,-0.643,-0.413
289612,7508.0,2964.0,580.0,-662.0,-77.0,-322.0,0.622,-0.163,-0.641,-0.418
289624,7790.0,3148.0,848.0,-666.0,-88.0,-362.0,0.619,-0.165,-0.64,-0.424
289647,7850.0,3016.0,918.0,-701.0,-136.0,-375.0,0.616,-0.167,-0.639,-0.431
289669,7956.0,3092.0,832.0,-675.0,-109.0,-384.0,0.612,-0.169,-0.637,-0.437
289681,7904.0,3286.0,550.0,-652.0,-79.0,-363.0,0.609,-0.171,-0.636,-0.442
289703,7956.0,3590.0,492.0,-735.0,-66.0,-382.0,0.606,-0.173,-0.634,-0.449
289715,8006.0,3656.0,712.0,-855.0,-71.0,-427.0,0.602,-0.176,-0.631,-0.456
289737,8228.0,3134.0,1476.0,-922.0,-116.0,-516.0,0.598,-0.178,-0.629,-0.464
289749,8194.0,3116.0,1840.0,-953.0,-113.0,-620.0,0.593,-0.18,-0.626,-0.473
289771,8450.0,3864.0,1778.0,-1004.0,-10.0,-726.0,0.588,-0.182,-0.623,-0.483
289783,8456.0,4132.0,1408.0,-994.0,119.0,-755.0,0.584,-0.182,-0.619,-0.493
289805,8172.0,4970.0,1072.0,-1082.0,178.0,-766.0,0.579,-0.183,-0.614,-0.504
289817,8670.0,3980.0,1308.0,-1223.0,100.0,-903.0,0.573,-0.184,-0.61,-0.516
289839,8578.0,4446.0,972.0,-1352.0,134.0,-1074.0,0.567,-0.184,-0.604,-0.529
289861,8564.0,3830.0,1884.0,-1466.0,60.0,-1225.0,0.558,-0.185,-0.599,-0.544
289873,9018.0,4624.0,2726.0,-1432.0,44.0,-1402.0,0.549,-0.184,-0.593,-0.559
289895,8786.0,5776.0,1972.0,-1584.0,36.0,-1471.0,0.539,-0.184,-0.587,-0.575
289907,8496.0,4908.0,2104.0,-1659.0,113.0,-1475.0,0.529,-0.183,-0.58,-0.592
289929,8116.0,6054.0,2078.0,-1685.0,213.0,-1511.0,0.519,-0.182,-0.573,-0.608
289941,8090.0,5578.0,2454.0,-1746.0,199.0,-1595.0,0.508,-0.181,-0.564,-0.625
289963,7570.0,6310.0,2374.0,-1788.0,271.0,-1677.0,0.496,-0.178,-0.555,-0.643
289985,7510.0,6102.0,2822.0,-1900.0,212.0,-1735.0,0.484,-0.177,-0.546,-0.661
289997,5978.0,7148.0,2310.0,-2326.0,-719.0,-1640.0,0.467,-0.183,-0.537,-0.678
290019,6832.0,7094.0,2800.0,-1825.0,364.0,-1505.0,0.456,-0.181,-0.527,-0.694
290031,7094.0,7834.0,2790.0,-2085.0,49.0,-1730.0,0.441,-0.181,-0.516,-0.712
290053,7890.0,7214.0,1896.0,-2004.0,222.0,-1952.0,0.426,-0.178,-0.505,-0.729
290065,6758.0,5618.0,1760.0,-1952.0,376.0,-1847.0,0.412,-0.174,-0.493,-0.746
290087,6136.0,6612.0,3456.0,-2072.0,289.0,-1885.0,0.398,-0.171,-0.481,-0.763
290099,5462.0,6210.0,4516.0,-2085.0,310.0,-2104.0,0.381,-0.167,-0.468,-0.78
290121,5582.0,6412.0,4862.0,-2083.0,283.0,-1983.0,0.365,-0.163,-0.455,-0.796
290133,4794.0,6384.0,4018.0,-1997.0,326.0,-2027.0,0.348,-0.159,-0.442,-0.811
290155,4140.0,6092.0,3952.0,-2075.0,99.0,-2036.0,0.331,-0.156,-0.429,-0.826
290167,3976.0,4782.0,2896.0,-2058.0,-14.0,-1922.0,0.313,-0.154,-0.416,-0.84
290189,4038.0,5426.0,2070.0,-1875.0,-129.0,-2095.0,0.294,-0.152,-0.405,-0.852
290211,4316.0,4970.0,3166.0,-1760.0,5.0,-2095.0,0.275,-0.149,-0.394,-0.864
290223,2834.0,5838.0,3402.0,-1785.0,-180.0,-2926.0,0.249,-0.144,-0.384,-0.877
290245,4110.0,5810.0,4806.0,-1482.0,-175.0,-2827.0,0.223,-0.139,-0.376,-0.888
290257,2610.0,4386.0,4272.0,-1640.0,-90.0,-2525.0,0.201,-0.134,-0.366,-0.899
290279,2158.0,3508.0,3240.0,-1473.0,-246.0,-2355.0,0.179,-0.13,-0.357,-0.908
290291,2846.0,4774.0,2788.0,-1269.0,-235.0,-2376.0,0.157,-0.126,-0.349,-0.915
290313,2842.0,3404.0,2590.0,-1217.0,-112.0,-2101.0,0.138,-0.122,-0.342,-0.922
290335,1840.0,2934.0,2268.0,-1369.0,-498.0,-2196.0,0.116,-0.12,-0.333,-0.928
290347,3142.0,1690.0,2356.0,-632.0,-215.0,-1781.0,0.1,-0.117,-0.33,-0.931
290369,2004.0,1864.0,2554.0,-467.0,-406.0,-1816.0,0.083,-0.115,-0.328,-0.934
290381,2680.0,1252.0,2362.0,-152.0,-637.0,-1856.0,0.065,-0.115,-0.329,-0.935
290403,2996.0,1092.0,2544.0,165.0,-753.0,-1738.0,0.048,-0.116,-0.333,-0.934
290415,2714.0,554.0,3048.0,553.0,-878.0,-1685.0,0.031,-0.118,-0.34,-0.932
290437,2658.0,838.0,3076.0,855.0,-1047.0,-1519.0,0.016,-0.122,-0.349,-0.929
290449,2904.0,2166.0,3350.0,1077.0,-1195.0,-1309.0,0.002,-0.128,-0.36,-0.924
290471,2240.0,942.0,3254.0,886.0,-1214.0,-1103.0,0.01,0.135,0.369,0.919
290483,3070.0,2898.0,3620.0,1011.0,-1349.0,-921.0,0.021,0.143,0.379,0.914
290505,3322.0,3888.0,4044.0,949.0,-1385.0,-734.0,0.031,0.152,0.388,0.909
290527,3456.0,4998.0,4652.0,529.0,-1318.0,-690.0,0.04,0.161,0.393,0.904
290539,3562.0,5654.0,6400.0,108.0,-1288.0,-722.0,0.05,0.169,0.394,0.902
290561,4484.0,3914.0,9642.0,-109.0,-1155.0,-807.0,0.061,0.176,0.394,0.9
290573,5252.0,1782.0,12442.0,160.0,-809.0,-707.0,0.07,0.18,0.396,0.898
290595,6220.0,3898.0,13172.0,562.0,-341.0,-458.0,0.074,0.182,0.402,0.895
290607,4822.0,7606.0,12326.0,-191.0,13.0,419.0,0.071,0.183,0.399,0.896
290629,5696.0,6516.0,12662.0,462.0,399.0,-638.0,0.074,0.177,0.404,0.894
290641,4412.0,8532.0,10126.0,939.0,1027.0,6.0,0.068,0.169,0.413,0.892
290663,4390.0,7760.0,10378.0,884.0,1496.0,-293.0,0.063,0.156,0.422,0.891
290675,3604.0,2514.0,12522.0,163.0,1931.0,-541.0,0.06,0.138,0.425,0.893
290697,4226.0,5368.0,11198.0,7.0,2700.0,-375.0,0.052,0.114,0.427,0.896
290719,3454.0,2420.0,10402.0,-1306.0,2316.0,-180.0,0.045,0.093,0.417,0.903
290731,4200.0,3358.0,10318.0,-1052.0,2836.0,2.0,0.035,0.069,0.409,0.909
290753,4822.0,4386.0,10010.0,-1204.0,3282.0,610.0,0.018,0.043,0.4,0.916
290765,4222.0,2770.0,9344.0,-1267.0,3430.0,442.0,0.002,0.015,0.389,0.921
290792,4372.0,2516.0,7866.0,-1284.0,3623.0,969.0,0.02,0.013,-0.378,-0.926
290804,3906.0,2088.0,6852.0,-1414.0,3600.0,1271.0,0.044,0.038,-0.364,-0.93
290816,3712.0,2916.0,6942.0,-1687.0,3659.0,1540.0,0.071,0.063,-0.348,-0.933
290838,3016.0,3476.0,7204.0,-2014.0,3619.0,1852.0,0.1,0.086,-0.328,-0.935
290860,2562.0,3730.0,7620.0,-2279.0,3482.0,2018.0,0.13,0.107,-0.306,-0.937
290872,1884.0,3496.0,6970.0,-2256.0,3044.0,1975.0,0.159,0.125,-0.284,-0.937
290894,1608.0,3448.0,5922.0,-1869.0,2552.0,1885.0,0.184,0.139,-0.266,-0.936
290906,1206.0,4318.0,4842.0,-1366.0,2317.0,1969.0,0.208,0.152,-0.253,-0.932
290928,398.0,4740.0,3494.0,-1252.0,2166.0,2199.0,0.234,0.163,-0.241,-0.928
290940,-508.0,5158.0,3728.0,-1585.0,1960.0,2548.0,0.263,0.171,-0.227,-0.922
290962,-1218.0,5584.0,5026.0,-2114.0,1514.0,2708.0,0.292,0.173,-0.21,-0.917
290974,-1092.0,6298.0,5322.0,-2266.0,963.0,2560.0,0.319,0.17,-0.192,-0.912
290996,-1350.0,6494.0,3750.0,-2385.0,456.0,2401.0,0.344,0.163,-0.175,-0.908
291008,-1694.0,6178.0,2404.0,-2454.0,-41.0,2422.0,0.368,0.151,-0.158,-0.904
291030,-1242.0,5422.0,2662.0,-2335.0,-317.0,2580.0,0.392,0.136,-0.143,-0.899
291052,-616.0,4312.0,3964.0,-2165.0,-451.0,2628.0,0.415,0.121,-0.13,-0.892
291064,-170.0,3726.0,4936.0,-1664.0,-456.0,2386.0,0.436,0.107,-0.121,-0.885
291086,372.0,5210.0,5446.0,-707.0,-288.0,2113.0,0.454,0.1,-0.119,-0.878
291098,552.0,6782.0,5402.0,-202.0,-120.0,1830.0,0.469,0.096,-0.12,-0.87
291120,628.0,7266.0,5470.0,-141.0,8.0,1580.0,0.481,0.094,-0.121,-0.863
291132,2084.0,2130.0,6232.0,-22.0,250.0,2101.0,0.498,0.094,-0.121,-0.853
291154,-3368.0,12584.0,6386.0,-1328.0,-786.0,-941.0,0.491,0.082,-0.113,-0.86
291166,2268.0,1314.0,6572.0,-769.0,-571.0,627.0,0.496,0.073,-0.11,-0.858
291188,402.0,4856.0,6678.0,607.0,373.0,1666.0,0.509,0.078,-0.115,-0.849
291210,-1142.0,5758.0,7552.0,807.0,358.0,1095.0,0.517,0.083,-0.121,-0.843
291222,3462.0,17070.0,6130.0,1175.0,1351.0,752.0,0.524,0.099,-0.124,-0.837
291244,-3844.0,3602.0,4742.0,-680.0,265.0,-29.0,0.525,0.097,-0.117,-0.838
291256,156.0,2930.0,7370.0,260.0,545.0,-476.0,0.521,0.103,-0.116,-0.839
291278,-1502.0,2774.0,7520.0,486.0,679.0,-603.0,0.517,0.112,-0.116,-0.841
291290,-176.0,3684.0,8024.0,107.0,471.0,-191.0,0.516,0.116,-0.115,-0.841
291312,-492.0,3508.0,9260.0,-779.0,332.0,700.0,0.522,0.115,-0.108,-0.838
291324,-1242.0,1744.0,8156.0,-1090.0,20.0,154.0,0.525,0.109,-0.099,-0.838
291346,-614.0,1460.0,8112.0,-923.0,-47.0,-63.0,0.525,0.104,-0.092,-0.84
291358,-604.0,1126.0,8280.0,-746.0,20.0,-335.0,0.523,0.101,-0.086,-0.842
291381,-384.0,-854.0,8896.0,-388.0,64.0,-556.0,0.519,0.1,-0.081,-0.845
291403,8.0,526.0,8668.0,136.0,276.0,-331.0,0.517,0.102,-0.08,-0.846
291415,-532.0,1252.0,8024.0,364.0,321.0,-96.0,0.516,0.107,-0.082,-0.846
291437,-944.0,1862.0,7918.0,472.0,432.0,39.0,0.516,0.112,-0.083,-0.845
291449,-1610.0,2900.0,7798.0,302.0,314.0,-96.0,0.515,0.116,-0.084,-0.845
291471,-1650.0,3346.0,7680.0,75.0,239.0,-328.0,0.513,0.119,-0.083,-0.846
291483,-1732.0,2572.0,7700.0,45.0,199.0,-439.0,0.509,0.121,-0.082,-0.848
291505,-1678.0,2436.0,7632.0,63.0,216.0,-338.0,0.507,0.124,-0.081,-0.849
291517,-1948.0,2866.0,7714.0,-76.0,207.0,-305.0,0.504,0.126,-0.079,-0.851
291539,-1922.0,2424.0,8398.0,-245.0,172.0,-289.0,0.502,0.126,-0.076,-0.852
291551,-1944.0,1566.0,8176.0,-208.0,96.0,-341.0,0.5,0.126,-0.074,-0.854
291573,-1830.0,1654.0,7938.0,-92.0,57.0,-329.0,0.497,0.127,-0.072,-0.855
291595,-1736.0,1892.0,7734.0,-75.0,23.0,-198.0,0.496,0.127,-0.071,-0.856
291607,-1672.0,1772.0,8196.0,-94.0,-8.0,-80.0,0.495,0.126,-0.07,-0.857
291629,-1424.0,728.0,8032.0,76.0,97.0,-121.0,0.494,0.127,-0.07,-0.857
291641,-1624.0,3664.0,7252.0,170.0,283.0,-428.0,0.491,0.131,-0.07,-0.858
291663,-90.0,1954.0,7792.0,221.0,159.0,371.0,0.494,0.133,-0.071,-0.856
291675,-1306.0,1212.0,7906.0,375.0,313.0,148.0,0.495,0.137,-0.073,-0.855
291697,-1620.0,1938.0,8860.0,218.0,247.0,-137.0,0.494,0.14,-0.073,-0.855
291709,-1260.0,1090.0,8402.0,501.0,306.0,-130.0,0.492,0.145,-0.075,-0.855
291731,-2126.0,2132.0,7882.0,724.0,247.0,-28.0,0.491,0.15,-0.08,-0.854
291753,-2390.0,2758.0,7520.0,616.0,190.0,71.0,0.491,0.154,-0.084,-0.853
291765,-2526.0,2684.0,7490.0,382.0,183.0,98.0,0.491,0.158,-0.086,-0.852
291787,-2328.0,2734.0,7572.0,291.0,147.0,163.0,0.492,0.16,-0.088,-0.851
291799,-2158.0,2890.0,7560.0,237.0,126.0,229.0,0.494,0.162,-0.09,-0.85
291821,-2180.0,2950.0,7530.0,207.0,93.0,246.0,0.495,0.164,-0.091,-0.848
291833,-2126.0,2722.0,7646.0,166.0,45.0,305.0,0.498,0.165,-0.093,-0.846
291855,-2068.0,2558.0,7638.0,147.0,7.0,382.0,0.5,0.166,-0.094,-0.845
291867,-1866.0,2324.0,7764.0,137.0,7.0,438.0,0.504,0.166,-0.096,-0.842
291889,-1654.0,2316.0,7718.0,139.0,112.0,436.0,0.507,0.167,-0.097,-0.84
291901,-1668.0,2312.0,7736.0,127.0,160.0,403.0,0.51,0.168,-0.098,-0.838
291924,-1676.0,1924.0,7868.0,278.0,200.0,323.0,0.512,0.171,-0.099,-0.836
291936,-1718.0,2704.0,7496.0,393.0,209.0,308.0,0.514,0.174,-0.102,-0.834
291959,-1728.0,3372.0,7320.0,312.0,228.0,317.0,0.516,0.177,-0.104,-0.831
291971,-1904.0,3510.0,7312.0,220.0,140.0,327.0,0.519,0.179,-0.106,-0.829
291994,-1662.0,3670.0,7348.0,75.0,109.0,347.0,0.521,0.18,-0.106,-0.827
292016,-1656.0,3112.0,7280.0,2.0,82.0,347.0,0.524,0.181,-0.107,-0.826
292028,-1674.0,2874.0,7576.0,-48.0,78.0,327.0,0.526,0.181,-0.106,-0.824
292050,-1658.0,2956.0,7482.0,-31.0,57.0,276.0,0.529,0.181,-0.106,-0.823
292062,-1640.0,2968.0,7504.0,6.0,66.0,219.0,0.53,0.181,-0.106,-0.821
292084,-1694.0,3058.0,7484.0,17.0,56.0,189.0,0.532,0.181,-0.106,-0.82
292096,-1834.0,3008.0,7602.0,46.0,-2.0,185.0,0.533,0.181,-0.107,-0.819
292118,-1540.0,3018.0,7376.0,24.0,11.0,177.0,0.534,0.181,-0.108,-0.819
292130,-1612.0,3054.0,7418.0,-18.0,27.0,157.0,0.536,0.181,-0.108,-0.818
292152,-1546.0,3378.0,7340.0,-126.0,-24.0,124.0,0.537,0.181,-0.107,-0.817
292164,-1646.0,3268.0,7496.0,-239.0,-68.0,76.0,0.538,0.179,-0.106,-0.817
292186,-1574.0,3182.0,7680.0,-289.0,-82.0,28.0,0.538,0.177,-0.104,-0.818
292208,-1404.0,2962.0,7814.0,-352.0,-71.0,-64.0,0.538,0.174,-0.101,-0.818
292220,-1680.0,2654.0,7556.0,-331.0,-94.0,-136.0,0.537,0.172,-0.099,-0.82
292242,-1582.0,2868.0,7494.0,-294.0,-89.0,-192.0,0.536,0.17,-0.097,-0.821
292254,-1670.0,2624.0,7798.0,-302.0,-101.0,-259.0,0.535,0.168,-0.095,-0.823
292276,-1660.0,2608.0,7764.0,-248.0,-157.0,-196.0,0.533,0.166,-0.093,-0.824
292288,-1392.0,3126.0,7452.0,-277.0,-134.0,-144.0,0.533,0.164,-0.092,-0.825
292310,-1386.0,2910.0,7478.0,-387.0,-121.0,-148.0,0.532,0.161,-0.089,-0.826
292322,-1450.0,3038.0,7340.0,-544.0,-162.0,-171.0,0.531,0.157,-0.086,-0.828
292344,-1582.0,2730.0,7634.0,-696.0,-191.0,-182.0,0.531,0.153,-0.081,-0.83
292366,-1424.0,2496.0,7730.0,-751.0,-216.0,-198.0,0.53,0.147,-0.076,-0.832
292378,-1326.0,2512.0,7838.0,-768.0,-231.0,-162.0,0.53,0.142,-0.071,-0.833
292400,-1186.0,2262.0,7982.0,-679.0,-235.0,-182.0,0.529,0.137,-0.067,-0.835
292412,-1500.0,2424.0,7978.0,-558.0,-200.0,-188.0,0.528,0.133,-0.063,-0.836
292434,-1844.0,3098.0,8100.0,-529.0,-216.0,-210.0,0.527,0.129,-0.06,-0.838
292446,-1656.0,3908.0,7650.0,-420.0,-332.0,-256.0,0.526,0.125,-0.058,-0.84
292468,-1200.0,3238.0,7320.0,-319.0,-212.0,-341.0,0.523,0.122,-0.057,-0.842
292480,-1384.0,2536.0,7298.0,-75.0,-63.0,-319.0,0.521,0.121,-0.056,-0.843
292502,-792.0,-3348.0,12084.0,1178.0,712.0,-647.0,0.515,0.133,-0.061,-0.845
292514,-2748.0,8986.0,6090.0,637.0,164.0,-448.0,0.511,0.138,-0.065,-0.846
292537,-3056.0,8488.0,6554.0,-211.0,-240.0,-642.0,0.506,0.135,-0.063,-0.85
292549,-2534.0,6050.0,6592.0,-217.0,-281.0,-938.0,0.499,0.132,-0.062,-0.854
292572,-2342.0,1688.0,6536.0,83.0,-258.0,-1023.0,0.49,0.131,-0.062,-0.859
292584,-2148.0,614.0,6800.0,144.0,-298.0,-513.0,0.486,0.13,-0.064,-0.862
292607,-7106.0,12282.0,4628.0,-1234.0,-1509.0,-497.0,0.482,0.112,-0.061,-0.867
292629,542.0,-8082.0,7164.0,32.0,-710.0,-3134.0,0.456,0.109,-0.061,-0.881
292641,-2012.0,2320.0,8316.0,180.0,-306.0,-938.0,0.448,0.108,-0.063,-0.885
292663,-2112.0,-870.0,9356.0,-84.0,-563.0,-1300.0,0.438,0.103,-0.063,-0.891
292675,-1182.0,-1988.0,10678.0,-106.0,-377.0,-935.0,0.43,0.1,-0.063,-0.895
292697,-1398.0,-2398.0,10178.0,-202.0,-221.0,-646.0,0.425,0.098,-0.061,-0.898
292709,-1114.0,-2098.0,9610.0,-191.0,-166.0,-640.0,0.419,0.096,-0.06,-0.901
292731,-490.0,-2744.0,9560.0,-163.0,-37.0,-104.0,0.419,0.095,-0.058,-0.901
292743,-496.0,-2896.0,8820.0,6.0,59.0,140.0,0.42,0.096,-0.058,-0.9
292765,-328.0,-2506.0,7672.0,-104.0,45.0,92.0,0.421,0.095,-0.057,-0.9
292787,366.0,168.0,8398.0,-241.0,104.0,345.0,0.424,0.095,-0.054,-0.899
292804,760.0,-138.0,8908.0,-327.0,-26.0,262.0,0.427,0.092,-0.052,-0.898
292816,796.0,-280.0,7224.0,-149.0,-188.0,190.0,0.429,0.09,-0.051,-0.897
292838,530.0,40.0,7486.0,-76.0,-260.0,92.0,0.43,0.087,-0.052,-0.897
292850,192.0,446.0,7732.0,-127.0,-306.0,-67.0,0.429,0.084,-0.052,-0.898
292872,70.0,672.0,8568.0,-90.0,-246.0,4.0,0.429,0.081,-0.052,-0.898
292884,-184.0,446.0,8728.0,-137.0,-220.0,-45.0,0.429,0.079,-0.052,-0.898
292906,-406.0,1118.0,8366.0,-40.0,-174.0,-46.0,0.428,0.077,-0.052,-0.899
292918,-318.0,1212.0,8024.0,29.0,-68.0,0.0,0.429,0.076,-0.052,-0.899
292940,-768.0,1346.0,8150.0,79.0,-66.0,-13.0,0.428,0.076,-0.053,-0.899
292952,-856.0,1176.0,8060.0,86.0,-35.0,-51.0,0.428,0.076,-0.054,-0.899
292974,-998.0,1088.0,7850.0,74.0,-89.0,-29.0,0.428,0.076,-0.055,-0.899
292996,-718.0,1610.0,7760.0,23.0,-102.0,7.0,0.428,0.075,-0.056,-0.899
293008,-608.0,1708.0,8138.0,-19.0,-69.0,99.0,0.429,0.074,-0.056,-0.898
293030,-742.0,1502.0,8200.0,-43.0,40.0,137.0,0.43,0.075,-0.055,-0.898
293042,-1170.0,712.0,7968.0,-143.0,60.0,77.0,0.431,0.074,-0.054,-0.898
293064,-1160.0,760.0,7804.0,-74.0,-11.0,16.0,0.431,0.074,-0.053,-0.898
293076,-800.0,1208.0,8204.0,-118.0,19.0,48.0,0.432,0.074,-0.052,-0.897
293098,-1098.0,846.0,8288.0,-107.0,33.0,21.0,0.432,0.074,-0.051,-0.897
293110,-1094.0,722.0,8438.0,-120.0,26.0,-7.0,0.433,0.073,-0.05,-0.897
293132,-858.0,816.0,8584.0,-77.0,23.0,-66.0,0.432,0.073,-0.049,-0.897
293154,-782.0,1084.0,8356.0,-11.0,7.0,-54.0,0.432,0.073,-0.048,-0.898
293166,-662.0,1870.0,8108.0,-25.0,24.0,16.0,0.432,0.073,-0.048,-0.898
293188,-1080.0,1420.0,8096.0,-82.0,73.0,86.0,0.433,0.074,-0.047,-0.897
293200,-1286.0,1106.0,8128.0,-71.0,59.0,130.0,0.434,0.074,-0.047,-0.897
293222,-1082.0,1510.0,8234.0,-47.0,23.0,204.0,0.436,0.074,-0.046,-0.896
293234,-1208.0,968.0,8258.0,-61.0,58.0,277.0,0.438,0.074,-0.046,-0.895
293256,-1408.0,1020.0,8094.0,-18.0,-17.0,141.0,0.439,0.074,-0.046,-0.894
293268,-762.0,1344.0,8102.0,-101.0,-42.0,-17.0,0.439,0.073,-0.045,-0.894
293290,-948.0,746.0,8208.0,-146.0,-45.0,-144.0,0.438,0.072,-0.044,-0.895
293312,-554.0,84.0,8156.0,4.0,-31.0,-3.0,0.438,0.072,-0.044,-0.895
293324,-728.0,978.0,8222.0,24.0,-54.0,-61.0,0.438,0.072,-0.044,-0.895
293346,-822.0,838.0,8030.0,19.0,-72.0,-113.0,0.437,0.071,-0.044,-0.895
293358,-630.0,786.0,8318.0,19.0,-86.0,-215.0,0.435,0.071,-0.044,-0.896
293380,-294.0,1554.0,8076.0,-80.0,-40.0,-251.0,0.433,0.07,-0.044,-0.897
293392,-742.0,1204.0,8034.0,-190.0,45.0,-244.0,0.431,0.07,-0.042,-0.898
293414,-908.0,898.0,8394.0,-176.0,51.0,-209.0,0.43,0.07,-0.04,-0.899
293426,-1212.0,876.0,8262.0,-194.0,71.0,-146.0,0.429,0.069,-0.038,-0.9
293448,-1330.0,966.0,8442.0,-141.0,89.0,-25.0,0.429,0.07,-0.036,-0.9
293460,-1646.0,958.0,8516.0,-104.0,39.0,-25.0,0.429,0.07,-0.035,-0.9
293482,-1436.0,410.0,8584.0,-87.0,-54.0,-77.0,0.428,0.069,-0.034,-0.9
293504,-1618.0,-260.0,8414.0,56.0,-83.0,-31.0,0.428,0.069,-0.035,-0.901
293516,-1120.0,760.0,8304.0,168.0,-71.0,-42.0,0.427,0.069,-0.036,-0.901
293538,-896.0,1202.0,7900.0,65.0,-72.0,99.0,0.428,0.069,-0.037,-0.9
293550,-802.0,1648.0,8170.0,-42.0,-61.0,117.0,0.429,0.068,-0.037,-0.9
293572,-1066.0,822.0,8416.0,-146.0,-107.0,-52.0,0.429,0.066,-0.037,-0.9
293584,-606.0,562.0,8252.0,-84.0,-132.0,-53.0,0.428,0.065,-0.036,-0.9
293606,-806.0,654.0,8202.0,-78.0,-97.0,14.0,0.429,0.064,-0.036,-0.901
293618,-810.0,646.0,8302.0,-20.0,-71.0,69.0,0.429,0.063,-0.036,-0.9
293640,-1138.0,874.0,8168.0,-12.0,-94.0,111.0,0.43,0.062,-0.036,-0.9
293662,-894.0,1060.0,8276.0,19.0,-68.0,125.0,0.431,0.062,-0.037,-0.899
293674,-1022.0,806.0,8140.0,27.0,-63.0,91.0,0.432,0.061,-0.037,-0.899
293696,-670.0,764.0,7982.0,79.0,8.0,78.0,0.433,0.062,-0.038,-0.899
293708,-590.0,1130.0,8258.0,30.0,55.0,91.0,0.434,0.062,-0.038,-0.898
293730,-828.0,956.0,8260.0,76.0,18.0,41.0,0.434,0.063,-0.038,-0.898
293742,-936.0,978.0,8194.0,90.0,-4.0,73.0,0.435,0.063,-0.039,-0.898
293764,-1066.0,772.0,8196.0,87.0,-1.0,49.0,0.435,0.064,-0.04,-0.897
293776,-842.0,542.0,8140.0,117.0,-10.0,100.0,0.436,0.064,-0.041,-0.897
293798,-854.0,774.0,8210.0,203.0,-32.0,105.0,0.437,0.064,-0.043,-0.896
293820,-644.0,1094.0,8204.0,216.0,-25.0,104.0,0.438,0.065,-0.045,-0.896
293832,-604.0,1140.0,8272.0,216.0,-10.0,95.0,0.438,0.066,-0.047,-0.895
293854,-676.0,1062.0,8154.0,221.0,-31.0,55.0,0.439,0.066,-0.048,-0.895
293866,-530.0,1346.0,8090.0,167.0,-18.0,54.0,0.439,0.067,-0.05,-0.895
293888,-508.0,1310.0,8050.0,122.0,10.0,43.0,0.44,0.068,-0.051,-0.894
293900,-574.0,1180.0,8030.0,89.0,-1.0,26.0,0.44,0.068,-0.052,-0.894
293922,-628.0,1122.0,8104.0,71.0,-6.0,-9.0,0.44,0.068,-0.052,-0.894
293934,-588.0,1090.0,8186.0,30.0,4.0,-44.0,0.439,0.068,-0.053,-0.894
293956,-862.0,1056.0,8214.0,22.0,3.0,-66.0,0.439,0.068,-0.053,-0.894
293968,-858.0,1102.0,8200.0,1.0,-2.0,-59.0,0.438,0.068,-0.053,-0.895
293990,-736.0,1212.0,8248.0,-6.0,-5.0,-44.0,0.438,0.068,-0.052,-0.895
294012,-734.0,1260.0,8194.0,-23.0,-3.0,-18.0,0.438,0.068,-0.052,-0.895
294024,-764.0,1182.0,8170.0,-14.0,0.0,-16.0,0.438,0.068,-0.052,-0.895
294046,-736.0,1154.0,8244.0,-17.0,-19.0,-11.0,0.438,0.068,-0.052,-0.895
294058,-770.0,1116.0,8318.0,-42.0,-42.0,5.0,0.438,0.068,-0.052,-0.895
294080,-618.0,1020.0,8142.0,-34.0,-65.0,11.0,0.438,0.067,-0.052,-0.895
294092,-630.0,1114.0,8142.0,-43.0,12.0,-58.0,0.437,0.067,-0.051,-0.895
294114,-844.0,926.0,8078.0,-24.0,3.0,-128.0,0.436,0.067,-0.051,-0.896
294126,-578.0,1158.0,8086.0,-41.0,-3.0,-162.0,0.435,0.067,-0.05,-0.896
294148,-386.0,1434.0,8154.0,-54.0,9.0,-185.0,0.434,0.067,-0.05,-0.897
294170,-608.0,1150.0,8140.0,-90.0,33.0,-194.0,0.432,0.067,-0.049,-0.898
294182,-612.0,1262.0,8154.0,-90.0,39.0,-188.0,0.431,0.067,-0.048,-0.899
294204,-752.0,1038.0,8188.0,-90.0,47.0,-172.0,0.43,0.067,-0.047,-0.899
294216,-852.0,998.0,8132.0,-64.0,37.0,-141.0,0.428,0.067,-0.046,-0.9
294238,-932.0,890.0,8250.0,-50.0,49.0,-113.0,0.428,0.067,-0.045,-0.9
294250,-1000.0,794.0,8246.0,-1.0,45.0,-84.0,0.427,0.068,-0.045,-0.901
294272,-980.0,996.0,8406.0,3.0,39.0,-54.0,0.427,0.068,-0.045,-0.901
294284,-970.0,974.0,8306.0,20.0,40.0,-31.0,0.426,0.069,-0.044,-0.901
294306,-970.0,1164.0,8292.0,9.0,21.0,-13.0,0.426,0.069,-0.044,-0.901
294328,-878.0,1162.0,8462.0,-3.0,38.0,40.0,0.427,0.069,-0.044,-0.901
294340,-1136.0,818.0,8338.0,30.0,18.0,64.0,0.427,0.069,-0.044,-0.9
294362,-1066.0,792.0,8344.0,77.0,-1.0,75.0,0.428,0.07,-0.045,-0.9
294374,-1096.0,860.0,8290.0,136.0,-34.0,91.0,0.429,0.07,-0.046,-0.9
294396,-912.0,1102.0,8228.0,168.0,-41.0,114.0,0.43,0.07,-0.048,-0.899
294408,-892.0,1124.0,8108.0,122.0,-41.0,133.0,0.431,0.07,-0.049,-0.898
294430,-808.0,1276.0,8116.0,113.0,-51.0,123.0,0.432,0.07,-0.05,-0.898
294442,-758.0,1126.0,8188.0,91.0,-55.0,112.0,0.432,0.07,-0.051,-0.897
294464,-638.0,986.0,8592.0,61.0,5.0,3.0,0.433,0.071,-0.052,-0.897
294476,-660.0,886.0,8264.0,-34.0,43.0,0.0,0.433,0.071,-0.051,-0.897
294498,-692.0,944.0,8432.0,-23.0,34.0,-79.0,0.432,0.071,-0.051,-0.898
294520,-584.0,1144.0,8104.0,24.0,10.0,-148.0,0.431,0.071,-0.051,-0.898
294532,-480.0,1424.0,8192.0,21.0,25.0,-157.0,0.43,0.071,-0.051,-0.899
294554,-702.0,1306.0,7950.0,32.0,29.0,-182.0,0.428,0.072,-0.051,-0.899
294566,-614.0,1324.0,8192.0,28.0,41.0,-184.0,0.427,0.072,-0.051,-0.9
294588,-1182.0,390.0,8332.0,23.0,-13.0,-222.0,0.425,0.073,-0.051,-0.901
294600,-736.0,894.0,8052.0,226.0,-61.0,-316.0,0.422,0.073,-0.052,-0.902
294622,-854.0,1038.0,8206.0,262.0,-59.0,-239.0,0.42,0.074,-0.055,-0.903
294634,-772.0,1366.0,8050.0,205.0,-62.0,-91.0,0.419,0.074,-0.056,-0.903
294656,-1106.0,1438.0,8072.0,149.0,-34.0,-11.0,0.419,0.074,-0.058,-0.903
294678,-862.0,1826.0,7946.0,165.0,-47.0,40.0,0.419,0.075,-0.059,-0.903
294690,-772.0,1556.0,8218.0,84.0,9.0,75.0,0.42,0.075,-0.06,-0.902
294712,-850.0,1562.0,8054.0,61.0,17.0,74.0,0.421,0.076,-0.061,-0.902
294724,-632.0,1606.0,8048.0,4.0,53.0,90.0,0.422,0.076,-0.061,-0.902
294746,-698.0,1320.0,8118.0,4.0,70.0,72.0,0.422,0.077,-0.06,-0.901
294758,-668.0,1196.0,8276.0,16.0,55.0,40.0,0.423,0.077,-0.06,-0.901
294780,-646.0,1212.0,8148.0,20.0,50.0,25.0,0.423,0.077,-0.06,-0.901
294792,-688.0,1320.0,8162.0,28.0,49.0,-10.0,0.423,0.078,-0.06,-0.901
294809,-790.0,1304.0,8128.0,16.0,40.0,-24.0,0.423,0.078,-0.06,-0.901
294831,-844.0,1284.0,8314.0,3.0,30.0,-44.0,0.422,0.079,-0.06,-0.901
294853,-832.0,1350.0,8112.0,1.0,21.0,-29.0,0.422,0.079,-0.06,-0.901
294865,-914.0,1366.0,8150.0,13.0,14.0,-14.0,0.422,0.079,-0.06,-0.901
294887,-982.0,1418.0,8092.0,25.0,-4.0,35.0,0.423,0.079,-0.06,-0.901
294899,-896.0,1500.0,8050.0,57.0,-25.0,74.0,0.423,0.079,-0.061,-0.901
294921,-786.0,1712.0,8214.0,44.0,-42.0,141.0,0.424,0.079,-0.061,-0.9
294933,-974.0,1272.0,7970.0,48.0,-39.0,163.0,0.426,0.079,-0.062,-0.899
294955,-760.0,1600.0,7904.0,66.0,-46.0,195.0,0.427,0.079,-0.063,-0.898
294967,-1118.0,554.0,8380.0,16.0,-23.0,153.0,0.429,0.078,-0.063,-0.898
294989,-732.0,1220.0,8452.0,114.0,-47.0,22.0,0.429,0.078,-0.064,-0.898
295011,-588.0,1324.0,8254.0,102.0,-10.0,-43.0,0.428,0.079,-0.065,-0.898
295023,-382.0,1844.0,8082.0,122.0,-8.0,-54.0,0.428,0.079,-0.066,-0.898
295045,-496.0,1768.0,8034.0,7.0,22.0,-14.0,0.428,0.079,-0.066,-0.898
295057,-584.0,1630.0,8122.0,-28.0,51.0,-2.0,0.428,0.08,-0.066,-0.898
295079,-746.0,1358.0,8124.0,-22.0,56.0,-5.0,0.428,0.08,-0.065,-0.898
295091,-868.0,1350.0,8200.0,15.0,37.0,-31.0,0.428,0.08,-0.065,-0.898
295113,-910.0,1274.0,8098.0,23.0,23.0,-44.0,0.428,0.081,-0.065,-0.898
295125,-846.0,1330.0,8150.0,55.0,21.0,-56.0,0.427,0.081,-0.065,-0.898
295147,-766.0,1560.0,8188.0,101.0,25.0,-49.0,0.427,0.082,-0.066,-0.898
295159,-930.0,1440.0,8210.0,114.0,18.0,-38.0,0.426,0.082,-0.067,-0.898
295181,-988.0,1394.0,8242.0,131.0,-17.0,4.0,0.426,0.083,-0.068,-0.898
295203,-864.0,1716.0,8114.0,132.0,-19.0,65.0,0.427,0.083,-0.069,-0.898
295215,-760.0,1642.0,8130.0,94.0,-12.0,97.0,0.428,0.083,-0.07,-0.897
295237,-684.0,1578.0,8088.0,77.0,-11.0,85.0,0.428,0.084,-0.071,-0.897
295249,-666.0,1508.0,8198.0,43.0,-10.0,50.0,0.429,0.084,-0.071,-0.897
295271,-706.0,1580.0,8032.0,31.0,-22.0,10.0,0.429,0.083,-0.072,-0.897
295283,-712.0,1572.0,8174.0,10.0,-15.0,1.0,0.429,0.083,-0.072,-0.897
295305,-824.0,1538.0,8186.0,14.0,-35.0,-5.0,0.429,0.083,-0.072,-0.897
295317,-832.0,1612.0,8324.0,9.0,-13.0,25.0,0.429,0.083,-0.072,-0.897
295339,-1050.0,1378.0,8304.0,25.0,-52.0,39.0,0.429,0.083,-0.072,-0.896
295361,-744.0,1608.0,8008.0,12.0,-49.0,56.0,0.43,0.082,-0.073,-0.896
295373,-720.0,1656.0,7876.0,14.0,-45.0,54.0,0.43,0.082,-0.073,-0.896
295395,-644.0,1710.0,8038.0,21.0,-22.0,37.0,0.431,0.082,-0.073,-0.896
295407,-566.0,1778.0,8270.0,-31.0,12.0,40.0,0.431,0.082,-0.073,-0.896
295429,-780.0,1484.0,8208.0,-53.0,27.0,42.0,0.432,0.082,-0.072,-0.895
295441,-658.0,1514.0,8104.0,-4.0,34.0,21.0,0.432,0.082,-0.072,-0.895
295463,-678.0,1562.0,8086.0,53.0,-16.0,-11.0,0.432,0.082,-0.073,-0.895
295475,-622.0,1644.0,7872.0,32.0,-77.0,-25.0,0.432,0.082,-0.073,-0.895
295497,-476.0,1638.0,7812.0,-6.0,-49.0,-33.0,0.431,0.081,-0.073,-0.895
295519,-538.0,1662.0,7944.0,45.0,-79.0,-125.0,0.43,0.081,-0.074,-0.896
295531,-496.0,1744.0,8048.0,37.0,-74.0,-110.0,0.429,0.08,-0.075,-0.896
295553,-690.0,1556.0,8036.0,90.0,-75.0,-131.0,0.428,0.08,-0.076,-0.897
295565,-550.0,1382.0,8132.0,124.0,-72.0,-160.0,0.427,0.08,-0.077,-0.897
295587,-256.0,1502.0,7852.0,208.0,-10.0,-203.0,0.425,0.081,-0.078,-0.898
295599,84.0,2012.0,8046.0,218.0,99.0,-112.0,0.424,0.083,-0.08,-0.898
295621,26.0,2090.0,8522.0,274.0,179.0,-160.0,0.423,0.085,-0.081,-0.899
295633,-112.0,1508.0,8888.0,446.0,169.0,-264.0,0.42,0.089,-0.084,-0.899
295655,380.0,2166.0,7784.0,820.0,193.0,-422.0,0.416,0.094,-0.09,-0.9
295667,1578.0,3358.0,7232.0,945.0,232.0,-325.0,0.413,0.099,-0.097,-0.9
295689,1826.0,4568.0,6228.0,709.0,345.0,-544.0,0.409,0.105,-0.102,-0.901
295711,2610.0,5732.0,7108.0,562.0,381.0,-887.0,0.401,0.111,-0.105,-0.903
295723,2356.0,6300.0,7756.0,456.0,464.0,-1322.0,0.39,0.118,-0.105,-0.907
295745,1394.0,5598.0,6932.0,550.0,467.0,-1675.0,0.376,0.126,-0.106,-0.912
295757,720.0,4068.0,5298.0,883.0,368.0,-2030.0,0.358,0.134,-0.11,-0.917
295779,558.0,4202.0,5470.0,1260.0,408.0,-2581.0,0.335,0.144,-0.116,-0.924
295791,-300.0,4910.0,5172.0,1131.0,177.0,-2509.0,0.312,0.152,-0.122,-0.93
295813,-944.0,4044.0,4966.0,1121.0,-95.0,-2061.0,0.293,0.157,-0.129,-0.934
295825,-1276.0,3860.0,4554.0,1360.0,-416.0,-2012.0,0.272,0.159,-0.139,-0.939
295847,-1436.0,3020.0,3788.0,1556.0,-793.0,-1947.0,0.252,0.159,-0.152,-0.942
295869,-1542.0,2290.0,3948.0,1706.0,-1133.0,-1829.0,0.232,0.155,-0.167,-0.946
295881,-1536.0,908.0,5984.0,1653.0,-1277.0,-1576.0,0.213,0.15,-0.182,-0.948
295903,-1982.0,686.0,6964.0,1557.0,-1308.0,-1331.0,0.197,0.144,-0.196,-0.95
295915,-2382.0,102.0,7280.0,1440.0,-1418.0,-1073.0,0.183,0.136,-0.209,-0.951
295937,-2468.0,482.0,7088.0,1373.0,-1565.0,-818.0,0.171,0.126,-0.222,-0.952
295949,-2596.0,50.0,7462.0,1391.0,-1731.0,-531.0,0.161,0.114,-0.236,-0.952
295971,-2150.0,-828.0,8968.0,1351.0,-1726.0,-7.0,0.155,0.101,-0.25,-0.95
295983,-1906.0,22.0,10754.0,1449.0,-1512.0,585.0,0.156,0.088,-0.266,-0.947
296005,-2266.0,874.0,11668.0,1781.0,-1358.0,905.0,0.159,0.076,-0.284,-0.942
296027,-2554.0,842.0,11482.0,2065.0,-1212.0,1066.0,0.163,0.066,-0.305,-0.936
296039,-3128.0,-1326.0,8064.0,2381.0,-1188.0,1359.0,0.17,0.056,-0.327,-0.928
296061,-2528.0,-1642.0,5298.0,2604.0,-1070.0,1703.0,0.18,0.045,-0.352,-0.917
296073,-1784.0,2954.0,4230.0,2513.0,-710.0,1859.0,0.193,0.037,-0.375,-0.906
296095,-1770.0,8056.0,5384.0,1652.0,-364.0,1701.0,0.205,0.031,-0.39,-0.897
296107,-1898.0,10218.0,6918.0,109.0,-409.0,1547.0,0.216,0.022,-0.392,-0.894
296129,-1504.0,8672.0,7552.0,-1104.0,-630.0,1383.0,0.226,0.01,-0.385,-0.895
296141,-664.0,8648.0,7974.0,-1547.0,-772.0,1249.0,0.233,-0.004,-0.373,-0.898
296163,670.0,10452.0,7564.0,-1653.0,-830.0,993.0,0.239,-0.018,-0.361,-0.901
296175,1408.0,11104.0,7612.0,-1738.0,-1079.0,562.0,0.239,-0.033,-0.349,-0.906
296197,2690.0,11564.0,7640.0,-1657.0,-1064.0,-43.0,0.235,-0.046,-0.337,-0.911
296219,3322.0,10466.0,7738.0,-1571.0,-1005.0,-254.0,0.229,-0.057,-0.326,-0.915
296231,2648.0,10102.0,7862.0,-1252.0,-962.0,-1475.0,0.213,-0.063,-0.318,-0.922
296253,3756.0,8638.0,7248.0,-1376.0,-623.0,113.0,0.211,-0.072,-0.308,-0.925
296265,1836.0,8374.0,6050.0,-1159.0,-832.0,-807.0,0.201,-0.079,-0.3,-0.929
296287,3256.0,6786.0,5920.0,-1313.0,-893.0,-1482.0,0.185,-0.085,-0.291,-0.935
296299,3200.0,4412.0,5522.0,-1085.0,-619.0,-1561.0,0.168,-0.088,-0.284,-0.94
296321,2096.0,3118.0,4940.0,-859.0,-847.0,-1414.0,0.153,-0.093,-0.279,-0.943
296333,2776.0,2052.0,3692.0,-414.0,-1000.0,-1397.0,0.138,-0.099,-0.278,-0.945
296355,3040.0,3088.0,3144.0,-650.0,-1222.0,-1247.0,0.123,-0.107,-0.275,-0.947
296377,3456.0,2852.0,3574.0,-1371.0,-1270.0,-1158.0,0.109,-0.117,-0.265,-0.951
296389,3682.0,2318.0,4702.0,-2179.0,-1354.0,-1004.0,0.094,-0.129,-0.248,-0.955
296411,3140.0,300.0,3354.0,-2608.0,-1644.0,-807.0,0.08,-0.143,-0.227,-0.96
296423,4030.0,-350.0,2976.0,-2481.0,-1828.0,-680.0,0.067,-0.16,-0.207,-0.963
296445,6038.0,1152.0,6864.0,-2541.0,-1483.0,-471.0,0.056,-0.174,-0.186,-0.965
296457,6280.0,4112.0,14336.0,-2730.0,-1230.0,-320.0,0.047,-0.186,-0.163,-0.968
296479,4774.0,-2938.0,13680.0,-2187.0,-1270.0,-781.0,0.034,-0.197,-0.145,-0.969
296491,4728.0,-5864.0,6022.0,-607.0,-921.0,-564.0,0.027,-0.205,-0.141,-0.968
296513,5030.0,-1916.0,5718.0,1203.0,-395.0,161.0,0.03,-0.209,-0.151,-0.966
296525,5388.0,3694.0,7320.0,1394.0,-86.0,551.0,0.038,-0.21,-0.162,-0.963
296547,4108.0,4158.0,7906.0,558.0,-154.0,480.0,0.044,-0.212,-0.166,-0.962
296569,4862.0,4550.0,8018.0,-248.0,-312.0,-116.0,0.042,-0.214,-0.165,-0.962
296581,4208.0,2814.0,6694.0,-919.0,-640.0,-204.0,0.037,-0.22,-0.157,-0.962
296603,4552.0,1296.0,6206.0,-712.0,-733.0,-98.0,0.034,-0.227,-0.151,-0.961
296615,4304.0,356.0,6358.0,-29.0,-602.0,74.0,0.034,-0.233,-0.15,-0.96
296637,4622.0,1002.0,6946.0,477.0,-403.0,218.0,0.037,-0.237,-0.154,-0.959
296649,4778.0,4126.0,7332.0,33.0,-232.0,354.0,0.04,-0.239,-0.154,-0.958
296671,4096.0,3118.0,6784.0,-612.0,-398.0,264.0,0.04,-0.244,-0.148,-0.958
296693,4404.0,1614.0,7110.0,-699.0,-483.0,84.0,0.039,-0.248,-0.142,-0.957
296705,4758.0,1208.0,7356.0,-305.0,-456.0,93.0,0.039,-0.253,-0.139,-0.957
296727,4780.0,570.0,6988.0,218.0,-381.0,102.0,0.04,-0.256,-0.14,-0.956
296739,4828.0,1818.0,6614.0,464.0,-298.0,270.0,0.044,-0.259,-0.144,-0.954
296761,4598.0,2662.0,6602.0,-16.0,-218.0,345.0,0.047,-0.262,-0.143,-0.953
296773,4586.0,3102.0,7268.0,-370.0,-249.0,231.0,0.048,-0.264,-0.14,-0.953
296795,4494.0,2680.0,6850.0,-512.0,-281.0,170.0,0.048,-0.267,-0.135,-0.953
296812,4300.0,1592.0,6554.0,-465.0,-295.0,131.0,0.047,-0.27,-0.131,-0.953
296824,4292.0,1042.0,6720.0,-306.0,-247.0,209.0,0.048,-0.273,-0.127,-0.952
296846,4222.0,1306.0,7014.0,-245.0,-188.0,275.0,0.05,-0.275,-0.125,-0.952
296858,4112.0,1374.0,7110.0,-233.0,-137.0,349.0,0.053,-0.276,-0.122,-0.952
296880,4164.0,1582.0,6886.0,-255.0,-70.0,345.0,0.055,-0.277,-0.119,-0.952
296902,4202.0,1512.0,6718.0,-323.0,-38.0,301.0,0.057,-0.278,-0.115,-0.952
296914,4370.0,1306.0,6624.0,-254.0,14.0,262.0,0.059,-0.278,-0.112,-0.952
296936,4432.0,1704.0,6580.0,-155.0,36.0,253.0,0.061,-0.278,-0.11,-0.952
296948,4578.0,2054.0,6716.0,-91.0,53.0,257.0,0.064,-0.278,-0.109,-0.952
296970,4640.0,2080.0,6720.0,-41.0,22.0,264.0,0.066,-0.278,-0.108,-0.952
296982,4714.0,1904.0,6600.0,-10.0,8.0,243.0,0.068,-0.279,-0.108,-0.952
297004,4670.0,1706.0,6702.0,-23.0,-5.0,198.0,0.07,-0.279,-0.107,-0.952
297016,4480.0,1214.0,6960.0,-56.0,-21.0,135.0,0.071,-0.279,-0.106,-0.952
297038,4300.0,954.0,6838.0,-33.0,-20.0,82.0,0.072,-0.279,-0.106,-0.952
297060,4170.0,1324.0,7098.0,-3.0,-7.0,97.0,0.073,-0.279,-0.105,-0.952
297072,3970.0,1864.0,7342.0,-20.0,-28.0,121.0,0.074,-0.28,-0.105,-0.951
297094,4068.0,2216.0,7132.0,-89.0,-92.0,104.0,0.075,-0.28,-0.104,-0.951
297106,4378.0,1886.0,6844.0,-179.0,-149.0,82.0,0.075,-0.282,-0.103,-0.951
297128,4958.0,1690.0,6714.0,-143.0,-209.0,45.0,0.076,-0.284,-0.102,-0.95
297140,5086.0,1774.0,6472.0,-108.0,-192.0,-16.0,0.075,-0.286,-0.101,-0.95
297162,4942.0,1606.0,5924.0,-282.0,-140.0,-75.0,0.074,-0.287,-0.099,-0.95
297174,4714.0,792.0,6200.0,-491.0,-98.0,-94.0,0.072,-0.288,-0.095,-0.95
297196,4320.0,438.0,6952.0,-465.0,-32.0,-50.0,0.071,-0.289,-0.091,-0.95
297218,4028.0,-114.0,7392.0,-195.0,31.0,5.0,0.07,-0.288,-0.089,-0.951
297230,3996.0,-232.0,7408.0,164.0,112.0,69.0,0.072,-0.287,-0.09,-0.951
297252,4340.0,268.0,6702.0,389.0,167.0,127.0,0.074,-0.286,-0.093,-0.951
297264,4858.0,676.0,6742.0,455.0,185.0,113.0,0.077,-0.284,-0.097,-0.951
297286,5040.0,1246.0,6624.0,363.0,174.0,32.0,0.079,-0.282,-0.1,-0.951
297298,4996.0,1024.0,6458.0,239.0,140.0,-57.0,0.079,-0.281,-0.102,-0.951
297320,4592.0,584.0,6750.0,197.0,121.0,-43.0,0.08,-0.279,-0.104,-0.951
297332,4214.0,1132.0,7250.0,269.0,106.0,53.0,0.081,-0.278,-0.106,-0.951
297354,4230.0,2194.0,7414.0,284.0,70.0,117.0,0.083,-0.277,-0.108,-0.951
297366,4362.0,2662.0,6774.0,99.0,36.0,91.0,0.085,-0.277,-0.109,-0.951
297388,4592.0,2386.0,6458.0,-171.0,-21.0,29.0,0.084,-0.277,-0.108,-0.951
297410,5022.0,1808.0,6584.0,-228.0,-135.0,-73.0,0.083,-0.279,-0.106,-0.951
297422,5726.0,1686.0,6642.0,-22.0,-303.0,-298.0,0.08,-0.281,-0.107,-0.95
297444,4494.0,1880.0,6092.0,-195.0,-85.0,-179.0,0.078,-0.282,-0.106,-0.95
297456,4330.0,832.0,6492.0,-502.0,-3.0,-183.0,0.076,-0.282,-0.102,-0.951
297478,3764.0,2.0,7554.0,-441.0,29.0,-24.0,0.075,-0.282,-0.098,-0.951
297490,3332.0,-122.0,8020.0,68.0,91.0,77.0,0.076,-0.281,-0.098,-0.952
297512,3846.0,306.0,7582.0,513.0,175.0,248.0,0.08,-0.279,-0.102,-0.952
297524,4492.0,324.0,6956.0,702.0,173.0,196.0,0.084,-0.277,-0.107,-0.951
297546,5104.0,606.0,6896.0,669.0,136.0,110.0,0.087,-0.276,-0.113,-0.951
297568,5324.0,776.0,6420.0,647.0,120.0,72.0,0.09,-0.274,-0.118,-0.95
297580,4824.0,1332.0,6082.0,551.0,161.0,126.0,0.093,-0.273,-0.123,-0.95
297602,4222.0,2490.0,6462.0,327.0,151.0,163.0,0.095,-0.271,-0.125,-0.95
297614,3714.0,2758.0,7048.0,83.0,37.0,130.0,0.097,-0.271,-0.126,-0.949
297636,3886.0,2744.0,6822.0,-13.0,-23.0,117.0,0.098,-0.271,-0.126,-0.949
297648,4242.0,2698.0,6238.0,-128.0,-37.0,100.0,0.099,-0.271,-0.125,-0.949
297670,4612.0,2432.0,6022.0,-280.0,-52.0,27.0,0.098,-0.272,-0.123,-0.949
297682,4664.0,1788.0,6718.0,-407.0,-85.0,-46.0,0.097,-0.273,-0.119,-0.95
297704,4854.0,1434.0,7032.0,-307.0,-159.0,-171.0,0.095,-0.275,-0.117,-0.95
297716,4764.0,1496.0,6884.0,-252.0,-133.0,-159.0,0.093,-0.276,-0.116,-0.95
297739,4322.0,1096.0,6868.0,-267.0,-17.0,-97.0,0.091,-0.276,-0.114,-0.95
297751,4278.0,432.0,7302.0,-157.0,42.0,-38.0,0.091,-0.276,-0.112,-0.95
297774,4102.0,84.0,7668.0,127.0,82.0,38.0,0.092,-0.275,-0.113,-0.95
297796,4462.0,-12.0,7540.0,504.0,107.0,66.0,0.094,-0.273,-0.117,-0.95
297808,4672.0,-202.0,7268.0,840.0,119.0,59.0,0.098,-0.272,-0.124,-0.949
297830,4942.0,338.0,6740.0,1016.0,147.0,46.0,0.101,-0.27,-0.132,-0.948
297842,4732.0,1854.0,5970.0,965.0,240.0,77.0,0.105,-0.267,-0.14,-0.948
297864,4274.0,3542.0,5646.0,554.0,272.0,85.0,0.107,-0.264,-0.145,-0.947
297876,3732.0,3462.0,6534.0,23.0,145.0,38.0,0.108,-0.262,-0.146,-0.948
297898,3730.0,3040.0,6874.0,-185.0,45.0,-31.0,0.107,-0.262,-0.144,-0.948
297910,4204.0,2876.0,6434.0,-263.0,0.0,-84.0,0.106,-0.262,-0.143,-0.949
297932,4370.0,1916.0,6534.0,-314.0,-8.0,-116.0,0.105,-0.262,-0.14,-0.949
297944,4510.0,1626.0,6960.0,-272.0,-22.0,-154.0,0.103,-0.263,-0.138,-0.949
297966,4564.0,1862.0,7068.0,-197.0,-70.0,-229.0,0.1,-0.263,-0.137,-0.95
297988,4576.0,1926.0,6856.0,-204.0,-54.0,-233.0,0.098,-0.263,-0.136,-0.95
298000,4378.0,1494.0,6848.0,-224.0,30.0,-124.0,0.096,-0.263,-0.134,-0.95
298022,4204.0,808.0,7412.0,-114.0,26.0,-66.0,0.096,-0.263,-0.133,-0.951
302673,-870.0,2782.0,7770.0,-169.0,-64.0,-238.0,0.565,0.148,-0.084,-0.808
302695,-510.0,2288.0,7872.0,-199.0,-53.0,-283.0,0.563,0.146,-0.082,-0.809
302717,-294.0,2646.0,7790.0,-212.0,45.0,-127.0,0.562,0.146,-0.081,-0.81
302729,-66.0,3016.0,7928.0,-233.0,124.0,-141.0,0.562,0.145,-0.078,-0.811
302751,386.0,2926.0,7656.0,-57.0,143.0,-286.0,0.56,0.146,-0.077,-0.812
302763,688.0,2768.0,8070.0,-83.0,381.0,-373.0,0.558,0.148,-0.074,-0.813
302785,918.0,3256.0,8116.0,-35.0,539.0,-525.0,0.554,0.152,-0.071,-0.815
302797,1390.0,7186.0,7694.0,348.0,671.0,-942.0,0.547,0.16,-0.069,-0.819
302819,2326.0,7908.0,4404.0,703.0,654.0,-1081.0,0.538,0.169,-0.069,-0.823
302831,2064.0,5008.0,4366.0,1633.0,403.0,-2086.0,0.52,0.182,-0.076,-0.831
302853,1614.0,8410.0,5520.0,1608.0,577.0,-1759.0,0.504,0.195,-0.083,-0.837
302875,-354.0,7052.0,5558.0,889.0,189.0,-1807.0,0.488,0.203,-0.087,-0.845
302887,-580.0,6834.0,4618.0,790.0,-74.0,-2236.0,0.469,0.208,-0.09,-0.854
302909,-1058.0,6868.0,3496.0,823.0,-459.0,-2544.0,0.447,0.21,-0.095,-0.865
302921,-1298.0,5480.0,3392.0,936.0,-768.0,-2558.0,0.423,0.21,-0.1,-0.876
302943,-1690.0,4800.0,3932.0,1107.0,-1063.0,-2555.0,0.399,0.208,-0.109,-0.886
302955,-1722.0,3370.0,4608.0,1317.0,-1448.0,-2737.0,0.372,0.204,-0.12,-0.898
302977,-1440.0,2132.0,5502.0,1442.0,-1761.0,-2734.0,0.344,0.197,-0.132,-0.908
302989,-1176.0,966.0,6594.0,1431.0,-1949.0,-2519.0,0.318,0.188,-0.146,-0.918
303011,-1220.0,644.0,7364.0,1267.0,-2058.0,-2209.0,0.293,0.177,-0.159,-0.926
303033,-1540.0,532.0,7578.0,1102.0,-2268.0,-1903.0,0.272,0.163,-0.171,-0.933
303045,-1372.0,354.0,8296.0,895.0,-2504.0,-1672.0,0.252,0.145,-0.182,-0.939
303067,-1170.0,38.0,9622.0,675.0,-2518.0,-1422.0,0.234,0.127,-0.191,-0.945
303079,-1410.0,10.0,9840.0,712.0,-2561.0,-1167.0,0.218,0.108,-0.202,-0.949
303101,-806.0,1390.0,10340.0,953.0,-2317.0,-994.0,0.204,0.092,-0.214,-0.951
303113,-982.0,1318.0,10724.0,1139.0,-2130.0,-874.0,0.19,0.076,-0.227,-0.952
303135,-1204.0,126.0,10150.0,1236.0,-2022.0,-656.0,0.179,0.062,-0.241,-0.952
303147,-1020.0,532.0,9316.0,1268.0,-1730.0,-394.0,0.171,0.05,-0.255,-0.95
303169,-1020.0,1672.0,8954.0,975.0,-1522.0,-137.0,0.166,0.038,-0.266,-0.949
303191,-752.0,2428.0,9226.0,629.0,-1527.0,-76.0,0.161,0.026,-0.274,-0.948
303203,-180.0,3244.0,9534.0,391.0,-1472.0,-91.0,0.157,0.014,-0.28,-0.947
303225,328.0,3998.0,9058.0,25.0,-1400.0,18.0,0.153,0.001,-0.282,-0.947
303237,454.0,3124.0,8140.0,-295.0,-1461.0,114.0,0.15,-0.012,-0.281,-0.948
303259,874.0,2228.0,7390.0,-244.0,-1546.0,180.0,0.148,-0.027,-0.28,-0.948
303271,1124.0,3436.0,6906.0,-66.0,-1601.0,64.0,0.144,-0.041,-0.282,-0.948
303293,542.0,6690.0,6704.0,537.0,-1732.0,-1496.0,0.127,-0.052,-0.289,-0.947
303305,6476.0,1840.0,6888.0,761.0,-1086.0,1865.0,0.141,-0.066,-0.296,-0.942
303327,2324.0,5050.0,6668.0,554.0,-813.0,1688.0,0.154,-0.077,-0.301,-0.938
303339,3034.0,6394.0,7634.0,-226.0,-1017.0,921.0,0.159,-0.089,-0.3,-0.936
303361,4468.0,6858.0,12372.0,-198.0,-1114.0,115.0,0.156,-0.099,-0.3,-0.936
303383,5626.0,9330.0,12980.0,-77.0,-386.0,-339.0,0.152,-0.101,-0.3,-0.936
303395,2242.0,6084.0,9038.0,-396.0,-594.0,-334.0,0.148,-0.106,-0.298,-0.937
303417,2340.0,4444.0,5778.0,-343.0,-837.0,-650.0,0.139,-0.112,-0.297,-0.938
303429,2708.0,3894.0,5004.0,-473.0,-825.0,-299.0,0.134,-0.119,-0.294,-0.939
303451,2734.0,3824.0,5166.0,-934.0,-888.0,54.0,0.131,-0.128,-0.287,-0.94
303463,3264.0,3498.0,6098.0,-1065.0,-955.0,-121.0,0.126,-0.138,-0.279,-0.942
303485,3362.0,3974.0,6978.0,-1054.0,-883.0,-246.0,0.121,-0.146,-0.271,-0.944
303497,2812.0,3130.0,6798.0,-964.0,-873.0,-149.0,0.116,-0.154,-0.263,-0.945
303519,2482.0,2652.0,6444.0,-772.0,-787.0,-10.0,0.113,-0.162,-0.257,-0.946
303531,2382.0,2798.0,6532.0,-564.0,-729.0,61.0,0.111,-0.169,-0.253,-0.946
303554,2646.0,2646.0,6508.0,-426.0,-680.0,170.0,0.11,-0.176,-0.249,-0.946
303576,3082.0,3048.0,6456.0,-302.0,-615.0,304.0,0.111,-0.182,-0.247,-0.945
303588,3246.0,2916.0,6354.0,-128.0,-574.0,370.0,0.113,-0.188,-0.246,-0.944
303610,3320.0,2454.0,6046.0,32.0,-558.0,414.0,0.115,-0.194,-0.246,-0.943
303622,3412.0,2628.0,6006.0,289.0,-521.0,459.0,0.119,-0.199,-0.248,-0.941
303644,3972.0,3558.0,6334.0,409.0,-401.0,529.0,0.123,-0.204,-0.251,-0.938
303656,4194.0,4086.0,6160.0,482.0,-337.0,560.0,0.129,-0.208,-0.255,-0.936
303678,4048.0,4416.0,5870.0,505.0,-266.0,579.0,0.134,-0.211,-0.259,-0.933
303690,3756.0,4046.0,6326.0,345.0,-264.0,582.0,0.139,-0.214,-0.261,-0.931
303712,3712.0,3874.0,6556.0,147.0,-271.0,525.0,0.143,-0.217,-0.262,-0.929
303724,3806.0,3748.0,6876.0,-2.0,-285.0,437.0,0.147,-0.221,-0.261,-0.928
303746,3864.0,2988.0,6598.0,-86.0,-314.0,398.0,0.149,-0.224,-0.26,-0.927
303768,3984.0,2864.0,6376.0,-33.0,-259.0,438.0,0.152,-0.228,-0.259,-0.926
303780,3926.0,3492.0,6036.0,-35.0,-207.0,427.0,0.156,-0.23,-0.258,-0.925
303802,3928.0,3156.0,6234.0,-113.0,-159.0,408.0,0.159,-0.233,-0.256,-0.925
303814,4154.0,3104.0,6104.0,-116.0,-117.0,422.0,0.162,-0.235,-0.255,-0.924
303836,4090.0,2732.0,5950.0,-144.0,-77.0,446.0,0.165,-0.237,-0.253,-0.923
303848,4406.0,2880.0,5632.0,-104.0,-15.0,489.0,0.169,-0.238,-0.251,-0.923
303870,4612.0,3336.0,5844.0,-101.0,26.0,535.0,0.174,-0.24,-0.249,-0.922
303882,4912.0,3258.0,5974.0,-98.0,21.0,533.0,0.178,-0.241,-0.247,-0.922
303904,5332.0,3388.0,6018.0,-102.0,24.0,523.0,0.183,-0.242,-0.245,-0.921
303926,5426.0,3234.0,5806.0,-138.0,7.0,484.0,0.187,-0.244,-0.243,-0.92
303938,5600.0,2616.0,5898.0,-158.0,-14.0,466.0,0.19,-0.245,-0.24,-0.92
303960,5730.0,2924.0,6254.0,-172.0,3.0,434.0,0.194,-0.247,-0.238,-0.919
303972,5718.0,2640.0,6246.0,-275.0,-94.0,388.0,0.196,-0.249,-0.235,-0.919
303994,5904.0,2404.0,5876.0,-271.0,-126.0,341.0,0.199,-0.252,-0.232,-0.918
304006,5822.0,2160.0,5668.0,-201.0,-127.0,361.0,0.201,-0.254,-0.23,-0.918
304028,5920.0,1948.0,5728.0,-125.0,-69.0,434.0,0.205,-0.256,-0.228,-0.917
304040,5764.0,1994.0,5738.0,-52.0,-44.0,386.0,0.208,-0.258,-0.226,-0.916
304062,5852.0,2454.0,6072.0,-43.0,-30.0,341.0,0.211,-0.259,-0.225,-0.915
304074,5622.0,2662.0,6106.0,-165.0,-48.0,323.0,0.213,-0.261,-0.223,-0.915
304097,5618.0,2454.0,6036.0,-274.0,-93.0,310.0,0.215,-0.263,-0.22,-0.914
304119,5508.0,1850.0,5926.0,-315.0,-113.0,327.0,0.217,-0.265,-0.217,-0.914
304131,5658.0,1678.0,6078.0,-233.0,-90.0,324.0,0.219,-0.267,-0.215,-0.913
304153,5420.0,2152.0,6204.0,-101.0,-43.0,339.0,0.222,-0.269,-0.213,-0.913
304165,5482.0,2270.0,6144.0,-33.0,-48.0,281.0,0.224,-0.27,-0.212,-0.912
304187,5452.0,2026.0,6134.0,-15.0,-59.0,229.0,0.226,-0.271,-0.212,-0.911
304199,5358.0,1704.0,5680.0,7.0,-31.0,161.0,0.228,-0.272,-0.211,-0.911
304221,5536.0,1626.0,5834.0,148.0,28.0,107.0,0.229,-0.272,-0.212,-0.91
304233,5282.0,1830.0,5996.0,193.0,55.0,116.0,0.231,-0.271,-0.213,-0.91
304255,5222.0,1990.0,6088.0,251.0,79.0,92.0,0.232,-0.27,-0.215,-0.909
304267,5074.0,2360.0,6316.0,235.0,100.0,147.0,0.234,-0.269,-0.217,-0.909
304289,4830.0,2498.0,6458.0,189.0,83.0,132.0,0.236,-0.268,-0.218,-0.908
304311,4752.0,2528.0,6366.0,199.0,76.0,107.0,0.238,-0.267,-0.219,-0.908
304323,4764.0,2334.0,6270.0,137.0,68.0,107.0,0.239,-0.267,-0.22,-0.907
304345,4744.0,2416.0,6298.0,95.0,74.0,115.0,0.241,-0.266,-0.22,-0.907
304357,4684.0,2274.0,6178.0,96.0,66.0,127.0,0.242,-0.265,-0.221,-0.907
304379,4762.0,2302.0,6134.0,112.0,61.0,111.0,0.244,-0.265,-0.221,-0.906
304391,4790.0,2380.0,6186.0,118.0,66.0,106.0,0.245,-0.264,-0.222,-0.906
304413,4752.0,2502.0,6192.0,107.0,59.0,65.0,0.246,-0.263,-0.223,-0.906
304425,4804.0,2448.0,6170.0,77.0,50.0,30.0,0.247,-0.263,-0.223,-0.906
304447,4904.0,2280.0,6114.0,62.0,50.0,7.0,0.247,-0.262,-0.224,-0.906
304469,4882.0,2454.0,6222.0,80.0,61.0,-3.0,0.248,-0.262,-0.224,-0.905
304481,4828.0,2384.0,6270.0,76.0,50.0,-35.0,0.248,-0.261,-0.225,-0.905
304503,4924.0,2364.0,6270.0,85.0,55.0,-36.0,0.248,-0.26,-0.226,-0.905
304515,4786.0,2406.0,6282.0,85.0,55.0,-40.0,0.248,-0.259,-0.226,-0.905
304537,4788.0,2534.0,6250.0,67.0,37.0,-61.0,0.248,-0.259,-0.227,-0.906
304549,4798.0,2366.0,6246.0,21.0,18.0,-75.0,0.247,-0.258,-0.227,-0.906
304571,4790.0,2326.0,6276.0,-8.0,6.0,-63.0,0.247,-0.258,-0.228,-0.906
304588,4900.0,2116.0,6152.0,-3.0,11.0,-51.0,0.247,-0.258,-0.228,-0.906
304600,4902.0,2332.0,6200.0,42.0,13.0,-47.0,0.247,-0.258,-0.228,-0.906
304622,4888.0,2426.0,6170.0,35.0,7.0,-57.0,0.246,-0.257,-0.229,-0.906
304644,4920.0,2356.0,6128.0,22.0,14.0,-64.0,0.246,-0.257,-0.229,-0.906
304656,4980.0,2228.0,6168.0,19.0,14.0,-60.0,0.246,-0.257,-0.229,-0.906
304678,4998.0,2456.0,6180.0,34.0,28.0,-53.0,0.245,-0.256,-0.23,-0.906
304690,4972.0,2078.0,6274.0,53.0,20.0,-24.0,0.246,-0.256,-0.23,-0.906
304712,4938.0,2514.0,6140.0,77.0,27.0,-11.0,0.246,-0.256,-0.231,-0.906
304724,4828.0,2364.0,6122.0,15.0,9.0,-5.0,0.246,-0.256,-0.231,-0.906
304746,4940.0,2310.0,6202.0,7.0,9.0,12.0,0.246,-0.256,-0.231,-0.906
304758,4832.0,2450.0,6262.0,5.0,1.0,21.0,0.246,-0.256,-0.231,-0.906
304780,4870.0,2340.0,6214.0,2.0,-5.0,39.0,0.247,-0.256,-0.231,-0.906
304802,4846.0,2346.0,6152.0,39.0,5.0,54.0,0.247,-0.256,-0.231,-0.906
304814,4848.0,2332.0,6140.0,39.0,16.0,73.0,0.248,-0.256,-0.231,-0.905
304836,4810.0,2346.0,6130.0,33.0,15.0,70.0,0.249,-0.256,-0.231,-0.905
304848,4858.0,2522.0,6252.0,26.0,8.0,33.0,0.249,-0.256,-0.231,-0.905
304870,4808.0,2346.0,6158.0,13.0,2.0,29.0,0.25,-0.256,-0.232,-0.905
304882,4892.0,2462.0,6222.0,28.0,15.0,42.0,0.25,-0.256,-0.232,-0.905
304904,4842.0,2624.0,6140.0,27.0,15.0,50.0,0.251,-0.255,-0.232,-0.904
304916,4838.0,2488.0,6132.0,41.0,13.0,40.0,0.251,-0.255,-0.232,-0.904
304938,4830.0,2490.0,6158.0,41.0,12.0,24.0,0.252,-0.255,-0.232,-0.904
304960,4842.0,2374.0,6130.0,30.0,17.0,9.0,0.252,-0.255,-0.233,-0.904
304972,4970.0,2316.0,6278.0,56.0,18.0,37.0,0.253,-0.255,-0.233,-0.904
304994,4798.0,2498.0,6214.0,50.0,9.0,9.0,0.253,-0.255,-0.233,-0.904
305006,4934.0,2454.0,6200.0,43.0,13.0,10.0,0.253,-0.254,-0.234,-0.904
305028,4800.0,2420.0,6168.0,24.0,13.0,-23.0,0.253,-0.254,-0.234,-0.904
305040,4926.0,2328.0,6266.0,23.0,17.0,-18.0,0.254,-0.254,-0.234,-0.904
305062,4858.0,2452.0,6260.0,22.0,15.0,-34.0,0.253,-0.254,-0.235,-0.904
305074,4854.0,2330.0,6190.0,14.0,7.0,-36.0,0.253,-0.253,-0.235,-0.904
305096,4860.0,2358.0,6200.0,25.0,19.0,-13.0,0.254,-0.253,-0.235,-0.904
305108,4794.0,2410.0,6212.0,42.0,16.0,-15.0,0.254,-0.253,-0.235,-0.903
305130,4814.0,2520.0,6180.0,27.0,17.0,15.0,0.254,-0.253,-0.236,-0.903
305152,4838.0,2484.0,6170.0,30.0,8.0,-33.0,0.254,-0.253,-0.236,-0.903
305164,4906.0,2516.0,6184.0,4.0,3.0,-25.0,0.254,-0.252,-0.236,-0.903
305186,4918.0,2292.0,6176.0,0.0,3.0,-25.0,0.254,-0.252,-0.236,-0.903
305198,4954.0,2520.0,6182.0,17.0,13.0,-1.0,0.254,-0.252,-0.236,-0.903
305220,4874.0,2424.0,6154.0,15.0,10.0,-4.0,0.254,-0.252,-0.237,-0.903
305232,4950.0,2382.0,6118.0,37.0,17.0,-3.0,0.254,-0.252,-0.237,-0.903
305254,4910.0,2478.0,6154.0,35.0,16.0,3.0,0.254,-0.252,-0.237,-0.903
305266,4958.0,2480.0,6198.0,36.0,14.0,-2.0,0.255,-0.252,-0.237,-0.903
305288,4876.0,2492.0,6162.0,42.0,19.0,5.0,0.255,-0.251,-0.238,-0.903
305310,4866.0,2462.0,6212.0,23.0,15.0,10.0,0.255,-0.251,-0.238,-0.903
305322,4844.0,2562.0,6182.0,17.0,10.0,9.0,0.256,-0.251,-0.238,-0.903
305344,4866.0,2460.0,6174.0,14.0,9.0,16.0,0.256,-0.251,-0.238,-0.903
305356,4790.0,2440.0,6160.0,17.0,6.0,25.0,0.256,-0.251,-0.238,-0.903
305378,4866.0,2552.0,6148.0,24.0,10.0,25.0,0.257,-0.251,-0.238,-0.902
305390,4872.0,2540.0,6102.0,26.0,13.0,33.0,0.257,-0.251,-0.239,-0.902
305412,4886.0,2578.0,6064.0,15.0,19.0,45.0,0.257,-0.251,-0.239,-0.902
305424,4858.0,2588.0,6100.0,12.0,17.0,42.0,0.258,-0.251,-0.239,-0.902
305446,4834.0,2452.0,6098.0,10.0,17.0,33.0,0.258,-0.251,-0.239,-0.902
305458,4876.0,2520.0,6156.0,26.0,21.0,36.0,0.259,-0.25,-0.239,-0.902
305480,4812.0,2582.0,6202.0,15.0,15.0,27.0,0.259,-0.25,-0.239,-0.902
305502,4844.0,2538.0,6200.0,9.0,8.0,25.0,0.259,-0.25,-0.239,-0.902
305514,4804.0,2450.0,6212.0,2.0,7.0,19.0,0.26,-0.25,-0.239,-0.902
305536,4868.0,2500.0,6152.0,11.0,15.0,17.0,0.26,-0.25,-0.239,-0.902
305548,4830.0,2464.0,6126.0,12.0,10.0,10.0,0.26,-0.25,-0.239,-0.901
305570,4798.0,2468.0,6146.0,-4.0,9.0,-2.0,0.26,-0.25,-0.239,-0.901
305582,4816.0,2410.0,6186.0,-8.0,10.0,-5.0,0.26,-0.25,-0.239,-0.901
305604,4802.0,2438.0,6226.0,-5.0,8.0,-8.0,0.26,-0.25,-0.239,-0.902
305616,4870.0,2516.0,6200.0,-9.0,-1.0,-16.0,0.26,-0.25,-0.239,-0.902
305638,4878.0,2520.0,6202.0,-9.0,-3.0,-7.0,0.26,-0.25,-0.239,-0.902
305660,4932.0,2568.0,6144.0,-12.0,-4.0,-8.0,0.26,-0.25,-0.239,-0.902
305672,4842.0,2446.0,6164.0,-6.0,-1.0,-12.0,0.26,-0.25,-0.239,-0.901
305694,4918.0,2396.0,6154.0,-2.0,3.0,-18.0,0.26,-0.25,-0.239,-0.901
305706,4880.0,2504.0,6098.0,-1.0,0.0,-8.0,0.26,-0.25,-0.239,-0.901
305728,4906.0,2470.0,6098.0,1.0,4.0,-16.0,0.26,-0.25,-0.239,-0.901
305740,4898.0,2398.0,6108.0,5.0,5.0,-15.0,0.26,-0.25,-0.239,-0.901
305762,4932.0,2460.0,6176.0,6.0,9.0,-11.0,0.26,-0.25,-0.239,-0.901
305774,4846.0,2440.0,6128.0,2.0,10.0,-14.0,0.26,-0.25,-0.239,-0.901
305796,4964.0,2454.0,6120.0,13.0,14.0,-8.0,0.26,-0.249,-0.239,-0.901
305808,4876.0,2510.0,6160.0,17.0,17.0,4.0,0.261,-0.249,-0.24,-0.901
305831,4904.0,2472.0,6188.0,7.0,12.0,1.0,0.261,-0.249,-0.24,-0.901
305853,4860.0,2488.0,6180.0,3.0,11.0,7.0,0.261,-0.249,-0.24,-0.901
305865,4814.0,2408.0,6164.0,2.0,7.0,8.0,0.261,-0.249,-0.24,-0.901
305887,4868.0,2454.0,6112.0,6.0,15.0,15.0,0.261,-0.249,-0.24,-0.901
305899,4860.0,2544.0,6152.0,4.0,9.0,19.0,0.261,-0.249,-0.24,-0.901
305921,4864.0,2600.0,6178.0,-7.0,6.0,23.0,0.262,-0.249,-0.24,-0.901
305933,4832.0,2460.0,6138.0,-6.0,-2.0,18.0,0.262,-0.249,-0.24,-0.901
305955,4792.0,2450.0,6164.0,-8.0,-3.0,28.0,0.262,-0.249,-0.239,-0.901
305967,4906.0,2444.0,6108.0,0.0,2.0,15.0,0.262,-0.249,-0.239,-0.901
305989,4798.0,2440.0,6134.0,13.0,6.0,14.0,0.263,-0.249,-0.24,-0.901
306001,4862.0,2404.0,6172.0,-5.0,4.0,16.0,0.263,-0.249,-0.24,-0.901
306023,4882.0,2470.0,6188.0,16.0,7.0,0.0,0.263,-0.249,-0.24,-0.901
306045,4942.0,2528.0,6172.0,15.0,6.0,-3.0,0.263,-0.249,-0.24,-0.901
306057,4922.0,2502.0,6188.0,11.0,5.0,-7.0,0.263,-0.249,-0.24,-0.901
306079,4890.0,2432.0,6182.0,-2.0,10.0,-2.0,0.263,-0.249,-0.24,-0.901
306091,4868.0,2424.0,6176.0,5.0,12.0,-1.0,0.263,-0.249,-0.24,-0.901
306113,4800.0,2432.0,6202.0,4.0,11.0,-6.0,0.263,-0.249,-0.24,-0.901
306125,4800.0,2464.0,6180.0,0.0,10.0,-9.0,0.263,-0.249,-0.24,-0.901
306147,4844.0,2464.0,6148.0,-8.0,12.0,-18.0,0.263,-0.249,-0.24,-0.901
306159,4870.0,2488.0,6130.0,11.0,17.0,2.0,0.264,-0.248,-0.24,-0.901
306181,4866.0,2478.0,6118.0,-4.0,7.0,-16.0,0.264,-0.248,-0.24,-0.901
306203,4824.0,2546.0,6214.0,-1.0,15.0,0.0,0.264,-0.248,-0.24,-0.901
306215,4904.0,2510.0,6082.0,-6.0,7.0,-14.0,0.264,-0.248,-0.24,-0.901
306237,4838.0,2572.0,6122.0,2.0,11.0,-5.0,0.264,-0.248,-0.24,-0.901
306249,4818.0,2516.0,6160.0,-1.0,6.0,-10.0,0.264,-0.248,-0.24,-0.901
306271,4884.0,2492.0,6162.0,-9.0,8.0,0.0,0.264,-0.248,-0.24,-0.901
306283,4864.0,2478.0,6166.0,-8.0,5.0,-2.0,0.264,-0.248,-0.24,-0.901
306305,4838.0,2496.0,6158.0,-19.0,5.0,-9.0,0.264,-0.248,-0.24,-0.901
306317,4848.0,2438.0,6196.0,-10.0,2.0,-6.0,0.264,-0.248,-0.24,-0.901
306339,4866.0,2448.0,6144.0,-17.0,1.0,-3.0,0.264,-0.248,-0.24,-0.901
306351,4884.0,2550.0,6172.0,-20.0,-1.0,0.0,0.264,-0.248,-0.24,-0.901
306374,4848.0,2520.0,6196.0,-29.0,-2.0,-1.0,0.264,-0.248,-0.24,-0.901
306386,4884.0,2446.0,6150.0,-29.0,-3.0,8.0,0.264,-0.248,-0.239,-0.901
306409,4886.0,2406.0,6148.0,-11.0,7.0,8.0,0.264,-0.248,-0.239,-0.901
306431,4858.0,2434.0,6138.0,-1.0,5.0,7.0,0.265,-0.248,-0.239,-0.901
306443,4874.0,2432.0,6160.0,-9.0,2.0,5.0,0.265,-0.248,-0.239,-0.901
306465,4866.0,2464.0,6164.0,-5.0,-1.0,3.0,0.265,-0.248,-0.239,-0.901
306477,4840.0,2412.0,6116.0,-6.0,4.0,5.0,0.265,-0.248,-0.239,-0.901
306499,4898.0,2500.0,6170.0,19.0,13.0,2.0,0.265,-0.248,-0.239,-0.9
306511,4860.0,2470.0,6162.0,12.0,7.0,15.0,0.265,-0.248,-0.24,-0.9
306533,4916.0,2446.0,6140.0,7.0,13.0,12.0,0.266,-0.248,-0.24,-0.9
306545,4864.0,2486.0,6136.0,0.0,6.0,5.0,0.266,-0.248,-0.24,-0.9
306567,4802.0,2442.0,6144.0,3.0,9.0,2.0,0.266,-0.248,-0.24,-0.9
306579,4848.0,2462.0,6194.0,8.0,4.0,0.0,0.266,-0.248,-0.24,-0.9
306606,4850.0,2468.0,6162.0,7.0,8.0,4.0,0.266,-0.248,-0.24,-0.9
306618,4866.0,2528.0,6136.0,9.0,14.0,-3.0,0.266,-0.248,-0.24,-0.9
306640,4838.0,2504.0,6154.0,6.0,10.0,-1.0,0.267,-0.248,-0.24,-0.9
306652,4874.0,2510.0,6136.0,16.0,14.0,0.0,0.267,-0.247,-0.24,-0.9
306674,4796.0,2536.0,6176.0,12.0,13.0,-7.0,0.267,-0.247,-0.24,-0.9
306686,4874.0,2500.0,6198.0,3.0,17.0,-8.0,0.267,-0.247,-0.24,-0.9
306708,4854.0,2460.0,6122.0,-4.0,12.0,-11.0,0.267,-0.247,-0.24,-0.9
306720,4928.0,2412.0,6194.0,4.0,8.0,-9.0,0.267,-0.247,-0.24,-0.9
306742,4820.0,2394.0,6192.0,7.0,13.0,-20.0,0.267,-0.247,-0.241,-0.9
306754,4920.0,2446.0,6192.0,17.0,10.0,-13.0,0.267,-0.247,-0.241,-0.9
306776,4850.0,2534.0,6152.0,17.0,14.0,-5.0,0.267,-0.246,-0.241,-0.9
306798,4846.0,2594.0,6160.0,6.0,8.0,-12.0,0.267,-0.246,-0.241,-0.9
306810,4824.0,2498.0,6158.0,-5.0,6.0,-14.0,0.267,-0.246,-0.241,-0.9
306832,4862.0,2468.0,6138.0,-12.0,6.0,-1.0,0.267,-0.246,-0.241,-0.9
306844,4824.0,2476.0,6144.0,-11.0,15.0,-3.0,0.267,-0.246,-0.241,-0.9
306866,4826.0,2502.0,6156.0,-6.0,3.0,-1.0,0.267,-0.246,-0.241,-0.9
306878,4858.0,2470.0,6136.0,-10.0,10.0,11.0,0.268,-0.246,-0.241,-0.9
306900,4886.0,2476.0,6088.0,-4.0,5.0,10.0,0.268,-0.246,-0.241,-0.9
306912,4886.0,2510.0,6146.0,3.0,8.0,15.0,0.268,-0.246,-0.241,-0.9
306934,4692.0,2630.0,6022.0,15.0,6.0,-50.0,0.268,-0.246,-0.241,-0.9
306956,4624.0,2520.0,6138.0,-29.0,-10.0,5.0,0.268,-0.246,-0.241,-0.9
306968,4912.0,2440.0,6190.0,9.0,-8.0,-29.0,0.268,-0.246,-0.241,-0.9
306990,4748.0,2380.0,6150.0,0.0,-3.0,-10.0,0.268,-0.246,-0.241,-0.9
307002,4866.0,2448.0,6200.0,19.0,7.0,4.0,0.268,-0.246,-0.241,-0.9
307024,4732.0,2528.0,6186.0,-4.0,1.0,15.0,0.268,-0.246,-0.241,-0.9
307036,4876.0,2400.0,6178.0,-4.0,4.0,1.0,0.268,-0.246,-0.241,-0.9
307058,4800.0,2550.0,6194.0,18.0,14.0,2.0,0.268,-0.246,-0.241,-0.9
307070,4838.0,2510.0,6202.0,-15.0,1.0,-10.0,0.268,-0.246,-0.241,-0.9
307092,4882.0,2470.0,6184.0,4.0,5.0,-9.0,0.268,-0.246,-0.241,-0.9
307114,4876.0,2426.0,6148.0,-1.0,8.0,3.0,0.268,-0.246,-0.241,-0.9
307126,4896.0,2544.0,6146.0,14.0,12.0,-10.0,0.268,-0.246,-0.241,-0.9
307148,4808.0,2534.0,6094.0,-11.0,7.0,-8.0,0.268,-0.246,-0.241,-0.9
307160,4888.0,2412.0,6108.0,2.0,12.0,-18.0,0.268,-0.246,-0.241,-0.9
307182,4872.0,2494.0,6188.0,13.0,17.0,-17.0,0.268,-0.245,-0.242,-0.9
307194,4858.0,2466.0,6140.0,4.0,10.0,-15.0,0.268,-0.245,-0.242,-0.9
307216,4860.0,2466.0,6182.0,-1.0,9.0,-7.0,0.268,-0.245,-0.242,-0.9
307228,4950.0,2438.0,6212.0,1.0,15.0,-22.0,0.268,-0.245,-0.242,-0.9
307250,4874.0,2414.0,6118.0,18.0,13.0,-21.0,0.268,-0.245,-0.242,-0.9
307262,4886.0,2440.0,6170.0,21.0,14.0,-9.0,0.268,-0.245,-0.242,-0.9
307284,4856.0,2474.0,6204.0,22.0,18.0,-2.0,0.268,-0.245,-0.242,-0.9
307306,4800.0,2538.0,6174.0,23.0,13.0,-3.0,0.269,-0.244,-0.242,-0.9
307318,4834.0,2488.0,6066.0,3.0,13.0,-5.0,0.269,-0.244,-0.243,-0.9
307340,4764.0,2532.0,6138.0,14.0,17.0,-3.0,0.269,-0.244,-0.243,-0.9
307352,4782.0,2494.0,6128.0,16.0,16.0,-9.0,0.269,-0.244,-0.243,-0.9
307374,4820.0,2400.0,6136.0,18.0,13.0,-12.0,0.269,-0.244,-0.243,-0.9
307386,4820.0,2526.0,6168.0,20.0,10.0,-17.0,0.269,-0.244,-0.243,-0.9
307408,4796.0,2554.0,6172.0,10.0,5.0,-12.0,0.268,-0.244,-0.243,-0.9
307420,4752.0,2600.0,6202.0,20.0,8.0,-8.0,0.269,-0.243,-0.243,-0.9
307442,4766.0,2560.0,6146.0,14.0,5.0,-11.0,0.269,-0.243,-0.244,-0.9
307464,4814.0,2398.0,6202.0,18.0,8.0,-9.0,0.269,-0.243,-0.244,-0.9
307476,4830.0,2448.0,6182.0,29.0,0.0,-5.0,0.269,-0.243,-0.244,-0.899
307498,4894.0,2496.0,6186.0,31.0,2.0,-9.0,0.269,-0.243,-0.244,-0.899
307510,4878.0,2548.0,6130.0,44.0,1.0,-21.0,0.269,-0.243,-0.245,-0.899
307532,4848.0,2584.0,6096.0,32.0,7.0,-21.0,0.269,-0.243,-0.245,-0.899
307544,4854.0,2556.0,6132.0,34.0,3.0,-30.0,0.269,-0.243,-0.246,-0.899
307566,4948.0,2460.0,6168.0,30.0,10.0,-39.0,0.269,-0.242,-0.246,-0.899
307578,4900.0,2420.0,6118.0,51.0,22.0,-27.0,0.269,-0.242,-0.246,-0.899
307600,4858.0,2546.0,6158.0,68.0,21.0,-25.0,0.269,-0.242,-0.247,-0.899
307622,4864.0,2650.0,6122.0,70.0,27.0,-26.0,0.269,-0.241,-0.248,-0.899
307634,4848.0,2586.0,6036.0,51.0,27.0,-40.0,0.269,-0.241,-0.248,-0.899
307656,4792.0,2506.0,6034.0,49.0,41.0,-27.0,0.269,-0.24,-0.248,-0.899
307668,4718.0,2598.0,6110.0,46.0,39.0,-32.0,0.269,-0.24,-0.249,-0.899
307690,4806.0,2722.0,6176.0,25.0,19.0,-32.0,0.269,-0.24,-0.249,-0.899
307702,4830.0,2646.0,6226.0,14.0,13.0,-24.0,0.269,-0.239,-0.249,-0.899
307724,4780.0,2590.0,6224.0,5.0,7.0,-9.0,0.269,-0.239,-0.249,-0.899
307736,4822.0,2680.0,6158.0,18.0,7.0,-2.0,0.269,-0.239,-0.25,-0.899
307758,4780.0,2736.0,6150.0,12.0,11.0,-3.0,0.269,-0.239,-0.25,-0.899
307770,4768.0,2708.0,6108.0,-22.0,-2.0,1.0,0.269,-0.239,-0.25,-0.899
307792,4784.0,2496.0,6104.0,-35.0,-6.0,-2.0,0.269,-0.239,-0.249,-0.899
307814,4774.0,2600.0,6154.0,-20.0,-5.0,8.0,0.269,-0.239,-0.249,-0.899
307826,4792.0,2630.0,6090.0,-11.0,-8.0,11.0,0.269,-0.24,-0.249,-0.899
307848,4786.0,2670.0,6140.0,-15.0,-7.0,18.0,0.269,-0.24,-0.249,-0.899
307860,4802.0,2712.0,6142.0,-18.0,-5.0,10.0,0.269,-0.24,-0.249,-0.899
307882,4880.0,2694.0,6056.0,-16.0,-8.0,0.0,0.269,-0.24,-0.249,-0.899
307894,4948.0,2630.0,6052.0,-17.0,-5.0,-10.0,0.269,-0.24,-0.249,-0.899
307916,4874.0,2594.0,6116.0,-7.0,-7.0,1.0,0.269,-0.24,-0.249,-0.899
307928,4858.0,2648.0,6110.0,6.0,-3.0,2.0,0.269,-0.24,-0.249,-0.899
307950,4846.0,2606.0,6104.0,20.0,9.0,-1.0,0.27,-0.24,-0.249,-0.899
307972,4858.0,2644.0,6138.0,25.0,0.0,-19.0,0.27,-0.24,-0.249,-0.899
307984,4854.0,2544.0,6080.0,39.0,11.0,-34.0,0.269,-0.24,-0.25,-0.899
308006,4918.0,2444.0,6074.0,40.0,18.0,-37.0,0.269,-0.24,-0.25,-0.899
308018,4828.0,2524.0,6138.0,52.0,27.0,-38.0,0.269,-0.239,-0.251,-0.899
308040,4844.0,2550.0,6172.0,60.0,35.0,-40.0,0.269,-0.239,-0.251,-0.899
308052,4844.0,2558.0,6146.0,84.0,28.0,-50.0,0.269,-0.238,-0.252,-0.899
308074,4832.0,2462.0,6098.0,90.0,44.0,-57.0,0.269,-0.237,-0.253,-0.898
308086,4828.0,2546.0,6108.0,115.0,52.0,-51.0,0.269,-0.237,-0.254,-0.898
308108,4808.0,2654.0,6194.0,132.0,55.0,-50.0,0.269,-0.236,-0.255,-0.898
308120,4778.0,2724.0,6212.0,148.0,51.0,-49.0,0.269,-0.235,-0.256,-0.898
308143,4716.0,2646.0,6114.0,159.0,46.0,-61.0,0.269,-0.234,-0.257,-0.898
308155,4816.0,2526.0,6208.0,201.0,56.0,-63.0,0.27,-0.233,-0.259,-0.898
308178,4710.0,2624.0,5992.0,255.0,67.0,-68.0,0.27,-0.232,-0.261,-0.897
308200,4738.0,2610.0,6094.0,296.0,76.0,-67.0,0.27,-0.23,-0.264,-0.897
308212,4760.0,2564.0,6134.0,326.0,77.0,-80.0,0.271,-0.228,-0.266,-0.897
308234,4772.0,2312.0,5998.0,415.0,97.0,-71.0,0.271,-0.226,-0.27,-0.896
308246,4802.0,2044.0,6128.0,605.0,147.0,-38.0,0.273,-0.224,-0.274,-0.895
308268,4832.0,1976.0,5844.0,918.0,228.0,9.0,0.275,-0.22,-0.281,-0.893
308280,4880.0,2248.0,5858.0,1365.0,307.0,81.0,0.28,-0.214,-0.291,-0.889
308302,4712.0,3194.0,6228.0,1602.0,348.0,144.0,0.285,-0.207,-0.303,-0.885
308314,4606.0,3866.0,6124.0,1485.0,323.0,121.0,0.29,-0.201,-0.314,-0.881
308336,4582.0,4388.0,5832.0,1233.0,272.0,88.0,0.294,-0.196,-0.324,-0.878
308358,4628.0,4734.0,5674.0,942.0,207.0,71.0,0.297,-0.191,-0.331,-0.875
308370,4570.0,4806.0,5352.0,639.0,122.0,47.0,0.299,-0.189,-0.336,-0.873
308392,4612.0,4770.0,5172.0,384.0,70.0,-3.0,0.299,-0.187,-0.339,-0.872
308404,4628.0,4520.0,5106.0,197.0,35.0,-34.0,0.3,-0.186,-0.341,-0.871
308426,4530.0,4236.0,5064.0,58.0,27.0,-29.0,0.3,-0.186,-0.342,-0.871
308438,4436.0,4092.0,5340.0,-22.0,33.0,-36.0,0.299,-0.186,-0.341,-0.871
308460,4344.0,4074.0,5498.0,-68.0,19.0,-75.0,0.299,-0.185,-0.341,-0.872
308472,4390.0,4092.0,5656.0,-92.0,13.0,-68.0,0.298,-0.185,-0.34,-0.872
308494,4432.0,4126.0,5722.0,-71.0,2.0,-48.0,0.298,-0.185,-0.34,-0.873
308506,4526.0,4020.0,5608.0,-69.0,0.0,-43.0,0.297,-0.185,-0.339,-0.873
308528,4484.0,3936.0,5636.0,-61.0,11.0,-25.0,0.297,-0.185,-0.339,-0.873
308550,4510.0,3918.0,5702.0,-65.0,12.0,-26.0,0.297,-0.185,-0.338,-0.874
308562,4528.0,3632.0,5692.0,-64.0,4.0,-19.0,0.296,-0.186,-0.338,-0.874
308584,4496.0,3592.0,5694.0,7.0,14.0,-21.0,0.296,-0.186,-0.338,-0.874
308601,4514.0,3668.0,5628.0,41.0,13.0,-13.0,0.296,-0.185,-0.338,-0.874
308613,4560.0,3820.0,5656.0,72.0,31.0,8.0,0.297,-0.185,-0.339,-0.874
308635,4494.0,3970.0,5598.0,65.0,28.0,5.0,0.297,-0.185,-0.339,-0.873
308647,4508.0,4022.0,5540.0,46.0,31.0,-7.0,0.297,-0.184,-0.34,-0.873
308669,4482.0,4004.0,5528.0,26.0,19.0,-26.0,0.297,-0.184,-0.34,-0.873
308681,4470.0,3958.0,5612.0,-16.0,15.0,-33.0,0.297,-0.184,-0.34,-0.873
308703,4420.0,3858.0,5540.0,-38.0,13.0,-20.0,0.297,-0.184,-0.339,-0.874
308725,4406.0,3968.0,5570.0,-20.0,21.0,-10.0,0.297,-0.184,-0.339,-0.874
308737,4414.0,3958.0,5592.0,-30.0,18.0,-12.0,0.297,-0.184,-0.339,-0.874
308759,4490.0,3970.0,5578.0,-23.0,16.0,-15.0,0.297,-0.183,-0.339,-0.874
308771,4454.0,4014.0,5602.0,-20.0,13.0,-8.0,0.296,-0.183,-0.339,-0.874
308793,4500.0,3876.0,5622.0,-9.0,10.0,-12.0,0.296,-0.183,-0.339,-0.874
308805,4458.0,3894.0,5612.0,11.0,19.0,8.0,0.297,-0.183,-0.339,-0.874
308827,4434.0,3890.0,5618.0,25.0,15.0,18.0,0.297,-0.183,-0.339,-0.874
308839,4386.0,3914.0,5596.0,23.0,10.0,13.0,0.297,-0.183,-0.339,-0.874
308861,4396.0,3976.0,5624.0,20.0,14.0,-4.0,0.297,-0.183,-0.339,-0.874
308883,4436.0,3940.0,5590.0,3.0,3.0,-6.0,0.297,-0.183,-0.339,-0.874
308895,4430.0,4006.0,5590.0,4.0,10.0,5.0,0.297,-0.183,-0.339,-0.874
308917,4424.0,3940.0,5564.0,-10.0,4.0,-8.0,0.297,-0.183,-0.339,-0.874
308929,4456.0,3990.0,5564.0,-4.0,1.0,-9.0,0.297,-0.183,-0.339,-0.874
308951,4472.0,3872.0,5570.0,-14.0,-7.0,-26.0,0.297,-0.183,-0.339,-0.874
308963,4532.0,3938.0,5624.0,10.0,-3.0,-28.0,0.296,-0.183,-0.339,-0.874
308985,4446.0,3994.0,5658.0,15.0,-3.0,-38.0,0.296,-0.183,-0.34,-0.874
308997,4470.0,4028.0,5636.0,18.0,0.0,-33.0,0.296,-0.183,-0.34,-0.874
309019,4408.0,4064.0,5584.0,16.0,0.0,-29.0,0.296,-0.183,-0.34,-0.874
309031,4512.0,3858.0,5624.0,1.0,2.0,-33.0,0.296,-0.183,-0.34,-0.874
309053,4478.0,3940.0,5624.0,21.0,6.0,-27.0,0.295,-0.182,-0.34,-0.874
309075,4484.0,3898.0,5630.0,15.0,7.0,-22.0,0.295,-0.182,-0.34,-0.874
309087,4564.0,3874.0,5562.0,2.0,10.0,-18.0,0.295,-0.182,-0.34,-0.874
309109,4570.0,3858.0,5612.0,-7.0,10.0,-32.0,0.295,-0.182,-0.34,-0.874
309121,4520.0,3888.0,5638.0,-10.0,11.0,-19.0,0.295,-0.182,-0.34,-0.874
309143,4554.0,3946.0,5666.0,-9.0,10.0,-15.0,0.295,-0.182,-0.34,-0.874
309155,4528.0,3940.0,5680.0,-5.0,11.0,-10.0,0.295,-0.182,-0.34,-0.874
309177,4462.0,3942.0,5620.0,-5.0,15.0,-5.0,0.295,-0.182,-0.34,-0.874
309189,4430.0,3924.0,5644.0,-7.0,3.0,0.0,0.295,-0.182,-0.34,-0.874
309211,4472.0,3936.0,5598.0,0.0,4.0,8.0,0.295,-0.182,-0.34,-0.874
309233,4430.0,3950.0,5598.0,6.0,4.0,13.0,0.295,-0.182,-0.34,-0.874
309245,4464.0,4014.0,5624.0,0.0,3.0,18.0,0.295,-0.182,-0.34,-0.874
309267,4424.0,3954.0,5566.0,-8.0,5.0,24.0,0.296,-0.182,-0.34,-0.874
309279,4504.0,4026.0,5644.0,-1.0,7.0,21.0,0.296,-0.182,-0.34,-0.874
309301,4436.0,3978.0,5640.0,-14.0,5.0,19.0,0.296,-0.182,-0.34,-0.874
309313,4490.0,4034.0,5594.0,-21.0,6.0,13.0,0.296,-0.182,-0.34,-0.874
309335,4528.0,3982.0,5584.0,-23.0,5.0,7.0,0.296,-0.183,-0.34,-0.874
309347,4482.0,3906.0,5584.0,-18.0,4.0,6.0,0.296,-0.183,-0.339,-0.874
309369,4504.0,3944.0,5588.0,-17.0,6.0,-12.0,0.296,-0.183,-0.339,-0.874
309391,4526.0,3920.0,5650.0,-7.0,11.0,-9.0,0.296,-0.183,-0.339,-0.874
309403,4526.0,3928.0,5584.0,2.0,9.0,-13.0,0.296,-0.183,-0.339,-0.874
309425,4494.0,3964.0,5566.0,3.0,13.0,-15.0,0.296,-0.182,-0.339,-0.874
309437,4500.0,4004.0,5604.0,-7.0,18.0,-12.0,0.296,-0.182,-0.339,-0.874
309459,4466.0,4028.0,5630.0,-3.0,16.0,-16.0,0.296,-0.182,-0.339,-0.874
309471,4428.0,3902.0,5598.0,4.0,17.0,-24.0,0.296,-0.182,-0.339,-0.874
309493,4426.0,3952.0,5632.0,-1.0,16.0,-14.0,0.296,-0.182,-0.339,-0.874
309505,4420.0,3926.0,5580.0,-5.0,13.0,-7.0,0.296,-0.182,-0.339,-0.874
309527,4414.0,3978.0,5606.0,-2.0,7.0,-8.0,0.296,-0.182,-0.339,-0.874
309539,4450.0,3952.0,5636.0,-6.0,12.0,-8.0,0.296,-0.182,-0.339,-0.874
309561,4460.0,3948.0,5614.0,-5.0,13.0,-8.0,0.296,-0.182,-0.339,-0.874
309583,4462.0,3972.0,5610.0,-9.0,7.0,-9.0,0.296,-0.182,-0.339,-0.874
309595,4382.0,3918.0,5652.0,2.0,11.0,-3.0,0.296,-0.182,-0.339,-0.874
309617,4464.0,3946.0,5608.0,6.0,9.0,2.0,0.296,-0.181,-0.339,-0.874
309629,4460.0,3956.0,5602.0,-1.0,13.0,3.0,0.296,-0.181,-0.339,-0.874
309651,4508.0,3882.0,5614.0,-1.0,8.0,-2.0,0.296,-0.181,-0.339,-0.874
309663,4482.0,3944.0,5642.0,-8.0,9.0,-1.0,0.296,-0.181,-0.339,-0.874
309685,4508.0,3862.0,5668.0,1.0,6.0,-4.0,0.296,-0.181,-0.339,-0.874
309697,4396.0,3914.0,5616.0,4.0,9.0,-9.0,0.296,-0.181,-0.339,-0.874
309719,4420.0,3932.0,5612.0,-8.0,7.0,-9.0,0.296,-0.181,-0.339,-0.874
309741,4498.0,3988.0,5600.0,-7.0,3.0,-17.0,0.296,-0.181,-0.339,-0.874
309753,4404.0,3898.0,5632.0,-7.0,11.0,-4.0,0.296,-0.181,-0.339,-0.874
309775,4450.0,3976.0,5602.0,0.0,12.0,-5.0,0.296,-0.181,-0.339,-0.874
309787,4474.0,3946.0,5574.0,0.0,13.0,-2.0,0.296,-0.181,-0.339,-0.874
309809,4398.0,3902.0,5586.0,-5.0,8.0,6.0,0.296,-0.181,-0.339,-0.874
309821,4438.0,3922.0,5634.0,-15.0,5.0,-5.0,0.296,-0.181,-0.339,-0.874
309843,4460.0,3930.0,5598.0,-11.0,8.0,5.0,0.296,-0.181,-0.339,-0.874
309855,4468.0,3938.0,5624.0,-13.0,8.0,8.0,0.296,-0.181,-0.339,-0.874
309877,4466.0,3932.0,5620.0,-23.0,7.0,8.0,0.296,-0.181,-0.339,-0.874
309899,4482.0,3944.0,5598.0,-25.0,3.0,0.0,0.296,-0.181,-0.338,-0.875
309911,4458.0,3912.0,5618.0,-21.0,7.0,7.0,0.296,-0.181,-0.338,-0.875
309933,4434.0,3974.0,5662.0,-30.0,4.0,-1.0,0.296,-0.181,-0.338,-0.875
309945,4422.0,3944.0,5654.0,-38.0,2.0,-5.0,0.296,-0.182,-0.338,-0.875
309967,4472.0,3868.0,5642.0,-23.0,1.0,0.0,0.296,-0.182,-0.337,-0.875
309979,4456.0,3940.0,5662.0,-12.0,7.0,2.0,0.296,-0.182,-0.337,-0.875
310001,4446.0,4026.0,5674.0,-21.0,7.0,-9.0,0.296,-0.182,-0.337,-0.875
310013,4432.0,4062.0,5670.0,-21.0,5.0,-9.0,0.296,-0.182,-0.337,-0.875
310035,4378.0,3954.0,5642.0,-32.0,-1.0,-7.0,0.296,-0.182,-0.337,-0.875
310047,4450.0,4004.0,5686.0,-31.0,-5.0,-17.0,0.296,-0.182,-0.337,-0.875
310069,4466.0,3868.0,5666.0,-55.0,-4.0,-14.0,0.296,-0.182,-0.336,-0.875
310091,4408.0,3984.0,5638.0,-55.0,-4.0,-14.0,0.296,-0.182,-0.336,-0.875
310103,4456.0,3934.0,5682.0,-63.0,-11.0,-28.0,0.295,-0.183,-0.336,-0.876
310125,4520.0,3946.0,5646.0,-71.0,-3.0,-23.0,0.295,-0.183,-0.335,-0.876
310137,4502.0,3930.0,5680.0,-73.0,-3.0,-14.0,0.295,-0.183,-0.335,-0.876
310159,4516.0,3858.0,5674.0,-83.0,-10.0,-20.0,0.295,-0.183,-0.334,-0.876
310171,4462.0,3914.0,5664.0,-96.0,-10.0,-18.0,0.294,-0.184,-0.333,-0.877
310193,4464.0,4036.0,5792.0,-115.0,-13.0,-14.0,0.294,-0.184,-0.332,-0.877
310205,4402.0,3942.0,5710.0,-154.0,-25.0,-28.0,0.293,-0.185,-0.331,-0.878
310227,4450.0,3942.0,5704.0,-161.0,-28.0,-21.0,0.293,-0.185,-0.33,-0.878
310249,4494.0,3832.0,5760.0,-170.0,-37.0,-15.0,0.292,-0.186,-0.329,-0.879
310261,4406.0,4002.0,5922.0,-199.0,-33.0,-8.0,0.292,-0.187,-0.327,-0.879
310283,4438.0,4114.0,6034.0,-277.0,-67.0,-34.0,0.291,-0.188,-0.325,-0.88
310295,4276.0,3958.0,6160.0,-379.0,-144.0,-47.0,0.289,-0.19,-0.323,-0.881
310317,4324.0,3736.0,5816.0,-447.0,-207.0,-58.0,0.288,-0.193,-0.32,-0.882
310329,4430.0,3546.0,5770.0,-466.0,-222.0,-60.0,0.286,-0.196,-0.317,-0.883
310351,4622.0,3438.0,5712.0,-409.0,-206.0,-20.0,0.284,-0.198,-0.314,-0.884
310363,4614.0,3522.0,5778.0,-352.0,-146.0,15.0,0.283,-0.201,-0.311,-0.885
310385,4528.0,3552.0,5734.0,-356.0,-114.0,17.0,0.283,-0.203,-0.309,-0.885
310397,4590.0,3472.0,5652.0,-343.0,-85.0,8.0,0.282,-0.204,-0.306,-0.886
310419,4642.0,3324.0,5570.0,-311.0,-57.0,-1.0,0.281,-0.206,-0.304,-0.887
310441,4708.0,3334.0,5726.0,-251.0,-21.0,8.0,0.28,-0.207,-0.302,-0.887
310453,4616.0,3280.0,5740.0,-167.0,5.0,7.0,0.28,-0.207,-0.3,-0.888
310475,4704.0,3356.0,5606.0,-76.0,40.0,24.0,0.28,-0.207,-0.3,-0.888
310487,4748.0,3238.0,5656.0,2.0,63.0,47.0,0.281,-0.207,-0.299,-0.888
310509,4638.0,3298.0,5666.0,66.0,88.0,32.0,0.282,-0.206,-0.3,-0.888
310521,4720.0,3336.0,5680.0,109.0,92.0,2.0,0.282,-0.205,-0.3,-0.888
310543,4670.0,3404.0,5870.0,113.0,107.0,6.0,0.283,-0.204,-0.301,-0.888
310555,4574.0,3498.0,5918.0,105.0,103.0,9.0,0.284,-0.203,-0.302,-0.887
310577,4514.0,3452.0,5940.0,106.0,98.0,16.0,0.284,-0.202,-0.302,-0.887
310604,4522.0,3390.0,5958.0,105.0,90.0,6.0,0.285,-0.201,-0.303,-0.887
310616,4540.0,3502.0,5958.0,97.0,82.0,-5.0,0.285,-0.2,-0.304,-0.887
310628,4550.0,3536.0,5954.0,78.0,61.0,-20.0,0.285,-0.199,-0.304,-0.887
310650,4552.0,3574.0,5918.0,47.0,45.0,-18.0,0.285,-0.199,-0.304,-0.887
310662,4504.0,3496.0,5906.0,19.0,32.0,-21.0,0.285,-0.198,-0.305,-0.887
310684,4550.0,3512.0,5866.0,24.0,26.0,-23.0,0.285,-0.198,-0.305,-0.887
310696,4496.0,3460.0,5842.0,29.0,19.0,-21.0,0.285,-0.198,-0.305,-0.887
310718,4544.0,3394.0,5904.0,58.0,26.0,-26.0,0.285,-0.197,-0.306,-0.887
310730,4494.0,3516.0,5908.0,71.0,27.0,-25.0,0.285,-0.197,-0.306,-0.887
310752,4452.0,3530.0,5878.0,82.0,27.0,-15.0,0.285,-0.197,-0.307,-0.886
310774,4460.0,3592.0,5846.0,91.0,28.0,-9.0,0.286,-0.196,-0.308,-0.886
310786,4492.0,3598.0,5860.0,77.0,25.0,-8.0,0.286,-0.196,-0.308,-0.886
310808,4444.0,3578.0,5886.0,75.0,21.0,-21.0,0.286,-0.195,-0.309,-0.886
310820,4462.0,3634.0,5830.0,59.0,18.0,-21.0,0.286,-0.195,-0.309,-0.886
310842,4438.0,3626.0,5846.0,33.0,10.0,-23.0,0.286,-0.195,-0.31,-0.886
310854,4374.0,3674.0,5860.0,10.0,-1.0,-11.0,0.286,-0.195,-0.31,-0.886
310876,4406.0,3648.0,5920.0,-13.0,-13.0,-15.0,0.286,-0.195,-0.31,-0.886
310888,4478.0,3650.0,5912.0,-25.0,-17.0,-8.0,0.286,-0.195,-0.31,-0.886
310910,4506.0,3740.0,5876.0,-27.0,-15.0,0.0,0.286,-0.195,-0.31,-0.886
310932,4542.0,3670.0,5844.0,-34.0,-11.0,7.0,0.286,-0.195,-0.309,-0.886
310944,4548.0,3658.0,5804.0,-36.0,-6.0,6.0,0.285,-0.196,-0.309,-0.886
310966,4530.0,3472.0,5784.0,-37.0,-9.0,12.0,0.285,-0.196,-0.309,-0.886
310978,4538.0,3408.0,5806.0,-23.0,3.0,6.0,0.285,-0.196,-0.309,-0.886
311000,4622.0,3372.0,5882.0,-2.0,9.0,10.0,0.286,-0.196,-0.308,-0.886
311012,4474.0,3494.0,5916.0,19.0,15.0,18.0,0.286,-0.196,-0.309,-0.886
311034,4570.0,3502.0,5822.0,21.0,18.0,12.0,0.286,-0.196,-0.309,-0.886
311046,4498.0,3572.0,5848.0,18.0,21.0,16.0,0.286,-0.196,-0.309,-0.886
311068,4546.0,3560.0,5864.0,7.0,15.0,11.0,0.286,-0.196,-0.309,-0.886
311090,4576.0,3516.0,5926.0,10.0,22.0,26.0,0.287,-0.196,-0.309,-0.885
311102,4530.0,3586.0,5896.0,1.0,17.0,27.0,0.287,-0.196,-0.309,-0.885
311124,4482.0,3614.0,5880.0,5.0,15.0,23.0,0.287,-0.196,-0.309,-0.885
311136,4436.0,3562.0,5834.0,-16.0,15.0,17.0,0.288,-0.196,-0.309,-0.885
311158,4498.0,3576.0,5854.0,-5.0,8.0,10.0,0.288,-0.196,-0.309,-0.885
311170,4480.0,3546.0,5840.0,-13.0,3.0,4.0,0.288,-0.196,-0.308,-0.885
311192,4488.0,3418.0,5846.0,-12.0,13.0,5.0,0.288,-0.196,-0.308,-0.885
311204,4442.0,3560.0,5842.0,7.0,16.0,8.0,0.288,-0.196,-0.308,-0.885
311226,4490.0,3610.0,5860.0,3.0,10.0,-2.0,0.288,-0.195,-0.308,-0.885
311238,4518.0,3598.0,5826.0,-8.0,7.0,-16.0,0.288,-0.195,-0.308,-0.885
311260,4568.0,3556.0,5920.0,-18.0,0.0,-25.0,0.288,-0.195,-0.308,-0.885
311282,4526.0,3482.0,5860.0,-12.0,6.0,-10.0,0.288,-0.195,-0.308,-0.885
311294,4510.0,3470.0,5878.0,0.0,6.0,-21.0,0.288,-0.195,-0.308,-0.885
311316,4516.0,3544.0,5900.0,4.0,7.0,-20.0,0.288,-0.195,-0.308,-0.885
311328,4520.0,3630.0,5846.0,-5.0,7.0,-36.0,0.287,-0.195,-0.308,-0.886
311350,4512.0,3564.0,5828.0,-5.0,8.0,-26.0,0.287,-0.195,-0.308,-0.886
311362,4494.0,3568.0,5866.0,-14.0,13.0,-20.0,0.287,-0.195,-0.308,-0.886
311384,4492.0,3482.0,5896.0,-9.0,12.0,-4.0,0.287,-0.195,-0.308,-0.886
311396,4530.0,3508.0,5786.0,4.0,12.0,3.0,0.287,-0.195,-0.308,-0.886
311418,4506.0,3530.0,5822.0,14.0,17.0,3.0,0.287,-0.195,-0.308,-0.886
311440,4542.0,3548.0,5834.0,15.0,17.0,6.0,0.288,-0.195,-0.309,-0.886
311452,4538.0,3530.0,5880.0,21.0,18.0,12.0,0.288,-0.195,-0.309,-0.885
311474,4458.0,3572.0,5874.0,19.0,20.0,16.0,0.288,-0.194,-0.309,-0.885
311486,4478.0,3596.0,5898.0,15.0,20.0,21.0,0.288,-0.194,-0.309,-0.885
311508,4524.0,3622.0,5832.0,15.0,13.0,18.0,0.289,-0.194,-0.309,-0.885
311520,4472.0,3608.0,5812.0,8.0,8.0,8.0,0.289,-0.194,-0.309,-0.885
311542,4448.0,3600.0,5866.0,9.0,6.0,11.0,0.289,-0.194,-0.309,-0.885
311554,4488.0,3608.0,5864.0,12.0,13.0,10.0,0.289,-0.194,-0.309,-0.885
311576,4442.0,3578.0,5866.0,18.0,15.0,11.0,0.289,-0.194,-0.309,-0.885
311588,4462.0,3552.0,5854.0,13.0,9.0,1.0,0.289,-0.194,-0.309,-0.885
311611,4442.0,3594.0,5898.0,16.0,15.0,3.0,0.289,-0.194,-0.31,-0.885
311633,4468.0,3616.0,5904.0,4.0,3.0,-11.0,0.29,-0.194,-0.31,-0.885
311645,4496.0,3558.0,5882.0,8.0,3.0,-13.0,0.29,-0.194,-0.31,-0.885
311667,4442.0,3586.0,5864.0,12.0,6.0,-17.0,0.289,-0.194,-0.31,-0.885
311679,4530.0,3508.0,5904.0,9.0,10.0,-16.0,0.289,-0.193,-0.31,-0.885
311701,4436.0,3570.0,5898.0,13.0,2.0,-17.0,0.289,-0.193,-0.31,-0.885
311713,4536.0,3612.0,5874.0,7.0,3.0,-27.0,0.289,-0.193,-0.31,-0.885
311735,4504.0,3488.0,5894.0,6.0,2.0,-28.0,0.289,-0.193,-0.31,-0.885
311747,4490.0,3588.0,5820.0,9.0,1.0,-28.0,0.289,-0.193,-0.311,-0.885
311769,4496.0,3606.0,5880.0,10.0,5.0,-13.0,0.289,-0.193,-0.311,-0.885
311781,4480.0,3562.0,5850.0,11.0,7.0,-16.0,0.289,-0.193,-0.311,-0.885
311803,4514.0,3572.0,5822.0,13.0,11.0,-10.0,0.289,-0.193,-0.311,-0.885
311825,4482.0,3654.0,5858.0,15.0,12.0,-8.0,0.289,-0.193,-0.311,-0.885
311837,4486.0,3632.0,5846.0,21.0,7.0,-8.0,0.289,-0.193,-0.311,-0.885
311859,4494.0,3628.0,5834.0,15.0,7.0,-1.0,0.289,-0.193,-0.311,-0.885
311871,4502.0,3582.0,5874.0,10.0,8.0,4.0,0.289,-0.193,-0.312,-0.884
311893,4520.0,3604.0,5804.0,13.0,10.0,-2.0,0.289,-0.192,-0.312,-0.884
311905,4520.0,3606.0,5808.0,17.0,9.0,5.0,0.289,-0.192,-0.312,-0.884
311927,4478.0,3678.0,5830.0,13.0,18.0,6.0,0.29,-0.192,-0.312,-0.884
311939,4448.0,3680.0,5850.0,11.0,10.0,0.0,0.29,-0.192,-0.312,-0.884
311961,4442.0,3576.0,5832.0,9.0,9.0,6.0,0.29,-0.192,-0.312,-0.884
311983,4498.0,3618.0,5828.0,2.0,12.0,1.0,0.29,-0.192,-0.312,-0.884
311995,4518.0,3652.0,5868.0,11.0,11.0,-1.0,0.29,-0.192,-0.312,-0.884
312017,4472.0,3606.0,5878.0,6.0,13.0,-4.0,0.29,-0.192,-0.312,-0.884
312029,4464.0,3638.0,5820.0,7.0,14.0,-3.0,0.29,-0.192,-0.312,-0.884
312051,4476.0,3610.0,5844.0,9.0,17.0,-7.0,0.29,-0.192,-0.312,-0.884
312063,4516.0,3560.0,5816.0,1.0,13.0,-17.0,0.29,-0.192,-0.312,-0.884
312085,4496.0,3628.0,5836.0,4.0,11.0,-11.0,0.29,-0.191,-0.312,-0.884
312097,4502.0,3628.0,5804.0,8.0,15.0,-6.0,0.29,-0.191,-0.313,-0.884
312119,4512.0,3592.0,5842.0,7.0,14.0,-8.0,0.29,-0.191,-0.313,-0.884
312131,4492.0,3626.0,5808.0,13.0,7.0,-10.0,0.29,-0.191,-0.313,-0.884
312154,4480.0,3686.0,5856.0,3.0,12.0,-5.0,0.29,-0.191,-0.313,-0.884
312166,4484.0,3660.0,5848.0,0.0,8.0,-17.0,0.29,-0.191,-0.313,-0.884
312189,4490.0,3618.0,5848.0,3.0,9.0,-12.0,0.29,-0.191,-0.313,-0.884
312211,4476.0,3570.0,5854.0,12.0,10.0,-12.0,0.29,-0.191,-0.313,-0.884
312223,4518.0,3624.0,5824.0,20.0,7.0,-14.0,0.29,-0.191,-0.313,-0.884
312245,4458.0,3654.0,5792.0,15.0,7.0,-14.0,0.29,-0.191,-0.313,-0.884
312257,4472.0,3672.0,5824.0,3.0,8.0,-8.0,0.29,-0.191,-0.313,-0.884
312279,4468.0,3690.0,5886.0,0.0,9.0,-12.0,0.29,-0.191,-0.313,-0.884
312291,4454.0,3682.0,5834.0,9.0,8.0,-6.0,0.29,-0.19,-0.314,-0.884
312313,4436.0,3688.0,5782.0,8.0,9.0,-7.0,0.29,-0.19,-0.314,-0.884
312325,4572.0,3712.0,5824.0,0.0,11.0,-15.0,0.29,-0.19,-0.314,-0.884
312347,4838.0,3642.0,5908.0,4.0,12.0,-35.0,0.29,-0.19,-0.314,-0.884
312359,5362.0,4076.0,5812.0,204.0,10.0,-72.0,0.289,-0.19,-0.316,-0.884
312381,7090.0,5532.0,5946.0,276.0,65.0,-280.0,0.288,-0.187,-0.318,-0.884
312403,8170.0,6710.0,7704.0,-528.0,-75.0,-770.0,0.28,-0.187,-0.315,-0.887
312415,11064.0,6290.0,10742.0,-1727.0,733.0,-1453.0,0.268,-0.181,-0.302,-0.897
312437,9320.0,8074.0,4940.0,-1870.0,-646.0,-2185.0,0.244,-0.185,-0.291,-0.906
312449,14240.0,8442.0,6910.0,-1343.0,-549.0,-3278.0,0.213,-0.184,-0.287,-0.916
312471,16702.0,14046.0,8316.0,-609.0,-185.0,-4348.0,0.175,-0.174,-0.289,-0.925
312483,15672.0,15068.0,7670.0,-933.0,-395.0,-5259.0,0.127,-0.165,-0.29,-0.934
312505,14086.0,11460.0,4402.0,-616.0,-676.0,-5971.0,0.072,-0.155,-0.294,-0.94
312517,9910.0,6804.0,-530.0,-130.0,-578.0,-5852.0,0.02,-0.144,-0.302,-0.942
312539,5710.0,2656.0,-1844.0,1345.0,-728.0,-5214.0,0.026,0.135,0.32,0.937
312561,4386.0,8218.0,2138.0,1648.0,-698.0,-4492.0,0.065,0.128,0.34,0.93
312573,1416.0,6038.0,4488.0,-1008.0,-1325.0,-3801.0,0.103,0.126,0.335,0.928
312595,-706.0,-7752.0,2008.0,-3533.0,-2187.0,-3204.0,0.141,0.131,0.304,0.933
312612,-784.0,-18488.0,204.0,-2699.0,-1540.0,-2290.0,0.169,0.135,0.281,0.935
312624,-3726.0,-18382.0,2518.0,-1313.0,-816.0,-808.0,0.179,0.137,0.27,0.936
312646,-5170.0,-18192.0,1844.0,-950.0,-701.0,1321.0,0.17,0.145,0.258,0.94
312658,-8296.0,-9884.0,5062.0,1102.0,-875.0,1528.0,0.157,0.158,0.265,0.938
312680,-5854.0,2198.0,9826.0,1961.0,-735.0,1558.0,0.143,0.171,0.278,0.934
312692,-6246.0,10788.0,12838.0,1245.0,-209.0,2096.0,0.123,0.18,0.285,0.933
312714,-1836.0,22144.0,11602.0,-864.0,738.0,1724.0,0.107,0.177,0.276,0.939
312736,-3192.0,1974.0,6838.0,-2824.0,258.0,-861.0,0.119,0.169,0.253,0.945
312748,4158.0,-594.0,11246.0,-1852.0,369.0,-1421.0,0.133,0.16,0.239,0.949
312770,1426.0,-4700.0,8504.0,-1536.0,646.0,-842.0,0.141,0.15,0.227,0.952
312782,-1078.0,4240.0,3090.0,-218.0,389.0,449.0,0.136,0.147,0.225,0.953
312804,5316.0,1848.0,4074.0,483.0,-213.0,457.0,0.132,0.151,0.229,0.953
312816,5040.0,-1802.0,2726.0,246.0,-700.0,594.0,0.127,0.159,0.229,0.952
312838,6210.0,-648.0,4284.0,269.0,-1107.0,718.0,0.123,0.171,0.228,0.951
312850,4636.0,-1922.0,11486.0,1209.0,-1523.0,1353.0,0.112,0.189,0.235,0.947
312872,19700.0,13226.0,21278.0,5960.0,-1415.0,154.0,0.103,0.208,0.285,0.93
312894,7944.0,4406.0,6296.0,6211.0,-259.0,209.0,0.09,0.216,0.338,0.911
312906,4504.0,19356.0,-4808.0,3357.0,58.0,-2199.0,0.102,0.212,0.371,0.898
312928,-1174.0,3612.0,3660.0,-376.0,-748.0,-1818.0,0.121,0.211,0.37,0.896
312940,4078.0,15418.0,9378.0,-931.0,-557.0,-1655.0,0.138,0.209,0.365,0.897
312962,3132.0,5212.0,7440.0,-456.0,-398.0,22.0,0.14,0.212,0.361,0.897
312974,6412.0,5108.0,7166.0,475.0,658.0,835.0,0.13,0.21,0.364,0.898
312996,6582.0,6218.0,3674.0,206.0,1323.0,-251.0,0.127,0.198,0.368,0.9
313008,6138.0,5906.0,5108.0,150.0,1518.0,-1148.0,0.131,0.182,0.373,0.9
313030,5100.0,2736.0,5820.0,995.0,1992.0,-1095.0,0.131,0.163,0.385,0.899
313052,3620.0,4228.0,4344.0,1692.0,2600.0,-361.0,0.122,0.142,0.403,0.896
313064,2874.0,5362.0,2932.0,1811.0,2833.0,174.0,0.108,0.121,0.421,0.893
313086,1210.0,6272.0,4154.0,1766.0,3008.0,616.0,0.089,0.1,0.437,0.889
313098,-774.0,-3530.0,4528.0,2421.0,3023.0,477.0,0.07,0.079,0.459,0.882
313120,742.0,8310.0,5122.0,2289.0,2855.0,506.0,0.052,0.059,0.479,0.874
313132,1162.0,2490.0,3810.0,1574.0,2910.0,379.0,0.035,0.037,0.493,0.868
313154,934.0,6058.0,4158.0,1509.0,2956.0,779.0,0.014,0.018,0.506,0.862
313166,204.0,4310.0,3318.0,1017.0,3144.0,639.0,0.006,0.005,-0.514,-0.858
313188,-772.0,7146.0,3066.0,1573.0,3306.0,383.0,0.025,0.029,-0.526,-0.85
313200,1964.0,2684.0,2770.0,1930.0,2983.0,-91.0,0.039,0.054,-0.54,-0.839
313222,1724.0,5742.0,1494.0,2069.0,3531.0,990.0,0.063,0.078,-0.555,-0.826
313244,-296.0,6064.0,-568.0,2421.0,3513.0,1219.0,0.089,0.1,-0.572,-0.809
313256,250.0,7660.0,212.0,2077.0,3357.0,1347.0,0.116,0.12,-0.586,-0.793
313278,42.0,6248.0,-352.0,1710.0,3156.0,1276.0,0.14,0.138,-0.597,-0.778
313290,918.0,5044.0,-1350.0,1980.0,3017.0,1231.0,0.164,0.156,-0.608,-0.761
313312,1396.0,6428.0,-1396.0,2204.0,3030.0,1493.0,0.188,0.172,-0.621,-0.741
313324,1042.0,6734.0,-2502.0,2062.0,2958.0,1698.0,0.214,0.186,-0.632,-0.721
313346,770.0,7812.0,-2074.0,1874.0,2776.0,1721.0,0.238,0.198,-0.642,-0.701
313358,1028.0,6902.0,-1490.0,1500.0,2569.0,1663.0,0.261,0.208,-0.649,-0.683
313380,1612.0,6894.0,-2532.0,1209.0,2367.0,1559.0,0.283,0.217,-0.654,-0.667
313402,1454.0,7816.0,-2322.0,1122.0,2249.0,1523.0,0.304,0.224,-0.659,-0.651
313414,1548.0,7196.0,-2578.0,1004.0,2111.0,1428.0,0.323,0.231,-0.662,-0.635
313436,1468.0,7090.0,-1860.0,864.0,1948.0,1388.0,0.341,0.237,-0.664,-0.621
313448,1776.0,7832.0,-2902.0,777.0,1808.0,1370.0,0.359,0.241,-0.667,-0.607
313470,2142.0,6104.0,-1754.0,652.0,1689.0,1445.0,0.376,0.244,-0.668,-0.595
313482,2668.0,6904.0,-1608.0,687.0,1585.0,1398.0,0.392,0.246,-0.669,-0.581
313504,2470.0,6642.0,-1936.0,609.0,1493.0,1507.0,0.408,0.247,-0.67,-0.569
313516,3290.0,6630.0,-642.0,548.0,1426.0,1542.0,0.423,0.247,-0.672,-0.556
313538,3854.0,7136.0,-1034.0,650.0,1434.0,1554.0,0.439,0.247,-0.673,-0.542
313550,3984.0,7032.0,-1052.0,688.0,1394.0,1647.0,0.454,0.246,-0.674,-0.527
313572,4076.0,7884.0,-374.0,584.0,1310.0,1733.0,0.47,0.244,-0.676,-0.513
313594,5062.0,7758.0,20.0,450.0,1259.0,1841.0,0.485,0.24,-0.676,-0.499
313606,5454.0,7434.0,-1372.0,389.0,1225.0,1936.0,0.501,0.236,-0.677,-0.485
313628,6608.0,10438.0,-2022.0,310.0,1143.0,1628.0,0.515,0.232,-0.676,-0.473
313640,6476.0,8072.0,-802.0,408.0,1234.0,1785.0,0.529,0.228,-0.676,-0.459
313662,6350.0,7764.0,-466.0,439.0,1137.0,1571.0,0.542,0.225,-0.676,-0.446
313674,6860.0,7628.0,-600.0,283.0,1152.0,1622.0,0.556,0.221,-0.674,-0.434
313696,6690.0,7530.0,-36.0,240.0,1014.0,1498.0,0.567,0.216,-0.673,-0.422
313708,6424.0,7842.0,-482.0,364.0,825.0,1199.0,0.576,0.214,-0.672,-0.412
313730,6404.0,6914.0,-446.0,273.0,708.0,976.0,0.584,0.212,-0.672,-0.404
313752,6474.0,6894.0,-276.0,343.0,684.0,927.0,0.591,0.211,-0.671,-0.395
313764,6532.0,7342.0,-664.0,399.0,666.0,875.0,0.598,0.21,-0.67,-0.387
313786,6326.0,6212.0,-366.0,282.0,559.0,918.0,0.604,0.207,-0.67,-0.379
313798,6368.0,6162.0,-1348.0,137.0,565.0,1348.0,0.612,0.202,-0.67,-0.369
313820,5436.0,5636.0,-1896.0,119.0,313.0,611.0,0.615,0.2,-0.67,-0.364
313832,7352.0,5578.0,-1480.0,347.0,423.0,1017.0,0.62,0.197,-0.671,-0.355
313854,6786.0,7072.0,-510.0,433.0,390.0,896.0,0.625,0.195,-0.672,-0.347
313866,6624.0,6784.0,-866.0,522.0,347.0,704.0,0.628,0.194,-0.673,-0.339
313888,6732.0,6234.0,-580.0,587.0,296.0,724.0,0.631,0.194,-0.674,-0.33
313900,6888.0,7378.0,-650.0,597.0,89.0,451.0,0.632,0.195,-0.676,-0.324
313922,6764.0,7492.0,-748.0,532.0,-135.0,94.0,0.631,0.197,-0.679,-0.32
313944,7056.0,7206.0,918.0,914.0,-163.0,-499.0,0.626,0.205,-0.682,-0.318
313956,7492.0,6704.0,-1324.0,248.0,-513.0,-759.0,0.62,0.21,-0.684,-0.321
313978,6504.0,8526.0,-1532.0,154.0,-546.0,-678.0,0.615,0.213,-0.686,-0.325
313990,6140.0,9224.0,-1062.0,63.0,-652.0,-854.0,0.608,0.217,-0.688,-0.331
314012,5094.0,9186.0,-2022.0,238.0,-986.0,-1618.0,0.596,0.226,-0.691,-0.341
314024,6702.0,8674.0,-1144.0,-68.0,-1245.0,-1900.0,0.582,0.234,-0.694,-0.354
314046,5438.0,9884.0,-1586.0,-150.0,-1412.0,-2203.0,0.565,0.242,-0.696,-0.37
314058,5880.0,10088.0,-1564.0,-184.0,-1532.0,-2417.0,0.547,0.252,-0.698,-0.388
314080,6284.0,9838.0,-1322.0,-282.0,-1627.0,-2523.0,0.528,0.26,-0.699,-0.406
314102,5914.0,10522.0,-1866.0,-374.0,-1708.0,-2572.0,0.508,0.269,-0.699,-0.425
314114,5492.0,10604.0,-2170.0,-444.0,-1806.0,-2609.0,0.487,0.277,-0.699,-0.445
314136,6252.0,9394.0,-1668.0,-331.0,-1806.0,-1906.0,0.468,0.28,-0.701,-0.46
314148,4542.0,12396.0,-2036.0,-513.0,-1929.0,-2531.0,0.445,0.286,-0.7,-0.479
314170,5426.0,9902.0,-1768.0,-572.0,-1928.0,-3145.0,0.42,0.295,-0.697,-0.501
314182,5072.0,10178.0,-1770.0,-457.0,-1863.0,-3277.0,0.394,0.306,-0.693,-0.521
314204,4582.0,9968.0,-1708.0,-407.0,-1859.0,-3324.0,0.367,0.317,-0.687,-0.541
314226,4134.0,9692.0,-1312.0,-391.0,-1911.0,-3441.0,0.338,0.328,-0.681,-0.56
314238,3504.0,9572.0,-1594.0,-299.0,-1923.0,-3573.0,0.308,0.34,-0.674,-0.579
314260,3368.0,8912.0,-1786.0,-231.0,-1918.0,-3534.0,0.277,0.351,-0.667,-0.596
314272,2838.0,8844.0,-1872.0,-263.0,-1859.0,-3345.0,0.248,0.36,-0.659,-0.612
314294,2318.0,8928.0,-1726.0,-254.0,-1748.0,-3317.0,0.219,0.37,-0.65,-0.627
314306,1486.0,7972.0,-1528.0,-121.0,-1653.0,-3421.0,0.19,0.38,-0.641,-0.64
314328,1148.0,8048.0,-1808.0,-42.0,-1617.0,-3385.0,0.16,0.39,-0.631,-0.651
314340,632.0,7346.0,-1160.0,46.0,-1597.0,-3377.0,0.131,0.4,-0.622,-0.661
314362,502.0,7028.0,-1428.0,132.0,-1574.0,-3288.0,0.101,0.409,-0.612,-0.67
314374,-234.0,6444.0,-1626.0,159.0,-1568.0,-3183.0,0.071,0.417,-0.602,-0.677
314396,-364.0,6098.0,-1316.0,275.0,-1544.0,-2965.0,0.043,0.424,-0.593,-0.683
314408,-750.0,5246.0,-1424.0,275.0,-1474.0,-2936.0,0.014,0.43,-0.583,-0.689
314430,-988.0,5202.0,-1138.0,292.0,-1442.0,-2796.0,0.013,-0.436,0.574,0.693
314452,-1386.0,4042.0,-524.0,397.0,-1402.0,-2690.0,0.039,-0.441,0.565,0.696
314464,-1706.0,4180.0,-774.0,479.0,-1397.0,-2459.0,0.065,-0.444,0.558,0.698
314486,-2356.0,2944.0,-194.0,448.0,-1394.0,-2238.0,0.089,-0.446,0.551,0.7
314498,-2618.0,2622.0,-190.0,360.0,-1370.0,-2083.0,0.111,-0.447,0.543,0.702
314520,-3164.0,2490.0,264.0,331.0,-1332.0,-1806.0,0.131,-0.447,0.536,0.703
314532,-3376.0,2470.0,566.0,297.0,-1308.0,-1545.0,0.149,-0.446,0.53,0.705
314554,-3646.0,1964.0,958.0,121.0,-1234.0,-1349.0,0.165,-0.444,0.524,0.708
314566,-3800.0,1528.0,2016.0,-75.0,-1043.0,-1093.0,0.177,-0.442,0.517,0.711
314588,-3696.0,1370.0,2892.0,-100.0,-839.0,-791.0,0.186,-0.441,0.512,0.713
314615,-3818.0,-666.0,2928.0,9.0,-421.0,-412.0,0.191,-0.44,0.51,0.714
314627,-4714.0,-252.0,2966.0,89.0,4.0,53.0,0.192,-0.439,0.511,0.714
314639,-4376.0,-598.0,2850.0,163.0,412.0,586.0,0.187,-0.439,0.515,0.712
314661,-4406.0,74.0,2714.0,336.0,855.0,1034.0,0.177,-0.438,0.523,0.709
314673,-4218.0,394.0,2646.0,446.0,1189.0,1415.0,0.164,-0.438,0.534,0.704
314695,-4054.0,894.0,2186.0,492.0,1480.0,1801.0,0.147,-0.438,0.547,0.698
314707,-3666.0,1454.0,1430.0,612.0,1732.0,2184.0,0.127,-0.437,0.562,0.691
314729,-3182.0,2440.0,860.0,843.0,1956.0,2494.0,0.104,-0.435,0.58,0.681
314751,-2922.0,2800.0,858.0,995.0,2224.0,2687.0,0.079,-0.433,0.599,0.668
314763,-2360.0,4184.0,850.0,896.0,2439.0,2836.0,0.052,-0.431,0.618,0.655
314785,-1916.0,4336.0,-648.0,447.0,2625.0,3000.0,0.02,-0.429,0.634,0.643
314797,-1390.0,4606.0,-1218.0,252.0,2755.0,3178.0,0.014,0.426,-0.648,-0.631
314819,-460.0,6492.0,-2418.0,359.0,2778.0,3003.0,0.046,0.424,-0.662,-0.617
314831,304.0,7212.0,-2548.0,522.0,3003.0,2673.0,0.079,0.424,-0.674,-0.6
314853,680.0,8138.0,-3326.0,440.0,2796.0,2496.0,0.109,0.424,-0.684,-0.584
314865,1548.0,7194.0,-2026.0,61.0,2677.0,2646.0,0.14,0.42,-0.692,-0.569
314887,2226.0,9508.0,-4656.0,-20.0,2644.0,2592.0,0.171,0.417,-0.699,-0.556
314899,2128.0,8142.0,-5186.0,13.0,2588.0,2580.0,0.201,0.413,-0.704,-0.541
314921,2886.0,10098.0,-2500.0,171.0,2514.0,2310.0,0.228,0.411,-0.709,-0.526
314943,2574.0,9074.0,-3826.0,-280.0,2299.0,2356.0,0.256,0.406,-0.712,-0.513
314955,2798.0,8284.0,-4174.0,-482.0,2242.0,2564.0,0.284,0.398,-0.713,-0.502
314977,2812.0,9070.0,-3100.0,-137.0,2310.0,2650.0,0.312,0.39,-0.716,-0.487
314989,3050.0,9372.0,-4632.0,-172.0,2187.0,2712.0,0.34,0.381,-0.719,-0.472
315011,3182.0,8284.0,-1750.0,-276.0,2053.0,2803.0,0.366,0.37,-0.721,-0.458
315023,3950.0,9774.0,-3288.0,-318.0,2041.0,2783.0,0.393,0.359,-0.722,-0.443
315045,4166.0,8064.0,-2402.0,-517.0,2020.0,2866.0,0.42,0.345,-0.721,-0.429
315057,4516.0,7746.0,-2550.0,-468.0,2085.0,2840.0,0.446,0.333,-0.72,-0.414
315079,5150.0,9320.0,-3714.0,-385.0,2068.0,2842.0,0.472,0.319,-0.719,-0.399
315101,5644.0,7556.0,-2138.0,-513.0,1955.0,2724.0,0.496,0.306,-0.716,-0.384
315113,6616.0,8644.0,-1182.0,-557.0,1831.0,2552.0,0.519,0.293,-0.712,-0.371
315135,7178.0,7638.0,-1384.0,-696.0,1665.0,2382.0,0.54,0.279,-0.708,-0.359
315147,6694.0,7580.0,-1574.0,-688.0,1580.0,2277.0,0.56,0.265,-0.704,-0.348
315169,6722.0,7358.0,-1490.0,-627.0,1482.0,2173.0,0.578,0.253,-0.699,-0.337
315181,7008.0,7572.0,-2114.0,-579.0,1374.0,2085.0,0.594,0.24,-0.695,-0.327
315203,7104.0,7210.0,-1294.0,-578.0,1275.0,1980.0,0.61,0.228,-0.69,-0.317
315215,8566.0,5046.0,-1624.0,-369.0,1162.0,1631.0,0.623,0.218,-0.686,-0.307
315237,6884.0,7518.0,-1884.0,-579.0,1073.0,1714.0,0.635,0.207,-0.681,-0.299
315249,7764.0,6964.0,-808.0,-570.0,944.0,1544.0,0.647,0.196,-0.677,-0.292
315271,7840.0,6874.0,-962.0,-433.0,775.0,1206.0,0.655,0.188,-0.673,-0.286
315293,7972.0,6350.0,-566.0,-375.0,538.0,951.0,0.662,0.181,-0.671,-0.282
315305,7488.0,6936.0,-456.0,-349.0,335.0,732.0,0.666,0.175,-0.669,-0.279
315327,7620.0,6370.0,-540.0,-350.0,96.0,433.0,0.669,0.17,-0.668,-0.278
315339,7658.0,7794.0,-210.0,-391.0,-28.0,201.0,0.67,0.166,-0.668,-0.28
315361,7198.0,6358.0,-612.0,-280.0,-350.0,-49.0,0.668,0.163,-0.669,-0.282
315373,6762.0,6600.0,-752.0,-240.0,-323.0,-168.0,0.665,0.162,-0.67,-0.286
315395,6880.0,6626.0,-1110.0,-227.0,-450.0,-363.0,0.662,0.162,-0.672,-0.29
315417,6458.0,7022.0,-1140.0,-295.0,-580.0,-659.0,0.657,0.162,-0.674,-0.297
315429,6794.0,6778.0,-1064.0,-348.0,-686.0,-901.0,0.651,0.164,-0.676,-0.306
315451,6692.0,6848.0,-1600.0,-437.0,-811.0,-1334.0,0.642,0.167,-0.677,-0.318
315463,7022.0,7462.0,-816.0,-449.0,-938.0,-1500.0,0.632,0.171,-0.679,-0.331
315485,7308.0,7070.0,-202.0,-399.0,-1186.0,-1790.0,0.62,0.176,-0.682,-0.346
315497,6788.0,7030.0,-1034.0,-326.0,-1345.0,-2045.0,0.605,0.183,-0.685,-0.362
315519,6852.0,7988.0,-1296.0,-356.0,-1448.0,-2293.0,0.588,0.19,-0.688,-0.38
315531,6456.0,8548.0,-1250.0,-474.0,-1659.0,-2510.0,0.569,0.198,-0.691,-0.4
315553,6884.0,9042.0,-1220.0,-521.0,-1786.0,-2668.0,0.549,0.206,-0.693,-0.42
315565,7000.0,8964.0,-992.0,-498.0,-1904.0,-2875.0,0.526,0.214,-0.695,-0.441
315587,6690.0,9824.0,-1452.0,-558.0,-2003.0,-3124.0,0.501,0.223,-0.696,-0.464
315599,6498.0,9916.0,-2314.0,-545.0,-2033.0,-3313.0,0.474,0.233,-0.695,-0.487
315621,6286.0,9852.0,-1772.0,-393.0,-1991.0,-3447.0,0.446,0.245,-0.694,-0.509
315643,5640.0,9906.0,-2092.0,-348.0,-1962.0,-3518.0,0.417,0.257,-0.692,-0.53
315655,5512.0,9898.0,-1724.0,-331.0,-1943.0,-3563.0,0.388,0.269,-0.689,-0.55
315677,4922.0,9054.0,-1358.0,-180.0,-1882.0,-3520.0,0.358,0.281,-0.686,-0.568
315689,4556.0,9674.0,-866.0,-69.0,-1899.0,-3473.0,0.328,0.293,-0.682,-0.585
315711,3744.0,8780.0,-892.0,-101.0,-1900.0,-3412.0,0.297,0.304,-0.677,-0.6
315723,3470.0,8912.0,-890.0,72.0,-1851.0,-3388.0,0.266,0.315,-0.673,-0.614
315745,2244.0,7254.0,-1836.0,186.0,-1817.0,-3267.0,0.236,0.325,-0.669,-0.626
315757,2092.0,8418.0,-1128.0,403.0,-1813.0,-3194.0,0.205,0.335,-0.665,-0.635
315779,1546.0,7876.0,-1336.0,385.0,-1802.0,-3157.0,0.175,0.344,-0.661,-0.644
315801,1052.0,7198.0,-1504.0,349.0,-1773.0,-3062.0,0.145,0.352,-0.656,-0.652
315813,638.0,6832.0,-1200.0,396.0,-1707.0,-3025.0,0.114,0.361,-0.65,-0.658
315835,256.0,6394.0,-1016.0,401.0,-1702.0,-2859.0,0.085,0.368,-0.645,-0.664
315847,-116.0,6742.0,-1268.0,397.0,-1721.0,-2766.0,0.056,0.374,-0.639,-0.67
315869,-742.0,5854.0,-704.0,352.0,-1735.0,-2570.0,0.029,0.379,-0.633,-0.675
315881,-326.0,5602.0,-1426.0,465.0,-1827.0,-2524.0,0.001,0.382,-0.627,-0.679
315903,-1284.0,5196.0,-916.0,659.0,-1815.0,-2442.0,0.028,-0.385,0.622,0.681
315915,-1860.0,4570.0,-838.0,571.0,-1837.0,-2286.0,0.055,-0.386,0.617,0.684
315937,-2020.0,4438.0,-320.0,756.0,-1845.0,-2090.0,0.082,-0.386,0.613,0.685
315959,-2436.0,4426.0,-362.0,850.0,-1764.0,-1852.0,0.107,-0.384,0.61,0.685
315971,-2620.0,4168.0,692.0,852.0,-1746.0,-1729.0,0.131,-0.382,0.608,0.684
315993,-3058.0,3974.0,756.0,634.0,-1632.0,-1540.0,0.153,-0.379,0.604,0.684
316005,-3536.0,2424.0,1422.0,494.0,-1434.0,-1496.0,0.172,-0.378,0.6,0.684
316027,-3720.0,2628.0,1620.0,414.0,-1195.0,-1341.0,0.189,-0.377,0.596,0.684
316039,-3986.0,2768.0,1538.0,287.0,-921.0,-1034.0,0.202,-0.376,0.592,0.684
316061,-4020.0,2166.0,1892.0,207.0,-635.0,-747.0,0.211,-0.376,0.59,0.683
316073,-4204.0,1800.0,2154.0,218.0,-337.0,-440.0,0.216,-0.375,0.589,0.682
316095,-4010.0,1324.0,2924.0,271.0,-27.0,-128.0,0.218,-0.375,0.59,0.681
316107,-4124.0,1556.0,3008.0,207.0,343.0,233.0,0.216,-0.375,0.593,0.679
316129,-4196.0,1154.0,2600.0,113.0,710.0,629.0,0.208,-0.376,0.598,0.677
316151,-4288.0,1590.0,2414.0,166.0,1032.0,937.0,0.197,-0.377,0.604,0.674
316163,-4196.0,1686.0,1958.0,184.0,1340.0,1152.0,0.183,-0.378,0.612,0.67
316185,-3898.0,2560.0,1450.0,273.0,1627.0,1346.0,0.167,-0.38,0.621,0.665
316197,-3650.0,2824.0,1578.0,320.0,1887.0,1586.0,0.147,-0.382,0.631,0.659
316219,-3626.0,3040.0,664.0,419.0,2081.0,1721.0,0.126,-0.384,0.643,0.651
316231,-3018.0,3780.0,672.0,282.0,2346.0,2312.0,0.099,-0.383,0.655,0.643
316253,-3232.0,4600.0,130.0,92.0,2485.0,2359.0,0.07,-0.383,0.667,0.636
316265,-2570.0,4752.0,-112.0,-36.0,2558.0,2391.0,0.04,-0.383,0.676,0.628
316287,-1880.0,4870.0,-278.0,-240.0,2633.0,2434.0,0.009,-0.383,0.684,0.621
316309,-1284.0,3826.0,-912.0,-514.0,2704.0,2377.0,0.024,0.383,-0.69,-0.614
316321,-30.0,6668.0,-1796.0,-568.0,2693.0,2567.0,0.057,0.381,-0.695,-0.607
316343,480.0,7636.0,-2432.0,-493.0,2705.0,2596.0,0.092,0.378,-0.7,-0.599
316355,1132.0,5636.0,-1636.0,-645.0,2627.0,2641.0,0.126,0.375,-0.703,-0.591
316377,2872.0,10096.0,-3132.0,-488.0,2658.0,2569.0,0.159,0.371,-0.706,-0.582
316389,2464.0,7314.0,-4532.0,-569.0,2583.0,2619.0,0.192,0.367,-0.708,-0.572
316411,2954.0,9564.0,-2570.0,-476.0,2449.0,2386.0,0.222,0.363,-0.709,-0.562
316423,3732.0,10586.0,-3240.0,-482.0,2334.0,2335.0,0.251,0.358,-0.71,-0.552
316445,3250.0,7934.0,-3110.0,-751.0,2169.0,2568.0,0.281,0.35,-0.709,-0.544
316467,3830.0,10676.0,-2962.0,-528.0,2056.0,2579.0,0.309,0.342,-0.709,-0.534
316479,3964.0,9414.0,-3830.0,-431.0,2012.0,2756.0,0.337,0.332,-0.71,-0.522
316501,4388.0,8634.0,-956.0,-507.0,1799.0,2787.0,0.364,0.32,-0.71,-0.511
316513,4594.0,9616.0,-2028.0,-534.0,1695.0,2740.0,0.39,0.308,-0.71,-0.5
316535,4108.0,7950.0,-3026.0,-630.0,1686.0,2844.0,0.416,0.295,-0.708,-0.489
316547,4482.0,8238.0,-2014.0,-533.0,1765.0,2856.0,0.441,0.281,-0.707,-0.476
316569,5070.0,8748.0,-1832.0,-402.0,1841.0,2766.0,0.467,0.269,-0.704,-0.462
316581,5362.0,8220.0,-2166.0,-441.0,1820.0,2699.0,0.491,0.257,-0.701,-0.449
316603,4916.0,7534.0,-1626.0,-493.0,1731.0,2704.0,0.514,0.245,-0.697,-0.435
316620,6604.0,9342.0,-1720.0,-416.0,1687.0,2374.0,0.536,0.234,-0.693,-0.423
316642,6190.0,7632.0,-2066.0,-506.0,1668.0,2491.0,0.557,0.221,-0.687,-0.41
316654,5952.0,7680.0,-706.0,-352.0,1434.0,2029.0,0.575,0.212,-0.683,-0.399
316676,7620.0,7736.0,-1108.0,-313.0,1347.0,1890.0,0.591,0.203,-0.678,-0.388
316688,7500.0,7518.0,-722.0,-310.0,1195.0,1759.0,0.605,0.194,-0.673,-0.378
316710,7844.0,7952.0,-756.0,-303.0,1040.0,1534.0,0.617,0.186,-0.669,-0.369
316722,7688.0,7676.0,-814.0,-288.0,849.0,1356.0,0.628,0.179,-0.666,-0.362
316744,7794.0,7644.0,-664.0,-248.0,693.0,1189.0,0.636,0.172,-0.663,-0.355
316756,7384.0,7750.0,-612.0,-197.0,522.0,1081.0,0.643,0.166,-0.661,-0.35
316778,7296.0,7598.0,-854.0,-239.0,390.0,1058.0,0.649,0.159,-0.659,-0.344
316790,6916.0,7272.0,-398.0,-235.0,134.0,816.0,0.653,0.153,-0.659,-0.341
316812,7980.0,6568.0,212.0,-286.0,172.0,1643.0,0.659,0.142,-0.659,-0.332
316834,5714.0,6656.0,-88.0,400.0,-510.0,459.0,0.657,0.14,-0.664,-0.328
316846,6402.0,6646.0,-498.0,148.0,-604.0,-28.0,0.653,0.139,-0.668,-0.328
316868,10322.0,9966.0,-332.0,-382.0,280.0,1862.0,0.661,0.126,-0.668,-0.319
316880,6104.0,8310.0,-130.0,40.0,-944.0,-1733.0,0.649,0.134,-0.672,-0.331
316902,6174.0,6740.0,-960.0,108.0,-817.0,-1416.0,0.64,0.141,-0.675,-0.34
316914,5500.0,7980.0,-870.0,123.0,-1009.0,-1557.0,0.628,0.148,-0.679,-0.349
316936,6062.0,8290.0,-978.0,122.0,-1020.0,-1478.0,0.616,0.155,-0.684,-0.359
316948,6210.0,8786.0,-950.0,22.0,-1192.0,-2020.0,0.602,0.164,-0.688,-0.372
316970,6208.0,8886.0,-1340.0,8.0,-1254.0,-2155.0,0.586,0.173,-0.691,-0.386
316992,6752.0,8856.0,-1128.0,-114.0,-1347.0,-2430.0,0.569,0.183,-0.694,-0.402
317004,7092.0,9046.0,-1020.0,-165.0,-1362.0,-2317.0,0.551,0.192,-0.696,-0.417
317026,7060.0,9324.0,-1174.0,-221.0,-1420.0,-2354.0,0.533,0.201,-0.698,-0.433
317038,6904.0,9636.0,-1470.0,-226.0,-1526.0,-2556.0,0.513,0.21,-0.7,-0.45
317060,7004.0,9412.0,-1132.0,-185.0,-1687.0,-2895.0,0.49,0.221,-0.701,-0.468
317072,6654.0,9366.0,-1394.0,-137.0,-1764.0,-3100.0,0.465,0.233,-0.702,-0.486
317094,6314.0,9852.0,-1464.0,-13.0,-1769.0,-3225.0,0.439,0.246,-0.702,-0.504
317106,6104.0,9494.0,-1038.0,-67.0,-1827.0,-3350.0,0.411,0.259,-0.701,-0.522
317128,5262.0,9482.0,-1284.0,-151.0,-1872.0,-3370.0,0.383,0.271,-0.699,-0.54
317150,4890.0,9756.0,-1958.0,-71.0,-1866.0,-3373.0,0.354,0.284,-0.696,-0.557
317162,4698.0,9070.0,-1918.0,266.0,-1822.0,-3394.0,0.323,0.297,-0.694,-0.571
317184,4142.0,9154.0,-1518.0,263.0,-1909.0,-3351.0,0.292,0.309,-0.691,-0.584
317196,3492.0,9226.0,-1414.0,284.0,-1981.0,-3368.0,0.26,0.321,-0.688,-0.597
317218,2662.0,7850.0,-1680.0,296.0,-1962.0,-3373.0,0.228,0.332,-0.684,-0.608
317230,1920.0,8574.0,-1010.0,398.0,-1884.0,-3276.0,0.197,0.342,-0.68,-0.618
317252,1496.0,7228.0,-1198.0,312.0,-1859.0,-3221.0,0.166,0.352,-0.675,-0.627
317264,504.0,6588.0,-1824.0,339.0,-1789.0,-3054.0,0.136,0.361,-0.669,-0.635
317286,-326.0,5658.0,-2222.0,432.0,-1777.0,-2910.0,0.106,0.369,-0.664,-0.642
317298,-696.0,6740.0,-1168.0,474.0,-1762.0,-2752.0,0.077,0.376,-0.659,-0.647
317320,-764.0,5944.0,-2010.0,375.0,-1795.0,-2694.0,0.049,0.382,-0.652,-0.653
317342,-1074.0,5480.0,-1204.0,465.0,-1850.0,-2456.0,0.021,0.385,-0.647,-0.658
317354,-884.0,5878.0,-1194.0,555.0,-1853.0,-2451.0,0.008,-0.389,0.642,0.661
317376,-1614.0,4938.0,-1086.0,461.0,-1902.0,-2363.0,0.035,-0.391,0.636,0.665
317388,-2284.0,4990.0,-244.0,394.0,-2014.0,-2128.0,0.062,-0.391,0.629,0.669
317410,-1562.0,5160.0,4.0,208.0,-1961.0,-1948.0,0.087,-0.389,0.622,0.673
317422,-1560.0,5658.0,-622.0,68.0,-1877.0,-1833.0,0.109,-0.388,0.615,0.678
317444,-2102.0,4094.0,416.0,22.0,-1761.0,-1676.0,0.13,-0.386,0.607,0.682
317456,-2624.0,2444.0,1438.0,47.0,-1560.0,-1820.0,0.151,-0.386,0.598,0.685
317478,-3826.0,2568.0,1582.0,-68.0,-1341.0,-1614.0,0.168,-0.387,0.59,0.688
317500,-4374.0,1946.0,1646.0,-78.0,-1142.0,-1328.0,0.183,-0.387,0.583,0.691
317512,-4674.0,2144.0,1736.0,-166.0,-1018.0,-1024.0,0.195,-0.386,0.577,0.693
317534,-4592.0,1126.0,2998.0,-195.0,-887.0,-783.0,0.204,-0.384,0.571,0.696
317546,-4360.0,1280.0,3006.0,-239.0,-589.0,-556.0,0.21,-0.384,0.566,0.698
317568,-4184.0,1290.0,2746.0,-261.0,-240.0,-196.0,0.212,-0.384,0.564,0.7
317580,-4010.0,1326.0,2436.0,-269.0,153.0,244.0,0.209,-0.384,0.563,0.701
317602,-3818.0,496.0,2388.0,-209.0,513.0,751.0,0.2,-0.384,0.566,0.702
317614,-3958.0,570.0,1996.0,-247.0,921.0,1235.0,0.187,-0.383,0.57,0.702
317636,-4082.0,1128.0,1642.0,-218.0,1233.0,1648.0,0.169,-0.383,0.577,0.702
317658,-3910.0,1698.0,1282.0,-140.0,1466.0,1916.0,0.148,-0.382,0.585,0.7
317670,-3628.0,1928.0,1060.0,60.0,1612.0,2084.0,0.126,-0.381,0.595,0.696
317692,-3404.0,2754.0,706.0,258.0,1761.0,2234.0,0.103,-0.379,0.607,0.691
317704,-2656.0,3952.0,926.0,425.0,1915.0,2379.0,0.079,-0.377,0.62,0.684
317726,-2620.0,3866.0,672.0,474.0,2060.0,2589.0,0.052,-0.374,0.633,0.675
317738,-2552.0,4088.0,-4.0,342.0,2219.0,2895.0,0.022,-0.371,0.646,0.667
317760,-1766.0,5628.0,-502.0,347.0,2296.0,3081.0,0.009,0.366,-0.659,-0.657
317772,-1218.0,5736.0,-594.0,306.0,2334.0,2904.0,0.04,0.362,-0.671,-0.646
317794,-222.0,6894.0,-872.0,163.0,2365.0,2770.0,0.071,0.358,-0.68,-0.636
317806,136.0,9228.0,-3616.0,283.0,2237.0,2601.0,0.099,0.355,-0.688,-0.625
317828,958.0,6642.0,-870.0,252.0,2160.0,2769.0,0.128,0.349,-0.697,-0.613
317850,2102.0,9688.0,-2420.0,195.0,2081.0,2551.0,0.155,0.345,-0.703,-0.602
317862,1708.0,7858.0,-3022.0,-88.0,1950.0,2641.0,0.183,0.338,-0.709,-0.592
317884,1896.0,9222.0,-3514.0,-71.0,1942.0,2550.0,0.21,0.331,-0.713,-0.582
317896,2394.0,8892.0,-2378.0,47.0,2029.0,2609.0,0.238,0.324,-0.717,-0.57
317918,3008.0,10936.0,-3312.0,-61.0,2086.0,2581.0,0.265,0.318,-0.72,-0.558
317930,3608.0,8288.0,-2276.0,-350.0,1954.0,2705.0,0.293,0.308,-0.721,-0.547
317952,3846.0,9432.0,-2524.0,-198.0,2024.0,2542.0,0.32,0.301,-0.721,-0.536
317974,4106.0,9172.0,-2842.0,-169.0,2115.0,2582.0,0.347,0.293,-0.721,-0.523
317986,3630.0,8368.0,-2382.0,-163.0,2118.0,2605.0,0.374,0.285,-0.72,-0.51
318008,3732.0,9886.0,-3118.0,-94.0,2076.0,2642.0,0.401,0.277,-0.719,-0.496
318020,4356.0,8614.0,-1184.0,-256.0,1897.0,2630.0,0.426,0.267,-0.717,-0.482
318042,5088.0,8678.0,-448.0,-448.0,1808.0,2609.0,0.451,0.255,-0.714,-0.47
318054,5288.0,8334.0,-1412.0,-397.0,1917.0,2615.0,0.476,0.244,-0.711,-0.457
318076,4716.0,7338.0,-2956.0,-257.0,1970.0,2694.0,0.5,0.234,-0.707,-0.443
318088,5774.0,8432.0,-1114.0,-133.0,1874.0,2634.0,0.524,0.223,-0.703,-0.427
318110,6462.0,7870.0,-38.0,-252.0,1696.0,2472.0,0.545,0.212,-0.698,-0.413
318132,6870.0,7952.0,-138.0,-327.0,1633.0,2343.0,0.565,0.201,-0.693,-0.4
318144,7010.0,7370.0,-2284.0,-263.0,1636.0,2238.0,0.584,0.191,-0.688,-0.387
318166,6984.0,6858.0,-772.0,-106.0,1557.0,2098.0,0.602,0.183,-0.682,-0.373
318178,7692.0,7438.0,-298.0,-59.0,1399.0,1850.0,0.617,0.175,-0.677,-0.361
318200,7820.0,6422.0,-54.0,-15.0,1166.0,1639.0,0.629,0.169,-0.673,-0.35
318212,7592.0,7122.0,-470.0,-88.0,1123.0,1587.0,0.642,0.162,-0.669,-0.339
318234,7732.0,6758.0,-1332.0,-6.0,927.0,1295.0,0.651,0.156,-0.665,-0.33
318246,7720.0,6856.0,-182.0,34.0,723.0,1127.0,0.659,0.152,-0.662,-0.322
318268,7204.0,7270.0,-1032.0,149.0,513.0,759.0,0.664,0.149,-0.661,-0.316
318280,7346.0,6520.0,-292.0,113.0,363.0,607.0,0.668,0.147,-0.66,-0.311
318302,6754.0,6852.0,-408.0,128.0,189.0,403.0,0.67,0.146,-0.659,-0.308
318314,6734.0,6808.0,-720.0,101.0,6.0,151.0,0.671,0.146,-0.66,-0.306
318336,6540.0,7166.0,-582.0,100.0,-112.0,-54.0,0.67,0.146,-0.661,-0.306
318358,6220.0,6824.0,-968.0,23.0,-127.0,-212.0,0.668,0.147,-0.661,-0.307
318370,6084.0,7574.0,-1302.0,53.0,-252.0,-607.0,0.665,0.15,-0.662,-0.311
318392,6386.0,7196.0,-1258.0,136.0,-445.0,-802.0,0.659,0.155,-0.664,-0.316
318404,6220.0,8222.0,-1044.0,148.0,-668.0,-952.0,0.652,0.16,-0.667,-0.322
318426,6526.0,7904.0,-952.0,45.0,-915.0,-1330.0,0.642,0.165,-0.671,-0.331
318438,6760.0,8420.0,-860.0,47.0,-1098.0,-1634.0,0.63,0.172,-0.675,-0.342
318460,7202.0,8636.0,-1666.0,130.0,-1259.0,-1920.0,0.616,0.181,-0.68,-0.355
318472,7392.0,9182.0,-2240.0,301.0,-1425.0,-2234.0,0.599,0.192,-0.685,-0.368
318494,7508.0,9132.0,-1930.0,424.0,-1681.0,-2576.0,0.578,0.206,-0.691,-0.383
318516,7566.0,9462.0,-1870.0,329.0,-1946.0,-2810.0,0.555,0.218,-0.697,-0.399
318528,7324.0,9526.0,-1642.0,315.0,-2112.0,-2972.0,0.529,0.231,-0.702,-0.416
318550,7026.0,9590.0,-2128.0,403.0,-2183.0,-3127.0,0.501,0.245,-0.707,-0.433
318562,6330.0,9448.0,-2328.0,410.0,-2270.0,-3212.0,0.472,0.259,-0.712,-0.451
318584,6128.0,9782.0,-2002.0,306.0,-2388.0,-3290.0,0.442,0.273,-0.715,-0.468
318596,5732.0,9688.0,-2442.0,258.0,-2453.0,-3297.0,0.41,0.285,-0.717,-0.486
318623,5552.0,9158.0,-1640.0,260.0,-2517.0,-3324.0,0.377,0.297,-0.719,-0.503
318635,4766.0,9230.0,-2188.0,221.0,-2504.0,-3307.0,0.344,0.308,-0.719,-0.52
318657,4124.0,8452.0,-2146.0,153.0,-2455.0,-3280.0,0.311,0.318,-0.717,-0.536
318669,3792.0,8814.0,-1634.0,125.0,-2415.0,-3259.0,0.279,0.328,-0.715,-0.551
318691,3168.0,7952.0,-2404.0,140.0,-2399.0,-3205.0,0.246,0.337,-0.712,-0.565
318703,2884.0,8302.0,-1522.0,136.0,-2401.0,-3118.0,0.214,0.345,-0.708,-0.578
318725,2766.0,8598.0,-1402.0,-50.0,-2407.0,-3061.0,0.182,0.352,-0.702,-0.592
318737,1900.0,6954.0,-1666.0,-222.0,-2423.0,-2958.0,0.151,0.357,-0.695,-0.606
318759,1560.0,6678.0,-1978.0,-392.0,-2395.0,-2838.0,0.12,0.361,-0.686,-0.62
318771,1190.0,6432.0,-1862.0,85.0,-2293.0,-2784.0,0.089,0.365,-0.679,-0.63
318793,838.0,5840.0,-1200.0,387.0,-2177.0,-2589.0,0.059,0.369,-0.674,-0.637
318815,-318.0,5506.0,-866.0,455.0,-2134.0,-2525.0,0.029,0.373,-0.669,-0.642
318827,-472.0,5152.0,-884.0,221.0,-2029.0,-2225.0,0.002,0.374,-0.663,-0.648
318849,-1420.0,4722.0,-1548.0,204.0,-1842.0,-2202.0,0.023,-0.377,0.656,0.653
318861,-1522.0,4090.0,-48.0,367.0,-1774.0,-2054.0,0.048,-0.378,0.651,0.657
318883,-1554.0,4878.0,-54.0,384.0,-1728.0,-1873.0,0.071,-0.378,0.646,0.659
318895,-2200.0,4188.0,440.0,343.0,-1641.0,-1677.0,0.093,-0.378,0.641,0.662
318917,-2350.0,3834.0,1000.0,386.0,-1525.0,-1546.0,0.113,-0.377,0.636,0.663
318929,-3066.0,3436.0,418.0,257.0,-1446.0,-1391.0,0.131,-0.376,0.631,0.665
318951,-3584.0,2568.0,1078.0,101.0,-1306.0,-1318.0,0.148,-0.376,0.626,0.668
318963,-4116.0,2562.0,1750.0,11.0,-1087.0,-1161.0,0.161,-0.375,0.62,0.67
318985,-4250.0,3008.0,1290.0,-36.0,-848.0,-930.0,0.172,-0.375,0.615,0.671
318997,-4732.0,2604.0,1152.0,-148.0,-620.0,-620.0,0.179,-0.375,0.611,0.673
319019,-4428.0,1904.0,1702.0,-184.0,-353.0,-394.0,0.183,-0.375,0.608,0.675
319041,-4076.0,2258.0,1908.0,-80.0,-24.0,-135.0,0.184,-0.376,0.607,0.675
319053,-4178.0,1934.0,1872.0,-28.0,310.0,222.0,0.181,-0.377,0.609,0.675
319075,-4120.0,1566.0,1710.0,-19.0,689.0,601.0,0.173,-0.377,0.612,0.673
319087,-4230.0,1662.0,1486.0,-1.0,1047.0,965.0,0.161,-0.378,0.617,0.671
319109,-4010.0,1836.0,1244.0,77.0,1315.0,1244.0,0.146,-0.379,0.624,0.668
319121,-3982.0,2314.0,1234.0,149.0,1581.0,1455.0,0.129,-0.38,0.632,0.663
319143,-3990.0,2092.0,932.0,260.0,1773.0,1662.0,0.109,-0.38,0.642,0.657
319155,-3172.0,3212.0,-12.0,407.0,1936.0,1892.0,0.088,-0.38,0.653,0.649
319177,-3172.0,3246.0,316.0,524.0,2193.0,2186.0,0.063,-0.379,0.665,0.64
319199,-2326.0,4152.0,166.0,707.0,2312.0,2328.0,0.038,-0.378,0.679,0.628
319211,-2524.0,3762.0,-758.0,552.0,2427.0,2581.0,0.009,-0.375,0.692,0.617
319233,-1918.0,5866.0,-1206.0,322.0,2575.0,2734.0,0.022,0.372,-0.703,-0.606
319245,-1374.0,4130.0,-1114.0,-87.0,2573.0,2565.0,0.053,0.369,-0.711,-0.596
319267,-76.0,6468.0,-2142.0,-388.0,2522.0,2370.0,0.084,0.367,-0.715,-0.589
319279,752.0,6846.0,-4584.0,-348.0,2482.0,2785.0,0.117,0.361,-0.721,-0.58
319301,1350.0,7638.0,-3124.0,-191.0,2556.0,2875.0,0.151,0.354,-0.727,-0.569
319313,1968.0,8068.0,-744.0,-341.0,2511.0,2699.0,0.184,0.348,-0.73,-0.559
319335,3710.0,9684.0,-4020.0,-573.0,2489.0,2437.0,0.215,0.343,-0.73,-0.55
319357,2764.0,7652.0,-3552.0,-635.0,2358.0,2567.0,0.246,0.336,-0.731,-0.541
319369,3584.0,9986.0,-3810.0,-462.0,2261.0,2524.0,0.276,0.328,-0.731,-0.531
319391,3894.0,9096.0,-3178.0,-604.0,2093.0,2607.0,0.304,0.319,-0.73,-0.522
319403,4226.0,9628.0,-1860.0,-601.0,1948.0,2485.0,0.331,0.31,-0.729,-0.513
319425,4480.0,9634.0,-3634.0,-512.0,1981.0,2596.0,0.358,0.3,-0.727,-0.503
319437,4550.0,8628.0,-2578.0,-519.0,1941.0,2780.0,0.386,0.288,-0.726,-0.491
319459,5048.0,9180.0,-2512.0,-399.0,1876.0,2764.0,0.412,0.276,-0.724,-0.479
319471,5266.0,8544.0,-1562.0,-430.0,1760.0,2745.0,0.437,0.263,-0.723,-0.467
319493,6054.0,8524.0,-490.0,-487.0,1693.0,2670.0,0.461,0.25,-0.72,-0.455
319515,6442.0,8738.0,-1900.0,-490.0,1735.0,2620.0,0.484,0.238,-0.716,-0.443
319527,6042.0,7668.0,-1876.0,-448.0,1760.0,2610.0,0.508,0.225,-0.712,-0.43
319549,6370.0,7834.0,-1072.0,-471.0,1671.0,2530.0,0.53,0.213,-0.707,-0.417
319561,6696.0,7576.0,-674.0,-620.0,1545.0,2486.0,0.55,0.199,-0.702,-0.406
319583,6800.0,7134.0,-822.0,-737.0,1500.0,2492.0,0.571,0.185,-0.696,-0.395
319595,6946.0,7102.0,-838.0,-776.0,1490.0,2509.0,0.591,0.169,-0.689,-0.384
319617,7048.0,7084.0,-1914.0,-684.0,1427.0,2471.0,0.609,0.155,-0.682,-0.373
319629,7342.0,7106.0,-912.0,-583.0,1284.0,2355.0,0.626,0.141,-0.676,-0.361
319651,7778.0,6604.0,326.0,-569.0,1132.0,2135.0,0.641,0.127,-0.67,-0.351
319663,6926.0,5738.0,-1974.0,-408.0,948.0,1609.0,0.653,0.118,-0.665,-0.343
319685,7252.0,5296.0,-118.0,-586.0,828.0,1596.0,0.663,0.107,-0.66,-0.336
319707,7710.0,5908.0,150.0,-515.0,679.0,1387.0,0.672,0.097,-0.656,-0.33
319719,7826.0,6114.0,574.0,-435.0,450.0,1129.0,0.679,0.089,-0.652,-0.325
319741,7584.0,6184.0,648.0,-472.0,308.0,894.0,0.683,0.081,-0.65,-0.322
319753,7384.0,6480.0,346.0,-553.0,107.0,636.0,0.686,0.074,-0.648,-0.322
319775,7384.0,6434.0,40.0,-603.0,-98.0,402.0,0.687,0.067,-0.647,-0.323
319787,6892.0,7486.0,-8.0,-608.0,37.0,267.0,0.689,0.062,-0.645,-0.325
319809,7852.0,3152.0,-1014.0,-585.0,-606.0,169.0,0.686,0.055,-0.648,-0.328
319821,6390.0,6688.0,-372.0,-482.0,-371.0,-26.0,0.683,0.051,-0.649,-0.331
319843,6928.0,6518.0,-722.0,-478.0,-467.0,-288.0,0.68,0.048,-0.65,-0.336
319865,6874.0,7738.0,-294.0,-420.0,-488.0,-713.0,0.675,0.048,-0.651,-0.344
319877,6982.0,6596.0,-62.0,-362.0,-489.0,-1103.0,0.668,0.05,-0.653,-0.353
319899,6810.0,6890.0,434.0,-300.0,-657.0,-1236.0,0.66,0.054,-0.655,-0.363
319911,6918.0,7624.0,1124.0,-267.0,-824.0,-1397.0,0.65,0.058,-0.659,-0.374
319933,7208.0,7908.0,370.0,-163.0,-1039.0,-1891.0,0.637,0.065,-0.663,-0.387
319945,7518.0,7874.0,492.0,-120.0,-1174.0,-2230.0,0.622,0.074,-0.668,-0.401
319967,7636.0,8422.0,-92.0,-166.0,-1247.0,-2405.0,0.605,0.083,-0.673,-0.417
319979,8030.0,8744.0,-240.0,-205.0,-1362.0,-2690.0,0.586,0.094,-0.678,-0.434
320001,8142.0,9106.0,-472.0,-184.0,-1472.0,-3021.0,0.565,0.106,-0.682,-0.453
320013,8486.0,9160.0,-590.0,-163.0,-1584.0,-3265.0,0.541,0.119,-0.686,-0.472
320035,8720.0,9536.0,-520.0,-86.0,-1695.0,-3419.0,0.515,0.133,-0.69,-0.491
320057,8412.0,9298.0,-386.0,-27.0,-1861.0,-3605.0,0.486,0.148,-0.694,-0.511
320069,7996.0,9104.0,-1064.0,-17.0,-1898.0,-3736.0,0.456,0.163,-0.696,-0.53
320091,7330.0,9884.0,-1396.0,120.0,-1838.0,-3744.0,0.425,0.179,-0.699,-0.547
320103,7044.0,8780.0,-1042.0,140.0,-1879.0,-3727.0,0.393,0.194,-0.7,-0.564
320125,6220.0,9428.0,-850.0,185.0,-1972.0,-3648.0,0.361,0.208,-0.701,-0.579
320137,6350.0,8772.0,-1452.0,316.0,-1952.0,-3686.0,0.327,0.223,-0.701,-0.593
320159,5056.0,7636.0,-750.0,437.0,-1920.0,-3592.0,0.294,0.237,-0.702,-0.604
320171,4566.0,8798.0,-1788.0,413.0,-1859.0,-3569.0,0.261,0.251,-0.701,-0.615
320193,3676.0,7242.0,-1244.0,293.0,-1867.0,-3524.0,0.228,0.264,-0.698,-0.625
320215,3138.0,7516.0,-1468.0,359.0,-1768.0,-3488.0,0.196,0.276,-0.695,-0.634
320227,2696.0,7118.0,-896.0,441.0,-1701.0,-3422.0,0.164,0.289,-0.692,-0.641
320249,2374.0,7198.0,-408.0,556.0,-1657.0,-3308.0,0.133,0.3,-0.689,-0.646
320261,1240.0,6142.0,-1056.0,519.0,-1677.0,-3117.0,0.102,0.311,-0.685,-0.651
320283,1122.0,6666.0,6.0,567.0,-1690.0,-2940.0,0.072,0.32,-0.681,-0.655
320295,122.0,5708.0,-54.0,417.0,-1743.0,-2801.0,0.043,0.327,-0.676,-0.659
320317,-628.0,5302.0,-290.0,197.0,-1741.0,-2555.0,0.015,0.332,-0.67,-0.664
320329,-846.0,5470.0,-828.0,202.0,-1610.0,-2462.0,0.011,-0.338,0.663,0.668
320351,-1480.0,4554.0,-152.0,350.0,-1610.0,-2348.0,0.036,-0.342,0.658,0.67
320363,-1160.0,5430.0,-30.0,465.0,-1565.0,-2205.0,0.061,-0.346,0.653,0.671
320386,-1776.0,4406.0,412.0,402.0,-1517.0,-1970.0,0.084,-0.348,0.648,0.672
320408,-2368.0,3306.0,544.0,356.0,-1452.0,-1803.0,0.105,-0.349,0.643,0.673
320420,-3210.0,2988.0,524.0,330.0,-1473.0,-1620.0,0.125,-0.349,0.638,0.674
320442,-3324.0,2826.0,1620.0,198.0,-1361.0,-1456.0,0.143,-0.349,0.633,0.676
320454,-3434.0,1422.0,2430.0,93.0,-1201.0,-1339.0,0.159,-0.349,0.628,0.677
320476,-4304.0,3188.0,1052.0,-37.0,-1012.0,-982.0,0.171,-0.349,0.623,0.679
320488,-4654.0,1872.0,1434.0,-265.0,-789.0,-620.0,0.179,-0.347,0.618,0.682
320510,-4000.0,1904.0,1878.0,-202.0,-563.0,-336.0,0.184,-0.346,0.614,0.685
320522,-4194.0,1680.0,2034.0,-90.0,-162.0,-210.0,0.186,-0.346,0.613,0.685
320544,-3362.0,1344.0,2800.0,183.0,144.0,238.0,0.184,-0.345,0.615,0.684
320556,-4306.0,1496.0,2164.0,-74.0,593.0,829.0,0.175,-0.344,0.618,0.684
320578,-4264.0,644.0,1636.0,2.0,897.0,1173.0,0.163,-0.343,0.624,0.683
320600,-4234.0,1226.0,1782.0,134.0,1164.0,1367.0,0.148,-0.342,0.631,0.681
320612,-3896.0,1912.0,2022.0,202.0,1418.0,1548.0,0.131,-0.342,0.639,0.677
320629,-3508.0,2422.0,1904.0,323.0,1669.0,1755.0,0.111,-0.341,0.648,0.672
320651,-3176.0,3264.0,838.0,508.0,1870.0,1981.0,0.089,-0.34,0.66,0.664
320663,-3146.0,3074.0,200.0,698.0,2083.0,2204.0,0.065,-0.338,0.673,0.655
320685,-2686.0,4730.0,-62.0,932.0,2278.0,2389.0,0.039,-0.336,0.687,0.643
320697,-2488.0,4732.0,794.0,835.0,2466.0,2467.0,0.011,-0.334,0.7,0.63
320719,-2206.0,3432.0,-792.0,245.0,2552.0,2464.0,0.019,0.333,-0.71,-0.621
320731,-1236.0,5956.0,-2782.0,52.0,2617.0,2496.0,0.05,0.331,-0.717,-0.612
320753,6.0,7500.0,-2362.0,6.0,2725.0,2529.0,0.083,0.329,-0.723,-0.601
320775,746.0,6904.0,-1226.0,145.0,2569.0,2537.0,0.114,0.326,-0.73,-0.59
320787,1920.0,7976.0,-1778.0,212.0,2568.0,2470.0,0.145,0.323,-0.735,-0.578
320809,3132.0,8274.0,-2266.0,44.0,2567.0,2605.0,0.176,0.319,-0.74,-0.566
320821,3330.0,8512.0,-1738.0,102.0,2526.0,2465.0,0.206,0.315,-0.743,-0.554
320843,3994.0,9402.0,-2936.0,71.0,2577.0,2414.0,0.236,0.311,-0.745,-0.541
320855,4420.0,8714.0,-2856.0,-134.0,2426.0,2493.0,0.265,0.305,-0.746,-0.529
320877,4118.0,8752.0,-4556.0,-152.0,2455.0,2467.0,0.295,0.299,-0.746,-0.517
320889,5182.0,8568.0,-2994.0,-204.0,2429.0,2587.0,0.324,0.292,-0.745,-0.504
320911,5630.0,9362.0,-2202.0,-352.0,2342.0,2560.0,0.353,0.284,-0.743,-0.492
320933,5730.0,8644.0,-2386.0,-424.0,2252.0,2583.0,0.382,0.275,-0.74,-0.481
320945,5926.0,7944.0,-2336.0,-671.0,2085.0,2688.0,0.409,0.263,-0.736,-0.47
320967,6032.0,8046.0,-2336.0,-821.0,2015.0,2784.0,0.437,0.249,-0.732,-0.46
320979,6302.0,8400.0,-3486.0,-688.0,2109.0,2845.0,0.465,0.236,-0.726,-0.448
321001,6292.0,7836.0,-2154.0,-581.0,2091.0,2889.0,0.492,0.222,-0.721,-0.435
321013,7190.0,8688.0,-1348.0,-496.0,1979.0,2748.0,0.517,0.209,-0.715,-0.421
321035,8420.0,8440.0,-1068.0,-699.0,1785.0,2451.0,0.54,0.196,-0.708,-0.411
321047,7212.0,7728.0,-328.0,-836.0,1672.0,2456.0,0.562,0.182,-0.701,-0.401
321069,7292.0,6688.0,-1060.0,-778.0,1541.0,2238.0,0.581,0.169,-0.693,-0.391
321091,6708.0,7248.0,-1120.0,-562.0,1482.0,1997.0,0.598,0.158,-0.686,-0.382
321103,6866.0,7160.0,-746.0,-537.0,1239.0,1566.0,0.613,0.149,-0.68,-0.375
321125,7534.0,7416.0,-330.0,-547.0,1099.0,1597.0,0.626,0.139,-0.674,-0.368
321137,7356.0,6948.0,-264.0,-631.0,944.0,1606.0,0.638,0.129,-0.668,-0.361
321159,7678.0,6998.0,-660.0,-666.0,876.0,1681.0,0.649,0.117,-0.662,-0.354
321171,6728.0,6702.0,-220.0,-528.0,760.0,1230.0,0.659,0.109,-0.657,-0.35
321193,7290.0,6554.0,30.0,-530.0,742.0,1170.0,0.667,0.1,-0.652,-0.345
321205,6878.0,6404.0,-56.0,-543.0,577.0,1069.0,0.675,0.092,-0.648,-0.341
321227,6942.0,6496.0,2.0,-549.0,402.0,993.0,0.681,0.084,-0.644,-0.338
321239,6898.0,6476.0,258.0,-501.0,230.0,790.0,0.685,0.076,-0.642,-0.336
321261,7232.0,6920.0,140.0,-555.0,206.0,797.0,0.689,0.068,-0.64,-0.335
321283,7418.0,9042.0,486.0,-623.0,169.0,913.0,0.693,0.059,-0.637,-0.333
321295,5294.0,-284.0,-670.0,260.0,-155.0,1562.0,0.696,0.051,-0.64,-0.321
321317,-312.0,5638.0,-3538.0,200.0,208.0,-225.0,0.697,0.054,-0.639,-0.322
321329,1674.0,4578.0,-930.0,-162.0,-694.0,-838.0,0.69,0.055,-0.642,-0.329
321351,8126.0,5740.0,-352.0,-169.0,-764.0,-1280.0,0.681,0.06,-0.646,-0.338
321363,7178.0,7498.0,-222.0,37.0,-622.0,-853.0,0.675,0.063,-0.65,-0.344
321385,7288.0,6766.0,48.0,-38.0,-890.0,-1248.0,0.665,0.067,-0.654,-0.353
321397,6716.0,7538.0,-26.0,-95.0,-944.0,-1522.0,0.655,0.073,-0.659,-0.363
321419,7124.0,7450.0,-424.0,-29.0,-1097.0,-2055.0,0.641,0.081,-0.664,-0.377
321441,7458.0,7878.0,-578.0,78.0,-1139.0,-2319.0,0.625,0.092,-0.669,-0.391
321453,7484.0,8448.0,-634.0,1.0,-1185.0,-2420.0,0.609,0.103,-0.674,-0.406
321475,7676.0,8308.0,-668.0,12.0,-1287.0,-2650.0,0.591,0.115,-0.678,-0.422
321487,7770.0,8632.0,-742.0,39.0,-1424.0,-2818.0,0.57,0.127,-0.683,-0.439
321509,8112.0,8944.0,-492.0,70.0,-1563.0,-2885.0,0.548,0.14,-0.688,-0.455
321521,8034.0,8896.0,-900.0,95.0,-1635.0,-2963.0,0.525,0.152,-0.692,-0.471
321543,7832.0,8772.0,-788.0,120.0,-1726.0,-3090.0,0.5,0.165,-0.696,-0.488
321565,7466.0,9130.0,-1174.0,193.0,-1764.0,-3231.0,0.473,0.179,-0.7,-0.504
321577,7244.0,9202.0,-1046.0,231.0,-1785.0,-3351.0,0.445,0.194,-0.703,-0.52
321599,6818.0,8828.0,-950.0,141.0,-1836.0,-3403.0,0.416,0.208,-0.705,-0.536
321611,6298.0,8866.0,-1554.0,239.0,-1836.0,-3457.0,0.386,0.222,-0.706,-0.551
321633,5798.0,8438.0,-1480.0,455.0,-1800.0,-3543.0,0.355,0.238,-0.707,-0.564
321645,5242.0,8424.0,-870.0,453.0,-1803.0,-3568.0,0.323,0.253,-0.707,-0.576
321667,4706.0,9186.0,-1612.0,316.0,-1783.0,-3562.0,0.292,0.268,-0.705,-0.589
321679,4120.0,7434.0,-1046.0,288.0,-1819.0,-3565.0,0.26,0.282,-0.702,-0.6
321701,3558.0,8224.0,-1492.0,455.0,-1755.0,-3464.0,0.228,0.296,-0.699,-0.61
321713,2948.0,7830.0,-1300.0,471.0,-1777.0,-3340.0,0.196,0.308,-0.696,-0.618
321735,2616.0,7458.0,-1320.0,492.0,-1780.0,-3245.0,0.165,0.319,-0.693,-0.625
321757,1724.0,6802.0,-1400.0,362.0,-1793.0,-3055.0,0.135,0.329,-0.688,-0.633
321769,1866.0,8452.0,-2302.0,546.0,-1719.0,-2919.0,0.106,0.338,-0.684,-0.637
321791,1202.0,6352.0,-1768.0,512.0,-1711.0,-2883.0,0.076,0.346,-0.68,-0.642
321803,788.0,6560.0,-760.0,654.0,-1705.0,-2736.0,0.047,0.354,-0.676,-0.645
321825,176.0,6188.0,-1034.0,504.0,-1687.0,-2542.0,0.019,0.36,-0.671,-0.648
321837,-560.0,5288.0,-1526.0,514.0,-1617.0,-2367.0,0.007,-0.365,0.666,0.651
321859,-760.0,5700.0,-864.0,627.0,-1589.0,-2155.0,0.032,-0.368,0.662,0.652
321871,-1004.0,5966.0,-2032.0,762.0,-1543.0,-1922.0,0.055,-0.371,0.659,0.652
321893,-1940.0,4794.0,-644.0,708.0,-1532.0,-1872.0,0.079,-0.372,0.656,0.652
321905,-1822.0,5576.0,-122.0,607.0,-1515.0,-1709.0,0.1,-0.373,0.653,0.652
321927,-2244.0,3878.0,96.0,548.0,-1496.0,-1327.0,0.119,-0.372,0.65,0.652
321949,-2854.0,3286.0,82.0,581.0,-1424.0,-1232.0,0.138,-0.37,0.647,0.652
321961,-3382.0,3668.0,906.0,536.0,-1443.0,-1085.0,0.155,-0.367,0.645,0.652
321983,-4476.0,2436.0,1236.0,173.0,-1404.0,-1137.0,0.171,-0.365,0.64,0.654
321995,-4920.0,2272.0,746.0,-213.0,-1273.0,-985.0,0.184,-0.363,0.633,0.658
322017,-4892.0,1910.0,1708.0,-217.0,-965.0,-762.0,0.193,-0.362,0.628,0.662
322029,-4712.0,2044.0,2616.0,-195.0,-590.0,-798.0,0.201,-0.363,0.623,0.663
322051,-4812.0,1312.0,2260.0,283.0,-360.0,-575.0,0.208,-0.364,0.622,0.662
322063,-4300.0,1680.0,3050.0,115.0,126.0,-57.0,0.208,-0.365,0.623,0.66
322085,-4584.0,974.0,1778.0,75.0,542.0,393.0,0.202,-0.366,0.625,0.659
322097,-4484.0,1088.0,1626.0,303.0,825.0,703.0,0.194,-0.366,0.631,0.656
322120,-4058.0,1780.0,1830.0,305.0,1076.0,1012.0,0.183,-0.366,0.639,0.652
322132,-3876.0,2144.0,1608.0,220.0,1338.0,1279.0,0.168,-0.366,0.646,0.648
322155,-3442.0,2434.0,966.0,305.0,1559.0,1520.0,0.15,-0.365,0.656,0.643
322177,-3038.0,3104.0,636.0,494.0,1757.0,1759.0,0.131,-0.364,0.667,0.636
322189,-2994.0,3250.0,152.0,522.0,1955.0,1958.0,0.109,-0.363,0.679,0.629
322211,-2476.0,3976.0,-820.0,512.0,2149.0,2113.0,0.085,-0.361,0.691,0.62
322223,-2092.0,3608.0,-322.0,310.0,2329.0,2224.0,0.058,-0.36,0.702,0.612
322245,-1686.0,5736.0,-1540.0,-47.0,2526.0,2383.0,0.028,-0.358,0.711,0.604
322257,-824.0,5552.0,-2938.0,-288.0,2650.0,2322.0,0.004,0.357,-0.718,-0.598
322279,-328.0,6220.0,-2280.0,-95.0,2861.0,2090.0,0.034,0.359,-0.724,-0.588
322291,-42.0,7004.0,-3792.0,-52.0,2684.0,1988.0,0.064,0.36,-0.729,-0.579
322313,1006.0,6210.0,-490.0,-252.0,2697.0,2251.0,0.095,0.358,-0.734,-0.57
322325,2072.0,8924.0,-2298.0,-231.0,2743.0,2206.0,0.126,0.357,-0.737,-0.56
322347,1478.0,7724.0,-4206.0,-368.0,2776.0,2350.0,0.159,0.355,-0.74,-0.55
322369,1984.0,8534.0,-1718.0,-351.0,2658.0,2363.0,0.191,0.351,-0.741,-0.54
322381,2660.0,9594.0,-4494.0,-424.0,2681.0,2259.0,0.222,0.347,-0.741,-0.529
322403,3082.0,7844.0,-2232.0,-574.0,2588.0,2540.0,0.254,0.341,-0.741,-0.519
322415,3804.0,10408.0,-4066.0,-373.0,2649.0,2455.0,0.286,0.335,-0.741,-0.508
322437,4498.0,8890.0,-2936.0,-524.0,2534.0,2611.0,0.317,0.327,-0.739,-0.496
322449,5052.0,9906.0,-3052.0,-468.0,2440.0,2491.0,0.346,0.32,-0.737,-0.484
322471,5450.0,8570.0,-3864.0,-630.0,2341.0,2501.0,0.375,0.311,-0.734,-0.473
322493,5332.0,8462.0,-2208.0,-712.0,2213.0,2506.0,0.403,0.301,-0.73,-0.463
322505,6126.0,8734.0,-2456.0,-573.0,2241.0,2405.0,0.43,0.291,-0.725,-0.451
322527,6042.0,9284.0,-2950.0,-529.0,2157.0,2437.0,0.456,0.282,-0.721,-0.439
322539,5984.0,8190.0,-1240.0,-618.0,1973.0,2432.0,0.481,0.271,-0.716,-0.428
322561,6950.0,9318.0,-1914.0,-628.0,1827.0,2312.0,0.503,0.259,-0.711,-0.417
322573,6556.0,7028.0,-2438.0,-653.0,1777.0,2285.0,0.525,0.248,-0.705,-0.406
322595,6194.0,7456.0,-1816.0,-419.0,1706.0,2146.0,0.545,0.238,-0.7,-0.394
322607,6866.0,7808.0,-2006.0,-313.0,1600.0,2017.0,0.564,0.229,-0.695,-0.383
322634,6676.0,7432.0,-742.0,-258.0,1480.0,1927.0,0.581,0.22,-0.691,-0.371
322646,6556.0,7542.0,-594.0,-249.0,1362.0,1839.0,0.596,0.211,-0.686,-0.36
322658,6760.0,6352.0,-1396.0,-244.0,1278.0,1728.0,0.61,0.203,-0.681,-0.349
322680,6622.0,6556.0,-184.0,-203.0,1166.0,1657.0,0.623,0.195,-0.677,-0.339
322702,6330.0,6914.0,-1626.0,-186.0,1287.0,1737.0,0.637,0.187,-0.672,-0.328
322714,6420.0,5668.0,-1036.0,-166.0,1105.0,1517.0,0.649,0.179,-0.668,-0.318
322736,6630.0,6344.0,-434.0,12.0,1018.0,1487.0,0.659,0.173,-0.664,-0.307
322748,6916.0,5790.0,-262.0,-108.0,1021.0,1533.0,0.67,0.166,-0.66,-0.297
322770,6956.0,6094.0,-1140.0,-131.0,983.0,1379.0,0.68,0.159,-0.656,-0.288
322782,6898.0,5296.0,-410.0,-104.0,918.0,1333.0,0.689,0.152,-0.652,-0.279
322804,7064.0,5838.0,-562.0,-75.0,822.0,1289.0,0.697,0.146,-0.648,-0.27
322826,7340.0,5560.0,-502.0,-83.0,655.0,1104.0,0.704,0.14,-0.645,-0.263
322838,7164.0,5550.0,-670.0,-110.0,458.0,843.0,0.709,0.135,-0.643,-0.258
322860,7470.0,5308.0,-556.0,-145.0,219.0,563.0,0.711,0.131,-0.642,-0.255
322872,7330.0,5536.0,120.0,-173.0,-20.0,311.0,0.712,0.128,-0.642,-0.254
322894,7106.0,5852.0,-422.0,-233.0,-178.0,43.0,0.711,0.126,-0.643,-0.256
322906,6830.0,6134.0,-810.0,-241.0,-317.0,-155.0,0.709,0.124,-0.644,-0.259
322928,6892.0,5820.0,-1166.0,-327.0,-574.0,-439.0,0.705,0.123,-0.647,-0.264
322940,6560.0,6424.0,-1312.0,-132.0,-641.0,-454.0,0.7,0.123,-0.65,-0.269
322962,6144.0,6622.0,-1266.0,78.0,-861.0,-863.0,0.693,0.127,-0.655,-0.275
322974,6894.0,6024.0,-752.0,-364.0,-924.0,-900.0,0.685,0.127,-0.659,-0.284
322996,7194.0,6722.0,-1122.0,-191.0,-1163.0,-1281.0,0.674,0.131,-0.664,-0.295
