timeMs,ax,ay,az,gx,gy,gz,q0,q1,q2,q3
2904093,8042.0,3305.0,-25.0,-252.0,-136.0,-440.0,0.386,-0.48,-0.492,-0.615
2904116,7878.0,3413.0,-87.0,-211.0,-172.0,-553.0,0.381,-0.479,-0.495,-0.617
2904129,7932.0,3449.0,-105.0,-234.0,-207.0,-625.0,0.376,-0.478,-0.497,-0.619
2904152,7920.0,3867.0,-635.0,-255.0,-251.0,-699.0,0.37,-0.477,-0.501,-0.621
2904165,8192.0,3197.0,-73.0,-199.0,-224.0,-711.0,0.364,-0.475,-0.504,-0.623
2904188,7920.0,3623.0,-155.0,-208.0,-260.0,-757.0,0.358,-0.473,-0.508,-0.625
2904201,7886.0,3747.0,-637.0,-229.0,-315.0,-871.0,0.351,-0.471,-0.512,-0.627
2904214,7820.0,3855.0,-709.0,-229.0,-356.0,-1002.0,0.342,-0.469,-0.517,-0.629
2904237,7910.0,3745.0,-523.0,-269.0,-418.0,-1150.0,0.333,-0.466,-0.522,-0.632
2904250,7964.0,3921.0,-95.0,-338.0,-485.0,-1257.0,0.322,-0.464,-0.527,-0.635
2904273,8076.0,3995.0,-337.0,-419.0,-604.0,-1388.0,0.309,-0.461,-0.533,-0.638
2904286,8106.0,4045.0,-139.0,-422.0,-613.0,-1529.0,0.296,-0.458,-0.539,-0.642
2904309,7954.0,5397.0,-629.0,-388.0,-686.0,-1677.0,0.281,-0.454,-0.546,-0.645
2904322,8066.0,5011.0,-535.0,-482.0,-785.0,-1775.0,0.265,-0.451,-0.553,-0.649
2904345,8094.0,5891.0,-589.0,-501.0,-764.0,-1898.0,0.248,-0.446,-0.56,-0.652
2904358,7838.0,6213.0,-955.0,-675.0,-806.0,-1938.0,0.229,-0.442,-0.566,-0.657
2904381,7782.0,6095.0,-723.0,-735.0,-819.0,-1987.0,0.21,-0.438,-0.572,-0.661
2904394,7610.0,6687.0,-865.0,-814.0,-811.0,-2070.0,0.19,-0.433,-0.577,-0.666
2904417,7592.0,7155.0,-495.0,-843.0,-789.0,-2204.0,0.17,-0.427,-0.582,-0.671
2904430,7392.0,6663.0,-555.0,-965.0,-823.0,-2259.0,0.148,-0.421,-0.587,-0.676
3017442,304.0,16400.0,-15360.0,854.0,4803.0,6457.0,0.992,0.127,-0.001,-0.001
3017461,186.0,-134.0,7459.0,-22945.0,6528.0,-6585.0,0.668,0.397,0.629,0.019
3017486,186.0,-134.0,7489.0,1466.0,6449.0,6560.0,0.668,0.393,0.631,0.019
3017499,5.0,-9.0,186.0,-134.0,7495.0,25742.0,0.488,0.458,0.393,0.631
3017504,6434.0,-12133.0,10340.0,-5681.0,314.0,16400.0,0.991,0.132,-0.0,-0.001
3017508,6432.0,23397.0,10341.0,-29660.0,314.0,16400.0,0.488,0.458,0.393,0.631
3017524,1614.0,7741.0,2207.0,6.0,10.0,4.0,0.487,0.458,0.393,0.631
3017537,1612.0,7733.0,2221.0,6.0,8.0,1.0,0.487,0.458,0.393,0.631
3017560,1674.0,7697.0,2195.0,9.0,5.0,3.0,0.487,0.458,0.393,0.631
3017573,1564.0,7753.0,2171.0,7.0,7.0,1.0,0.487,0.458,0.393,0.631
3017596,1598.0,7743.0,2141.0,7.0,3.0,2.0,0.487,0.458,0.393,0.631
3017609,1632.0,7731.0,2177.0,1.0,3.0,1.0,0.487,0.458,0.393,0.631
3017622,1638.0,7771.0,2181.0,3.0,3.0,-1.0,0.487,0.458,0.393,0.631
3017645,1598.0,7717.0,2163.0,1.0,2.0,-1.0,0.487,0.458,0.393,0.631
3017658,1608.0,7747.0,2131.0,0.0,3.0,-1.0,0.487,0.458,0.393,0.631
3017681,1614.0,7737.0,2165.0,0.0,3.0,0.0,0.487,0.458,0.393,0.631
3017694,1672.0,7751.0,2167.0,-6.0,10.0,0.0,0.487,0.458,0.393,0.631
3017717,1658.0,7739.0,2135.0,-2.0,8.0,-4.0,0.487,0.458,0.393,0.631
3017730,1624.0,7743.0,2185.0,-1.0,2.0,-11.0,0.487,0.458,0.393,0.631
3017753,1592.0,7741.0,2133.0,-2.0,9.0,-11.0,0.487,0.458,0.393,0.631
3017766,1598.0,7729.0,2175.0,-3.0,9.0,-6.0,0.487,0.458,0.393,0.631
3017789,1582.0,7735.0,2151.0,-3.0,8.0,-9.0,0.487,0.458,0.393,0.631
3017802,1598.0,7743.0,2147.0,-8.0,8.0,-3.0,0.487,0.458,0.393,0.631
3017815,1598.0,7743.0,2197.0,-9.0,8.0,-4.0,0.487,0.458,0.393,0.631
3017838,1652.0,7691.0,2201.0,-3.0,5.0,-4.0,0.487,0.458,0.393,0.631
3017851,1596.0,7741.0,2199.0,-6.0,12.0,-6.0,0.487,0.458,0.393,0.632
3017874,1604.0,7719.0,2161.0,-4.0,7.0,-8.0,0.487,0.458,0.393,0.632
3017887,1630.0,7697.0,2161.0,-2.0,14.0,-10.0,0.487,0.458,0.393,0.632
3017910,1668.0,7765.0,2189.0,2.0,17.0,-14.0,0.487,0.458,0.393,0.632
3017923,1624.0,7785.0,2161.0,-4.0,16.0,-16.0,0.487,0.458,0.393,0.632
3017946,1624.0,7719.0,2129.0,-8.0,20.0,-22.0,0.487,0.458,0.393,0.632
3017959,1610.0,7749.0,2233.0,-11.0,25.0,-21.0,0.487,0.457,0.393,0.632
3017982,1614.0,7735.0,2171.0,-14.0,18.0,-15.0,0.487,0.457,0.393,0.632
3017995,1600.0,7743.0,2197.0,-21.0,20.0,-17.0,0.487,0.457,0.393,0.632
3018008,1606.0,7747.0,2191.0,-23.0,15.0,-15.0,0.487,0.457,0.393,0.632
3018031,1562.0,7739.0,2245.0,-15.0,11.0,-17.0,0.487,0.457,0.393,0.632
3018044,1556.0,7733.0,2231.0,-3.0,8.0,-12.0,0.487,0.457,0.393,0.632
3018067,1552.0,7749.0,2209.0,-8.0,2.0,-13.0,0.488,0.457,0.393,0.632
3018080,1576.0,7703.0,2187.0,-8.0,7.0,-6.0,0.488,0.456,0.393,0.632
3018103,1574.0,7747.0,2185.0,-8.0,0.0,-4.0,0.488,0.456,0.393,0.632
3018116,1576.0,7757.0,2211.0,-6.0,2.0,-4.0,0.488,0.456,0.393,0.632
3018139,1622.0,7771.0,2195.0,-2.0,9.0,-5.0,0.488,0.457,0.393,0.632
3018152,1626.0,7735.0,2179.0,-9.0,7.0,-9.0,0.488,0.456,0.393,0.632
3018165,1632.0,7759.0,2153.0,-8.0,9.0,-4.0,0.488,0.456,0.393,0.632
3018188,1580.0,7693.0,2221.0,-9.0,14.0,-1.0,0.488,0.456,0.393,0.632
3018201,1546.0,7729.0,2245.0,-8.0,11.0,-4.0,0.488,0.456,0.393,0.632
3018224,1598.0,7765.0,2189.0,-11.0,14.0,-9.0,0.488,0.456,0.393,0.632
3018237,1658.0,7731.0,2179.0,-10.0,21.0,-10.0,0.488,0.456,0.393,0.632
3018260,1664.0,7743.0,2225.0,-11.0,11.0,-16.0,0.488,0.456,0.393,0.632
3018273,1550.0,7721.0,2215.0,-13.0,13.0,-17.0,0.488,0.456,0.393,0.632
3018296,1566.0,7757.0,2185.0,-12.0,15.0,-11.0,0.488,0.456,0.393,0.632
3018309,1556.0,7713.0,2211.0,-18.0,17.0,-14.0,0.488,0.455,0.393,0.632
3018332,1540.0,7727.0,2199.0,-16.0,12.0,-19.0,0.488,0.455,0.393,0.632
3018345,1562.0,7751.0,2201.0,-16.0,12.0,-14.0,0.488,0.455,0.393,0.633
3018358,1534.0,7767.0,2257.0,-10.0,10.0,-3.0,0.488,0.455,0.393,0.633
3018381,1570.0,7689.0,2227.0,-5.0,12.0,-8.0,0.488,0.455,0.393,0.633
3018394,1536.0,7687.0,2205.0,0.0,10.0,-8.0,0.488,0.455,0.393,0.633
3018417,1588.0,7727.0,2211.0,-5.0,12.0,-1.0,0.488,0.455,0.393,0.633
3018430,1546.0,7709.0,2195.0,-6.0,9.0,-1.0,0.488,0.455,0.393,0.633
3018453,1546.0,7797.0,2199.0,-7.0,12.0,-4.0,0.488,0.455,0.393,0.633
3018466,1530.0,7707.0,2239.0,-6.0,7.0,-4.0,0.488,0.455,0.393,0.633
3018489,1512.0,7707.0,2243.0,0.0,7.0,-5.0,0.488,0.455,0.393,0.633
3018502,1584.0,7711.0,2203.0,-1.0,13.0,-7.0,0.488,0.455,0.393,0.633
3018525,1522.0,7703.0,2211.0,0.0,9.0,-9.0,0.488,0.455,0.394,0.633
3018538,1570.0,7783.0,2223.0,-4.0,7.0,-5.0,0.488,0.455,0.394,0.633
3018551,1524.0,7743.0,2201.0,-3.0,6.0,-11.0,0.488,0.455,0.394,0.633
3018574,1572.0,7779.0,2225.0,-1.0,10.0,-6.0,0.488,0.455,0.394,0.633
3018587,1562.0,7719.0,2237.0,4.0,10.0,-13.0,0.488,0.454,0.394,0.633
3018610,1550.0,7717.0,2181.0,7.0,9.0,-9.0,0.488,0.454,0.394,0.633
3018623,1576.0,7745.0,2243.0,1.0,14.0,-17.0,0.488,0.454,0.394,0.633
3018646,1538.0,7779.0,2245.0,3.0,16.0,-19.0,0.488,0.454,0.394,0.633
3018659,1498.0,7753.0,2203.0,-2.0,14.0,-12.0,0.488,0.454,0.394,0.633
3018682,1504.0,7709.0,2197.0,1.0,20.0,-15.0,0.488,0.454,0.394,0.633
3018695,1534.0,7757.0,2191.0,0.0,20.0,-9.0,0.488,0.454,0.394,0.633
3018708,1522.0,7717.0,2203.0,-5.0,11.0,-11.0,0.488,0.454,0.394,0.633
3018731,1570.0,7729.0,2161.0,-3.0,11.0,-10.0,0.488,0.454,0.394,0.633
3018744,1558.0,7719.0,2189.0,-7.0,11.0,-11.0,0.488,0.454,0.394,0.633
3018767,1514.0,7765.0,2183.0,-7.0,9.0,-11.0,0.488,0.454,0.394,0.633
3018780,1504.0,7739.0,2263.0,-9.0,9.0,-8.0,0.488,0.454,0.394,0.633
3018803,1524.0,7727.0,2239.0,-9.0,10.0,-7.0,0.488,0.454,0.394,0.633
3018816,1536.0,7703.0,2197.0,-5.0,2.0,-8.0,0.488,0.454,0.394,0.633
3018839,1492.0,7765.0,2205.0,2.0,6.0,-11.0,0.488,0.454,0.395,0.633
3018852,1528.0,7717.0,2213.0,-2.0,0.0,-8.0,0.488,0.454,0.395,0.633
3018875,1564.0,7723.0,2231.0,-2.0,6.0,-4.0,0.488,0.454,0.395,0.633
3018888,1574.0,7771.0,2223.0,-1.0,6.0,-4.0,0.488,0.454,0.395,0.633
3018901,1574.0,7733.0,2233.0,5.0,8.0,-6.0,0.488,0.454,0.395,0.633
3018924,1596.0,7761.0,2241.0,2.0,8.0,-9.0,0.488,0.454,0.395,0.633
3018937,1550.0,7683.0,2219.0,-4.0,5.0,-11.0,0.488,0.454,0.395,0.633
3018960,1496.0,7725.0,2241.0,0.0,12.0,-7.0,0.488,0.453,0.395,0.633
3018973,1506.0,7787.0,2191.0,0.0,8.0,-5.0,0.488,0.453,0.395,0.633
3018996,1450.0,7703.0,2157.0,5.0,9.0,-3.0,0.488,0.453,0.395,0.633
3019009,1550.0,7755.0,2175.0,5.0,5.0,6.0,0.488,0.454,0.395,0.633
3019027,1482.0,7751.0,2185.0,0.0,2.0,16.0,0.488,0.454,0.395,0.633
3019050,1540.0,7737.0,2145.0,-11.0,-11.0,19.0,0.488,0.454,0.395,0.633
3019063,1454.0,7783.0,2247.0,-8.0,-10.0,22.0,0.488,0.454,0.394,0.633
3019076,1542.0,7787.0,2261.0,-7.0,-17.0,23.0,0.488,0.454,0.394,0.633
3019099,1526.0,7759.0,2265.0,-4.0,-22.0,20.0,0.488,0.454,0.394,0.633
3019112,1576.0,7733.0,2231.0,-1.0,-22.0,25.0,0.488,0.455,0.394,0.633
3019135,1610.0,7731.0,2219.0,-3.0,-25.0,26.0,0.488,0.455,0.393,0.633
3019148,1690.0,7697.0,2239.0,13.0,-25.0,20.0,0.487,0.455,0.393,0.633
3019171,1684.0,7707.0,2163.0,20.0,-14.0,15.0,0.487,0.456,0.393,0.633
3019184,1652.0,7721.0,2165.0,14.0,-6.0,0.0,0.487,0.456,0.393,0.633
3019207,1700.0,7733.0,2147.0,8.0,3.0,-6.0,0.487,0.456,0.393,0.633
3019220,1696.0,7709.0,2139.0,-1.0,12.0,-15.0,0.487,0.456,0.393,0.633
3019243,1686.0,7751.0,2227.0,-9.0,22.0,-30.0,0.487,0.456,0.393,0.633
3019256,1656.0,7761.0,2163.0,-20.0,33.0,-43.0,0.488,0.455,0.394,0.633
3019269,1600.0,7753.0,2217.0,-26.0,40.0,-49.0,0.488,0.455,0.394,0.633
3019292,1516.0,7765.0,2219.0,-26.0,38.0,-48.0,0.488,0.454,0.394,0.633
3019305,1470.0,7809.0,2227.0,-15.0,38.0,-40.0,0.488,0.454,0.394,0.633
3019328,1424.0,7823.0,2269.0,-4.0,40.0,-32.0,0.488,0.453,0.395,0.633
3019341,1374.0,7785.0,2237.0,8.0,29.0,-20.0,0.488,0.453,0.395,0.633
3019364,1408.0,7769.0,2215.0,14.0,25.0,-2.0,0.488,0.453,0.395,0.633
3019377,1478.0,7767.0,2163.0,13.0,12.0,2.0,0.488,0.453,0.395,0.633
3019400,1484.0,7751.0,2167.0,-2.0,2.0,11.0,0.488,0.453,0.395,0.633
3019413,1552.0,7807.0,2177.0,-10.0,-2.0,21.0,0.488,0.453,0.395,0.633
3019436,1598.0,7767.0,2179.0,-10.0,-8.0,14.0,0.488,0.454,0.395,0.633
3019449,1560.0,7707.0,2233.0,-10.0,-9.0,11.0,0.488,0.454,0.394,0.633
3019462,1578.0,7763.0,2247.0,-8.0,-6.0,-2.0,0.488,0.454,0.394,0.633
3019485,1588.0,7701.0,2209.0,-10.0,-3.0,-6.0,0.488,0.454,0.394,0.633
3019498,1550.0,7691.0,2259.0,-4.0,-3.0,-8.0,0.488,0.454,0.394,0.633
3019521,1578.0,7753.0,2235.0,-3.0,6.0,-10.0,0.488,0.454,0.394,0.633
3019534,1574.0,7709.0,2261.0,-2.0,4.0,-14.0,0.488,0.454,0.394,0.633
3019557,1558.0,7761.0,2235.0,3.0,7.0,-7.0,0.488,0.454,0.394,0.633
3019570,1532.0,7705.0,2243.0,-1.0,13.0,-2.0,0.488,0.454,0.394,0.633
3019593,1536.0,7763.0,2241.0,9.0,12.0,-4.0,0.488,0.454,0.394,0.633
3019606,1540.0,7735.0,2217.0,9.0,13.0,-4.0,0.488,0.454,0.395,0.633
3019619,1538.0,7705.0,2227.0,7.0,11.0,-3.0,0.488,0.454,0.395,0.633
3019642,1530.0,7729.0,2211.0,8.0,6.0,-3.0,0.487,0.454,0.395,0.633
3019655,1586.0,7751.0,2185.0,9.0,6.0,-5.0,0.487,0.454,0.395,0.633
3019678,1560.0,7743.0,2127.0,4.0,4.0,-8.0,0.487,0.454,0.395,0.633
3019691,1570.0,7817.0,2157.0,-2.0,5.0,-15.0,0.487,0.454,0.395,0.633
3019714,1530.0,7775.0,2129.0,-7.0,6.0,-16.0,0.488,0.454,0.395,0.633
3019727,1532.0,7715.0,2147.0,-6.0,10.0,-14.0,0.488,0.453,0.395,0.633
3019750,1542.0,7719.0,2181.0,-9.0,14.0,-17.0,0.488,0.453,0.395,0.633
3019763,1504.0,7745.0,2217.0,-9.0,15.0,-18.0,0.488,0.453,0.395,0.633
3019786,1500.0,7741.0,2187.0,-14.0,12.0,-14.0,0.488,0.453,0.395,0.633
3019799,1500.0,7783.0,2235.0,-15.0,13.0,-10.0,0.488,0.453,0.395,0.633
3019812,1476.0,7683.0,2229.0,-17.0,14.0,-2.0,0.488,0.453,0.395,0.633
3019835,1502.0,7755.0,2259.0,-7.0,4.0,1.0,0.488,0.453,0.395,0.633
3019848,1544.0,7749.0,2277.0,5.0,3.0,6.0,0.488,0.453,0.395,0.633
3019871,1572.0,7767.0,2235.0,6.0,3.0,2.0,0.488,0.453,0.395,0.633
3019884,1584.0,7747.0,2175.0,2.0,0.0,0.0,0.488,0.453,0.395,0.633
3019907,1604.0,7777.0,2185.0,-5.0,4.0,-3.0,0.488,0.453,0.395,0.633
3019920,1552.0,7739.0,2235.0,-2.0,6.0,0.0,0.488,0.453,0.395,0.633
3019943,1542.0,7687.0,2211.0,-3.0,1.0,2.0,0.488,0.453,0.395,0.633
3019956,1576.0,7727.0,2211.0,-7.0,5.0,-2.0,0.488,0.453,0.395,0.633
3019979,1570.0,7741.0,2153.0,-29.0,7.0,2.0,0.488,0.453,0.395,0.633
3019992,1534.0,7729.0,2081.0,-66.0,14.0,6.0,0.488,0.453,0.395,0.634
3020005,1616.0,7699.0,2155.0,-147.0,36.0,15.0,0.488,0.452,0.394,0.634
3020028,1618.0,7697.0,2139.0,-230.0,49.0,24.0,0.489,0.451,0.392,0.636
3020041,1546.0,7805.0,1733.0,-352.0,39.0,34.0,0.49,0.449,0.391,0.637
3020064,1300.0,7151.0,1117.0,-642.0,-44.0,193.0,0.491,0.447,0.386,0.64
3020077,1850.0,7205.0,2055.0,-845.0,-103.0,304.0,0.493,0.445,0.379,0.644
3020100,2316.0,7909.0,2499.0,-1005.0,0.0,146.0,0.496,0.441,0.372,0.648
3020113,2120.0,9421.0,3185.0,-1207.0,9.0,-314.0,0.503,0.434,0.366,0.651
3020136,2288.0,8009.0,3267.0,-1328.0,-92.0,-835.0,0.514,0.426,0.361,0.652
3020149,2038.0,7619.0,3605.0,-1271.0,-106.0,-1004.0,0.525,0.417,0.357,0.651
3020162,1400.0,6715.0,3585.0,-1057.0,-68.0,-1052.0,0.536,0.409,0.354,0.649
3020185,1594.0,7157.0,3199.0,-924.0,126.0,-840.0,0.544,0.401,0.352,0.648
3020198,1034.0,6927.0,3923.0,-798.0,166.0,-717.0,0.55,0.393,0.351,0.648
3020221,1134.0,6853.0,3813.0,-582.0,158.0,-562.0,0.555,0.387,0.35,0.647
3020234,766.0,7419.0,4347.0,-554.0,156.0,-461.0,0.56,0.382,0.349,0.647
3020257,1110.0,7595.0,5051.0,-386.0,202.0,-434.0,0.563,0.378,0.349,0.647
3020270,448.0,8109.0,4273.0,-365.0,230.0,-389.0,0.566,0.373,0.349,0.647
3020293,438.0,8197.0,4493.0,-461.0,285.0,-420.0,0.569,0.368,0.349,0.647
3020306,180.0,6821.0,3921.0,-571.0,229.0,-318.0,0.572,0.362,0.348,0.648
3020329,36.0,7403.0,3593.0,-597.0,289.0,-320.0,0.575,0.356,0.347,0.649
3020342,-256.0,7851.0,3737.0,-939.0,182.0,-336.0,0.58,0.349,0.344,0.651
3020355,-132.0,8419.0,4357.0,-1099.0,135.0,-442.0,0.586,0.341,0.339,0.652
3020378,-18.0,8335.0,4595.0,-1600.0,14.0,-317.0,0.593,0.331,0.331,0.656
3020391,1526.0,4723.0,5359.0,-2493.0,-455.0,115.0,0.601,0.32,0.312,0.662
3020414,-1088.0,3129.0,4653.0,-1360.0,-169.0,223.0,0.604,0.315,0.302,0.667
3020427,422.0,3663.0,3959.0,-326.0,52.0,-45.0,0.605,0.312,0.301,0.668
3020450,296.0,7203.0,3709.0,-204.0,41.0,-66.0,0.606,0.311,0.3,0.668
3020463,550.0,6909.0,4579.0,-797.0,-148.0,-7.0,0.609,0.308,0.294,0.669
3020486,954.0,5791.0,5213.0,-740.0,-127.0,-112.0,0.612,0.304,0.289,0.67
3020499,764.0,5863.0,5363.0,-406.0,-84.0,-113.0,0.614,0.302,0.286,0.671
3020522,468.0,6289.0,5281.0,-299.0,-69.0,-76.0,0.616,0.301,0.284,0.671
3020535,52.0,6575.0,4601.0,-329.0,-160.0,-76.0,0.618,0.3,0.281,0.67
3020548,522.0,6083.0,5407.0,-431.0,-224.0,-18.0,0.62,0.299,0.277,0.671
3020571,2076.0,10097.0,7143.0,-313.0,132.0,-133.0,0.621,0.296,0.276,0.671
3020584,-872.0,4973.0,10187.0,-2907.0,579.0,385.0,0.625,0.276,0.26,0.682
3020607,-530.0,6761.0,8461.0,-2617.0,282.0,264.0,0.629,0.26,0.244,0.69
3020620,-1316.0,5247.0,4513.0,-957.0,252.0,-321.0,0.633,0.252,0.24,0.691
3020643,484.0,7989.0,5457.0,468.0,396.0,-629.0,0.635,0.251,0.247,0.687
3020656,-1032.0,6925.0,6669.0,-6.0,249.0,-492.0,0.638,0.248,0.25,0.685
3020679,-1360.0,7653.0,5551.0,-582.0,-95.0,-618.0,0.644,0.244,0.247,0.682
3020692,-664.0,5165.0,5833.0,-440.0,39.0,-897.0,0.65,0.239,0.246,0.678
3020705,-1078.0,6151.0,3975.0,-311.0,-100.0,-800.0,0.657,0.236,0.246,0.673
3020728,-1388.0,6951.0,3601.0,-475.0,-307.0,-914.0,0.664,0.234,0.243,0.667
3020741,-1150.0,6347.0,4653.0,-604.0,-453.0,-1047.0,0.673,0.231,0.24,0.661
3020764,-880.0,5059.0,5681.0,-563.0,-500.0,-1109.0,0.682,0.228,0.235,0.654
3020777,-1122.0,4475.0,6095.0,-405.0,-481.0,-1160.0,0.691,0.225,0.232,0.646
3020800,-1210.0,2977.0,6275.0,-101.0,-485.0,-1077.0,0.699,0.225,0.231,0.638
3020813,-1814.0,5061.0,6021.0,-359.0,-550.0,-613.0,0.705,0.225,0.226,0.633
3020836,-1460.0,4279.0,5705.0,-318.0,-691.0,-1047.0,0.713,0.225,0.222,0.625
3020849,-862.0,4099.0,5837.0,-358.0,-725.0,-792.0,0.72,0.225,0.217,0.619
3020872,-678.0,3327.0,5919.0,-389.0,-813.0,-483.0,0.726,0.226,0.21,0.615
3020885,-658.0,2989.0,6265.0,-500.0,-828.0,-391.0,0.731,0.227,0.202,0.611
3020898,-398.0,3197.0,6677.0,-666.0,-834.0,-475.0,0.737,0.226,0.193,0.607
3020921,132.0,3751.0,6543.0,-570.0,-778.0,-314.0,0.741,0.226,0.185,0.604
3020934,112.0,4237.0,6459.0,-568.0,-757.0,-281.0,0.745,0.226,0.177,0.601
3020957,614.0,3979.0,6289.0,-734.0,-782.0,-223.0,0.75,0.225,0.168,0.599
3020970,742.0,2709.0,6181.0,-881.0,-793.0,-138.0,0.754,0.223,0.158,0.598
3020993,338.0,2797.0,6005.0,-787.0,-759.0,-66.0,0.757,0.222,0.148,0.596
3021006,606.0,3591.0,6325.0,-699.0,-799.0,-139.0,0.761,0.221,0.139,0.594
3021034,1262.0,3411.0,6613.0,-584.0,-780.0,-124.0,0.764,0.222,0.13,0.592
3021047,1192.0,3851.0,6699.0,-628.0,-751.0,-1.0,0.766,0.221,0.121,0.591
3021060,1034.0,3541.0,6849.0,-783.0,-827.0,-121.0,0.769,0.22,0.11,0.589
3021083,1144.0,3061.0,6741.0,-714.0,-814.0,-104.0,0.773,0.22,0.101,0.587
3021096,1124.0,4975.0,7099.0,-836.0,-779.0,-91.0,0.776,0.218,0.091,0.585
3021109,1444.0,1841.0,7929.0,-347.0,-1236.0,-25.0,0.778,0.222,0.079,0.583
3021132,1026.0,3595.0,7511.0,-246.0,-723.0,223.0,0.778,0.224,0.072,0.583
3021145,1260.0,3745.0,7551.0,-443.0,-792.0,161.0,0.779,0.226,0.064,0.582
3021168,1174.0,2711.0,7291.0,-442.0,-702.0,370.0,0.778,0.226,0.055,0.583
3021181,1168.0,2789.0,6947.0,-373.0,-709.0,350.0,0.778,0.228,0.047,0.584
3021204,1388.0,2643.0,7023.0,-245.0,-658.0,320.0,0.777,0.23,0.04,0.584
3021217,2252.0,3615.0,8017.0,-107.0,-564.0,364.0,0.776,0.232,0.034,0.585
3021240,3186.0,4301.0,8523.0,-102.0,-347.0,435.0,0.774,0.233,0.03,0.587
3021253,2890.0,4155.0,7989.0,-213.0,-218.0,392.0,0.773,0.233,0.026,0.589
3021276,3182.0,3335.0,7731.0,-64.0,-156.0,319.0,0.772,0.234,0.024,0.591
3021289,2880.0,3139.0,7707.0,221.0,-66.0,320.0,0.77,0.236,0.024,0.593
3021302,2564.0,3429.0,6983.0,216.0,-37.0,218.0,0.768,0.238,0.024,0.594
3021325,2426.0,3303.0,6511.0,225.0,-63.0,186.0,0.767,0.24,0.024,0.594
3021338,2502.0,3291.0,6573.0,179.0,-91.0,131.0,0.766,0.242,0.024,0.595
3021361,2482.0,3645.0,6761.0,169.0,-113.0,79.0,0.766,0.244,0.023,0.594
3021374,2438.0,3579.0,7049.0,170.0,-175.0,58.0,0.766,0.247,0.023,0.594
3021397,2490.0,3685.0,7259.0,105.0,-152.0,61.0,0.765,0.248,0.022,0.593
3021410,2196.0,3609.0,7097.0,-121.0,-86.0,76.0,0.766,0.248,0.02,0.593
3021433,2018.0,2999.0,7371.0,-124.0,-91.0,39.0,0.766,0.248,0.019,0.593
3021446,2346.0,3369.0,7479.0,4.0,-32.0,58.0,0.766,0.248,0.018,0.593
3021459,2108.0,3275.0,7349.0,50.0,13.0,123.0,0.766,0.248,0.018,0.593
3021482,2158.0,3437.0,7189.0,74.0,28.0,99.0,0.765,0.249,0.018,0.594
3021495,2232.0,3271.0,7199.0,-25.0,34.0,83.0,0.765,0.248,0.018,0.594
3021518,2226.0,3157.0,6983.0,-138.0,13.0,51.0,0.766,0.247,0.017,0.594
3021531,2268.0,2897.0,7025.0,-204.0,15.0,22.0,0.766,0.246,0.015,0.593
3021554,2152.0,2689.0,7355.0,-163.0,21.0,12.0,0.767,0.244,0.014,0.593
3021567,2040.0,2927.0,7565.0,-84.0,28.0,19.0,0.767,0.244,0.014,0.593
3021590,1820.0,3253.0,7643.0,19.0,49.0,44.0,0.767,0.244,0.014,0.593
3021603,1884.0,3509.0,7667.0,-11.0,52.0,56.0,0.767,0.243,0.014,0.593
3021616,1852.0,3381.0,7691.0,-32.0,47.0,32.0,0.768,0.243,0.014,0.593
3021639,1858.0,3343.0,7705.0,-29.0,46.0,32.0,0.768,0.242,0.014,0.593
3021652,1896.0,3213.0,7445.0,-10.0,60.0,43.0,0.768,0.242,0.014,0.593
3021675,1886.0,3295.0,7189.0,-1.0,36.0,16.0,0.768,0.242,0.014,0.593
3021688,1924.0,3279.0,7113.0,-11.0,13.0,-17.0,0.769,0.241,0.014,0.592
3021711,1984.0,3195.0,7273.0,-39.0,3.0,-25.0,0.769,0.241,0.014,0.591
3021724,1914.0,3269.0,7297.0,-36.0,16.0,-31.0,0.77,0.241,0.014,0.591
3021747,1980.0,3247.0,7285.0,-31.0,5.0,-20.0,0.771,0.241,0.014,0.59
3021760,2062.0,3229.0,7221.0,-36.0,0.0,-25.0,0.771,0.24,0.013,0.59
3021783,1968.0,3129.0,7395.0,-13.0,23.0,-10.0,0.771,0.24,0.013,0.589
3021796,1996.0,3183.0,7339.0,20.0,36.0,1.0,0.772,0.24,0.013,0.589
3021809,1960.0,3265.0,7241.0,24.0,43.0,15.0,0.772,0.24,0.014,0.588
3021832,2016.0,3197.0,7225.0,-1.0,48.0,10.0,0.772,0.24,0.014,0.588
3021845,2094.0,3169.0,7279.0,-36.0,46.0,11.0,0.773,0.239,0.014,0.588
3021868,2062.0,3251.0,7271.0,-25.0,55.0,10.0,0.773,0.239,0.014,0.588
3021881,1908.0,2955.0,7419.0,-44.0,44.0,48.0,0.773,0.238,0.014,0.588
3021904,1854.0,2817.0,7923.0,41.0,67.0,24.0,0.773,0.238,0.014,0.588
3021917,1818.0,3199.0,7771.0,109.0,110.0,49.0,0.773,0.238,0.015,0.588
3021940,1902.0,3381.0,7227.0,118.0,106.0,61.0,0.773,0.239,0.016,0.588
3021953,1962.0,3417.0,6917.0,135.0,92.0,44.0,0.773,0.239,0.017,0.588
3021976,2098.0,3327.0,6889.0,70.0,73.0,37.0,0.773,0.24,0.018,0.588
3021989,2004.0,3201.0,7039.0,-48.0,40.0,15.0,0.773,0.239,0.018,0.588
3022002,2050.0,3045.0,7259.0,-115.0,8.0,-22.0,0.774,0.238,0.017,0.587
3022025,2058.0,3087.0,7311.0,-140.0,-8.0,-29.0,0.774,0.237,0.016,0.586
3022038,2164.0,3083.0,7391.0,-116.0,-7.0,-37.0,0.775,0.236,0.015,0.586
3022061,1962.0,3107.0,7551.0,-28.0,18.0,-28.0,0.776,0.236,0.015,0.585
3022074,1984.0,3297.0,7479.0,-20.0,17.0,-11.0,0.776,0.236,0.015,0.585
3022097,1886.0,3109.0,7283.0,-16.0,20.0,-4.0,0.776,0.236,0.015,0.584
3022110,2004.0,3087.0,7149.0,3.0,7.0,4.0,0.777,0.236,0.015,0.584
3022133,2032.0,3063.0,7081.0,-12.0,1.0,10.0,0.777,0.236,0.015,0.583
3022146,2020.0,3087.0,7069.0,-37.0,-5.0,0.0,0.777,0.236,0.014,0.583
3022159,2008.0,2995.0,7283.0,-64.0,-5.0,-9.0,0.778,0.235,0.014,0.583
3022182,1964.0,3011.0,7419.0,-66.0,2.0,-12.0,0.778,0.235,0.013,0.582
3022195,2026.0,3097.0,7319.0,-58.0,5.0,-16.0,0.779,0.234,0.013,0.582
3022218,1982.0,3049.0,7235.0,-56.0,9.0,-14.0,0.78,0.234,0.012,0.581
3022231,1894.0,3013.0,7399.0,-39.0,9.0,-1.0,0.78,0.233,0.012,0.581
3022254,1914.0,3113.0,7357.0,-28.0,10.0,3.0,0.78,0.233,0.012,0.58
3022267,1894.0,3013.0,7235.0,-38.0,1.0,-8.0,0.781,0.233,0.012,0.58
3022290,502.0,1953.0,7193.0,-125.0,108.0,161.0,0.78,0.231,0.011,0.581
3022303,2230.0,3001.0,7241.0,310.0,-129.0,-181.0,0.781,0.234,0.012,0.579
3022326,1614.0,3591.0,7263.0,129.0,-52.0,199.0,0.78,0.235,0.012,0.58
3022339,1398.0,2825.0,7467.0,-20.0,27.0,719.0,0.776,0.235,0.01,0.585
3022352,1482.0,3155.0,7361.0,-35.0,-142.0,469.0,0.774,0.236,0.008,0.587
3022375,1018.0,2693.0,7235.0,29.0,-295.0,501.0,0.772,0.237,0.005,0.59
3022388,1654.0,3209.0,6987.0,302.0,-598.0,593.0,0.768,0.243,0.001,0.592
3022411,1734.0,3421.0,7377.0,311.0,-710.0,547.0,0.765,0.249,-0.004,0.594
3022424,1684.0,3617.0,7499.0,225.0,-813.0,337.0,0.763,0.255,-0.009,0.594
3022447,2458.0,3185.0,6987.0,156.0,-707.0,498.0,0.76,0.26,-0.014,0.595
3022460,2240.0,3479.0,7279.0,94.0,-815.0,544.0,0.757,0.265,-0.021,0.597
3022483,2706.0,3625.0,7125.0,-277.0,-1071.0,248.0,0.756,0.269,-0.031,0.596
3022496,3752.0,2561.0,6989.0,-376.0,-982.0,-35.0,0.757,0.272,-0.04,0.592
3022519,3360.0,2773.0,6931.0,-201.0,-842.0,109.0,0.757,0.275,-0.048,0.59
3022532,4100.0,3637.0,6785.0,-333.0,-583.0,236.0,0.757,0.276,-0.054,0.59
3022555,3966.0,2841.0,6733.0,-624.0,-295.0,204.0,0.757,0.273,-0.061,0.59
3022568,4086.0,2369.0,6679.0,-751.0,110.0,286.0,0.758,0.267,-0.065,0.592
3022581,4144.0,2629.0,6779.0,-606.0,552.0,439.0,0.758,0.26,-0.066,0.595
3022604,3302.0,2197.0,7103.0,-708.0,757.0,594.0,0.757,0.25,-0.066,0.6
3022617,2796.0,2385.0,7279.0,-807.0,726.0,696.0,0.755,0.24,-0.067,0.606
3022640,3042.0,1699.0,7387.0,-631.0,930.0,874.0,0.753,0.229,-0.067,0.614
3022653,2594.0,2195.0,7701.0,-439.0,347.0,-422.0,0.756,0.225,-0.066,0.611
3022676,2898.0,2259.0,7383.0,-199.0,712.0,79.0,0.757,0.219,-0.062,0.612
3022689,2112.0,2591.0,8007.0,-126.0,737.0,-30.0,0.758,0.214,-0.058,0.613
3022702,946.0,1923.0,9175.0,69.0,699.0,-172.0,0.76,0.21,-0.052,0.613
3022725,2542.0,4311.0,6905.0,33.0,456.0,-306.0,0.762,0.209,-0.048,0.611
3022738,1958.0,2645.0,8161.0,266.0,631.0,-172.0,0.763,0.207,-0.041,0.611
3022761,2496.0,2733.0,7371.0,204.0,751.0,94.0,0.763,0.204,-0.035,0.613
3022774,1908.0,2441.0,7527.0,209.0,564.0,-132.0,0.764,0.202,-0.03,0.613
3022797,2006.0,3305.0,6737.0,309.0,701.0,-98.0,0.764,0.201,-0.023,0.613
3022810,3254.0,1419.0,7371.0,97.0,101.0,-5.0,0.764,0.201,-0.022,0.613
3022833,2714.0,2545.0,7049.0,-114.0,-123.0,118.0,0.764,0.201,-0.024,0.613
3022846,2462.0,1823.0,7429.0,-209.0,-276.0,44.0,0.764,0.201,-0.027,0.612
3022869,564.0,-8973.0,6003.0,-592.0,688.0,-373.0,0.768,0.193,-0.025,0.61
3022882,1738.0,4499.0,6093.0,718.0,51.0,-16.0,0.767,0.198,-0.021,0.61
3022895,1074.0,4843.0,6955.0,699.0,13.0,-119.0,0.767,0.204,-0.016,0.609
3022918,3234.0,3365.0,6839.0,302.0,107.0,-88.0,0.767,0.206,-0.013,0.608
3022931,2548.0,2727.0,7323.0,188.0,408.0,-238.0,0.768,0.205,-0.009,0.607
3022954,1608.0,1159.0,7495.0,1.0,452.0,40.0,0.768,0.202,-0.006,0.607
3022967,1380.0,1357.0,7167.0,-67.0,437.0,-5.0,0.769,0.199,-0.004,0.608
3022990,1240.0,1899.0,7111.0,-129.0,350.0,45.0,0.769,0.196,-0.002,0.609
3023003,1478.0,2093.0,7293.0,-118.0,344.0,-35.0,0.77,0.193,-0.0,0.609
3023026,1756.0,2405.0,7413.0,-123.0,-37.0,-264.0,0.772,0.192,-0.001,0.606
3023044,2400.0,2409.0,7913.0,10.0,-179.0,-350.0,0.774,0.193,-0.002,0.603
3023057,2006.0,2523.0,8377.0,300.0,-105.0,-452.0,0.776,0.196,-0.0,0.599
3023070,2070.0,2623.0,8479.0,566.0,173.0,-538.0,0.778,0.199,0.005,0.595
3023093,2308.0,2569.0,7925.0,607.0,321.0,-740.0,0.782,0.202,0.012,0.59
3023106,2312.0,2287.0,7431.0,623.0,292.0,-971.0,0.786,0.205,0.019,0.583
3023129,2136.0,1923.0,7187.0,608.0,328.0,-967.0,0.79,0.207,0.026,0.576
3023142,2358.0,2629.0,5089.0,783.0,524.0,-564.0,0.792,0.21,0.035,0.572
3023165,300.0,1777.0,7101.0,902.0,357.0,-516.0,0.793,0.215,0.043,0.568
3023178,750.0,2945.0,6153.0,1083.0,218.0,-180.0,0.792,0.222,0.051,0.566
3023201,2354.0,4501.0,6779.0,1110.0,24.0,138.0,0.789,0.23,0.056,0.566
3023214,2032.0,4273.0,7695.0,483.0,35.0,1091.0,0.783,0.234,0.057,0.574
3023237,2984.0,4705.0,7661.0,441.0,114.0,501.0,0.779,0.237,0.059,0.577
3023250,2680.0,5049.0,7445.0,133.0,201.0,228.0,0.778,0.237,0.06,0.579
3023263,1930.0,4477.0,7017.0,-219.0,279.0,219.0,0.777,0.234,0.06,0.581
3023286,1298.0,3929.0,6733.0,-442.0,519.0,420.0,0.776,0.229,0.061,0.585
3023299,632.0,3583.0,6843.0,-720.0,567.0,330.0,0.776,0.221,0.06,0.588
3023322,940.0,3485.0,7073.0,-1208.0,400.0,41.0,0.778,0.21,0.056,0.589
3023335,-288.0,2853.0,7255.0,-998.0,30.0,-134.0,0.781,0.202,0.051,0.589
3023358,-318.0,2451.0,7489.0,-715.0,-686.0,-485.0,0.786,0.2,0.043,0.584
3023371,1902.0,2413.0,7841.0,-397.0,-549.0,-247.0,0.788,0.2,0.037,0.581
3023394,2078.0,2343.0,7881.0,-158.0,-268.0,-185.0,0.79,0.201,0.035,0.579
3023407,1278.0,2923.0,7731.0,-16.0,-29.0,-84.0,0.79,0.201,0.034,0.578
3023420,1106.0,2685.0,7393.0,-23.0,-139.0,-87.0,0.791,0.201,0.033,0.577
3023443,1450.0,2593.0,7371.0,-66.0,-202.0,-95.0,0.792,0.202,0.031,0.575
3023456,1524.0,2521.0,7651.0,41.0,-179.0,-41.0,0.793,0.203,0.03,0.574
3023479,1344.0,2757.0,7749.0,129.0,-180.0,-56.0,0.793,0.205,0.03,0.573
3023492,1464.0,2597.0,7969.0,205.0,-209.0,-63.0,0.793,0.207,0.029,0.572
3023515,1734.0,2327.0,8061.0,310.0,-221.0,-77.0,0.794,0.211,0.029,0.57
3023528,1680.0,2825.0,8039.0,429.0,-250.0,-108.0,0.794,0.215,0.029,0.568
3023551,1838.0,2823.0,8599.0,374.0,-273.0,-118.0,0.794,0.219,0.029,0.566
3023564,1840.0,2913.0,8935.0,394.0,-282.0,-183.0,0.794,0.224,0.03,0.564
3023587,1904.0,2857.0,8497.0,390.0,-286.0,-241.0,0.795,0.228,0.03,0.561
3023600,2418.0,3639.0,8527.0,336.0,-286.0,-280.0,0.796,0.232,0.03,0.558
3023613,2538.0,3255.0,7335.0,73.0,-193.0,-269.0,0.798,0.234,0.029,0.555
3023636,2712.0,3647.0,6653.0,55.0,-180.0,-306.0,0.799,0.235,0.028,0.552
3023649,3036.0,3503.0,7395.0,-87.0,-118.0,-281.0,0.801,0.235,0.027,0.549
3023672,3152.0,3137.0,8401.0,-67.0,-15.0,-285.0,0.803,0.235,0.027,0.547
3023685,3102.0,2867.0,8479.0,67.0,147.0,-275.0,0.805,0.235,0.029,0.545
3023708,3234.0,3267.0,7905.0,181.0,309.0,-226.0,0.805,0.234,0.033,0.543
3023721,3248.0,3525.0,7163.0,225.0,463.0,-176.0,0.806,0.234,0.037,0.543
3023744,3120.0,3491.0,7067.0,309.0,555.0,-186.0,0.806,0.234,0.043,0.542
3023757,3284.0,3733.0,7503.0,301.0,642.0,-180.0,0.806,0.233,0.049,0.542
3023780,2940.0,3085.0,7999.0,338.0,791.0,-130.0,0.806,0.231,0.057,0.542
3023793,3214.0,3209.0,7489.0,404.0,865.0,-97.0,0.805,0.23,0.065,0.542
3023806,3142.0,3045.0,7459.0,351.0,948.0,-69.0,0.805,0.228,0.074,0.543
3023829,2972.0,2475.0,7463.0,326.0,1018.0,14.0,0.803,0.226,0.082,0.545
3023842,2786.0,2681.0,7319.0,480.0,1111.0,167.0,0.801,0.224,0.092,0.548
3023865,2480.0,2803.0,7141.0,640.0,1231.0,238.0,0.797,0.223,0.103,0.551
3023878,2224.0,2859.0,6533.0,693.0,1293.0,409.0,0.793,0.222,0.115,0.556
3023901,2002.0,2467.0,6573.0,808.0,1356.0,616.0,0.787,0.221,0.128,0.562
3023914,1846.0,2943.0,6103.0,945.0,1398.0,772.0,0.779,0.222,0.141,0.569
3023937,1410.0,2737.0,5519.0,1109.0,1453.0,996.0,0.77,0.224,0.155,0.577
3023950,1414.0,3329.0,5285.0,1252.0,1504.0,1107.0,0.759,0.226,0.17,0.586
3023973,854.0,3367.0,5309.0,1265.0,1526.0,1238.0,0.748,0.229,0.185,0.595
3023986,876.0,3483.0,4977.0,1367.0,1498.0,1395.0,0.735,0.233,0.2,0.605
3023999,596.0,4367.0,4481.0,1368.0,1500.0,1598.0,0.72,0.237,0.214,0.616
3024022,408.0,3789.0,4325.0,1294.0,1421.0,1667.0,0.705,0.241,0.227,0.627
3024035,250.0,3345.0,4591.0,1559.0,1391.0,1795.0,0.688,0.247,0.241,0.638
3024058,302.0,4083.0,3759.0,1826.0,1333.0,1965.0,0.67,0.255,0.256,0.649
3024071,6.0,6211.0,3373.0,1669.0,1280.0,1902.0,0.651,0.263,0.269,0.659
3024094,342.0,5037.0,4433.0,1490.0,1174.0,1958.0,0.633,0.269,0.28,0.67
3024107,402.0,4699.0,4179.0,1625.0,1115.0,2007.0,0.614,0.277,0.291,0.679
3024130,836.0,5647.0,3649.0,1816.0,1112.0,1980.0,0.593,0.286,0.304,0.688
3024143,978.0,6173.0,3733.0,1802.0,1127.0,1914.0,0.573,0.295,0.316,0.696
3024156,716.0,7045.0,3469.0,1525.0,1073.0,1878.0,0.554,0.302,0.327,0.704
3024179,762.0,6781.0,3003.0,1306.0,1005.0,1825.0,0.535,0.308,0.335,0.712
3024192,1074.0,5849.0,2903.0,1532.0,906.0,1828.0,0.516,0.315,0.344,0.718
3024215,1182.0,7993.0,2211.0,1717.0,865.0,1815.0,0.496,0.324,0.355,0.723
3024228,984.0,8573.0,2607.0,1326.0,873.0,1540.0,0.478,0.329,0.363,0.729
3024251,1220.0,6841.0,2815.0,1228.0,718.0,1656.0,0.461,0.336,0.37,0.734
3024264,1356.0,6557.0,2279.0,1696.0,726.0,1799.0,0.441,0.344,0.378,0.738
3024287,1270.0,7017.0,1469.0,2021.0,752.0,1754.0,0.419,0.354,0.39,0.74
3024300,1422.0,10751.0,819.0,1627.0,708.0,1367.0,0.402,0.36,0.399,0.741
3024323,1860.0,6947.0,1855.0,1172.0,619.0,1657.0,0.384,0.366,0.404,0.745
3024336,2116.0,6993.0,1587.0,1622.0,622.0,1670.0,0.364,0.374,0.412,0.747
3024349,1924.0,8037.0,1149.0,1949.0,614.0,1472.0,0.345,0.382,0.423,0.746
3024372,2132.0,9449.0,823.0,1675.0,539.0,1308.0,0.327,0.389,0.431,0.746
3024385,2376.0,9297.0,1053.0,1100.0,383.0,1334.0,0.312,0.395,0.435,0.747
3024408,2324.0,7863.0,1857.0,900.0,356.0,1426.0,0.297,0.4,0.438,0.748
3024421,2588.0,7483.0,1171.0,1033.0,207.0,1365.0,0.282,0.407,0.441,0.748
3024444,2962.0,7601.0,1203.0,1283.0,175.0,1271.0,0.267,0.415,0.446,0.747
3024457,2836.0,7529.0,645.0,1411.0,84.0,1266.0,0.252,0.423,0.451,0.744
3024480,2974.0,8377.0,755.0,1242.0,-44.0,1164.0,0.239,0.431,0.455,0.742
3024493,3208.0,8057.0,1107.0,1095.0,-39.0,1185.0,0.226,0.438,0.459,0.739
3024516,3062.0,6713.0,1207.0,1065.0,-127.0,1002.0,0.215,0.445,0.462,0.737
3024529,3344.0,7979.0,545.0,1032.0,-72.0,1243.0,0.202,0.452,0.464,0.734
3024542,3722.0,7675.0,355.0,956.0,-140.0,1154.0,0.19,0.46,0.466,0.732
3024565,3984.0,7255.0,649.0,1011.0,-92.0,1157.0,0.177,0.467,0.468,0.729
3024578,4230.0,7723.0,45.0,1050.0,-101.0,946.0,0.166,0.473,0.472,0.725
3024601,4530.0,7067.0,57.0,1260.0,-53.0,1011.0,0.153,0.479,0.476,0.721
3024614,3942.0,8439.0,-351.0,1231.0,-52.0,961.0,0.141,0.485,0.48,0.717
3024637,4566.0,7539.0,27.0,958.0,-96.0,834.0,0.131,0.491,0.484,0.713
3024650,5124.0,6845.0,-151.0,913.0,-93.0,920.0,0.12,0.496,0.486,0.71
3024673,5236.0,7249.0,-63.0,902.0,-54.0,850.0,0.11,0.501,0.488,0.706
3024686,5354.0,6921.0,-359.0,846.0,-29.0,1072.0,0.098,0.506,0.49,0.703
3024699,5260.0,7287.0,-663.0,936.0,-58.0,979.0,0.087,0.511,0.491,0.7
3024722,5542.0,6893.0,-107.0,854.0,-50.0,890.0,0.076,0.516,0.493,0.696
3024735,5840.0,6397.0,187.0,859.0,-44.0,864.0,0.066,0.52,0.495,0.693
3024758,6100.0,6323.0,-249.0,712.0,31.0,1034.0,0.055,0.525,0.495,0.69
3024771,5884.0,6001.0,-97.0,598.0,90.0,1081.0,0.043,0.529,0.494,0.689
3024794,6208.0,6601.0,-297.0,569.0,105.0,1046.0,0.032,0.532,0.494,0.687
3024807,6396.0,5949.0,-21.0,532.0,130.0,987.0,0.022,0.536,0.493,0.685
3024830,6352.0,6307.0,-81.0,456.0,204.0,1134.0,0.011,0.539,0.491,0.685
3024843,6744.0,5651.0,-465.0,640.0,242.0,963.0,0.001,-0.541,-0.491,-0.683
3024866,7212.0,5705.0,-117.0,602.0,242.0,996.0,0.012,-0.544,-0.49,-0.681
3024879,7072.0,5805.0,-95.0,536.0,251.0,987.0,0.023,-0.546,-0.489,-0.68
3024892,7272.0,5743.0,-59.0,482.0,238.0,789.0,0.033,-0.547,-0.489,-0.679
3024915,7030.0,5399.0,-317.0,444.0,299.0,784.0,0.042,-0.548,-0.488,-0.678
3024928,7162.0,5469.0,-533.0,379.0,333.0,814.0,0.052,-0.549,-0.487,-0.677
3024951,6750.0,5679.0,-891.0,427.0,379.0,839.0,0.062,-0.549,-0.486,-0.677
3024964,7288.0,5381.0,-819.0,424.0,417.0,874.0,0.073,-0.55,-0.485,-0.676
3024987,7220.0,5019.0,-397.0,415.0,464.0,904.0,0.084,-0.55,-0.484,-0.676
3025000,7584.0,4963.0,-587.0,295.0,484.0,953.0,0.094,-0.55,-0.481,-0.676
3025023,7506.0,5065.0,-389.0,169.0,562.0,1204.0,0.106,-0.551,-0.476,-0.677
3025036,7056.0,4319.0,-461.0,220.0,584.0,1125.0,0.118,-0.551,-0.472,-0.678
3025054,7710.0,4807.0,-49.0,258.0,428.0,781.0,0.128,-0.551,-0.47,-0.678
3025067,7328.0,4349.0,-457.0,169.0,412.0,734.0,0.136,-0.551,-0.468,-0.678
3025090,7648.0,4103.0,-535.0,154.0,423.0,738.0,0.144,-0.55,-0.465,-0.678
3025103,7802.0,4031.0,-379.0,135.0,398.0,732.0,0.152,-0.55,-0.463,-0.678
3025126,7796.0,3875.0,-255.0,76.0,408.0,745.0,0.16,-0.55,-0.459,-0.679
3025139,7616.0,3945.0,-469.0,35.0,322.0,638.0,0.167,-0.55,-0.457,-0.679
3025162,7622.0,3743.0,-359.0,13.0,343.0,666.0,0.174,-0.55,-0.454,-0.679
3025175,7744.0,3659.0,-497.0,-37.0,280.0,611.0,0.18,-0.55,-0.451,-0.679
3025198,7478.0,3691.0,-357.0,-6.0,305.0,611.0,0.186,-0.55,-0.448,-0.68
3025211,7608.0,3583.0,-247.0,-35.0,267.0,551.0,0.191,-0.55,-0.446,-0.68
3025234,7552.0,3255.0,-253.0,-60.0,249.0,565.0,0.196,-0.551,-0.443,-0.68
3025247,7710.0,3179.0,-53.0,-43.0,245.0,550.0,0.202,-0.551,-0.44,-0.68
3025260,7658.0,3093.0,-71.0,-50.0,231.0,507.0,0.207,-0.551,-0.438,-0.68
3025283,7748.0,3199.0,-113.0,-45.0,205.0,496.0,0.212,-0.551,-0.435,-0.68
3025296,7830.0,2901.0,-95.0,-85.0,163.0,445.0,0.216,-0.551,-0.433,-0.68
3025319,7780.0,2903.0,5.0,-45.0,174.0,379.0,0.22,-0.551,-0.431,-0.68
3025332,7722.0,2833.0,49.0,-57.0,152.0,345.0,0.223,-0.551,-0.43,-0.68
3025355,7700.0,2861.0,75.0,-67.0,115.0,262.0,0.226,-0.551,-0.428,-0.679
3025368,7748.0,2663.0,93.0,-91.0,39.0,170.0,0.228,-0.551,-0.428,-0.679
3025391,7698.0,2827.0,75.0,-81.0,56.0,184.0,0.23,-0.551,-0.427,-0.679
3025404,7740.0,2859.0,125.0,-125.0,17.0,155.0,0.231,-0.551,-0.426,-0.679
3025427,7716.0,2675.0,-19.0,-122.0,12.0,136.0,0.232,-0.552,-0.426,-0.679
3025440,7650.0,2781.0,5.0,-108.0,7.0,87.0,0.233,-0.552,-0.425,-0.679
3025453,7692.0,2753.0,-23.0,-126.0,-1.0,78.0,0.234,-0.552,-0.425,-0.679
3025476,7626.0,2695.0,113.0,-95.0,-11.0,24.0,0.234,-0.551,-0.425,-0.678
3025489,7700.0,2641.0,99.0,-118.0,4.0,114.0,0.236,-0.552,-0.424,-0.678
3025512,7614.0,2815.0,217.0,-105.0,5.0,98.0,0.237,-0.552,-0.424,-0.678
3025525,7700.0,2709.0,167.0,-129.0,-25.0,47.0,0.237,-0.552,-0.424,-0.678
3025548,7686.0,2779.0,229.0,-133.0,-37.0,7.0,0.237,-0.552,-0.424,-0.678
3025561,7702.0,2681.0,293.0,-133.0,-55.0,-12.0,0.237,-0.552,-0.424,-0.678
3025584,7732.0,2685.0,191.0,-126.0,-51.0,-8.0,0.237,-0.552,-0.424,-0.678
3025597,7734.0,2845.0,203.0,-123.0,-24.0,-8.0,0.237,-0.552,-0.424,-0.678
3025610,7804.0,2589.0,123.0,-125.0,-38.0,-15.0,0.237,-0.552,-0.424,-0.678
3025633,7720.0,2533.0,71.0,-97.0,-13.0,-19.0,0.238,-0.551,-0.425,-0.678
3025646,7664.0,2663.0,81.0,-87.0,-7.0,-6.0,0.238,-0.551,-0.425,-0.678
3025669,7686.0,2759.0,177.0,-100.0,-7.0,-1.0,0.238,-0.551,-0.425,-0.678
3025682,7772.0,2557.0,201.0,-96.0,-5.0,0.0,0.239,-0.55,-0.425,-0.678
3025705,7768.0,2621.0,175.0,-61.0,14.0,-2.0,0.24,-0.55,-0.426,-0.678
3025718,7732.0,2613.0,237.0,-66.0,4.0,-3.0,0.24,-0.549,-0.426,-0.677
3025741,7740.0,2581.0,219.0,-72.0,2.0,-7.0,0.241,-0.549,-0.427,-0.677
3025754,7786.0,2639.0,219.0,-60.0,7.0,-14.0,0.241,-0.548,-0.427,-0.677
3025777,7760.0,2581.0,217.0,-64.0,6.0,-9.0,0.242,-0.548,-0.427,-0.677
3025790,7790.0,2591.0,233.0,-56.0,2.0,-31.0,0.242,-0.547,-0.428,-0.677
3025813,7832.0,2509.0,265.0,-59.0,-18.0,-69.0,0.243,-0.547,-0.429,-0.677
3025826,7738.0,2533.0,277.0,-62.0,-32.0,-106.0,0.242,-0.546,-0.43,-0.677
3025839,7864.0,2541.0,197.0,-52.0,-59.0,-158.0,0.242,-0.546,-0.431,-0.677
3025862,7832.0,2467.0,167.0,-49.0,-32.0,-130.0,0.242,-0.545,-0.432,-0.677
3025875,7858.0,2563.0,221.0,-54.0,-18.0,-87.0,0.242,-0.544,-0.433,-0.677
3025898,7872.0,2491.0,209.0,-66.0,-18.0,-56.0,0.242,-0.544,-0.434,-0.677
3025911,7744.0,2477.0,237.0,-49.0,-12.0,-58.0,0.242,-0.543,-0.434,-0.677
3025934,7762.0,2557.0,217.0,-48.0,-12.0,-53.0,0.242,-0.543,-0.435,-0.676
3025947,7756.0,2485.0,205.0,-50.0,-25.0,-63.0,0.243,-0.542,-0.436,-0.676
3025970,7802.0,2479.0,197.0,-31.0,-19.0,-71.0,0.243,-0.542,-0.437,-0.676
3025983,7774.0,2505.0,169.0,-19.0,-12.0,-71.0,0.243,-0.541,-0.438,-0.676
3025996,7770.0,2467.0,137.0,-23.0,-19.0,-61.0,0.243,-0.54,-0.439,-0.676
3026019,7784.0,2439.0,239.0,-16.0,-5.0,-42.0,0.244,-0.54,-0.439,-0.675
3026032,7774.0,2415.0,135.0,-8.0,2.0,-20.0,0.245,-0.539,-0.44,-0.675
3026055,7744.0,2523.0,209.0,-5.0,-9.0,-40.0,0.245,-0.539,-0.441,-0.675
3026068,7846.0,2507.0,159.0,-6.0,-25.0,-52.0,0.246,-0.538,-0.442,-0.674
3026091,7778.0,2505.0,173.0,15.0,-3.0,-26.0,0.247,-0.537,-0.443,-0.674
3026104,7848.0,2505.0,241.0,7.0,-7.0,-21.0,0.248,-0.537,-0.444,-0.674
3026127,7788.0,2503.0,171.0,-11.0,-11.0,-2.0,0.248,-0.536,-0.444,-0.673
3026140,7836.0,2385.0,119.0,-8.0,0.0,18.0,0.249,-0.536,-0.445,-0.673
3026153,7828.0,2485.0,141.0,-1.0,12.0,24.0,0.25,-0.536,-0.445,-0.672
3026176,7800.0,2471.0,183.0,11.0,13.0,28.0,0.252,-0.535,-0.446,-0.672
3026189,7802.0,2499.0,197.0,-3.0,-6.0,32.0,0.253,-0.535,-0.446,-0.671
3026212,7790.0,2481.0,211.0,9.0,7.0,30.0,0.254,-0.534,-0.447,-0.671
3026225,7794.0,2557.0,213.0,-3.0,9.0,39.0,0.255,-0.534,-0.447,-0.671
3026248,7808.0,2435.0,169.0,-1.0,10.0,53.0,0.256,-0.534,-0.448,-0.67
3026261,7756.0,2495.0,171.0,-29.0,6.0,60.0,0.257,-0.533,-0.448,-0.67
3026284,7818.0,2457.0,173.0,-25.0,13.0,66.0,0.259,-0.533,-0.448,-0.669
3026297,7762.0,2495.0,175.0,-32.0,10.0,72.0,0.26,-0.533,-0.448,-0.669
3026320,7736.0,2509.0,237.0,-29.0,15.0,72.0,0.261,-0.533,-0.448,-0.669
3026333,7746.0,2491.0,183.0,-50.0,6.0,84.0,0.262,-0.533,-0.448,-0.668
3026346,7812.0,2557.0,237.0,-75.0,5.0,73.0,0.263,-0.533,-0.448,-0.668
3026369,7872.0,2449.0,197.0,-92.0,-24.0,15.0,0.264,-0.533,-0.448,-0.668
3026382,7774.0,2469.0,183.0,-89.0,-8.0,6.0,0.264,-0.532,-0.448,-0.668
3026405,7820.0,2465.0,167.0,-90.0,-3.0,8.0,0.264,-0.532,-0.448,-0.668
3026418,7874.0,2539.0,229.0,-92.0,26.0,110.0,0.266,-0.532,-0.448,-0.668
3026441,7798.0,2507.0,257.0,-91.0,22.0,92.0,0.267,-0.532,-0.447,-0.667
3026454,7740.0,2551.0,307.0,-90.0,-10.0,32.0,0.267,-0.532,-0.447,-0.667
3026477,7950.0,2529.0,261.0,-86.0,8.0,61.0,0.268,-0.532,-0.447,-0.667
3026490,7796.0,2521.0,279.0,-75.0,22.0,83.0,0.269,-0.532,-0.447,-0.667
3026513,7748.0,2465.0,245.0,-64.0,1.0,31.0,0.27,-0.532,-0.447,-0.667
3026526,7856.0,2477.0,265.0,-67.0,3.0,45.0,0.271,-0.532,-0.447,-0.667
3026539,7838.0,2495.0,201.0,-86.0,13.0,74.0,0.272,-0.532,-0.447,-0.666
3026562,7826.0,2471.0,281.0,-79.0,7.0,70.0,0.273,-0.532,-0.446,-0.666
3026575,7728.0,2507.0,217.0,-77.0,6.0,49.0,0.273,-0.531,-0.446,-0.666
3026598,7720.0,2471.0,199.0,-62.0,-11.0,8.0,0.274,-0.531,-0.447,-0.666
3026611,7922.0,2383.0,221.0,-68.0,0.0,46.0,0.275,-0.531,-0.447,-0.666
3026634,7820.0,2551.0,225.0,-67.0,21.0,82.0,0.276,-0.531,-0.446,-0.665
3026647,7852.0,2409.0,255.0,-74.0,10.0,66.0,0.277,-0.531,-0.446,-0.665
3026670,7802.0,2459.0,269.0,-53.0,20.0,59.0,0.277,-0.531,-0.446,-0.665
3026683,7800.0,2423.0,243.0,-70.0,9.0,45.0,0.278,-0.531,-0.446,-0.665
3026696,7800.0,2473.0,255.0,-53.0,6.0,24.0,0.279,-0.53,-0.446,-0.665
3026719,7846.0,2371.0,277.0,-45.0,2.0,7.0,0.28,-0.53,-0.447,-0.665
3026732,7780.0,2419.0,265.0,-41.0,1.0,-8.0,0.28,-0.53,-0.447,-0.664
3026755,7802.0,2475.0,217.0,-32.0,2.0,-16.0,0.281,-0.529,-0.448,-0.664
3026768,7860.0,2459.0,155.0,-15.0,10.0,-19.0,0.281,-0.528,-0.448,-0.664
3026791,7864.0,2465.0,285.0,-17.0,17.0,-5.0,0.282,-0.528,-0.449,-0.664
3026804,7804.0,2459.0,333.0,-40.0,13.0,11.0,0.283,-0.528,-0.449,-0.664
3026827,7856.0,2339.0,253.0,-31.0,16.0,26.0,0.283,-0.527,-0.449,-0.663
3026840,7906.0,2419.0,231.0,-15.0,15.0,7.0,0.284,-0.527,-0.449,-0.663
3026863,7832.0,2471.0,253.0,-28.0,2.0,-27.0,0.285,-0.526,-0.45,-0.663
3026876,7820.0,2399.0,257.0,-20.0,-6.0,-37.0,0.285,-0.526,-0.451,-0.663
3026889,7888.0,2401.0,345.0,-8.0,3.0,-42.0,0.286,-0.525,-0.451,-0.662
3026912,7848.0,2425.0,225.0,-21.0,-7.0,-38.0,0.286,-0.525,-0.452,-0.662
3026925,7820.0,2365.0,229.0,-14.0,-3.0,-24.0,0.287,-0.524,-0.453,-0.662
3026948,7796.0,2387.0,205.0,-25.0,4.0,-11.0,0.287,-0.524,-0.453,-0.662
3026961,7800.0,2349.0,197.0,-29.0,3.0,-1.0,0.288,-0.523,-0.454,-0.661
3026984,7792.0,2329.0,179.0,-27.0,0.0,-10.0,0.288,-0.523,-0.454,-0.661
3026997,7702.0,2455.0,205.0,-39.0,-49.0,-121.0,0.288,-0.522,-0.455,-0.661
3027020,7864.0,2407.0,387.0,-71.0,-40.0,-87.0,0.288,-0.522,-0.456,-0.661
3027033,7886.0,2529.0,427.0,-106.0,-51.0,-42.0,0.288,-0.522,-0.456,-0.661
3027061,7838.0,2433.0,459.0,-136.0,-76.0,-23.0,0.287,-0.522,-0.456,-0.661
3027074,7870.0,2361.0,249.0,-160.0,-68.0,-23.0,0.287,-0.522,-0.456,-0.661
3027087,7870.0,2339.0,171.0,-148.0,-56.0,-36.0,0.286,-0.522,-0.456,-0.661
3027100,7944.0,2179.0,87.0,-90.0,-28.0,-30.0,0.286,-0.522,-0.457,-0.661
3027123,7866.0,2417.0,195.0,-60.0,2.0,-30.0,0.287,-0.522,-0.457,-0.661
3027136,7852.0,2379.0,261.0,-79.0,0.0,-9.0,0.287,-0.522,-0.457,-0.661
3027159,7834.0,2435.0,385.0,-86.0,3.0,5.0,0.287,-0.522,-0.457,-0.661
3027172,7800.0,2367.0,315.0,-85.0,6.0,11.0,0.288,-0.521,-0.457,-0.661
3027195,7828.0,2371.0,343.0,-93.0,1.0,17.0,0.288,-0.521,-0.457,-0.661
3027208,7768.0,2431.0,333.0,-107.0,-7.0,9.0,0.288,-0.521,-0.457,-0.661
3027231,7808.0,2439.0,349.0,-118.0,-15.0,-19.0,0.288,-0.521,-0.457,-0.661
3027244,7822.0,2451.0,383.0,-136.0,-41.0,-38.0,0.288,-0.521,-0.457,-0.661
3027257,7864.0,2325.0,337.0,-159.0,-50.0,-28.0,0.288,-0.521,-0.456,-0.661
3027280,7848.0,2369.0,361.0,-150.0,-36.0,-13.0,0.287,-0.521,-0.456,-0.661
3027293,7808.0,2457.0,395.0,-173.0,-40.0,-4.0,0.287,-0.522,-0.456,-0.662
3027316,7756.0,2381.0,225.0,-185.0,-53.0,18.0,0.287,-0.522,-0.455,-0.662
3027329,7866.0,2353.0,139.0,-230.0,-61.0,38.0,0.286,-0.523,-0.454,-0.662
3027352,7790.0,2351.0,333.0,-203.0,-22.0,26.0,0.286,-0.523,-0.454,-0.662
3027365,7808.0,2405.0,419.0,-189.0,-15.0,13.0,0.286,-0.524,-0.453,-0.663
3027388,7874.0,2337.0,393.0,-175.0,-4.0,15.0,0.286,-0.524,-0.452,-0.663
3027401,7842.0,2347.0,329.0,-158.0,-2.0,8.0,0.286,-0.524,-0.452,-0.663
3027424,7840.0,2391.0,413.0,-153.0,3.0,14.0,0.286,-0.524,-0.451,-0.664
3027437,7820.0,2335.0,305.0,-144.0,20.0,21.0,0.286,-0.524,-0.451,-0.664
3027450,7796.0,2373.0,331.0,-135.0,56.0,29.0,0.287,-0.523,-0.45,-0.664
3027473,7902.0,2217.0,257.0,-125.0,41.0,24.0,0.287,-0.523,-0.45,-0.665
3027486,7804.0,2311.0,317.0,-112.0,50.0,23.0,0.288,-0.523,-0.449,-0.665
3027509,7814.0,2417.0,377.0,-103.0,51.0,25.0,0.288,-0.523,-0.449,-0.665
3027522,7790.0,2321.0,317.0,-99.0,37.0,10.0,0.289,-0.522,-0.449,-0.665
3027545,7820.0,2361.0,173.0,-103.0,39.0,2.0,0.289,-0.522,-0.449,-0.666
3027558,8014.0,2599.0,-177.0,-82.0,25.0,-44.0,0.289,-0.522,-0.449,-0.666
3027581,8028.0,2199.0,-35.0,21.0,49.0,-53.0,0.289,-0.521,-0.45,-0.666
3027594,7932.0,2525.0,3.0,144.0,55.0,-89.0,0.29,-0.519,-0.451,-0.665
3027607,8202.0,2775.0,-93.0,166.0,-23.0,-95.0,0.291,-0.518,-0.454,-0.664
3027630,7978.0,2611.0,-221.0,151.0,7.0,-130.0,0.292,-0.517,-0.456,-0.663
3027643,7518.0,3015.0,-191.0,348.0,2.0,-333.0,0.292,-0.514,-0.46,-0.662
3027666,8202.0,3225.0,227.0,415.0,-48.0,-352.0,0.292,-0.511,-0.465,-0.661
3027679,6888.0,4125.0,-11.0,496.0,-86.0,-628.0,0.291,-0.507,-0.472,-0.66
3027702,7798.0,4351.0,121.0,476.0,-108.0,-783.0,0.288,-0.502,-0.48,-0.659
3027715,7560.0,4433.0,287.0,534.0,-96.0,-908.0,0.285,-0.497,-0.488,-0.658
3027738,7506.0,5595.0,391.0,563.0,-143.0,-1141.0,0.281,-0.49,-0.498,-0.658
3027751,7612.0,5673.0,667.0,542.0,-233.0,-1341.0,0.275,-0.484,-0.508,-0.657
3027774,7466.0,5867.0,95.0,496.0,-292.0,-1505.0,0.267,-0.476,-0.519,-0.657
3027787,7434.0,6591.0,-57.0,533.0,-319.0,-1724.0,0.258,-0.468,-0.532,-0.657
3027810,7568.0,6417.0,-405.0,509.0,-349.0,-1820.0,0.248,-0.459,-0.544,-0.657
3027823,7360.0,7391.0,-413.0,569.0,-277.0,-2009.0,0.237,-0.449,-0.557,-0.657
3027836,7334.0,7207.0,-635.0,446.0,-403.0,-2196.0,0.224,-0.438,-0.57,-0.658
3027859,7392.0,7457.0,-853.0,518.0,-411.0,-2370.0,0.21,-0.427,-0.584,-0.658
3027872,7068.0,7951.0,-837.0,528.0,-516.0,-2510.0,0.195,-0.414,-0.599,-0.657
3027895,7012.0,8627.0,-993.0,530.0,-582.0,-2712.0,0.178,-0.401,-0.614,-0.656
3027908,7152.0,8523.0,-1423.0,576.0,-669.0,-2815.0,0.16,-0.387,-0.629,-0.655
3027931,6924.0,9107.0,-1589.0,551.0,-754.0,-2968.0,0.14,-0.373,-0.644,-0.653
3027944,6926.0,8907.0,-1499.0,449.0,-830.0,-3084.0,0.118,-0.358,-0.659,-0.651
3027967,6546.0,8665.0,-1911.0,471.0,-858.0,-3130.0,0.096,-0.343,-0.673,-0.648
3027980,6030.0,8829.0,-1905.0,466.0,-917.0,-3183.0,0.073,-0.327,-0.687,-0.645
3027993,5594.0,8563.0,-2471.0,418.0,-989.0,-3171.0,0.049,-0.312,-0.7,-0.641
3028016,5296.0,8773.0,-2207.0,360.0,-1004.0,-3195.0,0.025,-0.296,-0.712,-0.637
3028029,5030.0,8445.0,-2297.0,285.0,-1053.0,-3168.0,0.001,-0.281,-0.722,-0.632
3028052,4718.0,8379.0,-2207.0,254.0,-1076.0,-3167.0,0.025,0.265,0.732,0.627
3028065,4680.0,8725.0,-2103.0,279.0,-1113.0,-3189.0,0.05,0.25,0.741,0.622
3028088,4300.0,8695.0,-2669.0,285.0,-1187.0,-3236.0,0.076,0.234,0.749,0.615
3028101,3758.0,7733.0,-2175.0,205.0,-1214.0,-3220.0,0.102,0.219,0.756,0.609
3028124,3326.0,7913.0,-2227.0,152.0,-1279.0,-3205.0,0.128,0.204,0.762,0.602
3028137,2698.0,8009.0,-3121.0,110.0,-1398.0,-3182.0,0.155,0.189,0.766,0.594
3028160,2666.0,7409.0,-2125.0,258.0,-1415.0,-3146.0,0.181,0.176,0.771,0.585
3028173,2006.0,7941.0,-3351.0,175.0,-1528.0,-3100.0,0.208,0.163,0.774,0.576
3028186,1900.0,6595.0,-1563.0,158.0,-1476.0,-3051.0,0.235,0.149,0.776,0.566
3028209,1124.0,8001.0,-3147.0,257.0,-1516.0,-2930.0,0.261,0.137,0.778,0.555
3028222,996.0,7019.0,-3443.0,280.0,-1499.0,-2879.0,0.285,0.125,0.779,0.544
3028245,442.0,5837.0,-2633.0,381.0,-1488.0,-2779.0,0.31,0.114,0.78,0.532
3028258,-252.0,6345.0,-2623.0,374.0,-1493.0,-2652.0,0.334,0.103,0.78,0.519
3028281,-500.0,6203.0,-2445.0,436.0,-1485.0,-2561.0,0.357,0.094,0.779,0.506
3028294,-1108.0,6315.0,-2523.0,477.0,-1472.0,-2460.0,0.379,0.085,0.779,0.493
3028317,-1046.0,6217.0,-2061.0,512.0,-1494.0,-2458.0,0.401,0.076,0.777,0.479
3028330,-1620.0,5287.0,-1981.0,490.0,-1457.0,-2340.0,0.421,0.068,0.775,0.465
3028343,-1774.0,5931.0,-1955.0,585.0,-1443.0,-2147.0,0.441,0.062,0.773,0.451
3028366,-2372.0,5493.0,-1993.0,556.0,-1432.0,-1975.0,0.46,0.056,0.771,0.438
3028379,-2616.0,3309.0,-915.0,642.0,-1366.0,-1792.0,0.477,0.052,0.768,0.425
3028402,-3470.0,3921.0,-835.0,812.0,-1365.0,-1535.0,0.492,0.051,0.766,0.411
3028415,-3912.0,3805.0,-157.0,719.0,-1305.0,-1359.0,0.507,0.05,0.763,0.398
3028438,-4278.0,2985.0,427.0,592.0,-1210.0,-1163.0,0.52,0.05,0.76,0.388
3028451,-4508.0,4035.0,-33.0,514.0,-1089.0,-875.0,0.53,0.05,0.757,0.379
3028474,-4756.0,3299.0,449.0,267.0,-846.0,-718.0,0.539,0.05,0.754,0.373
3028487,-4642.0,2725.0,687.0,309.0,-628.0,-573.0,0.546,0.051,0.752,0.367
3028510,-5064.0,2099.0,1199.0,242.0,-318.0,-295.0,0.549,0.052,0.751,0.363
3028523,-5140.0,2141.0,2155.0,144.0,6.0,-17.0,0.549,0.053,0.751,0.362
3028536,-5416.0,2263.0,2001.0,-25.0,378.0,298.0,0.546,0.054,0.753,0.363
3028559,-5462.0,2057.0,2105.0,-108.0,655.0,341.0,0.541,0.055,0.756,0.365
3028572,-4596.0,2467.0,2301.0,-25.0,1021.0,1018.0,0.53,0.059,0.76,0.371
3028595,-5870.0,2691.0,1849.0,-84.0,1429.0,1187.0,0.517,0.063,0.766,0.377
3028608,-4890.0,2785.0,1519.0,-296.0,1538.0,1241.0,0.502,0.066,0.771,0.386
3028631,-5086.0,2461.0,437.0,-287.0,1717.0,1594.0,0.484,0.071,0.777,0.396
3028644,-4558.0,3559.0,-187.0,-268.0,1693.0,1792.0,0.466,0.077,0.782,0.406
3028667,-4188.0,3449.0,-81.0,-358.0,1725.0,2088.0,0.446,0.085,0.787,0.419
3028680,-3496.0,4545.0,-687.0,-385.0,1815.0,2296.0,0.424,0.094,0.79,0.432
3028703,-3070.0,4691.0,-1247.0,-499.0,1910.0,2425.0,0.401,0.103,0.793,0.446
3028716,-2642.0,4639.0,-1585.0,-562.0,1910.0,2570.0,0.377,0.112,0.795,0.462
3028729,-1498.0,5541.0,-2027.0,-463.0,1913.0,2705.0,0.352,0.123,0.797,0.476
3028752,-1326.0,7621.0,-4453.0,-395.0,1857.0,2832.0,0.325,0.135,0.797,0.49
3028765,-690.0,4995.0,-2489.0,-392.0,1757.0,2667.0,0.301,0.147,0.797,0.503
3028788,962.0,6837.0,-2741.0,-415.0,1723.0,2818.0,0.275,0.159,0.796,0.516
3028801,1002.0,9257.0,-4083.0,-406.0,1644.0,2865.0,0.25,0.172,0.793,0.528
3028824,2060.0,7509.0,-4255.0,-164.0,1582.0,2698.0,0.225,0.185,0.791,0.538
3028837,1650.0,7445.0,-2519.0,-134.0,1623.0,2612.0,0.2,0.196,0.789,0.547
3028860,2806.0,9661.0,-4525.0,-58.0,1464.0,2610.0,0.176,0.208,0.786,0.554
3028873,2072.0,7499.0,-4361.0,-254.0,1424.0,2639.0,0.152,0.22,0.782,0.563
3028886,2868.0,8815.0,-2893.0,-173.0,1355.0,2484.0,0.129,0.231,0.778,0.57
3028909,3086.0,10059.0,-5391.0,-42.0,1308.0,2253.0,0.108,0.241,0.774,0.576
3028922,3244.0,6913.0,-2975.0,100.0,1267.0,2355.0,0.086,0.251,0.77,0.58
3028945,4028.0,7201.0,-1617.0,-64.0,1247.0,2322.0,0.064,0.261,0.765,0.585
3028958,3654.0,10587.0,-3539.0,-130.0,1154.0,2257.0,0.044,0.271,0.759,0.59
3028981,2484.0,6675.0,-4345.0,-97.0,1249.0,2369.0,0.022,0.281,0.753,0.595
3028994,3970.0,7651.0,-2239.0,212.0,1165.0,1996.0,0.002,0.289,0.749,0.596
3029017,4974.0,7649.0,-1509.0,166.0,1184.0,2161.0,0.019,-0.297,-0.744,-0.598
3029030,4324.0,7191.0,-1547.0,-31.0,1189.0,2293.0,0.04,-0.306,-0.737,-0.601
3029053,4048.0,7745.0,-3953.0,15.0,1168.0,2556.0,0.063,-0.317,-0.729,-0.603
3029071,4766.0,8561.0,-3627.0,174.0,1073.0,2398.0,0.084,-0.326,-0.722,-0.604
3029084,5914.0,6895.0,-2203.0,333.0,1102.0,2337.0,0.106,-0.335,-0.716,-0.603
3029097,8074.0,6245.0,791.0,190.0,1057.0,2260.0,0.127,-0.344,-0.709,-0.602
3029120,7278.0,6421.0,-2155.0,-173.0,1228.0,2316.0,0.148,-0.352,-0.699,-0.604
3029133,6066.0,7127.0,-2591.0,-78.0,1119.0,2229.0,0.168,-0.36,-0.69,-0.605
3029156,6838.0,8103.0,-3375.0,60.0,1004.0,2225.0,0.187,-0.368,-0.682,-0.604
3029169,7676.0,6781.0,-2243.0,156.0,1051.0,2067.0,0.207,-0.374,-0.674,-0.603
3029192,8450.0,6581.0,-1697.0,81.0,989.0,1943.0,0.225,-0.38,-0.666,-0.602
3029205,8322.0,6315.0,-2329.0,-36.0,974.0,2135.0,0.243,-0.387,-0.656,-0.601
3029228,8244.0,6391.0,-1925.0,2.0,1006.0,2310.0,0.262,-0.395,-0.645,-0.599
3029241,7876.0,6529.0,-2093.0,5.0,861.0,2073.0,0.28,-0.402,-0.636,-0.596
3029254,7308.0,6857.0,-2355.0,65.0,740.0,1773.0,0.295,-0.408,-0.628,-0.594
3029277,7248.0,6523.0,-2177.0,55.0,620.0,1493.0,0.307,-0.413,-0.621,-0.591
3029290,6988.0,6545.0,-2125.0,24.0,514.0,1267.0,0.318,-0.417,-0.615,-0.589
3029313,6868.0,6253.0,-2045.0,36.0,576.0,1191.0,0.328,-0.42,-0.61,-0.587
3029326,6732.0,6115.0,-2203.0,61.0,476.0,1001.0,0.337,-0.422,-0.605,-0.585
3029349,6738.0,6787.0,-2141.0,45.0,431.0,877.0,0.345,-0.424,-0.601,-0.583
3029362,6860.0,6113.0,-2021.0,9.0,346.0,731.0,0.352,-0.425,-0.597,-0.582
3029385,6496.0,6565.0,-2075.0,-10.0,204.0,498.0,0.356,-0.427,-0.595,-0.581
3029398,6660.0,6337.0,-1851.0,-32.0,24.0,204.0,0.358,-0.427,-0.594,-0.58
3029411,6490.0,6485.0,-1845.0,-25.0,-67.0,-13.0,0.358,-0.427,-0.595,-0.58
3029434,6400.0,6655.0,-1997.0,-53.0,-152.0,-183.0,0.356,-0.426,-0.596,-0.579
3029447,6298.0,6999.0,-2235.0,-97.0,-260.0,-370.0,0.353,-0.426,-0.598,-0.58
3029470,6468.0,7049.0,-2343.0,-50.0,-350.0,-638.0,0.348,-0.423,-0.602,-0.58
3029483,6446.0,6843.0,-2465.0,-76.0,-434.0,-826.0,0.341,-0.421,-0.607,-0.581
3029506,6558.0,7203.0,-2521.0,-113.0,-523.0,-1043.0,0.333,-0.418,-0.612,-0.583
3029519,6834.0,7475.0,-2491.0,-120.0,-644.0,-1291.0,0.322,-0.413,-0.619,-0.585
3029542,6984.0,7281.0,-2599.0,-155.0,-774.0,-1518.0,0.309,-0.409,-0.627,-0.587
3029555,7156.0,7541.0,-2623.0,-166.0,-878.0,-1755.0,0.295,-0.403,-0.635,-0.589
3029578,7420.0,7683.0,-2633.0,-156.0,-991.0,-2011.0,0.278,-0.396,-0.645,-0.591
3029591,7526.0,7697.0,-2733.0,-168.0,-1111.0,-2246.0,0.258,-0.389,-0.656,-0.594
3029604,7542.0,7867.0,-2739.0,-165.0,-1205.0,-2459.0,0.237,-0.38,-0.667,-0.596
3029627,7680.0,7919.0,-2803.0,-159.0,-1311.0,-2644.0,0.214,-0.371,-0.678,-0.597
3029640,7564.0,8341.0,-2837.0,-133.0,-1400.0,-2783.0,0.19,-0.36,-0.69,-0.598
3029663,7560.0,8353.0,-3117.0,-198.0,-1504.0,-2951.0,0.164,-0.349,-0.701,-0.599
3029676,7438.0,8519.0,-2897.0,-248.0,-1557.0,-3069.0,0.136,-0.338,-0.712,-0.6
3029699,7094.0,8839.0,-3499.0,-328.0,-1628.0,-3106.0,0.107,-0.326,-0.722,-0.601
3029712,6778.0,8809.0,-3571.0,-424.0,-1696.0,-3139.0,0.077,-0.314,-0.731,-0.601
3029735,6692.0,8291.0,-3085.0,-425.0,-1690.0,-3164.0,0.047,-0.301,-0.739,-0.601
3029748,6344.0,9305.0,-3435.0,-435.0,-1678.0,-3131.0,0.017,-0.289,-0.746,-0.6
3029771,5910.0,8413.0,-2987.0,-436.0,-1738.0,-3277.0,0.014,0.275,0.752,0.599
3029784,5600.0,8327.0,-2607.0,-422.0,-1673.0,-3201.0,0.045,0.262,0.757,0.597
3029797,4794.0,8791.0,-3211.0,-455.0,-1730.0,-3235.0,0.076,0.248,0.762,0.594
3029820,4288.0,7981.0,-2567.0,-507.0,-1703.0,-3253.0,0.107,0.233,0.765,0.591
3029833,4324.0,7853.0,-1767.0,-535.0,-1659.0,-3306.0,0.138,0.218,0.767,0.588
3029856,3854.0,9751.0,-2299.0,-628.0,-1558.0,-3258.0,0.168,0.203,0.768,0.584
3029869,3146.0,7381.0,-3161.0,-900.0,-1617.0,-3312.0,0.198,0.187,0.766,0.582
3029892,3178.0,7799.0,-2377.0,-566.0,-1562.0,-3465.0,0.228,0.17,0.765,0.577
3029905,1954.0,5487.0,-2719.0,-378.0,-1479.0,-3446.0,0.258,0.153,0.765,0.57
3029928,922.0,8261.0,-3083.0,-160.0,-1434.0,-3380.0,0.286,0.137,0.765,0.56
3029941,594.0,6127.0,-1589.0,-181.0,-1456.0,-3285.0,0.314,0.121,0.764,0.55
3029964,-128.0,6451.0,-1895.0,25.0,-1414.0,-3140.0,0.34,0.106,0.763,0.539
3029977,-470.0,7133.0,-1611.0,83.0,-1367.0,-3030.0,0.365,0.092,0.762,0.527
3029990,-1244.0,4911.0,-1599.0,86.0,-1384.0,-2806.0,0.389,0.08,0.76,0.515
3030013,-1666.0,6107.0,-2099.0,225.0,-1412.0,-2716.0,0.412,0.069,0.757,0.502
3030026,-2000.0,4669.0,-1151.0,198.0,-1373.0,-2455.0,0.433,0.059,0.754,0.49
3030049,-2432.0,4539.0,-865.0,296.0,-1307.0,-2287.0,0.453,0.051,0.751,0.477
3030062,-2878.0,5795.0,-1139.0,289.0,-1243.0,-2173.0,0.472,0.043,0.748,0.465
3030085,-2984.0,4207.0,-291.0,121.0,-1219.0,-2056.0,0.489,0.035,0.744,0.454
3030098,-3254.0,3641.0,-105.0,154.0,-1098.0,-1924.0,0.505,0.028,0.74,0.443
3030121,-3754.0,4031.0,389.0,62.0,-942.0,-1655.0,0.519,0.022,0.736,0.434
3030134,-4284.0,3211.0,-83.0,-85.0,-861.0,-1442.0,0.531,0.016,0.731,0.427
3030147,-4572.0,3467.0,-1153.0,-13.0,-866.0,-1240.0,0.543,0.011,0.727,0.42
3030170,-4278.0,3513.0,-679.0,12.0,-933.0,-1087.0,0.554,0.008,0.723,0.414
3030183,-4714.0,2283.0,171.0,-29.0,-860.0,-910.0,0.563,0.006,0.718,0.409
3030206,-5012.0,2021.0,753.0,109.0,-780.0,-671.0,0.571,0.006,0.714,0.404
3030219,-5154.0,2001.0,1037.0,111.0,-616.0,-440.0,0.578,0.007,0.711,0.4
3030242,-5562.0,1577.0,2431.0,65.0,-495.0,-269.0,0.582,0.008,0.709,0.398
3030255,-6066.0,1051.0,2449.0,32.0,-220.0,-109.0,0.585,0.009,0.708,0.396
3030278,-6178.0,1965.0,2983.0,59.0,89.0,139.0,0.584,0.011,0.708,0.396
3030291,-6114.0,931.0,2505.0,-142.0,160.0,309.0,0.582,0.012,0.709,0.398
3030314,-5016.0,819.0,1963.0,78.0,286.0,403.0,0.579,0.015,0.71,0.399
3030327,-5676.0,1533.0,2593.0,278.0,620.0,927.0,0.572,0.021,0.715,0.402
3030340,-5308.0,2055.0,2673.0,349.0,852.0,1260.0,0.562,0.029,0.72,0.406
3030363,-5274.0,2497.0,2063.0,325.0,1084.0,1517.0,0.549,0.038,0.726,0.411
3030376,-4946.0,2399.0,2025.0,307.0,1293.0,1741.0,0.534,0.047,0.733,0.418
3030399,-4672.0,2885.0,1127.0,378.0,1413.0,1983.0,0.517,0.058,0.741,0.425
3030412,-4118.0,3099.0,813.0,402.0,1511.0,2166.0,0.498,0.07,0.748,0.433
3030435,-3704.0,4111.0,-133.0,473.0,1603.0,2347.0,0.477,0.083,0.756,0.441
3030448,-3226.0,3885.0,-71.0,412.0,1689.0,2528.0,0.455,0.096,0.762,0.45
3030471,-2984.0,4383.0,41.0,191.0,1813.0,2741.0,0.431,0.109,0.768,0.461
3030484,-1962.0,5567.0,-1717.0,-38.0,1834.0,2852.0,0.405,0.122,0.772,0.474
3030507,-1130.0,5363.0,-1087.0,-332.0,1818.0,3029.0,0.38,0.136,0.773,0.49
3030520,2.0,7883.0,-3017.0,-199.0,1746.0,3054.0,0.353,0.15,0.774,0.504
3030533,688.0,4743.0,-1319.0,-183.0,1827.0,3214.0,0.325,0.165,0.774,0.518
3030556,1730.0,6217.0,-1085.0,-79.0,2162.0,3289.0,0.294,0.178,0.774,0.531
3030569,1326.0,10107.0,-6399.0,-105.0,2142.0,3210.0,0.263,0.191,0.774,0.544
3030592,1572.0,6975.0,-2877.0,28.0,2166.0,3002.0,0.232,0.203,0.773,0.554
3030605,3472.0,10099.0,-1381.0,-3.0,2163.0,2880.0,0.202,0.213,0.772,0.564
3030628,2372.0,7475.0,-5169.0,-83.0,2081.0,2954.0,0.172,0.223,0.769,0.574
3030641,2996.0,7725.0,-3525.0,117.0,1970.0,2835.0,0.142,0.234,0.766,0.581
3030664,3604.0,9379.0,-2981.0,33.0,1713.0,2644.0,0.115,0.244,0.763,0.588
3030677,4172.0,10135.0,-2993.0,21.0,1595.0,2596.0,0.09,0.253,0.758,0.594
3030700,4344.0,8149.0,-2835.0,-32.0,1633.0,2713.0,0.063,0.264,0.753,0.6
3030713,4484.0,8813.0,-2961.0,72.0,1579.0,2557.0,0.038,0.273,0.747,0.605
3030726,4542.0,9011.0,-3549.0,213.0,1495.0,2574.0,0.012,0.282,0.742,0.608
3030749,5520.0,8527.0,-2321.0,181.0,1415.0,2303.0,0.011,-0.29,-0.737,-0.61
3030762,5046.0,8117.0,-3203.0,106.0,1390.0,2263.0,0.034,-0.298,-0.731,-0.613
3030785,5194.0,7737.0,-3187.0,50.0,1422.0,2335.0,0.057,-0.305,-0.724,-0.615
3030798,5582.0,8377.0,-2871.0,327.0,1328.0,2042.0,0.079,-0.311,-0.72,-0.616
3030821,5636.0,8085.0,-2983.0,290.0,1135.0,2022.0,0.099,-0.318,-0.715,-0.615
3030834,6060.0,8163.0,-3039.0,259.0,1093.0,2248.0,0.121,-0.326,-0.708,-0.614
3030857,6312.0,7485.0,-2097.0,233.0,1065.0,2276.0,0.142,-0.334,-0.702,-0.613
3030870,7168.0,7793.0,-2699.0,149.0,1372.0,2567.0,0.166,-0.342,-0.693,-0.613
3030893,6140.0,7739.0,-3103.0,155.0,1087.0,2282.0,0.187,-0.35,-0.684,-0.612
3030906,6258.0,7011.0,-2615.0,140.0,1012.0,2107.0,0.206,-0.357,-0.677,-0.61
3030919,7034.0,7191.0,-2245.0,166.0,979.0,2021.0,0.225,-0.364,-0.669,-0.608
3030942,6908.0,7409.0,-2397.0,129.0,933.0,1884.0,0.242,-0.369,-0.662,-0.606
3030955,7376.0,7041.0,-2391.0,80.0,923.0,1868.0,0.259,-0.375,-0.654,-0.604
3030978,7466.0,6707.0,-1889.0,122.0,927.0,1760.0,0.275,-0.38,-0.646,-0.602
3030991,7316.0,7269.0,-2157.0,130.0,941.0,1771.0,0.292,-0.384,-0.638,-0.6
3031014,7382.0,6573.0,-1983.0,128.0,992.0,1887.0,0.309,-0.389,-0.63,-0.597
3031027,6784.0,7017.0,-2725.0,157.0,802.0,1597.0,0.324,-0.393,-0.623,-0.594
3031050,6648.0,6181.0,-3039.0,240.0,678.0,1284.0,0.336,-0.395,-0.618,-0.591
3031063,6414.0,6329.0,-2415.0,221.0,587.0,975.0,0.346,-0.396,-0.614,-0.588
3031081,6670.0,6201.0,-2175.0,53.0,368.0,775.0,0.353,-0.398,-0.611,-0.586
3031094,6604.0,6389.0,-1733.0,8.0,246.0,564.0,0.359,-0.399,-0.608,-0.585
3031117,6750.0,6849.0,-1865.0,-34.0,83.0,319.0,0.361,-0.4,-0.607,-0.584
3031130,6468.0,6807.0,-1927.0,22.0,21.0,189.0,0.363,-0.401,-0.607,-0.583
3031153,6346.0,6815.0,-1871.0,30.0,-88.0,5.0,0.363,-0.401,-0.607,-0.582
3031166,6092.0,7423.0,-2147.0,-62.0,-165.0,-183.0,0.362,-0.4,-0.609,-0.582
3031189,6088.0,7155.0,-2853.0,95.0,-262.0,-418.0,0.359,-0.398,-0.612,-0.581
3031202,5972.0,7491.0,-2707.0,94.0,-377.0,-712.0,0.354,-0.395,-0.617,-0.581
3031225,6412.0,7441.0,-2323.0,28.0,-504.0,-944.0,0.346,-0.392,-0.623,-0.582
3031238,6202.0,7893.0,-2707.0,-31.0,-607.0,-1138.0,0.337,-0.388,-0.629,-0.583
3031251,6618.0,7667.0,-2081.0,-53.0,-772.0,-1430.0,0.325,-0.383,-0.637,-0.585
3031274,6804.0,7937.0,-2539.0,-66.0,-902.0,-1647.0,0.311,-0.378,-0.645,-0.587
3031287,6864.0,7995.0,-2503.0,-106.0,-999.0,-1868.0,0.295,-0.372,-0.654,-0.589
3031310,6764.0,7883.0,-3345.0,-144.0,-1140.0,-2086.0,0.277,-0.365,-0.664,-0.591
3031323,7018.0,8639.0,-3389.0,-135.0,-1291.0,-2361.0,0.256,-0.357,-0.675,-0.593
3031346,7532.0,7905.0,-2855.0,-130.0,-1431.0,-2594.0,0.233,-0.348,-0.686,-0.595
3031359,7410.0,8821.0,-2809.0,-209.0,-1564.0,-2739.0,0.207,-0.339,-0.698,-0.596
3031382,7364.0,8607.0,-3277.0,-253.0,-1710.0,-2905.0,0.179,-0.329,-0.709,-0.598
3031395,7284.0,8415.0,-3175.0,-249.0,-1799.0,-3030.0,0.15,-0.319,-0.719,-0.598
3031408,7142.0,9119.0,-3369.0,-263.0,-1846.0,-3114.0,0.12,-0.308,-0.73,-0.599
3031431,6852.0,8625.0,-3357.0,-331.0,-1892.0,-3214.0,0.089,-0.296,-0.739,-0.599
3031454,6516.0,8883.0,-3279.0,-236.0,-1871.0,-3225.0,0.058,-0.284,-0.748,-0.597
3031467,6092.0,8749.0,-3485.0,-227.0,-1870.0,-3202.0,0.027,-0.272,-0.756,-0.595
3031480,5302.0,9121.0,-3347.0,-225.0,-1870.0,-3162.0,0.005,0.259,0.763,0.592
3031503,4920.0,8519.0,-2913.0,-261.0,-1882.0,-3203.0,0.036,0.246,0.769,0.589
3031516,4788.0,8937.0,-2881.0,-305.0,-1898.0,-3137.0,0.067,0.234,0.773,0.586
3031539,3966.0,8097.0,-2691.0,-288.0,-1873.0,-3168.0,0.098,0.221,0.777,0.581
3031552,3584.0,8013.0,-2149.0,-291.0,-1889.0,-3275.0,0.13,0.207,0.78,0.576
3031575,2868.0,8569.0,-3493.0,-297.0,-1885.0,-3254.0,0.162,0.193,0.782,0.57
3031588,2712.0,7871.0,-2473.0,-267.0,-1903.0,-3338.0,0.193,0.179,0.783,0.564
3031611,2034.0,7679.0,-3065.0,-264.0,-1900.0,-3376.0,0.225,0.164,0.783,0.556
3031624,1502.0,6739.0,-2421.0,-123.0,-1848.0,-3409.0,0.256,0.149,0.783,0.547
3031637,790.0,7877.0,-2861.0,-13.0,-1802.0,-3365.0,0.286,0.134,0.783,0.536
3031660,304.0,6047.0,-2233.0,-42.0,-1788.0,-3298.0,0.316,0.119,0.782,0.525
3031673,-318.0,6441.0,-2525.0,106.0,-1693.0,-3157.0,0.343,0.105,0.78,0.512
3031696,-640.0,6227.0,-2655.0,193.0,-1666.0,-3019.0,0.37,0.092,0.778,0.499
3031709,-1136.0,5437.0,-1463.0,317.0,-1562.0,-2858.0,0.394,0.08,0.776,0.485
3031732,-1438.0,4947.0,-1307.0,283.0,-1480.0,-2669.0,0.417,0.07,0.774,0.472
3031745,-2350.0,5601.0,-2359.0,235.0,-1423.0,-2370.0,0.438,0.06,0.77,0.459
3031768,-2010.0,4787.0,-1245.0,396.0,-1344.0,-2305.0,0.458,0.052,0.768,0.446
3031781,-2560.0,3805.0,-1011.0,431.0,-1273.0,-2088.0,0.475,0.045,0.765,0.433
3031804,-3236.0,4565.0,-1003.0,379.0,-1145.0,-1858.0,0.491,0.038,0.762,0.421
3031817,-3488.0,3679.0,5.0,314.0,-1064.0,-1812.0,0.506,0.032,0.759,0.409
3031830,-3926.0,3291.0,-49.0,321.0,-932.0,-1644.0,0.519,0.026,0.756,0.398
3031853,-4524.0,2589.0,-21.0,446.0,-851.0,-1404.0,0.531,0.022,0.753,0.388
3031866,-5030.0,2927.0,-155.0,518.0,-739.0,-1060.0,0.54,0.021,0.752,0.378
3031889,-5082.0,3299.0,161.0,598.0,-662.0,-1020.0,0.548,0.02,0.751,0.368
3031902,-5262.0,2625.0,1223.0,503.0,-626.0,-870.0,0.556,0.019,0.749,0.36
3031925,-5528.0,1655.0,1607.0,396.0,-457.0,-675.0,0.562,0.019,0.748,0.353
3031938,-5444.0,2477.0,1829.0,201.0,-267.0,-378.0,0.565,0.019,0.747,0.349
3031951,-5330.0,1721.0,1959.0,49.0,-104.0,-112.0,0.567,0.019,0.747,0.347
3031974,-5382.0,1341.0,2133.0,49.0,205.0,161.0,0.565,0.021,0.748,0.347
3031987,-5240.0,1339.0,2637.0,118.0,530.0,433.0,0.56,0.024,0.751,0.348
3032010,-5364.0,1471.0,2193.0,88.0,797.0,606.0,0.553,0.026,0.755,0.35
3032023,-5024.0,1359.0,1645.0,69.0,1003.0,792.0,0.544,0.03,0.761,0.354
3032046,-5112.0,1565.0,547.0,-14.0,1263.0,1160.0,0.531,0.035,0.766,0.359
3032059,-4692.0,1579.0,249.0,30.0,1421.0,1403.0,0.517,0.041,0.773,0.366
3032082,-4248.0,2831.0,161.0,80.0,1665.0,1761.0,0.499,0.05,0.78,0.374
3032095,-4192.0,3007.0,745.0,-52.0,1925.0,2008.0,0.478,0.058,0.788,0.384
3032118,-3718.0,3987.0,83.0,-273.0,2058.0,2120.0,0.456,0.066,0.794,0.396
3032131,-4118.0,2147.0,-1943.0,-300.0,1998.0,2333.0,0.433,0.076,0.8,0.409
3032154,-3170.0,4053.0,-2295.0,86.0,1981.0,2565.0,0.409,0.088,0.806,0.419
3032167,-2592.0,4463.0,-1017.0,36.0,2070.0,2785.0,0.382,0.102,0.811,0.431
3032180,-1756.0,5941.0,-1417.0,-173.0,2165.0,2961.0,0.355,0.116,0.815,0.444
3032203,-970.0,5141.0,-1837.0,-367.0,2247.0,3042.0,0.325,0.129,0.817,0.459
3032216,-658.0,5147.0,-4147.0,-296.0,2365.0,3183.0,0.294,0.143,0.818,0.473
3032239,-110.0,5495.0,-2895.0,192.0,2471.0,3263.0,0.261,0.158,0.821,0.483
3032252,642.0,7917.0,-3611.0,89.0,2548.0,3243.0,0.226,0.172,0.822,0.494
3032275,1764.0,6405.0,-3805.0,-287.0,2460.0,3205.0,0.193,0.186,0.82,0.506
3032288,3104.0,8955.0,-4139.0,-110.0,2457.0,3318.0,0.159,0.2,0.817,0.517
3032311,2894.0,7423.0,-6103.0,-101.0,2357.0,3290.0,0.125,0.214,0.813,0.526
3032324,4156.0,7255.0,-1347.0,-193.0,2208.0,3007.0,0.094,0.226,0.808,0.536
3032337,4906.0,10141.0,-5829.0,-62.0,2196.0,2776.0,0.064,0.236,0.803,0.543
3032360,5278.0,9157.0,-6747.0,71.0,2108.0,2800.0,0.034,0.246,0.798,0.549
3032373,6280.0,8415.0,-2897.0,164.0,1935.0,2367.0,0.007,0.254,0.794,0.552
3032396,5872.0,9593.0,-4711.0,-11.0,1844.0,2384.0,0.019,-0.263,-0.788,-0.557
3032409,5804.0,6633.0,-3233.0,-154.0,1709.0,2527.0,0.044,-0.272,-0.78,-0.561
3032432,4626.0,9117.0,-4323.0,-106.0,1761.0,2545.0,0.07,-0.281,-0.772,-0.565
3032445,5380.0,10095.0,-4753.0,168.0,1724.0,2502.0,0.096,-0.29,-0.765,-0.567
3032468,5502.0,7831.0,-3429.0,132.0,1689.0,2583.0,0.122,-0.299,-0.757,-0.568
3032481,6488.0,7551.0,-2299.0,-64.0,1573.0,2434.0,0.146,-0.308,-0.748,-0.569
3032504,6626.0,8191.0,-2673.0,-159.0,1569.0,2496.0,0.17,-0.317,-0.738,-0.571
3032517,6434.0,6917.0,-4139.0,-131.0,1584.0,2692.0,0.195,-0.327,-0.727,-0.572
3032530,6170.0,8899.0,-4219.0,167.0,1606.0,2539.0,0.22,-0.334,-0.717,-0.571
3032553,8404.0,8429.0,-2889.0,-47.0,1527.0,2476.0,0.244,-0.342,-0.705,-0.571
3032566,7654.0,6503.0,-2633.0,98.0,1317.0,2158.0,0.265,-0.349,-0.696,-0.569
3032589,8054.0,6729.0,-1853.0,-100.0,1229.0,2159.0,0.284,-0.356,-0.686,-0.568
3032602,8252.0,7283.0,-3593.0,-199.0,1090.0,1858.0,0.3,-0.362,-0.676,-0.567
3032625,7598.0,6831.0,-4035.0,-77.0,1015.0,1733.0,0.316,-0.368,-0.667,-0.566
3032638,8010.0,6463.0,-3465.0,-23.0,1016.0,1789.0,0.332,-0.373,-0.658,-0.564
3032661,8086.0,5587.0,-2183.0,-21.0,1156.0,1916.0,0.35,-0.378,-0.647,-0.562
3032674,7180.0,6171.0,-2149.0,-72.0,1001.0,1808.0,0.365,-0.383,-0.638,-0.559
3032687,7142.0,5867.0,-1729.0,-39.0,813.0,1431.0,0.378,-0.387,-0.63,-0.557
3032710,6734.0,6321.0,-2375.0,-83.0,612.0,1001.0,0.387,-0.39,-0.624,-0.556
3032723,6548.0,5969.0,-2827.0,-83.0,451.0,671.0,0.393,-0.391,-0.62,-0.555
3032746,6398.0,6287.0,-2901.0,-25.0,467.0,587.0,0.399,-0.391,-0.616,-0.555
3032759,6288.0,6631.0,-3013.0,-21.0,424.0,521.0,0.405,-0.392,-0.613,-0.554
3032782,6140.0,6143.0,-2771.0,10.0,276.0,309.0,0.409,-0.392,-0.611,-0.553
3032795,6306.0,6425.0,-2551.0,-24.0,104.0,55.0,0.41,-0.391,-0.611,-0.553
3032818,6526.0,6115.0,-2605.0,-68.0,-20.0,-132.0,0.409,-0.39,-0.611,-0.554
3032831,6276.0,6493.0,-2759.0,-51.0,-99.0,-313.0,0.408,-0.388,-0.613,-0.554
3032854,6320.0,6379.0,-2537.0,-22.0,-206.0,-497.0,0.404,-0.386,-0.616,-0.555
3032867,6302.0,6897.0,-2641.0,-84.0,-385.0,-648.0,0.399,-0.384,-0.62,-0.556
3032880,6524.0,6749.0,-2937.0,-86.0,-591.0,-989.0,0.39,-0.382,-0.625,-0.558
3032903,6316.0,7031.0,-3429.0,-150.0,-769.0,-1171.0,0.38,-0.379,-0.632,-0.56
3032916,6858.0,7209.0,-3443.0,-65.0,-937.0,-1453.0,0.367,-0.375,-0.64,-0.562
3032939,7146.0,6773.0,-2739.0,-80.0,-1118.0,-1688.0,0.352,-0.37,-0.65,-0.563
3032952,7294.0,7367.0,-2909.0,-140.0,-1234.0,-1846.0,0.334,-0.365,-0.659,-0.566
3032975,7242.0,7571.0,-3411.0,-151.0,-1340.0,-2052.0,0.315,-0.359,-0.67,-0.568
3032988,7380.0,8131.0,-3699.0,-132.0,-1421.0,-2265.0,0.294,-0.352,-0.681,-0.57
3033011,7558.0,8305.0,-3749.0,-141.0,-1529.0,-2472.0,0.271,-0.344,-0.693,-0.572
3033024,7580.0,8369.0,-3439.0,-179.0,-1658.0,-2645.0,0.246,-0.336,-0.705,-0.574
3033047,7578.0,8441.0,-3495.0,-210.0,-1794.0,-2807.0,0.219,-0.327,-0.716,-0.576
3033060,7504.0,8699.0,-3789.0,-272.0,-1916.0,-2956.0,0.19,-0.317,-0.728,-0.578
3033073,7490.0,8847.0,-3881.0,-267.0,-1970.0,-3047.0,0.16,-0.307,-0.739,-0.578
3033091,7238.0,8729.0,-3781.0,-280.0,-2024.0,-3130.0,0.129,-0.296,-0.749,-0.579
3033114,7062.0,9161.0,-3591.0,-287.0,-2123.0,-3228.0,0.096,-0.284,-0.759,-0.578
3033127,6478.0,8975.0,-4103.0,-325.0,-2133.0,-3178.0,0.063,-0.273,-0.767,-0.577
3033150,6096.0,8525.0,-3731.0,-369.0,-2176.0,-3165.0,0.03,-0.262,-0.774,-0.576
3033163,6054.0,8381.0,-3171.0,-349.0,-2212.0,-3183.0,0.004,0.251,0.78,0.574
3033186,4890.0,8469.0,-3439.0,-410.0,-2174.0,-3044.0,0.037,0.24,0.784,0.571
3033199,4638.0,8251.0,-2953.0,-438.0,-2219.0,-3123.0,0.07,0.228,0.788,0.568
3033222,4280.0,8361.0,-3537.0,-427.0,-2211.0,-3149.0,0.104,0.216,0.79,0.564
3033235,3546.0,7127.0,-3501.0,-444.0,-2240.0,-3156.0,0.137,0.205,0.792,0.559
3033248,3122.0,7463.0,-3597.0,-365.0,-2234.0,-3222.0,0.17,0.193,0.792,0.553
3033271,2716.0,7521.0,-3287.0,-323.0,-2215.0,-3253.0,0.203,0.18,0.793,0.546
3033284,2322.0,7481.0,-3513.0,-310.0,-2232.0,-3285.0,0.236,0.167,0.792,0.538
3033307,2256.0,7081.0,-2203.0,-253.0,-2162.0,-3300.0,0.269,0.154,0.79,0.529
3033320,1346.0,7013.0,-2145.0,-182.0,-2061.0,-3274.0,0.3,0.14,0.788,0.519
3033343,298.0,6735.0,-2681.0,-120.0,-2004.0,-3230.0,0.33,0.126,0.786,0.508
3033356,118.0,5675.0,-1883.0,-6.0,-1866.0,-3126.0,0.359,0.113,0.783,0.496
3033379,-922.0,5973.0,-2399.0,59.0,-1737.0,-2918.0,0.385,0.1,0.78,0.483
3033392,-1250.0,5563.0,-1841.0,247.0,-1617.0,-2758.0,0.409,0.089,0.777,0.469
3033415,-1690.0,4857.0,-1351.0,418.0,-1487.0,-2516.0,0.431,0.079,0.775,0.455
3033428,-2868.0,4951.0,-1653.0,460.0,-1508.0,-2362.0,0.452,0.071,0.773,0.44
3033441,-2884.0,3853.0,-1455.0,606.0,-1499.0,-2242.0,0.472,0.064,0.77,0.425
3033464,-3462.0,3713.0,-1211.0,646.0,-1495.0,-2042.0,0.49,0.059,0.767,0.41
3033477,-3904.0,3233.0,-1375.0,868.0,-1522.0,-1926.0,0.508,0.056,0.764,0.394
3033500,-3774.0,3603.0,-729.0,927.0,-1525.0,-1781.0,0.525,0.054,0.761,0.377
3033513,-4468.0,2653.0,-239.0,833.0,-1515.0,-1502.0,0.541,0.053,0.757,0.363
3033536,-3774.0,3579.0,1445.0,695.0,-1382.0,-1191.0,0.555,0.054,0.752,0.351
3033549,-4966.0,2583.0,969.0,556.0,-1101.0,-1040.0,0.566,0.054,0.749,0.34
3033572,-4976.0,1869.0,1949.0,468.0,-911.0,-905.0,0.575,0.053,0.746,0.331
3033585,-5108.0,1851.0,2585.0,325.0,-643.0,-651.0,0.582,0.053,0.744,0.325
3033598,-5294.0,673.0,3101.0,264.0,-271.0,-367.0,0.585,0.054,0.743,0.32
3033621,-5374.0,1229.0,3455.0,227.0,120.0,-10.0,0.585,0.055,0.744,0.318
3033634,-5616.0,1327.0,3417.0,50.0,537.0,354.0,0.58,0.057,0.747,0.319
3033657,-5408.0,1535.0,3461.0,-30.0,897.0,650.0,0.572,0.06,0.751,0.323
3033670,-5706.0,1459.0,2921.0,-136.0,1210.0,925.0,0.561,0.063,0.757,0.329
3033693,-5564.0,1465.0,2449.0,-250.0,1361.0,1044.0,0.549,0.066,0.762,0.336
3033706,-5158.0,1523.0,1777.0,-239.0,1617.0,1524.0,0.533,0.071,0.769,0.346
3033729,-5468.0,2539.0,1133.0,-229.0,1764.0,1689.0,0.516,0.077,0.775,0.357
3033742,-4898.0,2285.0,705.0,-387.0,1846.0,1801.0,0.497,0.083,0.781,0.369
3033765,-4144.0,2857.0,157.0,-411.0,1985.0,2128.0,0.476,0.091,0.787,0.382
3033778,-3890.0,3047.0,-179.0,-436.0,2057.0,2355.0,0.453,0.1,0.792,0.397
3033791,-3168.0,4409.0,-1567.0,-389.0,2077.0,2528.0,0.429,0.11,0.797,0.412
3033814,-2798.0,3499.0,-2121.0,-273.0,2080.0,2567.0,0.404,0.121,0.801,0.426
3033827,-1558.0,5399.0,-1997.0,-182.0,2206.0,2739.0,0.377,0.132,0.805,0.44
3033850,-920.0,5021.0,-1785.0,-306.0,2272.0,2769.0,0.349,0.143,0.807,0.454
3033863,-530.0,5461.0,-3529.0,-272.0,2262.0,2827.0,0.321,0.155,0.809,0.468
3033886,-776.0,5103.0,-4827.0,103.0,2214.0,2913.0,0.291,0.168,0.811,0.478
3033899,926.0,8455.0,-3421.0,251.0,2172.0,2810.0,0.262,0.181,0.813,0.487
3033922,1664.0,7777.0,-3617.0,229.0,2104.0,2621.0,0.234,0.193,0.814,0.495
3033935,2626.0,7683.0,-4777.0,-43.0,2101.0,2649.0,0.206,0.204,0.814,0.504
3033958,2368.0,6801.0,-5769.0,-46.0,2167.0,2679.0,0.177,0.214,0.812,0.514
3033971,2324.0,6883.0,-4135.0,297.0,2214.0,2568.0,0.147,0.224,0.811,0.52
3033994,4028.0,10157.0,-4357.0,301.0,2182.0,2530.0,0.118,0.233,0.81,0.525
3034007,3860.0,6645.0,-3995.0,11.0,2150.0,2563.0,0.089,0.243,0.806,0.532
3034020,3400.0,7577.0,-3967.0,86.0,2065.0,2515.0,0.061,0.252,0.802,0.538
3034043,3602.0,9767.0,-6379.0,221.0,1988.0,2652.0,0.032,0.262,0.798,0.542
3034056,3714.0,8021.0,-4473.0,317.0,1977.0,2567.0,0.004,0.271,0.793,0.545
3034079,5306.0,9265.0,-3843.0,302.0,1854.0,2286.0,0.022,-0.279,-0.789,-0.547
3034092,4712.0,6901.0,-4763.0,213.0,1781.0,2259.0,0.047,-0.286,-0.783,-0.55
3034115,5698.0,8127.0,-4043.0,220.0,1698.0,2039.0,0.071,-0.292,-0.778,-0.552
3034128,5652.0,8797.0,-5133.0,335.0,1703.0,2081.0,0.095,-0.298,-0.773,-0.552
3034151,5594.0,7717.0,-3855.0,203.0,1642.0,2193.0,0.119,-0.305,-0.766,-0.553
3034164,6264.0,7701.0,-2765.0,150.0,1528.0,2160.0,0.141,-0.312,-0.759,-0.554
3034177,5636.0,9233.0,-5069.0,106.0,1401.0,2216.0,0.163,-0.32,-0.751,-0.554
3034200,5726.0,6907.0,-4209.0,64.0,1364.0,2249.0,0.185,-0.328,-0.743,-0.554
3034213,6050.0,6781.0,-1669.0,-138.0,1493.0,1434.0,0.202,-0.33,-0.735,-0.557
3034236,6064.0,6833.0,-3455.0,-171.0,1286.0,2044.0,0.222,-0.337,-0.725,-0.558
3034249,5954.0,7947.0,-3983.0,-167.0,1240.0,2009.0,0.24,-0.344,-0.716,-0.558
3034272,5922.0,6995.0,-3539.0,-53.0,1227.0,1952.0,0.259,-0.351,-0.706,-0.558
3034285,6504.0,7515.0,-3575.0,-163.0,1123.0,1838.0,0.276,-0.357,-0.697,-0.558
3034308,7166.0,7065.0,-3555.0,-166.0,1136.0,1875.0,0.292,-0.363,-0.687,-0.557
3034321,7150.0,6363.0,-2915.0,-149.0,1162.0,1899.0,0.31,-0.369,-0.677,-0.557
3034334,7054.0,6085.0,-3227.0,-154.0,1136.0,1897.0,0.327,-0.375,-0.666,-0.556
3034357,7140.0,6587.0,-2959.0,-151.0,1023.0,1691.0,0.342,-0.38,-0.657,-0.555
3034370,7174.0,6229.0,-3297.0,-106.0,821.0,1400.0,0.354,-0.384,-0.649,-0.553
3034393,7174.0,5765.0,-2583.0,-52.0,832.0,1460.0,0.367,-0.388,-0.641,-0.551
3034406,7082.0,5995.0,-2817.0,-117.0,634.0,1175.0,0.377,-0.392,-0.634,-0.55
3034429,6952.0,5633.0,-2845.0,-113.0,460.0,917.0,0.384,-0.395,-0.629,-0.549
3034442,6642.0,5949.0,-2665.0,-36.0,296.0,602.0,0.389,-0.396,-0.626,-0.547
3034465,6500.0,6387.0,-2777.0,-34.0,172.0,415.0,0.393,-0.398,-0.624,-0.546
3034478,6322.0,6153.0,-2663.0,12.0,58.0,185.0,0.394,-0.398,-0.623,-0.545
3034501,6334.0,6287.0,-2469.0,28.0,-31.0,6.0,0.395,-0.397,-0.624,-0.545
3034514,6092.0,6741.0,-2907.0,55.0,-78.0,-146.0,0.394,-0.396,-0.626,-0.544
3034527,6090.0,6791.0,-2909.0,83.0,-169.0,-378.0,0.392,-0.394,-0.628,-0.544
3034550,6050.0,7007.0,-3101.0,60.0,-329.0,-627.0,0.388,-0.391,-0.633,-0.544
3034563,6322.0,6977.0,-2969.0,49.0,-465.0,-879.0,0.381,-0.388,-0.638,-0.545
3034586,6356.0,7337.0,-3049.0,16.0,-618.0,-1108.0,0.372,-0.384,-0.645,-0.546
3034599,6680.0,7459.0,-3307.0,8.0,-771.0,-1321.0,0.362,-0.379,-0.652,-0.548
3034622,6682.0,7393.0,-3207.0,11.0,-957.0,-1639.0,0.348,-0.373,-0.662,-0.549
3034635,6912.0,8285.0,-3899.0,-77.0,-1073.0,-1761.0,0.332,-0.367,-0.671,-0.551
3034658,7140.0,7773.0,-3555.0,0.0,-1243.0,-2049.0,0.315,-0.36,-0.682,-0.553
3034671,7440.0,8227.0,-3531.0,-20.0,-1423.0,-2237.0,0.294,-0.353,-0.694,-0.554
3034684,7190.0,8263.0,-3813.0,-179.0,-1604.0,-2401.0,0.271,-0.345,-0.705,-0.556
3034707,7048.0,8797.0,-4381.0,-177.0,-1745.0,-2524.0,0.247,-0.337,-0.717,-0.558
3034720,7382.0,8167.0,-3869.0,-245.0,-1841.0,-2602.0,0.22,-0.329,-0.728,-0.559
3034743,7406.0,9225.0,-4455.0,-258.0,-1959.0,-2667.0,0.193,-0.321,-0.739,-0.56
3034756,7558.0,8207.0,-4251.0,-316.0,-2075.0,-2728.0,0.163,-0.313,-0.749,-0.56
3034779,7608.0,8073.0,-4281.0,-282.0,-2150.0,-2852.0,0.133,-0.304,-0.759,-0.56
3034792,7096.0,8793.0,-4719.0,-254.0,-2132.0,-3019.0,0.102,-0.294,-0.769,-0.559
3034815,7160.0,8211.0,-4301.0,-339.0,-2126.0,-3056.0,0.07,-0.283,-0.777,-0.558
3034828,6500.0,7681.0,-4293.0,-308.0,-2061.0,-2985.0,0.039,-0.271,-0.784,-0.557
3034851,5652.0,8239.0,-4165.0,-244.0,-2127.0,-3100.0,0.007,-0.26,-0.791,-0.554
3034864,5378.0,8001.0,-4265.0,-338.0,-2188.0,-3020.0,0.026,0.248,0.797,0.551
3034887,4788.0,8043.0,-4161.0,-292.0,-2233.0,-3071.0,0.059,0.236,0.801,0.547
3034900,4208.0,7607.0,-4055.0,-322.0,-2245.0,-3052.0,0.091,0.225,0.804,0.542
3034913,3546.0,7239.0,-4073.0,-362.0,-2253.0,-3079.0,0.125,0.213,0.807,0.537
3034936,2896.0,7405.0,-3613.0,-284.0,-2218.0,-3105.0,0.157,0.2,0.808,0.531
3034949,2738.0,7073.0,-3347.0,-249.0,-2204.0,-3143.0,0.189,0.188,0.809,0.524
3034972,1858.0,7089.0,-3771.0,-245.0,-2181.0,-3121.0,0.22,0.175,0.809,0.516
3034985,1346.0,6891.0,-3927.0,-107.0,-2165.0,-3155.0,0.251,0.162,0.809,0.507
3035008,1040.0,6243.0,-3069.0,-77.0,-2157.0,-3135.0,0.282,0.148,0.807,0.496
3035021,408.0,6581.0,-3413.0,-80.0,-2121.0,-3081.0,0.312,0.136,0.805,0.485
3035044,-512.0,5237.0,-2687.0,44.0,-2029.0,-3015.0,0.341,0.123,0.803,0.473
3035057,-780.0,5543.0,-2289.0,194.0,-1894.0,-2890.0,0.368,0.111,0.801,0.46
3035070,-1554.0,5455.0,-2051.0,209.0,-1761.0,-2732.0,0.393,0.099,0.798,0.447
3035098,-2166.0,5151.0,-1927.0,308.0,-1651.0,-2543.0,0.416,0.089,0.795,0.433
3035111,-2546.0,5509.0,-2617.0,438.0,-1591.0,-2270.0,0.436,0.081,0.792,0.419
3035124,-3068.0,4385.0,-1861.0,541.0,-1549.0,-2150.0,0.456,0.074,0.789,0.405
3035147,-3404.0,3907.0,-1265.0,618.0,-1599.0,-2074.0,0.475,0.067,0.786,0.39
3035160,-3594.0,3911.0,-925.0,557.0,-1549.0,-1919.0,0.494,0.062,0.782,0.376
3035183,-3880.0,3759.0,-707.0,464.0,-1473.0,-1742.0,0.51,0.058,0.777,0.363
3035196,-4480.0,3407.0,-967.0,482.0,-1388.0,-1579.0,0.526,0.054,0.773,0.351
3035219,-4608.0,3029.0,-49.0,433.0,-1318.0,-1393.0,0.54,0.051,0.768,0.34
3035232,-4732.0,2215.0,469.0,419.0,-1193.0,-1233.0,0.552,0.049,0.764,0.329
3035245,-5262.0,1677.0,1111.0,318.0,-1018.0,-953.0,0.563,0.048,0.76,0.321
3035268,-5270.0,1465.0,1579.0,303.0,-849.0,-770.0,0.571,0.047,0.757,0.314
3035281,-5522.0,1855.0,1505.0,122.0,-669.0,-439.0,0.577,0.047,0.754,0.31
3035304,-5562.0,1239.0,1051.0,22.0,-563.0,-114.0,0.582,0.049,0.751,0.308
3035317,-4844.0,391.0,2361.0,104.0,-201.0,-18.0,0.584,0.051,0.75,0.307
3035340,-4730.0,263.0,2079.0,25.0,210.0,251.0,0.582,0.053,0.751,0.308
3035353,-4540.0,853.0,2475.0,-91.0,640.0,613.0,0.576,0.056,0.754,0.311
3035376,-4694.0,1003.0,2419.0,-98.0,901.0,647.0,0.568,0.058,0.758,0.315
3035389,-4554.0,777.0,1951.0,-307.0,1242.0,1009.0,0.557,0.061,0.763,0.323
3035402,-4664.0,939.0,1473.0,-340.0,1484.0,1319.0,0.543,0.065,0.768,0.332
3035425,-4346.0,1513.0,1047.0,-318.0,1713.0,1832.0,0.525,0.072,0.775,0.344
3035448,-4614.0,1805.0,881.0,-206.0,1860.0,2110.0,0.506,0.081,0.781,0.357
3035461,-4218.0,2257.0,813.0,-118.0,1966.0,2301.0,0.484,0.091,0.788,0.369
3035474,-3868.0,2705.0,559.0,-97.0,2135.0,2618.0,0.459,0.104,0.795,0.383
3035497,-3670.0,3435.0,-1153.0,-97.0,2257.0,2904.0,0.432,0.117,0.801,0.398
3035510,-3380.0,3737.0,-951.0,-57.0,2350.0,3026.0,0.404,0.132,0.806,0.412
3035533,-2584.0,5825.0,-2343.0,8.0,2447.0,3135.0,0.374,0.147,0.811,0.427
3035546,-1976.0,4825.0,-2323.0,-108.0,2446.0,3065.0,0.343,0.16,0.814,0.441
3035569,-564.0,7585.0,-3799.0,58.0,2494.0,3123.0,0.311,0.175,0.817,0.454
3035582,320.0,4791.0,-2177.0,-52.0,2533.0,3074.0,0.279,0.188,0.818,0.467
3035605,1056.0,8377.0,-4553.0,-69.0,2717.0,3247.0,0.244,0.201,0.818,0.48
3035618,1186.0,7183.0,-5473.0,19.0,2647.0,2986.0,0.211,0.213,0.818,0.491
3035631,2854.0,8165.0,-2805.0,40.0,2604.0,2849.0,0.178,0.223,0.817,0.501
3035654,3944.0,9569.0,-4301.0,-158.0,2573.0,2864.0,0.146,0.233,0.814,0.512
3035667,2520.0,8205.0,-6519.0,-366.0,2443.0,2992.0,0.114,0.244,0.808,0.524
3035690,3596.0,9151.0,-6043.0,-40.0,2260.0,2792.0,0.084,0.254,0.804,0.532
3035703,5110.0,8837.0,-4585.0,-66.0,2136.0,2445.0,0.056,0.262,0.799,0.539
3035726,4706.0,9099.0,-4459.0,-180.0,1942.0,2452.0,0.03,0.27,0.792,0.546
3035739,4718.0,7157.0,-4687.0,-342.0,1836.0,2610.0,0.004,0.28,0.784,0.554
3035762,4290.0,8081.0,-4421.0,-354.0,1668.0,2599.0,0.021,-0.291,-0.775,-0.56
3035775,4900.0,9299.0,-4703.0,-346.0,1532.0,2555.0,0.044,-0.301,-0.766,-0.566
3035798,5540.0,8017.0,-3649.0,-180.0,1469.0,2490.0,0.068,-0.311,-0.757,-0.571
3035811,6034.0,8101.0,-3753.0,53.0,1412.0,2222.0,0.09,-0.319,-0.75,-0.573
3035824,6392.0,7045.0,-3503.0,-138.0,1330.0,2190.0,0.11,-0.327,-0.741,-0.576
3035847,6564.0,7259.0,-3309.0,-218.0,1269.0,1989.0,0.129,-0.334,-0.733,-0.579
3035860,6248.0,7625.0,-2977.0,-56.0,1292.0,1979.0,0.149,-0.34,-0.725,-0.58
3035883,6296.0,8413.0,-3775.0,-8.0,1209.0,2010.0,0.168,-0.347,-0.716,-0.581
3035896,6660.0,7137.0,-2651.0,17.0,1207.0,2031.0,0.187,-0.354,-0.708,-0.582
3035919,7048.0,7643.0,-2171.0,-32.0,1163.0,1950.0,0.206,-0.36,-0.699,-0.582
3035932,7298.0,9611.0,-6519.0,16.0,1278.0,1388.0,0.222,-0.362,-0.693,-0.583
3035955,7010.0,6037.0,-3681.0,-351.0,1254.0,2070.0,0.24,-0.369,-0.681,-0.585
3035968,6728.0,7375.0,-3305.0,-120.0,1172.0,1985.0,0.259,-0.374,-0.671,-0.585
3035981,7028.0,6335.0,-2817.0,-141.0,1133.0,2051.0,0.277,-0.381,-0.661,-0.585
3036004,6872.0,6593.0,-2653.0,-120.0,1150.0,2091.0,0.295,-0.387,-0.65,-0.584
3036017,7308.0,6069.0,-2103.0,-145.0,1079.0,2069.0,0.313,-0.394,-0.639,-0.582
3036040,7378.0,5333.0,-1931.0,-159.0,1004.0,2054.0,0.33,-0.401,-0.627,-0.581
3036053,7414.0,5543.0,-2091.0,-153.0,889.0,1865.0,0.345,-0.407,-0.617,-0.579
3036076,7480.0,5391.0,-1871.0,-111.0,718.0,1526.0,0.357,-0.412,-0.609,-0.577
3036089,7202.0,5577.0,-1793.0,-105.0,509.0,1118.0,0.366,-0.415,-0.602,-0.575
3036112,7280.0,5827.0,-1911.0,-38.0,360.0,800.0,0.373,-0.417,-0.598,-0.574
3036125,7028.0,6345.0,-2229.0,-71.0,349.0,738.0,0.379,-0.419,-0.594,-0.573
3036138,6670.0,6363.0,-2551.0,-50.0,240.0,542.0,0.383,-0.421,-0.591,-0.572
3036161,6366.0,6999.0,-2809.0,29.0,203.0,413.0,0.387,-0.422,-0.589,-0.57
3036174,6402.0,6241.0,-2279.0,62.0,114.0,233.0,0.39,-0.422,-0.589,-0.569
3036197,6168.0,6757.0,-2021.0,28.0,15.0,-2.0,0.39,-0.421,-0.589,-0.569
3036210,6280.0,6793.0,-1885.0,13.0,-137.0,-238.0,0.389,-0.42,-0.591,-0.569
3036233,6182.0,6961.0,-2399.0,19.0,-238.0,-476.0,0.385,-0.418,-0.594,-0.569
3036246,6096.0,7003.0,-2469.0,57.0,-335.0,-724.0,0.38,-0.415,-0.599,-0.57
3036269,6346.0,7121.0,-2389.0,-5.0,-438.0,-956.0,0.373,-0.412,-0.604,-0.571
3036282,6518.0,7491.0,-2829.0,-30.0,-573.0,-1167.0,0.364,-0.408,-0.611,-0.573
3036305,6714.0,7543.0,-2797.0,61.0,-738.0,-1524.0,0.353,-0.402,-0.62,-0.574
3036318,6778.0,7823.0,-3261.0,48.0,-906.0,-1721.0,0.339,-0.396,-0.63,-0.576
3036331,7086.0,7951.0,-3727.0,83.0,-1061.0,-1992.0,0.323,-0.389,-0.641,-0.577
3036354,7648.0,8241.0,-3289.0,181.0,-1276.0,-2360.0,0.303,-0.381,-0.655,-0.578
3036367,7976.0,8239.0,-3219.0,36.0,-1472.0,-2611.0,0.281,-0.372,-0.668,-0.58
3036390,7674.0,9499.0,-3463.0,-151.0,-1682.0,-2761.0,0.255,-0.364,-0.682,-0.581
3036403,7942.0,8623.0,-3851.0,-307.0,-1880.0,-2893.0,0.227,-0.356,-0.694,-0.583
3036426,7442.0,9521.0,-4173.0,-347.0,-1938.0,-2982.0,0.197,-0.347,-0.706,-0.585
3036439,7368.0,9221.0,-4151.0,-453.0,-2003.0,-3102.0,0.166,-0.337,-0.717,-0.587
3036462,7016.0,9515.0,-4089.0,-416.0,-2041.0,-3226.0,0.134,-0.327,-0.728,-0.587
3036475,6596.0,8569.0,-4155.0,-389.0,-2091.0,-3328.0,0.101,-0.315,-0.739,-0.587
3036498,6274.0,9179.0,-3737.0,-345.0,-2119.0,-3346.0,0.067,-0.304,-0.748,-0.586
3036511,5986.0,8809.0,-4175.0,-381.0,-2174.0,-3386.0,0.033,-0.292,-0.757,-0.584
3036524,5536.0,8599.0,-4063.0,-327.0,-2105.0,-3222.0,0.001,0.28,0.764,0.581
3036547,5760.0,10105.0,-4649.0,-247.0,-2244.0,-3314.0,0.035,0.268,0.771,0.577
3036560,5612.0,7985.0,-4419.0,-315.0,-2339.0,-3367.0,0.07,0.256,0.776,0.572
3036583,5824.0,8115.0,-3023.0,-198.0,-2366.0,-3478.0,0.106,0.243,0.781,0.565
3036596,3996.0,8301.0,-3793.0,-271.0,-2380.0,-3398.0,0.142,0.23,0.785,0.558
3036619,2898.0,8035.0,-3719.0,-251.0,-2404.0,-3376.0,0.178,0.218,0.787,0.549
3036632,2536.0,8173.0,-3883.0,-153.0,-2453.0,-3432.0,0.214,0.205,0.788,0.539
3036655,2706.0,7731.0,-2671.0,-65.0,-2507.0,-3522.0,0.249,0.192,0.789,0.528
3036668,1844.0,6691.0,-3325.0,-159.0,-2564.0,-3471.0,0.285,0.18,0.788,0.516
3036681,1084.0,6201.0,-2443.0,-211.0,-2535.0,-3423.0,0.32,0.166,0.785,0.504
3036704,216.0,5853.0,-3001.0,-77.0,-2485.0,-3285.0,0.354,0.154,0.782,0.49
3036717,-34.0,6337.0,-2769.0,55.0,-2416.0,-3227.0,0.386,0.142,0.778,0.475
3036740,-346.0,5303.0,-1917.0,154.0,-2293.0,-3143.0,0.416,0.131,0.774,0.459
3036753,-656.0,5757.0,-2369.0,251.0,-2123.0,-2964.0,0.444,0.12,0.77,0.443
3036776,-1290.0,5309.0,-2907.0,327.0,-2028.0,-2792.0,0.47,0.11,0.765,0.426
3036789,-1626.0,4165.0,-1915.0,378.0,-1953.0,-2588.0,0.494,0.101,0.76,0.409
3036812,-2078.0,4667.0,-1395.0,216.0,-1863.0,-2455.0,0.517,0.093,0.755,0.394
3036825,-2462.0,3911.0,-833.0,130.0,-1783.0,-2367.0,0.538,0.084,0.748,0.38
3036848,-2846.0,3091.0,-69.0,243.0,-1639.0,-2231.0,0.557,0.076,0.742,0.365
3036861,-3676.0,3097.0,319.0,237.0,-1466.0,-1982.0,0.574,0.069,0.736,0.351
3036874,-3962.0,3509.0,1071.0,118.0,-1335.0,-1784.0,0.589,0.063,0.731,0.339
3036897,-4444.0,1961.0,2033.0,-170.0,-1222.0,-1584.0,0.603,0.056,0.724,0.33
3036910,-4878.0,1879.0,1367.0,-370.0,-986.0,-1213.0,0.614,0.049,0.718,0.325
3036933,-4972.0,509.0,2117.0,-332.0,-814.0,-997.0,0.623,0.044,0.712,0.32
3036946,-4936.0,611.0,3071.0,-350.0,-515.0,-657.0,0.629,0.04,0.709,0.318
3036969,-5112.0,-673.0,3581.0,-262.0,-175.0,-287.0,0.631,0.038,0.707,0.317
3036982,-5038.0,-399.0,3609.0,-182.0,247.0,230.0,0.629,0.039,0.708,0.319
3037005,-4932.0,-871.0,3563.0,-220.0,649.0,590.0,0.624,0.04,0.71,0.323
3037018,-5146.0,1385.0,3485.0,-274.0,1062.0,1447.0,0.613,0.046,0.715,0.333
3037041,-5538.0,-687.0,2661.0,46.0,1468.0,1416.0,0.599,0.052,0.723,0.341
3037054,-5330.0,915.0,2609.0,84.0,1669.0,1453.0,0.583,0.058,0.731,0.348
3037067,-4936.0,657.0,2325.0,-42.0,1842.0,1737.0,0.566,0.064,0.74,0.358
3037090,-4486.0,945.0,1937.0,79.0,2056.0,2101.0,0.545,0.073,0.749,0.369
3037108,-4354.0,2187.0,1061.0,246.0,2202.0,2372.0,0.521,0.085,0.759,0.38
3037121,-4230.0,3809.0,-535.0,365.0,2165.0,2578.0,0.496,0.098,0.769,0.391
3037144,-4122.0,3341.0,209.0,363.0,2157.0,2660.0,0.471,0.111,0.777,0.402
3037157,-3492.0,4449.0,-1473.0,282.0,2206.0,2729.0,0.445,0.125,0.784,0.414
3037180,-3104.0,5387.0,-2591.0,236.0,2266.0,2924.0,0.417,0.139,0.791,0.426
3037193,-3178.0,6797.0,-2755.0,238.0,2282.0,3099.0,0.387,0.155,0.796,0.439
3037216,-2190.0,5073.0,-2321.0,216.0,2249.0,3086.0,0.358,0.17,0.8,0.451
3037229,22.0,5727.0,-2337.0,201.0,2377.0,3014.0,0.328,0.184,0.803,0.463
3037242,812.0,7849.0,-3883.0,216.0,2511.0,3021.0,0.295,0.197,0.806,0.474
3037265,1388.0,6159.0,-3045.0,199.0,2562.0,2859.0,0.263,0.209,0.807,0.485
3037278,2460.0,7521.0,-4101.0,183.0,2599.0,2775.0,0.23,0.219,0.809,0.495
3037301,2120.0,8317.0,-5007.0,215.0,2513.0,2666.0,0.198,0.228,0.809,0.504
3037314,2550.0,9505.0,-5213.0,365.0,2475.0,2416.0,0.168,0.236,0.81,0.511
3037337,4212.0,8789.0,-4541.0,170.0,2276.0,2367.0,0.139,0.244,0.808,0.518
3037350,2500.0,7317.0,-5509.0,38.0,2227.0,2448.0,0.11,0.252,0.805,0.525
3037373,2368.0,9659.0,-6501.0,368.0,2057.0,2263.0,0.083,0.259,0.803,0.53
3037386,2796.0,8147.0,-5335.0,293.0,1918.0,2379.0,0.056,0.268,0.8,0.534
3037409,3742.0,8997.0,-3711.0,184.0,1803.0,2286.0,0.031,0.276,0.796,0.538
3037422,3580.0,8819.0,-6047.0,20.0,1855.0,2446.0,0.005,0.285,0.79,0.543
3037445,3618.0,6415.0,-3691.0,187.0,1911.0,2379.0,0.022,-0.293,-0.784,-0.546
3037458,5228.0,8909.0,-4225.0,246.0,1871.0,2172.0,0.047,-0.299,-0.779,-0.549
3037471,4310.0,7785.0,-4429.0,113.0,1814.0,2195.0,0.072,-0.305,-0.773,-0.552
3037494,4898.0,7857.0,-3503.0,147.0,1809.0,2181.0,0.097,-0.312,-0.766,-0.554
3037507,5072.0,8451.0,-4151.0,90.0,1642.0,2004.0,0.119,-0.317,-0.759,-0.557
3037530,4928.0,7417.0,-3601.0,109.0,1586.0,1950.0,0.141,-0.322,-0.752,-0.558
3037543,5584.0,8161.0,-3999.0,5.0,1487.0,1858.0,0.161,-0.327,-0.744,-0.56
3037566,5618.0,7001.0,-3465.0,19.0,1491.0,1859.0,0.181,-0.332,-0.736,-0.561
3037579,4726.0,6351.0,-1973.0,337.0,1754.0,923.0,0.199,-0.328,-0.732,-0.563
3037602,5602.0,6377.0,-3977.0,-113.0,1510.0,1959.0,0.22,-0.334,-0.723,-0.564
3037615,6602.0,7249.0,-3113.0,-124.0,1343.0,1771.0,0.238,-0.338,-0.714,-0.565
3037628,7060.0,7237.0,-3541.0,-133.0,1303.0,1837.0,0.256,-0.343,-0.704,-0.566
3037651,6962.0,6633.0,-3039.0,-245.0,1211.0,1807.0,0.273,-0.349,-0.694,-0.567
3037664,6518.0,6713.0,-3087.0,-226.0,1111.0,1653.0,0.289,-0.354,-0.685,-0.567
3037687,7124.0,6407.0,-3155.0,-226.0,1038.0,1687.0,0.304,-0.359,-0.676,-0.567
3037700,7098.0,5981.0,-2535.0,-249.0,1006.0,1653.0,0.318,-0.365,-0.666,-0.567
3037723,6866.0,6411.0,-2723.0,-322.0,918.0,1528.0,0.331,-0.37,-0.657,-0.567
3037736,6576.0,6083.0,-3191.0,-359.0,913.0,1574.0,0.344,-0.375,-0.647,-0.568
3037759,6882.0,5969.0,-2853.0,-268.0,813.0,1405.0,0.356,-0.38,-0.638,-0.567
3037772,6904.0,5437.0,-2491.0,-300.0,714.0,1355.0,0.367,-0.385,-0.63,-0.567
3037785,6898.0,5517.0,-1933.0,-286.0,572.0,1176.0,0.376,-0.389,-0.622,-0.566
3037808,7052.0,5321.0,-2389.0,-252.0,384.0,954.0,0.383,-0.393,-0.616,-0.565
3037821,6870.0,5433.0,-2377.0,-196.0,202.0,608.0,0.387,-0.396,-0.613,-0.564
3037844,6294.0,6151.0,-2675.0,-69.0,75.0,360.0,0.389,-0.397,-0.611,-0.563
3037857,6486.0,5779.0,-2677.0,103.0,71.0,200.0,0.392,-0.397,-0.611,-0.562
3037880,6288.0,6489.0,-2535.0,101.0,-3.0,31.0,0.393,-0.397,-0.612,-0.561
3037893,6126.0,6695.0,-3235.0,126.0,-90.0,-125.0,0.392,-0.395,-0.613,-0.56
3037916,6292.0,7355.0,-2291.0,146.0,-158.0,-346.0,0.391,-0.393,-0.616,-0.56
3037929,6596.0,7251.0,-2337.0,112.0,-234.0,-575.0,0.387,-0.39,-0.62,-0.56
3037942,6496.0,7125.0,-2491.0,156.0,-343.0,-854.0,0.382,-0.386,-0.626,-0.56
3037965,6434.0,7725.0,-3241.0,101.0,-575.0,-1125.0,0.373,-0.382,-0.633,-0.561
3037978,6644.0,7583.0,-3287.0,54.0,-787.0,-1424.0,0.362,-0.377,-0.641,-0.563
3038001,6730.0,7681.0,-3387.0,7.0,-1022.0,-1729.0,0.347,-0.371,-0.651,-0.564
3038014,7168.0,7931.0,-3485.0,-117.0,-1328.0,-2038.0,0.328,-0.365,-0.662,-0.567
3038037,7252.0,8577.0,-3891.0,-201.0,-1559.0,-2291.0,0.306,-0.359,-0.673,-0.569
3038050,7252.0,8585.0,-4361.0,-292.0,-1728.0,-2503.0,0.281,-0.353,-0.685,-0.572
3038073,7502.0,8627.0,-4071.0,-303.0,-1820.0,-2685.0,0.255,-0.346,-0.697,-0.574
3038086,7404.0,9391.0,-3909.0,-351.0,-1942.0,-2884.0,0.226,-0.337,-0.709,-0.577
3038109,7618.0,9053.0,-3593.0,-416.0,-2031.0,-2994.0,0.196,-0.329,-0.72,-0.579
3038122,7748.0,8933.0,-3325.0,-482.0,-2098.0,-3059.0,0.164,-0.32,-0.731,-0.581
3038145,7736.0,8865.0,-3355.0,-511.0,-2182.0,-3202.0,0.13,-0.31,-0.741,-0.582
3038158,7194.0,8387.0,-3383.0,-538.0,-2213.0,-3193.0,0.097,-0.299,-0.749,-0.583
3038171,6934.0,8637.0,-3263.0,-519.0,-2210.0,-3183.0,0.063,-0.289,-0.757,-0.583
3038194,6426.0,8307.0,-3595.0,-510.0,-2167.0,-3136.0,0.029,-0.278,-0.764,-0.582
3038207,5960.0,8615.0,-3937.0,-485.0,-2140.0,-3123.0,0.004,0.267,0.769,0.58
3038230,5776.0,7611.0,-3517.0,-428.0,-2122.0,-3145.0,0.037,0.256,0.774,0.577
3038243,5462.0,8337.0,-3319.0,-349.0,-2126.0,-3166.0,0.07,0.244,0.779,0.573
3038266,4716.0,7379.0,-3373.0,-306.0,-2091.0,-3173.0,0.103,0.232,0.783,0.568
3038279,3510.0,7497.0,-3793.0,-231.0,-2091.0,-3183.0,0.135,0.219,0.786,0.562
3038302,3064.0,6871.0,-3353.0,-146.0,-2067.0,-3255.0,0.167,0.207,0.789,0.555
3038315,2054.0,7543.0,-3853.0,22.0,-2037.0,-3283.0,0.198,0.193,0.791,0.545
3038328,1716.0,5849.0,-2047.0,-26.0,-2040.0,-3246.0,0.23,0.18,0.793,0.535
3038351,758.0,7199.0,-2529.0,-30.0,-2000.0,-3200.0,0.26,0.167,0.793,0.525
3038364,66.0,5217.0,-2765.0,-43.0,-1932.0,-3079.0,0.29,0.154,0.792,0.514
3038387,-658.0,6503.0,-3703.0,36.0,-1877.0,-3030.0,0.318,0.141,0.792,0.503
3038400,-1064.0,4975.0,-1813.0,165.0,-1854.0,-2983.0,0.345,0.128,0.79,0.49
3038423,-1114.0,5707.0,-1905.0,265.0,-1751.0,-2880.0,0.371,0.117,0.789,0.476
3038436,-1802.0,4775.0,-2227.0,282.0,-1655.0,-2724.0,0.395,0.105,0.787,0.462
3038459,-2326.0,5813.0,-2811.0,441.0,-1608.0,-2611.0,0.418,0.095,0.785,0.447
3038472,-2492.0,4491.0,-3001.0,567.0,-1556.0,-2410.0,0.439,0.087,0.783,0.432
3038495,-2932.0,6089.0,-2575.0,706.0,-1527.0,-2243.0,0.459,0.08,0.781,0.416
3038508,-2714.0,4115.0,-553.0,694.0,-1478.0,-2164.0,0.478,0.074,0.779,0.4
3038521,-3560.0,4775.0,-1557.0,695.0,-1384.0,-1955.0,0.495,0.069,0.776,0.384
3038544,-3852.0,4385.0,-1341.0,665.0,-1354.0,-1792.0,0.511,0.064,0.773,0.37
3038557,-3786.0,3919.0,-681.0,629.0,-1345.0,-1658.0,0.526,0.061,0.77,0.356
3038580,-4630.0,3711.0,-919.0,650.0,-1288.0,-1419.0,0.54,0.059,0.766,0.343
3038593,-4794.0,3947.0,-739.0,682.0,-1278.0,-1251.0,0.553,0.058,0.762,0.331
3038616,-5216.0,2765.0,1093.0,610.0,-1238.0,-1109.0,0.565,0.058,0.758,0.32
3038629,-5642.0,2229.0,1941.0,367.0,-1108.0,-997.0,0.576,0.057,0.754,0.311
3038652,-6218.0,2099.0,1619.0,-19.0,-966.0,-660.0,0.585,0.056,0.749,0.306
3038665,-6110.0,547.0,3141.0,-24.0,-698.0,-563.0,0.592,0.054,0.745,0.302
3038678,-6374.0,1581.0,3213.0,-165.0,-289.0,-328.0,0.595,0.053,0.743,0.301
3038701,-5718.0,245.0,2805.0,-243.0,-19.0,-248.0,0.597,0.05,0.742,0.301
3038714,-5686.0,1397.0,2367.0,-299.0,359.0,288.0,0.594,0.05,0.743,0.304
3038737,-5170.0,207.0,2095.0,-55.0,745.0,244.0,0.588,0.051,0.747,0.305
3038750,-4656.0,1117.0,1361.0,-175.0,991.0,553.0,0.58,0.052,0.752,0.31
3038773,-4372.0,639.0,813.0,-156.0,1208.0,1048.0,0.569,0.055,0.757,0.316
3038786,-4354.0,1173.0,585.0,-107.0,1496.0,1547.0,0.554,0.062,0.764,0.325
3038809,-4212.0,1383.0,541.0,-52.0,1674.0,1854.0,0.537,0.071,0.771,0.336
3038822,-4126.0,2075.0,-241.0,-22.0,1769.0,2186.0,0.518,0.082,0.778,0.347
3038845,-3946.0,3029.0,-641.0,141.0,1831.0,2410.0,0.497,0.095,0.785,0.359
3038858,-3560.0,3427.0,-589.0,141.0,1900.0,2483.0,0.475,0.108,0.791,0.37
3038881,-3170.0,5127.0,-1859.0,228.0,1912.0,2559.0,0.452,0.122,0.797,0.381
3038894,-2730.0,4163.0,-1285.0,123.0,1924.0,2600.0,0.428,0.136,0.802,0.393
3038907,-1154.0,4883.0,-607.0,-14.0,2020.0,2666.0,0.403,0.149,0.807,0.405
3038930,-684.0,6531.0,-3381.0,-62.0,2152.0,2813.0,0.376,0.163,0.81,0.419
3038943,-1658.0,5565.0,-4071.0,159.0,2323.0,2800.0,0.348,0.176,0.814,0.431
3038966,-726.0,6211.0,-3389.0,289.0,2446.0,2645.0,0.318,0.188,0.818,0.441
3038979,-36.0,7933.0,-3805.0,242.0,2518.0,2631.0,0.288,0.2,0.821,0.451
3039002,-234.0,9173.0,-6925.0,107.0,2491.0,2669.0,0.257,0.21,0.823,0.461
3039015,-464.0,7121.0,-5235.0,22.0,2375.0,2505.0,0.228,0.22,0.823,0.471
3039038,1428.0,7219.0,-3161.0,-26.0,2276.0,2349.0,0.2,0.229,0.822,0.481
3039051,1248.0,9915.0,-5877.0,-259.0,2367.0,2615.0,0.171,0.238,0.819,0.493
3039064,-84.0,7247.0,-5749.0,-242.0,2268.0,2587.0,0.143,0.247,0.816,0.503
3039087,996.0,8771.0,-5303.0,132.0,2095.0,2317.0,0.116,0.255,0.813,0.51
3039100,2810.0,7501.0,-4039.0,18.0,1935.0,2437.0,0.089,0.265,0.809,0.517
3039118,3186.0,8421.0,-3667.0,-157.0,1836.0,2372.0,0.064,0.274,0.804,0.524
3039141,2452.0,10953.0,-6811.0,60.0,1880.0,2310.0,0.039,0.282,0.799,0.53
3039154,2390.0,7063.0,-5371.0,112.0,1805.0,2298.0,0.014,0.29,0.794,0.534
3039177,3826.0,8755.0,-3845.0,160.0,1594.0,1963.0,0.008,-0.297,-0.789,-0.538
3039190,4410.0,9109.0,-4443.0,-78.0,1449.0,1942.0,0.029,-0.304,-0.783,-0.542
3039213,3634.0,8169.0,-5053.0,-230.0,1405.0,1977.0,0.048,-0.311,-0.776,-0.547
3039226,3196.0,7281.0,-4617.0,-35.0,1394.0,1904.0,0.068,-0.318,-0.769,-0.55
3039239,4264.0,8393.0,-3975.0,-7.0,1283.0,1742.0,0.086,-0.323,-0.763,-0.553
3039262,4442.0,8151.0,-4247.0,-181.0,1174.0,1720.0,0.103,-0.329,-0.756,-0.556
3039275,4242.0,7169.0,-4271.0,-235.0,1155.0,1806.0,0.12,-0.336,-0.748,-0.559
3039298,5068.0,7159.0,-3543.0,-197.0,1076.0,1657.0,0.136,-0.342,-0.741,-0.562
3039311,5246.0,7811.0,-4435.0,-193.0,1035.0,1599.0,0.151,-0.348,-0.733,-0.564
3039334,4976.0,6427.0,-3337.0,-199.0,977.0,1551.0,0.165,-0.353,-0.726,-0.566
3039347,5740.0,6975.0,-3429.0,-169.0,906.0,1498.0,0.179,-0.358,-0.719,-0.568
3039370,5640.0,6773.0,-3153.0,-239.0,849.0,1519.0,0.192,-0.364,-0.711,-0.57
3039383,5878.0,6389.0,-3027.0,-269.0,847.0,1554.0,0.205,-0.37,-0.703,-0.571
3039396,6176.0,7309.0,-3477.0,-387.0,744.0,1613.0,0.218,-0.377,-0.694,-0.573
3039419,5684.0,5975.0,-3273.0,-260.0,887.0,1650.0,0.231,-0.383,-0.686,-0.574
3039442,6366.0,5901.0,-2667.0,-209.0,873.0,1707.0,0.246,-0.389,-0.677,-0.575
3039455,6842.0,5855.0,-2687.0,-279.0,817.0,1698.0,0.259,-0.396,-0.667,-0.575
3039468,7136.0,5339.0,-2005.0,-297.0,778.0,1690.0,0.273,-0.402,-0.658,-0.576
3039491,7414.0,5251.0,-1639.0,-317.0,701.0,1561.0,0.284,-0.408,-0.649,-0.576
3039504,7184.0,5105.0,-2293.0,-314.0,688.0,1555.0,0.296,-0.414,-0.639,-0.576
3039527,7266.0,6071.0,-3207.0,-249.0,649.0,1527.0,0.308,-0.42,-0.631,-0.575
3039540,7468.0,4999.0,-2175.0,-157.0,614.0,1445.0,0.319,-0.425,-0.623,-0.574
3039563,8006.0,4941.0,-1951.0,-163.0,450.0,1282.0,0.328,-0.43,-0.616,-0.573
3039576,7588.0,5223.0,-2157.0,-222.0,293.0,1089.0,0.335,-0.435,-0.61,-0.572
3039589,7616.0,5541.0,-2105.0,-179.0,129.0,808.0,0.34,-0.439,-0.605,-0.57
3039612,7116.0,5913.0,-2261.0,-163.0,51.0,627.0,0.343,-0.443,-0.602,-0.569
3039625,6902.0,6075.0,-2501.0,-152.0,44.0,556.0,0.346,-0.445,-0.599,-0.568
3039648,6670.0,5823.0,-2239.0,-40.0,33.0,387.0,0.349,-0.447,-0.598,-0.567
3039661,6404.0,6865.0,-2517.0,30.0,21.0,239.0,0.351,-0.448,-0.597,-0.566
3039684,6184.0,6389.0,-2563.0,36.0,-101.0,6.0,0.351,-0.448,-0.598,-0.565
3039697,6340.0,6553.0,-2201.0,65.0,-188.0,-260.0,0.349,-0.447,-0.6,-0.564
3039720,6362.0,7005.0,-2291.0,13.0,-280.0,-543.0,0.345,-0.445,-0.604,-0.564
3039733,6022.0,7129.0,-2413.0,-47.0,-361.0,-763.0,0.34,-0.442,-0.608,-0.565
3039756,6146.0,7365.0,-2457.0,-46.0,-364.0,-988.0,0.333,-0.438,-0.614,-0.566
3039769,6094.0,7627.0,-2461.0,-162.0,-430.0,-1205.0,0.324,-0.433,-0.62,-0.569
3039782,6338.0,8123.0,-2555.0,-220.0,-487.0,-1397.0,0.313,-0.428,-0.626,-0.572
3039805,6592.0,7515.0,-2671.0,-354.0,-630.0,-1604.0,0.3,-0.422,-0.632,-0.576
3039818,6764.0,7647.0,-3031.0,-221.0,-717.0,-1814.0,0.285,-0.415,-0.641,-0.579
3039841,6906.0,7455.0,-2601.0,-169.0,-835.0,-2031.0,0.269,-0.408,-0.65,-0.582
3039854,7386.0,7681.0,-2633.0,-179.0,-948.0,-2202.0,0.251,-0.399,-0.66,-0.585
3039877,7116.0,8107.0,-2883.0,-292.0,-1039.0,-2335.0,0.231,-0.391,-0.67,-0.588
3039890,7238.0,7557.0,-3015.0,-261.0,-1116.0,-2454.0,0.21,-0.381,-0.68,-0.59
3039913,7186.0,8225.0,-3657.0,-230.0,-1191.0,-2568.0,0.188,-0.372,-0.69,-0.592
3039926,7446.0,8307.0,-3619.0,-148.0,-1281.0,-2719.0,0.165,-0.361,-0.701,-0.593
3039949,7522.0,7939.0,-3631.0,-161.0,-1379.0,-2841.0,0.14,-0.35,-0.711,-0.593
3039962,7072.0,8131.0,-3999.0,-135.0,-1459.0,-2919.0,0.114,-0.338,-0.722,-0.593
3039975,6840.0,8209.0,-4301.0,-65.0,-1515.0,-3001.0,0.087,-0.325,-0.733,-0.591
3039998,6442.0,8541.0,-4119.0,-90.0,-1578.0,-3032.0,0.06,-0.313,-0.742,-0.589
3040011,6022.0,8351.0,-4257.0,-113.0,-1643.0,-3118.0,0.031,-0.3,-0.752,-0.587
3040034,5266.0,8589.0,-4653.0,-38.0,-1675.0,-3149.0,0.002,-0.287,-0.76,-0.583
3040047,4834.0,8225.0,-4011.0,17.0,-1758.0,-3253.0,0.028,0.273,0.769,0.578
3040070,4380.0,8505.0,-4081.0,11.0,-1845.0,-3259.0,0.058,0.259,0.776,0.572
3040083,3404.0,8237.0,-4177.0,-9.0,-1920.0,-3268.0,0.089,0.246,0.783,0.565
3040106,2858.0,7517.0,-3423.0,-17.0,-1925.0,-3233.0,0.12,0.232,0.788,0.558
3040119,1990.0,7615.0,-3479.0,64.0,-1937.0,-3280.0,0.151,0.218,0.793,0.549
3040142,1488.0,7989.0,-3571.0,146.0,-1943.0,-3235.0,0.181,0.205,0.797,0.539
3040155,1446.0,6629.0,-2819.0,-39.0,-1988.0,-3164.0,0.212,0.192,0.799,0.53
3040168,266.0,7037.0,-3981.0,1.0,-1947.0,-3034.0,0.241,0.179,0.8,0.52
3040191,428.0,6617.0,-3419.0,140.0,-1986.0,-3118.0,0.27,0.166,0.801,0.508
3040204,92.0,5655.0,-2439.0,85.0,-1960.0,-2897.0,0.298,0.154,0.8,0.497
3040227,-462.0,6311.0,-1987.0,-66.0,-1951.0,-2750.0,0.326,0.143,0.798,0.486
3040240,-1192.0,5379.0,-2035.0,-305.0,-1915.0,-2574.0,0.352,0.132,0.794,0.478
3040263,-1612.0,5277.0,-2367.0,-372.0,-1869.0,-2452.0,0.378,0.121,0.789,0.47
3040276,-1854.0,5241.0,-2047.0,-213.0,-1787.0,-2441.0,0.402,0.111,0.784,0.46
3040299,-2068.0,4223.0,-1251.0,-26.0,-1665.0,-2321.0,0.424,0.102,0.779,0.45
3040312,-2580.0,6287.0,-3147.0,201.0,-1569.0,-2092.0,0.444,0.095,0.776,0.438
3040325,-3114.0,3467.0,-1583.0,158.0,-1536.0,-2045.0,0.464,0.088,0.772,0.427
3040348,-2964.0,4043.0,-967.0,376.0,-1350.0,-1947.0,0.481,0.081,0.769,0.414
3040361,-3734.0,4339.0,-749.0,344.0,-1199.0,-1736.0,0.496,0.076,0.766,0.402
3040384,-4050.0,3743.0,-131.0,300.0,-1150.0,-1564.0,0.511,0.071,0.762,0.392
3040397,-4446.0,4005.0,-873.0,429.0,-1110.0,-1440.0,0.524,0.068,0.759,0.38
3040420,-4676.0,3173.0,75.0,482.0,-1073.0,-1330.0,0.536,0.065,0.756,0.369
3040433,-4864.0,3113.0,449.0,502.0,-967.0,-1179.0,0.547,0.063,0.754,0.359
3040456,-5374.0,2943.0,277.0,461.0,-922.0,-919.0,0.556,0.063,0.751,0.35
3040469,-5460.0,2105.0,739.0,578.0,-825.0,-752.0,0.565,0.064,0.749,0.341
3040492,-5878.0,1875.0,623.0,558.0,-775.0,-455.0,0.571,0.067,0.747,0.333
3040505,-5608.0,2657.0,1903.0,451.0,-489.0,-201.0,0.576,0.07,0.746,0.328
3040518,-4970.0,991.0,1165.0,577.0,-117.0,189.0,0.576,0.076,0.747,0.325
3040541,-6084.0,1837.0,2081.0,276.0,107.0,460.0,0.574,0.081,0.747,0.325
3040554,-5534.0,2147.0,2381.0,408.0,335.0,191.0,0.571,0.084,0.75,0.323
3040577,-5484.0,1645.0,2213.0,81.0,588.0,371.0,0.566,0.086,0.753,0.324
3040590,-5352.0,1301.0,1831.0,37.0,866.0,641.0,0.558,0.089,0.757,0.327
3040613,-5182.0,1819.0,1871.0,50.0,1183.0,1094.0,0.547,0.094,0.762,0.333
3040626,-5148.0,1957.0,1237.0,-31.0,1376.0,1431.0,0.533,0.101,0.768,0.341
3040649,-4840.0,2603.0,995.0,10.0,1506.0,1707.0,0.517,0.109,0.773,0.351
3040662,-4608.0,2823.0,177.0,-14.0,1673.0,1969.0,0.498,0.118,0.779,0.361
3040675,-4424.0,2645.0,-139.0,42.0,1813.0,2161.0,0.478,0.129,0.785,0.373
3040698,-4172.0,3899.0,-1505.0,196.0,1941.0,2295.0,0.456,0.141,0.791,0.383
3040711,-3540.0,3187.0,-671.0,264.0,2056.0,2328.0,0.432,0.152,0.797,0.393
3040734,-2934.0,5301.0,-2041.0,64.0,2146.0,2440.0,0.407,0.163,0.802,0.405
3040747,-2492.0,4845.0,-2123.0,-27.0,2108.0,2438.0,0.383,0.174,0.806,0.417
3040770,-2242.0,6329.0,-4653.0,203.0,2041.0,2483.0,0.357,0.186,0.809,0.427
3040783,-1404.0,7143.0,-3107.0,393.0,2068.0,2379.0,0.331,0.198,0.813,0.436
3040806,502.0,5031.0,-1747.0,-137.0,2091.0,2223.0,0.307,0.207,0.814,0.447
3040819,234.0,8801.0,-3997.0,-159.0,2243.0,2510.0,0.28,0.216,0.815,0.459
3040842,-204.0,7269.0,-5757.0,-93.0,2290.0,2344.0,0.253,0.225,0.815,0.47
3040855,678.0,9709.0,-5243.0,98.0,2353.0,2234.0,0.225,0.232,0.816,0.48
3040868,414.0,7785.0,-5935.0,82.0,2302.0,2064.0,0.198,0.238,0.816,0.488
3040891,1286.0,8355.0,-4321.0,67.0,2240.0,1984.0,0.172,0.243,0.816,0.496
3040904,1670.0,10049.0,-4999.0,24.0,2146.0,1886.0,0.147,0.248,0.815,0.503
3040927,2202.0,9241.0,-4989.0,-2.0,2021.0,1861.0,0.123,0.253,0.813,0.51
3040940,1978.0,7983.0,-4315.0,-197.0,1880.0,1963.0,0.1,0.259,0.809,0.518
3040963,2090.0,8265.0,-4865.0,-226.0,1678.0,1948.0,0.079,0.265,0.804,0.526
3040976,2570.0,8133.0,-5673.0,-79.0,1525.0,1879.0,0.059,0.272,0.8,0.531
3040999,3428.0,7945.0,-4399.0,-9.0,1406.0,1775.0,0.039,0.278,0.796,0.536
3041012,3416.0,8307.0,-3861.0,-116.0,1261.0,1643.0,0.022,0.284,0.792,0.54
3041035,3064.0,7605.0,-3837.0,-195.0,1201.0,1665.0,0.006,0.29,0.786,0.545
3041048,2520.0,8153.0,-5157.0,-120.0,1218.0,1666.0,0.012,-0.296,-0.781,-0.549
3041061,2622.0,6767.0,-3553.0,-20.0,1242.0,1701.0,0.029,-0.302,-0.776,-0.553
3041084,3478.0,8621.0,-3487.0,31.0,1152.0,1583.0,0.046,-0.308,-0.771,-0.555
3041097,3836.0,6957.0,-3783.0,-102.0,1149.0,1791.0,0.063,-0.315,-0.765,-0.558
3041125,3760.0,7045.0,-3309.0,-151.0,1100.0,1663.0,0.079,-0.321,-0.759,-0.561
3041138,4088.0,7533.0,-4231.0,-56.0,1142.0,1628.0,0.096,-0.326,-0.753,-0.564
3041151,4112.0,7211.0,-3533.0,39.0,1166.0,1735.0,0.114,-0.332,-0.747,-0.565
3041174,4686.0,6837.0,-2835.0,-68.0,1098.0,1695.0,0.13,-0.337,-0.74,-0.567
3041187,5020.0,7377.0,-3233.0,-101.0,1070.0,1711.0,0.146,-0.343,-0.733,-0.569
3041210,4956.0,7137.0,-4191.0,-87.0,1090.0,1796.0,0.163,-0.35,-0.725,-0.57
3041223,5508.0,6385.0,-3235.0,-46.0,1056.0,1695.0,0.18,-0.355,-0.718,-0.571
3041236,5818.0,7329.0,-3071.0,-10.0,1011.0,1599.0,0.195,-0.36,-0.711,-0.572
3041259,6050.0,6929.0,-3261.0,-101.0,974.0,1638.0,0.21,-0.366,-0.703,-0.573
3041272,6210.0,5887.0,-2793.0,-118.0,958.0,1645.0,0.225,-0.371,-0.695,-0.573
3041295,5508.0,6009.0,-3849.0,121.0,1155.0,1095.0,0.239,-0.371,-0.69,-0.574
3041308,6482.0,6507.0,-3517.0,-237.0,870.0,1503.0,0.252,-0.376,-0.682,-0.575
3041331,6790.0,5647.0,-2729.0,-178.0,835.0,1503.0,0.265,-0.382,-0.673,-0.575
3041344,6996.0,6185.0,-2669.0,-186.0,823.0,1585.0,0.279,-0.387,-0.665,-0.575
3041367,7114.0,5485.0,-2509.0,-213.0,797.0,1551.0,0.292,-0.392,-0.656,-0.575
3041380,6864.0,5837.0,-2499.0,-207.0,756.0,1458.0,0.304,-0.397,-0.648,-0.574
3041393,6782.0,5799.0,-2703.0,-156.0,716.0,1364.0,0.315,-0.402,-0.64,-0.574
3041416,6854.0,5421.0,-2609.0,-195.0,667.0,1362.0,0.326,-0.406,-0.633,-0.573
3041429,6884.0,5727.0,-2411.0,-196.0,605.0,1220.0,0.336,-0.411,-0.625,-0.572
3041452,7072.0,5391.0,-2221.0,-200.0,645.0,1299.0,0.346,-0.415,-0.618,-0.572
3041465,6656.0,6081.0,-2209.0,-237.0,563.0,1216.0,0.355,-0.419,-0.61,-0.571
3041488,6702.0,5633.0,-2319.0,-191.0,469.0,985.0,0.363,-0.422,-0.604,-0.57
3041501,6926.0,6417.0,-2427.0,-160.0,408.0,871.0,0.37,-0.425,-0.599,-0.569
3041524,7048.0,5501.0,-2291.0,-146.0,360.0,774.0,0.376,-0.428,-0.594,-0.569
3041537,6720.0,5911.0,-2187.0,-126.0,214.0,534.0,0.38,-0.429,-0.591,-0.568
3041560,6886.0,6529.0,-2553.0,-143.0,-41.0,168.0,0.38,-0.431,-0.59,-0.567
3041573,6792.0,6093.0,-2201.0,-45.0,-274.0,-204.0,0.378,-0.431,-0.592,-0.567
3041586,7424.0,6627.0,-1549.0,60.0,-468.0,-619.0,0.373,-0.429,-0.597,-0.566
3041609,6788.0,6839.0,-2775.0,10.0,-580.0,-846.0,0.366,-0.427,-0.603,-0.567
3041622,6690.0,6539.0,-3107.0,108.0,-588.0,-1099.0,0.358,-0.423,-0.61,-0.567
3041645,6626.0,7235.0,-2919.0,160.0,-641.0,-1389.0,0.348,-0.417,-0.619,-0.568
3041658,6558.0,7245.0,-2857.0,132.0,-752.0,-1594.0,0.336,-0.411,-0.628,-0.569
3041681,6638.0,7015.0,-2319.0,196.0,-862.0,-1859.0,0.322,-0.403,-0.639,-0.57
3041694,6264.0,8055.0,-2743.0,136.0,-950.0,-2022.0,0.307,-0.395,-0.651,-0.571
3041717,6266.0,7567.0,-3059.0,-8.0,-1149.0,-2238.0,0.289,-0.387,-0.663,-0.573
3041730,6458.0,8357.0,-3149.0,-65.0,-1285.0,-2502.0,0.267,-0.378,-0.675,-0.575
3041753,6960.0,8347.0,-3471.0,-216.0,-1355.0,-2595.0,0.245,-0.369,-0.686,-0.577
3041766,6986.0,9021.0,-4655.0,-279.0,-1381.0,-2699.0,0.221,-0.359,-0.697,-0.58
3041779,7334.0,8133.0,-4245.0,-189.0,-1448.0,-2798.0,0.196,-0.348,-0.709,-0.582
3041802,7494.0,8563.0,-4033.0,-196.0,-1538.0,-2916.0,0.17,-0.337,-0.72,-0.583
3041815,7508.0,8743.0,-3715.0,-192.0,-1628.0,-3006.0,0.142,-0.325,-0.731,-0.583
3041838,7130.0,8407.0,-3795.0,-230.0,-1721.0,-3029.0,0.114,-0.313,-0.741,-0.583
3041851,6934.0,8687.0,-3653.0,-281.0,-1804.0,-3037.0,0.084,-0.302,-0.75,-0.583
3041874,6216.0,8455.0,-3625.0,-300.0,-1879.0,-3058.0,0.054,-0.291,-0.758,-0.582
3041887,5910.0,8835.0,-4631.0,-225.0,-1935.0,-3060.0,0.023,-0.279,-0.766,-0.579
3041910,5498.0,7985.0,-3743.0,-203.0,-1956.0,-3059.0,0.008,0.268,0.772,0.576
3041923,4724.0,7641.0,-3273.0,-261.0,-1983.0,-3043.0,0.039,0.256,0.778,0.572
3041946,3858.0,8373.0,-4017.0,-202.0,-1977.0,-3042.0,0.07,0.244,0.783,0.568
3041959,3258.0,7641.0,-3577.0,-163.0,-1980.0,-3033.0,0.101,0.232,0.788,0.562
3041972,2854.0,6219.0,-2739.0,-196.0,-1998.0,-3017.0,0.131,0.22,0.791,0.556
3041995,1876.0,7955.0,-3423.0,-29.0,-1961.0,-3005.0,0.161,0.208,0.794,0.548
3042008,1560.0,5883.0,-3265.0,35.0,-1956.0,-3039.0,0.191,0.196,0.797,0.539
3042031,924.0,6847.0,-3241.0,260.0,-1944.0,-3054.0,0.22,0.184,0.799,0.528
3042044,636.0,6645.0,-3719.0,374.0,-1941.0,-3053.0,0.248,0.172,0.802,0.515
3042067,608.0,5821.0,-2937.0,516.0,-1855.0,-3020.0,0.276,0.16,0.805,0.501
3042080,-178.0,5973.0,-2851.0,429.0,-1801.0,-2907.0,0.302,0.147,0.806,0.487
3042103,-764.0,5923.0,-3491.0,402.0,-1779.0,-2809.0,0.328,0.136,0.806,0.473
3042116,-988.0,6227.0,-3489.0,518.0,-1757.0,-2716.0,0.353,0.125,0.806,0.459
3042139,-1886.0,3781.0,-2435.0,479.0,-1732.0,-2596.0,0.376,0.115,0.805,0.444
3042152,-2360.0,6055.0,-3067.0,757.0,-1639.0,-2428.0,0.398,0.107,0.804,0.428
3042165,-2274.0,5023.0,-1647.0,700.0,-1709.0,-2187.0,0.419,0.101,0.803,0.412
3042188,-2852.0,5087.0,-1343.0,744.0,-1634.0,-1940.0,0.438,0.096,0.801,0.397
3042201,-3400.0,4229.0,-433.0,503.0,-1593.0,-1731.0,0.456,0.091,0.797,0.384
3042224,-4048.0,4211.0,-457.0,502.0,-1506.0,-1631.0,0.473,0.087,0.794,0.372
3042237,-4450.0,2913.0,-121.0,569.0,-1368.0,-1448.0,0.488,0.085,0.791,0.36
3042260,-4886.0,3417.0,315.0,599.0,-1211.0,-1280.0,0.501,0.083,0.788,0.348
3042273,-5356.0,4245.0,783.0,334.0,-1049.0,-1059.0,0.512,0.08,0.785,0.34
3042296,-5162.0,3337.0,1079.0,86.0,-933.0,-980.0,0.522,0.077,0.781,0.333
3042309,-5170.0,3033.0,391.0,-58.0,-810.0,-695.0,0.531,0.075,0.777,0.329
3042332,-4992.0,1951.0,1073.0,-249.0,-612.0,-331.0,0.537,0.074,0.774,0.328
3042345,-4422.0,2201.0,-25.0,-107.0,-301.0,-39.0,0.539,0.075,0.772,0.328
3042358,-4920.0,803.0,1065.0,-96.0,107.0,275.0,0.538,0.077,0.772,0.33
3042381,-4718.0,1481.0,1171.0,-54.0,532.0,539.0,0.533,0.08,0.774,0.333
3042394,-3998.0,189.0,1333.0,-182.0,898.0,842.0,0.524,0.083,0.777,0.339
3042417,-4854.0,2209.0,1863.0,-227.0,1211.0,1428.0,0.512,0.089,0.781,0.348
3042430,-4802.0,533.0,1047.0,-62.0,1450.0,1316.0,0.497,0.095,0.786,0.355
3042453,-4434.0,2985.0,803.0,-40.0,1590.0,1414.0,0.481,0.1,0.792,0.363
3042466,-4344.0,2551.0,683.0,-244.0,1672.0,1567.0,0.464,0.106,0.797,0.373
3042489,-3876.0,2823.0,-475.0,-267.0,1844.0,1889.0,0.444,0.113,0.802,0.384
3042502,-4012.0,2857.0,-305.0,-325.0,2002.0,2199.0,0.422,0.122,0.806,0.397
3042525,-3506.0,4467.0,-1283.0,-247.0,2106.0,2392.0,0.398,0.132,0.81,0.41
3042538,-3470.0,4753.0,-1803.0,-330.0,2143.0,2526.0,0.372,0.142,0.813,0.424
3042551,-2510.0,5765.0,-1863.0,-322.0,2214.0,2611.0,0.346,0.153,0.815,0.438
3042574,-2164.0,4783.0,-2599.0,-561.0,2229.0,2694.0,0.319,0.163,0.816,0.454
3042587,-2104.0,5483.0,-3887.0,-358.0,2271.0,2831.0,0.29,0.174,0.816,0.468
3042610,-1740.0,7801.0,-4941.0,134.0,2270.0,2749.0,0.261,0.186,0.818,0.478
3042623,-1506.0,8999.0,-4733.0,139.0,2144.0,2643.0,0.233,0.198,0.819,0.486
3042646,-1116.0,5693.0,-1367.0,59.0,2142.0,2437.0,0.206,0.207,0.819,0.495
3042659,1060.0,7053.0,-3751.0,-47.0,2139.0,2509.0,0.178,0.217,0.817,0.504
3042672,1514.0,6961.0,-3957.0,-149.0,2114.0,2615.0,0.149,0.227,0.814,0.513
3042695,1878.0,9995.0,-5869.0,65.0,2168.0,2450.0,0.121,0.236,0.812,0.52
3042708,2204.0,9901.0,-6085.0,162.0,2114.0,2205.0,0.094,0.243,0.81,0.526
3042731,3186.0,6599.0,-3499.0,-84.0,1919.0,2030.0,0.07,0.249,0.806,0.533
3042744,4030.0,7423.0,-5619.0,-153.0,1719.0,2092.0,0.047,0.256,0.801,0.539
3042767,3842.0,7599.0,-4581.0,-183.0,1584.0,2233.0,0.025,0.265,0.795,0.545
3042780,3810.0,7871.0,-4259.0,29.0,1539.0,2173.0,0.002,0.273,0.79,0.549
3042803,4018.0,8597.0,-4771.0,34.0,1501.0,2216.0,0.02,-0.282,-0.784,-0.552
3042816,4018.0,7541.0,-4845.0,23.0,1409.0,2242.0,0.042,-0.291,-0.778,-0.555
3042839,4726.0,6671.0,-3763.0,18.0,1290.0,2196.0,0.063,-0.3,-0.771,-0.557
3042852,5408.0,7333.0,-3789.0,-97.0,1218.0,2106.0,0.083,-0.309,-0.764,-0.56
3042875,5072.0,7221.0,-3545.0,-7.0,1267.0,2106.0,0.103,-0.317,-0.757,-0.562
3042888,5308.0,7847.0,-4007.0,72.0,1176.0,1962.0,0.122,-0.325,-0.75,-0.563
3042901,4968.0,6971.0,-4125.0,30.0,1099.0,2001.0,0.14,-0.333,-0.743,-0.563
3042924,6138.0,7401.0,-3157.0,50.0,938.0,1903.0,0.157,-0.34,-0.736,-0.563
3042937,6688.0,6603.0,-3421.0,37.0,922.0,1877.0,0.174,-0.348,-0.729,-0.563
3042960,6692.0,7143.0,-4209.0,24.0,925.0,1703.0,0.189,-0.354,-0.722,-0.563
3042973,6516.0,6813.0,-3695.0,148.0,892.0,1454.0,0.204,-0.359,-0.717,-0.562
3042996,6684.0,6857.0,-3109.0,135.0,802.0,1349.0,0.217,-0.363,-0.712,-0.561
3043009,7538.0,8523.0,-2129.0,-347.0,400.0,1580.0,0.227,-0.372,-0.704,-0.561
3043032,6158.0,6417.0,-2425.0,-94.0,699.0,1370.0,0.239,-0.377,-0.697,-0.561
3043045,5890.0,6813.0,-2671.0,-212.0,664.0,1253.0,0.249,-0.381,-0.691,-0.562
3043058,5900.0,6717.0,-3513.0,-218.0,818.0,1415.0,0.261,-0.386,-0.683,-0.563
3043081,5380.0,6731.0,-3541.0,-165.0,910.0,1567.0,0.275,-0.391,-0.674,-0.563
3043094,6066.0,5483.0,-2441.0,-153.0,848.0,1444.0,0.288,-0.396,-0.666,-0.563
3043117,6802.0,5789.0,-2029.0,-228.0,889.0,1605.0,0.301,-0.401,-0.657,-0.563
3043135,6660.0,5339.0,-1839.0,-329.0,912.0,1734.0,0.315,-0.407,-0.646,-0.563
3043148,6692.0,5975.0,-2699.0,-284.0,843.0,1596.0,0.327,-0.413,-0.637,-0.563
3043171,6972.0,5033.0,-1849.0,-189.0,833.0,1473.0,0.339,-0.417,-0.628,-0.563
3043184,7592.0,4873.0,-1483.0,-190.0,719.0,1287.0,0.35,-0.421,-0.62,-0.562
3043207,7254.0,5259.0,-2029.0,-251.0,620.0,1155.0,0.359,-0.425,-0.612,-0.562
3043220,7620.0,4749.0,-2227.0,-179.0,600.0,1113.0,0.368,-0.428,-0.605,-0.561
3043233,7646.0,4787.0,-2019.0,-168.0,481.0,970.0,0.376,-0.431,-0.599,-0.56
3043256,7546.0,5191.0,-2353.0,-181.0,368.0,840.0,0.382,-0.434,-0.594,-0.559
3043269,7342.0,5267.0,-2653.0,-92.0,226.0,716.0,0.387,-0.437,-0.59,-0.558
3043292,6790.0,5325.0,-3333.0,-25.0,5.0,421.0,0.389,-0.439,-0.589,-0.556
3043305,7452.0,4285.0,-1877.0,86.0,-222.0,-175.0,0.388,-0.438,-0.591,-0.555
3043328,7370.0,5415.0,-2385.0,144.0,-316.0,-392.0,0.385,-0.437,-0.595,-0.554
3043341,7024.0,5773.0,-2809.0,112.0,-445.0,-598.0,0.381,-0.435,-0.6,-0.553
3043364,6560.0,6029.0,-3069.0,324.0,-497.0,-822.0,0.375,-0.431,-0.607,-0.552
3043377,6376.0,6957.0,-3591.0,379.0,-569.0,-1005.0,0.369,-0.426,-0.616,-0.551
3043390,6348.0,6515.0,-3085.0,597.0,-622.0,-1252.0,0.362,-0.42,-0.626,-0.549
3043413,6114.0,7579.0,-3073.0,462.0,-703.0,-1465.0,0.352,-0.413,-0.637,-0.548
3043426,6596.0,7835.0,-3471.0,252.0,-824.0,-1712.0,0.34,-0.405,-0.648,-0.548
3043449,6466.0,8015.0,-3987.0,224.0,-911.0,-1961.0,0.326,-0.397,-0.66,-0.549
3043462,6696.0,8393.0,-4115.0,146.0,-1087.0,-2179.0,0.309,-0.388,-0.672,-0.55
3043485,7170.0,8497.0,-3959.0,13.0,-1284.0,-2378.0,0.289,-0.379,-0.684,-0.552
3043498,7152.0,8407.0,-4447.0,-78.0,-1441.0,-2540.0,0.267,-0.369,-0.697,-0.554
3043521,7092.0,8695.0,-4397.0,-161.0,-1597.0,-2687.0,0.243,-0.36,-0.709,-0.555
3043534,7284.0,9171.0,-4401.0,-253.0,-1709.0,-2791.0,0.216,-0.35,-0.721,-0.557
3043557,6906.0,8743.0,-4303.0,-345.0,-1800.0,-2835.0,0.189,-0.34,-0.732,-0.559
3043570,6596.0,9431.0,-4691.0,-447.0,-1896.0,-2891.0,0.16,-0.33,-0.742,-0.561
3043583,6146.0,8797.0,-4889.0,-492.0,-1943.0,-2866.0,0.13,-0.321,-0.751,-0.562
3043606,6320.0,9271.0,-4013.0,-465.0,-2053.0,-3030.0,0.099,-0.31,-0.76,-0.562
3043619,6412.0,8343.0,-3699.0,-597.0,-2115.0,-3029.0,0.066,-0.3,-0.768,-0.563
3043642,5416.0,8473.0,-4233.0,-668.0,-2114.0,-2989.0,0.034,-0.289,-0.773,-0.563
3043655,5110.0,8259.0,-3599.0,-606.0,-2075.0,-3047.0,0.002,-0.278,-0.779,-0.562
3043678,4650.0,8335.0,-3515.0,-635.0,-2081.0,-3061.0,0.031,0.266,0.783,0.561
3043691,3774.0,7927.0,-3247.0,-648.0,-2062.0,-3074.0,0.064,0.254,0.786,0.56
3043714,3648.0,8351.0,-3693.0,-581.0,-2018.0,-3096.0,0.096,0.241,0.789,0.557
3043727,2910.0,7389.0,-4159.0,-641.0,-2011.0,-3049.0,0.127,0.229,0.79,0.554
3043750,2766.0,7487.0,-3883.0,-466.0,-2036.0,-3151.0,0.159,0.216,0.792,0.549
3043763,2646.0,6833.0,-3509.0,-271.0,-1990.0,-3173.0,0.19,0.203,0.793,0.542
3043786,2390.0,7541.0,-2733.0,-340.0,-1951.0,-3180.0,0.22,0.189,0.793,0.535
3043799,1188.0,5891.0,-2905.0,-396.0,-1934.0,-3150.0,0.251,0.175,0.792,0.528
3043812,560.0,6529.0,-3087.0,-254.0,-1759.0,-3080.0,0.28,0.161,0.792,0.519
3043835,-54.0,7419.0,-3863.0,-98.0,-1814.0,-3045.0,0.308,0.148,0.791,0.509
3043848,198.0,6335.0,-2811.0,138.0,-1872.0,-3006.0,0.336,0.135,0.789,0.496
3043871,-164.0,8023.0,-2553.0,107.0,-2008.0,-2916.0,0.363,0.124,0.787,0.483
3043884,-588.0,5075.0,-1809.0,-53.0,-2070.0,-2825.0,0.392,0.113,0.782,0.471
3043907,-858.0,4467.0,-1129.0,231.0,-1902.0,-2754.0,0.417,0.103,0.779,0.457
3043920,-2292.0,4973.0,-1967.0,332.0,-1832.0,-2614.0,0.442,0.093,0.775,0.442
3043943,-2596.0,4825.0,-1105.0,360.0,-1739.0,-2405.0,0.464,0.085,0.771,0.427
3043956,-2824.0,4045.0,-213.0,392.0,-1518.0,-2144.0,0.483,0.078,0.768,0.414
3043969,-3490.0,4459.0,-375.0,310.0,-1306.0,-2012.0,0.501,0.071,0.764,0.401
3043992,-4318.0,3013.0,-773.0,250.0,-1214.0,-1901.0,0.516,0.064,0.76,0.389
3044005,-4584.0,2207.0,-487.0,342.0,-1102.0,-1772.0,0.531,0.058,0.757,0.377
3044028,-4756.0,2965.0,723.0,322.0,-1005.0,-1562.0,0.543,0.053,0.754,0.366
3044041,-5270.0,3105.0,387.0,2.0,-916.0,-1372.0,0.555,0.047,0.75,0.358
3044064,-5252.0,1779.0,1103.0,-139.0,-829.0,-1251.0,0.565,0.041,0.745,0.351
3044077,-5268.0,1125.0,1005.0,-164.0,-659.0,-1002.0,0.573,0.036,0.742,0.346
3044100,-5434.0,763.0,659.0,-224.0,-447.0,-624.0,0.579,0.033,0.739,0.344
3044113,-4696.0,2093.0,349.0,-456.0,-348.0,-248.0,0.583,0.031,0.735,0.345
3044126,-3744.0,1947.0,1797.0,-809.0,-19.0,112.0,0.583,0.028,0.732,0.35
3044149,-3976.0,5.0,3251.0,-659.0,496.0,563.0,0.578,0.027,0.733,0.357
3044162,-4460.0,209.0,2869.0,-484.0,965.0,956.0,0.569,0.029,0.736,0.365
3044185,-4506.0,967.0,2329.0,-428.0,1393.0,1821.0,0.554,0.035,0.741,0.378
3044198,-3678.0,73.0,2727.0,20.0,1688.0,1760.0,0.536,0.043,0.749,0.387
3044221,-4448.0,1015.0,2473.0,254.0,1856.0,2111.0,0.516,0.053,0.758,0.395
3044234,-4738.0,1329.0,1993.0,265.0,2004.0,2424.0,0.493,0.065,0.767,0.405
3044257,-5174.0,1551.0,-821.0,276.0,2063.0,2753.0,0.468,0.079,0.775,0.417
3044270,-4122.0,2449.0,-563.0,562.0,2197.0,2978.0,0.44,0.095,0.784,0.426
3044293,-3748.0,3871.0,645.0,626.0,2416.0,3114.0,0.41,0.112,0.793,0.436
3044306,-3956.0,4353.0,-1321.0,232.0,2445.0,3110.0,0.379,0.126,0.8,0.448
3044319,-3148.0,4025.0,-1797.0,33.0,2378.0,3131.0,0.348,0.141,0.804,0.461
3044342,-1646.0,5993.0,-3583.0,164.0,2403.0,3189.0,0.317,0.155,0.808,0.473
3044355,-1568.0,5155.0,-4425.0,22.0,2354.0,3199.0,0.285,0.17,0.809,0.485
3044378,-168.0,6233.0,-2183.0,91.0,2364.0,3138.0,0.253,0.183,0.81,0.496
3044391,1042.0,8393.0,-3049.0,-133.0,2436.0,3077.0,0.22,0.196,0.809,0.508
3044414,1402.0,7929.0,-3869.0,-451.0,2453.0,3118.0,0.188,0.208,0.806,0.522
3044427,1448.0,7991.0,-5337.0,-407.0,2285.0,3122.0,0.156,0.22,0.801,0.534
3044450,2496.0,7263.0,-5029.0,-181.0,2201.0,3122.0,0.125,0.232,0.796,0.544
3044463,3568.0,8539.0,-3083.0,-64.0,2039.0,2979.0,0.095,0.244,0.791,0.552
3044486,5248.0,8339.0,-3013.0,-221.0,2054.0,3076.0,0.065,0.256,0.785,0.561
3044499,4600.0,9823.0,-3421.0,-304.0,2043.0,3114.0,0.034,0.268,0.776,0.57
3044522,4340.0,7065.0,-5687.0,-347.0,1835.0,3121.0,0.006,0.281,0.767,0.577
3044535,4962.0,9523.0,-4803.0,-72.0,1738.0,3057.0,0.023,-0.294,-0.758,-0.582
3044548,6070.0,7435.0,-3789.0,-214.0,1563.0,3044.0,0.05,-0.306,-0.748,-0.587
3044571,7004.0,8927.0,-3057.0,-217.0,1438.0,2919.0,0.076,-0.319,-0.737,-0.591
3044584,7154.0,7785.0,-4021.0,-268.0,1334.0,2706.0,0.099,-0.33,-0.726,-0.595
3044607,7482.0,7719.0,-4011.0,-122.0,1285.0,2517.0,0.121,-0.34,-0.717,-0.597
3044620,7846.0,7173.0,-2535.0,-35.0,1265.0,2314.0,0.143,-0.348,-0.708,-0.598
3044643,7524.0,8503.0,-4249.0,-3.0,1203.0,2264.0,0.163,-0.356,-0.699,-0.599
3044656,6970.0,6879.0,-2977.0,-48.0,1093.0,2247.0,0.183,-0.364,-0.689,-0.599
3044669,7498.0,7133.0,-2251.0,53.0,1033.0,2202.0,0.203,-0.372,-0.68,-0.598
3044692,7292.0,7905.0,-3073.0,96.0,908.0,2092.0,0.221,-0.38,-0.672,-0.597
3044705,7334.0,6555.0,-1883.0,144.0,955.0,2023.0,0.239,-0.386,-0.664,-0.595
3044728,7246.0,6563.0,-1805.0,138.0,1005.0,1948.0,0.257,-0.392,-0.655,-0.593
3044741,7512.0,6749.0,-1683.0,19.0,1200.0,1942.0,0.275,-0.397,-0.645,-0.592
3044764,6722.0,7043.0,-2789.0,24.0,1078.0,1981.0,0.293,-0.402,-0.636,-0.59
3044777,7066.0,6711.0,-2747.0,77.0,1083.0,2095.0,0.311,-0.408,-0.625,-0.588
3044800,7318.0,5971.0,-1825.0,85.0,1106.0,2085.0,0.33,-0.413,-0.615,-0.585
3044813,7906.0,4911.0,-1291.0,-45.0,1040.0,2219.0,0.348,-0.42,-0.603,-0.582
3044836,8276.0,4915.0,-1181.0,-46.0,974.0,2209.0,0.366,-0.427,-0.591,-0.579
3044849,8352.0,4679.0,-1043.0,-116.0,906.0,2141.0,0.382,-0.434,-0.579,-0.575
3044862,8148.0,4421.0,-1003.0,-121.0,752.0,1833.0,0.396,-0.44,-0.568,-0.572
3044885,8120.0,4093.0,-953.0,-91.0,575.0,1469.0,0.407,-0.444,-0.56,-0.569
3044898,7862.0,4327.0,-943.0,-135.0,411.0,1121.0,0.415,-0.448,-0.553,-0.566
3044921,7810.0,4201.0,-1193.0,-225.0,423.0,1096.0,0.422,-0.452,-0.547,-0.565
3044934,7856.0,3961.0,-1385.0,-174.0,310.0,871.0,0.427,-0.455,-0.542,-0.563
3044957,7786.0,4095.0,-1131.0,-191.0,281.0,831.0,0.432,-0.458,-0.537,-0.562
3044970,7606.0,4009.0,-921.0,-239.0,191.0,702.0,0.436,-0.46,-0.533,-0.561
3044993,7544.0,3869.0,-927.0,-255.0,129.0,595.0,0.439,-0.463,-0.529,-0.56
3045006,3624.0,22151.0,-451.0,2182.0,1130.0,-96.0,0.453,-0.447,-0.536,-0.554
3045029,14112.0,-1895.0,1545.0,83.0,-709.0,-595.0,0.448,-0.447,-0.543,-0.552
