timeMs,ax,ay,az,gx,gy,gz,q0,q1,q2,q3
591391,6548.0,3582.0,-4680.0,-1041.0,-163.0,494.0,0.444,-0.115,-0.829,-0.319
591414,6840.0,3210.0,-3590.0,-1053.0,-132.0,503.0,0.444,-0.123,-0.826,-0.325
591427,6586.0,3784.0,-3942.0,-1090.0,-153.0,402.0,0.443,-0.13,-0.823,-0.331
591450,6402.0,4212.0,-3592.0,-1218.0,-200.0,503.0,0.441,-0.139,-0.82,-0.338
591463,6514.0,4744.0,-3420.0,-1473.0,-319.0,633.0,0.439,-0.151,-0.816,-0.346
591486,6624.0,3232.0,-3786.0,-1544.0,-241.0,754.0,0.437,-0.163,-0.811,-0.354
591499,6670.0,3754.0,-3560.0,-1509.0,-263.0,734.0,0.435,-0.175,-0.806,-0.361
591522,7006.0,3888.0,-3228.0,-1485.0,-200.0,685.0,0.434,-0.187,-0.8,-0.369
591535,6580.0,3472.0,-3696.0,-1463.0,-37.0,660.0,0.433,-0.197,-0.794,-0.377
591548,6548.0,3382.0,-4548.0,-1483.0,19.0,800.0,0.433,-0.209,-0.788,-0.384
591571,6276.0,3078.0,-4634.0,-1577.0,-36.0,909.0,0.433,-0.221,-0.781,-0.392
591584,6756.0,2350.0,-3974.0,-1787.0,-27.0,895.0,0.432,-0.235,-0.773,-0.401
591607,6712.0,2414.0,-3792.0,-1785.0,32.0,877.0,0.432,-0.248,-0.764,-0.409
591620,6614.0,2394.0,-3432.0,-1738.0,36.0,817.0,0.431,-0.261,-0.756,-0.418
591643,6550.0,3040.0,-3390.0,-1662.0,18.0,803.0,0.43,-0.273,-0.747,-0.426
591656,6936.0,3494.0,-3046.0,-1894.0,371.0,1176.0,0.433,-0.287,-0.735,-0.435
591679,6804.0,2200.0,-3226.0,-1768.0,303.0,1415.0,0.436,-0.303,-0.723,-0.442
591692,6696.0,2146.0,-2592.0,-1587.0,234.0,1135.0,0.437,-0.316,-0.713,-0.449
591705,7050.0,2470.0,-2636.0,-1535.0,185.0,1232.0,0.439,-0.329,-0.702,-0.454
591728,6676.0,3278.0,-2568.0,-1552.0,77.0,1136.0,0.439,-0.343,-0.692,-0.46
598251,0.0,0.0,-12367.0,-2077.0,-3681.0,-18552.0,0.772,-0.229,-0.593,0.02
598254,7900.0,-96.0,-2074.0,546.0,-116.0,-313.0,0.168,-0.753,-0.239,-0.59
598257,8040.0,-20.0,-2060.0,575.0,-101.0,-358.0,0.169,-0.752,-0.245,-0.589
598261,7970.0,108.0,-2190.0,581.0,-85.0,-389.0,0.171,-0.751,-0.25,-0.587
598264,7968.0,194.0,-2238.0,566.0,-64.0,-393.0,0.172,-0.749,-0.256,-0.586
598267,7778.0,156.0,-2172.0,552.0,-52.0,-367.0,0.174,-0.748,-0.261,-0.585
598271,7906.0,352.0,-2194.0,543.0,-62.0,-375.0,0.175,-0.747,-0.266,-0.584
598274,7956.0,314.0,-2268.0,538.0,-69.0,-355.0,0.176,-0.745,-0.272,-0.583
598277,7964.0,510.0,-2346.0,516.0,-100.0,-313.0,0.178,-0.744,-0.276,-0.581
598281,7876.0,426.0,-2270.0,504.0,-96.0,-290.0,0.179,-0.743,-0.281,-0.58
598284,7888.0,508.0,-2174.0,495.0,-131.0,-275.0,0.18,-0.743,-0.286,-0.578
598287,7914.0,302.0,-2282.0,483.0,-107.0,-244.0,0.182,-0.742,-0.29,-0.577
598291,7996.0,450.0,-2388.0,482.0,-105.0,-233.0,0.184,-0.741,-0.294,-0.575
598294,7874.0,334.0,-2442.0,446.0,-86.0,-215.0,0.185,-0.74,-0.297,-0.574
598297,7908.0,494.0,-2452.0,419.0,-66.0,-202.0,0.187,-0.74,-0.301,-0.572
598301,7834.0,456.0,-2550.0,385.0,-24.0,-183.0,0.188,-0.739,-0.304,-0.571
598304,7960.0,778.0,-2392.0,314.0,-8.0,-161.0,0.189,-0.738,-0.307,-0.571
598307,8002.0,698.0,-2352.0,262.0,19.0,-134.0,0.19,-0.737,-0.309,-0.571
598311,7960.0,522.0,-2286.0,277.0,36.0,-132.0,0.191,-0.736,-0.311,-0.57
598314,7912.0,676.0,-2220.0,283.0,32.0,-146.0,0.192,-0.735,-0.313,-0.57
598317,7990.0,694.0,-2134.0,296.0,24.0,-162.0,0.193,-0.734,-0.315,-0.57
598321,7962.0,824.0,-2170.0,306.0,6.0,-168.0,0.194,-0.733,-0.318,-0.569
598324,7774.0,722.0,-2214.0,305.0,3.0,-136.0,0.195,-0.732,-0.32,-0.569
598327,7806.0,766.0,-2426.0,319.0,2.0,-142.0,0.197,-0.731,-0.323,-0.568
598331,7864.0,720.0,-2454.0,299.0,5.0,-147.0,0.198,-0.73,-0.325,-0.567
598334,7800.0,614.0,-2444.0,300.0,15.0,-138.0,0.199,-0.729,-0.327,-0.567
598337,7818.0,552.0,-2428.0,315.0,29.0,-170.0,0.2,-0.728,-0.33,-0.566
598341,7810.0,678.0,-2402.0,326.0,16.0,-190.0,0.201,-0.727,-0.333,-0.566
598344,7792.0,538.0,-2370.0,291.0,25.0,-182.0,0.202,-0.726,-0.335,-0.566
598347,7904.0,618.0,-2452.0,310.0,30.0,-200.0,0.203,-0.725,-0.338,-0.565
598370,7856.0,690.0,-2478.0,311.0,23.0,-200.0,0.204,-0.723,-0.341,-0.565
598383,7826.0,644.0,-2522.0,304.0,38.0,-209.0,0.205,-0.722,-0.344,-0.564
598406,7832.0,664.0,-2484.0,290.0,38.0,-213.0,0.206,-0.721,-0.346,-0.564
598419,7856.0,764.0,-2338.0,293.0,33.0,-210.0,0.207,-0.719,-0.349,-0.564
598432,7738.0,756.0,-2326.0,297.0,29.0,-193.0,0.208,-0.718,-0.352,-0.564
598455,7832.0,764.0,-2382.0,303.0,23.0,-177.0,0.209,-0.717,-0.354,-0.563
598468,7762.0,778.0,-2416.0,327.0,18.0,-177.0,0.21,-0.716,-0.357,-0.562
598491,7804.0,934.0,-2498.0,328.0,11.0,-181.0,0.211,-0.714,-0.36,-0.562
598504,7662.0,1002.0,-2414.0,306.0,-9.0,-143.0,0.212,-0.713,-0.362,-0.561
598527,7706.0,856.0,-2344.0,315.0,10.0,-125.0,0.214,-0.712,-0.365,-0.56
598540,7894.0,998.0,-2480.0,342.0,-5.0,-162.0,0.215,-0.711,-0.367,-0.559
598563,7694.0,1038.0,-2578.0,350.0,8.0,-151.0,0.216,-0.71,-0.37,-0.559
598576,7770.0,1030.0,-2472.0,346.0,8.0,-146.0,0.218,-0.709,-0.373,-0.558
598589,7742.0,1104.0,-2382.0,349.0,4.0,-146.0,0.219,-0.708,-0.375,-0.557
598612,7818.0,1128.0,-2382.0,348.0,-8.0,-154.0,0.221,-0.707,-0.378,-0.556
598625,7826.0,1146.0,-2452.0,352.0,-6.0,-162.0,0.222,-0.705,-0.381,-0.555
598648,7720.0,1056.0,-2482.0,333.0,-1.0,-138.0,0.223,-0.704,-0.384,-0.554
598661,7876.0,1066.0,-2488.0,332.0,-5.0,-173.0,0.224,-0.703,-0.386,-0.553
598684,7732.0,1070.0,-2484.0,323.0,-12.0,-186.0,0.225,-0.702,-0.389,-0.553
598697,7732.0,980.0,-2528.0,286.0,7.0,-165.0,0.226,-0.701,-0.392,-0.552
598720,7764.0,1088.0,-2514.0,260.0,9.0,-173.0,0.227,-0.699,-0.394,-0.551
598733,7786.0,1220.0,-2484.0,184.0,6.0,-153.0,0.227,-0.698,-0.396,-0.551
598756,7738.0,1320.0,-2428.0,94.0,50.0,-121.0,0.227,-0.698,-0.397,-0.551
598769,7820.0,1080.0,-2404.0,102.0,63.0,-104.0,0.228,-0.697,-0.398,-0.552
598782,7798.0,1080.0,-2360.0,153.0,49.0,-120.0,0.228,-0.696,-0.4,-0.552
598805,7766.0,1216.0,-2208.0,150.0,23.0,-116.0,0.229,-0.695,-0.401,-0.551
598818,7714.0,1258.0,-2192.0,150.0,-5.0,-92.0,0.229,-0.694,-0.402,-0.551
598841,7734.0,1142.0,-2310.0,141.0,-25.0,-59.0,0.23,-0.694,-0.404,-0.551
598854,7820.0,1140.0,-2460.0,123.0,-22.0,-46.0,0.23,-0.693,-0.405,-0.55
598877,7702.0,1164.0,-2496.0,99.0,-25.0,-28.0,0.23,-0.693,-0.405,-0.55
598890,7700.0,1088.0,-2422.0,84.0,-9.0,-11.0,0.231,-0.693,-0.406,-0.549
598913,7720.0,1262.0,-2424.0,62.0,-30.0,-12.0,0.231,-0.693,-0.406,-0.549
598926,7626.0,1038.0,-2326.0,13.0,-23.0,33.0,0.231,-0.693,-0.406,-0.549
598949,7758.0,1218.0,-2358.0,11.0,-29.0,30.0,0.231,-0.694,-0.406,-0.548
598962,7838.0,1162.0,-2584.0,0.0,-34.0,19.0,0.231,-0.694,-0.406,-0.548
598975,7762.0,1014.0,-2536.0,-48.0,-21.0,38.0,0.231,-0.694,-0.406,-0.548
598998,7822.0,1040.0,-2490.0,-60.0,-16.0,40.0,0.231,-0.695,-0.405,-0.548
599011,7864.0,1162.0,-2516.0,-73.0,-17.0,21.0,0.23,-0.695,-0.405,-0.548
599034,7812.0,1058.0,-2532.0,-90.0,-17.0,27.0,0.23,-0.695,-0.404,-0.548
599047,7686.0,916.0,-2436.0,-134.0,-12.0,56.0,0.229,-0.696,-0.403,-0.549
599070,7724.0,998.0,-2454.0,-144.0,-1.0,54.0,0.228,-0.696,-0.402,-0.549
599083,7788.0,986.0,-2564.0,-159.0,-2.0,37.0,0.227,-0.697,-0.401,-0.55
599106,7710.0,966.0,-2518.0,-174.0,11.0,56.0,0.227,-0.697,-0.399,-0.55
599119,7670.0,922.0,-2438.0,-185.0,4.0,60.0,0.226,-0.698,-0.398,-0.551
599132,7806.0,916.0,-2500.0,-179.0,14.0,47.0,0.225,-0.699,-0.397,-0.551
599155,7800.0,1052.0,-2536.0,-173.0,22.0,52.0,0.224,-0.699,-0.395,-0.552
599168,7684.0,930.0,-2522.0,-184.0,31.0,78.0,0.223,-0.7,-0.394,-0.553
599191,7734.0,864.0,-2534.0,-182.0,33.0,64.0,0.222,-0.7,-0.392,-0.553
599204,7708.0,988.0,-2476.0,-175.0,19.0,67.0,0.222,-0.701,-0.391,-0.554
599227,7728.0,978.0,-2462.0,-179.0,22.0,80.0,0.221,-0.701,-0.389,-0.555
599240,7798.0,912.0,-2512.0,-157.0,19.0,59.0,0.22,-0.702,-0.388,-0.555
599263,7720.0,970.0,-2456.0,-154.0,16.0,58.0,0.22,-0.702,-0.387,-0.556
599276,7782.0,902.0,-2540.0,-149.0,24.0,69.0,0.219,-0.703,-0.386,-0.556
599299,7832.0,1004.0,-2508.0,-133.0,25.0,58.0,0.219,-0.703,-0.384,-0.557
599312,7842.0,962.0,-2622.0,-131.0,22.0,47.0,0.218,-0.704,-0.383,-0.557
599325,7868.0,962.0,-2582.0,-133.0,18.0,60.0,0.217,-0.704,-0.382,-0.558
599348,7914.0,924.0,-2420.0,-122.0,8.0,55.0,0.217,-0.704,-0.381,-0.558
599361,7916.0,908.0,-2448.0,-105.0,6.0,36.0,0.216,-0.705,-0.38,-0.558
599384,7898.0,896.0,-2338.0,-99.0,4.0,38.0,0.216,-0.705,-0.379,-0.559
599397,7812.0,1032.0,-2366.0,-83.0,-7.0,28.0,0.215,-0.705,-0.379,-0.559
599420,7656.0,996.0,-2470.0,-98.0,-18.0,34.0,0.215,-0.706,-0.378,-0.559
599433,7658.0,962.0,-2434.0,-104.0,-20.0,51.0,0.214,-0.706,-0.377,-0.559
599456,7650.0,894.0,-2336.0,-83.0,-14.0,52.0,0.214,-0.707,-0.376,-0.559
599469,7756.0,1176.0,-2434.0,-77.0,-40.0,47.0,0.213,-0.707,-0.376,-0.559
599492,7716.0,1288.0,-2482.0,-80.0,-38.0,80.0,0.213,-0.708,-0.375,-0.559
599505,7712.0,1062.0,-2492.0,-108.0,-27.0,125.0,0.213,-0.709,-0.373,-0.559
599518,7832.0,1090.0,-2484.0,-87.0,-38.0,111.0,0.212,-0.71,-0.372,-0.559
599541,7782.0,1186.0,-2576.0,-90.0,-41.0,103.0,0.212,-0.711,-0.371,-0.559
599554,7812.0,1264.0,-2482.0,-134.0,-43.0,136.0,0.212,-0.712,-0.369,-0.559
599577,7752.0,1012.0,-2420.0,-184.0,-29.0,161.0,0.211,-0.713,-0.368,-0.559
599590,7868.0,1012.0,-2348.0,-219.0,-29.0,150.0,0.21,-0.714,-0.365,-0.559
599613,7944.0,1114.0,-2406.0,-227.0,-25.0,122.0,0.209,-0.715,-0.363,-0.56
599626,7856.0,900.0,-2362.0,-255.0,0.0,108.0,0.208,-0.716,-0.361,-0.56
599649,7724.0,742.0,-2410.0,-268.0,19.0,86.0,0.207,-0.717,-0.359,-0.561
599662,7714.0,648.0,-2476.0,-287.0,28.0,52.0,0.205,-0.717,-0.357,-0.562
599675,7762.0,780.0,-2484.0,-278.0,44.0,27.0,0.203,-0.718,-0.355,-0.563
599698,7766.0,506.0,-2472.0,-290.0,65.0,23.0,0.202,-0.718,-0.353,-0.565
599711,7914.0,502.0,-2470.0,-296.0,87.0,1.0,0.2,-0.718,-0.351,-0.566
599734,7918.0,684.0,-2552.0,-276.0,106.0,-17.0,0.198,-0.718,-0.35,-0.568
599747,8022.0,758.0,-2588.0,-298.0,100.0,-7.0,0.197,-0.718,-0.348,-0.569
599770,7904.0,648.0,-2444.0,-336.0,78.0,27.0,0.195,-0.719,-0.346,-0.571
599783,7802.0,556.0,-2322.0,-370.0,66.0,66.0,0.193,-0.719,-0.343,-0.572
599806,7874.0,458.0,-2306.0,-374.0,62.0,72.0,0.191,-0.72,-0.34,-0.574
599819,7812.0,550.0,-2454.0,-339.0,78.0,52.0,0.189,-0.721,-0.338,-0.575
599842,7724.0,614.0,-2412.0,-325.0,81.0,56.0,0.187,-0.721,-0.335,-0.577
599855,7654.0,562.0,-2376.0,-313.0,90.0,77.0,0.186,-0.721,-0.333,-0.578
599868,7694.0,714.0,-2270.0,-282.0,68.0,86.0,0.185,-0.722,-0.33,-0.579
599891,7760.0,872.0,-2220.0,-255.0,58.0,108.0,0.183,-0.722,-0.328,-0.58
599904,7700.0,794.0,-2308.0,-235.0,61.0,146.0,0.183,-0.723,-0.326,-0.581
599927,7624.0,448.0,-2346.0,-205.0,65.0,161.0,0.182,-0.724,-0.323,-0.582
599940,7816.0,676.0,-2296.0,-145.0,32.0,111.0,0.182,-0.724,-0.321,-0.582
599963,7820.0,1042.0,-2256.0,-128.0,20.0,120.0,0.182,-0.725,-0.32,-0.583
599976,7810.0,1036.0,-2090.0,-122.0,-5.0,154.0,0.182,-0.725,-0.318,-0.583
599999,7814.0,780.0,-2072.0,-115.0,-23.0,164.0,0.182,-0.726,-0.316,-0.583
600012,7892.0,798.0,-2184.0,-79.0,-32.0,123.0,0.182,-0.727,-0.315,-0.583
600035,7702.0,722.0,-2344.0,-50.0,-12.0,85.0,0.181,-0.728,-0.314,-0.583
600048,7760.0,814.0,-2424.0,-16.0,4.0,35.0,0.181,-0.728,-0.313,-0.583
600061,7786.0,846.0,-2334.0,26.0,10.0,-16.0,0.181,-0.728,-0.313,-0.583
600084,7782.0,958.0,-2218.0,51.0,7.0,-46.0,0.181,-0.728,-0.314,-0.583
600097,7838.0,946.0,-2272.0,82.0,11.0,-76.0,0.181,-0.727,-0.315,-0.583
600120,7800.0,926.0,-2266.0,111.0,14.0,-101.0,0.181,-0.727,-0.316,-0.582
600133,7828.0,930.0,-2272.0,128.0,12.0,-111.0,0.182,-0.726,-0.317,-0.582
600156,7796.0,960.0,-2152.0,143.0,10.0,-124.0,0.182,-0.726,-0.318,-0.582
600169,7818.0,968.0,-2154.0,148.0,-15.0,-133.0,0.182,-0.725,-0.32,-0.582
600192,7848.0,848.0,-2162.0,162.0,-45.0,-153.0,0.182,-0.725,-0.322,-0.581
600205,7814.0,782.0,-2114.0,177.0,-54.0,-164.0,0.182,-0.724,-0.324,-0.581
600218,7710.0,784.0,-2202.0,163.0,-77.0,-153.0,0.182,-0.724,-0.326,-0.58
600246,7590.0,674.0,-2370.0,170.0,-57.0,-135.0,0.182,-0.724,-0.328,-0.579
600259,7834.0,868.0,-2374.0,148.0,-62.0,-127.0,0.182,-0.724,-0.329,-0.579
600272,7754.0,844.0,-2530.0,139.0,-35.0,-87.0,0.182,-0.723,-0.33,-0.578
600295,7786.0,798.0,-2388.0,116.0,-37.0,-59.0,0.183,-0.723,-0.331,-0.578
600308,7822.0,822.0,-2214.0,101.0,-37.0,-24.0,0.183,-0.723,-0.332,-0.577
600331,7858.0,768.0,-2344.0,112.0,-39.0,-28.0,0.183,-0.723,-0.333,-0.577
600344,7842.0,870.0,-2256.0,110.0,-43.0,-21.0,0.184,-0.723,-0.334,-0.576
600367,7882.0,876.0,-2268.0,85.0,-38.0,-12.0,0.184,-0.723,-0.334,-0.576
600380,7804.0,870.0,-2284.0,72.0,-34.0,-8.0,0.184,-0.724,-0.334,-0.575
600393,7866.0,982.0,-2390.0,61.0,-33.0,-22.0,0.184,-0.724,-0.335,-0.575
600416,7878.0,1018.0,-2350.0,31.0,-25.0,-10.0,0.184,-0.724,-0.335,-0.574
600429,7908.0,1034.0,-2318.0,19.0,-17.0,8.0,0.184,-0.724,-0.335,-0.574
600452,7808.0,1058.0,-2324.0,-1.0,-9.0,22.0,0.184,-0.724,-0.335,-0.574
600465,7844.0,1026.0,-2302.0,-15.0,-8.0,27.0,0.184,-0.724,-0.334,-0.574
600488,7878.0,1008.0,-2284.0,-25.0,7.0,33.0,0.184,-0.724,-0.334,-0.574
600501,7830.0,988.0,-2364.0,-35.0,13.0,18.0,0.184,-0.725,-0.333,-0.574
600524,7800.0,976.0,-2372.0,-48.0,23.0,6.0,0.184,-0.725,-0.333,-0.575
600537,7804.0,876.0,-2416.0,-58.0,33.0,-3.0,0.183,-0.725,-0.332,-0.575
600560,7850.0,992.0,-2438.0,-55.0,40.0,-29.0,0.183,-0.724,-0.332,-0.576
600573,7820.0,944.0,-2388.0,-75.0,37.0,-19.0,0.182,-0.724,-0.332,-0.576
600586,7822.0,890.0,-2338.0,-85.0,29.0,-2.0,0.182,-0.725,-0.331,-0.577
600609,7866.0,922.0,-2244.0,-89.0,22.0,7.0,0.181,-0.725,-0.33,-0.577
600622,7804.0,1006.0,-2282.0,-94.0,6.0,26.0,0.18,-0.725,-0.33,-0.577
600645,7712.0,778.0,-2370.0,-105.0,13.0,54.0,0.18,-0.725,-0.329,-0.578
600658,7774.0,720.0,-2348.0,-92.0,9.0,41.0,0.18,-0.725,-0.328,-0.578
600681,7736.0,784.0,-2336.0,-92.0,13.0,39.0,0.179,-0.726,-0.327,-0.578
600694,7752.0,794.0,-2330.0,-83.0,19.0,36.0,0.179,-0.726,-0.326,-0.579
600717,7824.0,836.0,-2396.0,-66.0,20.0,32.0,0.179,-0.726,-0.325,-0.579
600730,7798.0,784.0,-2320.0,-57.0,34.0,37.0,0.178,-0.726,-0.325,-0.579
600753,7770.0,894.0,-2332.0,-33.0,33.0,24.0,0.178,-0.726,-0.324,-0.579
600766,7848.0,882.0,-2260.0,-28.0,29.0,27.0,0.178,-0.726,-0.324,-0.58
600779,7866.0,930.0,-2324.0,-7.0,22.0,4.0,0.178,-0.726,-0.323,-0.58
600802,7828.0,914.0,-2336.0,0.0,23.0,-2.0,0.178,-0.726,-0.323,-0.58
600815,7758.0,900.0,-2298.0,1.0,23.0,-8.0,0.178,-0.726,-0.323,-0.58
600838,7840.0,912.0,-2278.0,14.0,20.0,-24.0,0.178,-0.726,-0.323,-0.58
600851,7760.0,922.0,-2380.0,23.0,22.0,-35.0,0.178,-0.726,-0.323,-0.58
600874,7750.0,882.0,-2382.0,29.0,17.0,-35.0,0.178,-0.726,-0.324,-0.58
600887,7756.0,904.0,-2296.0,41.0,12.0,-43.0,0.178,-0.726,-0.324,-0.58
600910,7774.0,896.0,-2278.0,45.0,6.0,-48.0,0.178,-0.725,-0.324,-0.58
600923,7824.0,906.0,-2240.0,70.0,2.0,-38.0,0.178,-0.725,-0.325,-0.58
600936,7850.0,932.0,-2274.0,108.0,0.0,-53.0,0.178,-0.725,-0.326,-0.58
600959,7874.0,876.0,-2338.0,161.0,1.0,-69.0,0.179,-0.724,-0.327,-0.58
600972,7892.0,1018.0,-2304.0,159.0,-6.0,-62.0,0.18,-0.724,-0.328,-0.579
600995,7862.0,1032.0,-2260.0,128.0,-12.0,-36.0,0.18,-0.724,-0.329,-0.579
601008,7878.0,972.0,-2238.0,96.0,-15.0,-10.0,0.181,-0.724,-0.33,-0.579
601031,7826.0,990.0,-2204.0,82.0,-20.0,1.0,0.181,-0.724,-0.33,-0.578
601044,7728.0,902.0,-2228.0,55.0,-23.0,14.0,0.181,-0.724,-0.33,-0.578
601067,7746.0,964.0,-2216.0,43.0,-22.0,16.0,0.182,-0.724,-0.33,-0.578
601080,7728.0,946.0,-2306.0,29.0,-28.0,8.0,0.182,-0.724,-0.33,-0.577
601103,7722.0,964.0,-2390.0,19.0,-12.0,2.0,0.182,-0.724,-0.33,-0.577
601116,7740.0,960.0,-2424.0,-6.0,-10.0,9.0,0.182,-0.725,-0.33,-0.577
601129,7738.0,980.0,-2290.0,-37.0,6.0,25.0,0.182,-0.725,-0.33,-0.577
601152,7808.0,1006.0,-2370.0,-35.0,7.0,21.0,0.181,-0.725,-0.329,-0.577
601165,7710.0,898.0,-2388.0,-48.0,10.0,31.0,0.181,-0.725,-0.329,-0.577
601188,7770.0,832.0,-2318.0,-70.0,-14.0,18.0,0.181,-0.725,-0.328,-0.577
601201,7806.0,842.0,-2136.0,-99.0,-33.0,22.0,0.18,-0.726,-0.328,-0.577
601224,7862.0,770.0,-2154.0,-94.0,-43.0,10.0,0.179,-0.726,-0.327,-0.577
601237,7856.0,842.0,-2242.0,-83.0,-49.0,-10.0,0.179,-0.727,-0.327,-0.577
601260,7872.0,928.0,-2398.0,-74.0,-26.0,-11.0,0.178,-0.727,-0.326,-0.577
601273,7796.0,862.0,-2420.0,-76.0,-15.0,-1.0,0.177,-0.727,-0.326,-0.578
601296,7728.0,906.0,-2412.0,-69.0,-15.0,6.0,0.177,-0.728,-0.325,-0.578
601309,7786.0,824.0,-2170.0,-57.0,-11.0,21.0,0.176,-0.728,-0.325,-0.578
601322,7802.0,924.0,-2276.0,-9.0,-7.0,15.0,0.176,-0.728,-0.324,-0.578
601345,7788.0,1010.0,-2470.0,-14.0,-4.0,18.0,0.176,-0.728,-0.324,-0.578
601358,7714.0,898.0,-2484.0,-22.0,-5.0,24.0,0.176,-0.728,-0.324,-0.578
601381,7712.0,808.0,-2450.0,-19.0,-7.0,9.0,0.176,-0.729,-0.324,-0.578
601394,7840.0,828.0,-2432.0,-18.0,-7.0,7.0,0.176,-0.729,-0.323,-0.578
601417,7840.0,888.0,-2468.0,-15.0,-3.0,1.0,0.175,-0.729,-0.323,-0.578
601430,7776.0,830.0,-2526.0,-30.0,2.0,16.0,0.175,-0.729,-0.323,-0.578
601453,7710.0,770.0,-2468.0,-31.0,-4.0,16.0,0.175,-0.729,-0.322,-0.578
601466,7698.0,680.0,-2348.0,-22.0,-13.0,11.0,0.175,-0.729,-0.322,-0.578
601479,7748.0,694.0,-2350.0,-24.0,-24.0,3.0,0.175,-0.73,-0.322,-0.577
601502,7768.0,854.0,-2474.0,-5.0,-29.0,-8.0,0.174,-0.73,-0.322,-0.577
601515,7732.0,750.0,-2538.0,-6.0,-34.0,0.0,0.174,-0.73,-0.322,-0.577
601538,7750.0,696.0,-2338.0,-3.0,-35.0,0.0,0.174,-0.73,-0.322,-0.577
601551,7768.0,654.0,-2308.0,20.0,-28.0,-7.0,0.174,-0.731,-0.322,-0.577
601574,7842.0,814.0,-2330.0,48.0,-29.0,-34.0,0.174,-0.731,-0.322,-0.576
601587,7842.0,800.0,-2512.0,73.0,-14.0,-36.0,0.174,-0.731,-0.323,-0.576
601610,7796.0,862.0,-2518.0,83.0,-20.0,-38.0,0.174,-0.731,-0.323,-0.576
601623,7784.0,798.0,-2390.0,97.0,-12.0,-41.0,0.175,-0.73,-0.324,-0.575
601646,7806.0,960.0,-2468.0,111.0,-7.0,-40.0,0.175,-0.73,-0.325,-0.575
601659,7788.0,1018.0,-2462.0,136.0,-2.0,-35.0,0.176,-0.73,-0.326,-0.575
601672,7782.0,898.0,-2436.0,134.0,13.0,-22.0,0.177,-0.73,-0.327,-0.574
601695,7774.0,862.0,-2496.0,161.0,9.0,-41.0,0.177,-0.729,-0.328,-0.574
601708,7712.0,896.0,-2512.0,164.0,5.0,-58.0,0.178,-0.729,-0.329,-0.573
601731,7730.0,900.0,-2434.0,175.0,3.0,-60.0,0.179,-0.728,-0.33,-0.573
601744,7778.0,862.0,-2436.0,179.0,1.0,-68.0,0.18,-0.728,-0.331,-0.573
601767,7790.0,898.0,-2464.0,178.0,-15.0,-71.0,0.181,-0.728,-0.333,-0.572
601780,7766.0,860.0,-2462.0,184.0,-14.0,-88.0,0.181,-0.727,-0.334,-0.572
601803,7770.0,852.0,-2454.0,186.0,-15.0,-96.0,0.182,-0.727,-0.336,-0.571
601816,7774.0,860.0,-2496.0,181.0,-20.0,-111.0,0.183,-0.726,-0.338,-0.57
601839,7778.0,928.0,-2480.0,183.0,-19.0,-116.0,0.183,-0.726,-0.339,-0.57
601852,7750.0,830.0,-2538.0,186.0,-7.0,-141.0,0.184,-0.725,-0.341,-0.569
601865,7732.0,890.0,-2516.0,196.0,-6.0,-149.0,0.184,-0.724,-0.343,-0.569
601888,7736.0,930.0,-2380.0,190.0,-3.0,-142.0,0.184,-0.723,-0.345,-0.569
601901,7718.0,948.0,-2504.0,183.0,4.0,-137.0,0.185,-0.723,-0.347,-0.568
601924,7792.0,984.0,-2448.0,193.0,8.0,-143.0,0.186,-0.722,-0.349,-0.568
601937,7762.0,978.0,-2522.0,184.0,9.0,-125.0,0.186,-0.721,-0.351,-0.568
601960,7682.0,988.0,-2440.0,166.0,13.0,-108.0,0.187,-0.72,-0.352,-0.567
601973,7794.0,968.0,-2450.0,157.0,18.0,-112.0,0.187,-0.72,-0.354,-0.567
601996,7716.0,1050.0,-2522.0,155.0,13.0,-113.0,0.188,-0.719,-0.355,-0.567
602009,7728.0,1094.0,-2512.0,144.0,15.0,-103.0,0.188,-0.718,-0.357,-0.567
602022,7714.0,1034.0,-2474.0,115.0,12.0,-88.0,0.188,-0.718,-0.358,-0.566
602045,7818.0,1048.0,-2404.0,101.0,10.0,-88.0,0.189,-0.717,-0.359,-0.566
602058,7684.0,1044.0,-2486.0,96.0,10.0,-81.0,0.189,-0.717,-0.36,-0.566
602081,7700.0,1036.0,-2472.0,76.0,9.0,-68.0,0.189,-0.717,-0.361,-0.566
602094,7730.0,1040.0,-2408.0,70.0,8.0,-75.0,0.189,-0.716,-0.362,-0.566
602117,7738.0,1154.0,-2484.0,55.0,8.0,-64.0,0.189,-0.716,-0.363,-0.566
602130,7676.0,1044.0,-2438.0,42.0,1.0,-55.0,0.189,-0.716,-0.363,-0.566
602153,7730.0,1032.0,-2460.0,37.0,2.0,-51.0,0.189,-0.715,-0.364,-0.566
602166,7818.0,1084.0,-2466.0,33.0,-8.0,-48.0,0.189,-0.715,-0.364,-0.566
602189,7750.0,1042.0,-2544.0,23.0,-2.0,-41.0,0.189,-0.715,-0.365,-0.566
602202,7810.0,1034.0,-2606.0,11.0,1.0,-62.0,0.189,-0.715,-0.365,-0.566
602215,7886.0,1038.0,-2530.0,5.0,1.0,-53.0,0.189,-0.715,-0.365,-0.566
602238,7934.0,1170.0,-2478.0,9.0,1.0,-48.0,0.188,-0.715,-0.366,-0.566
602256,7810.0,1184.0,-2460.0,18.0,5.0,-40.0,0.188,-0.714,-0.366,-0.566
602269,7814.0,1238.0,-2444.0,1.0,-5.0,-14.0,0.188,-0.714,-0.366,-0.566
602292,7748.0,1146.0,-2504.0,-7.0,-2.0,24.0,0.188,-0.714,-0.366,-0.566
602305,7738.0,1186.0,-2522.0,0.0,-9.0,23.0,0.188,-0.715,-0.366,-0.566
602328,7706.0,1146.0,-2598.0,-6.0,4.0,23.0,0.188,-0.715,-0.366,-0.566
602341,7630.0,1074.0,-2538.0,-7.0,15.0,12.0,0.189,-0.715,-0.365,-0.566
602364,7696.0,1062.0,-2558.0,-11.0,17.0,-4.0,0.188,-0.715,-0.365,-0.566
602377,7716.0,1086.0,-2542.0,-18.0,18.0,-19.0,0.188,-0.715,-0.365,-0.566
602390,7738.0,1122.0,-2494.0,-29.0,15.0,-17.0,0.188,-0.715,-0.365,-0.566
602413,7710.0,1042.0,-2520.0,-47.0,8.0,-4.0,0.188,-0.715,-0.365,-0.566
602426,7708.0,1066.0,-2468.0,-50.0,7.0,-9.0,0.187,-0.715,-0.365,-0.567
602449,7782.0,1132.0,-2548.0,-61.0,8.0,-3.0,0.187,-0.715,-0.364,-0.567
602462,7776.0,1040.0,-2470.0,-57.0,6.0,2.0,0.187,-0.715,-0.364,-0.567
602485,7702.0,994.0,-2432.0,-64.0,11.0,2.0,0.186,-0.715,-0.364,-0.567
602498,7662.0,1056.0,-2496.0,-51.0,12.0,-10.0,0.186,-0.715,-0.363,-0.568
602521,7568.0,1216.0,-2818.0,-70.0,10.0,-3.0,0.185,-0.715,-0.363,-0.568
602534,7926.0,970.0,-2420.0,-79.0,26.0,17.0,0.185,-0.715,-0.362,-0.568
602557,7694.0,998.0,-2576.0,-64.0,25.0,17.0,0.185,-0.715,-0.362,-0.568
602570,7686.0,1092.0,-2528.0,-63.0,16.0,9.0,0.185,-0.715,-0.362,-0.569
602583,7760.0,1036.0,-2512.0,-61.0,23.0,18.0,0.184,-0.715,-0.361,-0.569
602606,7776.0,1162.0,-2492.0,-70.0,11.0,29.0,0.184,-0.716,-0.36,-0.569
602619,7730.0,946.0,-2526.0,-78.0,11.0,34.0,0.184,-0.716,-0.36,-0.569
602642,7810.0,974.0,-2530.0,-61.0,7.0,17.0,0.184,-0.716,-0.359,-0.57
602655,7708.0,1080.0,-2542.0,-54.0,13.0,16.0,0.183,-0.716,-0.359,-0.57
602678,7636.0,1202.0,-2494.0,-51.0,8.0,11.0,0.183,-0.716,-0.358,-0.57
602691,7746.0,980.0,-2506.0,-50.0,20.0,25.0,0.183,-0.716,-0.358,-0.57
602714,7748.0,1046.0,-2532.0,-47.0,13.0,25.0,0.183,-0.717,-0.357,-0.57
602727,7758.0,1018.0,-2456.0,-36.0,7.0,29.0,0.183,-0.717,-0.357,-0.57
602750,7704.0,1042.0,-2550.0,-27.0,12.0,14.0,0.183,-0.717,-0.357,-0.571
602763,7770.0,988.0,-2494.0,-26.0,13.0,10.0,0.183,-0.717,-0.357,-0.571
602776,7698.0,1064.0,-2532.0,-19.0,13.0,-13.0,0.182,-0.717,-0.356,-0.571
602799,7762.0,1040.0,-2610.0,-13.0,8.0,-18.0,0.182,-0.717,-0.357,-0.571
602812,7796.0,1010.0,-2528.0,-9.0,14.0,-29.0,0.182,-0.717,-0.357,-0.571
602835,7826.0,1126.0,-2512.0,8.0,8.0,-41.0,0.182,-0.716,-0.357,-0.571
602848,7774.0,1084.0,-2540.0,1.0,3.0,-34.0,0.182,-0.716,-0.357,-0.571
602871,7694.0,1046.0,-2416.0,9.0,-9.0,-30.0,0.182,-0.716,-0.357,-0.571
602884,7726.0,1040.0,-2500.0,21.0,-5.0,-32.0,0.182,-0.716,-0.358,-0.571
602907,7742.0,1088.0,-2522.0,22.0,-4.0,-30.0,0.182,-0.716,-0.358,-0.571
602920,7710.0,1050.0,-2462.0,33.0,-6.0,-16.0,0.182,-0.716,-0.358,-0.571
602933,7746.0,1026.0,-2456.0,39.0,2.0,-17.0,0.182,-0.716,-0.359,-0.571
602956,7800.0,1052.0,-2456.0,46.0,2.0,-15.0,0.182,-0.716,-0.359,-0.57
602969,7780.0,1088.0,-2586.0,39.0,-2.0,-20.0,0.182,-0.716,-0.359,-0.57
602992,7712.0,1030.0,-2552.0,35.0,-6.0,-22.0,0.182,-0.716,-0.36,-0.57
603005,7760.0,1016.0,-2458.0,28.0,-9.0,-13.0,0.183,-0.716,-0.36,-0.57
603028,7822.0,1026.0,-2488.0,25.0,-7.0,-19.0,0.183,-0.716,-0.36,-0.57
603041,7784.0,1104.0,-2538.0,32.0,-7.0,-26.0,0.183,-0.716,-0.36,-0.57
603064,7744.0,1074.0,-2504.0,28.0,-5.0,-17.0,0.183,-0.716,-0.361,-0.57
603077,7770.0,1168.0,-2482.0,31.0,-14.0,-18.0,0.183,-0.716,-0.361,-0.569
603100,7822.0,1124.0,-2470.0,34.0,-16.0,-11.0,0.183,-0.716,-0.361,-0.569
603113,7926.0,1366.0,-2352.0,28.0,-29.0,1.0,0.183,-0.716,-0.361,-0.569
603126,8014.0,1158.0,-2312.0,24.0,-43.0,26.0,0.183,-0.716,-0.361,-0.568
603149,8174.0,1214.0,-2476.0,61.0,-49.0,24.0,0.183,-0.716,-0.361,-0.568
603162,8080.0,1418.0,-2516.0,48.0,-61.0,27.0,0.184,-0.717,-0.361,-0.567
603185,7928.0,1060.0,-2622.0,12.0,-37.0,66.0,0.184,-0.717,-0.361,-0.567
603198,7748.0,862.0,-2540.0,-15.0,-30.0,72.0,0.184,-0.718,-0.361,-0.567
603221,7390.0,852.0,-2532.0,-48.0,-4.0,47.0,0.184,-0.718,-0.36,-0.567
603234,7362.0,736.0,-2626.0,-79.0,34.0,19.0,0.184,-0.718,-0.359,-0.567
603257,7334.0,884.0,-2566.0,-89.0,64.0,7.0,0.183,-0.718,-0.359,-0.568
603270,7454.0,1104.0,-2494.0,-78.0,72.0,-18.0,0.183,-0.718,-0.358,-0.568
603293,7524.0,1188.0,-2348.0,-55.0,72.0,16.0,0.183,-0.717,-0.358,-0.569
603306,7504.0,1270.0,-2362.0,-65.0,55.0,72.0,0.183,-0.718,-0.357,-0.569
603319,7676.0,1118.0,-2436.0,-63.0,53.0,128.0,0.183,-0.718,-0.356,-0.57
603342,7672.0,994.0,-2578.0,-44.0,44.0,139.0,0.184,-0.718,-0.354,-0.57
603355,7574.0,978.0,-2692.0,-50.0,51.0,137.0,0.185,-0.719,-0.353,-0.57
603378,7680.0,866.0,-2676.0,-71.0,44.0,108.0,0.185,-0.719,-0.352,-0.57
603391,7690.0,860.0,-2636.0,-86.0,33.0,57.0,0.185,-0.719,-0.351,-0.571
603414,7816.0,870.0,-2530.0,-86.0,48.0,0.0,0.184,-0.719,-0.35,-0.571
603427,7752.0,970.0,-2508.0,-55.0,58.0,-69.0,0.184,-0.719,-0.351,-0.572
603450,7666.0,1054.0,-2402.0,-55.0,56.0,-96.0,0.183,-0.718,-0.351,-0.573
603463,7724.0,1072.0,-2318.0,-51.0,54.0,-108.0,0.182,-0.718,-0.351,-0.573
603476,7642.0,1062.0,-2548.0,2.0,50.0,-146.0,0.182,-0.717,-0.352,-0.574
603499,7676.0,1302.0,-2612.0,46.0,39.0,-193.0,0.181,-0.716,-0.353,-0.574
603512,7572.0,1028.0,-2756.0,71.0,55.0,-198.0,0.181,-0.715,-0.355,-0.575
603535,7530.0,930.0,-2568.0,88.0,66.0,-208.0,0.18,-0.714,-0.357,-0.575
603548,7664.0,1072.0,-2444.0,114.0,77.0,-227.0,0.18,-0.713,-0.359,-0.575
603571,7610.0,1146.0,-2612.0,130.0,81.0,-224.0,0.18,-0.711,-0.361,-0.576
603584,7882.0,908.0,-2376.0,110.0,74.0,-178.0,0.18,-0.71,-0.362,-0.576
603607,7742.0,964.0,-2350.0,165.0,55.0,-218.0,0.18,-0.709,-0.365,-0.576
603620,7754.0,1072.0,-2410.0,183.0,29.0,-226.0,0.18,-0.708,-0.367,-0.576
603643,7868.0,1114.0,-2436.0,198.0,18.0,-216.0,0.181,-0.707,-0.369,-0.576
603656,7792.0,1004.0,-2456.0,223.0,14.0,-200.0,0.181,-0.705,-0.372,-0.576
603669,7900.0,970.0,-2406.0,254.0,13.0,-205.0,0.182,-0.704,-0.375,-0.575
603692,7844.0,1096.0,-2418.0,286.0,0.0,-197.0,0.183,-0.703,-0.377,-0.574
603705,7840.0,1236.0,-2368.0,297.0,-15.0,-180.0,0.184,-0.702,-0.38,-0.573
603728,7784.0,1318.0,-2354.0,295.0,-29.0,-152.0,0.185,-0.701,-0.383,-0.572
603741,7902.0,1168.0,-2388.0,314.0,-33.0,-129.0,0.186,-0.7,-0.385,-0.571
603764,7814.0,1290.0,-2426.0,312.0,-38.0,-117.0,0.187,-0.7,-0.388,-0.57
603777,7792.0,1402.0,-2364.0,296.0,-42.0,-89.0,0.189,-0.699,-0.39,-0.569
603800,7706.0,1262.0,-2396.0,277.0,-43.0,-59.0,0.19,-0.699,-0.392,-0.568
603813,7758.0,1316.0,-2334.0,288.0,-43.0,-72.0,0.192,-0.698,-0.394,-0.566
603836,7776.0,1364.0,-2258.0,286.0,-42.0,-56.0,0.193,-0.697,-0.396,-0.565
603849,7696.0,1248.0,-2154.0,293.0,-29.0,-35.0,0.195,-0.697,-0.398,-0.564
603862,7750.0,1208.0,-2200.0,292.0,-34.0,-42.0,0.196,-0.696,-0.4,-0.563
603885,7822.0,1194.0,-2616.0,311.0,-38.0,-52.0,0.198,-0.696,-0.402,-0.561
603898,7672.0,1164.0,-2850.0,293.0,-33.0,-52.0,0.2,-0.695,-0.404,-0.56
603921,7576.0,1130.0,-3042.0,285.0,-9.0,-70.0,0.201,-0.695,-0.406,-0.559
603934,7648.0,1200.0,-2966.0,267.0,19.0,-105.0,0.202,-0.694,-0.408,-0.558
603957,7666.0,1262.0,-2888.0,248.0,49.0,-121.0,0.204,-0.693,-0.41,-0.558
603970,7670.0,1328.0,-2620.0,229.0,49.0,-119.0,0.205,-0.691,-0.412,-0.557
603993,7658.0,1472.0,-2424.0,210.0,19.0,-93.0,0.206,-0.69,-0.414,-0.557
604006,7684.0,1508.0,-2448.0,184.0,-14.0,-72.0,0.206,-0.69,-0.415,-0.556
604019,7660.0,1404.0,-2592.0,157.0,-36.0,-45.0,0.207,-0.69,-0.416,-0.555
604042,7650.0,1396.0,-2780.0,137.0,-60.0,-33.0,0.208,-0.69,-0.417,-0.554
604055,7682.0,1384.0,-2754.0,116.0,-77.0,-50.0,0.208,-0.689,-0.419,-0.553
604078,7652.0,1210.0,-2744.0,91.0,-61.0,-72.0,0.208,-0.689,-0.42,-0.553
604091,7624.0,1200.0,-2732.0,89.0,-32.0,-99.0,0.208,-0.689,-0.421,-0.552
604114,7650.0,1238.0,-2728.0,97.0,-17.0,-123.0,0.208,-0.688,-0.422,-0.552
604127,7612.0,1434.0,-2684.0,111.0,-5.0,-139.0,0.208,-0.688,-0.424,-0.552
604150,7474.0,1406.0,-2546.0,88.0,-10.0,-101.0,0.208,-0.687,-0.425,-0.551
604163,7622.0,1464.0,-2438.0,99.0,-21.0,-94.0,0.208,-0.687,-0.426,-0.551
604186,7590.0,1580.0,-2542.0,121.0,-34.0,-71.0,0.209,-0.686,-0.428,-0.55
604199,7620.0,1526.0,-2592.0,107.0,-39.0,-38.0,0.209,-0.686,-0.429,-0.55
604212,7672.0,1558.0,-2772.0,102.0,-41.0,-19.0,0.209,-0.686,-0.429,-0.549
604235,7648.0,1444.0,-2802.0,63.0,-33.0,-6.0,0.21,-0.686,-0.43,-0.548
604248,7660.0,1538.0,-2700.0,28.0,-40.0,21.0,0.21,-0.686,-0.43,-0.548
604266,7772.0,1416.0,-2640.0,29.0,-26.0,26.0,0.21,-0.686,-0.43,-0.548
604289,7672.0,1438.0,-2752.0,33.0,-24.0,12.0,0.21,-0.686,-0.43,-0.547
604302,7716.0,1458.0,-2766.0,23.0,-26.0,5.0,0.211,-0.686,-0.431,-0.547
604325,7638.0,1328.0,-2732.0,-3.0,-15.0,18.0,0.211,-0.686,-0.431,-0.547
604338,7672.0,1372.0,-2648.0,-12.0,-13.0,20.0,0.211,-0.687,-0.431,-0.547
604361,7688.0,1400.0,-2648.0,-13.0,-9.0,21.0,0.211,-0.687,-0.431,-0.547
604374,7684.0,1314.0,-2732.0,-3.0,1.0,17.0,0.211,-0.687,-0.43,-0.546
604387,7702.0,1344.0,-2684.0,-14.0,12.0,21.0,0.211,-0.687,-0.43,-0.547
604410,7654.0,1244.0,-2722.0,-6.0,23.0,24.0,0.211,-0.687,-0.43,-0.547
604423,7708.0,1250.0,-2804.0,-6.0,25.0,11.0,0.212,-0.687,-0.43,-0.547
604446,7632.0,1346.0,-2826.0,-20.0,33.0,16.0,0.212,-0.687,-0.43,-0.547
604459,7658.0,1246.0,-2836.0,-35.0,38.0,21.0,0.212,-0.687,-0.43,-0.547
604482,7632.0,1268.0,-2706.0,-50.0,35.0,37.0,0.212,-0.687,-0.429,-0.547
604495,7766.0,1296.0,-2662.0,-56.0,34.0,41.0,0.212,-0.687,-0.429,-0.548
604518,7730.0,1210.0,-2738.0,-65.0,33.0,58.0,0.212,-0.687,-0.428,-0.548
604531,7710.0,1158.0,-2738.0,-49.0,31.0,64.0,0.212,-0.687,-0.427,-0.548
604554,7612.0,1122.0,-2668.0,-39.0,32.0,70.0,0.213,-0.687,-0.427,-0.548
604567,7596.0,1076.0,-2604.0,-24.0,39.0,72.0,0.213,-0.687,-0.426,-0.548
604580,7666.0,1228.0,-2694.0,1.0,50.0,60.0,0.214,-0.687,-0.426,-0.548
604603,7674.0,1160.0,-2626.0,62.0,74.0,25.0,0.215,-0.687,-0.426,-0.549
604616,7680.0,1324.0,-2678.0,126.0,85.0,-45.0,0.216,-0.686,-0.427,-0.549
604639,7748.0,1322.0,-2624.0,101.0,84.0,-57.0,0.217,-0.685,-0.427,-0.549
604652,7656.0,1534.0,-2782.0,86.0,80.0,-59.0,0.217,-0.684,-0.428,-0.549
604675,7682.0,1616.0,-2960.0,25.0,83.0,-48.0,0.217,-0.683,-0.429,-0.55
604688,7712.0,1522.0,-2958.0,-36.0,90.0,-31.0,0.218,-0.683,-0.429,-0.55
604711,7614.0,1444.0,-2744.0,-50.0,93.0,-25.0,0.217,-0.682,-0.428,-0.551
604724,7666.0,1286.0,-2612.0,-73.0,85.0,-14.0,0.217,-0.682,-0.428,-0.552
604737,7612.0,1386.0,-2612.0,-41.0,61.0,-30.0,0.217,-0.682,-0.428,-0.552
604760,7612.0,1334.0,-2592.0,-52.0,46.0,-14.0,0.217,-0.681,-0.428,-0.553
604773,7534.0,1510.0,-2576.0,-41.0,34.0,-8.0,0.217,-0.681,-0.428,-0.553
604796,7546.0,1350.0,-2594.0,-49.0,20.0,11.0,0.217,-0.681,-0.428,-0.553
604809,7498.0,1326.0,-2466.0,-52.0,15.0,28.0,0.217,-0.681,-0.427,-0.553
604832,7600.0,1232.0,-2566.0,-23.0,9.0,35.0,0.217,-0.681,-0.427,-0.553
604845,7626.0,1148.0,-2492.0,2.0,5.0,27.0,0.217,-0.681,-0.427,-0.553
604868,7572.0,1172.0,-2502.0,16.0,-6.0,43.0,0.218,-0.682,-0.427,-0.553
604881,7650.0,1120.0,-2570.0,15.0,-12.0,61.0,0.218,-0.682,-0.426,-0.553
604904,7598.0,1000.0,-2636.0,8.0,1.0,65.0,0.219,-0.682,-0.426,-0.553
604917,7586.0,1062.0,-2680.0,1.0,6.0,59.0,0.219,-0.682,-0.426,-0.552
604930,7592.0,1258.0,-2552.0,-1.0,1.0,71.0,0.22,-0.683,-0.425,-0.552
604953,7610.0,1256.0,-2510.0,4.0,6.0,74.0,0.22,-0.683,-0.425,-0.552
604966,7616.0,1240.0,-2460.0,13.0,12.0,82.0,0.221,-0.683,-0.425,-0.552
604989,7662.0,1236.0,-2568.0,28.0,22.0,77.0,0.222,-0.683,-0.424,-0.552
605002,7598.0,1354.0,-2522.0,28.0,21.0,69.0,0.222,-0.683,-0.424,-0.551
605025,7568.0,1338.0,-2578.0,31.0,28.0,67.0,0.223,-0.683,-0.424,-0.551
605038,7594.0,1196.0,-2594.0,32.0,32.0,55.0,0.224,-0.683,-0.424,-0.551
605061,7584.0,1326.0,-2556.0,25.0,27.0,36.0,0.224,-0.683,-0.424,-0.551
605074,7580.0,1266.0,-2606.0,25.0,28.0,10.0,0.225,-0.683,-0.424,-0.551
605097,7610.0,1272.0,-2628.0,18.0,26.0,-21.0,0.225,-0.683,-0.424,-0.551
605110,7598.0,1296.0,-2616.0,1.0,21.0,-41.0,0.225,-0.682,-0.424,-0.551
605123,7624.0,1306.0,-2536.0,-7.0,15.0,-60.0,0.224,-0.682,-0.425,-0.551
605146,7716.0,1272.0,-2674.0,-5.0,17.0,-101.0,0.224,-0.681,-0.426,-0.552
605159,7650.0,1310.0,-2702.0,2.0,17.0,-106.0,0.224,-0.681,-0.426,-0.552
605182,7630.0,1208.0,-2590.0,-5.0,12.0,-101.0,0.223,-0.68,-0.427,-0.552
605195,7592.0,1228.0,-2526.0,-1.0,12.0,-112.0,0.223,-0.68,-0.428,-0.552
605218,7688.0,1174.0,-2528.0,13.0,10.0,-115.0,0.222,-0.679,-0.429,-0.553
605231,7662.0,1144.0,-2454.0,54.0,10.0,-140.0,0.222,-0.679,-0.43,-0.553
605254,7708.0,1126.0,-2526.0,77.0,1.0,-159.0,0.222,-0.678,-0.431,-0.553
605267,7648.0,1220.0,-2474.0,86.0,2.0,-156.0,0.222,-0.677,-0.433,-0.552
605280,7700.0,1238.0,-2526.0,73.0,6.0,-140.0,0.222,-0.676,-0.434,-0.552
605303,7766.0,1352.0,-2584.0,42.0,-1.0,-116.0,0.221,-0.676,-0.435,-0.552
605316,7740.0,1228.0,-2560.0,47.0,12.0,-97.0,0.221,-0.675,-0.436,-0.552
605339,7792.0,1190.0,-2538.0,58.0,13.0,-84.0,0.221,-0.675,-0.437,-0.552
605352,7664.0,1304.0,-2450.0,62.0,16.0,-66.0,0.222,-0.674,-0.438,-0.552
605375,7620.0,1228.0,-2490.0,77.0,9.0,-46.0,0.222,-0.674,-0.438,-0.552
605388,7672.0,1238.0,-2564.0,62.0,13.0,-36.0,0.222,-0.673,-0.439,-0.552
605411,7614.0,1110.0,-2708.0,69.0,8.0,-57.0,0.223,-0.673,-0.44,-0.552
605424,7638.0,1318.0,-2694.0,50.0,3.0,-70.0,0.223,-0.672,-0.441,-0.552
605447,7778.0,1566.0,-2502.0,33.0,-2.0,-51.0,0.223,-0.672,-0.441,-0.551
605460,7742.0,1604.0,-2446.0,18.0,-15.0,-11.0,0.223,-0.672,-0.442,-0.551
605473,7758.0,1492.0,-2432.0,3.0,-26.0,42.0,0.223,-0.672,-0.441,-0.551
605496,7704.0,1302.0,-2504.0,2.0,-37.0,46.0,0.223,-0.672,-0.441,-0.551
605509,7678.0,1366.0,-2588.0,20.0,-52.0,44.0,0.224,-0.673,-0.441,-0.55
605532,7632.0,1334.0,-2598.0,-2.0,-49.0,45.0,0.224,-0.673,-0.441,-0.549
605545,7688.0,1332.0,-2562.0,-13.0,-51.0,29.0,0.224,-0.674,-0.441,-0.549
605568,7658.0,1324.0,-2562.0,-2.0,-37.0,9.0,0.224,-0.674,-0.441,-0.549
605581,7654.0,1484.0,-2508.0,-20.0,-24.0,13.0,0.224,-0.674,-0.441,-0.549
605604,7588.0,1378.0,-2572.0,-16.0,-6.0,29.0,0.224,-0.674,-0.441,-0.549
605617,7644.0,1418.0,-2606.0,-33.0,0.0,27.0,0.224,-0.674,-0.441,-0.549
605640,7572.0,1446.0,-2550.0,-39.0,5.0,29.0,0.224,-0.674,-0.441,-0.549
605653,7678.0,1462.0,-2594.0,-47.0,-3.0,33.0,0.224,-0.675,-0.44,-0.549
605666,7602.0,1432.0,-2692.0,-60.0,0.0,41.0,0.224,-0.675,-0.44,-0.549
605689,7662.0,1410.0,-2606.0,-76.0,-8.0,31.0,0.223,-0.675,-0.44,-0.549
605702,7674.0,1416.0,-2634.0,-91.0,1.0,38.0,0.223,-0.675,-0.439,-0.549
605725,7604.0,1448.0,-2610.0,-106.0,4.0,44.0,0.223,-0.676,-0.438,-0.549
605738,7650.0,1294.0,-2602.0,-125.0,9.0,49.0,0.222,-0.676,-0.437,-0.55
605761,7664.0,1230.0,-2596.0,-122.0,5.0,32.0,0.222,-0.676,-0.437,-0.55
605774,7656.0,1254.0,-2626.0,-115.0,5.0,9.0,0.221,-0.677,-0.436,-0.551
605797,7670.0,1238.0,-2586.0,-119.0,8.0,7.0,0.221,-0.677,-0.435,-0.551
605810,7758.0,1174.0,-2550.0,-124.0,9.0,11.0,0.22,-0.677,-0.435,-0.551
605823,7620.0,1256.0,-2592.0,-111.0,1.0,3.0,0.22,-0.677,-0.434,-0.552
605846,7612.0,1230.0,-2540.0,-110.0,2.0,10.0,0.219,-0.677,-0.434,-0.552
605859,7638.0,1244.0,-2570.0,-99.0,13.0,17.0,0.219,-0.678,-0.433,-0.553
605882,7638.0,1238.0,-2518.0,-99.0,7.0,23.0,0.218,-0.678,-0.433,-0.553
605894,7660.0,1206.0,-2562.0,-76.0,9.0,23.0,0.218,-0.678,-0.432,-0.553
605917,7646.0,1286.0,-2638.0,-68.0,13.0,17.0,0.218,-0.678,-0.432,-0.553
605930,7604.0,1230.0,-2666.0,-66.0,22.0,19.0,0.218,-0.678,-0.431,-0.554
605953,7676.0,1270.0,-2630.0,-57.0,26.0,27.0,0.218,-0.678,-0.431,-0.554
605966,7660.0,1272.0,-2618.0,-51.0,27.0,29.0,0.218,-0.678,-0.431,-0.554
605989,7726.0,1338.0,-2628.0,-46.0,27.0,33.0,0.218,-0.678,-0.43,-0.554
606002,7680.0,1282.0,-2662.0,-21.0,25.0,23.0,0.218,-0.678,-0.43,-0.554
606025,7672.0,1280.0,-2622.0,-26.0,10.0,20.0,0.218,-0.679,-0.43,-0.554
606038,7692.0,1256.0,-2620.0,-4.0,9.0,2.0,0.218,-0.678,-0.43,-0.554
606051,7684.0,1260.0,-2636.0,-17.0,8.0,-6.0,0.218,-0.678,-0.43,-0.554
606074,7740.0,1252.0,-2602.0,2.0,6.0,-24.0,0.218,-0.678,-0.43,-0.554
606087,7644.0,1288.0,-2608.0,14.0,5.0,-29.0,0.218,-0.678,-0.43,-0.554
606110,7660.0,1270.0,-2554.0,20.0,6.0,-24.0,0.218,-0.678,-0.431,-0.554
606123,7680.0,1250.0,-2484.0,38.0,0.0,-36.0,0.219,-0.678,-0.431,-0.554
606146,7640.0,1278.0,-2678.0,53.0,1.0,-43.0,0.219,-0.677,-0.432,-0.554
606159,7636.0,1310.0,-2576.0,54.0,1.0,-39.0,0.219,-0.677,-0.432,-0.554
606182,7662.0,1266.0,-2604.0,62.0,2.0,-44.0,0.219,-0.677,-0.433,-0.553
606195,7646.0,1256.0,-2612.0,67.0,7.0,-44.0,0.22,-0.676,-0.434,-0.553
606218,7670.0,1316.0,-2564.0,69.0,8.0,-46.0,0.22,-0.676,-0.434,-0.553
606231,7648.0,1322.0,-2540.0,63.0,5.0,-35.0,0.22,-0.676,-0.435,-0.553
606244,7630.0,1326.0,-2592.0,68.0,8.0,-38.0,0.221,-0.675,-0.436,-0.553
606272,7632.0,1314.0,-2572.0,71.0,0.0,-42.0,0.221,-0.675,-0.436,-0.552
606285,7618.0,1354.0,-2524.0,68.0,-2.0,-36.0,0.221,-0.675,-0.437,-0.552
606298,7646.0,1286.0,-2576.0,84.0,10.0,-36.0,0.222,-0.674,-0.438,-0.552
606321,7680.0,1280.0,-2636.0,97.0,12.0,-41.0,0.222,-0.674,-0.439,-0.551
606334,7598.0,1256.0,-2562.0,87.0,6.0,-29.0,0.223,-0.673,-0.439,-0.551
606357,7690.0,1330.0,-2616.0,70.0,3.0,-26.0,0.223,-0.673,-0.44,-0.551
606370,7690.0,1426.0,-2586.0,68.0,-5.0,-24.0,0.224,-0.673,-0.441,-0.55
606393,7710.0,1368.0,-2584.0,49.0,5.0,-23.0,0.224,-0.673,-0.441,-0.55
606406,7654.0,1272.0,-2606.0,51.0,2.0,-25.0,0.224,-0.672,-0.442,-0.55
606419,7658.0,1304.0,-2538.0,36.0,3.0,-28.0,0.224,-0.672,-0.442,-0.55
606442,7674.0,1372.0,-2626.0,36.0,2.0,-39.0,0.225,-0.672,-0.443,-0.55
606455,7662.0,1398.0,-2576.0,21.0,0.0,-29.0,0.225,-0.672,-0.443,-0.55
606478,7680.0,1284.0,-2566.0,17.0,3.0,-35.0,0.225,-0.672,-0.443,-0.55
606491,7614.0,1306.0,-2552.0,16.0,4.0,-35.0,0.225,-0.671,-0.444,-0.55
606514,7638.0,1418.0,-2610.0,12.0,6.0,-31.0,0.225,-0.671,-0.444,-0.55
606527,7600.0,1422.0,-2752.0,-10.0,12.0,-4.0,0.225,-0.671,-0.444,-0.55
606550,7526.0,1702.0,-2692.0,-58.0,0.0,25.0,0.225,-0.671,-0.444,-0.55
606563,7796.0,1186.0,-2504.0,-27.0,19.0,19.0,0.225,-0.671,-0.444,-0.55
606586,7704.0,1262.0,-2614.0,-5.0,8.0,10.0,0.225,-0.671,-0.444,-0.55
606599,7738.0,1362.0,-2562.0,2.0,6.0,9.0,0.225,-0.671,-0.443,-0.55
606612,7672.0,1346.0,-2608.0,-7.0,-12.0,20.0,0.225,-0.671,-0.443,-0.55
606635,7706.0,1338.0,-2552.0,-15.0,-5.0,23.0,0.225,-0.671,-0.443,-0.55
606648,7654.0,1236.0,-2594.0,-16.0,-10.0,15.0,0.225,-0.672,-0.443,-0.549
606671,7606.0,1328.0,-2646.0,-22.0,2.0,10.0,0.225,-0.672,-0.443,-0.549
606684,7570.0,1364.0,-2620.0,-13.0,2.0,7.0,0.225,-0.672,-0.443,-0.549
606707,7594.0,1298.0,-2538.0,-6.0,1.0,3.0,0.225,-0.672,-0.443,-0.549
606720,7680.0,1292.0,-2570.0,10.0,2.0,-5.0,0.225,-0.672,-0.443,-0.549
606743,7578.0,1412.0,-2580.0,21.0,0.0,-7.0,0.225,-0.672,-0.443,-0.549
606756,7650.0,1360.0,-2654.0,3.0,4.0,2.0,0.226,-0.672,-0.443,-0.549
606769,7608.0,1368.0,-2604.0,-3.0,3.0,10.0,0.226,-0.672,-0.443,-0.549
606792,7626.0,1310.0,-2604.0,-11.0,10.0,1.0,0.226,-0.671,-0.444,-0.549
606805,7674.0,1300.0,-2658.0,-7.0,2.0,-8.0,0.226,-0.671,-0.444,-0.549
606828,7652.0,1306.0,-2628.0,-9.0,6.0,-5.0,0.226,-0.671,-0.444,-0.549
606841,7748.0,1326.0,-2562.0,-14.0,7.0,-6.0,0.226,-0.671,-0.444,-0.549
606864,7698.0,1306.0,-2658.0,-16.0,8.0,3.0,0.226,-0.671,-0.444,-0.549
606877,7652.0,1324.0,-2626.0,-9.0,11.0,-1.0,0.226,-0.671,-0.444,-0.549
606900,7602.0,1310.0,-2544.0,-4.0,10.0,14.0,0.226,-0.671,-0.444,-0.549
606913,7658.0,1308.0,-2522.0,5.0,14.0,14.0,0.226,-0.671,-0.444,-0.549
606936,7702.0,1306.0,-2600.0,11.0,16.0,19.0,0.227,-0.671,-0.444,-0.549
606949,7686.0,1260.0,-2616.0,4.0,9.0,13.0,0.227,-0.671,-0.444,-0.549
606962,7574.0,1210.0,-2608.0,-3.0,10.0,15.0,0.227,-0.671,-0.444,-0.549
606985,7690.0,1316.0,-2624.0,-16.0,2.0,17.0,0.227,-0.671,-0.444,-0.549
606998,7662.0,1260.0,-2580.0,-23.0,12.0,16.0,0.227,-0.671,-0.443,-0.549
607021,7790.0,1278.0,-2552.0,-38.0,12.0,21.0,0.227,-0.671,-0.443,-0.549
607034,7770.0,1192.0,-2618.0,-4.0,15.0,21.0,0.228,-0.671,-0.443,-0.549
607057,7684.0,1364.0,-2620.0,-3.0,17.0,13.0,0.228,-0.671,-0.443,-0.549
607070,7664.0,1256.0,-2528.0,-6.0,26.0,21.0,0.228,-0.671,-0.443,-0.549
607093,7668.0,1284.0,-2552.0,25.0,16.0,10.0,0.228,-0.671,-0.443,-0.549
607106,7674.0,1362.0,-2580.0,40.0,15.0,8.0,0.229,-0.671,-0.443,-0.549
607129,7662.0,1262.0,-2640.0,49.0,12.0,2.0,0.229,-0.671,-0.443,-0.549
607142,7594.0,1202.0,-2594.0,59.0,13.0,13.0,0.23,-0.671,-0.443,-0.548
607155,7568.0,1170.0,-2496.0,62.0,7.0,6.0,0.23,-0.671,-0.444,-0.548
607178,7604.0,1276.0,-2490.0,87.0,-3.0,-4.0,0.231,-0.67,-0.444,-0.548
607191,7576.0,1208.0,-2716.0,99.0,3.0,-9.0,0.231,-0.67,-0.445,-0.547
607214,7572.0,1180.0,-2880.0,104.0,1.0,-29.0,0.232,-0.67,-0.446,-0.547
607227,7482.0,1166.0,-2726.0,92.0,0.0,-35.0,0.232,-0.67,-0.446,-0.546
607250,7536.0,1194.0,-2554.0,96.0,-4.0,-40.0,0.233,-0.669,-0.447,-0.546
607263,7646.0,1132.0,-2544.0,107.0,-7.0,-44.0,0.233,-0.669,-0.448,-0.546
607286,7518.0,1160.0,-2710.0,68.0,-18.0,-12.0,0.234,-0.669,-0.448,-0.545
607299,7426.0,1086.0,-2662.0,100.0,3.0,-44.0,0.234,-0.668,-0.449,-0.545
607312,7450.0,1108.0,-2758.0,97.0,2.0,-60.0,0.235,-0.668,-0.45,-0.544
607335,7502.0,1186.0,-2610.0,93.0,1.0,-64.0,0.235,-0.667,-0.451,-0.544
607348,7598.0,1128.0,-2550.0,107.0,-2.0,-57.0,0.235,-0.667,-0.452,-0.544
607371,7600.0,1112.0,-2626.0,144.0,5.0,-78.0,0.236,-0.666,-0.453,-0.543
607384,7514.0,1320.0,-2708.0,167.0,-3.0,-82.0,0.237,-0.666,-0.455,-0.542
607407,7568.0,1246.0,-2698.0,167.0,7.0,-72.0,0.238,-0.665,-0.456,-0.542
607420,7662.0,1196.0,-2708.0,178.0,10.0,-72.0,0.238,-0.664,-0.458,-0.541
607443,7672.0,1260.0,-2666.0,176.0,-2.0,-81.0,0.239,-0.663,-0.459,-0.54
607456,7652.0,1252.0,-2724.0,175.0,3.0,-69.0,0.24,-0.663,-0.46,-0.54
607479,7694.0,1150.0,-2778.0,209.0,15.0,-86.0,0.241,-0.662,-0.462,-0.539
607492,7656.0,1152.0,-2692.0,209.0,6.0,-95.0,0.242,-0.661,-0.464,-0.538
607505,7682.0,1256.0,-2646.0,224.0,6.0,-97.0,0.243,-0.66,-0.465,-0.538
607528,7764.0,1240.0,-2662.0,228.0,11.0,-88.0,0.244,-0.659,-0.467,-0.537
607541,7708.0,1198.0,-2730.0,272.0,26.0,-90.0,0.245,-0.658,-0.469,-0.536
607564,7662.0,1158.0,-2822.0,303.0,26.0,-101.0,0.247,-0.656,-0.471,-0.535
607577,7654.0,1296.0,-2726.0,328.0,23.0,-118.0,0.249,-0.655,-0.474,-0.534
607600,7668.0,1410.0,-2646.0,345.0,11.0,-91.0,0.25,-0.654,-0.476,-0.532
607613,7726.0,1466.0,-2614.0,365.0,1.0,-73.0,0.252,-0.652,-0.478,-0.531
607636,7676.0,1442.0,-2682.0,414.0,-5.0,-70.0,0.255,-0.651,-0.481,-0.529
607649,7592.0,1544.0,-2664.0,404.0,-34.0,-46.0,0.257,-0.65,-0.483,-0.527
607672,7600.0,1376.0,-2706.0,382.0,-48.0,-11.0,0.259,-0.649,-0.486,-0.525
607685,7654.0,1508.0,-2680.0,368.0,-70.0,-6.0,0.261,-0.648,-0.488,-0.523
607698,7648.0,1584.0,-2858.0,331.0,-85.0,22.0,0.263,-0.648,-0.49,-0.521
607721,7616.0,1440.0,-2698.0,294.0,-85.0,44.0,0.264,-0.648,-0.491,-0.519
607734,7566.0,1392.0,-2654.0,256.0,-89.0,65.0,0.266,-0.648,-0.492,-0.517
607757,7584.0,1458.0,-2748.0,240.0,-99.0,57.0,0.267,-0.648,-0.493,-0.515
607770,7602.0,1524.0,-2720.0,185.0,-100.0,80.0,0.268,-0.648,-0.494,-0.513
607793,7582.0,1498.0,-2708.0,132.0,-101.0,112.0,0.269,-0.649,-0.495,-0.512
607806,7574.0,1456.0,-2634.0,75.0,-101.0,133.0,0.27,-0.65,-0.494,-0.511
607829,7584.0,1378.0,-2818.0,14.0,-93.0,131.0,0.27,-0.651,-0.494,-0.51
607842,7686.0,1492.0,-2854.0,6.0,-77.0,102.0,0.27,-0.651,-0.494,-0.509
607855,7578.0,1424.0,-2852.0,-27.0,-74.0,91.0,0.27,-0.652,-0.493,-0.508
607878,7676.0,1454.0,-2844.0,-60.0,-64.0,69.0,0.27,-0.653,-0.493,-0.508
607891,7782.0,1404.0,-2810.0,-88.0,-59.0,47.0,0.269,-0.654,-0.492,-0.508
607914,7706.0,1514.0,-2788.0,-132.0,-57.0,31.0,0.268,-0.654,-0.492,-0.508
607927,7792.0,1132.0,-2882.0,-159.0,-29.0,13.0,0.268,-0.655,-0.491,-0.508
607950,7800.0,1208.0,-3030.0,-176.0,-15.0,-38.0,0.266,-0.655,-0.491,-0.509
607963,7732.0,988.0,-3092.0,-205.0,17.0,-71.0,0.265,-0.655,-0.49,-0.51
607986,7778.0,988.0,-2974.0,-217.0,41.0,-114.0,0.263,-0.655,-0.49,-0.512
607999,7866.0,922.0,-2772.0,-235.0,55.0,-125.0,0.262,-0.654,-0.49,-0.513
608022,7766.0,880.0,-2758.0,-244.0,78.0,-128.0,0.26,-0.654,-0.489,-0.515
608035,7840.0,1006.0,-2852.0,-285.0,85.0,-120.0,0.258,-0.654,-0.488,-0.517
608048,7800.0,924.0,-2788.0,-326.0,82.0,-88.0,0.256,-0.654,-0.487,-0.519
608071,7818.0,794.0,-2782.0,-376.0,86.0,-51.0,0.254,-0.654,-0.485,-0.521
608084,7790.0,314.0,-2750.0,-358.0,136.0,-68.0,0.253,-0.654,-0.484,-0.524
608107,7434.0,128.0,-2922.0,-319.0,268.0,-96.0,0.252,-0.653,-0.482,-0.527
608120,7600.0,412.0,-2930.0,-238.0,361.0,-157.0,0.251,-0.651,-0.481,-0.531
608143,8194.0,926.0,-2826.0,-202.0,356.0,-214.0,0.251,-0.649,-0.48,-0.534
608156,7980.0,580.0,-2660.0,-143.0,418.0,-214.0,0.251,-0.646,-0.48,-0.537
608179,8108.0,960.0,-2328.0,-57.0,384.0,-234.0,0.251,-0.643,-0.48,-0.541
608192,8464.0,850.0,-2040.0,-8.0,362.0,-302.0,0.252,-0.64,-0.481,-0.543
608215,8036.0,1252.0,-1908.0,97.0,383.0,-321.0,0.253,-0.636,-0.483,-0.546
608228,8104.0,1584.0,-1948.0,219.0,387.0,-355.0,0.254,-0.632,-0.485,-0.548
608241,7774.0,1704.0,-2284.0,202.0,379.0,-357.0,0.255,-0.628,-0.487,-0.55
608264,7602.0,1770.0,-2272.0,168.0,392.0,-359.0,0.256,-0.624,-0.489,-0.553
608282,7420.0,1988.0,-2264.0,77.0,385.0,-364.0,0.257,-0.62,-0.491,-0.555
608295,7488.0,2166.0,-2304.0,-24.0,340.0,-419.0,0.256,-0.617,-0.493,-0.558
608318,7508.0,2378.0,-2224.0,-125.0,266.0,-432.0,0.254,-0.613,-0.494,-0.561
608331,7546.0,2436.0,-2088.0,-204.0,255.0,-411.0,0.252,-0.61,-0.495,-0.565
608354,7486.0,2494.0,-2160.0,-279.0,232.0,-386.0,0.25,-0.608,-0.496,-0.568
608367,7546.0,2564.0,-2252.0,-372.0,202.0,-358.0,0.246,-0.606,-0.495,-0.572
608390,7490.0,2604.0,-2260.0,-433.0,158.0,-318.0,0.243,-0.604,-0.495,-0.575
608403,7516.0,2692.0,-2360.0,-490.0,150.0,-273.0,0.24,-0.603,-0.494,-0.579
608416,7382.0,2298.0,-2410.0,-511.0,157.0,-236.0,0.236,-0.603,-0.492,-0.582
608439,7400.0,2412.0,-2416.0,-522.0,130.0,-261.0,0.233,-0.602,-0.491,-0.586
608452,7294.0,2202.0,-2278.0,-632.0,90.0,-253.0,0.228,-0.601,-0.488,-0.59
608475,7482.0,2184.0,-2202.0,-619.0,116.0,-263.0,0.224,-0.601,-0.487,-0.593
608488,7626.0,2584.0,-2280.0,-572.0,75.0,-313.0,0.22,-0.6,-0.485,-0.597
608511,7450.0,2096.0,-2266.0,-558.0,55.0,-328.0,0.215,-0.599,-0.484,-0.6
608524,7464.0,2082.0,-2024.0,-549.0,39.0,-353.0,0.21,-0.599,-0.483,-0.603
608547,7696.0,2432.0,-2070.0,-423.0,3.0,-420.0,0.206,-0.598,-0.483,-0.606
608560,7596.0,2638.0,-2176.0,-398.0,-69.0,-425.0,0.201,-0.597,-0.484,-0.608
608583,7418.0,2358.0,-2260.0,-390.0,-100.0,-411.0,0.196,-0.596,-0.484,-0.61
608596,7262.0,2096.0,-2384.0,-324.0,-115.0,-415.0,0.192,-0.596,-0.485,-0.611
608609,7034.0,2578.0,-2218.0,-259.0,-175.0,-422.0,0.188,-0.595,-0.486,-0.612
608632,7134.0,2784.0,-1990.0,-264.0,-226.0,-400.0,0.183,-0.595,-0.488,-0.612
608645,7408.0,2746.0,-1760.0,-249.0,-257.0,-370.0,0.179,-0.595,-0.489,-0.612
608668,7202.0,2740.0,-1718.0,-113.0,-265.0,-346.0,0.175,-0.595,-0.491,-0.612
608681,7004.0,2624.0,-2128.0,-52.0,-276.0,-346.0,0.172,-0.595,-0.493,-0.611
608704,6532.0,2342.0,-2536.0,10.0,-185.0,-321.0,0.169,-0.595,-0.495,-0.61
608717,6522.0,2872.0,-2100.0,65.0,-141.0,-307.0,0.167,-0.594,-0.498,-0.609
608740,7140.0,2950.0,-1570.0,0.0,-94.0,-252.0,0.166,-0.593,-0.5,-0.609
608753,7246.0,2494.0,-1138.0,85.0,9.0,-162.0,0.166,-0.592,-0.501,-0.609
608766,7182.0,2516.0,-1140.0,281.0,96.0,-158.0,0.167,-0.59,-0.503,-0.608
608789,7264.0,2382.0,-1358.0,456.0,158.0,-217.0,0.17,-0.588,-0.507,-0.607
608802,7490.0,2328.0,-1234.0,644.0,254.0,-282.0,0.173,-0.584,-0.512,-0.606
608825,7486.0,2956.0,-1248.0,731.0,414.0,-275.0,0.178,-0.579,-0.517,-0.605
608838,7538.0,3336.0,-1984.0,789.0,844.0,-309.0,0.185,-0.571,-0.522,-0.607
608861,7086.0,3192.0,-1842.0,904.0,894.0,-232.0,0.193,-0.563,-0.527,-0.607
608874,7832.0,1776.0,-774.0,1286.0,1097.0,-410.0,0.203,-0.552,-0.534,-0.607
608897,7300.0,2840.0,-1394.0,1721.0,1355.0,-695.0,0.215,-0.538,-0.545,-0.607
608910,6540.0,5528.0,-1446.0,1945.0,1193.0,-708.0,0.226,-0.523,-0.557,-0.604
608933,8860.0,7598.0,2192.0,1831.0,1846.0,-749.0,0.241,-0.504,-0.567,-0.605
608946,8392.0,4852.0,-932.0,1551.0,1801.0,-1500.0,0.25,-0.482,-0.579,-0.608
608959,8672.0,6850.0,-520.0,1796.0,1770.0,-1840.0,0.257,-0.458,-0.593,-0.61
608982,7972.0,8256.0,-448.0,1713.0,1444.0,-2411.0,0.259,-0.432,-0.61,-0.612
608995,8104.0,8820.0,-1070.0,1921.0,1375.0,-2185.0,0.262,-0.406,-0.626,-0.612
609018,7492.0,9410.0,-434.0,2001.0,1005.0,-2407.0,0.262,-0.381,-0.644,-0.609
609031,6782.0,9698.0,178.0,1886.0,374.0,-2394.0,0.258,-0.359,-0.662,-0.605
609054,6652.0,10056.0,-694.0,1815.0,-363.0,-2609.0,0.247,-0.34,-0.682,-0.598
609067,6066.0,8424.0,-2124.0,1749.0,-820.0,-2967.0,0.231,-0.321,-0.703,-0.591
609090,5612.0,9206.0,-3556.0,1684.0,-867.0,-3372.0,0.212,-0.3,-0.724,-0.584
609103,5828.0,9086.0,-3946.0,1823.0,-1076.0,-3767.0,0.189,-0.276,-0.746,-0.575
609116,4970.0,9060.0,-3870.0,1643.0,-900.0,-3866.0,0.167,-0.25,-0.766,-0.568
609139,4346.0,8452.0,-4914.0,1632.0,-848.0,-4008.0,0.144,-0.223,-0.785,-0.56
609152,4106.0,7726.0,-5956.0,1612.0,-860.0,-4118.0,0.119,-0.194,-0.802,-0.551
609175,3484.0,7946.0,-6108.0,1774.0,-1035.0,-4354.0,0.093,-0.164,-0.82,-0.541
609188,3442.0,8564.0,-6218.0,1864.0,-1421.0,-4363.0,0.063,-0.136,-0.836,-0.527
609211,2736.0,8394.0,-7380.0,1806.0,-1671.0,-4172.0,0.032,-0.11,-0.851,-0.513
609224,2464.0,8888.0,-6584.0,1539.0,-2016.0,-4062.0,0.003,0.087,0.862,0.499
609247,2616.0,5632.0,-7976.0,1585.0,-1958.0,-3790.0,0.034,0.065,0.872,0.485
609260,1602.0,7544.0,-6756.0,1364.0,-2432.0,-3806.0,0.07,0.045,0.879,0.47
609283,1686.0,5892.0,-6918.0,1294.0,-2480.0,-3480.0,0.105,0.029,0.883,0.456
609296,1336.0,5406.0,-6686.0,1368.0,-2456.0,-3434.0,0.139,0.012,0.887,0.44
609319,62.0,4482.0,-6692.0,1312.0,-2298.0,-3140.0,0.17,-0.002,0.89,0.424
609332,1184.0,5362.0,-5600.0,1350.0,-2298.0,-3131.0,0.2,-0.017,0.891,0.408
609345,-38.0,5230.0,-4472.0,1222.0,-2299.0,-2864.0,0.23,-0.029,0.89,0.392
609368,196.0,4626.0,-4352.0,1164.0,-2347.0,-2549.0,0.259,-0.039,0.888,0.377
609381,-346.0,3190.0,-4642.0,1094.0,-2117.0,-2308.0,0.285,-0.048,0.886,0.363
609404,-356.0,4106.0,-3968.0,1078.0,-1903.0,-2065.0,0.309,-0.055,0.883,0.349
609417,-1072.0,3960.0,-3180.0,1006.0,-1945.0,-1693.0,0.331,-0.06,0.88,0.337
609440,-1506.0,3744.0,-2480.0,858.0,-2002.0,-1538.0,0.352,-0.063,0.875,0.326
609453,-1852.0,2856.0,-2346.0,693.0,-1797.0,-1325.0,0.372,-0.066,0.87,0.317
609476,-2186.0,3154.0,-1356.0,628.0,-1543.0,-1171.0,0.388,-0.068,0.866,0.309
609489,-2388.0,3268.0,-910.0,485.0,-1257.0,-967.0,0.401,-0.07,0.862,0.302
609502,-2708.0,2530.0,-488.0,282.0,-937.0,-763.0,0.411,-0.072,0.859,0.297
609525,-2946.0,2108.0,-486.0,193.0,-491.0,-624.0,0.417,-0.075,0.857,0.293
609538,-3156.0,2474.0,162.0,176.0,-125.0,-444.0,0.42,-0.077,0.857,0.29
609561,-3420.0,3060.0,1352.0,40.0,82.0,-218.0,0.42,-0.078,0.857,0.288
609574,-3316.0,2584.0,772.0,-98.0,284.0,45.0,0.418,-0.078,0.858,0.289
609597,-3516.0,2014.0,-278.0,-190.0,689.0,251.0,0.411,-0.078,0.86,0.291
609610,-3294.0,1948.0,-522.0,-103.0,1141.0,361.0,0.401,-0.078,0.865,0.292
609633,-3026.0,1960.0,-1104.0,28.0,1605.0,469.0,0.387,-0.078,0.871,0.292
609646,-2972.0,2630.0,-706.0,241.0,1943.0,607.0,0.37,-0.077,0.879,0.29
609659,-2542.0,3278.0,-800.0,266.0,2105.0,769.0,0.351,-0.075,0.887,0.289
609682,-2574.0,2872.0,-1728.0,38.0,2318.0,985.0,0.329,-0.072,0.896,0.29
609705,-2484.0,1696.0,-2990.0,44.0,2709.0,1031.0,0.304,-0.07,0.905,0.291
609718,-2060.0,2886.0,-2898.0,217.0,2893.0,1048.0,0.277,-0.068,0.914,0.29
609731,-1406.0,4162.0,-2668.0,73.0,2740.0,1076.0,0.251,-0.066,0.921,0.29
609754,-1040.0,3552.0,-3880.0,-250.0,2752.0,1245.0,0.224,-0.063,0.927,0.293
609767,-892.0,2646.0,-5306.0,-458.0,3010.0,1332.0,0.194,-0.06,0.933,0.298
609790,-686.0,4074.0,-4308.0,-486.0,2960.0,1389.0,0.164,-0.057,0.937,0.303
609803,538.0,4156.0,-7448.0,-570.0,3080.0,1443.0,0.132,-0.053,0.941,0.308
609826,558.0,5572.0,-6742.0,-490.0,3062.0,1580.0,0.1,-0.048,0.943,0.312
609839,890.0,4126.0,-8486.0,-589.0,3187.0,1549.0,0.067,-0.044,0.945,0.317
609852,332.0,2640.0,-7960.0,-197.0,3290.0,1577.0,0.033,-0.04,0.947,0.318
609875,1302.0,5070.0,-8496.0,-99.0,3106.0,1457.0,0.002,-0.036,0.947,0.318
609888,2118.0,5636.0,-7988.0,-83.0,3061.0,1497.0,0.03,0.031,-0.947,-0.318
609911,1948.0,5874.0,-8756.0,-245.0,2918.0,1728.0,0.061,0.025,-0.946,-0.318
609924,2258.0,4612.0,-8968.0,-285.0,2913.0,1691.0,0.092,0.018,-0.943,-0.319
609947,2556.0,5076.0,-8262.0,-184.0,2777.0,1672.0,0.121,0.012,-0.94,-0.318
609960,3092.0,6036.0,-8248.0,-171.0,2603.0,1548.0,0.149,0.006,-0.936,-0.318
609983,4242.0,6200.0,-10858.0,-105.0,2630.0,1397.0,0.176,0.002,-0.932,-0.316
609996,3936.0,6434.0,-8264.0,-55.0,2697.0,1635.0,0.204,-0.004,-0.927,-0.314
610019,4394.0,5320.0,-9098.0,-200.0,2454.0,1418.0,0.229,-0.01,-0.922,-0.313
610032,4812.0,5674.0,-7968.0,-206.0,2198.0,1336.0,0.252,-0.015,-0.916,-0.312
610055,5210.0,5646.0,-9948.0,-88.0,2069.0,1281.0,0.274,-0.019,-0.91,-0.31
610068,5372.0,6476.0,-8650.0,45.0,1949.0,1187.0,0.294,-0.023,-0.905,-0.306
610081,5374.0,6104.0,-8104.0,16.0,1675.0,1178.0,0.311,-0.028,-0.9,-0.303
610104,5456.0,5678.0,-8586.0,10.0,1250.0,1004.0,0.325,-0.032,-0.896,-0.3
610117,5932.0,5830.0,-9938.0,127.0,957.0,705.0,0.335,-0.035,-0.893,-0.297
610140,5506.0,6124.0,-9086.0,231.0,669.0,575.0,0.343,-0.036,-0.892,-0.293
610153,5340.0,6004.0,-9160.0,223.0,313.0,315.0,0.346,-0.037,-0.891,-0.29
610176,5244.0,4880.0,-8350.0,312.0,22.0,173.0,0.347,-0.036,-0.892,-0.287
610189,4654.0,5856.0,-9654.0,330.0,-399.0,-104.0,0.344,-0.035,-0.894,-0.284
610202,4604.0,5304.0,-9852.0,476.0,-631.0,-265.0,0.338,-0.032,-0.898,-0.281
610225,4256.0,5906.0,-9582.0,591.0,-1046.0,-506.0,0.329,-0.028,-0.903,-0.277
610238,4552.0,4970.0,-10434.0,627.0,-1353.0,-767.0,0.316,-0.023,-0.908,-0.273
610261,4182.0,5642.0,-10212.0,807.0,-1715.0,-973.0,0.299,-0.016,-0.916,-0.269
610274,4304.0,5436.0,-11216.0,712.0,-2131.0,-1171.0,0.278,-0.008,-0.923,-0.265
610292,4246.0,5420.0,-11784.0,694.0,-2494.0,-1266.0,0.253,-0.001,-0.931,-0.262
610315,4290.0,6010.0,-11666.0,600.0,-2888.0,-1335.0,0.225,0.005,-0.939,-0.26
610328,4270.0,4856.0,-12242.0,508.0,-3175.0,-1302.0,0.194,0.011,-0.946,-0.258
610351,4116.0,5544.0,-11700.0,405.0,-3504.0,-1396.0,0.16,0.016,-0.953,-0.257
610364,4484.0,5052.0,-11766.0,347.0,-3684.0,-1245.0,0.124,0.019,-0.958,-0.256
610387,2830.0,5922.0,-11134.0,123.0,-4005.0,-1104.0,0.086,0.02,-0.962,-0.257
610400,2726.0,4972.0,-10040.0,-106.0,-4375.0,-1031.0,0.044,0.019,-0.965,-0.259
610423,1862.0,3276.0,-9596.0,-90.0,-4251.0,-1050.0,0.004,0.019,-0.965,-0.261
610436,1198.0,4574.0,-7794.0,13.0,-4276.0,-960.0,0.037,-0.017,0.964,0.261
610449,1374.0,4822.0,-7890.0,-256.0,-4376.0,-928.0,0.079,-0.015,0.961,0.264
610472,1350.0,3426.0,-7718.0,-325.0,-3891.0,-873.0,0.115,-0.014,0.957,0.266
610485,1314.0,2938.0,-6402.0,-207.0,-3833.0,-901.0,0.151,-0.012,0.952,0.267
610508,1036.0,3136.0,-4708.0,-157.0,-3738.0,-913.0,0.187,-0.011,0.945,0.268
610521,996.0,3116.0,-4456.0,-325.0,-3613.0,-841.0,0.22,-0.01,0.937,0.269
610544,1038.0,2498.0,-4476.0,-424.0,-3385.0,-777.0,0.252,-0.009,0.929,0.272
610557,1022.0,2676.0,-2644.0,-307.0,-3100.0,-722.0,0.28,-0.008,0.92,0.273
610570,724.0,3020.0,-2130.0,-288.0,-2789.0,-613.0,0.306,-0.007,0.912,0.274
610593,-130.0,2886.0,-1396.0,-244.0,-2452.0,-470.0,0.328,-0.005,0.904,0.274
610606,-722.0,2244.0,-1130.0,-332.0,-2196.0,-417.0,0.348,-0.003,0.896,0.276
610629,-960.0,1980.0,-1784.0,-212.0,-1694.0,-383.0,0.363,-0.003,0.89,0.276
610642,-1494.0,2208.0,-820.0,-15.0,-1299.0,-242.0,0.374,-0.001,0.886,0.275
610665,-1904.0,2156.0,-392.0,45.0,-954.0,-185.0,0.383,0.001,0.882,0.274
610678,-2028.0,2108.0,-712.0,77.0,-446.0,-161.0,0.387,0.001,0.881,0.272
610701,-2174.0,2054.0,-504.0,291.0,19.0,-73.0,0.387,0.002,0.882,0.27
610714,-2546.0,2150.0,-498.0,312.0,422.0,13.0,0.384,0.003,0.884,0.267
610737,-2580.0,2140.0,-548.0,409.0,870.0,114.0,0.377,0.004,0.888,0.264
610750,-2408.0,2622.0,-428.0,468.0,1231.0,265.0,0.366,0.005,0.893,0.26
610763,-2278.0,2684.0,-1076.0,548.0,1685.0,444.0,0.351,0.007,0.9,0.257
610786,-2290.0,2990.0,-1228.0,594.0,1943.0,610.0,0.333,0.01,0.908,0.254
610799,-2286.0,2048.0,-2348.0,560.0,2363.0,688.0,0.311,0.013,0.916,0.251
610822,-2544.0,1712.0,-3658.0,713.0,2729.0,693.0,0.286,0.015,0.925,0.247
610835,-2552.0,3030.0,-2986.0,1049.0,2654.0,693.0,0.262,0.018,0.935,0.24
610858,-2102.0,4362.0,-2428.0,880.0,2283.0,650.0,0.24,0.022,0.942,0.234
610871,-518.0,2970.0,-5302.0,387.0,2430.0,656.0,0.218,0.023,0.948,0.233
610894,-1152.0,670.0,-7600.0,428.0,3369.0,721.0,0.186,0.024,0.955,0.23
610907,-1152.0,2914.0,-7204.0,1134.0,3400.0,583.0,0.154,0.024,0.963,0.222
610929,-1022.0,5358.0,-3974.0,873.0,2622.0,451.0,0.129,0.024,0.968,0.215
610942,298.0,3540.0,-6782.0,216.0,2569.0,447.0,0.105,0.024,0.971,0.214
610965,346.0,2342.0,-10576.0,253.0,3023.0,634.0,0.076,0.024,0.974,0.213
610978,216.0,2358.0,-9268.0,388.0,2856.0,535.0,0.049,0.024,0.976,0.21
610991,510.0,2492.0,-7598.0,481.0,2648.0,454.0,0.024,0.023,0.978,0.207
611014,1108.0,3232.0,-8444.0,502.0,2701.0,355.0,0.002,-0.022,-0.979,-0.203
611027,1206.0,4234.0,-8808.0,410.0,2552.0,501.0,0.026,-0.022,-0.979,-0.199
611050,1494.0,3558.0,-8278.0,16.0,2450.0,626.0,0.05,-0.023,-0.978,-0.199
611063,1286.0,994.0,-10956.0,-58.0,2566.0,478.0,0.074,-0.022,-0.977,-0.2
611086,1838.0,3450.0,-9402.0,293.0,2531.0,461.0,0.098,-0.022,-0.975,-0.198
611099,2502.0,3764.0,-7820.0,191.0,2346.0,449.0,0.12,-0.021,-0.973,-0.196
611122,2364.0,3596.0,-8982.0,21.0,2187.0,479.0,0.141,-0.021,-0.97,-0.196
611135,2734.0,3376.0,-10602.0,-22.0,2188.0,485.0,0.161,-0.021,-0.967,-0.196
611148,3356.0,3982.0,-9706.0,-29.0,2104.0,506.0,0.181,-0.022,-0.964,-0.195
611171,3602.0,3512.0,-9478.0,-202.0,2025.0,503.0,0.2,-0.023,-0.959,-0.197
611184,3700.0,2672.0,-10544.0,-116.0,2045.0,277.0,0.219,-0.022,-0.955,-0.198
611207,4138.0,3970.0,-9692.0,-68.0,1979.0,397.0,0.238,-0.021,-0.951,-0.198
611220,4472.0,4284.0,-9500.0,-180.0,1747.0,257.0,0.254,-0.02,-0.946,-0.199
611243,4746.0,3906.0,-9488.0,-244.0,1515.0,341.0,0.268,-0.021,-0.942,-0.2
611256,4480.0,3506.0,-10882.0,-158.0,1279.0,189.0,0.279,-0.02,-0.939,-0.201
611279,4414.0,4058.0,-11244.0,122.0,1093.0,17.0,0.289,-0.017,-0.936,-0.2
611292,5120.0,4568.0,-11162.0,205.0,783.0,-224.0,0.296,-0.013,-0.934,-0.199
611315,4998.0,4194.0,-9648.0,155.0,430.0,-270.0,0.299,-0.009,-0.933,-0.198
611328,4590.0,4442.0,-10140.0,103.0,-59.0,-397.0,0.298,-0.004,-0.934,-0.198
611341,4030.0,4360.0,-10308.0,50.0,-437.0,-295.0,0.294,-0.002,-0.935,-0.199
611364,4310.0,3096.0,-10722.0,87.0,-745.0,-356.0,0.286,0.001,-0.937,-0.199
611377,3808.0,3738.0,-10894.0,210.0,-1134.0,-489.0,0.276,0.004,-0.941,-0.198
611400,3784.0,3912.0,-11064.0,311.0,-1399.0,-599.0,0.262,0.008,-0.945,-0.197
611413,3626.0,3876.0,-10884.0,305.0,-1725.0,-593.0,0.246,0.011,-0.949,-0.195
611436,4142.0,3874.0,-10772.0,210.0,-2166.0,-699.0,0.226,0.014,-0.954,-0.195
611449,3804.0,3010.0,-11406.0,224.0,-2417.0,-699.0,0.203,0.017,-0.959,-0.195
611472,3822.0,3426.0,-11520.0,160.0,-2773.0,-850.0,0.177,0.021,-0.965,-0.195
611485,3346.0,3356.0,-10716.0,254.0,-2972.0,-815.0,0.148,0.023,-0.969,-0.195
611508,2994.0,4012.0,-11226.0,108.0,-3301.0,-828.0,0.117,0.025,-0.973,-0.195
611521,2678.0,3150.0,-11388.0,39.0,-3426.0,-779.0,0.085,0.027,-0.976,-0.197
611544,2476.0,3494.0,-10682.0,11.0,-3584.0,-763.0,0.051,0.027,-0.979,-0.198
611557,1992.0,3860.0,-9512.0,-102.0,-3718.0,-671.0,0.015,0.027,-0.979,-0.2
611570,1214.0,2534.0,-9878.0,-66.0,-3685.0,-682.0,0.019,-0.026,0.979,0.201
611593,1270.0,3736.0,-8710.0,-190.0,-3451.0,-632.0,0.052,-0.026,0.977,0.204
611606,1932.0,2868.0,-8026.0,-186.0,-2811.0,-684.0,0.078,-0.027,0.975,0.206
611629,1062.0,3178.0,-7466.0,-132.0,-2518.0,-676.0,0.102,-0.028,0.973,0.207
611642,508.0,2592.0,-6636.0,-235.0,-2423.0,-551.0,0.125,-0.028,0.97,0.209
611665,272.0,1654.0,-6004.0,-280.0,-2752.0,-656.0,0.151,-0.029,0.965,0.211
611678,-428.0,2688.0,-4048.0,-319.0,-3026.0,-558.0,0.179,-0.028,0.96,0.214
611691,42.0,2476.0,-3772.0,-543.0,-2963.0,-692.0,0.207,-0.029,0.953,0.219
611714,-540.0,1298.0,-3556.0,-582.0,-2665.0,-536.0,0.231,-0.03,0.946,0.223
611737,-1126.0,2530.0,-3146.0,-487.0,-2558.0,-496.0,0.255,-0.029,0.939,0.227
611750,-1216.0,1600.0,-2444.0,-502.0,-2278.0,-450.0,0.276,-0.029,0.933,0.231
611763,-1740.0,1316.0,-1928.0,-465.0,-2006.0,-397.0,0.294,-0.029,0.926,0.234
611786,-1850.0,1716.0,-1814.0,-508.0,-1691.0,-311.0,0.309,-0.029,0.92,0.238
611799,-1846.0,1416.0,-1644.0,-498.0,-1243.0,-208.0,0.32,-0.029,0.915,0.242
611822,-2098.0,1492.0,-1426.0,-363.0,-835.0,-130.0,0.328,-0.029,0.912,0.245
611835,-2070.0,1762.0,-1258.0,-351.0,-414.0,-110.0,0.331,-0.03,0.91,0.247
611858,-2396.0,2102.0,-1132.0,-250.0,5.0,-6.0,0.331,-0.03,0.909,0.249
611871,-2344.0,1880.0,-1166.0,-60.0,423.0,95.0,0.328,-0.03,0.911,0.25
611884,-2174.0,1658.0,-1910.0,99.0,855.0,160.0,0.32,-0.03,0.914,0.249
611907,-2116.0,1986.0,-3160.0,258.0,1422.0,251.0,0.308,-0.03,0.918,0.247
611920,-2544.0,2042.0,-2544.0,545.0,1758.0,340.0,0.292,-0.029,0.925,0.243
611943,-2206.0,2994.0,-3418.0,422.0,2013.0,257.0,0.274,-0.029,0.931,0.239
611956,-2210.0,2004.0,-3862.0,404.0,2576.0,269.0,0.252,-0.031,0.938,0.235
611979,-2608.0,2394.0,-3916.0,758.0,2911.0,341.0,0.226,-0.032,0.947,0.228
611992,-2346.0,2940.0,-3184.0,907.0,2707.0,387.0,0.201,-0.032,0.954,0.22
612015,-2352.0,3650.0,-3512.0,674.0,2399.0,387.0,0.179,-0.032,0.96,0.214
612028,-1616.0,2838.0,-5186.0,492.0,2575.0,458.0,0.156,-0.032,0.965,0.209
612051,-1484.0,2056.0,-6480.0,943.0,2573.0,643.0,0.131,-0.029,0.97,0.201
612064,-1310.0,3606.0,-5522.0,909.0,2046.0,564.0,0.112,-0.026,0.974,0.193
612087,44.0,2916.0,-6934.0,471.0,2009.0,444.0,0.093,-0.025,0.977,0.188
612100,124.0,2372.0,-7780.0,289.0,2123.0,617.0,0.072,-0.022,0.98,0.186
612113,336.0,2186.0,-8896.0,324.0,2303.0,590.0,0.05,-0.02,0.982,0.183
612136,570.0,1958.0,-8728.0,563.0,2235.0,498.0,0.029,-0.019,0.984,0.177
612149,542.0,3408.0,-8640.0,489.0,2093.0,487.0,0.009,-0.018,0.985,0.172
612172,1290.0,1774.0,-6922.0,256.0,2109.0,539.0,0.011,0.016,-0.985,-0.169
612185,652.0,3170.0,-8608.0,338.0,2006.0,634.0,0.031,0.013,-0.986,-0.166
612208,1820.0,3514.0,-9414.0,141.0,1862.0,611.0,0.049,0.011,-0.985,-0.164
612221,2000.0,2830.0,-10488.0,-116.0,2086.0,654.0,0.069,0.008,-0.984,-0.165
612234,1680.0,1444.0,-8826.0,130.0,2194.0,620.0,0.09,0.005,-0.983,-0.163
612257,1498.0,3292.0,-7302.0,158.0,2020.0,617.0,0.109,0.003,-0.981,-0.161
612270,2072.0,4024.0,-8410.0,-333.0,1837.0,658.0,0.127,-0.001,-0.978,-0.163
612298,2894.0,2266.0,-12698.0,-551.0,2007.0,479.0,0.146,-0.002,-0.975,-0.168
612311,3452.0,2736.0,-10790.0,-270.0,2179.0,508.0,0.167,-0.004,-0.971,-0.169
612324,3118.0,3540.0,-7306.0,-250.0,2282.0,575.0,0.188,-0.006,-0.967,-0.171
612347,2838.0,3986.0,-7718.0,-540.0,1839.0,514.0,0.206,-0.008,-0.963,-0.175
612360,3904.0,3052.0,-11762.0,-838.0,1586.0,377.0,0.22,-0.01,-0.958,-0.182
612383,4320.0,3300.0,-10786.0,-570.0,1668.0,440.0,0.236,-0.012,-0.954,-0.186
612396,3660.0,3058.0,-9230.0,-416.0,1710.0,529.0,0.252,-0.015,-0.949,-0.189
612419,4370.0,2904.0,-10960.0,-272.0,1248.0,89.0,0.263,-0.013,-0.946,-0.191
612432,4542.0,4738.0,-11040.0,-105.0,950.0,41.0,0.272,-0.012,-0.943,-0.192
612445,4646.0,5320.0,-11658.0,-244.0,436.0,59.0,0.276,-0.012,-0.941,-0.194
612468,4632.0,3962.0,-11940.0,-340.0,4.0,17.0,0.276,-0.012,-0.941,-0.196
612481,4060.0,3812.0,-11388.0,-117.0,-296.0,-21.0,0.273,-0.013,-0.941,-0.197
612504,3662.0,4726.0,-11394.0,-83.0,-930.0,-105.0,0.265,-0.013,-0.944,-0.198
612517,3348.0,4146.0,-12060.0,-110.0,-1259.0,-58.0,0.254,-0.015,-0.946,-0.199
612540,3500.0,3284.0,-12028.0,7.0,-1562.0,-188.0,0.24,-0.015,-0.95,-0.199
612553,2978.0,4184.0,-12064.0,120.0,-1895.0,-343.0,0.223,-0.015,-0.954,-0.198
612576,3502.0,3436.0,-12900.0,125.0,-2211.0,-576.0,0.202,-0.013,-0.959,-0.198
612589,3078.0,4016.0,-10556.0,277.0,-2438.0,-569.0,0.179,-0.012,-0.964,-0.196
612602,2846.0,3532.0,-12286.0,224.0,-2810.0,-823.0,0.152,-0.009,-0.969,-0.195
612625,3024.0,3698.0,-12170.0,294.0,-2864.0,-830.0,0.125,-0.006,-0.973,-0.193
612638,2040.0,3330.0,-10918.0,312.0,-3016.0,-832.0,0.096,-0.003,-0.977,-0.191
612661,1926.0,3666.0,-10842.0,372.0,-3344.0,-1029.0,0.064,0.001,-0.98,-0.188
612674,1416.0,3316.0,-10292.0,357.0,-3386.0,-898.0,0.031,0.004,-0.982,-0.185
612697,1212.0,3524.0,-10066.0,305.0,-3622.0,-962.0,0.004,-0.006,0.983,0.183
612710,816.0,2968.0,-8844.0,357.0,-3613.0,-895.0,0.038,-0.009,0.983,0.18
612733,124.0,2990.0,-8490.0,333.0,-3749.0,-857.0,0.073,-0.01,0.981,0.177
612746,-398.0,3266.0,-7498.0,195.0,-3839.0,-620.0,0.109,-0.009,0.978,0.175
612769,390.0,2004.0,-7426.0,-20.0,-3595.0,-730.0,0.143,-0.01,0.974,0.174
612782,-114.0,3066.0,-7048.0,-74.0,-3214.0,-536.0,0.172,-0.01,0.969,0.175
612795,-216.0,2466.0,-6424.0,-208.0,-3561.0,-417.0,0.205,-0.008,0.963,0.176
612818,-98.0,1936.0,-5132.0,-209.0,-3379.0,-385.0,0.236,-0.006,0.955,0.177
612831,-92.0,2134.0,-4674.0,-250.0,-3087.0,-354.0,0.264,-0.004,0.948,0.179
612854,-328.0,1724.0,-3840.0,-285.0,-2709.0,-305.0,0.288,-0.003,0.94,0.18
612867,-874.0,1588.0,-2826.0,-268.0,-2423.0,-220.0,0.31,-0.001,0.933,0.182
612890,-1402.0,1368.0,-2550.0,-345.0,-2163.0,-179.0,0.329,0.0,0.926,0.184
612903,-1682.0,1150.0,-2078.0,-389.0,-1857.0,-145.0,0.345,0.001,0.92,0.187
612926,-2332.0,1104.0,-2246.0,-345.0,-1553.0,-61.0,0.359,0.003,0.914,0.19
612939,-1824.0,1452.0,-2422.0,-342.0,-1125.0,-82.0,0.369,0.004,0.91,0.192
612962,-2360.0,1290.0,-1688.0,-310.0,-742.0,-127.0,0.375,0.003,0.906,0.194
612975,-2602.0,1454.0,-1304.0,-261.0,-427.0,-141.0,0.379,0.003,0.904,0.196
612988,-2666.0,1852.0,-1372.0,-220.0,-132.0,-81.0,0.381,0.002,0.904,0.197
613011,-2828.0,1368.0,-1782.0,-165.0,251.0,24.0,0.379,0.002,0.904,0.198
613024,-2784.0,1614.0,-2328.0,-155.0,659.0,92.0,0.373,0.001,0.906,0.199
613047,-2514.0,1690.0,-2642.0,-58.0,1150.0,138.0,0.363,0.001,0.91,0.2
613060,-2900.0,2018.0,-2262.0,128.0,1490.0,213.0,0.35,0.001,0.915,0.2
613083,-3114.0,2094.0,-2082.0,115.0,1628.0,259.0,0.336,0.001,0.921,0.199
613096,-2944.0,2142.0,-2400.0,132.0,1814.0,348.0,0.32,0.002,0.926,0.199
613119,-2844.0,1794.0,-3630.0,144.0,2091.0,398.0,0.301,0.002,0.933,0.199
613132,-2934.0,1988.0,-3420.0,288.0,2265.0,405.0,0.281,0.003,0.939,0.197
613145,-2654.0,2176.0,-3710.0,304.0,2221.0,353.0,0.261,0.003,0.946,0.195
613168,-1996.0,2182.0,-4622.0,346.0,2329.0,345.0,0.239,0.004,0.952,0.193
613181,-1714.0,2722.0,-4738.0,307.0,2404.0,362.0,0.217,0.004,0.957,0.191
613204,-1410.0,1930.0,-5528.0,259.0,2577.0,440.0,0.194,0.004,0.963,0.189
613217,-1164.0,1716.0,-6106.0,569.0,2779.0,415.0,0.168,0.004,0.968,0.185
613240,-1034.0,3310.0,-5836.0,584.0,2659.0,397.0,0.143,0.005,0.973,0.18
613253,-258.0,2606.0,-6198.0,428.0,2642.0,367.0,0.119,0.005,0.977,0.177
613276,-192.0,2522.0,-7378.0,352.0,2747.0,429.0,0.093,0.005,0.98,0.174
613289,708.0,1648.0,-8976.0,265.0,3018.0,325.0,0.065,0.003,0.983,0.172
613312,258.0,2530.0,-10170.0,407.0,3032.0,282.0,0.036,0.002,0.985,0.169
613325,1414.0,3010.0,-7814.0,226.0,2854.0,192.0,0.01,-0.001,0.986,0.167
613348,1092.0,1502.0,-8260.0,107.0,2841.0,306.0,0.017,0.002,-0.986,-0.165
613361,2028.0,3298.0,-10246.0,57.0,2600.0,184.0,0.041,0.004,-0.985,-0.165
613374,2588.0,2722.0,-10842.0,-108.0,2742.0,413.0,0.067,0.004,-0.984,-0.165
613397,2328.0,2308.0,-9890.0,14.0,2747.0,366.0,0.093,0.005,-0.982,-0.165
613410,2344.0,3724.0,-8884.0,-91.0,2458.0,441.0,0.116,0.005,-0.979,-0.165
613433,3004.0,2752.0,-10148.0,-388.0,2344.0,402.0,0.138,0.004,-0.976,-0.168
613446,3332.0,1884.0,-11104.0,-283.0,2471.0,291.0,0.161,0.005,-0.972,-0.17
613469,3484.0,3814.0,-10730.0,-109.0,2471.0,285.0,0.184,0.007,-0.968,-0.17
613482,3350.0,4354.0,-10236.0,-382.0,2401.0,392.0,0.206,0.006,-0.963,-0.173
613505,3668.0,3958.0,-9894.0,-642.0,2134.0,464.0,0.226,0.005,-0.958,-0.178
613518,4038.0,2124.0,-11266.0,-578.0,2070.0,434.0,0.245,0.003,-0.952,-0.182
613541,4082.0,3298.0,-10256.0,-250.0,1972.0,187.0,0.263,0.005,-0.947,-0.183
613554,3918.0,4284.0,-9286.0,-270.0,1692.0,341.0,0.279,0.004,-0.942,-0.185
613567,4366.0,3146.0,-11056.0,-264.0,1352.0,68.0,0.291,0.006,-0.938,-0.187
613590,4304.0,3894.0,-10102.0,-112.0,1089.0,130.0,0.301,0.007,-0.935,-0.187
613603,4328.0,4028.0,-11078.0,-77.0,688.0,-28.0,0.307,0.008,-0.933,-0.188
613626,4166.0,4012.0,-11428.0,30.0,217.0,-89.0,0.309,0.01,-0.932,-0.187
613639,4160.0,4304.0,-11790.0,87.0,-304.0,-247.0,0.306,0.012,-0.933,-0.187
613662,4196.0,3958.0,-12114.0,183.0,-827.0,-418.0,0.298,0.016,-0.936,-0.187
613675,3990.0,4182.0,-12808.0,174.0,-1449.0,-453.0,0.284,0.018,-0.94,-0.187
613688,3486.0,4022.0,-12750.0,215.0,-1923.0,-572.0,0.267,0.021,-0.945,-0.186
613711,3422.0,4972.0,-12996.0,242.0,-2491.0,-644.0,0.243,0.023,-0.952,-0.186
613724,3202.0,3814.0,-12662.0,135.0,-2828.0,-620.0,0.217,0.025,-0.958,-0.187
613747,2478.0,3596.0,-13216.0,112.0,-3137.0,-711.0,0.188,0.026,-0.964,-0.188
613760,2526.0,4366.0,-12534.0,100.0,-3380.0,-878.0,0.156,0.029,-0.969,-0.189
613783,1716.0,4480.0,-12158.0,46.0,-3640.0,-772.0,0.122,0.03,-0.974,-0.19
613796,1860.0,3776.0,-11714.0,-16.0,-3896.0,-880.0,0.085,0.031,-0.977,-0.193
613819,1594.0,4266.0,-10910.0,-165.0,-4049.0,-763.0,0.047,0.031,-0.979,-0.196
613832,1484.0,4076.0,-10682.0,-286.0,-4260.0,-826.0,0.007,0.031,-0.979,-0.2
613855,1080.0,3696.0,-9556.0,-352.0,-4324.0,-628.0,0.034,-0.029,0.978,0.204
613868,976.0,2830.0,-10068.0,-542.0,-4318.0,-749.0,0.075,-0.028,0.974,0.21
613881,1044.0,3488.0,-8074.0,-522.0,-4165.0,-695.0,0.113,-0.026,0.97,0.215
613904,526.0,2226.0,-7428.0,-573.0,-4194.0,-724.0,0.152,-0.025,0.963,0.22
613917,360.0,3016.0,-6832.0,-479.0,-4195.0,-666.0,0.19,-0.023,0.956,0.224
613940,342.0,1978.0,-5216.0,-414.0,-4069.0,-628.0,0.227,-0.02,0.947,0.227
613953,156.0,1778.0,-5112.0,-370.0,-3820.0,-652.0,0.262,-0.019,0.937,0.23
613976,64.0,2458.0,-4620.0,-355.0,-3645.0,-497.0,0.295,-0.016,0.927,0.232
613989,-278.0,1412.0,-4056.0,-317.0,-3330.0,-459.0,0.324,-0.013,0.916,0.234
614012,-792.0,1542.0,-3428.0,-452.0,-3010.0,-538.0,0.351,-0.012,0.906,0.236
614025,-1034.0,2056.0,-2170.0,-513.0,-2742.0,-591.0,0.376,-0.012,0.895,0.239
614048,-1188.0,1934.0,-1984.0,-508.0,-2370.0,-560.0,0.397,-0.013,0.886,0.241
614061,-1696.0,1602.0,-1638.0,-448.0,-1981.0,-509.0,0.414,-0.014,0.877,0.243
614084,-2080.0,2072.0,-660.0,-388.0,-1679.0,-463.0,0.429,-0.015,0.87,0.244
614097,-2414.0,1880.0,-300.0,-404.0,-1320.0,-388.0,0.441,-0.016,0.863,0.246
614110,-2880.0,1886.0,140.0,-379.0,-937.0,-312.0,0.449,-0.018,0.859,0.247
614133,-3256.0,1834.0,-132.0,-340.0,-511.0,-193.0,0.454,-0.019,0.856,0.249
614146,-3384.0,1822.0,-232.0,-269.0,-65.0,-110.0,0.455,-0.02,0.855,0.25
614169,-3618.0,2000.0,-46.0,-150.0,288.0,-11.0,0.452,-0.021,0.856,0.251
614182,-3514.0,2014.0,-272.0,-56.0,697.0,76.0,0.447,-0.021,0.858,0.251
614205,-3742.0,1842.0,-630.0,55.0,1145.0,182.0,0.437,-0.022,0.863,0.251
614218,-3876.0,1786.0,-1104.0,207.0,1625.0,262.0,0.424,-0.022,0.87,0.25
614231,-3730.0,2386.0,-1402.0,245.0,1926.0,319.0,0.408,-0.022,0.878,0.248
614254,-3450.0,2614.0,-1564.0,240.0,2188.0,377.0,0.389,-0.022,0.887,0.247
614267,-3328.0,2176.0,-1920.0,397.0,2546.0,462.0,0.367,-0.022,0.897,0.244
614290,-3434.0,2670.0,-1932.0,432.0,2580.0,524.0,0.344,-0.021,0.907,0.242
614308,-2960.0,2532.0,-2364.0,314.0,2587.0,578.0,0.321,-0.021,0.916,0.24
614321,-2518.0,1496.0,-4314.0,463.0,2998.0,642.0,0.294,-0.02,0.926,0.237
614344,-2196.0,3200.0,-3666.0,443.0,2927.0,660.0,0.268,-0.019,0.934,0.234
614357,-1972.0,3202.0,-3844.0,172.0,2734.0,686.0,0.243,-0.018,0.941,0.234
614380,-752.0,2554.0,-5944.0,-103.0,2957.0,788.0,0.215,-0.017,0.948,0.236
614393,-302.0,3548.0,-6648.0,-77.0,3079.0,977.0,0.185,-0.015,0.953,0.238
614406,-976.0,1830.0,-5608.0,257.0,3390.0,983.0,0.153,-0.012,0.959,0.236
614429,-438.0,3754.0,-6364.0,217.0,3085.0,824.0,0.123,-0.011,0.964,0.235
614452,-490.0,3518.0,-5650.0,-47.0,2913.0,891.0,0.095,-0.009,0.967,0.236
614465,770.0,2390.0,-8462.0,-217.0,2862.0,938.0,0.067,-0.006,0.969,0.238
614478,926.0,2030.0,-10124.0,121.0,3346.0,917.0,0.035,-0.005,0.971,0.237
614501,1216.0,3932.0,-8756.0,373.0,3234.0,842.0,0.004,-0.004,0.972,0.234
614514,1460.0,4916.0,-7266.0,35.0,2993.0,900.0,0.026,0.002,-0.972,-0.234
614537,2438.0,2600.0,-11560.0,-120.0,2904.0,760.0,0.054,0.002,-0.971,-0.235
614550,2646.0,3904.0,-10850.0,192.0,3077.0,765.0,0.083,0.002,-0.969,-0.232
614573,2720.0,4072.0,-9764.0,233.0,2963.0,863.0,0.112,0.0,-0.967,-0.229
614586,2532.0,4270.0,-10150.0,30.0,2678.0,705.0,0.137,-0.0,-0.964,-0.228
614609,3912.0,3880.0,-10716.0,86.0,2530.0,602.0,0.161,-0.0,-0.961,-0.227
614622,3728.0,3786.0,-11264.0,96.0,2514.0,813.0,0.186,-0.002,-0.957,-0.225
614635,3518.0,3454.0,-11758.0,204.0,2404.0,625.0,0.208,-0.002,-0.953,-0.222
614658,4034.0,4132.0,-10616.0,327.0,2122.0,431.0,0.228,-0.001,-0.949,-0.218
614671,3584.0,5216.0,-10154.0,109.0,1752.0,649.0,0.245,-0.003,-0.945,-0.215
614694,4050.0,3910.0,-11866.0,134.0,1418.0,350.0,0.258,-0.002,-0.942,-0.213
614707,4044.0,3808.0,-11090.0,358.0,1213.0,338.0,0.269,-0.002,-0.94,-0.209
614730,3344.0,4408.0,-11084.0,426.0,860.0,243.0,0.278,-0.001,-0.939,-0.205
614743,3422.0,4758.0,-10964.0,381.0,436.0,138.0,0.282,0.001,-0.938,-0.201
614766,3288.0,4404.0,-11520.0,406.0,78.0,112.0,0.283,0.001,-0.939,-0.197
614779,3236.0,4596.0,-11866.0,375.0,-308.0,-23.0,0.28,0.002,-0.94,-0.194
614792,2964.0,4324.0,-10866.0,372.0,-640.0,-116.0,0.274,0.004,-0.943,-0.191
614815,2640.0,4864.0,-11580.0,336.0,-1090.0,-287.0,0.264,0.006,-0.946,-0.188
614828,2828.0,4606.0,-12236.0,300.0,-1482.0,-430.0,0.251,0.008,-0.95,-0.186
614851,2620.0,4558.0,-11978.0,291.0,-1798.0,-510.0,0.234,0.011,-0.954,-0.185
614864,2958.0,4756.0,-11956.0,117.0,-2200.0,-672.0,0.213,0.014,-0.959,-0.186
614887,2456.0,4900.0,-11576.0,30.0,-2509.0,-601.0,0.19,0.015,-0.964,-0.187
614900,2740.0,4316.0,-12332.0,-182.0,-2875.0,-723.0,0.163,0.017,-0.968,-0.19
614923,1690.0,4372.0,-11858.0,-217.0,-3105.0,-681.0,0.133,0.018,-0.972,-0.193
614936,2448.0,4708.0,-11062.0,-300.0,-3393.0,-926.0,0.101,0.02,-0.975,-0.197
614959,1208.0,4278.0,-10518.0,-514.0,-3581.0,-699.0,0.067,0.02,-0.977,-0.203
614972,1134.0,4802.0,-10978.0,-710.0,-3873.0,-816.0,0.031,0.02,-0.977,-0.211
614995,1324.0,4122.0,-9904.0,-696.0,-3816.0,-749.0,0.005,-0.019,0.976,0.218
615008,802.0,2884.0,-9798.0,-741.0,-3654.0,-817.0,0.04,-0.019,0.973,0.225
615021,282.0,3782.0,-8148.0,-813.0,-3870.0,-781.0,0.076,-0.019,0.969,0.233
615044,556.0,3116.0,-7730.0,-1108.0,-4070.0,-761.0,0.114,-0.017,0.963,0.243
615057,722.0,2350.0,-7454.0,-1158.0,-3929.0,-748.0,0.15,-0.016,0.956,0.252
615080,564.0,2312.0,-6574.0,-994.0,-3645.0,-748.0,0.184,-0.016,0.948,0.261
615093,798.0,2920.0,-5076.0,-845.0,-3510.0,-785.0,0.217,-0.016,0.939,0.267
615116,368.0,2346.0,-4262.0,-926.0,-3211.0,-733.0,0.246,-0.015,0.93,0.274
615129,-142.0,1616.0,-3546.0,-798.0,-2880.0,-765.0,0.273,-0.016,0.92,0.279
615152,-820.0,1672.0,-3618.0,-749.0,-2548.0,-714.0,0.297,-0.017,0.912,0.284
615165,-752.0,1644.0,-2890.0,-676.0,-2203.0,-715.0,0.317,-0.019,0.903,0.288
615178,-1314.0,1902.0,-2170.0,-534.0,-1948.0,-698.0,0.336,-0.021,0.896,0.291
615201,-1624.0,1940.0,-1576.0,-444.0,-1553.0,-715.0,0.351,-0.024,0.89,0.292
615214,-2292.0,1942.0,-1172.0,-296.0,-1314.0,-660.0,0.363,-0.026,0.884,0.292
615237,-2442.0,1782.0,-1062.0,-336.0,-967.0,-618.0,0.373,-0.029,0.88,0.293
615250,-2678.0,2094.0,-424.0,-278.0,-582.0,-535.0,0.379,-0.032,0.877,0.294
615273,-2684.0,1928.0,-186.0,-80.0,-178.0,-431.0,0.382,-0.035,0.876,0.292
615286,-2980.0,2444.0,-16.0,112.0,154.0,-291.0,0.382,-0.037,0.877,0.29
615309,-3038.0,2400.0,210.0,162.0,463.0,-121.0,0.379,-0.038,0.879,0.288
615322,-3096.0,1834.0,-696.0,164.0,912.0,13.0,0.371,-0.039,0.882,0.286
615335,-2816.0,1998.0,-1300.0,334.0,1469.0,124.0,0.359,-0.04,0.888,0.283
615358,-2904.0,2636.0,-1318.0,516.0,1884.0,187.0,0.343,-0.041,0.896,0.278
615371,-2918.0,2932.0,-768.0,473.0,2086.0,293.0,0.326,-0.042,0.904,0.274
615394,-2726.0,2628.0,-1664.0,433.0,2300.0,455.0,0.305,-0.042,0.912,0.271
615407,-2310.0,1872.0,-3972.0,472.0,2781.0,550.0,0.281,-0.043,0.921,0.267
615430,-2564.0,3196.0,-2086.0,656.0,2914.0,626.0,0.254,-0.042,0.93,0.262
615443,-1936.0,2652.0,-3978.0,553.0,2883.0,680.0,0.228,-0.042,0.938,0.257
615466,-1720.0,1394.0,-5934.0,573.0,3282.0,691.0,0.198,-0.042,0.946,0.252
615479,-1648.0,3728.0,-4258.0,722.0,3118.0,677.0,0.169,-0.041,0.954,0.245
615492,-734.0,3076.0,-6462.0,402.0,3008.0,684.0,0.141,-0.041,0.959,0.242
615515,-386.0,1230.0,-8650.0,427.0,3434.0,703.0,0.108,-0.041,0.965,0.236
615528,-110.0,2470.0,-7844.0,818.0,3447.0,577.0,0.076,-0.042,0.97,0.228
615551,-706.0,3916.0,-7406.0,789.0,2973.0,651.0,0.048,-0.042,0.973,0.22
615564,1550.0,3798.0,-7982.0,386.0,2707.0,588.0,0.022,-0.041,0.975,0.216
615587,534.0,2468.0,-8982.0,331.0,2901.0,953.0,0.006,0.038,-0.977,-0.212
615600,1156.0,3024.0,-9088.0,242.0,2641.0,1000.0,0.032,0.034,-0.977,-0.208
615623,1356.0,3284.0,-9856.0,36.0,2606.0,1006.0,0.057,0.03,-0.976,-0.207
615636,2322.0,2384.0,-9598.0,81.0,2904.0,792.0,0.085,0.028,-0.975,-0.205
615659,1838.0,4082.0,-8366.0,317.0,2711.0,974.0,0.112,0.025,-0.973,-0.2
615672,2272.0,3474.0,-8348.0,-66.0,2605.0,828.0,0.137,0.022,-0.97,-0.2
615695,2706.0,2446.0,-10352.0,-175.0,2648.0,729.0,0.162,0.02,-0.966,-0.2
615708,2740.0,4532.0,-8590.0,-182.0,2589.0,729.0,0.187,0.018,-0.962,-0.2
615721,3104.0,4110.0,-8766.0,-430.0,2513.0,809.0,0.211,0.015,-0.956,-0.201
615744,3552.0,3568.0,-9400.0,-404.0,2494.0,815.0,0.235,0.012,-0.951,-0.203
615757,3702.0,4250.0,-8254.0,-290.0,2488.0,830.0,0.258,0.009,-0.944,-0.203
615780,3926.0,4420.0,-8050.0,-579.0,2263.0,992.0,0.28,0.003,-0.938,-0.206
615793,4808.0,4412.0,-7950.0,-785.0,2038.0,952.0,0.3,-0.003,-0.931,-0.21
615816,5472.0,4228.0,-7404.0,-719.0,1963.0,1021.0,0.319,-0.01,-0.923,-0.213
615829,6500.0,5204.0,-11050.0,-527.0,1747.0,783.0,0.336,-0.014,-0.917,-0.215
615852,6936.0,5018.0,-9042.0,-666.0,1766.0,708.0,0.352,-0.018,-0.91,-0.219
615865,6768.0,3978.0,-9380.0,-857.0,1555.0,552.0,0.366,-0.022,-0.903,-0.224
615878,6492.0,4688.0,-8104.0,-645.0,1201.0,316.0,0.377,-0.024,-0.897,-0.229
615901,6666.0,4438.0,-9532.0,-498.0,759.0,174.0,0.384,-0.025,-0.893,-0.232
615914,6508.0,5108.0,-9118.0,-427.0,286.0,76.0,0.386,-0.026,-0.891,-0.235
615937,6362.0,3910.0,-9740.0,-244.0,22.0,-64.0,0.387,-0.026,-0.891,-0.237
615950,5856.0,4626.0,-9372.0,71.0,-512.0,-302.0,0.382,-0.024,-0.893,-0.237
615973,5918.0,4944.0,-10492.0,158.0,-1250.0,-521.0,0.37,-0.021,-0.898,-0.237
615986,6282.0,4938.0,-11218.0,228.0,-1805.0,-680.0,0.354,-0.018,-0.905,-0.237
616009,5744.0,4482.0,-10950.0,370.0,-2154.0,-781.0,0.334,-0.014,-0.912,-0.236
616022,4948.0,5200.0,-10612.0,490.0,-2652.0,-947.0,0.31,-0.01,-0.922,-0.234
616035,4452.0,4476.0,-11054.0,473.0,-3051.0,-975.0,0.281,-0.006,-0.931,-0.232
616058,4022.0,4960.0,-11212.0,428.0,-3283.0,-1042.0,0.251,-0.002,-0.94,-0.231
616081,3176.0,5152.0,-10980.0,463.0,-3431.0,-1010.0,0.218,0.001,-0.949,-0.229
616094,3324.0,4214.0,-11424.0,421.0,-3579.0,-1156.0,0.184,0.005,-0.956,-0.227
616107,2816.0,5052.0,-10174.0,395.0,-3670.0,-1160.0,0.149,0.008,-0.963,-0.226
616130,2892.0,4624.0,-10162.0,247.0,-3824.0,-1186.0,0.112,0.012,-0.968,-0.225
616143,2030.0,4746.0,-8866.0,181.0,-3951.0,-994.0,0.074,0.013,-0.971,-0.225
616166,2254.0,3948.0,-9858.0,85.0,-3950.0,-1089.0,0.036,0.015,-0.974,-0.225
616179,1808.0,4284.0,-7350.0,123.0,-3606.0,-988.0,0.002,0.016,-0.974,-0.225
616202,1126.0,3434.0,-7800.0,-82.0,-3624.0,-965.0,0.033,-0.018,0.973,0.226
616215,1364.0,4634.0,-7416.0,-107.0,-4005.0,-855.0,0.07,-0.017,0.971,0.227
616228,1392.0,2546.0,-6908.0,-250.0,-3869.0,-750.0,0.106,-0.016,0.967,0.23
616251,1386.0,2762.0,-6312.0,-208.0,-3767.0,-766.0,0.141,-0.015,0.962,0.231
616264,1166.0,2534.0,-5658.0,-183.0,-3476.0,-694.0,0.174,-0.013,0.957,0.232
616287,426.0,2310.0,-4200.0,-122.0,-3172.0,-535.0,0.204,-0.011,0.951,0.233
616300,246.0,1816.0,-3934.0,-138.0,-2997.0,-502.0,0.231,-0.009,0.945,0.233
616318,-20.0,1300.0,-3894.0,-102.0,-2588.0,-477.0,0.255,-0.008,0.938,0.233
616341,-714.0,1470.0,-3018.0,-115.0,-2221.0,-416.0,0.275,-0.006,0.933,0.233
616354,-580.0,1462.0,-2632.0,-93.0,-1900.0,-425.0,0.293,-0.006,0.927,0.233
616377,-1202.0,1470.0,-1658.0,-150.0,-1629.0,-315.0,0.308,-0.005,0.923,0.233
616390,-1462.0,1066.0,-2022.0,-304.0,-1204.0,-314.0,0.319,-0.005,0.918,0.234
616403,-1946.0,1366.0,-1532.0,-249.0,-779.0,-262.0,0.326,-0.006,0.915,0.236
616426,-2116.0,1796.0,-1190.0,-290.0,-355.0,-239.0,0.33,-0.007,0.914,0.237
616439,-2496.0,1666.0,-682.0,-253.0,62.0,-150.0,0.33,-0.009,0.913,0.239
616462,-2718.0,1826.0,-562.0,-207.0,436.0,-38.0,0.326,-0.01,0.914,0.24
616475,-2930.0,1792.0,-626.0,-212.0,832.0,81.0,0.319,-0.012,0.916,0.242
616498,-2846.0,1386.0,-1276.0,-126.0,1337.0,157.0,0.308,-0.013,0.92,0.243
616511,-2782.0,1948.0,-1570.0,10.0,1707.0,210.0,0.293,-0.014,0.925,0.243
616534,-2424.0,2292.0,-1886.0,107.0,2123.0,279.0,0.274,-0.016,0.931,0.242
616547,-2254.0,2730.0,-2188.0,180.0,2413.0,409.0,0.252,-0.017,0.937,0.241
616570,-1920.0,2542.0,-3518.0,231.0,2672.0,531.0,0.228,-0.017,0.944,0.24
616583,-1912.0,2530.0,-3842.0,254.0,2849.0,617.0,0.201,-0.017,0.95,0.238
616606,-1230.0,2796.0,-5088.0,370.0,3071.0,592.0,0.173,-0.017,0.956,0.235
616619,-1398.0,3354.0,-5296.0,429.0,3081.0,648.0,0.144,-0.017,0.962,0.232
616632,-1046.0,3416.0,-5068.0,218.0,2880.0,638.0,0.117,-0.016,0.966,0.23
616655,-550.0,2348.0,-6192.0,166.0,2891.0,732.0,0.089,-0.015,0.969,0.229
616668,-172.0,3138.0,-7672.0,307.0,3024.0,698.0,0.061,-0.015,0.972,0.226
616691,312.0,3246.0,-8344.0,385.0,2984.0,702.0,0.032,-0.014,0.974,0.222
616704,1158.0,3578.0,-9052.0,403.0,2985.0,514.0,0.004,-0.015,0.976,0.218
616727,566.0,3754.0,-7656.0,237.0,2791.0,811.0,0.023,0.013,-0.976,-0.216
616740,1770.0,2466.0,-8656.0,140.0,2736.0,554.0,0.049,0.014,-0.976,-0.214
616763,1548.0,3728.0,-8814.0,257.0,2688.0,766.0,0.075,0.012,-0.975,-0.211
616776,2440.0,4122.0,-9808.0,35.0,2584.0,643.0,0.1,0.011,-0.973,-0.21
616799,2672.0,2662.0,-10012.0,-112.0,2696.0,701.0,0.126,0.01,-0.97,-0.21
616812,2906.0,3440.0,-9032.0,145.0,2503.0,562.0,0.149,0.01,-0.967,-0.207
616825,3042.0,4518.0,-7764.0,135.0,2102.0,548.0,0.169,0.01,-0.964,-0.205
616848,3004.0,4436.0,-7920.0,-141.0,1644.0,670.0,0.185,0.007,-0.961,-0.205
616861,3630.0,3368.0,-9880.0,-364.0,1410.0,613.0,0.199,0.004,-0.958,-0.207
616884,3564.0,3746.0,-9684.0,-272.0,1512.0,620.0,0.214,0.001,-0.954,-0.208
616897,3958.0,3194.0,-10302.0,-161.0,1709.0,423.0,0.23,0.0,-0.95,-0.209
616920,3920.0,4006.0,-8456.0,-37.0,1773.0,395.0,0.247,0.0,-0.946,-0.208
616933,3726.0,4130.0,-8562.0,-215.0,1643.0,507.0,0.262,-0.001,-0.942,-0.209
616946,4090.0,4198.0,-8994.0,-364.0,1383.0,465.0,0.275,-0.003,-0.938,-0.211
616969,3980.0,4142.0,-8728.0,-342.0,1330.0,651.0,0.288,-0.006,-0.934,-0.212
616982,4018.0,3904.0,-8958.0,-390.0,1258.0,625.0,0.3,-0.01,-0.929,-0.214
617005,4118.0,3720.0,-8412.0,-358.0,1251.0,606.0,0.313,-0.013,-0.925,-0.215
617018,4526.0,3632.0,-9030.0,-305.0,1196.0,496.0,0.324,-0.016,-0.921,-0.216
617041,4948.0,4162.0,-8302.0,-191.0,1085.0,434.0,0.334,-0.017,-0.917,-0.216
617054,4872.0,4018.0,-8300.0,-204.0,880.0,421.0,0.343,-0.019,-0.914,-0.217
617077,4980.0,4034.0,-8726.0,-144.0,622.0,296.0,0.349,-0.02,-0.912,-0.217
617090,5382.0,3722.0,-9312.0,-58.0,407.0,225.0,0.353,-0.021,-0.91,-0.217
617113,5460.0,4130.0,-9012.0,23.0,133.0,123.0,0.354,-0.021,-0.91,-0.216
617126,5546.0,3756.0,-9034.0,141.0,-158.0,26.0,0.353,-0.021,-0.91,-0.214
617139,5296.0,4180.0,-9482.0,236.0,-646.0,-61.0,0.348,-0.02,-0.913,-0.212
617162,5384.0,3452.0,-10360.0,254.0,-1031.0,-226.0,0.339,-0.019,-0.917,-0.21
617175,5326.0,4086.0,-10552.0,340.0,-1482.0,-336.0,0.325,-0.017,-0.922,-0.208
617198,4866.0,4084.0,-10132.0,322.0,-1911.0,-376.0,0.308,-0.016,-0.929,-0.206
617211,4422.0,4040.0,-11740.0,288.0,-2300.0,-474.0,0.288,-0.015,-0.936,-0.204
617234,3996.0,4510.0,-11774.0,177.0,-2592.0,-448.0,0.264,-0.015,-0.943,-0.203
617247,3824.0,4130.0,-10450.0,114.0,-2791.0,-556.0,0.239,-0.015,-0.95,-0.203
617270,3410.0,3560.0,-10960.0,-51.0,-3005.0,-567.0,0.211,-0.015,-0.956,-0.204
617283,3026.0,4924.0,-10410.0,-111.0,-3335.0,-610.0,0.18,-0.016,-0.962,-0.206
617306,2540.0,3650.0,-10140.0,-257.0,-3457.0,-455.0,0.148,-0.018,-0.967,-0.208
617319,1990.0,4430.0,-10338.0,-305.0,-3778.0,-522.0,0.113,-0.021,-0.971,-0.211
617332,1920.0,3734.0,-9718.0,-411.0,-3796.0,-445.0,0.078,-0.024,-0.973,-0.214
617355,1346.0,3976.0,-9844.0,-486.0,-3929.0,-483.0,0.041,-0.028,-0.975,-0.218
617368,1326.0,3506.0,-8344.0,-568.0,-3882.0,-462.0,0.005,-0.032,-0.975,-0.222
617391,778.0,3612.0,-8042.0,-639.0,-3971.0,-439.0,0.032,0.036,0.973,0.226
617404,692.0,3020.0,-7566.0,-616.0,-3916.0,-444.0,0.068,0.04,0.97,0.23
617427,776.0,3398.0,-7602.0,-642.0,-3865.0,-432.0,0.104,0.044,0.966,0.234
617440,944.0,2526.0,-6852.0,-514.0,-3592.0,-414.0,0.137,0.048,0.961,0.237
617463,554.0,3290.0,-5790.0,-520.0,-3416.0,-410.0,0.169,0.051,0.955,0.239
617476,514.0,3360.0,-5796.0,-646.0,-3221.0,-320.0,0.199,0.054,0.948,0.243
617489,336.0,2520.0,-4560.0,-687.0,-2989.0,-221.0,0.226,0.058,0.941,0.247
617512,-6.0,2062.0,-4158.0,-635.0,-2745.0,-269.0,0.251,0.061,0.933,0.25
617525,-440.0,2568.0,-3034.0,-654.0,-2533.0,-256.0,0.274,0.063,0.926,0.253
617548,-1086.0,2102.0,-2500.0,-749.0,-2243.0,-218.0,0.295,0.065,0.918,0.258
617561,-1234.0,2008.0,-2208.0,-807.0,-1975.0,-218.0,0.312,0.066,0.91,0.263
617584,-840.0,2328.0,-2360.0,-772.0,-1645.0,-164.0,0.327,0.067,0.904,0.268
617597,-898.0,1906.0,-2324.0,-732.0,-1116.0,-116.0,0.338,0.067,0.898,0.273
617620,-922.0,2296.0,-1670.0,-613.0,-642.0,-142.0,0.344,0.066,0.895,0.277
617633,-1394.0,2212.0,-1102.0,-571.0,-237.0,-95.0,0.347,0.065,0.893,0.281
617656,-1628.0,2428.0,-724.0,-506.0,144.0,8.0,0.346,0.063,0.892,0.285
617669,-1764.0,2388.0,-496.0,-416.0,470.0,154.0,0.342,0.063,0.892,0.289
617682,-2126.0,1762.0,-1558.0,-253.0,919.0,276.0,0.334,0.062,0.894,0.292
617705,-2116.0,2064.0,-1846.0,29.0,1365.0,283.0,0.322,0.062,0.898,0.293
617718,-2160.0,2544.0,-2152.0,174.0,1727.0,319.0,0.307,0.061,0.903,0.294
617741,-1798.0,2962.0,-1860.0,242.0,2036.0,379.0,0.289,0.06,0.909,0.293
617754,-2006.0,2848.0,-1894.0,285.0,2280.0,490.0,0.268,0.059,0.916,0.293
617777,-1634.0,3400.0,-2594.0,368.0,2455.0,626.0,0.245,0.059,0.922,0.293
617790,-1430.0,3126.0,-3966.0,486.0,2700.0,769.0,0.22,0.06,0.929,0.292
617813,-1086.0,2792.0,-4726.0,797.0,2997.0,735.0,0.191,0.06,0.936,0.288
617826,-1548.0,4012.0,-3694.0,971.0,2975.0,733.0,0.163,0.061,0.944,0.282
617849,-874.0,4362.0,-4524.0,848.0,2746.0,763.0,0.136,0.062,0.949,0.277
617862,102.0,4394.0,-4608.0,607.0,2716.0,919.0,0.11,0.065,0.953,0.274
617875,302.0,3664.0,-8564.0,731.0,2949.0,930.0,0.081,0.066,0.957,0.27
617898,336.0,3694.0,-10200.0,844.0,3239.0,752.0,0.049,0.066,0.961,0.265
617911,632.0,4844.0,-7654.0,974.0,3173.0,588.0,0.019,0.064,0.964,0.259
617934,-168.0,5490.0,-3120.0,795.0,2820.0,1015.0,0.009,-0.067,-0.965,-0.253
617947,1368.0,4184.0,-10246.0,131.0,2447.0,749.0,0.033,-0.068,-0.964,-0.254
617970,2456.0,4106.0,-10560.0,24.0,2761.0,744.0,0.06,-0.069,-0.963,-0.255
617983,1704.0,3558.0,-8414.0,406.0,3003.0,1169.0,0.089,-0.072,-0.961,-0.252
618006,1594.0,4460.0,-7646.0,294.0,2694.0,804.0,0.115,-0.073,-0.958,-0.251
618019,3014.0,4184.0,-8156.0,34.0,2701.0,671.0,0.141,-0.072,-0.955,-0.251
618042,2692.0,5328.0,-7664.0,-116.0,2735.0,910.0,0.168,-0.074,-0.95,-0.253
618055,3176.0,3954.0,-10610.0,-358.0,2646.0,864.0,0.193,-0.076,-0.944,-0.257
618068,3910.0,3728.0,-9720.0,-295.0,2790.0,642.0,0.219,-0.075,-0.938,-0.26
618091,3992.0,4870.0,-8230.0,-326.0,2850.0,749.0,0.245,-0.076,-0.93,-0.263
618104,4644.0,4676.0,-8358.0,-561.0,2677.0,563.0,0.269,-0.075,-0.922,-0.268
618127,5312.0,4778.0,-9320.0,-664.0,2572.0,650.0,0.292,-0.076,-0.913,-0.274
618140,5808.0,3684.0,-9948.0,-532.0,2632.0,570.0,0.316,-0.075,-0.904,-0.279
618163,5810.0,4920.0,-9304.0,-407.0,2446.0,489.0,0.337,-0.074,-0.895,-0.282
618176,6256.0,4864.0,-8954.0,-357.0,2035.0,296.0,0.355,-0.072,-0.887,-0.286
618199,6434.0,5312.0,-8172.0,-369.0,1512.0,279.0,0.368,-0.071,-0.881,-0.289
618212,7266.0,5106.0,-9522.0,-317.0,944.0,116.0,0.376,-0.07,-0.877,-0.291
618225,7012.0,5518.0,-9336.0,-192.0,402.0,73.0,0.379,-0.07,-0.875,-0.293
618248,6486.0,5386.0,-9154.0,-58.0,-103.0,-13.0,0.379,-0.07,-0.875,-0.293
618261,6056.0,4912.0,-8132.0,77.0,-641.0,-41.0,0.374,-0.07,-0.878,-0.292
618284,5442.0,5352.0,-8962.0,123.0,-1240.0,-91.0,0.363,-0.072,-0.882,-0.29
618297,5174.0,4504.0,-10002.0,169.0,-1448.0,-171.0,0.351,-0.074,-0.888,-0.288
618325,4518.0,4472.0,-9766.0,306.0,-1665.0,-291.0,0.337,-0.074,-0.894,-0.285
618338,4360.0,4900.0,-8594.0,347.0,-2019.0,-410.0,0.319,-0.075,-0.902,-0.282
618351,4018.0,4398.0,-9428.0,308.0,-2250.0,-424.0,0.3,-0.076,-0.909,-0.279
618374,4034.0,4306.0,-9304.0,270.0,-2521.0,-485.0,0.277,-0.077,-0.917,-0.276
618387,3726.0,4740.0,-9980.0,158.0,-2824.0,-519.0,0.252,-0.079,-0.925,-0.274
618400,3674.0,4208.0,-9676.0,50.0,-2944.0,-564.0,0.225,-0.081,-0.932,-0.272
618423,3236.0,4738.0,-9412.0,-19.0,-3136.0,-631.0,0.196,-0.083,-0.939,-0.271
618436,2842.0,4338.0,-8890.0,-117.0,-3263.0,-592.0,0.166,-0.086,-0.944,-0.271
618459,2610.0,4330.0,-10010.0,-285.0,-3376.0,-775.0,0.134,-0.088,-0.949,-0.272
618472,2198.0,5008.0,-8194.0,-297.0,-3390.0,-686.0,0.102,-0.091,-0.953,-0.272
618495,2026.0,4432.0,-8460.0,-409.0,-3522.0,-851.0,0.068,-0.092,-0.955,-0.273
618508,1582.0,4302.0,-8068.0,-597.0,-3482.0,-765.0,0.035,-0.095,-0.956,-0.276
618531,1508.0,4692.0,-7730.0,-672.0,-3509.0,-926.0,0.001,-0.095,-0.956,-0.279
618544,1172.0,3820.0,-6950.0,-739.0,-3366.0,-833.0,0.032,0.097,0.954,0.282
618567,1156.0,3878.0,-6912.0,-790.0,-3386.0,-978.0,0.065,0.097,0.951,0.286
618580,1136.0,3844.0,-7202.0,-891.0,-3198.0,-902.0,0.096,0.097,0.947,0.29
618603,886.0,2812.0,-5922.0,-1028.0,-2832.0,-969.0,0.125,0.095,0.942,0.295
618616,1004.0,4414.0,-5156.0,-1039.0,-2693.0,-999.0,0.152,0.093,0.937,0.301
618629,1176.0,4092.0,-4592.0,-1068.0,-2472.0,-944.0,0.177,0.09,0.931,0.307
618652,514.0,3928.0,-3610.0,-1008.0,-2257.0,-806.0,0.2,0.088,0.925,0.312
618665,204.0,3278.0,-3164.0,-957.0,-2002.0,-762.0,0.22,0.086,0.918,0.317
618688,76.0,2732.0,-3280.0,-853.0,-1664.0,-663.0,0.237,0.084,0.913,0.322
618701,-410.0,2638.0,-2298.0,-597.0,-1355.0,-642.0,0.251,0.081,0.908,0.324
618724,-696.0,3336.0,-1530.0,-434.0,-1106.0,-561.0,0.263,0.079,0.905,0.325
618737,-790.0,2958.0,-2104.0,-319.0,-892.0,-405.0,0.272,0.078,0.902,0.326
618750,-1110.0,2736.0,-1578.0,-145.0,-556.0,-347.0,0.278,0.077,0.9,0.326
618773,-1284.0,2894.0,-1352.0,-209.0,-301.0,-263.0,0.282,0.076,0.899,0.327
618786,-1244.0,2906.0,-1332.0,-76.0,-22.0,-120.0,0.282,0.075,0.899,0.327
618809,-1424.0,2930.0,-1602.0,33.0,282.0,4.0,0.28,0.075,0.9,0.327
618822,-1300.0,2984.0,-1626.0,253.0,624.0,113.0,0.275,0.075,0.902,0.325
618845,-1358.0,3190.0,-1970.0,406.0,905.0,270.0,0.266,0.076,0.905,0.323
618858,-1130.0,3140.0,-2448.0,647.0,1285.0,406.0,0.254,0.078,0.91,0.319
618881,-1472.0,3888.0,-2152.0,834.0,1486.0,563.0,0.239,0.08,0.915,0.314
618894,-1280.0,3366.0,-2978.0,760.0,1684.0,641.0,0.222,0.083,0.921,0.31
618917,-1268.0,3602.0,-3604.0,915.0,1961.0,762.0,0.203,0.086,0.926,0.305
618930,-1296.0,3894.0,-3660.0,987.0,2099.0,795.0,0.181,0.09,0.932,0.3
618943,-1128.0,4104.0,-4340.0,865.0,2167.0,821.0,0.16,0.093,0.937,0.295
618966,-624.0,3432.0,-5000.0,913.0,2353.0,853.0,0.136,0.096,0.942,0.291
618979,-536.0,3788.0,-5772.0,1008.0,2521.0,817.0,0.111,0.098,0.947,0.285
619002,-488.0,4664.0,-6186.0,978.0,2532.0,751.0,0.086,0.099,0.951,0.279
619015,-326.0,3996.0,-5338.0,797.0,2439.0,824.0,0.061,0.101,0.954,0.275
619038,494.0,3520.0,-8718.0,579.0,2429.0,643.0,0.038,0.101,0.956,0.272
619051,692.0,3872.0,-7716.0,757.0,2652.0,692.0,0.011,0.101,0.958,0.268
619074,622.0,3766.0,-7434.0,904.0,2497.0,589.0,0.013,-0.101,-0.96,-0.262
619087,1248.0,4000.0,-8760.0,827.0,2374.0,427.0,0.036,-0.099,-0.961,-0.257
619110,998.0,4206.0,-7896.0,693.0,2333.0,629.0,0.059,-0.099,-0.961,-0.253
619123,1884.0,4332.0,-8192.0,418.0,2175.0,510.0,0.08,-0.098,-0.96,-0.251
619136,2126.0,3856.0,-9102.0,350.0,2232.0,559.0,0.102,-0.098,-0.958,-0.249
619159,2416.0,3828.0,-9190.0,383.0,2295.0,439.0,0.123,-0.096,-0.956,-0.247
619172,2638.0,4128.0,-8112.0,309.0,2223.0,513.0,0.145,-0.095,-0.954,-0.246
619195,2766.0,4510.0,-7732.0,30.0,2151.0,481.0,0.165,-0.094,-0.95,-0.247
619208,3166.0,3590.0,-9170.0,-61.0,2195.0,397.0,0.185,-0.093,-0.946,-0.249
619231,3460.0,4218.0,-8356.0,-7.0,2268.0,447.0,0.206,-0.091,-0.942,-0.25
619244,3518.0,4284.0,-8158.0,-37.0,2236.0,472.0,0.227,-0.09,-0.937,-0.251
619267,3764.0,4340.0,-8120.0,-164.0,2174.0,505.0,0.247,-0.09,-0.931,-0.253
619280,4126.0,4754.0,-7910.0,-371.0,2083.0,604.0,0.266,-0.091,-0.925,-0.257
619303,4424.0,4536.0,-8932.0,-575.0,2037.0,662.0,0.285,-0.093,-0.918,-0.261
619316,5124.0,3400.0,-9630.0,-362.0,2146.0,358.0,0.304,-0.091,-0.91,-0.265
619329,5116.0,4760.0,-7948.0,-253.0,2158.0,443.0,0.323,-0.09,-0.903,-0.268
619352,5464.0,4734.0,-7288.0,-237.0,1878.0,257.0,0.339,-0.088,-0.897,-0.271
619365,5726.0,4508.0,-9540.0,-228.0,1625.0,258.0,0.353,-0.087,-0.891,-0.273
619388,6048.0,4436.0,-10300.0,-100.0,1510.0,72.0,0.366,-0.083,-0.885,-0.274
619401,6660.0,3814.0,-8192.0,23.0,1301.0,-16.0,0.377,-0.079,-0.881,-0.275
619424,6764.0,5562.0,-8904.0,121.0,680.0,-407.0,0.382,-0.074,-0.879,-0.276
619437,6944.0,5812.0,-9276.0,239.0,-47.0,-474.0,0.38,-0.068,-0.88,-0.275
619460,6186.0,6014.0,-10188.0,284.0,-726.0,-477.0,0.373,-0.065,-0.884,-0.274
619473,5926.0,5344.0,-10760.0,146.0,-1441.0,-459.0,0.361,-0.064,-0.889,-0.273
619486,5744.0,5340.0,-11182.0,117.0,-1888.0,-590.0,0.344,-0.063,-0.896,-0.273
619509,5046.0,5370.0,-10994.0,96.0,-2300.0,-624.0,0.323,-0.063,-0.904,-0.273
619522,4650.0,5182.0,-10438.0,91.0,-2691.0,-760.0,0.298,-0.063,-0.913,-0.272
619545,4412.0,4856.0,-10350.0,93.0,-2987.0,-990.0,0.27,-0.061,-0.921,-0.272
619558,3650.0,4906.0,-10526.0,119.0,-3127.0,-1000.0,0.241,-0.06,-0.93,-0.272
619581,3194.0,5000.0,-10058.0,110.0,-3268.0,-1139.0,0.21,-0.057,-0.938,-0.272
619594,3170.0,5246.0,-9152.0,22.0,-3348.0,-1206.0,0.178,-0.055,-0.944,-0.272
619617,3550.0,4780.0,-8978.0,123.0,-3117.0,-1344.0,0.147,-0.05,-0.95,-0.271
619630,2738.0,4904.0,-8126.0,217.0,-3053.0,-1308.0,0.117,-0.046,-0.955,-0.269
619653,2266.0,4652.0,-7746.0,133.0,-3131.0,-1269.0,0.086,-0.042,-0.959,-0.268
619666,2338.0,4480.0,-5990.0,53.0,-3079.0,-1195.0,0.055,-0.039,-0.961,-0.267
619689,2616.0,4084.0,-7094.0,-208.0,-2936.0,-1154.0,0.027,-0.036,-0.962,-0.269
619702,2030.0,3630.0,-5730.0,-191.0,-2718.0,-954.0,0.001,0.034,0.962,0.269
619715,1906.0,3862.0,-5032.0,-342.0,-2664.0,-935.0,0.027,0.033,0.961,0.272
619738,1484.0,3194.0,-5036.0,-373.0,-2578.0,-867.0,0.052,0.031,0.96,0.274
619751,1136.0,2932.0,-4788.0,-295.0,-2438.0,-808.0,0.076,0.03,0.958,0.275
619774,704.0,2812.0,-4680.0,-283.0,-2314.0,-748.0,0.099,0.029,0.955,0.277
619787,804.0,2294.0,-4872.0,-315.0,-2000.0,-759.0,0.119,0.028,0.953,0.278
619810,312.0,3024.0,-4116.0,-321.0,-1822.0,-666.0,0.137,0.026,0.95,0.28
619823,32.0,2680.0,-4584.0,-419.0,-1669.0,-616.0,0.153,0.025,0.947,0.282
619846,-448.0,2116.0,-4064.0,-369.0,-1405.0,-566.0,0.167,0.024,0.944,0.284
619859,-936.0,2548.0,-3226.0,-354.0,-1282.0,-465.0,0.18,0.023,0.941,0.286
619872,-1244.0,2518.0,-3012.0,-392.0,-1154.0,-398.0,0.191,0.022,0.938,0.289
619895,-1500.0,2428.0,-3002.0,-364.0,-898.0,-295.0,0.2,0.022,0.935,0.291
619908,-1660.0,2642.0,-2402.0,-401.0,-674.0,-207.0,0.207,0.021,0.933,0.294
619931,-1784.0,2558.0,-2316.0,-411.0,-431.0,-144.0,0.211,0.021,0.931,0.297
619944,-1834.0,2414.0,-1938.0,-316.0,-97.0,-80.0,0.213,0.02,0.93,0.299
619967,-1804.0,2844.0,-1938.0,-234.0,243.0,12.0,0.211,0.02,0.93,0.301
619980,-1908.0,2836.0,-2044.0,-259.0,573.0,85.0,0.206,0.019,0.93,0.304
620003,-1622.0,2594.0,-2716.0,-163.0,1009.0,167.0,0.197,0.018,0.932,0.306
620016,-1808.0,2994.0,-2352.0,-2.0,1271.0,257.0,0.185,0.017,0.934,0.306
620029,-1544.0,3214.0,-2734.0,31.0,1480.0,331.0,0.171,0.016,0.936,0.307
620052,-1414.0,3172.0,-3362.0,79.0,1789.0,451.0,0.154,0.015,0.939,0.307
620065,-1574.0,3628.0,-3384.0,183.0,1858.0,571.0,0.137,0.016,0.942,0.306
620088,-758.0,3114.0,-4920.0,190.0,2026.0,597.0,0.117,0.016,0.945,0.305
620101,-968.0,3656.0,-4858.0,281.0,2251.0,665.0,0.096,0.016,0.948,0.304
620124,-680.0,4342.0,-4968.0,263.0,2156.0,703.0,0.075,0.017,0.95,0.302
620137,-216.0,3460.0,-5246.0,165.0,2103.0,793.0,0.054,0.018,0.952,0.302
620160,342.0,3302.0,-7142.0,448.0,2276.0,758.0,0.031,0.019,0.954,0.298
620173,150.0,4606.0,-6460.0,580.0,2288.0,754.0,0.009,0.02,0.956,0.293
620196,378.0,4812.0,-5640.0,279.0,2061.0,838.0,0.012,-0.023,-0.956,-0.292
620209,1176.0,3646.0,-7784.0,107.0,2091.0,801.0,0.033,-0.024,-0.956,-0.291
620222,1796.0,3808.0,-8698.0,404.0,2218.0,756.0,0.054,-0.025,-0.956,-0.287
620245,1460.0,4868.0,-6666.0,419.0,2190.0,887.0,0.076,-0.027,-0.955,-0.284
620258,1866.0,4590.0,-6756.0,144.0,1901.0,844.0,0.096,-0.03,-0.954,-0.282
620281,2278.0,3574.0,-8418.0,210.0,1962.0,775.0,0.115,-0.031,-0.952,-0.28
620294,2618.0,5130.0,-8220.0,143.0,1942.0,878.0,0.135,-0.034,-0.95,-0.278
620317,3004.0,4708.0,-7966.0,-86.0,1939.0,881.0,0.154,-0.037,-0.947,-0.279
620335,3082.0,4694.0,-7144.0,15.0,1815.0,895.0,0.172,-0.04,-0.944,-0.278
620348,3328.0,4680.0,-7140.0,-129.0,1735.0,944.0,0.19,-0.044,-0.941,-0.278
620371,3596.0,4784.0,-7580.0,-255.0,1658.0,964.0,0.207,-0.048,-0.936,-0.279
620384,3956.0,4878.0,-8272.0,-297.0,1730.0,920.0,0.224,-0.052,-0.932,-0.281
620397,4118.0,5074.0,-6942.0,-381.0,1789.0,1102.0,0.243,-0.058,-0.926,-0.282
620420,4370.0,5226.0,-7252.0,-428.0,1759.0,1005.0,0.26,-0.063,-0.92,-0.285
620433,4740.0,5188.0,-6998.0,-564.0,1713.0,1076.0,0.278,-0.068,-0.914,-0.288
620456,5052.0,4950.0,-7330.0,-684.0,1745.0,1036.0,0.295,-0.074,-0.907,-0.292
620469,5518.0,4804.0,-7326.0,-702.0,1752.0,952.0,0.312,-0.079,-0.899,-0.296
620492,5482.0,5618.0,-6154.0,-779.0,1685.0,975.0,0.328,-0.084,-0.891,-0.301
620505,5896.0,4878.0,-6332.0,-906.0,1633.0,996.0,0.344,-0.091,-0.883,-0.307
620528,5914.0,5388.0,-5844.0,-1019.0,1545.0,1059.0,0.359,-0.098,-0.874,-0.313
620541,6516.0,5128.0,-5922.0,-1257.0,1455.0,1190.0,0.373,-0.107,-0.864,-0.32
620564,6498.0,4286.0,-6786.0,-1247.0,1524.0,1177.0,0.388,-0.116,-0.854,-0.327
620577,6838.0,4468.0,-5052.0,-1251.0,1429.0,1117.0,0.401,-0.124,-0.844,-0.334
620590,7012.0,5200.0,-4786.0,-1329.0,1211.0,1104.0,0.413,-0.134,-0.834,-0.342
620613,7424.0,4598.0,-4584.0,-1413.0,1095.0,1159.0,0.423,-0.144,-0.823,-0.35
620626,7170.0,4258.0,-4764.0,-1354.0,1010.0,1226.0,0.433,-0.155,-0.813,-0.356
620649,7150.0,4500.0,-4548.0,-1348.0,875.0,1114.0,0.442,-0.166,-0.803,-0.363
620662,6902.0,4554.0,-4652.0,-1300.0,719.0,1161.0,0.449,-0.177,-0.794,-0.369
