timeMs,ax,ay,az,gx,gy,gz,q0,q1,q2,q3
66421,7560.0,4944.0,-492.0,-1313.0,-810.0,-492.0,0.714,0.294,-0.635,-0.034
66433,8020.0,4258.0,20.0,-1510.0,-1026.0,-639.0,0.711,0.286,-0.64,-0.051
66455,8344.0,4150.0,300.0,-1604.0,-1125.0,-791.0,0.708,0.279,-0.645,-0.07
66467,8646.0,3804.0,-6.0,-1406.0,-1100.0,-938.0,0.704,0.274,-0.649,-0.088
66489,7982.0,5346.0,-1746.0,-1191.0,-1021.0,-1040.0,0.7,0.271,-0.652,-0.105
66501,7630.0,4998.0,-1228.0,-1018.0,-1051.0,-1147.0,0.695,0.27,-0.655,-0.122
66523,7772.0,4682.0,-64.0,-1147.0,-1097.0,-1302.0,0.689,0.268,-0.658,-0.141
66545,7548.0,5526.0,-922.0,-1163.0,-979.0,-1380.0,0.684,0.267,-0.659,-0.16
66557,7504.0,5548.0,-768.0,-1121.0,-999.0,-1535.0,0.678,0.267,-0.66,-0.18
66579,7246.0,5916.0,-1598.0,-1125.0,-1030.0,-1693.0,0.672,0.268,-0.661,-0.201
66591,7284.0,7188.0,-1396.0,-1307.0,-1056.0,-1777.0,0.665,0.268,-0.661,-0.223
66613,7502.0,6452.0,-816.0,-1510.0,-1103.0,-1850.0,0.657,0.268,-0.66,-0.247
66625,9052.0,5986.0,-462.0,-1690.0,-623.0,-558.0,0.656,0.258,-0.658,-0.263
66647,6288.0,8902.0,-1056.0,-1813.0,-1158.0,-1691.0,0.649,0.254,-0.657,-0.288
66659,7110.0,7334.0,-1164.0,-2209.0,-1202.0,-1906.0,0.641,0.249,-0.654,-0.316
66681,7066.0,7516.0,-1082.0,-2123.0,-1022.0,-2107.0,0.633,0.245,-0.649,-0.345
66693,6682.0,7096.0,-510.0,-2287.0,-865.0,-2073.0,0.626,0.241,-0.642,-0.373
66715,6198.0,7632.0,-254.0,-2389.0,-728.0,-1996.0,0.619,0.235,-0.633,-0.401
66737,5914.0,7868.0,-336.0,-2420.0,-683.0,-2073.0,0.612,0.23,-0.623,-0.429
66749,5648.0,8856.0,-444.0,-2543.0,-680.0,-2027.0,0.605,0.224,-0.612,-0.457
66771,5016.0,8096.0,-94.0,-2694.0,-797.0,-2086.0,0.596,0.217,-0.601,-0.486
66783,5144.0,6958.0,330.0,-2791.0,-851.0,-1906.0,0.587,0.208,-0.589,-0.514
66805,4500.0,7828.0,740.0,-2841.0,-793.0,-2091.0,0.578,0.199,-0.576,-0.543
66817,4862.0,8010.0,1012.0,-2666.0,-737.0,-2361.0,0.566,0.193,-0.562,-0.572
66839,2582.0,11462.0,450.0,-2895.0,-695.0,-3308.0,0.549,0.191,-0.544,-0.605
66851,4460.0,7240.0,680.0,-3310.0,-1131.0,-3243.0,0.53,0.183,-0.525,-0.64
66873,4128.0,7794.0,760.0,-2921.0,-840.0,-2950.0,0.512,0.178,-0.507,-0.67
66885,3638.0,8356.0,1672.0,-2660.0,-824.0,-2605.0,0.496,0.172,-0.49,-0.696
66907,2588.0,9908.0,1164.0,-2899.0,-937.0,-2749.0,0.477,0.165,-0.471,-0.723
66929,3990.0,6076.0,-118.0,-2921.0,-1057.0,-2197.0,0.462,0.154,-0.452,-0.747
66941,2832.0,7092.0,1474.0,-2579.0,-831.0,-2289.0,0.445,0.146,-0.435,-0.769
66963,2772.0,7006.0,1816.0,-2364.0,-1034.0,-2510.0,0.426,0.139,-0.42,-0.79
66975,2800.0,7624.0,1816.0,-2301.0,-925.0,-2422.0,0.406,0.132,-0.404,-0.809
66997,2406.0,6864.0,2054.0,-2439.0,-966.0,-2395.0,0.387,0.124,-0.387,-0.828
67009,2276.0,5670.0,2684.0,-2215.0,-898.0,-2403.0,0.367,0.117,-0.37,-0.845
67031,1828.0,5040.0,1802.0,-1838.0,-913.0,-2221.0,0.348,0.111,-0.356,-0.86
67043,2012.0,4654.0,2206.0,-1473.0,-870.0,-2131.0,0.329,0.107,-0.345,-0.873
67065,2672.0,5430.0,4388.0,-1122.0,-808.0,-2011.0,0.311,0.102,-0.337,-0.883
67087,1918.0,4028.0,5720.0,-644.0,-615.0,-1884.0,0.294,0.101,-0.331,-0.891
67099,1076.0,5032.0,4660.0,228.0,-218.0,-1651.0,0.279,0.105,-0.332,-0.895
67121,486.0,4726.0,1560.0,93.0,-290.0,-1329.0,0.266,0.107,-0.332,-0.898
67133,3624.0,3308.0,1342.0,31.0,-804.0,-1863.0,0.248,0.106,-0.333,-0.904
67155,2908.0,754.0,2256.0,36.0,-772.0,-1788.0,0.23,0.105,-0.333,-0.908
67167,2060.0,10.0,2808.0,415.0,-738.0,-1424.0,0.215,0.104,-0.337,-0.911
67189,1254.0,1776.0,3626.0,638.0,-938.0,-979.0,0.203,0.1,-0.343,-0.912
67211,1158.0,3130.0,4672.0,-55.0,-917.0,-800.0,0.192,0.094,-0.344,-0.914
67223,-180.0,668.0,4792.0,421.0,-1070.0,-747.0,0.182,0.088,-0.349,-0.915
67245,592.0,2094.0,4046.0,717.0,-1276.0,-526.0,0.172,0.08,-0.356,-0.915
67257,1036.0,3070.0,4312.0,951.0,-1418.0,-299.0,0.163,0.07,-0.367,-0.913
67279,2020.0,4144.0,5262.0,1141.0,-1594.0,-46.0,0.156,0.058,-0.379,-0.91
67291,2638.0,3772.0,5102.0,643.0,-1378.0,-18.0,0.15,0.047,-0.386,-0.909
67313,2170.0,3156.0,5152.0,677.0,-1409.0,-7.0,0.144,0.036,-0.394,-0.907
67325,2992.0,4476.0,5782.0,811.0,-1444.0,29.0,0.139,0.024,-0.402,-0.905
67347,3188.0,5778.0,7016.0,830.0,-1404.0,180.0,0.134,0.013,-0.411,-0.901
67359,5380.0,11754.0,8028.0,-137.0,-1398.0,1004.0,0.137,-0.003,-0.412,-0.901
67381,1920.0,4566.0,6972.0,-603.0,-903.0,551.0,0.138,-0.014,-0.408,-0.903
67393,3164.0,7250.0,9042.0,285.0,-1276.0,77.0,0.133,-0.025,-0.412,-0.901
67415,3120.0,7326.0,10626.0,-241.0,-659.0,183.0,0.131,-0.032,-0.41,-0.902
67437,2518.0,4850.0,8358.0,-335.0,-393.0,37.0,0.129,-0.036,-0.408,-0.903
67449,4100.0,8010.0,8942.0,175.0,-553.0,-188.0,0.125,-0.04,-0.41,-0.903
67471,4538.0,7452.0,8768.0,-544.0,197.0,-99.0,0.125,-0.039,-0.405,-0.905
67483,2494.0,6508.0,8360.0,-326.0,272.0,-472.0,0.121,-0.035,-0.402,-0.907
67505,2560.0,6144.0,7518.0,-102.0,455.0,-422.0,0.119,-0.03,-0.401,-0.908
67517,2032.0,7880.0,7672.0,-107.0,739.0,-224.0,0.12,-0.023,-0.399,-0.909
67539,982.0,5700.0,7496.0,-496.0,831.0,-89.0,0.122,-0.016,-0.394,-0.911
67551,2254.0,5574.0,6614.0,-732.0,886.0,-129.0,0.124,-0.009,-0.387,-0.914
67573,1656.0,4138.0,6752.0,-646.0,1013.0,-73.0,0.127,-0.002,-0.38,-0.916
67595,2250.0,4552.0,6934.0,-353.0,1172.0,196.0,0.132,0.007,-0.375,-0.917
67607,1442.0,3404.0,6452.0,-40.0,1318.0,372.0,0.14,0.016,-0.373,-0.917
67629,1852.0,3352.0,6184.0,107.0,1327.0,510.0,0.148,0.026,-0.372,-0.916
67641,1724.0,5142.0,6602.0,232.0,1492.0,585.0,0.158,0.036,-0.372,-0.914
67663,1394.0,6122.0,7178.0,274.0,1521.0,542.0,0.167,0.047,-0.372,-0.912
67675,1334.0,6336.0,6926.0,187.0,1584.0,415.0,0.176,0.059,-0.371,-0.91
67697,796.0,5596.0,6556.0,159.0,1609.0,451.0,0.185,0.071,-0.37,-0.908
67709,1234.0,5368.0,6376.0,373.0,1747.0,486.0,0.194,0.085,-0.371,-0.904
67731,1822.0,7576.0,7110.0,337.0,2286.0,439.0,0.205,0.103,-0.37,-0.9
67743,774.0,8336.0,6912.0,-330.0,2545.0,488.0,0.218,0.122,-0.362,-0.898
67766,56.0,5824.0,6586.0,-854.0,2490.0,431.0,0.23,0.139,-0.351,-0.897
67788,286.0,3920.0,6674.0,-915.0,2417.0,494.0,0.243,0.155,-0.338,-0.896
67800,576.0,3666.0,6584.0,-379.0,2669.0,867.0,0.259,0.173,-0.33,-0.891
67822,42.0,5848.0,6410.0,-128.0,2695.0,974.0,0.275,0.192,-0.324,-0.885
67834,112.0,6206.0,6658.0,-238.0,2738.0,1025.0,0.291,0.21,-0.317,-0.878
67856,-182.0,7016.0,6434.0,-722.0,2848.0,995.0,0.309,0.228,-0.305,-0.872
67868,-788.0,6902.0,6448.0,-1550.0,2858.0,983.0,0.327,0.244,-0.287,-0.867
67890,-1532.0,5042.0,6728.0,-2267.0,2664.0,965.0,0.346,0.255,-0.262,-0.864
67902,-1426.0,4150.0,6798.0,-2462.0,2541.0,958.0,0.365,0.265,-0.237,-0.861
67924,-1388.0,4234.0,6474.0,-2452.0,2521.0,1053.0,0.384,0.274,-0.211,-0.856
67936,-1582.0,4000.0,6932.0,-2466.0,2519.0,1203.0,0.404,0.282,-0.185,-0.85
67958,-1720.0,3910.0,7054.0,-2411.0,2505.0,1358.0,0.425,0.29,-0.161,-0.842
67980,-2004.0,4064.0,6568.0,-2462.0,2443.0,1493.0,0.446,0.297,-0.136,-0.834
67992,-2428.0,3298.0,5902.0,-2482.0,2278.0,1566.0,0.467,0.302,-0.112,-0.824
68014,-2746.0,2488.0,4916.0,-2420.0,2016.0,1651.0,0.487,0.305,-0.089,-0.814
68026,-2824.0,2072.0,4882.0,-2345.0,1811.0,1769.0,0.508,0.306,-0.069,-0.803
68048,-2942.0,1880.0,5394.0,-2271.0,1587.0,1920.0,0.528,0.306,-0.05,-0.791
68060,-2586.0,2356.0,5590.0,-2244.0,1338.0,2044.0,0.549,0.303,-0.033,-0.778
68082,-2388.0,2776.0,5240.0,-2239.0,1135.0,2143.0,0.57,0.299,-0.017,-0.765
68094,-2280.0,3180.0,5566.0,-1991.0,926.0,2242.0,0.591,0.295,-0.005,-0.751
68116,-2014.0,3444.0,5608.0,-1561.0,700.0,2198.0,0.61,0.291,0.004,-0.737
68138,-1750.0,4032.0,4550.0,-1283.0,552.0,2137.0,0.627,0.288,0.009,-0.724
68150,-1824.0,4636.0,4246.0,-1258.0,423.0,2088.0,0.643,0.283,0.015,-0.711
68177,-1986.0,4094.0,5424.0,-1240.0,171.0,2017.0,0.659,0.277,0.018,-0.699
68189,-1102.0,4696.0,6358.0,-812.0,39.0,1864.0,0.673,0.273,0.018,-0.688
68201,-1190.0,5666.0,5678.0,-466.0,38.0,1667.0,0.684,0.271,0.016,-0.677
68223,-190.0,2590.0,6166.0,-310.0,-100.0,1906.0,0.696,0.268,0.012,-0.666
68235,-1010.0,5472.0,7300.0,-900.0,-112.0,2356.0,0.712,0.262,0.011,-0.651
68257,-1480.0,4218.0,5162.0,-778.0,-411.0,1241.0,0.721,0.254,0.01,-0.645
68279,-1740.0,3342.0,6514.0,-901.0,-504.0,774.0,0.727,0.245,0.009,-0.641
68291,-792.0,3542.0,6784.0,-591.0,-471.0,705.0,0.732,0.238,0.007,-0.638
68313,-230.0,3924.0,7124.0,-215.0,-432.0,1136.0,0.739,0.234,0.003,-0.631
68325,-768.0,4666.0,7250.0,149.0,-372.0,901.0,0.744,0.233,-0.004,-0.627
68347,-188.0,5072.0,13830.0,198.0,-99.0,819.0,0.747,0.234,-0.007,-0.622
68359,-912.0,15008.0,3696.0,1254.0,476.0,1127.0,0.751,0.245,-0.014,-0.613
68381,-3526.0,3148.0,5470.0,-1088.0,-320.0,490.0,0.755,0.236,-0.011,-0.611
68393,-596.0,2838.0,7648.0,-229.0,54.0,-326.0,0.754,0.234,-0.009,-0.614
68415,-2018.0,3268.0,7008.0,-62.0,99.0,-241.0,0.752,0.235,-0.008,-0.616
68427,-1846.0,3334.0,7154.0,-141.0,-15.0,25.0,0.752,0.233,-0.008,-0.617
68449,-1772.0,3116.0,8188.0,-127.0,-132.0,-21.0,0.752,0.232,-0.008,-0.618
68471,-1558.0,2696.0,7654.0,-202.0,-145.0,21.0,0.752,0.229,-0.008,-0.618
68483,-1448.0,2634.0,7800.0,-315.0,-139.0,106.0,0.753,0.226,-0.008,-0.618
68505,-1596.0,1832.0,7596.0,-289.0,-92.0,58.0,0.753,0.223,-0.007,-0.619
68517,-1558.0,1260.0,7906.0,-79.0,0.0,-121.0,0.752,0.222,-0.007,-0.621
68539,-1512.0,2500.0,7610.0,157.0,124.0,-65.0,0.751,0.224,-0.007,-0.621
68551,-1598.0,2888.0,7652.0,148.0,146.0,125.0,0.751,0.226,-0.007,-0.621
68573,-1858.0,2972.0,7534.0,72.0,85.0,132.0,0.751,0.227,-0.007,-0.62
68585,-1738.0,3476.0,7434.0,5.0,23.0,-78.0,0.75,0.227,-0.008,-0.621
68607,-1798.0,3574.0,7346.0,-63.0,-34.0,-245.0,0.748,0.226,-0.007,-0.623
68619,-1802.0,2530.0,7632.0,-129.0,70.0,-253.0,0.747,0.226,-0.006,-0.626
68641,-2058.0,1468.0,7760.0,67.0,20.0,-223.0,0.745,0.226,-0.005,-0.628
68663,-1786.0,2170.0,7720.0,294.0,86.0,-191.0,0.743,0.228,-0.006,-0.63
68675,-1632.0,2200.0,7808.0,386.0,172.0,-121.0,0.741,0.232,-0.007,-0.631
68697,-2472.0,1256.0,8106.0,492.0,289.0,-146.0,0.738,0.237,-0.008,-0.632
68709,-2268.0,2676.0,7428.0,640.0,352.0,-101.0,0.736,0.243,-0.009,-0.632
68731,-2392.0,3112.0,7502.0,495.0,299.0,49.0,0.735,0.248,-0.01,-0.632
68743,-2294.0,3486.0,7442.0,321.0,234.0,186.0,0.735,0.252,-0.011,-0.63
68765,-2420.0,3618.0,7294.0,231.0,103.0,186.0,0.735,0.254,-0.013,-0.629
68777,-2300.0,3366.0,7360.0,144.0,29.0,165.0,0.735,0.255,-0.014,-0.628
68799,-2150.0,2466.0,7260.0,108.0,-25.0,189.0,0.735,0.255,-0.015,-0.628
68821,-1696.0,3000.0,7086.0,254.0,-10.0,147.0,0.735,0.257,-0.017,-0.627
68833,-1770.0,3774.0,7094.0,224.0,18.0,158.0,0.735,0.258,-0.019,-0.627
68855,-1586.0,3892.0,7454.0,37.0,16.0,159.0,0.735,0.259,-0.02,-0.626
68867,-1798.0,3382.0,7556.0,-94.0,-27.0,80.0,0.736,0.258,-0.02,-0.626
68889,-1792.0,3206.0,7524.0,-138.0,-48.0,10.0,0.736,0.256,-0.02,-0.627
68901,-2126.0,2940.0,7550.0,-97.0,-32.0,39.0,0.736,0.255,-0.02,-0.627
68923,-2292.0,2696.0,7546.0,-28.0,-33.0,49.0,0.735,0.255,-0.02,-0.628
68935,-2154.0,3080.0,7276.0,77.0,-40.0,79.0,0.735,0.255,-0.022,-0.628
68957,-2466.0,3604.0,7266.0,22.0,-154.0,157.0,0.736,0.254,-0.023,-0.628
68979,-1930.0,3574.0,7282.0,-75.0,-120.0,132.0,0.736,0.253,-0.024,-0.627
68991,-2166.0,2584.0,7522.0,-130.0,-90.0,132.0,0.737,0.251,-0.025,-0.627
69013,-2052.0,2660.0,7402.0,85.0,-108.0,132.0,0.737,0.251,-0.026,-0.627
69025,-1616.0,3344.0,7244.0,160.0,-78.0,150.0,0.737,0.252,-0.028,-0.627
69047,-2186.0,3426.0,7268.0,111.0,-145.0,129.0,0.737,0.251,-0.031,-0.627
69059,-1464.0,3742.0,7164.0,21.0,-175.0,18.0,0.737,0.25,-0.032,-0.627
69081,-918.0,4062.0,7096.0,-100.0,-118.0,-93.0,0.736,0.249,-0.033,-0.629
69093,-878.0,3572.0,7222.0,-260.0,3.0,-212.0,0.735,0.247,-0.031,-0.631
69115,-1472.0,3074.0,7508.0,-154.0,42.0,-399.0,0.732,0.246,-0.029,-0.634
69127,-1306.0,4446.0,7458.0,14.0,76.0,-569.0,0.729,0.247,-0.028,-0.638
69149,-1226.0,2474.0,6850.0,148.0,10.0,-801.0,0.723,0.248,-0.027,-0.644
69171,-966.0,5290.0,7286.0,75.0,-16.0,-753.0,0.718,0.249,-0.026,-0.65
69183,-1254.0,4810.0,6974.0,-112.0,-122.0,-848.0,0.713,0.247,-0.025,-0.656
69205,-1622.0,4534.0,7130.0,-299.0,-154.0,-837.0,0.708,0.245,-0.023,-0.662
69217,-1992.0,2446.0,7046.0,-454.0,-216.0,-803.0,0.703,0.24,-0.02,-0.669
69239,-1954.0,3304.0,7354.0,-110.0,-2.0,-781.0,0.698,0.24,-0.018,-0.674
69251,-2232.0,2632.0,7170.0,-339.0,-69.0,-669.0,0.694,0.237,-0.015,-0.679
69273,-2090.0,3322.0,7100.0,-145.0,-8.0,-619.0,0.69,0.236,-0.013,-0.684
69285,-2590.0,1360.0,7380.0,-105.0,-77.0,-391.0,0.687,0.235,-0.012,-0.687
69307,-3248.0,1690.0,6268.0,23.0,-117.0,-453.0,0.684,0.234,-0.012,-0.691
69329,-3172.0,1816.0,6632.0,-75.0,-178.0,145.0,0.684,0.233,-0.013,-0.691
69341,-3318.0,1310.0,7114.0,412.0,73.0,-139.0,0.682,0.236,-0.014,-0.692
69363,-3354.0,3622.0,7694.0,366.0,88.0,-213.0,0.679,0.239,-0.016,-0.694
69375,-3652.0,1638.0,8088.0,243.0,-85.0,-462.0,0.675,0.24,-0.017,-0.697
69397,-3156.0,1286.0,7996.0,326.0,-67.0,-462.0,0.671,0.241,-0.018,-0.701
69409,-3266.0,1604.0,8126.0,358.0,6.0,-195.0,0.668,0.243,-0.02,-0.703
69431,-2598.0,1228.0,8548.0,272.0,-35.0,-106.0,0.667,0.245,-0.022,-0.704
69443,-1988.0,534.0,8824.0,329.0,-69.0,170.0,0.666,0.246,-0.025,-0.703
69465,-1600.0,422.0,8742.0,515.0,-27.0,202.0,0.666,0.249,-0.029,-0.703
69477,-1244.0,430.0,8786.0,538.0,182.0,289.0,0.666,0.252,-0.032,-0.701
69500,-1440.0,780.0,8552.0,438.0,297.0,365.0,0.667,0.256,-0.034,-0.698
69522,-1294.0,10.0,8224.0,580.0,446.0,370.0,0.668,0.262,-0.036,-0.696
69534,-1422.0,296.0,8152.0,594.0,590.0,434.0,0.669,0.269,-0.037,-0.692
69556,-1152.0,1846.0,8292.0,258.0,624.0,471.0,0.672,0.273,-0.036,-0.688
69568,-1652.0,2968.0,8196.0,-602.0,458.0,513.0,0.676,0.272,-0.031,-0.684
69590,-1788.0,1280.0,7312.0,-1061.0,289.0,725.0,0.683,0.266,-0.024,-0.68
69602,-2094.0,1678.0,8450.0,-777.0,386.0,921.0,0.69,0.263,-0.019,-0.674
69624,-2080.0,4478.0,7520.0,-437.0,308.0,1054.0,0.698,0.262,-0.017,-0.667
69636,-2564.0,4062.0,6716.0,-641.0,134.0,985.0,0.705,0.259,-0.015,-0.66
69658,-2394.0,5148.0,6566.0,-569.0,98.0,718.0,0.71,0.256,-0.013,-0.656
69670,-2668.0,5266.0,6338.0,-680.0,-67.0,464.0,0.714,0.251,-0.011,-0.653
69692,-2648.0,5638.0,6250.0,-697.0,-147.0,346.0,0.717,0.246,-0.009,-0.652
69714,-940.0,1834.0,6866.0,-1172.0,-603.0,-176.0,0.718,0.235,-0.006,-0.655
69726,-2950.0,3048.0,6640.0,-806.0,-332.0,-21.0,0.719,0.228,-0.003,-0.657
69748,-1926.0,2716.0,6674.0,-455.0,-158.0,188.0,0.721,0.224,-0.002,-0.656
69760,-2272.0,3330.0,6950.0,335.0,279.0,339.0,0.722,0.228,-0.004,-0.654
69782,-2888.0,3726.0,6924.0,308.0,202.0,463.0,0.723,0.231,-0.005,-0.651
69794,-2696.0,4014.0,6956.0,251.0,160.0,314.0,0.724,0.234,-0.007,-0.648
69816,-2842.0,3704.0,6988.0,-24.0,153.0,96.0,0.725,0.235,-0.006,-0.648
69828,-2406.0,3738.0,7130.0,-353.0,-19.0,-562.0,0.722,0.233,-0.003,-0.652
69850,-1880.0,2414.0,7508.0,-314.0,63.0,-310.0,0.72,0.231,-0.0,-0.655
69872,-1212.0,1468.0,7352.0,-238.0,164.0,525.0,0.723,0.23,0.001,-0.651
69884,-2500.0,3506.0,7660.0,-214.0,29.0,40.0,0.724,0.229,0.002,-0.651
69906,-2094.0,2896.0,7822.0,-543.0,-194.0,-204.0,0.723,0.224,0.004,-0.654
69918,-1790.0,1960.0,7652.0,-407.0,-132.0,6.0,0.724,0.22,0.006,-0.654
69940,-1914.0,2192.0,7896.0,-340.0,-82.0,14.0,0.724,0.217,0.007,-0.655
69952,-1832.0,2244.0,7814.0,-330.0,-92.0,-190.0,0.723,0.214,0.009,-0.657
69974,-1482.0,1834.0,7854.0,-293.0,-82.0,-205.0,0.722,0.211,0.01,-0.659
69996,-1430.0,1736.0,7858.0,-38.0,44.0,-62.0,0.721,0.211,0.011,-0.659
70008,-1692.0,1922.0,7802.0,85.0,95.0,28.0,0.721,0.212,0.011,-0.66
70020,-1846.0,2262.0,8182.0,-2.0,41.0,-161.0,0.72,0.212,0.011,-0.661
70043,-1720.0,1802.0,7826.0,-226.0,-26.0,-141.0,0.719,0.21,0.012,-0.662
70065,-1660.0,1312.0,7920.0,-231.0,-29.0,59.0,0.719,0.208,0.013,-0.662
70077,-1792.0,1772.0,7826.0,-88.0,2.0,142.0,0.72,0.207,0.013,-0.662
70099,-1924.0,2194.0,7766.0,-12.0,26.0,153.0,0.721,0.207,0.013,-0.661
70111,-2054.0,2194.0,7740.0,-9.0,33.0,153.0,0.721,0.208,0.013,-0.661
70133,-2164.0,2384.0,7794.0,-34.0,21.0,15.0,0.721,0.207,0.013,-0.661
70145,-2130.0,2250.0,7716.0,-133.0,-16.0,-7.0,0.721,0.206,0.014,-0.661
70167,-2154.0,2142.0,7628.0,-166.0,-21.0,-7.0,0.721,0.205,0.015,-0.662
70184,-2202.0,1866.0,7800.0,-99.0,-8.0,-36.0,0.721,0.204,0.015,-0.662
70196,-2090.0,2046.0,7756.0,-20.0,13.0,0.0,0.72,0.204,0.015,-0.663
70218,-2110.0,1988.0,7858.0,11.0,2.0,21.0,0.72,0.204,0.015,-0.663
70240,-2058.0,1990.0,7750.0,-39.0,-36.0,70.0,0.72,0.204,0.015,-0.663
70252,-2092.0,1922.0,7740.0,18.0,-35.0,68.0,0.72,0.203,0.014,-0.663
70274,-1940.0,2142.0,7610.0,-62.0,-99.0,94.0,0.721,0.202,0.014,-0.663
70286,-2108.0,1972.0,7736.0,-65.0,-104.0,34.0,0.721,0.201,0.013,-0.663
70308,-2110.0,2032.0,7810.0,-43.0,-97.0,-10.0,0.72,0.2,0.013,-0.664
70320,-2056.0,2014.0,7848.0,-100.0,-120.0,21.0,0.72,0.199,0.012,-0.664
70342,-2110.0,1946.0,7928.0,-64.0,-123.0,-29.0,0.72,0.197,0.012,-0.665
70354,-2156.0,1732.0,7824.0,13.0,-139.0,-51.0,0.719,0.196,0.011,-0.666
70376,-1966.0,1838.0,7828.0,30.0,-144.0,25.0,0.719,0.196,0.009,-0.667
70388,-1860.0,2116.0,7722.0,61.0,-122.0,33.0,0.719,0.195,0.008,-0.667
70410,-1768.0,2138.0,7756.0,-5.0,-127.0,64.0,0.719,0.194,0.007,-0.667
70432,-1738.0,2102.0,7814.0,-51.0,-135.0,46.0,0.719,0.193,0.006,-0.668
70444,-1756.0,2098.0,7806.0,-100.0,-134.0,-26.0,0.718,0.191,0.006,-0.669
70466,-1776.0,1976.0,7782.0,-107.0,-127.0,-44.0,0.718,0.19,0.005,-0.67
70478,-1666.0,2014.0,7778.0,-102.0,-94.0,-53.0,0.718,0.188,0.005,-0.67
70500,-1782.0,1822.0,7748.0,-88.0,-81.0,-58.0,0.717,0.187,0.005,-0.671
70512,-1776.0,2028.0,7816.0,-61.0,-66.0,-46.0,0.716,0.186,0.005,-0.672
70534,-1762.0,1922.0,7762.0,-56.0,-67.0,-45.0,0.716,0.185,0.005,-0.673
70546,-1726.0,1976.0,7840.0,-74.0,-46.0,-23.0,0.716,0.185,0.005,-0.674
70568,-1786.0,1818.0,7864.0,-60.0,-32.0,-10.0,0.715,0.184,0.005,-0.674
70590,-1796.0,1926.0,7792.0,-23.0,-1.0,0.0,0.715,0.184,0.005,-0.675
70602,-1780.0,2022.0,7806.0,-5.0,12.0,1.0,0.715,0.184,0.005,-0.675
70624,-1806.0,1858.0,7872.0,-21.0,18.0,-29.0,0.714,0.183,0.005,-0.676
70636,-1746.0,1898.0,7830.0,8.0,30.0,-40.0,0.714,0.184,0.006,-0.676
70658,-1758.0,1998.0,7824.0,-9.0,35.0,-43.0,0.713,0.184,0.006,-0.677
70670,-1746.0,1874.0,7876.0,-37.0,41.0,-49.0,0.712,0.184,0.006,-0.677
70692,-1700.0,1842.0,7866.0,-20.0,44.0,-29.0,0.712,0.184,0.007,-0.678
70704,-1728.0,1924.0,7876.0,1.0,46.0,-6.0,0.712,0.184,0.007,-0.678
70726,-1858.0,1876.0,7786.0,19.0,32.0,2.0,0.711,0.184,0.007,-0.678
70748,-1852.0,1974.0,7834.0,36.0,34.0,-15.0,0.711,0.184,0.007,-0.679
70760,-1718.0,2004.0,7906.0,10.0,44.0,-9.0,0.71,0.185,0.007,-0.679
70782,-1904.0,1876.0,7896.0,-18.0,37.0,-41.0,0.71,0.185,0.007,-0.68
70794,-1734.0,2078.0,7862.0,-6.0,34.0,-85.0,0.709,0.185,0.007,-0.681
70816,-1838.0,2060.0,7812.0,-36.0,34.0,-76.0,0.708,0.185,0.008,-0.681
70828,-1818.0,1884.0,7936.0,-32.0,25.0,-86.0,0.707,0.185,0.008,-0.682
70850,-1868.0,1822.0,7838.0,-32.0,15.0,-80.0,0.706,0.184,0.008,-0.683
70862,-1890.0,1916.0,7826.0,-32.0,15.0,-34.0,0.706,0.184,0.009,-0.684
70884,-1912.0,1774.0,7878.0,-9.0,15.0,-31.0,0.705,0.184,0.009,-0.684
70896,-1882.0,1916.0,7856.0,7.0,23.0,-17.0,0.705,0.184,0.009,-0.685
70918,-1860.0,1936.0,7830.0,8.0,36.0,5.0,0.705,0.184,0.009,-0.685
70940,-1948.0,1996.0,7870.0,13.0,34.0,-13.0,0.704,0.185,0.009,-0.685
70952,-1886.0,1904.0,7866.0,12.0,22.0,-28.0,0.704,0.185,0.009,-0.686
70974,-1832.0,1868.0,7806.0,20.0,23.0,-41.0,0.703,0.185,0.009,-0.686
70986,-1760.0,1818.0,7802.0,16.0,43.0,-30.0,0.703,0.185,0.009,-0.687
71008,-1686.0,1914.0,7860.0,19.0,43.0,-27.0,0.702,0.186,0.009,-0.687
71020,-1776.0,1950.0,7902.0,8.0,39.0,-20.0,0.702,0.186,0.009,-0.688
71042,-1848.0,1948.0,7828.0,-3.0,21.0,-14.0,0.701,0.186,0.009,-0.688
71054,-1932.0,1914.0,7900.0,-7.0,27.0,-22.0,0.701,0.186,0.009,-0.689
71076,-1948.0,1938.0,7866.0,-10.0,23.0,-22.0,0.7,0.186,0.009,-0.689
71098,-1952.0,1910.0,7882.0,1.0,10.0,-20.0,0.7,0.186,0.009,-0.689
71110,-1966.0,1870.0,7878.0,5.0,12.0,-42.0,0.699,0.186,0.009,-0.69
71132,-1918.0,1854.0,7792.0,23.0,28.0,-38.0,0.699,0.186,0.009,-0.691
71144,-1930.0,1940.0,7782.0,40.0,38.0,-32.0,0.698,0.187,0.009,-0.691
71166,-1912.0,1960.0,7818.0,36.0,27.0,-29.0,0.698,0.187,0.009,-0.692
71178,-1808.0,1980.0,7824.0,12.0,25.0,-16.0,0.697,0.187,0.009,-0.692
71200,-1830.0,1914.0,7754.0,6.0,29.0,-13.0,0.697,0.187,0.009,-0.692
71212,-1954.0,1918.0,7838.0,9.0,31.0,-2.0,0.696,0.187,0.009,-0.693
71234,-1966.0,2028.0,7794.0,5.0,28.0,-11.0,0.696,0.188,0.009,-0.693
71256,-1944.0,1900.0,7810.0,-8.0,18.0,-19.0,0.696,0.188,0.009,-0.694
71268,-2006.0,1956.0,7842.0,-15.0,14.0,-41.0,0.695,0.188,0.01,-0.694
71290,-1970.0,1942.0,7840.0,-11.0,10.0,-49.0,0.694,0.187,0.01,-0.695
71302,-1972.0,1856.0,7844.0,-2.0,7.0,-44.0,0.694,0.187,0.01,-0.695
71324,-1906.0,1920.0,7812.0,20.0,-6.0,-30.0,0.693,0.187,0.009,-0.696
71336,-1938.0,1962.0,7816.0,15.0,-1.0,-18.0,0.693,0.187,0.009,-0.696
71358,-1888.0,1954.0,7802.0,4.0,2.0,-2.0,0.692,0.187,0.009,-0.697
71370,-1918.0,1940.0,7818.0,5.0,-2.0,-5.0,0.692,0.187,0.009,-0.697
71392,-1890.0,1884.0,7840.0,8.0,-2.0,2.0,0.692,0.187,0.009,-0.697
71404,-1846.0,1986.0,7780.0,2.0,16.0,-6.0,0.691,0.187,0.009,-0.698
71426,-1924.0,1978.0,7736.0,3.0,19.0,-15.0,0.691,0.187,0.009,-0.698
71448,-1868.0,1948.0,7794.0,-6.0,26.0,-22.0,0.69,0.187,0.009,-0.699
71460,-1884.0,1986.0,7782.0,-3.0,23.0,-26.0,0.69,0.188,0.009,-0.699
71482,-1910.0,1980.0,7828.0,-38.0,25.0,-17.0,0.69,0.187,0.009,-0.699
71494,-1972.0,1954.0,7874.0,-50.0,21.0,-21.0,0.689,0.187,0.01,-0.7
71516,-2004.0,1844.0,7836.0,-39.0,-2.0,-34.0,0.689,0.187,0.01,-0.7
71528,-1930.0,1854.0,7872.0,-9.0,-11.0,-31.0,0.688,0.187,0.01,-0.701
71550,-1970.0,1766.0,7904.0,8.0,-9.0,-27.0,0.688,0.186,0.009,-0.701
71562,-2148.0,1838.0,7910.0,32.0,-46.0,-48.0,0.687,0.186,0.009,-0.702
71584,-1828.0,1918.0,7872.0,24.0,-13.0,-45.0,0.687,0.186,0.009,-0.703
71606,-2136.0,1824.0,7716.0,71.0,-53.0,-12.0,0.686,0.186,0.008,-0.703
71618,-2054.0,1838.0,7756.0,75.0,-37.0,1.0,0.685,0.186,0.007,-0.704
71640,-1934.0,2012.0,7842.0,84.0,-53.0,38.0,0.685,0.187,0.006,-0.704
71652,-1912.0,1992.0,7844.0,74.0,-110.0,71.0,0.685,0.186,0.004,-0.704
71674,-1454.0,2040.0,7822.0,1.0,-129.0,70.0,0.685,0.185,0.003,-0.704
71686,-764.0,1846.0,8088.0,-21.0,115.0,86.0,0.686,0.186,0.004,-0.704
71708,-1168.0,2428.0,7862.0,135.0,190.0,85.0,0.686,0.188,0.004,-0.703
71720,-912.0,2852.0,7982.0,255.0,169.0,-32.0,0.685,0.19,0.003,-0.703
71742,-812.0,3618.0,7716.0,241.0,33.0,-143.0,0.683,0.192,0.001,-0.704
71754,408.0,4206.0,7478.0,597.0,-4.0,-399.0,0.679,0.196,-0.003,-0.707
71777,1104.0,5600.0,7036.0,882.0,55.0,-658.0,0.673,0.202,-0.007,-0.711
71789,1100.0,6756.0,7924.0,947.0,207.0,-919.0,0.665,0.209,-0.011,-0.717
71812,48.0,7122.0,8378.0,648.0,273.0,-1199.0,0.655,0.215,-0.011,-0.724
71834,18.0,6834.0,7130.0,478.0,178.0,-1518.0,0.644,0.219,-0.01,-0.733
71846,-274.0,5776.0,5456.0,615.0,81.0,-1777.0,0.63,0.224,-0.011,-0.744
71868,-372.0,5626.0,4424.0,944.0,-58.0,-1932.0,0.614,0.229,-0.014,-0.755
71880,-712.0,5314.0,3900.0,1289.0,-209.0,-2029.0,0.597,0.235,-0.02,-0.767
71902,-1142.0,4572.0,3706.0,1500.0,-476.0,-2132.0,0.578,0.241,-0.029,-0.779
71914,-1406.0,4092.0,3492.0,1739.0,-780.0,-2193.0,0.557,0.245,-0.041,-0.793
71936,-2096.0,2058.0,4430.0,1874.0,-1049.0,-2161.0,0.536,0.247,-0.056,-0.805
71948,-2732.0,1288.0,4998.0,1985.0,-1155.0,-1975.0,0.515,0.25,-0.072,-0.817
71970,-3388.0,1062.0,4640.0,1976.0,-1334.0,-1734.0,0.496,0.25,-0.089,-0.827
71992,-3514.0,2192.0,5666.0,1891.0,-1409.0,-1515.0,0.478,0.249,-0.107,-0.835
72004,-3794.0,1486.0,7302.0,1749.0,-1433.0,-1331.0,0.462,0.247,-0.123,-0.843
72026,-4104.0,1378.0,8020.0,1847.0,-1353.0,-1136.0,0.447,0.245,-0.141,-0.849
72038,-4006.0,1742.0,8280.0,1971.0,-1167.0,-921.0,0.433,0.245,-0.16,-0.853
72060,-3912.0,3280.0,9032.0,2081.0,-961.0,-733.0,0.42,0.247,-0.178,-0.855
72072,-3472.0,4570.0,10002.0,2163.0,-834.0,-676.0,0.408,0.25,-0.197,-0.856
72094,-2860.0,6248.0,9936.0,2065.0,-674.0,-713.0,0.396,0.254,-0.215,-0.856
72106,-2926.0,5934.0,9102.0,1766.0,-637.0,-855.0,0.383,0.257,-0.229,-0.857
72128,-2800.0,5508.0,8392.0,1572.0,-671.0,-1063.0,0.369,0.259,-0.242,-0.859
72140,-2756.0,6402.0,7982.0,1620.0,-729.0,-1227.0,0.353,0.261,-0.254,-0.861
72162,-2838.0,7852.0,7534.0,1594.0,-793.0,-1346.0,0.336,0.263,-0.267,-0.864
72189,-3174.0,7442.0,6960.0,1266.0,-969.0,-1492.0,0.319,0.263,-0.276,-0.868
72201,-2780.0,6584.0,6830.0,1017.0,-1108.0,-1737.0,0.299,0.261,-0.284,-0.873
72213,-2492.0,7134.0,6850.0,697.0,-1078.0,-1850.0,0.279,0.259,-0.288,-0.879
72235,-2330.0,7216.0,6588.0,392.0,-1084.0,-1912.0,0.259,0.256,-0.289,-0.885
72247,-2106.0,6266.0,5942.0,219.0,-1077.0,-2044.0,0.238,0.253,-0.289,-0.892
72269,-1848.0,5744.0,5568.0,69.0,-1090.0,-2106.0,0.217,0.25,-0.287,-0.899
72281,-1768.0,6614.0,5672.0,-60.0,-1121.0,-2213.0,0.196,0.246,-0.284,-0.906
72303,-2802.0,7322.0,5612.0,-25.0,-1244.0,-2849.0,0.168,0.243,-0.28,-0.914
72315,882.0,3464.0,6488.0,-61.0,-1043.0,-1455.0,0.153,0.237,-0.277,-0.919
72337,-1458.0,6164.0,6694.0,217.0,-859.0,-1173.0,0.14,0.232,-0.278,-0.921
72359,-1136.0,6700.0,6316.0,-192.0,-961.0,-1304.0,0.126,0.227,-0.275,-0.926
72371,16.0,3750.0,7112.0,-115.0,-840.0,-1906.0,0.108,0.224,-0.271,-0.93
72393,-494.0,4856.0,7964.0,-154.0,-585.0,-1740.0,0.091,0.223,-0.266,-0.933
72405,-358.0,3510.0,7752.0,-113.0,-449.0,-1327.0,0.079,0.222,-0.263,-0.936
72427,-890.0,3530.0,7432.0,164.0,-203.0,-1146.0,0.068,0.222,-0.262,-0.937
72439,-1148.0,4062.0,7164.0,153.0,-117.0,-1038.0,0.058,0.223,-0.261,-0.937
72461,-1132.0,3284.0,6650.0,55.0,-87.0,-931.0,0.05,0.224,-0.26,-0.938
72473,-1158.0,3104.0,6262.0,233.0,1.0,-712.0,0.042,0.226,-0.26,-0.938
72495,-1462.0,3438.0,5860.0,244.0,-25.0,-485.0,0.037,0.227,-0.261,-0.937
72517,-1656.0,3354.0,5548.0,106.0,-132.0,-349.0,0.034,0.227,-0.262,-0.938
72529,-1856.0,3584.0,5144.0,-49.0,-314.0,-288.0,0.03,0.224,-0.261,-0.938
72551,-1872.0,3374.0,4736.0,-259.0,-516.0,-174.0,0.027,0.22,-0.258,-0.94
72563,-1854.0,3320.0,5280.0,-242.0,-638.0,-112.0,0.025,0.215,-0.256,-0.942
72585,-1934.0,3302.0,5954.0,-223.0,-742.0,-104.0,0.023,0.208,-0.254,-0.944
72597,-1784.0,3788.0,7042.0,-287.0,-736.0,-53.0,0.021,0.201,-0.252,-0.946
72619,-1676.0,3426.0,7604.0,-376.0,-714.0,-84.0,0.019,0.195,-0.248,-0.949
72631,-1982.0,4200.0,7742.0,-266.0,-595.0,64.0,0.018,0.189,-0.246,-0.95
72653,-2258.0,4402.0,7752.0,-241.0,-599.0,-27.0,0.017,0.184,-0.244,-0.952
72665,-2438.0,3924.0,7694.0,-80.0,-543.0,-95.0,0.014,0.179,-0.243,-0.953
72687,-2526.0,4092.0,7152.0,192.0,-418.0,-108.0,0.012,0.176,-0.245,-0.953
72709,-2662.0,4734.0,7110.0,210.0,-361.0,-38.0,0.01,0.172,-0.247,-0.954
72721,-2696.0,4204.0,6948.0,34.0,-318.0,-137.0,0.008,0.17,-0.247,-0.954
72743,-2762.0,4332.0,6996.0,-181.0,-294.0,-188.0,0.006,0.168,-0.245,-0.955
72755,-2782.0,3950.0,7258.0,-544.0,-335.0,-234.0,0.004,0.165,-0.24,-0.957
72777,-2618.0,3110.0,7814.0,-747.0,-296.0,-196.0,0.002,0.163,-0.233,-0.959
72789,-2586.0,2234.0,7724.0,-792.0,-240.0,-113.0,0.002,0.161,-0.226,-0.961
72811,-2494.0,2332.0,7832.0,-775.0,-99.0,23.0,0.003,0.16,-0.218,-0.963
72833,-2406.0,2468.0,7866.0,-568.0,27.0,122.0,0.005,0.16,-0.213,-0.964
72845,-2548.0,2956.0,7720.0,-393.0,93.0,211.0,0.007,0.16,-0.21,-0.965
72867,-2616.0,3182.0,7512.0,-190.0,99.0,216.0,0.009,0.16,-0.208,-0.965
72879,-2752.0,3618.0,7120.0,-98.0,137.0,234.0,0.012,0.161,-0.208,-0.965
72901,-2954.0,4134.0,6898.0,-124.0,148.0,228.0,0.014,0.162,-0.207,-0.965
72913,-3064.0,4186.0,7010.0,-258.0,144.0,163.0,0.016,0.163,-0.205,-0.965
72935,-3174.0,4328.0,7250.0,-402.0,123.0,61.0,0.017,0.164,-0.202,-0.965
72947,-3274.0,4392.0,7204.0,-442.0,100.0,-35.0,0.017,0.165,-0.198,-0.966
72969,-3140.0,4134.0,7306.0,-410.0,115.0,-125.0,0.017,0.166,-0.194,-0.967
72981,-3174.0,3498.0,7590.0,-388.0,155.0,-154.0,0.016,0.168,-0.191,-0.967
73003,-3008.0,2878.0,7758.0,-400.0,201.0,-65.0,0.016,0.17,-0.187,-0.968
73025,-2846.0,2550.0,7452.0,-337.0,229.0,49.0,0.018,0.171,-0.184,-0.968
73037,-2894.0,2120.0,7274.0,-240.0,283.0,113.0,0.019,0.174,-0.182,-0.968
73059,-3028.0,1988.0,7132.0,-166.0,314.0,178.0,0.021,0.176,-0.18,-0.967
73071,-2982.0,2122.0,6976.0,-236.0,284.0,273.0,0.025,0.178,-0.178,-0.967
73093,-2954.0,2320.0,6484.0,-231.0,156.0,319.0,0.028,0.179,-0.177,-0.967
73105,-2858.0,2536.0,6088.0,-127.0,13.0,305.0,0.031,0.179,-0.176,-0.968
73127,-2718.0,2568.0,5738.0,-110.0,-70.0,268.0,0.033,0.178,-0.176,-0.968
73139,-2688.0,3048.0,6320.0,-82.0,-78.0,255.0,0.035,0.177,-0.175,-0.968
73161,-2876.0,3660.0,6892.0,27.0,0.0,232.0,0.037,0.176,-0.176,-0.968
73173,-3164.0,3788.0,7160.0,-33.0,100.0,190.0,0.038,0.177,-0.176,-0.968
73195,-3062.0,4346.0,7332.0,-152.0,242.0,84.0,0.04,0.179,-0.175,-0.967
73217,-3172.0,4212.0,7544.0,-290.0,341.0,-85.0,0.04,0.182,-0.172,-0.967
73229,-3338.0,3686.0,7354.0,-386.0,457.0,-267.0,0.039,0.186,-0.168,-0.967
73251,-3252.0,3764.0,6986.0,-373.0,563.0,-451.0,0.036,0.192,-0.164,-0.967
73263,-2902.0,3806.0,6786.0,-385.0,463.0,-528.0,0.032,0.197,-0.16,-0.967
73285,-3258.0,2588.0,7058.0,-447.0,370.0,-390.0,0.03,0.201,-0.155,-0.967
73297,-2604.0,2506.0,7376.0,-268.0,326.0,-269.0,0.029,0.204,-0.152,-0.967
73319,-2556.0,2502.0,7026.0,-217.0,251.0,-187.0,0.027,0.206,-0.15,-0.967
73341,-2510.0,2104.0,6272.0,-127.0,106.0,-161.0,0.026,0.207,-0.148,-0.967
73353,-2486.0,1968.0,5894.0,44.0,-67.0,-115.0,0.025,0.207,-0.149,-0.967
73375,-2726.0,1940.0,5920.0,150.0,-188.0,15.0,0.024,0.205,-0.15,-0.967
73387,-2668.0,2242.0,6248.0,220.0,-294.0,152.0,0.024,0.202,-0.153,-0.967
73409,-2624.0,2722.0,6456.0,238.0,-357.0,215.0,0.025,0.199,-0.155,-0.967
73421,-2506.0,2526.0,6030.0,190.0,-460.0,231.0,0.026,0.194,-0.158,-0.968
73443,-2424.0,2040.0,5522.0,200.0,-563.0,164.0,0.026,0.189,-0.16,-0.969
73455,-2438.0,2092.0,5484.0,247.0,-544.0,124.0,0.026,0.184,-0.162,-0.969
73477,-2706.0,2934.0,6408.0,152.0,-447.0,161.0,0.026,0.179,-0.164,-0.97
73489,-2526.0,4048.0,7772.0,44.0,-296.0,149.0,0.027,0.177,-0.165,-0.97
73511,-2672.0,3814.0,8486.0,-102.0,-129.0,99.0,0.027,0.175,-0.164,-0.97
73533,-2928.0,3450.0,8876.0,-232.0,36.0,79.0,0.028,0.175,-0.163,-0.971
73545,-3026.0,3268.0,8678.0,-340.0,189.0,72.0,0.03,0.177,-0.16,-0.971
73567,-3186.0,3134.0,8332.0,-466.0,345.0,-10.0,0.031,0.18,-0.155,-0.971
73579,-2308.0,2750.0,7776.0,-229.0,282.0,-264.0,0.029,0.182,-0.153,-0.971
73601,-2952.0,2256.0,8208.0,-35.0,374.0,-397.0,0.026,0.186,-0.152,-0.97
73613,-2214.0,2482.0,7822.0,124.0,258.0,-178.0,0.024,0.189,-0.152,-0.97
73635,-2528.0,2242.0,6774.0,349.0,212.0,-80.0,0.023,0.191,-0.155,-0.969
73647,-2310.0,2704.0,6298.0,330.0,57.0,-21.0,0.022,0.191,-0.158,-0.968
73669,-1944.0,2512.0,6250.0,277.0,-69.0,-11.0,0.021,0.191,-0.161,-0.968
73681,-1878.0,1964.0,6112.0,218.0,-132.0,-16.0,0.02,0.19,-0.163,-0.968
73703,-1662.0,1828.0,5746.0,121.0,-163.0,61.0,0.02,0.188,-0.164,-0.968
73725,-1832.0,1484.0,5948.0,240.0,-103.0,93.0,0.02,0.187,-0.166,-0.968
73737,-1932.0,1734.0,7208.0,497.0,81.0,141.0,0.021,0.187,-0.171,-0.967
73759,-2266.0,2828.0,7408.0,719.0,171.0,290.0,0.022,0.188,-0.178,-0.966
73771,-2322.0,2596.0,7358.0,940.0,9.0,369.0,0.024,0.188,-0.187,-0.964
73793,-1668.0,3118.0,6882.0,1139.0,-70.0,447.0,0.025,0.186,-0.198,-0.962
73805,-1750.0,2628.0,6434.0,1137.0,-137.0,588.0,0.028,0.184,-0.209,-0.96
73827,-1484.0,3262.0,5828.0,979.0,-404.0,796.0,0.033,0.179,-0.22,-0.958
73839,-1652.0,3710.0,5398.0,555.0,-408.0,930.0,0.039,0.174,-0.226,-0.958
73861,-1548.0,4676.0,6012.0,582.0,-760.0,949.0,0.045,0.165,-0.234,-0.957
73883,-962.0,4202.0,6162.0,523.0,-960.0,816.0,0.049,0.155,-0.24,-0.957
73895,-560.0,5064.0,6680.0,458.0,-945.0,765.0,0.053,0.144,-0.246,-0.957
73917,-982.0,4848.0,4862.0,-304.0,-1276.0,918.0,0.059,0.131,-0.245,-0.959
73929,-966.0,5062.0,3830.0,-836.0,-1847.0,884.0,0.063,0.111,-0.24,-0.962
73951,226.0,6390.0,4146.0,-1229.0,-1734.0,651.0,0.066,0.093,-0.231,-0.966
73963,-482.0,4898.0,6336.0,-957.0,-1931.0,525.0,0.067,0.074,-0.225,-0.969
73985,198.0,5170.0,7428.0,42.0,-1963.0,401.0,0.066,0.056,-0.226,-0.97
73997,6.0,5896.0,7888.0,589.0,-1787.0,428.0,0.066,0.039,-0.233,-0.969
74019,-242.0,5788.0,8032.0,649.0,-1750.0,428.0,0.066,0.022,-0.24,-0.968
74031,-214.0,6054.0,8116.0,483.0,-1655.0,431.0,0.066,0.007,-0.246,-0.967
74054,-318.0,4954.0,7394.0,248.0,-1736.0,503.0,0.066,-0.01,-0.249,-0.966
74076,292.0,4436.0,7152.0,210.0,-1692.0,487.0,0.067,-0.026,-0.252,-0.965
74088,398.0,4068.0,6800.0,243.0,-1609.0,444.0,0.067,-0.041,-0.255,-0.964
74110,998.0,2734.0,8776.0,302.0,-1224.0,521.0,0.069,-0.053,-0.258,-0.962
74122,-660.0,2124.0,9698.0,510.0,-716.0,817.0,0.075,-0.061,-0.263,-0.96
74144,-1354.0,1566.0,11074.0,855.0,-562.0,979.0,0.083,-0.068,-0.27,-0.957
74156,-1076.0,2982.0,10002.0,733.0,-385.0,881.0,0.09,-0.073,-0.277,-0.954
74178,-488.0,4318.0,7464.0,-4.0,-368.0,787.0,0.096,-0.078,-0.276,-0.953
74195,-84.0,3018.0,5466.0,-684.0,-572.0,762.0,0.101,-0.086,-0.27,-0.954
74207,670.0,2166.0,5068.0,-853.0,-673.0,800.0,0.105,-0.094,-0.263,-0.954
74229,850.0,3554.0,4654.0,-851.0,-739.0,744.0,0.109,-0.104,-0.255,-0.955
74251,1014.0,3630.0,4696.0,-756.0,-838.0,486.0,0.111,-0.113,-0.249,-0.956
74263,750.0,4374.0,6556.0,-854.0,-806.0,309.0,0.111,-0.121,-0.242,-0.956
74285,744.0,5118.0,9088.0,-882.0,-811.0,140.0,0.11,-0.13,-0.235,-0.957
74297,1946.0,5906.0,12110.0,-506.0,-778.0,-194.0,0.106,-0.137,-0.231,-0.957
74319,3824.0,5600.0,11946.0,-424.0,-674.0,-412.0,0.1,-0.142,-0.229,-0.958
74331,4330.0,5570.0,10566.0,-432.0,-465.0,-433.0,0.095,-0.146,-0.226,-0.959
74353,4548.0,4172.0,8922.0,-146.0,-385.0,-349.0,0.091,-0.149,-0.225,-0.959
74365,4202.0,3988.0,7708.0,60.0,-247.0,-277.0,0.088,-0.15,-0.226,-0.958
74387,3542.0,3238.0,6780.0,32.0,-284.0,-261.0,0.085,-0.152,-0.227,-0.958
74399,3082.0,3352.0,6190.0,50.0,-301.0,-247.0,0.083,-0.155,-0.228,-0.958
74421,3130.0,3108.0,5534.0,46.0,-387.0,-201.0,0.08,-0.158,-0.229,-0.957
74443,3322.0,2748.0,5766.0,299.0,-383.0,-163.0,0.079,-0.16,-0.233,-0.956
74455,3456.0,3278.0,6378.0,617.0,-274.0,-39.0,0.079,-0.162,-0.238,-0.954
74477,3300.0,3886.0,6618.0,663.0,-139.0,49.0,0.08,-0.163,-0.244,-0.952
74489,3064.0,4104.0,6932.0,676.0,-41.0,52.0,0.081,-0.163,-0.25,-0.951
74511,2706.0,4382.0,6910.0,753.0,14.0,15.0,0.083,-0.163,-0.257,-0.949
74523,2622.0,4760.0,6436.0,721.0,24.0,-28.0,0.084,-0.162,-0.264,-0.947
74545,2542.0,4788.0,5850.0,627.0,-54.0,-85.0,0.084,-0.161,-0.27,-0.946
74557,2700.0,4640.0,6030.0,472.0,-75.0,-152.0,0.083,-0.161,-0.274,-0.944
74579,2984.0,4394.0,6300.0,378.0,-72.0,-175.0,0.082,-0.161,-0.278,-0.943
74601,3188.0,4414.0,6274.0,350.0,-66.0,-173.0,0.081,-0.161,-0.282,-0.942
74613,3336.0,4684.0,6464.0,294.0,-59.0,-212.0,0.08,-0.161,-0.285,-0.942
74635,3364.0,4632.0,6486.0,213.0,-62.0,-260.0,0.078,-0.16,-0.287,-0.941
74647,3342.0,4364.0,6384.0,157.0,-56.0,-241.0,0.076,-0.16,-0.289,-0.941
74669,3362.0,4300.0,6220.0,135.0,-42.0,-182.0,0.074,-0.16,-0.29,-0.94
74681,3262.0,4370.0,6068.0,154.0,-40.0,-130.0,0.074,-0.16,-0.292,-0.94
74703,3278.0,4394.0,5970.0,157.0,-25.0,-88.0,0.073,-0.16,-0.294,-0.94
74715,3244.0,4224.0,5914.0,162.0,-9.0,-44.0,0.073,-0.16,-0.295,-0.939
74737,3258.0,4156.0,5900.0,185.0,65.0,31.0,0.074,-0.159,-0.297,-0.939
74759,3168.0,4640.0,5864.0,204.0,109.0,112.0,0.076,-0.159,-0.298,-0.938
74771,3380.0,4784.0,5798.0,283.0,176.0,193.0,0.078,-0.158,-0.301,-0.937
74793,3260.0,4860.0,5812.0,360.0,248.0,266.0,0.082,-0.156,-0.303,-0.936
74805,3066.0,4786.0,6006.0,398.0,303.0,299.0,0.086,-0.154,-0.306,-0.935
74827,2984.0,4736.0,6028.0,351.0,318.0,290.0,0.09,-0.152,-0.309,-0.935
74839,2924.0,4614.0,6032.0,257.0,320.0,274.0,0.094,-0.149,-0.31,-0.934
74861,2898.0,4506.0,6086.0,184.0,299.0,258.0,0.098,-0.147,-0.311,-0.934
74873,2846.0,4528.0,6268.0,122.0,281.0,231.0,0.101,-0.146,-0.312,-0.933
74895,2868.0,4566.0,6296.0,64.0,273.0,190.0,0.103,-0.144,-0.312,-0.933
74907,2828.0,4570.0,6116.0,63.0,254.0,157.0,0.106,-0.142,-0.312,-0.933
74929,2820.0,4640.0,6118.0,89.0,236.0,124.0,0.108,-0.14,-0.313,-0.933
74951,2772.0,4716.0,6158.0,78.0,212.0,72.0,0.109,-0.138,-0.313,-0.933
74963,2792.0,4662.0,6222.0,53.0,202.0,45.0,0.11,-0.137,-0.313,-0.933
74985,2640.0,4642.0,6190.0,43.0,202.0,25.0,0.111,-0.135,-0.313,-0.933
74997,2576.0,4618.0,6170.0,35.0,179.0,1.0,0.112,-0.133,-0.314,-0.933
75019,2584.0,4676.0,6168.0,34.0,163.0,-14.0,0.112,-0.132,-0.314,-0.934
75031,2598.0,4724.0,6158.0,36.0,165.0,-18.0,0.113,-0.13,-0.314,-0.934
75053,2554.0,4806.0,6148.0,21.0,147.0,-28.0,0.113,-0.129,-0.314,-0.934
75065,2638.0,4806.0,6150.0,14.0,145.0,-49.0,0.113,-0.127,-0.314,-0.934
75087,2624.0,4754.0,6024.0,17.0,164.0,-59.0,0.113,-0.126,-0.314,-0.934
75109,2528.0,4622.0,5982.0,23.0,181.0,-59.0,0.113,-0.124,-0.314,-0.934
75121,2504.0,4752.0,5976.0,31.0,187.0,-75.0,0.113,-0.122,-0.315,-0.934
75143,2516.0,4910.0,5950.0,34.0,173.0,-102.0,0.113,-0.12,-0.315,-0.935
75155,2540.0,4880.0,6130.0,22.0,154.0,-134.0,0.112,-0.118,-0.315,-0.935
75177,2488.0,4672.0,6208.0,19.0,133.0,-145.0,0.112,-0.117,-0.316,-0.935
75189,2466.0,4602.0,6320.0,23.0,114.0,-149.0,0.111,-0.115,-0.316,-0.935
75211,2420.0,4624.0,6334.0,21.0,97.0,-144.0,0.11,-0.114,-0.316,-0.935
75223,2400.0,4566.0,6292.0,26.0,66.0,-143.0,0.109,-0.113,-0.316,-0.936
75245,2358.0,4658.0,6298.0,31.0,50.0,-121.0,0.108,-0.112,-0.317,-0.936
75267,2426.0,4766.0,6336.0,34.0,28.0,-116.0,0.108,-0.112,-0.317,-0.936
75279,2450.0,4808.0,6362.0,22.0,18.0,-99.0,0.107,-0.111,-0.317,-0.936
75301,2408.0,4774.0,6182.0,34.0,10.0,-74.0,0.107,-0.111,-0.318,-0.936
75313,2396.0,4818.0,6070.0,39.0,1.0,-65.0,0.106,-0.11,-0.318,-0.936
75335,2422.0,4774.0,6162.0,25.0,12.0,-52.0,0.106,-0.11,-0.319,-0.935
75347,2500.0,4840.0,6130.0,43.0,16.0,-36.0,0.106,-0.11,-0.319,-0.935
75369,2470.0,4928.0,6124.0,44.0,31.0,-25.0,0.106,-0.11,-0.32,-0.935
75381,2450.0,4978.0,6118.0,50.0,43.0,-22.0,0.106,-0.109,-0.32,-0.935
75403,2454.0,4946.0,6114.0,53.0,67.0,2.0,0.106,-0.108,-0.321,-0.935
75415,2318.0,4880.0,6098.0,53.0,65.0,9.0,0.107,-0.108,-0.321,-0.935
75437,2346.0,4820.0,6072.0,58.0,76.0,16.0,0.107,-0.107,-0.321,-0.935
75459,2312.0,4916.0,6076.0,51.0,84.0,28.0,0.108,-0.107,-0.322,-0.935
75471,2328.0,4876.0,6114.0,43.0,93.0,30.0,0.108,-0.106,-0.322,-0.934
75493,2336.0,4898.0,6180.0,36.0,93.0,42.0,0.109,-0.105,-0.322,-0.934
75505,2214.0,4986.0,6128.0,35.0,89.0,39.0,0.11,-0.104,-0.323,-0.934
75527,2242.0,4962.0,6090.0,39.0,82.0,26.0,0.111,-0.104,-0.323,-0.934
75539,2280.0,4890.0,6146.0,38.0,80.0,16.0,0.111,-0.103,-0.323,-0.934
75561,2228.0,4860.0,6068.0,58.0,63.0,-1.0,0.111,-0.102,-0.324,-0.934
75573,2232.0,4924.0,6082.0,47.0,58.0,-11.0,0.112,-0.102,-0.324,-0.934
75595,2240.0,4894.0,6134.0,34.0,58.0,-28.0,0.112,-0.101,-0.325,-0.934
75617,2272.0,4932.0,6136.0,16.0,55.0,-28.0,0.112,-0.1,-0.325,-0.934
75629,2288.0,4974.0,6134.0,16.0,44.0,-36.0,0.112,-0.1,-0.325,-0.934
75651,2258.0,4912.0,6186.0,17.0,39.0,-43.0,0.111,-0.1,-0.325,-0.934
75663,2326.0,4820.0,6168.0,30.0,35.0,-44.0,0.111,-0.099,-0.325,-0.934
75685,2176.0,4824.0,6096.0,26.0,23.0,-52.0,0.111,-0.099,-0.326,-0.934
75697,2276.0,4918.0,6140.0,11.0,16.0,-52.0,0.111,-0.098,-0.326,-0.934
75719,2318.0,4894.0,6182.0,13.0,11.0,-48.0,0.11,-0.098,-0.326,-0.934
75731,2298.0,4902.0,6182.0,16.0,15.0,-49.0,0.11,-0.098,-0.326,-0.934
75753,2348.0,4900.0,6186.0,20.0,4.0,-50.0,0.11,-0.098,-0.326,-0.934
75775,2292.0,4924.0,6170.0,20.0,12.0,-43.0,0.11,-0.097,-0.327,-0.934
75787,2272.0,4910.0,6104.0,12.0,-9.0,-45.0,0.109,-0.097,-0.327,-0.934
75809,2270.0,5016.0,6106.0,15.0,-34.0,-47.0,0.109,-0.098,-0.327,-0.934
75821,2326.0,4954.0,6108.0,12.0,-35.0,-43.0,0.109,-0.098,-0.327,-0.934
75843,2212.0,4912.0,6046.0,25.0,-47.0,-16.0,0.108,-0.098,-0.328,-0.933
75855,2296.0,5022.0,6132.0,13.0,-53.0,-9.0,0.108,-0.098,-0.328,-0.933
75877,2332.0,4952.0,6064.0,3.0,-14.0,-2.0,0.108,-0.099,-0.328,-0.933
75889,2340.0,4894.0,6100.0,17.0,19.0,31.0,0.109,-0.099,-0.328,-0.933
75911,2326.0,4974.0,6122.0,21.0,48.0,36.0,0.109,-0.098,-0.328,-0.933
75923,2302.0,4948.0,6130.0,15.0,70.0,36.0,0.11,-0.098,-0.328,-0.933
75945,2216.0,4898.0,6036.0,25.0,55.0,49.0,0.111,-0.097,-0.329,-0.933
75967,2234.0,5002.0,6108.0,21.0,40.0,26.0,0.111,-0.097,-0.329,-0.933
75979,2264.0,4988.0,6102.0,1.0,28.0,28.0,0.111,-0.097,-0.329,-0.933
76001,2248.0,4952.0,6048.0,5.0,38.0,36.0,0.112,-0.097,-0.329,-0.933
76013,2118.0,5034.0,6114.0,1.0,35.0,18.0,0.112,-0.097,-0.329,-0.933
76035,2230.0,4950.0,6108.0,-2.0,36.0,10.0,0.112,-0.096,-0.329,-0.933
76047,2264.0,5004.0,6134.0,1.0,48.0,10.0,0.113,-0.096,-0.329,-0.933
76069,2184.0,5032.0,6068.0,3.0,35.0,0.0,0.113,-0.096,-0.329,-0.933
76081,2220.0,4976.0,6102.0,10.0,28.0,-6.0,0.113,-0.095,-0.329,-0.933
76103,2194.0,4992.0,6114.0,3.0,21.0,-11.0,0.113,-0.095,-0.329,-0.933
76125,2136.0,4948.0,6172.0,6.0,17.0,-19.0,0.113,-0.095,-0.329,-0.933
76137,2232.0,4924.0,6138.0,-1.0,14.0,-17.0,0.113,-0.095,-0.329,-0.933
76159,2222.0,4932.0,6106.0,8.0,23.0,-17.0,0.113,-0.095,-0.329,-0.933
76171,2220.0,4952.0,6128.0,-2.0,27.0,-21.0,0.113,-0.094,-0.329,-0.933
76198,2212.0,4908.0,6118.0,-6.0,29.0,-23.0,0.113,-0.094,-0.329,-0.933
76210,2208.0,5046.0,6086.0,-8.0,15.0,-19.0,0.113,-0.094,-0.329,-0.933
76222,2238.0,4950.0,6094.0,-11.0,19.0,-29.0,0.113,-0.093,-0.329,-0.933
76244,2240.0,4988.0,6062.0,-14.0,14.0,-23.0,0.113,-0.093,-0.329,-0.933
76256,2286.0,4974.0,6098.0,-16.0,11.0,-18.0,0.113,-0.093,-0.329,-0.933
76278,2298.0,4990.0,6100.0,-19.0,13.0,-23.0,0.113,-0.093,-0.329,-0.933
76300,2254.0,4892.0,6148.0,-11.0,14.0,-11.0,0.113,-0.093,-0.329,-0.933
76312,2232.0,4888.0,6132.0,-8.0,15.0,0.0,0.113,-0.093,-0.329,-0.933
76334,2236.0,4978.0,6180.0,-16.0,10.0,4.0,0.113,-0.093,-0.329,-0.933
76346,2214.0,4926.0,6168.0,-17.0,10.0,11.0,0.113,-0.093,-0.329,-0.933
76368,2164.0,4984.0,6150.0,-17.0,-4.0,18.0,0.113,-0.093,-0.329,-0.933
76380,2216.0,4982.0,6156.0,-15.0,-8.0,19.0,0.114,-0.093,-0.328,-0.933
76402,2188.0,4998.0,6194.0,-16.0,-12.0,18.0,0.114,-0.093,-0.328,-0.933
76424,2210.0,4950.0,6138.0,-15.0,-13.0,19.0,0.114,-0.093,-0.328,-0.933
76436,2232.0,4950.0,6144.0,-9.0,-11.0,14.0,0.114,-0.094,-0.328,-0.933
76458,2210.0,4934.0,6102.0,-9.0,-9.0,18.0,0.114,-0.094,-0.328,-0.933
76470,2232.0,4958.0,6122.0,-5.0,-2.0,16.0,0.114,-0.094,-0.328,-0.933
76492,2214.0,4938.0,6096.0,-10.0,4.0,8.0,0.115,-0.094,-0.328,-0.933
76504,2214.0,4934.0,6110.0,-5.0,-14.0,5.0,0.115,-0.094,-0.328,-0.933
76526,2236.0,4966.0,6082.0,0.0,-15.0,4.0,0.115,-0.094,-0.328,-0.933
76538,2254.0,4966.0,6094.0,-7.0,-6.0,5.0,0.115,-0.094,-0.328,-0.933
76560,2234.0,4972.0,6086.0,-13.0,-5.0,1.0,0.115,-0.094,-0.328,-0.933
76572,2238.0,4978.0,6116.0,-11.0,-5.0,0.0,0.115,-0.094,-0.328,-0.933
76594,2224.0,4976.0,6150.0,-20.0,-3.0,-7.0,0.115,-0.094,-0.328,-0.933
76606,2248.0,4900.0,6062.0,-12.0,10.0,-5.0,0.115,-0.094,-0.328,-0.933
76628,2192.0,4920.0,6150.0,-13.0,6.0,-13.0,0.115,-0.094,-0.328,-0.933
76650,2190.0,4926.0,6102.0,-18.0,11.0,-18.0,0.115,-0.094,-0.328,-0.933
76662,2224.0,4856.0,6170.0,-12.0,12.0,-16.0,0.115,-0.094,-0.328,-0.933
76684,2222.0,4912.0,6132.0,-12.0,17.0,-16.0,0.115,-0.094,-0.328,-0.933
76696,2270.0,4892.0,6110.0,-10.0,12.0,-20.0,0.115,-0.094,-0.328,-0.933
76718,2236.0,4942.0,6150.0,-7.0,16.0,-11.0,0.115,-0.094,-0.328,-0.933
76730,2312.0,4976.0,6156.0,-16.0,5.0,-15.0,0.115,-0.094,-0.327,-0.933
76752,2286.0,4838.0,6164.0,-13.0,7.0,-8.0,0.115,-0.094,-0.327,-0.933
76764,2234.0,4874.0,6150.0,-1.0,14.0,6.0,0.115,-0.093,-0.327,-0.933
76786,2264.0,4944.0,6162.0,5.0,6.0,3.0,0.115,-0.093,-0.327,-0.933
76808,2244.0,4932.0,6150.0,5.0,14.0,3.0,0.115,-0.093,-0.328,-0.933
76820,2242.0,4962.0,6146.0,-8.0,8.0,15.0,0.116,-0.093,-0.328,-0.933
76842,2204.0,4856.0,6134.0,-6.0,9.0,14.0,0.116,-0.093,-0.328,-0.933
76854,2230.0,4918.0,6078.0,7.0,12.0,29.0,0.116,-0.093,-0.328,-0.933
76876,2200.0,4926.0,6132.0,5.0,16.0,24.0,0.117,-0.093,-0.328,-0.933
76888,2252.0,4940.0,6114.0,0.0,15.0,24.0,0.117,-0.093,-0.328,-0.933
76910,2198.0,4878.0,6122.0,1.0,13.0,28.0,0.117,-0.093,-0.328,-0.933
76922,2214.0,4966.0,6066.0,1.0,6.0,27.0,0.117,-0.093,-0.328,-0.933
76944,2264.0,4970.0,6138.0,-5.0,4.0,19.0,0.118,-0.093,-0.328,-0.933
76966,2262.0,4952.0,6102.0,-13.0,6.0,14.0,0.118,-0.093,-0.328,-0.933
76978,2260.0,4986.0,6064.0,-10.0,13.0,15.0,0.118,-0.093,-0.328,-0.933
77000,2260.0,4904.0,6130.0,-12.0,3.0,7.0,0.118,-0.093,-0.327,-0.933
77012,2226.0,4888.0,6156.0,-17.0,4.0,6.0,0.119,-0.093,-0.327,-0.933
77034,2224.0,4912.0,6116.0,-15.0,-1.0,-2.0,0.119,-0.093,-0.327,-0.933
77046,2192.0,4922.0,6168.0,-18.0,0.0,-10.0,0.119,-0.093,-0.327,-0.933
77068,2206.0,4924.0,6142.0,-16.0,2.0,-4.0,0.119,-0.093,-0.327,-0.933
77080,2202.0,4912.0,6172.0,-12.0,2.0,-10.0,0.119,-0.093,-0.327,-0.933
77102,2236.0,4912.0,6170.0,-12.0,-5.0,-16.0,0.119,-0.093,-0.327,-0.933
77114,2250.0,4900.0,6216.0,-8.0,-6.0,-12.0,0.119,-0.093,-0.327,-0.933
77136,2276.0,4922.0,6140.0,-4.0,-2.0,-22.0,0.119,-0.093,-0.327,-0.933
77158,2300.0,4938.0,6154.0,-4.0,-5.0,-26.0,0.118,-0.093,-0.327,-0.933
77170,2230.0,4872.0,6124.0,-3.0,-11.0,-23.0,0.118,-0.093,-0.327,-0.933
77192,2328.0,4850.0,6140.0,9.0,-13.0,-18.0,0.118,-0.093,-0.327,-0.933
77204,2292.0,4922.0,6136.0,0.0,-21.0,-19.0,0.118,-0.093,-0.327,-0.933
77226,2268.0,4928.0,6154.0,0.0,-13.0,-14.0,0.118,-0.094,-0.327,-0.933
77238,2292.0,4920.0,6206.0,-6.0,-17.0,-4.0,0.118,-0.094,-0.327,-0.933
77260,2272.0,4924.0,6140.0,-3.0,-15.0,1.0,0.118,-0.094,-0.327,-0.933
77272,2318.0,4850.0,6138.0,-6.0,-7.0,5.0,0.118,-0.094,-0.327,-0.933
77294,2280.0,4868.0,6102.0,1.0,-12.0,8.0,0.118,-0.094,-0.328,-0.933
77316,2302.0,4922.0,6102.0,2.0,2.0,12.0,0.119,-0.094,-0.328,-0.933
77328,2254.0,4956.0,6124.0,-3.0,-1.0,14.0,0.119,-0.094,-0.328,-0.933
77350,2276.0,4896.0,6166.0,-3.0,6.0,12.0,0.119,-0.094,-0.328,-0.933
77362,2192.0,4944.0,6114.0,-2.0,4.0,14.0,0.119,-0.094,-0.328,-0.933
77384,2234.0,4952.0,6130.0,4.0,2.0,3.0,0.119,-0.094,-0.328,-0.933
77396,2240.0,4922.0,6128.0,0.0,5.0,15.0,0.119,-0.094,-0.328,-0.932
77418,2258.0,4978.0,6114.0,-5.0,2.0,6.0,0.119,-0.094,-0.328,-0.932
77430,2262.0,4902.0,6142.0,-10.0,1.0,5.0,0.12,-0.094,-0.328,-0.932
77452,2222.0,4900.0,6092.0,-7.0,-9.0,9.0,0.12,-0.094,-0.328,-0.932
77474,2208.0,4972.0,6088.0,-30.0,-29.0,-6.0,0.12,-0.095,-0.327,-0.932
77486,2338.0,5066.0,6260.0,-50.0,-44.0,-11.0,0.119,-0.095,-0.327,-0.933
77508,2434.0,5110.0,6446.0,-77.0,-44.0,-27.0,0.119,-0.096,-0.327,-0.933
77520,2472.0,5212.0,6654.0,-79.0,-65.0,-46.0,0.119,-0.096,-0.326,-0.933
77542,2540.0,5200.0,6768.0,-60.0,-142.0,-80.0,0.117,-0.097,-0.326,-0.933
77554,2480.0,5356.0,6956.0,-6.0,-184.0,-102.0,0.116,-0.098,-0.326,-0.933
77576,2568.0,5140.0,6880.0,45.0,-207.0,-154.0,0.114,-0.1,-0.327,-0.933
77588,2304.0,5452.0,6936.0,108.0,-165.0,-163.0,0.112,-0.101,-0.328,-0.933
77610,1764.0,5758.0,7126.0,-14.0,-205.0,-212.0,0.11,-0.102,-0.328,-0.933
77622,2070.0,5742.0,6668.0,-199.0,-240.0,-273.0,0.107,-0.103,-0.327,-0.933
77644,1574.0,5072.0,9194.0,347.0,-43.0,-248.0,0.105,-0.102,-0.33,-0.932
77666,1540.0,7372.0,9230.0,560.0,223.0,-286.0,0.104,-0.099,-0.335,-0.931
77678,1372.0,7626.0,9310.0,375.0,434.0,-452.0,0.102,-0.093,-0.339,-0.931
77700,1800.0,6660.0,9016.0,25.0,590.0,-445.0,0.1,-0.087,-0.339,-0.932
77712,1582.0,6048.0,9316.0,-240.0,797.0,-320.0,0.1,-0.079,-0.336,-0.933
77734,1150.0,8240.0,8010.0,-717.0,884.0,-408.0,0.099,-0.071,-0.329,-0.936
77746,760.0,9506.0,5162.0,-1569.0,701.0,-718.0,0.094,-0.064,-0.315,-0.942
77768,772.0,7512.0,4084.0,-1934.0,385.0,-909.0,0.086,-0.059,-0.299,-0.948
77780,1324.0,6606.0,3924.0,-1726.0,369.0,-925.0,0.078,-0.055,-0.285,-0.954
77802,624.0,5010.0,4388.0,-1421.0,366.0,-891.0,0.07,-0.05,-0.273,-0.958
77824,410.0,3902.0,5392.0,-922.0,291.0,-819.0,0.063,-0.046,-0.265,-0.961
77836,312.0,2706.0,6246.0,-591.0,290.0,-815.0,0.056,-0.041,-0.259,-0.963
77858,-106.0,2820.0,5472.0,-439.0,183.0,-771.0,0.05,-0.038,-0.256,-0.965
77870,-324.0,3414.0,4104.0,-372.0,-57.0,-773.0,0.043,-0.037,-0.253,-0.966
77892,44.0,4064.0,3376.0,-480.0,-126.0,-1030.0,0.033,-0.036,-0.249,-0.967
77904,-154.0,2308.0,3260.0,-317.0,-528.0,-1279.0,0.021,-0.038,-0.246,-0.968
77926,382.0,2230.0,3156.0,-290.0,-895.0,-999.0,0.009,-0.043,-0.244,-0.969
77938,1030.0,1606.0,4174.0,-66.0,-916.0,-964.0,0.001,0.05,0.244,0.968
77960,2018.0,2906.0,5700.0,-57.0,-682.0,-661.0,0.009,0.054,0.244,0.968
77972,1324.0,3088.0,6464.0,-228.0,-754.0,-483.0,0.015,0.06,0.242,0.968
77994,1936.0,3002.0,6014.0,-398.0,-769.0,-448.0,0.021,0.066,0.239,0.969
78016,1382.0,1256.0,5546.0,-468.0,-977.0,-474.0,0.027,0.073,0.234,0.969
78028,1356.0,-312.0,5402.0,-35.0,-1210.0,-347.0,0.033,0.083,0.234,0.968
78050,1420.0,-948.0,6034.0,851.0,-1305.0,-38.0,0.036,0.095,0.241,0.965
78062,2244.0,2304.0,7038.0,1879.0,-1119.0,362.0,0.033,0.107,0.257,0.96
78084,3100.0,6188.0,7638.0,2180.0,-886.0,427.0,0.03,0.117,0.276,0.954
78096,2900.0,7500.0,7494.0,1716.0,-689.0,181.0,0.028,0.124,0.291,0.948
78118,1778.0,5852.0,5820.0,1421.0,-1121.0,-326.0,0.032,0.133,0.304,0.943
78130,4164.0,6998.0,6870.0,112.0,-699.0,1193.0,0.024,0.143,0.303,0.942
78152,1974.0,70.0,5746.0,762.0,-867.0,8.0,0.025,0.151,0.309,0.939
78174,4878.0,262.0,5160.0,2177.0,-930.0,496.0,0.021,0.161,0.327,0.931
78186,5344.0,3116.0,4150.0,2792.0,-588.0,946.0,0.01,0.17,0.35,0.921
78203,6594.0,6658.0,5788.0,3479.0,-376.0,1036.0,0.004,-0.177,-0.378,-0.909
78225,5266.0,21918.0,1410.0,2912.0,-18.0,786.0,0.015,-0.18,-0.401,-0.898
78237,3296.0,7174.0,3650.0,104.0,-69.0,33.0,0.015,-0.18,-0.402,-0.898
78259,3768.0,6836.0,3398.0,-371.0,-145.0,-61.0,0.013,-0.182,-0.399,-0.898
78271,3708.0,7948.0,4522.0,-737.0,-139.0,-144.0,0.01,-0.182,-0.394,-0.901
78293,3558.0,5576.0,4966.0,-845.0,-255.0,-240.0,0.006,-0.184,-0.387,-0.904
78305,3450.0,4800.0,5184.0,-777.0,-296.0,-249.0,0.002,-0.186,-0.381,-0.906
78327,3074.0,4760.0,5236.0,-714.0,-214.0,-233.0,0.003,0.187,0.375,0.908
78349,3174.0,5366.0,5306.0,-614.0,-279.0,-151.0,0.006,0.189,0.37,0.91
78361,2926.0,5012.0,5164.0,-578.0,-270.0,-76.0,0.009,0.191,0.365,0.911
78383,2742.0,5370.0,5432.0,-541.0,-183.0,-33.0,0.01,0.192,0.36,0.913
78395,2718.0,5072.0,5538.0,-480.0,-235.0,62.0,0.012,0.195,0.356,0.914
78417,2956.0,5248.0,5740.0,-462.0,-165.0,133.0,0.012,0.196,0.352,0.915
78429,3196.0,5320.0,5810.0,-485.0,-161.0,46.0,0.013,0.198,0.348,0.916
78451,3388.0,5274.0,6140.0,-438.0,-119.0,-83.0,0.015,0.199,0.344,0.918
78473,3272.0,5072.0,5746.0,-434.0,-129.0,-182.0,0.018,0.199,0.34,0.919
78485,3542.0,5056.0,6088.0,-411.0,-140.0,-283.0,0.022,0.2,0.337,0.92
78507,3558.0,4936.0,5884.0,-338.0,-102.0,-348.0,0.026,0.199,0.335,0.921
78519,3524.0,5020.0,5834.0,-306.0,-94.0,-303.0,0.029,0.199,0.333,0.921
78541,3612.0,4946.0,6638.0,-154.0,-41.0,-222.0,0.031,0.199,0.332,0.922
78553,3646.0,4716.0,6794.0,123.0,23.0,-151.0,0.033,0.198,0.333,0.921
78575,3404.0,4334.0,6292.0,222.0,122.0,-100.0,0.033,0.197,0.335,0.921
78587,3218.0,4228.0,6306.0,211.0,196.0,-85.0,0.032,0.195,0.337,0.921
78609,3294.0,4400.0,6762.0,260.0,261.0,-129.0,0.032,0.193,0.339,0.92
78621,3388.0,4728.0,6484.0,340.0,348.0,-146.0,0.032,0.19,0.342,0.92
78643,3510.0,5078.0,6246.0,314.0,466.0,-86.0,0.03,0.186,0.345,0.92
78655,3712.0,5234.0,6444.0,311.0,615.0,-14.0,0.028,0.18,0.348,0.92
78678,3752.0,5222.0,6330.0,354.0,752.0,49.0,0.024,0.174,0.351,0.92
78700,3584.0,5002.0,6190.0,391.0,895.0,86.0,0.02,0.167,0.354,0.92
78712,3416.0,4826.0,6166.0,435.0,1055.0,172.0,0.014,0.159,0.357,0.92
78734,3468.0,4774.0,6430.0,601.0,1198.0,245.0,0.007,0.15,0.362,0.92
78746,3300.0,5094.0,6154.0,737.0,1356.0,230.0,0.0,-0.139,-0.368,-0.919
78768,2914.0,6040.0,6198.0,807.0,1408.0,139.0,0.007,-0.128,-0.375,-0.918
78780,3102.0,3814.0,6190.0,924.0,1511.0,164.0,0.015,-0.116,-0.382,-0.917
78802,3076.0,5106.0,5926.0,1013.0,1725.0,228.0,0.025,-0.102,-0.39,-0.915
78814,2978.0,4366.0,5322.0,991.0,1773.0,226.0,0.034,-0.087,-0.397,-0.913
78836,2694.0,4868.0,5082.0,915.0,1819.0,193.0,0.043,-0.073,-0.404,-0.911
78848,2586.0,4750.0,5216.0,894.0,1887.0,304.0,0.054,-0.058,-0.411,-0.908
78870,2432.0,3310.0,4260.0,942.0,1965.0,387.0,0.065,-0.042,-0.417,-0.905
78892,2294.0,6142.0,3820.0,909.0,2059.0,494.0,0.078,-0.026,-0.424,-0.902
78904,1890.0,4022.0,4156.0,832.0,2076.0,746.0,0.092,-0.011,-0.429,-0.899
78926,2004.0,4242.0,4384.0,952.0,2080.0,942.0,0.109,0.003,-0.435,-0.894
78938,1748.0,4030.0,4148.0,1159.0,2091.0,980.0,0.125,0.018,-0.442,-0.888
78960,1782.0,4602.0,3778.0,1237.0,1983.0,1033.0,0.142,0.031,-0.45,-0.881
78972,1978.0,4712.0,3296.0,1186.0,2001.0,1318.0,0.16,0.044,-0.458,-0.873
78994,1548.0,4824.0,3142.0,1297.0,1996.0,1404.0,0.18,0.056,-0.466,-0.865
79016,1172.0,4878.0,3148.0,1213.0,1939.0,1304.0,0.198,0.068,-0.473,-0.856
79028,1322.0,4776.0,2782.0,1321.0,1807.0,1225.0,0.215,0.079,-0.481,-0.847
79050,1946.0,6172.0,2488.0,1408.0,1719.0,1305.0,0.232,0.09,-0.489,-0.836
79062,1652.0,6470.0,2212.0,1300.0,1698.0,1372.0,0.249,0.099,-0.497,-0.826
79084,1092.0,5662.0,1928.0,1198.0,1605.0,1460.0,0.266,0.108,-0.503,-0.815
79096,1402.0,4052.0,1866.0,1350.0,1513.0,1562.0,0.284,0.115,-0.511,-0.803
79118,2076.0,5262.0,1976.0,1665.0,1472.0,1627.0,0.301,0.123,-0.521,-0.789
79130,2072.0,7770.0,1962.0,1707.0,1416.0,1610.0,0.317,0.13,-0.532,-0.774
79152,1478.0,9072.0,1082.0,1471.0,1352.0,1504.0,0.333,0.136,-0.54,-0.761
79164,1586.0,7498.0,1260.0,1267.0,1243.0,1465.0,0.348,0.142,-0.548,-0.748
79186,2198.0,6984.0,1926.0,1300.0,1202.0,1505.0,0.363,0.146,-0.555,-0.734
79198,2640.0,7424.0,1190.0,1406.0,1277.0,1480.0,0.377,0.152,-0.562,-0.72
79221,2344.0,7888.0,424.0,1401.0,1293.0,1520.0,0.392,0.158,-0.57,-0.705
79243,2432.0,8200.0,772.0,1648.0,1314.0,1516.0,0.406,0.164,-0.578,-0.689
79255,2668.0,7602.0,1572.0,1736.0,1353.0,1492.0,0.42,0.171,-0.586,-0.671
79277,2860.0,7036.0,932.0,1705.0,1364.0,1514.0,0.434,0.178,-0.594,-0.654
79289,3386.0,7856.0,-104.0,1878.0,1399.0,1433.0,0.447,0.186,-0.602,-0.635
79311,2692.0,8882.0,-1060.0,2004.0,1405.0,1309.0,0.459,0.195,-0.611,-0.615
79323,3200.0,8002.0,434.0,1833.0,1351.0,1391.0,0.471,0.202,-0.618,-0.596
79345,3640.0,7468.0,244.0,1863.0,1385.0,1394.0,0.483,0.21,-0.625,-0.577
79357,3472.0,7780.0,-38.0,1847.0,1421.0,1411.0,0.495,0.217,-0.631,-0.557
79379,3668.0,8496.0,-876.0,1856.0,1418.0,1402.0,0.506,0.225,-0.637,-0.536
79401,3776.0,7998.0,-188.0,1755.0,1380.0,1404.0,0.517,0.231,-0.642,-0.516
79413,4122.0,7540.0,434.0,1662.0,1302.0,1345.0,0.528,0.237,-0.647,-0.497
79435,4600.0,7998.0,-188.0,1407.0,1256.0,1138.0,0.537,0.243,-0.649,-0.48
79447,4410.0,6878.0,-796.0,1353.0,1249.0,1159.0,0.547,0.248,-0.652,-0.463
79469,4690.0,7662.0,-370.0,1303.0,1136.0,1115.0,0.555,0.253,-0.654,-0.447
79481,4918.0,7354.0,-50.0,1278.0,1104.0,1079.0,0.563,0.257,-0.657,-0.431
79503,5432.0,7276.0,168.0,1188.0,1041.0,994.0,0.57,0.261,-0.658,-0.416
79515,5662.0,6986.0,-86.0,1069.0,1066.0,1058.0,0.578,0.264,-0.659,-0.401
79537,5656.0,7774.0,-384.0,1041.0,1030.0,1190.0,0.586,0.266,-0.661,-0.386
79559,6294.0,6824.0,3032.0,1279.0,542.0,1065.0,0.59,0.268,-0.665,-0.371
79571,6122.0,7540.0,348.0,1048.0,921.0,1194.0,0.597,0.269,-0.666,-0.356
79593,5906.0,5810.0,-682.0,630.0,786.0,1266.0,0.605,0.267,-0.667,-0.343
79605,6088.0,6288.0,-782.0,533.0,690.0,1304.0,0.612,0.264,-0.669,-0.33
79627,6366.0,6564.0,-750.0,426.0,627.0,1252.0,0.618,0.261,-0.669,-0.319
79639,6868.0,6038.0,-1206.0,380.0,630.0,1169.0,0.625,0.257,-0.67,-0.309
79661,6632.0,5598.0,-956.0,352.0,594.0,1075.0,0.63,0.254,-0.67,-0.299
79673,6750.0,5896.0,-808.0,304.0,536.0,935.0,0.635,0.251,-0.67,-0.29
79695,6882.0,5072.0,-838.0,196.0,475.0,771.0,0.64,0.248,-0.67,-0.283
79707,6900.0,5364.0,-730.0,136.0,429.0,721.0,0.644,0.245,-0.67,-0.277
79729,6898.0,5166.0,-364.0,81.0,374.0,754.0,0.648,0.242,-0.669,-0.271
79741,6862.0,5356.0,-504.0,69.0,328.0,781.0,0.652,0.238,-0.67,-0.266
79764,6786.0,5518.0,-146.0,-49.0,231.0,789.0,0.655,0.233,-0.67,-0.261
79776,6936.0,5502.0,98.0,-240.0,137.0,776.0,0.658,0.227,-0.67,-0.257
79799,7138.0,4954.0,666.0,-363.0,24.0,768.0,0.661,0.219,-0.671,-0.255
79821,7378.0,4836.0,498.0,-361.0,-19.0,746.0,0.664,0.212,-0.672,-0.253
79833,7248.0,4730.0,442.0,-335.0,-17.0,727.0,0.666,0.205,-0.672,-0.25
79855,7382.0,4414.0,212.0,-284.0,-10.0,680.0,0.668,0.199,-0.673,-0.248
79867,7648.0,4666.0,-28.0,-266.0,105.0,1003.0,0.671,0.191,-0.674,-0.243
79889,7108.0,4356.0,24.0,-241.0,8.0,663.0,0.673,0.185,-0.674,-0.241
79901,7100.0,4498.0,472.0,-202.0,27.0,605.0,0.675,0.179,-0.675,-0.239
79923,7192.0,4318.0,816.0,-191.0,17.0,554.0,0.677,0.174,-0.675,-0.237
79935,6978.0,4556.0,338.0,-200.0,21.0,540.0,0.678,0.169,-0.676,-0.235
79957,7012.0,3910.0,678.0,-228.0,14.0,573.0,0.68,0.164,-0.676,-0.233
79969,7098.0,4262.0,712.0,-273.0,32.0,559.0,0.682,0.158,-0.676,-0.231
79991,7126.0,4190.0,654.0,-324.0,50.0,534.0,0.683,0.153,-0.676,-0.23
80013,7098.0,3972.0,472.0,-328.0,63.0,520.0,0.685,0.147,-0.675,-0.229
80025,7182.0,3736.0,520.0,-247.0,89.0,489.0,0.687,0.142,-0.675,-0.227
80047,7080.0,3998.0,546.0,-177.0,117.0,471.0,0.689,0.138,-0.675,-0.226
80059,7152.0,3964.0,1018.0,-180.0,116.0,461.0,0.691,0.134,-0.674,-0.224
80081,6024.0,4138.0,696.0,-428.0,234.0,189.0,0.693,0.13,-0.672,-0.225
80093,7798.0,3220.0,960.0,-199.0,164.0,324.0,0.695,0.127,-0.671,-0.225
80115,7080.0,3952.0,904.0,-145.0,212.0,525.0,0.698,0.123,-0.67,-0.222
80127,7032.0,4032.0,758.0,-384.0,160.0,262.0,0.7,0.119,-0.668,-0.223
80149,7430.0,3600.0,794.0,-426.0,168.0,439.0,0.702,0.113,-0.667,-0.223
80171,7146.0,3706.0,136.0,-414.0,178.0,489.0,0.704,0.107,-0.665,-0.223
80183,7360.0,3466.0,852.0,-387.0,187.0,455.0,0.707,0.102,-0.664,-0.222
80210,7366.0,3774.0,1246.0,-377.0,200.0,395.0,0.709,0.097,-0.662,-0.222
80222,7314.0,3640.0,1074.0,-584.0,113.0,344.0,0.711,0.091,-0.66,-0.224
80234,7542.0,3108.0,1170.0,-564.0,104.0,363.0,0.713,0.085,-0.659,-0.225
80256,7462.0,3322.0,1004.0,-432.0,122.0,331.0,0.714,0.08,-0.657,-0.226
80268,7618.0,3532.0,954.0,-425.0,98.0,277.0,0.716,0.076,-0.656,-0.227
80290,7526.0,3664.0,1250.0,-486.0,83.0,254.0,0.717,0.071,-0.655,-0.228
80302,7602.0,3044.0,1432.0,-441.0,48.0,160.0,0.718,0.066,-0.654,-0.23
80324,7552.0,3460.0,1436.0,-411.0,48.0,99.0,0.719,0.063,-0.652,-0.232
80346,7594.0,3540.0,1346.0,-461.0,0.0,110.0,0.719,0.059,-0.652,-0.235
80358,7414.0,3640.0,1462.0,-571.0,-46.0,50.0,0.719,0.054,-0.651,-0.238
80380,7418.0,3654.0,1412.0,-669.0,-78.0,42.0,0.719,0.049,-0.65,-0.243
80392,7664.0,3042.0,1556.0,-558.0,-71.0,15.0,0.719,0.045,-0.649,-0.246
80414,7346.0,3062.0,1310.0,-537.0,-51.0,-46.0,0.718,0.041,-0.648,-0.25
80426,7642.0,2942.0,1444.0,-530.0,-81.0,-80.0,0.718,0.037,-0.647,-0.254
80448,7284.0,3060.0,1594.0,-575.0,-138.0,-85.0,0.717,0.033,-0.647,-0.259
80460,7428.0,2926.0,1800.0,-508.0,-129.0,-109.0,0.716,0.03,-0.646,-0.263
80482,6880.0,2480.0,1800.0,-486.0,-194.0,-61.0,0.715,0.026,-0.646,-0.267
80504,7284.0,2698.0,1354.0,-482.0,-218.0,-69.0,0.713,0.022,-0.646,-0.271
80516,7614.0,2550.0,1080.0,-366.0,-184.0,-42.0,0.712,0.019,-0.647,-0.274
80538,7448.0,2846.0,1018.0,-252.0,-120.0,-105.0,0.711,0.017,-0.647,-0.276
80550,7448.0,2778.0,1128.0,-140.0,-85.0,-135.0,0.71,0.017,-0.647,-0.278
80572,7462.0,2974.0,1380.0,-115.0,-52.0,-68.0,0.709,0.016,-0.647,-0.28
80584,7402.0,2894.0,1498.0,-128.0,-53.0,-71.0,0.708,0.015,-0.647,-0.282
80606,7500.0,2782.0,1692.0,-103.0,-49.0,-61.0,0.708,0.014,-0.647,-0.283
80618,7430.0,2614.0,1620.0,-26.0,-45.0,-32.0,0.707,0.013,-0.647,-0.284
80640,7320.0,2736.0,1386.0,-49.0,-51.0,-6.0,0.707,0.012,-0.648,-0.284
80652,7402.0,2624.0,1232.0,-66.0,-68.0,-14.0,0.706,0.011,-0.648,-0.285
80674,7524.0,2494.0,1184.0,-59.0,-66.0,-34.0,0.706,0.011,-0.648,-0.286
80696,7710.0,2662.0,1254.0,-16.0,-62.0,10.0,0.705,0.01,-0.648,-0.287
80708,7574.0,2390.0,1262.0,-31.0,-90.0,35.0,0.705,0.008,-0.649,-0.287
80730,7640.0,2410.0,1344.0,50.0,-78.0,39.0,0.704,0.008,-0.65,-0.287
80742,7614.0,2288.0,1366.0,103.0,-77.0,18.0,0.704,0.008,-0.65,-0.286
80764,7694.0,2368.0,1428.0,183.0,-51.0,22.0,0.703,0.008,-0.651,-0.285
80776,7678.0,2410.0,1360.0,217.0,-51.0,-9.0,0.703,0.009,-0.652,-0.284
80798,7648.0,2606.0,1256.0,237.0,-17.0,8.0,0.702,0.01,-0.653,-0.283
80810,7676.0,2426.0,1210.0,215.0,-12.0,41.0,0.702,0.01,-0.653,-0.282
80832,7672.0,2582.0,1210.0,223.0,-5.0,83.0,0.702,0.011,-0.654,-0.28
80854,7726.0,2482.0,1158.0,211.0,-28.0,86.0,0.702,0.011,-0.655,-0.279
80866,8106.0,2126.0,1774.0,141.0,-56.0,151.0,0.702,0.011,-0.656,-0.277
80888,7716.0,2210.0,1126.0,130.0,-67.0,118.0,0.702,0.01,-0.656,-0.276
80900,7766.0,2448.0,1276.0,211.0,-17.0,201.0,0.702,0.01,-0.657,-0.274
80922,7658.0,2506.0,1198.0,196.0,-17.0,137.0,0.703,0.009,-0.658,-0.272
80934,7704.0,2416.0,1182.0,203.0,-1.0,160.0,0.703,0.009,-0.658,-0.27
80956,7660.0,2436.0,1196.0,228.0,14.0,149.0,0.703,0.01,-0.659,-0.268
80968,7736.0,2480.0,1154.0,239.0,29.0,155.0,0.704,0.01,-0.659,-0.266
80990,7624.0,2424.0,1308.0,235.0,27.0,145.0,0.704,0.01,-0.659,-0.264
81012,7624.0,2420.0,1278.0,225.0,17.0,121.0,0.704,0.01,-0.66,-0.262
81024,7670.0,2358.0,1140.0,252.0,17.0,103.0,0.705,0.011,-0.66,-0.26
81046,7592.0,2564.0,1142.0,251.0,33.0,114.0,0.705,0.011,-0.661,-0.258
81058,7670.0,2502.0,1158.0,207.0,24.0,99.0,0.705,0.012,-0.661,-0.256
81080,7712.0,2504.0,1172.0,193.0,35.0,90.0,0.705,0.012,-0.661,-0.255
81092,7800.0,2428.0,1116.0,217.0,45.0,105.0,0.706,0.013,-0.661,-0.253
81114,7672.0,2604.0,1112.0,209.0,63.0,116.0,0.706,0.013,-0.662,-0.252
81126,7782.0,2648.0,1206.0,138.0,47.0,103.0,0.707,0.013,-0.662,-0.25
81148,7830.0,2542.0,1416.0,98.0,45.0,97.0,0.707,0.013,-0.661,-0.25
81170,7780.0,2492.0,1416.0,74.0,32.0,97.0,0.707,0.012,-0.661,-0.249
81182,7766.0,2376.0,1110.0,65.0,23.0,112.0,0.708,0.011,-0.661,-0.248
81204,7764.0,2474.0,950.0,29.0,12.0,122.0,0.708,0.01,-0.661,-0.247
81216,7738.0,2418.0,1018.0,-14.0,6.0,140.0,0.708,0.009,-0.661,-0.247
81238,7834.0,2562.0,1168.0,-53.0,-23.0,150.0,0.708,0.007,-0.661,-0.247
81250,7812.0,2560.0,1080.0,-25.0,15.0,194.0,0.709,0.006,-0.661,-0.246
81272,7856.0,2428.0,982.0,33.0,40.0,192.0,0.709,0.004,-0.661,-0.245
81284,7770.0,2314.0,1236.0,86.0,48.0,177.0,0.71,0.003,-0.661,-0.243
81306,7650.0,2374.0,1320.0,91.0,47.0,207.0,0.711,0.003,-0.661,-0.242
81318,7610.0,2490.0,1066.0,62.0,17.0,85.0,0.711,0.002,-0.661,-0.241
81340,7702.0,2498.0,1068.0,16.0,14.0,129.0,0.711,0.001,-0.661,-0.241
81362,7706.0,2374.0,926.0,-41.0,-27.0,107.0,0.711,-0.0,-0.661,-0.24
81374,7874.0,2478.0,952.0,-30.0,22.0,139.0,0.711,-0.002,-0.661,-0.24
81396,7842.0,2478.0,1176.0,13.0,54.0,123.0,0.712,-0.003,-0.66,-0.24
81408,7502.0,2366.0,1058.0,33.0,65.0,106.0,0.712,-0.003,-0.66,-0.239
81430,7448.0,2270.0,1076.0,22.0,56.0,107.0,0.713,-0.004,-0.66,-0.239
81442,7594.0,2288.0,996.0,-41.0,44.0,143.0,0.713,-0.006,-0.659,-0.238
81464,7872.0,2284.0,1074.0,-3.0,69.0,163.0,0.714,-0.007,-0.659,-0.238
81476,7708.0,2386.0,1032.0,-1.0,85.0,148.0,0.715,-0.008,-0.658,-0.237
81498,7652.0,2424.0,1006.0,-18.0,72.0,140.0,0.715,-0.009,-0.658,-0.237
81520,7742.0,2428.0,804.0,9.0,53.0,119.0,0.716,-0.01,-0.657,-0.236
81532,7646.0,2272.0,902.0,76.0,39.0,18.0,0.716,-0.01,-0.657,-0.236
81554,7908.0,2218.0,1470.0,67.0,9.0,5.0,0.716,-0.01,-0.657,-0.236
81566,7910.0,2532.0,1108.0,53.0,-6.0,-113.0,0.715,-0.009,-0.657,-0.237
81588,7926.0,2574.0,986.0,-14.0,-36.0,-158.0,0.715,-0.009,-0.658,-0.238
81600,7884.0,2278.0,962.0,-4.0,-37.0,-172.0,0.714,-0.008,-0.658,-0.24
81622,7816.0,2658.0,436.0,45.0,-34.0,-198.0,0.713,-0.007,-0.658,-0.241
81634,7638.0,2786.0,152.0,84.0,-39.0,-181.0,0.712,-0.006,-0.659,-0.242
81656,7752.0,2312.0,670.0,102.0,-81.0,-254.0,0.711,-0.004,-0.66,-0.244
81668,8002.0,3116.0,1024.0,223.0,-42.0,-359.0,0.71,-0.001,-0.661,-0.245
81690,7784.0,3260.0,608.0,255.0,-33.0,-482.0,0.708,0.003,-0.662,-0.247
81712,7852.0,3380.0,54.0,397.0,-30.0,-601.0,0.706,0.009,-0.663,-0.249
81724,7744.0,3228.0,630.0,478.0,-11.0,-690.0,0.704,0.016,-0.664,-0.251
81746,7752.0,4054.0,662.0,503.0,-61.0,-796.0,0.702,0.024,-0.665,-0.254
81758,7730.0,4088.0,-322.0,541.0,-112.0,-922.0,0.698,0.033,-0.667,-0.257
81780,7704.0,4216.0,-1018.0,529.0,-152.0,-1062.0,0.694,0.043,-0.67,-0.261
81792,8020.0,3198.0,-866.0,506.0,-275.0,-1254.0,0.689,0.053,-0.672,-0.266
81814,7990.0,4316.0,-68.0,644.0,-320.0,-1376.0,0.683,0.064,-0.675,-0.271
81836,7422.0,7214.0,-982.0,619.0,-443.0,-1535.0,0.676,0.076,-0.679,-0.278
81848,8116.0,5280.0,668.0,660.0,-572.0,-1844.0,0.666,0.09,-0.683,-0.286
81870,8338.0,5468.0,130.0,820.0,-594.0,-2019.0,0.656,0.107,-0.687,-0.294
81882,7856.0,5914.0,908.0,762.0,-708.0,-2090.0,0.645,0.122,-0.691,-0.302
81904,8538.0,5156.0,156.0,812.0,-618.0,-1687.0,0.635,0.136,-0.695,-0.308
81916,7784.0,7306.0,-250.0,788.0,-928.0,-2216.0,0.622,0.152,-0.7,-0.317
81938,8274.0,6938.0,-502.0,803.0,-1030.0,-2361.0,0.606,0.169,-0.705,-0.327
81950,7536.0,7990.0,-716.0,821.0,-1126.0,-2583.0,0.59,0.187,-0.709,-0.338
81972,7336.0,8128.0,-1244.0,805.0,-1158.0,-3217.0,0.57,0.209,-0.712,-0.353
81984,7954.0,8076.0,-1716.0,875.0,-1284.0,-3338.0,0.548,0.231,-0.715,-0.367
82006,6988.0,8160.0,-1556.0,815.0,-1317.0,-3099.0,0.527,0.252,-0.717,-0.38
82018,6764.0,8854.0,-1550.0,741.0,-1455.0,-3207.0,0.504,0.271,-0.719,-0.394
82040,6166.0,9210.0,-2620.0,730.0,-1466.0,-3248.0,0.48,0.291,-0.72,-0.408
82062,5318.0,7292.0,-2270.0,633.0,-1536.0,-3293.0,0.455,0.31,-0.72,-0.422
82074,4722.0,9364.0,-2358.0,660.0,-1565.0,-3190.0,0.43,0.328,-0.72,-0.436
82096,4618.0,9586.0,-3184.0,728.0,-1580.0,-3135.0,0.404,0.345,-0.719,-0.448
82108,4052.0,8150.0,-2910.0,672.0,-1680.0,-3087.0,0.378,0.362,-0.718,-0.46
82130,3750.0,9068.0,-2328.0,500.0,-1784.0,-3062.0,0.351,0.376,-0.715,-0.473
82142,3234.0,8972.0,-2808.0,467.0,-1825.0,-3033.0,0.323,0.39,-0.712,-0.486
82164,2674.0,7390.0,-2472.0,453.0,-1864.0,-3008.0,0.296,0.402,-0.709,-0.498
82186,1712.0,8286.0,-2966.0,443.0,-1854.0,-2902.0,0.269,0.413,-0.705,-0.51
82198,1264.0,8022.0,-3052.0,502.0,-1879.0,-2910.0,0.241,0.424,-0.701,-0.521
82215,1174.0,7680.0,-3030.0,465.0,-1951.0,-2857.0,0.213,0.434,-0.696,-0.531
82237,496.0,6632.0,-2394.0,335.0,-1987.0,-2769.0,0.184,0.442,-0.69,-0.543
82249,634.0,7440.0,-3350.0,330.0,-1994.0,-2674.0,0.157,0.449,-0.684,-0.553
82271,46.0,6442.0,-3024.0,316.0,-2018.0,-2632.0,0.129,0.456,-0.677,-0.563
82283,-164.0,5698.0,-2238.0,296.0,-2010.0,-2585.0,0.102,0.462,-0.67,-0.572
82305,-442.0,6096.0,-2584.0,183.0,-1969.0,-2408.0,0.075,0.466,-0.662,-0.582
82317,-804.0,5408.0,-2266.0,254.0,-1910.0,-2299.0,0.05,0.47,-0.655,-0.59
82339,-900.0,5312.0,-2182.0,178.0,-1868.0,-2226.0,0.025,0.473,-0.647,-0.598
82351,-1544.0,4288.0,-3032.0,167.0,-1814.0,-2159.0,0.002,0.476,-0.639,-0.605
82373,-1340.0,5202.0,-2344.0,344.0,-1748.0,-1988.0,0.022,-0.477,0.632,0.611
82395,-1832.0,4420.0,-1804.0,280.0,-1678.0,-1933.0,0.044,-0.479,0.624,0.616
82407,-2068.0,4944.0,-2322.0,190.0,-1614.0,-1743.0,0.064,-0.48,0.617,0.621
82429,-2120.0,4176.0,-1534.0,351.0,-1581.0,-1561.0,0.084,-0.479,0.611,0.625
82441,-2688.0,3150.0,-1716.0,414.0,-1517.0,-1430.0,0.103,-0.478,0.606,0.628
82463,-3284.0,3466.0,-1432.0,664.0,-1412.0,-1240.0,0.122,-0.475,0.603,0.629
82475,-3662.0,2858.0,562.0,793.0,-1298.0,-1178.0,0.139,-0.473,0.601,0.629
82497,-4600.0,2876.0,500.0,679.0,-1113.0,-1145.0,0.155,-0.472,0.598,0.629
82509,-5612.0,2158.0,1044.0,578.0,-978.0,-912.0,0.169,-0.471,0.596,0.628
82531,-5796.0,1874.0,1286.0,447.0,-827.0,-775.0,0.18,-0.469,0.594,0.628
82553,-5872.0,2484.0,612.0,60.0,-670.0,-557.0,0.187,-0.468,0.591,0.63
82565,-4902.0,3034.0,106.0,-76.0,-579.0,-373.0,0.192,-0.467,0.588,0.632
82587,-5318.0,1450.0,554.0,118.0,-319.0,-216.0,0.196,-0.466,0.587,0.632
82599,-5372.0,988.0,1844.0,355.0,32.0,-75.0,0.198,-0.466,0.589,0.63
82621,-5336.0,1740.0,2522.0,98.0,440.0,158.0,0.195,-0.467,0.591,0.628
82633,-4586.0,1926.0,1138.0,-228.0,867.0,520.0,0.186,-0.47,0.594,0.626
82655,-4112.0,2068.0,702.0,-58.0,1119.0,977.0,0.174,-0.471,0.599,0.623
82667,-4216.0,2934.0,1344.0,116.0,1341.0,1303.0,0.16,-0.471,0.608,0.619
82689,-4322.0,2980.0,1686.0,-101.0,1609.0,1522.0,0.142,-0.471,0.617,0.614
82701,-4080.0,2586.0,610.0,-306.0,1825.0,1777.0,0.12,-0.472,0.625,0.61
82724,-3390.0,3198.0,-560.0,-258.0,2010.0,2142.0,0.095,-0.47,0.635,0.605
82746,-3392.0,3350.0,28.0,-78.0,2236.0,2400.0,0.068,-0.468,0.647,0.598
82758,-2734.0,4828.0,-1186.0,-194.0,2382.0,2372.0,0.04,-0.467,0.658,0.589
82780,-2724.0,3588.0,-850.0,-315.0,2598.0,2476.0,0.009,-0.466,0.668,0.581
82792,-1814.0,5244.0,-2428.0,-395.0,2727.0,2541.0,0.023,0.464,-0.677,-0.571
82814,-1456.0,5296.0,-2546.0,-480.0,2797.0,2659.0,0.057,0.462,-0.685,-0.561
82826,-792.0,6374.0,-1102.0,-585.0,2883.0,2604.0,0.091,0.459,-0.691,-0.551
82848,-298.0,6932.0,-4448.0,-768.0,2747.0,2506.0,0.125,0.456,-0.696,-0.541
82860,220.0,5498.0,-3326.0,-808.0,2653.0,2876.0,0.16,0.449,-0.7,-0.531
82882,996.0,9178.0,-4612.0,-638.0,2535.0,2863.0,0.193,0.441,-0.705,-0.521
82894,860.0,7702.0,-4124.0,-412.0,2486.0,2768.0,0.224,0.434,-0.71,-0.508
82916,1918.0,8410.0,-2928.0,-546.0,2390.0,2719.0,0.255,0.425,-0.713,-0.496
82938,2532.0,8196.0,-4140.0,-655.0,2310.0,2671.0,0.285,0.416,-0.715,-0.484
82950,2076.0,8464.0,-4300.0,-497.0,2199.0,2723.0,0.313,0.406,-0.717,-0.472
82972,3760.0,9056.0,-5458.0,-307.0,2225.0,2669.0,0.341,0.397,-0.719,-0.457
82984,3762.0,7670.0,-2070.0,-176.0,2134.0,2699.0,0.367,0.386,-0.722,-0.442
83006,5458.0,9022.0,-1992.0,-201.0,2080.0,2461.0,0.392,0.377,-0.722,-0.427
83018,5172.0,8972.0,-3780.0,-493.0,2117.0,2500.0,0.417,0.367,-0.721,-0.414
83040,5368.0,7076.0,-2474.0,-495.0,2042.0,2609.0,0.443,0.355,-0.72,-0.4
83062,6046.0,10374.0,-5236.0,-311.0,2055.0,2491.0,0.466,0.344,-0.718,-0.385
83074,6008.0,6826.0,-1724.0,-436.0,1998.0,2523.0,0.49,0.332,-0.716,-0.37
83096,6624.0,8422.0,-1978.0,-395.0,1828.0,2360.0,0.511,0.321,-0.713,-0.357
83108,6038.0,6378.0,-2242.0,-646.0,1682.0,2440.0,0.532,0.307,-0.71,-0.344
83130,6582.0,8166.0,-4170.0,-574.0,1708.0,2402.0,0.553,0.293,-0.706,-0.331
83142,6036.0,7042.0,-1994.0,-323.0,1665.0,2421.0,0.572,0.28,-0.703,-0.316
83164,7294.0,6936.0,-1714.0,-226.0,1583.0,2247.0,0.589,0.269,-0.7,-0.301
83176,7884.0,6686.0,-452.0,-465.0,1451.0,2095.0,0.605,0.257,-0.696,-0.289
83198,6818.0,6118.0,-1290.0,-612.0,1304.0,2065.0,0.621,0.243,-0.691,-0.279
83210,7048.0,6598.0,-1628.0,-552.0,1204.0,1909.0,0.635,0.23,-0.687,-0.268
83232,7196.0,6912.0,-1292.0,-535.0,1136.0,1845.0,0.647,0.218,-0.683,-0.258
83254,6854.0,6436.0,-392.0,-528.0,1134.0,2055.0,0.66,0.204,-0.679,-0.247
83266,6600.0,5086.0,-456.0,-221.0,761.0,1748.0,0.669,0.194,-0.677,-0.237
83288,6850.0,6324.0,-292.0,-375.0,749.0,1704.0,0.678,0.182,-0.675,-0.227
83300,9188.0,5496.0,-50.0,-636.0,975.0,2668.0,0.691,0.163,-0.671,-0.213
83322,7218.0,5764.0,-782.0,-386.0,422.0,608.0,0.695,0.157,-0.669,-0.211
83334,7936.0,5546.0,-1070.0,-310.0,528.0,956.0,0.701,0.15,-0.666,-0.206
83356,6942.0,6080.0,-784.0,-440.0,265.0,397.0,0.704,0.145,-0.664,-0.206
83368,10154.0,6502.0,96.0,-168.0,374.0,979.0,0.708,0.139,-0.663,-0.2
83390,7882.0,6356.0,-488.0,-322.0,-26.0,318.0,0.709,0.134,-0.663,-0.2
83402,7770.0,6558.0,-822.0,-351.0,-134.0,243.0,0.709,0.13,-0.663,-0.201
83424,7920.0,6632.0,-550.0,-492.0,-315.0,96.0,0.708,0.126,-0.665,-0.204
83446,6930.0,5920.0,-1222.0,-342.0,-453.0,-460.0,0.704,0.125,-0.666,-0.21
83458,7458.0,6274.0,-562.0,-228.0,-715.0,-891.0,0.698,0.128,-0.67,-0.218
83480,6864.0,6968.0,-1476.0,-32.0,-1008.0,-1469.0,0.689,0.134,-0.674,-0.229
83492,7292.0,7578.0,-858.0,-17.0,-1078.0,-1306.0,0.679,0.14,-0.68,-0.239
83514,6116.0,7198.0,-1292.0,-263.0,-1142.0,-1583.0,0.669,0.146,-0.684,-0.252
83526,7522.0,8018.0,-1154.0,-149.0,-1242.0,-1862.0,0.657,0.154,-0.689,-0.266
83548,7644.0,7520.0,-984.0,-59.0,-1452.0,-2197.0,0.642,0.164,-0.694,-0.282
83560,8248.0,8408.0,-1818.0,-63.0,-1562.0,-2431.0,0.625,0.175,-0.699,-0.3
83582,8526.0,7906.0,-1542.0,-66.0,-1684.0,-2777.0,0.606,0.188,-0.704,-0.319
83604,8744.0,8346.0,-1664.0,-42.0,-1838.0,-3162.0,0.584,0.203,-0.708,-0.34
83616,8870.0,8384.0,-1564.0,66.0,-1953.0,-3229.0,0.561,0.218,-0.713,-0.361
83638,8570.0,8838.0,-2022.0,128.0,-2020.0,-3262.0,0.536,0.234,-0.717,-0.381
83650,7910.0,8750.0,-1846.0,111.0,-2036.0,-3339.0,0.51,0.249,-0.719,-0.401
83672,7710.0,9336.0,-2714.0,54.0,-2014.0,-3467.0,0.483,0.265,-0.721,-0.421
83684,7262.0,8450.0,-2314.0,261.0,-1980.0,-3536.0,0.455,0.282,-0.721,-0.44
83706,7052.0,8720.0,-1744.0,380.0,-2044.0,-3576.0,0.425,0.3,-0.721,-0.457
83718,5670.0,8246.0,-2416.0,242.0,-2116.0,-3508.0,0.395,0.315,-0.72,-0.475
83740,4692.0,8894.0,-2512.0,240.0,-2153.0,-3437.0,0.364,0.329,-0.719,-0.492
83762,4448.0,7840.0,-2264.0,168.0,-2146.0,-3388.0,0.334,0.343,-0.716,-0.509
83774,3578.0,8282.0,-2170.0,157.0,-2108.0,-3240.0,0.304,0.355,-0.712,-0.524
83796,3796.0,8976.0,-3030.0,326.0,-2100.0,-3227.0,0.273,0.367,-0.709,-0.538
83808,3234.0,7530.0,-3196.0,225.0,-2178.0,-3140.0,0.242,0.376,-0.705,-0.551
83830,3112.0,7758.0,-1756.0,290.0,-2241.0,-3160.0,0.211,0.386,-0.7,-0.563
83842,2028.0,5968.0,-1664.0,92.0,-2159.0,-3136.0,0.18,0.395,-0.693,-0.576
83864,792.0,6832.0,-1828.0,395.0,-1971.0,-2987.0,0.15,0.404,-0.687,-0.586
83876,-134.0,5564.0,-1050.0,351.0,-1888.0,-2908.0,0.12,0.412,-0.68,-0.594
83898,-558.0,6096.0,-1188.0,409.0,-1800.0,-2698.0,0.092,0.42,-0.674,-0.601
83920,-910.0,5910.0,-2154.0,498.0,-1784.0,-2579.0,0.064,0.426,-0.668,-0.607
83932,-1038.0,4744.0,-936.0,546.0,-1846.0,-2416.0,0.037,0.431,-0.662,-0.612
83954,-1184.0,3644.0,-582.0,332.0,-1836.0,-2464.0,0.01,0.435,-0.654,-0.618
83966,-1572.0,4980.0,-1080.0,398.0,-1702.0,-2182.0,0.015,-0.439,0.648,0.623
83988,-1818.0,3512.0,-1634.0,447.0,-1700.0,-1946.0,0.038,-0.44,0.642,0.626
84000,-1968.0,3230.0,-670.0,702.0,-1635.0,-1829.0,0.061,-0.441,0.638,0.628
84022,-2500.0,3236.0,250.0,794.0,-1542.0,-1646.0,0.084,-0.441,0.635,0.629
84034,-3024.0,2482.0,406.0,589.0,-1399.0,-1468.0,0.103,-0.441,0.631,0.63
84056,-3602.0,2538.0,-258.0,430.0,-1234.0,-1281.0,0.12,-0.441,0.627,0.631
84068,-4212.0,1652.0,-240.0,302.0,-1106.0,-1012.0,0.134,-0.44,0.624,0.632
84090,-4536.0,1660.0,-94.0,143.0,-1020.0,-810.0,0.145,-0.438,0.62,0.635
84112,-4548.0,2056.0,1432.0,51.0,-834.0,-628.0,0.154,-0.436,0.617,0.637
84124,-4096.0,2098.0,1824.0,-89.0,-407.0,-456.0,0.159,-0.437,0.614,0.638
84146,-3924.0,1850.0,1036.0,2.0,-10.0,-126.0,0.16,-0.437,0.613,0.638
84158,-4456.0,1416.0,1892.0,88.0,395.0,233.0,0.156,-0.438,0.616,0.636
84180,-4920.0,1836.0,1664.0,-86.0,807.0,623.0,0.148,-0.439,0.619,0.634
84192,-4908.0,1864.0,1166.0,-273.0,1168.0,958.0,0.134,-0.441,0.623,0.632
84219,-4544.0,1644.0,846.0,-200.0,1420.0,1138.0,0.119,-0.443,0.628,0.629
84231,-4540.0,2418.0,876.0,0.0,1607.0,1396.0,0.101,-0.443,0.636,0.624
84253,-4600.0,2576.0,668.0,39.0,1855.0,1652.0,0.081,-0.444,0.644,0.617
84265,-4196.0,2930.0,436.0,113.0,2034.0,1903.0,0.058,-0.444,0.654,0.609
84287,-3412.0,4290.0,4.0,129.0,2195.0,2070.0,0.034,-0.443,0.665,0.6
84299,-3168.0,4426.0,-234.0,79.0,2402.0,2276.0,0.007,-0.442,0.675,0.59
84321,-2986.0,3410.0,-584.0,-26.0,2540.0,2411.0,0.022,0.44,-0.685,-0.58
84333,-2126.0,5458.0,-2296.0,-170.0,2646.0,2447.0,0.053,0.438,-0.693,-0.569
84355,-1706.0,4452.0,-1300.0,-377.0,2638.0,2619.0,0.085,0.435,-0.701,-0.559
84367,-454.0,7128.0,-2080.0,-503.0,2740.0,2363.0,0.117,0.432,-0.705,-0.549
84389,634.0,5844.0,-3702.0,-442.0,2586.0,2400.0,0.148,0.429,-0.71,-0.539
84411,1108.0,6018.0,-1060.0,-458.0,2670.0,2799.0,0.181,0.423,-0.714,-0.527
84423,2004.0,9794.0,-4674.0,-508.0,2628.0,2559.0,0.213,0.417,-0.717,-0.516
84445,1880.0,7514.0,-2218.0,-757.0,2572.0,2750.0,0.247,0.409,-0.719,-0.505
84457,2904.0,9186.0,-4644.0,-580.0,2459.0,2488.0,0.277,0.402,-0.72,-0.494
84479,2244.0,8834.0,-5660.0,-310.0,2412.0,2416.0,0.305,0.396,-0.721,-0.48
84491,3580.0,7968.0,-2742.0,-235.0,2351.0,2475.0,0.333,0.388,-0.722,-0.466
84513,4422.0,10162.0,-1340.0,-386.0,2219.0,2334.0,0.359,0.381,-0.722,-0.453
84525,4668.0,9492.0,-4070.0,-721.0,2169.0,2327.0,0.386,0.372,-0.72,-0.442
84547,4294.0,7292.0,-2276.0,-755.0,2069.0,2469.0,0.412,0.36,-0.717,-0.431
84559,4820.0,7888.0,-2762.0,-623.0,1960.0,2561.0,0.437,0.348,-0.716,-0.419
84581,4986.0,10300.0,-3040.0,-574.0,1883.0,2689.0,0.462,0.335,-0.714,-0.405
84603,5662.0,7942.0,-2460.0,-685.0,1764.0,2743.0,0.486,0.32,-0.712,-0.392
84615,6226.0,7636.0,-2194.0,-763.0,1678.0,2719.0,0.509,0.304,-0.71,-0.38
84637,6288.0,7062.0,-1928.0,-676.0,1656.0,2688.0,0.531,0.289,-0.707,-0.367
84649,6478.0,7852.0,-2414.0,-635.0,1649.0,2649.0,0.552,0.274,-0.703,-0.354
84671,6838.0,6980.0,-1322.0,-600.0,1643.0,2581.0,0.573,0.259,-0.699,-0.34
84683,7274.0,7390.0,-1018.0,-561.0,1593.0,2484.0,0.592,0.244,-0.695,-0.327
84705,7554.0,7488.0,-646.0,-577.0,1489.0,2364.0,0.61,0.23,-0.69,-0.314
84717,7714.0,6680.0,-76.0,-581.0,1316.0,2235.0,0.626,0.216,-0.686,-0.302
84739,7982.0,6330.0,-972.0,-598.0,1114.0,2068.0,0.64,0.202,-0.681,-0.292
84751,7738.0,6624.0,-62.0,-580.0,971.0,2001.0,0.653,0.189,-0.678,-0.282
84773,8240.0,6124.0,-126.0,-580.0,814.0,1736.0,0.663,0.176,-0.674,-0.273
84795,8312.0,6356.0,-24.0,-602.0,673.0,1631.0,0.672,0.164,-0.671,-0.266
84807,8214.0,5968.0,176.0,-607.0,516.0,1503.0,0.68,0.152,-0.669,-0.26
84829,7616.0,6312.0,-766.0,-595.0,469.0,1494.0,0.687,0.14,-0.666,-0.253
84841,7464.0,5508.0,-1038.0,-551.0,401.0,1325.0,0.694,0.129,-0.664,-0.248
84863,8984.0,6874.0,78.0,-557.0,878.0,2184.0,0.705,0.113,-0.659,-0.236
84875,7978.0,5532.0,-2016.0,-318.0,544.0,1069.0,0.71,0.106,-0.656,-0.231
84897,6812.0,4752.0,-190.0,-339.0,341.0,885.0,0.714,0.099,-0.654,-0.227
84909,7116.0,5624.0,-220.0,-386.0,220.0,687.0,0.718,0.092,-0.653,-0.225
84931,7350.0,5640.0,466.0,-365.0,29.0,340.0,0.719,0.088,-0.652,-0.225
84943,7256.0,5692.0,302.0,-365.0,-134.0,140.0,0.718,0.084,-0.652,-0.227
84966,7036.0,6366.0,130.0,-301.0,-218.0,23.0,0.717,0.081,-0.653,-0.229
84978,6978.0,6608.0,280.0,-348.0,-365.0,-339.0,0.714,0.08,-0.655,-0.234
85001,7660.0,6046.0,-424.0,-48.0,-648.0,-903.0,0.709,0.083,-0.658,-0.241
85023,6514.0,6472.0,-348.0,-152.0,-671.0,-1019.0,0.702,0.087,-0.661,-0.249
85035,7420.0,6588.0,-346.0,8.0,-721.0,-1226.0,0.695,0.093,-0.665,-0.258
85057,7494.0,7020.0,-676.0,106.0,-884.0,-1565.0,0.685,0.101,-0.67,-0.268
85069,7444.0,7156.0,-480.0,190.0,-1014.0,-1883.0,0.674,0.111,-0.675,-0.28
85091,7710.0,7414.0,-324.0,99.0,-1169.0,-2079.0,0.661,0.122,-0.68,-0.294
85103,8142.0,7950.0,-612.0,36.0,-1322.0,-2286.0,0.646,0.133,-0.686,-0.309
85125,8462.0,7520.0,-966.0,69.0,-1446.0,-2533.0,0.629,0.145,-0.691,-0.325
85137,8644.0,7400.0,-1048.0,181.0,-1557.0,-2820.0,0.61,0.159,-0.697,-0.343
85159,8734.0,8154.0,-1090.0,214.0,-1656.0,-3066.0,0.589,0.175,-0.702,-0.361
85171,8584.0,8732.0,-1686.0,258.0,-1740.0,-3245.0,0.566,0.192,-0.707,-0.38
85193,8246.0,8362.0,-1288.0,295.0,-1848.0,-3375.0,0.541,0.209,-0.711,-0.398
85215,8016.0,8992.0,-2000.0,311.0,-1908.0,-3490.0,0.514,0.227,-0.714,-0.417
85227,7650.0,8872.0,-1796.0,377.0,-1954.0,-3530.0,0.486,0.245,-0.717,-0.435
85249,7514.0,8978.0,-2350.0,370.0,-1976.0,-3550.0,0.458,0.262,-0.719,-0.453
85261,7120.0,8910.0,-1690.0,395.0,-2016.0,-3554.0,0.428,0.279,-0.72,-0.47
85283,6760.0,9412.0,-2990.0,583.0,-1967.0,-3562.0,0.397,0.296,-0.72,-0.485
85295,5696.0,8272.0,-2374.0,695.0,-1979.0,-3510.0,0.366,0.313,-0.721,-0.499
85317,4738.0,8314.0,-1992.0,713.0,-2027.0,-3480.0,0.334,0.33,-0.72,-0.511
85339,3780.0,7568.0,-1682.0,745.0,-2039.0,-3429.0,0.302,0.345,-0.719,-0.523
85351,3182.0,7736.0,-2016.0,747.0,-2024.0,-3337.0,0.27,0.359,-0.717,-0.533
85373,1974.0,6312.0,-1768.0,730.0,-2034.0,-3183.0,0.238,0.372,-0.715,-0.542
85385,1520.0,6948.0,-1960.0,765.0,-2031.0,-3006.0,0.207,0.383,-0.712,-0.551
85407,1306.0,7388.0,-2666.0,753.0,-2011.0,-2934.0,0.176,0.393,-0.71,-0.558
85419,822.0,5272.0,-1812.0,896.0,-2015.0,-2871.0,0.145,0.403,-0.707,-0.564
85441,556.0,6690.0,-2200.0,899.0,-2046.0,-2672.0,0.114,0.41,-0.704,-0.569
85453,-478.0,5192.0,-1658.0,827.0,-2071.0,-2534.0,0.084,0.417,-0.7,-0.574
85475,-394.0,5700.0,-1392.0,672.0,-2099.0,-2397.0,0.054,0.422,-0.696,-0.579
85487,-1204.0,4488.0,-1268.0,536.0,-2023.0,-2213.0,0.027,0.425,-0.691,-0.584
85509,-1386.0,4892.0,-1474.0,623.0,-1970.0,-2121.0,0.001,0.428,-0.686,-0.589
85521,-1942.0,4060.0,-828.0,748.0,-1972.0,-1966.0,0.026,-0.429,0.682,0.591
85544,-2476.0,4864.0,-1054.0,782.0,-1912.0,-1718.0,0.051,-0.429,0.679,0.593
85566,-2668.0,2884.0,-454.0,635.0,-1887.0,-1397.0,0.073,-0.427,0.676,0.596
85578,-3300.0,3574.0,-418.0,541.0,-1724.0,-1161.0,0.093,-0.424,0.673,0.599
85600,-3614.0,3068.0,-588.0,429.0,-1542.0,-1104.0,0.11,-0.422,0.67,0.601
85612,-3976.0,3400.0,-1206.0,418.0,-1410.0,-1042.0,0.127,-0.42,0.666,0.603
85634,-4374.0,3050.0,-734.0,429.0,-1404.0,-931.0,0.142,-0.418,0.663,0.604
85646,-4556.0,2694.0,922.0,344.0,-1295.0,-856.0,0.157,-0.415,0.66,0.606
85668,-4466.0,2862.0,1078.0,179.0,-1071.0,-724.0,0.168,-0.413,0.657,0.608
85680,-4468.0,2586.0,1436.0,75.0,-724.0,-435.0,0.175,-0.412,0.654,0.61
85702,-4460.0,1710.0,1654.0,48.0,-315.0,-124.0,0.178,-0.41,0.654,0.61
85714,-4886.0,1632.0,1504.0,-13.0,133.0,231.0,0.176,-0.41,0.655,0.61
85736,-4682.0,2326.0,1366.0,-104.0,494.0,520.0,0.169,-0.41,0.657,0.61
85758,-4496.0,2104.0,1392.0,-125.0,806.0,720.0,0.16,-0.41,0.66,0.609
85770,-4614.0,2146.0,1170.0,-151.0,1116.0,917.0,0.147,-0.411,0.664,0.607
85792,-4262.0,2520.0,978.0,-241.0,1390.0,1183.0,0.131,-0.411,0.67,0.604
85804,-4026.0,2686.0,714.0,-300.0,1632.0,1413.0,0.112,-0.412,0.675,0.602
85826,-3986.0,2688.0,266.0,-324.0,1843.0,1615.0,0.09,-0.412,0.681,0.598
85838,-3490.0,3658.0,-220.0,-288.0,2063.0,1809.0,0.066,-0.412,0.688,0.593
85860,-2990.0,4242.0,-704.0,-313.0,2223.0,1920.0,0.04,-0.412,0.695,0.588
85882,-3244.0,3470.0,-742.0,-472.0,2419.0,2147.0,0.011,-0.411,0.702,0.582
85894,-2660.0,4932.0,-1614.0,-623.0,2561.0,2369.0,0.021,0.409,-0.707,-0.576
85916,-2348.0,3660.0,-1420.0,-811.0,2583.0,2378.0,0.053,0.406,-0.711,-0.571
85928,-1206.0,5398.0,-152.0,-1042.0,2610.0,2539.0,0.088,0.402,-0.714,-0.566
85950,302.0,7146.0,-3382.0,-1181.0,2723.0,2328.0,0.123,0.399,-0.714,-0.562
85962,26.0,5274.0,-3458.0,-668.0,2581.0,2803.0,0.157,0.393,-0.718,-0.553
85984,1122.0,8206.0,-2874.0,-211.0,2542.0,2772.0,0.189,0.386,-0.723,-0.541
85996,1882.0,7434.0,-258.0,-475.0,2454.0,2780.0,0.222,0.378,-0.726,-0.53
86018,2992.0,7952.0,-2812.0,-821.0,2319.0,2664.0,0.254,0.369,-0.726,-0.521
86040,2874.0,8470.0,-2490.0,-749.0,2225.0,2784.0,0.284,0.359,-0.727,-0.512
86052,3904.0,10216.0,-4048.0,-511.0,2272.0,2656.0,0.314,0.35,-0.727,-0.501
86074,4060.0,7732.0,-2924.0,-544.0,2228.0,2731.0,0.343,0.34,-0.727,-0.489
86086,4714.0,9804.0,-1944.0,-562.0,2097.0,2614.0,0.371,0.329,-0.725,-0.478
86108,5336.0,9816.0,-4340.0,-772.0,2056.0,2658.0,0.398,0.317,-0.723,-0.467
86120,5364.0,8028.0,-2892.0,-742.0,2041.0,2791.0,0.426,0.304,-0.72,-0.456
86142,6350.0,8738.0,-2650.0,-629.0,2040.0,2657.0,0.453,0.292,-0.716,-0.443
86154,5756.0,7354.0,-2400.0,-745.0,1995.0,2685.0,0.479,0.279,-0.712,-0.432
86176,6008.0,7890.0,-2116.0,-678.0,1969.0,2661.0,0.504,0.266,-0.707,-0.419
86188,6712.0,10086.0,-2758.0,-727.0,2188.0,2940.0,0.531,0.251,-0.701,-0.405
86210,6522.0,7122.0,-914.0,-523.0,1905.0,2508.0,0.554,0.239,-0.695,-0.391
86227,6622.0,7484.0,-50.0,-484.0,1742.0,2393.0,0.575,0.227,-0.689,-0.378
86249,6724.0,6912.0,-300.0,-549.0,1575.0,2306.0,0.594,0.215,-0.684,-0.366
86261,6552.0,6990.0,-512.0,-538.0,1513.0,2184.0,0.612,0.203,-0.678,-0.354
86283,6886.0,7146.0,-910.0,-425.0,1577.0,2137.0,0.629,0.192,-0.671,-0.342
86295,6942.0,7406.0,-36.0,-246.0,1502.0,1895.0,0.645,0.183,-0.665,-0.33
86317,8072.0,7554.0,-188.0,-261.0,1392.0,1987.0,0.66,0.173,-0.659,-0.317
86329,8656.0,6508.0,596.0,-378.0,1377.0,2456.0,0.676,0.159,-0.653,-0.302
86351,6508.0,6770.0,450.0,-21.0,774.0,1862.0,0.685,0.15,-0.651,-0.29
86363,7880.0,6100.0,-334.0,-111.0,772.0,1693.0,0.695,0.141,-0.648,-0.279
86385,7450.0,6388.0,-422.0,-82.0,773.0,1656.0,0.704,0.132,-0.645,-0.267
86407,7478.0,6106.0,104.0,-66.0,680.0,1465.0,0.711,0.124,-0.642,-0.258
86419,10660.0,4272.0,1184.0,-185.0,791.0,2556.0,0.722,0.109,-0.639,-0.241
86441,7042.0,5716.0,388.0,-76.0,156.0,-65.0,0.723,0.109,-0.638,-0.242
86453,7666.0,5270.0,154.0,-161.0,329.0,731.0,0.727,0.105,-0.636,-0.238
86475,6974.0,6228.0,-92.0,-199.0,119.0,418.0,0.728,0.101,-0.635,-0.236
86487,7522.0,5524.0,-138.0,-161.0,50.0,426.0,0.73,0.097,-0.635,-0.234
86509,7582.0,6996.0,318.0,-178.0,-110.0,-111.0,0.729,0.096,-0.635,-0.237
86521,6382.0,6636.0,46.0,-145.0,-180.0,26.0,0.728,0.095,-0.636,-0.237
86543,6992.0,6108.0,-50.0,-140.0,-326.0,-175.0,0.726,0.094,-0.638,-0.24
86555,6812.0,6568.0,-142.0,-225.0,-434.0,-489.0,0.722,0.094,-0.64,-0.245
86577,6752.0,6036.0,-66.0,-223.0,-548.0,-719.0,0.717,0.095,-0.643,-0.252
86599,6878.0,6680.0,-234.0,-152.0,-605.0,-628.0,0.712,0.096,-0.646,-0.258
86611,6624.0,6844.0,-280.0,-90.0,-783.0,-994.0,0.705,0.1,-0.65,-0.266
86633,7038.0,6822.0,-306.0,11.0,-968.0,-1405.0,0.696,0.106,-0.655,-0.276
86645,7354.0,7042.0,-436.0,56.0,-1097.0,-1597.0,0.685,0.113,-0.66,-0.287
86667,7556.0,6936.0,-654.0,77.0,-1132.0,-1748.0,0.673,0.121,-0.666,-0.299
86679,7650.0,7790.0,-750.0,135.0,-1244.0,-1983.0,0.659,0.131,-0.672,-0.312
86701,8226.0,7634.0,-368.0,109.0,-1424.0,-2293.0,0.643,0.141,-0.678,-0.327
86713,8348.0,7662.0,-550.0,97.0,-1613.0,-2510.0,0.625,0.153,-0.684,-0.344
86735,8100.0,8226.0,-1228.0,74.0,-1780.0,-2645.0,0.605,0.164,-0.691,-0.361
86757,8048.0,8154.0,-2058.0,138.0,-1911.0,-2854.0,0.582,0.177,-0.697,-0.379
86769,7962.0,8580.0,-1056.0,198.0,-2089.0,-3021.0,0.557,0.19,-0.704,-0.397
86791,8362.0,8754.0,-1148.0,175.0,-2232.0,-3169.0,0.53,0.204,-0.71,-0.416
86803,7490.0,8618.0,-1700.0,210.0,-2269.0,-3209.0,0.502,0.217,-0.715,-0.435
86825,7176.0,8446.0,-2334.0,258.0,-2238.0,-3275.0,0.473,0.231,-0.72,-0.452
86837,6912.0,9096.0,-2716.0,358.0,-2174.0,-3328.0,0.444,0.246,-0.723,-0.469
86859,6818.0,8976.0,-2944.0,590.0,-2109.0,-3383.0,0.413,0.262,-0.726,-0.483
86871,6568.0,8224.0,-1436.0,644.0,-2247.0,-3435.0,0.381,0.278,-0.729,-0.497
86893,5442.0,9098.0,-1718.0,603.0,-2333.0,-3456.0,0.347,0.292,-0.73,-0.511
86915,4650.0,8152.0,-2258.0,555.0,-2351.0,-3421.0,0.313,0.306,-0.73,-0.524
86927,3500.0,7954.0,-2430.0,580.0,-2354.0,-3317.0,0.279,0.319,-0.73,-0.536
86949,2850.0,8036.0,-2096.0,646.0,-2385.0,-3198.0,0.245,0.33,-0.73,-0.547
86961,2976.0,8404.0,-2460.0,553.0,-2382.0,-3105.0,0.211,0.34,-0.728,-0.557
86983,1774.0,6290.0,-2304.0,497.0,-2324.0,-3012.0,0.178,0.349,-0.725,-0.566
86995,1690.0,6930.0,-1762.0,558.0,-2321.0,-2897.0,0.145,0.357,-0.722,-0.575
87017,896.0,6830.0,-2322.0,506.0,-2279.0,-2738.0,0.114,0.364,-0.718,-0.582
87029,-216.0,6338.0,-1908.0,669.0,-2298.0,-2638.0,0.082,0.37,-0.715,-0.588
87051,162.0,5752.0,-1112.0,541.0,-2313.0,-2653.0,0.05,0.375,-0.71,-0.594
87063,-176.0,7000.0,-1102.0,501.0,-2275.0,-2377.0,0.02,0.378,-0.705,-0.6
87085,-1172.0,5420.0,-1276.0,514.0,-2132.0,-2299.0,0.009,-0.381,0.7,0.604
87107,-1532.0,5092.0,-1566.0,572.0,-2152.0,-2219.0,0.037,-0.383,0.695,0.607
87119,-1754.0,4642.0,-1256.0,700.0,-2138.0,-1928.0,0.065,-0.383,0.691,0.61
87141,-2294.0,4600.0,-450.0,695.0,-2034.0,-1683.0,0.09,-0.382,0.687,0.611
87153,-2624.0,2958.0,292.0,689.0,-1925.0,-1543.0,0.114,-0.38,0.684,0.612
87175,-3454.0,2878.0,334.0,808.0,-1857.0,-1418.0,0.136,-0.378,0.681,0.612
87187,-3780.0,3142.0,298.0,883.0,-1779.0,-1290.0,0.158,-0.374,0.68,0.611
87209,-4220.0,3106.0,256.0,504.0,-1607.0,-1021.0,0.176,-0.371,0.676,0.612
87221,-4446.0,2972.0,1384.0,-72.0,-1325.0,-843.0,0.189,-0.369,0.671,0.615
87243,-4674.0,1110.0,1944.0,186.0,-1090.0,-920.0,0.202,-0.368,0.667,0.616
87265,-4380.0,2842.0,2276.0,61.0,-721.0,-800.0,0.211,-0.369,0.663,0.617
87277,-4402.0,2038.0,2190.0,-140.0,-282.0,-492.0,0.215,-0.37,0.66,0.617
87299,-4148.0,1804.0,2302.0,-9.0,73.0,-205.0,0.216,-0.372,0.659,0.617
87311,-4146.0,2028.0,2060.0,-71.0,486.0,190.0,0.211,-0.374,0.661,0.616
87333,-4248.0,1302.0,1452.0,-194.0,886.0,595.0,0.202,-0.375,0.663,0.615
87345,-4376.0,1498.0,1164.0,-65.0,1225.0,845.0,0.189,-0.377,0.668,0.613
87367,-4232.0,2168.0,974.0,-60.0,1571.0,927.0,0.174,-0.38,0.674,0.609
87379,-3782.0,2278.0,730.0,53.0,1857.0,1291.0,0.155,-0.383,0.682,0.604
87401,-4062.0,3138.0,386.0,-97.0,2125.0,1468.0,0.133,-0.385,0.689,0.599
87413,-3734.0,3156.0,-636.0,46.0,2257.0,1644.0,0.11,-0.387,0.698,0.593
87435,-3640.0,3146.0,68.0,99.0,2407.0,1707.0,0.085,-0.388,0.707,0.585
87457,-3406.0,4340.0,-34.0,-127.0,2593.0,1770.0,0.058,-0.391,0.715,0.577
87469,-2690.0,3684.0,-924.0,-520.0,2691.0,1852.0,0.029,-0.393,0.72,0.572
87491,-2122.0,5574.0,-3768.0,-444.0,2791.0,2300.0,0.004,0.392,-0.726,-0.565
87503,-2348.0,4562.0,-4256.0,-146.0,2836.0,2456.0,0.036,0.39,-0.734,-0.555
87525,-3528.0,3692.0,-1298.0,32.0,2837.0,2367.0,0.068,0.388,-0.742,-0.543
87537,-738.0,6750.0,-2186.0,-362.0,3005.0,1750.0,0.099,0.39,-0.744,-0.534
87559,-46.0,4906.0,-1748.0,-843.0,2785.0,2478.0,0.133,0.385,-0.746,-0.527
87581,1158.0,5348.0,-2372.0,-448.0,2902.0,2771.0,0.168,0.379,-0.75,-0.516
87593,2268.0,3572.0,-618.0,-366.0,3004.0,2965.0,0.204,0.372,-0.753,-0.503
87615,5008.0,8370.0,-1912.0,-461.0,3060.0,2581.0,0.239,0.367,-0.754,-0.49
87627,4660.0,8842.0,-3312.0,-501.0,3030.0,2876.0,0.275,0.359,-0.754,-0.476
87649,4822.0,8366.0,-2516.0,-361.0,2968.0,2750.0,0.309,0.351,-0.753,-0.462
87661,6392.0,7984.0,-3158.0,-696.0,2856.0,2835.0,0.343,0.341,-0.751,-0.449
87683,6312.0,7352.0,-4442.0,-973.0,2739.0,3020.0,0.378,0.328,-0.747,-0.437
87695,6410.0,9432.0,-3320.0,-932.0,2675.0,3060.0,0.411,0.314,-0.743,-0.424
87717,8888.0,7660.0,-3978.0,-666.0,2753.0,2886.0,0.443,0.302,-0.738,-0.41
87729,8912.0,10702.0,-2652.0,-834.0,2721.0,3066.0,0.476,0.287,-0.732,-0.395
87751,7042.0,8328.0,-2524.0,-946.0,2252.0,3119.0,0.505,0.27,-0.726,-0.381
87763,7446.0,7312.0,-2322.0,-1065.0,1903.0,3007.0,0.531,0.251,-0.721,-0.37
87785,7916.0,7948.0,-954.0,-1104.0,1842.0,2749.0,0.555,0.233,-0.714,-0.359
87807,8326.0,8056.0,-3494.0,-942.0,2153.0,2748.0,0.58,0.216,-0.705,-0.347
87819,7102.0,7966.0,-2552.0,-737.0,2204.0,2831.0,0.604,0.201,-0.696,-0.332
87841,7336.0,8326.0,-1000.0,-697.0,2072.0,2709.0,0.627,0.185,-0.687,-0.317
87853,8984.0,6474.0,826.0,-767.0,1814.0,2677.0,0.648,0.168,-0.679,-0.303
87875,8774.0,5474.0,258.0,-749.0,1666.0,2674.0,0.666,0.151,-0.67,-0.289
87887,8324.0,6596.0,-980.0,-540.0,1567.0,2704.0,0.684,0.135,-0.663,-0.274
87909,8326.0,6638.0,-488.0,-321.0,1373.0,2339.0,0.698,0.122,-0.656,-0.259
87921,8240.0,5936.0,202.0,-255.0,1170.0,1909.0,0.71,0.111,-0.65,-0.247
87943,8718.0,5872.0,214.0,-286.0,986.0,1602.0,0.72,0.101,-0.644,-0.238
87965,9318.0,4812.0,-702.0,-296.0,989.0,1395.0,0.729,0.093,-0.638,-0.229
87977,6686.0,6182.0,-542.0,-94.0,580.0,562.0,0.734,0.09,-0.634,-0.226
87999,8512.0,4716.0,-460.0,-122.0,642.0,905.0,0.739,0.085,-0.631,-0.22
88011,7550.0,5986.0,-246.0,-263.0,451.0,782.0,0.744,0.079,-0.627,-0.216
88033,8596.0,4422.0,640.0,-297.0,259.0,825.0,0.747,0.073,-0.626,-0.212
88045,7300.0,5448.0,-290.0,-238.0,54.0,232.0,0.748,0.07,-0.625,-0.212
88067,7080.0,5236.0,-502.0,-85.0,-11.0,22.0,0.748,0.069,-0.625,-0.213
88079,6880.0,5444.0,-516.0,-103.0,-119.0,-31.0,0.746,0.069,-0.626,-0.214
88101,6154.0,6386.0,-82.0,-367.0,-97.0,-220.0,0.745,0.068,-0.626,-0.219
88123,7430.0,5084.0,214.0,-429.0,-348.0,-294.0,0.742,0.066,-0.628,-0.224
88135,7072.0,6340.0,-460.0,-219.0,-439.0,-479.0,0.739,0.066,-0.63,-0.229
88157,6952.0,5592.0,-790.0,13.0,-706.0,-806.0,0.733,0.07,-0.635,-0.235
88169,7176.0,6244.0,-262.0,198.0,-1094.0,-1232.0,0.723,0.076,-0.642,-0.243
88191,7378.0,6672.0,-516.0,-7.0,-1098.0,-1417.0,0.713,0.082,-0.648,-0.254
88203,8132.0,6370.0,-48.0,125.0,-1445.0,-1916.0,0.7,0.091,-0.657,-0.267
88230,8044.0,7198.0,-380.0,311.0,-1682.0,-2367.0,0.683,0.103,-0.666,-0.282
88242,8524.0,7386.0,-696.0,157.0,-1665.0,-2251.0,0.666,0.113,-0.675,-0.297
88264,8098.0,8182.0,-1476.0,249.0,-1770.0,-2415.0,0.648,0.125,-0.684,-0.312
88276,8904.0,7516.0,-598.0,237.0,-1967.0,-2636.0,0.627,0.138,-0.693,-0.328
88298,8828.0,8576.0,-598.0,96.0,-2175.0,-2812.0,0.604,0.15,-0.702,-0.347
88310,8984.0,8412.0,-1154.0,-28.0,-2363.0,-3037.0,0.578,0.162,-0.71,-0.367
88332,8506.0,8632.0,-1778.0,3.0,-2434.0,-3159.0,0.551,0.174,-0.718,-0.387
88344,8480.0,8748.0,-1924.0,96.0,-2454.0,-3399.0,0.522,0.189,-0.725,-0.408
88366,8232.0,8338.0,-1946.0,111.0,-2473.0,-3492.0,0.491,0.204,-0.731,-0.428
88378,7844.0,9066.0,-2032.0,240.0,-2490.0,-3493.0,0.46,0.219,-0.736,-0.446
88400,7508.0,8368.0,-1856.0,271.0,-2498.0,-3432.0,0.428,0.233,-0.74,-0.464
88422,6870.0,8862.0,-1804.0,321.0,-2507.0,-3386.0,0.395,0.247,-0.743,-0.48
88434,6094.0,7856.0,-2012.0,193.0,-2512.0,-3283.0,0.362,0.259,-0.745,-0.496
88456,5466.0,8150.0,-2390.0,223.0,-2445.0,-3183.0,0.33,0.271,-0.746,-0.511
88468,4882.0,8004.0,-2548.0,148.0,-2431.0,-3066.0,0.298,0.281,-0.746,-0.525
88490,4492.0,6868.0,-1950.0,-15.0,-2471.0,-3014.0,0.266,0.289,-0.745,-0.539
88502,3532.0,7692.0,-1498.0,-15.0,-2435.0,-2907.0,0.236,0.297,-0.742,-0.553
88524,3908.0,8300.0,-2770.0,173.0,-2286.0,-2912.0,0.204,0.305,-0.74,-0.564
88536,2360.0,5272.0,-1630.0,130.0,-2322.0,-2812.0,0.173,0.313,-0.736,-0.574
88558,1978.0,7084.0,-1468.0,152.0,-2250.0,-2682.0,0.143,0.319,-0.733,-0.584
88570,1062.0,6472.0,-1400.0,1.0,-2169.0,-2554.0,0.115,0.324,-0.728,-0.593
88592,674.0,6444.0,-2394.0,50.0,-2020.0,-2463.0,0.087,0.33,-0.722,-0.602
88604,14.0,5922.0,-1310.0,121.0,-1966.0,-2253.0,0.061,0.334,-0.717,-0.608
88626,288.0,6028.0,-854.0,209.0,-1900.0,-2105.0,0.036,0.337,-0.713,-0.614
88648,-844.0,5366.0,-1340.0,191.0,-1797.0,-2078.0,0.011,0.341,-0.708,-0.619
88660,-1784.0,4856.0,-1760.0,333.0,-1737.0,-1866.0,0.012,-0.343,0.704,0.622
88682,-1706.0,4298.0,-916.0,393.0,-1726.0,-1751.0,0.035,-0.345,0.7,0.625
88694,-1572.0,6058.0,-1412.0,383.0,-1668.0,-1502.0,0.056,-0.344,0.697,0.627
88716,-2234.0,4012.0,-256.0,322.0,-1550.0,-1508.0,0.076,-0.345,0.693,0.629
88728,-2202.0,4470.0,-1078.0,395.0,-1464.0,-1485.0,0.095,-0.346,0.689,0.63
88750,-3048.0,3570.0,-1046.0,555.0,-1431.0,-1435.0,0.114,-0.346,0.686,0.63
88762,-3526.0,2896.0,68.0,517.0,-1346.0,-1327.0,0.133,-0.346,0.683,0.629
88784,-3692.0,3188.0,442.0,352.0,-1196.0,-1200.0,0.148,-0.346,0.68,0.629
88806,-4240.0,3194.0,930.0,235.0,-1001.0,-956.0,0.161,-0.346,0.677,0.629
88818,-4430.0,2178.0,874.0,76.0,-768.0,-823.0,0.171,-0.346,0.674,0.63
88840,-5004.0,3360.0,34.0,-106.0,-542.0,-516.0,0.177,-0.347,0.67,0.632
88852,-4718.0,2808.0,866.0,-190.0,-325.0,-305.0,0.18,-0.347,0.668,0.634
88874,-3964.0,2238.0,1692.0,-77.0,-45.0,-299.0,0.182,-0.348,0.666,0.634
88886,-4500.0,1364.0,2240.0,89.0,291.0,-130.0,0.181,-0.351,0.667,0.632
88908,-4394.0,2200.0,2452.0,-4.0,728.0,217.0,0.176,-0.354,0.669,0.63
88920,-4220.0,2096.0,1330.0,45.0,1156.0,704.0,0.165,-0.356,0.673,0.627
88942,-4454.0,2212.0,1534.0,230.0,1453.0,1030.0,0.15,-0.357,0.68,0.622
88954,-4250.0,2888.0,1022.0,317.0,1682.0,1255.0,0.133,-0.358,0.689,0.616
88977,-4138.0,2426.0,528.0,292.0,1871.0,1415.0,0.114,-0.36,0.697,0.609
88989,-3358.0,3836.0,104.0,361.0,2041.0,1629.0,0.093,-0.36,0.707,0.602
89012,-3146.0,3890.0,-74.0,394.0,2219.0,1806.0,0.07,-0.36,0.717,0.593
89034,-2664.0,4674.0,-936.0,282.0,2372.0,1970.0,0.044,-0.359,0.726,0.584
89046,-2674.0,3754.0,-332.0,24.0,2491.0,2103.0,0.016,-0.358,0.734,0.576
89068,-1190.0,6058.0,-3490.0,-195.0,2633.0,2114.0,0.014,0.357,-0.74,-0.569
89080,-1356.0,4636.0,-1706.0,-58.0,2749.0,2344.0,0.045,0.355,-0.747,-0.56
89102,-342.0,6780.0,-2740.0,-211.0,2777.0,2030.0,0.076,0.355,-0.751,-0.551
89114,-172.0,4310.0,-1806.0,-600.0,2815.0,2016.0,0.108,0.355,-0.753,-0.544
89136,1282.0,8242.0,-3080.0,-555.0,2755.0,2449.0,0.141,0.35,-0.755,-0.536
89148,940.0,7368.0,-5516.0,-695.0,2802.0,2528.0,0.176,0.345,-0.756,-0.528
89170,1424.0,7742.0,-3438.0,-552.0,2753.0,2610.0,0.21,0.339,-0.757,-0.518
89192,2008.0,8062.0,-2316.0,-559.0,2569.0,2446.0,0.242,0.332,-0.756,-0.509
89204,3444.0,7256.0,-2186.0,-816.0,2425.0,2373.0,0.273,0.324,-0.754,-0.502
89226,3988.0,8636.0,-2754.0,-787.0,2375.0,2682.0,0.304,0.314,-0.752,-0.493
89238,3796.0,8660.0,-3034.0,-631.0,2411.0,2710.0,0.335,0.304,-0.75,-0.482
89260,5098.0,9120.0,-2806.0,-697.0,2355.0,2650.0,0.365,0.294,-0.747,-0.472
89272,5366.0,8484.0,-2078.0,-693.0,2205.0,2668.0,0.394,0.282,-0.743,-0.462
89294,6122.0,9548.0,-3228.0,-738.0,2125.0,2639.0,0.422,0.27,-0.739,-0.451
89306,6262.0,8286.0,-1918.0,-882.0,1965.0,2719.0,0.449,0.256,-0.734,-0.442
89328,6758.0,9918.0,-2004.0,-752.0,1900.0,2592.0,0.474,0.243,-0.729,-0.431
89350,6556.0,7736.0,-2894.0,-817.0,1801.0,2544.0,0.498,0.229,-0.723,-0.421
89362,6282.0,7762.0,-1630.0,-775.0,1682.0,2543.0,0.521,0.214,-0.717,-0.411
89384,6928.0,8226.0,-1784.0,-850.0,1605.0,2474.0,0.542,0.2,-0.711,-0.401
89396,6232.0,7488.0,-676.0,-819.0,1577.0,2513.0,0.563,0.185,-0.704,-0.391
89418,6680.0,7028.0,-750.0,-828.0,1525.0,2482.0,0.583,0.169,-0.697,-0.381
89430,6680.0,7740.0,-2026.0,-740.0,1537.0,2487.0,0.603,0.154,-0.69,-0.37
89452,6810.0,6310.0,-464.0,-690.0,1487.0,2416.0,0.622,0.14,-0.682,-0.358
89464,5308.0,5702.0,-1248.0,-594.0,1489.0,1868.0,0.638,0.13,-0.674,-0.349
89486,7464.0,5280.0,-26.0,-912.0,1253.0,2114.0,0.653,0.115,-0.666,-0.341
89508,6836.0,6268.0,-42.0,-828.0,1077.0,1799.0,0.666,0.102,-0.659,-0.334
89520,7594.0,6160.0,158.0,-802.0,1087.0,1862.0,0.679,0.088,-0.651,-0.327
89532,7300.0,6290.0,444.0,-696.0,947.0,1578.0,0.69,0.077,-0.644,-0.32
89555,7496.0,5768.0,862.0,-660.0,819.0,1539.0,0.7,0.066,-0.638,-0.314
89577,8000.0,5398.0,772.0,-643.0,641.0,1340.0,0.708,0.055,-0.633,-0.309
89589,8298.0,6304.0,1018.0,-736.0,632.0,1429.0,0.716,0.044,-0.627,-0.304
89611,7332.0,3874.0,-84.0,-229.0,223.0,1176.0,0.72,0.036,-0.626,-0.297
89623,8546.0,5550.0,494.0,-307.0,41.0,878.0,0.723,0.028,-0.625,-0.293
89645,4772.0,5850.0,-522.0,-324.0,221.0,381.0,0.725,0.025,-0.623,-0.293
89657,9748.0,4760.0,480.0,-314.0,-273.0,-329.0,0.722,0.024,-0.624,-0.297
89679,5798.0,6896.0,-272.0,-131.0,-290.0,2.0,0.721,0.022,-0.625,-0.298
89691,8192.0,5708.0,140.0,-195.0,-355.0,-94.0,0.718,0.02,-0.627,-0.3
89713,7808.0,6316.0,490.0,-69.0,-398.0,-269.0,0.715,0.02,-0.63,-0.303
89725,7142.0,6374.0,402.0,-38.0,-489.0,-571.0,0.711,0.022,-0.633,-0.307
89747,6778.0,6402.0,584.0,89.0,-560.0,-906.0,0.705,0.026,-0.636,-0.313
89769,6928.0,6200.0,538.0,117.0,-756.0,-1218.0,0.696,0.032,-0.641,-0.32
89781,6868.0,6578.0,198.0,202.0,-844.0,-1429.0,0.687,0.039,-0.647,-0.329
89803,7054.0,7160.0,-68.0,312.0,-980.0,-1682.0,0.676,0.048,-0.654,-0.338
89815,7412.0,6930.0,-154.0,396.0,-1164.0,-2001.0,0.662,0.059,-0.661,-0.349
89837,7928.0,7064.0,-224.0,346.0,-1307.0,-2145.0,0.646,0.07,-0.669,-0.36
89849,8312.0,7634.0,-944.0,452.0,-1405.0,-2329.0,0.629,0.082,-0.677,-0.372
89871,8814.0,7364.0,-602.0,523.0,-1545.0,-2567.0,0.61,0.096,-0.686,-0.385
89883,8778.0,7710.0,-1004.0,549.0,-1669.0,-2812.0,0.588,0.111,-0.694,-0.399
89905,8582.0,8378.0,-1148.0,563.0,-1749.0,-2983.0,0.565,0.127,-0.703,-0.413
89927,8476.0,7936.0,-1172.0,505.0,-1848.0,-3155.0,0.54,0.144,-0.71,-0.428
89939,8162.0,8278.0,-1936.0,484.0,-1925.0,-3297.0,0.513,0.16,-0.717,-0.444
89961,8094.0,8274.0,-1436.0,531.0,-2001.0,-3403.0,0.485,0.177,-0.723,-0.459
89973,8192.0,9018.0,-780.0,542.0,-2028.0,-3529.0,0.455,0.195,-0.728,-0.474
89995,7484.0,8624.0,-808.0,543.0,-2048.0,-3565.0,0.424,0.213,-0.732,-0.489
90007,6316.0,8848.0,-1318.0,526.0,-2059.0,-3510.0,0.393,0.229,-0.735,-0.503
90029,5576.0,8264.0,-1124.0,379.0,-2116.0,-3437.0,0.361,0.244,-0.737,-0.517
90051,4876.0,8882.0,-1320.0,450.0,-2097.0,-3318.0,0.33,0.259,-0.738,-0.529
90063,4620.0,8050.0,-1286.0,454.0,-2058.0,-3233.0,0.298,0.272,-0.738,-0.541
90075,3932.0,8146.0,-1428.0,364.0,-2027.0,-3098.0,0.268,0.284,-0.737,-0.552
90098,3172.0,7600.0,-1786.0,239.0,-2015.0,-3007.0,0.238,0.295,-0.735,-0.562
90110,2870.0,8230.0,-2116.0,320.0,-1978.0,-2936.0,0.209,0.305,-0.733,-0.572
90133,2900.0,8164.0,-2122.0,168.0,-2036.0,-2896.0,0.18,0.314,-0.729,-0.581
90145,2466.0,5996.0,-1370.0,46.0,-1962.0,-2945.0,0.151,0.323,-0.723,-0.591
90168,1258.0,6394.0,-514.0,-11.0,-1914.0,-2839.0,0.122,0.332,-0.717,-0.601
90190,-242.0,6246.0,-832.0,-4.0,-1819.0,-2682.0,0.095,0.339,-0.711,-0.609
90202,-1174.0,6198.0,-1470.0,41.0,-1751.0,-2521.0,0.069,0.346,-0.704,-0.616
90224,-1252.0,6778.0,-1482.0,148.0,-1769.0,-2314.0,0.043,0.351,-0.698,-0.622
90241,-1382.0,4928.0,-530.0,98.0,-1643.0,-2387.0,0.019,0.357,-0.691,-0.628
90253,-1418.0,6166.0,-1316.0,181.0,-1617.0,-2219.0,0.006,-0.362,0.685,0.632
90275,-1792.0,5558.0,-2008.0,301.0,-1638.0,-1968.0,0.029,-0.364,0.68,0.636
90287,-2214.0,4024.0,-168.0,195.0,-1677.0,-1855.0,0.051,-0.366,0.674,0.639
90309,-2334.0,5336.0,-468.0,95.0,-1485.0,-1837.0,0.072,-0.368,0.668,0.643
90321,-2976.0,4174.0,390.0,138.0,-1392.0,-1749.0,0.091,-0.371,0.662,0.645
90343,-3478.0,4432.0,1516.0,202.0,-1221.0,-1826.0,0.111,-0.374,0.655,0.647
90365,-3982.0,3864.0,2956.0,80.0,-1009.0,-1702.0,0.127,-0.378,0.649,0.648
90377,-5156.0,1352.0,-1702.0,-62.0,-884.0,-1552.0,0.142,-0.382,0.642,0.649
90399,-5438.0,2202.0,84.0,181.0,-779.0,-1298.0,0.155,-0.385,0.637,0.649
90411,-4668.0,3086.0,1232.0,113.0,-676.0,-1320.0,0.167,-0.389,0.632,0.649
90433,-5132.0,3002.0,-28.0,-214.0,-605.0,-1117.0,0.177,-0.392,0.626,0.651
90445,-4590.0,1698.0,-42.0,-250.0,-490.0,-956.0,0.185,-0.395,0.62,0.652
90467,-4278.0,2444.0,236.0,-98.0,-386.0,-730.0,0.191,-0.397,0.616,0.653
90479,-3648.0,2086.0,394.0,48.0,-240.0,-350.0,0.195,-0.397,0.615,0.653
90501,-4190.0,1716.0,920.0,47.0,72.0,114.0,0.194,-0.397,0.616,0.653
90513,-4424.0,1720.0,1306.0,-144.0,408.0,518.0,0.188,-0.396,0.617,0.653
90535,-4516.0,1722.0,1260.0,-357.0,688.0,852.0,0.178,-0.396,0.62,0.654
90557,-4450.0,2292.0,820.0,-434.0,888.0,1075.0,0.165,-0.396,0.623,0.655
90569,-4348.0,2230.0,466.0,-471.0,1024.0,1291.0,0.15,-0.395,0.626,0.655
90591,-4704.0,2554.0,406.0,-428.0,1187.0,1550.0,0.132,-0.394,0.631,0.656
90603,-4246.0,2772.0,158.0,-337.0,1302.0,1758.0,0.112,-0.391,0.637,0.655
90625,-4344.0,3096.0,270.0,-115.0,1495.0,2036.0,0.091,-0.388,0.645,0.652
90637,-3652.0,4556.0,-616.0,58.0,1640.0,2236.0,0.068,-0.384,0.655,0.647
90659,-3788.0,3868.0,-724.0,214.0,1832.0,2426.0,0.043,-0.38,0.666,0.641
90671,-3678.0,4898.0,206.0,318.0,2032.0,2535.0,0.017,-0.375,0.678,0.632
90693,-3170.0,4038.0,550.0,86.0,2143.0,2449.0,0.011,0.372,-0.687,-0.624
90715,-1892.0,5436.0,-132.0,-189.0,2297.0,2589.0,0.041,0.368,-0.694,-0.617
90727,-862.0,6924.0,-2276.0,-117.0,2385.0,2579.0,0.071,0.365,-0.701,-0.608
90749,-676.0,4190.0,-46.0,18.0,2562.0,2695.0,0.103,0.361,-0.709,-0.597
90761,456.0,8252.0,-1090.0,290.0,2595.0,2469.0,0.133,0.359,-0.716,-0.584
90783,858.0,6402.0,-1414.0,-163.0,2553.0,2782.0,0.166,0.354,-0.721,-0.573
90795,1764.0,7598.0,62.0,-445.0,2462.0,2929.0,0.2,0.346,-0.724,-0.563
90817,3186.0,10292.0,-3978.0,-233.0,2375.0,2790.0,0.231,0.338,-0.727,-0.552
90839,2734.0,8258.0,-3878.0,-44.0,2247.0,2836.0,0.26,0.33,-0.73,-0.538
90851,3062.0,8078.0,-2800.0,-144.0,2041.0,2479.0,0.287,0.323,-0.732,-0.527
90873,4314.0,9242.0,-4402.0,-446.0,1958.0,2531.0,0.314,0.314,-0.732,-0.517
90885,4766.0,9494.0,-4808.0,-512.0,1952.0,2536.0,0.341,0.304,-0.731,-0.507
90907,4872.0,9444.0,-3562.0,-317.0,1953.0,2525.0,0.366,0.295,-0.73,-0.496
90919,5352.0,9114.0,-2626.0,-305.0,1936.0,2463.0,0.392,0.285,-0.729,-0.484
90941,5450.0,8346.0,-852.0,-631.0,1735.0,2449.0,0.416,0.274,-0.726,-0.475
90953,5680.0,8128.0,-2360.0,-858.0,1613.0,2538.0,0.44,0.26,-0.722,-0.467
90975,5586.0,9408.0,-2666.0,-694.0,1643.0,2618.0,0.464,0.247,-0.718,-0.456
90987,6000.0,8200.0,-1944.0,-507.0,1639.0,2604.0,0.487,0.234,-0.715,-0.445
91009,6324.0,8752.0,-938.0,-450.0,1515.0,2563.0,0.508,0.221,-0.711,-0.433
91021,6588.0,7214.0,-284.0,-640.0,1347.0,2458.0,0.528,0.207,-0.707,-0.422
91043,6810.0,7726.0,-830.0,-725.0,1303.0,2379.0,0.547,0.192,-0.702,-0.413
91065,6262.0,7386.0,-1080.0,-594.0,1348.0,2370.0,0.566,0.179,-0.697,-0.402
91077,6354.0,7660.0,-1934.0,-334.0,1381.0,2336.0,0.584,0.167,-0.692,-0.39
91099,6480.0,6616.0,210.0,-254.0,1315.0,2290.0,0.601,0.155,-0.688,-0.377
91111,7066.0,7268.0,634.0,-276.0,1246.0,2148.0,0.616,0.144,-0.683,-0.365
91133,7100.0,6240.0,-40.0,-362.0,1170.0,2064.0,0.631,0.133,-0.677,-0.354
91145,7012.0,6430.0,186.0,-372.0,1110.0,1957.0,0.645,0.122,-0.672,-0.343
91167,7164.0,6178.0,136.0,-339.0,1053.0,1890.0,0.658,0.111,-0.666,-0.333
91189,7236.0,6316.0,286.0,-341.0,976.0,1858.0,0.67,0.1,-0.661,-0.323
91201,7610.0,6140.0,82.0,-289.0,888.0,1775.0,0.681,0.09,-0.656,-0.313
91223,8754.0,7008.0,252.0,-197.0,797.0,1688.0,0.69,0.08,-0.652,-0.303
91235,7450.0,6956.0,558.0,-196.0,634.0,845.0,0.697,0.076,-0.648,-0.298
91257,7790.0,6106.0,-816.0,-293.0,746.0,1376.0,0.705,0.067,-0.643,-0.291
91269,7938.0,5886.0,-656.0,-324.0,486.0,961.0,0.711,0.06,-0.64,-0.286
91291,7670.0,6644.0,-494.0,-420.0,307.0,753.0,0.715,0.054,-0.637,-0.284
91303,7680.0,6130.0,160.0,-370.0,140.0,491.0,0.717,0.049,-0.635,-0.283
91325,7744.0,5466.0,668.0,-268.0,-50.0,247.0,0.717,0.045,-0.635,-0.283
91337,7548.0,5734.0,278.0,-234.0,-196.0,87.0,0.716,0.042,-0.636,-0.284
91359,6962.0,5264.0,-176.0,-181.0,-315.0,-243.0,0.714,0.042,-0.638,-0.287
91381,6922.0,6304.0,-496.0,-103.0,-396.0,-506.0,0.71,0.043,-0.64,-0.291
91393,6638.0,6160.0,8.0,-127.0,-555.0,-812.0,0.704,0.045,-0.643,-0.298
91415,6446.0,6722.0,-36.0,-42.0,-542.0,-1028.0,0.698,0.05,-0.646,-0.305
91427,6652.0,6364.0,-272.0,-24.0,-719.0,-1321.0,0.69,0.055,-0.65,-0.314
91449,6570.0,6688.0,-522.0,132.0,-761.0,-1503.0,0.681,0.063,-0.654,-0.324
91461,6686.0,7378.0,-640.0,173.0,-822.0,-1954.0,0.669,0.073,-0.659,-0.335
91483,7344.0,6842.0,-358.0,297.0,-988.0,-2289.0,0.656,0.086,-0.664,-0.349
91495,7286.0,7374.0,-388.0,389.0,-1107.0,-2466.0,0.64,0.1,-0.67,-0.362
91517,7562.0,7956.0,-696.0,415.0,-1209.0,-2518.0,0.624,0.114,-0.676,-0.375
91539,7928.0,8026.0,-470.0,450.0,-1348.0,-2729.0,0.605,0.129,-0.682,-0.39
91551,8000.0,8472.0,-910.0,352.0,-1507.0,-2841.0,0.584,0.144,-0.688,-0.405
91573,8310.0,9066.0,-1808.0,454.0,-1580.0,-2964.0,0.562,0.16,-0.694,-0.42
91585,8550.0,9022.0,-1422.0,649.0,-1671.0,-3133.0,0.538,0.177,-0.7,-0.435
91607,8334.0,9074.0,-902.0,645.0,-1835.0,-3284.0,0.511,0.194,-0.706,-0.449
91619,7570.0,9012.0,-1246.0,457.0,-1997.0,-3361.0,0.483,0.21,-0.711,-0.466
91641,6652.0,8930.0,-1746.0,483.0,-2014.0,-3339.0,0.454,0.226,-0.715,-0.481
91653,6254.0,9210.0,-1884.0,634.0,-1983.0,-3335.0,0.424,0.242,-0.719,-0.495
91675,5670.0,8592.0,-1322.0,683.0,-2018.0,-3262.0,0.394,0.257,-0.722,-0.507
91697,5204.0,8592.0,-1114.0,679.0,-2108.0,-3180.0,0.363,0.271,-0.725,-0.519
91709,4400.0,7968.0,-828.0,513.0,-2199.0,-3066.0,0.332,0.283,-0.727,-0.531
91731,3636.0,7826.0,-1788.0,424.0,-2183.0,-2928.0,0.302,0.293,-0.727,-0.542
91743,2988.0,8070.0,-708.0,419.0,-2213.0,-2769.0,0.272,0.301,-0.728,-0.553
91765,3136.0,8434.0,-1074.0,341.0,-2206.0,-2686.0,0.242,0.309,-0.727,-0.563
91777,2918.0,7542.0,-2584.0,384.0,-2145.0,-2646.0,0.214,0.316,-0.726,-0.572
91799,1908.0,5580.0,-2528.0,387.0,-2118.0,-2582.0,0.184,0.323,-0.724,-0.581
91811,2102.0,7576.0,-1580.0,213.0,-2147.0,-2457.0,0.157,0.328,-0.722,-0.589
91833,1130.0,6166.0,-3336.0,145.0,-2041.0,-2463.0,0.129,0.333,-0.717,-0.598
91855,674.0,6562.0,-1934.0,514.0,-2040.0,-2361.0,0.1,0.338,-0.715,-0.603
91867,680.0,6692.0,-1982.0,557.0,-2054.0,-2403.0,0.071,0.343,-0.712,-0.608
91889,-220.0,6780.0,-1948.0,519.0,-2133.0,-2197.0,0.043,0.346,-0.709,-0.613
91901,-198.0,5642.0,-1926.0,383.0,-2143.0,-2204.0,0.015,0.348,-0.705,-0.618
91923,-766.0,6188.0,-1410.0,552.0,-2087.0,-2106.0,0.012,-0.35,0.701,0.621
91935,-1376.0,4814.0,-1520.0,562.0,-2034.0,-2026.0,0.039,-0.351,0.697,0.624
91957,-2000.0,6120.0,-1076.0,625.0,-1950.0,-1748.0,0.064,-0.351,0.694,0.625
91969,-2290.0,4650.0,-596.0,497.0,-1937.0,-1622.0,0.088,-0.35,0.69,0.627
91991,-2486.0,4630.0,-376.0,401.0,-1779.0,-1595.0,0.11,-0.349,0.686,0.629
92003,-3022.0,4182.0,-230.0,262.0,-1608.0,-1574.0,0.13,-0.35,0.681,0.631
92025,-3154.0,4076.0,-422.0,194.0,-1407.0,-1625.0,0.149,-0.351,0.675,0.632
92037,-3966.0,4020.0,78.0,103.0,-1326.0,-1448.0,0.167,-0.352,0.669,0.633
92059,-4472.0,2270.0,1564.0,175.0,-1156.0,-1366.0,0.182,-0.354,0.663,0.634
92081,-4824.0,2600.0,960.0,185.0,-961.0,-1163.0,0.196,-0.355,0.659,0.634
92093,-4924.0,2214.0,1890.0,69.0,-645.0,-918.0,0.206,-0.357,0.655,0.634
92115,-5420.0,1806.0,2070.0,43.0,-274.0,-650.0,0.211,-0.359,0.652,0.633
92127,-5108.0,1936.0,1820.0,-9.0,-28.0,-345.0,0.213,-0.361,0.651,0.633
92149,-5282.0,1580.0,2166.0,-137.0,293.0,-72.0,0.212,-0.363,0.651,0.632
92161,-5428.0,1728.0,2220.0,-183.0,616.0,183.0,0.206,-0.366,0.652,0.632
92183,-5340.0,1878.0,1660.0,-296.0,925.0,402.0,0.197,-0.369,0.653,0.631
92195,-5266.0,1866.0,1396.0,-395.0,1179.0,611.0,0.185,-0.373,0.655,0.63
92217,-5020.0,1984.0,1106.0,-421.0,1404.0,853.0,0.17,-0.377,0.658,0.629
92244,-4896.0,1632.0,746.0,-419.0,1592.0,1094.0,0.153,-0.38,0.662,0.628
92256,-4652.0,2378.0,514.0,-371.0,1743.0,1328.0,0.133,-0.382,0.667,0.626
92268,-4384.0,2346.0,246.0,-310.0,1883.0,1537.0,0.112,-0.383,0.673,0.623
92290,-3820.0,3472.0,-158.0,-168.0,2019.0,1739.0,0.088,-0.384,0.68,0.618
92302,-3528.0,3124.0,-236.0,-216.0,2162.0,1852.0,0.063,-0.385,0.687,0.613
92324,-3034.0,4080.0,-640.0,-285.0,2318.0,2024.0,0.036,-0.385,0.694,0.608
92336,-2724.0,3346.0,-276.0,-378.0,2406.0,2233.0,0.007,-0.384,0.7,0.602
92358,-1638.0,5550.0,-2358.0,-475.0,2440.0,2426.0,0.024,0.381,-0.706,-0.596
92370,-1354.0,4846.0,-576.0,-484.0,2545.0,2653.0,0.057,0.377,-0.712,-0.589
92392,-172.0,6502.0,-2082.0,-587.0,2508.0,2484.0,0.089,0.373,-0.716,-0.583
92414,260.0,5282.0,-2590.0,-586.0,2582.0,2362.0,0.121,0.371,-0.719,-0.575
92426,1856.0,7752.0,-2844.0,-313.0,2506.0,2665.0,0.154,0.365,-0.724,-0.565
92448,2000.0,6856.0,-3220.0,-462.0,2487.0,2759.0,0.187,0.358,-0.727,-0.555
92460,2726.0,8212.0,-1538.0,-284.0,2540.0,2752.0,0.22,0.351,-0.73,-0.544
92482,4332.0,8920.0,-2696.0,-458.0,2438.0,2372.0,0.249,0.346,-0.73,-0.534
92494,3754.0,7234.0,-2882.0,-659.0,2367.0,2585.0,0.281,0.338,-0.73,-0.524
92516,4122.0,9756.0,-3658.0,-448.0,2327.0,2522.0,0.31,0.331,-0.729,-0.513
92528,4578.0,8484.0,-2688.0,-493.0,2253.0,2719.0,0.339,0.321,-0.728,-0.501
92550,4950.0,9386.0,-1844.0,-477.0,2085.0,2675.0,0.367,0.311,-0.727,-0.49
92572,5324.0,8896.0,-2474.0,-738.0,1932.0,2808.0,0.395,0.298,-0.725,-0.479
92584,5644.0,8170.0,-1850.0,-885.0,1847.0,2908.0,0.423,0.283,-0.722,-0.469
92606,6040.0,9176.0,-2190.0,-684.0,1948.0,2912.0,0.45,0.269,-0.719,-0.457
92618,6122.0,9112.0,-2892.0,-637.0,1941.0,2972.0,0.477,0.254,-0.715,-0.444
92640,5802.0,9030.0,-2860.0,-948.0,1641.0,2750.0,0.501,0.238,-0.71,-0.434
92652,7886.0,8848.0,-1306.0,-840.0,1880.0,2968.0,0.527,0.222,-0.704,-0.421
92674,7358.0,8030.0,-952.0,-934.0,1749.0,2868.0,0.551,0.205,-0.697,-0.41
92686,7164.0,8004.0,-1174.0,-827.0,1744.0,2715.0,0.574,0.19,-0.69,-0.398
92708,7564.0,7784.0,-800.0,-715.0,1576.0,2386.0,0.594,0.176,-0.683,-0.387
92730,6608.0,7910.0,-690.0,-447.0,1452.0,2083.0,0.611,0.165,-0.677,-0.376
92742,7412.0,7404.0,282.0,-422.0,1237.0,1861.0,0.626,0.155,-0.671,-0.366
92764,7678.0,7490.0,-556.0,-510.0,1130.0,1936.0,0.64,0.144,-0.665,-0.356
92776,7040.0,6824.0,-482.0,-462.0,1090.0,1839.0,0.654,0.133,-0.659,-0.347
92798,7536.0,6958.0,-310.0,-457.0,1025.0,1686.0,0.666,0.123,-0.654,-0.338
92810,7174.0,6934.0,610.0,-477.0,876.0,1445.0,0.676,0.114,-0.648,-0.331
92832,6264.0,6562.0,256.0,-431.0,711.0,1214.0,0.684,0.106,-0.644,-0.326
92844,7200.0,6442.0,-146.0,-411.0,511.0,868.0,0.69,0.099,-0.64,-0.322
92866,6884.0,6568.0,-486.0,-329.0,522.0,921.0,0.696,0.093,-0.637,-0.318
92878,6946.0,5692.0,-82.0,-297.0,664.0,1173.0,0.703,0.086,-0.633,-0.312
92900,7308.0,7076.0,156.0,-528.0,429.0,1003.0,0.709,0.077,-0.629,-0.309
92922,7194.0,6020.0,-592.0,-453.0,1190.0,2395.0,0.723,0.063,-0.622,-0.295
92934,5908.0,4880.0,660.0,-168.0,534.0,2012.0,0.731,0.052,-0.619,-0.282
92956,5552.0,5732.0,108.0,-103.0,-182.0,-15.0,0.73,0.051,-0.62,-0.284
92968,7308.0,5548.0,-196.0,-107.0,212.0,429.0,0.732,0.048,-0.618,-0.282
92990,7156.0,5564.0,36.0,-102.0,-176.0,-180.0,0.73,0.048,-0.619,-0.284
93002,6896.0,5944.0,8.0,-57.0,-269.0,-326.0,0.728,0.049,-0.621,-0.287
93024,6900.0,6228.0,-280.0,-11.0,-393.0,-557.0,0.724,0.05,-0.623,-0.291
93036,6850.0,6242.0,-56.0,123.0,-544.0,-816.0,0.719,0.054,-0.627,-0.296
93058,7004.0,6176.0,-364.0,312.0,-708.0,-1154.0,0.711,0.061,-0.632,-0.303
93080,6514.0,5954.0,-774.0,508.0,-806.0,-1490.0,0.701,0.071,-0.638,-0.31
93092,6686.0,7228.0,-306.0,402.0,-868.0,-1495.0,0.691,0.08,-0.644,-0.318
93114,7398.0,6658.0,-8.0,272.0,-1006.0,-1729.0,0.68,0.089,-0.65,-0.329
93126,7132.0,7094.0,-308.0,230.0,-1124.0,-2052.0,0.666,0.099,-0.656,-0.341
93148,7402.0,6980.0,-376.0,311.0,-1230.0,-2071.0,0.651,0.11,-0.662,-0.353
93160,7388.0,7722.0,-602.0,436.0,-1275.0,-2011.0,0.636,0.121,-0.669,-0.364
93182,7556.0,7714.0,-704.0,476.0,-1410.0,-2270.0,0.619,0.133,-0.676,-0.376
93194,7490.0,7896.0,-666.0,490.0,-1536.0,-2513.0,0.6,0.146,-0.684,-0.389
93216,7592.0,7964.0,-862.0,534.0,-1642.0,-2661.0,0.579,0.16,-0.691,-0.403
93228,7602.0,8224.0,-926.0,573.0,-1744.0,-2746.0,0.556,0.175,-0.698,-0.416
93250,7588.0,8306.0,-908.0,537.0,-1846.0,-2816.0,0.532,0.189,-0.705,-0.43
93272,7390.0,8438.0,-1308.0,538.0,-1889.0,-2867.0,0.507,0.203,-0.711,-0.443
93284,7142.0,9096.0,-1864.0,593.0,-1913.0,-2855.0,0.481,0.216,-0.716,-0.456
93306,7576.0,9194.0,-1464.0,511.0,-2033.0,-2858.0,0.454,0.229,-0.722,-0.47
93318,7396.0,9154.0,-1754.0,386.0,-2203.0,-2936.0,0.426,0.241,-0.726,-0.484
93340,7264.0,8962.0,-1886.0,233.0,-2288.0,-3051.0,0.396,0.252,-0.729,-0.499
93352,6412.0,7980.0,-2360.0,145.0,-2245.0,-3101.0,0.366,0.263,-0.73,-0.514
93374,5736.0,9920.0,-1906.0,398.0,-2163.0,-3117.0,0.335,0.276,-0.731,-0.527
93386,5104.0,7972.0,-2442.0,495.0,-2138.0,-3083.0,0.304,0.288,-0.731,-0.538
93408,4206.0,8488.0,-1258.0,458.0,-2220.0,-2984.0,0.272,0.298,-0.731,-0.549
93430,3984.0,8764.0,-2268.0,478.0,-2219.0,-2951.0,0.241,0.308,-0.731,-0.559
93442,3210.0,7374.0,-2124.0,442.0,-2270.0,-2857.0,0.21,0.316,-0.73,-0.569
93464,2360.0,7098.0,-2648.0,415.0,-2285.0,-2717.0,0.179,0.323,-0.728,-0.577
93476,1802.0,7400.0,-1796.0,420.0,-2265.0,-2590.0,0.149,0.329,-0.726,-0.585
93498,1176.0,6400.0,-1570.0,307.0,-2209.0,-2570.0,0.119,0.335,-0.723,-0.593
93510,598.0,5746.0,-1280.0,234.0,-2114.0,-2486.0,0.09,0.34,-0.718,-0.601
93532,-4.0,6846.0,-2100.0,386.0,-2042.0,-2242.0,0.063,0.344,-0.715,-0.606
93544,-654.0,5262.0,-1466.0,433.0,-2035.0,-2173.0,0.036,0.347,-0.711,-0.611
93566,-520.0,5682.0,-1452.0,349.0,-2010.0,-2108.0,0.009,0.349,-0.707,-0.615
93578,-1064.0,4892.0,-1296.0,272.0,-1895.0,-2015.0,0.016,-0.352,0.701,0.62
93601,-1706.0,4342.0,-1826.0,354.0,-1839.0,-1934.0,0.04,-0.353,0.697,0.623
93623,-2086.0,4908.0,-1228.0,601.0,-1880.0,-1536.0,0.063,-0.352,0.694,0.625
93635,-2356.0,4082.0,-868.0,441.0,-1760.0,-1459.0,0.084,-0.351,0.691,0.626
93657,-2926.0,3044.0,126.0,369.0,-1666.0,-1304.0,0.104,-0.349,0.687,0.628
93669,-3298.0,3886.0,-450.0,122.0,-1531.0,-1211.0,0.121,-0.348,0.682,0.631
93691,-3770.0,2896.0,-104.0,21.0,-1349.0,-1052.0,0.136,-0.347,0.677,0.634
93703,-4164.0,3138.0,590.0,-44.0,-1230.0,-1011.0,0.15,-0.346,0.672,0.637
93725,-4772.0,2442.0,1160.0,-200.0,-989.0,-889.0,0.16,-0.346,0.667,0.64
93737,-4658.0,1970.0,1654.0,-339.0,-665.0,-766.0,0.168,-0.347,0.661,0.643
93759,-4520.0,2552.0,1274.0,-325.0,-336.0,-541.0,0.172,-0.349,0.657,0.646
93771,-4458.0,2160.0,1958.0,-292.0,3.0,-253.0,0.173,-0.351,0.655,0.647
93793,-4490.0,1854.0,1960.0,-267.0,319.0,74.0,0.17,-0.352,0.654,0.648
93815,-4578.0,2036.0,2282.0,-339.0,658.0,450.0,0.162,-0.354,0.654,0.648
93827,-4532.0,1950.0,1964.0,-421.0,939.0,716.0,0.151,-0.356,0.656,0.649
93849,-4494.0,1968.0,1634.0,-415.0,1177.0,955.0,0.137,-0.358,0.658,0.649
93861,-4348.0,2418.0,1618.0,-379.0,1394.0,1164.0,0.12,-0.359,0.661,0.648
93883,-4128.0,2856.0,1132.0,-282.0,1602.0,1390.0,0.101,-0.36,0.666,0.645
93895,-3954.0,2292.0,1062.0,-199.0,1792.0,1551.0,0.08,-0.361,0.672,0.642
93917,-3560.0,3080.0,614.0,-178.0,1992.0,1777.0,0.056,-0.362,0.678,0.637
93939,-2934.0,3832.0,-20.0,-213.0,2150.0,1985.0,0.03,-0.362,0.684,0.632
93951,-2664.0,4250.0,-128.0,-286.0,2327.0,2231.0,0.002,-0.361,0.691,0.627
93973,-2024.0,5262.0,-872.0,-272.0,2418.0,2305.0,0.028,0.36,-0.697,-0.62
93985,-1560.0,4706.0,-510.0,-439.0,2460.0,2387.0,0.059,0.358,-0.701,-0.614
94007,-190.0,6918.0,-1472.0,-333.0,2513.0,2299.0,0.09,0.357,-0.705,-0.606
94019,-32.0,5896.0,-2306.0,-472.0,2535.0,2202.0,0.12,0.356,-0.708,-0.598
94041,974.0,7094.0,-1350.0,-375.0,2374.0,2635.0,0.151,0.351,-0.711,-0.59
94053,1456.0,8924.0,-3618.0,-438.0,2340.0,2690.0,0.183,0.345,-0.714,-0.581
94075,1646.0,7962.0,-2870.0,-356.0,2174.0,2868.0,0.214,0.336,-0.718,-0.571
94087,3316.0,9366.0,-2858.0,-287.0,2042.0,2528.0,0.242,0.329,-0.72,-0.561
94109,3146.0,7118.0,-2414.0,-406.0,1915.0,2538.0,0.269,0.321,-0.721,-0.552
94121,3966.0,9800.0,-3316.0,-292.0,1941.0,2495.0,0.296,0.313,-0.722,-0.541
94144,4092.0,8082.0,-2380.0,-445.0,1876.0,2686.0,0.323,0.303,-0.722,-0.531
94156,4596.0,9248.0,-898.0,-428.0,1772.0,2619.0,0.349,0.292,-0.722,-0.521
94179,4892.0,10562.0,-2716.0,-384.0,1801.0,2625.0,0.375,0.282,-0.721,-0.51
94201,4676.0,6970.0,-1962.0,-541.0,1720.0,2821.0,0.401,0.269,-0.72,-0.499
94213,5786.0,10078.0,-2424.0,-510.0,1779.0,2773.0,0.427,0.256,-0.717,-0.487
94235,5482.0,7406.0,-1854.0,-622.0,1785.0,2827.0,0.453,0.243,-0.714,-0.476
94252,5696.0,8674.0,-1648.0,-562.0,1818.0,2796.0,0.478,0.229,-0.71,-0.464
94264,6254.0,9474.0,-2362.0,-564.0,1814.0,2755.0,0.503,0.216,-0.705,-0.451
94286,6236.0,8070.0,-1778.0,-779.0,1488.0,2528.0,0.525,0.202,-0.699,-0.441
94298,6646.0,8730.0,-706.0,-608.0,1659.0,2498.0,0.547,0.189,-0.693,-0.43
94320,6818.0,6862.0,-636.0,-627.0,1536.0,2396.0,0.567,0.176,-0.687,-0.419
94342,6602.0,8090.0,-1192.0,-533.0,1485.0,2227.0,0.586,0.165,-0.68,-0.408
94354,7294.0,7256.0,-640.0,-510.0,1415.0,2132.0,0.604,0.154,-0.674,-0.398
94376,7426.0,7126.0,170.0,-498.0,1316.0,2050.0,0.62,0.143,-0.667,-0.387
94388,7420.0,7224.0,-144.0,-499.0,1189.0,1852.0,0.634,0.132,-0.661,-0.378
94410,7438.0,7766.0,-746.0,-379.0,1048.0,1711.0,0.647,0.123,-0.656,-0.369
94422,7236.0,6668.0,152.0,-296.0,948.0,1549.0,0.658,0.115,-0.651,-0.361
94444,7180.0,6496.0,220.0,-294.0,782.0,1348.0,0.668,0.107,-0.646,-0.354
94456,6918.0,6210.0,276.0,-293.0,613.0,1148.0,0.675,0.101,-0.642,-0.348
94478,7088.0,6414.0,32.0,-213.0,528.0,921.0,0.682,0.095,-0.639,-0.343
94490,5824.0,6424.0,-106.0,-155.0,513.0,795.0,0.687,0.091,-0.636,-0.339
94512,6798.0,6740.0,-4.0,-97.0,412.0,709.0,0.692,0.088,-0.634,-0.334
94524,6814.0,6452.0,-104.0,-52.0,324.0,669.0,0.696,0.084,-0.632,-0.33
94546,6690.0,6070.0,328.0,-56.0,286.0,695.0,0.699,0.08,-0.631,-0.326
94568,6390.0,7022.0,-430.0,23.0,298.0,562.0,0.703,0.078,-0.63,-0.322
94580,6708.0,6614.0,-314.0,23.0,86.0,335.0,0.704,0.076,-0.629,-0.32
94602,6406.0,6318.0,264.0,80.0,4.0,192.0,0.704,0.076,-0.63,-0.319
94614,6482.0,6460.0,28.0,91.0,-122.0,-3.0,0.703,0.076,-0.631,-0.319
94636,6438.0,6542.0,-170.0,131.0,-271.0,-255.0,0.701,0.077,-0.633,-0.32
94648,6368.0,6924.0,-474.0,168.0,-372.0,-472.0,0.697,0.08,-0.636,-0.322
94670,6582.0,6692.0,-370.0,205.0,-447.0,-615.0,0.692,0.084,-0.639,-0.325
94682,6840.0,6452.0,-28.0,238.0,-611.0,-625.0,0.687,0.087,-0.643,-0.329
94704,5616.0,7926.0,-390.0,437.0,-767.0,-799.0,0.679,0.092,-0.648,-0.332
94726,7098.0,7268.0,-326.0,420.0,-997.0,-1196.0,0.669,0.099,-0.655,-0.338
94738,6838.0,7514.0,-490.0,369.0,-1075.0,-1425.0,0.657,0.107,-0.661,-0.345
94760,6988.0,7798.0,-696.0,322.0,-1250.0,-1929.0,0.643,0.116,-0.668,-0.356
94772,7278.0,7392.0,-784.0,326.0,-1290.0,-2023.0,0.628,0.127,-0.674,-0.367
94794,7240.0,8262.0,-1154.0,397.0,-1410.0,-2213.0,0.611,0.138,-0.681,-0.379
94806,7558.0,7964.0,-896.0,416.0,-1566.0,-2414.0,0.591,0.15,-0.688,-0.392
94828,7642.0,8460.0,-962.0,438.0,-1705.0,-2594.0,0.57,0.163,-0.695,-0.406
94850,7620.0,8472.0,-1396.0,446.0,-1830.0,-2725.0,0.547,0.176,-0.702,-0.42
94862,7524.0,8602.0,-1656.0,475.0,-1927.0,-2860.0,0.522,0.19,-0.709,-0.434
94884,7320.0,8800.0,-1610.0,500.0,-2026.0,-2972.0,0.496,0.204,-0.715,-0.449
94896,7360.0,8898.0,-1618.0,430.0,-2145.0,-3015.0,0.468,0.217,-0.72,-0.464
94918,6838.0,8732.0,-1732.0,387.0,-2217.0,-2980.0,0.439,0.229,-0.725,-0.478
94930,7048.0,10582.0,-2142.0,502.0,-2214.0,-2965.0,0.41,0.242,-0.73,-0.491
94952,6658.0,7556.0,-2080.0,323.0,-2282.0,-2986.0,0.38,0.253,-0.733,-0.505
94964,5846.0,9562.0,-1600.0,314.0,-2318.0,-3000.0,0.349,0.263,-0.735,-0.519
94986,5096.0,8376.0,-1938.0,186.0,-2372.0,-3027.0,0.317,0.273,-0.735,-0.533
94998,4358.0,9290.0,-2358.0,165.0,-2362.0,-3002.0,0.286,0.283,-0.735,-0.546
95020,3862.0,7442.0,-2010.0,152.0,-2314.0,-3013.0,0.255,0.292,-0.734,-0.558
95042,4158.0,9948.0,-2206.0,116.0,-2291.0,-2949.0,0.224,0.3,-0.731,-0.57
95054,3442.0,6956.0,-2470.0,216.0,-2250.0,-2983.0,0.192,0.308,-0.728,-0.581
95076,2910.0,7050.0,-550.0,243.0,-2323.0,-2873.0,0.161,0.315,-0.725,-0.591
95088,2210.0,7720.0,-2768.0,270.0,-2216.0,-2725.0,0.131,0.321,-0.722,-0.599
95110,662.0,5680.0,-1676.0,362.0,-2205.0,-2610.0,0.101,0.327,-0.718,-0.606
95122,972.0,6414.0,-1814.0,576.0,-2150.0,-2579.0,0.07,0.333,-0.715,-0.61
95144,-40.0,6182.0,-962.0,481.0,-2143.0,-2424.0,0.041,0.337,-0.712,-0.615
95156,-270.0,5572.0,-530.0,325.0,-2103.0,-2305.0,0.012,0.34,-0.707,-0.62
95178,-916.0,5156.0,-722.0,125.0,-2021.0,-2082.0,0.013,-0.342,0.701,0.626
95190,-1234.0,5614.0,-2364.0,505.0,-1819.0,-1931.0,0.038,-0.344,0.697,0.628
95212,-2276.0,3888.0,-848.0,631.0,-1825.0,-1834.0,0.063,-0.345,0.694,0.629
95234,-1936.0,4684.0,-468.0,571.0,-1823.0,-1590.0,0.085,-0.344,0.691,0.63
95246,-2678.0,3920.0,-226.0,431.0,-1634.0,-1372.0,0.105,-0.343,0.687,0.631
95268,-2728.0,3266.0,-312.0,497.0,-1464.0,-1274.0,0.124,-0.342,0.685,0.631
95280,-3584.0,3410.0,-4.0,492.0,-1384.0,-1116.0,0.141,-0.341,0.682,0.631
95302,-4230.0,2838.0,834.0,315.0,-1157.0,-1053.0,0.155,-0.34,0.679,0.631
95314,-4198.0,3128.0,544.0,137.0,-1005.0,-1036.0,0.168,-0.341,0.675,0.632
95336,-4450.0,3262.0,-864.0,75.0,-842.0,-783.0,0.178,-0.34,0.672,0.633
95348,-4866.0,2418.0,-228.0,60.0,-686.0,-663.0,0.187,-0.34,0.669,0.634
95370,-4600.0,2098.0,-66.0,118.0,-549.0,-520.0,0.194,-0.34,0.667,0.634
95392,-4796.0,2830.0,1570.0,57.0,-315.0,-211.0,0.197,-0.34,0.666,0.634
