timeMs,ax,ay,az,q0,q1,q2,q3
600293,803.0,5401.0,7362.0,0.191,0.276,-0.29,-0.896
600309,985.0,5725.0,7300.0,0.198,0.264,-0.324,-0.886
600325,1979.0,6165.0,6820.0,0.206,0.254,-0.359,-0.874
600341,1631.0,6881.0,6320.0,0.214,0.247,-0.395,-0.859
600358,1813.0,8043.0,5890.0,0.221,0.242,-0.431,-0.841
600385,1863.0,9271.0,4870.0,0.228,0.239,-0.466,-0.821
600401,2065.0,10307.0,3698.0,0.235,0.238,-0.499,-0.8
600417,1699.0,10905.0,2744.0,0.241,0.238,-0.528,-0.778
600433,1205.0,11531.0,1606.0,0.247,0.239,-0.556,-0.757
600449,1233.0,11513.0,896.0,0.251,0.241,-0.581,-0.736
600466,1199.0,11257.0,78.0,0.252,0.244,-0.605,-0.715
600482,1163.0,11903.0,-1234.0,0.25,0.249,-0.628,-0.694
600499,893.0,12505.0,-1650.0,0.246,0.253,-0.647,-0.676
600516,1095.0,12523.0,-1718.0,0.242,0.256,-0.66,-0.663
600543,1601.0,11947.0,-1548.0,0.237,0.257,-0.669,-0.656
600560,1713.0,10811.0,-1032.0,0.232,0.256,-0.674,-0.653
600577,1857.0,9695.0,-634.0,0.226,0.255,-0.678,-0.651
600594,1795.0,9815.0,-214.0,0.22,0.254,-0.682,-0.649
600611,1909.0,9715.0,140.0,0.214,0.253,-0.685,-0.649
600628,1109.0,10657.0,816.0,0.209,0.252,-0.687,-0.649
600644,325.0,10887.0,864.0,0.205,0.251,-0.685,-0.652
600661,-323.0,10505.0,898.0,0.203,0.251,-0.683,-0.655
600678,93.0,10843.0,98.0,0.199,0.252,-0.68,-0.659
600695,1311.0,11615.0,-994.0,0.194,0.254,-0.677,-0.663
600712,1605.0,12255.0,-1508.0,0.189,0.255,-0.669,-0.672
600729,679.0,11967.0,-1784.0,0.184,0.254,-0.656,-0.687
600746,95.0,11245.0,-1934.0,0.179,0.247,-0.637,-0.708
600773,917.0,10019.0,-2140.0,0.172,0.236,-0.613,-0.734
600790,1765.0,8733.0,-2184.0,0.165,0.221,-0.584,-0.764
600807,2183.0,7681.0,-2008.0,0.155,0.202,-0.554,-0.793
600824,3077.0,6821.0,-1920.0,0.143,0.182,-0.523,-0.821
600841,3921.0,5527.0,-1458.0,0.126,0.162,-0.491,-0.847
600858,3667.0,4227.0,-336.0,0.105,0.142,-0.46,-0.87
600875,3641.0,4151.0,1590.0,0.082,0.122,-0.432,-0.89
600892,3559.0,4241.0,3436.0,0.06,0.101,-0.406,-0.906
600909,3823.0,3995.0,4522.0,0.039,0.082,-0.381,-0.92
600926,3121.0,3165.0,5666.0,0.023,0.069,-0.358,-0.931
600942,1323.0,2077.0,7586.0,0.009,0.06,-0.339,-0.939
600968,-445.0,1193.0,9284.0,0.002,-0.056,0.327,0.943
600984,-1881.0,1117.0,10314.0,0.011,-0.056,0.322,0.945
601000,-2931.0,1265.0,10358.0,0.017,-0.061,0.323,0.944
601016,-3677.0,1279.0,10196.0,0.019,-0.071,0.33,0.941
601033,-4407.0,2191.0,9418.0,0.016,-0.087,0.338,0.937
601049,-5515.0,2065.0,8630.0,0.01,-0.108,0.347,0.932
601065,-6407.0,1093.0,7336.0,0.001,-0.13,0.357,0.925
601092,-6855.0,1087.0,5966.0,0.008,0.152,-0.372,-0.916
601109,-6889.0,1553.0,4776.0,0.017,0.173,-0.391,-0.904
601125,-6453.0,3687.0,3534.0,0.025,0.192,-0.413,-0.89
601141,-5889.0,6835.0,2966.0,0.033,0.207,-0.434,-0.876
601157,-5205.0,9131.0,2812.0,0.043,0.218,-0.448,-0.866
601173,-4569.0,9969.0,2828.0,0.055,0.225,-0.456,-0.86
601190,-3627.0,9197.0,2734.0,0.067,0.228,-0.459,-0.856
601207,-2525.0,8321.0,2696.0,0.076,0.228,-0.462,-0.854
601224,-1185.0,9045.0,2864.0,0.082,0.227,-0.466,-0.851
601251,27.0,9833.0,2736.0,0.085,0.225,-0.472,-0.848
601267,219.0,10595.0,2410.0,0.086,0.222,-0.475,-0.847
601284,191.0,9547.0,2486.0,0.085,0.217,-0.474,-0.849
601300,21.0,8357.0,2742.0,0.083,0.211,-0.472,-0.852
601316,-267.0,6795.0,3352.0,0.079,0.202,-0.468,-0.857
601332,-301.0,5875.0,3812.0,0.076,0.191,-0.463,-0.862
601349,57.0,4653.0,4178.0,0.072,0.179,-0.458,-0.868
601375,579.0,4749.0,4508.0,0.071,0.167,-0.453,-0.873
601391,841.0,6041.0,4602.0,0.073,0.156,-0.448,-0.877
601408,1391.0,4795.0,5316.0,0.079,0.146,-0.439,-0.883
601424,627.0,3715.0,5362.0,0.085,0.138,-0.431,-0.888
601441,445.0,3113.0,4764.0,0.09,0.131,-0.428,-0.89
601457,331.0,3833.0,3774.0,0.093,0.123,-0.428,-0.891
601473,997.0,3547.0,3126.0,0.099,0.115,-0.432,-0.889
601499,1339.0,4413.0,2826.0,0.104,0.108,-0.439,-0.886
601515,1839.0,5497.0,3110.0,0.109,0.101,-0.447,-0.882
601531,1799.0,6993.0,3306.0,0.113,0.095,-0.455,-0.878
601548,1833.0,7777.0,3578.0,0.117,0.087,-0.461,-0.875
601565,1747.0,8141.0,4034.0,0.122,0.079,-0.464,-0.874
601581,1367.0,8397.0,4770.0,0.127,0.071,-0.467,-0.872
601597,559.0,9403.0,5846.0,0.132,0.063,-0.474,-0.868
601623,143.0,12229.0,7202.0,0.134,0.056,-0.487,-0.861
601639,3005.0,14125.0,8524.0,0.134,0.054,-0.5,-0.854
601656,2523.0,13789.0,7522.0,0.131,0.058,-0.508,-0.85
601673,1297.0,10347.0,6014.0,0.129,0.064,-0.509,-0.849
601690,-553.0,6917.0,4444.0,0.124,0.071,-0.508,-0.849
601707,-85.0,5303.0,3324.0,0.12,0.076,-0.51,-0.849
601724,397.0,4653.0,2944.0,0.116,0.08,-0.514,-0.846
601740,299.0,5131.0,2828.0,0.114,0.082,-0.518,-0.844
601756,421.0,5447.0,2804.0,0.113,0.083,-0.522,-0.841
601774,443.0,5735.0,2862.0,0.113,0.083,-0.525,-0.839
601800,301.0,6349.0,2984.0,0.113,0.081,-0.528,-0.838
601816,319.0,7119.0,3204.0,0.113,0.077,-0.531,-0.836
601833,587.0,7729.0,3350.0,0.114,0.073,-0.534,-0.835
601849,839.0,8281.0,3534.0,0.114,0.068,-0.536,-0.834
601865,1105.0,8549.0,3638.0,0.114,0.064,-0.537,-0.834
601881,1155.0,8565.0,3698.0,0.114,0.06,-0.537,-0.834
601898,1199.0,8337.0,3816.0,0.113,0.057,-0.536,-0.835
601914,1123.0,7819.0,3832.0,0.113,0.055,-0.535,-0.836
601940,1131.0,7447.0,3848.0,0.112,0.054,-0.533,-0.837
601956,1253.0,7111.0,3720.0,0.112,0.052,-0.532,-0.838
601972,1161.0,6775.0,3638.0,0.112,0.05,-0.529,-0.839
601989,1005.0,6759.0,3686.0,0.112,0.048,-0.527,-0.841
602006,823.0,7017.0,3698.0,0.113,0.046,-0.525,-0.843
602023,835.0,7205.0,3834.0,0.115,0.044,-0.522,-0.844
602040,757.0,7413.0,3870.0,0.116,0.041,-0.519,-0.846
602056,1021.0,7745.0,3876.0,0.117,0.039,-0.515,-0.848
602082,1031.0,7701.0,3958.0,0.118,0.036,-0.511,-0.851
602099,1055.0,7677.0,4046.0,0.118,0.034,-0.507,-0.853
602116,1051.0,7373.0,4074.0,0.118,0.033,-0.502,-0.856
602132,1091.0,7153.0,4114.0,0.118,0.031,-0.498,-0.858
602149,1065.0,6969.0,4126.0,0.118,0.029,-0.495,-0.861
602165,1063.0,6829.0,4152.0,0.118,0.028,-0.491,-0.863
602182,1141.0,6723.0,4190.0,0.117,0.026,-0.488,-0.865
602198,1083.0,6775.0,4236.0,0.117,0.024,-0.484,-0.867
602224,1101.0,6787.0,4354.0,0.117,0.022,-0.481,-0.869
602240,1087.0,6833.0,4366.0,0.117,0.02,-0.477,-0.871
602257,1153.0,6967.0,4424.0,0.116,0.018,-0.474,-0.873
602273,1139.0,6977.0,4580.0,0.116,0.016,-0.47,-0.875
602290,1181.0,7051.0,4658.0,0.116,0.013,-0.466,-0.877
602306,1227.0,6773.0,4710.0,0.115,0.011,-0.462,-0.879
602323,1243.0,6631.0,4884.0,0.114,0.01,-0.458,-0.881
602340,1299.0,6595.0,4942.0,0.113,0.009,-0.455,-0.883
602357,1443.0,6639.0,5002.0,0.113,0.008,-0.452,-0.885
602384,1559.0,6795.0,5124.0,0.112,0.008,-0.449,-0.887
602401,1535.0,6541.0,5364.0,0.112,0.008,-0.445,-0.888
602418,1505.0,6123.0,5352.0,0.111,0.009,-0.441,-0.89
602435,1361.0,5949.0,5406.0,0.112,0.011,-0.439,-0.892
602452,1289.0,6155.0,5596.0,0.113,0.012,-0.437,-0.892
602469,1153.0,5697.0,5434.0,0.114,0.014,-0.435,-0.893
602486,973.0,5493.0,5298.0,0.116,0.016,-0.435,-0.893
602503,781.0,5575.0,5156.0,0.117,0.018,-0.436,-0.892
602520,735.0,5935.0,5068.0,0.119,0.019,-0.438,-0.891
602537,761.0,6207.0,4902.0,0.121,0.02,-0.439,-0.89
602553,873.0,6515.0,4812.0,0.124,0.02,-0.44,-0.889
602570,1065.0,6329.0,5068.0,0.126,0.019,-0.441,-0.888
602587,713.0,6839.0,4976.0,0.129,0.019,-0.442,-0.888
602614,1267.0,6105.0,5120.0,0.131,0.018,-0.443,-0.887
602631,903.0,6991.0,4218.0,0.134,0.017,-0.442,-0.887
602647,1169.0,6685.0,4516.0,0.136,0.014,-0.44,-0.888
602664,905.0,6601.0,4818.0,0.138,0.01,-0.437,-0.889
602681,1191.0,6441.0,4746.0,0.14,0.006,-0.433,-0.89
602697,1071.0,6331.0,4910.0,0.144,-0.001,-0.43,-0.891
602713,1579.0,6807.0,4696.0,0.147,-0.01,-0.425,-0.893
602729,1611.0,6583.0,4522.0,0.15,-0.02,-0.417,-0.896
602746,2081.0,6837.0,4928.0,0.154,-0.032,-0.406,-0.9
602773,2093.0,6477.0,5154.0,0.157,-0.044,-0.392,-0.905
602790,2471.0,5847.0,5044.0,0.159,-0.057,-0.377,-0.91
602807,2511.0,5299.0,5522.0,0.161,-0.07,-0.362,-0.915
602824,2679.0,4735.0,5958.0,0.162,-0.082,-0.348,-0.92
602841,2849.0,4341.0,6256.0,0.162,-0.094,-0.336,-0.923
602858,3003.0,4153.0,6260.0,0.161,-0.105,-0.327,-0.925
602875,3271.0,3943.0,6452.0,0.16,-0.114,-0.32,-0.927
602892,3509.0,3915.0,6564.0,0.158,-0.122,-0.316,-0.928
602909,3659.0,4035.0,6678.0,0.156,-0.128,-0.313,-0.928
602926,3657.0,4135.0,6754.0,0.153,-0.133,-0.311,-0.928
602942,3717.0,4077.0,6572.0,0.151,-0.136,-0.31,-0.929
602959,3681.0,3929.0,6474.0,0.149,-0.139,-0.309,-0.929
602986,3579.0,3769.0,6504.0,0.146,-0.14,-0.308,-0.93
603003,3479.0,3725.0,6672.0,0.145,-0.14,-0.307,-0.93
603020,3319.0,3815.0,6712.0,0.144,-0.141,-0.306,-0.93
603036,3397.0,3747.0,6636.0,0.143,-0.141,-0.306,-0.931
603053,3419.0,3857.0,6576.0,0.142,-0.142,-0.305,-0.931
603070,3473.0,3861.0,6496.0,0.142,-0.142,-0.305,-0.931
603087,3581.0,3869.0,6622.0,0.143,-0.141,-0.305,-0.931
603104,3715.0,3921.0,6642.0,0.144,-0.14,-0.304,-0.931
603121,3427.0,3911.0,6532.0,0.146,-0.14,-0.302,-0.932
603138,3211.0,3889.0,6382.0,0.147,-0.139,-0.302,-0.932
603155,3201.0,3951.0,6242.0,0.148,-0.138,-0.303,-0.931
603172,3061.0,4493.0,6076.0,0.148,-0.137,-0.305,-0.931
603189,3219.0,4735.0,6068.0,0.148,-0.136,-0.308,-0.93
603216,3233.0,4825.0,6080.0,0.148,-0.135,-0.31,-0.929
603232,3155.0,4899.0,6132.0,0.148,-0.134,-0.311,-0.929
603248,3209.0,4579.0,6138.0,0.148,-0.134,-0.31,-0.93
603265,3175.0,4309.0,6162.0,0.147,-0.133,-0.309,-0.93
603282,3145.0,4163.0,6268.0,0.147,-0.133,-0.308,-0.93
603299,3189.0,4171.0,6316.0,0.147,-0.133,-0.308,-0.931
603316,3203.0,4135.0,6328.0,0.146,-0.133,-0.308,-0.931
603333,3271.0,4187.0,6300.0,0.146,-0.133,-0.308,-0.931
603350,3303.0,4265.0,6346.0,0.146,-0.133,-0.308,-0.931
603367,3227.0,4293.0,6358.0,0.146,-0.133,-0.308,-0.931
603384,3269.0,4251.0,6286.0,0.145,-0.133,-0.308,-0.931
603401,3165.0,4261.0,6294.0,0.145,-0.133,-0.308,-0.931
603428,3163.0,4285.0,6310.0,0.145,-0.133,-0.308,-0.931
603445,3063.0,4289.0,6326.0,0.144,-0.133,-0.308,-0.931
603462,3097.0,4277.0,6298.0,0.144,-0.133,-0.308,-0.931
603479,3101.0,4295.0,6372.0,0.144,-0.133,-0.308,-0.931
603496,3085.0,4309.0,6380.0,0.143,-0.133,-0.308,-0.931
603513,3083.0,4213.0,6394.0,0.143,-0.133,-0.308,-0.931
603530,3061.0,4111.0,6300.0,0.143,-0.133,-0.309,-0.931
603547,3135.0,4325.0,6260.0,0.142,-0.133,-0.311,-0.93
603564,3171.0,4285.0,6212.0,0.142,-0.133,-0.312,-0.93
603581,3213.0,4385.0,6224.0,0.141,-0.134,-0.313,-0.93
603598,3291.0,4485.0,6222.0,0.141,-0.134,-0.314,-0.929
603615,3213.0,4473.0,6160.0,0.141,-0.134,-0.314,-0.929
603632,3215.0,4497.0,6138.0,0.14,-0.134,-0.314,-0.929
603649,3161.0,4477.0,6124.0,0.14,-0.134,-0.314,-0.929
603676,3075.0,4419.0,6160.0,0.14,-0.134,-0.313,-0.93
603692,3005.0,4269.0,6174.0,0.139,-0.134,-0.313,-0.93
603708,2973.0,4333.0,6234.0,0.139,-0.134,-0.312,-0.93
603724,3123.0,4381.0,6236.0,0.139,-0.135,-0.312,-0.93
603740,3143.0,4381.0,6234.0,0.139,-0.135,-0.311,-0.93
603757,3167.0,4405.0,6254.0,0.139,-0.135,-0.311,-0.931
603775,3209.0,4395.0,6302.0,0.139,-0.135,-0.31,-0.931
603792,3297.0,4401.0,6238.0,0.139,-0.135,-0.31,-0.931
603809,3287.0,4385.0,6264.0,0.139,-0.135,-0.309,-0.931
603826,3257.0,4337.0,6232.0,0.139,-0.135,-0.309,-0.931
603853,3257.0,4377.0,6258.0,0.139,-0.134,-0.309,-0.931
603869,3117.0,4297.0,6258.0,0.139,-0.134,-0.308,-0.931
603885,3143.0,4321.0,6232.0,0.139,-0.134,-0.308,-0.932
603901,3137.0,4309.0,6248.0,0.138,-0.134,-0.308,-0.932
603917,3099.0,4325.0,6306.0,0.138,-0.134,-0.308,-0.932
603933,3129.0,4269.0,6294.0,0.138,-0.135,-0.308,-0.932
603959,3193.0,4239.0,6308.0,0.138,-0.135,-0.307,-0.932
603976,3225.0,4201.0,6334.0,0.138,-0.135,-0.307,-0.932
603993,3189.0,4177.0,6342.0,0.138,-0.135,-0.307,-0.932
604010,3169.0,4203.0,6328.0,0.138,-0.135,-0.307,-0.932
604027,3221.0,4225.0,6294.0,0.137,-0.135,-0.307,-0.932
604044,3223.0,4253.0,6368.0,0.137,-0.135,-0.307,-0.932
604061,3243.0,4261.0,6360.0,0.137,-0.135,-0.307,-0.932
604078,3211.0,4287.0,6278.0,0.137,-0.135,-0.307,-0.932
604095,3165.0,4259.0,6278.0,0.137,-0.135,-0.307,-0.932
604112,3117.0,4305.0,6274.0,0.137,-0.135,-0.308,-0.932
604129,3141.0,4265.0,6230.0,0.137,-0.135,-0.308,-0.932
604146,3135.0,4227.0,6266.0,0.137,-0.135,-0.308,-0.932
604163,3065.0,4259.0,6276.0,0.137,-0.135,-0.308,-0.932
604180,3077.0,4275.0,6256.0,0.137,-0.135,-0.308,-0.932
604207,3159.0,4251.0,6284.0,0.137,-0.136,-0.308,-0.932
604224,3165.0,4265.0,6352.0,0.137,-0.136,-0.307,-0.932
604240,3239.0,4271.0,6324.0,0.137,-0.136,-0.308,-0.932
604257,3273.0,4295.0,6328.0,0.137,-0.136,-0.307,-0.932
604273,3199.0,4351.0,6292.0,0.137,-0.136,-0.307,-0.932
604289,3169.0,4331.0,6320.0,0.137,-0.136,-0.307,-0.932
604306,3177.0,4257.0,6226.0,0.137,-0.136,-0.307,-0.932
604322,3131.0,4283.0,6282.0,0.137,-0.136,-0.307,-0.932
604348,3065.0,4293.0,6324.0,0.137,-0.136,-0.307,-0.932
604364,3073.0,4249.0,6332.0,0.137,-0.136,-0.307,-0.932
604380,3105.0,4307.0,6328.0,0.137,-0.136,-0.307,-0.932
604396,3131.0,4269.0,6384.0,0.137,-0.136,-0.307,-0.932
604412,3143.0,4275.0,6362.0,0.137,-0.136,-0.306,-0.932
604429,3167.0,4273.0,6418.0,0.137,-0.136,-0.306,-0.932
604446,3169.0,4235.0,6346.0,0.137,-0.136,-0.306,-0.932
604463,3155.0,4257.0,6320.0,0.137,-0.136,-0.306,-0.932
604490,3175.0,4309.0,6328.0,0.137,-0.136,-0.306,-0.932
604506,3101.0,4277.0,6392.0,0.137,-0.135,-0.306,-0.932
604522,3145.0,4261.0,6266.0,0.137,-0.135,-0.307,-0.932
604539,3091.0,4267.0,6186.0,0.137,-0.135,-0.307,-0.932
604555,2985.0,4223.0,6214.0,0.137,-0.134,-0.307,-0.932
604571,2873.0,4251.0,6184.0,0.137,-0.134,-0.308,-0.932
604587,2945.0,4439.0,6186.0,0.137,-0.135,-0.308,-0.932
604613,2993.0,4305.0,6240.0,0.137,-0.135,-0.309,-0.932
604630,2901.0,3867.0,6326.0,0.137,-0.136,-0.309,-0.931
604647,2811.0,3715.0,6314.0,0.137,-0.136,-0.31,-0.931
604664,2701.0,3949.0,6202.0,0.137,-0.137,-0.312,-0.93
604681,2739.0,3891.0,6146.0,0.138,-0.138,-0.314,-0.929
604698,2471.0,3653.0,6006.0,0.138,-0.139,-0.317,-0.928
604714,2285.0,3787.0,5864.0,0.139,-0.141,-0.32,-0.926
604730,2415.0,4233.0,5734.0,0.14,-0.144,-0.324,-0.925
604747,2455.0,4261.0,5610.0,0.141,-0.148,-0.326,-0.923
604764,2415.0,4341.0,5376.0,0.143,-0.153,-0.328,-0.921
604791,2903.0,4773.0,5548.0,0.145,-0.16,-0.327,-0.92
604807,3081.0,4859.0,5632.0,0.147,-0.168,-0.324,-0.919
604824,3501.0,4077.0,5814.0,0.149,-0.178,-0.319,-0.919
604840,4039.0,4361.0,6116.0,0.152,-0.189,-0.314,-0.918
604856,4525.0,4461.0,6270.0,0.155,-0.201,-0.309,-0.917
604872,5035.0,4647.0,6236.0,0.157,-0.213,-0.304,-0.915
604888,5785.0,4693.0,6360.0,0.159,-0.224,-0.298,-0.914
604914,6139.0,4529.0,6762.0,0.159,-0.233,-0.293,-0.913
604930,7339.0,4551.0,6884.0,0.159,-0.24,-0.29,-0.913
604946,9217.0,5299.0,7146.0,0.159,-0.243,-0.289,-0.912
604962,11345.0,6917.0,7754.0,0.155,-0.242,-0.287,-0.914
604978,12491.0,7031.0,7898.0,0.147,-0.236,-0.282,-0.918
604994,13401.0,5469.0,7362.0,0.137,-0.225,-0.276,-0.924
605020,14109.0,3653.0,5928.0,0.125,-0.207,-0.27,-0.932
605036,13381.0,1351.0,4762.0,0.114,-0.182,-0.266,-0.94
605052,11925.0,103.0,3608.0,0.105,-0.152,-0.265,-0.946
605068,10537.0,-679.0,2822.0,0.098,-0.12,-0.268,-0.951
605084,9267.0,-849.0,2168.0,0.095,-0.088,-0.274,-0.953
605110,7769.0,-1369.0,1454.0,0.096,-0.059,-0.282,-0.953
605126,5967.0,-1173.0,1084.0,0.102,-0.031,-0.296,-0.949
605143,4591.0,-157.0,974.0,0.112,-0.006,-0.316,-0.942
605159,3303.0,447.0,782.0,0.126,0.014,-0.341,-0.931
605175,2309.0,1723.0,386.0,0.145,0.029,-0.371,-0.917
605191,1727.0,3747.0,146.0,0.165,0.038,-0.405,-0.898
605217,1753.0,6851.0,414.0,0.189,0.043,-0.439,-0.877
605233,1759.0,10133.0,250.0,0.216,0.046,-0.47,-0.855
605249,101.0,10319.0,70.0,0.246,0.045,-0.497,-0.831
605265,-1235.0,13465.0,-222.0,0.278,0.044,-0.521,-0.806
605281,-3563.0,16239.0,610.0,0.308,0.046,-0.54,-0.782
605297,-7385.0,18007.0,1914.0,0.334,0.049,-0.556,-0.759
605313,-10327.0,18437.0,2572.0,0.355,0.054,-0.568,-0.74
605339,-12469.0,18095.0,2674.0,0.368,0.062,-0.577,-0.726
605356,-13383.0,17237.0,3524.0,0.372,0.073,-0.583,-0.719
605373,-12349.0,15899.0,3952.0,0.366,0.085,-0.585,-0.719
605390,-10151.0,13823.0,3912.0,0.353,0.099,-0.582,-0.725
605407,-7881.0,10829.0,3526.0,0.335,0.116,-0.576,-0.737
605424,-5961.0,8529.0,2844.0,0.312,0.134,-0.569,-0.749
605441,-4585.0,7283.0,2218.0,0.286,0.154,-0.561,-0.762
605458,-3805.0,6331.0,1754.0,0.257,0.173,-0.552,-0.774
605475,-3355.0,6285.0,1290.0,0.227,0.189,-0.542,-0.787
605491,-3067.0,5937.0,810.0,0.2,0.202,-0.53,-0.799
605517,-3767.0,4693.0,994.0,0.176,0.21,-0.518,-0.81
605533,-3805.0,6011.0,1278.0,0.155,0.214,-0.51,-0.819
605549,-2667.0,7799.0,1522.0,0.138,0.214,-0.505,-0.825
605565,-1097.0,10713.0,1354.0,0.127,0.21,-0.497,-0.832
605582,405.0,11095.0,1628.0,0.124,0.201,-0.485,-0.842
605598,2193.0,9977.0,1874.0,0.124,0.187,-0.47,-0.853
605615,4901.0,8457.0,2384.0,0.127,0.172,-0.458,-0.863
605641,6073.0,7719.0,3138.0,0.129,0.158,-0.45,-0.869
605657,6077.0,7269.0,3706.0,0.13,0.145,-0.446,-0.874
605674,6371.0,7067.0,3988.0,0.13,0.133,-0.447,-0.875
605691,6581.0,7235.0,4078.0,0.13,0.121,-0.452,-0.874
605708,6985.0,8009.0,3968.0,0.13,0.11,-0.46,-0.872
605725,8499.0,3229.0,5920.0,0.133,0.102,-0.468,-0.868
605742,7619.0,6905.0,5068.0,0.131,0.096,-0.47,-0.867
605759,6637.0,5735.0,4870.0,0.125,0.094,-0.474,-0.867
605776,4217.0,6373.0,3900.0,0.118,0.094,-0.478,-0.865
605793,5269.0,7851.0,2956.0,0.11,0.098,-0.479,-0.865
605810,3773.0,7011.0,3446.0,0.102,0.101,-0.475,-0.868
605827,2375.0,6229.0,3856.0,0.096,0.104,-0.465,-0.874
605853,637.0,4729.0,3980.0,0.09,0.105,-0.452,-0.881
605869,-137.0,3231.0,3998.0,0.086,0.105,-0.441,-0.887
605886,-1375.0,2701.0,3958.0,0.083,0.104,-0.433,-0.891
605902,-1525.0,3351.0,4104.0,0.081,0.103,-0.431,-0.893
605918,-1827.0,4523.0,4298.0,0.08,0.1,-0.433,-0.892
605935,-2201.0,5755.0,4358.0,0.079,0.098,-0.437,-0.891
605951,-2199.0,6783.0,4602.0,0.078,0.096,-0.441,-0.889
605968,-2453.0,6929.0,4848.0,0.075,0.093,-0.445,-0.887
605995,-2719.0,7749.0,5152.0,0.071,0.09,-0.45,-0.886
606012,-2555.0,8385.0,5330.0,0.067,0.086,-0.453,-0.885
606029,-3147.0,9239.0,5460.0,0.062,0.081,-0.454,-0.885
606046,-3157.0,9469.0,5610.0,0.057,0.076,-0.453,-0.886
606062,-2805.0,9593.0,5606.0,0.051,0.07,-0.451,-0.889
606079,-2483.0,9331.0,5460.0,0.043,0.064,-0.447,-0.891
606096,-2259.0,8925.0,5430.0,0.033,0.058,-0.444,-0.894
606112,-2007.0,8813.0,5240.0,0.021,0.053,-0.44,-0.896
606129,-1775.0,8649.0,5132.0,0.007,0.047,-0.436,-0.898
606146,-1519.0,8413.0,5014.0,0.009,-0.041,0.432,0.901
606163,-1315.0,7955.0,4982.0,0.025,-0.035,0.428,0.903
606189,-1087.0,7925.0,4914.0,0.043,-0.028,0.424,0.904
606205,-787.0,7885.0,4864.0,0.061,-0.02,0.418,0.906
606221,-637.0,7687.0,4694.0,0.08,-0.013,0.41,0.908
606237,-181.0,7211.0,4648.0,0.098,-0.005,0.401,0.911
606253,151.0,6453.0,4838.0,0.118,0.003,0.391,0.913
606279,229.0,5979.0,5360.0,0.138,0.013,0.381,0.914
606296,613.0,5785.0,5498.0,0.158,0.022,0.37,0.915
606313,865.0,5349.0,5622.0,0.179,0.032,0.359,0.915
606330,1093.0,4865.0,5654.0,0.198,0.041,0.348,0.915
606346,1293.0,4421.0,5746.0,0.216,0.05,0.337,0.915
606363,1597.0,4373.0,5868.0,0.232,0.059,0.326,0.914
606380,1697.0,4415.0,5968.0,0.246,0.068,0.315,0.914
606396,1977.0,4453.0,6112.0,0.259,0.076,0.303,0.914
606412,2111.0,4391.0,6206.0,0.271,0.083,0.29,0.914
606428,2329.0,3943.0,6368.0,0.281,0.089,0.276,0.915
606455,2237.0,3287.0,6478.0,0.29,0.094,0.262,0.915
606471,2301.0,3073.0,6518.0,0.298,0.099,0.25,0.916
606487,2325.0,3053.0,6476.0,0.304,0.104,0.24,0.916
606503,2397.0,3307.0,6478.0,0.309,0.11,0.231,0.916
606519,2601.0,3327.0,6414.0,0.313,0.114,0.223,0.916
606535,2549.0,3271.0,6446.0,0.316,0.119,0.215,0.916
606561,2747.0,3027.0,6516.0,0.319,0.123,0.209,0.916
606577,2909.0,2637.0,6568.0,0.321,0.128,0.205,0.916
606594,2953.0,2871.0,6556.0,0.322,0.133,0.203,0.915
606611,3065.0,3057.0,6652.0,0.322,0.139,0.202,0.914
606628,3119.0,2929.0,6550.0,0.322,0.145,0.203,0.913
606645,3233.0,2657.0,6370.0,0.321,0.151,0.205,0.912
606662,2965.0,2755.0,6244.0,0.318,0.156,0.211,0.911
606679,3115.0,3255.0,6246.0,0.315,0.162,0.218,0.91
606695,2891.0,4221.0,6280.0,0.31,0.166,0.225,0.908
606721,2895.0,4737.0,6170.0,0.305,0.171,0.231,0.908
606737,3009.0,4453.0,6054.0,0.3,0.175,0.236,0.908
606753,2977.0,4293.0,5730.0,0.293,0.178,0.241,0.908
606769,2941.0,3733.0,5502.0,0.286,0.181,0.249,0.907
606785,2927.0,3097.0,5408.0,0.278,0.184,0.262,0.906
606801,2361.0,4131.0,4826.0,0.268,0.189,0.279,0.902
606827,2189.0,6171.0,4666.0,0.259,0.195,0.298,0.898
606843,2057.0,6973.0,4776.0,0.25,0.201,0.316,0.893
606859,2123.0,7253.0,4878.0,0.242,0.206,0.332,0.888
606875,2131.0,6619.0,5480.0,0.235,0.21,0.349,0.883
606891,2021.0,4167.0,6322.0,0.227,0.216,0.369,0.875
606907,2023.0,4285.0,6560.0,0.219,0.224,0.398,0.862
606933,2981.0,6329.0,5942.0,0.213,0.232,0.431,0.846
606949,4947.0,5279.0,6094.0,0.205,0.238,0.465,0.828
606965,5487.0,7457.0,6134.0,0.196,0.241,0.499,0.809
606981,5555.0,9039.0,6590.0,0.184,0.239,0.529,0.793
606997,6073.0,10175.0,6302.0,0.17,0.233,0.549,0.784
607013,5959.0,9519.0,5612.0,0.154,0.223,0.56,0.783
607039,5211.0,8681.0,4312.0,0.135,0.211,0.562,0.788
607055,4721.0,8281.0,2808.0,0.113,0.197,0.559,0.797
607071,3381.0,8651.0,1698.0,0.088,0.185,0.55,0.809
607087,1937.0,8821.0,378.0,0.062,0.176,0.538,0.822
607103,1325.0,9801.0,-424.0,0.037,0.17,0.522,0.835
607119,665.0,10003.0,-794.0,0.013,0.166,0.504,0.848
607145,1601.0,9967.0,-510.0,0.01,-0.161,-0.487,-0.859
607161,-867.0,10757.0,-586.0,0.028,-0.157,-0.47,-0.868
607178,-1595.0,10359.0,130.0,0.042,-0.155,-0.455,-0.876
607194,-1167.0,9741.0,1888.0,0.052,-0.152,-0.444,-0.881
607210,2137.0,12267.0,3580.0,0.062,-0.145,-0.428,-0.89
607227,-1321.0,9735.0,3538.0,0.07,-0.138,-0.411,-0.898
607244,-251.0,9287.0,4576.0,0.077,-0.129,-0.392,-0.908
607261,109.0,7429.0,5316.0,0.084,-0.117,-0.369,-0.918
607288,-1229.0,5973.0,5556.0,0.09,-0.103,-0.351,-0.926
607304,-1633.0,5757.0,5826.0,0.094,-0.09,-0.336,-0.933
607321,-1553.0,5391.0,6184.0,0.096,-0.077,-0.325,-0.938
607338,-1751.0,5271.0,6358.0,0.095,-0.065,-0.318,-0.941
607354,-1693.0,5281.0,6426.0,0.091,-0.052,-0.313,-0.944
607371,-1609.0,4825.0,6334.0,0.084,-0.04,-0.31,-0.946
607388,-1407.0,4433.0,6150.0,0.077,-0.026,-0.309,-0.948
607405,-1611.0,3847.0,5968.0,0.071,-0.012,-0.309,-0.948
607422,-1897.0,3835.0,5926.0,0.066,0.001,-0.31,-0.948
607438,-2011.0,3343.0,5750.0,0.061,0.013,-0.312,-0.948
607455,-1977.0,2447.0,5464.0,0.058,0.023,-0.314,-0.947
607482,-1739.0,1649.0,4996.0,0.056,0.033,-0.317,-0.946
607498,-1561.0,1201.0,4526.0,0.056,0.041,-0.321,-0.944
607514,-1387.0,823.0,4238.0,0.06,0.048,-0.326,-0.942
607530,-1023.0,717.0,3934.0,0.067,0.052,-0.33,-0.94
607546,-695.0,209.0,3976.0,0.077,0.052,-0.335,-0.937
607563,89.0,-17.0,4404.0,0.092,0.048,-0.347,-0.932
607579,3001.0,4219.0,4504.0,0.109,0.039,-0.366,-0.923
607605,6669.0,11123.0,5472.0,0.125,0.028,-0.388,-0.913
607621,10935.0,16971.0,6342.0,0.136,0.017,-0.404,-0.904
607637,14043.0,19635.0,7348.0,0.136,0.014,-0.41,-0.902
607654,12233.0,17293.0,7716.0,0.128,0.02,-0.408,-0.904
607671,9783.0,11867.0,7758.0,0.113,0.029,-0.401,-0.909
607687,8411.0,8249.0,7110.0,0.095,0.038,-0.393,-0.914
607703,7437.0,5551.0,6028.0,0.078,0.048,-0.385,-0.918
607729,5919.0,3297.0,4922.0,0.064,0.057,-0.379,-0.922
607745,3739.0,1399.0,4422.0,0.051,0.067,-0.374,-0.924
607761,1517.0,-115.0,4338.0,0.041,0.076,-0.372,-0.924
607778,-327.0,-105.0,4936.0,0.033,0.082,-0.375,-0.923
607796,-1323.0,-329.0,5280.0,0.027,0.084,-0.382,-0.92
607812,-2243.0,-663.0,5560.0,0.026,0.083,-0.392,-0.916
607828,-2797.0,-119.0,5836.0,0.029,0.08,-0.407,-0.91
607845,-2957.0,1523.0,5726.0,0.037,0.076,-0.425,-0.901
607871,-2491.0,4091.0,5660.0,0.05,0.073,-0.445,-0.891
607888,-2187.0,6135.0,5576.0,0.066,0.073,-0.462,-0.881
607904,-2739.0,8287.0,5322.0,0.084,0.077,-0.478,-0.871
607921,-3765.0,9799.0,5000.0,0.103,0.083,-0.49,-0.861
607938,-4615.0,10327.0,4468.0,0.12,0.092,-0.5,-0.853
607954,-5157.0,9921.0,3724.0,0.134,0.102,-0.507,-0.845
607971,-5553.0,10085.0,2858.0,0.144,0.113,-0.515,-0.837
607987,-5853.0,9919.0,2372.0,0.149,0.125,-0.523,-0.83
608013,-5977.0,9667.0,2022.0,0.149,0.137,-0.531,-0.823
608029,-5467.0,10283.0,1724.0,0.145,0.148,-0.54,-0.816
608045,-4719.0,10653.0,1452.0,0.139,0.157,-0.548,-0.81
608061,-4021.0,11463.0,1220.0,0.13,0.165,-0.552,-0.807
608078,-3455.0,11507.0,1394.0,0.12,0.172,-0.552,-0.807
608095,-3069.0,10701.0,1774.0,0.108,0.177,-0.548,-0.81
608111,-2655.0,9737.0,1986.0,0.095,0.18,-0.543,-0.814
608128,-2223.0,9325.0,2168.0,0.081,0.183,-0.538,-0.819
608155,-1987.0,8691.0,2452.0,0.065,0.185,-0.534,-0.823
608171,-2269.0,8277.0,2834.0,0.048,0.187,-0.529,-0.826
608188,-2459.0,7837.0,3008.0,0.03,0.188,-0.525,-0.83
608204,-2641.0,7347.0,2978.0,0.014,0.187,-0.519,-0.834
608220,-2837.0,6569.0,3132.0,0.001,-0.184,0.511,0.84
608236,-3013.0,5873.0,3226.0,0.014,-0.179,0.5,0.847
608253,-2897.0,4843.0,3068.0,0.024,-0.17,0.486,0.857
608269,-2557.0,3861.0,2658.0,0.031,-0.159,0.466,0.87
608295,-2081.0,2773.0,2198.0,0.034,-0.145,0.444,0.884
608311,-1673.0,1873.0,1904.0,0.033,-0.128,0.418,0.899
608327,-1051.0,885.0,2840.0,0.029,-0.106,0.392,0.913
608344,463.0,297.0,3998.0,0.022,-0.079,0.371,0.925
608360,3135.0,1005.0,4728.0,0.015,-0.051,0.357,0.933
608377,5827.0,4867.0,5532.0,0.009,-0.027,0.351,0.936
608394,7561.0,9861.0,6688.0,0.003,-0.009,0.348,0.938
608411,8699.0,12545.0,7668.0,0.001,-0.002,-0.344,-0.939
608437,8663.0,11947.0,7528.0,0.002,-0.004,-0.341,-0.94
608454,7409.0,9115.0,6774.0,0.001,-0.003,0.34,0.94
608470,5347.0,5769.0,5756.0,0.007,-0.017,0.345,0.938
608486,3329.0,4073.0,5002.0,0.014,-0.033,0.357,0.934
608502,1665.0,3855.0,4662.0,0.021,-0.049,0.372,0.927
608518,367.0,3057.0,4686.0,0.027,-0.065,0.39,0.918
608544,-1267.0,2961.0,4638.0,0.031,-0.08,0.41,0.908
608561,-2757.0,2489.0,4410.0,0.035,-0.094,0.429,0.898
608577,-4001.0,2467.0,4372.0,0.036,-0.106,0.449,0.886
608594,-5445.0,2917.0,4976.0,0.037,-0.115,0.468,0.875
608610,-5945.0,3899.0,5502.0,0.037,-0.121,0.485,0.865
608627,-6667.0,4983.0,5586.0,0.034,-0.12,0.499,0.858
608644,-5551.0,5939.0,6250.0,0.03,-0.114,0.509,0.853
608660,-4499.0,8033.0,6452.0,0.024,-0.106,0.514,0.851
608677,-3313.0,8809.0,6434.0,0.016,-0.096,0.513,0.853
608694,-1915.0,9795.0,5760.0,0.006,-0.085,0.507,0.858
608721,-1739.0,8955.0,4978.0,0.004,0.075,-0.497,-0.864
608738,-2159.0,8427.0,4514.0,0.013,0.066,-0.487,-0.871
608755,-2095.0,7849.0,4052.0,0.021,0.055,-0.476,-0.877
608771,-1963.0,7371.0,3598.0,0.027,0.044,-0.466,-0.884
608787,-1345.0,7347.0,3372.0,0.03,0.031,-0.456,-0.889
608803,-571.0,7525.0,3158.0,0.031,0.016,-0.448,-0.893
608820,141.0,7559.0,3078.0,0.03,-0.0,-0.439,-0.898
608837,1001.0,8005.0,2968.0,0.027,-0.016,-0.431,-0.902
608854,1445.0,8011.0,3044.0,0.022,-0.033,-0.421,-0.906
608871,2165.0,8545.0,3020.0,0.016,-0.049,-0.409,-0.911
608898,2605.0,8635.0,3010.0,0.008,-0.065,-0.397,-0.916
608914,3129.0,8341.0,3138.0,0.001,0.079,0.383,0.921
608930,3181.0,7625.0,3408.0,0.013,0.093,0.369,0.925
608946,3423.0,6621.0,4110.0,0.027,0.105,0.356,0.928
608962,3329.0,5915.0,4824.0,0.042,0.117,0.346,0.93
608978,3281.0,5553.0,5574.0,0.058,0.127,0.338,0.931
609004,3533.0,5705.0,6352.0,0.074,0.135,0.331,0.931
609020,3693.0,5573.0,6886.0,0.088,0.141,0.327,0.93
609036,3561.0,5237.0,7350.0,0.101,0.143,0.324,0.93
609052,3365.0,4987.0,7476.0,0.111,0.142,0.324,0.929
609068,2993.0,5483.0,7620.0,0.12,0.137,0.325,0.928
609084,2753.0,5521.0,7624.0,0.127,0.13,0.328,0.927
609110,2567.0,5981.0,7362.0,0.134,0.121,0.33,0.926
609126,2393.0,5811.0,7094.0,0.141,0.11,0.332,0.926
609142,1897.0,5177.0,7134.0,0.148,0.098,0.333,0.926
609158,1735.0,4457.0,7006.0,0.154,0.086,0.335,0.926
609174,1171.0,3373.0,6748.0,0.159,0.073,0.338,0.925
609200,591.0,2733.0,6502.0,0.163,0.06,0.345,0.923
609216,23.0,2685.0,6150.0,0.166,0.048,0.354,0.919
609232,-561.0,2881.0,5934.0,0.166,0.038,0.366,0.915
609248,-1033.0,3203.0,5922.0,0.166,0.029,0.378,0.91
609265,-1191.0,3489.0,5896.0,0.165,0.023,0.39,0.906
609281,-1161.0,3869.0,5696.0,0.163,0.02,0.401,0.901
609297,-1107.0,4489.0,5626.0,0.16,0.017,0.411,0.897
609324,-1221.0,5079.0,5562.0,0.157,0.017,0.421,0.893
609340,-1381.0,6033.0,5586.0,0.153,0.018,0.428,0.891
609356,-1135.0,7273.0,5660.0,0.148,0.02,0.433,0.889
609372,-677.0,7861.0,5716.0,0.143,0.022,0.434,0.889
609388,-437.0,7917.0,5700.0,0.138,0.024,0.432,0.891
609404,-317.0,7857.0,5744.0,0.134,0.026,0.428,0.893
609420,-157.0,7715.0,5606.0,0.13,0.027,0.424,0.896
609446,-5.0,7489.0,5630.0,0.126,0.027,0.419,0.899
609463,399.0,7215.0,5462.0,0.122,0.028,0.414,0.902
609479,739.0,7161.0,5310.0,0.118,0.027,0.41,0.904
609495,819.0,7219.0,5236.0,0.114,0.027,0.407,0.906
609511,1123.0,7661.0,5150.0,0.11,0.025,0.405,0.908
609527,1395.0,8573.0,4982.0,0.106,0.022,0.402,0.909
609553,1341.0,8637.0,4860.0,0.103,0.018,0.397,0.912
609569,1219.0,7997.0,4900.0,0.101,0.014,0.391,0.915
609585,977.0,7191.0,4938.0,0.099,0.009,0.386,0.917
609601,775.0,6719.0,4950.0,0.099,0.004,0.383,0.919
609617,723.0,6515.0,4838.0,0.099,-0.002,0.38,0.92
609633,659.0,6333.0,4844.0,0.1,-0.007,0.377,0.921
609659,543.0,5939.0,4916.0,0.101,-0.013,0.374,0.922
609675,461.0,5451.0,5064.0,0.101,-0.018,0.371,0.923
609691,275.0,5435.0,5266.0,0.101,-0.024,0.369,0.924
609708,123.0,6135.0,5428.0,0.101,-0.029,0.366,0.924
609724,137.0,6263.0,5716.0,0.101,-0.035,0.362,0.926
609741,57.0,6021.0,5928.0,0.1,-0.041,0.356,0.928
609758,-165.0,5469.0,6220.0,0.099,-0.048,0.349,0.931
609774,-451.0,5141.0,6444.0,0.097,-0.056,0.342,0.933
609791,-373.0,5129.0,6836.0,0.095,-0.064,0.334,0.935
609817,-457.0,5197.0,6918.0,0.092,-0.072,0.328,0.937
609833,-321.0,5417.0,7010.0,0.089,-0.081,0.322,0.939
609849,-531.0,5397.0,6908.0,0.087,-0.092,0.316,0.94
609865,-761.0,5295.0,6812.0,0.084,-0.103,0.309,0.942
609881,-1031.0,4935.0,6606.0,0.081,-0.116,0.302,0.943
609907,-1325.0,4659.0,6392.0,0.077,-0.129,0.295,0.944
609924,-1715.0,4373.0,6172.0,0.074,-0.142,0.287,0.944
609940,-2101.0,3925.0,5938.0,0.07,-0.156,0.279,0.945
609957,-2605.0,3373.0,5954.0,0.065,-0.169,0.269,0.946
609973,-2959.0,2991.0,5902.0,0.059,-0.18,0.26,0.947
609990,-3075.0,2647.0,5852.0,0.053,-0.191,0.252,0.947
610006,-3171.0,2635.0,5780.0,0.048,-0.201,0.246,0.947
610022,-3707.0,2803.0,5930.0,0.042,-0.21,0.241,0.947
610039,-4093.0,3129.0,5940.0,0.035,-0.219,0.235,0.946
610066,-4077.0,3215.0,5954.0,0.027,-0.228,0.227,0.946
610082,-4003.0,2991.0,5900.0,0.018,-0.236,0.217,0.947
610098,-3733.0,2355.0,5778.0,0.007,-0.243,0.206,0.948
610114,-3461.0,1583.0,5920.0,0.004,0.25,-0.197,-0.948
610130,-3347.0,1301.0,6452.0,0.014,0.257,-0.192,-0.947
610147,-3287.0,2107.0,6728.0,0.021,0.263,-0.192,-0.945
610164,-2813.0,3035.0,6552.0,0.025,0.27,-0.195,-0.943
610181,-2427.0,3233.0,6142.0,0.026,0.279,-0.198,-0.939
610198,-2071.0,3201.0,5774.0,0.026,0.288,-0.204,-0.935
610225,-3141.0,3781.0,6106.0,0.025,0.296,-0.209,-0.932
610241,-4039.0,4303.0,5440.0,0.025,0.304,-0.213,-0.928
610257,-4407.0,4079.0,4508.0,0.024,0.312,-0.216,-0.925
610274,-4483.0,3101.0,4216.0,0.022,0.317,-0.218,-0.923
610291,-4045.0,2947.0,3708.0,0.018,0.321,-0.222,-0.92
610307,-3699.0,3917.0,4300.0,0.015,0.323,-0.226,-0.919
610323,-4403.0,5973.0,5950.0,0.014,0.322,-0.222,-0.92
610340,-5375.0,6447.0,6876.0,0.014,0.32,-0.212,-0.923
610366,-4951.0,6713.0,7640.0,0.016,0.317,-0.194,-0.928
610382,-3885.0,5803.0,7976.0,0.019,0.318,-0.17,-0.932
610398,-3831.0,3275.0,8512.0,0.023,0.326,-0.145,-0.934
610414,-4173.0,1591.0,9166.0,0.024,0.337,-0.123,-0.933
610431,-3923.0,185.0,9054.0,0.021,0.352,-0.107,-0.929
610448,-4589.0,-595.0,8296.0,0.016,0.371,-0.097,-0.923
610464,-5015.0,-1233.0,7334.0,0.007,0.392,-0.092,-0.916
610490,-5507.0,-1601.0,6398.0,0.006,-0.414,0.093,0.906
610507,-6151.0,-2345.0,5958.0,0.024,-0.437,0.101,0.894
610524,-4755.0,55.0,5872.0,0.049,-0.463,0.114,0.877
610540,-5729.0,5063.0,5890.0,0.074,-0.494,0.123,0.858
610556,-6321.0,5299.0,6280.0,0.09,-0.525,0.124,0.837
610572,-7481.0,3765.0,5326.0,0.099,-0.553,0.116,0.819
610588,-7129.0,1467.0,3956.0,0.104,-0.579,0.103,0.802
610615,-6755.0,-303.0,2594.0,0.111,-0.604,0.089,0.784
610632,-7117.0,-937.0,2200.0,0.118,-0.627,0.077,0.766
610648,-7289.0,-963.0,1418.0,0.126,-0.651,0.066,0.746
610665,-7481.0,-591.0,376.0,0.133,-0.673,0.055,0.725
610681,-7503.0,231.0,-570.0,0.136,-0.696,0.042,0.704
610697,-8059.0,-183.0,-1350.0,0.134,-0.719,0.026,0.682
610714,-8363.0,-1613.0,-2100.0,0.13,-0.74,0.008,0.66
610731,-8507.0,-2893.0,-2614.0,0.128,-0.758,-0.007,0.64
610748,-8959.0,-2951.0,-2748.0,0.131,-0.772,-0.018,0.621
610765,-8529.0,-2277.0,-3538.0,0.14,-0.783,-0.026,0.605
610791,-7861.0,-2979.0,-3862.0,0.155,-0.791,-0.033,0.592
610807,-7637.0,-2087.0,-3956.0,0.178,-0.794,-0.045,0.579
610824,-8939.0,-137.0,-3856.0,0.207,-0.793,-0.057,0.57
610840,-7349.0,3301.0,-3996.0,0.228,-0.793,-0.071,0.56
610856,-6073.0,2243.0,-4150.0,0.237,-0.796,-0.09,0.55
610873,-5235.0,-197.0,-3856.0,0.24,-0.8,-0.115,0.538
610890,-5139.0,-2447.0,-3654.0,0.241,-0.804,-0.14,0.524
610907,-5147.0,-3271.0,-3630.0,0.244,-0.808,-0.165,0.51
610924,-4737.0,-2083.0,-4028.0,0.242,-0.812,-0.192,0.495
610951,-4227.0,-1293.0,-5078.0,0.23,-0.819,-0.224,0.476
610968,-3995.0,-4005.0,-5734.0,0.206,-0.827,-0.258,0.454
610984,-4687.0,-7119.0,-6740.0,0.176,-0.835,-0.292,0.433
611000,-4213.0,-6975.0,-7512.0,0.143,-0.839,-0.324,0.413
611016,-2819.0,-5663.0,-9440.0,0.109,-0.841,-0.356,0.392
611032,-4039.0,-3851.0,-9748.0,0.069,-0.841,-0.387,0.371
611048,-3947.0,-5025.0,-9094.0,0.028,-0.839,-0.416,0.351
611074,-3971.0,-6001.0,-8972.0,0.005,0.834,0.438,-0.336
611090,-3619.0,-3763.0,-8952.0,0.03,0.828,0.456,-0.326
611107,-3267.0,-4025.0,-7952.0,0.05,0.822,0.47,-0.318
611124,-3273.0,-3191.0,-7944.0,0.065,0.817,0.481,-0.313
611140,-3887.0,-3869.0,-8282.0,0.079,0.812,0.489,-0.308
611157,-4543.0,-4883.0,-9182.0,0.09,0.808,0.495,-0.306
611173,-4729.0,-4261.0,-10248.0,0.097,0.805,0.498,-0.307
611190,-5377.0,-3149.0,-10542.0,0.104,0.802,0.498,-0.312
611207,-5045.0,-2663.0,-10128.0,0.113,0.799,0.497,-0.319
611234,-4395.0,-2531.0,-8682.0,0.124,0.796,0.495,-0.326
611250,-2427.0,-3685.0,-6202.0,0.133,0.794,0.491,-0.332
611266,2727.0,3161.0,-318.0,0.136,0.796,0.489,-0.33
611282,-915.0,-2155.0,552.0,0.131,0.8,0.489,-0.321
611298,-4607.0,-1805.0,-1994.0,0.117,0.805,0.488,-0.317
611314,-4373.0,1081.0,-3750.0,0.102,0.811,0.483,-0.312
611340,-4883.0,-75.0,-6860.0,0.092,0.819,0.477,-0.304
611357,-5515.0,-1765.0,-10900.0,0.086,0.826,0.472,-0.295
611373,-4949.0,-307.0,-10782.0,0.083,0.833,0.466,-0.287
611390,-5369.0,-2485.0,-8920.0,0.088,0.839,0.46,-0.277
611407,-5141.0,-4033.0,-8740.0,0.096,0.844,0.453,-0.271
611423,-3625.0,-3889.0,-7850.0,0.103,0.85,0.442,-0.267
611440,31.0,-11.0,-2704.0,0.102,0.854,0.437,-0.264
611457,-1963.0,4305.0,-5518.0,0.09,0.858,0.433,-0.261
611473,-3447.0,5077.0,-7190.0,0.089,0.86,0.432,-0.255
611500,-3225.0,-1457.0,-5914.0,0.093,0.864,0.429,-0.248
611517,-3433.0,-1555.0,-7038.0,0.096,0.867,0.424,-0.242
611534,-3671.0,-2575.0,-7616.0,0.097,0.871,0.418,-0.237
611551,-3205.0,-1711.0,-6858.0,0.095,0.876,0.411,-0.234
611567,-3819.0,-367.0,-7494.0,0.092,0.88,0.403,-0.233
611583,-4039.0,-485.0,-8180.0,0.09,0.885,0.394,-0.233
611599,-3937.0,-1143.0,-9156.0,0.086,0.888,0.385,-0.235
611615,-4969.0,37.0,-7794.0,0.08,0.891,0.379,-0.238
611632,-5651.0,2917.0,-6036.0,0.077,0.891,0.379,-0.238
611658,-6733.0,95.0,-5612.0,0.079,0.89,0.382,-0.235
611675,-6089.0,-2749.0,-5050.0,0.078,0.889,0.386,-0.234
611691,-4741.0,129.0,-5334.0,0.076,0.888,0.388,-0.235
611707,-3449.0,287.0,-6158.0,0.075,0.886,0.39,-0.237
611723,-3361.0,-1019.0,-7308.0,0.074,0.885,0.392,-0.24
611739,-3411.0,-2233.0,-6074.0,0.072,0.883,0.394,-0.243
611765,-3655.0,-2809.0,-4474.0,0.071,0.88,0.399,-0.247
611782,-3723.0,-4325.0,-4700.0,0.065,0.877,0.402,-0.254
611799,-4949.0,-3219.0,-5782.0,0.057,0.876,0.403,-0.26
611816,-6619.0,-1279.0,-7184.0,0.052,0.874,0.403,-0.267
611832,-6307.0,1385.0,-9492.0,0.055,0.871,0.405,-0.273
611848,-6143.0,2585.0,-10362.0,0.065,0.867,0.409,-0.276
611864,-6299.0,479.0,-9418.0,0.078,0.863,0.414,-0.278
611880,-4421.0,891.0,-7306.0,0.087,0.859,0.417,-0.283
611907,-3111.0,1479.0,-7770.0,0.099,0.855,0.421,-0.286
611923,-3319.0,-1229.0,-8100.0,0.112,0.852,0.423,-0.288
611940,-3483.0,-2077.0,-7602.0,0.123,0.849,0.426,-0.287
611956,-2457.0,-2701.0,-5830.0,0.131,0.847,0.428,-0.286
611972,-3773.0,-2319.0,-4878.0,0.133,0.847,0.429,-0.286
611988,-4695.0,2261.0,-6248.0,0.135,0.847,0.428,-0.286
612004,-5117.0,305.0,-6634.0,0.139,0.847,0.427,-0.285
612031,-5357.0,-475.0,-6592.0,0.141,0.847,0.427,-0.284
612047,-5115.0,-1081.0,-6172.0,0.143,0.847,0.426,-0.283
612064,-5555.0,-1035.0,-6082.0,0.144,0.847,0.426,-0.284
612081,-5965.0,-25.0,-5684.0,0.143,0.847,0.425,-0.286
612098,-5649.0,671.0,-5928.0,0.145,0.846,0.425,-0.288
612114,-5111.0,-503.0,-6572.0,0.147,0.845,0.425,-0.29
612131,-4735.0,-515.0,-6886.0,0.148,0.843,0.427,-0.292
612147,-4827.0,-893.0,-6336.0,0.148,0.842,0.428,-0.294
612164,-5073.0,605.0,-6030.0,0.147,0.841,0.429,-0.296
612190,-5285.0,245.0,-6372.0,0.149,0.839,0.43,-0.297
612206,-5345.0,-269.0,-6492.0,0.15,0.838,0.431,-0.298
612223,-4947.0,-193.0,-6734.0,0.151,0.837,0.433,-0.298
612240,-4991.0,-281.0,-6760.0,0.152,0.836,0.435,-0.297
612257,-5037.0,-39.0,-6256.0,0.152,0.836,0.437,-0.295
612273,-4903.0,-139.0,-6560.0,0.152,0.837,0.437,-0.293
612290,-4167.0,1961.0,-6624.0,0.155,0.838,0.436,-0.289
612307,-3513.0,709.0,-6378.0,0.163,0.841,0.433,-0.28
612323,-3679.0,-3581.0,-7474.0,0.167,0.845,0.428,-0.273
612340,-5181.0,-3011.0,-9530.0,0.165,0.85,0.422,-0.269
612367,-5907.0,-2385.0,-6904.0,0.155,0.855,0.415,-0.272
612384,-5041.0,2855.0,-5800.0,0.147,0.859,0.409,-0.273
612401,-6277.0,2323.0,-4762.0,0.144,0.861,0.407,-0.27
612417,-6633.0,867.0,-4966.0,0.142,0.862,0.406,-0.269
612434,-5827.0,535.0,-5332.0,0.142,0.862,0.406,-0.268
612450,-5083.0,-307.0,-6212.0,0.144,0.862,0.406,-0.267
612466,-4653.0,-107.0,-6560.0,0.145,0.862,0.405,-0.268
612483,-4875.0,335.0,-6316.0,0.147,0.862,0.405,-0.268
612509,-5175.0,317.0,-6138.0,0.149,0.861,0.405,-0.269
612526,-5619.0,25.0,-5718.0,0.15,0.86,0.406,-0.27
612543,-6049.0,-357.0,-5702.0,0.151,0.858,0.408,-0.272
612560,-6477.0,153.0,-6242.0,0.154,0.856,0.41,-0.274
612577,-5751.0,285.0,-7062.0,0.159,0.853,0.412,-0.277
612594,-4217.0,195.0,-7408.0,0.163,0.85,0.415,-0.28
612611,-4241.0,-735.0,-6740.0,0.167,0.847,0.418,-0.283
612628,-4909.0,-853.0,-6706.0,0.17,0.844,0.42,-0.286
612645,-4467.0,223.0,-6516.0,0.172,0.842,0.423,-0.289
612662,-4959.0,611.0,-6374.0,0.174,0.839,0.425,-0.292
612679,-5111.0,615.0,-6374.0,0.177,0.837,0.426,-0.293
612696,-5377.0,131.0,-5694.0,0.181,0.835,0.428,-0.295
612713,-5379.0,593.0,-5976.0,0.185,0.832,0.43,-0.297
612730,-4983.0,523.0,-6712.0,0.189,0.83,0.433,-0.296
612747,-3987.0,1115.0,-7084.0,0.191,0.828,0.437,-0.294
612774,-4345.0,1287.0,-7172.0,0.194,0.828,0.44,-0.29
612790,-2389.0,2309.0,-8122.0,0.195,0.827,0.446,-0.281
612806,-6427.0,1349.0,-7724.0,0.196,0.825,0.455,-0.272
612822,-7261.0,-2797.0,-5418.0,0.199,0.823,0.459,-0.267
612839,-5971.0,-3693.0,-4750.0,0.197,0.822,0.462,-0.268
612856,-5633.0,-1649.0,-4416.0,0.195,0.823,0.461,-0.269
612873,-5399.0,1921.0,-5354.0,0.195,0.823,0.462,-0.268
612889,-6061.0,1449.0,-6592.0,0.199,0.821,0.464,-0.266
612916,-5551.0,-1607.0,-6340.0,0.198,0.82,0.466,-0.268
612932,-6145.0,899.0,-6792.0,0.188,0.819,0.467,-0.275
612948,-5445.0,3495.0,-6608.0,0.179,0.817,0.47,-0.283
612964,-5183.0,511.0,-4740.0,0.172,0.815,0.472,-0.289
612980,-5847.0,-1301.0,-4830.0,0.161,0.813,0.473,-0.299
612996,-5113.0,4547.0,-6868.0,0.156,0.81,0.476,-0.306
613022,-5945.0,1149.0,-6956.0,0.16,0.807,0.48,-0.305
613039,-6225.0,-957.0,-7380.0,0.167,0.804,0.483,-0.303
613056,-5083.0,-3757.0,-7126.0,0.172,0.803,0.485,-0.3
613072,-4925.0,-4755.0,-6882.0,0.173,0.804,0.484,-0.299
613089,-3719.0,-3421.0,-5946.0,0.171,0.805,0.482,-0.3
613106,-3723.0,-991.0,-5892.0,0.165,0.807,0.48,-0.302
613122,-4509.0,1689.0,-6776.0,0.16,0.809,0.477,-0.303
613139,-4879.0,1151.0,-6802.0,0.157,0.812,0.475,-0.302
613156,-5237.0,1259.0,-6486.0,0.158,0.814,0.473,-0.299
613172,-5159.0,-1099.0,-6220.0,0.161,0.815,0.471,-0.296
613199,-6017.0,-2243.0,-5208.0,0.161,0.816,0.469,-0.296
613215,-6359.0,-551.0,-5340.0,0.161,0.817,0.465,-0.299
613231,-6407.0,627.0,-5580.0,0.164,0.818,0.462,-0.301
613247,-5969.0,467.0,-5082.0,0.169,0.818,0.46,-0.303
613263,-6393.0,577.0,-4992.0,0.174,0.817,0.457,-0.305
613280,-6587.0,-453.0,-5738.0,0.181,0.816,0.455,-0.308
613296,-7219.0,-1139.0,-6208.0,0.183,0.815,0.453,-0.312
613323,-2457.0,269.0,-6026.0,0.181,0.814,0.451,-0.318
613339,-7815.0,-1333.0,-8206.0,0.183,0.811,0.454,-0.319
613356,-5385.0,-3659.0,-6212.0,0.182,0.808,0.457,-0.325
613373,-6761.0,-707.0,-4784.0,0.178,0.804,0.46,-0.332
613389,-5383.0,309.0,-5670.0,0.177,0.8,0.464,-0.337
613406,-5379.0,-245.0,-5754.0,0.177,0.796,0.468,-0.342
613423,-5315.0,367.0,-6058.0,0.177,0.792,0.47,-0.346
613439,-4887.0,-299.0,-5714.0,0.177,0.79,0.473,-0.349
613456,-5571.0,-707.0,-6410.0,0.177,0.788,0.474,-0.351
613482,-6431.0,51.0,-5558.0,0.177,0.787,0.474,-0.353
613498,-6343.0,277.0,-4748.0,0.179,0.785,0.474,-0.356
613514,-6997.0,-959.0,-5038.0,0.182,0.784,0.473,-0.359
613530,-6429.0,-503.0,-5702.0,0.185,0.782,0.472,-0.363
613547,-6031.0,-525.0,-6050.0,0.188,0.78,0.472,-0.366
613563,-6001.0,-1933.0,-6106.0,0.19,0.778,0.473,-0.368
613579,-5777.0,-1119.0,-5426.0,0.19,0.776,0.474,-0.37
613605,-4679.0,-1747.0,-6782.0,0.187,0.775,0.476,-0.37
613622,-4559.0,-271.0,-6926.0,0.182,0.775,0.48,-0.367
613639,-5029.0,511.0,-5652.0,0.178,0.777,0.485,-0.361
613655,-4869.0,-715.0,-6766.0,0.173,0.779,0.489,-0.353
613672,-6125.0,-1023.0,-5448.0,0.168,0.781,0.492,-0.344
613689,-6779.0,561.0,-4540.0,0.164,0.784,0.494,-0.338
613705,-4467.0,-399.0,-6630.0,0.162,0.787,0.496,-0.329
613722,-4957.0,-1545.0,-6290.0,0.16,0.791,0.497,-0.32
613739,-5687.0,-1059.0,-6378.0,0.157,0.795,0.498,-0.31
613756,-5685.0,-191.0,-6280.0,0.155,0.798,0.499,-0.299
613782,-6287.0,-1559.0,-5416.0,0.153,0.802,0.499,-0.291
613799,-6605.0,-815.0,-5410.0,0.151,0.806,0.497,-0.285
613817,-5845.0,-1283.0,-5634.0,0.15,0.809,0.495,-0.28
613834,-5687.0,-381.0,-5584.0,0.148,0.811,0.493,-0.277
613851,-5659.0,-777.0,-5638.0,0.148,0.813,0.491,-0.276
613867,-5929.0,-601.0,-5346.0,0.148,0.813,0.489,-0.277
613884,-6039.0,-539.0,-5658.0,0.149,0.813,0.488,-0.28
613900,-6117.0,-791.0,-5190.0,0.151,0.812,0.486,-0.286
613916,-6591.0,-715.0,-5084.0,0.154,0.81,0.483,-0.295
613942,-5025.0,-531.0,-7518.0,0.157,0.807,0.481,-0.305
613959,-6209.0,-675.0,-6364.0,0.161,0.803,0.482,-0.312
613976,-6325.0,-447.0,-5348.0,0.166,0.798,0.483,-0.319
613993,-6103.0,-1415.0,-5400.0,0.171,0.793,0.484,-0.328
614010,-6151.0,-1053.0,-6090.0,0.174,0.788,0.485,-0.337
614027,-5361.0,-1229.0,-7162.0,0.178,0.783,0.486,-0.345
614044,-5103.0,-511.0,-7728.0,0.181,0.778,0.489,-0.351
614061,-7115.0,173.0,-7726.0,0.185,0.774,0.487,-0.359
614078,-7829.0,-1815.0,-7138.0,0.19,0.771,0.485,-0.366
614095,-6793.0,-1403.0,-9318.0,0.194,0.769,0.483,-0.371
614112,-7769.0,-919.0,-8920.0,0.198,0.767,0.481,-0.376
614129,-7947.0,-887.0,-8170.0,0.202,0.766,0.477,-0.38
614146,-9711.0,231.0,-7074.0,0.207,0.765,0.472,-0.386
614172,-8679.0,-129.0,-7254.0,0.214,0.763,0.466,-0.393
614189,-7321.0,-115.0,-7666.0,0.22,0.761,0.46,-0.402
614206,-7555.0,735.0,-7200.0,0.227,0.758,0.454,-0.41
614223,-7945.0,-71.0,-5262.0,0.234,0.754,0.447,-0.42
614239,-7215.0,27.0,-4966.0,0.241,0.75,0.44,-0.432
614256,-6367.0,133.0,-5514.0,0.248,0.745,0.432,-0.444
614272,-6221.0,-803.0,-4958.0,0.254,0.739,0.426,-0.456
614289,-6021.0,409.0,-4192.0,0.258,0.734,0.42,-0.467
614305,-6453.0,-1095.0,-3340.0,0.261,0.73,0.413,-0.478
614332,-5967.0,2497.0,-2888.0,0.267,0.725,0.406,-0.488
614348,-5915.0,-2043.0,-3008.0,0.273,0.722,0.398,-0.496
614364,-5995.0,745.0,-3342.0,0.279,0.719,0.39,-0.504
614380,-6237.0,737.0,-1600.0,0.285,0.716,0.382,-0.51
614397,-6715.0,303.0,-648.0,0.291,0.714,0.372,-0.517
614413,-5877.0,1359.0,-1300.0,0.302,0.71,0.362,-0.522
614430,-5355.0,395.0,-694.0,0.313,0.706,0.355,-0.528
614456,-5045.0,-465.0,-1256.0,0.324,0.7,0.35,-0.531
614472,-3657.0,-4029.0,-3432.0,0.33,0.697,0.346,-0.535
614488,-4163.0,-263.0,-1334.0,0.327,0.697,0.341,-0.539
614504,-4075.0,1103.0,2.0,0.326,0.697,0.34,-0.541
614520,-3933.0,-987.0,-750.0,0.324,0.696,0.341,-0.542
614537,-3805.0,-777.0,-1084.0,0.32,0.695,0.344,-0.544
614554,-3025.0,257.0,-552.0,0.314,0.695,0.347,-0.545
614580,-3133.0,395.0,-854.0,0.309,0.695,0.353,-0.544
614596,-3131.0,57.0,-1072.0,0.304,0.695,0.361,-0.542
614613,-3445.0,-247.0,36.0,0.299,0.695,0.368,-0.541
614629,-3159.0,-2121.0,-2726.0,0.292,0.694,0.377,-0.539
614646,-4343.0,975.0,-536.0,0.28,0.695,0.385,-0.539
614662,-4197.0,1981.0,-108.0,0.274,0.694,0.393,-0.537
614679,-4235.0,-267.0,-1538.0,0.27,0.693,0.4,-0.535
614696,-6085.0,-2515.0,-2962.0,0.265,0.693,0.407,-0.532
614713,-6427.0,555.0,-1300.0,0.256,0.693,0.414,-0.531
614739,-6421.0,339.0,-552.0,0.252,0.693,0.421,-0.529
614755,-6723.0,263.0,-1902.0,0.25,0.692,0.426,-0.526
614771,-7499.0,-3423.0,-3340.0,0.247,0.692,0.431,-0.524
614787,-7709.0,457.0,-2060.0,0.242,0.693,0.436,-0.521
614804,-7715.0,-357.0,-1686.0,0.24,0.693,0.44,-0.518
614821,-9875.0,-1601.0,-1582.0,0.238,0.693,0.443,-0.516
614838,-9027.0,-2151.0,-3110.0,0.236,0.693,0.445,-0.516
614855,-7807.0,-379.0,-2094.0,0.236,0.692,0.447,-0.515
614872,-10119.0,-1445.0,-2374.0,0.236,0.691,0.449,-0.515
614889,-9777.0,-2073.0,-2548.0,0.238,0.689,0.451,-0.515
614915,-8647.0,-1309.0,-1724.0,0.24,0.685,0.453,-0.518
614931,-9151.0,-1697.0,-2918.0,0.242,0.682,0.454,-0.52
614947,-10251.0,-1519.0,-3010.0,0.244,0.68,0.454,-0.522
614963,-10239.0,-1947.0,-1514.0,0.246,0.678,0.454,-0.523
614979,-11013.0,-2165.0,-2480.0,0.249,0.676,0.452,-0.526
614995,-11857.0,-1941.0,-3006.0,0.252,0.674,0.45,-0.528
615022,-11785.0,-1881.0,-3016.0,0.254,0.673,0.448,-0.531
615039,-12729.0,-3173.0,-3332.0,0.255,0.672,0.447,-0.532
615055,-15091.0,-2041.0,-2846.0,0.255,0.67,0.446,-0.536
615071,-14733.0,-3199.0,-3468.0,0.256,0.668,0.444,-0.54
615088,-14971.0,-2005.0,-3978.0,0.256,0.666,0.443,-0.543
615104,-15251.0,-2859.0,-4178.0,0.255,0.662,0.444,-0.546
615121,-15025.0,-2987.0,-4124.0,0.254,0.659,0.447,-0.549
615138,-14359.0,-3001.0,-3694.0,0.251,0.656,0.449,-0.552
615155,-14169.0,-2571.0,-3580.0,0.249,0.654,0.451,-0.555
615172,-12175.0,-2509.0,-3806.0,0.246,0.652,0.454,-0.556
615198,-12155.0,-3107.0,-3076.0,0.242,0.651,0.457,-0.556
615215,-11237.0,-1811.0,-2690.0,0.239,0.65,0.459,-0.556
615231,-10839.0,-2729.0,-2260.0,0.236,0.651,0.461,-0.555
615247,-10431.0,-3101.0,-1964.0,0.233,0.651,0.462,-0.554
615263,-9885.0,-1799.0,-1834.0,0.231,0.653,0.463,-0.554
615279,-8695.0,-2325.0,-2274.0,0.23,0.654,0.462,-0.552
