timeMs,ax,ay,az,q0,q1,q2,q3
1385308,3001.0,-7848.0,597.0,0.523,-0.337,-0.632,0.462
1385324,3075.0,-7564.0,523.0,0.523,-0.337,-0.632,0.462
1385350,3129.0,-7488.0,343.0,0.522,-0.337,-0.633,0.462
1385366,3073.0,-7580.0,175.0,0.522,-0.337,-0.633,0.461
1385383,3095.0,-7642.0,197.0,0.522,-0.337,-0.634,0.461
1385400,2999.0,-7626.0,265.0,0.521,-0.337,-0.634,0.461
1385417,3099.0,-7540.0,359.0,0.521,-0.337,-0.635,0.46
1385433,3073.0,-7516.0,279.0,0.521,-0.337,-0.636,0.46
1385450,3075.0,-7770.0,175.0,0.52,-0.337,-0.636,0.46
1385467,3041.0,-7778.0,143.0,0.52,-0.337,-0.637,0.459
1385483,3039.0,-7592.0,139.0,0.52,-0.337,-0.637,0.459
1385500,3035.0,-7504.0,253.0,0.52,-0.337,-0.637,0.459
1385526,3019.0,-7634.0,147.0,0.519,-0.337,-0.638,0.458
1385542,3069.0,-7640.0,37.0,0.519,-0.338,-0.638,0.458
1385559,3081.0,-7630.0,-27.0,0.519,-0.338,-0.638,0.458
1385575,3107.0,-7540.0,21.0,0.518,-0.338,-0.639,0.457
1385592,3075.0,-7642.0,15.0,0.518,-0.339,-0.639,0.457
1385608,3083.0,-7592.0,7.0,0.517,-0.339,-0.639,0.457
1385625,3077.0,-7464.0,129.0,0.517,-0.339,-0.64,0.457
1385642,3123.0,-7328.0,145.0,0.517,-0.339,-0.64,0.456
1385668,3097.0,-7470.0,87.0,0.516,-0.34,-0.64,0.456
1385684,2965.0,-7620.0,-117.0,0.516,-0.34,-0.641,0.456
1385700,2995.0,-7644.0,-185.0,0.515,-0.34,-0.641,0.456
1385716,3037.0,-7610.0,-109.0,0.515,-0.34,-0.642,0.456
1385733,3051.0,-7664.0,-85.0,0.514,-0.34,-0.642,0.456
1385750,3033.0,-7706.0,-49.0,0.514,-0.34,-0.642,0.456
1385776,3011.0,-7630.0,-45.0,0.514,-0.34,-0.642,0.456
1385793,2978.0,-7721.0,-57.0,0.513,-0.34,-0.643,0.456
1385810,2925.0,-7705.0,-118.0,0.513,-0.34,-0.643,0.456
1385827,2939.0,-7763.0,-57.0,0.513,-0.34,-0.643,0.456
1385843,2959.0,-7746.0,41.0,0.512,-0.34,-0.643,0.456
1385859,2909.0,-7653.0,59.0,0.512,-0.34,-0.643,0.457
1385876,2929.0,-7601.0,-1.0,0.512,-0.34,-0.644,0.457
1385893,2986.0,-7604.0,-106.0,0.511,-0.34,-0.644,0.456
1385910,3000.0,-7574.0,-93.0,0.511,-0.34,-0.644,0.456
1385927,2977.0,-7646.0,-22.0,0.51,-0.34,-0.645,0.456
1385944,2963.0,-7646.0,-123.0,0.51,-0.34,-0.645,0.456
1385961,2955.0,-7630.0,-153.0,0.51,-0.34,-0.645,0.456
1385978,2949.0,-7554.0,-65.0,0.509,-0.34,-0.646,0.456
1386005,2965.0,-7532.0,11.0,0.509,-0.34,-0.646,0.456
1386022,2965.0,-7510.0,-19.0,0.509,-0.34,-0.646,0.456
1386039,3001.0,-7478.0,-169.0,0.508,-0.34,-0.646,0.456
1386056,2941.0,-7618.0,-167.0,0.508,-0.34,-0.647,0.456
1386072,2981.0,-7662.0,-101.0,0.508,-0.34,-0.647,0.456
1386089,2961.0,-7588.0,-47.0,0.508,-0.339,-0.647,0.456
1386106,3057.0,-7552.0,29.0,0.507,-0.339,-0.648,0.456
1386123,3003.0,-7526.0,-31.0,0.507,-0.339,-0.648,0.456
1386140,3157.0,-7644.0,-23.0,0.507,-0.339,-0.648,0.456
1386156,3145.0,-7720.0,-121.0,0.507,-0.338,-0.648,0.457
1386175,3179.0,-7626.0,-177.0,0.507,-0.338,-0.648,0.457
1386192,3089.0,-7424.0,-169.0,0.507,-0.337,-0.648,0.457
1386208,3023.0,-7360.0,-171.0,0.508,-0.336,-0.648,0.457
1386234,3039.0,-7284.0,-141.0,0.508,-0.336,-0.648,0.457
1386251,2981.0,-7230.0,-69.0,0.508,-0.335,-0.649,0.457
1386268,3219.0,-7382.0,-95.0,0.508,-0.335,-0.649,0.456
1386285,3143.0,-7636.0,-149.0,0.508,-0.335,-0.65,0.455
1386301,3211.0,-7858.0,-235.0,0.508,-0.336,-0.651,0.454
1386318,3159.0,-8046.0,-227.0,0.508,-0.336,-0.651,0.454
1386334,3173.0,-8014.0,-89.0,0.508,-0.336,-0.651,0.454
1386351,3133.0,-7680.0,-83.0,0.508,-0.335,-0.65,0.454
1386367,3073.0,-7396.0,-119.0,0.509,-0.335,-0.65,0.455
1386394,3129.0,-7332.0,-101.0,0.508,-0.335,-0.65,0.455
1386411,3115.0,-7496.0,-85.0,0.508,-0.336,-0.65,0.455
1386427,3065.0,-7456.0,-167.0,0.507,-0.336,-0.65,0.455
1386444,3091.0,-7532.0,-203.0,0.507,-0.337,-0.651,0.454
1386460,3025.0,-7488.0,-279.0,0.506,-0.337,-0.651,0.454
1386477,2989.0,-7464.0,-273.0,0.505,-0.338,-0.652,0.454
1386494,2999.0,-7534.0,-215.0,0.504,-0.338,-0.652,0.454
1386511,3029.0,-7458.0,-195.0,0.504,-0.339,-0.653,0.453
1386528,2973.0,-7400.0,-239.0,0.503,-0.339,-0.653,0.453
1386545,2971.0,-7410.0,-127.0,0.502,-0.339,-0.654,0.454
1386562,2943.0,-7346.0,-43.0,0.502,-0.338,-0.654,0.454
1386589,2969.0,-7098.0,-15.0,0.501,-0.338,-0.655,0.454
1386606,2889.0,-7162.0,-75.0,0.5,-0.338,-0.656,0.454
1386623,2951.0,-7358.0,-139.0,0.498,-0.338,-0.657,0.454
1386640,2781.0,-7594.0,-329.0,0.497,-0.338,-0.658,0.454
1386657,2989.0,-7680.0,-551.0,0.496,-0.337,-0.659,0.454
1386674,3021.0,-7688.0,-543.0,0.494,-0.337,-0.66,0.453
1386691,3139.0,-7662.0,-527.0,0.493,-0.337,-0.662,0.453
1386707,3105.0,-7894.0,-529.0,0.492,-0.337,-0.663,0.453
1386723,3115.0,-7920.0,-609.0,0.491,-0.336,-0.664,0.453
1386740,3101.0,-7748.0,-623.0,0.491,-0.336,-0.664,0.454
1386757,3039.0,-7580.0,-619.0,0.49,-0.335,-0.664,0.454
1386784,3043.0,-7322.0,-561.0,0.49,-0.335,-0.665,0.454
1386801,3057.0,-7516.0,-623.0,0.489,-0.335,-0.665,0.454
1386817,3097.0,-7650.0,-743.0,0.488,-0.335,-0.666,0.453
1386833,3107.0,-7620.0,-705.0,0.488,-0.335,-0.667,0.453
1386849,3147.0,-7632.0,-597.0,0.488,-0.335,-0.667,0.453
1386865,3107.0,-7570.0,-603.0,0.487,-0.335,-0.668,0.453
1386882,3077.0,-7522.0,-625.0,0.487,-0.334,-0.668,0.453
1386899,3143.0,-7490.0,-687.0,0.487,-0.334,-0.668,0.452
1386925,3131.0,-7540.0,-729.0,0.487,-0.334,-0.669,0.452
1386941,3091.0,-7582.0,-775.0,0.487,-0.334,-0.669,0.452
1386958,3099.0,-7510.0,-791.0,0.486,-0.333,-0.669,0.452
1386975,3027.0,-7514.0,-751.0,0.486,-0.333,-0.67,0.452
1386992,3023.0,-7462.0,-645.0,0.486,-0.333,-0.67,0.451
1387009,3053.0,-7474.0,-509.0,0.486,-0.333,-0.671,0.451
1387025,3047.0,-7528.0,-461.0,0.485,-0.332,-0.671,0.451
1387042,3037.0,-7608.0,-587.0,0.485,-0.332,-0.671,0.452
1387059,3111.0,-7726.0,-719.0,0.484,-0.332,-0.672,0.452
1387076,2957.0,-7498.0,-805.0,0.484,-0.331,-0.672,0.453
1387093,3137.0,-7486.0,-773.0,0.484,-0.331,-0.672,0.453
1387120,3065.0,-7584.0,-803.0,0.483,-0.331,-0.672,0.453
1387136,3037.0,-7744.0,-901.0,0.482,-0.33,-0.673,0.454
1387153,3097.0,-7732.0,-937.0,0.482,-0.33,-0.673,0.454
1387170,3077.0,-7698.0,-805.0,0.482,-0.329,-0.673,0.455
1387187,3113.0,-7706.0,-705.0,0.482,-0.329,-0.673,0.455
1387204,3193.0,-7574.0,-667.0,0.482,-0.328,-0.673,0.456
1387222,3279.0,-7628.0,-733.0,0.482,-0.328,-0.672,0.456
1387239,3125.0,-7686.0,-745.0,0.482,-0.327,-0.672,0.457
1387256,3081.0,-7620.0,-737.0,0.483,-0.327,-0.672,0.457
1387273,3025.0,-7534.0,-671.0,0.484,-0.326,-0.671,0.458
1387290,3035.0,-7356.0,-651.0,0.484,-0.326,-0.67,0.458
1387307,3029.0,-7330.0,-723.0,0.485,-0.326,-0.669,0.459
1387323,3047.0,-7306.0,-735.0,0.486,-0.325,-0.669,0.459
1387350,3073.0,-7394.0,-623.0,0.487,-0.325,-0.668,0.459
1387367,3095.0,-7402.0,-507.0,0.488,-0.324,-0.668,0.459
1387384,3023.0,-7516.0,-479.0,0.489,-0.324,-0.668,0.459
1387401,3115.0,-7598.0,-443.0,0.49,-0.323,-0.667,0.458
1387418,3107.0,-7572.0,-405.0,0.49,-0.323,-0.667,0.458
1387435,3119.0,-7550.0,-341.0,0.491,-0.323,-0.667,0.458
1387451,3147.0,-7536.0,-345.0,0.491,-0.323,-0.667,0.458
1387467,3147.0,-7574.0,-453.0,0.491,-0.323,-0.667,0.458
1387483,3195.0,-7488.0,-527.0,0.492,-0.322,-0.667,0.458
1387500,3101.0,-7420.0,-547.0,0.492,-0.322,-0.667,0.458
1387527,3069.0,-7310.0,-471.0,0.492,-0.322,-0.667,0.458
1387544,3063.0,-7280.0,-447.0,0.492,-0.321,-0.667,0.458
1387561,3003.0,-7336.0,-433.0,0.492,-0.321,-0.667,0.458
1387578,3097.0,-7360.0,-561.0,0.492,-0.321,-0.667,0.458
1387595,3093.0,-7384.0,-623.0,0.492,-0.321,-0.668,0.458
1387612,3119.0,-7494.0,-579.0,0.491,-0.321,-0.668,0.458
1387628,3141.0,-7632.0,-469.0,0.491,-0.32,-0.668,0.457
1387645,3137.0,-7730.0,-445.0,0.491,-0.32,-0.669,0.457
1387662,3127.0,-7670.0,-537.0,0.491,-0.32,-0.669,0.457
1387679,3165.0,-7534.0,-485.0,0.491,-0.32,-0.669,0.457
1387696,3187.0,-7502.0,-553.0,0.491,-0.32,-0.669,0.457
1387713,3211.0,-7450.0,-561.0,0.491,-0.32,-0.67,0.457
1387739,3233.0,-7504.0,-691.0,0.491,-0.32,-0.67,0.457
1387757,3247.0,-7580.0,-689.0,0.49,-0.32,-0.67,0.457
1387774,3167.0,-7594.0,-575.0,0.49,-0.319,-0.67,0.457
1387791,3081.0,-7516.0,-501.0,0.49,-0.319,-0.67,0.457
1387807,3125.0,-7450.0,-545.0,0.49,-0.319,-0.67,0.457
1387823,3175.0,-7386.0,-549.0,0.489,-0.319,-0.671,0.458
1387839,3155.0,-7430.0,-655.0,0.489,-0.319,-0.671,0.458
1387855,3153.0,-7514.0,-709.0,0.489,-0.318,-0.671,0.458
1387881,3135.0,-7458.0,-775.0,0.489,-0.318,-0.671,0.458
1387898,3187.0,-7376.0,-625.0,0.488,-0.318,-0.672,0.458
1387915,3177.0,-7544.0,-633.0,0.488,-0.318,-0.672,0.457
1387932,3179.0,-7628.0,-667.0,0.488,-0.318,-0.672,0.457
1387948,3225.0,-7552.0,-719.0,0.488,-0.318,-0.672,0.457
1387965,3207.0,-7538.0,-747.0,0.487,-0.318,-0.672,0.457
1387982,3241.0,-7512.0,-709.0,0.487,-0.318,-0.673,0.457
1387999,3245.0,-7520.0,-703.0,0.487,-0.318,-0.673,0.457
1388015,3219.0,-7550.0,-641.0,0.487,-0.318,-0.673,0.457
1388032,3229.0,-7624.0,-705.0,0.487,-0.318,-0.673,0.457
1388049,3203.0,-7532.0,-707.0,0.487,-0.318,-0.673,0.457
1388076,3187.0,-7472.0,-745.0,0.486,-0.318,-0.673,0.458
1388093,3141.0,-7448.0,-703.0,0.486,-0.318,-0.673,0.458
1388110,3125.0,-7520.0,-639.0,0.486,-0.318,-0.673,0.458
1388127,3177.0,-7506.0,-643.0,0.485,-0.318,-0.673,0.459
1388144,3133.0,-7502.0,-643.0,0.485,-0.318,-0.673,0.459
1388162,3111.0,-7508.0,-681.0,0.484,-0.318,-0.673,0.459
1388180,3115.0,-7524.0,-671.0,0.484,-0.318,-0.674,0.46
1388197,3145.0,-7414.0,-681.0,0.483,-0.318,-0.674,0.46
1388214,3057.0,-7364.0,-651.0,0.483,-0.318,-0.674,0.46
1388231,3061.0,-7292.0,-659.0,0.482,-0.318,-0.674,0.46
1388247,3053.0,-7376.0,-701.0,0.482,-0.318,-0.674,0.461
1388263,3067.0,-7432.0,-707.0,0.481,-0.318,-0.675,0.461
1388280,3099.0,-7468.0,-799.0,0.48,-0.318,-0.675,0.46
1388297,3093.0,-7498.0,-749.0,0.48,-0.318,-0.676,0.46
1388324,3093.0,-7508.0,-721.0,0.479,-0.318,-0.676,0.46
1388341,3047.0,-7494.0,-629.0,0.479,-0.318,-0.677,0.46
1388358,3093.0,-7506.0,-669.0,0.478,-0.318,-0.677,0.46
1388375,3063.0,-7510.0,-745.0,0.478,-0.318,-0.677,0.46
1388392,3077.0,-7462.0,-801.0,0.478,-0.318,-0.678,0.46
1388409,3075.0,-7484.0,-855.0,0.477,-0.318,-0.678,0.46
1388426,3063.0,-7516.0,-845.0,0.477,-0.318,-0.679,0.459
1388443,3139.0,-7518.0,-943.0,0.476,-0.318,-0.679,0.459
1388461,3199.0,-7634.0,-1023.0,0.476,-0.318,-0.679,0.459
1388478,3283.0,-7706.0,-977.0,0.477,-0.318,-0.679,0.458
1388495,3251.0,-7654.0,-961.0,0.477,-0.318,-0.679,0.458
1388512,3209.0,-7576.0,-871.0,0.477,-0.318,-0.679,0.458
1388529,3231.0,-7602.0,-881.0,0.478,-0.318,-0.679,0.457
1388546,3203.0,-7720.0,-967.0,0.478,-0.317,-0.679,0.457
1388563,3181.0,-7660.0,-1053.0,0.479,-0.317,-0.679,0.458
1388580,3231.0,-7544.0,-961.0,0.479,-0.317,-0.678,0.458
1388607,3125.0,-7508.0,-841.0,0.479,-0.317,-0.678,0.459
1388624,3219.0,-7424.0,-719.0,0.479,-0.317,-0.677,0.459
1388640,3185.0,-7388.0,-661.0,0.479,-0.317,-0.677,0.46
1388656,3193.0,-7378.0,-771.0,0.479,-0.317,-0.677,0.461
1388672,3129.0,-7408.0,-809.0,0.479,-0.318,-0.676,0.461
1388688,3115.0,-7440.0,-807.0,0.478,-0.318,-0.676,0.462
1388704,3137.0,-7394.0,-819.0,0.478,-0.319,-0.676,0.462
1388730,3045.0,-7414.0,-801.0,0.477,-0.319,-0.675,0.463
1388747,3087.0,-7388.0,-791.0,0.477,-0.319,-0.675,0.463
1388764,3019.0,-7402.0,-803.0,0.477,-0.32,-0.675,0.464
1388781,2963.0,-7536.0,-917.0,0.477,-0.32,-0.674,0.464
1388798,3009.0,-7700.0,-793.0,0.477,-0.32,-0.674,0.464
1388815,2991.0,-7684.0,-725.0,0.477,-0.32,-0.674,0.465
1388832,2971.0,-7560.0,-667.0,0.477,-0.32,-0.673,0.465
1388849,2961.0,-7560.0,-655.0,0.477,-0.32,-0.673,0.466
1388866,2927.0,-7588.0,-771.0,0.477,-0.32,-0.673,0.466
1388883,2897.0,-7568.0,-819.0,0.477,-0.321,-0.673,0.466
1388900,2915.0,-7548.0,-851.0,0.477,-0.321,-0.672,0.467
1388917,2965.0,-7586.0,-869.0,0.476,-0.321,-0.672,0.467
1388934,3007.0,-7606.0,-835.0,0.476,-0.321,-0.672,0.467
1388961,3035.0,-7678.0,-793.0,0.476,-0.321,-0.672,0.468
1388978,3047.0,-7692.0,-829.0,0.475,-0.321,-0.672,0.469
1388995,3017.0,-7730.0,-855.0,0.474,-0.322,-0.671,0.47
1389012,3027.0,-7650.0,-935.0,0.474,-0.322,-0.671,0.471
1389028,3023.0,-7476.0,-927.0,0.473,-0.322,-0.671,0.472
1389044,3033.0,-7412.0,-971.0,0.472,-0.323,-0.67,0.473
1389060,2893.0,-7596.0,-767.0,0.471,-0.323,-0.67,0.474
1389076,2931.0,-7786.0,-593.0,0.471,-0.323,-0.669,0.475
1389102,2891.0,-7616.0,-563.0,0.471,-0.323,-0.668,0.477
1389118,2843.0,-7448.0,-559.0,0.471,-0.323,-0.667,0.478
1389135,2779.0,-7450.0,-659.0,0.471,-0.324,-0.666,0.479
1389151,2797.0,-7522.0,-599.0,0.471,-0.324,-0.665,0.48
1389167,2685.0,-7452.0,-435.0,0.472,-0.324,-0.665,0.48
1389184,2763.0,-7502.0,-293.0,0.472,-0.324,-0.664,0.481
1389201,2679.0,-7492.0,-359.0,0.472,-0.324,-0.664,0.481
1389218,2621.0,-7640.0,-481.0,0.472,-0.324,-0.664,0.481
1389235,2617.0,-7790.0,-605.0,0.472,-0.324,-0.664,0.481
1389261,2657.0,-7762.0,-677.0,0.473,-0.324,-0.664,0.481
1389278,2761.0,-7534.0,-701.0,0.473,-0.324,-0.664,0.481
1389294,2771.0,-7478.0,-709.0,0.473,-0.324,-0.664,0.481
1389310,2787.0,-7596.0,-769.0,0.473,-0.324,-0.664,0.48
1389326,2827.0,-7752.0,-777.0,0.473,-0.324,-0.664,0.48
1389342,2869.0,-7778.0,-867.0,0.473,-0.324,-0.664,0.48
1389368,2861.0,-7712.0,-809.0,0.474,-0.324,-0.664,0.48
1389384,2937.0,-7856.0,-737.0,0.474,-0.323,-0.663,0.48
1389400,2899.0,-7904.0,-583.0,0.475,-0.323,-0.663,0.481
1389417,2913.0,-7922.0,-447.0,0.475,-0.323,-0.662,0.482
1389434,2847.0,-7880.0,-493.0,0.476,-0.323,-0.661,0.483
1389451,2765.0,-7786.0,-685.0,0.476,-0.322,-0.66,0.483
1389468,2717.0,-7712.0,-755.0,0.476,-0.322,-0.659,0.485
1389485,2727.0,-7668.0,-601.0,0.477,-0.321,-0.658,0.486
1389501,2669.0,-7512.0,-387.0,0.478,-0.321,-0.657,0.487
1389518,2647.0,-7360.0,-305.0,0.478,-0.32,-0.656,0.488
1389545,2647.0,-7354.0,-379.0,0.479,-0.32,-0.655,0.489
1389561,2703.0,-7470.0,-463.0,0.479,-0.319,-0.655,0.489
1389578,2757.0,-7614.0,-521.0,0.479,-0.319,-0.655,0.49
1389594,2855.0,-7664.0,-463.0,0.479,-0.319,-0.654,0.49
1389611,2873.0,-7656.0,-493.0,0.48,-0.319,-0.654,0.49
1389628,2941.0,-7746.0,-661.0,0.48,-0.319,-0.654,0.49
1389644,3237.0,-8194.0,-755.0,0.481,-0.319,-0.653,0.49
1389660,3065.0,-8346.0,-765.0,0.482,-0.319,-0.652,0.49
1389686,2977.0,-8240.0,-781.0,0.485,-0.318,-0.65,0.491
1389702,2833.0,-8118.0,-699.0,0.488,-0.317,-0.648,0.493
1389718,3203.0,-7830.0,-263.0,0.491,-0.316,-0.645,0.493
1389734,3255.0,-7976.0,-63.0,0.495,-0.315,-0.642,0.493
1389751,3331.0,-8276.0,-7.0,0.5,-0.314,-0.639,0.493
1389767,3275.0,-8184.0,7.0,0.504,-0.314,-0.635,0.494
1389793,3259.0,-7784.0,-7.0,0.509,-0.313,-0.631,0.495
1389809,3205.0,-7610.0,-57.0,0.513,-0.313,-0.627,0.496
1389825,3155.0,-7562.0,-5.0,0.517,-0.313,-0.623,0.497
1389841,3065.0,-7664.0,149.0,0.52,-0.313,-0.619,0.499
1389857,3101.0,-7472.0,265.0,0.523,-0.313,-0.615,0.5
1389873,2975.0,-7366.0,427.0,0.526,-0.313,-0.611,0.502
1389899,2781.0,-7500.0,529.0,0.528,-0.314,-0.607,0.505
1389916,2649.0,-7678.0,467.0,0.529,-0.314,-0.603,0.507
1389933,2799.0,-7680.0,445.0,0.531,-0.315,-0.599,0.51
1389950,2875.0,-7624.0,639.0,0.532,-0.316,-0.595,0.513
1389967,2801.0,-7452.0,963.0,0.533,-0.317,-0.591,0.515
1389984,2747.0,-7132.0,979.0,0.534,-0.319,-0.588,0.518
1390001,2661.0,-7456.0,705.0,0.534,-0.321,-0.585,0.519
1390018,2809.0,-7616.0,829.0,0.536,-0.323,-0.581,0.52
1390034,2905.0,-7590.0,1181.0,0.538,-0.324,-0.578,0.521
1390050,2917.0,-7470.0,1359.0,0.54,-0.327,-0.575,0.521
1390076,3467.0,-7606.0,1161.0,0.541,-0.329,-0.572,0.521
1390092,3277.0,-7368.0,1183.0,0.543,-0.332,-0.57,0.52
1390108,3325.0,-7140.0,1589.0,0.543,-0.336,-0.568,0.519
1390124,3657.0,-8234.0,1005.0,0.542,-0.342,-0.568,0.517
1390140,3745.0,-7358.0,1303.0,0.541,-0.348,-0.568,0.514
1390156,3161.0,-8618.0,1557.0,0.539,-0.354,-0.566,0.513
1390182,3591.0,-8714.0,1663.0,0.538,-0.361,-0.563,0.513
1390198,3501.0,-8570.0,1365.0,0.536,-0.368,-0.558,0.515
1390214,3411.0,-8472.0,865.0,0.532,-0.377,-0.554,0.517
1390230,3295.0,-8634.0,727.0,0.527,-0.388,-0.549,0.52
1390246,3291.0,-9598.0,949.0,0.522,-0.399,-0.543,0.523
1390262,3333.0,-8968.0,1631.0,0.516,-0.413,-0.534,0.527
1390279,2583.0,-10992.0,1315.0,0.507,-0.431,-0.524,0.533
1390306,2199.0,-11082.0,899.0,0.495,-0.448,-0.513,0.539
1390322,2385.0,-10824.0,315.0,0.485,-0.464,-0.5,0.547
1390338,1965.0,-10452.0,-9.0,0.474,-0.48,-0.483,0.558
1390354,1529.0,-9788.0,-25.0,0.463,-0.496,-0.464,0.57
1390370,1169.0,-8878.0,-7.0,0.451,-0.511,-0.444,0.582
1390386,765.0,-8430.0,151.0,0.436,-0.527,-0.424,0.593
1390403,293.0,-8098.0,205.0,0.418,-0.544,-0.405,0.605
1390429,-127.0,-7356.0,311.0,0.397,-0.561,-0.385,0.616
1390445,-585.0,-6884.0,563.0,0.374,-0.578,-0.365,0.626
1390461,-973.0,-6678.0,465.0,0.349,-0.595,-0.346,0.636
1390477,-1741.0,-6964.0,109.0,0.324,-0.611,-0.326,0.645
1390493,-2185.0,-7010.0,-47.0,0.301,-0.625,-0.304,0.653
1390509,-2597.0,-6308.0,129.0,0.279,-0.637,-0.279,0.662
1390535,-3111.0,-5176.0,471.0,0.258,-0.648,-0.253,0.67
1390551,-3611.0,-4712.0,403.0,0.236,-0.659,-0.227,0.677
1390568,-4019.0,-4328.0,171.0,0.214,-0.67,-0.201,0.682
1390584,-4499.0,-3706.0,247.0,0.193,-0.681,-0.175,0.685
1390600,-5019.0,-2838.0,533.0,0.172,-0.691,-0.149,0.686
1390616,-5699.0,-2380.0,423.0,0.15,-0.702,-0.123,0.686
1390634,-6265.0,-1920.0,541.0,0.128,-0.712,-0.098,0.683
1390651,-6351.0,-1332.0,239.0,0.107,-0.722,-0.073,0.679
1390678,-6611.0,-1106.0,-157.0,0.088,-0.732,-0.047,0.674
1390695,-7045.0,-756.0,-543.0,0.069,-0.741,-0.023,0.668
1390712,-7337.0,-62.0,-1057.0,0.051,-0.748,0.001,0.661
1390729,-7563.0,1072.0,-1333.0,0.033,-0.755,0.024,0.654
1390745,-7877.0,2038.0,-1277.0,0.013,-0.76,0.045,0.648
1390762,-7781.0,2466.0,-1269.0,0.011,0.764,-0.062,-0.642
1390778,-7869.0,1594.0,-1399.0,0.038,0.765,-0.076,-0.638
1390795,-7467.0,1420.0,-1243.0,0.065,0.765,-0.09,-0.635
1390812,-6845.0,1902.0,-647.0,0.092,0.763,-0.103,-0.632
1390829,-6499.0,2588.0,-145.0,0.119,0.759,-0.118,-0.629
1390846,-5945.0,2896.0,-307.0,0.145,0.755,-0.134,-0.626
1390863,-4979.0,4646.0,-295.0,0.17,0.75,-0.15,-0.622
1390890,-4865.0,5062.0,283.0,0.195,0.745,-0.165,-0.617
1390907,-4887.0,5448.0,-73.0,0.218,0.739,-0.18,-0.611
1390923,-4677.0,6418.0,-605.0,0.239,0.734,-0.194,-0.605
1390939,-4593.0,7274.0,-965.0,0.258,0.728,-0.208,-0.6
1390955,-4617.0,7664.0,-899.0,0.276,0.723,-0.22,-0.594
1390972,-4801.0,7638.0,-909.0,0.292,0.717,-0.231,-0.589
1390988,-4861.0,7728.0,-1193.0,0.306,0.712,-0.242,-0.585
1391014,-4935.0,7542.0,-1379.0,0.317,0.706,-0.251,-0.581
1391031,-5181.0,7794.0,-1803.0,0.328,0.7,-0.261,-0.578
1391047,-6329.0,8236.0,-2109.0,0.339,0.693,-0.269,-0.576
1391064,-6127.0,8344.0,-1205.0,0.353,0.683,-0.274,-0.577
1391080,-4985.0,7028.0,-437.0,0.368,0.672,-0.279,-0.579
1391097,-4137.0,5652.0,-303.0,0.381,0.662,-0.285,-0.58
1391114,-3769.0,5934.0,-203.0,0.388,0.655,-0.296,-0.577
1391131,-3611.0,7000.0,-179.0,0.392,0.652,-0.31,-0.57
1391147,-3329.0,7412.0,-29.0,0.393,0.651,-0.324,-0.563
1391164,-3015.0,7220.0,-247.0,0.393,0.651,-0.338,-0.555
1391190,-3219.0,7586.0,-637.0,0.39,0.651,-0.353,-0.547
1391206,-2939.0,8432.0,-1475.0,0.387,0.652,-0.367,-0.539
1391222,-2977.0,10014.0,-1935.0,0.386,0.65,-0.379,-0.534
1391238,-2333.0,10388.0,-1243.0,0.39,0.645,-0.385,-0.533
1391255,-2441.0,8044.0,-1083.0,0.397,0.639,-0.387,-0.534
1391271,-3275.0,6438.0,-1413.0,0.4,0.635,-0.389,-0.535
1391288,-3787.0,6284.0,-1499.0,0.399,0.633,-0.394,-0.534
1391314,-3669.0,6690.0,-1721.0,0.393,0.633,-0.403,-0.532
1391331,-2999.0,7424.0,-2157.0,0.385,0.633,-0.413,-0.53
1391347,-2685.0,8118.0,-2339.0,0.377,0.634,-0.422,-0.527
1391363,-3265.0,8706.0,-2067.0,0.371,0.634,-0.429,-0.526
1391380,-4373.0,8640.0,-1339.0,0.368,0.633,-0.434,-0.525
1391397,-4337.0,8486.0,-1281.0,0.366,0.631,-0.438,-0.525
1391414,-2897.0,7672.0,-239.0,0.364,0.632,-0.441,-0.522
1391430,-2961.0,9314.0,223.0,0.359,0.636,-0.444,-0.519
1391457,-3047.0,10592.0,-395.0,0.358,0.638,-0.445,-0.516
1391473,-3581.0,8934.0,-1177.0,0.359,0.638,-0.446,-0.515
1391489,-4679.0,8992.0,-2057.0,0.359,0.637,-0.447,-0.515
1391505,-3273.0,11536.0,-2619.0,0.362,0.634,-0.446,-0.518
1391521,-2467.0,8752.0,-2399.0,0.369,0.629,-0.44,-0.524
1391537,-2975.0,6888.0,-2121.0,0.374,0.626,-0.434,-0.53
1391554,-2371.0,6696.0,-1635.0,0.376,0.625,-0.428,-0.534
1391571,-3103.0,6134.0,-1097.0,0.377,0.625,-0.421,-0.538
1391597,-2867.0,6384.0,-861.0,0.376,0.627,-0.416,-0.54
1391614,-1789.0,6902.0,-611.0,0.377,0.63,-0.41,-0.541
1391630,-2889.0,7978.0,313.0,0.378,0.633,-0.401,-0.544
1391647,-2883.0,6652.0,307.0,0.382,0.634,-0.391,-0.547
1391664,-4139.0,5428.0,-149.0,0.385,0.634,-0.383,-0.55
1391680,-4045.0,4874.0,-1391.0,0.385,0.634,-0.381,-0.552
1391696,-3323.0,6034.0,-1711.0,0.383,0.634,-0.381,-0.553
1391713,-3209.0,6750.0,-1551.0,0.382,0.634,-0.382,-0.553
1391740,-2977.0,8450.0,-1977.0,0.381,0.635,-0.381,-0.555
1391756,-3729.0,9228.0,-1503.0,0.383,0.633,-0.375,-0.558
1391772,-4781.0,8450.0,-427.0,0.39,0.628,-0.367,-0.564
1391788,-4597.0,6602.0,637.0,0.397,0.622,-0.36,-0.571
1391804,-3623.0,7570.0,1631.0,0.402,0.617,-0.356,-0.575
1391820,-3307.0,8274.0,2235.0,0.407,0.614,-0.35,-0.578
1391847,-3681.0,6900.0,2101.0,0.411,0.612,-0.346,-0.58
1391863,-3597.0,6764.0,2135.0,0.412,0.614,-0.344,-0.579
1391880,-3849.0,7148.0,1871.0,0.411,0.617,-0.343,-0.577
1391897,-3257.0,9254.0,2309.0,0.412,0.619,-0.338,-0.577
1391913,-4769.0,7892.0,2375.0,0.417,0.618,-0.329,-0.58
1391929,-4951.0,5974.0,2233.0,0.422,0.615,-0.321,-0.583
1391945,-4361.0,5826.0,2299.0,0.425,0.613,-0.316,-0.586
1391961,-4273.0,6082.0,1587.0,0.43,0.611,-0.312,-0.587
1391987,-4903.0,5348.0,759.0,0.433,0.608,-0.312,-0.588
1392004,-5367.0,5946.0,269.0,0.435,0.604,-0.316,-0.588
1392020,-4661.0,7452.0,459.0,0.439,0.597,-0.322,-0.589
1392037,-3635.0,7340.0,1019.0,0.445,0.589,-0.325,-0.591
1392053,-3459.0,7014.0,947.0,0.451,0.581,-0.328,-0.593
1392070,-3239.0,6092.0,257.0,0.456,0.573,-0.332,-0.595
1392087,-2889.0,5876.0,-477.0,0.457,0.569,-0.34,-0.593
1392104,-3129.0,6036.0,-579.0,0.455,0.567,-0.353,-0.589
1392121,-3011.0,5006.0,-1237.0,0.447,0.567,-0.372,-0.583
1392138,-2453.0,5970.0,-2117.0,0.435,0.57,-0.395,-0.574
1392164,-2503.0,7518.0,-3755.0,0.421,0.573,-0.418,-0.566
1392180,-2419.0,9222.0,-4941.0,0.408,0.575,-0.437,-0.559
1392197,-1669.0,12378.0,-3669.0,0.401,0.575,-0.445,-0.556
1392213,-2981.0,10152.0,-2525.0,0.402,0.572,-0.444,-0.56
1392230,-3503.0,7200.0,-1649.0,0.404,0.567,-0.443,-0.565
1392247,-3419.0,5988.0,-1457.0,0.402,0.562,-0.445,-0.569
1392264,-2341.0,5196.0,-475.0,0.396,0.56,-0.453,-0.57
1392281,-1955.0,6762.0,795.0,0.388,0.563,-0.46,-0.567
1392297,-2455.0,9142.0,671.0,0.38,0.567,-0.467,-0.562
1392323,-1253.0,12252.0,1125.0,0.379,0.57,-0.466,-0.561
1392339,-4403.0,8868.0,677.0,0.38,0.571,-0.466,-0.559
1392355,-5901.0,9956.0,-213.0,0.378,0.568,-0.469,-0.561
1392371,-1733.0,11100.0,523.0,0.379,0.561,-0.47,-0.566
1392387,-3613.0,9660.0,-281.0,0.382,0.555,-0.468,-0.572
1392404,-3303.0,8640.0,-459.0,0.386,0.548,-0.467,-0.577
1392421,-2191.0,7784.0,57.0,0.389,0.544,-0.465,-0.58
1392447,-2553.0,5814.0,201.0,0.392,0.541,-0.464,-0.582
1392463,-2091.0,5578.0,593.0,0.393,0.541,-0.464,-0.581
1392480,-2569.0,5836.0,423.0,0.393,0.542,-0.466,-0.579
1392496,-2153.0,6260.0,521.0,0.392,0.544,-0.468,-0.575
1392512,-2475.0,7300.0,-77.0,0.389,0.547,-0.472,-0.571
1392528,-2389.0,7958.0,-359.0,0.387,0.55,-0.475,-0.568
1392545,-2347.0,8686.0,-549.0,0.385,0.552,-0.478,-0.564
1392572,-2771.0,8260.0,-1033.0,0.383,0.554,-0.48,-0.562
1392588,-2537.0,7434.0,-1101.0,0.38,0.555,-0.482,-0.561
1392604,-2121.0,7806.0,-1287.0,0.378,0.557,-0.485,-0.558
1392620,-2153.0,9328.0,-1587.0,0.375,0.558,-0.486,-0.558
1392637,-1617.0,9292.0,-651.0,0.376,0.559,-0.484,-0.559
1392654,-1659.0,8282.0,327.0,0.377,0.56,-0.481,-0.559
1392670,-2485.0,8068.0,373.0,0.378,0.561,-0.479,-0.559
1392687,-1577.0,8360.0,-47.0,0.379,0.562,-0.478,-0.558
1392704,-1603.0,8602.0,-413.0,0.381,0.562,-0.477,-0.558
1392730,-1659.0,8316.0,-969.0,0.383,0.562,-0.476,-0.558
1392746,-1657.0,7712.0,-1131.0,0.385,0.562,-0.476,-0.557
1392763,-1963.0,3522.0,-595.0,0.386,0.56,-0.48,-0.555
1392780,-2619.0,6582.0,-805.0,0.386,0.562,-0.479,-0.553
1392796,-2031.0,7680.0,23.0,0.385,0.563,-0.481,-0.55
1392813,-3009.0,9234.0,-405.0,0.385,0.564,-0.483,-0.547
1392829,-2985.0,9330.0,-633.0,0.387,0.564,-0.484,-0.546
1392846,-3345.0,8266.0,-493.0,0.388,0.56,-0.486,-0.547
1392863,-3167.0,7618.0,-803.0,0.389,0.556,-0.489,-0.548
1392890,-3057.0,6894.0,-497.0,0.389,0.552,-0.492,-0.55
1392906,-2323.0,6956.0,-705.0,0.389,0.549,-0.496,-0.549
1392922,-2821.0,8180.0,-1179.0,0.388,0.547,-0.498,-0.549
1392938,-2347.0,8028.0,-1301.0,0.389,0.546,-0.499,-0.55
1392954,-2113.0,7750.0,-1325.0,0.39,0.545,-0.499,-0.55
1392970,-1957.0,6708.0,-815.0,0.391,0.544,-0.497,-0.551
1392987,-2061.0,7166.0,-497.0,0.392,0.544,-0.496,-0.551
1393013,-2295.0,7350.0,97.0,0.391,0.545,-0.495,-0.552
1393030,-2539.0,8506.0,179.0,0.39,0.546,-0.495,-0.552
1393046,-2521.0,8668.0,259.0,0.389,0.546,-0.494,-0.553
1393063,-2381.0,8342.0,191.0,0.388,0.545,-0.494,-0.556
1393079,-2467.0,7924.0,-49.0,0.387,0.543,-0.494,-0.559
1393095,-2277.0,8302.0,-139.0,0.385,0.541,-0.494,-0.561
1393112,-2409.0,8498.0,-509.0,0.383,0.539,-0.495,-0.564
1393129,-2253.0,8190.0,-635.0,0.381,0.537,-0.495,-0.566
1393156,-2147.0,8232.0,-783.0,0.38,0.535,-0.496,-0.569
1393172,-2101.0,7832.0,-489.0,0.379,0.532,-0.496,-0.571
1393188,-2337.0,7642.0,-279.0,0.378,0.53,-0.497,-0.573
1393204,-2347.0,7858.0,-237.0,0.376,0.529,-0.499,-0.574
1393220,-2309.0,8078.0,-245.0,0.375,0.527,-0.501,-0.576
1393236,-2325.0,7942.0,-237.0,0.374,0.524,-0.502,-0.577
1393253,-2341.0,7800.0,-355.0,0.372,0.522,-0.504,-0.579
1393280,-2365.0,8018.0,-329.0,0.371,0.519,-0.505,-0.581
1393296,-2239.0,7578.0,-239.0,0.371,0.517,-0.505,-0.584
1393313,-2207.0,7414.0,-265.0,0.369,0.515,-0.505,-0.586
1393330,-2499.0,8090.0,-267.0,0.368,0.513,-0.506,-0.587
1393346,-2445.0,8370.0,37.0,0.368,0.511,-0.507,-0.589
1393362,-2353.0,8310.0,97.0,0.367,0.508,-0.507,-0.592
1393379,-2305.0,7734.0,-107.0,0.367,0.505,-0.508,-0.594
1393396,-2281.0,7776.0,-329.0,0.366,0.503,-0.509,-0.595
1393413,-2709.0,7844.0,-25.0,0.365,0.501,-0.51,-0.596
1393439,-2449.0,7682.0,-171.0,0.364,0.499,-0.512,-0.597
1393455,-1641.0,7578.0,-449.0,0.363,0.497,-0.514,-0.597
1393471,-1857.0,8010.0,-435.0,0.363,0.496,-0.515,-0.598
1393487,-1613.0,7674.0,-563.0,0.362,0.495,-0.515,-0.598
1393503,-2121.0,7540.0,55.0,0.362,0.495,-0.516,-0.598
1393520,-2729.0,8508.0,485.0,0.36,0.495,-0.519,-0.596
1393536,-2567.0,9156.0,109.0,0.36,0.494,-0.522,-0.595
1393562,-2057.0,8714.0,-81.0,0.361,0.492,-0.524,-0.594
1393579,-1927.0,7706.0,157.0,0.361,0.49,-0.526,-0.594
1393595,-1919.0,7160.0,317.0,0.361,0.488,-0.528,-0.594
1393611,-1957.0,7446.0,311.0,0.359,0.487,-0.53,-0.594
1393627,-2243.0,7596.0,-199.0,0.357,0.485,-0.532,-0.595
1393644,-2337.0,7770.0,-679.0,0.355,0.484,-0.533,-0.597
1393661,-2219.0,8446.0,-559.0,0.353,0.483,-0.534,-0.598
1393687,-1935.0,8172.0,-145.0,0.352,0.482,-0.534,-0.599
1393703,-2361.0,8036.0,-229.0,0.351,0.481,-0.535,-0.599
1393720,-1987.0,7910.0,-433.0,0.351,0.479,-0.536,-0.6
1393736,-1661.0,8268.0,-493.0,0.351,0.478,-0.537,-0.6
1393753,-2371.0,7686.0,-175.0,0.351,0.477,-0.538,-0.599
1393770,-1903.0,7608.0,97.0,0.351,0.477,-0.539,-0.599
1393787,-1851.0,8128.0,311.0,0.35,0.476,-0.541,-0.598
1393804,-2123.0,8006.0,-389.0,0.348,0.476,-0.543,-0.598
1393820,-1943.0,8160.0,-471.0,0.347,0.476,-0.544,-0.597
1393837,-2191.0,8540.0,-379.0,0.346,0.475,-0.546,-0.597
1393863,-1927.0,8944.0,-583.0,0.346,0.475,-0.547,-0.596
1393879,-1775.0,9464.0,-801.0,0.346,0.475,-0.548,-0.595
1393896,-2127.0,9044.0,-391.0,0.347,0.474,-0.548,-0.596
1393912,-2035.0,7166.0,195.0,0.349,0.472,-0.545,-0.598
1393929,-2041.0,6600.0,-151.0,0.35,0.47,-0.544,-0.6
1393946,-2213.0,8072.0,-469.0,0.35,0.469,-0.544,-0.601
1393963,-2079.0,8072.0,-387.0,0.352,0.468,-0.544,-0.601
1393979,-1847.0,8170.0,-291.0,0.353,0.468,-0.544,-0.6
1394005,-2419.0,8218.0,-81.0,0.355,0.467,-0.545,-0.599
1394022,-2069.0,8450.0,-137.0,0.357,0.466,-0.546,-0.598
1394038,-2049.0,8452.0,-99.0,0.36,0.464,-0.547,-0.597
1394055,-2143.0,7732.0,23.0,0.363,0.462,-0.547,-0.596
1394071,-1645.0,7952.0,-71.0,0.367,0.46,-0.548,-0.595
1394087,-1429.0,7916.0,67.0,0.37,0.458,-0.549,-0.593
1394103,-1291.0,8174.0,-13.0,0.374,0.457,-0.55,-0.591
1394120,-1153.0,7528.0,-67.0,0.378,0.455,-0.551,-0.589
1394147,-1325.0,7536.0,-25.0,0.381,0.454,-0.552,-0.586
1394163,-839.0,7976.0,-235.0,0.385,0.453,-0.553,-0.584
1394179,-1149.0,8138.0,7.0,0.388,0.452,-0.554,-0.581
1394196,-1071.0,7882.0,-265.0,0.392,0.452,-0.555,-0.578
1394212,-985.0,7928.0,-181.0,0.396,0.452,-0.555,-0.575
1394229,-1123.0,7806.0,-141.0,0.399,0.452,-0.556,-0.572
1394246,-951.0,7526.0,-259.0,0.403,0.453,-0.556,-0.569
1394263,-875.0,7534.0,-213.0,0.406,0.454,-0.555,-0.566
1394289,-771.0,7730.0,-117.0,0.409,0.456,-0.555,-0.563
1394306,-973.0,8206.0,-181.0,0.412,0.458,-0.555,-0.559
1394322,-1083.0,8408.0,-209.0,0.415,0.46,-0.553,-0.556
1394338,-1069.0,8172.0,-251.0,0.418,0.463,-0.552,-0.553
1394354,-983.0,6378.0,-1163.0,0.425,0.462,-0.549,-0.552
1394371,-1197.0,9414.0,-613.0,0.427,0.467,-0.547,-0.548
1394388,-753.0,9258.0,-359.0,0.43,0.469,-0.545,-0.545
1394405,-813.0,8322.0,155.0,0.434,0.472,-0.543,-0.542
1394421,-621.0,8550.0,349.0,0.437,0.474,-0.543,-0.539
1394447,-597.0,8972.0,-35.0,0.44,0.475,-0.541,-0.537
1394463,-795.0,8000.0,103.0,0.443,0.475,-0.54,-0.535
1394479,-715.0,8306.0,161.0,0.446,0.475,-0.539,-0.534
1394496,-653.0,8552.0,-109.0,0.448,0.474,-0.538,-0.533
1394512,-861.0,7390.0,-295.0,0.451,0.474,-0.537,-0.533
1394529,-393.0,8218.0,-319.0,0.452,0.474,-0.536,-0.533
1394545,-573.0,7960.0,-399.0,0.454,0.474,-0.535,-0.532
1394571,-773.0,8334.0,-215.0,0.455,0.475,-0.534,-0.531
1394588,-737.0,8476.0,53.0,0.456,0.475,-0.534,-0.531
1394604,-1183.0,8190.0,81.0,0.457,0.475,-0.533,-0.531
1394620,-859.0,8126.0,81.0,0.458,0.475,-0.532,-0.531
1394636,-597.0,8414.0,233.0,0.459,0.474,-0.532,-0.531
1394662,-595.0,8442.0,-1.0,0.459,0.473,-0.532,-0.531
1394679,-497.0,8502.0,85.0,0.46,0.471,-0.533,-0.532
1394695,-567.0,8590.0,19.0,0.46,0.469,-0.534,-0.533
1394711,-553.0,8134.0,121.0,0.46,0.466,-0.535,-0.534
1394727,-473.0,8252.0,57.0,0.46,0.463,-0.537,-0.535
1394743,-447.0,8038.0,9.0,0.459,0.459,-0.539,-0.537
1394760,-455.0,7934.0,-17.0,0.458,0.456,-0.541,-0.538
1394777,-417.0,8088.0,-53.0,0.456,0.454,-0.543,-0.54
1394794,-401.0,8016.0,-9.0,0.453,0.451,-0.545,-0.542
1394820,-593.0,8390.0,51.0,0.451,0.449,-0.548,-0.544
1394836,-623.0,8208.0,75.0,0.448,0.446,-0.55,-0.547
1394852,-487.0,8234.0,155.0,0.444,0.443,-0.552,-0.55
1394869,-583.0,7920.0,51.0,0.44,0.44,-0.554,-0.553
1394886,-591.0,8002.0,25.0,0.436,0.437,-0.556,-0.557
1394902,-553.0,8058.0,9.0,0.432,0.435,-0.558,-0.56
1394919,-565.0,7888.0,-45.0,0.427,0.433,-0.559,-0.564
1394936,-503.0,8180.0,-129.0,0.422,0.431,-0.561,-0.567
1394952,-475.0,8110.0,-257.0,0.418,0.429,-0.562,-0.57
1394978,-471.0,8010.0,-251.0,0.413,0.428,-0.564,-0.573
1394995,-495.0,8210.0,-203.0,0.408,0.427,-0.565,-0.576
1395012,-601.0,8196.0,-177.0,0.404,0.426,-0.567,-0.578
1395029,-671.0,8136.0,-169.0,0.4,0.426,-0.568,-0.58
1395046,-709.0,8272.0,-179.0,0.396,0.425,-0.569,-0.581
1395062,-715.0,8270.0,-207.0,0.392,0.425,-0.571,-0.583
1395078,-731.0,8266.0,-245.0,0.389,0.425,-0.572,-0.584
1395095,-687.0,8258.0,-321.0,0.386,0.425,-0.574,-0.584
1395122,-727.0,8132.0,-329.0,0.383,0.425,-0.575,-0.585
1395138,-827.0,8143.0,-373.0,0.381,0.425,-0.576,-0.585
1395154,-909.0,8081.0,-343.0,0.378,0.426,-0.577,-0.586
1395170,-891.0,8101.0,-353.0,0.376,0.427,-0.577,-0.586
1395186,-929.0,7979.0,-417.0,0.373,0.428,-0.578,-0.586
1395203,-929.0,8081.0,-421.0,0.371,0.43,-0.578,-0.586
1395219,-1029.0,8517.0,-529.0,0.369,0.432,-0.579,-0.585
1395236,-1077.0,8357.0,-427.0,0.367,0.433,-0.579,-0.585
1395253,-1211.0,8447.0,-359.0,0.365,0.435,-0.58,-0.584
1395280,-1349.0,8371.0,-261.0,0.364,0.436,-0.58,-0.584
1395296,-1279.0,8335.0,-243.0,0.363,0.436,-0.581,-0.584
1395312,-1299.0,8371.0,-217.0,0.361,0.436,-0.582,-0.584
1395328,-1243.0,8337.0,-269.0,0.359,0.435,-0.583,-0.585
1395344,-1217.0,8301.0,-311.0,0.358,0.433,-0.584,-0.586
1395361,-1199.0,8235.0,-331.0,0.356,0.432,-0.586,-0.587
1395378,-1251.0,8243.0,-291.0,0.354,0.429,-0.587,-0.588
1395395,-1233.0,8207.0,-311.0,0.352,0.427,-0.589,-0.589
1395422,-1263.0,8163.0,-347.0,0.35,0.424,-0.59,-0.591
1395438,-1183.0,8097.0,-403.0,0.347,0.422,-0.592,-0.593
1395454,-1183.0,8147.0,-457.0,0.345,0.419,-0.593,-0.595
1395470,-1157.0,7989.0,-477.0,0.342,0.416,-0.595,-0.597
1395487,-1103.0,8155.0,-499.0,0.34,0.414,-0.596,-0.598
1395503,-1135.0,8133.0,-523.0,0.337,0.411,-0.598,-0.6
1395529,-1121.0,8137.0,-451.0,0.334,0.409,-0.599,-0.602
1395545,-1094.0,8088.0,-500.0,0.332,0.407,-0.6,-0.603
1395562,-1100.0,8144.0,-480.0,0.33,0.405,-0.602,-0.605
1395579,-1112.0,8100.0,-494.0,0.327,0.403,-0.603,-0.606
1395595,-1162.0,8115.0,-518.0,0.325,0.402,-0.604,-0.607
1395612,-1236.0,8117.0,-502.0,0.323,0.4,-0.605,-0.608
1395628,-1240.0,8108.0,-476.0,0.321,0.399,-0.606,-0.609
1395645,-1226.0,8126.0,-404.0,0.319,0.397,-0.607,-0.61
1395661,-1206.0,8137.0,-414.0,0.317,0.396,-0.608,-0.611
1395678,-1174.0,8081.0,-356.0,0.314,0.395,-0.609,-0.612
1395704,-1252.0,8105.0,-362.0,0.312,0.393,-0.61,-0.613
1395720,-1278.0,8179.0,-384.0,0.31,0.392,-0.611,-0.614
1395736,-1296.0,8167.0,-418.0,0.308,0.391,-0.612,-0.615
1395752,-1358.0,8215.0,-432.0,0.305,0.389,-0.613,-0.616
1395769,-1328.0,8215.0,-372.0,0.303,0.387,-0.614,-0.617
1395785,-1310.0,8179.0,-396.0,0.301,0.386,-0.615,-0.618
1395802,-1272.0,8157.0,-422.0,0.299,0.384,-0.616,-0.619
1395829,-1262.0,8201.0,-404.0,0.296,0.382,-0.618,-0.62
1395845,-1256.0,8219.0,-390.0,0.294,0.38,-0.619,-0.622
1395861,-1286.0,8169.0,-392.0,0.292,0.378,-0.62,-0.623
1395878,-1274.0,8167.0,-446.0,0.29,0.375,-0.621,-0.624
1395895,-1360.0,8189.0,-438.0,0.288,0.373,-0.622,-0.625
1395911,-1264.0,8145.0,-410.0,0.286,0.371,-0.624,-0.626
1395927,-1268.0,8131.0,-436.0,0.284,0.369,-0.625,-0.627
1395944,-1312.0,8099.0,-426.0,0.283,0.367,-0.626,-0.628
1395961,-1226.0,8055.0,-440.0,0.281,0.365,-0.627,-0.629
1395987,-1314.0,8069.0,-384.0,0.279,0.363,-0.628,-0.629
1396003,-1270.0,8089.0,-426.0,0.277,0.361,-0.629,-0.63
1396019,-1236.0,8157.0,-440.0,0.275,0.36,-0.63,-0.631
1396035,-1320.0,8203.0,-428.0,0.273,0.358,-0.631,-0.631
1396051,-1312.0,8125.0,-400.0,0.272,0.356,-0.632,-0.632
1396068,-1322.0,8197.0,-400.0,0.27,0.355,-0.633,-0.633
1396085,-1322.0,8151.0,-420.0,0.268,0.353,-0.634,-0.633
1396112,-1278.0,8137.0,-458.0,0.266,0.352,-0.635,-0.634
1396128,-1322.0,8149.0,-370.0,0.264,0.35,-0.636,-0.635
1396145,-1278.0,8097.0,-410.0,0.263,0.348,-0.637,-0.636
1396162,-1266.0,8165.0,-478.0,0.261,0.347,-0.638,-0.636
1396178,-1270.0,8157.0,-440.0,0.259,0.345,-0.639,-0.637
1396195,-1258.0,8131.0,-404.0,0.257,0.343,-0.64,-0.638
1396211,-1376.0,8131.0,-402.0,0.255,0.342,-0.641,-0.638
1396228,-1334.0,8121.0,-426.0,0.254,0.34,-0.642,-0.639
1396245,-1316.0,8115.0,-372.0,0.252,0.338,-0.643,-0.64
1396262,-1354.0,8131.0,-412.0,0.25,0.337,-0.644,-0.64
1396288,-1318.0,8149.0,-400.0,0.248,0.335,-0.644,-0.641
1396304,-1278.0,8149.0,-406.0,0.246,0.333,-0.645,-0.642
1396320,-1268.0,8173.0,-454.0,0.245,0.331,-0.646,-0.642
1396336,-1284.0,8143.0,-414.0,0.243,0.329,-0.647,-0.643
1396352,-1306.0,8139.0,-434.0,0.241,0.327,-0.648,-0.644
1396369,-1266.0,8149.0,-424.0,0.239,0.325,-0.649,-0.644
1396386,-1252.0,8115.0,-484.0,0.237,0.324,-0.65,-0.645
1396412,-1242.0,8087.0,-474.0,0.235,0.322,-0.651,-0.646
1396428,-1150.0,8059.0,-534.0,0.234,0.32,-0.652,-0.646
1396445,-1052.0,8081.0,-660.0,0.232,0.319,-0.654,-0.646
1396462,-1044.0,8233.0,-568.0,0.23,0.317,-0.656,-0.645
1396478,-1090.0,8405.0,-392.0,0.229,0.315,-0.658,-0.645
1396495,-1030.0,8545.0,-236.0,0.228,0.312,-0.66,-0.644
1396512,-792.0,9045.0,-330.0,0.227,0.308,-0.663,-0.643
1396528,-658.0,8915.0,-402.0,0.225,0.303,-0.667,-0.642
1396554,-716.0,9121.0,-252.0,0.224,0.296,-0.67,-0.642
1396570,-752.0,8979.0,-58.0,0.223,0.289,-0.674,-0.643
1396586,-1030.0,9249.0,-284.0,0.221,0.28,-0.676,-0.645
1396602,-1062.0,8657.0,106.0,0.218,0.271,-0.677,-0.648
1396618,-1442.0,8043.0,312.0,0.215,0.261,-0.677,-0.653
1396634,-1356.0,7481.0,-196.0,0.213,0.253,-0.677,-0.658
1396660,-1420.0,6705.0,-702.0,0.211,0.245,-0.675,-0.664
1396677,-1570.0,6065.0,-302.0,0.209,0.238,-0.674,-0.667
1396694,-1398.0,7419.0,-584.0,0.206,0.233,-0.674,-0.67
1396711,-1272.0,7441.0,-856.0,0.204,0.23,-0.675,-0.671
1396728,-828.0,7679.0,-830.0,0.202,0.228,-0.675,-0.672
1396745,-624.0,7879.0,-518.0,0.2,0.227,-0.676,-0.672
1396762,-50.0,8717.0,-622.0,0.198,0.227,-0.677,-0.671
1396779,-94.0,8819.0,-588.0,0.197,0.226,-0.677,-0.672
1396796,-168.0,8349.0,94.0,0.196,0.225,-0.677,-0.673
1396813,-82.0,8159.0,764.0,0.194,0.223,-0.677,-0.674
1396830,-334.0,8295.0,728.0,0.192,0.221,-0.678,-0.674
1396847,-518.0,8505.0,616.0,0.189,0.218,-0.678,-0.676
1396864,-824.0,8703.0,680.0,0.186,0.213,-0.678,-0.679
1396890,-906.0,8143.0,938.0,0.183,0.208,-0.676,-0.683
1396906,-1164.0,8075.0,1138.0,0.181,0.202,-0.674,-0.688
1396923,-1300.0,8353.0,1058.0,0.179,0.196,-0.671,-0.693
1396939,-1408.0,8141.0,546.0,0.178,0.191,-0.667,-0.697
1396955,-1100.0,7121.0,-366.0,0.178,0.187,-0.666,-0.7
1396971,-1432.0,6555.0,-898.0,0.177,0.184,-0.669,-0.698
1396997,-1146.0,4777.0,-614.0,0.177,0.181,-0.677,-0.692
1397014,-36.0,10899.0,-1446.0,0.174,0.181,-0.684,-0.685
1397031,-26.0,12259.0,-1408.0,0.17,0.182,-0.687,-0.683
1397048,-456.0,9059.0,-200.0,0.168,0.182,-0.687,-0.683
1397064,-246.0,6597.0,1404.0,0.163,0.185,-0.694,-0.676
1397081,-874.0,10339.0,748.0,0.158,0.189,-0.703,-0.668
1397098,-934.0,10191.0,484.0,0.153,0.192,-0.707,-0.664
1397114,-1360.0,9725.0,-146.0,0.148,0.194,-0.707,-0.664
1397131,-1976.0,11561.0,-1168.0,0.141,0.196,-0.706,-0.666
1397147,-1216.0,11883.0,-1530.0,0.133,0.199,-0.705,-0.667
1397174,-1626.0,10605.0,-998.0,0.126,0.201,-0.704,-0.669
1397191,-1366.0,7871.0,-204.0,0.119,0.202,-0.702,-0.672
1397207,-1546.0,6413.0,-380.0,0.114,0.202,-0.701,-0.675
1397224,-1594.0,5859.0,-716.0,0.111,0.2,-0.699,-0.677
1397241,-966.0,4177.0,-92.0,0.11,0.194,-0.698,-0.681
1397258,-676.0,4079.0,536.0,0.112,0.187,-0.695,-0.685
1397275,-634.0,6799.0,-182.0,0.114,0.181,-0.693,-0.689
1397292,-350.0,8493.0,-1498.0,0.116,0.175,-0.69,-0.693
1397309,-62.0,7921.0,-1820.0,0.119,0.17,-0.687,-0.696
1397327,314.0,7037.0,-1210.0,0.122,0.169,-0.686,-0.697
1397344,-134.0,7349.0,-654.0,0.126,0.168,-0.687,-0.695
1397361,-466.0,7689.0,-68.0,0.129,0.169,-0.689,-0.693
1397378,-1078.0,7953.0,566.0,0.132,0.171,-0.689,-0.691
1397395,-1368.0,8787.0,686.0,0.136,0.174,-0.689,-0.69
1397422,-1192.0,9271.0,420.0,0.139,0.176,-0.689,-0.689
1397438,-884.0,9097.0,108.0,0.143,0.179,-0.687,-0.689
1397454,-596.0,8573.0,156.0,0.147,0.181,-0.686,-0.689
1397470,-552.0,8257.0,306.0,0.151,0.183,-0.684,-0.689
1397486,-560.0,8327.0,284.0,0.155,0.185,-0.683,-0.69
1397503,-624.0,8493.0,140.0,0.159,0.186,-0.681,-0.69
1397519,-708.0,8233.0,102.0,0.163,0.187,-0.68,-0.691
1397545,-670.0,8087.0,190.0,0.166,0.188,-0.678,-0.691
1397561,-632.0,8123.0,246.0,0.17,0.189,-0.677,-0.691
1397578,-636.0,8343.0,316.0,0.174,0.19,-0.676,-0.69
1397594,-690.0,8487.0,436.0,0.177,0.191,-0.676,-0.69
1397611,-746.0,8185.0,462.0,0.18,0.19,-0.675,-0.69
1397627,-748.0,7973.0,456.0,0.182,0.19,-0.675,-0.689
1397643,-724.0,7831.0,544.0,0.183,0.19,-0.675,-0.689
1397660,-650.0,7861.0,410.0,0.182,0.189,-0.675,-0.689
1397687,-500.0,7777.0,340.0,0.181,0.189,-0.676,-0.689
1397703,-528.0,7837.0,204.0,0.18,0.189,-0.677,-0.688
1397719,-670.0,7865.0,182.0,0.177,0.189,-0.679,-0.687
1397735,-708.0,7861.0,30.0,0.174,0.189,-0.681,-0.685
1397751,-822.0,7931.0,266.0,0.171,0.19,-0.684,-0.683
1397767,-952.0,8025.0,260.0,0.166,0.191,-0.687,-0.681
1397784,-804.0,7989.0,170.0,0.161,0.192,-0.69,-0.679
1397811,-802.0,7915.0,46.0,0.155,0.192,-0.693,-0.678
1397828,-832.0,7879.0,90.0,0.147,0.193,-0.696,-0.675
1397845,-820.0,7895.0,-54.0,0.139,0.193,-0.7,-0.673
1397861,-868.0,7879.0,-258.0,0.13,0.194,-0.704,-0.671
1397878,-820.0,7783.0,-378.0,0.12,0.194,-0.708,-0.668
1397894,-392.0,8551.0,-840.0,0.11,0.195,-0.712,-0.665
1397911,-944.0,7479.0,-318.0,0.099,0.196,-0.716,-0.663
1397928,-1560.0,8923.0,-482.0,0.088,0.196,-0.721,-0.659
1397944,-1962.0,9077.0,-402.0,0.077,0.195,-0.725,-0.656
1397970,-2360.0,8917.0,-342.0,0.066,0.193,-0.728,-0.654
1397987,-2440.0,8939.0,-784.0,0.054,0.19,-0.731,-0.653
1398004,-2764.0,8567.0,-728.0,0.043,0.185,-0.733,-0.654
1398020,-2210.0,7977.0,-796.0,0.03,0.178,-0.733,-0.655
1398036,-1986.0,8895.0,-670.0,0.018,0.171,-0.734,-0.657
1398052,-1794.0,8181.0,-504.0,0.005,0.163,-0.734,-0.66
1398068,-1634.0,8077.0,-708.0,0.007,-0.154,0.733,0.662
1398094,-1708.0,8237.0,-854.0,0.018,-0.146,0.732,0.665
1398110,-2188.0,8761.0,-626.0,0.028,-0.138,0.731,0.668
1398127,-3514.0,7795.0,-1130.0,0.037,-0.13,0.729,0.671
1398143,-2186.0,6447.0,-1720.0,0.046,-0.124,0.728,0.673
1398160,-2084.0,7475.0,-1056.0,0.054,-0.118,0.727,0.674
1398176,-1948.0,6627.0,-648.0,0.061,-0.114,0.727,0.674
1398192,-2446.0,7827.0,-1176.0,0.067,-0.11,0.728,0.673
1398218,-2108.0,8757.0,-1922.0,0.072,-0.108,0.729,0.672
1398234,-1928.0,7405.0,-830.0,0.076,-0.107,0.729,0.672
1398250,-2788.0,7261.0,42.0,0.079,-0.106,0.73,0.671
1398266,-2526.0,8103.0,-146.0,0.082,-0.105,0.731,0.669
1398283,-2342.0,8297.0,-248.0,0.086,-0.104,0.73,0.67
1398299,-3136.0,7641.0,-546.0,0.089,-0.103,0.729,0.671
1398315,-2346.0,7953.0,-528.0,0.093,-0.102,0.728,0.672
1398342,-3352.0,7543.0,-712.0,0.097,-0.102,0.726,0.673
1398359,-2450.0,7947.0,-192.0,0.101,-0.102,0.724,0.674
1398376,-2822.0,7293.0,-142.0,0.105,-0.102,0.723,0.675
1398393,-3132.0,7931.0,-138.0,0.108,-0.102,0.722,0.676
1398410,-1642.0,8739.0,-336.0,0.112,-0.102,0.72,0.677
1398427,-2614.0,6467.0,-434.0,0.115,-0.102,0.718,0.679
1398443,-2362.0,8125.0,-830.0,0.119,-0.103,0.717,0.679
1398460,-3444.0,7959.0,-840.0,0.122,-0.105,0.716,0.679
1398476,-3412.0,7673.0,-498.0,0.124,-0.107,0.715,0.68
1398492,-2514.0,7563.0,90.0,0.127,-0.108,0.714,0.68
1398519,-3082.0,7721.0,984.0,0.13,-0.108,0.713,0.68
1398535,-1750.0,7441.0,-102.0,0.133,-0.107,0.713,0.68
1398551,-286.0,6441.0,-588.0,0.137,-0.107,0.714,0.678
1398567,-156.0,7405.0,600.0,0.141,-0.107,0.716,0.675
1398583,-622.0,3117.0,400.0,0.147,-0.108,0.718,0.672
1398599,4536.0,5525.0,836.0,0.151,-0.11,0.724,0.664
1398625,4096.0,13101.0,-288.0,0.15,-0.117,0.732,0.654
1398642,-712.0,8019.0,-746.0,0.149,-0.129,0.736,0.647
1398659,-6794.0,10295.0,-3118.0,0.15,-0.138,0.742,0.639
1398676,-4528.0,15329.0,1036.0,0.154,-0.149,0.744,0.633
1398693,-4002.0,16491.0,2694.0,0.159,-0.159,0.741,0.633
1398710,-6332.0,12179.0,322.0,0.167,-0.172,0.734,0.636
1398727,-2282.0,10869.0,-1066.0,0.185,-0.184,0.733,0.628
1398744,-3680.0,15991.0,-1622.0,0.203,-0.205,0.731,0.618
1398760,-5870.0,11649.0,-2986.0,0.234,-0.23,0.727,0.603
1398777,-4872.0,12163.0,-3480.0,0.271,-0.255,0.721,0.585
1398793,-5980.0,12395.0,-2266.0,0.307,-0.28,0.711,0.568
1398819,-5970.0,11461.0,-1296.0,0.34,-0.306,0.695,0.555
1398835,-5630.0,9229.0,-458.0,0.368,-0.335,0.675,0.545
1398851,-4564.0,6843.0,456.0,0.393,-0.365,0.651,0.537
1398867,-3318.0,4721.0,1060.0,0.415,-0.399,0.625,0.527
1398883,-2126.0,2767.0,1268.0,0.433,-0.437,0.597,0.515
1398900,-1800.0,557.0,1684.0,0.449,-0.478,0.568,0.497
1398926,-1084.0,-385.0,1780.0,0.462,-0.518,0.54,0.475
1398943,-318.0,-965.0,1406.0,0.472,-0.56,0.513,0.448
1398960,-974.0,-1975.0,1254.0,0.477,-0.601,0.486,0.418
1398977,-1644.0,-2727.0,724.0,0.477,-0.641,0.46,0.387
1398994,-732.0,-3743.0,-410.0,0.472,-0.68,0.434,0.355
1399010,-728.0,-6215.0,-1708.0,0.462,-0.718,0.407,0.323
1399027,-1352.0,-8459.0,-2796.0,0.45,-0.754,0.38,0.29
1399044,-2474.0,-9103.0,-4330.0,0.435,-0.786,0.355,0.26
1399061,-3284.0,-9617.0,-6268.0,0.418,-0.813,0.33,0.234
1399077,-3938.0,-10587.0,-7868.0,0.398,-0.837,0.308,0.213
1399094,-4868.0,-11911.0,-8982.0,0.375,-0.858,0.289,0.2
1399120,-5562.0,-11763.0,-10362.0,0.353,-0.873,0.275,0.193
1399136,-5760.0,-9183.0,-10688.0,0.331,-0.885,0.265,0.193
1399152,-5086.0,-8447.0,-11490.0,0.31,-0.893,0.259,0.198
1399168,-5364.0,-7601.0,-12284.0,0.292,-0.898,0.255,0.208
1399185,-5002.0,-5243.0,-12440.0,0.28,-0.9,0.253,0.221
1399201,-4816.0,-2123.0,-11584.0,0.267,-0.9,0.25,0.238
1399227,-4494.0,-2141.0,-10846.0,0.253,-0.899,0.246,0.26
1399244,-4272.0,-1603.0,-9788.0,0.242,-0.896,0.242,0.284
1399260,-4056.0,-747.0,-9474.0,0.236,-0.89,0.237,0.309
1399277,-3608.0,-719.0,-10048.0,0.232,-0.884,0.23,0.336
1399293,16892.0,12591.0,9190.0,0.203,-0.898,0.224,0.32
1399310,-11730.0,-21955.0,2902.0,0.198,-0.898,0.23,0.32
1399327,1752.0,-3831.0,-3566.0,0.209,-0.893,0.238,0.321
1399343,-3120.0,4795.0,-12246.0,0.21,-0.888,0.237,0.333
1399360,8184.0,6159.0,-6464.0,0.208,-0.885,0.23,0.346
1399377,2450.0,-6159.0,-10960.0,0.199,-0.888,0.228,0.347
1399404,-7746.0,-7517.0,-5818.0,0.203,-0.889,0.225,0.343
1399420,-6424.0,-3121.0,-2258.0,0.207,-0.888,0.223,0.344
1399436,-7428.0,-253.0,-3936.0,0.209,-0.886,0.224,0.348
1399452,-10228.0,309.0,-5662.0,0.211,-0.884,0.224,0.351
1399468,-9314.0,2579.0,-4786.0,0.21,-0.883,0.224,0.355
1399484,-5636.0,-2059.0,-3496.0,0.206,-0.882,0.222,0.362
1399510,-2562.0,-6045.0,-5718.0,0.205,-0.88,0.219,0.368
1399526,-4476.0,-6669.0,-5482.0,0.208,-0.879,0.215,0.372
1399543,-5544.0,-2121.0,-5616.0,0.214,-0.878,0.21,0.374
1399560,-5554.0,-1113.0,-4372.0,0.218,-0.878,0.203,0.376
1399576,-5434.0,-2767.0,-5912.0,0.221,-0.878,0.194,0.378
1399593,-4086.0,-2649.0,-7068.0,0.223,-0.879,0.185,0.38
1399609,-4392.0,-3833.0,-8292.0,0.219,-0.881,0.177,0.381
1399625,-5322.0,-3721.0,-4396.0,0.213,-0.883,0.172,0.383
1399652,-6036.0,-3125.0,-4130.0,0.208,-0.883,0.173,0.383
1399669,-6676.0,-1727.0,-5836.0,0.205,-0.883,0.178,0.382
1399685,-7644.0,2009.0,-5922.0,0.203,-0.884,0.184,0.378
1399701,-10048.0,1945.0,-5122.0,0.204,-0.886,0.185,0.373
1399717,-8394.0,-805.0,-3976.0,0.201,-0.889,0.185,0.369
1399733,-4516.0,-1955.0,-5830.0,0.199,-0.89,0.185,0.366
1399749,-5790.0,-2491.0,-5750.0,0.197,-0.891,0.187,0.363
1399776,-9282.0,-2207.0,-4594.0,0.196,-0.891,0.187,0.365
1399793,-8626.0,-3059.0,-5054.0,0.196,-0.888,0.187,0.372
1399810,-9290.0,-5509.0,-6828.0,0.198,-0.884,0.186,0.381
1399827,-8718.0,169.0,-8426.0,0.2,-0.879,0.184,0.392
1399843,-8002.0,-3743.0,-6626.0,0.201,-0.874,0.183,0.404
1399860,-7968.0,-3275.0,-7188.0,0.203,-0.869,0.181,0.414
1399876,-6080.0,-3063.0,-6724.0,0.205,-0.863,0.181,0.424
1399892,-5956.0,-1551.0,-6584.0,0.209,-0.859,0.182,0.432
1399918,-5942.0,-873.0,-6874.0,0.21,-0.855,0.183,0.438
1399934,-4758.0,-2585.0,-5262.0,0.211,-0.852,0.183,0.443
1399950,-4218.0,-2863.0,-5114.0,0.214,-0.848,0.184,0.448
1399967,-4698.0,-3759.0,-4282.0,0.22,-0.845,0.184,0.451
1399983,-5572.0,-385.0,-3414.0,0.227,-0.841,0.184,0.454
1399999,-5652.0,-825.0,-2784.0,0.232,-0.837,0.182,0.461
1400016,-5910.0,-771.0,-2960.0,0.236,-0.831,0.179,0.471
1400033,-4440.0,-4121.0,-1954.0,0.236,-0.826,0.175,0.481
1400050,-4928.0,-3375.0,-2276.0,0.238,-0.822,0.172,0.489
1400077,-6088.0,-3505.0,-2776.0,0.237,-0.818,0.168,0.497
1400093,-5922.0,-863.0,-2400.0,0.234,-0.814,0.165,0.505
1400110,-5834.0,1783.0,-3908.0,0.232,-0.811,0.163,0.511
1400126,-5610.0,-3.0,-4370.0,0.23,-0.81,0.159,0.516
1400143,-4798.0,-2701.0,-3350.0,0.228,-0.81,0.157,0.518
1400160,-6984.0,-3307.0,-2834.0,0.228,-0.811,0.157,0.516
1400176,-8492.0,-1293.0,-2674.0,0.227,-0.812,0.158,0.514
1400193,-8138.0,-2587.0,-2234.0,0.227,-0.813,0.159,0.512
1400210,-8198.0,-3813.0,-2246.0,0.227,-0.814,0.161,0.509
1400236,-8074.0,-3821.0,-2458.0,0.23,-0.815,0.163,0.506
1400252,-8210.0,-3479.0,-2240.0,0.234,-0.816,0.166,0.502
1400268,-8820.0,-1143.0,-2522.0,0.238,-0.816,0.17,0.498
1400284,-9360.0,-1763.0,-2182.0,0.24,-0.816,0.172,0.497
1400300,-6990.0,-2193.0,-2292.0,0.241,-0.814,0.174,0.499
