timeMs,ax,ay,az,q0,q1,q2,q3
627916,379.0,6819.0,2139.0,0.171,0.091,-0.61,-0.769
627932,-9.0,7303.0,2375.0,0.175,0.086,-0.612,-0.766
627948,151.0,8171.0,2371.0,0.181,0.079,-0.614,-0.764
627974,587.0,8963.0,2367.0,0.187,0.071,-0.615,-0.762
627990,1099.0,9333.0,2521.0,0.194,0.063,-0.615,-0.761
628007,725.0,8573.0,2283.0,0.202,0.056,-0.614,-0.761
628023,619.0,9451.0,2083.0,0.207,0.05,-0.616,-0.759
628039,1493.0,10839.0,1981.0,0.212,0.044,-0.616,-0.758
628056,1293.0,10327.0,2279.0,0.218,0.037,-0.612,-0.759
628072,1543.0,9807.0,2263.0,0.225,0.028,-0.605,-0.764
628098,1433.0,8757.0,2205.0,0.231,0.018,-0.593,-0.771
628115,1893.0,7269.0,2363.0,0.238,0.006,-0.579,-0.78
628132,1939.0,6343.0,2643.0,0.245,-0.005,-0.565,-0.788
628149,2277.0,5835.0,3109.0,0.251,-0.017,-0.554,-0.794
628166,2449.0,5757.0,3677.0,0.259,-0.029,-0.546,-0.796
628183,2899.0,6679.0,4049.0,0.267,-0.041,-0.542,-0.796
628200,3451.0,7295.0,4517.0,0.275,-0.052,-0.541,-0.793
628217,4133.0,7783.0,4971.0,0.282,-0.06,-0.543,-0.789
628234,5021.0,8029.0,4979.0,0.29,-0.065,-0.546,-0.783
628251,5177.0,7219.0,4973.0,0.297,-0.067,-0.548,-0.779
628267,4999.0,5789.0,5141.0,0.303,-0.065,-0.551,-0.775
628284,4331.0,5943.0,4419.0,0.307,-0.06,-0.556,-0.77
628311,3891.0,6605.0,3163.0,0.308,-0.053,-0.565,-0.764
628328,3889.0,7071.0,2233.0,0.31,-0.046,-0.575,-0.756
628345,3353.0,7423.0,1399.0,0.311,-0.041,-0.584,-0.749
628362,3489.0,6983.0,1037.0,0.312,-0.037,-0.592,-0.742
628378,3205.0,6979.0,859.0,0.313,-0.034,-0.599,-0.736
628395,3035.0,6799.0,769.0,0.312,-0.033,-0.606,-0.731
628412,2753.0,6977.0,857.0,0.311,-0.032,-0.612,-0.727
628429,2595.0,7513.0,981.0,0.31,-0.033,-0.617,-0.722
628446,2459.0,7931.0,1127.0,0.309,-0.035,-0.621,-0.72
628463,2339.0,7957.0,1263.0,0.308,-0.038,-0.623,-0.718
628480,2283.0,8105.0,1439.0,0.308,-0.042,-0.624,-0.717
628501,2227.0,8311.0,1555.0,0.307,-0.047,-0.623,-0.718
628517,2253.0,8121.0,1711.0,0.306,-0.053,-0.621,-0.719
628534,2197.0,7501.0,1845.0,0.305,-0.059,-0.618,-0.722
628551,2169.0,6737.0,2137.0,0.304,-0.066,-0.614,-0.726
628568,2239.0,6395.0,2319.0,0.301,-0.074,-0.609,-0.73
628585,2591.0,6219.0,2359.0,0.298,-0.082,-0.605,-0.734
628602,2927.0,6465.0,2471.0,0.294,-0.091,-0.602,-0.737
628629,3209.0,7009.0,2771.0,0.29,-0.101,-0.599,-0.74
628646,3821.0,7385.0,3069.0,0.286,-0.111,-0.596,-0.742
628662,4267.0,7639.0,3353.0,0.283,-0.121,-0.593,-0.744
628679,6559.0,9901.0,4547.0,0.28,-0.128,-0.59,-0.747
628695,6149.0,13341.0,5069.0,0.277,-0.132,-0.576,-0.758
628712,4391.0,5269.0,4413.0,0.273,-0.135,-0.561,-0.77
628729,4889.0,4563.0,4043.0,0.27,-0.136,-0.554,-0.776
628746,5017.0,4221.0,3477.0,0.27,-0.137,-0.553,-0.777
628762,5243.0,4889.0,3095.0,0.27,-0.136,-0.555,-0.775
628779,5479.0,4715.0,3009.0,0.27,-0.134,-0.558,-0.773
628806,5447.0,4763.0,2805.0,0.271,-0.131,-0.561,-0.771
628822,5361.0,4753.0,2631.0,0.272,-0.129,-0.563,-0.77
628839,4955.0,4463.0,2469.0,0.273,-0.126,-0.565,-0.769
628856,4641.0,4337.0,2451.0,0.275,-0.123,-0.567,-0.767
628872,4399.0,4281.0,2541.0,0.278,-0.121,-0.569,-0.764
628888,5117.0,5847.0,3067.0,0.281,-0.12,-0.571,-0.762
628904,4961.0,7161.0,3317.0,0.283,-0.117,-0.571,-0.762
628921,4703.0,6407.0,3647.0,0.285,-0.114,-0.569,-0.763
628947,3653.0,7051.0,3679.0,0.286,-0.111,-0.569,-0.763
628963,4189.0,7775.0,3515.0,0.288,-0.108,-0.57,-0.761
628980,4839.0,7213.0,3355.0,0.292,-0.107,-0.573,-0.759
628997,4561.0,7353.0,3149.0,0.295,-0.106,-0.577,-0.754
629014,4573.0,7545.0,2977.0,0.298,-0.105,-0.581,-0.75
629030,4509.0,6797.0,2601.0,0.3,-0.105,-0.583,-0.748
629046,4323.0,5935.0,2435.0,0.301,-0.104,-0.585,-0.746
629062,4423.0,5655.0,2523.0,0.301,-0.104,-0.587,-0.744
629088,4415.0,5889.0,2603.0,0.3,-0.104,-0.589,-0.743
629105,4427.0,5965.0,2617.0,0.299,-0.104,-0.591,-0.742
629122,4187.0,6033.0,2617.0,0.298,-0.103,-0.593,-0.741
629139,3931.0,6107.0,2665.0,0.297,-0.101,-0.595,-0.741
629156,3867.0,6187.0,2631.0,0.295,-0.098,-0.597,-0.74
629173,3751.0,6495.0,2641.0,0.293,-0.095,-0.6,-0.738
629190,3705.0,6883.0,2655.0,0.291,-0.092,-0.603,-0.737
629207,3361.0,7363.0,2571.0,0.29,-0.088,-0.606,-0.735
629224,3437.0,8557.0,2287.0,0.291,-0.087,-0.608,-0.734
629241,4017.0,8135.0,1951.0,0.292,-0.086,-0.61,-0.732
629258,4369.0,7959.0,1783.0,0.294,-0.085,-0.612,-0.729
629275,4357.0,8113.0,1849.0,0.295,-0.086,-0.613,-0.728
629301,4309.0,7311.0,1847.0,0.295,-0.086,-0.613,-0.728
629318,4241.0,5989.0,1837.0,0.295,-0.086,-0.611,-0.73
629335,4221.0,5637.0,2061.0,0.295,-0.086,-0.61,-0.73
629352,4103.0,6263.0,2407.0,0.296,-0.086,-0.61,-0.73
629369,3961.0,7235.0,2535.0,0.296,-0.086,-0.611,-0.729
629386,3791.0,7485.0,2381.0,0.297,-0.085,-0.611,-0.729
629403,3689.0,7169.0,2213.0,0.297,-0.084,-0.611,-0.729
629420,3637.0,6877.0,2131.0,0.298,-0.084,-0.611,-0.729
629437,3713.0,7047.0,2229.0,0.298,-0.084,-0.611,-0.729
629454,3799.0,7073.0,2317.0,0.298,-0.084,-0.61,-0.729
629470,3839.0,6953.0,2345.0,0.298,-0.084,-0.609,-0.73
629496,3939.0,6843.0,2367.0,0.298,-0.084,-0.608,-0.731
629513,3991.0,6661.0,2377.0,0.298,-0.085,-0.608,-0.731
629530,3999.0,6547.0,2337.0,0.298,-0.085,-0.607,-0.732
629547,3977.0,6533.0,2317.0,0.298,-0.085,-0.607,-0.732
629564,3995.0,6651.0,2261.0,0.298,-0.085,-0.607,-0.732
629581,4003.0,6933.0,2231.0,0.298,-0.085,-0.607,-0.732
629598,3929.0,7119.0,2197.0,0.298,-0.085,-0.607,-0.732
629615,3969.0,7195.0,2151.0,0.298,-0.085,-0.607,-0.732
629632,4033.0,7109.0,2181.0,0.298,-0.086,-0.606,-0.732
629649,4043.0,6933.0,2259.0,0.298,-0.086,-0.605,-0.733
629666,4069.0,6799.0,2319.0,0.298,-0.087,-0.604,-0.734
629683,4129.0,6543.0,2483.0,0.298,-0.088,-0.603,-0.735
629700,4081.0,6527.0,2521.0,0.298,-0.088,-0.602,-0.736
629717,3999.0,6503.0,2533.0,0.298,-0.089,-0.601,-0.736
629744,3977.0,6577.0,2493.0,0.299,-0.09,-0.6,-0.736
629761,4077.0,6659.0,2503.0,0.3,-0.09,-0.6,-0.736
629778,4087.0,6865.0,2473.0,0.301,-0.091,-0.601,-0.735
629795,3965.0,6963.0,2153.0,0.303,-0.091,-0.601,-0.734
629812,4721.0,6795.0,2389.0,0.306,-0.092,-0.602,-0.731
629829,4447.0,7095.0,2299.0,0.308,-0.093,-0.603,-0.731
629846,4647.0,6819.0,2277.0,0.309,-0.093,-0.602,-0.73
629863,4603.0,6535.0,2267.0,0.309,-0.094,-0.601,-0.731
629880,4557.0,6219.0,2343.0,0.31,-0.094,-0.6,-0.731
629896,4417.0,6105.0,2503.0,0.309,-0.093,-0.6,-0.732
629913,4241.0,6061.0,2611.0,0.309,-0.093,-0.6,-0.732
629930,4107.0,6217.0,2609.0,0.308,-0.092,-0.6,-0.732
629947,4057.0,6405.0,2591.0,0.307,-0.09,-0.601,-0.732
629974,4065.0,6597.0,2507.0,0.306,-0.089,-0.602,-0.732
629991,4035.0,6617.0,2423.0,0.305,-0.087,-0.603,-0.732
630008,3617.0,6919.0,2367.0,0.304,-0.085,-0.605,-0.731
630025,3273.0,7663.0,2299.0,0.303,-0.085,-0.606,-0.731
630042,3865.0,7873.0,2183.0,0.304,-0.085,-0.606,-0.73
630058,4217.0,7685.0,2269.0,0.304,-0.086,-0.607,-0.73
630075,4207.0,7427.0,2349.0,0.304,-0.087,-0.606,-0.73
630092,4139.0,6531.0,2249.0,0.304,-0.088,-0.605,-0.73
630109,4179.0,5849.0,2107.0,0.303,-0.089,-0.605,-0.731
630126,4243.0,5701.0,2161.0,0.303,-0.089,-0.605,-0.731
630142,4257.0,6475.0,2355.0,0.303,-0.089,-0.605,-0.731
630168,4081.0,7031.0,2463.0,0.303,-0.089,-0.606,-0.73
630185,3935.0,7167.0,2307.0,0.303,-0.089,-0.607,-0.729
630202,3881.0,7165.0,2123.0,0.303,-0.089,-0.608,-0.729
630219,3979.0,7119.0,2151.0,0.303,-0.089,-0.608,-0.729
630236,4021.0,7147.0,2183.0,0.303,-0.089,-0.608,-0.729
630253,4127.0,7077.0,2215.0,0.303,-0.089,-0.607,-0.729
630270,4153.0,6925.0,2239.0,0.303,-0.09,-0.607,-0.73
630287,4171.0,6609.0,2279.0,0.302,-0.091,-0.606,-0.73
630304,4117.0,6363.0,2423.0,0.302,-0.091,-0.605,-0.731
630321,4115.0,6309.0,2391.0,0.302,-0.091,-0.605,-0.731
630338,4085.0,6551.0,2351.0,0.302,-0.091,-0.605,-0.731
630355,4045.0,6885.0,2247.0,0.302,-0.091,-0.606,-0.73
630372,4081.0,7089.0,2205.0,0.302,-0.091,-0.606,-0.73
630399,4069.0,7185.0,2163.0,0.303,-0.091,-0.606,-0.73
630416,4117.0,6959.0,2143.0,0.303,-0.091,-0.606,-0.73
630433,4141.0,6797.0,2225.0,0.303,-0.091,-0.605,-0.731
630450,4133.0,6575.0,2287.0,0.303,-0.092,-0.604,-0.731
630467,4167.0,6481.0,2375.0,0.303,-0.092,-0.604,-0.732
630484,4143.0,6517.0,2441.0,0.303,-0.092,-0.604,-0.732
630500,4135.0,6625.0,2387.0,0.303,-0.092,-0.604,-0.732
630517,4061.0,6835.0,2375.0,0.303,-0.092,-0.604,-0.732
630535,4063.0,6915.0,2351.0,0.303,-0.092,-0.604,-0.731
630551,4081.0,6901.0,2273.0,0.303,-0.092,-0.604,-0.731
630567,4039.0,6835.0,2273.0,0.303,-0.092,-0.604,-0.732
630584,4109.0,6689.0,2269.0,0.303,-0.092,-0.604,-0.732
630611,4097.0,6669.0,2327.0,0.303,-0.092,-0.604,-0.732
630628,4087.0,6729.0,2279.0,0.303,-0.092,-0.604,-0.732
630645,4057.0,6725.0,2321.0,0.303,-0.092,-0.604,-0.732
630662,4113.0,6823.0,2309.0,0.303,-0.092,-0.604,-0.731
630679,4071.0,6815.0,2353.0,0.303,-0.092,-0.604,-0.731
630696,4103.0,6835.0,2261.0,0.302,-0.092,-0.604,-0.731
630713,4077.0,6845.0,2241.0,0.302,-0.092,-0.604,-0.731
630730,4115.0,6845.0,2237.0,0.302,-0.093,-0.604,-0.731
630747,4103.0,6821.0,2323.0,0.302,-0.093,-0.604,-0.731
630764,4027.0,6770.0,2321.0,0.302,-0.093,-0.604,-0.731
630781,4044.0,6771.0,2280.0,0.302,-0.093,-0.604,-0.731
630798,4082.0,6848.0,2276.0,0.303,-0.093,-0.604,-0.731
630815,4132.0,6833.0,2322.0,0.303,-0.093,-0.604,-0.731
630842,4139.0,6828.0,2326.0,0.303,-0.093,-0.604,-0.731
630859,4180.0,6747.0,2283.0,0.303,-0.093,-0.604,-0.732
630876,4096.0,6766.0,2273.0,0.302,-0.093,-0.604,-0.732
630893,4114.0,6800.0,2353.0,0.302,-0.094,-0.604,-0.732
630910,4065.0,6753.0,2343.0,0.302,-0.094,-0.603,-0.732
630926,4077.0,6661.0,2277.0,0.302,-0.094,-0.603,-0.732
630942,3999.0,6693.0,2327.0,0.302,-0.094,-0.603,-0.732
630958,4083.0,6737.0,2309.0,0.302,-0.094,-0.603,-0.732
630975,4141.0,6767.0,2291.0,0.302,-0.094,-0.603,-0.732
630992,4075.0,6769.0,2305.0,0.302,-0.094,-0.603,-0.732
631018,4115.0,6783.0,2243.0,0.303,-0.094,-0.603,-0.732
631035,4135.0,6759.0,2297.0,0.303,-0.094,-0.603,-0.732
631052,4049.0,6793.0,2309.0,0.303,-0.094,-0.603,-0.732
631068,4075.0,6749.0,2309.0,0.303,-0.094,-0.603,-0.732
631085,4069.0,6707.0,2283.0,0.303,-0.094,-0.603,-0.732
631102,4061.0,6707.0,2339.0,0.303,-0.094,-0.603,-0.732
631118,4063.0,6809.0,2309.0,0.303,-0.094,-0.603,-0.732
631134,4109.0,6795.0,2311.0,0.303,-0.094,-0.603,-0.732
631160,4083.0,6801.0,2297.0,0.303,-0.094,-0.603,-0.732
631177,4019.0,6759.0,2317.0,0.303,-0.093,-0.603,-0.732
631193,4061.0,6779.0,2289.0,0.303,-0.094,-0.603,-0.732
631210,4043.0,6689.0,2321.0,0.303,-0.094,-0.603,-0.732
631227,4057.0,6789.0,2243.0,0.303,-0.094,-0.603,-0.732
631244,4055.0,6797.0,2293.0,0.303,-0.094,-0.603,-0.732
631261,4027.0,6807.0,2253.0,0.303,-0.094,-0.603,-0.732
631278,4027.0,6769.0,2277.0,0.303,-0.094,-0.602,-0.733
631295,4063.0,6831.0,2299.0,0.303,-0.094,-0.602,-0.733
631311,4055.0,6769.0,2269.0,0.303,-0.094,-0.602,-0.733
631328,4063.0,6791.0,2299.0,0.303,-0.094,-0.602,-0.733
631355,4071.0,6747.0,2323.0,0.302,-0.094,-0.602,-0.733
631372,4063.0,6743.0,2337.0,0.302,-0.094,-0.602,-0.733
631389,4037.0,6743.0,2349.0,0.302,-0.094,-0.601,-0.733
631406,4039.0,6747.0,2309.0,0.302,-0.094,-0.601,-0.734
631423,4089.0,6787.0,2289.0,0.302,-0.094,-0.601,-0.734
631440,4053.0,6779.0,2291.0,0.302,-0.094,-0.601,-0.734
631457,4055.0,6739.0,2331.0,0.302,-0.094,-0.601,-0.734
631474,4061.0,6707.0,2319.0,0.302,-0.094,-0.601,-0.734
631491,4059.0,6797.0,2305.0,0.302,-0.094,-0.601,-0.734
631507,4003.0,6773.0,2321.0,0.302,-0.094,-0.601,-0.734
631523,4025.0,6719.0,2309.0,0.302,-0.094,-0.601,-0.734
631549,4001.0,6765.0,2329.0,0.302,-0.094,-0.601,-0.734
631566,4051.0,6743.0,2313.0,0.302,-0.094,-0.601,-0.734
631583,4043.0,6737.0,2351.0,0.302,-0.094,-0.601,-0.734
631600,4045.0,6825.0,2357.0,0.302,-0.095,-0.601,-0.734
631616,4071.0,6751.0,2337.0,0.302,-0.095,-0.601,-0.734
631633,4059.0,6777.0,2235.0,0.302,-0.095,-0.601,-0.734
631650,4095.0,6797.0,2285.0,0.302,-0.095,-0.601,-0.734
631667,4077.0,6821.0,2341.0,0.302,-0.095,-0.601,-0.734
631684,4057.0,6777.0,2353.0,0.302,-0.095,-0.6,-0.734
631701,4049.0,6777.0,2343.0,0.302,-0.095,-0.6,-0.734
631718,4023.0,6751.0,2353.0,0.302,-0.095,-0.6,-0.735
631735,4013.0,6737.0,2385.0,0.302,-0.095,-0.6,-0.735
631762,4037.0,6759.0,2333.0,0.302,-0.095,-0.6,-0.735
631779,4017.0,6751.0,2335.0,0.302,-0.095,-0.6,-0.735
631796,4049.0,6737.0,2329.0,0.302,-0.095,-0.6,-0.735
631813,4029.0,6717.0,2361.0,0.302,-0.095,-0.6,-0.735
631830,4013.0,6771.0,2327.0,0.302,-0.095,-0.6,-0.735
631847,4017.0,6791.0,2335.0,0.302,-0.095,-0.6,-0.735
631864,4073.0,6743.0,2301.0,0.302,-0.095,-0.6,-0.735
631881,4021.0,6755.0,2335.0,0.302,-0.095,-0.6,-0.735
631898,4047.0,6765.0,2291.0,0.302,-0.095,-0.6,-0.735
631915,4025.0,6763.0,2297.0,0.301,-0.095,-0.6,-0.735
631932,4039.0,6779.0,2287.0,0.301,-0.095,-0.6,-0.735
631949,4057.0,6829.0,2343.0,0.302,-0.095,-0.6,-0.735
631966,4033.0,6817.0,2315.0,0.302,-0.095,-0.6,-0.735
631983,4071.0,6795.0,2337.0,0.302,-0.095,-0.6,-0.735
632009,4047.0,6785.0,2301.0,0.302,-0.095,-0.6,-0.735
632026,4069.0,6763.0,2341.0,0.302,-0.095,-0.6,-0.735
632043,4093.0,6777.0,2361.0,0.302,-0.095,-0.6,-0.735
632060,4075.0,6795.0,2339.0,0.302,-0.095,-0.6,-0.735
632077,4079.0,6771.0,2341.0,0.302,-0.095,-0.6,-0.735
632093,4041.0,6743.0,2361.0,0.302,-0.096,-0.6,-0.735
632109,4035.0,6799.0,2329.0,0.302,-0.096,-0.6,-0.735
632125,4077.0,6823.0,2293.0,0.302,-0.096,-0.6,-0.735
632142,4021.0,6751.0,2335.0,0.302,-0.096,-0.6,-0.735
632168,4039.0,6765.0,2285.0,0.302,-0.096,-0.6,-0.735
632185,4027.0,6763.0,2305.0,0.302,-0.096,-0.599,-0.735
632202,4063.0,6713.0,2339.0,0.302,-0.096,-0.599,-0.735
632219,4089.0,6795.0,2287.0,0.302,-0.096,-0.599,-0.735
632236,4081.0,6815.0,2301.0,0.302,-0.096,-0.599,-0.735
632252,4055.0,6739.0,2279.0,0.302,-0.096,-0.599,-0.735
632269,4061.0,6789.0,2257.0,0.302,-0.096,-0.599,-0.735
632285,4073.0,6811.0,2277.0,0.302,-0.096,-0.599,-0.735
632302,4095.0,6833.0,2343.0,0.302,-0.096,-0.599,-0.736
632319,4043.0,6755.0,2327.0,0.302,-0.096,-0.599,-0.736
632346,4057.0,6757.0,2355.0,0.302,-0.096,-0.599,-0.736
632363,4009.0,6793.0,2383.0,0.302,-0.096,-0.598,-0.736
632380,4021.0,6761.0,2339.0,0.301,-0.096,-0.598,-0.736
632397,4081.0,6731.0,2325.0,0.301,-0.096,-0.598,-0.736
632414,4045.0,6813.0,2341.0,0.301,-0.096,-0.598,-0.736
632431,4035.0,6783.0,2329.0,0.301,-0.096,-0.598,-0.736
632447,3993.0,6747.0,2295.0,0.301,-0.096,-0.598,-0.737
632464,4067.0,6763.0,2293.0,0.301,-0.097,-0.598,-0.737
632481,4127.0,6821.0,2289.0,0.301,-0.097,-0.598,-0.737
632497,4215.0,6877.0,2119.0,0.301,-0.097,-0.597,-0.737
632515,4443.0,6731.0,2103.0,0.301,-0.097,-0.597,-0.737
632532,4767.0,6975.0,1823.0,0.3,-0.098,-0.596,-0.738
632558,4571.0,7131.0,1591.0,0.3,-0.1,-0.595,-0.739
632575,4503.0,7471.0,2073.0,0.299,-0.101,-0.593,-0.741
632592,4611.0,7461.0,2257.0,0.298,-0.103,-0.59,-0.743
632609,4549.0,6831.0,2489.0,0.298,-0.104,-0.586,-0.746
632626,4423.0,6521.0,2633.0,0.298,-0.105,-0.583,-0.749
632642,3907.0,6147.0,2883.0,0.298,-0.105,-0.581,-0.75
632658,3429.0,6059.0,3251.0,0.298,-0.105,-0.58,-0.751
632675,2925.0,5985.0,3437.0,0.298,-0.105,-0.579,-0.751
632692,2841.0,5925.0,3503.0,0.299,-0.104,-0.579,-0.751
632709,3033.0,6151.0,3263.0,0.299,-0.103,-0.58,-0.751
632726,3515.0,6551.0,2847.0,0.3,-0.103,-0.581,-0.749
632753,4033.0,6675.0,2467.0,0.301,-0.102,-0.583,-0.748
632770,4435.0,6709.0,2253.0,0.302,-0.102,-0.584,-0.747
632786,4637.0,6841.0,2295.0,0.303,-0.101,-0.586,-0.745
632803,4647.0,7061.0,2211.0,0.304,-0.101,-0.587,-0.743
632820,4399.0,7279.0,2085.0,0.305,-0.102,-0.588,-0.742
632837,4227.0,7433.0,2237.0,0.305,-0.102,-0.588,-0.742
632854,3947.0,7195.0,2331.0,0.305,-0.103,-0.587,-0.743
632871,3937.0,6731.0,2383.0,0.304,-0.103,-0.585,-0.744
632888,3995.0,6653.0,2343.0,0.303,-0.104,-0.584,-0.746
632905,4069.0,6543.0,2425.0,0.302,-0.105,-0.582,-0.748
632922,4077.0,6483.0,2673.0,0.302,-0.105,-0.58,-0.749
632939,3699.0,5497.0,2563.0,0.301,-0.106,-0.58,-0.75
632956,4675.0,6979.0,2845.0,0.301,-0.105,-0.58,-0.75
632983,4237.0,6645.0,2777.0,0.301,-0.106,-0.579,-0.75
633000,4395.0,6463.0,2831.0,0.301,-0.106,-0.579,-0.75
633017,4333.0,6601.0,2999.0,0.302,-0.106,-0.579,-0.75
633034,4069.0,6771.0,3055.0,0.302,-0.106,-0.58,-0.749
633051,3999.0,6731.0,2885.0,0.301,-0.107,-0.58,-0.749
633068,3845.0,6473.0,2805.0,0.301,-0.107,-0.581,-0.749
633084,3765.0,6383.0,2833.0,0.3,-0.107,-0.582,-0.748
633100,3841.0,6413.0,2849.0,0.3,-0.106,-0.583,-0.748
633117,3975.0,6203.0,2725.0,0.3,-0.106,-0.585,-0.746
633134,4257.0,6799.0,2675.0,0.301,-0.105,-0.588,-0.743
633160,4233.0,7217.0,2603.0,0.301,-0.103,-0.591,-0.741
633177,4147.0,7027.0,2567.0,0.301,-0.102,-0.595,-0.738
633194,3985.0,5991.0,2499.0,0.3,-0.1,-0.601,-0.734
633210,4707.0,7553.0,2631.0,0.301,-0.098,-0.61,-0.726
633226,4873.0,9041.0,2741.0,0.301,-0.094,-0.619,-0.719
633242,5255.0,9841.0,2613.0,0.302,-0.089,-0.626,-0.713
633259,4739.0,11177.0,3229.0,0.303,-0.084,-0.631,-0.709
633276,4689.0,11693.0,3361.0,0.304,-0.079,-0.631,-0.709
633293,4661.0,10663.0,3223.0,0.304,-0.076,-0.626,-0.714
633310,4177.0,8937.0,3145.0,0.303,-0.072,-0.619,-0.721
633337,4319.0,8677.0,3179.0,0.3,-0.065,-0.615,-0.726
633354,5041.0,8501.0,3385.0,0.294,-0.053,-0.614,-0.731
633371,5405.0,9643.0,3635.0,0.284,-0.034,-0.618,-0.732
633387,4577.0,11439.0,2685.0,0.272,-0.011,-0.621,-0.735
633404,4329.0,11571.0,2175.0,0.258,0.011,-0.623,-0.739
633421,4353.0,10833.0,2243.0,0.244,0.033,-0.623,-0.743
633437,3619.0,8885.0,1543.0,0.225,0.058,-0.625,-0.746
633453,2853.0,8813.0,959.0,0.203,0.083,-0.63,-0.745
633479,1921.0,8977.0,399.0,0.177,0.11,-0.637,-0.742
633495,1771.0,9495.0,-111.0,0.148,0.136,-0.644,-0.739
633512,1385.0,9689.0,-447.0,0.117,0.161,-0.649,-0.734
633529,845.0,9567.0,-729.0,0.084,0.187,-0.653,-0.729
633546,133.0,9117.0,-877.0,0.05,0.211,-0.654,-0.725
633563,-45.0,8403.0,-799.0,0.016,0.234,-0.653,-0.72
633580,-773.0,7475.0,-621.0,0.016,-0.256,0.651,0.714
633597,-1639.0,6305.0,-637.0,0.048,-0.275,0.648,0.708
633613,-1965.0,5631.0,-679.0,0.08,-0.292,0.645,0.702
633630,-2279.0,5275.0,-853.0,0.111,-0.308,0.641,0.695
633647,-2541.0,5419.0,-793.0,0.142,-0.322,0.635,0.688
633674,-3245.0,5083.0,-265.0,0.171,-0.335,0.628,0.682
633691,-3653.0,3903.0,97.0,0.198,-0.347,0.618,0.677
633708,-4055.0,2403.0,341.0,0.224,-0.359,0.605,0.674
633725,-4511.0,2353.0,657.0,0.248,-0.369,0.594,0.67
633741,-4877.0,1519.0,1177.0,0.27,-0.376,0.585,0.666
633758,-5155.0,1227.0,1129.0,0.29,-0.381,0.578,0.661
633774,-5303.0,1523.0,1087.0,0.308,-0.385,0.572,0.656
633790,-5353.0,1953.0,1457.0,0.325,-0.388,0.566,0.651
633807,-5863.0,2043.0,1739.0,0.339,-0.39,0.56,0.647
633824,-5905.0,1633.0,1773.0,0.352,-0.392,0.554,0.645
633841,-5747.0,1309.0,1823.0,0.362,-0.393,0.548,0.644
633868,-5359.0,1007.0,2327.0,0.371,-0.394,0.544,0.641
633884,-6393.0,971.0,2541.0,0.378,-0.393,0.544,0.638
633901,-6165.0,2157.0,2275.0,0.384,-0.392,0.544,0.634
633918,-6535.0,2455.0,1759.0,0.388,-0.392,0.544,0.633
633934,-6605.0,3049.0,1315.0,0.389,-0.392,0.543,0.633
633950,-7393.0,3325.0,993.0,0.388,-0.393,0.54,0.635
633966,-7349.0,2989.0,855.0,0.385,-0.395,0.536,0.639
633983,-6895.0,3243.0,721.0,0.382,-0.397,0.532,0.643
634009,-7095.0,3839.0,605.0,0.378,-0.401,0.527,0.647
634025,-7141.0,4647.0,529.0,0.375,-0.407,0.52,0.651
634041,-7355.0,3203.0,899.0,0.371,-0.414,0.51,0.656
634057,-7623.0,2017.0,1325.0,0.368,-0.42,0.502,0.661
634074,-7549.0,1749.0,1713.0,0.365,-0.425,0.495,0.664
634091,-7703.0,1733.0,1713.0,0.361,-0.43,0.491,0.666
634107,-7811.0,1495.0,1643.0,0.357,-0.434,0.487,0.669
634133,-7557.0,1185.0,1457.0,0.353,-0.438,0.484,0.67
634149,-7497.0,1611.0,1249.0,0.351,-0.441,0.481,0.672
634165,-7623.0,1857.0,1247.0,0.349,-0.443,0.48,0.672
634182,-7881.0,2135.0,1273.0,0.348,-0.444,0.48,0.672
634199,-8089.0,2749.0,1515.0,0.348,-0.443,0.483,0.67
634216,-7677.0,3613.0,1583.0,0.349,-0.443,0.485,0.668
634233,-7635.0,4823.0,1475.0,0.349,-0.446,0.485,0.667
634250,-8277.0,3991.0,1639.0,0.347,-0.45,0.482,0.667
634266,-8577.0,2709.0,1419.0,0.346,-0.454,0.478,0.667
634292,-8447.0,2639.0,1163.0,0.345,-0.458,0.474,0.668
634308,-8093.0,2415.0,985.0,0.345,-0.462,0.47,0.668
634325,-7937.0,1737.0,949.0,0.345,-0.465,0.466,0.669
634342,-7843.0,999.0,1001.0,0.347,-0.467,0.465,0.668
634359,-7829.0,1123.0,935.0,0.35,-0.467,0.465,0.666
634376,-7787.0,1753.0,793.0,0.355,-0.465,0.468,0.662
634393,-7679.0,2163.0,757.0,0.359,-0.463,0.471,0.659
634410,-7625.0,2637.0,685.0,0.363,-0.461,0.474,0.657
634427,-7641.0,3249.0,513.0,0.365,-0.459,0.475,0.656
634444,-7681.0,2969.0,667.0,0.366,-0.458,0.474,0.657
634461,-7653.0,2267.0,991.0,0.366,-0.457,0.472,0.659
634487,-7185.0,2107.0,1261.0,0.366,-0.457,0.469,0.661
634504,-7281.0,2929.0,1391.0,0.366,-0.457,0.468,0.662
634520,-7651.0,3197.0,1443.0,0.366,-0.458,0.465,0.664
634536,-7321.0,2453.0,1495.0,0.364,-0.46,0.461,0.666
634552,-7341.0,1749.0,1615.0,0.363,-0.462,0.458,0.668
634569,-7695.0,1635.0,1307.0,0.36,-0.464,0.455,0.67
634585,-7747.0,1223.0,1413.0,0.358,-0.465,0.453,0.672
634602,-7453.0,743.0,1329.0,0.356,-0.465,0.452,0.673
634628,-7379.0,889.0,1153.0,0.356,-0.465,0.453,0.672
634644,-7667.0,973.0,1179.0,0.357,-0.464,0.455,0.67
634660,-7923.0,1625.0,889.0,0.358,-0.462,0.458,0.67
634677,-7921.0,1477.0,577.0,0.357,-0.46,0.458,0.672
634693,-7691.0,721.0,633.0,0.354,-0.458,0.456,0.676
634709,-7329.0,-123.0,1031.0,0.351,-0.455,0.454,0.681
634726,-6585.0,-1021.0,1387.0,0.346,-0.45,0.453,0.688
634753,-6281.0,-1809.0,1715.0,0.337,-0.443,0.454,0.695
634770,-5979.0,-1843.0,2093.0,0.327,-0.434,0.458,0.704
634787,-5519.0,-1743.0,2377.0,0.314,-0.422,0.465,0.712
634804,-5009.0,-1365.0,2563.0,0.299,-0.408,0.474,0.721
634821,-4779.0,-835.0,2527.0,0.281,-0.392,0.484,0.73
634838,-4469.0,-999.0,2517.0,0.261,-0.374,0.496,0.739
634856,-3531.0,-753.0,2463.0,0.24,-0.353,0.513,0.745
634873,-2769.0,463.0,2407.0,0.217,-0.329,0.533,0.748
634890,-2243.0,1329.0,2203.0,0.193,-0.303,0.557,0.749
634907,-1313.0,3287.0,1725.0,0.168,-0.275,0.583,0.746
634923,-769.0,8827.0,837.0,0.139,-0.248,0.604,0.745
634940,-855.0,11351.0,309.0,0.105,-0.224,0.61,0.753
634966,-1061.0,9237.0,587.0,0.068,-0.2,0.603,0.769
634983,-751.0,6689.0,1399.0,0.032,-0.173,0.595,0.784
635000,589.0,6621.0,1863.0,0.002,0.144,-0.59,-0.794
635016,2091.0,9673.0,1617.0,0.028,0.115,-0.586,-0.801
635033,3547.0,12289.0,1395.0,0.054,0.088,-0.579,-0.809
635049,4041.0,12447.0,2127.0,0.077,0.064,-0.569,-0.817
635066,3157.0,11833.0,3291.0,0.097,0.043,-0.557,-0.824
635083,2595.0,10987.0,4327.0,0.112,0.023,-0.549,-0.828
635100,2651.0,10399.0,4095.0,0.124,0.005,-0.542,-0.831
635117,2879.0,9541.0,3761.0,0.133,-0.011,-0.539,-0.832
635134,3487.0,10271.0,3803.0,0.141,-0.025,-0.539,-0.83
635151,3699.0,11561.0,4109.0,0.149,-0.037,-0.54,-0.828
635177,3289.0,11281.0,4491.0,0.155,-0.046,-0.537,-0.828
635194,2573.0,9315.0,4463.0,0.159,-0.053,-0.535,-0.828
635211,1909.0,9163.0,3957.0,0.162,-0.058,-0.538,-0.825
635228,1867.0,9087.0,4123.0,0.163,-0.061,-0.547,-0.819
635245,1487.0,12011.0,3565.0,0.163,-0.064,-0.556,-0.812
635262,809.0,11115.0,3577.0,0.163,-0.067,-0.561,-0.809
635279,1103.0,8945.0,3705.0,0.161,-0.07,-0.562,-0.808
635296,819.0,6879.0,3425.0,0.159,-0.072,-0.564,-0.807
635313,1095.0,6595.0,2943.0,0.155,-0.075,-0.568,-0.805
635330,1327.0,6789.0,2757.0,0.152,-0.077,-0.572,-0.802
635346,1369.0,6489.0,2685.0,0.15,-0.081,-0.573,-0.801
635372,1367.0,6369.0,2259.0,0.148,-0.087,-0.573,-0.801
635389,1735.0,5869.0,2961.0,0.148,-0.092,-0.571,-0.803
635406,1591.0,5007.0,3227.0,0.149,-0.099,-0.568,-0.803
635423,1811.0,5387.0,3453.0,0.151,-0.106,-0.567,-0.803
635440,1801.0,5057.0,3395.0,0.153,-0.113,-0.568,-0.801
635457,2453.0,6157.0,3439.0,0.156,-0.12,-0.571,-0.797
635474,2647.0,7187.0,3293.0,0.159,-0.128,-0.574,-0.793
635491,3143.0,7691.0,3355.0,0.162,-0.137,-0.577,-0.789
635508,3639.0,8723.0,3587.0,0.166,-0.146,-0.579,-0.785
635525,4163.0,9789.0,3893.0,0.171,-0.155,-0.58,-0.781
635542,4429.0,10391.0,4343.0,0.175,-0.162,-0.58,-0.779
635559,4877.0,10047.0,4401.0,0.179,-0.168,-0.578,-0.778
635576,5363.0,9055.0,4121.0,0.182,-0.171,-0.575,-0.779
635603,5497.0,7803.0,3659.0,0.185,-0.17,-0.572,-0.781
635620,5215.0,6785.0,3115.0,0.188,-0.164,-0.571,-0.782
635637,4647.0,6101.0,2741.0,0.191,-0.157,-0.571,-0.783
635654,4139.0,5851.0,2397.0,0.194,-0.147,-0.574,-0.782
635671,3817.0,5981.0,2025.0,0.197,-0.137,-0.579,-0.779
635688,3417.0,6095.0,1621.0,0.199,-0.128,-0.585,-0.776
635705,3279.0,6393.0,1557.0,0.2,-0.121,-0.591,-0.772
635721,2901.0,6771.0,1213.0,0.2,-0.115,-0.597,-0.768
635737,2745.0,7095.0,1115.0,0.201,-0.111,-0.602,-0.765
635753,2681.0,7475.0,1061.0,0.202,-0.109,-0.606,-0.762
635780,2749.0,7549.0,1149.0,0.203,-0.109,-0.609,-0.759
635797,3041.0,7505.0,1321.0,0.204,-0.109,-0.611,-0.757
635814,3209.0,7187.0,1563.0,0.205,-0.11,-0.612,-0.756
635831,3435.0,6761.0,1825.0,0.205,-0.111,-0.612,-0.755
635847,3367.0,6495.0,1963.0,0.206,-0.113,-0.613,-0.754
635863,3291.0,6413.0,2111.0,0.206,-0.114,-0.615,-0.753
635880,3323.0,6309.0,2237.0,0.206,-0.115,-0.617,-0.751
635896,3345.0,6477.0,2097.0,0.205,-0.116,-0.62,-0.748
635913,3431.0,6305.0,1851.0,0.204,-0.117,-0.624,-0.745
635930,3559.0,6119.0,1731.0,0.203,-0.118,-0.629,-0.742
635957,3399.0,6103.0,1507.0,0.202,-0.118,-0.633,-0.738
635974,3089.0,6251.0,1409.0,0.201,-0.118,-0.637,-0.735
635991,1505.0,7959.0,1545.0,0.2,-0.119,-0.639,-0.733
636008,503.0,10463.0,1169.0,0.202,-0.124,-0.639,-0.732
636025,2081.0,8187.0,393.0,0.205,-0.129,-0.637,-0.732
636042,3673.0,7437.0,521.0,0.208,-0.136,-0.636,-0.731
636059,3653.0,7765.0,1503.0,0.212,-0.142,-0.634,-0.73
636076,4297.0,8711.0,1851.0,0.214,-0.148,-0.63,-0.732
636093,5275.0,9145.0,2341.0,0.215,-0.151,-0.624,-0.736
636110,5229.0,8191.0,2891.0,0.216,-0.152,-0.614,-0.743
636127,4373.0,6433.0,3447.0,0.215,-0.151,-0.608,-0.749
636144,4015.0,6259.0,3255.0,0.215,-0.15,-0.606,-0.751
636161,4037.0,7181.0,2923.0,0.215,-0.149,-0.607,-0.751
636178,4161.0,7171.0,2411.0,0.216,-0.148,-0.608,-0.75
636204,4095.0,6781.0,1983.0,0.216,-0.148,-0.609,-0.748
636221,4179.0,6855.0,1631.0,0.216,-0.148,-0.611,-0.747
636238,4315.0,6905.0,1395.0,0.217,-0.149,-0.612,-0.746
636254,4327.0,6867.0,1357.0,0.218,-0.149,-0.612,-0.745
636271,4401.0,6941.0,1443.0,0.219,-0.15,-0.613,-0.744
636288,4351.0,6977.0,1621.0,0.22,-0.151,-0.613,-0.744
636305,4155.0,6963.0,1783.0,0.22,-0.151,-0.613,-0.743
636322,3969.0,6829.0,1913.0,0.221,-0.151,-0.614,-0.743
636339,3861.0,6899.0,1979.0,0.222,-0.15,-0.614,-0.742
636356,3881.0,7127.0,1899.0,0.222,-0.15,-0.616,-0.741
636372,3919.0,7371.0,1779.0,0.223,-0.149,-0.617,-0.74
636399,4023.0,7585.0,1737.0,0.224,-0.148,-0.618,-0.739
636416,4129.0,7525.0,1611.0,0.225,-0.148,-0.619,-0.738
636433,4161.0,7247.0,1529.0,0.225,-0.147,-0.619,-0.737
636450,4097.0,7037.0,1505.0,0.226,-0.147,-0.62,-0.737
636467,4099.0,6933.0,1605.0,0.228,-0.147,-0.62,-0.737
636484,4137.0,7025.0,1673.0,0.229,-0.147,-0.62,-0.736
636501,4129.0,6985.0,1629.0,0.23,-0.147,-0.62,-0.736
636518,4197.0,6937.0,1679.0,0.231,-0.147,-0.619,-0.736
636535,4087.0,6873.0,1683.0,0.232,-0.146,-0.619,-0.736
636552,4215.0,6831.0,1839.0,0.233,-0.146,-0.619,-0.736
636569,4071.0,6507.0,2129.0,0.233,-0.145,-0.618,-0.736
636586,4055.0,6305.0,2249.0,0.233,-0.144,-0.619,-0.736
636603,3937.0,6373.0,2171.0,0.234,-0.143,-0.62,-0.735
636620,3863.0,6361.0,1883.0,0.234,-0.141,-0.621,-0.734
636647,3903.0,6581.0,1599.0,0.234,-0.14,-0.623,-0.733
636664,3929.0,6899.0,1453.0,0.233,-0.138,-0.626,-0.731
636681,3847.0,7149.0,1443.0,0.232,-0.137,-0.628,-0.73
636698,3121.0,7739.0,1485.0,0.231,-0.135,-0.629,-0.73
636715,3041.0,8287.0,1505.0,0.23,-0.135,-0.63,-0.729
636732,3715.0,8211.0,1507.0,0.23,-0.135,-0.63,-0.729
636749,3887.0,8243.0,1469.0,0.23,-0.136,-0.63,-0.729
636766,3693.0,7555.0,1529.0,0.229,-0.136,-0.629,-0.73
636783,3759.0,6823.0,1439.0,0.228,-0.137,-0.628,-0.731
636800,3725.0,6379.0,1441.0,0.228,-0.138,-0.627,-0.732
636817,3589.0,6261.0,1485.0,0.228,-0.138,-0.627,-0.732
636834,3533.0,6905.0,1559.0,0.229,-0.138,-0.628,-0.731
636851,3477.0,7761.0,1495.0,0.231,-0.139,-0.628,-0.73
636868,3597.0,7837.0,1343.0,0.232,-0.139,-0.628,-0.729
636895,3969.0,7631.0,1361.0,0.234,-0.14,-0.627,-0.729
636912,4087.0,7289.0,1451.0,0.235,-0.141,-0.627,-0.729
636928,4131.0,6985.0,1567.0,0.236,-0.141,-0.626,-0.73
636944,4209.0,6505.0,1773.0,0.237,-0.141,-0.625,-0.731
636960,4097.0,6125.0,1857.0,0.237,-0.141,-0.624,-0.732
636977,4071.0,5785.0,1881.0,0.236,-0.141,-0.624,-0.732
636994,3915.0,6303.0,1871.0,0.236,-0.14,-0.625,-0.731
637011,3885.0,6777.0,1695.0,0.235,-0.139,-0.626,-0.73
637028,3903.0,7113.0,1577.0,0.233,-0.137,-0.628,-0.729
637045,3967.0,7213.0,1485.0,0.232,-0.135,-0.63,-0.729
637072,3295.0,7581.0,1543.0,0.23,-0.134,-0.631,-0.729
637089,2019.0,8865.0,1431.0,0.229,-0.134,-0.631,-0.729
637106,3373.0,8305.0,1395.0,0.23,-0.135,-0.629,-0.73
637123,4209.0,8045.0,1337.0,0.231,-0.137,-0.628,-0.73
637140,4067.0,8109.0,1557.0,0.232,-0.138,-0.627,-0.73
637157,4129.0,7517.0,1393.0,0.232,-0.14,-0.625,-0.732
637174,4275.0,6307.0,1249.0,0.233,-0.142,-0.622,-0.734
637191,4481.0,5569.0,1515.0,0.233,-0.143,-0.62,-0.736
637208,4345.0,5999.0,1909.0,0.234,-0.144,-0.619,-0.736
637224,4145.0,6591.0,2021.0,0.234,-0.145,-0.618,-0.736
637241,4055.0,6801.0,1957.0,0.235,-0.145,-0.618,-0.736
637258,4029.0,6695.0,1921.0,0.235,-0.144,-0.618,-0.736
637284,4037.0,6623.0,1891.0,0.234,-0.144,-0.618,-0.736
637301,3981.0,6733.0,1753.0,0.234,-0.143,-0.619,-0.736
637318,3999.0,6933.0,1751.0,0.233,-0.142,-0.619,-0.736
637335,4017.0,6913.0,1757.0,0.232,-0.141,-0.62,-0.736
637352,3925.0,6895.0,1757.0,0.231,-0.14,-0.621,-0.736
637369,3061.0,7335.0,1743.0,0.23,-0.139,-0.621,-0.737
637386,3165.0,7851.0,1775.0,0.23,-0.139,-0.62,-0.737
637403,3891.0,7775.0,1787.0,0.23,-0.139,-0.62,-0.737
637420,4099.0,7739.0,1765.0,0.23,-0.14,-0.62,-0.737
637437,3969.0,7293.0,1699.0,0.229,-0.141,-0.619,-0.738
637454,4065.0,6649.0,1671.0,0.228,-0.142,-0.618,-0.739
637471,4235.0,6145.0,1783.0,0.228,-0.143,-0.617,-0.74
637488,4207.0,6357.0,1863.0,0.227,-0.144,-0.617,-0.74
637505,4097.0,6869.0,1979.0,0.227,-0.144,-0.617,-0.74
637532,3861.0,7185.0,1923.0,0.227,-0.144,-0.617,-0.739
637549,3727.0,7145.0,1821.0,0.226,-0.145,-0.618,-0.739
637566,3699.0,7209.0,1735.0,0.226,-0.145,-0.618,-0.739
637583,3551.0,7137.0,1737.0,0.225,-0.145,-0.618,-0.739
637600,3513.0,7359.0,1761.0,0.225,-0.145,-0.618,-0.739
637617,3623.0,7279.0,1723.0,0.224,-0.145,-0.618,-0.74
637634,3733.0,6921.0,1783.0,0.224,-0.146,-0.617,-0.74
637651,3875.0,6803.0,1733.0,0.224,-0.146,-0.617,-0.74
637668,3999.0,6587.0,1801.0,0.225,-0.146,-0.617,-0.74
637685,4021.0,6659.0,1919.0,0.225,-0.145,-0.618,-0.739
637702,3931.0,6901.0,1799.0,0.226,-0.145,-0.619,-0.738
637719,3899.0,7293.0,1733.0,0.226,-0.144,-0.62,-0.737
637736,3811.0,7643.0,1645.0,0.227,-0.144,-0.621,-0.736
637762,3861.0,7785.0,1507.0,0.228,-0.144,-0.621,-0.735
637779,3923.0,7649.0,1395.0,0.229,-0.145,-0.621,-0.735
637796,3957.0,7505.0,1353.0,0.231,-0.145,-0.62,-0.735
637813,4079.0,7407.0,1463.0,0.232,-0.146,-0.619,-0.736
637830,4043.0,7293.0,1561.0,0.233,-0.147,-0.618,-0.737
637847,4073.0,6929.0,1693.0,0.233,-0.147,-0.616,-0.738
637864,4059.0,5447.0,1665.0,0.233,-0.147,-0.615,-0.739
637881,3869.0,4991.0,1911.0,0.233,-0.146,-0.615,-0.739
637898,3867.0,5969.0,2243.0,0.234,-0.145,-0.617,-0.738
637915,3845.0,7071.0,2249.0,0.234,-0.143,-0.619,-0.736
637932,3989.0,7571.0,1993.0,0.234,-0.142,-0.621,-0.735
637948,4069.0,7633.0,1677.0,0.233,-0.141,-0.622,-0.734
637975,3793.0,7553.0,1429.0,0.231,-0.14,-0.623,-0.734
637992,3081.0,8119.0,1461.0,0.231,-0.14,-0.623,-0.734
638009,3299.0,8669.0,1375.0,0.231,-0.141,-0.622,-0.734
638026,3773.0,8425.0,1373.0,0.232,-0.144,-0.62,-0.735
638043,4045.0,8133.0,1491.0,0.233,-0.146,-0.617,-0.737
638060,4389.0,7701.0,1523.0,0.233,-0.149,-0.614,-0.739
638077,4543.0,6663.0,1527.0,0.232,-0.151,-0.61,-0.742
638094,4643.0,5951.0,1785.0,0.231,-0.153,-0.606,-0.745
638111,4399.0,5705.0,2031.0,0.23,-0.154,-0.603,-0.748
638128,4123.0,5847.0,2061.0,0.228,-0.156,-0.601,-0.75
638144,4047.0,6121.0,2083.0,0.227,-0.157,-0.599,-0.752
638160,4081.0,6483.0,2099.0,0.227,-0.157,-0.598,-0.753
638187,4199.0,7049.0,2059.0,0.227,-0.158,-0.598,-0.753
638204,4267.0,7353.0,2093.0,0.227,-0.158,-0.597,-0.753
638221,4299.0,7009.0,2091.0,0.226,-0.157,-0.596,-0.754
638238,4301.0,6443.0,2191.0,0.224,-0.157,-0.595,-0.756
638254,4245.0,5919.0,2325.0,0.223,-0.157,-0.594,-0.757
638270,4055.0,5683.0,2485.0,0.222,-0.156,-0.593,-0.758
638286,3975.0,5933.0,2569.0,0.222,-0.156,-0.594,-0.757
638303,3889.0,6319.0,2557.0,0.223,-0.155,-0.596,-0.756
638320,3809.0,6975.0,2459.0,0.225,-0.154,-0.598,-0.754
638337,3793.0,7345.0,2307.0,0.226,-0.153,-0.601,-0.751
638364,3759.0,7483.0,2105.0,0.226,-0.151,-0.603,-0.75
638380,3673.0,7201.0,1983.0,0.227,-0.15,-0.604,-0.749
638397,3487.0,7121.0,1915.0,0.228,-0.149,-0.605,-0.748
638414,3549.0,7403.0,1771.0,0.23,-0.148,-0.606,-0.747
638431,3701.0,7773.0,1705.0,0.232,-0.148,-0.607,-0.746
638448,3763.0,8277.0,1501.0,0.234,-0.148,-0.607,-0.745
638465,3789.0,8071.0,1497.0,0.234,-0.148,-0.607,-0.745
638482,3941.0,8383.0,1637.0,0.234,-0.148,-0.605,-0.747
638498,4099.0,7725.0,1939.0,0.233,-0.148,-0.6,-0.751
638515,3729.0,5973.0,2057.0,0.231,-0.149,-0.595,-0.755
638532,3679.0,5621.0,2203.0,0.229,-0.148,-0.592,-0.758
638558,3229.0,5637.0,2291.0,0.228,-0.148,-0.59,-0.76
638575,3069.0,5847.0,2463.0,0.228,-0.148,-0.59,-0.76
638592,3417.0,6725.0,2429.0,0.229,-0.149,-0.591,-0.76
638609,3641.0,7561.0,2323.0,0.23,-0.149,-0.591,-0.758
638626,3865.0,8125.0,2143.0,0.232,-0.15,-0.592,-0.757
638643,4117.0,7837.0,2021.0,0.233,-0.151,-0.59,-0.758
638660,4187.0,6847.0,2023.0,0.232,-0.152,-0.588,-0.759
638677,4319.0,5965.0,2145.0,0.231,-0.153,-0.586,-0.761
638694,4351.0,5325.0,2293.0,0.23,-0.153,-0.585,-0.763
638710,4293.0,4873.0,2417.0,0.227,-0.152,-0.585,-0.763
638736,3809.0,5013.0,2469.0,0.226,-0.151,-0.587,-0.763
638753,2997.0,6045.0,2543.0,0.225,-0.15,-0.589,-0.761
638770,2935.0,7453.0,2489.0,0.226,-0.149,-0.592,-0.759
638787,3619.0,8571.0,2223.0,0.23,-0.149,-0.596,-0.755
638804,4119.0,9627.0,2045.0,0.234,-0.15,-0.599,-0.751
638821,4413.0,9901.0,1779.0,0.236,-0.151,-0.599,-0.75
638838,4463.0,8225.0,1517.0,0.236,-0.153,-0.595,-0.753
638855,4513.0,6219.0,1679.0,0.234,-0.155,-0.591,-0.756
638872,4431.0,4867.0,2155.0,0.231,-0.156,-0.588,-0.759
638889,4427.0,4411.0,2545.0,0.228,-0.157,-0.586,-0.761
638906,4405.0,4241.0,2671.0,0.226,-0.156,-0.587,-0.762
638923,3865.0,4631.0,2579.0,0.224,-0.155,-0.59,-0.76
638940,3183.0,6209.0,2709.0,0.223,-0.153,-0.593,-0.758
638957,2697.0,7715.0,2639.0,0.224,-0.152,-0.597,-0.756
638974,3369.0,8563.0,2305.0,0.228,-0.152,-0.601,-0.751
639001,3993.0,10293.0,1687.0,0.232,-0.152,-0.604,-0.747
639018,4339.0,10707.0,1281.0,0.235,-0.153,-0.605,-0.746
639035,4509.0,8599.0,1009.0,0.235,-0.155,-0.601,-0.748
639051,4711.0,6505.0,1205.0,0.233,-0.157,-0.596,-0.752
639068,4769.0,5035.0,1885.0,0.23,-0.158,-0.591,-0.757
639084,4607.0,4261.0,2509.0,0.227,-0.159,-0.588,-0.76
639100,4473.0,3737.0,2869.0,0.224,-0.158,-0.587,-0.761
639117,4227.0,4175.0,2913.0,0.222,-0.156,-0.59,-0.761
639134,3535.0,5337.0,2909.0,0.221,-0.153,-0.594,-0.758
639151,2511.0,6757.0,2877.0,0.221,-0.151,-0.598,-0.755
639178,2493.0,8265.0,2523.0,0.224,-0.149,-0.603,-0.751
639195,3371.0,9835.0,1783.0,0.228,-0.148,-0.609,-0.745
639212,3921.0,11129.0,1305.0,0.233,-0.148,-0.611,-0.742
639229,4243.0,9739.0,1019.0,0.235,-0.15,-0.609,-0.742
639246,4503.0,7333.0,909.0,0.234,-0.152,-0.605,-0.745
639263,4731.0,5495.0,1349.0,0.233,-0.154,-0.601,-0.749
639280,4687.0,4367.0,2039.0,0.231,-0.155,-0.598,-0.752
639296,4525.0,3957.0,2539.0,0.229,-0.154,-0.597,-0.753
639313,4407.0,4417.0,2663.0,0.227,-0.152,-0.599,-0.752
639330,4039.0,5349.0,2605.0,0.225,-0.149,-0.604,-0.75
639347,2893.0,6793.0,2475.0,0.224,-0.146,-0.608,-0.747
639364,2117.0,8443.0,2247.0,0.225,-0.143,-0.612,-0.744
639390,2737.0,9083.0,1519.0,0.229,-0.142,-0.616,-0.74
639407,3653.0,10531.0,1117.0,0.234,-0.142,-0.619,-0.736
639424,4159.0,10291.0,1139.0,0.237,-0.144,-0.618,-0.735
639441,4337.0,8079.0,897.0,0.238,-0.146,-0.614,-0.738
639458,4597.0,6099.0,999.0,0.237,-0.148,-0.609,-0.742
639474,4763.0,4791.0,1673.0,0.236,-0.149,-0.605,-0.745
639490,4631.0,4263.0,2341.0,0.234,-0.15,-0.604,-0.747
639507,4579.0,4447.0,2589.0,0.232,-0.149,-0.605,-0.747
639524,4365.0,5533.0,2537.0,0.23,-0.147,-0.608,-0.746
639542,3535.0,6545.0,2401.0,0.228,-0.144,-0.611,-0.744
639559,2421.0,7881.0,2187.0,0.227,-0.142,-0.614,-0.742
639576,2315.0,8689.0,1803.0,0.229,-0.141,-0.616,-0.74
639603,3071.0,9461.0,1119.0,0.232,-0.141,-0.619,-0.737
639620,3933.0,10325.0,1117.0,0.236,-0.143,-0.619,-0.735
639637,4211.0,8789.0,1131.0,0.238,-0.145,-0.616,-0.737
639654,4495.0,6953.0,1007.0,0.238,-0.148,-0.611,-0.741
639671,4639.0,5431.0,1311.0,0.237,-0.15,-0.606,-0.745
639687,4663.0,4607.0,2113.0,0.235,-0.151,-0.603,-0.747
639704,4635.0,4351.0,2655.0,0.233,-0.15,-0.602,-0.749
639721,4425.0,4693.0,2683.0,0.231,-0.149,-0.604,-0.748
639738,3779.0,6015.0,2539.0,0.23,-0.147,-0.607,-0.746
639755,2645.0,7403.0,2271.0,0.23,-0.145,-0.61,-0.744
639772,2501.0,8161.0,1737.0,0.233,-0.143,-0.613,-0.741
639789,3395.0,9385.0,1131.0,0.237,-0.143,-0.616,-0.737
639815,3937.0,10487.0,1397.0,0.241,-0.144,-0.617,-0.735
639832,4063.0,8751.0,1349.0,0.243,-0.146,-0.614,-0.737
639849,4171.0,6919.0,1209.0,0.243,-0.148,-0.609,-0.74
639866,4393.0,5405.0,1725.0,0.242,-0.149,-0.605,-0.744
639883,4487.0,4649.0,2473.0,0.24,-0.15,-0.602,-0.747
639900,4399.0,4453.0,2887.0,0.237,-0.15,-0.601,-0.748
639917,4301.0,4807.0,2863.0,0.235,-0.149,-0.603,-0.748
639934,3907.0,5883.0,2569.0,0.234,-0.147,-0.606,-0.746
639951,3145.0,7045.0,2181.0,0.233,-0.145,-0.61,-0.743
639968,2949.0,8033.0,1715.0,0.234,-0.144,-0.613,-0.74
639985,3545.0,8963.0,1107.0,0.237,-0.144,-0.617,-0.737
640001,4131.0,9943.0,927.0,0.241,-0.144,-0.619,-0.734
640028,4469.0,9279.0,973.0,0.243,-0.146,-0.617,-0.734
640045,4497.0,7487.0,991.0,0.244,-0.148,-0.613,-0.737
640062,4707.0,5999.0,1309.0,0.243,-0.149,-0.609,-0.74
640078,4683.0,4983.0,1921.0,0.241,-0.15,-0.606,-0.743
640095,4549.0,4679.0,2433.0,0.239,-0.15,-0.605,-0.745
640111,4529.0,4893.0,2587.0,0.236,-0.149,-0.606,-0.745
640127,4313.0,5675.0,2453.0,0.234,-0.147,-0.609,-0.744
640144,3521.0,6461.0,2229.0,0.231,-0.144,-0.612,-0.742
640160,2463.0,7481.0,2017.0,0.231,-0.142,-0.615,-0.74
640187,2553.0,8385.0,1575.0,0.233,-0.141,-0.618,-0.738
640204,3505.0,9693.0,1039.0,0.236,-0.141,-0.621,-0.734
640221,4053.0,10497.0,1291.0,0.24,-0.142,-0.621,-0.732
640237,4257.0,8461.0,1199.0,0.241,-0.144,-0.618,-0.734
640253,4569.0,6657.0,1045.0,0.241,-0.147,-0.613,-0.738
640270,4665.0,5195.0,1485.0,0.24,-0.148,-0.609,-0.741
640287,4595.0,4601.0,2197.0,0.238,-0.149,-0.607,-0.744
640303,4551.0,4613.0,2579.0,0.236,-0.149,-0.607,-0.744
640329,4421.0,5247.0,2501.0,0.234,-0.147,-0.609,-0.743
640346,3975.0,6183.0,2293.0,0.231,-0.145,-0.613,-0.742
640363,2875.0,7069.0,2075.0,0.23,-0.142,-0.616,-0.74
640379,2259.0,8069.0,1817.0,0.231,-0.141,-0.618,-0.738
640396,2995.0,8925.0,1073.0,0.234,-0.14,-0.621,-0.734
640413,3779.0,10565.0,925.0,0.237,-0.141,-0.623,-0.732
640430,4025.0,9355.0,1111.0,0.24,-0.143,-0.62,-0.733
640447,4301.0,7407.0,1087.0,0.24,-0.146,-0.616,-0.736
640464,4495.0,5759.0,1315.0,0.24,-0.148,-0.611,-0.74
640481,4607.0,4841.0,1935.0,0.239,-0.149,-0.608,-0.743
640498,4523.0,4611.0,2497.0,0.237,-0.149,-0.607,-0.744
640515,4411.0,4827.0,2631.0,0.235,-0.148,-0.608,-0.744
640532,4027.0,5879.0,2421.0,0.233,-0.146,-0.611,-0.742
640551,3245.0,6901.0,2165.0,0.232,-0.144,-0.615,-0.74
640577,2545.0,7857.0,1841.0,0.232,-0.143,-0.617,-0.738
640594,2999.0,8697.0,1273.0,0.234,-0.142,-0.62,-0.735
640611,3867.0,10083.0,1001.0,0.238,-0.143,-0.621,-0.733
640628,4123.0,9539.0,1195.0,0.24,-0.145,-0.619,-0.733
640644,4327.0,7581.0,1175.0,0.241,-0.147,-0.615,-0.736
640660,4471.0,6139.0,1289.0,0.241,-0.149,-0.611,-0.739
640677,4603.0,5155.0,1791.0,0.24,-0.151,-0.608,-0.742
640694,4621.0,4763.0,2361.0,0.238,-0.151,-0.606,-0.744
640711,4535.0,4841.0,2539.0,0.237,-0.151,-0.607,-0.744
640728,4317.0,5805.0,2407.0,0.235,-0.149,-0.609,-0.743
640745,3667.0,6577.0,2247.0,0.233,-0.147,-0.612,-0.741
640762,2849.0,7355.0,1925.0,0.232,-0.145,-0.615,-0.74
640789,2819.0,8283.0,1513.0,0.233,-0.144,-0.617,-0.737
640806,3523.0,9383.0,1121.0,0.236,-0.144,-0.619,-0.735
640823,4003.0,9741.0,1275.0,0.239,-0.145,-0.619,-0.734
640839,4235.0,7915.0,1383.0,0.24,-0.147,-0.616,-0.736
640856,4397.0,6457.0,1371.0,0.24,-0.149,-0.612,-0.739
640873,4615.0,5255.0,1663.0,0.24,-0.15,-0.609,-0.741
640890,4661.0,4859.0,2187.0,0.239,-0.151,-0.607,-0.743
640907,4533.0,5067.0,2391.0,0.237,-0.15,-0.608,-0.742
640924,4379.0,5849.0,2369.0,0.235,-0.149,-0.611,-0.741
640941,3941.0,6567.0,2221.0,0.233,-0.146,-0.614,-0.74
640958,3011.0,7193.0,1947.0,0.232,-0.144,-0.616,-0.739
640975,2641.0,7983.0,1601.0,0.232,-0.143,-0.619,-0.737
641001,3289.0,8863.0,1127.0,0.235,-0.143,-0.621,-0.734
641018,3861.0,9859.0,1065.0,0.238,-0.144,-0.621,-0.733
641035,4123.0,8549.0,1287.0,0.24,-0.146,-0.619,-0.734
641052,4371.0,6825.0,1251.0,0.24,-0.148,-0.615,-0.736
641068,4603.0,5615.0,1415.0,0.24,-0.149,-0.612,-0.739
641085,4607.0,5011.0,1877.0,0.24,-0.15,-0.61,-0.74
641102,4567.0,5051.0,2287.0,0.239,-0.149,-0.61,-0.741
641119,4385.0,5695.0,2271.0,0.237,-0.148,-0.612,-0.74
641136,4107.0,6435.0,2103.0,0.235,-0.146,-0.615,-0.739
641153,3369.0,7099.0,1971.0,0.233,-0.143,-0.617,-0.738
641170,2551.0,7901.0,1773.0,0.232,-0.142,-0.619,-0.737
641187,2845.0,8515.0,1263.0,0.234,-0.142,-0.621,-0.735
641214,3715.0,9765.0,953.0,0.237,-0.142,-0.622,-0.733
641230,4017.0,9209.0,1259.0,0.239,-0.144,-0.62,-0.734
641247,4245.0,7391.0,1293.0,0.24,-0.147,-0.616,-0.736
641264,4571.0,6057.0,1341.0,0.24,-0.149,-0.612,-0.739
641281,4581.0,5161.0,1777.0,0.239,-0.15,-0.609,-0.741
641298,4575.0,4863.0,2327.0,0.238,-0.151,-0.608,-0.743
641315,4475.0,5149.0,2471.0,0.237,-0.15,-0.608,-0.743
641332,4277.0,5947.0,2381.0,0.235,-0.148,-0.611,-0.741
641349,3751.0,6659.0,2135.0,0.233,-0.146,-0.614,-0.74
641366,2829.0,7441.0,1941.0,0.231,-0.144,-0.616,-0.739
641383,2587.0,8317.0,1523.0,0.231,-0.143,-0.618,-0.738
641400,3343.0,9159.0,1047.0,0.234,-0.143,-0.62,-0.735
641417,4023.0,9731.0,1121.0,0.237,-0.144,-0.619,-0.735
641444,4197.0,8087.0,1389.0,0.238,-0.147,-0.616,-0.737
641461,4471.0,6665.0,1347.0,0.238,-0.149,-0.612,-0.739
641478,4577.0,5397.0,1595.0,0.238,-0.15,-0.608,-0.742
641495,4615.0,4977.0,2145.0,0.237,-0.151,-0.606,-0.744
641512,4477.0,4931.0,2517.0,0.236,-0.15,-0.607,-0.744
641529,4335.0,5545.0,2459.0,0.234,-0.149,-0.609,-0.743
641546,4023.0,6399.0,2289.0,0.232,-0.147,-0.612,-0.742
641563,3243.0,7113.0,1997.0,0.231,-0.145,-0.615,-0.74
641580,2669.0,7883.0,1719.0,0.231,-0.143,-0.617,-0.739
641597,3073.0,8745.0,1207.0,0.232,-0.143,-0.619,-0.736
641614,3807.0,9741.0,993.0,0.235,-0.143,-0.62,-0.735
641631,4073.0,8743.0,1155.0,0.237,-0.145,-0.618,-0.735
641648,4331.0,7041.0,1279.0,0.238,-0.147,-0.615,-0.737
641674,4543.0,6077.0,1501.0,0.238,-0.149,-0.612,-0.739
641691,4563.0,5303.0,1947.0,0.237,-0.149,-0.61,-0.741
641708,4515.0,5169.0,2307.0,0.236,-0.149,-0.61,-0.742
641725,4419.0,5695.0,2443.0,0.235,-0.148,-0.611,-0.741
641741,4119.0,6081.0,2379.0,0.233,-0.147,-0.613,-0.741
641757,3507.0,6607.0,1983.0,0.231,-0.145,-0.616,-0.74
641774,2865.0,7247.0,1855.0,0.23,-0.143,-0.618,-0.738
641791,2877.0,7957.0,1363.0,0.232,-0.142,-0.62,-0.736
641808,3585.0,9485.0,931.0,0.234,-0.142,-0.623,-0.733
641825,4057.0,9883.0,1003.0,0.237,-0.143,-0.622,-0.732
641842,4173.0,7953.0,1053.0,0.238,-0.145,-0.62,-0.734
641869,4411.0,6639.0,1217.0,0.238,-0.147,-0.616,-0.736
641886,4469.0,5557.0,1599.0,0.237,-0.148,-0.613,-0.739
641903,4421.0,5247.0,2127.0,0.236,-0.148,-0.612,-0.74
641920,4301.0,5387.0,2405.0,0.234,-0.148,-0.612,-0.741
641937,4061.0,5935.0,2319.0,0.233,-0.146,-0.614,-0.74
641954,3481.0,6691.0,2109.0,0.231,-0.144,-0.616,-0.739
641971,2803.0,7515.0,1889.0,0.231,-0.143,-0.617,-0.738
641988,2979.0,8095.0,1413.0,0.232,-0.143,-0.619,-0.737
642005,3647.0,9423.0,1017.0,0.235,-0.143,-0.621,-0.734
642022,4017.0,9193.0,1097.0,0.237,-0.145,-0.619,-0.734
642039,4287.0,7731.0,1183.0,0.238,-0.147,-0.617,-0.736
642056,4521.0,6507.0,1247.0,0.238,-0.149,-0.613,-0.739
642073,4529.0,5555.0,1727.0,0.237,-0.15,-0.61,-0.741
642090,4519.0,5249.0,2311.0,0.236,-0.15,-0.608,-0.743
642107,4267.0,5217.0,2445.0,0.235,-0.15,-0.609,-0.743
642134,4089.0,5897.0,2305.0,0.234,-0.148,-0.61,-0.742
642151,3661.0,6595.0,2129.0,0.232,-0.146,-0.613,-0.741
642168,3095.0,7437.0,1857.0,0.231,-0.145,-0.615,-0.74
642185,2975.0,8191.0,1441.0,0.232,-0.144,-0.617,-0.738
642202,3469.0,8951.0,1115.0,0.234,-0.144,-0.618,-0.737
642219,3945.0,9403.0,1157.0,0.236,-0.145,-0.617,-0.737
642236,4153.0,7859.0,1349.0,0.237,-0.147,-0.614,-0.738
642252,4413.0,6759.0,1533.0,0.237,-0.149,-0.611,-0.741
642269,4421.0,5727.0,1761.0,0.237,-0.15,-0.608,-0.743
642286,4523.0,5283.0,2199.0,0.236,-0.151,-0.606,-0.744
642303,4349.0,5239.0,2409.0,0.235,-0.151,-0.606,-0.745
642320,4267.0,5837.0,2311.0,0.233,-0.15,-0.608,-0.744
642347,4033.0,6577.0,2181.0,0.231,-0.148,-0.61,-0.743
642364,3421.0,7039.0,1957.0,0.23,-0.146,-0.613,-0.742
642381,2763.0,7745.0,1687.0,0.229,-0.145,-0.614,-0.741
642397,2983.0,8409.0,1317.0,0.23,-0.145,-0.616,-0.74
642414,3675.0,9473.0,1151.0,0.233,-0.145,-0.616,-0.738
642431,3983.0,8741.0,1381.0,0.234,-0.147,-0.614,-0.739
642448,4311.0,7141.0,1505.0,0.235,-0.149,-0.611,-0.741
642465,4567.0,5965.0,1521.0,0.235,-0.151,-0.608,-0.743
642482,4611.0,5225.0,1895.0,0.235,-0.152,-0.606,-0.745
642499,4471.0,5131.0,2287.0,0.234,-0.152,-0.606,-0.745
642516,4373.0,5559.0,2345.0,0.233,-0.151,-0.607,-0.744
642533,4117.0,6261.0,2161.0,0.232,-0.149,-0.61,-0.743
642550,3623.0,6943.0,1967.0,0.23,-0.147,-0.613,-0.742
642577,2989.0,7519.0,1767.0,0.229,-0.145,-0.615,-0.741
642594,2721.0,8259.0,1465.0,0.229,-0.144,-0.617,-0.739
642611,3367.0,9221.0,1143.0,0.231,-0.144,-0.618,-0.737
642628,3947.0,9267.0,1219.0,0.233,-0.145,-0.617,-0.737
642645,4097.0,7663.0,1487.0,0.235,-0.147,-0.614,-0.739
642662,4365.0,6473.0,1525.0,0.235,-0.149,-0.611,-0.741
642679,4461.0,5551.0,1715.0,0.235,-0.151,-0.608,-0.743
642696,4501.0,5253.0,2125.0,0.234,-0.151,-0.607,-0.744
642713,4405.0,5447.0,2311.0,0.233,-0.151,-0.608,-0.744
642730,4285.0,6087.0,2221.0,0.232,-0.15,-0.61,-0.743
642747,3915.0,6765.0,1981.0,0.23,-0.148,-0.612,-0.742
642764,3219.0,7345.0,1795.0,0.229,-0.146,-0.614,-0.741
642781,2771.0,7997.0,1571.0,0.229,-0.145,-0.616,-0.74
642798,3197.0,8703.0,1161.0,0.231,-0.145,-0.617,-0.738
642815,3797.0,9279.0,1091.0,0.233,-0.146,-0.617,-0.738
642842,4045.0,8207.0,1389.0,0.234,-0.148,-0.614,-0.739
642859,4293.0,6913.0,1575.0,0.234,-0.15,-0.61,-0.742
642876,4499.0,5755.0,1695.0,0.234,-0.151,-0.607,-0.744
642893,4449.0,5255.0,2087.0,0.234,-0.152,-0.606,-0.745
642909,4357.0,5271.0,2383.0,0.233,-0.152,-0.606,-0.746
