timeMs,ax,ay,az,q0,q1,q2,q3
8047525,3277.0,4413.0,6017.0,0.907,0.338,-0.153,0.2
8047541,3179.0,4325.0,6113.0,0.908,0.339,-0.148,0.197
8047557,3041.0,4441.0,6141.0,0.91,0.339,-0.143,0.193
8047573,2803.0,4501.0,6193.0,0.911,0.339,-0.138,0.189
8047589,2749.0,4529.0,6187.0,0.913,0.339,-0.132,0.184
8047605,2769.0,4747.0,6113.0,0.915,0.339,-0.127,0.18
8047631,2835.0,4623.0,6131.0,0.917,0.339,-0.122,0.174
8047648,2665.0,4569.0,6229.0,0.918,0.339,-0.116,0.169
8047665,2539.0,4723.0,6291.0,0.92,0.339,-0.11,0.163
8047683,2329.0,4547.0,6103.0,0.921,0.34,-0.103,0.158
8047699,2089.0,5125.0,6103.0,0.923,0.341,-0.096,0.152
8047715,2033.0,5355.0,6173.0,0.924,0.342,-0.089,0.147
8047732,1637.0,4913.0,6183.0,0.925,0.342,-0.083,0.142
8047748,1741.0,5105.0,6275.0,0.927,0.342,-0.076,0.136
8047764,1689.0,4999.0,6339.0,0.928,0.342,-0.069,0.131
8047781,1403.0,4877.0,6305.0,0.929,0.343,-0.062,0.126
8047807,1281.0,4707.0,6367.0,0.93,0.344,-0.054,0.12
8047823,1195.0,4661.0,6293.0,0.93,0.345,-0.047,0.115
8047840,739.0,5419.0,6199.0,0.931,0.347,-0.04,0.109
8047856,341.0,5255.0,6455.0,0.931,0.348,-0.034,0.103
8047872,17.0,4997.0,6617.0,0.931,0.349,-0.03,0.098
8047889,45.0,5345.0,6531.0,0.931,0.351,-0.026,0.093
8047905,-51.0,5211.0,6663.0,0.931,0.352,-0.024,0.088
8047931,29.0,5069.0,6489.0,0.931,0.354,-0.022,0.084
8047947,303.0,5297.0,6353.0,0.931,0.357,-0.022,0.08
8047964,487.0,5271.0,6241.0,0.93,0.359,-0.023,0.075
8047980,783.0,5403.0,6203.0,0.93,0.361,-0.025,0.07
8047996,1085.0,5563.0,6041.0,0.929,0.362,-0.026,0.065
8048013,1095.0,5775.0,5947.0,0.929,0.363,-0.028,0.059
8048029,1135.0,6213.0,5659.0,0.93,0.362,-0.03,0.053
8048056,1043.0,6227.0,5553.0,0.931,0.36,-0.032,0.047
8048073,879.0,6275.0,5599.0,0.933,0.356,-0.034,0.04
8048089,663.0,5843.0,5851.0,0.935,0.35,-0.036,0.033
8048105,463.0,5543.0,6157.0,0.938,0.343,-0.038,0.027
8048121,177.0,5115.0,6515.0,0.941,0.336,-0.04,0.022
8048137,31.0,4593.0,6787.0,0.943,0.329,-0.042,0.017
8048153,29.0,4441.0,6939.0,0.945,0.324,-0.044,0.013
8048179,309.0,4055.0,6803.0,0.946,0.32,-0.046,0.009
8048196,491.0,4477.0,6661.0,0.947,0.318,-0.048,0.006
8048213,635.0,4865.0,6573.0,0.947,0.317,-0.049,0.004
8048229,763.0,4827.0,6571.0,0.948,0.315,-0.049,0.003
8048245,879.0,4589.0,6589.0,0.948,0.313,-0.049,0.002
8048262,1047.0,4503.0,6521.0,0.949,0.312,-0.049,0.002
8048278,1021.0,4835.0,6435.0,0.949,0.311,-0.047,0.002
8048294,1051.0,5147.0,6437.0,0.95,0.31,-0.046,0.003
8048321,827.0,4921.0,6555.0,0.95,0.308,-0.043,0.003
8048337,639.0,4491.0,6777.0,0.951,0.306,-0.041,0.004
8048354,515.0,4421.0,6853.0,0.952,0.305,-0.038,0.006
8048370,617.0,4367.0,6913.0,0.952,0.304,-0.036,0.008
8048386,539.0,4311.0,6943.0,0.952,0.303,-0.034,0.01
8048402,475.0,4217.0,6871.0,0.952,0.303,-0.031,0.012
8048420,545.0,4547.0,6715.0,0.952,0.304,-0.029,0.015
8048446,501.0,4755.0,6653.0,0.952,0.305,-0.026,0.018
8048462,475.0,5033.0,6691.0,0.952,0.305,-0.023,0.021
8048478,229.0,4863.0,6679.0,0.952,0.305,-0.02,0.024
8048495,291.0,4775.0,6671.0,0.952,0.304,-0.018,0.028
8048512,221.0,4767.0,6711.0,0.952,0.304,-0.015,0.031
8048528,107.0,4537.0,6761.0,0.952,0.303,-0.013,0.034
8048544,95.0,4705.0,6757.0,0.952,0.303,-0.011,0.038
8048561,61.0,4667.0,6813.0,0.952,0.302,-0.008,0.041
8048587,29.0,4739.0,6721.0,0.952,0.301,-0.006,0.045
8048603,-157.0,4183.0,7099.0,0.953,0.3,-0.004,0.049
8048619,65.0,3987.0,7047.0,0.952,0.3,-0.003,0.053
8048635,139.0,4165.0,6937.0,0.952,0.301,-0.002,0.056
8048652,159.0,4241.0,6837.0,0.951,0.303,-0.001,0.06
8048668,121.0,4523.0,6813.0,0.95,0.305,-0.001,0.063
8048684,143.0,4533.0,6855.0,0.95,0.307,-0.0,0.066
8048710,133.0,4297.0,6821.0,0.949,0.309,0.0,0.069
8048726,243.0,4793.0,6543.0,0.947,0.312,0.0,0.071
8048742,247.0,5243.0,6523.0,0.946,0.315,0.001,0.074
8048758,-59.0,5371.0,6491.0,0.945,0.317,0.001,0.076
8048775,7.0,5327.0,6533.0,0.945,0.318,-0.0,0.078
8048791,19.0,5051.0,6609.0,0.945,0.318,-0.002,0.08
8048808,35.0,4875.0,6615.0,0.945,0.317,-0.003,0.081
8048834,67.0,4791.0,6623.0,0.945,0.317,-0.004,0.083
8048850,171.0,4841.0,6615.0,0.945,0.316,-0.006,0.084
8048867,187.0,4799.0,6679.0,0.945,0.316,-0.008,0.084
8048883,251.0,4735.0,6725.0,0.945,0.315,-0.01,0.085
8048899,329.0,4655.0,6709.0,0.945,0.314,-0.012,0.085
8048915,311.0,4653.0,6693.0,0.945,0.314,-0.015,0.086
8048932,445.0,4641.0,6725.0,0.945,0.314,-0.018,0.086
8048958,533.0,4767.0,6679.0,0.945,0.314,-0.02,0.085
8048974,597.0,4801.0,6645.0,0.945,0.314,-0.023,0.085
8048990,643.0,4827.0,6591.0,0.945,0.314,-0.027,0.084
8049006,673.0,4805.0,6635.0,0.945,0.313,-0.03,0.084
8049022,769.0,4753.0,6651.0,0.946,0.313,-0.033,0.083
8049038,829.0,4725.0,6649.0,0.946,0.312,-0.036,0.082
8049064,843.0,4653.0,6623.0,0.946,0.312,-0.039,0.081
8049080,865.0,4633.0,6657.0,0.946,0.311,-0.042,0.079
8049097,901.0,4617.0,6703.0,0.946,0.311,-0.045,0.078
8049113,1033.0,4591.0,6653.0,0.946,0.31,-0.048,0.077
8049129,1079.0,4601.0,6641.0,0.946,0.31,-0.051,0.076
8049145,1159.0,4541.0,6641.0,0.946,0.31,-0.053,0.074
8049162,1219.0,4531.0,6657.0,0.946,0.309,-0.056,0.073
8049188,1283.0,4571.0,6637.0,0.946,0.309,-0.058,0.072
8049204,1249.0,4559.0,6599.0,0.946,0.309,-0.06,0.071
8049220,1261.0,4621.0,6597.0,0.946,0.309,-0.062,0.07
8049236,1293.0,4695.0,6585.0,0.946,0.309,-0.063,0.07
8049252,1229.0,4791.0,6551.0,0.946,0.309,-0.064,0.069
8049268,1267.0,4693.0,6545.0,0.946,0.309,-0.065,0.068
8049294,1311.0,4649.0,6609.0,0.946,0.309,-0.065,0.068
8049310,1287.0,4607.0,6591.0,0.946,0.309,-0.065,0.068
8049327,1265.0,4677.0,6561.0,0.947,0.309,-0.065,0.067
8049344,1265.0,4695.0,6575.0,0.947,0.309,-0.065,0.067
8049360,1297.0,4645.0,6617.0,0.947,0.308,-0.065,0.067
8049377,1281.0,4587.0,6649.0,0.947,0.308,-0.064,0.067
8049393,1217.0,4555.0,6655.0,0.947,0.308,-0.063,0.066
8049410,1275.0,4549.0,6695.0,0.947,0.308,-0.063,0.066
8049436,1307.0,4639.0,6659.0,0.947,0.308,-0.062,0.066
8049453,1239.0,4599.0,6647.0,0.947,0.308,-0.061,0.066
8049469,1299.0,4693.0,6637.0,0.947,0.308,-0.06,0.065
8049485,1180.0,4629.0,6600.0,0.947,0.308,-0.059,0.065
8049501,1144.0,4683.0,6630.0,0.947,0.308,-0.058,0.065
8049517,1154.0,4655.0,6662.0,0.947,0.308,-0.057,0.064
8049534,1087.0,4567.0,6691.0,0.948,0.308,-0.056,0.064
8049551,959.0,4621.0,6635.0,0.948,0.308,-0.055,0.063
8049578,865.0,4647.0,6681.0,0.948,0.309,-0.054,0.062
8049594,753.0,4723.0,6731.0,0.948,0.309,-0.052,0.062
8049610,793.0,4763.0,6653.0,0.948,0.309,-0.051,0.061
8049626,755.0,4799.0,6641.0,0.948,0.31,-0.05,0.06
8049643,821.0,4713.0,6647.0,0.948,0.31,-0.049,0.06
8049659,871.0,4677.0,6705.0,0.948,0.31,-0.048,0.059
8049676,981.0,4559.0,6689.0,0.948,0.31,-0.047,0.058
8049702,1001.0,4617.0,6631.0,0.948,0.31,-0.046,0.058
8049719,967.0,4701.0,6603.0,0.948,0.311,-0.044,0.057
8049736,895.0,4755.0,6651.0,0.948,0.311,-0.043,0.057
8049752,801.0,4733.0,6561.0,0.948,0.312,-0.042,0.056
8049768,787.0,4827.0,6607.0,0.947,0.312,-0.041,0.055
8049785,691.0,4829.0,6669.0,0.947,0.313,-0.04,0.055
8049801,617.0,4673.0,6695.0,0.947,0.313,-0.039,0.054
8049817,529.0,4661.0,6697.0,0.947,0.313,-0.038,0.053
8049843,521.0,4621.0,6677.0,0.947,0.314,-0.037,0.052
8049859,635.0,4777.0,6615.0,0.947,0.315,-0.036,0.052
8049875,659.0,4859.0,6601.0,0.947,0.315,-0.035,0.051
8049891,691.0,4919.0,6517.0,0.947,0.316,-0.034,0.051
8049908,731.0,4867.0,6579.0,0.947,0.317,-0.033,0.05
8049924,675.0,4929.0,6487.0,0.947,0.317,-0.032,0.049
8049950,609.0,4947.0,6569.0,0.946,0.318,-0.031,0.048
8049966,525.0,4813.0,6605.0,0.946,0.318,-0.03,0.047
8049983,471.0,4833.0,6605.0,0.946,0.318,-0.029,0.046
8050000,599.0,4801.0,6757.0,0.946,0.319,-0.028,0.045
8050016,293.0,4671.0,6601.0,0.946,0.319,-0.027,0.044
8050032,421.0,4935.0,6601.0,0.946,0.32,-0.027,0.043
8050048,565.0,5091.0,6569.0,0.946,0.321,-0.026,0.042
8050065,419.0,4781.0,6505.0,0.945,0.322,-0.025,0.041
8050091,379.0,4943.0,6521.0,0.945,0.323,-0.025,0.04
8050107,383.0,5043.0,6483.0,0.945,0.324,-0.024,0.04
8050124,469.0,5051.0,6437.0,0.945,0.325,-0.024,0.039
8050141,439.0,4995.0,6459.0,0.945,0.325,-0.024,0.038
8050157,465.0,4973.0,6511.0,0.944,0.326,-0.023,0.037
8050173,535.0,4911.0,6517.0,0.944,0.326,-0.023,0.037
8050190,468.0,4997.0,6472.0,0.944,0.327,-0.022,0.036
8050216,454.0,5045.0,6447.0,0.944,0.328,-0.022,0.036
8050233,453.0,5061.0,6437.0,0.944,0.328,-0.021,0.035
8050250,408.0,5047.0,6464.0,0.944,0.329,-0.02,0.035
8050267,320.0,5087.0,6372.0,0.943,0.329,-0.02,0.034
8050283,326.0,5117.0,6402.0,0.943,0.33,-0.019,0.034
8050299,276.0,5053.0,6442.0,0.943,0.33,-0.018,0.034
8050315,276.0,4941.0,6456.0,0.943,0.33,-0.018,0.033
8050331,284.0,4979.0,6476.0,0.943,0.33,-0.017,0.033
8050357,276.0,5011.0,6468.0,0.943,0.33,-0.017,0.033
8050373,220.0,5097.0,6470.0,0.943,0.331,-0.017,0.032
8050389,228.0,5067.0,6496.0,0.943,0.331,-0.016,0.032
8050405,204.0,5145.0,6400.0,0.943,0.331,-0.016,0.031
8050422,228.0,5115.0,6412.0,0.943,0.331,-0.016,0.031
8050439,258.0,5041.0,6432.0,0.943,0.331,-0.016,0.03
8050456,238.0,5043.0,6478.0,0.943,0.331,-0.015,0.03
8050473,242.0,5029.0,6432.0,0.943,0.331,-0.015,0.029
8050489,210.0,5055.0,6444.0,0.943,0.331,-0.015,0.029
8050515,202.0,5083.0,6524.0,0.943,0.331,-0.016,0.028
8050531,256.0,5069.0,6448.0,0.943,0.331,-0.016,0.027
8050547,216.0,5085.0,6410.0,0.943,0.331,-0.016,0.026
8050563,196.0,5069.0,6434.0,0.943,0.331,-0.016,0.026
8050579,246.0,5035.0,6414.0,0.943,0.331,-0.016,0.025
8050605,302.0,5089.0,6392.0,0.943,0.331,-0.016,0.024
8050621,268.0,5103.0,6404.0,0.943,0.331,-0.017,0.024
8050637,240.0,5101.0,6392.0,0.943,0.331,-0.017,0.023
8050653,296.0,5113.0,6460.0,0.943,0.331,-0.017,0.022
8050670,242.0,5011.0,6442.0,0.943,0.331,-0.017,0.022
8050686,230.0,5073.0,6404.0,0.943,0.331,-0.017,0.021
8050702,190.0,5135.0,6442.0,0.943,0.331,-0.017,0.02
8050728,212.0,5115.0,6432.0,0.943,0.332,-0.018,0.02
8050744,246.0,5083.0,6422.0,0.943,0.332,-0.018,0.019
8050761,230.0,5051.0,6416.0,0.943,0.332,-0.018,0.019
8050778,282.0,5085.0,6412.0,0.943,0.332,-0.018,0.018
8050794,252.0,5075.0,6454.0,0.943,0.332,-0.018,0.018
8050810,248.0,5085.0,6434.0,0.943,0.332,-0.018,0.017
8050826,236.0,5069.0,6430.0,0.943,0.332,-0.018,0.017
8050852,256.0,5075.0,6428.0,0.943,0.332,-0.019,0.016
8050868,198.0,5109.0,6452.0,0.943,0.332,-0.019,0.015
8050884,238.0,5077.0,6458.0,0.943,0.332,-0.019,0.015
8050900,176.0,5083.0,6362.0,0.943,0.332,-0.019,0.014
8050917,246.0,5121.0,6488.0,0.943,0.332,-0.019,0.014
8050933,236.0,5147.0,6408.0,0.943,0.332,-0.019,0.013
8050959,200.0,5095.0,6444.0,0.943,0.332,-0.02,0.013
8050975,206.0,5083.0,6402.0,0.943,0.332,-0.02,0.012
8050992,226.0,5043.0,6448.0,0.943,0.332,-0.02,0.012
8051008,280.0,5045.0,6420.0,0.943,0.332,-0.02,0.011
8051025,290.0,5057.0,6374.0,0.943,0.332,-0.021,0.01
8051041,244.0,5087.0,6362.0,0.943,0.332,-0.021,0.01
8051057,266.0,5157.0,6376.0,0.943,0.333,-0.021,0.009
8051074,228.0,5133.0,6404.0,0.943,0.333,-0.021,0.009
8051100,234.0,5151.0,6450.0,0.943,0.333,-0.022,0.008
8051117,216.0,4985.0,6404.0,0.943,0.333,-0.022,0.007
8051133,228.0,5071.0,6428.0,0.943,0.333,-0.022,0.007
8051149,222.0,5145.0,6398.0,0.943,0.333,-0.022,0.006
8051165,280.0,5161.0,6394.0,0.943,0.333,-0.023,0.006
8051182,238.0,5107.0,6398.0,0.943,0.333,-0.023,0.005
8051198,278.0,5055.0,6414.0,0.943,0.333,-0.023,0.005
8051224,276.0,5087.0,6340.0,0.943,0.333,-0.023,0.005
8051240,242.0,5097.0,6428.0,0.943,0.333,-0.024,0.004
8051257,258.0,5059.0,6380.0,0.942,0.334,-0.024,0.004
8051273,294.0,5059.0,6396.0,0.942,0.334,-0.025,0.004
8051290,326.0,5119.0,6442.0,0.942,0.335,-0.025,0.004
8051306,512.0,5115.0,6738.0,0.942,0.335,-0.025,0.004
8051323,48.0,4637.0,6466.0,0.941,0.337,-0.025,0.004
8051339,-38.0,5051.0,6194.0,0.941,0.338,-0.025,0.004
8051366,172.0,5217.0,6250.0,0.94,0.34,-0.026,0.003
8051382,472.0,5355.0,6212.0,0.939,0.342,-0.026,0.002
8051398,-82.0,5017.0,6192.0,0.939,0.344,-0.027,0.001
8051415,248.0,5227.0,6198.0,0.938,0.346,-0.028,-0.0
8051431,438.0,5997.0,6252.0,0.937,0.348,-0.03,-0.002
8051448,496.0,5405.0,6078.0,0.937,0.348,-0.031,-0.003
8051465,476.0,5357.0,6044.0,0.937,0.348,-0.032,-0.004
8051482,488.0,5687.0,6070.0,0.937,0.348,-0.032,-0.005
8051499,442.0,5469.0,6172.0,0.937,0.347,-0.033,-0.006
8051516,186.0,5455.0,6220.0,0.938,0.346,-0.033,-0.006
8051543,190.0,5185.0,6534.0,0.938,0.345,-0.033,-0.007
8051560,-258.0,4625.0,6536.0,0.938,0.345,-0.034,-0.007
8051577,-512.0,4429.0,6234.0,0.937,0.347,-0.037,-0.007
8051594,252.0,5863.0,5932.0,0.936,0.35,-0.04,-0.008
8051611,1102.0,6977.0,5776.0,0.936,0.35,-0.043,-0.009
8051628,2302.0,7089.0,5828.0,0.936,0.348,-0.043,-0.009
8051645,-802.0,4685.0,6194.0,0.938,0.343,-0.041,-0.009
8051662,848.0,4457.0,6724.0,0.939,0.34,-0.041,-0.008
8051679,290.0,4171.0,6402.0,0.94,0.339,-0.04,-0.007
8051695,706.0,5065.0,6390.0,0.94,0.34,-0.04,-0.006
8051711,716.0,5245.0,6284.0,0.939,0.34,-0.039,-0.005
8051737,646.0,5447.0,6182.0,0.939,0.341,-0.039,-0.005
8051754,614.0,5335.0,6184.0,0.94,0.34,-0.038,-0.005
8051771,520.0,5165.0,6190.0,0.94,0.34,-0.037,-0.004
8051788,488.0,5177.0,6294.0,0.94,0.34,-0.036,-0.005
8051805,402.0,5235.0,6342.0,0.94,0.339,-0.035,-0.005
8051822,204.0,5267.0,6424.0,0.94,0.339,-0.034,-0.004
8051839,-6.0,5089.0,6430.0,0.94,0.339,-0.033,-0.004
8051856,-54.0,5081.0,6484.0,0.94,0.339,-0.032,-0.004
8051873,104.0,5165.0,6370.0,0.94,0.339,-0.031,-0.004
8051890,332.0,5207.0,6366.0,0.94,0.34,-0.031,-0.004
8051907,450.0,5067.0,6324.0,0.94,0.34,-0.031,-0.004
8051924,302.0,5115.0,6370.0,0.94,0.34,-0.032,-0.005
8051941,452.0,5205.0,6270.0,0.94,0.341,-0.032,-0.005
8051958,444.0,5289.0,6220.0,0.939,0.342,-0.033,-0.006
8051985,430.0,5409.0,6230.0,0.939,0.342,-0.033,-0.007
8052002,392.0,5365.0,6256.0,0.939,0.342,-0.034,-0.007
8052019,394.0,5231.0,6298.0,0.939,0.342,-0.035,-0.008
8052036,366.0,5265.0,6238.0,0.939,0.342,-0.035,-0.009
8052053,364.0,5325.0,6254.0,0.939,0.342,-0.036,-0.009
8052069,384.0,5377.0,6256.0,0.939,0.342,-0.036,-0.009
8052086,418.0,5329.0,6200.0,0.939,0.342,-0.036,-0.009
8052103,474.0,5251.0,6194.0,0.939,0.341,-0.037,-0.009
8052119,480.0,5275.0,6248.0,0.94,0.34,-0.037,-0.009
8052136,446.0,5239.0,6288.0,0.94,0.34,-0.037,-0.01
8052153,454.0,5157.0,6326.0,0.94,0.339,-0.037,-0.01
8052179,488.0,5093.0,6340.0,0.94,0.338,-0.037,-0.01
8052195,720.0,5245.0,6434.0,0.941,0.338,-0.037,-0.01
8052211,968.0,4887.0,6370.0,0.941,0.337,-0.036,-0.009
8052228,402.0,5073.0,6268.0,0.941,0.336,-0.035,-0.009
8052244,66.0,4239.0,6354.0,0.941,0.336,-0.034,-0.011
8052260,300.0,4579.0,6568.0,0.941,0.338,-0.033,-0.013
8052286,470.0,4879.0,6278.0,0.939,0.341,-0.032,-0.014
8052303,346.0,5223.0,6336.0,0.938,0.345,-0.031,-0.016
8052320,310.0,5485.0,6310.0,0.937,0.348,-0.029,-0.017
8052336,118.0,5245.0,6066.0,0.936,0.351,-0.028,-0.018
8052352,40.0,5445.0,6064.0,0.935,0.354,-0.026,-0.019
8052368,146.0,5901.0,5932.0,0.934,0.356,-0.025,-0.02
8052384,198.0,5905.0,5916.0,0.933,0.358,-0.025,-0.021
8052410,342.0,5709.0,6154.0,0.933,0.359,-0.024,-0.021
8052427,92.0,5095.0,6192.0,0.933,0.36,-0.022,-0.022
8052444,-246.0,5093.0,6080.0,0.932,0.362,-0.021,-0.022
8052461,-156.0,5717.0,6090.0,0.931,0.363,-0.02,-0.022
8052478,-36.0,5911.0,6038.0,0.931,0.365,-0.02,-0.022
8052495,18.0,5621.0,6068.0,0.93,0.365,-0.02,-0.021
8052512,-208.0,5311.0,5898.0,0.93,0.366,-0.02,-0.02
8052529,-194.0,5327.0,5972.0,0.93,0.367,-0.021,-0.019
8052546,146.0,6013.0,6024.0,0.93,0.368,-0.022,-0.02
8052563,348.0,5999.0,5940.0,0.929,0.368,-0.022,-0.02
8052580,246.0,5695.0,5844.0,0.929,0.368,-0.022,-0.02
8052597,120.0,5577.0,5796.0,0.929,0.368,-0.023,-0.021
8052613,70.0,5623.0,5876.0,0.929,0.368,-0.023,-0.021
8052640,-98.0,5511.0,5912.0,0.93,0.367,-0.023,-0.022
8052657,-166.0,5657.0,5916.0,0.929,0.367,-0.024,-0.022
8052674,-34.0,6047.0,5964.0,0.93,0.367,-0.025,-0.022
8052691,-226.0,5609.0,6028.0,0.93,0.365,-0.027,-0.022
8052708,-174.0,5237.0,6198.0,0.931,0.364,-0.029,-0.022
8052725,-388.0,4883.0,6104.0,0.931,0.364,-0.031,-0.023
8052742,-326.0,5265.0,6132.0,0.93,0.365,-0.035,-0.023
8052759,44.0,6203.0,5862.0,0.929,0.367,-0.039,-0.024
8052776,890.0,6923.0,5736.0,0.929,0.366,-0.044,-0.024
8052792,1526.0,6739.0,5452.0,0.93,0.363,-0.047,-0.024
8052808,2076.0,5273.0,4674.0,0.933,0.357,-0.047,-0.025
8052834,794.0,3993.0,6568.0,0.935,0.352,-0.045,-0.024
8052850,-36.0,3457.0,6680.0,0.936,0.349,-0.043,-0.023
8052867,522.0,4237.0,6696.0,0.935,0.351,-0.042,-0.022
8052883,648.0,5299.0,5994.0,0.934,0.354,-0.041,-0.022
8052900,446.0,5903.0,5980.0,0.933,0.358,-0.04,-0.022
8052917,156.0,6185.0,5770.0,0.932,0.361,-0.038,-0.022
8052933,28.0,6227.0,5928.0,0.931,0.361,-0.037,-0.022
8052959,14.0,5801.0,5940.0,0.932,0.361,-0.037,-0.022
8052976,246.0,5345.0,6072.0,0.932,0.36,-0.036,-0.022
8052993,294.0,5343.0,6144.0,0.932,0.36,-0.036,-0.022
8053009,362.0,5405.0,6180.0,0.932,0.36,-0.035,-0.023
8053026,406.0,5367.0,6046.0,0.932,0.36,-0.035,-0.023
8053042,432.0,5427.0,6040.0,0.932,0.361,-0.035,-0.023
8053058,328.0,5577.0,5976.0,0.931,0.362,-0.034,-0.023
8053074,280.0,5675.0,5974.0,0.931,0.362,-0.034,-0.024
8053100,262.0,5599.0,5968.0,0.931,0.363,-0.034,-0.024
8053116,242.0,5531.0,6048.0,0.931,0.363,-0.034,-0.025
8053133,280.0,5447.0,6044.0,0.931,0.363,-0.033,-0.025
8053149,242.0,5459.0,6018.0,0.931,0.364,-0.033,-0.026
8053166,228.0,5589.0,6010.0,0.93,0.364,-0.033,-0.026
8053183,222.0,5563.0,5940.0,0.93,0.365,-0.033,-0.026
8053199,280.0,5545.0,6000.0,0.93,0.366,-0.032,-0.026
8053216,254.0,5573.0,5964.0,0.93,0.366,-0.032,-0.027
8053242,206.0,5657.0,5932.0,0.929,0.367,-0.032,-0.027
8053259,220.0,5633.0,5952.0,0.929,0.367,-0.031,-0.027
8053275,196.0,5567.0,5986.0,0.929,0.368,-0.031,-0.028
8053292,242.0,5573.0,5988.0,0.929,0.368,-0.031,-0.028
8053308,154.0,5543.0,6018.0,0.929,0.369,-0.031,-0.028
8053324,158.0,5619.0,5982.0,0.928,0.369,-0.03,-0.029
8053340,138.0,5569.0,5958.0,0.928,0.37,-0.03,-0.029
8053366,176.0,5659.0,5934.0,0.928,0.371,-0.03,-0.029
8053383,148.0,5677.0,5928.0,0.928,0.371,-0.03,-0.03
8053400,184.0,5613.0,5888.0,0.927,0.372,-0.03,-0.03
8053416,202.0,5601.0,5958.0,0.927,0.372,-0.03,-0.03
8053432,170.0,5599.0,5918.0,0.927,0.373,-0.03,-0.031
8053449,192.0,5657.0,5882.0,0.926,0.374,-0.03,-0.031
8053466,214.0,5699.0,5870.0,0.926,0.375,-0.03,-0.031
8053482,162.0,5763.0,5872.0,0.926,0.376,-0.03,-0.031
8053498,184.0,5793.0,5816.0,0.925,0.376,-0.03,-0.031
8053524,148.0,5827.0,5772.0,0.925,0.377,-0.03,-0.032
8053541,206.0,5837.0,5792.0,0.925,0.377,-0.03,-0.032
8053558,212.0,5757.0,5836.0,0.925,0.378,-0.031,-0.032
8053575,178.0,5805.0,5848.0,0.925,0.378,-0.031,-0.032
8053591,170.0,5711.0,5872.0,0.925,0.378,-0.031,-0.032
8053607,114.0,5741.0,5832.0,0.925,0.378,-0.031,-0.032
8053623,168.0,5737.0,5870.0,0.925,0.378,-0.031,-0.033
8053649,152.0,5739.0,5830.0,0.925,0.378,-0.031,-0.033
8053665,132.0,5699.0,5836.0,0.925,0.378,-0.032,-0.033
8053682,202.0,5759.0,5856.0,0.924,0.378,-0.032,-0.033
8053698,162.0,5751.0,5874.0,0.924,0.379,-0.033,-0.034
8053714,164.0,5789.0,5836.0,0.924,0.379,-0.033,-0.034
8053731,172.0,5815.0,5808.0,0.924,0.379,-0.034,-0.034
8053747,174.0,5787.0,5790.0,0.924,0.379,-0.034,-0.034
8053773,232.0,5747.0,5806.0,0.924,0.379,-0.035,-0.035
8053789,204.0,5733.0,5834.0,0.924,0.379,-0.035,-0.035
8053805,294.0,5745.0,5816.0,0.924,0.379,-0.036,-0.035
8053821,284.0,5729.0,5818.0,0.924,0.379,-0.036,-0.035
8053837,210.0,5775.0,5812.0,0.924,0.379,-0.037,-0.036
8053854,286.0,5743.0,5810.0,0.924,0.379,-0.037,-0.036
8053870,322.0,5745.0,5804.0,0.924,0.379,-0.038,-0.036
8053897,272.0,5775.0,5796.0,0.924,0.379,-0.038,-0.036
8053914,328.0,5723.0,5838.0,0.924,0.379,-0.039,-0.037
8053930,248.0,5695.0,5832.0,0.924,0.379,-0.039,-0.037
8053947,262.0,5677.0,5784.0,0.924,0.379,-0.04,-0.037
8053964,248.0,5773.0,5790.0,0.924,0.379,-0.04,-0.038
8053980,280.0,5775.0,5836.0,0.924,0.379,-0.04,-0.038
8053996,298.0,5791.0,5792.0,0.924,0.379,-0.041,-0.039
8054012,358.0,5741.0,5798.0,0.924,0.379,-0.041,-0.039
8054038,330.0,5749.0,5800.0,0.924,0.379,-0.042,-0.039
8054055,340.0,5763.0,5822.0,0.924,0.379,-0.042,-0.04
8054072,348.0,5767.0,5832.0,0.924,0.379,-0.043,-0.04
8054089,342.0,5807.0,5784.0,0.924,0.379,-0.043,-0.041
8054106,310.0,5727.0,5800.0,0.924,0.379,-0.043,-0.041
8054122,308.0,5791.0,5796.0,0.923,0.379,-0.043,-0.041
8054138,274.0,5747.0,5820.0,0.923,0.379,-0.043,-0.041
8054155,336.0,5755.0,5740.0,0.923,0.379,-0.044,-0.042
8054172,322.0,5799.0,5786.0,0.923,0.379,-0.044,-0.042
8054189,336.0,5753.0,5814.0,0.923,0.379,-0.044,-0.042
8054206,304.0,5779.0,5806.0,0.923,0.379,-0.044,-0.043
8054233,312.0,5775.0,5784.0,0.923,0.379,-0.044,-0.043
8054250,328.0,5793.0,5778.0,0.923,0.379,-0.044,-0.043
8054267,334.0,5801.0,5812.0,0.923,0.379,-0.044,-0.043
8054284,330.0,5767.0,5806.0,0.923,0.38,-0.044,-0.044
8054300,302.0,5777.0,5776.0,0.923,0.38,-0.044,-0.044
8054316,334.0,5745.0,5812.0,0.923,0.38,-0.044,-0.044
8054333,324.0,5773.0,5816.0,0.923,0.38,-0.044,-0.044
8054350,290.0,5799.0,5778.0,0.923,0.38,-0.044,-0.044
8054367,310.0,5775.0,5800.0,0.923,0.38,-0.044,-0.044
8054384,256.0,5801.0,5802.0,0.923,0.38,-0.043,-0.045
8054401,324.0,5731.0,5766.0,0.923,0.38,-0.043,-0.045
8054428,288.0,5801.0,5798.0,0.923,0.38,-0.043,-0.045
8054445,272.0,5777.0,5770.0,0.923,0.38,-0.043,-0.045
8054462,350.0,5775.0,5748.0,0.923,0.38,-0.043,-0.045
8054479,264.0,5803.0,5812.0,0.923,0.38,-0.043,-0.046
8054496,302.0,5769.0,5782.0,0.923,0.38,-0.043,-0.046
8054513,282.0,5765.0,5734.0,0.923,0.38,-0.043,-0.046
8054529,280.0,5799.0,5784.0,0.923,0.38,-0.043,-0.046
8054545,272.0,5761.0,5784.0,0.923,0.38,-0.043,-0.046
8054561,272.0,5743.0,5804.0,0.923,0.38,-0.043,-0.047
8054587,306.0,5793.0,5784.0,0.923,0.38,-0.043,-0.047
8054604,274.0,5749.0,5802.0,0.923,0.38,-0.043,-0.047
8054621,280.0,5765.0,5806.0,0.923,0.38,-0.042,-0.047
8054638,276.0,5765.0,5778.0,0.923,0.38,-0.042,-0.048
8054655,296.0,5763.0,5770.0,0.923,0.38,-0.042,-0.048
8054671,302.0,5799.0,5742.0,0.923,0.38,-0.042,-0.048
8054688,256.0,5799.0,5804.0,0.923,0.38,-0.042,-0.048
8054705,258.0,5825.0,5744.0,0.923,0.38,-0.042,-0.049
8054722,260.0,5789.0,5796.0,0.922,0.381,-0.042,-0.049
8054739,220.0,5759.0,5798.0,0.922,0.381,-0.042,-0.049
8054756,196.0,5803.0,5812.0,0.922,0.381,-0.042,-0.049
8054782,240.0,5781.0,5792.0,0.922,0.381,-0.042,-0.05
8054799,224.0,5761.0,5744.0,0.922,0.381,-0.042,-0.05
8054815,196.0,5837.0,5760.0,0.922,0.381,-0.042,-0.05
8054831,252.0,5803.0,5838.0,0.922,0.381,-0.042,-0.051
8054848,238.0,5799.0,5776.0,0.922,0.381,-0.042,-0.051
8054865,264.0,5717.0,5732.0,0.922,0.381,-0.042,-0.051
8054882,228.0,5837.0,5802.0,0.922,0.381,-0.042,-0.052
8054899,200.0,5787.0,5762.0,0.922,0.381,-0.042,-0.052
8054916,196.0,5855.0,5746.0,0.922,0.381,-0.042,-0.052
8054933,214.0,5825.0,5734.0,0.922,0.381,-0.042,-0.052
8054950,242.0,5793.0,5754.0,0.922,0.381,-0.043,-0.052
8054967,248.0,5741.0,5844.0,0.922,0.381,-0.043,-0.053
8054994,242.0,5741.0,5782.0,0.922,0.382,-0.043,-0.053
8055011,274.0,5825.0,5760.0,0.922,0.382,-0.043,-0.053
8055028,212.0,5857.0,5724.0,0.922,0.382,-0.043,-0.053
8055045,226.0,5899.0,5752.0,0.922,0.382,-0.044,-0.053
8055061,244.0,5897.0,5698.0,0.922,0.382,-0.044,-0.053
8055078,262.0,5823.0,5732.0,0.922,0.382,-0.044,-0.054
8055095,192.0,5751.0,5782.0,0.922,0.381,-0.045,-0.054
8055111,336.0,5735.0,5772.0,0.922,0.381,-0.045,-0.054
8055128,264.0,5773.0,5778.0,0.922,0.381,-0.045,-0.054
8055145,306.0,5793.0,5740.0,0.922,0.381,-0.046,-0.054
8055162,292.0,5835.0,5746.0,0.922,0.381,-0.046,-0.054
8055188,296.0,5781.0,5794.0,0.922,0.381,-0.046,-0.055
8055204,272.0,5807.0,5764.0,0.922,0.382,-0.046,-0.055
8055220,256.0,5735.0,5792.0,0.921,0.382,-0.047,-0.055
8055236,242.0,5767.0,5814.0,0.921,0.382,-0.047,-0.055
8055253,284.0,5775.0,5792.0,0.921,0.382,-0.047,-0.056
8055270,260.0,5803.0,5724.0,0.921,0.383,-0.047,-0.056
8055286,290.0,5853.0,5730.0,0.921,0.383,-0.047,-0.056
8055312,264.0,5865.0,5708.0,0.921,0.383,-0.048,-0.057
8055329,320.0,5853.0,5758.0,0.921,0.383,-0.048,-0.057
8055345,318.0,5867.0,5718.0,0.921,0.383,-0.049,-0.058
8055362,286.0,5923.0,5732.0,0.921,0.383,-0.049,-0.058
8055379,320.0,5837.0,5708.0,0.921,0.383,-0.05,-0.059
8055396,344.0,5829.0,5732.0,0.921,0.383,-0.05,-0.059
8055412,336.0,5893.0,5686.0,0.921,0.383,-0.051,-0.059
8055428,356.0,5863.0,5664.0,0.921,0.382,-0.051,-0.059
8055454,386.0,5863.0,5696.0,0.921,0.382,-0.051,-0.059
8055471,300.0,5865.0,5722.0,0.921,0.381,-0.052,-0.059
8055487,352.0,5821.0,5732.0,0.921,0.381,-0.052,-0.059
8055503,380.0,5803.0,5714.0,0.922,0.38,-0.052,-0.059
8055519,404.0,5823.0,5752.0,0.922,0.379,-0.052,-0.059
8055536,402.0,5801.0,5802.0,0.922,0.379,-0.052,-0.059
8055552,400.0,5803.0,5752.0,0.922,0.378,-0.052,-0.058
8055569,344.0,5805.0,5766.0,0.923,0.378,-0.052,-0.058
8055595,338.0,5743.0,5798.0,0.923,0.377,-0.052,-0.057
8055611,380.0,5725.0,5846.0,0.923,0.376,-0.052,-0.057
8055628,294.0,5673.0,5856.0,0.924,0.375,-0.052,-0.057
8055645,348.0,5665.0,5882.0,0.924,0.375,-0.052,-0.056
8055662,392.0,5613.0,5904.0,0.924,0.374,-0.052,-0.056
8055678,426.0,5667.0,5846.0,0.924,0.374,-0.052,-0.055
8055695,448.0,5649.0,5820.0,0.925,0.373,-0.052,-0.055
8055711,456.0,5661.0,5818.0,0.925,0.373,-0.052,-0.055
8055738,460.0,5717.0,5802.0,0.925,0.373,-0.052,-0.054
8055755,364.0,5709.0,5888.0,0.925,0.373,-0.051,-0.054
8055772,342.0,5595.0,5940.0,0.925,0.373,-0.051,-0.054
8055788,346.0,5527.0,5932.0,0.925,0.373,-0.05,-0.054
8055805,228.0,5627.0,5926.0,0.925,0.373,-0.049,-0.054
8055822,192.0,5595.0,5922.0,0.925,0.374,-0.049,-0.054
8055839,240.0,5727.0,5894.0,0.924,0.375,-0.048,-0.054
8055856,224.0,5741.0,5902.0,0.924,0.375,-0.048,-0.054
8055872,200.0,5689.0,5888.0,0.924,0.376,-0.048,-0.054
8055889,294.0,5753.0,5880.0,0.924,0.376,-0.048,-0.055
8055906,358.0,5677.0,5872.0,0.923,0.377,-0.049,-0.055
8055923,412.0,5697.0,5822.0,0.923,0.377,-0.049,-0.056
8055950,388.0,5785.0,5794.0,0.923,0.378,-0.05,-0.057
8055967,374.0,5835.0,5734.0,0.922,0.378,-0.05,-0.058
8055984,404.0,5903.0,5722.0,0.922,0.379,-0.051,-0.059
8056001,344.0,5897.0,5642.0,0.922,0.379,-0.051,-0.059
8056018,338.0,5893.0,5712.0,0.922,0.379,-0.052,-0.06
8056035,324.0,5843.0,5768.0,0.922,0.379,-0.052,-0.061
8056052,324.0,5793.0,5760.0,0.922,0.379,-0.052,-0.061
8056069,318.0,5801.0,5760.0,0.922,0.379,-0.053,-0.061
8056085,384.0,5827.0,5750.0,0.922,0.379,-0.053,-0.062
8056102,410.0,5801.0,5828.0,0.922,0.378,-0.052,-0.062
8056118,448.0,5751.0,5792.0,0.922,0.378,-0.052,-0.062
8056145,408.0,5749.0,5788.0,0.922,0.379,-0.052,-0.062
8056162,352.0,5637.0,5800.0,0.922,0.379,-0.051,-0.062
8056179,392.0,5763.0,5788.0,0.922,0.379,-0.051,-0.062
8056195,328.0,5767.0,5774.0,0.922,0.379,-0.05,-0.062
8056211,324.0,5821.0,5820.0,0.922,0.38,-0.05,-0.062
8056228,310.0,5827.0,5804.0,0.922,0.38,-0.049,-0.062
8056245,250.0,5827.0,5810.0,0.922,0.38,-0.049,-0.062
8056262,270.0,5723.0,5808.0,0.922,0.38,-0.049,-0.062
8056279,318.0,5769.0,5808.0,0.921,0.38,-0.049,-0.063
8056296,294.0,5841.0,5780.0,0.921,0.381,-0.049,-0.063
8056313,308.0,5857.0,5754.0,0.921,0.381,-0.049,-0.063
8056330,278.0,5657.0,5772.0,0.921,0.382,-0.048,-0.063
8056357,148.0,5939.0,5756.0,0.921,0.382,-0.048,-0.064
8056373,166.0,5951.0,5668.0,0.921,0.382,-0.048,-0.064
8056389,282.0,5827.0,5746.0,0.921,0.382,-0.048,-0.064
8056406,212.0,5805.0,5726.0,0.921,0.382,-0.048,-0.064
8056423,232.0,5831.0,5740.0,0.92,0.382,-0.048,-0.065
8056440,220.0,5853.0,5716.0,0.92,0.382,-0.048,-0.065
8056457,232.0,5855.0,5790.0,0.92,0.382,-0.048,-0.065
8056474,194.0,5843.0,5722.0,0.92,0.382,-0.048,-0.065
8056491,264.0,5871.0,5738.0,0.92,0.382,-0.048,-0.065
8056508,282.0,5833.0,5716.0,0.92,0.382,-0.049,-0.066
8056534,240.0,5821.0,5746.0,0.92,0.382,-0.049,-0.066
8056551,268.0,5873.0,5738.0,0.92,0.382,-0.049,-0.066
8056568,238.0,5831.0,5736.0,0.92,0.382,-0.049,-0.066
8056585,284.0,5865.0,5752.0,0.921,0.382,-0.05,-0.066
8056601,300.0,5851.0,5782.0,0.921,0.382,-0.05,-0.066
8056617,296.0,5793.0,5732.0,0.921,0.381,-0.05,-0.066
8056633,248.0,5855.0,5772.0,0.921,0.381,-0.05,-0.066
8056649,298.0,5855.0,5720.0,0.921,0.381,-0.05,-0.066
8056676,230.0,5845.0,5756.0,0.921,0.381,-0.05,-0.066
8056693,292.0,5825.0,5736.0,0.921,0.381,-0.05,-0.066
8056709,298.0,5833.0,5762.0,0.921,0.381,-0.05,-0.066
8056725,208.0,5845.0,5766.0,0.921,0.381,-0.05,-0.066
8056742,188.0,5795.0,5820.0,0.921,0.381,-0.05,-0.066
8056759,212.0,5773.0,5808.0,0.921,0.381,-0.051,-0.066
8056776,228.0,5763.0,5810.0,0.921,0.381,-0.051,-0.066
8056793,258.0,5789.0,5742.0,0.921,0.381,-0.051,-0.066
8056810,286.0,5843.0,5800.0,0.921,0.381,-0.052,-0.067
8056827,308.0,5873.0,5688.0,0.921,0.381,-0.052,-0.067
8056844,338.0,5821.0,5740.0,0.92,0.381,-0.052,-0.067
8056861,348.0,5839.0,5740.0,0.92,0.382,-0.053,-0.068
8056888,376.0,5819.0,5778.0,0.92,0.382,-0.053,-0.068
8056905,340.0,5843.0,5684.0,0.92,0.382,-0.053,-0.068
8056922,358.0,5937.0,5672.0,0.92,0.382,-0.054,-0.068
8056939,370.0,5917.0,5676.0,0.92,0.382,-0.054,-0.068
8056956,346.0,5893.0,5686.0,0.92,0.382,-0.054,-0.068
8056973,364.0,5823.0,5712.0,0.92,0.382,-0.054,-0.068
8056990,324.0,5815.0,5736.0,0.92,0.382,-0.054,-0.068
8057006,278.0,5793.0,5822.0,0.92,0.382,-0.053,-0.069
8057022,300.0,5831.0,5776.0,0.92,0.382,-0.053,-0.068
8057039,254.0,5805.0,5748.0,0.92,0.382,-0.053,-0.068
8057065,304.0,5843.0,5722.0,0.92,0.382,-0.053,-0.069
8057082,282.0,5789.0,5738.0,0.92,0.382,-0.053,-0.069
8057099,284.0,5813.0,5760.0,0.92,0.382,-0.053,-0.069
8057116,326.0,5817.0,5758.0,0.92,0.382,-0.053,-0.069
8057132,340.0,5825.0,5754.0,0.92,0.382,-0.053,-0.069
8057151,282.0,5841.0,5764.0,0.92,0.382,-0.053,-0.069
8057168,286.0,5873.0,5720.0,0.92,0.382,-0.053,-0.07
8057185,294.0,5827.0,5738.0,0.92,0.383,-0.053,-0.07
8057202,322.0,5831.0,5720.0,0.92,0.383,-0.052,-0.07
8057219,306.0,5837.0,5732.0,0.92,0.383,-0.052,-0.07
8057235,306.0,5857.0,5750.0,0.92,0.383,-0.052,-0.07
8057251,264.0,5867.0,5698.0,0.92,0.383,-0.052,-0.07
8057277,268.0,5859.0,5712.0,0.92,0.383,-0.052,-0.071
8057293,218.0,5849.0,5718.0,0.919,0.383,-0.052,-0.071
8057310,210.0,5881.0,5678.0,0.919,0.384,-0.051,-0.071
8057326,134.0,5943.0,5724.0,0.919,0.384,-0.051,-0.071
8057342,232.0,5957.0,5666.0,0.919,0.384,-0.051,-0.072
8057358,246.0,5873.0,5738.0,0.919,0.384,-0.052,-0.072
8057384,230.0,5779.0,5756.0,0.919,0.384,-0.052,-0.072
8057401,198.0,5875.0,5774.0,0.919,0.384,-0.052,-0.072
8057417,264.0,5881.0,5722.0,0.919,0.384,-0.052,-0.072
8057433,292.0,5923.0,5640.0,0.919,0.384,-0.052,-0.073
8057450,312.0,5931.0,5684.0,0.919,0.384,-0.053,-0.073
8057467,346.0,5961.0,5654.0,0.919,0.384,-0.053,-0.073
8057483,324.0,5911.0,5674.0,0.919,0.383,-0.053,-0.073
8057499,260.0,5843.0,5750.0,0.919,0.383,-0.053,-0.073
8057525,336.0,5779.0,5794.0,0.919,0.383,-0.053,-0.073
8057541,276.0,5807.0,5728.0,0.919,0.383,-0.053,-0.073
8057557,294.0,5827.0,5700.0,0.919,0.383,-0.054,-0.073
8057573,292.0,5831.0,5704.0,0.919,0.383,-0.054,-0.073
8057589,296.0,5867.0,5720.0,0.919,0.383,-0.054,-0.073
8057606,306.0,5863.0,5730.0,0.92,0.382,-0.054,-0.073
8057622,340.0,5825.0,5702.0,0.92,0.382,-0.054,-0.073
8057649,276.0,5835.0,5730.0,0.92,0.382,-0.054,-0.073
8057665,256.0,5809.0,5772.0,0.92,0.382,-0.054,-0.073
8057681,232.0,5795.0,5724.0,0.92,0.382,-0.054,-0.073
8057697,254.0,5823.0,5734.0,0.92,0.382,-0.054,-0.073
8057713,332.0,5845.0,5714.0,0.919,0.383,-0.054,-0.073
8057729,348.0,5797.0,5730.0,0.919,0.383,-0.054,-0.074
8057746,350.0,5799.0,5756.0,0.919,0.383,-0.054,-0.074
8057772,300.0,5857.0,5722.0,0.919,0.383,-0.054,-0.074
8057789,260.0,5887.0,5714.0,0.919,0.384,-0.054,-0.075
8057805,240.0,5923.0,5738.0,0.919,0.384,-0.055,-0.075
8057822,252.0,5875.0,5692.0,0.919,0.384,-0.055,-0.075
8057838,250.0,5811.0,5732.0,0.919,0.384,-0.055,-0.076
8057854,310.0,5943.0,5704.0,0.918,0.384,-0.055,-0.076
8057870,320.0,5961.0,5712.0,0.918,0.384,-0.055,-0.076
8057896,298.0,5873.0,5668.0,0.918,0.384,-0.056,-0.077
8057913,274.0,5921.0,5668.0,0.918,0.384,-0.056,-0.077
8057930,314.0,5913.0,5648.0,0.918,0.384,-0.057,-0.077
8057947,326.0,5923.0,5704.0,0.918,0.384,-0.057,-0.078
8057963,348.0,5899.0,5690.0,0.918,0.384,-0.057,-0.078
8057979,406.0,5865.0,5678.0,0.918,0.384,-0.058,-0.078
8057996,358.0,5887.0,5706.0,0.918,0.383,-0.058,-0.078
8058013,256.0,5899.0,5700.0,0.919,0.383,-0.058,-0.078
8058030,322.0,5857.0,5706.0,0.919,0.383,-0.058,-0.078
8058056,266.0,5791.0,5712.0,0.919,0.383,-0.058,-0.078
8058073,222.0,5843.0,5732.0,0.919,0.383,-0.059,-0.078
8058089,276.0,5895.0,5746.0,0.919,0.382,-0.059,-0.078
8058105,408.0,5859.0,5744.0,0.919,0.382,-0.059,-0.078
8058121,394.0,5865.0,5700.0,0.919,0.382,-0.059,-0.078
8058137,384.0,5903.0,5740.0,0.919,0.381,-0.06,-0.077
8058154,414.0,5833.0,5732.0,0.92,0.38,-0.06,-0.077
8058171,448.0,5787.0,5700.0,0.92,0.38,-0.061,-0.077
8058198,404.0,5791.0,5710.0,0.92,0.379,-0.061,-0.077
8058214,460.0,5801.0,5664.0,0.92,0.379,-0.061,-0.077
8058230,508.0,6099.0,5822.0,0.92,0.378,-0.062,-0.077
8058246,434.0,5729.0,5778.0,0.921,0.377,-0.062,-0.076
8058262,414.0,5481.0,5856.0,0.921,0.376,-0.062,-0.076
8058278,376.0,5555.0,5798.0,0.922,0.376,-0.062,-0.075
8058304,410.0,5851.0,5782.0,0.921,0.376,-0.063,-0.075
8058321,454.0,6021.0,5734.0,0.922,0.376,-0.063,-0.075
8058337,484.0,5835.0,5790.0,0.922,0.375,-0.063,-0.074
8058354,404.0,5587.0,5824.0,0.922,0.374,-0.063,-0.074
8058370,400.0,5587.0,5936.0,0.922,0.374,-0.062,-0.074
8058386,358.0,5663.0,5870.0,0.922,0.375,-0.062,-0.074
8058402,406.0,5703.0,5852.0,0.922,0.375,-0.062,-0.073
8058419,368.0,5699.0,5812.0,0.922,0.375,-0.062,-0.073
8058446,394.0,5751.0,5822.0,0.922,0.376,-0.062,-0.074
8058463,378.0,5759.0,5852.0,0.921,0.376,-0.062,-0.074
8058480,348.0,5709.0,5810.0,0.921,0.377,-0.061,-0.074
8058496,362.0,5717.0,5774.0,0.921,0.378,-0.061,-0.074
8058512,406.0,5739.0,5822.0,0.92,0.379,-0.061,-0.075
8058529,442.0,5819.0,5754.0,0.92,0.379,-0.061,-0.076
8058546,426.0,5865.0,5720.0,0.92,0.38,-0.062,-0.076
8058563,416.0,5887.0,5718.0,0.919,0.381,-0.062,-0.077
8058580,380.0,5893.0,5680.0,0.919,0.382,-0.062,-0.077
8058597,448.0,5893.0,5682.0,0.919,0.382,-0.062,-0.078
8058623,404.0,5927.0,5632.0,0.919,0.382,-0.062,-0.079
8058639,430.0,5963.0,5688.0,0.918,0.383,-0.062,-0.079
8058656,442.0,5893.0,5718.0,0.918,0.383,-0.062,-0.08
8058673,418.0,5869.0,5662.0,0.918,0.383,-0.062,-0.08
8058690,396.0,5909.0,5626.0,0.918,0.383,-0.062,-0.08
8058707,378.0,5925.0,5572.0,0.918,0.383,-0.062,-0.08
8058724,426.0,6017.0,5664.0,0.918,0.383,-0.062,-0.081
8058741,410.0,5941.0,5642.0,0.918,0.382,-0.062,-0.081
8058758,398.0,5797.0,5672.0,0.919,0.382,-0.061,-0.081
8058774,370.0,5819.0,5732.0,0.919,0.382,-0.061,-0.081
8058791,356.0,5775.0,5714.0,0.919,0.381,-0.06,-0.081
8058808,302.0,5855.0,5726.0,0.919,0.381,-0.06,-0.08
8058835,394.0,5851.0,5696.0,0.919,0.381,-0.059,-0.08
8058852,326.0,5889.0,5708.0,0.919,0.381,-0.058,-0.08
8058869,286.0,5889.0,5760.0,0.92,0.38,-0.058,-0.079
8058886,286.0,5855.0,5756.0,0.92,0.38,-0.057,-0.079
8058903,340.0,5769.0,5768.0,0.92,0.379,-0.057,-0.079
8058919,402.0,5643.0,5836.0,0.92,0.379,-0.057,-0.079
8058936,348.0,5669.0,5828.0,0.92,0.379,-0.056,-0.079
8058953,316.0,5689.0,5780.0,0.92,0.38,-0.056,-0.078
8058969,176.0,5779.0,5772.0,0.92,0.38,-0.055,-0.078
8058986,0.0,5933.0,5774.0,0.92,0.381,-0.055,-0.078
8059003,-42.0,5929.0,5848.0,0.92,0.381,-0.054,-0.078
8059030,-54.0,5819.0,5846.0,0.92,0.381,-0.055,-0.079
8059047,128.0,5623.0,5914.0,0.919,0.381,-0.055,-0.079
8059064,218.0,5685.0,5850.0,0.919,0.382,-0.056,-0.079
8059080,348.0,5775.0,5766.0,0.919,0.382,-0.057,-0.08
8059096,388.0,5993.0,5630.0,0.918,0.383,-0.058,-0.08
8059113,456.0,6105.0,5548.0,0.918,0.383,-0.059,-0.081
8059129,402.0,6153.0,5602.0,0.918,0.383,-0.06,-0.082
8059146,448.0,6015.0,5576.0,0.918,0.383,-0.061,-0.082
8059163,486.0,6159.0,5706.0,0.918,0.382,-0.062,-0.083
8059189,482.0,5705.0,5744.0,0.919,0.38,-0.063,-0.083
8059206,436.0,5475.0,5838.0,0.919,0.379,-0.064,-0.083
8059222,426.0,5615.0,5798.0,0.919,0.379,-0.064,-0.082
8059239,478.0,5941.0,5594.0,0.919,0.379,-0.065,-0.081
8059256,516.0,6259.0,5512.0,0.919,0.379,-0.065,-0.08
8059273,512.0,6157.0,5594.0,0.92,0.378,-0.065,-0.079
8059290,444.0,5903.0,5722.0,0.921,0.377,-0.065,-0.078
8059307,438.0,5613.0,5838.0,0.921,0.375,-0.065,-0.077
8059323,476.0,5529.0,5916.0,0.922,0.374,-0.065,-0.076
8059340,522.0,5499.0,5902.0,0.922,0.373,-0.065,-0.074
8059357,466.0,5525.0,5934.0,0.923,0.373,-0.065,-0.073
8059383,392.0,5689.0,5834.0,0.923,0.373,-0.065,-0.072
8059399,414.0,5689.0,5828.0,0.923,0.373,-0.065,-0.071
8059416,416.0,5673.0,5850.0,0.923,0.374,-0.064,-0.07
8059433,344.0,5713.0,5904.0,0.923,0.374,-0.064,-0.07
8059450,332.0,5713.0,5894.0,0.922,0.374,-0.064,-0.07
8059466,310.0,5707.0,5910.0,0.922,0.375,-0.065,-0.069
8059482,302.0,5741.0,5886.0,0.922,0.375,-0.065,-0.07
8059508,362.0,5697.0,5900.0,0.922,0.375,-0.066,-0.07
8059525,400.0,5703.0,5844.0,0.922,0.376,-0.067,-0.07
8059541,480.0,5727.0,5756.0,0.921,0.376,-0.068,-0.071
8059557,538.0,5801.0,5698.0,0.921,0.377,-0.069,-0.072
8059573,606.0,5909.0,5710.0,0.921,0.377,-0.07,-0.073
8059590,592.0,5955.0,5660.0,0.92,0.377,-0.071,-0.074
8059606,628.0,5901.0,5656.0,0.92,0.377,-0.072,-0.075
8059632,632.0,5903.0,5716.0,0.92,0.377,-0.072,-0.075
8059649,672.0,5831.0,5736.0,0.92,0.377,-0.073,-0.076
8059665,720.0,5799.0,5684.0,0.92,0.376,-0.074,-0.076
8059681,830.0,5811.0,5706.0,0.92,0.376,-0.074,-0.076
8059697,826.0,5829.0,5632.0,0.921,0.376,-0.074,-0.076
8059714,788.0,5809.0,5696.0,0.921,0.376,-0.074,-0.076
8059731,860.0,5797.0,5668.0,0.921,0.375,-0.074,-0.076
8059747,850.0,5799.0,5646.0,0.921,0.375,-0.073,-0.075
8059764,810.0,5783.0,5712.0,0.921,0.375,-0.073,-0.075
8059790,746.0,5741.0,5744.0,0.921,0.375,-0.072,-0.074
8059807,638.0,5653.0,5782.0,0.922,0.374,-0.071,-0.074
8059824,574.0,5709.0,5790.0,0.922,0.374,-0.07,-0.073
8059841,470.0,5677.0,5828.0,0.922,0.375,-0.068,-0.073
8059858,328.0,5637.0,5902.0,0.922,0.375,-0.067,-0.072
8059874,290.0,5605.0,5870.0,0.922,0.376,-0.066,-0.071
8059890,222.0,5711.0,5860.0,0.921,0.377,-0.065,-0.071
8059906,266.0,5827.0,5768.0,0.921,0.378,-0.064,-0.07
8059932,362.0,5827.0,5810.0,0.921,0.378,-0.063,-0.07
8059949,384.0,5739.0,5770.0,0.921,0.379,-0.062,-0.07
8059965,488.0,5713.0,5788.0,0.92,0.38,-0.061,-0.071
8059982,510.0,5395.0,5832.0,0.92,0.381,-0.061,-0.071
8059999,310.0,5771.0,5802.0,0.919,0.383,-0.06,-0.071
8060015,482.0,6133.0,5584.0,0.918,0.384,-0.06,-0.072
8060031,374.0,6075.0,5578.0,0.918,0.385,-0.06,-0.072
8060047,396.0,6059.0,5532.0,0.918,0.386,-0.06,-0.073
8060073,470.0,6163.0,5656.0,0.917,0.386,-0.061,-0.074
8060089,478.0,5949.0,5722.0,0.918,0.386,-0.061,-0.075
8060105,406.0,5689.0,5784.0,0.918,0.385,-0.061,-0.075
8060121,426.0,5667.0,5696.0,0.918,0.386,-0.061,-0.076
8060138,344.0,5897.0,5644.0,0.917,0.386,-0.061,-0.076
8060155,354.0,6163.0,5566.0,0.917,0.387,-0.061,-0.076
8060172,394.0,6167.0,5562.0,0.917,0.387,-0.061,-0.076
8060189,422.0,6063.0,5568.0,0.917,0.387,-0.06,-0.077
8060215,350.0,5893.0,5640.0,0.917,0.386,-0.06,-0.077
8060232,370.0,5809.0,5716.0,0.917,0.386,-0.059,-0.077
8060249,372.0,5821.0,5770.0,0.918,0.386,-0.059,-0.077
8060266,446.0,5695.0,5684.0,0.918,0.386,-0.058,-0.077
8060283,402.0,5741.0,5724.0,0.917,0.386,-0.058,-0.077
8060300,326.0,5877.0,5670.0,0.917,0.387,-0.057,-0.077
8060317,238.0,5991.0,5606.0,0.917,0.388,-0.055,-0.077
8060334,468.0,6067.0,5944.0,0.916,0.389,-0.054,-0.077
8060351,-122.0,5449.0,5614.0,0.916,0.39,-0.053,-0.077
8060368,20.0,6135.0,5756.0,0.915,0.392,-0.052,-0.077
8060385,110.0,6229.0,5574.0,0.915,0.392,-0.052,-0.077
8060402,158.0,6065.0,5572.0,0.915,0.393,-0.052,-0.078
8060428,190.0,5923.0,5568.0,0.915,0.393,-0.052,-0.078
8060444,236.0,6005.0,5574.0,0.914,0.394,-0.052,-0.078
8060461,250.0,6053.0,5552.0,0.914,0.394,-0.053,-0.078
8060478,244.0,6121.0,5510.0,0.914,0.394,-0.053,-0.079
8060495,240.0,6091.0,5556.0,0.914,0.394,-0.054,-0.079
8060512,198.0,5979.0,5570.0,0.914,0.393,-0.054,-0.08
8060529,254.0,5869.0,5616.0,0.914,0.393,-0.055,-0.08
8060545,308.0,5891.0,5604.0,0.914,0.393,-0.055,-0.08
8060562,366.0,6013.0,5552.0,0.914,0.393,-0.055,-0.079
8060578,384.0,6121.0,5458.0,0.914,0.393,-0.055,-0.079
8060604,394.0,6131.0,5460.0,0.915,0.393,-0.055,-0.078
8060620,336.0,6149.0,5518.0,0.915,0.392,-0.055,-0.077
8060637,296.0,6093.0,5610.0,0.915,0.392,-0.055,-0.076
8060654,236.0,5991.0,5656.0,0.916,0.391,-0.055,-0.075
8060671,170.0,5779.0,5716.0,0.916,0.39,-0.054,-0.075
8060688,170.0,5731.0,5744.0,0.917,0.389,-0.054,-0.074
8060705,164.0,5739.0,5776.0,0.917,0.389,-0.055,-0.073
8060722,206.0,5841.0,5680.0,0.917,0.388,-0.055,-0.072
8060738,156.0,5961.0,5682.0,0.917,0.388,-0.056,-0.072
8060764,216.0,5969.0,5662.0,0.917,0.388,-0.057,-0.072
8060781,206.0,5939.0,5686.0,0.917,0.388,-0.058,-0.072
8060798,318.0,5903.0,5686.0,0.917,0.387,-0.059,-0.071
8060815,412.0,5843.0,5618.0,0.917,0.387,-0.06,-0.072
8060832,426.0,5789.0,5614.0,0.917,0.387,-0.061,-0.072
8060849,486.0,5923.0,5632.0,0.917,0.387,-0.062,-0.072
8060865,464.0,5949.0,5644.0,0.917,0.386,-0.063,-0.072
8060881,538.0,5855.0,5578.0,0.917,0.386,-0.064,-0.072
8060897,550.0,6057.0,5626.0,0.918,0.386,-0.064,-0.073
8060924,544.0,5929.0,5664.0,0.918,0.385,-0.065,-0.073
8060941,526.0,5767.0,5712.0,0.918,0.384,-0.065,-0.073
8060957,524.0,5741.0,5684.0,0.918,0.384,-0.066,-0.073
8060973,598.0,5847.0,5638.0,0.918,0.384,-0.066,-0.072
8060989,584.0,5925.0,5622.0,0.918,0.383,-0.067,-0.072
8061006,644.0,5893.0,5612.0,0.919,0.383,-0.067,-0.072
8061023,578.0,5815.0,5678.0,0.919,0.382,-0.067,-0.072
8061039,510.0,5747.0,5716.0,0.919,0.382,-0.066,-0.071
8061065,448.0,5747.0,5740.0,0.919,0.382,-0.066,-0.071
8061082,390.0,5825.0,5728.0,0.919,0.382,-0.066,-0.071
8061099,380.0,5829.0,5750.0,0.919,0.382,-0.065,-0.07
8061115,364.0,5797.0,5782.0,0.919,0.382,-0.065,-0.07
8061131,380.0,5819.0,5736.0,0.919,0.383,-0.065,-0.07
8061147,470.0,5917.0,5764.0,0.919,0.383,-0.065,-0.07
8061163,576.0,5837.0,5688.0,0.919,0.383,-0.066,-0.07
8061180,616.0,5797.0,5700.0,0.919,0.383,-0.066,-0.07
8061207,672.0,5709.0,5748.0,0.919,0.383,-0.066,-0.071
8061224,644.0,5705.0,5676.0,0.918,0.384,-0.066,-0.071
8061240,640.0,5715.0,5630.0,0.918,0.385,-0.065,-0.071
8061257,648.0,5917.0,5518.0,0.917,0.386,-0.065,-0.071
8061274,598.0,6193.0,5518.0,0.917,0.387,-0.064,-0.071
8061291,412.0,6107.0,5546.0,0.917,0.388,-0.062,-0.071
8061307,408.0,6027.0,5586.0,0.917,0.389,-0.061,-0.071
8061323,400.0,5931.0,5652.0,0.917,0.389,-0.06,-0.071
8061339,396.0,5853.0,5684.0,0.917,0.389,-0.059,-0.071
8061366,430.0,5857.0,5660.0,0.916,0.39,-0.058,-0.071
8061382,260.0,5879.0,5630.0,0.916,0.39,-0.057,-0.071
8061402,180.0,6225.0,5658.0,0.916,0.391,-0.056,-0.071
8061419,172.0,6077.0,5546.0,0.916,0.39,-0.056,-0.072
8061436,268.0,5885.0,5612.0,0.916,0.389,-0.056,-0.074
8061453,254.0,5765.0,5680.0,0.916,0.389,-0.056,-0.075
8061470,296.0,5701.0,5736.0,0.916,0.389,-0.057,-0.077
8061487,226.0,5631.0,5818.0,0.916,0.389,-0.057,-0.078
8061504,214.0,5589.0,5782.0,0.916,0.39,-0.057,-0.08
8061521,176.0,5749.0,5676.0,0.915,0.391,-0.057,-0.081
8061538,188.0,5865.0,5584.0,0.914,0.393,-0.057,-0.082
8061554,202.0,5957.0,5556.0,0.913,0.395,-0.056,-0.084
8061570,164.0,6051.0,5534.0,0.912,0.397,-0.056,-0.084
8061596,246.0,6035.0,5556.0,0.911,0.4,-0.055,-0.085
8061613,352.0,5935.0,5560.0,0.91,0.402,-0.055,-0.086
8061630,532.0,5869.0,5514.0,0.909,0.405,-0.054,-0.087
8061647,410.0,5897.0,5338.0,0.907,0.409,-0.052,-0.088
8061664,536.0,6165.0,5290.0,0.905,0.413,-0.051,-0.088
8061680,26.0,6073.0,5126.0,0.903,0.418,-0.049,-0.089
8061697,242.0,6763.0,5054.0,0.901,0.422,-0.047,-0.09
8061714,164.0,6855.0,4940.0,0.9,0.425,-0.045,-0.091
8061730,-122.0,6661.0,5014.0,0.899,0.427,-0.043,-0.092
8061747,-126.0,6821.0,4980.0,0.898,0.428,-0.042,-0.093
8061764,12.0,6955.0,4898.0,0.898,0.427,-0.04,-0.095
8061790,-190.0,6717.0,5044.0,0.899,0.426,-0.038,-0.096
8061807,-194.0,6389.0,5214.0,0.9,0.424,-0.035,-0.098
8061824,-502.0,5707.0,5362.0,0.9,0.423,-0.033,-0.1
8061841,-446.0,5601.0,5646.0,0.9,0.423,-0.031,-0.101
8061858,-498.0,5741.0,5516.0,0.899,0.425,-0.03,-0.103
8061874,-366.0,5869.0,5460.0,0.898,0.427,-0.029,-0.104
8061891,-524.0,6103.0,5238.0,0.896,0.43,-0.027,-0.105
8061908,-610.0,6337.0,5070.0,0.894,0.434,-0.026,-0.107
8061925,-550.0,6829.0,4766.0,0.893,0.437,-0.026,-0.108
8061941,-440.0,7089.0,4748.0,0.892,0.439,-0.025,-0.109
8061968,-448.0,6861.0,4794.0,0.891,0.44,-0.024,-0.111
8061985,-504.0,6681.0,4952.0,0.891,0.44,-0.023,-0.112
8062002,-508.0,6565.0,4974.0,0.89,0.44,-0.023,-0.114
8062019,-512.0,6499.0,4972.0,0.89,0.44,-0.022,-0.115
8062036,-594.0,6411.0,4986.0,0.89,0.44,-0.022,-0.116
8062053,-650.0,6511.0,4966.0,0.89,0.441,-0.021,-0.118
8062069,-618.0,6597.0,4906.0,0.889,0.441,-0.021,-0.119
8062085,-632.0,6363.0,4926.0,0.889,0.441,-0.021,-0.12
8062101,-626.0,6441.0,5020.0,0.889,0.441,-0.02,-0.121
8062127,-696.0,6297.0,5032.0,0.889,0.442,-0.02,-0.122
8062144,-630.0,6429.0,4956.0,0.888,0.443,-0.02,-0.122
8062161,-648.0,6579.0,4822.0,0.888,0.444,-0.019,-0.123
8062178,-670.0,6721.0,4778.0,0.887,0.445,-0.019,-0.123
8062195,-646.0,6675.0,4834.0,0.887,0.445,-0.018,-0.123
8062212,-682.0,6571.0,4872.0,0.886,0.446,-0.018,-0.123
8062229,-750.0,6421.0,4924.0,0.886,0.446,-0.017,-0.123
8062246,-724.0,6487.0,4942.0,0.886,0.447,-0.017,-0.123
8062263,-796.0,6601.0,4950.0,0.885,0.448,-0.017,-0.123
8062280,-790.0,6667.0,4866.0,0.885,0.449,-0.016,-0.123
8062297,-798.0,6589.0,4838.0,0.885,0.45,-0.016,-0.123
8062314,-772.0,6563.0,4884.0,0.884,0.45,-0.017,-0.123
8062331,-758.0,6535.0,4882.0,0.884,0.451,-0.017,-0.122
8062348,-748.0,6485.0,4838.0,0.884,0.452,-0.018,-0.122
8062375,-794.0,6557.0,4796.0,0.883,0.452,-0.018,-0.122
8062392,-782.0,6647.0,4774.0,0.883,0.453,-0.019,-0.122
8062409,-704.0,6721.0,4736.0,0.883,0.453,-0.02,-0.122
8062426,-684.0,6715.0,4780.0,0.883,0.454,-0.021,-0.122
8062443,-678.0,6675.0,4692.0,0.883,0.454,-0.022,-0.122
8062464,-712.0,6549.0,4724.0,0.882,0.454,-0.023,-0.121
8062480,-656.0,6705.0,4800.0,0.882,0.454,-0.025,-0.121
8062496,-646.0,6691.0,4766.0,0.882,0.455,-0.026,-0.12
8062513,-594.0,6657.0,4722.0,0.882,0.455,-0.027,-0.12
