timeMs,ax,ay,az,q0,q1,q2,q3
7795165,7775.0,3058.0,1895.0,0.77,0.03,-0.605,-0.2
7795191,7383.0,2572.0,2079.0,0.768,0.029,-0.607,-0.201
7795207,6301.0,2790.0,2959.0,0.767,0.027,-0.609,-0.203
7795223,6463.0,2846.0,2277.0,0.764,0.026,-0.612,-0.204
7795239,7099.0,2346.0,2099.0,0.761,0.024,-0.615,-0.205
7795255,6561.0,3096.0,1451.0,0.758,0.023,-0.619,-0.205
7795271,7367.0,3090.0,1395.0,0.755,0.023,-0.622,-0.206
7795297,7063.0,3456.0,1327.0,0.752,0.021,-0.625,-0.209
7795313,6873.0,3416.0,1553.0,0.748,0.019,-0.628,-0.213
7795329,6459.0,2948.0,1763.0,0.744,0.014,-0.632,-0.219
7795345,6173.0,1344.0,1853.0,0.739,0.01,-0.635,-0.225
7795361,7385.0,1908.0,1705.0,0.734,0.008,-0.639,-0.229
7795378,8167.0,2662.0,1559.0,0.73,0.007,-0.643,-0.231
7795394,8501.0,2880.0,1989.0,0.728,0.005,-0.645,-0.233
7795420,8739.0,2800.0,2209.0,0.726,0.005,-0.647,-0.234
7795436,8969.0,2682.0,2559.0,0.724,0.006,-0.649,-0.234
7795452,9235.0,2222.0,2443.0,0.722,0.009,-0.651,-0.233
7795468,9793.0,2064.0,2031.0,0.721,0.014,-0.654,-0.231
7795484,9801.0,2672.0,1699.0,0.719,0.019,-0.655,-0.231
7795500,8623.0,3066.0,2063.0,0.719,0.023,-0.655,-0.231
7795526,8187.0,2578.0,1699.0,0.719,0.026,-0.655,-0.233
7795543,7433.0,2466.0,1013.0,0.719,0.029,-0.654,-0.233
7795559,7105.0,2766.0,695.0,0.72,0.033,-0.653,-0.233
7795575,6113.0,2930.0,871.0,0.722,0.036,-0.651,-0.233
7795591,6023.0,2772.0,1183.0,0.723,0.038,-0.649,-0.232
7795607,6101.0,2778.0,843.0,0.725,0.04,-0.649,-0.23
7795634,6519.0,2942.0,835.0,0.725,0.042,-0.648,-0.227
7795651,6641.0,3150.0,947.0,0.726,0.043,-0.649,-0.225
7795667,6771.0,3228.0,1261.0,0.726,0.044,-0.649,-0.222
7795683,7217.0,3268.0,1507.0,0.726,0.044,-0.65,-0.22
7795699,7717.0,3442.0,1409.0,0.725,0.046,-0.652,-0.216
7795715,8191.0,3134.0,1591.0,0.725,0.047,-0.653,-0.213
7795731,8077.0,3150.0,1405.0,0.724,0.05,-0.655,-0.209
7795757,8237.0,3492.0,1359.0,0.724,0.053,-0.656,-0.205
7795774,8215.0,3370.0,1497.0,0.725,0.054,-0.656,-0.201
7795790,8189.0,3148.0,1707.0,0.727,0.056,-0.655,-0.197
7795806,7795.0,2884.0,2015.0,0.73,0.057,-0.654,-0.193
7795822,7749.0,2838.0,2341.0,0.733,0.058,-0.651,-0.189
7795838,7899.0,2670.0,2097.0,0.735,0.059,-0.649,-0.184
7795855,8219.0,2522.0,1805.0,0.738,0.06,-0.647,-0.18
7795881,8179.0,2800.0,1653.0,0.741,0.061,-0.645,-0.175
7795897,7993.0,3128.0,1361.0,0.744,0.063,-0.643,-0.171
7795913,7891.0,3274.0,1231.0,0.746,0.065,-0.641,-0.166
7795929,7665.0,3222.0,1073.0,0.748,0.066,-0.64,-0.161
7795945,7645.0,2872.0,929.0,0.75,0.067,-0.639,-0.157
7795961,7499.0,2802.0,729.0,0.752,0.068,-0.638,-0.152
7795987,7413.0,2450.0,883.0,0.754,0.068,-0.636,-0.148
7796004,7247.0,2486.0,875.0,0.756,0.069,-0.636,-0.143
7796020,7369.0,2528.0,843.0,0.757,0.07,-0.635,-0.138
7796036,7377.0,2682.0,585.0,0.758,0.071,-0.634,-0.134
7796052,7545.0,2848.0,851.0,0.759,0.071,-0.634,-0.13
7796068,7485.0,2482.0,1189.0,0.76,0.07,-0.633,-0.127
7796094,7399.0,2122.0,1233.0,0.761,0.068,-0.634,-0.123
7796113,7733.0,1852.0,1203.0,0.76,0.067,-0.635,-0.119
7796129,7667.0,1892.0,1145.0,0.76,0.066,-0.636,-0.115
7796146,8001.0,1950.0,1119.0,0.759,0.066,-0.638,-0.111
7796162,7771.0,1942.0,1185.0,0.759,0.065,-0.639,-0.107
7796179,7633.0,1756.0,1073.0,0.759,0.065,-0.639,-0.103
7796195,8117.0,1552.0,1297.0,0.76,0.063,-0.64,-0.1
7796211,7267.0,1362.0,1523.0,0.76,0.063,-0.64,-0.096
7796227,7385.0,1626.0,1599.0,0.759,0.063,-0.641,-0.093
7796253,7843.0,2032.0,1387.0,0.758,0.063,-0.643,-0.089
7796269,7949.0,1858.0,1267.0,0.758,0.063,-0.644,-0.086
7796285,8129.0,2044.0,1183.0,0.757,0.064,-0.645,-0.083
7796301,7933.0,2136.0,1507.0,0.758,0.064,-0.645,-0.08
7796317,8117.0,1924.0,1599.0,0.758,0.064,-0.644,-0.077
7796333,8263.0,2164.0,1327.0,0.759,0.064,-0.644,-0.074
7796359,8569.0,1590.0,1457.0,0.759,0.064,-0.643,-0.072
7796375,8315.0,1528.0,1407.0,0.76,0.063,-0.642,-0.07
7796391,7985.0,1736.0,1403.0,0.761,0.063,-0.642,-0.068
7796407,8057.0,2524.0,1049.0,0.762,0.062,-0.641,-0.068
7796423,7947.0,1418.0,1103.0,0.763,0.061,-0.64,-0.066
7796439,7697.0,1146.0,1137.0,0.764,0.06,-0.639,-0.065
7796465,7747.0,1236.0,1153.0,0.765,0.059,-0.638,-0.064
7796481,7715.0,1550.0,987.0,0.765,0.059,-0.638,-0.064
7796497,7657.0,1550.0,1085.0,0.765,0.058,-0.638,-0.063
7796513,7833.0,1818.0,979.0,0.766,0.057,-0.637,-0.063
7796529,7497.0,1184.0,1163.0,0.767,0.056,-0.636,-0.064
7796545,7743.0,754.0,1311.0,0.767,0.057,-0.636,-0.063
7796571,7881.0,1376.0,1171.0,0.767,0.059,-0.635,-0.063
7796587,7823.0,1946.0,1255.0,0.768,0.062,-0.635,-0.063
7796603,7771.0,2370.0,1491.0,0.769,0.064,-0.633,-0.064
7796619,7901.0,2532.0,1751.0,0.77,0.064,-0.632,-0.065
7796635,7973.0,2264.0,1859.0,0.771,0.063,-0.63,-0.067
7796651,7993.0,1980.0,1957.0,0.772,0.062,-0.628,-0.069
7796677,7743.0,2096.0,2037.0,0.774,0.06,-0.626,-0.073
7796694,7943.0,2068.0,2083.0,0.776,0.058,-0.624,-0.077
7796710,7949.0,1570.0,1953.0,0.777,0.054,-0.621,-0.082
7796726,8103.0,1570.0,1725.0,0.779,0.05,-0.619,-0.088
7796742,8217.0,1618.0,1675.0,0.781,0.045,-0.616,-0.094
7796758,7833.0,1468.0,1809.0,0.782,0.04,-0.614,-0.101
7796784,7601.0,1324.0,1975.0,0.783,0.035,-0.612,-0.108
7796801,7597.0,1108.0,1941.0,0.783,0.031,-0.61,-0.114
7796817,7567.0,864.0,1929.0,0.783,0.026,-0.61,-0.12
7796833,7469.0,926.0,1831.0,0.782,0.023,-0.61,-0.126
7796849,7445.0,936.0,1751.0,0.78,0.019,-0.611,-0.132
7796865,7459.0,1110.0,1705.0,0.779,0.016,-0.612,-0.137
7796891,7751.0,1052.0,1599.0,0.777,0.014,-0.613,-0.141
7796907,7547.0,1004.0,1645.0,0.775,0.012,-0.615,-0.145
7796923,7551.0,1032.0,1635.0,0.773,0.011,-0.616,-0.15
7796939,7421.0,968.0,1717.0,0.771,0.011,-0.617,-0.154
7796956,7597.0,1038.0,1585.0,0.769,0.012,-0.619,-0.157
7796972,7569.0,898.0,1563.0,0.767,0.013,-0.621,-0.16
7796988,7851.0,768.0,1649.0,0.765,0.015,-0.623,-0.163
7797014,7777.0,1034.0,1759.0,0.763,0.018,-0.625,-0.165
7797030,7877.0,1250.0,2011.0,0.761,0.02,-0.627,-0.166
7797046,8187.0,1170.0,2227.0,0.759,0.023,-0.629,-0.168
7797062,8599.0,796.0,2397.0,0.757,0.025,-0.631,-0.168
7797078,9089.0,-168.0,2669.0,0.755,0.028,-0.633,-0.166
7797094,9287.0,814.0,1679.0,0.754,0.035,-0.636,-0.161
7797120,9239.0,3160.0,1407.0,0.754,0.04,-0.637,-0.155
7797136,8425.0,2698.0,1961.0,0.755,0.042,-0.636,-0.152
7797152,8045.0,1424.0,2139.0,0.756,0.043,-0.636,-0.149
7797168,7893.0,1706.0,1465.0,0.756,0.044,-0.637,-0.146
7797184,8019.0,1946.0,897.0,0.756,0.046,-0.637,-0.144
7797200,7641.0,2400.0,687.0,0.756,0.046,-0.637,-0.143
7797226,6887.0,2486.0,895.0,0.757,0.045,-0.636,-0.142
7797243,6439.0,1962.0,1371.0,0.758,0.043,-0.635,-0.142
7797259,6025.0,1016.0,1447.0,0.758,0.04,-0.635,-0.141
7797275,6719.0,568.0,1349.0,0.758,0.038,-0.637,-0.138
7797291,6397.0,816.0,1563.0,0.757,0.037,-0.639,-0.133
7797308,6651.0,982.0,2309.0,0.755,0.035,-0.643,-0.127
7797324,7289.0,-222.0,1381.0,0.752,0.033,-0.647,-0.121
7797350,8217.0,2394.0,717.0,0.749,0.034,-0.652,-0.116
7797367,8701.0,2004.0,625.0,0.747,0.032,-0.654,-0.113
7797383,8653.0,1504.0,1327.0,0.745,0.031,-0.658,-0.107
7797399,8839.0,812.0,1203.0,0.743,0.031,-0.661,-0.099
7797415,9229.0,1710.0,693.0,0.741,0.032,-0.665,-0.09
7797431,8781.0,1346.0,749.0,0.74,0.034,-0.667,-0.08
7797447,8469.0,238.0,667.0,0.739,0.038,-0.669,-0.069
7797473,8309.0,914.0,859.0,0.739,0.045,-0.67,-0.056
7797490,8299.0,1616.0,773.0,0.738,0.053,-0.671,-0.044
7797506,8161.0,1546.0,837.0,0.738,0.06,-0.672,-0.031
7797522,8381.0,1134.0,707.0,0.737,0.067,-0.672,-0.019
7797538,8313.0,1638.0,725.0,0.737,0.075,-0.672,-0.007
7797554,7905.0,1460.0,1039.0,0.736,0.081,-0.672,0.005
7797580,8193.0,594.0,935.0,0.735,0.087,-0.672,0.017
7797596,8043.0,556.0,707.0,0.734,0.095,-0.672,0.028
7797612,8193.0,724.0,659.0,0.733,0.103,-0.671,0.039
7797628,8311.0,850.0,491.0,0.731,0.112,-0.671,0.05
7797644,8217.0,1006.0,537.0,0.73,0.12,-0.67,0.061
7797660,8129.0,1214.0,597.0,0.729,0.128,-0.669,0.071
7797686,8033.0,1108.0,637.0,0.727,0.135,-0.668,0.082
7797702,8225.0,914.0,661.0,0.725,0.141,-0.668,0.092
7797718,8303.0,910.0,477.0,0.723,0.147,-0.667,0.102
7797734,8241.0,526.0,367.0,0.722,0.152,-0.666,0.112
7797750,8287.0,222.0,255.0,0.72,0.158,-0.665,0.121
7797766,8311.0,712.0,231.0,0.718,0.164,-0.663,0.131
7797792,8595.0,1076.0,285.0,0.717,0.17,-0.661,0.141
7797808,8305.0,1036.0,277.0,0.715,0.174,-0.659,0.151
7797824,8229.0,612.0,433.0,0.714,0.178,-0.658,0.16
7797840,8337.0,108.0,217.0,0.713,0.182,-0.656,0.169
7797856,8429.0,510.0,217.0,0.711,0.187,-0.654,0.177
7797872,8521.0,748.0,175.0,0.71,0.191,-0.653,0.186
7797898,8297.0,648.0,303.0,0.708,0.194,-0.651,0.193
7797914,8305.0,336.0,261.0,0.707,0.196,-0.649,0.2
7797930,8325.0,362.0,145.0,0.706,0.199,-0.648,0.207
7797946,8247.0,578.0,347.0,0.705,0.201,-0.646,0.213
7797962,8087.0,454.0,383.0,0.703,0.203,-0.645,0.219
7797978,8299.0,148.0,327.0,0.702,0.204,-0.644,0.224
7798004,8261.0,282.0,289.0,0.701,0.205,-0.644,0.229
7798020,7893.0,674.0,471.0,0.7,0.205,-0.643,0.233
7798036,7327.0,1104.0,995.0,0.698,0.205,-0.644,0.236
7798052,7935.0,316.0,891.0,0.697,0.202,-0.646,0.237
7798068,7765.0,-630.0,667.0,0.695,0.2,-0.649,0.236
7798084,8697.0,-540.0,83.0,0.692,0.2,-0.652,0.236
7798111,8991.0,130.0,-381.0,0.689,0.2,-0.655,0.236
7798127,9195.0,530.0,-681.0,0.687,0.199,-0.657,0.238
7798143,8893.0,496.0,-485.0,0.686,0.197,-0.658,0.239
7798160,8407.0,454.0,1.0,0.687,0.194,-0.658,0.24
7798176,8307.0,72.0,219.0,0.687,0.191,-0.659,0.24
7798192,7987.0,262.0,235.0,0.688,0.187,-0.66,0.238
7798208,7947.0,28.0,445.0,0.689,0.183,-0.661,0.236
7798235,8051.0,-20.0,805.0,0.69,0.18,-0.661,0.233
7798251,8123.0,-38.0,1319.0,0.691,0.179,-0.661,0.232
7798267,7985.0,-22.0,1723.0,0.692,0.179,-0.659,0.232
7798283,7891.0,300.0,1691.0,0.693,0.181,-0.658,0.233
7798299,8219.0,402.0,1331.0,0.693,0.183,-0.656,0.235
7798315,8209.0,210.0,783.0,0.693,0.186,-0.655,0.237
7798341,8285.0,-50.0,563.0,0.693,0.187,-0.653,0.239
7798357,8217.0,-212.0,353.0,0.694,0.189,-0.652,0.241
7798373,8345.0,-422.0,283.0,0.694,0.191,-0.65,0.243
7798389,8207.0,-358.0,369.0,0.695,0.193,-0.648,0.244
7798405,7911.0,-220.0,497.0,0.696,0.195,-0.646,0.245
7798421,7865.0,194.0,735.0,0.697,0.196,-0.645,0.244
7798447,8301.0,-676.0,541.0,0.698,0.197,-0.644,0.243
7798463,8201.0,-372.0,479.0,0.699,0.198,-0.644,0.242
7798479,8109.0,-206.0,465.0,0.7,0.198,-0.643,0.24
7798495,8005.0,-360.0,531.0,0.7,0.197,-0.643,0.239
7798511,7873.0,-288.0,715.0,0.702,0.197,-0.643,0.237
7798527,7881.0,-260.0,783.0,0.703,0.195,-0.643,0.235
7798553,7945.0,-554.0,929.0,0.704,0.194,-0.643,0.232
7798569,7943.0,-408.0,953.0,0.705,0.192,-0.643,0.23
7798586,8023.0,-178.0,1025.0,0.705,0.19,-0.644,0.228
7798602,8069.0,-352.0,1197.0,0.707,0.188,-0.644,0.226
7798618,8215.0,-468.0,1273.0,0.708,0.185,-0.644,0.224
7798634,8213.0,-410.0,1331.0,0.709,0.183,-0.644,0.223
7798660,8295.0,-432.0,1317.0,0.71,0.181,-0.643,0.223
7798676,8205.0,-282.0,1307.0,0.71,0.18,-0.643,0.224
7798693,8163.0,-330.0,1175.0,0.711,0.179,-0.642,0.225
7798710,8069.0,-222.0,1057.0,0.711,0.178,-0.641,0.226
7798727,8223.0,-266.0,817.0,0.712,0.178,-0.641,0.227
7798744,8121.0,-552.0,727.0,0.712,0.177,-0.64,0.227
7798760,8181.0,-376.0,615.0,0.712,0.178,-0.64,0.227
7798776,8013.0,202.0,671.0,0.713,0.179,-0.639,0.226
7798792,7637.0,-166.0,677.0,0.713,0.18,-0.639,0.226
7798819,7965.0,-72.0,587.0,0.713,0.18,-0.639,0.225
7798835,8005.0,8.0,463.0,0.713,0.181,-0.64,0.225
7798851,8087.0,-140.0,539.0,0.712,0.181,-0.64,0.225
7798867,7921.0,-418.0,661.0,0.712,0.181,-0.64,0.224
7798883,7963.0,-244.0,901.0,0.712,0.181,-0.64,0.224
7798899,7995.0,-188.0,999.0,0.712,0.181,-0.641,0.224
7798925,8059.0,-354.0,1009.0,0.711,0.181,-0.641,0.223
7798941,8261.0,-332.0,995.0,0.711,0.182,-0.642,0.223
7798957,8137.0,-294.0,1031.0,0.71,0.183,-0.642,0.224
7798973,8111.0,-278.0,1127.0,0.71,0.184,-0.642,0.224
7798989,8139.0,-292.0,1063.0,0.709,0.185,-0.643,0.225
7799005,8281.0,-394.0,955.0,0.708,0.186,-0.643,0.226
7799031,8143.0,-262.0,967.0,0.707,0.188,-0.643,0.227
7799047,8277.0,-126.0,871.0,0.707,0.189,-0.642,0.229
7799063,8221.0,-108.0,877.0,0.706,0.19,-0.642,0.231
7799079,8093.0,-150.0,901.0,0.705,0.192,-0.642,0.232
7799095,8155.0,-194.0,859.0,0.705,0.193,-0.641,0.234
7799111,8115.0,-232.0,813.0,0.705,0.194,-0.641,0.235
7799137,8067.0,-224.0,811.0,0.704,0.195,-0.641,0.235
7799153,8089.0,-160.0,737.0,0.704,0.197,-0.64,0.236
7799169,8053.0,28.0,853.0,0.704,0.198,-0.64,0.237
7799185,8103.0,0.0,827.0,0.703,0.199,-0.64,0.237
7799201,8189.0,-32.0,735.0,0.703,0.201,-0.639,0.238
7799217,8133.0,-68.0,779.0,0.703,0.202,-0.639,0.239
7799243,8085.0,-94.0,803.0,0.703,0.203,-0.639,0.239
7799259,8003.0,16.0,945.0,0.703,0.203,-0.639,0.239
7799275,8099.0,-90.0,879.0,0.702,0.204,-0.638,0.239
7799291,8227.0,-154.0,733.0,0.702,0.205,-0.638,0.24
7799307,8237.0,-42.0,721.0,0.702,0.206,-0.638,0.24
7799323,8209.0,62.0,771.0,0.702,0.207,-0.638,0.24
7799350,8097.0,-56.0,799.0,0.702,0.207,-0.638,0.24
7799366,8023.0,-40.0,863.0,0.702,0.208,-0.638,0.24
7799382,8163.0,-102.0,859.0,0.702,0.208,-0.638,0.24
7799398,8237.0,-302.0,773.0,0.702,0.208,-0.638,0.24
7799414,8203.0,-172.0,771.0,0.702,0.208,-0.638,0.239
7799430,8081.0,142.0,901.0,0.702,0.209,-0.638,0.239
7799456,8175.0,52.0,895.0,0.702,0.209,-0.638,0.239
7799473,8099.0,-30.0,943.0,0.701,0.209,-0.638,0.239
7799489,8251.0,52.0,763.0,0.701,0.209,-0.639,0.238
7799505,8255.0,38.0,725.0,0.701,0.209,-0.639,0.238
7799521,8105.0,86.0,825.0,0.701,0.209,-0.64,0.237
7799540,8289.0,12.0,933.0,0.701,0.208,-0.64,0.237
7799556,8151.0,-128.0,807.0,0.701,0.208,-0.64,0.236
7799572,8157.0,-38.0,837.0,0.701,0.207,-0.64,0.236
7799598,8087.0,72.0,801.0,0.701,0.207,-0.641,0.236
7799614,8105.0,26.0,825.0,0.701,0.207,-0.641,0.235
7799630,8179.0,-10.0,743.0,0.701,0.206,-0.641,0.235
7799646,8047.0,-82.0,815.0,0.701,0.205,-0.642,0.234
7799662,8207.0,-94.0,751.0,0.701,0.204,-0.642,0.233
7799678,8107.0,16.0,851.0,0.701,0.203,-0.643,0.232
7799704,8307.0,-148.0,781.0,0.701,0.202,-0.643,0.232
7799720,8263.0,-96.0,751.0,0.701,0.201,-0.644,0.231
7799736,8177.0,-54.0,757.0,0.702,0.2,-0.644,0.23
7799752,8171.0,-90.0,831.0,0.702,0.198,-0.644,0.229
7799768,8139.0,-110.0,771.0,0.702,0.197,-0.645,0.228
7799784,8121.0,-90.0,737.0,0.703,0.196,-0.645,0.227
7799810,8111.0,-120.0,741.0,0.703,0.194,-0.646,0.226
7799826,8179.0,-106.0,731.0,0.703,0.193,-0.646,0.225
7799842,8179.0,-118.0,679.0,0.704,0.192,-0.646,0.224
7799858,8065.0,-124.0,743.0,0.704,0.191,-0.647,0.223
7799874,8039.0,-116.0,795.0,0.704,0.189,-0.647,0.222
7799890,8123.0,-146.0,809.0,0.705,0.188,-0.647,0.221
7799916,8221.0,-116.0,759.0,0.705,0.187,-0.648,0.22
7799932,8109.0,-132.0,801.0,0.705,0.186,-0.648,0.219
7799948,8183.0,-36.0,767.0,0.706,0.185,-0.648,0.218
7799964,8133.0,-44.0,755.0,0.706,0.183,-0.649,0.217
7799980,8257.0,-216.0,775.0,0.707,0.182,-0.649,0.216
7799996,8171.0,-280.0,743.0,0.707,0.181,-0.649,0.215
7800022,8245.0,-102.0,747.0,0.707,0.18,-0.649,0.214
7800038,8215.0,-96.0,803.0,0.708,0.18,-0.649,0.213
7800054,8133.0,-102.0,779.0,0.708,0.179,-0.649,0.212
7800070,8279.0,-270.0,695.0,0.708,0.178,-0.649,0.211
7800086,8185.0,-240.0,697.0,0.709,0.177,-0.65,0.211
7800102,8143.0,-126.0,821.0,0.709,0.176,-0.65,0.21
7800128,8167.0,-194.0,739.0,0.71,0.175,-0.65,0.209
7800144,8075.0,-188.0,701.0,0.71,0.174,-0.65,0.208
7800160,8071.0,-242.0,815.0,0.71,0.173,-0.65,0.207
7800176,8077.0,-152.0,779.0,0.711,0.172,-0.65,0.207
7800192,8173.0,-290.0,763.0,0.711,0.171,-0.65,0.206
7800208,8109.0,-358.0,715.0,0.711,0.17,-0.651,0.205
7800234,8099.0,-212.0,807.0,0.711,0.169,-0.651,0.205
7800250,8135.0,-154.0,843.0,0.712,0.169,-0.651,0.204
7800266,8145.0,-242.0,843.0,0.712,0.168,-0.651,0.204
7800282,8149.0,-288.0,829.0,0.712,0.167,-0.651,0.203
7800298,8135.0,-250.0,793.0,0.712,0.167,-0.651,0.203
7800315,8141.0,-210.0,789.0,0.712,0.166,-0.651,0.203
7800341,8177.0,-250.0,775.0,0.712,0.166,-0.651,0.203
7800358,8079.0,-360.0,783.0,0.713,0.166,-0.651,0.202
7800374,8049.0,-176.0,801.0,0.713,0.166,-0.651,0.202
7800390,7975.0,-264.0,787.0,0.713,0.166,-0.651,0.203
7800406,8121.0,-300.0,809.0,0.713,0.166,-0.651,0.203
7800422,8077.0,-258.0,747.0,0.713,0.167,-0.65,0.203
7800438,8131.0,-292.0,773.0,0.713,0.167,-0.65,0.203
7800465,8067.0,-190.0,861.0,0.712,0.167,-0.65,0.203
7800482,8201.0,-214.0,807.0,0.712,0.168,-0.65,0.203
7800498,8327.0,-276.0,707.0,0.712,0.168,-0.65,0.203
7800514,8233.0,-238.0,649.0,0.712,0.169,-0.65,0.204
7800530,8181.0,-108.0,727.0,0.712,0.17,-0.65,0.204
7800546,8089.0,-96.0,841.0,0.712,0.17,-0.65,0.204
7800562,8053.0,-154.0,915.0,0.712,0.171,-0.649,0.204
7800588,8163.0,-214.0,843.0,0.712,0.171,-0.649,0.205
7800605,8083.0,-246.0,787.0,0.712,0.172,-0.649,0.205
7800621,8205.0,-184.0,777.0,0.712,0.172,-0.649,0.205
7800637,8061.0,-110.0,821.0,0.712,0.172,-0.649,0.206
7800653,8249.0,-302.0,781.0,0.712,0.173,-0.649,0.206
7800669,8117.0,-232.0,857.0,0.712,0.173,-0.649,0.207
7800695,8149.0,-128.0,851.0,0.711,0.174,-0.649,0.207
7800711,8117.0,-124.0,789.0,0.711,0.174,-0.649,0.208
7800727,8145.0,-128.0,895.0,0.711,0.174,-0.649,0.208
7800743,8183.0,-276.0,803.0,0.711,0.174,-0.649,0.208
7800759,8079.0,-300.0,769.0,0.711,0.174,-0.648,0.208
7800776,7997.0,-100.0,835.0,0.711,0.175,-0.648,0.208
7800792,7851.0,-88.0,967.0,0.711,0.174,-0.649,0.208
7800818,8273.0,-322.0,907.0,0.71,0.174,-0.649,0.208
7800834,8359.0,18.0,679.0,0.71,0.174,-0.65,0.208
7800850,8375.0,-108.0,553.0,0.71,0.174,-0.65,0.208
7800866,8193.0,-442.0,719.0,0.709,0.174,-0.65,0.209
7800882,8207.0,-222.0,643.0,0.709,0.174,-0.65,0.209
7800908,8153.0,62.0,689.0,0.709,0.174,-0.65,0.21
7800924,8039.0,-204.0,763.0,0.709,0.173,-0.65,0.211
7800941,8069.0,-138.0,827.0,0.709,0.173,-0.65,0.211
7800957,8183.0,-140.0,787.0,0.709,0.173,-0.65,0.212
7800973,8043.0,-308.0,799.0,0.709,0.172,-0.65,0.212
7800989,8113.0,-378.0,773.0,0.709,0.171,-0.651,0.213
7801006,8139.0,-378.0,903.0,0.708,0.171,-0.651,0.213
7801032,8219.0,-492.0,867.0,0.708,0.171,-0.651,0.214
7801048,8249.0,-500.0,811.0,0.708,0.171,-0.651,0.214
7801064,8253.0,-372.0,733.0,0.707,0.171,-0.651,0.215
7801080,8193.0,-356.0,785.0,0.707,0.172,-0.651,0.215
7801096,8167.0,-282.0,807.0,0.707,0.172,-0.651,0.215
7801112,8243.0,-248.0,817.0,0.707,0.172,-0.651,0.215
7801138,8275.0,-328.0,763.0,0.708,0.173,-0.651,0.214
7801154,8145.0,-374.0,849.0,0.708,0.173,-0.65,0.214
7801170,8143.0,-350.0,891.0,0.708,0.174,-0.65,0.215
7801186,8109.0,-238.0,967.0,0.708,0.174,-0.649,0.215
7801202,8179.0,-302.0,853.0,0.709,0.175,-0.649,0.215
7801218,8137.0,-300.0,825.0,0.709,0.175,-0.649,0.215
7801244,8111.0,-126.0,817.0,0.709,0.176,-0.648,0.215
7801260,8107.0,-122.0,859.0,0.709,0.176,-0.648,0.215
7801276,8125.0,-258.0,783.0,0.709,0.177,-0.648,0.216
7801292,8203.0,-184.0,735.0,0.709,0.177,-0.647,0.216
7801308,8075.0,-112.0,853.0,0.709,0.177,-0.647,0.216
7801324,8039.0,-180.0,859.0,0.709,0.178,-0.647,0.216
7801341,8103.0,-220.0,749.0,0.709,0.178,-0.647,0.217
7801367,8099.0,-266.0,757.0,0.709,0.178,-0.647,0.217
7801383,8163.0,-248.0,773.0,0.709,0.178,-0.647,0.218
7801399,7977.0,-186.0,851.0,0.708,0.178,-0.647,0.218
7801415,8107.0,-144.0,843.0,0.708,0.179,-0.647,0.218
7801431,8075.0,-198.0,939.0,0.708,0.179,-0.647,0.219
7801447,8127.0,-140.0,849.0,0.708,0.179,-0.647,0.219
7801474,8201.0,-268.0,785.0,0.707,0.179,-0.647,0.22
7801491,8097.0,-166.0,829.0,0.707,0.18,-0.648,0.22
7801507,8177.0,-168.0,827.0,0.707,0.18,-0.647,0.221
7801523,8159.0,-218.0,843.0,0.707,0.18,-0.647,0.221
7801542,8127.0,-202.0,799.0,0.707,0.18,-0.647,0.221
7801558,8111.0,-244.0,697.0,0.706,0.181,-0.647,0.222
7801575,8069.0,-218.0,763.0,0.706,0.181,-0.647,0.222
7801592,8071.0,-232.0,859.0,0.706,0.182,-0.647,0.222
7801608,8077.0,-190.0,841.0,0.706,0.182,-0.647,0.222
7801624,8103.0,-150.0,767.0,0.706,0.182,-0.647,0.222
7801650,8129.0,-194.0,789.0,0.706,0.183,-0.647,0.222
7801666,8143.0,-196.0,795.0,0.706,0.183,-0.647,0.222
7801682,8171.0,-142.0,737.0,0.706,0.183,-0.647,0.222
7801698,8173.0,-120.0,751.0,0.706,0.183,-0.647,0.222
7801714,8081.0,-104.0,793.0,0.706,0.183,-0.647,0.221
7801740,8149.0,-124.0,827.0,0.706,0.183,-0.647,0.221
7801756,8137.0,-150.0,815.0,0.707,0.183,-0.647,0.22
7801772,8163.0,-106.0,775.0,0.707,0.183,-0.647,0.22
7801788,8183.0,-52.0,841.0,0.707,0.183,-0.647,0.219
7801804,8153.0,-126.0,855.0,0.707,0.182,-0.647,0.219
7801820,8153.0,-120.0,801.0,0.707,0.182,-0.647,0.218
7801846,8165.0,-224.0,751.0,0.708,0.181,-0.647,0.217
7801862,8175.0,-190.0,781.0,0.708,0.181,-0.648,0.217
7801878,8171.0,-174.0,813.0,0.708,0.18,-0.648,0.216
7801894,8137.0,-106.0,785.0,0.708,0.18,-0.648,0.215
7801910,8197.0,-208.0,723.0,0.708,0.179,-0.648,0.215
7801926,8135.0,-230.0,743.0,0.709,0.178,-0.648,0.214
7801952,8101.0,-156.0,869.0,0.709,0.177,-0.649,0.213
7801968,8069.0,-244.0,821.0,0.709,0.176,-0.649,0.212
7801984,8105.0,-242.0,805.0,0.709,0.175,-0.649,0.211
7802000,8227.0,-306.0,731.0,0.71,0.174,-0.649,0.211
7802016,8197.0,-248.0,765.0,0.71,0.174,-0.65,0.21
7802032,8135.0,-222.0,807.0,0.71,0.173,-0.65,0.21
7802058,8143.0,-166.0,803.0,0.71,0.172,-0.65,0.209
7802074,8063.0,-242.0,821.0,0.71,0.171,-0.65,0.208
7802090,8251.0,-280.0,827.0,0.711,0.171,-0.65,0.208
7802107,8173.0,-234.0,777.0,0.711,0.17,-0.65,0.207
7802123,8229.0,-188.0,671.0,0.711,0.169,-0.65,0.207
7802139,8193.0,-294.0,765.0,0.711,0.169,-0.65,0.206
7802155,8111.0,-186.0,843.0,0.712,0.168,-0.65,0.206
7802182,8129.0,-224.0,809.0,0.712,0.168,-0.65,0.205
7802199,8175.0,-234.0,755.0,0.712,0.167,-0.651,0.205
7802215,8111.0,-184.0,735.0,0.712,0.167,-0.651,0.205
7802231,8137.0,-194.0,747.0,0.712,0.167,-0.651,0.204
7802247,8129.0,-206.0,739.0,0.712,0.166,-0.651,0.204
7802263,8081.0,-202.0,779.0,0.712,0.166,-0.651,0.204
7802279,8099.0,-220.0,809.0,0.713,0.166,-0.651,0.203
7802305,8247.0,-240.0,805.0,0.713,0.165,-0.651,0.203
7802321,8127.0,-234.0,773.0,0.713,0.165,-0.651,0.203
7802337,8063.0,-158.0,795.0,0.713,0.165,-0.651,0.203
7802353,8239.0,-192.0,801.0,0.713,0.165,-0.651,0.203
7802369,8087.0,-268.0,829.0,0.713,0.164,-0.651,0.202
7802385,8181.0,-246.0,809.0,0.713,0.164,-0.651,0.202
7802411,8161.0,-202.0,659.0,0.713,0.164,-0.652,0.202
7802427,8161.0,-302.0,753.0,0.713,0.164,-0.652,0.202
7802443,8165.0,-230.0,861.0,0.713,0.163,-0.652,0.202
7802459,8233.0,-188.0,805.0,0.713,0.163,-0.652,0.202
7802475,8213.0,-310.0,761.0,0.713,0.162,-0.652,0.201
7802492,8117.0,-264.0,767.0,0.713,0.162,-0.652,0.201
7802518,8077.0,-84.0,845.0,0.713,0.162,-0.652,0.2
7802534,8121.0,-244.0,781.0,0.713,0.161,-0.652,0.2
7802550,8049.0,-314.0,757.0,0.713,0.161,-0.652,0.2
7802566,8137.0,-316.0,719.0,0.713,0.16,-0.652,0.199
7802582,8155.0,-232.0,703.0,0.714,0.16,-0.652,0.199
7802598,8047.0,-270.0,749.0,0.714,0.159,-0.652,0.199
7802624,8041.0,-220.0,861.0,0.714,0.159,-0.652,0.199
7802640,8145.0,-268.0,849.0,0.714,0.158,-0.652,0.198
7802656,8125.0,-390.0,773.0,0.714,0.158,-0.653,0.198
7802672,8135.0,-274.0,777.0,0.714,0.158,-0.652,0.198
7802688,8027.0,-344.0,827.0,0.714,0.158,-0.652,0.198
7802704,8143.0,-274.0,787.0,0.714,0.158,-0.652,0.198
7802730,8097.0,-304.0,823.0,0.715,0.158,-0.652,0.198
7802746,8201.0,-332.0,799.0,0.715,0.158,-0.652,0.198
7802763,8143.0,-300.0,781.0,0.715,0.159,-0.652,0.198
7802779,8225.0,-258.0,755.0,0.715,0.159,-0.651,0.199
7802795,8167.0,-282.0,761.0,0.715,0.16,-0.651,0.199
7802811,8099.0,-268.0,765.0,0.715,0.161,-0.651,0.199
7802837,8201.0,-288.0,791.0,0.715,0.161,-0.65,0.2
7802853,8127.0,-262.0,775.0,0.715,0.162,-0.65,0.2
7802869,8167.0,-276.0,761.0,0.715,0.163,-0.65,0.2
7802885,8037.0,-234.0,765.0,0.715,0.163,-0.65,0.2
7802901,8139.0,-146.0,767.0,0.715,0.164,-0.65,0.201
7802917,8039.0,-158.0,831.0,0.715,0.165,-0.65,0.201
7802943,8201.0,-284.0,817.0,0.714,0.165,-0.65,0.201
7802959,8117.0,-232.0,763.0,0.714,0.166,-0.65,0.202
7802975,8129.0,-300.0,815.0,0.714,0.166,-0.65,0.202
7802991,8075.0,-180.0,855.0,0.714,0.167,-0.65,0.203
7803007,8173.0,-108.0,825.0,0.713,0.167,-0.65,0.203
7803023,8137.0,-256.0,823.0,0.713,0.167,-0.65,0.203
7803040,8161.0,-280.0,795.0,0.713,0.168,-0.65,0.204
7803067,8121.0,-130.0,835.0,0.713,0.168,-0.65,0.204
7803084,8101.0,-180.0,853.0,0.712,0.168,-0.65,0.205
7803100,8149.0,-196.0,811.0,0.712,0.168,-0.65,0.205
7803116,8213.0,-162.0,757.0,0.712,0.169,-0.65,0.205
7803132,8155.0,-228.0,729.0,0.712,0.169,-0.65,0.206
7803149,8057.0,-176.0,819.0,0.711,0.169,-0.65,0.206
7803166,8169.0,-110.0,819.0,0.711,0.169,-0.65,0.206
7803182,8097.0,-228.0,727.0,0.711,0.169,-0.65,0.206
7803208,8257.0,-234.0,691.0,0.711,0.169,-0.651,0.207
7803224,8223.0,-44.0,783.0,0.711,0.169,-0.651,0.207
7803241,8141.0,52.0,849.0,0.711,0.169,-0.651,0.206
7803259,8161.0,-60.0,717.0,0.71,0.168,-0.652,0.206
7803275,8079.0,-252.0,451.0,0.71,0.168,-0.652,0.205
7803291,8159.0,-578.0,781.0,0.71,0.167,-0.652,0.205
7803307,8127.0,-36.0,857.0,0.711,0.168,-0.652,0.205
7803323,8113.0,-88.0,839.0,0.711,0.167,-0.652,0.204
7803349,8079.0,-414.0,925.0,0.711,0.167,-0.652,0.204
7803365,8061.0,-176.0,851.0,0.711,0.166,-0.652,0.204
7803381,8107.0,-148.0,889.0,0.711,0.166,-0.652,0.203
7803397,8153.0,-312.0,825.0,0.711,0.165,-0.652,0.203
7803413,8187.0,-332.0,753.0,0.712,0.165,-0.652,0.203
7803439,8159.0,-274.0,761.0,0.712,0.164,-0.652,0.203
7803456,8167.0,-326.0,765.0,0.712,0.164,-0.652,0.202
7803473,8071.0,-320.0,871.0,0.712,0.163,-0.652,0.202
7803489,8181.0,-364.0,887.0,0.712,0.162,-0.652,0.202
7803505,8189.0,-338.0,821.0,0.712,0.162,-0.652,0.202
7803521,8217.0,-436.0,773.0,0.713,0.162,-0.652,0.202
7803538,8135.0,-332.0,881.0,0.713,0.162,-0.652,0.202
7803554,8033.0,-304.0,945.0,0.713,0.162,-0.652,0.201
7803580,8113.0,-238.0,707.0,0.713,0.163,-0.652,0.201
7803596,8081.0,-130.0,669.0,0.713,0.163,-0.652,0.201
7803612,7989.0,-94.0,705.0,0.713,0.163,-0.652,0.202
7803628,7903.0,-108.0,685.0,0.712,0.163,-0.652,0.202
7803644,7941.0,-186.0,679.0,0.712,0.163,-0.652,0.202
7803660,8063.0,-154.0,625.0,0.712,0.163,-0.653,0.203
7803686,8117.0,-300.0,593.0,0.711,0.163,-0.653,0.203
7803702,8149.0,-204.0,699.0,0.711,0.163,-0.653,0.203
7803718,8243.0,-140.0,785.0,0.71,0.163,-0.654,0.203
7803734,8183.0,-258.0,769.0,0.71,0.163,-0.654,0.203
7803750,8173.0,-324.0,727.0,0.71,0.164,-0.654,0.204
7803766,8235.0,-220.0,685.0,0.709,0.165,-0.654,0.204
7803792,8197.0,-102.0,657.0,0.709,0.166,-0.654,0.205
7803809,8181.0,-304.0,773.0,0.709,0.167,-0.654,0.205
7803825,8181.0,-198.0,751.0,0.709,0.168,-0.654,0.205
7803841,8139.0,-128.0,803.0,0.709,0.169,-0.653,0.205
7803857,8167.0,-286.0,795.0,0.709,0.17,-0.653,0.205
7803873,8311.0,-192.0,733.0,0.709,0.171,-0.653,0.205
7803899,8207.0,-284.0,723.0,0.709,0.171,-0.653,0.205
7803916,8187.0,-312.0,771.0,0.709,0.172,-0.653,0.204
7803932,8101.0,-272.0,779.0,0.709,0.172,-0.653,0.203
7803948,8041.0,-300.0,763.0,0.709,0.173,-0.653,0.203
7803964,8043.0,-180.0,743.0,0.709,0.174,-0.653,0.203
7803980,7909.0,-136.0,767.0,0.709,0.174,-0.653,0.203
7803996,7929.0,126.0,819.0,0.709,0.175,-0.653,0.203
7804022,7785.0,-220.0,911.0,0.708,0.175,-0.653,0.203
7804038,8407.0,-390.0,799.0,0.708,0.175,-0.653,0.204
7804054,8543.0,46.0,621.0,0.707,0.176,-0.653,0.205
7804071,8359.0,294.0,567.0,0.707,0.176,-0.654,0.205
7804087,8153.0,-254.0,659.0,0.707,0.175,-0.654,0.205
7804103,8019.0,-26.0,753.0,0.707,0.175,-0.654,0.205
7804129,8165.0,-96.0,733.0,0.707,0.174,-0.654,0.205
7804147,8321.0,224.0,595.0,0.707,0.173,-0.654,0.204
7804163,8053.0,-76.0,559.0,0.708,0.172,-0.654,0.204
7804179,8209.0,22.0,491.0,0.708,0.17,-0.655,0.203
7804195,8165.0,-320.0,527.0,0.708,0.169,-0.655,0.202
7804211,8181.0,-292.0,569.0,0.709,0.167,-0.655,0.2
7804227,8001.0,-114.0,593.0,0.71,0.166,-0.655,0.199
7804253,8141.0,-186.0,683.0,0.71,0.164,-0.655,0.198
7804269,8205.0,-390.0,689.0,0.711,0.163,-0.655,0.197
7804285,8215.0,-276.0,645.0,0.711,0.162,-0.656,0.196
7804302,8313.0,-162.0,627.0,0.711,0.162,-0.656,0.195
7804318,8199.0,-256.0,659.0,0.712,0.161,-0.656,0.194
7804334,8261.0,-234.0,657.0,0.712,0.16,-0.656,0.193
7804350,8287.0,-178.0,693.0,0.712,0.16,-0.656,0.192
7804376,8119.0,-248.0,681.0,0.713,0.159,-0.656,0.19
7804392,8105.0,-166.0,741.0,0.713,0.158,-0.656,0.189
7804408,8067.0,-224.0,709.0,0.714,0.158,-0.656,0.187
7804424,8081.0,-270.0,757.0,0.714,0.157,-0.657,0.186
7804440,8025.0,-172.0,815.0,0.714,0.156,-0.657,0.185
7804457,8115.0,-288.0,793.0,0.715,0.155,-0.657,0.183
7804483,8045.0,-476.0,839.0,0.715,0.155,-0.657,0.182
7804500,8159.0,-36.0,673.0,0.715,0.154,-0.658,0.181
7804516,8251.0,-326.0,569.0,0.715,0.154,-0.658,0.18
7804532,8235.0,-376.0,671.0,0.715,0.153,-0.658,0.179
7804549,8135.0,-186.0,705.0,0.716,0.152,-0.658,0.178
7804565,8105.0,-82.0,689.0,0.716,0.152,-0.658,0.177
7804581,8147.0,-204.0,721.0,0.716,0.151,-0.658,0.177
7804607,8161.0,-320.0,669.0,0.716,0.15,-0.658,0.176
7804623,8165.0,-396.0,675.0,0.716,0.15,-0.659,0.177
7804639,8125.0,-416.0,721.0,0.716,0.151,-0.659,0.177
7804655,8017.0,-344.0,737.0,0.715,0.151,-0.659,0.178
7804671,8201.0,-86.0,695.0,0.715,0.152,-0.659,0.178
7804687,8015.0,-92.0,735.0,0.715,0.152,-0.659,0.178
7804713,7999.0,-394.0,707.0,0.714,0.153,-0.659,0.179
7804729,8103.0,-282.0,539.0,0.713,0.153,-0.66,0.18
7804745,8037.0,-284.0,499.0,0.712,0.154,-0.661,0.18
7804761,7947.0,-392.0,621.0,0.711,0.155,-0.662,0.181
7804777,8129.0,-334.0,469.0,0.71,0.155,-0.663,0.181
7804793,8229.0,-264.0,407.0,0.709,0.156,-0.664,0.181
7804819,8191.0,-348.0,259.0,0.708,0.156,-0.665,0.182
7804835,8099.0,-408.0,267.0,0.707,0.156,-0.666,0.182
7804851,8035.0,-384.0,343.0,0.706,0.156,-0.667,0.182
7804867,7833.0,-390.0,483.0,0.706,0.155,-0.667,0.181
7804884,7919.0,-358.0,453.0,0.705,0.155,-0.668,0.181
7804900,7835.0,-326.0,611.0,0.704,0.155,-0.669,0.181
7804916,8017.0,-384.0,653.0,0.703,0.155,-0.67,0.181
7804942,8121.0,-300.0,587.0,0.702,0.156,-0.671,0.182
7804958,8083.0,-262.0,603.0,0.701,0.156,-0.671,0.182
7804974,8309.0,-226.0,595.0,0.7,0.157,-0.672,0.182
7804990,8393.0,-316.0,507.0,0.7,0.158,-0.672,0.183
7805006,8359.0,-236.0,489.0,0.699,0.16,-0.673,0.183
7805022,8349.0,-564.0,497.0,0.699,0.161,-0.672,0.183
7805049,8335.0,-692.0,571.0,0.699,0.163,-0.671,0.182
7805065,8157.0,-452.0,591.0,0.7,0.167,-0.67,0.183
7805081,8223.0,12.0,567.0,0.7,0.171,-0.669,0.183
7805097,8039.0,540.0,555.0,0.7,0.174,-0.668,0.183
7805113,8003.0,152.0,497.0,0.7,0.177,-0.667,0.184
7805129,8095.0,-236.0,433.0,0.699,0.18,-0.667,0.184
7805155,8259.0,-14.0,301.0,0.698,0.183,-0.667,0.186
7805171,7929.0,246.0,387.0,0.697,0.186,-0.666,0.187
7805187,7899.0,246.0,479.0,0.696,0.189,-0.667,0.189
7805203,8083.0,158.0,541.0,0.694,0.192,-0.667,0.19
7805219,8495.0,92.0,345.0,0.691,0.195,-0.668,0.193
7805235,8521.0,664.0,237.0,0.688,0.198,-0.669,0.197
7805261,8255.0,512.0,285.0,0.686,0.2,-0.671,0.2
7805277,7539.0,-164.0,401.0,0.683,0.201,-0.673,0.202
7805293,7487.0,-428.0,169.0,0.68,0.204,-0.675,0.203
7805309,7987.0,-316.0,-153.0,0.676,0.208,-0.677,0.203
7805326,7935.0,362.0,-265.0,0.674,0.212,-0.678,0.203
7805343,7785.0,654.0,-247.0,0.671,0.215,-0.68,0.202
7805359,8113.0,852.0,-369.0,0.67,0.217,-0.681,0.201
7805385,8145.0,-6.0,-307.0,0.669,0.218,-0.683,0.198
7805401,8255.0,-176.0,-357.0,0.667,0.22,-0.684,0.196
7805417,7983.0,110.0,-201.0,0.666,0.222,-0.685,0.194
7805433,8377.0,120.0,-327.0,0.665,0.225,-0.686,0.192
7805449,8335.0,338.0,-239.0,0.664,0.228,-0.686,0.189
7805465,8955.0,1160.0,-453.0,0.663,0.23,-0.687,0.187
7805491,9115.0,750.0,-583.0,0.663,0.231,-0.688,0.185
7805507,8955.0,-260.0,-317.0,0.663,0.233,-0.688,0.183
7805523,7871.0,548.0,-109.0,0.662,0.236,-0.688,0.18
7805539,8351.0,1644.0,-243.0,0.661,0.239,-0.689,0.176
7805555,9029.0,1090.0,-705.0,0.66,0.24,-0.69,0.172
7805571,8851.0,498.0,-845.0,0.66,0.242,-0.691,0.169
7805597,8393.0,382.0,-767.0,0.66,0.243,-0.691,0.168
7805613,7759.0,1860.0,-407.0,0.66,0.245,-0.69,0.167
7805629,7413.0,1512.0,-133.0,0.66,0.246,-0.69,0.166
7805645,8467.0,1140.0,-445.0,0.659,0.245,-0.691,0.165
7805661,8291.0,1030.0,-993.0,0.659,0.245,-0.692,0.164
7805677,8187.0,6.0,-823.0,0.66,0.244,-0.692,0.162
7805703,8197.0,960.0,-689.0,0.661,0.245,-0.691,0.161
7805719,8703.0,936.0,-319.0,0.662,0.246,-0.69,0.159
7805735,8391.0,1098.0,-399.0,0.663,0.247,-0.69,0.156
7805751,8463.0,1236.0,-849.0,0.664,0.248,-0.689,0.153
7805767,9081.0,1104.0,-1137.0,0.666,0.25,-0.687,0.15
7805783,8943.0,958.0,-1087.0,0.67,0.252,-0.682,0.146
7805810,7231.0,1234.0,-299.0,0.675,0.254,-0.677,0.145
7805826,6671.0,2900.0,331.0,0.678,0.255,-0.674,0.145
7805843,8091.0,2218.0,-247.0,0.68,0.253,-0.673,0.143
7805859,7425.0,918.0,-207.0,0.683,0.25,-0.671,0.143
7805875,7119.0,1288.0,-329.0,0.685,0.248,-0.67,0.143
7805891,7249.0,1866.0,-59.0,0.687,0.245,-0.669,0.143
7805907,8459.0,932.0,-289.0,0.689,0.243,-0.668,0.143
7805933,8535.0,836.0,-373.0,0.691,0.241,-0.666,0.143
7805949,8113.0,1282.0,27.0,0.694,0.24,-0.664,0.143
7805965,8017.0,1304.0,87.0,0.696,0.239,-0.662,0.143
7805981,8397.0,1482.0,37.0,0.697,0.238,-0.661,0.142
7805997,8439.0,1312.0,-217.0,0.698,0.237,-0.661,0.14
7806014,8341.0,1126.0,-255.0,0.7,0.235,-0.66,0.139
7806040,7675.0,1096.0,5.0,0.701,0.234,-0.66,0.138
7806056,7517.0,1734.0,177.0,0.702,0.232,-0.66,0.137
7806073,7659.0,1388.0,-3.0,0.702,0.229,-0.661,0.136
7806089,7853.0,670.0,11.0,0.702,0.226,-0.662,0.135
7806105,7613.0,1186.0,21.0,0.701,0.224,-0.664,0.135
7806121,7863.0,1824.0,7.0,0.7,0.22,-0.666,0.136
7806137,8125.0,1106.0,-15.0,0.698,0.216,-0.669,0.135
7806163,8447.0,974.0,-161.0,0.696,0.212,-0.672,0.135
7806179,8327.0,828.0,-249.0,0.694,0.208,-0.676,0.135
7806195,8209.0,610.0,-327.0,0.691,0.205,-0.68,0.136
7806211,8479.0,866.0,-547.0,0.687,0.203,-0.684,0.138
7806227,8639.0,792.0,-711.0,0.683,0.201,-0.688,0.139
7806253,8187.0,438.0,-567.0,0.68,0.199,-0.692,0.141
7806269,8181.0,492.0,-577.0,0.677,0.197,-0.695,0.141
7806285,8777.0,924.0,-603.0,0.674,0.197,-0.698,0.141
7806302,8577.0,992.0,-523.0,0.672,0.195,-0.7,0.141
7806318,8075.0,662.0,-481.0,0.67,0.194,-0.703,0.141
7806334,8049.0,702.0,-267.0,0.667,0.193,-0.705,0.141
7806350,8265.0,836.0,-335.0,0.665,0.192,-0.708,0.141
7806376,8427.0,896.0,-467.0,0.663,0.191,-0.71,0.141
7806392,8565.0,810.0,-527.0,0.662,0.19,-0.711,0.141
7806408,8529.0,1124.0,-463.0,0.661,0.189,-0.712,0.14
7806424,8087.0,1016.0,-333.0,0.661,0.188,-0.713,0.14
7806440,8041.0,722.0,-209.0,0.661,0.186,-0.714,0.139
7806457,8205.0,982.0,-277.0,0.661,0.185,-0.714,0.138
7806483,8245.0,1090.0,-365.0,0.662,0.183,-0.714,0.137
7806499,8119.0,654.0,-393.0,0.664,0.181,-0.713,0.135
7806515,8295.0,696.0,-349.0,0.666,0.179,-0.712,0.133
7806531,8659.0,716.0,-433.0,0.668,0.178,-0.71,0.131
7806547,8647.0,626.0,-485.0,0.671,0.176,-0.708,0.129
7806563,8265.0,832.0,-109.0,0.675,0.175,-0.706,0.126
7806589,8381.0,844.0,-77.0,0.679,0.174,-0.703,0.123
7806605,8439.0,318.0,-139.0,0.682,0.172,-0.7,0.119
7806621,8265.0,600.0,-97.0,0.686,0.172,-0.697,0.115
7806637,8379.0,554.0,-397.0,0.69,0.171,-0.694,0.111
7806653,8519.0,-30.0,-355.0,0.694,0.171,-0.691,0.106
7806670,8223.0,556.0,-109.0,0.699,0.172,-0.687,0.102
7806686,7993.0,1068.0,209.0,0.703,0.173,-0.683,0.097
7806712,7969.0,1164.0,159.0,0.707,0.173,-0.679,0.092
7806728,8013.0,1004.0,71.0,0.711,0.172,-0.677,0.087
7806745,8255.0,704.0,-109.0,0.714,0.17,-0.674,0.082
7806761,8265.0,414.0,-277.0,0.717,0.169,-0.672,0.077
7806777,8201.0,238.0,-55.0,0.72,0.168,-0.669,0.072
7806794,7831.0,634.0,101.0,0.723,0.168,-0.666,0.068
7806810,8045.0,770.0,219.0,0.726,0.168,-0.664,0.064
7806836,8171.0,694.0,171.0,0.728,0.168,-0.662,0.06
7806852,8233.0,546.0,59.0,0.729,0.168,-0.661,0.056
7806868,8161.0,612.0,61.0,0.73,0.168,-0.66,0.052
7806884,8115.0,598.0,77.0,0.731,0.168,-0.659,0.05
7806900,8075.0,842.0,105.0,0.732,0.168,-0.659,0.047
7806916,7969.0,828.0,77.0,0.732,0.167,-0.659,0.045
7806942,8069.0,572.0,-75.0,0.732,0.167,-0.659,0.044
7806958,8013.0,864.0,83.0,0.732,0.166,-0.659,0.044
7806974,7833.0,966.0,159.0,0.732,0.165,-0.659,0.044
7806990,7791.0,628.0,111.0,0.732,0.164,-0.66,0.045
7807007,7931.0,386.0,-5.0,0.731,0.163,-0.661,0.046
7807024,7773.0,530.0,1.0,0.73,0.162,-0.662,0.047
7807040,7629.0,620.0,131.0,0.729,0.161,-0.663,0.048
7807066,7361.0,950.0,255.0,0.729,0.161,-0.664,0.049
7807082,7579.0,1042.0,149.0,0.727,0.159,-0.665,0.051
7807098,7801.0,892.0,-137.0,0.726,0.157,-0.667,0.053
7807114,8235.0,1018.0,-667.0,0.726,0.155,-0.668,0.054
7807130,8237.0,918.0,-689.0,0.727,0.153,-0.667,0.054
7807146,7871.0,1264.0,45.0,0.73,0.149,-0.665,0.051
7807172,7107.0,-702.0,1083.0,0.732,0.146,-0.663,0.051
7807188,7275.0,1246.0,1083.0,0.733,0.146,-0.662,0.052
7807204,7513.0,2294.0,1061.0,0.733,0.144,-0.662,0.053
7807220,7521.0,1378.0,917.0,0.734,0.141,-0.663,0.053
7807237,7539.0,740.0,887.0,0.733,0.137,-0.664,0.054
7807254,7621.0,1042.0,781.0,0.732,0.133,-0.665,0.055
7807270,7889.0,944.0,621.0,0.731,0.13,-0.667,0.057
7807297,8193.0,750.0,469.0,0.73,0.127,-0.669,0.058
7807313,8371.0,724.0,417.0,0.729,0.125,-0.67,0.059
7807329,8633.0,684.0,527.0,0.728,0.123,-0.672,0.059
7807345,8811.0,910.0,463.0,0.728,0.121,-0.673,0.059
7807361,8657.0,914.0,509.0,0.727,0.119,-0.674,0.059
7807377,8605.0,858.0,695.0,0.726,0.118,-0.675,0.057
7807403,8377.0,868.0,713.0,0.725,0.116,-0.676,0.055
7807419,8405.0,1106.0,693.0,0.724,0.114,-0.678,0.052
7807435,8223.0,1652.0,519.0,0.723,0.11,-0.68,0.048
7807451,8061.0,1668.0,677.0,0.723,0.104,-0.682,0.042
7807467,8085.0,604.0,583.0,0.722,0.098,-0.684,0.036
7807483,8327.0,-508.0,219.0,0.721,0.093,-0.686,0.033
7807509,8315.0,126.0,193.0,0.72,0.09,-0.687,0.032
7807525,7967.0,826.0,573.0,0.719,0.088,-0.688,0.031
7807541,7759.0,870.0,873.0,0.719,0.086,-0.689,0.031
7807562,7819.0,636.0,883.0,0.718,0.084,-0.69,0.031
7807578,7999.0,204.0,819.0,0.716,0.082,-0.692,0.033
7807594,7813.0,366.0,521.0,0.714,0.083,-0.694,0.038
7807610,8315.0,936.0,413.0,0.712,0.083,-0.695,0.042
7807626,8451.0,1274.0,325.0,0.711,0.084,-0.697,0.045
7807652,8335.0,984.0,403.0,0.71,0.083,-0.698,0.048
7807668,8455.0,1150.0,343.0,0.709,0.082,-0.699,0.05
7807684,8231.0,846.0,343.0,0.707,0.081,-0.7,0.052
7807700,8199.0,926.0,359.0,0.706,0.08,-0.701,0.054
7807716,8189.0,760.0,231.0,0.705,0.078,-0.702,0.057
7807732,8205.0,896.0,175.0,0.704,0.077,-0.703,0.06
7807748,8047.0,908.0,199.0,0.704,0.076,-0.704,0.063
7807774,8173.0,910.0,217.0,0.703,0.074,-0.704,0.066
7807790,8227.0,766.0,225.0,0.703,0.073,-0.704,0.07
7807806,8403.0,668.0,163.0,0.703,0.071,-0.704,0.073
7807822,8511.0,510.0,241.0,0.704,0.071,-0.703,0.076
7807839,8531.0,526.0,287.0,0.704,0.07,-0.702,0.079
7807856,8527.0,348.0,501.0,0.704,0.071,-0.702,0.081
7807872,8659.0,580.0,463.0,0.705,0.072,-0.701,0.082
7807899,8745.0,656.0,339.0,0.705,0.073,-0.701,0.082
7807915,8583.0,492.0,297.0,0.705,0.075,-0.7,0.083
7807931,8495.0,240.0,215.0,0.705,0.077,-0.7,0.083
7807947,8203.0,266.0,303.0,0.706,0.08,-0.699,0.082
7807963,8103.0,216.0,321.0,0.706,0.083,-0.699,0.081
7807979,8113.0,306.0,153.0,0.706,0.087,-0.698,0.079
7808005,8073.0,266.0,7.0,0.707,0.091,-0.697,0.077
7808022,8037.0,334.0,-71.0,0.708,0.096,-0.695,0.075
7808038,7953.0,140.0,-35.0,0.71,0.101,-0.693,0.073
7808054,7891.0,170.0,25.0,0.711,0.106,-0.691,0.071
7808071,8055.0,460.0,7.0,0.713,0.112,-0.689,0.069
7808088,7959.0,506.0,143.0,0.714,0.117,-0.687,0.067
7808104,7903.0,280.0,237.0,0.716,0.122,-0.685,0.063
7808121,8209.0,302.0,55.0,0.717,0.127,-0.683,0.061
7808138,8539.0,384.0,-137.0,0.718,0.132,-0.681,0.058
7808155,9099.0,602.0,-555.0,0.72,0.138,-0.678,0.056
7808182,8451.0,910.0,-131.0,0.722,0.142,-0.675,0.054
7808198,7977.0,898.0,119.0,0.724,0.146,-0.673,0.053
7808214,7655.0,686.0,11.0,0.725,0.149,-0.67,0.053
7808230,7627.0,264.0,45.0,0.726,0.152,-0.669,0.053
7808246,7809.0,-154.0,-71.0,0.726,0.156,-0.668,0.051
7808262,7851.0,318.0,-73.0,0.726,0.161,-0.667,0.05
7808279,8299.0,876.0,-159.0,0.726,0.166,-0.666,0.048
7808305,8691.0,814.0,-245.0,0.726,0.17,-0.665,0.048
7808322,8623.0,420.0,-57.0,0.725,0.174,-0.665,0.048
7808339,8353.0,134.0,99.0,0.724,0.177,-0.664,0.049
7808355,8021.0,368.0,211.0,0.723,0.182,-0.664,0.05
7808371,7941.0,506.0,215.0,0.721,0.186,-0.665,0.051
7808388,7627.0,606.0,111.0,0.719,0.19,-0.666,0.052
7808405,7567.0,758.0,87.0,0.717,0.194,-0.667,0.054
7808422,7617.0,1012.0,-63.0,0.715,0.197,-0.668,0.057
7808438,7863.0,782.0,-59.0,0.713,0.2,-0.669,0.06
7808465,8363.0,536.0,-359.0,0.712,0.202,-0.67,0.065
7808481,8783.0,706.0,-289.0,0.711,0.205,-0.669,0.071
7808497,8769.0,1312.0,-91.0,0.71,0.208,-0.668,0.078
7808513,8493.0,1530.0,417.0,0.709,0.21,-0.667,0.084
7808529,8203.0,1228.0,723.0,0.708,0.211,-0.667,0.091
7808545,7521.0,1158.0,733.0,0.707,0.211,-0.668,0.098
7808571,7295.0,1506.0,665.0,0.705,0.211,-0.669,0.104
7808587,7287.0,1112.0,589.0,0.703,0.21,-0.67,0.111
7808603,7323.0,916.0,357.0,0.702,0.208,-0.671,0.119
7808620,7687.0,1248.0,221.0,0.701,0.207,-0.671,0.127
7808637,7699.0,1368.0,431.0,0.7,0.206,-0.671,0.134
7808654,8127.0,1244.0,303.0,0.7,0.204,-0.67,0.142
7808671,8399.0,822.0,251.0,0.699,0.201,-0.67,0.149
7808687,8611.0,752.0,83.0,0.699,0.197,-0.67,0.156
7808704,8355.0,322.0,131.0,0.699,0.194,-0.669,0.162
7808730,7995.0,708.0,479.0,0.698,0.192,-0.669,0.167
7808746,7939.0,312.0,645.0,0.697,0.189,-0.67,0.173
7808762,8179.0,-124.0,575.0,0.695,0.186,-0.671,0.177
7808779,7977.0,-370.0,145.0,0.693,0.185,-0.673,0.182
7808795,8343.0,-604.0,-191.0,0.691,0.185,-0.674,0.187
7808811,8281.0,106.0,-259.0,0.689,0.187,-0.674,0.193
7808837,7841.0,280.0,-11.0,0.687,0.189,-0.673,0.199
7808854,7783.0,364.0,127.0,0.685,0.191,-0.673,0.205
7808871,8567.0,522.0,-303.0,0.683,0.192,-0.672,0.211
7808887,8697.0,114.0,-553.0,0.682,0.193,-0.672,0.217
7808904,8493.0,-180.0,-293.0,0.681,0.195,-0.67,0.223
7808921,8233.0,18.0,-57.0,0.681,0.198,-0.667,0.229
7808938,8607.0,290.0,-1.0,0.68,0.201,-0.665,0.234
7808954,8507.0,136.0,107.0,0.679,0.204,-0.663,0.24
7808971,8339.0,18.0,179.0,0.678,0.208,-0.661,0.245
7808988,8039.0,-154.0,351.0,0.677,0.213,-0.659,0.25
7809005,7695.0,8.0,319.0,0.675,0.218,-0.657,0.255
7809022,7605.0,-10.0,319.0,0.672,0.225,-0.656,0.26
7809049,7331.0,82.0,213.0,0.669,0.232,-0.655,0.264
7809065,7137.0,114.0,173.0,0.665,0.239,-0.655,0.268
7809081,7175.0,292.0,35.0,0.661,0.246,-0.654,0.273
7809097,7135.0,230.0,-53.0,0.657,0.253,-0.654,0.277
7809113,7147.0,316.0,-181.0,0.653,0.26,-0.654,0.281
7809129,7249.0,292.0,-123.0,0.649,0.266,-0.653,0.286
7809155,7193.0,536.0,-45.0,0.644,0.272,-0.653,0.291
7809172,7159.0,232.0,1.0,0.64,0.278,-0.652,0.296
7809189,7041.0,262.0,87.0,0.636,0.283,-0.651,0.301
7809206,6799.0,198.0,1.0,0.632,0.289,-0.651,0.306
7809222,7259.0,76.0,9.0,0.627,0.295,-0.651,0.31
7809238,7199.0,434.0,-85.0,0.623,0.301,-0.65,0.315
7809255,6993.0,466.0,205.0,0.618,0.306,-0.65,0.319
7809272,6617.0,910.0,655.0,0.613,0.311,-0.651,0.322
7809289,6847.0,908.0,619.0,0.608,0.315,-0.653,0.324
7809315,7629.0,242.0,-199.0,0.603,0.318,-0.656,0.324
7809331,8411.0,-1238.0,-845.0,0.599,0.323,-0.656,0.325
7809347,8915.0,-1634.0,-1035.0,0.597,0.329,-0.654,0.327
7809363,8189.0,-336.0,-339.0,0.596,0.338,-0.649,0.33
7809379,7645.0,1016.0,195.0,0.595,0.346,-0.645,0.333
7809395,7999.0,1038.0,175.0,0.594,0.353,-0.641,0.334
7809421,8043.0,934.0,-145.0,0.592,0.358,-0.639,0.335
7809438,7983.0,538.0,-255.0,0.591,0.362,-0.638,0.336
7809454,7879.0,112.0,-303.0,0.59,0.366,-0.636,0.337
7809471,7579.0,-72.0,-321.0,0.589,0.37,-0.635,0.337
7809487,7721.0,-2.0,-379.0,0.588,0.374,-0.633,0.338
7809504,8087.0,130.0,-507.0,0.588,0.378,-0.63,0.338
7809521,8307.0,422.0,-505.0,0.588,0.383,-0.627,0.339
7809537,8839.0,420.0,-555.0,0.587,0.387,-0.625,0.34
7809554,9605.0,354.0,-897.0,0.588,0.39,-0.622,0.341
7809571,9937.0,360.0,-989.0,0.588,0.393,-0.619,0.342
7809597,9747.0,350.0,-723.0,0.589,0.395,-0.616,0.343
7809613,9145.0,-92.0,-737.0,0.59,0.398,-0.613,0.342
7809629,9167.0,80.0,-353.0,0.591,0.402,-0.61,0.341
7809645,8895.0,494.0,-383.0,0.591,0.406,-0.608,0.34
7809661,9067.0,814.0,-551.0,0.591,0.41,-0.607,0.337
7809677,9255.0,328.0,-713.0,0.592,0.413,-0.606,0.335
7809703,9427.0,-92.0,-1073.0,0.592,0.416,-0.604,0.334
7809720,9239.0,386.0,-999.0,0.592,0.419,-0.602,0.333
7809737,9047.0,576.0,-769.0,0.593,0.421,-0.6,0.332
7809754,8983.0,764.0,-791.0,0.594,0.423,-0.598,0.332
7809771,8759.0,848.0,-809.0,0.595,0.424,-0.597,0.332
7809788,8501.0,548.0,-701.0,0.596,0.423,-0.596,0.332
7809805,8587.0,574.0,-705.0,0.596,0.423,-0.596,0.332
7809822,8201.0,686.0,-707.0,0.597,0.422,-0.596,0.332
7809838,8273.0,800.0,-727.0,0.597,0.421,-0.596,0.333
7809855,8289.0,728.0,-823.0,0.598,0.42,-0.596,0.333
7809872,8165.0,622.0,-727.0,0.598,0.418,-0.597,0.333
7809899,8333.0,660.0,-763.0,0.598,0.417,-0.598,0.334
7809915,8633.0,1142.0,-973.0,0.598,0.415,-0.599,0.334
7809932,8823.0,750.0,-979.0,0.599,0.412,-0.6,0.335
7809949,8841.0,562.0,-865.0,0.599,0.409,-0.601,0.336
7809965,8709.0,924.0,-849.0,0.599,0.407,-0.602,0.337
7809981,8727.0,856.0,-669.0,0.599,0.403,-0.603,0.338
7809997,8845.0,620.0,-729.0,0.599,0.4,-0.605,0.339
7810023,8751.0,924.0,-533.0,0.599,0.397,-0.607,0.339
7810039,8465.0,778.0,-327.0,0.599,0.393,-0.61,0.339
7810056,8493.0,440.0,-389.0,0.598,0.39,-0.613,0.339
7810073,9015.0,110.0,-927.0,0.597,0.387,-0.616,0.338
7810090,9011.0,356.0,-1015.0,0.597,0.384,-0.618,0.338
7810107,8783.0,6.0,-777.0,0.597,0.382,-0.619,0.339
7810123,8775.0,62.0,-535.0,0.597,0.379,-0.62,0.34
7810140,8729.0,712.0,-641.0,0.597,0.377,-0.62,0.341
7810156,8649.0,658.0,-523.0,0.598,0.375,-0.621,0.342
