timeMs,ax,ay,az,q0,q1,q2,q3
3833046,8236.0,646.0,-2292.0,0.525,0.388,-0.709,0.267
3833062,8062.0,286.0,-2466.0,0.525,0.388,-0.71,0.265
3833078,8434.0,-306.0,-2322.0,0.525,0.388,-0.71,0.263
3833094,8056.0,136.0,-2470.0,0.525,0.39,-0.71,0.262
3833120,8050.0,196.0,-2388.0,0.525,0.391,-0.71,0.26
3833136,7854.0,326.0,-2412.0,0.525,0.391,-0.711,0.257
3833152,7812.0,930.0,-2546.0,0.525,0.391,-0.712,0.254
3833168,7600.0,16.0,-2520.0,0.524,0.392,-0.713,0.251
3833185,7538.0,-1204.0,-2688.0,0.523,0.393,-0.714,0.248
3833201,7162.0,156.0,-3420.0,0.522,0.395,-0.714,0.246
3833217,7282.0,1136.0,-3240.0,0.521,0.397,-0.715,0.243
3833244,7308.0,874.0,-3038.0,0.521,0.398,-0.716,0.24
3833261,7432.0,694.0,-2896.0,0.519,0.399,-0.718,0.236
3833278,6480.0,1000.0,-2940.0,0.517,0.399,-0.72,0.235
3833294,7440.0,112.0,-2958.0,0.516,0.399,-0.721,0.234
3833310,7006.0,-366.0,-3176.0,0.514,0.401,-0.722,0.234
3833327,5966.0,866.0,-3380.0,0.51,0.403,-0.723,0.235
3833344,7758.0,-50.0,-3202.0,0.507,0.405,-0.723,0.236
3833361,7048.0,484.0,-3572.0,0.503,0.408,-0.723,0.238
3833378,7424.0,328.0,-3746.0,0.5,0.411,-0.723,0.241
3833395,7212.0,642.0,-3464.0,0.498,0.414,-0.722,0.243
3833412,6998.0,446.0,-3566.0,0.496,0.416,-0.721,0.246
3833439,7186.0,678.0,-3908.0,0.495,0.419,-0.72,0.248
3833455,7362.0,-266.0,-3854.0,0.493,0.421,-0.719,0.25
3833472,8272.0,1668.0,-2938.0,0.492,0.422,-0.719,0.252
3833488,8632.0,1366.0,-1758.0,0.49,0.425,-0.717,0.256
3833504,7482.0,782.0,-2538.0,0.489,0.426,-0.716,0.257
3833520,7556.0,1112.0,-3160.0,0.489,0.427,-0.715,0.259
3833536,7298.0,446.0,-3172.0,0.489,0.427,-0.715,0.262
3833562,7542.0,490.0,-3042.0,0.487,0.426,-0.715,0.264
3833579,7368.0,1302.0,-2954.0,0.486,0.426,-0.715,0.266
3833595,7524.0,1200.0,-3052.0,0.486,0.424,-0.716,0.267
3833611,7720.0,802.0,-3412.0,0.486,0.422,-0.718,0.267
3833628,7632.0,646.0,-3550.0,0.486,0.419,-0.719,0.266
3833645,7640.0,1146.0,-3570.0,0.486,0.417,-0.721,0.265
3833662,7234.0,980.0,-4080.0,0.487,0.413,-0.724,0.262
3833679,7446.0,408.0,-4038.0,0.487,0.41,-0.727,0.259
3833695,8060.0,-264.0,-3296.0,0.486,0.405,-0.73,0.257
3833722,8692.0,-1160.0,-4490.0,0.49,0.396,-0.734,0.251
3833738,6550.0,-3684.0,-2518.0,0.491,0.394,-0.735,0.253
3833755,6678.0,-208.0,-3450.0,0.49,0.396,-0.734,0.256
3833772,7878.0,850.0,-2188.0,0.487,0.398,-0.733,0.259
3833789,8300.0,3046.0,-2526.0,0.489,0.398,-0.732,0.259
3833806,8004.0,1366.0,-2860.0,0.492,0.394,-0.733,0.255
3833823,7384.0,504.0,-3338.0,0.496,0.389,-0.735,0.251
3833839,7926.0,122.0,-3086.0,0.499,0.384,-0.736,0.247
3833855,7642.0,-146.0,-3108.0,0.502,0.379,-0.738,0.244
3833872,6622.0,-392.0,-2368.0,0.503,0.377,-0.739,0.243
3833898,7406.0,-520.0,-3284.0,0.505,0.375,-0.739,0.241
3833914,7476.0,52.0,-2860.0,0.505,0.374,-0.74,0.24
3833931,7808.0,848.0,-3082.0,0.506,0.374,-0.74,0.237
3833947,7892.0,582.0,-3330.0,0.508,0.372,-0.741,0.235
3833963,7604.0,92.0,-3228.0,0.51,0.369,-0.741,0.232
3833979,7564.0,480.0,-2906.0,0.512,0.367,-0.742,0.23
3833996,7510.0,-288.0,-2936.0,0.513,0.366,-0.742,0.229
3834022,7604.0,40.0,-3218.0,0.514,0.365,-0.742,0.228
3834038,7760.0,332.0,-3264.0,0.515,0.365,-0.741,0.228
3834054,7698.0,14.0,-2924.0,0.515,0.365,-0.741,0.228
3834070,7566.0,448.0,-2922.0,0.515,0.365,-0.741,0.228
3834086,7684.0,194.0,-3036.0,0.515,0.365,-0.741,0.229
3834102,7788.0,138.0,-3000.0,0.514,0.365,-0.741,0.23
3834128,7786.0,208.0,-3128.0,0.512,0.366,-0.741,0.232
3834145,7766.0,-34.0,-3090.0,0.511,0.367,-0.741,0.234
3834162,7938.0,84.0,-3114.0,0.51,0.368,-0.741,0.236
3834179,7930.0,-170.0,-2914.0,0.509,0.369,-0.74,0.239
3834195,7872.0,-132.0,-2916.0,0.508,0.371,-0.739,0.242
3834212,7086.0,828.0,-2910.0,0.507,0.374,-0.737,0.246
3834229,7204.0,1552.0,-3132.0,0.506,0.375,-0.736,0.248
3834245,7674.0,858.0,-3194.0,0.507,0.375,-0.736,0.248
3834262,7792.0,290.0,-3196.0,0.508,0.375,-0.735,0.247
3834288,7492.0,-404.0,-3598.0,0.508,0.374,-0.736,0.247
3834305,7478.0,-550.0,-3304.0,0.507,0.374,-0.736,0.246
3834322,7772.0,222.0,-3230.0,0.506,0.375,-0.737,0.246
3834338,7796.0,758.0,-3048.0,0.506,0.376,-0.737,0.245
3834354,7512.0,332.0,-3234.0,0.505,0.376,-0.737,0.245
3834370,7532.0,-178.0,-3222.0,0.505,0.376,-0.737,0.244
3834386,7130.0,434.0,-3288.0,0.505,0.377,-0.737,0.244
3834403,7472.0,736.0,-3126.0,0.505,0.378,-0.737,0.244
3834429,7730.0,528.0,-3078.0,0.506,0.378,-0.736,0.243
3834445,7434.0,84.0,-3214.0,0.506,0.378,-0.737,0.242
3834461,7524.0,344.0,-3260.0,0.506,0.378,-0.737,0.242
3834478,7484.0,198.0,-3190.0,0.506,0.377,-0.737,0.241
3834495,7424.0,552.0,-3164.0,0.506,0.377,-0.737,0.24
3834511,7556.0,228.0,-3170.0,0.507,0.377,-0.737,0.24
3834527,7392.0,308.0,-3086.0,0.508,0.376,-0.737,0.239
3834554,7554.0,522.0,-3088.0,0.508,0.376,-0.737,0.238
3834571,7616.0,276.0,-3190.0,0.509,0.375,-0.737,0.238
3834588,7616.0,220.0,-3232.0,0.51,0.374,-0.738,0.237
3834605,7528.0,282.0,-3346.0,0.51,0.374,-0.738,0.237
3834621,7562.0,356.0,-3162.0,0.511,0.373,-0.738,0.236
3834637,7428.0,132.0,-3120.0,0.511,0.372,-0.738,0.236
3834653,7608.0,76.0,-3116.0,0.512,0.372,-0.738,0.235
3834669,7680.0,-12.0,-3304.0,0.512,0.372,-0.738,0.235
3834695,7456.0,-6.0,-3040.0,0.512,0.371,-0.737,0.236
3834712,7484.0,558.0,-3144.0,0.512,0.372,-0.737,0.237
3834728,7890.0,478.0,-2828.0,0.512,0.372,-0.737,0.238
3834745,7514.0,-56.0,-3170.0,0.512,0.372,-0.736,0.24
3834762,7592.0,190.0,-3030.0,0.511,0.373,-0.736,0.241
3834778,7734.0,210.0,-2954.0,0.511,0.374,-0.735,0.242
3834795,7904.0,396.0,-2760.0,0.511,0.374,-0.734,0.244
3834811,7582.0,326.0,-3210.0,0.511,0.375,-0.734,0.245
3834828,7414.0,214.0,-3178.0,0.51,0.375,-0.734,0.246
3834855,7696.0,-8.0,-3142.0,0.509,0.376,-0.734,0.247
3834872,7916.0,-116.0,-3214.0,0.509,0.376,-0.733,0.248
3834889,7902.0,-14.0,-2910.0,0.508,0.378,-0.732,0.251
3834906,7700.0,154.0,-2556.0,0.508,0.379,-0.731,0.253
3834923,7468.0,76.0,-2704.0,0.508,0.38,-0.73,0.255
3834940,7754.0,218.0,-2902.0,0.508,0.38,-0.729,0.257
3834957,7886.0,56.0,-3074.0,0.508,0.381,-0.728,0.26
3834974,7724.0,34.0,-2758.0,0.508,0.382,-0.726,0.262
3834991,7584.0,-38.0,-2548.0,0.508,0.382,-0.725,0.265
3835008,7512.0,94.0,-2612.0,0.507,0.383,-0.724,0.268
3835024,7544.0,0.0,-2738.0,0.507,0.385,-0.723,0.27
3835051,7768.0,-340.0,-2840.0,0.505,0.387,-0.722,0.274
3835067,7916.0,-68.0,-2778.0,0.503,0.389,-0.72,0.277
3835083,7710.0,80.0,-2738.0,0.501,0.391,-0.719,0.281
3835099,7340.0,250.0,-2462.0,0.499,0.393,-0.718,0.284
3835115,7806.0,490.0,-2552.0,0.497,0.395,-0.718,0.286
3835131,8022.0,18.0,-2866.0,0.495,0.396,-0.718,0.288
3835147,8130.0,-274.0,-2964.0,0.494,0.396,-0.718,0.289
3835173,7854.0,-126.0,-2888.0,0.493,0.397,-0.718,0.29
3835190,7924.0,-156.0,-2868.0,0.493,0.397,-0.717,0.292
3835207,7776.0,6.0,-2814.0,0.493,0.398,-0.716,0.293
3835224,7666.0,54.0,-2816.0,0.493,0.397,-0.716,0.294
3835241,7698.0,-34.0,-2768.0,0.494,0.397,-0.715,0.295
3835258,7488.0,-300.0,-2554.0,0.495,0.396,-0.715,0.296
3835275,7834.0,-66.0,-2686.0,0.495,0.396,-0.714,0.297
3835292,7734.0,-36.0,-2820.0,0.496,0.396,-0.713,0.297
3835308,7658.0,-310.0,-2660.0,0.498,0.395,-0.713,0.297
3835324,7642.0,-66.0,-2612.0,0.499,0.396,-0.712,0.296
3835350,7718.0,-14.0,-2684.0,0.5,0.395,-0.711,0.295
3835367,7682.0,-214.0,-2668.0,0.502,0.395,-0.711,0.295
3835384,7684.0,-98.0,-2684.0,0.503,0.396,-0.71,0.294
3835401,7908.0,-118.0,-2692.0,0.504,0.396,-0.71,0.293
3835418,7846.0,-116.0,-2756.0,0.505,0.396,-0.709,0.293
3835435,7646.0,112.0,-2532.0,0.506,0.396,-0.708,0.293
3835451,7494.0,514.0,-2520.0,0.507,0.396,-0.707,0.292
3835467,7738.0,-120.0,-2552.0,0.509,0.395,-0.707,0.291
3835483,7804.0,-204.0,-2624.0,0.51,0.395,-0.707,0.29
3835509,7718.0,84.0,-2596.0,0.511,0.395,-0.707,0.29
3835525,7804.0,148.0,-2592.0,0.512,0.395,-0.706,0.289
3835541,7772.0,-210.0,-2414.0,0.513,0.395,-0.706,0.289
3835557,7682.0,404.0,-2470.0,0.513,0.395,-0.705,0.288
3835573,7816.0,150.0,-2644.0,0.514,0.395,-0.705,0.288
3835590,7946.0,-204.0,-2556.0,0.514,0.395,-0.705,0.287
3835616,7680.0,-54.0,-2578.0,0.515,0.395,-0.705,0.287
3835633,7732.0,250.0,-2552.0,0.515,0.395,-0.705,0.287
3835650,7826.0,114.0,-2670.0,0.515,0.395,-0.705,0.287
3835667,7824.0,82.0,-2610.0,0.515,0.396,-0.705,0.286
3835684,7854.0,-28.0,-2648.0,0.515,0.396,-0.705,0.286
3835701,7820.0,-40.0,-2660.0,0.515,0.396,-0.704,0.286
3835717,7714.0,-18.0,-2576.0,0.515,0.397,-0.704,0.287
3835733,7714.0,238.0,-2602.0,0.515,0.398,-0.703,0.286
3835749,7778.0,-162.0,-2444.0,0.515,0.399,-0.703,0.286
3835775,7206.0,-318.0,-2452.0,0.515,0.4,-0.702,0.286
3835792,7848.0,-126.0,-2230.0,0.513,0.403,-0.702,0.287
3835808,7878.0,68.0,-2018.0,0.51,0.405,-0.702,0.287
3835825,7330.0,-296.0,-2106.0,0.506,0.408,-0.703,0.289
3835842,7368.0,-326.0,-2438.0,0.499,0.412,-0.705,0.29
3835859,7598.0,372.0,-2980.0,0.492,0.415,-0.708,0.29
3835876,7992.0,460.0,-3156.0,0.486,0.418,-0.711,0.289
3835893,8420.0,56.0,-3318.0,0.482,0.42,-0.713,0.288
3835910,8182.0,180.0,-3364.0,0.479,0.422,-0.715,0.286
3835927,7672.0,268.0,-3370.0,0.477,0.424,-0.716,0.285
3835943,7162.0,342.0,-3386.0,0.475,0.424,-0.717,0.284
3835969,7516.0,134.0,-3546.0,0.473,0.425,-0.718,0.283
3835985,7528.0,-232.0,-3234.0,0.472,0.426,-0.718,0.282
3836002,7264.0,-402.0,-3530.0,0.471,0.427,-0.718,0.283
3836019,6722.0,-148.0,-3534.0,0.47,0.429,-0.717,0.284
3836035,7816.0,266.0,-3378.0,0.469,0.431,-0.716,0.285
3836051,7182.0,558.0,-3660.0,0.468,0.434,-0.715,0.285
3836067,7486.0,2102.0,-3296.0,0.467,0.437,-0.714,0.284
3836093,7726.0,1804.0,-2942.0,0.466,0.437,-0.716,0.281
3836110,7330.0,268.0,-3630.0,0.465,0.438,-0.717,0.278
3836127,7486.0,-110.0,-3748.0,0.465,0.439,-0.718,0.275
3836144,7730.0,-902.0,-3396.0,0.464,0.44,-0.719,0.272
3836161,7870.0,-586.0,-3094.0,0.462,0.442,-0.719,0.27
3836178,7094.0,32.0,-3588.0,0.461,0.445,-0.719,0.269
3836194,7362.0,776.0,-3944.0,0.459,0.448,-0.719,0.268
3836211,7438.0,260.0,-3998.0,0.457,0.451,-0.719,0.267
3836228,7554.0,90.0,-3620.0,0.456,0.453,-0.718,0.266
3836244,7356.0,-196.0,-3578.0,0.456,0.456,-0.716,0.266
3836271,7180.0,-152.0,-3600.0,0.455,0.46,-0.714,0.267
3836287,7050.0,-20.0,-3818.0,0.455,0.464,-0.712,0.268
3836308,7358.0,1040.0,-3724.0,0.453,0.468,-0.71,0.268
3836325,7644.0,914.0,-3500.0,0.453,0.471,-0.708,0.268
3836342,7358.0,50.0,-3624.0,0.453,0.474,-0.706,0.269
3836359,7410.0,-188.0,-3584.0,0.453,0.477,-0.703,0.27
3836376,6932.0,766.0,-3796.0,0.451,0.48,-0.702,0.271
3836393,7398.0,1032.0,-3654.0,0.451,0.483,-0.699,0.272
3836410,7222.0,1102.0,-3716.0,0.45,0.486,-0.698,0.272
3836427,7720.0,726.0,-3418.0,0.45,0.488,-0.697,0.271
3836444,7300.0,482.0,-3396.0,0.45,0.49,-0.696,0.271
3836461,7390.0,178.0,-3770.0,0.451,0.491,-0.694,0.271
3836477,7314.0,384.0,-4062.0,0.451,0.494,-0.693,0.27
3836494,7598.0,182.0,-3548.0,0.452,0.495,-0.691,0.269
3836511,7200.0,-238.0,-3216.0,0.452,0.497,-0.69,0.269
3836528,7298.0,754.0,-3812.0,0.451,0.5,-0.689,0.269
3836554,7750.0,1156.0,-3684.0,0.451,0.502,-0.688,0.269
3836570,7440.0,680.0,-3838.0,0.451,0.503,-0.687,0.269
3836587,7532.0,752.0,-3702.0,0.451,0.504,-0.686,0.269
3836604,7260.0,384.0,-3596.0,0.451,0.504,-0.685,0.269
3836621,6998.0,278.0,-3512.0,0.452,0.505,-0.685,0.269
3836638,7426.0,496.0,-3692.0,0.451,0.506,-0.684,0.27
3836655,7368.0,900.0,-3636.0,0.451,0.506,-0.683,0.271
3836672,7112.0,502.0,-3706.0,0.45,0.506,-0.683,0.273
3836689,7004.0,280.0,-3598.0,0.448,0.506,-0.684,0.274
3836705,7100.0,48.0,-3642.0,0.447,0.506,-0.684,0.276
3836722,7264.0,842.0,-3644.0,0.445,0.507,-0.683,0.279
3836748,7080.0,568.0,-3848.0,0.444,0.508,-0.683,0.28
3836764,7450.0,912.0,-3520.0,0.443,0.508,-0.683,0.282
3836780,6962.0,710.0,-3878.0,0.442,0.508,-0.683,0.283
3836796,7110.0,94.0,-3932.0,0.44,0.509,-0.683,0.283
3836812,7444.0,476.0,-3876.0,0.438,0.51,-0.683,0.284
3836828,7442.0,850.0,-3870.0,0.438,0.511,-0.683,0.285
3836854,7334.0,500.0,-3892.0,0.437,0.512,-0.682,0.286
3836871,7180.0,452.0,-3990.0,0.436,0.512,-0.682,0.286
3836887,7366.0,604.0,-3758.0,0.435,0.514,-0.682,0.286
3836903,7398.0,582.0,-3914.0,0.435,0.514,-0.681,0.287
3836919,7322.0,338.0,-3732.0,0.436,0.515,-0.68,0.288
3836935,7244.0,492.0,-3656.0,0.436,0.515,-0.679,0.288
3836961,7124.0,722.0,-3690.0,0.436,0.516,-0.679,0.289
3836977,6820.0,1028.0,-3852.0,0.435,0.516,-0.679,0.289
3836994,7294.0,708.0,-3726.0,0.435,0.516,-0.679,0.288
3837011,7442.0,450.0,-3632.0,0.436,0.516,-0.679,0.288
3837027,7338.0,90.0,-3524.0,0.435,0.516,-0.68,0.287
3837044,6940.0,-168.0,-3700.0,0.434,0.516,-0.68,0.286
3837061,7218.0,738.0,-3946.0,0.433,0.517,-0.681,0.286
3837078,7554.0,998.0,-3948.0,0.432,0.517,-0.682,0.285
3837095,7626.0,710.0,-3920.0,0.431,0.517,-0.683,0.285
3837111,7326.0,-80.0,-3944.0,0.432,0.516,-0.683,0.284
3837138,7154.0,-208.0,-3780.0,0.432,0.516,-0.682,0.285
3837154,6892.0,478.0,-3652.0,0.433,0.516,-0.682,0.285
3837170,7234.0,750.0,-3734.0,0.433,0.516,-0.682,0.285
3837186,7354.0,570.0,-3798.0,0.434,0.515,-0.682,0.285
3837202,7200.0,184.0,-3804.0,0.434,0.515,-0.682,0.285
3837218,7164.0,224.0,-3826.0,0.434,0.514,-0.682,0.286
3837244,7196.0,712.0,-3668.0,0.434,0.514,-0.682,0.286
3837260,7350.0,170.0,-3796.0,0.434,0.514,-0.683,0.286
3837276,7308.0,330.0,-3840.0,0.434,0.513,-0.683,0.287
3837293,7472.0,478.0,-3842.0,0.434,0.512,-0.683,0.288
3837309,7230.0,550.0,-3872.0,0.435,0.512,-0.683,0.288
3837325,7316.0,692.0,-3648.0,0.435,0.511,-0.683,0.289
3837342,7196.0,588.0,-3798.0,0.435,0.511,-0.683,0.289
3837368,7430.0,452.0,-3682.0,0.436,0.51,-0.683,0.289
3837384,7302.0,128.0,-3744.0,0.436,0.509,-0.683,0.29
3837400,7364.0,30.0,-3622.0,0.436,0.508,-0.683,0.29
3837416,7186.0,204.0,-3720.0,0.437,0.508,-0.683,0.291
3837432,7254.0,490.0,-3876.0,0.436,0.508,-0.683,0.291
3837448,7134.0,492.0,-3660.0,0.436,0.507,-0.684,0.292
3837474,7042.0,202.0,-3758.0,0.436,0.507,-0.684,0.293
3837490,7240.0,248.0,-3750.0,0.435,0.506,-0.684,0.294
3837507,7166.0,402.0,-4126.0,0.435,0.506,-0.684,0.294
3837523,6812.0,542.0,-5554.0,0.435,0.506,-0.684,0.294
3837539,5812.0,-1090.0,-6312.0,0.435,0.507,-0.683,0.297
3837555,5920.0,486.0,-4864.0,0.436,0.506,-0.681,0.301
3837581,8066.0,834.0,-2780.0,0.44,0.502,-0.678,0.309
3837597,7898.0,-576.0,-2912.0,0.444,0.499,-0.673,0.319
3837613,8646.0,-548.0,-2190.0,0.448,0.496,-0.666,0.33
3837630,8744.0,-82.0,-2182.0,0.454,0.494,-0.66,0.339
3837647,6754.0,-136.0,-2038.0,0.459,0.491,-0.655,0.346
3837664,7704.0,992.0,-1402.0,0.463,0.489,-0.651,0.35
3837680,7530.0,1174.0,-1936.0,0.465,0.487,-0.651,0.35
3837696,7988.0,350.0,-2514.0,0.465,0.485,-0.654,0.347
3837722,7838.0,-558.0,-2748.0,0.465,0.484,-0.657,0.344
3837738,8242.0,72.0,-2852.0,0.463,0.484,-0.66,0.341
3837754,8344.0,474.0,-2918.0,0.462,0.484,-0.663,0.337
3837770,8252.0,480.0,-3036.0,0.461,0.482,-0.666,0.334
3837786,8162.0,404.0,-2978.0,0.461,0.479,-0.669,0.332
3837802,7938.0,216.0,-2748.0,0.462,0.476,-0.671,0.332
3837828,7684.0,-114.0,-2886.0,0.463,0.472,-0.673,0.332
3837844,7574.0,-96.0,-2762.0,0.465,0.467,-0.674,0.333
3837860,7418.0,46.0,-2708.0,0.467,0.463,-0.676,0.334
3837876,7224.0,-40.0,-2632.0,0.469,0.458,-0.677,0.334
3837892,7416.0,76.0,-2612.0,0.471,0.454,-0.679,0.334
3837908,7636.0,66.0,-2830.0,0.472,0.45,-0.681,0.334
3837934,7614.0,-222.0,-2742.0,0.474,0.445,-0.683,0.333
3837950,7628.0,-384.0,-2602.0,0.475,0.44,-0.685,0.333
3837966,7716.0,-250.0,-2754.0,0.476,0.436,-0.687,0.332
3837983,7764.0,-412.0,-2744.0,0.478,0.432,-0.689,0.331
3837999,7882.0,-224.0,-2844.0,0.479,0.429,-0.691,0.33
3838015,7914.0,-270.0,-2798.0,0.481,0.425,-0.692,0.329
3838041,7648.0,-174.0,-2818.0,0.483,0.422,-0.693,0.328
3838057,7594.0,-198.0,-2648.0,0.485,0.418,-0.695,0.327
3838073,7562.0,-548.0,-2666.0,0.487,0.415,-0.696,0.326
3838089,7744.0,-460.0,-2674.0,0.489,0.411,-0.697,0.325
3838106,7582.0,-654.0,-2642.0,0.49,0.409,-0.698,0.324
3838122,7692.0,-586.0,-2698.0,0.492,0.406,-0.699,0.323
3838139,7558.0,-384.0,-2666.0,0.493,0.404,-0.7,0.323
3838165,7758.0,-356.0,-2728.0,0.494,0.402,-0.701,0.322
3838181,7762.0,-370.0,-2584.0,0.495,0.4,-0.701,0.321
3838197,7856.0,-516.0,-2664.0,0.496,0.399,-0.702,0.32
3838214,7810.0,-480.0,-2638.0,0.497,0.398,-0.702,0.319
3838230,7628.0,-230.0,-2542.0,0.497,0.397,-0.702,0.319
3838246,7664.0,-580.0,-2652.0,0.498,0.397,-0.703,0.317
3838263,7876.0,-486.0,-2748.0,0.498,0.398,-0.703,0.316
3838289,8026.0,28.0,-2742.0,0.499,0.398,-0.702,0.315
3838305,7866.0,-252.0,-2714.0,0.499,0.399,-0.702,0.314
3838321,7826.0,-344.0,-2678.0,0.499,0.4,-0.702,0.313
3838337,7786.0,-154.0,-2674.0,0.5,0.4,-0.702,0.313
3838354,7806.0,-292.0,-2582.0,0.5,0.401,-0.701,0.314
3838370,7664.0,-318.0,-2576.0,0.5,0.401,-0.7,0.314
3838386,7850.0,-286.0,-2570.0,0.5,0.402,-0.7,0.315
3838412,7562.0,-60.0,-2572.0,0.5,0.402,-0.699,0.316
3838428,7922.0,-394.0,-2606.0,0.5,0.402,-0.698,0.318
3838444,7762.0,-326.0,-2576.0,0.499,0.403,-0.697,0.319
3838460,7870.0,-430.0,-2514.0,0.499,0.404,-0.696,0.321
3838476,8120.0,-316.0,-2602.0,0.498,0.405,-0.695,0.322
3838492,7988.0,-320.0,-2542.0,0.498,0.407,-0.694,0.324
3838518,8222.0,-486.0,-2550.0,0.497,0.409,-0.693,0.325
3838534,8216.0,-194.0,-2554.0,0.496,0.411,-0.692,0.327
3838551,8200.0,-302.0,-2476.0,0.495,0.413,-0.69,0.328
3838567,8308.0,-324.0,-2562.0,0.494,0.415,-0.689,0.33
3838583,8012.0,-88.0,-2436.0,0.493,0.417,-0.688,0.331
3838599,8152.0,-306.0,-2410.0,0.492,0.419,-0.687,0.332
3838625,7712.0,-358.0,-2292.0,0.491,0.421,-0.686,0.333
3838641,7772.0,-188.0,-2270.0,0.49,0.423,-0.685,0.334
3838658,7706.0,-382.0,-2280.0,0.489,0.426,-0.684,0.335
3838675,7470.0,-326.0,-2234.0,0.488,0.428,-0.683,0.335
3838691,7676.0,-292.0,-2276.0,0.487,0.431,-0.682,0.336
3838707,7484.0,-234.0,-2260.0,0.486,0.433,-0.68,0.336
3838723,7358.0,-66.0,-2176.0,0.486,0.436,-0.679,0.337
3838749,7674.0,-390.0,-2254.0,0.486,0.438,-0.677,0.337
3838765,7460.0,-508.0,-2300.0,0.486,0.44,-0.675,0.338
3838781,7408.0,20.0,-2268.0,0.487,0.443,-0.673,0.338
3838797,7686.0,-186.0,-2336.0,0.487,0.445,-0.671,0.339
3838813,7438.0,-178.0,-2326.0,0.488,0.446,-0.669,0.339
3838829,7550.0,-294.0,-2238.0,0.488,0.448,-0.667,0.34
3838855,7822.0,-358.0,-2308.0,0.488,0.45,-0.666,0.341
3838871,7684.0,34.0,-2298.0,0.488,0.451,-0.665,0.341
3838887,8058.0,-18.0,-2338.0,0.488,0.452,-0.664,0.342
3838903,7974.0,80.0,-2398.0,0.488,0.453,-0.663,0.342
3838919,8102.0,-94.0,-2458.0,0.488,0.453,-0.663,0.342
3838935,8088.0,-86.0,-2428.0,0.489,0.453,-0.662,0.343
3838961,8166.0,-180.0,-2430.0,0.489,0.453,-0.662,0.343
3838978,8092.0,-22.0,-2454.0,0.489,0.453,-0.661,0.344
3838995,7962.0,76.0,-2400.0,0.49,0.453,-0.661,0.344
3839011,8034.0,38.0,-2420.0,0.49,0.452,-0.66,0.345
3839027,7888.0,-118.0,-2378.0,0.49,0.452,-0.661,0.345
3839044,7896.0,-226.0,-2350.0,0.491,0.451,-0.661,0.345
3839060,7814.0,-232.0,-2358.0,0.491,0.451,-0.661,0.345
3839076,7824.0,-112.0,-2332.0,0.491,0.451,-0.661,0.344
3839103,7850.0,-158.0,-2314.0,0.491,0.45,-0.662,0.344
3839119,7722.0,-50.0,-2364.0,0.491,0.45,-0.663,0.343
3839135,7744.0,-232.0,-2308.0,0.491,0.449,-0.664,0.342
3839151,7732.0,-256.0,-2410.0,0.49,0.448,-0.665,0.342
3839167,7816.0,-220.0,-2380.0,0.49,0.447,-0.666,0.341
3839183,7812.0,-118.0,-2428.0,0.49,0.446,-0.667,0.341
3839209,7762.0,-232.0,-2426.0,0.491,0.445,-0.667,0.34
3839226,7766.0,-226.0,-2322.0,0.491,0.444,-0.668,0.34
3839242,7926.0,-234.0,-2410.0,0.491,0.442,-0.669,0.34
3839259,7904.0,-150.0,-2432.0,0.491,0.441,-0.67,0.339
3839276,8002.0,-154.0,-2464.0,0.491,0.439,-0.671,0.339
3839292,7966.0,-382.0,-2346.0,0.492,0.437,-0.672,0.339
3839308,7912.0,-356.0,-2358.0,0.492,0.436,-0.673,0.338
3839325,8008.0,-334.0,-2512.0,0.493,0.435,-0.674,0.338
3839342,7908.0,-344.0,-2436.0,0.493,0.434,-0.675,0.337
3839359,8026.0,-244.0,-2416.0,0.493,0.433,-0.676,0.336
3839386,8002.0,-368.0,-2364.0,0.493,0.432,-0.676,0.336
3839402,8114.0,-520.0,-2418.0,0.494,0.432,-0.677,0.335
3839418,8042.0,-458.0,-2392.0,0.494,0.432,-0.677,0.335
3839434,8038.0,-200.0,-2398.0,0.494,0.432,-0.677,0.334
3839450,7756.0,-106.0,-2350.0,0.494,0.432,-0.677,0.334
3839466,7782.0,-364.0,-2290.0,0.494,0.431,-0.677,0.333
3839492,7772.0,-188.0,-2272.0,0.495,0.431,-0.677,0.333
3839508,7814.0,-206.0,-2316.0,0.495,0.431,-0.677,0.332
3839525,7864.0,-222.0,-2310.0,0.494,0.431,-0.677,0.332
3839541,7870.0,-312.0,-2274.0,0.494,0.431,-0.677,0.333
3839557,7838.0,-86.0,-2280.0,0.494,0.431,-0.677,0.333
3839574,7894.0,-150.0,-2264.0,0.494,0.431,-0.677,0.334
3839590,7672.0,12.0,-2170.0,0.495,0.43,-0.677,0.334
3839607,7596.0,-216.0,-2208.0,0.495,0.43,-0.677,0.335
3839633,7678.0,-120.0,-2232.0,0.494,0.429,-0.677,0.336
3839650,7672.0,-190.0,-2240.0,0.494,0.429,-0.677,0.336
3839666,7838.0,-176.0,-2332.0,0.494,0.429,-0.677,0.337
3839682,7714.0,-164.0,-2256.0,0.494,0.429,-0.677,0.338
3839699,7828.0,-20.0,-2240.0,0.494,0.428,-0.676,0.339
3839715,8028.0,-216.0,-2352.0,0.494,0.428,-0.676,0.339
3839731,7938.0,-182.0,-2302.0,0.494,0.428,-0.676,0.34
3839757,7888.0,-36.0,-2302.0,0.495,0.428,-0.675,0.341
3839774,7974.0,-188.0,-2360.0,0.495,0.428,-0.674,0.342
3839790,7942.0,-250.0,-2356.0,0.495,0.429,-0.674,0.342
3839806,7922.0,-100.0,-2270.0,0.495,0.429,-0.673,0.343
3839823,7914.0,-100.0,-2280.0,0.496,0.429,-0.672,0.344
3839840,7892.0,-318.0,-2326.0,0.496,0.43,-0.672,0.344
3839856,8020.0,-172.0,-2270.0,0.496,0.43,-0.671,0.345
3839873,7834.0,-28.0,-2324.0,0.496,0.431,-0.67,0.345
3839890,7940.0,-134.0,-2370.0,0.496,0.431,-0.67,0.346
3839917,7920.0,-184.0,-2326.0,0.496,0.431,-0.669,0.346
3839933,7868.0,-146.0,-2268.0,0.496,0.432,-0.669,0.347
3839949,7878.0,-318.0,-2272.0,0.496,0.432,-0.669,0.347
3839966,7900.0,-254.0,-2290.0,0.496,0.433,-0.668,0.347
3839983,7864.0,-196.0,-2300.0,0.496,0.433,-0.668,0.347
3840000,7938.0,-356.0,-2302.0,0.495,0.434,-0.667,0.348
3840016,7932.0,-248.0,-2286.0,0.495,0.435,-0.667,0.348
3840033,7880.0,-308.0,-2286.0,0.495,0.436,-0.666,0.348
3840050,7792.0,-220.0,-2272.0,0.495,0.437,-0.666,0.348
3840076,7806.0,-240.0,-2286.0,0.495,0.437,-0.665,0.348
3840093,7782.0,-304.0,-2208.0,0.495,0.438,-0.665,0.348
3840110,7784.0,-280.0,-2290.0,0.495,0.439,-0.664,0.348
3840127,7766.0,-384.0,-2288.0,0.495,0.44,-0.664,0.348
3840144,7844.0,-366.0,-2246.0,0.495,0.44,-0.663,0.349
3840161,7864.0,-350.0,-2228.0,0.495,0.441,-0.663,0.349
3840178,7756.0,-210.0,-2192.0,0.495,0.442,-0.662,0.349
3840195,7768.0,-222.0,-2246.0,0.494,0.443,-0.662,0.349
3840212,7878.0,-236.0,-2234.0,0.494,0.443,-0.661,0.349
3840229,7942.0,-298.0,-2250.0,0.494,0.444,-0.661,0.35
3840246,7930.0,-282.0,-2308.0,0.494,0.445,-0.66,0.35
3840263,7944.0,-304.0,-2292.0,0.494,0.445,-0.66,0.35
3840289,7922.0,-258.0,-2322.0,0.494,0.446,-0.66,0.35
3840305,7800.0,-210.0,-2252.0,0.494,0.447,-0.659,0.35
3840322,7900.0,-288.0,-2246.0,0.493,0.447,-0.659,0.35
3840339,7984.0,-252.0,-2282.0,0.493,0.448,-0.659,0.351
3840355,7974.0,-332.0,-2208.0,0.493,0.448,-0.658,0.351
3840372,7884.0,-258.0,-2234.0,0.492,0.449,-0.658,0.351
3840389,7914.0,-224.0,-2234.0,0.492,0.449,-0.658,0.351
3840406,7996.0,-330.0,-2270.0,0.492,0.449,-0.658,0.351
3840422,7894.0,-218.0,-2170.0,0.491,0.449,-0.658,0.351
3840448,7936.0,-350.0,-2210.0,0.491,0.45,-0.658,0.351
3840464,7974.0,-206.0,-2240.0,0.491,0.45,-0.658,0.351
3840480,7996.0,-138.0,-2200.0,0.491,0.45,-0.658,0.351
3840496,7916.0,-194.0,-2164.0,0.491,0.451,-0.658,0.351
3840513,7862.0,-332.0,-2172.0,0.49,0.451,-0.658,0.351
3840530,7912.0,-76.0,-2260.0,0.49,0.451,-0.658,0.352
3840547,7844.0,-254.0,-2256.0,0.49,0.452,-0.658,0.352
3840563,7928.0,-148.0,-2222.0,0.49,0.452,-0.657,0.352
3840590,7848.0,-60.0,-2076.0,0.49,0.452,-0.657,0.352
3840607,7898.0,-270.0,-2202.0,0.489,0.453,-0.657,0.351
3840624,7930.0,-24.0,-2154.0,0.489,0.453,-0.657,0.351
3840641,7910.0,-168.0,-2268.0,0.488,0.454,-0.658,0.351
3840658,7886.0,-68.0,-2214.0,0.488,0.454,-0.658,0.351
3840675,7880.0,-194.0,-2238.0,0.487,0.454,-0.658,0.351
3840691,7704.0,-114.0,-2316.0,0.487,0.454,-0.658,0.351
3840708,7814.0,-118.0,-2136.0,0.486,0.454,-0.659,0.352
3840724,7820.0,-154.0,-2256.0,0.485,0.454,-0.659,0.352
3840741,7928.0,-136.0,-2332.0,0.485,0.454,-0.66,0.352
3840767,7920.0,-202.0,-2352.0,0.485,0.454,-0.66,0.352
3840783,7880.0,-260.0,-2224.0,0.485,0.453,-0.66,0.353
3840799,7806.0,-152.0,-2194.0,0.484,0.453,-0.659,0.354
3840815,7808.0,8.0,-2182.0,0.484,0.453,-0.659,0.354
3840831,7856.0,-174.0,-2236.0,0.484,0.453,-0.659,0.355
3840847,7976.0,-194.0,-2180.0,0.484,0.453,-0.658,0.356
3840864,7876.0,-74.0,-2230.0,0.485,0.453,-0.658,0.356
3840890,7974.0,-240.0,-2262.0,0.485,0.453,-0.657,0.357
3840907,7928.0,-36.0,-2064.0,0.485,0.453,-0.657,0.357
3840924,7940.0,92.0,-2204.0,0.486,0.454,-0.656,0.357
3840940,7804.0,-100.0,-2206.0,0.486,0.454,-0.656,0.358
3840956,7908.0,-94.0,-2030.0,0.486,0.454,-0.656,0.358
3840972,7952.0,-174.0,-2080.0,0.486,0.454,-0.655,0.357
3840988,8080.0,-212.0,-2156.0,0.486,0.455,-0.655,0.357
3841015,8002.0,-4.0,-2232.0,0.487,0.456,-0.654,0.356
3841031,8212.0,-168.0,-2346.0,0.487,0.457,-0.654,0.356
3841047,8064.0,-128.0,-2286.0,0.488,0.458,-0.652,0.356
3841063,8052.0,32.0,-2236.0,0.489,0.459,-0.651,0.356
3841079,8132.0,238.0,-2038.0,0.49,0.459,-0.649,0.356
3841095,7572.0,-804.0,-1956.0,0.491,0.461,-0.648,0.357
3841121,7786.0,-376.0,-2166.0,0.492,0.462,-0.646,0.357
3841138,6842.0,-826.0,-2448.0,0.491,0.463,-0.646,0.357
3841154,6982.0,722.0,-1582.0,0.489,0.465,-0.646,0.356
3841171,7056.0,304.0,-3280.0,0.486,0.467,-0.648,0.355
3841187,7862.0,1464.0,-2832.0,0.483,0.47,-0.649,0.354
3841203,7966.0,956.0,-2470.0,0.481,0.471,-0.65,0.351
3841219,7826.0,94.0,-2806.0,0.479,0.472,-0.652,0.349
3841245,8064.0,-494.0,-2404.0,0.478,0.473,-0.654,0.347
3841261,7782.0,-1010.0,-3026.0,0.475,0.474,-0.656,0.345
3841277,8156.0,-292.0,-2868.0,0.473,0.476,-0.656,0.345
3841294,7926.0,360.0,-2752.0,0.472,0.478,-0.656,0.344
3841310,7946.0,228.0,-2848.0,0.472,0.479,-0.656,0.343
3841326,7830.0,-518.0,-2662.0,0.473,0.479,-0.655,0.343
3841342,7630.0,-348.0,-2510.0,0.474,0.481,-0.653,0.343
3841368,7394.0,-50.0,-2500.0,0.474,0.483,-0.652,0.343
3841384,7740.0,498.0,-2402.0,0.474,0.484,-0.65,0.343
3841400,7796.0,690.0,-2446.0,0.474,0.485,-0.65,0.342
3841416,7672.0,78.0,-2542.0,0.474,0.486,-0.65,0.342
3841432,7864.0,154.0,-2426.0,0.473,0.486,-0.651,0.341
3841448,7888.0,406.0,-2664.0,0.473,0.486,-0.651,0.34
3841474,7980.0,194.0,-2762.0,0.473,0.486,-0.652,0.339
3841491,7978.0,66.0,-2588.0,0.473,0.486,-0.653,0.338
3841507,7782.0,-292.0,-2904.0,0.472,0.485,-0.654,0.337
3841523,7836.0,-346.0,-2594.0,0.472,0.485,-0.654,0.337
3841540,7866.0,140.0,-2588.0,0.472,0.486,-0.654,0.337
3841557,7962.0,108.0,-2442.0,0.472,0.486,-0.654,0.337
3841573,7670.0,216.0,-2760.0,0.472,0.486,-0.654,0.336
3841599,7596.0,-14.0,-2880.0,0.472,0.486,-0.654,0.336
3841615,7646.0,-60.0,-2492.0,0.472,0.487,-0.654,0.336
3841632,7778.0,396.0,-2428.0,0.472,0.487,-0.654,0.335
3841648,8266.0,298.0,-2442.0,0.473,0.487,-0.654,0.334
3841664,7790.0,226.0,-2894.0,0.474,0.488,-0.653,0.333
3841680,7846.0,-488.0,-2694.0,0.474,0.488,-0.653,0.332
3841696,7960.0,12.0,-2576.0,0.475,0.49,-0.651,0.333
3841722,7858.0,386.0,-2386.0,0.475,0.491,-0.65,0.333
3841738,8088.0,512.0,-2626.0,0.475,0.492,-0.649,0.333
3841754,7546.0,100.0,-2592.0,0.476,0.492,-0.648,0.334
3841771,7378.0,168.0,-2504.0,0.477,0.493,-0.646,0.335
3841787,7530.0,664.0,-2848.0,0.477,0.494,-0.645,0.336
3841803,7638.0,672.0,-2688.0,0.477,0.494,-0.644,0.336
3841829,7510.0,756.0,-2638.0,0.477,0.494,-0.644,0.336
3841845,7812.0,746.0,-2740.0,0.477,0.495,-0.645,0.335
3841861,7916.0,406.0,-2692.0,0.476,0.494,-0.646,0.334
3841877,8030.0,130.0,-2590.0,0.476,0.494,-0.647,0.333
3841893,7750.0,-548.0,-2882.0,0.475,0.495,-0.648,0.332
3841909,7840.0,-576.0,-2840.0,0.473,0.496,-0.648,0.333
3841935,7740.0,284.0,-2698.0,0.472,0.497,-0.647,0.334
3841951,7600.0,606.0,-2976.0,0.47,0.499,-0.646,0.335
3841967,7612.0,434.0,-2934.0,0.469,0.5,-0.646,0.336
3841983,7826.0,590.0,-2850.0,0.468,0.501,-0.646,0.336
3841999,7824.0,448.0,-2836.0,0.467,0.502,-0.646,0.336
3842015,7622.0,-260.0,-2976.0,0.466,0.503,-0.646,0.337
3842041,7670.0,122.0,-2938.0,0.464,0.504,-0.645,0.338
3842057,7568.0,566.0,-3076.0,0.464,0.505,-0.645,0.338
3842073,7754.0,534.0,-3086.0,0.463,0.505,-0.645,0.338
3842089,7688.0,104.0,-2898.0,0.463,0.506,-0.645,0.338
3842105,7500.0,112.0,-2792.0,0.462,0.506,-0.645,0.338
3842122,7308.0,352.0,-2972.0,0.461,0.506,-0.645,0.338
3842138,7376.0,322.0,-3192.0,0.461,0.506,-0.646,0.339
3842164,7546.0,452.0,-3114.0,0.46,0.506,-0.646,0.338
3842180,7552.0,-92.0,-2824.0,0.46,0.506,-0.647,0.338
3842197,7390.0,-368.0,-2912.0,0.459,0.506,-0.647,0.338
3842213,7420.0,602.0,-3050.0,0.459,0.506,-0.647,0.338
3842229,7588.0,666.0,-3076.0,0.459,0.506,-0.647,0.338
3842245,7516.0,42.0,-2958.0,0.459,0.506,-0.647,0.339
3842262,7778.0,-454.0,-2728.0,0.459,0.506,-0.646,0.34
3842288,7876.0,-524.0,-2816.0,0.458,0.507,-0.645,0.342
3842304,8246.0,-6.0,-2646.0,0.456,0.508,-0.644,0.346
3842320,7926.0,516.0,-2482.0,0.456,0.509,-0.642,0.349
3842336,8110.0,658.0,-2086.0,0.455,0.509,-0.64,0.351
3842352,7790.0,666.0,-2130.0,0.455,0.509,-0.64,0.353
3842378,7866.0,436.0,-2486.0,0.454,0.508,-0.641,0.353
3842394,7852.0,764.0,-2828.0,0.453,0.507,-0.642,0.354
3842410,8314.0,358.0,-2790.0,0.453,0.505,-0.644,0.353
3842426,8170.0,-148.0,-2774.0,0.454,0.504,-0.645,0.353
3842442,8086.0,-338.0,-2546.0,0.455,0.502,-0.645,0.353
3842458,7898.0,-312.0,-2510.0,0.456,0.501,-0.645,0.354
3842484,7788.0,188.0,-2472.0,0.456,0.5,-0.645,0.355
3842500,7710.0,440.0,-2460.0,0.457,0.499,-0.645,0.355
3842516,7666.0,120.0,-2572.0,0.458,0.498,-0.645,0.356
3842533,7630.0,-146.0,-2430.0,0.459,0.496,-0.645,0.356
3842549,7680.0,-168.0,-2444.0,0.46,0.495,-0.645,0.357
3842565,7686.0,164.0,-2444.0,0.461,0.495,-0.645,0.357
3842581,7684.0,170.0,-2444.0,0.461,0.494,-0.645,0.357
3842607,7746.0,20.0,-2524.0,0.462,0.493,-0.645,0.357
3842623,7688.0,70.0,-2452.0,0.463,0.492,-0.645,0.358
3842639,7916.0,56.0,-2544.0,0.464,0.491,-0.645,0.358
3842655,7800.0,-42.0,-2576.0,0.464,0.49,-0.645,0.358
3842671,7872.0,50.0,-2524.0,0.466,0.49,-0.644,0.358
3842687,8010.0,-228.0,-2498.0,0.467,0.489,-0.644,0.359
3842714,7496.0,314.0,-2408.0,0.468,0.489,-0.643,0.359
3842730,7936.0,66.0,-2460.0,0.469,0.488,-0.642,0.359
3842746,7918.0,52.0,-2610.0,0.47,0.487,-0.642,0.36
3842762,7660.0,40.0,-2446.0,0.471,0.487,-0.642,0.36
3842778,7772.0,-134.0,-2436.0,0.472,0.486,-0.642,0.36
3842794,7866.0,14.0,-2582.0,0.473,0.486,-0.641,0.359
3842820,7678.0,102.0,-2472.0,0.473,0.485,-0.641,0.36
3842836,7690.0,-98.0,-2394.0,0.474,0.485,-0.641,0.359
3842852,7810.0,-82.0,-2520.0,0.475,0.485,-0.641,0.359
3842868,7880.0,28.0,-2546.0,0.476,0.484,-0.64,0.359
3842885,7768.0,-84.0,-2440.0,0.477,0.484,-0.64,0.359
3842901,7720.0,84.0,-2416.0,0.478,0.483,-0.64,0.359
3842917,7868.0,76.0,-2526.0,0.478,0.483,-0.639,0.359
3842943,7814.0,92.0,-2454.0,0.479,0.482,-0.639,0.359
3842960,7784.0,94.0,-2512.0,0.479,0.482,-0.639,0.359
3842976,7812.0,16.0,-2466.0,0.48,0.481,-0.64,0.359
3842992,7962.0,-202.0,-2442.0,0.48,0.481,-0.64,0.359
3843008,7798.0,-74.0,-2514.0,0.48,0.481,-0.64,0.359
3843024,7910.0,98.0,-2398.0,0.481,0.48,-0.64,0.359
3843050,7812.0,-98.0,-2420.0,0.481,0.48,-0.64,0.359
3843066,7750.0,-70.0,-2438.0,0.481,0.48,-0.64,0.359
3843082,7776.0,-18.0,-2384.0,0.482,0.48,-0.639,0.359
3843098,7760.0,-20.0,-2378.0,0.482,0.48,-0.639,0.359
3843114,7758.0,-64.0,-2370.0,0.482,0.48,-0.639,0.359
3843130,7584.0,-122.0,-2346.0,0.482,0.48,-0.639,0.359
3843147,7760.0,-28.0,-2372.0,0.482,0.48,-0.639,0.359
3843173,7764.0,-54.0,-2400.0,0.482,0.48,-0.639,0.359
3843189,7888.0,-10.0,-2398.0,0.482,0.481,-0.639,0.359
3843206,7868.0,-74.0,-2416.0,0.481,0.481,-0.639,0.359
3843222,7720.0,-48.0,-2372.0,0.481,0.481,-0.639,0.359
3843238,7862.0,22.0,-2406.0,0.481,0.482,-0.639,0.359
3843254,7780.0,110.0,-2378.0,0.48,0.482,-0.639,0.359
3843271,7854.0,36.0,-2398.0,0.479,0.482,-0.639,0.359
3843297,7802.0,16.0,-2462.0,0.479,0.483,-0.639,0.359
3843313,7892.0,82.0,-2418.0,0.478,0.483,-0.639,0.36
3843330,7928.0,-2.0,-2330.0,0.478,0.483,-0.639,0.36
3843346,7922.0,-32.0,-2404.0,0.478,0.483,-0.639,0.36
3843362,7864.0,32.0,-2422.0,0.477,0.483,-0.64,0.36
3843378,7896.0,20.0,-2400.0,0.477,0.484,-0.64,0.36
3843404,7882.0,60.0,-2308.0,0.476,0.484,-0.64,0.36
3843420,7864.0,88.0,-2354.0,0.476,0.484,-0.64,0.36
3843436,7936.0,58.0,-2404.0,0.475,0.485,-0.64,0.36
3843452,7996.0,58.0,-2344.0,0.475,0.485,-0.64,0.36
3843468,7922.0,16.0,-2314.0,0.474,0.485,-0.641,0.36
3843484,7876.0,48.0,-2330.0,0.474,0.485,-0.641,0.36
3843510,7938.0,42.0,-2316.0,0.473,0.485,-0.641,0.36
3843526,7838.0,68.0,-2294.0,0.473,0.485,-0.642,0.36
3843542,7894.0,-10.0,-2308.0,0.472,0.485,-0.642,0.36
3843565,7916.0,-22.0,-2304.0,0.472,0.485,-0.642,0.36
3843586,7864.0,46.0,-2340.0,0.471,0.485,-0.643,0.36
3843602,7870.0,40.0,-2318.0,0.47,0.485,-0.643,0.36
3843619,7834.0,-12.0,-2302.0,0.47,0.486,-0.644,0.36
3843636,7816.0,-2.0,-2360.0,0.469,0.486,-0.644,0.359
3843653,7876.0,-32.0,-2342.0,0.469,0.486,-0.644,0.359
3843670,7932.0,-86.0,-2428.0,0.469,0.486,-0.644,0.359
3843687,7914.0,-44.0,-2382.0,0.469,0.486,-0.644,0.359
3843704,7774.0,-4.0,-2354.0,0.47,0.486,-0.644,0.358
3843721,7866.0,-122.0,-2324.0,0.47,0.486,-0.644,0.358
3843738,7782.0,-50.0,-2418.0,0.47,0.487,-0.643,0.358
3843755,7842.0,14.0,-2378.0,0.47,0.487,-0.643,0.358
3843772,7762.0,-36.0,-2406.0,0.471,0.487,-0.643,0.358
3843789,7804.0,14.0,-2424.0,0.471,0.487,-0.643,0.358
3843805,7956.0,-56.0,-2372.0,0.471,0.486,-0.643,0.357
3843823,8056.0,94.0,-2530.0,0.471,0.486,-0.643,0.358
3843840,8098.0,40.0,-2616.0,0.471,0.486,-0.643,0.358
3843857,8018.0,140.0,-2494.0,0.472,0.486,-0.643,0.358
3843874,8082.0,122.0,-2514.0,0.472,0.486,-0.642,0.358
3843891,8112.0,186.0,-2520.0,0.473,0.485,-0.642,0.358
3843917,7966.0,26.0,-2416.0,0.473,0.485,-0.642,0.358
3843934,7916.0,-34.0,-2414.0,0.474,0.485,-0.642,0.357
3843950,7808.0,-74.0,-2390.0,0.475,0.485,-0.642,0.357
3843967,7748.0,-180.0,-2324.0,0.475,0.485,-0.642,0.356
3843983,7592.0,-66.0,-2342.0,0.476,0.486,-0.641,0.355
3844000,7700.0,-26.0,-2422.0,0.476,0.486,-0.641,0.355
3844017,7634.0,26.0,-2408.0,0.477,0.487,-0.641,0.354
3844034,7598.0,70.0,-2316.0,0.477,0.487,-0.64,0.354
3844050,7646.0,-6.0,-2398.0,0.478,0.487,-0.64,0.354
3844076,7808.0,-24.0,-2416.0,0.478,0.487,-0.639,0.354
3844093,7890.0,140.0,-2504.0,0.479,0.487,-0.639,0.354
3844110,8052.0,72.0,-2466.0,0.48,0.487,-0.638,0.354
3844127,7840.0,160.0,-2340.0,0.48,0.486,-0.638,0.355
3844144,7692.0,-92.0,-2308.0,0.481,0.486,-0.638,0.355
3844160,7616.0,-100.0,-2334.0,0.481,0.486,-0.637,0.355
3844177,7762.0,-20.0,-2384.0,0.482,0.487,-0.637,0.354
3844193,7754.0,48.0,-2406.0,0.482,0.487,-0.636,0.354
3844209,7836.0,46.0,-2376.0,0.482,0.488,-0.636,0.354
3844236,7872.0,220.0,-2448.0,0.482,0.488,-0.636,0.354
3844255,7938.0,116.0,-2424.0,0.482,0.488,-0.635,0.354
3844272,7906.0,74.0,-2478.0,0.482,0.488,-0.635,0.354
3844288,7934.0,142.0,-2442.0,0.482,0.488,-0.635,0.355
3844305,7812.0,182.0,-2452.0,0.482,0.488,-0.635,0.355
3844321,7790.0,86.0,-2396.0,0.482,0.488,-0.635,0.355
3844341,7824.0,42.0,-2384.0,0.482,0.488,-0.635,0.355
3844357,7810.0,32.0,-2386.0,0.482,0.488,-0.635,0.355
3844374,7810.0,172.0,-2360.0,0.482,0.489,-0.635,0.355
3844390,7832.0,136.0,-2368.0,0.481,0.489,-0.635,0.355
3844406,7844.0,46.0,-2360.0,0.481,0.489,-0.635,0.356
3844423,7798.0,132.0,-2372.0,0.481,0.489,-0.635,0.356
3844440,7908.0,104.0,-2428.0,0.48,0.489,-0.635,0.356
3844466,7892.0,206.0,-2342.0,0.48,0.489,-0.635,0.357
3844483,7872.0,162.0,-2368.0,0.479,0.489,-0.635,0.357
3844500,7912.0,156.0,-2348.0,0.479,0.489,-0.636,0.357
3844518,7884.0,-8.0,-2358.0,0.479,0.488,-0.636,0.358
3844535,7932.0,134.0,-2276.0,0.479,0.488,-0.636,0.358
3844552,7824.0,160.0,-2284.0,0.478,0.488,-0.636,0.358
3844568,7916.0,146.0,-2332.0,0.478,0.488,-0.636,0.359
3844584,7818.0,118.0,-2310.0,0.478,0.488,-0.636,0.359
3844600,7870.0,112.0,-2322.0,0.477,0.488,-0.636,0.359
3844626,7868.0,100.0,-2328.0,0.477,0.488,-0.637,0.359
3844642,7902.0,136.0,-2354.0,0.477,0.488,-0.637,0.359
3844659,7920.0,148.0,-2314.0,0.477,0.488,-0.637,0.359
3844675,7964.0,100.0,-2354.0,0.477,0.487,-0.637,0.359
3844692,7898.0,112.0,-2364.0,0.477,0.487,-0.637,0.36
3844708,7838.0,30.0,-2286.0,0.477,0.487,-0.637,0.36
3844724,7836.0,202.0,-2300.0,0.477,0.486,-0.638,0.36
3844741,7892.0,36.0,-2320.0,0.477,0.486,-0.638,0.36
3844758,7936.0,82.0,-2312.0,0.478,0.485,-0.638,0.36
3844784,7900.0,38.0,-2308.0,0.478,0.485,-0.638,0.36
3844801,7910.0,82.0,-2330.0,0.478,0.485,-0.638,0.36
3844817,7952.0,196.0,-2342.0,0.477,0.485,-0.638,0.36
3844834,8042.0,34.0,-2308.0,0.477,0.484,-0.638,0.361
3844850,7908.0,94.0,-2316.0,0.478,0.484,-0.638,0.361
3844867,7998.0,-8.0,-2310.0,0.478,0.484,-0.638,0.361
3844884,7906.0,14.0,-2326.0,0.478,0.484,-0.638,0.361
3844901,7882.0,0.0,-2308.0,0.478,0.484,-0.638,0.361
3844917,7818.0,82.0,-2240.0,0.478,0.484,-0.637,0.362
3844944,7820.0,88.0,-2288.0,0.478,0.484,-0.637,0.362
3844960,7804.0,16.0,-2236.0,0.478,0.485,-0.637,0.362
3844976,7864.0,2.0,-2276.0,0.478,0.485,-0.636,0.362
3844992,7760.0,50.0,-2298.0,0.479,0.485,-0.636,0.362
3845008,7872.0,42.0,-2294.0,0.479,0.486,-0.635,0.362
3845024,7912.0,26.0,-2270.0,0.479,0.486,-0.635,0.362
3845050,7748.0,26.0,-2308.0,0.479,0.486,-0.634,0.363
3845067,7902.0,170.0,-2388.0,0.479,0.487,-0.634,0.363
3845084,7824.0,72.0,-2352.0,0.479,0.487,-0.633,0.363
3845100,7900.0,34.0,-2354.0,0.48,0.487,-0.633,0.364
3845116,7880.0,42.0,-2388.0,0.48,0.487,-0.632,0.364
3845132,7878.0,-34.0,-2314.0,0.48,0.487,-0.632,0.364
3845148,7874.0,116.0,-2300.0,0.48,0.487,-0.631,0.365
3845166,7846.0,76.0,-2334.0,0.481,0.488,-0.631,0.365
3845183,7922.0,24.0,-2312.0,0.481,0.488,-0.63,0.365
3845210,7912.0,18.0,-2366.0,0.481,0.488,-0.63,0.365
3845226,7974.0,6.0,-2374.0,0.481,0.488,-0.63,0.366
3845243,7930.0,-14.0,-2322.0,0.481,0.488,-0.629,0.366
3845259,7928.0,-56.0,-2324.0,0.481,0.489,-0.629,0.366
3845275,7888.0,-40.0,-2340.0,0.481,0.489,-0.629,0.366
3845291,7886.0,8.0,-2320.0,0.481,0.49,-0.628,0.367
3845307,7804.0,60.0,-2270.0,0.48,0.49,-0.628,0.367
3845333,7786.0,-54.0,-2236.0,0.48,0.49,-0.628,0.367
3845350,7794.0,-74.0,-2220.0,0.48,0.49,-0.628,0.367
3845366,7748.0,-48.0,-2232.0,0.479,0.491,-0.628,0.368
3845382,7800.0,-54.0,-2254.0,0.478,0.491,-0.628,0.368
3845398,7834.0,26.0,-2280.0,0.478,0.492,-0.628,0.369
3845414,7784.0,-4.0,-2280.0,0.477,0.492,-0.628,0.369
3845431,7738.0,86.0,-2228.0,0.477,0.492,-0.627,0.37
3845448,7808.0,8.0,-2156.0,0.476,0.493,-0.627,0.37
3845475,7942.0,-126.0,-2294.0,0.476,0.493,-0.627,0.371
3845492,7998.0,168.0,-2308.0,0.475,0.493,-0.626,0.372
3845509,7986.0,112.0,-2258.0,0.475,0.494,-0.626,0.372
3845525,7898.0,56.0,-2156.0,0.475,0.494,-0.626,0.373
3845542,7978.0,56.0,-2222.0,0.474,0.494,-0.626,0.373
3845559,7944.0,28.0,-2260.0,0.474,0.494,-0.626,0.374
3845576,7924.0,-14.0,-2222.0,0.473,0.495,-0.626,0.374
3845593,7966.0,58.0,-2240.0,0.473,0.495,-0.626,0.374
3845610,7900.0,182.0,-2240.0,0.473,0.495,-0.626,0.374
3845627,7934.0,-10.0,-2246.0,0.472,0.495,-0.626,0.374
3845644,7882.0,-10.0,-2210.0,0.472,0.496,-0.626,0.374
3845661,7860.0,-16.0,-2194.0,0.472,0.496,-0.626,0.374
3845688,7876.0,-44.0,-2208.0,0.472,0.496,-0.626,0.374
3845705,7826.0,52.0,-2190.0,0.472,0.496,-0.626,0.375
3845721,7872.0,36.0,-2196.0,0.472,0.495,-0.626,0.375
3845737,7876.0,-80.0,-2200.0,0.472,0.495,-0.626,0.375
3845753,7916.0,70.0,-2188.0,0.472,0.495,-0.626,0.375
3845769,7896.0,28.0,-2204.0,0.472,0.495,-0.626,0.375
3845785,7876.0,-38.0,-2224.0,0.472,0.495,-0.626,0.375
3845811,7930.0,-28.0,-2144.0,0.472,0.494,-0.626,0.375
3845827,7922.0,-68.0,-2160.0,0.472,0.494,-0.626,0.375
3845843,7960.0,-66.0,-2212.0,0.472,0.495,-0.626,0.375
3845859,7950.0,126.0,-2250.0,0.472,0.494,-0.626,0.375
3845875,7922.0,64.0,-2130.0,0.472,0.494,-0.626,0.375
3845893,7992.0,100.0,-2142.0,0.472,0.494,-0.626,0.375
3845909,7898.0,-66.0,-2214.0,0.472,0.493,-0.627,0.375
3845935,7966.0,2.0,-2250.0,0.473,0.493,-0.627,0.375
3845951,7926.0,24.0,-2114.0,0.473,0.493,-0.627,0.375
3845967,7876.0,178.0,-2200.0,0.473,0.492,-0.627,0.375
3845983,7930.0,-26.0,-2232.0,0.473,0.492,-0.627,0.375
3845999,7914.0,-18.0,-2238.0,0.473,0.492,-0.628,0.375
3846015,7898.0,34.0,-2214.0,0.473,0.491,-0.628,0.375
3846041,7810.0,104.0,-2144.0,0.474,0.491,-0.628,0.375
3846058,7880.0,-24.0,-2182.0,0.474,0.49,-0.628,0.374
3846074,7894.0,-102.0,-2178.0,0.474,0.49,-0.629,0.374
3846090,7962.0,78.0,-2228.0,0.474,0.489,-0.629,0.374
3846106,7920.0,74.0,-2210.0,0.475,0.489,-0.629,0.374
3846122,7930.0,-2.0,-2224.0,0.475,0.488,-0.629,0.374
3846148,7940.0,54.0,-2178.0,0.476,0.487,-0.63,0.374
3846164,7914.0,-38.0,-2202.0,0.476,0.486,-0.63,0.374
3846180,7950.0,-176.0,-2240.0,0.477,0.486,-0.631,0.373
3846196,7924.0,-158.0,-2204.0,0.477,0.485,-0.631,0.373
3846213,7996.0,40.0,-2174.0,0.477,0.485,-0.631,0.373
3846229,7836.0,-96.0,-2206.0,0.478,0.484,-0.631,0.373
3846245,7890.0,72.0,-2196.0,0.478,0.484,-0.631,0.373
3846271,7858.0,-56.0,-2158.0,0.479,0.484,-0.631,0.373
3846287,7842.0,-190.0,-2144.0,0.479,0.483,-0.631,0.372
3846304,7834.0,-56.0,-2196.0,0.479,0.483,-0.631,0.372
3846320,7884.0,-150.0,-2204.0,0.48,0.483,-0.631,0.372
3846338,7882.0,-86.0,-2198.0,0.48,0.483,-0.631,0.372
3846354,7904.0,-66.0,-2212.0,0.48,0.483,-0.63,0.372
3846370,7874.0,-14.0,-2190.0,0.481,0.484,-0.63,0.371
3846396,7842.0,-18.0,-2156.0,0.481,0.484,-0.63,0.371
3846412,7884.0,-88.0,-2250.0,0.481,0.484,-0.63,0.371
3846428,7862.0,-50.0,-2186.0,0.481,0.484,-0.63,0.371
3846444,7908.0,-72.0,-2238.0,0.481,0.484,-0.63,0.371
3846461,7896.0,-44.0,-2224.0,0.481,0.484,-0.629,0.371
3846477,7832.0,-32.0,-2200.0,0.481,0.484,-0.629,0.371
3846493,7900.0,36.0,-2212.0,0.481,0.485,-0.629,0.372
3846519,7834.0,-72.0,-2126.0,0.481,0.485,-0.629,0.372
3846535,7876.0,20.0,-2202.0,0.481,0.485,-0.629,0.372
3846551,7894.0,-106.0,-2224.0,0.48,0.485,-0.629,0.372
3846567,7918.0,-66.0,-2196.0,0.48,0.484,-0.629,0.373
3846583,7858.0,-48.0,-2188.0,0.48,0.484,-0.63,0.373
3846599,7814.0,-78.0,-2192.0,0.479,0.484,-0.63,0.373
3846625,7910.0,14.0,-2154.0,0.479,0.484,-0.63,0.373
3846641,7900.0,-58.0,-2178.0,0.479,0.484,-0.63,0.373
3846657,7938.0,-126.0,-2162.0,0.478,0.484,-0.63,0.373
3846674,7866.0,0.0,-2156.0,0.478,0.484,-0.631,0.373
3846690,7840.0,44.0,-2248.0,0.478,0.484,-0.631,0.373
3846706,7876.0,-34.0,-2164.0,0.477,0.484,-0.631,0.373
3846732,7866.0,-62.0,-2194.0,0.477,0.484,-0.631,0.373
3846748,7920.0,14.0,-2182.0,0.477,0.484,-0.632,0.373
3846764,7894.0,-20.0,-2164.0,0.476,0.484,-0.632,0.373
3846780,7888.0,-168.0,-2110.0,0.476,0.484,-0.632,0.373
3846796,7890.0,-116.0,-2148.0,0.476,0.484,-0.633,0.373
3846812,7954.0,-114.0,-2196.0,0.475,0.484,-0.633,0.373
3846838,7818.0,-28.0,-2116.0,0.474,0.484,-0.633,0.373
3846854,7820.0,102.0,-2132.0,0.474,0.484,-0.634,0.373
3846870,8008.0,-4.0,-2184.0,0.473,0.484,-0.635,0.373
3846886,8076.0,-74.0,-2242.0,0.473,0.483,-0.635,0.374
3846902,8074.0,-28.0,-2176.0,0.473,0.482,-0.636,0.374
3846918,8006.0,-74.0,-2184.0,0.473,0.481,-0.636,0.375
3846944,7962.0,-280.0,-2070.0,0.473,0.481,-0.636,0.375
3846960,8000.0,-258.0,-2124.0,0.473,0.48,-0.636,0.375
3846976,8002.0,-126.0,-2200.0,0.473,0.48,-0.636,0.375
3846992,8030.0,-94.0,-2164.0,0.474,0.479,-0.636,0.376
3847008,8022.0,-50.0,-2070.0,0.474,0.479,-0.636,0.376
3847024,8038.0,-164.0,-2168.0,0.474,0.478,-0.637,0.376
3847050,8018.0,-190.0,-2140.0,0.474,0.477,-0.637,0.376
3847066,8000.0,-508.0,-2052.0,0.474,0.477,-0.637,0.376
3847082,7818.0,-474.0,-2076.0,0.474,0.478,-0.637,0.377
3847098,7664.0,-320.0,-2054.0,0.474,0.478,-0.636,0.377
3847114,7550.0,-170.0,-2088.0,0.474,0.479,-0.635,0.377
3847130,7514.0,-48.0,-2008.0,0.475,0.48,-0.634,0.378
3847156,7488.0,-22.0,-1992.0,0.475,0.481,-0.633,0.378
3847172,7826.0,-364.0,-2142.0,0.475,0.481,-0.632,0.378
3847188,7838.0,-260.0,-2180.0,0.476,0.482,-0.63,0.379
3847204,7952.0,0.0,-2258.0,0.477,0.482,-0.629,0.38
3847220,8008.0,76.0,-2120.0,0.477,0.483,-0.628,0.381
3847236,8018.0,-44.0,-1996.0,0.477,0.483,-0.627,0.383
3847262,7994.0,4.0,-2056.0,0.476,0.483,-0.627,0.384
3847278,8104.0,-48.0,-2114.0,0.476,0.483,-0.626,0.384
3847294,8210.0,-214.0,-2134.0,0.475,0.484,-0.626,0.385
3847310,8332.0,-196.0,-2198.0,0.475,0.485,-0.626,0.386
3847326,8254.0,-286.0,-2232.0,0.474,0.485,-0.625,0.386
3847342,8134.0,-292.0,-2174.0,0.474,0.487,-0.623,0.387
3847369,7920.0,-198.0,-2080.0,0.475,0.488,-0.622,0.387
3847385,7916.0,-148.0,-2148.0,0.475,0.49,-0.62,0.387
3847401,7838.0,-248.0,-2122.0,0.475,0.491,-0.619,0.387
3847417,7838.0,-188.0,-2148.0,0.475,0.493,-0.617,0.387
3847433,7948.0,-92.0,-2154.0,0.475,0.494,-0.616,0.388
3847449,8066.0,-78.0,-2192.0,0.476,0.496,-0.615,0.388
3847475,8218.0,-130.0,-2262.0,0.476,0.497,-0.613,0.388
3847491,8310.0,-120.0,-2270.0,0.476,0.498,-0.612,0.389
3847507,8404.0,-8.0,-2264.0,0.476,0.498,-0.61,0.39
3847523,8348.0,22.0,-2234.0,0.477,0.499,-0.609,0.391
3847539,8514.0,154.0,-2228.0,0.477,0.5,-0.608,0.391
3847555,8448.0,144.0,-2248.0,0.477,0.5,-0.607,0.392
3847581,8416.0,60.0,-2148.0,0.477,0.5,-0.607,0.392
3847597,8364.0,24.0,-2164.0,0.477,0.501,-0.606,0.393
3847613,8412.0,170.0,-2218.0,0.477,0.501,-0.606,0.392
3847629,8470.0,196.0,-2232.0,0.477,0.502,-0.606,0.392
3847645,8584.0,104.0,-2234.0,0.477,0.502,-0.606,0.391
3847661,8482.0,34.0,-2142.0,0.478,0.502,-0.606,0.39
3847687,8126.0,150.0,-2038.0,0.478,0.503,-0.606,0.389
3847703,8032.0,120.0,-1980.0,0.479,0.503,-0.606,0.387
3847719,7678.0,66.0,-1950.0,0.479,0.504,-0.606,0.386
3847735,7696.0,156.0,-1936.0,0.48,0.504,-0.607,0.384
3847751,7444.0,204.0,-1926.0,0.481,0.504,-0.607,0.382
3847767,7430.0,166.0,-1850.0,0.482,0.504,-0.607,0.38
3847793,7336.0,182.0,-1872.0,0.483,0.504,-0.608,0.378
3847809,7512.0,108.0,-1988.0,0.484,0.504,-0.608,0.377
3847825,7600.0,172.0,-2008.0,0.486,0.503,-0.608,0.375
3847841,7520.0,362.0,-1848.0,0.488,0.502,-0.608,0.373
3847857,7666.0,350.0,-1894.0,0.49,0.501,-0.609,0.372
3847873,7616.0,286.0,-1790.0,0.491,0.5,-0.61,0.37
3847899,7638.0,298.0,-1782.0,0.493,0.499,-0.611,0.368
3847915,7598.0,106.0,-1832.0,0.495,0.498,-0.612,0.365
3847931,7678.0,46.0,-1914.0,0.497,0.496,-0.612,0.362
3847947,7628.0,8.0,-1904.0,0.5,0.496,-0.612,0.36
3847963,7558.0,216.0,-1910.0,0.503,0.495,-0.612,0.357
3847989,7092.0,422.0,-1684.0,0.506,0.494,-0.612,0.354
3848005,7628.0,374.0,-2034.0,0.508,0.492,-0.613,0.352
3848021,7608.0,324.0,-2030.0,0.511,0.491,-0.613,0.35
3848037,7522.0,580.0,-1988.0,0.513,0.488,-0.614,0.349
