timeMs,ax,ay,az,q0,q1,q2,q3
7818108,-2565.0,882.0,6243.0,0.97,0.064,0.194,-0.132
7818124,-1807.0,-60.0,6459.0,0.97,0.064,0.194,-0.128
7818140,-1885.0,282.0,6967.0,0.971,0.065,0.194,-0.124
7818156,-2111.0,752.0,7369.0,0.971,0.067,0.193,-0.121
7818172,-2593.0,364.0,7611.0,0.972,0.069,0.191,-0.118
7818198,-2675.0,322.0,7553.0,0.973,0.073,0.188,-0.114
7818214,-2745.0,130.0,7975.0,0.973,0.079,0.186,-0.109
7818230,-2585.0,824.0,7285.0,0.973,0.088,0.184,-0.105
7818246,-3055.0,1334.0,6855.0,0.973,0.097,0.182,-0.1
7818262,-3533.0,1974.0,7371.0,0.973,0.109,0.18,-0.097
7818278,-3343.0,2706.0,7347.0,0.972,0.121,0.178,-0.093
7818304,-3289.0,2432.0,8103.0,0.971,0.132,0.176,-0.09
7818320,-3659.0,2636.0,8011.0,0.971,0.141,0.174,-0.086
7818336,-3231.0,2238.0,7615.0,0.97,0.148,0.174,-0.083
7818352,-3273.0,1860.0,7093.0,0.97,0.152,0.174,-0.079
7818368,-3103.0,1750.0,7205.0,0.969,0.156,0.173,-0.076
7818394,-2903.0,2842.0,7219.0,0.969,0.161,0.173,-0.073
7818410,-3137.0,3268.0,7769.0,0.968,0.165,0.173,-0.071
7818426,-3141.0,2788.0,7545.0,0.968,0.168,0.172,-0.07
7818442,-3341.0,2862.0,8039.0,0.968,0.17,0.172,-0.068
7818458,-2789.0,3100.0,7731.0,0.968,0.169,0.172,-0.067
7818474,-3111.0,2298.0,7779.0,0.969,0.167,0.173,-0.065
7818490,-3023.0,2510.0,7151.0,0.969,0.164,0.174,-0.063
7818516,-3477.0,2542.0,7029.0,0.969,0.163,0.175,-0.062
7818532,-3307.0,2358.0,6703.0,0.969,0.162,0.176,-0.061
7818548,-3455.0,2778.0,6783.0,0.969,0.161,0.177,-0.06
7818564,-3305.0,2760.0,6777.0,0.969,0.161,0.178,-0.06
7818580,-3337.0,2188.0,6793.0,0.969,0.16,0.179,-0.059
7818596,-3525.0,1932.0,7191.0,0.969,0.16,0.18,-0.06
7818623,-3371.0,2130.0,7247.0,0.969,0.16,0.181,-0.06
7818639,-3381.0,1930.0,7125.0,0.968,0.16,0.182,-0.061
7818655,-3487.0,2190.0,6541.0,0.968,0.159,0.183,-0.061
7818671,-3401.0,1832.0,6249.0,0.968,0.159,0.184,-0.061
7818687,-3265.0,1478.0,5707.0,0.968,0.16,0.186,-0.061
7818703,-3651.0,1334.0,5611.0,0.967,0.163,0.188,-0.06
7818729,-3835.0,1342.0,6027.0,0.965,0.169,0.189,-0.06
7818745,-3931.0,1470.0,6615.0,0.964,0.176,0.19,-0.061
7818761,-3779.0,2070.0,7163.0,0.962,0.184,0.191,-0.06
7818777,-3343.0,2760.0,7949.0,0.961,0.19,0.191,-0.059
7818793,-3231.0,3486.0,8017.0,0.96,0.195,0.191,-0.058
7818809,-3089.0,3512.0,7975.0,0.96,0.2,0.191,-0.055
7818835,-2647.0,3058.0,6987.0,0.959,0.203,0.19,-0.052
7818851,-2865.0,2088.0,6533.0,0.958,0.208,0.19,-0.048
7818867,-2809.0,1754.0,6105.0,0.957,0.217,0.187,-0.043
7818883,-2959.0,1974.0,4575.0,0.956,0.227,0.183,-0.039
7818899,-1979.0,2014.0,5337.0,0.953,0.242,0.177,-0.035
7818925,-1999.0,3906.0,5285.0,0.951,0.256,0.171,-0.032
7818941,-1739.0,4142.0,6565.0,0.949,0.268,0.165,-0.028
7818957,-2237.0,4754.0,7871.0,0.946,0.28,0.16,-0.024
7818975,-2143.0,4550.0,9465.0,0.943,0.294,0.157,-0.02
7818991,-2371.0,5412.0,9229.0,0.939,0.308,0.154,-0.017
7819007,-2645.0,5928.0,7885.0,0.935,0.32,0.153,-0.014
7819023,-2823.0,5342.0,6667.0,0.931,0.33,0.153,-0.012
7819049,-2683.0,4460.0,5753.0,0.928,0.339,0.153,-0.012
7819065,-2279.0,4900.0,4723.0,0.925,0.347,0.154,-0.012
7819081,-1925.0,4050.0,4343.0,0.922,0.354,0.154,-0.01
7819097,-2029.0,4456.0,4227.0,0.92,0.361,0.152,-0.004
7819113,-2583.0,4228.0,4377.0,0.919,0.366,0.149,0.001
7819129,-2153.0,2684.0,4245.0,0.918,0.369,0.145,0.009
7819155,-2861.0,1032.0,2337.0,0.918,0.372,0.136,0.021
7819171,-3379.0,2638.0,2531.0,0.92,0.372,0.123,0.034
7819187,-2155.0,1864.0,2949.0,0.922,0.369,0.105,0.048
7819203,-827.0,2524.0,4191.0,0.924,0.367,0.085,0.063
7819219,117.0,3742.0,5093.0,0.924,0.368,0.064,0.078
7819235,1287.0,4328.0,5839.0,0.924,0.369,0.041,0.094
7819251,957.0,4902.0,6937.0,0.921,0.373,0.018,0.111
7819277,753.0,5682.0,7957.0,0.916,0.381,-0.008,0.128
7819293,1695.0,8084.0,8171.0,0.908,0.392,-0.037,0.142
7819309,3943.0,9494.0,7583.0,0.9,0.403,-0.065,0.154
7819325,5405.0,10814.0,5919.0,0.892,0.412,-0.09,0.164
7819341,5817.0,10844.0,6115.0,0.885,0.419,-0.109,0.174
7819367,4963.0,9968.0,5781.0,0.879,0.424,-0.121,0.183
7819383,4511.0,9386.0,5339.0,0.874,0.429,-0.127,0.191
7819399,3605.0,8752.0,5081.0,0.87,0.434,-0.129,0.197
7819415,2923.0,8012.0,4777.0,0.867,0.437,-0.129,0.202
7819431,2609.0,6688.0,4351.0,0.865,0.44,-0.128,0.204
7819447,2523.0,6168.0,4185.0,0.864,0.443,-0.127,0.205
7819473,2745.0,5894.0,4005.0,0.862,0.445,-0.127,0.207
7819489,3137.0,5820.0,3953.0,0.86,0.447,-0.129,0.208
7819505,3409.0,5638.0,4061.0,0.86,0.447,-0.131,0.209
7819521,3737.0,5212.0,4335.0,0.859,0.447,-0.134,0.21
7819537,4139.0,4914.0,4815.0,0.859,0.446,-0.137,0.212
7819553,4135.0,4652.0,5333.0,0.858,0.446,-0.139,0.214
7819579,3979.0,4532.0,5661.0,0.856,0.448,-0.14,0.217
7819595,3651.0,4872.0,5781.0,0.853,0.452,-0.141,0.22
7819611,3667.0,4928.0,5561.0,0.849,0.457,-0.142,0.222
7819627,3701.0,5266.0,5061.0,0.844,0.465,-0.142,0.225
7819643,3629.0,5912.0,4439.0,0.839,0.474,-0.141,0.227
7819659,3675.0,6968.0,3873.0,0.833,0.483,-0.14,0.23
7819685,4007.0,7790.0,3451.0,0.828,0.49,-0.139,0.232
7819701,4057.0,8332.0,3321.0,0.825,0.495,-0.139,0.234
7819717,4273.0,8734.0,3155.0,0.823,0.498,-0.139,0.236
7819733,4249.0,8752.0,3081.0,0.822,0.498,-0.139,0.238
7819749,3999.0,8564.0,2997.0,0.823,0.496,-0.14,0.238
7819765,3965.0,8304.0,3283.0,0.825,0.492,-0.141,0.238
7819791,3933.0,7742.0,3581.0,0.829,0.487,-0.14,0.237
7819807,3947.0,7252.0,3855.0,0.833,0.482,-0.139,0.235
7819823,3835.0,6806.0,4273.0,0.837,0.475,-0.138,0.233
7819839,3755.0,6012.0,4497.0,0.842,0.468,-0.138,0.231
7819855,3777.0,5300.0,4567.0,0.847,0.46,-0.137,0.229
7819871,3543.0,4484.0,4735.0,0.852,0.452,-0.136,0.227
7819897,3455.0,3980.0,5013.0,0.856,0.446,-0.135,0.226
7819913,3313.0,3816.0,5183.0,0.858,0.443,-0.135,0.224
7819930,3395.0,4072.0,5145.0,0.858,0.442,-0.135,0.223
7819946,3539.0,4466.0,4953.0,0.857,0.445,-0.134,0.222
7819962,3575.0,4922.0,4703.0,0.855,0.449,-0.133,0.221
7819978,3571.0,5588.0,4599.0,0.853,0.455,-0.13,0.219
7820004,3623.0,5958.0,4495.0,0.852,0.46,-0.127,0.217
7820020,3513.0,5952.0,4471.0,0.85,0.465,-0.124,0.214
7820036,3417.0,6082.0,4389.0,0.849,0.469,-0.121,0.212
7820052,3431.0,6104.0,4305.0,0.847,0.474,-0.118,0.21
7820068,3443.0,6394.0,4315.0,0.845,0.479,-0.115,0.208
7820084,3415.0,6476.0,4221.0,0.844,0.483,-0.112,0.205
7820110,3431.0,6404.0,4101.0,0.843,0.486,-0.11,0.203
7820127,3317.0,6356.0,4021.0,0.842,0.489,-0.107,0.201
7820143,3177.0,6340.0,3893.0,0.841,0.492,-0.105,0.199
7820159,3097.0,6422.0,3763.0,0.84,0.495,-0.103,0.197
7820175,3209.0,6638.0,3803.0,0.839,0.499,-0.101,0.194
7820192,3059.0,6514.0,3869.0,0.838,0.501,-0.098,0.192
7820208,2913.0,6234.0,3911.0,0.838,0.503,-0.095,0.19
7820234,2801.0,6084.0,4009.0,0.837,0.505,-0.092,0.188
7820250,2737.0,6060.0,4107.0,0.836,0.508,-0.089,0.187
7820266,2767.0,6158.0,4153.0,0.835,0.511,-0.086,0.185
7820282,3055.0,6572.0,4179.0,0.833,0.514,-0.084,0.184
7820298,2975.0,6602.0,4101.0,0.832,0.518,-0.08,0.183
7820314,2885.0,6424.0,3961.0,0.829,0.523,-0.075,0.181
7820340,2533.0,6578.0,3905.0,0.826,0.529,-0.07,0.18
7820356,2377.0,6774.0,3719.0,0.823,0.536,-0.065,0.18
7820372,2365.0,7210.0,3535.0,0.819,0.542,-0.059,0.179
7820388,2557.0,7326.0,3263.0,0.815,0.548,-0.055,0.18
7820404,2467.0,7480.0,3085.0,0.813,0.552,-0.05,0.181
7820420,2343.0,7512.0,2873.0,0.81,0.554,-0.047,0.183
7820446,2273.0,7338.0,2803.0,0.809,0.556,-0.044,0.186
7820462,2107.0,7126.0,2651.0,0.808,0.557,-0.041,0.189
7820478,1861.0,6934.0,2573.0,0.806,0.558,-0.039,0.192
7820494,1687.0,6814.0,2509.0,0.805,0.559,-0.038,0.196
7820511,1563.0,6996.0,2445.0,0.802,0.561,-0.038,0.199
7820527,1559.0,7264.0,2405.0,0.8,0.564,-0.038,0.202
7820553,1457.0,7506.0,2403.0,0.798,0.566,-0.039,0.204
7820569,1485.0,7776.0,2409.0,0.796,0.568,-0.041,0.206
7820585,1765.0,7932.0,2505.0,0.794,0.57,-0.044,0.207
7820601,2099.0,7982.0,2617.0,0.793,0.571,-0.047,0.208
7820617,2477.0,8092.0,2751.0,0.792,0.572,-0.05,0.208
7820633,2759.0,8050.0,2889.0,0.791,0.573,-0.053,0.208
7820659,2869.0,8024.0,2863.0,0.791,0.573,-0.056,0.208
7820675,2921.0,7930.0,2943.0,0.791,0.573,-0.057,0.207
7820691,2861.0,7918.0,3013.0,0.791,0.574,-0.058,0.207
7820707,2733.0,7990.0,3009.0,0.791,0.574,-0.058,0.206
7820723,2645.0,8010.0,3015.0,0.791,0.573,-0.057,0.206
7820739,2705.0,7898.0,3017.0,0.792,0.573,-0.056,0.205
7820765,2685.0,7624.0,3113.0,0.792,0.572,-0.054,0.204
7820781,2743.0,7508.0,3069.0,0.793,0.572,-0.051,0.204
7820797,2715.0,7378.0,2957.0,0.793,0.572,-0.048,0.203
7820813,2827.0,7182.0,2797.0,0.793,0.573,-0.045,0.202
7820829,2631.0,6698.0,2729.0,0.792,0.576,-0.04,0.2
7820845,2355.0,6414.0,2507.0,0.789,0.581,-0.034,0.198
7820871,1965.0,6196.0,2243.0,0.785,0.588,-0.028,0.195
7820887,1701.0,6146.0,2063.0,0.778,0.597,-0.021,0.193
7820903,1495.0,6606.0,1957.0,0.77,0.608,-0.015,0.191
7820919,1627.0,7252.0,1763.0,0.761,0.62,-0.009,0.189
7820935,1601.0,7462.0,1541.0,0.752,0.633,-0.002,0.186
7820951,1477.0,8228.0,1447.0,0.742,0.645,0.004,0.184
7820977,1733.0,8590.0,1377.0,0.733,0.655,0.01,0.182
7820993,1931.0,8734.0,1111.0,0.724,0.665,0.015,0.182
7821009,1905.0,8740.0,1137.0,0.718,0.671,0.018,0.183
7821025,1907.0,8314.0,945.0,0.713,0.677,0.021,0.184
7821041,1993.0,7536.0,735.0,0.707,0.682,0.022,0.185
7821057,2049.0,6888.0,581.0,0.7,0.689,0.024,0.186
7821083,2229.0,6928.0,181.0,0.692,0.697,0.025,0.186
7821099,2247.0,7348.0,-159.0,0.682,0.707,0.027,0.186
7821115,1969.0,6628.0,-381.0,0.67,0.718,0.029,0.186
7821131,2677.0,2108.0,-89.0,0.646,0.738,0.032,0.191
7821147,2491.0,9688.0,1853.0,0.618,0.761,0.041,0.193
7821173,6951.0,8950.0,7005.0,0.599,0.772,0.051,0.205
7821189,2045.0,8396.0,-4343.0,0.593,0.774,0.054,0.217
7821205,2397.0,10878.0,-7939.0,0.588,0.775,0.055,0.225
7821221,1027.0,8422.0,-6573.0,0.589,0.772,0.051,0.232
7821237,2189.0,4112.0,-2019.0,0.594,0.766,0.04,0.243
7821253,851.0,1622.0,-2857.0,0.591,0.766,0.028,0.251
7821279,1633.0,7192.0,-4065.0,0.585,0.771,0.018,0.253
7821295,1665.0,10740.0,-4103.0,0.582,0.772,0.004,0.256
7821311,1239.0,8864.0,-3427.0,0.582,0.771,-0.011,0.258
7821327,2031.0,8662.0,-2157.0,0.584,0.769,-0.027,0.258
7821343,2567.0,9358.0,-2283.0,0.589,0.765,-0.042,0.258
7821359,2671.0,10160.0,-1567.0,0.596,0.759,-0.057,0.257
7821375,2037.0,8366.0,-659.0,0.603,0.752,-0.073,0.254
7821401,2969.0,7108.0,189.0,0.61,0.746,-0.091,0.251
7821417,3625.0,5452.0,823.0,0.615,0.74,-0.108,0.249
7821433,6235.0,6694.0,1651.0,0.616,0.738,-0.12,0.248
7821449,7101.0,8772.0,2611.0,0.617,0.736,-0.127,0.249
7821465,7047.0,8002.0,2915.0,0.617,0.735,-0.129,0.251
7821491,4989.0,6586.0,1831.0,0.614,0.736,-0.127,0.253
7821507,4221.0,6462.0,203.0,0.61,0.74,-0.124,0.256
7821523,4109.0,7174.0,-1243.0,0.606,0.743,-0.119,0.258
7821539,3849.0,8256.0,-2147.0,0.604,0.745,-0.115,0.261
7821555,3485.0,8266.0,-2125.0,0.605,0.743,-0.111,0.264
7821571,4013.0,7652.0,-2305.0,0.608,0.74,-0.109,0.267
7821597,4395.0,7806.0,-2207.0,0.613,0.735,-0.107,0.271
7821613,4715.0,6926.0,-1777.0,0.619,0.728,-0.105,0.275
7821629,5067.0,6560.0,-1553.0,0.626,0.721,-0.103,0.279
7821645,5755.0,6436.0,-1481.0,0.632,0.714,-0.102,0.283
7821661,5667.0,6158.0,-1191.0,0.638,0.707,-0.101,0.288
7821677,5503.0,6340.0,-1171.0,0.644,0.7,-0.1,0.292
7821703,5701.0,6548.0,-885.0,0.649,0.693,-0.098,0.296
7821719,5181.0,6206.0,-655.0,0.654,0.688,-0.096,0.3
7821735,4417.0,5740.0,-503.0,0.657,0.684,-0.094,0.303
7821751,4353.0,5968.0,-559.0,0.657,0.683,-0.093,0.305
7821767,4015.0,7064.0,-441.0,0.657,0.683,-0.092,0.305
7821783,4057.0,7304.0,165.0,0.657,0.684,-0.091,0.303
7821809,4853.0,8456.0,373.0,0.658,0.684,-0.09,0.301
7821825,4887.0,8960.0,765.0,0.662,0.682,-0.089,0.299
7821841,4403.0,8392.0,873.0,0.667,0.677,-0.087,0.297
7821857,3895.0,8290.0,1137.0,0.674,0.671,-0.085,0.297
7821873,4003.0,7804.0,1429.0,0.681,0.664,-0.082,0.296
7821889,3629.0,7040.0,1551.0,0.688,0.658,-0.079,0.296
7821915,3785.0,6790.0,1725.0,0.695,0.651,-0.075,0.295
7821931,4039.0,6736.0,1721.0,0.702,0.645,-0.071,0.295
7821947,3999.0,7746.0,2199.0,0.709,0.638,-0.066,0.294
7821963,3713.0,6862.0,2529.0,0.717,0.629,-0.06,0.293
7821979,3283.0,7070.0,2713.0,0.725,0.621,-0.053,0.294
7822005,2487.0,6988.0,3099.0,0.732,0.612,-0.047,0.296
7822021,2445.0,6756.0,3225.0,0.739,0.601,-0.04,0.3
7822037,2593.0,6686.0,2835.0,0.747,0.59,-0.034,0.305
7822053,1833.0,6020.0,3249.0,0.752,0.58,-0.027,0.312
7822069,479.0,6372.0,3017.0,0.757,0.571,-0.022,0.318
7822085,1717.0,7796.0,2793.0,0.763,0.56,-0.018,0.322
7822101,2589.0,7018.0,2665.0,0.769,0.549,-0.017,0.327
7822127,1391.0,6972.0,2941.0,0.774,0.539,-0.017,0.331
7822143,1229.0,7112.0,3265.0,0.779,0.529,-0.021,0.335
7822159,2173.0,7078.0,3101.0,0.785,0.52,-0.027,0.337
7822175,2091.0,7328.0,3199.0,0.791,0.509,-0.035,0.339
7822191,1641.0,6484.0,2039.0,0.797,0.495,-0.047,0.342
7822217,2435.0,3830.0,1807.0,0.803,0.481,-0.061,0.347
7822233,2973.0,2276.0,1235.0,0.806,0.469,-0.071,0.353
7822249,4289.0,2374.0,1353.0,0.806,0.463,-0.079,0.36
7822267,5169.0,2108.0,1869.0,0.803,0.461,-0.085,0.368
7822283,5925.0,714.0,2147.0,0.793,0.468,-0.091,0.379
7822299,6289.0,3746.0,2761.0,0.78,0.482,-0.095,0.388
7822315,6687.0,7596.0,4149.0,0.771,0.493,-0.099,0.391
7822331,6917.0,6666.0,4349.0,0.764,0.501,-0.105,0.393
7822357,13005.0,16276.0,12231.0,0.754,0.515,-0.087,0.399
7822373,479.0,14966.0,6233.0,0.757,0.515,-0.085,0.394
7822389,5099.0,3044.0,1251.0,0.754,0.515,-0.093,0.397
7822405,4289.0,1666.0,147.0,0.751,0.516,-0.099,0.399
7822421,6231.0,2784.0,4357.0,0.746,0.522,-0.096,0.403
7822437,2435.0,9896.0,4981.0,0.744,0.526,-0.095,0.402
7822463,5267.0,6076.0,4683.0,0.743,0.526,-0.098,0.402
7822479,4075.0,6230.0,3661.0,0.742,0.527,-0.098,0.403
7822495,4509.0,5994.0,3011.0,0.74,0.529,-0.101,0.403
7822511,4629.0,6412.0,2953.0,0.739,0.529,-0.103,0.404
7822527,4461.0,5944.0,3005.0,0.739,0.528,-0.105,0.405
7822553,4793.0,6100.0,3451.0,0.739,0.527,-0.107,0.406
7822569,4951.0,6102.0,3843.0,0.74,0.525,-0.109,0.407
7822585,5097.0,6324.0,4009.0,0.74,0.524,-0.11,0.408
7822601,5297.0,6440.0,3539.0,0.74,0.522,-0.112,0.409
7822617,5337.0,6024.0,3281.0,0.741,0.52,-0.113,0.41
7822633,5549.0,5728.0,3541.0,0.742,0.517,-0.113,0.411
7822659,5775.0,5702.0,3735.0,0.744,0.515,-0.113,0.411
7822675,5603.0,5496.0,3675.0,0.746,0.512,-0.112,0.411
7822691,5561.0,5060.0,3665.0,0.748,0.51,-0.111,0.411
7822707,5711.0,6102.0,3903.0,0.75,0.507,-0.109,0.41
7822723,5507.0,5862.0,3913.0,0.753,0.504,-0.108,0.41
7822739,5353.0,5680.0,3987.0,0.757,0.499,-0.107,0.408
7822765,5131.0,5776.0,4257.0,0.761,0.493,-0.108,0.407
7822781,4807.0,5180.0,4429.0,0.766,0.487,-0.109,0.405
7822797,4121.0,4744.0,4153.0,0.771,0.483,-0.112,0.401
7822813,3687.0,5244.0,3459.0,0.775,0.479,-0.119,0.394
7822829,3975.0,4318.0,2573.0,0.779,0.477,-0.128,0.387
7822845,4423.0,2588.0,3905.0,0.782,0.477,-0.136,0.378
7822871,4999.0,4418.0,3419.0,0.782,0.481,-0.145,0.369
7822887,3575.0,7566.0,3575.0,0.783,0.486,-0.152,0.356
7822903,8171.0,4936.0,5683.0,0.783,0.492,-0.156,0.347
7822919,7339.0,6122.0,4187.0,0.787,0.488,-0.158,0.343
7822935,3191.0,2306.0,3113.0,0.787,0.486,-0.162,0.344
7822951,3407.0,3044.0,3639.0,0.784,0.492,-0.163,0.343
7822977,3525.0,4648.0,4025.0,0.779,0.5,-0.163,0.341
7822993,4167.0,6024.0,4431.0,0.775,0.508,-0.162,0.339
7823009,5605.0,8412.0,4863.0,0.773,0.513,-0.159,0.338
7823025,5205.0,8952.0,4499.0,0.776,0.51,-0.155,0.338
7823041,4281.0,6278.0,3795.0,0.78,0.503,-0.154,0.339
7823057,3545.0,4682.0,3619.0,0.783,0.497,-0.153,0.342
7823083,3723.0,5406.0,3607.0,0.785,0.492,-0.153,0.345
7823100,3447.0,5496.0,3317.0,0.786,0.488,-0.153,0.346
7823116,4161.0,6198.0,4003.0,0.788,0.485,-0.152,0.348
7823132,3359.0,5538.0,3707.0,0.789,0.483,-0.152,0.348
7823149,3905.0,6388.0,3769.0,0.79,0.483,-0.153,0.347
7823166,4643.0,7038.0,3775.0,0.791,0.482,-0.155,0.345
7823182,4909.0,6880.0,3985.0,0.793,0.479,-0.157,0.341
7823198,4873.0,6566.0,3749.0,0.797,0.476,-0.161,0.335
7823224,5319.0,6658.0,3381.0,0.801,0.472,-0.166,0.327
7823240,6065.0,6336.0,2905.0,0.807,0.466,-0.171,0.319
7823256,6207.0,5334.0,3477.0,0.813,0.458,-0.178,0.312
7823272,6567.0,4352.0,3597.0,0.82,0.448,-0.183,0.307
7823288,5117.0,4276.0,3951.0,0.826,0.438,-0.187,0.302
7823314,4965.0,2094.0,5573.0,0.831,0.429,-0.19,0.298
7823330,3921.0,5614.0,4685.0,0.836,0.421,-0.193,0.293
7823346,4715.0,5318.0,4933.0,0.842,0.412,-0.195,0.289
7823362,3657.0,5286.0,4999.0,0.847,0.403,-0.197,0.285
7823378,4269.0,4888.0,4763.0,0.851,0.395,-0.199,0.282
7823394,4003.0,3674.0,5465.0,0.856,0.385,-0.201,0.279
7823420,4049.0,4476.0,5183.0,0.86,0.378,-0.202,0.276
7823436,4903.0,3364.0,6107.0,0.863,0.372,-0.203,0.276
7823452,3567.0,3738.0,5223.0,0.865,0.367,-0.203,0.276
7823468,4099.0,3046.0,5479.0,0.866,0.364,-0.202,0.279
7823485,3419.0,3190.0,5583.0,0.865,0.363,-0.201,0.281
7823502,3529.0,3146.0,5953.0,0.864,0.364,-0.2,0.284
7823518,3317.0,3692.0,5963.0,0.862,0.367,-0.199,0.287
7823535,4163.0,3446.0,5977.0,0.86,0.369,-0.2,0.29
7823561,4313.0,3248.0,5987.0,0.857,0.373,-0.2,0.293
7823577,4389.0,3616.0,5171.0,0.854,0.379,-0.201,0.295
7823593,4715.0,3830.0,5107.0,0.85,0.384,-0.201,0.297
7823609,4917.0,4130.0,4749.0,0.847,0.391,-0.202,0.299
7823625,5113.0,4370.0,4487.0,0.843,0.398,-0.202,0.301
7823641,5313.0,4796.0,4351.0,0.839,0.406,-0.201,0.303
7823667,5151.0,5396.0,4245.0,0.835,0.412,-0.2,0.305
7823683,5289.0,5706.0,4347.0,0.831,0.418,-0.198,0.308
7823699,4949.0,5778.0,4503.0,0.829,0.422,-0.197,0.31
7823715,4877.0,5850.0,4443.0,0.827,0.425,-0.195,0.313
7823731,4699.0,5298.0,4685.0,0.825,0.426,-0.194,0.315
7823747,4653.0,5030.0,4727.0,0.824,0.427,-0.194,0.318
7823773,4797.0,5254.0,4815.0,0.823,0.429,-0.193,0.319
7823789,5115.0,5398.0,4601.0,0.822,0.429,-0.193,0.32
7823805,5143.0,5332.0,4453.0,0.822,0.43,-0.193,0.321
7823821,5071.0,4894.0,4359.0,0.822,0.429,-0.193,0.321
7823837,5189.0,4830.0,4243.0,0.822,0.429,-0.194,0.321
7823853,5417.0,5122.0,4235.0,0.822,0.429,-0.194,0.32
7823879,5573.0,5540.0,4209.0,0.823,0.428,-0.195,0.318
7823895,5675.0,5754.0,4287.0,0.825,0.425,-0.195,0.316
7823911,5349.0,5068.0,4347.0,0.828,0.421,-0.196,0.314
7823927,5127.0,4540.0,4355.0,0.831,0.417,-0.196,0.311
7823944,4875.0,4694.0,4451.0,0.834,0.413,-0.197,0.308
7823960,4753.0,4974.0,4497.0,0.838,0.409,-0.197,0.304
7823986,4851.0,5244.0,4513.0,0.841,0.405,-0.197,0.3
7824003,4699.0,5332.0,4787.0,0.846,0.399,-0.197,0.293
7824019,4967.0,4738.0,4849.0,0.853,0.391,-0.197,0.286
7824035,4153.0,4038.0,4973.0,0.859,0.383,-0.196,0.276
7824051,3785.0,4650.0,4669.0,0.865,0.377,-0.196,0.267
7824067,5729.0,6058.0,5331.0,0.871,0.371,-0.194,0.257
7824083,3399.0,5404.0,5531.0,0.877,0.362,-0.193,0.25
7824110,4065.0,3806.0,6139.0,0.883,0.353,-0.192,0.243
7824126,3085.0,3416.0,6155.0,0.888,0.345,-0.191,0.238
7824142,3485.0,3662.0,5833.0,0.892,0.338,-0.191,0.234
7824158,3519.0,3366.0,5801.0,0.895,0.331,-0.19,0.232
7824174,3741.0,3302.0,5939.0,0.897,0.325,-0.189,0.23
7824190,3497.0,3556.0,6395.0,0.899,0.321,-0.189,0.23
7824216,3563.0,3474.0,6127.0,0.9,0.317,-0.19,0.231
7824232,3873.0,2942.0,5963.0,0.9,0.314,-0.191,0.233
7824248,3889.0,2636.0,6063.0,0.9,0.313,-0.192,0.236
7824264,3813.0,2876.0,5955.0,0.898,0.314,-0.192,0.24
7824280,3851.0,2966.0,5989.0,0.896,0.317,-0.193,0.244
7824296,3911.0,2916.0,5989.0,0.893,0.321,-0.193,0.248
7824322,3957.0,3110.0,5921.0,0.89,0.326,-0.194,0.252
7824338,3973.0,3172.0,5911.0,0.886,0.333,-0.194,0.257
7824354,4145.0,3478.0,5817.0,0.882,0.341,-0.195,0.261
7824370,4227.0,3390.0,5743.0,0.877,0.35,-0.196,0.265
7824386,4881.0,3946.0,5495.0,0.871,0.361,-0.196,0.268
7824402,4885.0,4400.0,4937.0,0.866,0.372,-0.196,0.271
7824428,5167.0,4678.0,4735.0,0.86,0.383,-0.195,0.274
7824444,5041.0,5698.0,4595.0,0.855,0.393,-0.193,0.276
7824460,4843.0,7190.0,4573.0,0.852,0.4,-0.191,0.279
7824476,4557.0,6964.0,4707.0,0.85,0.403,-0.189,0.282
7824492,4269.0,5942.0,4849.0,0.849,0.404,-0.189,0.285
7824508,4159.0,5044.0,4883.0,0.848,0.405,-0.188,0.287
7824534,4329.0,4842.0,5061.0,0.847,0.405,-0.188,0.288
7824550,4395.0,4914.0,5059.0,0.847,0.406,-0.187,0.289
7824566,5097.0,5312.0,4957.0,0.847,0.404,-0.187,0.291
7824582,4403.0,4622.0,5243.0,0.846,0.405,-0.186,0.292
7824598,4743.0,5316.0,4623.0,0.846,0.406,-0.186,0.292
7824614,4715.0,4548.0,4863.0,0.845,0.406,-0.186,0.293
7824641,4713.0,4632.0,4739.0,0.845,0.407,-0.186,0.293
7824657,4811.0,4908.0,4737.0,0.845,0.407,-0.186,0.293
7824673,4707.0,5018.0,4709.0,0.845,0.407,-0.186,0.293
7824689,4619.0,4866.0,4841.0,0.845,0.407,-0.185,0.293
7824705,4481.0,4898.0,4859.0,0.845,0.407,-0.185,0.293
7824721,4531.0,5006.0,4933.0,0.845,0.407,-0.185,0.293
7824747,4543.0,5038.0,4913.0,0.845,0.407,-0.185,0.293
7824763,4545.0,5068.0,4945.0,0.846,0.406,-0.185,0.293
7824779,4497.0,4834.0,4887.0,0.846,0.405,-0.185,0.292
7824795,4493.0,4844.0,4919.0,0.847,0.404,-0.185,0.292
7824811,4491.0,4764.0,4919.0,0.847,0.403,-0.185,0.292
7824827,4453.0,4778.0,5157.0,0.848,0.402,-0.186,0.292
7824853,4427.0,4878.0,5129.0,0.848,0.401,-0.186,0.291
7824869,4349.0,4522.0,4993.0,0.848,0.401,-0.187,0.291
7824885,4517.0,4572.0,4843.0,0.848,0.4,-0.188,0.291
7824901,4479.0,4830.0,4753.0,0.848,0.4,-0.188,0.291
7824917,4505.0,4614.0,4939.0,0.848,0.4,-0.188,0.291
7824933,4453.0,4684.0,4963.0,0.848,0.401,-0.188,0.292
7824959,4495.0,4832.0,4963.0,0.848,0.401,-0.188,0.292
7824975,4521.0,4728.0,5015.0,0.847,0.401,-0.188,0.293
7824991,4481.0,4712.0,4937.0,0.847,0.402,-0.188,0.293
7825007,4503.0,4768.0,4987.0,0.846,0.402,-0.188,0.294
7825023,4507.0,4790.0,5019.0,0.846,0.403,-0.188,0.295
7825039,4587.0,4696.0,4893.0,0.845,0.403,-0.188,0.296
7825065,4587.0,4662.0,4793.0,0.845,0.404,-0.187,0.297
7825081,4603.0,4746.0,4821.0,0.844,0.404,-0.186,0.298
7825097,4577.0,4828.0,4993.0,0.844,0.405,-0.186,0.299
7825113,4559.0,4814.0,5061.0,0.843,0.406,-0.185,0.301
7825129,4487.0,4840.0,4871.0,0.842,0.407,-0.184,0.302
7825155,4555.0,4644.0,4995.0,0.842,0.408,-0.184,0.303
7825171,4519.0,4636.0,4881.0,0.841,0.409,-0.183,0.304
7825187,4711.0,4676.0,4935.0,0.84,0.41,-0.183,0.305
7825203,4413.0,4890.0,4835.0,0.839,0.411,-0.183,0.306
7825219,4555.0,4850.0,4855.0,0.839,0.412,-0.182,0.307
7825235,4615.0,4862.0,4855.0,0.838,0.413,-0.182,0.307
7825261,4583.0,4818.0,4841.0,0.837,0.413,-0.182,0.308
7825277,4589.0,4912.0,4857.0,0.837,0.414,-0.181,0.309
7825293,4619.0,4866.0,4699.0,0.836,0.415,-0.181,0.31
7825309,4587.0,4886.0,4821.0,0.836,0.415,-0.18,0.311
7825325,4513.0,4672.0,5035.0,0.836,0.415,-0.18,0.312
7825341,4707.0,4910.0,4857.0,0.835,0.415,-0.179,0.312
7825367,4667.0,4952.0,4901.0,0.835,0.416,-0.179,0.313
7825383,4691.0,4990.0,4661.0,0.834,0.416,-0.179,0.314
7825399,4645.0,5138.0,4517.0,0.834,0.417,-0.179,0.314
7825416,4653.0,4780.0,4907.0,0.834,0.416,-0.178,0.316
7825432,4481.0,4726.0,4943.0,0.834,0.416,-0.178,0.316
7825448,4531.0,4780.0,4847.0,0.833,0.417,-0.177,0.317
7825464,4649.0,5096.0,4793.0,0.833,0.417,-0.177,0.317
7825490,4515.0,4826.0,4845.0,0.833,0.417,-0.176,0.317
7825506,4541.0,4694.0,4889.0,0.833,0.417,-0.176,0.318
7825522,4547.0,4804.0,4857.0,0.833,0.418,-0.176,0.318
7825538,4619.0,4772.0,4807.0,0.832,0.418,-0.176,0.318
7825554,4559.0,4796.0,4853.0,0.832,0.419,-0.175,0.319
7825570,4549.0,4832.0,4867.0,0.832,0.419,-0.175,0.319
7825596,4435.0,4926.0,4865.0,0.831,0.42,-0.175,0.319
7825612,4635.0,4856.0,4919.0,0.831,0.421,-0.175,0.319
7825628,4543.0,4882.0,4935.0,0.83,0.422,-0.176,0.319
7825644,4559.0,4936.0,4885.0,0.829,0.423,-0.176,0.319
7825660,4529.0,4880.0,4897.0,0.828,0.424,-0.177,0.32
7825686,4619.0,4900.0,4803.0,0.827,0.426,-0.178,0.32
7825702,4571.0,4928.0,4715.0,0.826,0.427,-0.178,0.321
7825718,4669.0,4996.0,4741.0,0.825,0.429,-0.179,0.322
7825734,4683.0,5008.0,4721.0,0.823,0.43,-0.18,0.323
7825750,4755.0,5026.0,4823.0,0.822,0.431,-0.181,0.324
7825767,4939.0,5148.0,4839.0,0.821,0.432,-0.182,0.326
7825783,4753.0,4868.0,4589.0,0.82,0.432,-0.184,0.327
7825809,4851.0,4510.0,4611.0,0.819,0.432,-0.185,0.329
7825825,4887.0,4472.0,4663.0,0.818,0.432,-0.186,0.33
7825841,4895.0,4484.0,4685.0,0.818,0.432,-0.187,0.331
7825857,4957.0,4534.0,4723.0,0.817,0.433,-0.188,0.333
7825873,5103.0,4736.0,4705.0,0.816,0.433,-0.188,0.334
7825889,5165.0,4832.0,4573.0,0.815,0.433,-0.189,0.335
7825915,4983.0,4528.0,4509.0,0.814,0.433,-0.19,0.337
7825931,4959.0,4358.0,4513.0,0.813,0.433,-0.191,0.338
7825947,5075.0,4746.0,4505.0,0.812,0.434,-0.192,0.34
7825964,5049.0,4616.0,4427.0,0.81,0.435,-0.193,0.342
7825981,5175.0,4726.0,4279.0,0.809,0.436,-0.194,0.343
7825998,5119.0,4708.0,4295.0,0.807,0.437,-0.195,0.345
7826014,5173.0,4714.0,4235.0,0.806,0.438,-0.195,0.347
7826040,5117.0,4908.0,4235.0,0.804,0.44,-0.196,0.349
7826056,5061.0,4952.0,4183.0,0.802,0.441,-0.196,0.351
7826072,5055.0,5066.0,4191.0,0.8,0.443,-0.196,0.353
7826088,5039.0,4960.0,4185.0,0.799,0.444,-0.197,0.356
7826104,5103.0,4996.0,4159.0,0.797,0.445,-0.197,0.358
7826120,4943.0,4984.0,4205.0,0.796,0.446,-0.197,0.359
7826146,5009.0,4928.0,4149.0,0.794,0.448,-0.197,0.361
7826162,4983.0,5060.0,4241.0,0.793,0.449,-0.197,0.362
7826178,4999.0,4922.0,4233.0,0.792,0.45,-0.197,0.363
7826194,5129.0,4942.0,4365.0,0.791,0.451,-0.198,0.363
7826210,5153.0,4840.0,4217.0,0.79,0.451,-0.198,0.363
7826226,5051.0,4884.0,4247.0,0.79,0.453,-0.198,0.363
7826252,5307.0,5046.0,4179.0,0.789,0.454,-0.199,0.363
7826268,5383.0,5000.0,4047.0,0.789,0.454,-0.2,0.363
7826286,5425.0,4872.0,4039.0,0.789,0.454,-0.201,0.362
7826302,5405.0,4798.0,4065.0,0.789,0.454,-0.201,0.362
7826318,5367.0,4814.0,4097.0,0.789,0.454,-0.202,0.361
7826334,5349.0,4870.0,4187.0,0.789,0.454,-0.202,0.361
7826351,5447.0,4820.0,4103.0,0.79,0.454,-0.203,0.36
7826367,5485.0,4632.0,4021.0,0.79,0.453,-0.203,0.36
7826393,5553.0,4592.0,3945.0,0.79,0.453,-0.204,0.36
7826409,5517.0,4584.0,4025.0,0.79,0.453,-0.204,0.36
7826425,5469.0,4664.0,4109.0,0.79,0.452,-0.204,0.359
7826441,5401.0,4590.0,4181.0,0.79,0.452,-0.205,0.36
7826457,5549.0,4998.0,4419.0,0.79,0.451,-0.205,0.36
7826473,5479.0,4906.0,4345.0,0.791,0.45,-0.206,0.36
7826499,5083.0,4354.0,4175.0,0.792,0.448,-0.207,0.36
7826515,5215.0,4402.0,4245.0,0.792,0.447,-0.208,0.36
7826531,5291.0,4532.0,4227.0,0.792,0.446,-0.209,0.36
7826547,5295.0,4542.0,4211.0,0.792,0.446,-0.21,0.36
7826563,5357.0,4594.0,4267.0,0.792,0.446,-0.211,0.36
7826579,5443.0,4928.0,4173.0,0.792,0.445,-0.212,0.36
7826605,5271.0,4648.0,4169.0,0.792,0.444,-0.213,0.36
7826621,5331.0,4418.0,4107.0,0.792,0.444,-0.214,0.361
7826637,5281.0,4458.0,4201.0,0.792,0.444,-0.214,0.361
7826653,5257.0,4444.0,4245.0,0.791,0.444,-0.215,0.362
7826669,5411.0,4528.0,4163.0,0.791,0.444,-0.216,0.362
7826695,5301.0,4544.0,4219.0,0.79,0.444,-0.216,0.363
7826711,5445.0,4636.0,4209.0,0.79,0.444,-0.217,0.363
7826727,5483.0,4550.0,4209.0,0.789,0.445,-0.218,0.364
7826743,5655.0,4570.0,4115.0,0.788,0.445,-0.219,0.365
7826759,5657.0,4806.0,4171.0,0.787,0.445,-0.219,0.366
7826775,5683.0,4598.0,4237.0,0.787,0.445,-0.22,0.367
7826801,5583.0,4484.0,4187.0,0.786,0.445,-0.22,0.368
7826817,5841.0,4558.0,4311.0,0.786,0.445,-0.219,0.369
7826833,5807.0,4460.0,4433.0,0.787,0.444,-0.217,0.369
7826849,5227.0,4478.0,4481.0,0.788,0.444,-0.214,0.37
7826865,4887.0,4740.0,4225.0,0.789,0.444,-0.211,0.369
7826882,4849.0,4498.0,3855.0,0.789,0.445,-0.209,0.368
7826898,5099.0,4794.0,3719.0,0.791,0.445,-0.207,0.366
7826924,5261.0,4794.0,3853.0,0.792,0.446,-0.205,0.364
7826940,5327.0,5144.0,4085.0,0.793,0.446,-0.203,0.362
7826956,5301.0,4970.0,4009.0,0.794,0.446,-0.202,0.36
7826972,5469.0,4598.0,3797.0,0.795,0.448,-0.2,0.358
7826988,6131.0,5384.0,3901.0,0.796,0.448,-0.198,0.356
7827004,6291.0,5490.0,4379.0,0.797,0.447,-0.194,0.356
7827030,5925.0,5396.0,4389.0,0.8,0.443,-0.191,0.357
7827046,5869.0,4946.0,4677.0,0.803,0.439,-0.186,0.358
7827062,6217.0,5440.0,4705.0,0.807,0.433,-0.181,0.358
7827078,6009.0,5238.0,4813.0,0.811,0.427,-0.175,0.359
7827094,5859.0,5002.0,4963.0,0.816,0.421,-0.167,0.36
7827110,5425.0,5136.0,5153.0,0.82,0.416,-0.157,0.361
7827136,5449.0,5050.0,5563.0,0.824,0.411,-0.146,0.362
7827152,4897.0,5300.0,5483.0,0.828,0.406,-0.134,0.363
7827168,4847.0,4908.0,5609.0,0.831,0.4,-0.121,0.366
7827184,4195.0,5272.0,5249.0,0.835,0.395,-0.107,0.369
7827200,3021.0,4196.0,5641.0,0.837,0.39,-0.094,0.372
7827226,2807.0,3250.0,5885.0,0.838,0.387,-0.082,0.375
7827242,2933.0,3504.0,6033.0,0.839,0.386,-0.07,0.377
7827258,2443.0,4150.0,6105.0,0.838,0.389,-0.057,0.378
7827274,2961.0,5264.0,6089.0,0.837,0.394,-0.045,0.377
7827290,3329.0,6150.0,5893.0,0.837,0.398,-0.034,0.375
7827306,2947.0,6784.0,5579.0,0.837,0.402,-0.023,0.371
7827332,2725.0,6460.0,5263.0,0.837,0.405,-0.014,0.367
7827348,2279.0,5788.0,5001.0,0.838,0.409,-0.005,0.362
7827364,1931.0,5290.0,4911.0,0.838,0.414,0.004,0.355
7827380,1781.0,5434.0,5027.0,0.838,0.421,0.012,0.347
7827396,2043.0,6202.0,5045.0,0.837,0.429,0.02,0.338
7827412,1873.0,6304.0,4841.0,0.837,0.437,0.027,0.328
7827438,1859.0,6142.0,4717.0,0.837,0.445,0.034,0.318
7827454,1509.0,5812.0,4453.0,0.836,0.454,0.041,0.307
7827470,963.0,5620.0,4089.0,0.833,0.465,0.048,0.294
7827486,629.0,6268.0,3697.0,0.83,0.479,0.053,0.281
7827502,903.0,7576.0,3489.0,0.827,0.492,0.058,0.268
7827518,1049.0,8060.0,3483.0,0.825,0.501,0.062,0.255
7827544,849.0,7590.0,3653.0,0.824,0.506,0.066,0.244
7827560,887.0,6872.0,4049.0,0.825,0.51,0.069,0.234
7827576,833.0,6484.0,4271.0,0.824,0.516,0.073,0.225
7827592,1093.0,6658.0,4375.0,0.821,0.523,0.078,0.215
7827608,1041.0,7062.0,4399.0,0.818,0.531,0.084,0.205
7827634,973.0,7900.0,4053.0,0.814,0.539,0.09,0.195
7827650,1263.0,8778.0,4177.0,0.811,0.546,0.097,0.186
7827666,1153.0,8590.0,4409.0,0.808,0.551,0.106,0.178
7827682,759.0,8608.0,4381.0,0.805,0.557,0.115,0.17
7827698,569.0,8272.0,4547.0,0.801,0.563,0.125,0.163
7827714,-27.0,9162.0,3851.0,0.795,0.57,0.137,0.154
7827740,-599.0,9222.0,3211.0,0.791,0.576,0.147,0.144
7827756,-695.0,9710.0,2643.0,0.787,0.581,0.157,0.136
7827772,-1245.0,10340.0,1721.0,0.786,0.582,0.166,0.127
7827788,-1507.0,9562.0,1791.0,0.787,0.58,0.175,0.117
7827804,-1521.0,8914.0,2139.0,0.788,0.577,0.185,0.107
7827820,-1901.0,9594.0,2181.0,0.79,0.574,0.197,0.094
7827836,-2333.0,9522.0,1799.0,0.793,0.567,0.209,0.082
7827862,-2229.0,8518.0,1721.0,0.797,0.557,0.222,0.071
7827878,-2439.0,8138.0,1665.0,0.803,0.545,0.234,0.061
7827894,-2867.0,6796.0,1849.0,0.81,0.529,0.247,0.052
7827910,-3119.0,5478.0,1611.0,0.818,0.512,0.257,0.043
7827926,-2997.0,5060.0,1155.0,0.826,0.495,0.266,0.035
7827942,-3149.0,5048.0,1009.0,0.834,0.479,0.273,0.027
7827968,-3311.0,3816.0,865.0,0.842,0.463,0.277,0.02
7827984,-3449.0,3312.0,817.0,0.848,0.45,0.281,0.013
7828001,-3729.0,3902.0,1059.0,0.852,0.441,0.282,0.004
7828018,-3067.0,5064.0,2491.0,0.856,0.432,0.283,-0.003
7828034,-3393.0,3486.0,3101.0,0.861,0.424,0.281,-0.006
7828050,-2947.0,1900.0,3601.0,0.864,0.42,0.279,-0.007
7828066,-3147.0,2272.0,3979.0,0.865,0.418,0.277,-0.007
7828092,-2577.0,4764.0,4799.0,0.867,0.416,0.276,-0.006
7828109,-1095.0,5752.0,6227.0,0.868,0.413,0.276,-0.003
7828125,-1775.0,6970.0,7159.0,0.866,0.413,0.281,-0.001
7828141,-3901.0,8278.0,6305.0,0.864,0.415,0.286,0.001
7828157,-4145.0,8372.0,4549.0,0.863,0.415,0.288,0.003
7828173,-3943.0,7424.0,3075.0,0.864,0.413,0.29,0.006
7828199,-4081.0,5828.0,2451.0,0.865,0.408,0.291,0.009
7828215,-3969.0,5234.0,3025.0,0.866,0.406,0.291,0.011
7828231,-4063.0,5596.0,3903.0,0.867,0.405,0.29,0.012
7828248,-4211.0,5794.0,4315.0,0.868,0.405,0.288,0.013
7828264,-4297.0,6080.0,4463.0,0.868,0.405,0.286,0.014
7828282,-4295.0,6026.0,4355.0,0.869,0.404,0.284,0.014
7828298,-4223.0,6154.0,4129.0,0.87,0.404,0.283,0.014
7828314,-4367.0,6104.0,4063.0,0.87,0.404,0.282,0.012
7828340,-4243.0,5920.0,4377.0,0.871,0.404,0.281,0.01
7828356,-3929.0,6054.0,4323.0,0.871,0.404,0.28,0.008
7828372,-3975.0,6136.0,4073.0,0.871,0.404,0.279,0.006
7828388,-3805.0,5506.0,3813.0,0.871,0.403,0.279,0.004
7828404,-3863.0,4950.0,3583.0,0.871,0.404,0.279,0.002
7828420,-3697.0,5044.0,3701.0,0.87,0.407,0.278,-0.001
7828446,-3557.0,5784.0,3843.0,0.869,0.41,0.277,-0.003
7828462,-3729.0,6090.0,3869.0,0.868,0.413,0.276,-0.005
7828478,-3931.0,6180.0,3917.0,0.867,0.416,0.275,-0.006
7828494,-4031.0,5776.0,3947.0,0.866,0.418,0.274,-0.008
7828510,-3891.0,5882.0,3923.0,0.865,0.421,0.274,-0.01
7828526,-3853.0,6508.0,4103.0,0.863,0.424,0.273,-0.011
7828552,-3987.0,6350.0,4183.0,0.863,0.426,0.273,-0.013
7828568,-4009.0,6554.0,3919.0,0.863,0.425,0.273,-0.014
7828584,-3855.0,5748.0,4067.0,0.865,0.421,0.274,-0.013
7828600,-4263.0,4950.0,4149.0,0.864,0.421,0.275,-0.015
7828616,-4131.0,6558.0,3747.0,0.863,0.423,0.275,-0.017
7828632,-4143.0,6322.0,3583.0,0.861,0.427,0.276,-0.018
7828658,-3979.0,6568.0,3477.0,0.859,0.431,0.277,-0.02
7828674,-3843.0,6240.0,3679.0,0.857,0.434,0.277,-0.021
7828690,-3815.0,6660.0,3861.0,0.856,0.437,0.276,-0.022
7828706,-3765.0,7108.0,3783.0,0.855,0.438,0.276,-0.023
7828722,-3673.0,7008.0,3663.0,0.855,0.439,0.275,-0.023
7828748,-3789.0,6776.0,3699.0,0.856,0.439,0.273,-0.023
7828765,-3869.0,6706.0,3833.0,0.856,0.438,0.272,-0.023
7828781,-4013.0,6688.0,3969.0,0.857,0.437,0.272,-0.023
7828797,-3959.0,6736.0,3783.0,0.858,0.436,0.271,-0.023
7828813,-4007.0,6732.0,3771.0,0.858,0.435,0.271,-0.023
7828829,-4059.0,6622.0,3771.0,0.858,0.434,0.272,-0.023
7828845,-3841.0,6338.0,3749.0,0.859,0.433,0.272,-0.023
7828871,-3727.0,6146.0,3609.0,0.859,0.432,0.273,-0.023
7828887,-3745.0,5980.0,3781.0,0.86,0.431,0.273,-0.023
7828903,-3605.0,6206.0,3915.0,0.861,0.429,0.272,-0.023
7828919,-3631.0,5854.0,3769.0,0.863,0.427,0.271,-0.023
7828935,-3705.0,5744.0,3715.0,0.864,0.424,0.269,-0.023
7828951,-3723.0,5906.0,3833.0,0.866,0.421,0.267,-0.023
7828977,-3743.0,6046.0,4167.0,0.869,0.419,0.264,-0.022
7828993,-3799.0,5810.0,4457.0,0.871,0.415,0.262,-0.022
7829009,-3951.0,5542.0,4693.0,0.873,0.412,0.26,-0.022
7829025,-4041.0,5546.0,4735.0,0.875,0.409,0.258,-0.022
7829041,-4097.0,5716.0,4615.0,0.877,0.405,0.258,-0.022
7829057,-3917.0,5786.0,4971.0,0.878,0.402,0.258,-0.022
7829083,-4107.0,5552.0,4657.0,0.879,0.4,0.258,-0.022
7829100,-3821.0,5786.0,4685.0,0.881,0.397,0.259,-0.021
7829117,-4095.0,4890.0,4411.0,0.882,0.393,0.259,-0.02
7829133,-4009.0,5150.0,4505.0,0.883,0.39,0.26,-0.019
7829149,-4149.0,5430.0,4531.0,0.884,0.387,0.26,-0.018
7829165,-4137.0,5336.0,4475.0,0.886,0.384,0.26,-0.017
7829181,-3985.0,5438.0,4399.0,0.887,0.381,0.26,-0.015
7829207,-3899.0,5602.0,4513.0,0.889,0.377,0.259,-0.013
7829223,-3663.0,5278.0,4873.0,0.891,0.373,0.259,-0.011
7829239,-3909.0,5166.0,4829.0,0.893,0.37,0.258,-0.008
7829255,-3933.0,5608.0,4765.0,0.894,0.367,0.257,-0.004
7829271,-3913.0,5898.0,4597.0,0.896,0.363,0.256,-0.0
7829287,-3883.0,5808.0,4273.0,0.898,0.358,0.254,0.004
7829313,-3923.0,4858.0,4235.0,0.9,0.355,0.253,0.008
7829329,-3609.0,4792.0,3899.0,0.901,0.354,0.251,0.01
7829345,-3761.0,4526.0,4069.0,0.901,0.355,0.25,0.013
7829361,-3459.0,4738.0,4187.0,0.9,0.358,0.249,0.014
7829377,-3797.0,3364.0,4039.0,0.897,0.366,0.247,0.014
7829393,-4219.0,1858.0,3503.0,0.89,0.385,0.243,0.013
7829419,-3691.0,2904.0,3429.0,0.879,0.414,0.237,0.009
7829435,-2977.0,9656.0,3497.0,0.868,0.439,0.231,0.005
7829451,-2607.0,8490.0,1693.0,0.861,0.456,0.224,0.003
7829467,-2465.0,10602.0,3231.0,0.855,0.469,0.22,0.001
7829483,-3117.0,7510.0,3447.0,0.851,0.48,0.212,0.001
7829509,-1923.0,10132.0,4283.0,0.849,0.486,0.207,0.001
7829525,-2737.0,8916.0,5533.0,0.85,0.486,0.205,0.002
7829541,-2169.0,7474.0,5339.0,0.85,0.485,0.205,0.002
7829557,-2761.0,7910.0,6747.0,0.85,0.485,0.207,0.004
7829573,-3223.0,9592.0,5467.0,0.851,0.481,0.211,0.006
7829589,-2427.0,7056.0,3467.0,0.855,0.472,0.216,0.007
7829615,-1305.0,4454.0,2819.0,0.858,0.463,0.22,0.008
7829631,-1801.0,5792.0,4619.0,0.86,0.46,0.223,0.008
7829647,-2793.0,9250.0,5755.0,0.861,0.456,0.226,0.007
7829664,-2667.0,8950.0,4577.0,0.863,0.451,0.229,0.006
7829680,-3551.0,7128.0,5241.0,0.864,0.447,0.233,0.006
7829696,-3631.0,7130.0,5115.0,0.865,0.442,0.237,0.006
7829712,-4077.0,7010.0,5441.0,0.866,0.437,0.242,0.006
7829738,-4209.0,6576.0,5431.0,0.867,0.431,0.249,0.006
7829754,-4135.0,7052.0,5577.0,0.869,0.424,0.256,0.007
7829770,-4231.0,7220.0,5837.0,0.87,0.417,0.264,0.007
7829786,-4435.0,8368.0,6153.0,0.87,0.41,0.274,0.007
7829802,-4547.0,7606.0,6095.0,0.87,0.402,0.285,0.006
7829818,-4755.0,7810.0,6427.0,0.87,0.394,0.298,0.004
7829845,-4913.0,8408.0,5867.0,0.87,0.381,0.312,0.002
7829861,-5675.0,7606.0,5079.0,0.872,0.365,0.327,-0.002
7829877,-5453.0,7252.0,3757.0,0.873,0.346,0.343,-0.007
7829893,-5497.0,6096.0,3451.0,0.874,0.328,0.359,-0.013
7829909,-5323.0,5940.0,3491.0,0.874,0.309,0.375,-0.021
7829935,-5289.0,3954.0,4535.0,0.873,0.291,0.39,-0.028
7829951,-6315.0,4368.0,5313.0,0.871,0.275,0.404,-0.036
7829967,-6147.0,4160.0,5175.0,0.87,0.259,0.418,-0.042
7829983,-6457.0,4680.0,4027.0,0.867,0.244,0.431,-0.049
7829999,-6907.0,9630.0,1871.0,0.866,0.225,0.444,-0.057
7830015,-5109.0,2052.0,2741.0,0.865,0.2,0.456,-0.064
7830031,-4535.0,940.0,977.0,0.863,0.178,0.467,-0.072
7830058,-5551.0,444.0,1073.0,0.862,0.16,0.474,-0.08
7830074,-5681.0,-532.0,2021.0,0.86,0.148,0.48,-0.088
7830090,-5695.0,-284.0,2815.0,0.858,0.142,0.484,-0.097
7830106,-5737.0,90.0,2991.0,0.856,0.137,0.488,-0.105
7830122,-5841.0,-352.0,3085.0,0.853,0.132,0.492,-0.112
7830138,-5779.0,798.0,3013.0,0.852,0.126,0.495,-0.119
7830164,-7195.0,802.0,3301.0,0.851,0.118,0.497,-0.125
7830180,-6425.0,-3314.0,2875.0,0.849,0.117,0.498,-0.133
7830196,-6509.0,-2282.0,1723.0,0.848,0.121,0.497,-0.142
7830212,-6413.0,-1198.0,2045.0,0.846,0.129,0.494,-0.152
7830229,-5907.0,818.0,2881.0,0.844,0.137,0.492,-0.163
7830246,-6439.0,1768.0,3669.0,0.842,0.142,0.491,-0.171
7830263,-6899.0,2236.0,4137.0,0.841,0.144,0.491,-0.177
7830280,-7017.0,2986.0,3941.0,0.84,0.143,0.491,-0.183
7830298,-7059.0,2728.0,4065.0,0.84,0.136,0.492,-0.187
7830314,-7515.0,3494.0,4413.0,0.839,0.124,0.494,-0.19
7830340,-7757.0,1036.0,4569.0,0.839,0.106,0.498,-0.192
7830356,-7599.0,760.0,4875.0,0.838,0.088,0.502,-0.195
7830372,-7015.0,1834.0,4307.0,0.837,0.065,0.506,-0.196
7830388,-6611.0,558.0,3735.0,0.836,0.038,0.512,-0.196
7830404,-7057.0,-1892.0,3243.0,0.834,0.009,0.517,-0.195
7830430,-7101.0,-3054.0,3085.0,0.831,-0.018,0.521,-0.195
7830447,-7409.0,-3128.0,3325.0,0.828,-0.042,0.523,-0.197
7830464,-7445.0,-1930.0,3825.0,0.826,-0.063,0.524,-0.2
7830481,-7429.0,-1714.0,4267.0,0.823,-0.087,0.524,-0.201
7830498,-7561.0,-2512.0,3811.0,0.819,-0.112,0.525,-0.2
7830515,-7571.0,-3836.0,3117.0,0.816,-0.139,0.526,-0.198
7830532,-7079.0,-4772.0,2823.0,0.811,-0.164,0.526,-0.196
7830548,-6617.0,-5228.0,2589.0,0.808,-0.186,0.524,-0.195
7830565,-6547.0,-5818.0,2539.0,0.805,-0.205,0.522,-0.195
7830581,-6503.0,-5822.0,2689.0,0.802,-0.22,0.52,-0.194
7830598,-6583.0,-6418.0,2729.0,0.8,-0.233,0.517,-0.193
7830624,-6421.0,-6246.0,2291.0,0.799,-0.243,0.515,-0.192
7830640,-6631.0,-6068.0,2487.0,0.799,-0.251,0.512,-0.192
7830656,-6435.0,-5340.0,2719.0,0.799,-0.258,0.509,-0.192
7830672,-6777.0,-7488.0,2269.0,0.8,-0.26,0.505,-0.193
7830688,-6495.0,-7222.0,2411.0,0.803,-0.258,0.5,-0.197
7830704,-6375.0,-6364.0,2815.0,0.806,-0.251,0.497,-0.203
7830730,-6007.0,-5198.0,3455.0,0.809,-0.242,0.494,-0.208
7830747,-5577.0,-4690.0,4123.0,0.811,-0.232,0.492,-0.213
7830764,-5715.0,-4368.0,4909.0,0.813,-0.222,0.493,-0.217
7830781,-5713.0,-4632.0,4635.0,0.813,-0.213,0.494,-0.221
7830798,-5787.0,-4578.0,3841.0,0.812,-0.205,0.497,-0.226
7830815,-5687.0,-4482.0,3297.0,0.811,-0.197,0.5,-0.232
7830832,-5953.0,-4680.0,3491.0,0.809,-0.188,0.503,-0.238
7830849,-6261.0,-4408.0,3363.0,0.808,-0.178,0.506,-0.244
7830866,-6597.0,-3786.0,3373.0,0.807,-0.169,0.508,-0.25
7830883,-6423.0,-2998.0,3309.0,0.806,-0.16,0.509,-0.256
7830900,-6231.0,-2598.0,3185.0,0.805,-0.151,0.51,-0.263
7830916,-6161.0,-2104.0,3809.0,0.804,-0.142,0.51,-0.27
7830943,-6319.0,-2892.0,4305.0,0.803,-0.135,0.511,-0.276
7830959,-6575.0,-3152.0,3541.0,0.801,-0.13,0.511,-0.283
7830975,-5791.0,-2566.0,3833.0,0.8,-0.125,0.512,-0.288
7830991,-6395.0,-2960.0,4163.0,0.799,-0.121,0.512,-0.292
7831007,-6273.0,-3006.0,4183.0,0.799,-0.117,0.511,-0.295
7831023,-6265.0,-3184.0,4067.0,0.799,-0.116,0.51,-0.296
7831049,-4827.0,-2744.0,3121.0,0.8,-0.115,0.509,-0.297
7831065,-5157.0,-2382.0,3091.0,0.8,-0.116,0.508,-0.297
7831082,-5457.0,-3374.0,3511.0,0.801,-0.117,0.507,-0.295
7831098,-5671.0,-3830.0,4015.0,0.803,-0.12,0.506,-0.291
7831114,-6057.0,-4504.0,3759.0,0.807,-0.124,0.503,-0.284
7831131,-5739.0,-4476.0,2751.0,0.811,-0.127,0.5,-0.275
7831148,-5859.0,-4714.0,2357.0,0.817,-0.129,0.496,-0.265
7831165,-5827.0,-4078.0,2421.0,0.823,-0.129,0.491,-0.255
7831181,-5311.0,-4004.0,2121.0,0.828,-0.13,0.488,-0.246
7831208,-5039.0,-3864.0,1885.0,0.832,-0.13,0.484,-0.237
7831224,-5407.0,-3442.0,2581.0,0.836,-0.129,0.481,-0.229
7831240,-5285.0,-3050.0,2925.0,0.84,-0.128,0.479,-0.222
7831256,-5923.0,-2550.0,3439.0,0.842,-0.128,0.478,-0.217
7831272,-6289.0,-1490.0,4145.0,0.844,-0.13,0.476,-0.212
7831288,-6155.0,-762.0,3941.0,0.844,-0.135,0.476,-0.207
7831314,-6021.0,-2080.0,4697.0,0.844,-0.142,0.476,-0.201
7831331,-5455.0,-2562.0,4379.0,0.843,-0.149,0.478,-0.196
7831348,-4987.0,-2318.0,3451.0,0.841,-0.156,0.482,-0.192
7831365,-5465.0,-2654.0,3603.0,0.837,-0.164,0.486,-0.188
7831382,-4969.0,-2318.0,2635.0,0.833,-0.173,0.492,-0.185
7831399,-5157.0,-2148.0,3401.0,0.827,-0.182,0.499,-0.181
7831416,-5129.0,-1778.0,2211.0,0.821,-0.196,0.507,-0.177
7831433,-5219.0,-6360.0,3323.0,0.815,-0.209,0.512,-0.172
7831449,-4283.0,-2026.0,2205.0,0.81,-0.221,0.516,-0.17
7831466,-3279.0,-528.0,1787.0,0.802,-0.239,0.522,-0.165
7831483,-4219.0,-1102.0,-79.0,0.791,-0.264,0.527,-0.163
7831500,-4005.0,-5498.0,-851.0,0.78,-0.29,0.531,-0.162
7831526,-4649.0,-10046.0,81.0,0.774,-0.306,0.529,-0.168
7831542,-2759.0,-3196.0,479.0,0.769,-0.321,0.522,-0.182
7831558,-259.0,8542.0,359.0,0.754,-0.356,0.516,-0.197
7831574,-2213.0,-8202.0,1725.0,0.731,-0.395,0.518,-0.201
7831591,-4855.0,-11458.0,531.0,0.712,-0.427,0.517,-0.206
7831608,-4733.0,-11352.0,-2559.0,0.698,-0.454,0.512,-0.212
7831625,-3627.0,-10486.0,-569.0,0.687,-0.472,0.506,-0.222
7831651,-4719.0,-10412.0,-2827.0,0.676,-0.492,0.498,-0.23
7831668,-5101.0,-13464.0,-2539.0,0.666,-0.511,0.491,-0.233
7831685,-3083.0,-12154.0,981.0,0.657,-0.524,0.489,-0.233
7831701,-3351.0,-7308.0,-933.0,0.645,-0.54,0.49,-0.231
7831717,-3727.0,-6392.0,-1561.0,0.63,-0.557,0.491,-0.228
7831733,-3513.0,-7674.0,-1133.0,0.619,-0.571,0.491,-0.222
7831749,-3499.0,-7474.0,-749.0,0.609,-0.582,0.492,-0.218
7831766,-3259.0,-6782.0,-1459.0,0.601,-0.592,0.493,-0.214
7831783,-3035.0,-6962.0,-1307.0,0.593,-0.602,0.494,-0.208
7831809,-3199.0,-8012.0,-2469.0,0.586,-0.609,0.494,-0.203
7831825,-2741.0,-8018.0,-2071.0,0.582,-0.614,0.495,-0.2
7831841,-2445.0,-7344.0,-1599.0,0.577,-0.618,0.496,-0.198
7831857,-2583.0,-6622.0,-1703.0,0.57,-0.622,0.499,-0.196
7831873,-3007.0,-7804.0,-1433.0,0.564,-0.625,0.503,-0.196
7831899,-2581.0,-7970.0,-1527.0,0.56,-0.626,0.506,-0.198
7831916,-2535.0,-7788.0,-1973.0,0.556,-0.625,0.509,-0.202
7831932,-1775.0,-7618.0,-1419.0,0.554,-0.623,0.51,-0.21
7831949,-2173.0,-6904.0,-2385.0,0.553,-0.62,0.511,-0.219
7831966,-2247.0,-6692.0,-3171.0,0.55,-0.62,0.512,-0.227
7831982,-865.0,-5920.0,-3483.0,0.545,-0.622,0.511,-0.234
7831999,-1521.0,-7152.0,-2919.0,0.539,-0.625,0.51,-0.241
7832016,-1261.0,-6814.0,-2241.0,0.535,-0.626,0.51,-0.248
7832033,-1595.0,-7012.0,-2045.0,0.531,-0.628,0.509,-0.255
7832049,-1647.0,-7810.0,-2147.0,0.526,-0.63,0.508,-0.262
7832075,-1489.0,-7496.0,-2731.0,0.522,-0.632,0.506,-0.268
7832091,-1231.0,-7694.0,-3221.0,0.517,-0.635,0.504,-0.275
7832107,-1335.0,-8296.0,-3317.0,0.513,-0.637,0.502,-0.281
7832123,-1325.0,-8506.0,-3801.0,0.508,-0.639,0.501,-0.287
7832139,-1681.0,-9576.0,-3775.0,0.503,-0.642,0.5,-0.291
7832165,-1773.0,-10574.0,-4079.0,0.497,-0.646,0.499,-0.295
7832182,-1597.0,-10720.0,-4449.0,0.491,-0.649,0.499,-0.297
7832199,-1449.0,-11122.0,-4929.0,0.485,-0.652,0.5,-0.297
7832216,-1413.0,-11564.0,-5059.0,0.48,-0.655,0.503,-0.296
7832233,-1395.0,-11454.0,-5131.0,0.475,-0.658,0.505,-0.293
7832249,-1261.0,-11226.0,-5127.0,0.472,-0.659,0.509,-0.289
7832265,-1211.0,-10634.0,-4605.0,0.472,-0.659,0.512,-0.283
7832282,-1375.0,-9946.0,-4357.0,0.473,-0.659,0.516,-0.276
7832303,-1259.0,-9580.0,-4595.0,0.477,-0.657,0.519,-0.267
7832319,-1335.0,-9234.0,-4447.0,0.482,-0.655,0.522,-0.258
7832336,-1485.0,-8374.0,-4223.0,0.487,-0.653,0.525,-0.247
7832353,-1577.0,-8880.0,-4025.0,0.492,-0.65,0.529,-0.236
7832369,-1559.0,-7824.0,-3767.0,0.497,-0.647,0.532,-0.225
7832385,-1975.0,-7518.0,-3695.0,0.503,-0.644,0.536,-0.214
7832411,-1951.0,-7420.0,-3865.0,0.509,-0.64,0.539,-0.202
7832428,-2269.0,-7412.0,-3503.0,0.514,-0.636,0.543,-0.191
7832444,-2639.0,-6714.0,-3243.0,0.519,-0.633,0.547,-0.178
7832460,-2733.0,-6080.0,-3089.0,0.522,-0.63,0.551,-0.165
7832476,-2965.0,-7086.0,-3049.0,0.525,-0.628,0.555,-0.15
7832493,-3013.0,-5902.0,-3825.0,0.527,-0.626,0.559,-0.135
7832519,-3339.0,-5028.0,-3555.0,0.53,-0.624,0.562,-0.119
7832535,-3625.0,-5240.0,-3471.0,0.532,-0.622,0.565,-0.104
7832551,-3755.0,-4300.0,-3297.0,0.535,-0.62,0.567,-0.088
7832567,-3769.0,-4242.0,-2943.0,0.539,-0.617,0.569,-0.073
7832583,-3435.0,-4056.0,-2581.0,0.543,-0.614,0.569,-0.058
7832599,-3515.0,-4504.0,-2407.0,0.548,-0.611,0.57,-0.043
7832615,-3429.0,-4180.0,-1563.0,0.552,-0.609,0.569,-0.028
7832642,-2833.0,-3610.0,-1191.0,0.555,-0.607,0.569,-0.014
7832658,-3049.0,-3674.0,-1263.0,0.556,-0.607,0.568,-0.002
7832674,-2811.0,-3600.0,-1329.0,0.556,-0.608,0.567,0.007
7832690,-2681.0,-3230.0,-1143.0,0.556,-0.609,0.565,0.014
7832706,-2495.0,-2482.0,-739.0,0.557,-0.61,0.564,0.018
7832722,-2941.0,-3968.0,-193.0,0.557,-0.611,0.563,0.018
7832748,-2975.0,-3796.0,-981.0,0.557,-0.612,0.561,0.015
7832764,-3337.0,-2542.0,-1429.0,0.556,-0.615,0.559,0.008
7832781,-3233.0,-3752.0,-1779.0,0.554,-0.618,0.558,-0.002
7832798,-3477.0,-3862.0,-2183.0,0.55,-0.622,0.557,-0.013
7832815,-3937.0,-3852.0,-2497.0,0.545,-0.627,0.556,-0.026
7832832,-3003.0,-3394.0,-1697.0,0.538,-0.633,0.555,-0.041
7832848,-3503.0,-2632.0,-1951.0,0.529,-0.64,0.555,-0.058
7832865,-4269.0,-3858.0,-3405.0,0.521,-0.645,0.553,-0.074
7832882,-4393.0,-7010.0,-4681.0,0.516,-0.649,0.552,-0.092
7832908,-3391.0,-7862.0,-4497.0,0.514,-0.649,0.55,-0.111
7832924,-3399.0,-7858.0,-3155.0,0.512,-0.647,0.55,-0.131
7832940,-3707.0,-7476.0,-3399.0,0.509,-0.646,0.549,-0.149
7832956,-3237.0,-5932.0,-3329.0,0.504,-0.647,0.548,-0.164
7832972,-3073.0,-7362.0,-4671.0,0.496,-0.65,0.547,-0.178
7832988,-2787.0,-6380.0,-4445.0,0.49,-0.652,0.545,-0.192
7833005,-2209.0,-7024.0,-4559.0,0.484,-0.654,0.543,-0.206
7833031,-2043.0,-8234.0,-4081.0,0.48,-0.655,0.541,-0.22
7833048,-2077.0,-8036.0,-3901.0,0.478,-0.654,0.538,-0.234
7833065,-2135.0,-6892.0,-3279.0,0.475,-0.654,0.535,-0.245
7833082,-1565.0,-6302.0,-3929.0,0.47,-0.656,0.533,-0.255
7833098,-1403.0,-7760.0,-3973.0,0.466,-0.657,0.53,-0.264
