timestamp,ax,ay,az,q0,q1,q2,q3
4931069,3546.0,5096.0,5467.0,0.909,0.355,-0.195,0.099
4931085,3572.0,5010.0,5491.0,0.909,0.355,-0.195,0.099
4931102,3548.0,4946.0,5533.0,0.909,0.355,-0.195,0.1
4931119,3506.0,4992.0,5487.0,0.909,0.356,-0.195,0.1
4931136,3516.0,5066.0,5465.0,0.909,0.356,-0.195,0.1
4931152,3536.0,5012.0,5471.0,0.908,0.356,-0.195,0.1
4931173,3544.0,4956.0,5505.0,0.908,0.356,-0.195,0.1
4931191,3540.0,4988.0,5483.0,0.908,0.356,-0.195,0.1
4931207,3548.0,5000.0,5445.0,0.908,0.356,-0.195,0.1
4931223,3506.0,4992.0,5473.0,0.908,0.357,-0.195,0.1
4931249,3482.0,5022.0,5441.0,0.908,0.357,-0.194,0.1
4931265,3602.0,4992.0,5443.0,0.908,0.357,-0.194,0.1
4931281,3508.0,4958.0,5443.0,0.908,0.358,-0.193,0.1
4931297,3496.0,4974.0,5437.0,0.908,0.358,-0.193,0.1
4931313,3446.0,5096.0,5437.0,0.908,0.358,-0.192,0.1
4931329,3440.0,5030.0,5461.0,0.908,0.359,-0.192,0.1
4931355,3444.0,5028.0,5537.0,0.908,0.359,-0.192,0.1
4931372,3434.0,5068.0,5457.0,0.908,0.359,-0.191,0.101
4931389,3440.0,5096.0,5433.0,0.908,0.36,-0.191,0.101
4931405,3484.0,5100.0,5495.0,0.908,0.36,-0.191,0.101
4931421,3438.0,5078.0,5439.0,0.908,0.36,-0.191,0.101
4931438,3532.0,5108.0,5461.0,0.908,0.36,-0.191,0.101
4931454,3468.0,5078.0,5407.0,0.907,0.36,-0.19,0.101
4931471,3460.0,5116.0,5433.0,0.907,0.361,-0.19,0.101
4931497,3446.0,5064.0,5467.0,0.907,0.361,-0.19,0.101
4931513,3430.0,5046.0,5439.0,0.907,0.361,-0.19,0.102
4931529,3460.0,5034.0,5435.0,0.907,0.361,-0.19,0.102
4931546,3492.0,5112.0,5513.0,0.907,0.361,-0.19,0.102
4931562,3470.0,5096.0,5477.0,0.907,0.361,-0.19,0.102
4931578,3494.0,5078.0,5453.0,0.907,0.361,-0.19,0.102
4931595,3456.0,5040.0,5417.0,0.907,0.362,-0.19,0.102
4931621,3384.0,5152.0,5405.0,0.907,0.362,-0.189,0.102
4931637,3442.0,5106.0,5425.0,0.907,0.362,-0.189,0.102
4931654,3420.0,5070.0,5493.0,0.907,0.362,-0.189,0.102
4931670,3454.0,5026.0,5419.0,0.907,0.362,-0.189,0.103
4931690,3428.0,5154.0,5439.0,0.907,0.362,-0.189,0.103
4931706,3472.0,5030.0,5457.0,0.907,0.362,-0.189,0.103
4931723,3474.0,4998.0,5423.0,0.907,0.362,-0.189,0.103
4931739,3522.0,5082.0,5443.0,0.907,0.362,-0.189,0.103
4931755,3510.0,5062.0,5417.0,0.907,0.362,-0.189,0.103
4931771,3442.0,5120.0,5449.0,0.907,0.362,-0.189,0.103
4931798,3440.0,5012.0,5455.0,0.907,0.362,-0.189,0.103
4931815,3392.0,5086.0,5477.0,0.907,0.362,-0.189,0.104
4931832,3366.0,5080.0,5471.0,0.907,0.362,-0.189,0.104
4931848,3448.0,5122.0,5493.0,0.907,0.362,-0.189,0.104
4931864,3424.0,5098.0,5443.0,0.907,0.362,-0.189,0.104
4931880,3456.0,5078.0,5451.0,0.907,0.362,-0.189,0.104
4931896,3412.0,5076.0,5413.0,0.907,0.363,-0.188,0.104
4931922,3436.0,5146.0,5475.0,0.907,0.363,-0.188,0.104
4931939,3408.0,5096.0,5459.0,0.907,0.363,-0.188,0.104
4931955,3406.0,5122.0,5449.0,0.907,0.363,-0.188,0.105
4931972,3456.0,5062.0,5433.0,0.907,0.363,-0.188,0.105
4931988,3490.0,5108.0,5429.0,0.907,0.363,-0.188,0.105
4932004,3436.0,5104.0,5419.0,0.907,0.363,-0.188,0.105
4932020,3482.0,5078.0,5435.0,0.907,0.363,-0.188,0.105
4932046,3488.0,5064.0,5459.0,0.907,0.363,-0.188,0.105
4932062,3484.0,5132.0,5451.0,0.907,0.363,-0.188,0.105
4932078,3420.0,5102.0,5429.0,0.907,0.363,-0.188,0.106
4932095,3444.0,5068.0,5425.0,0.907,0.363,-0.188,0.106
4932111,3454.0,5084.0,5453.0,0.907,0.363,-0.188,0.106
4932127,3456.0,5006.0,5445.0,0.907,0.363,-0.188,0.106
4932143,3408.0,5052.0,5447.0,0.906,0.363,-0.188,0.106
4932170,3450.0,5090.0,5395.0,0.906,0.363,-0.188,0.106
4932187,3480.0,5094.0,5383.0,0.906,0.363,-0.188,0.106
4932203,3446.0,5122.0,5445.0,0.906,0.363,-0.188,0.106
4932220,3422.0,5048.0,5455.0,0.906,0.363,-0.187,0.106
4932236,3464.0,5106.0,5479.0,0.906,0.364,-0.187,0.106
4932252,3404.0,5090.0,5569.0,0.906,0.364,-0.187,0.106
4932268,3426.0,5150.0,5469.0,0.906,0.364,-0.187,0.106
4932294,3380.0,5108.0,5501.0,0.906,0.364,-0.187,0.107
4932310,3370.0,5086.0,5455.0,0.906,0.364,-0.187,0.107
4932327,3420.0,5066.0,5465.0,0.906,0.364,-0.187,0.107
4932344,3472.0,5102.0,5435.0,0.906,0.364,-0.187,0.107
4932361,3398.0,5078.0,5381.0,0.906,0.364,-0.187,0.107
4932378,3438.0,5148.0,5411.0,0.906,0.364,-0.187,0.107
4932394,3490.0,5046.0,5387.0,0.906,0.364,-0.187,0.107
4932410,3502.0,5144.0,5397.0,0.906,0.364,-0.187,0.107
4932426,3494.0,5038.0,5391.0,0.906,0.364,-0.186,0.107
4932452,3428.0,5098.0,5407.0,0.906,0.364,-0.186,0.107
4932469,3468.0,5084.0,5455.0,0.906,0.365,-0.186,0.107
4932486,3470.0,5048.0,5475.0,0.906,0.365,-0.186,0.108
4932502,3392.0,5124.0,5411.0,0.906,0.365,-0.186,0.108
4932518,3366.0,5128.0,5447.0,0.906,0.365,-0.186,0.108
4932535,3366.0,5120.0,5427.0,0.906,0.365,-0.186,0.108
4932551,3382.0,5156.0,5499.0,0.906,0.365,-0.185,0.108
4932577,3434.0,5134.0,5435.0,0.906,0.365,-0.185,0.108
4932594,3416.0,5080.0,5395.0,0.906,0.365,-0.185,0.108
4932611,3438.0,5130.0,5403.0,0.906,0.365,-0.185,0.108
4932628,3408.0,5076.0,5489.0,0.906,0.365,-0.185,0.108
4932645,3410.0,5104.0,5417.0,0.906,0.365,-0.185,0.108
4932662,3426.0,5160.0,5359.0,0.906,0.365,-0.185,0.109
4932678,3468.0,5170.0,5413.0,0.906,0.365,-0.185,0.109
4932695,3462.0,5108.0,5413.0,0.906,0.365,-0.185,0.109
4932711,3496.0,5052.0,5403.0,0.906,0.365,-0.185,0.109
4932728,3408.0,5076.0,5383.0,0.906,0.366,-0.185,0.109
4932754,3388.0,5158.0,5459.0,0.906,0.366,-0.185,0.109
4932770,3398.0,5076.0,5459.0,0.906,0.366,-0.185,0.109
4932786,3444.0,5094.0,5473.0,0.906,0.366,-0.185,0.109
4932803,3412.0,5102.0,5413.0,0.906,0.366,-0.185,0.11
4932819,3456.0,5094.0,5413.0,0.906,0.366,-0.184,0.11
4932835,3420.0,5078.0,5431.0,0.906,0.366,-0.184,0.11
4932851,3452.0,5122.0,5433.0,0.906,0.366,-0.184,0.11
4932877,3468.0,5122.0,5431.0,0.906,0.366,-0.184,0.11
4932894,3436.0,5098.0,5385.0,0.905,0.366,-0.183,0.11
4932911,3454.0,5148.0,5413.0,0.905,0.367,-0.183,0.11
4932927,3448.0,5118.0,5387.0,0.905,0.367,-0.183,0.111
4932943,3404.0,5128.0,5409.0,0.905,0.367,-0.182,0.111
4932959,3376.0,5172.0,5403.0,0.905,0.367,-0.182,0.111
4932975,3376.0,5090.0,5415.0,0.905,0.368,-0.182,0.111
4933001,3372.0,5202.0,5467.0,0.905,0.368,-0.181,0.111
4933017,3358.0,5206.0,5431.0,0.905,0.368,-0.181,0.111
4933033,3278.0,5214.0,5425.0,0.905,0.369,-0.181,0.111
4933049,3338.0,5134.0,5427.0,0.905,0.369,-0.181,0.111
4933065,3354.0,5198.0,5389.0,0.905,0.369,-0.181,0.111
4933081,3318.0,5170.0,5351.0,0.905,0.369,-0.181,0.111
4933107,3384.0,5170.0,5393.0,0.905,0.369,-0.18,0.112
4933123,3386.0,5186.0,5411.0,0.905,0.369,-0.18,0.112
4933139,3412.0,5086.0,5369.0,0.905,0.369,-0.18,0.112
4933155,3402.0,5134.0,5387.0,0.905,0.369,-0.18,0.112
4933172,3400.0,5214.0,5357.0,0.905,0.369,-0.18,0.112
4933188,3432.0,5172.0,5447.0,0.905,0.369,-0.18,0.112
4933214,3378.0,5148.0,5467.0,0.905,0.369,-0.18,0.112
4933230,3356.0,5154.0,5349.0,0.905,0.369,-0.18,0.112
4933246,3368.0,5162.0,5435.0,0.905,0.369,-0.179,0.112
4933262,3362.0,5116.0,5493.0,0.905,0.369,-0.179,0.112
4933279,3334.0,4806.0,5481.0,0.905,0.369,-0.179,0.113
4933295,3294.0,5320.0,5435.0,0.905,0.369,-0.179,0.113
4933311,3300.0,5166.0,5437.0,0.905,0.369,-0.179,0.113
4933337,3286.0,5182.0,5489.0,0.905,0.37,-0.179,0.113
4933353,3392.0,5168.0,5411.0,0.905,0.37,-0.178,0.114
4933369,3382.0,5246.0,5395.0,0.905,0.37,-0.178,0.114
4933385,3354.0,5206.0,5385.0,0.905,0.37,-0.178,0.114
4933402,3356.0,5186.0,5403.0,0.905,0.37,-0.178,0.114
4933418,3364.0,5172.0,5387.0,0.905,0.37,-0.178,0.114
4933435,3364.0,5136.0,5351.0,0.905,0.37,-0.178,0.114
4933453,3360.0,5192.0,5435.0,0.905,0.37,-0.178,0.114
4933479,3376.0,5134.0,5405.0,0.905,0.37,-0.178,0.114
4933496,3404.0,5150.0,5399.0,0.905,0.37,-0.178,0.115
4933512,3358.0,5162.0,5407.0,0.905,0.37,-0.178,0.115
4933529,3364.0,5158.0,5409.0,0.905,0.37,-0.178,0.115
4933545,3340.0,5160.0,5437.0,0.905,0.37,-0.178,0.115
4933561,3312.0,5154.0,5415.0,0.905,0.37,-0.178,0.115
4933578,3332.0,5198.0,5499.0,0.905,0.37,-0.178,0.115
4933604,3330.0,5178.0,5363.0,0.905,0.37,-0.178,0.115
4933620,3414.0,5144.0,5379.0,0.904,0.37,-0.178,0.115
4933636,3310.0,5194.0,5319.0,0.904,0.37,-0.178,0.115
4933652,3368.0,5112.0,5461.0,0.904,0.37,-0.178,0.116
4933668,3360.0,5182.0,5447.0,0.904,0.37,-0.178,0.116
4933684,3362.0,5222.0,5467.0,0.904,0.37,-0.178,0.116
4933701,3302.0,5050.0,5369.0,0.904,0.37,-0.178,0.116
4933728,3298.0,5228.0,5391.0,0.904,0.37,-0.178,0.116
4933744,3300.0,5198.0,5345.0,0.904,0.37,-0.178,0.116
4933760,3356.0,5170.0,5411.0,0.904,0.37,-0.178,0.116
4933776,3384.0,5200.0,5419.0,0.904,0.37,-0.178,0.116
4933792,3386.0,5128.0,5409.0,0.904,0.37,-0.178,0.116
4933809,3378.0,5142.0,5429.0,0.904,0.37,-0.178,0.117
4933825,3380.0,5138.0,5421.0,0.904,0.37,-0.178,0.117
4933851,3362.0,5208.0,5343.0,0.904,0.37,-0.178,0.117
4933867,3342.0,5124.0,5429.0,0.904,0.37,-0.178,0.117
4933883,3366.0,5278.0,5527.0,0.904,0.37,-0.179,0.117
4933899,3430.0,5128.0,5409.0,0.904,0.37,-0.179,0.117
4933915,3382.0,5138.0,5413.0,0.904,0.37,-0.179,0.117
4933931,3402.0,5106.0,5359.0,0.904,0.37,-0.179,0.117
4933957,3376.0,5132.0,5387.0,0.904,0.37,-0.179,0.117
4933973,3362.0,5120.0,5465.0,0.904,0.37,-0.179,0.117
4933989,3330.0,5126.0,5455.0,0.904,0.37,-0.179,0.117
4934005,3386.0,5122.0,5465.0,0.904,0.37,-0.179,0.118
4934021,3368.0,5150.0,5439.0,0.904,0.37,-0.178,0.118
4934037,3448.0,5212.0,5441.0,0.904,0.37,-0.178,0.118
4934063,3426.0,5192.0,5361.0,0.904,0.371,-0.178,0.118
4934079,3400.0,5124.0,5367.0,0.904,0.371,-0.178,0.118
4934095,3410.0,5216.0,5381.0,0.904,0.371,-0.178,0.118
4934112,3438.0,5186.0,5383.0,0.904,0.371,-0.178,0.118
4934129,3356.0,5196.0,5379.0,0.904,0.371,-0.178,0.118
4934145,3426.0,5130.0,5379.0,0.904,0.371,-0.178,0.118
4934161,3370.0,5132.0,5365.0,0.904,0.371,-0.177,0.119
4934187,3382.0,5168.0,5423.0,0.904,0.371,-0.177,0.119
4934204,3362.0,5186.0,5409.0,0.904,0.372,-0.177,0.119
4934221,3342.0,5188.0,5411.0,0.904,0.372,-0.177,0.119
4934238,3302.0,5200.0,5403.0,0.904,0.372,-0.176,0.119
4934255,3350.0,5138.0,5465.0,0.904,0.372,-0.176,0.119
4934272,3360.0,5162.0,5409.0,0.904,0.372,-0.176,0.119
4934288,3364.0,5272.0,5395.0,0.903,0.372,-0.176,0.119
4934304,3348.0,5188.0,5433.0,0.903,0.372,-0.176,0.119
4934320,3350.0,5242.0,5459.0,0.903,0.372,-0.176,0.12
4934346,3306.0,5184.0,5421.0,0.903,0.372,-0.176,0.12
4934362,3356.0,5188.0,5437.0,0.903,0.372,-0.176,0.12
4934378,3356.0,5182.0,5385.0,0.903,0.372,-0.176,0.12
4934395,3330.0,5200.0,5353.0,0.903,0.372,-0.175,0.12
4934411,3328.0,5196.0,5395.0,0.903,0.372,-0.175,0.12
4934428,3344.0,5208.0,5389.0,0.903,0.373,-0.175,0.12
4934444,3312.0,5202.0,5381.0,0.903,0.373,-0.175,0.12
4934470,3314.0,5194.0,5405.0,0.903,0.373,-0.175,0.12
4934487,3306.0,5172.0,5389.0,0.903,0.373,-0.175,0.12
4934504,3348.0,5146.0,5365.0,0.903,0.373,-0.175,0.12
4934521,3320.0,5120.0,5395.0,0.903,0.373,-0.175,0.121
4934537,3328.0,5188.0,5401.0,0.903,0.373,-0.175,0.121
4934553,3356.0,5156.0,5469.0,0.903,0.373,-0.175,0.121
4934569,3390.0,5146.0,5391.0,0.903,0.373,-0.175,0.121
4934595,3368.0,5214.0,5407.0,0.903,0.373,-0.175,0.121
4934612,3376.0,5186.0,5417.0,0.903,0.373,-0.175,0.121
4934629,3366.0,5252.0,5387.0,0.903,0.373,-0.175,0.121
4934645,3298.0,5196.0,5373.0,0.903,0.373,-0.175,0.121
4934661,3340.0,5174.0,5425.0,0.903,0.373,-0.175,0.121
4934677,3378.0,5210.0,5441.0,0.903,0.373,-0.175,0.121
4934693,3306.0,5230.0,5429.0,0.903,0.373,-0.175,0.122
4934719,3320.0,5160.0,5385.0,0.903,0.373,-0.175,0.122
4934735,3384.0,5232.0,5361.0,0.903,0.373,-0.175,0.122
4934752,3382.0,5198.0,5371.0,0.903,0.373,-0.175,0.122
4934768,3396.0,5190.0,5395.0,0.903,0.373,-0.175,0.122
4934785,3332.0,5160.0,5401.0,0.903,0.373,-0.175,0.122
4934801,3376.0,5170.0,5401.0,0.903,0.373,-0.175,0.122
4934817,3334.0,5206.0,5393.0,0.903,0.374,-0.175,0.122
4934843,3348.0,5214.0,5433.0,0.903,0.374,-0.175,0.122
4934859,3378.0,5176.0,5387.0,0.903,0.374,-0.175,0.122
4934876,3420.0,5156.0,5389.0,0.903,0.374,-0.175,0.122
4934892,3340.0,5206.0,5353.0,0.903,0.374,-0.174,0.122
4934908,3398.0,5202.0,5381.0,0.903,0.374,-0.174,0.122
4934924,3312.0,5204.0,5367.0,0.903,0.374,-0.174,0.122
4934940,3322.0,5248.0,5443.0,0.903,0.374,-0.174,0.122
4934967,3336.0,5258.0,5441.0,0.903,0.374,-0.174,0.122
4934984,3274.0,5192.0,5411.0,0.903,0.374,-0.174,0.123
4935001,3326.0,5170.0,5395.0,0.903,0.374,-0.174,0.122
4935018,3318.0,5166.0,5321.0,0.903,0.374,-0.174,0.123
4935034,3310.0,5242.0,5431.0,0.903,0.374,-0.173,0.123
4935050,3320.0,5202.0,5401.0,0.903,0.374,-0.173,0.123
4935067,3348.0,5148.0,5409.0,0.903,0.374,-0.173,0.123
4935083,3344.0,5188.0,5351.0,0.903,0.374,-0.173,0.123
4935099,3366.0,5194.0,5405.0,0.903,0.375,-0.173,0.123
4935126,3366.0,5222.0,5347.0,0.903,0.375,-0.173,0.123
4935142,3398.0,5218.0,5391.0,0.903,0.375,-0.173,0.123
4935158,3308.0,5156.0,5435.0,0.903,0.375,-0.173,0.123
4935175,3350.0,5170.0,5457.0,0.903,0.375,-0.173,0.123
4935191,3268.0,5246.0,5431.0,0.903,0.375,-0.173,0.123
4935207,3298.0,5210.0,5393.0,0.903,0.375,-0.173,0.123
4935224,3312.0,5196.0,5393.0,0.902,0.375,-0.172,0.124
4935241,3356.0,5214.0,5397.0,0.902,0.375,-0.173,0.124
4935258,3356.0,5234.0,5361.0,0.902,0.375,-0.172,0.124
4935284,3344.0,5242.0,5379.0,0.902,0.375,-0.172,0.124
4935301,3324.0,5226.0,5369.0,0.902,0.375,-0.172,0.124
4935317,3328.0,5196.0,5407.0,0.902,0.375,-0.172,0.124
4935334,3328.0,5220.0,5397.0,0.902,0.375,-0.172,0.124
4935350,3340.0,5214.0,5399.0,0.902,0.375,-0.172,0.124
4935367,3322.0,5174.0,5417.0,0.902,0.375,-0.172,0.124
4935383,3318.0,5202.0,5413.0,0.902,0.375,-0.172,0.124
4935409,3306.0,5240.0,5391.0,0.902,0.376,-0.172,0.124
4935425,3336.0,5204.0,5403.0,0.902,0.376,-0.172,0.124
4935442,3340.0,5234.0,5383.0,0.902,0.376,-0.172,0.124
4935458,3370.0,5222.0,5405.0,0.902,0.376,-0.172,0.124
4935475,3320.0,5222.0,5361.0,0.902,0.376,-0.172,0.124
4935492,3354.0,5244.0,5359.0,0.902,0.376,-0.172,0.125
4935509,3328.0,5190.0,5369.0,0.902,0.376,-0.172,0.125
4935526,3374.0,5244.0,5357.0,0.902,0.376,-0.172,0.125
4935542,3348.0,5230.0,5433.0,0.902,0.376,-0.172,0.125
4935568,3288.0,5234.0,5433.0,0.902,0.376,-0.172,0.125
4935585,3306.0,5250.0,5411.0,0.902,0.376,-0.171,0.125
4935602,3334.0,5258.0,5413.0,0.902,0.376,-0.171,0.125
4935619,3306.0,5254.0,5379.0,0.902,0.376,-0.172,0.125
4935636,3332.0,5238.0,5371.0,0.902,0.376,-0.172,0.125
4935652,3340.0,5210.0,5345.0,0.902,0.376,-0.172,0.125
4935669,3302.0,5202.0,5359.0,0.902,0.376,-0.171,0.125
4935686,3314.0,5198.0,5333.0,0.902,0.376,-0.171,0.125
4935703,3322.0,5194.0,5363.0,0.902,0.376,-0.171,0.125
4935719,3320.0,5142.0,5335.0,0.902,0.376,-0.171,0.125
4935736,3330.0,5242.0,5431.0,0.902,0.376,-0.171,0.125
4935763,3358.0,5178.0,5421.0,0.902,0.376,-0.171,0.125
4935780,3288.0,5158.0,5401.0,0.902,0.376,-0.171,0.126
4935797,3350.0,5172.0,5401.0,0.902,0.376,-0.171,0.126
4935814,3360.0,5156.0,5413.0,0.902,0.376,-0.171,0.126
4935831,3322.0,5262.0,5379.0,0.902,0.376,-0.171,0.126
4935847,3314.0,5260.0,5343.0,0.902,0.376,-0.171,0.126
4935864,3272.0,5226.0,5381.0,0.902,0.377,-0.171,0.126
4935880,3296.0,5280.0,5413.0,0.902,0.377,-0.171,0.126
4935896,3320.0,5280.0,5387.0,0.902,0.377,-0.171,0.127
4935922,3326.0,5208.0,5333.0,0.902,0.377,-0.171,0.127
4935939,3362.0,5244.0,5381.0,0.902,0.377,-0.171,0.127
4935956,3318.0,5230.0,5397.0,0.902,0.377,-0.17,0.127
4935972,3340.0,5244.0,5393.0,0.902,0.377,-0.17,0.127
4935989,3320.0,5232.0,5349.0,0.902,0.377,-0.17,0.127
4936005,3276.0,5254.0,5353.0,0.902,0.377,-0.17,0.127
4936021,3292.0,5226.0,5361.0,0.902,0.377,-0.17,0.127
4936037,3320.0,5222.0,5369.0,0.902,0.377,-0.17,0.127
4936064,3374.0,5228.0,5369.0,0.902,0.377,-0.17,0.127
4936080,3338.0,5210.0,5341.0,0.902,0.377,-0.17,0.127
4936096,3314.0,5242.0,5377.0,0.902,0.377,-0.17,0.127
4936112,3320.0,5198.0,5389.0,0.902,0.377,-0.17,0.127
4936129,3332.0,5228.0,5353.0,0.902,0.377,-0.169,0.127
4936145,3296.0,5234.0,5397.0,0.902,0.377,-0.169,0.128
4936162,3314.0,5244.0,5467.0,0.902,0.377,-0.169,0.128
4936188,3288.0,5322.0,5387.0,0.902,0.377,-0.169,0.128
4936204,3260.0,5302.0,5377.0,0.902,0.377,-0.169,0.128
4936220,3256.0,5238.0,5367.0,0.902,0.377,-0.169,0.128
4936237,3290.0,5256.0,5391.0,0.902,0.377,-0.169,0.128
4936254,3282.0,5260.0,5389.0,0.902,0.377,-0.169,0.128
4936270,3312.0,5234.0,5397.0,0.902,0.377,-0.169,0.128
4936287,3322.0,5228.0,5379.0,0.902,0.377,-0.169,0.128
4936303,3340.0,5242.0,5427.0,0.902,0.377,-0.169,0.128
4936329,3338.0,5226.0,5383.0,0.902,0.377,-0.169,0.128
4936345,3310.0,5244.0,5313.0,0.901,0.377,-0.169,0.128
4936362,3350.0,5196.0,5383.0,0.901,0.377,-0.169,0.128
4936378,3314.0,5156.0,5363.0,0.901,0.377,-0.169,0.128
4936394,3358.0,5234.0,5397.0,0.901,0.377,-0.169,0.128
4936410,3334.0,5200.0,5409.0,0.901,0.377,-0.169,0.129
4936427,3276.0,5156.0,5429.0,0.901,0.377,-0.169,0.129
4936444,3250.0,5236.0,5427.0,0.901,0.377,-0.169,0.129
4936471,3246.0,5266.0,5379.0,0.901,0.377,-0.169,0.129
4936488,3260.0,5276.0,5379.0,0.901,0.377,-0.169,0.129
4936504,3292.0,5270.0,5371.0,0.901,0.377,-0.169,0.129
4936520,3350.0,5280.0,5393.0,0.901,0.377,-0.169,0.129
4936536,3276.0,5208.0,5375.0,0.901,0.377,-0.169,0.129
4936553,3296.0,5216.0,5369.0,0.901,0.377,-0.169,0.129
4936569,3278.0,5226.0,5379.0,0.901,0.377,-0.169,0.129
4936586,3320.0,5258.0,5415.0,0.901,0.377,-0.169,0.129
4936613,3342.0,5220.0,5377.0,0.901,0.377,-0.169,0.129
4936630,3314.0,5226.0,5353.0,0.901,0.377,-0.169,0.129
4936647,3344.0,5196.0,5381.0,0.901,0.377,-0.169,0.129
4936663,3302.0,5200.0,5405.0,0.901,0.377,-0.169,0.129
4936679,3308.0,5222.0,5387.0,0.901,0.377,-0.169,0.129
4936695,3338.0,5198.0,5365.0,0.901,0.378,-0.169,0.129
4936711,3338.0,5198.0,5365.0,0.901,0.378,-0.169,0.129
4936737,3338.0,5200.0,5361.0,0.901,0.378,-0.169,0.129
4936754,3326.0,5270.0,5365.0,0.901,0.378,-0.169,0.129
4936770,3316.0,5252.0,5377.0,0.901,0.378,-0.169,0.129
4936786,3222.0,5292.0,5423.0,0.901,0.378,-0.168,0.13
4936802,3268.0,5270.0,5455.0,0.901,0.378,-0.168,0.129
4936818,3252.0,5274.0,5415.0,0.901,0.378,-0.168,0.13
4936835,3230.0,5224.0,5417.0,0.901,0.378,-0.168,0.13
4936851,3234.0,5212.0,5363.0,0.901,0.378,-0.168,0.13
4936877,3332.0,5242.0,5403.0,0.901,0.378,-0.168,0.13
4936894,3336.0,5222.0,5361.0,0.901,0.378,-0.168,0.13
4936911,3340.0,5234.0,5341.0,0.901,0.378,-0.168,0.13
4936927,3320.0,5222.0,5337.0,0.901,0.378,-0.168,0.13
4936943,3376.0,5218.0,5353.0,0.901,0.378,-0.168,0.13
4936959,3306.0,5240.0,5353.0,0.901,0.378,-0.169,0.13
4936976,3338.0,5196.0,5313.0,0.901,0.378,-0.169,0.13
4936993,3340.0,5226.0,5357.0,0.901,0.378,-0.168,0.13
4937020,3316.0,5228.0,5425.0,0.901,0.378,-0.168,0.13
4937036,3268.0,5278.0,5409.0,0.901,0.378,-0.168,0.13
4937052,3256.0,5234.0,5427.0,0.901,0.378,-0.168,0.13
4937068,3252.0,5214.0,5431.0,0.901,0.378,-0.168,0.13
4937085,3258.0,5238.0,5443.0,0.901,0.378,-0.168,0.13
4937101,3280.0,5296.0,5415.0,0.901,0.378,-0.168,0.13
4937117,3340.0,5226.0,5391.0,0.901,0.378,-0.168,0.13
4937143,3290.0,5204.0,5343.0,0.901,0.378,-0.168,0.131
4937159,3350.0,5208.0,5407.0,0.901,0.378,-0.168,0.131
4937176,3354.0,5224.0,5365.0,0.901,0.378,-0.168,0.131
4937193,3338.0,5196.0,5371.0,0.901,0.378,-0.168,0.131
4937209,3306.0,5244.0,5323.0,0.901,0.378,-0.168,0.131
4937225,3284.0,5268.0,5371.0,0.901,0.378,-0.168,0.131
4937242,3318.0,5298.0,5375.0,0.901,0.378,-0.168,0.131
4937268,3272.0,5296.0,5363.0,0.901,0.378,-0.168,0.131
4937284,3280.0,5250.0,5393.0,0.901,0.378,-0.168,0.131
4937300,3278.0,5210.0,5417.0,0.901,0.379,-0.168,0.131
4937317,3314.0,5256.0,5405.0,0.901,0.379,-0.168,0.131
4937333,3296.0,5284.0,5341.0,0.901,0.379,-0.167,0.131
4937349,3340.0,5272.0,5379.0,0.901,0.378,-0.167,0.132
4937366,3280.0,5248.0,5391.0,0.901,0.379,-0.167,0.132
4937382,3280.0,5322.0,5369.0,0.901,0.379,-0.167,0.132
4937409,3336.0,5148.0,5443.0,0.901,0.379,-0.167,0.132
4937425,3316.0,5262.0,5323.0,0.901,0.379,-0.167,0.132
4937441,3276.0,5242.0,5405.0,0.901,0.379,-0.167,0.132
4937457,3252.0,5278.0,5437.0,0.901,0.379,-0.167,0.131
4937473,3182.0,5216.0,5401.0,0.901,0.379,-0.167,0.132
4937492,3278.0,5224.0,5367.0,0.901,0.379,-0.167,0.132
4937508,3238.0,5280.0,5381.0,0.901,0.379,-0.167,0.132
4937525,3316.0,5244.0,5377.0,0.9,0.379,-0.168,0.132
4937542,3298.0,5208.0,5311.0,0.9,0.379,-0.168,0.132
4937568,3348.0,5202.0,5335.0,0.9,0.379,-0.168,0.132
4937584,3358.0,5182.0,5375.0,0.9,0.379,-0.168,0.132
4937600,3330.0,5236.0,5385.0,0.9,0.379,-0.168,0.132
4937617,3358.0,5190.0,5359.0,0.9,0.38,-0.168,0.132
4937634,3290.0,5258.0,5357.0,0.9,0.38,-0.168,0.132
4937650,3300.0,5270.0,5395.0,0.9,0.38,-0.168,0.132
4937667,3342.0,5256.0,5461.0,0.9,0.38,-0.168,0.132
4937683,3316.0,5310.0,5365.0,0.9,0.381,-0.168,0.132
4937709,3302.0,5384.0,5333.0,0.899,0.381,-0.168,0.132
4937725,3312.0,5278.0,5329.0,0.899,0.381,-0.168,0.132
4937742,3324.0,5254.0,5349.0,0.899,0.382,-0.168,0.132
4937758,3282.0,5306.0,5293.0,0.899,0.382,-0.168,0.132
4937774,3338.0,5280.0,5293.0,0.899,0.382,-0.168,0.132
4937790,3292.0,5270.0,5381.0,0.899,0.382,-0.168,0.132
4937816,3302.0,5292.0,5353.0,0.899,0.382,-0.169,0.132
4937832,3248.0,5348.0,5305.0,0.899,0.383,-0.169,0.132
4937848,3270.0,5322.0,5321.0,0.899,0.383,-0.169,0.132
4937865,3298.0,5244.0,5303.0,0.899,0.383,-0.169,0.132
4937881,3336.0,5360.0,5285.0,0.898,0.383,-0.169,0.132
4937897,3326.0,5298.0,5279.0,0.898,0.383,-0.169,0.132
4937913,3380.0,5330.0,5253.0,0.898,0.383,-0.169,0.132
4937940,3388.0,5232.0,5297.0,0.898,0.383,-0.169,0.132
4937958,3362.0,5294.0,5289.0,0.898,0.383,-0.169,0.132
4937974,3382.0,5324.0,5231.0,0.899,0.383,-0.168,0.133
4937991,3418.0,5308.0,5221.0,0.899,0.383,-0.168,0.133
4938007,3316.0,5324.0,5181.0,0.899,0.382,-0.168,0.133
4938023,3306.0,5320.0,5365.0,0.899,0.382,-0.167,0.133
4938039,3264.0,5284.0,5353.0,0.9,0.381,-0.167,0.133
4938055,3194.0,5236.0,5397.0,0.9,0.38,-0.167,0.133
4938081,3258.0,5288.0,5417.0,0.9,0.38,-0.167,0.133
4938098,3240.0,5250.0,5513.0,0.9,0.379,-0.167,0.133
4938114,3238.0,5208.0,5457.0,0.901,0.379,-0.167,0.133
4938130,3300.0,5188.0,5457.0,0.901,0.378,-0.167,0.133
4938146,3344.0,5238.0,5419.0,0.901,0.378,-0.167,0.133
4938163,3326.0,5240.0,5339.0,0.901,0.378,-0.167,0.133
4938179,3332.0,5242.0,5323.0,0.901,0.378,-0.167,0.134
4938205,3324.0,5252.0,5303.0,0.901,0.378,-0.167,0.134
4938222,3310.0,5286.0,5355.0,0.901,0.378,-0.167,0.134
4938239,3316.0,5148.0,5387.0,0.901,0.378,-0.167,0.134
4938255,3292.0,5170.0,5393.0,0.901,0.378,-0.167,0.134
4938271,3250.0,5174.0,5419.0,0.901,0.377,-0.167,0.134
4938287,3270.0,5258.0,5441.0,0.901,0.377,-0.167,0.134
4938303,3210.0,5186.0,5439.0,0.901,0.377,-0.167,0.134
4938329,3256.0,5174.0,5477.0,0.901,0.376,-0.168,0.134
4938346,3262.0,5262.0,5417.0,0.901,0.376,-0.168,0.134
4938363,3366.0,5234.0,5447.0,0.901,0.376,-0.169,0.134
4938379,3400.0,5198.0,5409.0,0.901,0.376,-0.169,0.134
4938395,3440.0,5216.0,5353.0,0.901,0.375,-0.17,0.134
4938411,3418.0,5246.0,5303.0,0.901,0.375,-0.17,0.134
4938427,3352.0,5260.0,5289.0,0.902,0.374,-0.171,0.134
4938453,3272.0,5310.0,5355.0,0.902,0.373,-0.171,0.134
4938469,3326.0,5280.0,5395.0,0.902,0.372,-0.172,0.134
4938485,3338.0,5082.0,5547.0,0.902,0.371,-0.173,0.134
4938501,3432.0,5036.0,5573.0,0.903,0.37,-0.174,0.134
4938518,3494.0,5138.0,5547.0,0.903,0.369,-0.175,0.134
4938534,3546.0,5122.0,5473.0,0.903,0.368,-0.177,0.134
4938551,3380.0,5262.0,5369.0,0.903,0.368,-0.178,0.134
4938577,3658.0,5548.0,5471.0,0.903,0.365,-0.181,0.134
4938593,2794.0,5284.0,5147.0,0.904,0.363,-0.183,0.133
4938610,3620.0,4404.0,5783.0,0.904,0.36,-0.187,0.133
4938627,3480.0,4242.0,5895.0,0.904,0.36,-0.19,0.133
4938643,3520.0,4928.0,5575.0,0.903,0.36,-0.192,0.134
4938659,3658.0,5380.0,5321.0,0.903,0.36,-0.195,0.134
4938675,3662.0,5102.0,5349.0,0.902,0.359,-0.197,0.134
4938701,3660.0,4838.0,5479.0,0.902,0.357,-0.2,0.134
4938718,3674.0,4882.0,5557.0,0.902,0.356,-0.202,0.135
4938734,3740.0,4818.0,5561.0,0.902,0.355,-0.204,0.135
4938751,3798.0,4828.0,5535.0,0.902,0.355,-0.205,0.136
4938767,3830.0,4832.0,5447.0,0.902,0.354,-0.207,0.136
4938783,3868.0,4848.0,5509.0,0.902,0.354,-0.208,0.137
4938799,4056.0,4606.0,5463.0,0.901,0.353,-0.209,0.137
4938825,4194.0,4390.0,5397.0,0.901,0.353,-0.21,0.137
4938841,4208.0,4458.0,5321.0,0.901,0.353,-0.211,0.138
4938858,4206.0,4592.0,5213.0,0.901,0.354,-0.211,0.138
4938874,4228.0,4612.0,5147.0,0.901,0.354,-0.21,0.139
4938891,4138.0,4622.0,5251.0,0.9,0.355,-0.209,0.139
4938908,4066.0,4474.0,5341.0,0.9,0.356,-0.208,0.14
4938924,4000.0,4700.0,5379.0,0.9,0.357,-0.206,0.14
4938941,3886.0,4750.0,5387.0,0.9,0.358,-0.204,0.141
4938958,3844.0,4792.0,5427.0,0.9,0.359,-0.202,0.141
4938984,3770.0,4872.0,5503.0,0.9,0.36,-0.2,0.142
4939000,3720.0,5018.0,5475.0,0.9,0.361,-0.198,0.142
4939016,3536.0,5070.0,5533.0,0.9,0.362,-0.197,0.143
4939033,3482.0,4986.0,5479.0,0.9,0.364,-0.195,0.143
4939049,3432.0,5002.0,5451.0,0.899,0.365,-0.194,0.143
4939065,3376.0,5134.0,5389.0,0.899,0.365,-0.194,0.143
4939082,3382.0,5176.0,5481.0,0.899,0.366,-0.193,0.143
4939099,3396.0,5192.0,5493.0,0.899,0.366,-0.193,0.143
4939126,3506.0,5142.0,5459.0,0.899,0.366,-0.194,0.143
4939142,3640.0,5240.0,5477.0,0.899,0.366,-0.194,0.142
4939159,3726.0,5144.0,5335.0,0.899,0.366,-0.195,0.142
4939175,3794.0,5062.0,5247.0,0.899,0.365,-0.196,0.141
4939191,3902.0,5014.0,5221.0,0.899,0.365,-0.196,0.141
4939207,3868.0,5032.0,5167.0,0.9,0.364,-0.197,0.14
4939224,3936.0,4892.0,5203.0,0.9,0.363,-0.197,0.139
4939241,3904.0,4762.0,5301.0,0.9,0.363,-0.198,0.139
4939267,3978.0,4664.0,5341.0,0.9,0.362,-0.198,0.139
4939284,3994.0,4708.0,5403.0,0.901,0.362,-0.198,0.139
4939301,3992.0,4556.0,5439.0,0.901,0.361,-0.198,0.139
4939317,3932.0,4524.0,5399.0,0.901,0.362,-0.197,0.139
4939334,3902.0,4734.0,5435.0,0.901,0.362,-0.196,0.139
4939350,3882.0,4686.0,5441.0,0.9,0.362,-0.196,0.14
4939367,3860.0,4812.0,5381.0,0.9,0.363,-0.195,0.14
4939383,3756.0,4944.0,5367.0,0.9,0.364,-0.194,0.141
4939400,3576.0,4972.0,5415.0,0.9,0.364,-0.194,0.142
4939426,3550.0,5004.0,5481.0,0.9,0.365,-0.193,0.142
4939442,3502.0,5142.0,5485.0,0.9,0.365,-0.193,0.142
4939458,3426.0,5162.0,5481.0,0.899,0.365,-0.193,0.142
4939474,3388.0,5194.0,5473.0,0.899,0.365,-0.193,0.142
4939490,3356.0,5198.0,5475.0,0.9,0.365,-0.194,0.142
4939506,3408.0,5104.0,5401.0,0.9,0.365,-0.194,0.141
4939532,3476.0,5182.0,5335.0,0.9,0.364,-0.195,0.141
4939548,3528.0,5134.0,5373.0,0.9,0.363,-0.197,0.14
4939565,3578.0,5136.0,5403.0,0.9,0.362,-0.198,0.139
4939581,3780.0,5018.0,5375.0,0.9,0.362,-0.2,0.139
4939598,3748.0,5016.0,5305.0,0.9,0.361,-0.201,0.138
4939615,3870.0,4944.0,5393.0,0.9,0.359,-0.203,0.137
4939631,3856.0,4824.0,5445.0,0.901,0.358,-0.204,0.136
4939648,3922.0,4758.0,5419.0,0.901,0.357,-0.206,0.136
4939674,4062.0,4634.0,5457.0,0.901,0.356,-0.207,0.135
4939690,4096.0,4554.0,5415.0,0.901,0.355,-0.208,0.135
4939706,4138.0,4510.0,5481.0,0.901,0.354,-0.209,0.134
4939722,4086.0,4520.0,5437.0,0.902,0.354,-0.21,0.134
4939738,4126.0,4396.0,5441.0,0.902,0.354,-0.21,0.134
4939754,4106.0,4344.0,5505.0,0.901,0.354,-0.21,0.135
4939781,4136.0,4398.0,5399.0,0.901,0.355,-0.209,0.135
4939797,4084.0,4598.0,5319.0,0.901,0.356,-0.208,0.136
4939813,3992.0,4748.0,5241.0,0.9,0.357,-0.207,0.137
4939829,3902.0,4800.0,5435.0,0.9,0.358,-0.206,0.138
4939845,3876.0,4752.0,5423.0,0.9,0.359,-0.204,0.139
4939861,3604.0,5112.0,5381.0,0.9,0.36,-0.203,0.14
4939878,3538.0,5024.0,5491.0,0.9,0.361,-0.202,0.14
4939904,3612.0,5130.0,5493.0,0.899,0.362,-0.201,0.14
4939921,3696.0,5228.0,5341.0,0.899,0.362,-0.201,0.14
4939937,3652.0,5222.0,5331.0,0.899,0.363,-0.201,0.14
4939953,3738.0,5256.0,5293.0,0.899,0.363,-0.202,0.14
4939969,3644.0,5004.0,5381.0,0.899,0.363,-0.202,0.139
4939986,3736.0,4994.0,5445.0,0.899,0.363,-0.203,0.138
4940002,3840.0,4908.0,5387.0,0.899,0.362,-0.204,0.137
4940028,3800.0,4880.0,5333.0,0.899,0.362,-0.204,0.137
4940044,3842.0,4696.0,5371.0,0.9,0.361,-0.204,0.137
4940060,3850.0,4548.0,5485.0,0.9,0.36,-0.203,0.137
4940076,3850.0,4500.0,5497.0,0.9,0.36,-0.203,0.137
4940092,3838.0,4572.0,5441.0,0.9,0.361,-0.202,0.137
4940108,3902.0,4492.0,5613.0,0.9,0.361,-0.201,0.138
4940134,4012.0,4360.0,5681.0,0.9,0.362,-0.2,0.139
4940150,4054.0,4362.0,5629.0,0.899,0.365,-0.198,0.14
4940166,4072.0,4594.0,5361.0,0.898,0.368,-0.196,0.141
4940182,4036.0,5212.0,4845.0,0.897,0.371,-0.194,0.143
4940199,3800.0,5722.0,4869.0,0.897,0.373,-0.191,0.144
4940215,3602.0,5394.0,5207.0,0.897,0.373,-0.19,0.144
4940241,3576.0,4766.0,5511.0,0.897,0.374,-0.189,0.145
4940257,3578.0,4854.0,5289.0,0.896,0.375,-0.188,0.145
4940273,3564.0,5364.0,5109.0,0.895,0.377,-0.187,0.146
4940290,3482.0,5460.0,5017.0,0.895,0.378,-0.187,0.146
4940306,3426.0,5136.0,5191.0,0.895,0.379,-0.187,0.146
4940322,3362.0,5172.0,5343.0,0.895,0.379,-0.186,0.146
4940338,3308.0,5258.0,5465.0,0.895,0.379,-0.186,0.146
4940364,3308.0,5286.0,5519.0,0.894,0.379,-0.186,0.146
4940380,3356.0,5260.0,5485.0,0.894,0.379,-0.186,0.146
4940396,3458.0,5250.0,5445.0,0.895,0.379,-0.186,0.147
4940412,3538.0,5250.0,5383.0,0.895,0.379,-0.186,0.147
4940428,3716.0,5116.0,5341.0,0.895,0.378,-0.187,0.147
4940454,3782.0,5056.0,5159.0,0.895,0.379,-0.187,0.147
4940470,3812.0,5212.0,5099.0,0.894,0.379,-0.186,0.147
4940486,3924.0,4996.0,5167.0,0.894,0.379,-0.186,0.147
4940502,3958.0,4730.0,5185.0,0.894,0.38,-0.185,0.147
4940518,3874.0,4960.0,5053.0,0.893,0.382,-0.184,0.148
4940534,3800.0,5320.0,4925.0,0.893,0.384,-0.183,0.148
4940560,3730.0,5232.0,5179.0,0.893,0.386,-0.181,0.148
4940576,3592.0,5074.0,5309.0,0.892,0.387,-0.179,0.148
4940592,3318.0,5006.0,5067.0,0.892,0.389,-0.178,0.148
4940608,3384.0,5294.0,5109.0,0.891,0.391,-0.177,0.149
4940624,3570.0,5822.0,5343.0,0.891,0.392,-0.176,0.149
4940640,3436.0,5820.0,5311.0,0.89,0.393,-0.175,0.149
4940666,3368.0,5432.0,5211.0,0.89,0.393,-0.174,0.148
4940682,3290.0,5404.0,5151.0,0.89,0.394,-0.174,0.148
4940699,3266.0,5460.0,5139.0,0.89,0.394,-0.173,0.148
4940715,3364.0,5408.0,5095.0,0.891,0.394,-0.173,0.147
4940731,3386.0,5402.0,5143.0,0.891,0.394,-0.173,0.147
4940747,3420.0,5452.0,5085.0,0.891,0.393,-0.173,0.147
4940763,3502.0,5328.0,5143.0,0.891,0.393,-0.173,0.146
4940789,3538.0,5186.0,5095.0,0.892,0.392,-0.174,0.146
4940805,3666.0,5152.0,5187.0,0.892,0.391,-0.174,0.145
4940821,3750.0,5276.0,5225.0,0.892,0.39,-0.174,0.145
4940838,3726.0,5262.0,5261.0,0.893,0.389,-0.175,0.145
4940854,3692.0,5140.0,5257.0,0.893,0.389,-0.175,0.145
4940870,3608.0,5046.0,5233.0,0.893,0.389,-0.175,0.145
4940896,3586.0,5142.0,5183.0,0.893,0.389,-0.174,0.145
4940912,3448.0,5236.0,5199.0,0.893,0.389,-0.174,0.145
4940928,3338.0,5380.0,5187.0,0.893,0.39,-0.173,0.145
4940944,3240.0,5392.0,5247.0,0.893,0.39,-0.172,0.145
4940961,3300.0,5254.0,5369.0,0.893,0.39,-0.172,0.146
4940977,3404.0,5346.0,5249.0,0.892,0.391,-0.172,0.146
4940993,3462.0,5444.0,5141.0,0.892,0.391,-0.172,0.146
4941019,3450.0,5438.0,5079.0,0.892,0.392,-0.172,0.146
4941035,3398.0,5468.0,5183.0,0.892,0.392,-0.171,0.146
4941051,3472.0,5410.0,5181.0,0.892,0.391,-0.171,0.146
4941067,3470.0,5398.0,5171.0,0.892,0.391,-0.171,0.146
4941083,3454.0,5360.0,5215.0,0.893,0.391,-0.171,0.145
4941099,3396.0,5306.0,5257.0,0.893,0.391,-0.171,0.145
4941126,3420.0,5158.0,5315.0,0.893,0.39,-0.171,0.145
4941142,3436.0,5224.0,5257.0,0.893,0.39,-0.172,0.145
4941158,3424.0,5272.0,5221.0,0.893,0.39,-0.171,0.145
4941174,3414.0,5254.0,5237.0,0.893,0.39,-0.171,0.145
4941190,3480.0,5252.0,5217.0,0.893,0.39,-0.171,0.145
4941206,3524.0,5286.0,5235.0,0.893,0.39,-0.171,0.145
4941232,3568.0,5328.0,5181.0,0.893,0.39,-0.171,0.145
4941249,3492.0,5396.0,5167.0,0.893,0.39,-0.171,0.145
4941265,3480.0,5338.0,5293.0,0.893,0.391,-0.17,0.145
4941281,3464.0,5332.0,5271.0,0.893,0.391,-0.17,0.145
4941297,3408.0,5294.0,5243.0,0.893,0.391,-0.169,0.145
4941313,3344.0,5292.0,5253.0,0.893,0.391,-0.169,0.145
4941339,3348.0,5290.0,5251.0,0.893,0.391,-0.169,0.145
4941355,3340.0,5266.0,5181.0,0.893,0.392,-0.168,0.145
4941371,3316.0,5362.0,5143.0,0.893,0.392,-0.168,0.145
4941388,3382.0,5354.0,5227.0,0.893,0.392,-0.168,0.145
4941404,3368.0,5310.0,5245.0,0.893,0.393,-0.167,0.146
4941421,3384.0,5374.0,5171.0,0.893,0.393,-0.167,0.146
4941437,3378.0,5446.0,5191.0,0.892,0.393,-0.167,0.146
4941453,3308.0,5486.0,5201.0,0.892,0.393,-0.167,0.146
4941480,3312.0,5412.0,5233.0,0.893,0.393,-0.167,0.146
4941496,3334.0,5502.0,5253.0,0.893,0.392,-0.167,0.146
4941512,3352.0,5512.0,5207.0,0.893,0.392,-0.167,0.145
4941528,3332.0,5468.0,5177.0,0.893,0.391,-0.167,0.145
4941544,3360.0,5388.0,5249.0,0.894,0.391,-0.168,0.145
4941560,3364.0,5354.0,5229.0,0.894,0.39,-0.168,0.144
4941586,3362.0,5364.0,5235.0,0.894,0.389,-0.169,0.144
4941602,3428.0,5208.0,5251.0,0.894,0.388,-0.169,0.144
4941618,3420.0,5232.0,5289.0,0.895,0.388,-0.169,0.143
4941634,3438.0,5236.0,5307.0,0.895,0.387,-0.17,0.143
4941650,3486.0,5098.0,5319.0,0.895,0.387,-0.17,0.143
4941666,3450.0,5154.0,5291.0,0.895,0.387,-0.17,0.143
4941692,3442.0,5184.0,5313.0,0.895,0.387,-0.17,0.143
4941708,3496.0,5170.0,5275.0,0.895,0.388,-0.169,0.143
4941724,3482.0,5304.0,5251.0,0.894,0.388,-0.169,0.144
4941742,3406.0,5304.0,5251.0,0.894,0.389,-0.168,0.144
4941759,3382.0,5334.0,5257.0,0.894,0.39,-0.168,0.144
4941776,3398.0,5266.0,5283.0,0.894,0.39,-0.167,0.144
4941792,3360.0,5302.0,5279.0,0.894,0.391,-0.167,0.145
4941808,3404.0,5400.0,5265.0,0.893,0.392,-0.166,0.145
4941825,3330.0,5386.0,5193.0,0.893,0.392,-0.166,0.145
4941851,3284.0,5500.0,5193.0,0.893,0.393,-0.165,0.146
4941867,3278.0,5392.0,5245.0,0.893,0.393,-0.165,0.146
4941883,3344.0,5336.0,5307.0,0.893,0.394,-0.164,0.146
4941899,3278.0,5452.0,5287.0,0.893,0.394,-0.164,0.146
4941915,3294.0,5484.0,5111.0,0.892,0.394,-0.164,0.146
4941932,3300.0,5454.0,5179.0,0.892,0.395,-0.164,0.146
4941958,3230.0,5342.0,5195.0,0.892,0.395,-0.164,0.146
4941974,3304.0,5414.0,5233.0,0.892,0.395,-0.163,0.146
4941990,3326.0,5430.0,5137.0,0.892,0.395,-0.163,0.146
4942006,3368.0,5428.0,5187.0,0.892,0.395,-0.163,0.146
4942022,3400.0,5350.0,5199.0,0.892,0.395,-0.163,0.146
4942038,3396.0,5420.0,5211.0,0.892,0.395,-0.163,0.146
4942064,3346.0,5428.0,5173.0,0.892,0.395,-0.163,0.146
4942080,3348.0,5438.0,5199.0,0.892,0.395,-0.163,0.146
4942096,3376.0,5356.0,5247.0,0.892,0.395,-0.163,0.146
4942112,3292.0,5448.0,5267.0,0.892,0.396,-0.163,0.146
4942128,3298.0,5370.0,5253.0,0.892,0.396,-0.162,0.146
4942145,3284.0,5414.0,5207.0,0.892,0.396,-0.162,0.146
4942171,3304.0,5444.0,5197.0,0.892,0.396,-0.162,0.146
4942187,3342.0,5412.0,5207.0,0.892,0.396,-0.162,0.146
4942203,3322.0,5478.0,5165.0,0.892,0.396,-0.162,0.146
4942219,3336.0,5444.0,5139.0,0.892,0.396,-0.162,0.146
4942235,3322.0,5414.0,5135.0,0.892,0.396,-0.162,0.146
4942251,3328.0,5478.0,5187.0,0.892,0.396,-0.161,0.146
4942277,3282.0,5468.0,5225.0,0.892,0.396,-0.161,0.146
4942294,3282.0,5398.0,5211.0,0.892,0.396,-0.161,0.146
4942310,3294.0,5482.0,5227.0,0.892,0.396,-0.161,0.146
4942326,3266.0,5448.0,5219.0,0.892,0.396,-0.161,0.146
4942342,3240.0,5414.0,5223.0,0.892,0.396,-0.161,0.146
4942358,3288.0,5418.0,5189.0,0.892,0.396,-0.161,0.146
4942374,3288.0,5392.0,5155.0,0.892,0.397,-0.161,0.146
4942400,3350.0,5414.0,5205.0,0.892,0.397,-0.161,0.146
4942416,3328.0,5340.0,5199.0,0.892,0.397,-0.161,0.146
4942432,3316.0,5444.0,5197.0,0.892,0.397,-0.16,0.146
4942449,3326.0,5438.0,5247.0,0.892,0.397,-0.16,0.146
4942466,3296.0,5430.0,5283.0,0.892,0.397,-0.16,0.146
4942482,3234.0,5466.0,5247.0,0.892,0.397,-0.16,0.146
4942498,3272.0,5488.0,5215.0,0.892,0.397,-0.16,0.146
4942524,3310.0,5420.0,5193.0,0.892,0.397,-0.16,0.146
4942541,3262.0,5486.0,5197.0,0.892,0.397,-0.16,0.146
4942557,3252.0,5482.0,5153.0,0.892,0.397,-0.16,0.146
4942573,3244.0,5444.0,5199.0,0.892,0.397,-0.159,0.146
4942590,3284.0,5520.0,5173.0,0.892,0.397,-0.159,0.146
4942606,3260.0,5422.0,5193.0,0.892,0.397,-0.159,0.146
4942623,3292.0,5450.0,5161.0,0.892,0.397,-0.159,0.146
4942639,3318.0,5374.0,5189.0,0.892,0.397,-0.159,0.146
4942666,3336.0,5446.0,5187.0,0.892,0.397,-0.159,0.146
4942682,3338.0,5408.0,5235.0,0.892,0.397,-0.159,0.146
4942698,3236.0,5452.0,5229.0,0.892,0.397,-0.159,0.146
4942714,3222.0,5458.0,5249.0,0.892,0.397,-0.159,0.146
4942730,3220.0,5438.0,5209.0,0.892,0.397,-0.159,0.146
4942747,3292.0,5420.0,5167.0,0.892,0.397,-0.159,0.146
4942763,3284.0,5480.0,5169.0,0.892,0.397,-0.159,0.146
4942789,3260.0,5424.0,5131.0,0.892,0.397,-0.159,0.146
4942805,3302.0,5486.0,5175.0,0.892,0.397,-0.159,0.146
4942822,3284.0,5484.0,5217.0,0.892,0.397,-0.159,0.146
4942838,3256.0,5464.0,5205.0,0.892,0.397,-0.159,0.146
4942854,3224.0,5482.0,5175.0,0.892,0.397,-0.159,0.146
4942870,3272.0,5454.0,5173.0,0.892,0.397,-0.159,0.146
4942896,3330.0,5428.0,5199.0,0.892,0.398,-0.159,0.146
4942912,3280.0,5438.0,5159.0,0.892,0.398,-0.159,0.146
4942928,3278.0,5492.0,5147.0,0.892,0.398,-0.159,0.146
4942944,3312.0,5482.0,5179.0,0.892,0.398,-0.159,0.146
4942960,3328.0,5422.0,5205.0,0.892,0.398,-0.159,0.146
4942976,3250.0,5402.0,5189.0,0.892,0.398,-0.159,0.146
4943002,3262.0,5468.0,5185.0,0.892,0.398,-0.159,0.146
4943018,3264.0,5478.0,5233.0,0.892,0.398,-0.158,0.146
4943034,3226.0,5474.0,5247.0,0.892,0.398,-0.158,0.146
4943050,3242.0,5468.0,5221.0,0.892,0.398,-0.158,0.146
4943066,3188.0,5456.0,5241.0,0.892,0.398,-0.158,0.146
4943082,3260.0,5478.0,5235.0,0.892,0.398,-0.159,0.146
4943108,3270.0,5468.0,5217.0,0.892,0.397,-0.159,0.146
4943124,3256.0,5486.0,5195.0,0.892,0.397,-0.159,0.146
4943140,3296.0,5456.0,5181.0,0.892,0.397,-0.159,0.146
4943156,3342.0,5442.0,5181.0,0.892,0.397,-0.159,0.146
4943172,3288.0,5422.0,5231.0,0.892,0.397,-0.159,0.146
4943188,3302.0,5418.0,5195.0,0.892,0.397,-0.159,0.147
4943214,3364.0,5342.0,5165.0,0.892,0.397,-0.16,0.147
4943231,3294.0,5366.0,5163.0,0.892,0.397,-0.16,0.146
4943247,3302.0,5394.0,5185.0,0.892,0.397,-0.16,0.147
4943263,3268.0,5428.0,5261.0,0.892,0.397,-0.16,0.147
4943279,3260.0,5428.0,5213.0,0.892,0.397,-0.16,0.147
4943295,3330.0,5408.0,5223.0,0.892,0.397,-0.16,0.147
4943321,3250.0,5436.0,5227.0,0.892,0.397,-0.16,0.147
4943337,3244.0,5460.0,5207.0,0.892,0.397,-0.16,0.147
4943354,3240.0,5448.0,5189.0,0.892,0.397,-0.16,0.147
4943370,3272.0,5388.0,5167.0,0.892,0.397,-0.16,0.147
4943386,3244.0,5422.0,5203.0,0.892,0.397,-0.16,0.147
4943402,3276.0,5430.0,5169.0,0.892,0.397,-0.16,0.147
4943418,3308.0,5438.0,5177.0,0.892,0.397,-0.16,0.147
4943444,3332.0,5426.0,5195.0,0.892,0.397,-0.16,0.147
4943460,3342.0,5390.0,5211.0,0.892,0.397,-0.16,0.147
4943477,3302.0,5428.0,5149.0,0.892,0.397,-0.16,0.147
4943493,3294.0,5406.0,5231.0,0.892,0.397,-0.16,0.147
4943509,3314.0,5364.0,5257.0,0.892,0.397,-0.16,0.147
4943526,3272.0,5442.0,5211.0,0.892,0.397,-0.16,0.147
4943542,3232.0,5398.0,5193.0,0.892,0.397,-0.16,0.147
4943569,3286.0,5408.0,5181.0,0.892,0.397,-0.16,0.147
4943585,3266.0,5430.0,5181.0,0.892,0.397,-0.16,0.147
4943601,3264.0,5458.0,5271.0,0.892,0.397,-0.16,0.147
4943617,3248.0,5428.0,5263.0,0.892,0.397,-0.159,0.147
4943634,3334.0,5402.0,5211.0,0.892,0.397,-0.159,0.147
4943650,3396.0,5460.0,5203.0,0.892,0.397,-0.159,0.147
4943667,3290.0,5442.0,5229.0,0.892,0.397,-0.159,0.147
4943693,3298.0,5446.0,5217.0,0.892,0.397,-0.159,0.147
4943710,3314.0,5428.0,5213.0,0.892,0.397,-0.159,0.147
4943729,3242.0,5442.0,5207.0,0.892,0.397,-0.159,0.147
4943746,3228.0,5418.0,5213.0,0.892,0.397,-0.159,0.147
4943762,3260.0,5396.0,5187.0,0.892,0.397,-0.159,0.147
4943779,3256.0,5436.0,5199.0,0.892,0.397,-0.159,0.147
4943795,3284.0,5458.0,5167.0,0.892,0.397,-0.159,0.147
4943811,3322.0,5384.0,5209.0,0.892,0.397,-0.159,0.147
4943827,3286.0,5448.0,5197.0,0.892,0.397,-0.159,0.147
4943843,3342.0,5420.0,5189.0,0.892,0.397,-0.159,0.147
4943870,3334.0,5434.0,5205.0,0.892,0.398,-0.159,0.147
4943887,3282.0,5360.0,5271.0,0.892,0.398,-0.158,0.147
4943903,3254.0,5436.0,5161.0,0.892,0.398,-0.158,0.147
4943920,3230.0,5468.0,5155.0,0.892,0.398,-0.158,0.147
4943937,3252.0,5492.0,5157.0,0.892,0.398,-0.158,0.147
4943954,3258.0,5472.0,5225.0,0.892,0.398,-0.158,0.147
4943971,3264.0,5522.0,5189.0,0.891,0.398,-0.157,0.147
4943988,3234.0,5522.0,5219.0,0.891,0.399,-0.157,0.147
4944005,3184.0,5484.0,5203.0,0.891,0.399,-0.157,0.147
4944022,3280.0,5408.0,5197.0,0.891,0.399,-0.157,0.147
4944038,3246.0,5432.0,5235.0,0.891,0.399,-0.157,0.148
4944055,3228.0,5464.0,5207.0,0.891,0.399,-0.157,0.148
4944082,3218.0,5428.0,5193.0,0.891,0.399,-0.157,0.147
4944099,3230.0,5524.0,5207.0,0.891,0.399,-0.157,0.147
4944116,3248.0,5448.0,5233.0,0.891,0.399,-0.157,0.147
4944133,3308.0,5504.0,5165.0,0.891,0.399,-0.156,0.147
4944150,3274.0,5470.0,5163.0,0.891,0.399,-0.156,0.147
4944167,3330.0,5484.0,5169.0,0.891,0.399,-0.156,0.147
4944183,3288.0,5492.0,5177.0,0.891,0.399,-0.156,0.147
4944199,3258.0,5462.0,5181.0,0.891,0.399,-0.156,0.148
4944216,3260.0,5456.0,5195.0,0.891,0.4,-0.156,0.147
4944233,3198.0,5506.0,5197.0,0.891,0.4,-0.156,0.147
4944250,3206.0,5504.0,5231.0,0.891,0.4,-0.156,0.147
4944276,3230.0,5532.0,5203.0,0.891,0.4,-0.156,0.147
4944292,3204.0,5480.0,5183.0,0.891,0.4,-0.155,0.147
4944309,3188.0,5456.0,5229.0,0.891,0.4,-0.155,0.147
4944326,3190.0,5434.0,5181.0,0.891,0.4,-0.155,0.147
4944343,3204.0,5484.0,5163.0,0.891,0.4,-0.155,0.147
4944360,3190.0,5472.0,5169.0,0.891,0.4,-0.155,0.147
4944377,3236.0,5504.0,5183.0,0.891,0.4,-0.155,0.147
4944394,3230.0,5478.0,5171.0,0.891,0.4,-0.155,0.147
4944411,3242.0,5472.0,5119.0,0.891,0.4,-0.155,0.147
4944428,3260.0,5462.0,5191.0,0.891,0.4,-0.155,0.147
4944445,3240.0,5478.0,5175.0,0.891,0.4,-0.155,0.147
4944472,3252.0,5438.0,5173.0,0.891,0.4,-0.155,0.147
4944488,3264.0,5534.0,5169.0,0.891,0.4,-0.155,0.147
4944504,3200.0,5488.0,5175.0,0.891,0.4,-0.155,0.147
4944520,3184.0,5534.0,5215.0,0.891,0.4,-0.155,0.147
4944536,3190.0,5504.0,5209.0,0.891,0.4,-0.155,0.147
4944552,3204.0,5486.0,5155.0,0.891,0.4,-0.155,0.147
4944578,3224.0,5478.0,5149.0,0.891,0.4,-0.155,0.147
4944595,3226.0,5528.0,5169.0,0.891,0.4,-0.155,0.147
4944612,3212.0,5512.0,5143.0,0.891,0.4,-0.155,0.147
4944629,3220.0,5516.0,5139.0,0.891,0.4,-0.155,0.147
4944646,3204.0,5470.0,5147.0,0.891,0.4,-0.155,0.147
4944663,3232.0,5504.0,5229.0,0.891,0.4,-0.155,0.147
4944679,3206.0,5476.0,5183.0,0.891,0.4,-0.155,0.147
4944695,3230.0,5480.0,5129.0,0.891,0.4,-0.155,0.147
4944711,3210.0,5464.0,5169.0,0.891,0.4,-0.155,0.147
4944737,3232.0,5462.0,5167.0,0.891,0.4,-0.155,0.147
4944753,3220.0,5460.0,5147.0,0.891,0.4,-0.155,0.147
4944769,3190.0,5508.0,5183.0,0.891,0.4,-0.155,0.147
4944786,3166.0,5502.0,5169.0,0.891,0.4,-0.155,0.147
4944802,3258.0,5516.0,5187.0,0.891,0.4,-0.155,0.147
4944819,3222.0,5456.0,5177.0,0.891,0.4,-0.155,0.147
4944836,3244.0,5476.0,5135.0,0.891,0.4,-0.155,0.147
4944852,3240.0,5496.0,5169.0,0.891,0.4,-0.155,0.147
4944879,3234.0,5448.0,5171.0,0.891,0.4,-0.155,0.147
4944896,3250.0,5488.0,5151.0,0.891,0.4,-0.155,0.147
4944912,3198.0,5456.0,5149.0,0.891,0.4,-0.155,0.147
4944928,3202.0,5516.0,5171.0,0.891,0.4,-0.155,0.147
4944945,3264.0,5518.0,5267.0,0.891,0.4,-0.155,0.147
4944962,3226.0,5506.0,5241.0,0.891,0.4,-0.155,0.147
4944979,3226.0,5516.0,5207.0,0.891,0.4,-0.155,0.147
4944995,3230.0,5540.0,5219.0,0.891,0.4,-0.155,0.147
4945011,3174.0,5522.0,5147.0,0.891,0.4,-0.155,0.147
4945037,3216.0,5512.0,5157.0,0.891,0.4,-0.156,0.147
4945053,3230.0,5496.0,5153.0,0.891,0.399,-0.156,0.147
4945070,3250.0,5490.0,5157.0,0.891,0.399,-0.156,0.147
4945086,3236.0,5504.0,5153.0,0.891,0.399,-0.156,0.147
4945103,3260.0,5440.0,5201.0,0.892,0.399,-0.156,0.147
4945119,3304.0,5428.0,5185.0,0.892,0.399,-0.156,0.147
4945135,3304.0,5464.0,5159.0,0.892,0.399,-0.156,0.147
4945161,3330.0,5414.0,5227.0,0.892,0.399,-0.156,0.147
4945177,3306.0,5424.0,5181.0,0.892,0.399,-0.157,0.147
4945193,3278.0,5448.0,5183.0,0.892,0.399,-0.157,0.147
4945210,3248.0,5452.0,5195.0,0.892,0.399,-0.157,0.147
4945226,3190.0,5480.0,5247.0,0.892,0.399,-0.157,0.147
4945242,3224.0,5452.0,5189.0,0.892,0.399,-0.157,0.147
4945268,3270.0,5430.0,5199.0,0.892,0.399,-0.157,0.147
4945284,3254.0,5480.0,5135.0,0.891,0.399,-0.157,0.147
4945301,3288.0,5476.0,5175.0,0.892,0.399,-0.157,0.147
4945318,3264.0,5474.0,5155.0,0.892,0.399,-0.157,0.147
4945334,3280.0,5446.0,5191.0,0.892,0.399,-0.157,0.147
4945350,3294.0,5434.0,5187.0,0.892,0.398,-0.157,0.147
4945366,3314.0,5486.0,5213.0,0.892,0.398,-0.157,0.147
4945392,3270.0,5402.0,5223.0,0.892,0.398,-0.157,0.147
4945409,3254.0,5434.0,5197.0,0.892,0.398,-0.157,0.147
4945426,3248.0,5438.0,5237.0,0.892,0.398,-0.157,0.147
4945443,3262.0,5460.0,5243.0,0.892,0.398,-0.156,0.147
4945459,3284.0,5444.0,5183.0,0.892,0.399,-0.156,0.147
4945476,3256.0,5438.0,5161.0,0.892,0.399,-0.156,0.147
4945492,3248.0,5486.0,5177.0,0.892,0.399,-0.156,0.147
4945509,3248.0,5434.0,5193.0,0.892,0.399,-0.156,0.147
4945525,3254.0,5422.0,5197.0,0.892,0.399,-0.156,0.147
4945551,3222.0,5490.0,5195.0,0.892,0.399,-0.156,0.147
4945568,3194.0,5484.0,5219.0,0.892,0.399,-0.156,0.147
4945584,3184.0,5476.0,5263.0,0.892,0.399,-0.156,0.147
4945601,3176.0,5436.0,5267.0,0.892,0.399,-0.156,0.147
4945617,3204.0,5462.0,5165.0,0.892,0.399,-0.156,0.147
4945633,3218.0,5452.0,5203.0,0.892,0.399,-0.156,0.147
4945649,3158.0,5522.0,5183.0,0.892,0.399,-0.156,0.147
4945675,3248.0,5474.0,5181.0,0.892,0.399,-0.156,0.146
4945691,3268.0,5504.0,5195.0,0.892,0.399,-0.156,0.146
4945708,3272.0,5438.0,5129.0,0.892,0.399,-0.156,0.146
4945724,3296.0,5492.0,5187.0,0.892,0.399,-0.156,0.146
4945742,3282.0,5470.0,5181.0,0.892,0.399,-0.156,0.146
4945758,3320.0,5482.0,5223.0,0.892,0.399,-0.156,0.146
4945775,3240.0,5500.0,5199.0,0.892,0.399,-0.156,0.146
4945791,3234.0,5450.0,5239.0,0.892,0.399,-0.155,0.146
4945808,3190.0,5446.0,5191.0,0.892,0.399,-0.155,0.146
4945834,3166.0,5508.0,5183.0,0.892,0.399,-0.155,0.146
4945851,3186.0,5504.0,5229.0,0.892,0.399,-0.155,0.146
4945868,3236.0,5456.0,5205.0,0.892,0.399,-0.155,0.146
4945885,3194.0,5402.0,5159.0,0.892,0.398,-0.155,0.146
4945902,3202.0,5432.0,5161.0,0.892,0.398,-0.155,0.146
4945919,3176.0,5438.0,5213.0,0.892,0.398,-0.155,0.146
4945935,3192.0,5442.0,5213.0,0.892,0.398,-0.155,0.146
4945951,3262.0,5486.0,5221.0,0.892,0.398,-0.155,0.146
4945968,3226.0,5408.0,5203.0,0.892,0.398,-0.155,0.146
4945994,3236.0,5462.0,5213.0,0.892,0.398,-0.155,0.146
4946011,3234.0,5540.0,5191.0,0.892,0.398,-0.155,0.146
4946027,3236.0,5496.0,5235.0,0.892,0.398,-0.155,0.146
4946043,3144.0,5568.0,5171.0,0.892,0.398,-0.155,0.146
4946059,3226.0,5498.0,5183.0,0.892,0.398,-0.156,0.146
