timeMs,ax,ay,az,q0,q1,q2,q3
1497370,-3743.0,7187.0,830.0,0.052,-0.225,0.632,0.74
1497386,-3719.0,7101.0,860.0,0.052,-0.225,0.633,0.739
1497402,-3737.0,7131.0,834.0,0.053,-0.225,0.633,0.739
1497428,-3723.0,7237.0,746.0,0.053,-0.224,0.634,0.738
1497444,-3729.0,7165.0,788.0,0.054,-0.224,0.634,0.738
1497460,-3795.0,7027.0,802.0,0.054,-0.224,0.635,0.738
1497476,-3837.0,7161.0,844.0,0.055,-0.223,0.636,0.737
1497492,-3805.0,7151.0,844.0,0.055,-0.223,0.636,0.737
1497508,-3759.0,7173.0,836.0,0.056,-0.222,0.637,0.736
1497535,-3791.0,7095.0,832.0,0.056,-0.222,0.637,0.736
1497552,-3835.0,7197.0,838.0,0.057,-0.222,0.638,0.735
1497568,-3729.0,7199.0,784.0,0.058,-0.221,0.638,0.735
1497585,-3683.0,7223.0,808.0,0.058,-0.221,0.638,0.735
1497601,-3697.0,7101.0,790.0,0.058,-0.221,0.639,0.735
1497617,-3669.0,7175.0,782.0,0.059,-0.221,0.639,0.735
1497633,-3657.0,7197.0,748.0,0.059,-0.22,0.639,0.734
1497659,-3521.0,7283.0,672.0,0.06,-0.22,0.64,0.734
1497675,-3449.0,7457.0,602.0,0.06,-0.22,0.641,0.733
1497691,-3353.0,7481.0,542.0,0.061,-0.22,0.641,0.733
1497708,-3507.0,7447.0,558.0,0.061,-0.221,0.642,0.732
1497724,-3489.0,7235.0,572.0,0.063,-0.221,0.642,0.731
1497741,-3481.0,7141.0,594.0,0.064,-0.221,0.644,0.73
1497757,-3483.0,7263.0,558.0,0.066,-0.221,0.645,0.728
1497774,-3509.0,7449.0,460.0,0.068,-0.221,0.647,0.727
1497800,-3569.0,7517.0,464.0,0.07,-0.221,0.648,0.725
1497816,-3551.0,7559.0,546.0,0.072,-0.222,0.649,0.724
1497832,-3665.0,7657.0,660.0,0.073,-0.223,0.65,0.723
1497849,-3787.0,7441.0,670.0,0.075,-0.224,0.65,0.722
1497866,-3753.0,7271.0,650.0,0.076,-0.225,0.65,0.722
1497883,-3865.0,7137.0,662.0,0.078,-0.226,0.651,0.721
1497900,-3965.0,6953.0,726.0,0.08,-0.227,0.651,0.72
1497916,-4049.0,6835.0,726.0,0.082,-0.227,0.652,0.718
1497942,-4055.0,6769.0,752.0,0.083,-0.228,0.653,0.717
1497959,-4139.0,6881.0,820.0,0.085,-0.229,0.654,0.716
1497975,-4001.0,6783.0,836.0,0.086,-0.23,0.655,0.715
1497992,-4103.0,6985.0,726.0,0.087,-0.231,0.655,0.714
1498009,-4197.0,6975.0,704.0,0.088,-0.233,0.655,0.713
1498026,-4301.0,6951.0,646.0,0.088,-0.235,0.655,0.713
1498043,-4307.0,6787.0,624.0,0.087,-0.237,0.654,0.713
1498059,-4251.0,6823.0,548.0,0.087,-0.239,0.653,0.713
1498076,-4381.0,6855.0,382.0,0.085,-0.242,0.652,0.714
1498093,-4459.0,6755.0,340.0,0.084,-0.244,0.65,0.714
1498119,-4433.0,6783.0,272.0,0.083,-0.246,0.649,0.715
1498135,-4453.0,6799.0,198.0,0.082,-0.248,0.648,0.715
1498151,-4487.0,6943.0,124.0,0.081,-0.25,0.647,0.716
1498167,-4403.0,7111.0,180.0,0.08,-0.252,0.645,0.717
1498183,-4427.0,6945.0,116.0,0.08,-0.253,0.644,0.717
1498199,-4469.0,6813.0,110.0,0.079,-0.255,0.643,0.718
1498225,-4463.0,6781.0,180.0,0.079,-0.256,0.641,0.719
1498242,-4477.0,6659.0,158.0,0.079,-0.257,0.64,0.719
1498259,-4477.0,6651.0,194.0,0.08,-0.258,0.639,0.72
1498276,-4475.0,6527.0,208.0,0.081,-0.26,0.638,0.72
1498293,-4547.0,6421.0,344.0,0.081,-0.261,0.638,0.72
1498309,-4617.0,6263.0,378.0,0.083,-0.262,0.637,0.72
1498325,-4721.0,6055.0,418.0,0.084,-0.264,0.637,0.72
1498341,-5007.0,5943.0,390.0,0.086,-0.265,0.637,0.719
1498367,-5161.0,5707.0,362.0,0.087,-0.266,0.638,0.717
1498383,-5177.0,5705.0,276.0,0.089,-0.268,0.639,0.716
1498399,-5201.0,5679.0,266.0,0.09,-0.268,0.64,0.714
1498415,-5003.0,5605.0,242.0,0.091,-0.269,0.642,0.712
1498431,-5049.0,5931.0,254.0,0.092,-0.269,0.644,0.71
1498447,-4997.0,6039.0,294.0,0.093,-0.269,0.646,0.708
1498473,-4997.0,6347.0,336.0,0.093,-0.269,0.648,0.706
1498489,-4967.0,6355.0,406.0,0.093,-0.269,0.651,0.704
1498505,-5277.0,7595.0,26.0,0.091,-0.271,0.651,0.703
1498522,-4241.0,6407.0,600.0,0.09,-0.27,0.653,0.702
1498539,-5073.0,5819.0,168.0,0.089,-0.27,0.654,0.702
1498556,-4539.0,6645.0,42.0,0.088,-0.269,0.656,0.7
1498572,-4669.0,6699.0,84.0,0.088,-0.268,0.657,0.699
1498588,-4733.0,6767.0,38.0,0.088,-0.267,0.659,0.698
1498614,-4703.0,6599.0,88.0,0.088,-0.266,0.66,0.697
1498631,-4693.0,6453.0,118.0,0.088,-0.265,0.661,0.696
1498648,-4601.0,6405.0,106.0,0.089,-0.263,0.663,0.695
1498664,-4487.0,6521.0,100.0,0.09,-0.261,0.665,0.694
1498681,-4379.0,6725.0,-38.0,0.091,-0.259,0.668,0.692
1498698,-4295.0,6967.0,-130.0,0.091,-0.257,0.671,0.69
1498715,-4221.0,7227.0,-246.0,0.092,-0.255,0.673,0.688
1498732,-4167.0,7359.0,-318.0,0.092,-0.253,0.675,0.687
1498749,-4137.0,7417.0,-372.0,0.091,-0.252,0.676,0.687
1498766,-4127.0,7267.0,-458.0,0.091,-0.25,0.676,0.687
1498783,-4129.0,7191.0,-506.0,0.09,-0.25,0.677,0.687
1498800,-4049.0,7135.0,-512.0,0.09,-0.249,0.677,0.687
1498827,-4095.0,7109.0,-566.0,0.09,-0.248,0.678,0.687
1498844,-4057.0,6939.0,-576.0,0.09,-0.247,0.678,0.686
1498861,-4011.0,6995.0,-572.0,0.091,-0.246,0.679,0.686
1498878,-3981.0,7019.0,-552.0,0.092,-0.244,0.68,0.685
1498895,-3921.0,7041.0,-480.0,0.093,-0.243,0.682,0.683
1498911,-3773.0,7109.0,-424.0,0.095,-0.242,0.684,0.682
1498927,-3781.0,7209.0,-312.0,0.097,-0.24,0.686,0.68
1498944,-3751.0,7197.0,-182.0,0.099,-0.239,0.687,0.679
1498961,-3797.0,7101.0,-94.0,0.101,-0.239,0.689,0.677
1498977,-3873.0,7311.0,-56.0,0.103,-0.238,0.691,0.675
1499003,-3931.0,7329.0,-58.0,0.105,-0.237,0.693,0.673
1499019,-3837.0,7235.0,-24.0,0.106,-0.237,0.694,0.671
1499035,-3939.0,7279.0,-38.0,0.108,-0.236,0.696,0.67
1499052,-4005.0,7359.0,-154.0,0.109,-0.236,0.697,0.669
1499069,-4131.0,7187.0,-108.0,0.111,-0.236,0.697,0.668
1499085,-4183.0,7119.0,-100.0,0.112,-0.235,0.698,0.667
1499101,-4201.0,7041.0,-68.0,0.113,-0.235,0.698,0.667
1499127,-4183.0,6913.0,-78.0,0.114,-0.235,0.698,0.666
1499143,-4279.0,6867.0,-102.0,0.114,-0.235,0.698,0.666
1499160,-4313.0,6859.0,-66.0,0.115,-0.235,0.698,0.666
1499176,-4319.0,6815.0,-42.0,0.116,-0.235,0.698,0.666
1499193,-4271.0,6787.0,-74.0,0.116,-0.235,0.698,0.666
1499209,-4233.0,6711.0,-104.0,0.116,-0.234,0.698,0.667
1499226,-4257.0,6815.0,-152.0,0.116,-0.234,0.698,0.667
1499243,-4201.0,6851.0,-200.0,0.115,-0.235,0.697,0.667
1499260,-4205.0,6827.0,-220.0,0.115,-0.235,0.697,0.668
1499287,-4225.0,6841.0,-236.0,0.114,-0.235,0.696,0.668
1499304,-4135.0,6779.0,-280.0,0.113,-0.236,0.696,0.669
1499321,-4185.0,6883.0,-290.0,0.112,-0.236,0.695,0.669
1499338,-4215.0,6919.0,-384.0,0.11,-0.237,0.695,0.67
1499355,-4183.0,7043.0,-486.0,0.109,-0.238,0.695,0.67
1499372,-4145.0,7067.0,-514.0,0.108,-0.238,0.694,0.671
1499389,-4143.0,7067.0,-536.0,0.106,-0.239,0.694,0.671
1499406,-4193.0,6997.0,-534.0,0.105,-0.24,0.693,0.672
1499423,-4245.0,7003.0,-586.0,0.104,-0.24,0.693,0.672
1499440,-4241.0,6905.0,-530.0,0.103,-0.241,0.692,0.672
1499457,-4309.0,6895.0,-536.0,0.102,-0.241,0.692,0.672
1499474,-4219.0,6895.0,-556.0,0.101,-0.241,0.692,0.673
1499500,-4179.0,6907.0,-512.0,0.101,-0.242,0.692,0.673
1499517,-4181.0,7027.0,-400.0,0.1,-0.242,0.692,0.673
1499534,-4155.0,6995.0,-404.0,0.099,-0.242,0.691,0.674
1499551,-4099.0,7041.0,-454.0,0.099,-0.242,0.691,0.674
1499568,-4161.0,7139.0,-436.0,0.098,-0.243,0.69,0.674
1499585,-4129.0,7107.0,-440.0,0.098,-0.243,0.69,0.675
1499602,-4119.0,6965.0,-472.0,0.097,-0.243,0.689,0.676
1499618,-4117.0,6943.0,-528.0,0.097,-0.244,0.688,0.676
1499635,-4175.0,6957.0,-494.0,0.096,-0.245,0.688,0.677
1499652,-4205.0,6905.0,-482.0,0.096,-0.245,0.687,0.677
1499669,-4163.0,6915.0,-506.0,0.096,-0.246,0.687,0.678
1499685,-4127.0,6903.0,-456.0,0.095,-0.246,0.686,0.678
1499711,-4047.0,6965.0,-418.0,0.095,-0.246,0.686,0.678
1499728,-3955.0,7039.0,-324.0,0.095,-0.246,0.686,0.678
1499744,-3887.0,7201.0,-316.0,0.094,-0.247,0.686,0.678
1499760,-3867.0,7333.0,-284.0,0.094,-0.247,0.686,0.678
1499776,-3853.0,7437.0,-210.0,0.094,-0.247,0.686,0.678
1499793,-3921.0,7431.0,-116.0,0.093,-0.247,0.686,0.678
1499810,-3923.0,7257.0,-94.0,0.093,-0.247,0.686,0.678
1499827,-3909.0,7329.0,-42.0,0.092,-0.247,0.685,0.679
1499844,-3947.0,7405.0,-42.0,0.092,-0.247,0.685,0.679
1499871,-3863.0,7385.0,-56.0,0.091,-0.248,0.683,0.681
1499888,-3789.0,7415.0,46.0,0.09,-0.248,0.682,0.682
1499904,-3749.0,7341.0,106.0,0.089,-0.249,0.681,0.683
1499920,-3691.0,7383.0,134.0,0.088,-0.25,0.679,0.684
1499937,-3663.0,7313.0,172.0,0.087,-0.251,0.678,0.685
1499954,-3617.0,7287.0,162.0,0.086,-0.252,0.677,0.686
1499971,-3537.0,7305.0,168.0,0.085,-0.254,0.676,0.686
1499988,-3409.0,7407.0,434.0,0.084,-0.256,0.676,0.686
1500005,-5359.0,6827.0,-50.0,0.081,-0.26,0.671,0.69
1500022,-2509.0,7731.0,864.0,0.077,-0.264,0.667,0.693
1500039,-3915.0,6723.0,914.0,0.073,-0.267,0.663,0.696
1500066,-3863.0,7461.0,770.0,0.069,-0.272,0.659,0.698
1500082,-3999.0,7071.0,610.0,0.065,-0.276,0.655,0.701
1500099,-4137.0,7137.0,358.0,0.062,-0.28,0.651,0.702
1500116,-4259.0,7133.0,90.0,0.059,-0.284,0.648,0.704
1500133,-4251.0,7133.0,-102.0,0.056,-0.288,0.645,0.705
1500150,-4335.0,6723.0,-304.0,0.053,-0.292,0.642,0.707
1500167,-4415.0,6777.0,-454.0,0.051,-0.297,0.64,0.707
1500184,-4737.0,6799.0,-554.0,0.049,-0.301,0.637,0.708
1500201,-4939.0,7041.0,-648.0,0.047,-0.306,0.634,0.709
1500217,-5073.0,6865.0,-940.0,0.045,-0.309,0.631,0.71
1500234,-4963.0,6597.0,-1228.0,0.043,-0.312,0.627,0.713
1500261,-5107.0,6317.0,-1116.0,0.04,-0.315,0.622,0.716
1500278,-5373.0,5515.0,-1004.0,0.038,-0.318,0.617,0.719
1500295,-5533.0,5481.0,-938.0,0.036,-0.32,0.613,0.721
1500312,-5529.0,5017.0,-984.0,0.036,-0.322,0.61,0.723
1500329,-5615.0,5103.0,-1178.0,0.035,-0.323,0.609,0.724
1500346,-5703.0,5335.0,-1352.0,0.036,-0.324,0.608,0.724
1500363,-5751.0,5367.0,-1588.0,0.036,-0.324,0.607,0.724
1500379,-5815.0,5253.0,-1562.0,0.036,-0.324,0.607,0.725
1500395,-5843.0,5173.0,-1440.0,0.037,-0.323,0.607,0.725
1500411,-5741.0,5003.0,-1250.0,0.039,-0.321,0.608,0.725
1500437,-5637.0,5203.0,-1098.0,0.042,-0.318,0.61,0.724
1500453,-5589.0,5585.0,-988.0,0.046,-0.314,0.614,0.723
1500469,-5473.0,5955.0,-896.0,0.05,-0.309,0.618,0.721
1500486,-5139.0,6125.0,-736.0,0.054,-0.304,0.622,0.719
1500503,-5091.0,6445.0,-506.0,0.059,-0.299,0.626,0.717
1500520,-4913.0,6523.0,-328.0,0.063,-0.293,0.631,0.716
1500537,-4677.0,6615.0,-234.0,0.068,-0.288,0.635,0.714
1500554,-4517.0,6817.0,-74.0,0.073,-0.282,0.64,0.711
1500570,-4293.0,7099.0,58.0,0.077,-0.276,0.645,0.709
1500596,-4121.0,7517.0,120.0,0.081,-0.27,0.65,0.706
1500612,-3915.0,7957.0,210.0,0.086,-0.263,0.654,0.704
1500628,-3441.0,8201.0,418.0,0.09,-0.257,0.659,0.701
1500644,-3055.0,8357.0,770.0,0.094,-0.25,0.663,0.699
1500660,-2709.0,8403.0,1228.0,0.098,-0.244,0.667,0.698
1500676,-2471.0,8351.0,1630.0,0.102,-0.237,0.67,0.696
1500702,-2341.0,8293.0,2022.0,0.106,-0.232,0.673,0.694
1500719,-2185.0,7957.0,2468.0,0.11,-0.228,0.676,0.692
1500736,-1951.0,7747.0,2656.0,0.113,-0.225,0.679,0.69
1500753,-2051.0,7583.0,2668.0,0.116,-0.223,0.682,0.687
1500770,-2163.0,7515.0,2560.0,0.118,-0.223,0.684,0.685
1500786,-2449.0,7383.0,2510.0,0.12,-0.224,0.685,0.682
1500803,-2705.0,7285.0,2320.0,0.119,-0.227,0.686,0.681
1500820,-3065.0,7215.0,2032.0,0.118,-0.231,0.686,0.68
1500836,-3481.0,7247.0,1610.0,0.116,-0.236,0.686,0.679
1500853,-3819.0,7313.0,1270.0,0.113,-0.241,0.685,0.678
1500880,-4325.0,7319.0,804.0,0.109,-0.247,0.684,0.678
1500897,-4797.0,7723.0,410.0,0.105,-0.253,0.683,0.677
1500913,-5041.0,7317.0,-70.0,0.102,-0.258,0.682,0.677
1500929,-4859.0,6975.0,-398.0,0.098,-0.263,0.68,0.678
1500945,-5259.0,7355.0,-808.0,0.095,-0.267,0.677,0.679
1500961,-5271.0,7031.0,-1172.0,0.092,-0.271,0.674,0.681
1500977,-5249.0,6845.0,-1352.0,0.089,-0.274,0.67,0.684
1501003,-5269.0,6329.0,-1450.0,0.086,-0.277,0.666,0.687
1501020,-5183.0,5971.0,-1574.0,0.084,-0.279,0.663,0.69
1501038,-5085.0,5729.0,-1670.0,0.082,-0.281,0.66,0.692
1501056,-5025.0,5849.0,-1740.0,0.08,-0.282,0.657,0.694
1501072,-4925.0,5847.0,-1790.0,0.079,-0.283,0.656,0.696
1501088,-4831.0,5855.0,-1774.0,0.077,-0.283,0.655,0.697
1501104,-4887.0,6013.0,-1722.0,0.076,-0.282,0.654,0.697
1501122,-4697.0,6235.0,-1746.0,0.075,-0.281,0.655,0.698
1501139,-4667.0,6665.0,-1824.0,0.074,-0.281,0.655,0.698
1501156,-4671.0,6985.0,-1932.0,0.074,-0.28,0.656,0.698
1501174,-4685.0,7069.0,-1826.0,0.073,-0.278,0.655,0.698
1501191,-4703.0,6817.0,-1736.0,0.073,-0.277,0.655,0.699
1501207,-4833.0,6743.0,-1486.0,0.072,-0.275,0.654,0.701
1501234,-4889.0,6707.0,-1058.0,0.072,-0.272,0.654,0.702
1501250,-4843.0,6725.0,-688.0,0.073,-0.269,0.654,0.703
1501266,-4581.0,6861.0,-232.0,0.075,-0.264,0.654,0.705
1501282,-4365.0,6975.0,188.0,0.078,-0.259,0.656,0.705
1501298,-4021.0,7157.0,578.0,0.081,-0.254,0.657,0.705
1501314,-3759.0,7355.0,852.0,0.084,-0.249,0.659,0.705
1501340,-3437.0,7533.0,1124.0,0.088,-0.244,0.661,0.704
1501356,-3247.0,7693.0,1372.0,0.092,-0.239,0.662,0.704
1501372,-3053.0,7569.0,1566.0,0.095,-0.235,0.663,0.705
1501388,-2959.0,7343.0,1740.0,0.098,-0.233,0.663,0.705
1501404,-2979.0,7171.0,1798.0,0.1,-0.231,0.663,0.705
1501422,-2945.0,7001.0,1808.0,0.102,-0.23,0.663,0.705
1501438,-3059.0,6947.0,1764.0,0.103,-0.229,0.664,0.705
1501464,-3097.0,6885.0,1624.0,0.104,-0.23,0.664,0.704
1501480,-3187.0,6821.0,1558.0,0.105,-0.231,0.664,0.704
1501497,-3369.0,6943.0,1494.0,0.105,-0.232,0.664,0.703
1501514,-3451.0,7025.0,1464.0,0.104,-0.234,0.664,0.702
1501530,-3511.0,7083.0,1340.0,0.104,-0.237,0.665,0.701
1501546,-3697.0,7163.0,1186.0,0.103,-0.239,0.666,0.699
1501562,-3873.0,7313.0,986.0,0.103,-0.242,0.666,0.698
1501588,-3991.0,7285.0,760.0,0.102,-0.245,0.666,0.697
1501604,-4137.0,7343.0,578.0,0.1,-0.249,0.666,0.696
1501620,-4197.0,7225.0,394.0,0.099,-0.252,0.666,0.695
1501636,-4309.0,7139.0,282.0,0.097,-0.255,0.665,0.695
1501652,-4315.0,6957.0,106.0,0.096,-0.259,0.663,0.695
1501668,-4385.0,6753.0,14.0,0.094,-0.262,0.662,0.695
1501694,-4443.0,6689.0,-68.0,0.093,-0.265,0.661,0.695
1501710,-4435.0,6571.0,-148.0,0.092,-0.268,0.661,0.695
1501726,-4543.0,6585.0,-292.0,0.092,-0.271,0.661,0.694
1501742,-4511.0,6629.0,-416.0,0.091,-0.273,0.662,0.692
1501758,-4627.0,6669.0,-554.0,0.09,-0.275,0.663,0.69
1501774,-4635.0,6809.0,-660.0,0.09,-0.277,0.664,0.689
1501800,-6287.0,6161.0,-1782.0,0.088,-0.281,0.666,0.686
1501816,-4847.0,6943.0,-946.0,0.089,-0.28,0.667,0.684
1501832,-4999.0,6669.0,-1656.0,0.088,-0.281,0.667,0.684
1501849,-4677.0,6759.0,-1488.0,0.087,-0.281,0.667,0.684
1501865,-5053.0,6777.0,-1364.0,0.086,-0.282,0.666,0.685
1501882,-5051.0,6485.0,-1272.0,0.085,-0.281,0.665,0.686
1501898,-5033.0,6267.0,-1118.0,0.085,-0.281,0.664,0.688
1501916,-4917.0,6191.0,-940.0,0.085,-0.279,0.664,0.689
1501933,-4843.0,6267.0,-802.0,0.085,-0.278,0.664,0.689
1501960,-4753.0,6365.0,-740.0,0.086,-0.276,0.664,0.69
1501976,-4795.0,6309.0,-580.0,0.087,-0.274,0.664,0.69
1501992,-4717.0,6307.0,-524.0,0.087,-0.272,0.665,0.69
1502008,-4647.0,6381.0,-418.0,0.088,-0.27,0.665,0.691
1502025,-4617.0,6361.0,-388.0,0.089,-0.268,0.666,0.691
1502041,-4565.0,6403.0,-402.0,0.09,-0.266,0.667,0.69
1502058,-4657.0,6487.0,-402.0,0.091,-0.265,0.668,0.69
1502084,-4517.0,6515.0,-446.0,0.092,-0.263,0.669,0.689
1502101,-4459.0,6701.0,-474.0,0.093,-0.262,0.67,0.689
1502119,-4395.0,6825.0,-492.0,0.094,-0.26,0.671,0.688
1502136,-4375.0,6879.0,-518.0,0.095,-0.259,0.673,0.687
1502153,-4299.0,6895.0,-428.0,0.097,-0.257,0.674,0.686
1502170,-4205.0,6947.0,-400.0,0.099,-0.255,0.676,0.684
1502187,-4043.0,6969.0,-258.0,0.101,-0.253,0.679,0.682
1502204,-4009.0,6979.0,-118.0,0.103,-0.251,0.681,0.68
1502221,-3969.0,7075.0,-4.0,0.106,-0.248,0.684,0.678
1502237,-3897.0,7117.0,116.0,0.109,-0.246,0.686,0.676
1502253,-3789.0,7207.0,254.0,0.112,-0.244,0.689,0.674
1502279,-3763.0,7197.0,314.0,0.115,-0.242,0.691,0.671
1502295,-3691.0,7193.0,452.0,0.118,-0.24,0.693,0.669
1502312,-3737.0,7265.0,534.0,0.12,-0.238,0.696,0.667
1502329,-3735.0,7271.0,490.0,0.123,-0.237,0.697,0.665
1502345,-3749.0,7319.0,512.0,0.125,-0.236,0.699,0.663
1502361,-3793.0,7251.0,448.0,0.126,-0.236,0.7,0.662
1502377,-3827.0,7229.0,330.0,0.127,-0.236,0.701,0.661
1502393,-3967.0,7219.0,244.0,0.128,-0.236,0.701,0.66
1502419,-3995.0,7169.0,130.0,0.128,-0.237,0.702,0.66
1502435,-4009.0,7125.0,8.0,0.129,-0.237,0.702,0.659
1502451,-4087.0,7159.0,-108.0,0.129,-0.238,0.702,0.659
1502467,-4075.0,7123.0,-240.0,0.128,-0.239,0.702,0.659
1502484,-4131.0,7119.0,-308.0,0.128,-0.24,0.701,0.659
1502501,-4177.0,7117.0,-358.0,0.127,-0.241,0.701,0.659
1502517,-4193.0,7129.0,-468.0,0.127,-0.242,0.7,0.66
1502544,-4229.0,7077.0,-478.0,0.126,-0.243,0.699,0.66
1502560,-4199.0,7053.0,-542.0,0.126,-0.243,0.699,0.661
1502576,-4211.0,7005.0,-620.0,0.125,-0.245,0.698,0.662
1502592,-4219.0,6963.0,-652.0,0.124,-0.246,0.697,0.662
1502608,-4291.0,6977.0,-712.0,0.123,-0.247,0.696,0.663
1502625,-4341.0,6989.0,-750.0,0.122,-0.248,0.696,0.663
1502643,-4395.0,6947.0,-826.0,0.121,-0.249,0.695,0.664
1502660,-4501.0,6901.0,-850.0,0.121,-0.25,0.694,0.664
1502677,-4507.0,6749.0,-814.0,0.12,-0.251,0.693,0.665
1502703,-4579.0,6649.0,-848.0,0.12,-0.252,0.692,0.666
1502719,-4583.0,6567.0,-790.0,0.119,-0.252,0.691,0.666
1502735,-4575.0,6519.0,-748.0,0.119,-0.252,0.691,0.667
1502752,-4575.0,6541.0,-660.0,0.119,-0.253,0.691,0.667
1502768,-4569.0,6677.0,-558.0,0.118,-0.253,0.691,0.667
1502785,-4505.0,6681.0,-542.0,0.118,-0.253,0.691,0.667
1502802,-4389.0,6695.0,-512.0,0.117,-0.252,0.691,0.667
1502819,-4375.0,6827.0,-442.0,0.117,-0.252,0.691,0.668
1502836,-4359.0,6853.0,-370.0,0.116,-0.252,0.691,0.668
1502863,-4291.0,6919.0,-382.0,0.115,-0.252,0.691,0.668
1502880,-4219.0,6949.0,-412.0,0.115,-0.252,0.69,0.668
1502896,-4177.0,6985.0,-424.0,0.114,-0.252,0.69,0.669
1502913,-4163.0,7045.0,-482.0,0.113,-0.252,0.69,0.669
1502929,-4229.0,6989.0,-464.0,0.113,-0.252,0.689,0.67
1502945,-4153.0,6941.0,-476.0,0.112,-0.252,0.689,0.67
1502962,-4171.0,6895.0,-506.0,0.112,-0.253,0.688,0.671
1502978,-4227.0,6841.0,-486.0,0.112,-0.253,0.688,0.671
1503004,-4345.0,6859.0,-510.0,0.112,-0.254,0.688,0.671
1503021,-4373.0,6849.0,-460.0,0.113,-0.254,0.688,0.671
1503037,-4403.0,6703.0,-420.0,0.113,-0.254,0.688,0.671
1503053,-4461.0,6717.0,-336.0,0.114,-0.254,0.688,0.67
1503071,-4471.0,6625.0,-296.0,0.115,-0.254,0.688,0.67
1503087,-4447.0,6659.0,-210.0,0.116,-0.254,0.689,0.669
1503103,-4487.0,6669.0,-194.0,0.117,-0.254,0.689,0.669
1503120,-4469.0,6655.0,-196.0,0.118,-0.253,0.69,0.668
1503146,-4505.0,6657.0,-190.0,0.118,-0.253,0.69,0.667
1503162,-4481.0,6663.0,-206.0,0.119,-0.253,0.691,0.667
1503178,-4521.0,6721.0,-176.0,0.119,-0.253,0.691,0.667
1503194,-4493.0,6697.0,-198.0,0.119,-0.252,0.691,0.666
1503211,-4511.0,6719.0,-256.0,0.119,-0.252,0.692,0.666
1503228,-4495.0,6749.0,-354.0,0.118,-0.252,0.692,0.666
1503244,-4445.0,6693.0,-410.0,0.118,-0.252,0.692,0.667
1503270,-4461.0,6733.0,-512.0,0.117,-0.252,0.692,0.667
1503286,-4395.0,6793.0,-634.0,0.117,-0.251,0.692,0.667
1503302,-4351.0,6861.0,-702.0,0.116,-0.251,0.692,0.667
1503318,-4389.0,6879.0,-712.0,0.116,-0.25,0.692,0.667
1503334,-4339.0,6827.0,-720.0,0.116,-0.25,0.693,0.667
1503350,-4285.0,6887.0,-760.0,0.116,-0.249,0.693,0.666
1503367,-4249.0,6877.0,-786.0,0.116,-0.248,0.694,0.666
1503394,-4239.0,6975.0,-722.0,0.116,-0.247,0.695,0.666
1503411,-4197.0,7045.0,-668.0,0.117,-0.246,0.695,0.665
1503427,-4191.0,7019.0,-634.0,0.117,-0.245,0.696,0.665
1503443,-4141.0,7047.0,-616.0,0.118,-0.243,0.697,0.664
1503459,-4149.0,7127.0,-544.0,0.119,-0.242,0.698,0.664
1503476,-4121.0,7067.0,-522.0,0.12,-0.241,0.698,0.663
1503492,-4151.0,7049.0,-482.0,0.12,-0.24,0.699,0.663
1503518,-4147.0,6989.0,-448.0,0.121,-0.239,0.699,0.663
1503535,-4117.0,6981.0,-472.0,0.122,-0.238,0.7,0.663
1503552,-4139.0,7031.0,-408.0,0.122,-0.237,0.7,0.662
1503568,-4119.0,6979.0,-414.0,0.123,-0.237,0.7,0.662
1503584,-4121.0,6975.0,-400.0,0.123,-0.236,0.7,0.662
1503600,-4081.0,6953.0,-402.0,0.124,-0.235,0.701,0.662
1503616,-4127.0,6915.0,-424.0,0.124,-0.235,0.701,0.662
1503633,-4123.0,6931.0,-410.0,0.125,-0.234,0.701,0.662
1503650,-4175.0,6925.0,-428.0,0.125,-0.234,0.701,0.662
1503677,-4159.0,6895.0,-352.0,0.125,-0.233,0.701,0.662
1503693,-4109.0,7009.0,-332.0,0.126,-0.233,0.702,0.662
1503709,-4047.0,7025.0,-334.0,0.126,-0.232,0.702,0.662
1503725,-4049.0,7005.0,-332.0,0.126,-0.232,0.702,0.661
1503741,-4119.0,6995.0,-338.0,0.126,-0.232,0.702,0.661
1503757,-4115.0,7061.0,-326.0,0.126,-0.231,0.702,0.661
1503783,-4063.0,7037.0,-368.0,0.126,-0.231,0.702,0.662
1503800,-4075.0,7073.0,-420.0,0.126,-0.231,0.702,0.662
1503817,-4083.0,7037.0,-386.0,0.126,-0.231,0.702,0.662
1503834,-4123.0,7023.0,-428.0,0.126,-0.232,0.701,0.662
1503851,-4129.0,7005.0,-380.0,0.125,-0.232,0.701,0.663
1503868,-4097.0,6955.0,-432.0,0.125,-0.232,0.701,0.663
1503885,-4083.0,7003.0,-430.0,0.125,-0.232,0.701,0.663
1503902,-4115.0,7007.0,-428.0,0.124,-0.232,0.7,0.663
1503919,-4141.0,6971.0,-424.0,0.124,-0.233,0.7,0.664
1503936,-4153.0,6961.0,-420.0,0.124,-0.233,0.7,0.664
1503953,-4075.0,6925.0,-438.0,0.123,-0.233,0.7,0.664
1503970,-4115.0,6923.0,-446.0,0.123,-0.234,0.7,0.664
1503996,-4153.0,6957.0,-436.0,0.122,-0.234,0.699,0.664
1504013,-4209.0,6929.0,-434.0,0.122,-0.234,0.699,0.664
1504030,-4171.0,6939.0,-466.0,0.121,-0.235,0.699,0.665
1504046,-4161.0,6983.0,-414.0,0.121,-0.235,0.698,0.665
1504063,-4173.0,6937.0,-470.0,0.12,-0.236,0.698,0.665
1504079,-4179.0,6947.0,-484.0,0.119,-0.237,0.698,0.666
1504096,-4143.0,6931.0,-512.0,0.119,-0.237,0.697,0.666
1504112,-4241.0,6971.0,-464.0,0.118,-0.238,0.697,0.666
1504128,-4217.0,6985.0,-480.0,0.118,-0.238,0.697,0.666
1504154,-4141.0,6935.0,-554.0,0.117,-0.239,0.696,0.667
1504170,-4133.0,6927.0,-504.0,0.117,-0.239,0.696,0.667
1504187,-4237.0,6941.0,-524.0,0.116,-0.24,0.696,0.667
1504203,-4171.0,6939.0,-492.0,0.116,-0.24,0.696,0.667
1504219,-4181.0,6945.0,-554.0,0.115,-0.24,0.695,0.667
1504235,-4141.0,6943.0,-534.0,0.115,-0.241,0.695,0.668
1504261,-4191.0,6921.0,-458.0,0.115,-0.241,0.695,0.668
1504278,-4195.0,6875.0,-492.0,0.115,-0.241,0.695,0.668
1504295,-4227.0,6871.0,-486.0,0.115,-0.242,0.695,0.668
1504311,-4201.0,6913.0,-524.0,0.115,-0.242,0.695,0.668
1504327,-4313.0,6877.0,-452.0,0.115,-0.242,0.695,0.668
1504343,-4307.0,6925.0,-486.0,0.115,-0.243,0.694,0.668
1504359,-4305.0,6883.0,-508.0,0.115,-0.243,0.694,0.668
1504385,-4257.0,6787.0,-500.0,0.116,-0.243,0.694,0.668
1504402,-4281.0,6829.0,-490.0,0.116,-0.243,0.694,0.668
1504419,-4293.0,6847.0,-510.0,0.116,-0.243,0.694,0.668
1504436,-4333.0,6809.0,-486.0,0.116,-0.243,0.694,0.667
1504453,-4303.0,6781.0,-478.0,0.117,-0.243,0.694,0.667
1504470,-4275.0,6771.0,-450.0,0.117,-0.243,0.694,0.667
1504486,-4251.0,6839.0,-440.0,0.117,-0.242,0.695,0.667
1504503,-4259.0,6817.0,-408.0,0.118,-0.242,0.695,0.667
1504520,-4269.0,6897.0,-420.0,0.118,-0.242,0.695,0.666
1504537,-4249.0,6915.0,-376.0,0.118,-0.242,0.696,0.666
1504554,-4221.0,6905.0,-404.0,0.118,-0.241,0.696,0.666
1504580,-4257.0,6943.0,-442.0,0.119,-0.241,0.696,0.666
1504596,-4251.0,7001.0,-428.0,0.119,-0.24,0.697,0.665
1504613,-4253.0,7017.0,-462.0,0.119,-0.24,0.697,0.665
1504629,-4257.0,6967.0,-404.0,0.12,-0.24,0.697,0.665
1504646,-4257.0,6963.0,-448.0,0.12,-0.239,0.697,0.665
1504663,-4197.0,6975.0,-466.0,0.12,-0.239,0.698,0.665
1504679,-4165.0,6923.0,-450.0,0.12,-0.238,0.698,0.665
1504695,-4183.0,6919.0,-494.0,0.121,-0.238,0.698,0.664
1504712,-4169.0,6945.0,-464.0,0.121,-0.238,0.698,0.664
1504739,-4127.0,7027.0,-446.0,0.121,-0.237,0.699,0.664
1504755,-4117.0,6987.0,-354.0,0.122,-0.237,0.699,0.664
1504771,-4119.0,7015.0,-382.0,0.122,-0.236,0.699,0.664
1504787,-4177.0,6933.0,-374.0,0.122,-0.236,0.699,0.664
1504803,-4085.0,6919.0,-404.0,0.122,-0.236,0.699,0.664
1504819,-4141.0,6983.0,-360.0,0.123,-0.235,0.7,0.663
1504836,-4149.0,6971.0,-366.0,0.122,-0.235,0.7,0.663
1504863,-4133.0,6937.0,-372.0,0.122,-0.235,0.7,0.663
1504880,-4151.0,6953.0,-414.0,0.122,-0.235,0.7,0.663
1504897,-4147.0,6989.0,-420.0,0.122,-0.235,0.7,0.663
1504914,-4131.0,6983.0,-432.0,0.122,-0.234,0.7,0.663
1504931,-4109.0,6991.0,-470.0,0.122,-0.234,0.701,0.663
1504947,-4155.0,7015.0,-470.0,0.122,-0.234,0.7,0.663
1504964,-4131.0,6959.0,-430.0,0.122,-0.234,0.701,0.663
1504981,-4151.0,6989.0,-442.0,0.122,-0.234,0.701,0.663
1504998,-4117.0,7009.0,-454.0,0.122,-0.234,0.7,0.663
1505014,-4097.0,7063.0,-492.0,0.122,-0.234,0.7,0.663
1505031,-4119.0,7003.0,-426.0,0.122,-0.234,0.7,0.664
1505057,-4123.0,6939.0,-424.0,0.121,-0.234,0.7,0.664
1505073,-4147.0,6961.0,-446.0,0.121,-0.234,0.7,0.664
1505089,-4107.0,6965.0,-454.0,0.121,-0.234,0.7,0.664
1505106,-4097.0,6953.0,-436.0,0.121,-0.234,0.7,0.664
1505122,-4047.0,6915.0,-448.0,0.121,-0.234,0.7,0.664
1505138,-4121.0,6895.0,-460.0,0.121,-0.234,0.7,0.664
1505164,-4087.0,6979.0,-426.0,0.121,-0.235,0.7,0.664
1505181,-4127.0,7003.0,-412.0,0.121,-0.235,0.7,0.664
1505198,-4183.0,6969.0,-416.0,0.121,-0.235,0.7,0.664
1505215,-4151.0,6963.0,-488.0,0.12,-0.236,0.7,0.663
1505232,-4169.0,6945.0,-424.0,0.12,-0.236,0.7,0.663
1505249,-4179.0,6943.0,-458.0,0.12,-0.236,0.7,0.663
1505266,-4215.0,7023.0,-490.0,0.12,-0.237,0.7,0.663
1505283,-4207.0,6993.0,-476.0,0.12,-0.237,0.7,0.663
1505300,-4223.0,6937.0,-472.0,0.12,-0.237,0.699,0.663
1505317,-4169.0,6913.0,-458.0,0.12,-0.238,0.699,0.664
1505334,-4217.0,6883.0,-454.0,0.12,-0.238,0.699,0.664
1505351,-4191.0,6921.0,-468.0,0.12,-0.238,0.699,0.664
1505368,-4217.0,6965.0,-434.0,0.119,-0.238,0.699,0.664
1505385,-4223.0,6893.0,-454.0,0.119,-0.239,0.698,0.664
1505412,-4235.0,6927.0,-408.0,0.119,-0.239,0.698,0.664
1505428,-4179.0,6855.0,-502.0,0.119,-0.239,0.698,0.664
1505444,-4227.0,6901.0,-512.0,0.119,-0.239,0.698,0.664
1505460,-4205.0,6903.0,-492.0,0.119,-0.239,0.698,0.664
1505476,-4229.0,6899.0,-522.0,0.119,-0.239,0.698,0.664
1505492,-4237.0,6897.0,-496.0,0.119,-0.239,0.698,0.664
1505509,-4233.0,6863.0,-502.0,0.119,-0.24,0.698,0.664
1505536,-4253.0,6867.0,-454.0,0.119,-0.24,0.698,0.664
1505552,-4255.0,6835.0,-470.0,0.12,-0.24,0.698,0.664
1505569,-4211.0,6851.0,-460.0,0.12,-0.24,0.698,0.664
1505586,-4245.0,6901.0,-432.0,0.12,-0.24,0.698,0.664
1505603,-4235.0,6891.0,-388.0,0.12,-0.24,0.698,0.664
1505619,-4233.0,6917.0,-448.0,0.12,-0.24,0.698,0.664
1505636,-4157.0,6929.0,-430.0,0.12,-0.24,0.698,0.664
1505653,-4167.0,6961.0,-472.0,0.12,-0.24,0.698,0.664
1505669,-4267.0,6901.0,-420.0,0.12,-0.24,0.698,0.664
1505686,-4269.0,6849.0,-442.0,0.12,-0.24,0.698,0.664
1505712,-4261.0,6963.0,-472.0,0.12,-0.24,0.698,0.664
1505729,-4229.0,6927.0,-474.0,0.12,-0.24,0.698,0.664
1505746,-4239.0,6879.0,-422.0,0.12,-0.24,0.698,0.664
1505762,-4181.0,6909.0,-512.0,0.12,-0.24,0.698,0.664
1505778,-4265.0,6953.0,-448.0,0.12,-0.24,0.698,0.664
1505795,-4223.0,6993.0,-426.0,0.12,-0.24,0.698,0.664
1505812,-4245.0,7003.0,-466.0,0.12,-0.239,0.698,0.664
1505829,-4257.0,6965.0,-470.0,0.12,-0.239,0.698,0.664
1505846,-4207.0,6915.0,-398.0,0.12,-0.239,0.699,0.664
1505863,-4173.0,6865.0,-404.0,0.12,-0.238,0.699,0.664
1505890,-4175.0,6913.0,-396.0,0.12,-0.238,0.699,0.664
1505906,-4201.0,6903.0,-384.0,0.12,-0.238,0.699,0.664
1505922,-4209.0,6855.0,-390.0,0.12,-0.237,0.699,0.664
1505938,-4169.0,6921.0,-394.0,0.12,-0.237,0.699,0.664
1505954,-4157.0,6907.0,-426.0,0.119,-0.236,0.699,0.665
1505970,-4125.0,6933.0,-422.0,0.119,-0.236,0.699,0.665
1505996,-4155.0,7011.0,-504.0,0.119,-0.236,0.699,0.665
1506012,-4189.0,6965.0,-508.0,0.119,-0.235,0.699,0.665
1506029,-4165.0,6961.0,-454.0,0.119,-0.235,0.699,0.665
1506045,-4173.0,6931.0,-484.0,0.119,-0.234,0.699,0.665
1506062,-4183.0,6985.0,-466.0,0.119,-0.234,0.699,0.665
1506078,-4107.0,7033.0,-480.0,0.118,-0.233,0.7,0.665
1506094,-4139.0,7031.0,-418.0,0.118,-0.233,0.7,0.665
1506111,-4081.0,7017.0,-386.0,0.118,-0.232,0.7,0.665
1506128,-4103.0,7091.0,-416.0,0.118,-0.232,0.7,0.665
1506155,-4077.0,7021.0,-412.0,0.118,-0.231,0.7,0.666
1506171,-4051.0,7061.0,-366.0,0.118,-0.231,0.7,0.666
1506187,-4037.0,7013.0,-366.0,0.118,-0.231,0.699,0.666
1506203,-3987.0,6989.0,-424.0,0.118,-0.23,0.699,0.666
1506219,-3973.0,7023.0,-328.0,0.118,-0.23,0.699,0.666
1506236,-4029.0,7015.0,-358.0,0.118,-0.23,0.699,0.667
1506252,-4013.0,6973.0,-376.0,0.118,-0.229,0.699,0.667
1506279,-4079.0,6985.0,-360.0,0.118,-0.229,0.699,0.667
1506296,-4071.0,6945.0,-384.0,0.117,-0.229,0.699,0.667
1506313,-4027.0,6983.0,-388.0,0.117,-0.229,0.699,0.667
1506329,-4013.0,7017.0,-418.0,0.117,-0.229,0.699,0.667
1506346,-4085.0,7085.0,-444.0,0.117,-0.229,0.699,0.667
1506362,-4053.0,7013.0,-416.0,0.117,-0.229,0.699,0.667
1506379,-4025.0,7023.0,-364.0,0.117,-0.229,0.699,0.668
1506395,-4013.0,6981.0,-402.0,0.117,-0.229,0.699,0.668
1506421,-4063.0,7003.0,-418.0,0.116,-0.229,0.699,0.668
1506437,-4067.0,7043.0,-436.0,0.116,-0.229,0.699,0.668
1506453,-4023.0,7027.0,-364.0,0.116,-0.229,0.699,0.668
1506469,-4007.0,7011.0,-374.0,0.116,-0.229,0.698,0.668
1506485,-4037.0,6967.0,-412.0,0.116,-0.229,0.698,0.668
1506502,-4057.0,7037.0,-454.0,0.116,-0.229,0.698,0.668
1506519,-4037.0,7011.0,-424.0,0.116,-0.229,0.698,0.668
1506536,-4035.0,7069.0,-418.0,0.116,-0.229,0.698,0.668
1506562,-4019.0,7021.0,-418.0,0.116,-0.229,0.698,0.668
1506579,-4087.0,6997.0,-438.0,0.116,-0.229,0.698,0.669
1506596,-4079.0,7001.0,-380.0,0.116,-0.229,0.698,0.669
1506613,-4103.0,6949.0,-370.0,0.116,-0.229,0.698,0.669
1506629,-4037.0,7039.0,-318.0,0.116,-0.229,0.698,0.668
1506645,-4037.0,7029.0,-308.0,0.116,-0.229,0.698,0.668
1506661,-4061.0,7057.0,-294.0,0.116,-0.229,0.698,0.668
1506678,-4053.0,7047.0,-300.0,0.116,-0.229,0.698,0.669
1506695,-4013.0,7021.0,-280.0,0.116,-0.229,0.698,0.669
1506721,-3981.0,7083.0,-304.0,0.116,-0.229,0.698,0.669
1506738,-3959.0,7083.0,-338.0,0.116,-0.229,0.698,0.669
1506755,-3983.0,7117.0,-404.0,0.115,-0.229,0.698,0.669
1506772,-4003.0,7105.0,-466.0,0.115,-0.229,0.697,0.669
1506789,-3973.0,7009.0,-438.0,0.114,-0.23,0.697,0.669
1506806,-3951.0,7021.0,-408.0,0.114,-0.23,0.697,0.669
1506823,-3985.0,7057.0,-458.0,0.114,-0.23,0.697,0.67
1506839,-3951.0,7127.0,-452.0,0.113,-0.23,0.697,0.67
1506856,-4007.0,7099.0,-492.0,0.113,-0.231,0.697,0.67
1506873,-3983.0,7123.0,-412.0,0.113,-0.231,0.697,0.67
1506890,-4005.0,7103.0,-368.0,0.112,-0.231,0.696,0.67
1506916,-4027.0,7045.0,-376.0,0.112,-0.231,0.696,0.67
1506932,-4055.0,7035.0,-338.0,0.112,-0.232,0.696,0.67
1506949,-3989.0,7023.0,-322.0,0.112,-0.232,0.696,0.67
1506965,-3973.0,7065.0,-344.0,0.112,-0.232,0.696,0.67
1506982,-3973.0,7077.0,-352.0,0.111,-0.232,0.696,0.671
1506998,-4041.0,7085.0,-324.0,0.111,-0.233,0.695,0.671
1507015,-4007.0,7047.0,-352.0,0.111,-0.233,0.695,0.671
1507032,-3989.0,7101.0,-346.0,0.11,-0.233,0.695,0.671
1507058,-3987.0,7043.0,-418.0,0.11,-0.233,0.695,0.671
1507074,-4025.0,7007.0,-444.0,0.11,-0.234,0.694,0.672
1507090,-4047.0,7005.0,-412.0,0.11,-0.234,0.694,0.672
1507107,-4107.0,6991.0,-388.0,0.11,-0.234,0.694,0.672
1507123,-4089.0,7001.0,-402.0,0.11,-0.234,0.694,0.672
1507139,-4075.0,7017.0,-394.0,0.11,-0.235,0.694,0.672
1507156,-4107.0,7013.0,-330.0,0.11,-0.235,0.694,0.672
1507182,-4089.0,6991.0,-332.0,0.11,-0.235,0.694,0.672
1507200,-4033.0,7003.0,-344.0,0.11,-0.235,0.694,0.672
1507216,-4083.0,7011.0,-310.0,0.11,-0.235,0.693,0.672
1507232,-4081.0,6975.0,-278.0,0.11,-0.235,0.693,0.672
1507248,-4127.0,6983.0,-304.0,0.11,-0.235,0.693,0.672
1507264,-4151.0,6999.0,-314.0,0.11,-0.235,0.693,0.672
1507281,-4119.0,6895.0,-292.0,0.11,-0.235,0.693,0.673
1507297,-4179.0,7003.0,-294.0,0.11,-0.236,0.693,0.673
1507314,-4107.0,6947.0,-278.0,0.11,-0.236,0.693,0.673
1507341,-4113.0,6955.0,-342.0,0.11,-0.236,0.693,0.673
1507357,-4137.0,6861.0,-332.0,0.11,-0.236,0.693,0.673
1507373,-4159.0,6921.0,-304.0,0.11,-0.236,0.692,0.673
1507389,-4155.0,6905.0,-334.0,0.11,-0.236,0.692,0.673
1507406,-4173.0,6969.0,-340.0,0.11,-0.236,0.693,0.673
1507422,-4097.0,7019.0,-376.0,0.11,-0.236,0.693,0.673
1507439,-4099.0,7021.0,-332.0,0.11,-0.236,0.693,0.673
1507465,-4097.0,6985.0,-374.0,0.11,-0.236,0.693,0.673
1507482,-4097.0,6943.0,-374.0,0.11,-0.235,0.693,0.673
1507498,-4065.0,6965.0,-338.0,0.11,-0.235,0.693,0.673
1507514,-4039.0,6963.0,-332.0,0.11,-0.235,0.693,0.673
1507531,-4083.0,7041.0,-354.0,0.11,-0.235,0.693,0.673
1507548,-4059.0,6981.0,-314.0,0.11,-0.235,0.693,0.672
1507564,-4045.0,6969.0,-314.0,0.11,-0.235,0.693,0.672
1507581,-4093.0,7031.0,-370.0,0.11,-0.235,0.693,0.672
1507607,-4051.0,7017.0,-338.0,0.11,-0.235,0.694,0.672
1507623,-4065.0,7047.0,-358.0,0.11,-0.235,0.694,0.672
1507639,-4071.0,7037.0,-340.0,0.11,-0.235,0.694,0.672
1507655,-4111.0,7043.0,-300.0,0.11,-0.234,0.694,0.671
1507672,-4137.0,7063.0,-306.0,0.11,-0.234,0.695,0.671
1507689,-4029.0,7017.0,-250.0,0.11,-0.234,0.695,0.671
1507706,-4027.0,7079.0,-284.0,0.111,-0.233,0.695,0.671
1507722,-3967.0,7049.0,-280.0,0.111,-0.233,0.695,0.671
1507739,-3989.0,7103.0,-270.0,0.111,-0.233,0.695,0.671
1507766,-3993.0,7045.0,-282.0,0.111,-0.233,0.695,0.672
1507782,-3977.0,7069.0,-270.0,0.111,-0.233,0.694,0.672
1507798,-3985.0,7013.0,-252.0,0.111,-0.233,0.694,0.672
1507815,-3993.0,6951.0,-242.0,0.111,-0.233,0.694,0.672
1507831,-3999.0,6893.0,-252.0,0.111,-0.233,0.694,0.673
1507848,-4045.0,6963.0,-282.0,0.111,-0.233,0.694,0.672
1507865,-4019.0,7029.0,-310.0,0.111,-0.234,0.694,0.672
1507882,-3975.0,7029.0,-302.0,0.111,-0.234,0.694,0.672
1507898,-4017.0,7021.0,-404.0,0.111,-0.234,0.694,0.672
1507925,-4073.0,6941.0,-344.0,0.111,-0.235,0.694,0.672
1507941,-4015.0,6865.0,-314.0,0.111,-0.235,0.694,0.671
1507957,-4071.0,6983.0,-398.0,0.111,-0.235,0.695,0.67
1507973,-4137.0,7097.0,-432.0,0.111,-0.236,0.695,0.67
1507989,-4109.0,7063.0,-564.0,0.111,-0.236,0.695,0.67
1508006,-4019.0,6789.0,-406.0,0.111,-0.237,0.695,0.67
1508022,-4309.0,7647.0,-558.0,0.111,-0.238,0.695,0.67
1508048,-3933.0,6859.0,-610.0,0.111,-0.239,0.693,0.671
1508064,-3809.0,6555.0,-186.0,0.11,-0.241,0.692,0.671
1508081,-4783.0,6975.0,-208.0,0.111,-0.242,0.692,0.671
1508098,-3881.0,7477.0,-166.0,0.111,-0.243,0.691,0.672
1508114,-4459.0,7205.0,-398.0,0.111,-0.244,0.691,0.671
1508130,-4389.0,7113.0,-380.0,0.111,-0.245,0.69,0.672
1508147,-4337.0,6889.0,-270.0,0.11,-0.245,0.69,0.672
1508164,-4323.0,6275.0,-282.0,0.11,-0.246,0.69,0.672
1508191,-4417.0,7031.0,-328.0,0.11,-0.246,0.69,0.672
1508207,-4437.0,6587.0,-296.0,0.109,-0.246,0.69,0.672
1508223,-4753.0,7211.0,-316.0,0.108,-0.245,0.689,0.673
1508239,-4577.0,6677.0,-224.0,0.107,-0.243,0.69,0.674
1508255,-4481.0,6833.0,-306.0,0.106,-0.241,0.69,0.674
1508271,-4495.0,6783.0,-246.0,0.105,-0.239,0.691,0.675
1508288,-4167.0,6601.0,44.0,0.104,-0.237,0.691,0.675
1508314,-4383.0,7353.0,-282.0,0.103,-0.235,0.691,0.676
1508330,-3777.0,7039.0,94.0,0.102,-0.233,0.691,0.677
1508346,-3817.0,7227.0,-56.0,0.101,-0.231,0.69,0.679
1508362,-3561.0,7427.0,-32.0,0.099,-0.23,0.688,0.681
1508378,-3353.0,7733.0,14.0,0.097,-0.231,0.685,0.684
1508394,-4041.0,7501.0,104.0,0.095,-0.231,0.682,0.687
1508420,-4237.0,7391.0,230.0,0.094,-0.23,0.679,0.69
1508436,-4057.0,7425.0,154.0,0.093,-0.229,0.677,0.693
1508453,-4191.0,7599.0,138.0,0.091,-0.226,0.676,0.695
1508470,-4103.0,7525.0,246.0,0.09,-0.223,0.675,0.697
1508486,-3815.0,7653.0,146.0,0.09,-0.22,0.674,0.699
1508503,-3641.0,7341.0,244.0,0.09,-0.217,0.674,0.7
1508520,-3267.0,7829.0,60.0,0.09,-0.213,0.674,0.701
1508537,-3159.0,8313.0,244.0,0.09,-0.211,0.673,0.703
1508554,-3103.0,7803.0,118.0,0.09,-0.21,0.671,0.705
1508571,-2977.0,7491.0,420.0,0.089,-0.21,0.668,0.708
1508597,-3115.0,7149.0,850.0,0.089,-0.209,0.667,0.71
1508614,-3741.0,7101.0,720.0,0.089,-0.209,0.665,0.711
1508631,-3043.0,7337.0,1626.0,0.088,-0.209,0.665,0.711
1508648,-4385.0,6979.0,260.0,0.088,-0.209,0.664,0.712
1508664,-3249.0,6593.0,292.0,0.087,-0.209,0.663,0.713
1508681,-3935.0,6505.0,318.0,0.087,-0.209,0.664,0.713
1508697,-3761.0,7009.0,184.0,0.087,-0.209,0.666,0.711
1508714,-4107.0,7549.0,102.0,0.088,-0.208,0.667,0.71
1508731,-3977.0,7007.0,260.0,0.088,-0.206,0.669,0.709
1508757,-3617.0,7561.0,374.0,0.088,-0.204,0.67,0.708
1508773,-3737.0,7359.0,232.0,0.089,-0.203,0.671,0.707
1508790,-3645.0,7671.0,554.0,0.089,-0.202,0.672,0.707
1508807,-3685.0,7015.0,438.0,0.089,-0.201,0.674,0.706
1508823,-3569.0,7443.0,468.0,0.09,-0.201,0.676,0.703
1508839,-3083.0,8159.0,464.0,0.089,-0.202,0.677,0.702
1508855,-3489.0,8553.0,142.0,0.088,-0.205,0.677,0.701
1508872,-4149.0,7969.0,414.0,0.087,-0.209,0.677,0.7
1508898,-4343.0,7733.0,354.0,0.085,-0.214,0.678,0.698
1508914,-4023.0,7947.0,696.0,0.083,-0.219,0.678,0.697
1508931,-4075.0,7447.0,488.0,0.08,-0.223,0.677,0.697
1508947,-3827.0,7235.0,354.0,0.078,-0.227,0.676,0.697
1508963,-3433.0,7299.0,446.0,0.075,-0.229,0.675,0.697
1508980,-3349.0,7603.0,486.0,0.071,-0.231,0.674,0.699
1508997,-3527.0,6947.0,344.0,0.066,-0.231,0.671,0.701
1509014,-3741.0,6113.0,274.0,0.061,-0.231,0.67,0.703
1509031,-3369.0,5943.0,-84.0,0.056,-0.228,0.669,0.705
1509058,-2985.0,6385.0,-184.0,0.053,-0.226,0.669,0.706
1509074,-3037.0,7403.0,260.0,0.049,-0.223,0.669,0.707
1509090,-3151.0,7503.0,22.0,0.046,-0.22,0.669,0.709
1509106,-2831.0,7465.0,34.0,0.043,-0.218,0.667,0.711
1509122,-2991.0,7359.0,374.0,0.04,-0.216,0.665,0.714
1509139,-3375.0,6739.0,274.0,0.039,-0.214,0.664,0.715
1509155,-3301.0,6399.0,528.0,0.038,-0.212,0.665,0.715
1509182,-3479.0,6361.0,664.0,0.037,-0.208,0.668,0.714
1509198,-3171.0,6799.0,876.0,0.037,-0.205,0.672,0.711
1509214,-3301.0,7115.0,796.0,0.036,-0.203,0.675,0.708
1509230,-4171.0,6729.0,150.0,0.034,-0.199,0.679,0.706
1509247,-4283.0,7669.0,-122.0,0.035,-0.194,0.685,0.701
1509264,-3693.0,9381.0,-214.0,0.037,-0.187,0.691,0.697
1509281,-2791.0,8007.0,-398.0,0.038,-0.18,0.693,0.697
1509297,-2059.0,7205.0,-614.0,0.038,-0.172,0.695,0.697
1509314,-1995.0,7615.0,-490.0,0.04,-0.166,0.696,0.697
1509341,-1343.0,8299.0,-586.0,0.039,-0.161,0.694,0.7
1509357,-1487.0,7235.0,-486.0,0.037,-0.157,0.689,0.706
1509373,-1621.0,5943.0,-266.0,0.033,-0.153,0.682,0.714
1509390,-1705.0,4773.0,18.0,0.029,-0.148,0.676,0.721
1509406,-1135.0,4385.0,86.0,0.026,-0.142,0.675,0.723
1509422,-347.0,5559.0,446.0,0.024,-0.138,0.679,0.721
1509439,-491.0,7915.0,904.0,0.022,-0.136,0.684,0.716
1509456,-21.0,10129.0,990.0,0.018,-0.136,0.688,0.712
1509482,-927.0,10147.0,756.0,0.013,-0.138,0.689,0.711
1509498,-1305.0,8535.0,368.0,0.007,-0.14,0.687,0.713
1509514,-1717.0,6615.0,58.0,0.001,-0.14,0.683,0.717
1509530,-1609.0,5457.0,-14.0,0.006,0.139,-0.679,-0.721
1509547,-1775.0,5915.0,240.0,0.011,0.137,-0.676,-0.724
1509564,-1857.0,6453.0,728.0,0.017,0.134,-0.675,-0.725
1509580,-1835.0,7439.0,846.0,0.02,0.131,-0.676,-0.725
1509606,-1531.0,9507.0,1476.0,0.022,0.129,-0.681,-0.721
1509622,-1449.0,13165.0,1164.0,0.021,0.129,-0.686,-0.715
1509638,-1853.0,12717.0,-180.0,0.019,0.129,-0.689,-0.713
1509655,-1847.0,11771.0,-740.0,0.018,0.129,-0.688,-0.714
1509672,-1763.0,10259.0,-790.0,0.017,0.129,-0.683,-0.718
1509688,-1133.0,8283.0,58.0,0.017,0.13,-0.677,-0.724
1509705,-1673.0,7067.0,464.0,0.016,0.13,-0.671,-0.73
1509731,-1647.0,6537.0,862.0,0.016,0.131,-0.666,-0.734
1509747,-1951.0,6411.0,1084.0,0.015,0.132,-0.663,-0.737
1509764,-1775.0,6211.0,1396.0,0.014,0.133,-0.661,-0.739
1509781,-1759.0,6863.0,1510.0,0.013,0.133,-0.661,-0.739
1509797,-1799.0,7809.0,1384.0,0.012,0.135,-0.661,-0.738
1509814,-1717.0,8419.0,1498.0,0.01,0.136,-0.662,-0.737
1509830,-1633.0,8229.0,1352.0,0.009,0.137,-0.661,-0.737
1509847,-1337.0,7683.0,1392.0,0.008,0.138,-0.661,-0.738
1509864,-1471.0,7789.0,1420.0,0.008,0.14,-0.66,-0.738
1509881,-1473.0,8119.0,1408.0,0.007,0.142,-0.66,-0.738
1509907,-1645.0,7933.0,1278.0,0.006,0.144,-0.659,-0.738
1509923,-1569.0,8017.0,1248.0,0.005,0.146,-0.658,-0.739
1509939,-1761.0,8213.0,1116.0,0.003,0.148,-0.657,-0.739
1509956,-1883.0,8163.0,1074.0,0.002,0.151,-0.655,-0.74
1509972,-2183.0,8355.0,1076.0,0.0,0.154,-0.653,-0.742
1509988,-2173.0,8199.0,1054.0,0.002,-0.157,0.65,0.743
1510014,-2125.0,8139.0,966.0,0.004,-0.16,0.647,0.746
1510030,-2067.0,7729.0,1020.0,0.005,-0.163,0.643,0.748
1510046,-2201.0,7637.0,1148.0,0.007,-0.165,0.639,0.751
1510062,-2213.0,7461.0,1306.0,0.009,-0.168,0.636,0.753
1510078,-2247.0,7453.0,1296.0,0.011,-0.17,0.633,0.755
1510094,-2467.0,7413.0,1448.0,0.013,-0.173,0.63,0.757
1510120,-2539.0,7571.0,1494.0,0.016,-0.176,0.627,0.759
1510136,-2627.0,7487.0,1446.0,0.018,-0.178,0.625,0.76
1510153,-2713.0,7299.0,1484.0,0.02,-0.18,0.623,0.761
1510169,-2815.0,7279.0,1444.0,0.022,-0.182,0.622,0.762
1510186,-2897.0,7277.0,1484.0,0.024,-0.183,0.621,0.762
1510202,-2945.0,7223.0,1470.0,0.026,-0.185,0.62,0.762
1510218,-3065.0,7061.0,1396.0,0.028,-0.186,0.62,0.762
1510244,-3085.0,6997.0,1398.0,0.03,-0.188,0.62,0.762
1510260,-3273.0,7253.0,1368.0,0.032,-0.189,0.62,0.761
1510276,-3587.0,7383.0,1476.0,0.034,-0.189,0.62,0.76
1510293,-3343.0,6813.0,1326.0,0.036,-0.189,0.621,0.76
1510309,-3221.0,6827.0,1198.0,0.037,-0.188,0.623,0.759
1510325,-2955.0,6951.0,1044.0,0.039,-0.186,0.625,0.757
1510341,-2799.0,7329.0,1018.0,0.04,-0.186,0.628,0.755
1510367,-2885.0,7597.0,992.0,0.041,-0.186,0.63,0.753
1510383,-2795.0,7487.0,1026.0,0.043,-0.186,0.632,0.751
1510399,-2705.0,6961.0,1124.0,0.044,-0.185,0.633,0.75
1510415,-2841.0,6731.0,1298.0,0.044,-0.185,0.634,0.749
1510431,-2727.0,6805.0,1436.0,0.044,-0.185,0.636,0.748
1510447,-2759.0,7093.0,1430.0,0.044,-0.185,0.637,0.747
1510474,-3039.0,7407.0,1414.0,0.044,-0.185,0.639,0.745
1510490,-2981.0,7739.0,1490.0,0.044,-0.184,0.641,0.744
1510506,-2883.0,7763.0,1416.0,0.044,-0.184,0.643,0.742
1510522,-2717.0,7841.0,1388.0,0.044,-0.184,0.645,0.74
1510538,-2711.0,7917.0,1386.0,0.044,-0.184,0.647,0.739
1510554,-2687.0,7847.0,1264.0,0.044,-0.184,0.648,0.737
1510580,-2843.0,7803.0,1254.0,0.045,-0.185,0.649,0.736
1510597,-2815.0,7751.0,1276.0,0.046,-0.186,0.65,0.735
1510614,-2829.0,7841.0,1288.0,0.046,-0.187,0.651,0.734
1510630,-2787.0,7823.0,1284.0,0.047,-0.189,0.651,0.734
1510646,-2733.0,7877.0,1218.0,0.048,-0.191,0.651,0.733
1510662,-2895.0,7801.0,1248.0,0.049,-0.192,0.65,0.733
1510679,-3007.0,7619.0,1290.0,0.049,-0.194,0.649,0.734
1510695,-2999.0,7651.0,1312.0,0.05,-0.196,0.648,0.734
1510722,-2985.0,7611.0,1240.0,0.051,-0.198,0.647,0.734
1510738,-2967.0,7749.0,1076.0,0.052,-0.2,0.646,0.735
1510754,-3053.0,8067.0,774.0,0.053,-0.202,0.644,0.736
1510770,-3181.0,8097.0,806.0,0.053,-0.205,0.64,0.738
1510787,-3163.0,7647.0,910.0,0.053,-0.209,0.635,0.742
1510803,-3291.0,7033.0,968.0,0.054,-0.213,0.63,0.745
1510820,-3371.0,6775.0,956.0,0.055,-0.217,0.625,0.747
1510837,-3397.0,6653.0,980.0,0.057,-0.221,0.622,0.749
1510863,-3629.0,6897.0,960.0,0.058,-0.225,0.619,0.75
1510880,-3565.0,6893.0,762.0,0.06,-0.228,0.616,0.751
1510897,-3211.0,6873.0,510.0,0.061,-0.231,0.614,0.752
1510913,-3121.0,6791.0,364.0,0.064,-0.233,0.613,0.752
1510930,-3045.0,6851.0,86.0,0.067,-0.235,0.612,0.752
1510946,-3463.0,6067.0,190.0,0.071,-0.238,0.61,0.752
1510962,-3767.0,4877.0,318.0,0.077,-0.239,0.611,0.751
1510979,-3569.0,3427.0,-236.0,0.082,-0.239,0.613,0.749
1510996,-2595.0,2521.0,-576.0,0.086,-0.235,0.616,0.747
1511022,-1721.0,2025.0,-328.0,0.089,-0.229,0.62,0.745
1511038,-519.0,1615.0,158.0,0.09,-0.221,0.625,0.743
1511054,227.0,2253.0,390.0,0.089,-0.212,0.629,0.742
1511070,445.0,1273.0,804.0,0.085,-0.199,0.634,0.742
1511087,787.0,1333.0,718.0,0.077,-0.184,0.64,0.742
1511103,795.0,1605.0,1756.0,0.065,-0.165,0.646,0.742
1511120,1289.0,3003.0,2264.0,0.049,-0.143,0.652,0.743
1511146,1731.0,5165.0,2512.0,0.031,-0.12,0.656,0.745
1511162,2893.0,6277.0,1814.0,0.011,-0.094,0.657,0.748
1511178,2993.0,7563.0,2198.0,0.011,0.066,-0.655,-0.753
1511194,2803.0,7471.0,1990.0,0.035,0.035,-0.651,-0.758
1511211,3065.0,7217.0,1906.0,0.057,0.003,-0.644,-0.762
1511232,3425.0,6751.0,1868.0,0.079,-0.032,-0.638,-0.766
1511249,4453.0,9381.0,2170.0,0.101,-0.069,-0.63,-0.767
1511265,4663.0,9701.0,2362.0,0.124,-0.108,-0.618,-0.769
1511281,4973.0,9371.0,2662.0,0.145,-0.146,-0.604,-0.77
1511307,5495.0,9101.0,2524.0,0.165,-0.184,-0.589,-0.769
1511323,6745.0,10659.0,2784.0,0.182,-0.223,-0.574,-0.767
1511339,7257.0,11427.0,3126.0,0.196,-0.26,-0.555,-0.765
1511355,7583.0,12419.0,4418.0,0.209,-0.295,-0.536,-0.763
1511371,8675.0,9251.0,4394.0,0.22,-0.329,-0.515,-0.76
1511387,8855.0,7341.0,4462.0,0.232,-0.359,-0.496,-0.756
1511404,9199.0,8763.0,3886.0,0.242,-0.384,-0.481,-0.75
1511430,6885.0,11765.0,3336.0,0.249,-0.407,-0.469,-0.743
1511447,6249.0,10863.0,3170.0,0.251,-0.433,-0.456,-0.736
1511463,7573.0,7899.0,4426.0,0.25,-0.46,-0.442,-0.729
1511480,9663.0,5283.0,5410.0,0.25,-0.483,-0.429,-0.721
1511496,10001.0,3767.0,6590.0,0.253,-0.499,-0.421,-0.714
1511512,10959.0,1977.0,8408.0,0.262,-0.504,-0.421,-0.707
1511528,9227.0,7655.0,6022.0,0.273,-0.5,-0.43,-0.7
1511554,7781.0,10679.0,3784.0,0.276,-0.495,-0.434,-0.7
1511571,7279.0,6579.0,4030.0,0.274,-0.49,-0.435,-0.704
1511587,6445.0,6089.0,3280.0,0.271,-0.485,-0.436,-0.708
1511604,6141.0,5897.0,2976.0,0.267,-0.479,-0.44,-0.711
1511620,6545.0,4315.0,3328.0,0.265,-0.471,-0.447,-0.713
1511637,7271.0,4055.0,4074.0,0.266,-0.459,-0.458,-0.713
1511654,7419.0,6539.0,4252.0,0.27,-0.443,-0.474,-0.712
1511670,7949.0,7757.0,3718.0,0.273,-0.424,-0.49,-0.712
1511687,7225.0,8373.0,2936.0,0.27,-0.403,-0.504,-0.715
1511713,8067.0,8515.0,3126.0,0.264,-0.383,-0.516,-0.719
1511729,9057.0,5113.0,2816.0,0.258,-0.362,-0.528,-0.724
1511746,7543.0,3399.0,2998.0,0.254,-0.338,-0.545,-0.724
1511763,6915.0,9299.0,1962.0,0.247,-0.313,-0.563,-0.723
1511780,7291.0,9227.0,1638.0,0.237,-0.291,-0.577,-0.726
1511796,7245.0,5783.0,2148.0,0.225,-0.269,-0.587,-0.73
1511813,6269.0,6803.0,2366.0,0.215,-0.245,-0.599,-0.732
1511830,5937.0,7731.0,2088.0,0.204,-0.223,-0.609,-0.733
1511847,6353.0,6691.0,1720.0,0.192,-0.202,-0.619,-0.734
1511873,5951.0,5499.0,1246.0,0.179,-0.182,-0.627,-0.736
1511889,5295.0,6499.0,1110.0,0.167,-0.161,-0.635,-0.737
1511905,4533.0,7857.0,998.0,0.153,-0.141,-0.642,-0.738
1511921,4083.0,8393.0,958.0,0.139,-0.123,-0.647,-0.74
1511937,5053.0,5203.0,848.0,0.126,-0.107,-0.649,-0.743
1511954,4391.0,3045.0,1028.0,0.113,-0.09,-0.653,-0.743
1511970,3253.0,4955.0,458.0,0.102,-0.073,-0.659,-0.742
1511987,2229.0,4447.0,100.0,0.092,-0.057,-0.663,-0.74
1512014,1639.0,3859.0,-144.0,0.082,-0.045,-0.667,-0.74
1512030,2113.0,2613.0,-308.0,0.074,-0.036,-0.669,-0.739
1512047,1839.0,985.0,66.0,0.068,-0.03,-0.671,-0.737
1512063,1797.0,2091.0,218.0,0.064,-0.027,-0.674,-0.735
1512079,2295.0,1879.0,444.0,0.063,-0.028,-0.676,-0.734
1512096,2221.0,1363.0,1006.0,0.064,-0.032,-0.677,-0.733
1512112,2587.0,3409.0,1254.0,0.067,-0.039,-0.677,-0.732
1512129,2973.0,4283.0,1358.0,0.073,-0.049,-0.675,-0.732
1512156,3103.0,3849.0,1318.0,0.081,-0.061,-0.67,-0.735
1512172,3291.0,3101.0,1426.0,0.09,-0.076,-0.665,-0.738
1512188,3415.0,4601.0,1202.0,0.101,-0.093,-0.658,-0.74
1512204,3333.0,4887.0,1014.0,0.113,-0.111,-0.65,-0.743
1512220,3229.0,5751.0,1042.0,0.125,-0.133,-0.64,-0.746
1512236,3801.0,5437.0,1278.0,0.137,-0.156,-0.629,-0.749
1512263,4385.0,7071.0,1482.0,0.149,-0.182,-0.617,-0.751
1512280,6053.0,7363.0,1728.0,0.159,-0.209,-0.602,-0.754
1512296,6043.0,6101.0,2480.0,0.169,-0.237,-0.586,-0.756
1512313,6987.0,8387.0,3350.0,0.179,-0.265,-0.57,-0.757
1512329,7343.0,7371.0,4050.0,0.188,-0.292,-0.552,-0.758
1512345,6983.0,7235.0,3946.0,0.196,-0.318,-0.534,-0.759
1512361,6935.0,7615.0,3654.0,0.204,-0.342,-0.516,-0.759
