timeMs,ax,ay,az,q0,q1,q2,q3
2967607,-3029.0,7625.0,861.0,0.015,-0.205,0.652,0.73
2967623,-3003.0,7609.0,841.0,0.015,-0.205,0.652,0.73
2967639,-3015.0,7613.0,825.0,0.015,-0.205,0.652,0.73
2967655,-3047.0,7557.0,801.0,0.015,-0.205,0.651,0.73
2967681,-3025.0,7545.0,819.0,0.014,-0.205,0.651,0.731
2967697,-3039.0,7481.0,841.0,0.014,-0.205,0.65,0.731
2967713,-3085.0,7471.0,809.0,0.014,-0.206,0.65,0.731
2967729,-3131.0,7397.0,767.0,0.014,-0.206,0.65,0.732
2967745,-3109.0,7399.0,713.0,0.014,-0.207,0.649,0.732
2967761,-3103.0,7423.0,691.0,0.013,-0.207,0.649,0.732
2967787,-3079.0,7413.0,649.0,0.013,-0.208,0.649,0.732
2967803,-3157.0,7435.0,601.0,0.013,-0.209,0.649,0.732
2967819,-3157.0,7487.0,551.0,0.013,-0.21,0.649,0.732
2967835,-3143.0,7481.0,541.0,0.012,-0.21,0.649,0.731
2967851,-3147.0,7483.0,515.0,0.012,-0.211,0.649,0.731
2967867,-3127.0,7585.0,525.0,0.012,-0.211,0.65,0.73
2967893,-3149.0,7593.0,579.0,0.013,-0.211,0.65,0.73
2967909,-3165.0,7605.0,641.0,0.013,-0.211,0.651,0.729
2967925,-3209.0,7543.0,713.0,0.014,-0.21,0.652,0.729
2967941,-3179.0,7563.0,745.0,0.014,-0.21,0.653,0.728
2967957,-3129.0,7541.0,785.0,0.015,-0.209,0.653,0.728
2967973,-3123.0,7585.0,823.0,0.016,-0.208,0.653,0.728
2967999,-3107.0,7575.0,819.0,0.017,-0.208,0.654,0.728
2968015,-3105.0,7517.0,763.0,0.017,-0.207,0.654,0.728
2968031,-3059.0,7499.0,801.0,0.018,-0.207,0.654,0.728
2968047,-3069.0,7531.0,749.0,0.018,-0.206,0.654,0.728
2968063,-2999.0,7553.0,725.0,0.019,-0.206,0.653,0.728
2968079,-2989.0,7553.0,681.0,0.019,-0.206,0.653,0.728
2968105,-2985.0,7563.0,641.0,0.02,-0.206,0.653,0.728
2968121,-2989.0,7543.0,625.0,0.021,-0.205,0.654,0.728
2968137,-2963.0,7563.0,677.0,0.021,-0.205,0.654,0.728
2968153,-3017.0,7507.0,647.0,0.022,-0.205,0.655,0.727
2968169,-3039.0,7563.0,633.0,0.023,-0.205,0.655,0.727
2968185,-3091.0,7525.0,707.0,0.023,-0.204,0.656,0.726
2968212,-3041.0,7565.0,745.0,0.024,-0.204,0.657,0.726
2968228,-3057.0,7523.0,789.0,0.025,-0.203,0.658,0.725
2968244,-3053.0,7597.0,745.0,0.025,-0.203,0.658,0.724
2968260,-3173.0,7661.0,825.0,0.026,-0.203,0.659,0.724
2968276,-3201.0,7599.0,791.0,0.026,-0.202,0.659,0.724
2968292,-3171.0,7623.0,795.0,0.027,-0.202,0.66,0.724
2968318,-3103.0,7511.0,841.0,0.027,-0.201,0.66,0.724
2968334,-3069.0,7589.0,835.0,0.027,-0.201,0.66,0.724
2968350,-3071.0,7707.0,855.0,0.028,-0.2,0.659,0.724
2968366,-2977.0,7653.0,803.0,0.028,-0.2,0.659,0.725
2968382,-3017.0,7639.0,803.0,0.028,-0.199,0.659,0.725
2968399,-2909.0,7611.0,805.0,0.028,-0.199,0.658,0.725
2968425,-2859.0,7537.0,799.0,0.028,-0.198,0.658,0.726
2968441,-2897.0,7583.0,787.0,0.027,-0.198,0.658,0.726
2968458,-2875.0,7595.0,843.0,0.027,-0.198,0.657,0.726
2968475,-2873.0,7543.0,803.0,0.027,-0.198,0.657,0.727
2968491,-2847.0,7531.0,823.0,0.027,-0.198,0.657,0.727
2968507,-2805.0,7457.0,773.0,0.026,-0.198,0.657,0.727
2968523,-2787.0,7487.0,817.0,0.026,-0.198,0.657,0.727
2968549,-2881.0,7553.0,817.0,0.025,-0.199,0.657,0.727
2968565,-3079.0,7481.0,805.0,0.025,-0.199,0.657,0.726
2968581,-3101.0,7599.0,843.0,0.024,-0.199,0.657,0.726
2968598,-3033.0,7669.0,845.0,0.024,-0.2,0.657,0.726
2968614,-3025.0,7671.0,827.0,0.023,-0.2,0.657,0.726
2968630,-2945.0,7511.0,783.0,0.023,-0.2,0.657,0.727
2968646,-2869.0,7583.0,777.0,0.022,-0.201,0.656,0.727
2968663,-2947.0,7819.0,783.0,0.022,-0.201,0.656,0.727
2968689,-2929.0,7793.0,747.0,0.022,-0.201,0.655,0.728
2968706,-2889.0,7697.0,721.0,0.021,-0.201,0.655,0.728
2968723,-2915.0,7717.0,677.0,0.021,-0.202,0.654,0.729
2968740,-2909.0,7647.0,715.0,0.02,-0.202,0.653,0.73
2968757,-2851.0,7577.0,779.0,0.02,-0.202,0.652,0.73
2968773,-2911.0,7725.0,741.0,0.02,-0.202,0.652,0.731
2968789,-2935.0,7653.0,757.0,0.019,-0.203,0.651,0.731
2968805,-2877.0,7621.0,747.0,0.019,-0.203,0.651,0.732
2968831,-2903.0,7579.0,707.0,0.019,-0.203,0.65,0.732
2968848,-2881.0,7583.0,735.0,0.018,-0.204,0.65,0.732
2968865,-2959.0,7549.0,685.0,0.018,-0.204,0.65,0.732
2968882,-2937.0,7563.0,641.0,0.017,-0.204,0.65,0.732
2968899,-2879.0,7611.0,663.0,0.017,-0.205,0.65,0.732
2968916,-2871.0,7647.0,655.0,0.017,-0.205,0.65,0.732
2968932,-2853.0,7705.0,649.0,0.017,-0.206,0.65,0.731
2968949,-2861.0,7783.0,731.0,0.017,-0.206,0.65,0.731
2968966,-2859.0,7815.0,729.0,0.017,-0.206,0.65,0.731
2968983,-2861.0,7767.0,713.0,0.017,-0.207,0.65,0.731
2969000,-2861.0,7655.0,731.0,0.016,-0.207,0.65,0.731
2969017,-2891.0,7655.0,675.0,0.016,-0.208,0.65,0.731
2969043,-2867.0,7619.0,661.0,0.016,-0.208,0.649,0.732
2969059,-2935.0,7647.0,637.0,0.016,-0.208,0.649,0.732
2969076,-3045.0,7571.0,619.0,0.016,-0.209,0.648,0.732
2969093,-3105.0,7517.0,579.0,0.016,-0.209,0.648,0.732
2969109,-3159.0,7509.0,583.0,0.016,-0.209,0.647,0.733
2969126,-3179.0,7499.0,639.0,0.016,-0.21,0.647,0.733
2969142,-3095.0,7487.0,575.0,0.016,-0.21,0.647,0.733
2969168,-3133.0,7489.0,691.0,0.017,-0.21,0.647,0.732
2969184,-3073.0,7505.0,737.0,0.017,-0.21,0.648,0.732
2969200,-3113.0,7457.0,727.0,0.017,-0.21,0.648,0.732
2969217,-3041.0,7523.0,795.0,0.018,-0.209,0.649,0.732
2969233,-3087.0,7531.0,793.0,0.018,-0.209,0.649,0.731
2969250,-3091.0,7565.0,849.0,0.018,-0.209,0.649,0.731
2969266,-3107.0,7583.0,849.0,0.019,-0.209,0.65,0.731
2969283,-3073.0,7543.0,853.0,0.019,-0.208,0.65,0.73
2969310,-3071.0,7527.0,813.0,0.019,-0.208,0.65,0.73
2969326,-2997.0,7591.0,823.0,0.019,-0.208,0.651,0.73
2969342,-3055.0,7543.0,837.0,0.02,-0.208,0.651,0.73
2969358,-3023.0,7537.0,755.0,0.02,-0.208,0.651,0.73
2969375,-2983.0,7569.0,765.0,0.02,-0.208,0.651,0.73
2969392,-3009.0,7599.0,767.0,0.02,-0.207,0.651,0.73
2969409,-2997.0,7543.0,745.0,0.02,-0.207,0.651,0.73
2969425,-3001.0,7555.0,725.0,0.02,-0.207,0.651,0.73
2969451,-2975.0,7571.0,735.0,0.021,-0.207,0.651,0.73
2969467,-2971.0,7563.0,777.0,0.021,-0.207,0.652,0.729
2969484,-2981.0,7517.0,827.0,0.022,-0.206,0.652,0.729
2969501,-2989.0,7571.0,853.0,0.022,-0.206,0.652,0.729
2969517,-2963.0,7545.0,907.0,0.023,-0.206,0.653,0.729
2969533,-2965.0,7581.0,841.0,0.023,-0.206,0.653,0.729
2969549,-2989.0,7585.0,859.0,0.023,-0.206,0.653,0.728
2969575,-3031.0,7485.0,815.0,0.023,-0.206,0.653,0.728
2969591,-3089.0,7465.0,767.0,0.023,-0.206,0.653,0.728
2969608,-3115.0,7511.0,783.0,0.024,-0.207,0.653,0.728
2969624,-3175.0,7477.0,779.0,0.024,-0.207,0.653,0.728
2969640,-3175.0,7519.0,709.0,0.023,-0.207,0.653,0.728
2969656,-3175.0,7507.0,733.0,0.023,-0.208,0.653,0.728
2969672,-3187.0,7483.0,697.0,0.023,-0.208,0.653,0.728
2969699,-3119.0,7465.0,719.0,0.023,-0.208,0.653,0.728
2969715,-3203.0,7551.0,691.0,0.023,-0.208,0.653,0.728
2969731,-3151.0,7471.0,695.0,0.023,-0.209,0.653,0.728
2969747,-3231.0,7501.0,773.0,0.023,-0.209,0.653,0.728
2969763,-3201.0,7543.0,743.0,0.023,-0.209,0.653,0.728
2969779,-3177.0,7527.0,763.0,0.023,-0.209,0.653,0.728
2969805,-3183.0,7547.0,767.0,0.023,-0.209,0.653,0.727
2969821,-3109.0,7499.0,761.0,0.023,-0.208,0.653,0.727
2969838,-3109.0,7463.0,759.0,0.023,-0.208,0.654,0.727
2969854,-3121.0,7549.0,729.0,0.023,-0.208,0.654,0.727
2969871,-3103.0,7543.0,785.0,0.023,-0.208,0.654,0.727
2969887,-3063.0,7563.0,753.0,0.023,-0.208,0.654,0.727
2969903,-2993.0,7565.0,715.0,0.023,-0.207,0.654,0.727
2969929,-3015.0,7625.0,733.0,0.023,-0.207,0.654,0.727
2969945,-2971.0,7601.0,719.0,0.023,-0.207,0.654,0.727
2969961,-2921.0,7651.0,703.0,0.023,-0.206,0.654,0.727
2969978,-2857.0,7605.0,687.0,0.023,-0.206,0.654,0.727
2969994,-2871.0,7599.0,669.0,0.023,-0.206,0.654,0.727
2970010,-2953.0,7601.0,653.0,0.023,-0.206,0.654,0.727
2970027,-2987.0,7627.0,683.0,0.023,-0.206,0.654,0.727
2970044,-2985.0,7579.0,703.0,0.023,-0.207,0.655,0.727
2970070,-3027.0,7559.0,645.0,0.023,-0.207,0.655,0.727
2970086,-3065.0,7547.0,635.0,0.023,-0.207,0.655,0.727
2970102,-3061.0,7551.0,639.0,0.023,-0.207,0.655,0.727
2970118,-3019.0,7489.0,685.0,0.023,-0.207,0.655,0.726
2970134,-3017.0,7495.0,657.0,0.023,-0.207,0.655,0.726
2970150,-3039.0,7657.0,681.0,0.023,-0.207,0.655,0.726
2970176,-3113.0,7667.0,743.0,0.023,-0.207,0.655,0.726
2970192,-3045.0,7691.0,837.0,0.023,-0.207,0.655,0.726
2970208,-3001.0,7571.0,873.0,0.023,-0.206,0.655,0.726
2970224,-2905.0,7541.0,931.0,0.023,-0.206,0.655,0.727
2970240,-2937.0,7683.0,957.0,0.024,-0.205,0.655,0.727
2970257,-3011.0,7713.0,967.0,0.024,-0.205,0.655,0.727
2970274,-2959.0,7613.0,911.0,0.023,-0.205,0.654,0.728
2970301,-2903.0,7567.0,907.0,0.023,-0.204,0.654,0.728
2970317,-2915.0,7543.0,931.0,0.023,-0.204,0.653,0.729
2970333,-2915.0,7571.0,839.0,0.022,-0.205,0.653,0.729
2970349,-2959.0,7575.0,737.0,0.022,-0.205,0.652,0.73
2970365,-3001.0,7461.0,767.0,0.021,-0.205,0.651,0.73
2970382,-3055.0,7391.0,753.0,0.021,-0.206,0.651,0.73
2970398,-3095.0,7425.0,711.0,0.02,-0.206,0.651,0.731
2970424,-3091.0,7489.0,667.0,0.019,-0.206,0.651,0.731
2970441,-3111.0,7501.0,645.0,0.019,-0.207,0.651,0.731
2970457,-3063.0,7475.0,677.0,0.018,-0.207,0.651,0.73
2970474,-3087.0,7547.0,683.0,0.018,-0.207,0.651,0.73
2970490,-3061.0,7583.0,693.0,0.017,-0.208,0.651,0.73
2970506,-3031.0,7589.0,711.0,0.017,-0.208,0.651,0.73
2970522,-3013.0,7627.0,781.0,0.016,-0.208,0.651,0.73
2970549,-3009.0,7691.0,763.0,0.016,-0.209,0.651,0.73
2970565,-2921.0,7625.0,761.0,0.015,-0.209,0.651,0.73
2970581,-3011.0,7629.0,801.0,0.015,-0.209,0.651,0.73
2970597,-3025.0,7593.0,781.0,0.014,-0.209,0.65,0.73
2970613,-3007.0,7509.0,811.0,0.014,-0.21,0.65,0.731
2970629,-3027.0,7527.0,753.0,0.014,-0.21,0.649,0.731
2970655,-3051.0,7477.0,747.0,0.014,-0.211,0.649,0.731
2970672,-3029.0,7441.0,793.0,0.013,-0.211,0.648,0.732
2970689,-3033.0,7367.0,735.0,0.013,-0.212,0.648,0.732
2970706,-3033.0,7391.0,719.0,0.013,-0.212,0.647,0.732
2970723,-3037.0,7393.0,761.0,0.013,-0.213,0.647,0.732
2970739,-3097.0,7313.0,743.0,0.013,-0.215,0.647,0.732
2970756,-3127.0,7361.0,727.0,0.013,-0.216,0.647,0.732
2970772,-3233.0,7365.0,659.0,0.013,-0.218,0.646,0.731
2970789,-3235.0,7371.0,635.0,0.013,-0.22,0.646,0.731
2970806,-3293.0,7383.0,595.0,0.014,-0.222,0.646,0.73
2970832,-3349.0,7437.0,519.0,0.013,-0.223,0.647,0.729
2970849,-3349.0,7553.0,455.0,0.014,-0.225,0.647,0.728
2970865,-3407.0,7683.0,615.0,0.014,-0.226,0.648,0.727
2970881,-3539.0,7631.0,945.0,0.014,-0.227,0.648,0.727
2970897,-3579.0,7493.0,1389.0,0.014,-0.228,0.648,0.727
2970913,-3479.0,7403.0,1735.0,0.014,-0.229,0.648,0.726
2970929,-3125.0,7239.0,1939.0,0.013,-0.23,0.647,0.727
2970956,-3227.0,7403.0,1503.0,0.012,-0.231,0.648,0.726
2970973,-3147.0,7689.0,1199.0,0.008,-0.233,0.648,0.725
2970990,-3473.0,8175.0,517.0,0.005,-0.234,0.648,0.724
2971007,-3477.0,8185.0,147.0,0.001,-0.233,0.649,0.724
2971023,-2553.0,8673.0,-267.0,0.002,0.232,-0.647,-0.726
2971040,-3031.0,8215.0,155.0,0.005,0.229,-0.645,-0.729
2971057,-2725.0,7975.0,427.0,0.007,0.225,-0.641,-0.733
2971074,-2453.0,7363.0,989.0,0.007,0.222,-0.637,-0.739
2971091,-2057.0,7033.0,1871.0,0.007,0.218,-0.632,-0.743
2971107,-2045.0,7269.0,1843.0,0.007,0.215,-0.628,-0.748
2971133,-2291.0,7051.0,1953.0,0.007,0.213,-0.624,-0.752
2971149,-2147.0,7123.0,2171.0,0.007,0.211,-0.622,-0.754
2971165,-2465.0,6945.0,2303.0,0.007,0.21,-0.621,-0.755
2971181,-2561.0,7093.0,2297.0,0.007,0.209,-0.621,-0.755
2971197,-2583.0,6957.0,2015.0,0.006,0.209,-0.623,-0.754
2971213,-2443.0,7287.0,1495.0,0.006,0.209,-0.627,-0.751
2971239,-2515.0,7493.0,1041.0,0.006,0.209,-0.631,-0.747
2971256,-2471.0,7921.0,759.0,0.006,0.21,-0.635,-0.743
2971274,-2629.0,8163.0,497.0,0.006,0.211,-0.638,-0.74
2971291,-2659.0,8407.0,399.0,0.006,0.212,-0.64,-0.739
2971308,-2799.0,8409.0,351.0,0.006,0.213,-0.639,-0.739
2971325,-2849.0,8143.0,463.0,0.005,0.214,-0.636,-0.741
2971342,-3067.0,7801.0,681.0,0.005,0.216,-0.632,-0.744
2971358,-3215.0,7279.0,985.0,0.004,0.217,-0.628,-0.748
2971375,-3379.0,6855.0,1179.0,0.003,0.219,-0.624,-0.75
2971392,-3647.0,6739.0,1125.0,0.001,0.22,-0.621,-0.752
2971409,-3887.0,6643.0,995.0,0.002,-0.222,0.62,0.753
2971425,-4029.0,6863.0,853.0,0.005,-0.222,0.62,0.753
2971442,-4127.0,6881.0,711.0,0.009,-0.223,0.62,0.752
2971469,-4275.0,6865.0,647.0,0.013,-0.223,0.622,0.751
2971485,-4449.0,6833.0,617.0,0.017,-0.222,0.624,0.749
2971501,-4493.0,6805.0,607.0,0.021,-0.221,0.626,0.748
2971517,-4547.0,6855.0,603.0,0.025,-0.22,0.628,0.746
2971534,-4573.0,6873.0,665.0,0.03,-0.217,0.631,0.744
2971550,-4457.0,6967.0,677.0,0.035,-0.214,0.634,0.742
2971567,-4339.0,7095.0,795.0,0.04,-0.21,0.637,0.74
2971593,-4153.0,7249.0,869.0,0.045,-0.205,0.641,0.738
2971609,-3939.0,7339.0,897.0,0.05,-0.2,0.644,0.737
2971625,-3719.0,7567.0,995.0,0.055,-0.195,0.647,0.735
2971641,-3405.0,7787.0,1099.0,0.06,-0.189,0.649,0.734
2971658,-3183.0,7921.0,1221.0,0.065,-0.182,0.651,0.734
2971674,-2869.0,7989.0,1289.0,0.07,-0.175,0.652,0.734
2971700,-2543.0,8065.0,1389.0,0.074,-0.168,0.654,0.734
2971716,-2265.0,8203.0,1437.0,0.078,-0.16,0.654,0.735
2971732,-2853.0,10301.0,709.0,0.084,-0.155,0.653,0.736
2971748,-1475.0,6141.0,849.0,0.089,-0.145,0.657,0.734
2971764,-1177.0,8565.0,1445.0,0.094,-0.136,0.661,0.732
2971780,-1247.0,8591.0,1699.0,0.098,-0.129,0.662,0.732
2971796,-1315.0,8201.0,1711.0,0.102,-0.123,0.661,0.733
2971823,-1153.0,7731.0,1709.0,0.107,-0.118,0.661,0.734
2971840,-1005.0,8091.0,1757.0,0.111,-0.113,0.66,0.734
2971857,-1091.0,8089.0,1789.0,0.115,-0.11,0.66,0.734
2971874,-1199.0,7967.0,1867.0,0.119,-0.107,0.659,0.735
2971890,-1261.0,7775.0,1853.0,0.123,-0.106,0.659,0.735
2971906,-1487.0,7727.0,1811.0,0.126,-0.105,0.659,0.734
2971922,-1709.0,7681.0,1693.0,0.128,-0.105,0.659,0.734
2971938,-2047.0,7725.0,1603.0,0.131,-0.106,0.66,0.732
2971965,-2397.0,7665.0,1541.0,0.133,-0.108,0.66,0.731
2971981,-2689.0,7633.0,1363.0,0.135,-0.109,0.661,0.73
2971997,-2979.0,7567.0,1167.0,0.136,-0.111,0.662,0.728
2972013,-3263.0,7569.0,999.0,0.138,-0.114,0.664,0.726
2972029,-3537.0,7485.0,843.0,0.139,-0.115,0.665,0.725
2972045,-3767.0,7439.0,777.0,0.14,-0.117,0.666,0.723
2972071,-3865.0,7281.0,685.0,0.141,-0.118,0.667,0.722
2972088,-3909.0,7281.0,571.0,0.143,-0.119,0.668,0.72
2972105,-4019.0,7297.0,555.0,0.144,-0.119,0.669,0.719
2972122,-3939.0,7275.0,495.0,0.146,-0.119,0.67,0.718
2972138,-3943.0,7323.0,581.0,0.148,-0.118,0.67,0.718
2972155,-3869.0,7433.0,643.0,0.15,-0.117,0.67,0.717
2972171,-3791.0,7489.0,623.0,0.152,-0.116,0.67,0.717
2972188,-3703.0,7435.0,677.0,0.155,-0.114,0.67,0.717
2972205,-3667.0,7391.0,791.0,0.158,-0.112,0.668,0.718
2972221,-3603.0,7391.0,835.0,0.16,-0.11,0.667,0.719
2972248,-3571.0,7483.0,839.0,0.163,-0.109,0.665,0.72
2972264,-3347.0,7425.0,845.0,0.165,-0.107,0.664,0.722
2972280,-3277.0,7427.0,807.0,0.168,-0.106,0.662,0.723
2972296,-3277.0,7177.0,679.0,0.17,-0.104,0.661,0.724
2972312,-3351.0,7391.0,685.0,0.173,-0.103,0.659,0.724
2972338,-3131.0,7289.0,679.0,0.175,-0.102,0.658,0.725
2972355,-3049.0,7357.0,671.0,0.177,-0.101,0.658,0.725
2972372,-3045.0,7247.0,627.0,0.178,-0.101,0.657,0.725
2972388,-2917.0,6989.0,713.0,0.18,-0.101,0.657,0.725
2972405,-3013.0,7077.0,669.0,0.182,-0.101,0.657,0.725
2972422,-3001.0,7113.0,693.0,0.183,-0.101,0.658,0.724
2972438,-3193.0,7093.0,787.0,0.185,-0.102,0.658,0.722
2972455,-3273.0,7213.0,817.0,0.186,-0.103,0.659,0.721
2972471,1857.0,18219.0,-1251.0,0.187,-0.113,0.661,0.718
2972488,-6281.0,993.0,93.0,0.185,-0.11,0.661,0.718
2972505,-3363.0,7299.0,791.0,0.187,-0.11,0.665,0.714
2972522,-3715.0,8163.0,767.0,0.188,-0.113,0.666,0.713
2972549,-3697.0,7981.0,959.0,0.187,-0.116,0.666,0.713
2972565,-4135.0,7115.0,743.0,0.187,-0.119,0.666,0.713
2972581,-3901.0,7197.0,601.0,0.186,-0.121,0.667,0.711
2972597,-3955.0,7557.0,595.0,0.186,-0.123,0.667,0.711
2972613,-3983.0,7339.0,467.0,0.186,-0.125,0.667,0.711
2972629,-4043.0,7235.0,417.0,0.185,-0.127,0.666,0.712
2972655,-4027.0,7183.0,525.0,0.185,-0.128,0.665,0.712
2972671,-4037.0,7169.0,539.0,0.185,-0.129,0.664,0.713
2972688,-4019.0,7253.0,531.0,0.185,-0.129,0.664,0.713
2972705,-4077.0,7125.0,463.0,0.185,-0.128,0.665,0.712
2972721,-4195.0,6849.0,413.0,0.186,-0.127,0.666,0.712
2972738,-4303.0,6729.0,433.0,0.187,-0.126,0.667,0.711
2972755,-4323.0,6695.0,391.0,0.189,-0.124,0.668,0.709
2972772,-4397.0,6767.0,497.0,0.191,-0.121,0.669,0.708
2972788,-4317.0,6665.0,711.0,0.194,-0.118,0.67,0.707
2972805,-4227.0,6699.0,845.0,0.197,-0.114,0.671,0.705
2972832,-4103.0,6949.0,933.0,0.2,-0.11,0.673,0.703
2972848,-3967.0,7237.0,1033.0,0.203,-0.106,0.675,0.702
2972864,-3823.0,7415.0,1119.0,0.205,-0.102,0.676,0.7
2972880,-3647.0,7515.0,1191.0,0.207,-0.099,0.677,0.7
2972896,-3583.0,7441.0,1177.0,0.208,-0.096,0.677,0.699
2972912,-3527.0,7337.0,1183.0,0.208,-0.094,0.677,0.7
2972938,-3463.0,7341.0,1123.0,0.209,-0.093,0.677,0.7
2972955,-3455.0,7283.0,1095.0,0.208,-0.092,0.676,0.7
2972972,-3509.0,7353.0,1029.0,0.208,-0.092,0.676,0.701
2972989,-3483.0,7303.0,951.0,0.207,-0.092,0.676,0.702
2973006,-3579.0,7363.0,943.0,0.205,-0.093,0.675,0.703
2973023,-3559.0,7279.0,879.0,0.204,-0.095,0.674,0.704
2973040,-3579.0,7161.0,853.0,0.202,-0.096,0.673,0.705
2973056,-3575.0,7177.0,917.0,0.2,-0.098,0.672,0.706
2973072,-3501.0,7199.0,891.0,0.197,-0.1,0.672,0.707
2973089,-3507.0,7161.0,951.0,0.194,-0.102,0.671,0.708
2973106,-3497.0,7189.0,857.0,0.19,-0.104,0.671,0.709
2973132,-3467.0,7187.0,747.0,0.186,-0.106,0.671,0.71
2973148,-3609.0,7109.0,759.0,0.181,-0.108,0.672,0.71
2973165,-3731.0,7205.0,641.0,0.177,-0.111,0.672,0.71
2973181,-3867.0,7249.0,517.0,0.172,-0.113,0.673,0.711
2973197,-3925.0,7251.0,457.0,0.167,-0.115,0.673,0.711
2973223,-3951.0,7237.0,417.0,0.161,-0.117,0.674,0.711
2973240,-3941.0,7181.0,405.0,0.157,-0.119,0.675,0.711
2973257,-3937.0,7163.0,381.0,0.153,-0.12,0.676,0.711
2973274,-3969.0,7155.0,371.0,0.15,-0.121,0.677,0.711
2973291,-4055.0,7167.0,397.0,0.148,-0.121,0.678,0.71
2973308,-4049.0,7187.0,453.0,0.147,-0.121,0.678,0.71
2973324,-4045.0,7263.0,543.0,0.146,-0.121,0.678,0.71
2973341,-4001.0,7423.0,701.0,0.146,-0.121,0.677,0.711
2973358,-3895.0,7633.0,891.0,0.146,-0.12,0.676,0.712
2973375,-3661.0,7801.0,1011.0,0.145,-0.119,0.674,0.714
2973392,-3397.0,7847.0,1051.0,0.144,-0.118,0.673,0.716
2973408,-3093.0,7941.0,1185.0,0.142,-0.117,0.672,0.717
2973425,-2689.0,8045.0,1221.0,0.139,-0.115,0.671,0.719
2973451,-2315.0,8299.0,1161.0,0.135,-0.114,0.671,0.72
2973467,-1853.0,8385.0,1093.0,0.13,-0.113,0.671,0.721
2973484,-1487.0,8405.0,999.0,0.126,-0.112,0.671,0.722
2973500,-1137.0,8251.0,1017.0,0.121,-0.112,0.671,0.723
2973517,-1023.0,7905.0,959.0,0.116,-0.113,0.671,0.724
2973533,-1067.0,7771.0,925.0,0.111,-0.114,0.671,0.724
2973549,-1207.0,7409.0,1009.0,0.107,-0.116,0.671,0.725
2973575,-1337.0,7369.0,1071.0,0.103,-0.118,0.671,0.725
2973591,-1623.0,7585.0,1133.0,0.1,-0.121,0.671,0.725
2973607,-1867.0,7749.0,1149.0,0.096,-0.123,0.672,0.724
2973623,-2041.0,7839.0,1147.0,0.093,-0.125,0.674,0.722
2973639,-2187.0,7799.0,1183.0,0.09,-0.127,0.675,0.721
2973655,-2197.0,7721.0,1163.0,0.087,-0.128,0.677,0.72
2973681,-2261.0,7889.0,1311.0,0.083,-0.13,0.678,0.718
2973697,-2387.0,8041.0,1425.0,0.08,-0.131,0.679,0.718
2973714,-2351.0,8199.0,1515.0,0.077,-0.133,0.68,0.717
2973730,-2321.0,8223.0,1587.0,0.074,-0.134,0.679,0.718
2973746,-2311.0,8273.0,1603.0,0.071,-0.135,0.677,0.72
2973762,-2383.0,7911.0,1717.0,0.068,-0.136,0.675,0.722
2973788,-2297.0,7925.0,1775.0,0.065,-0.138,0.672,0.724
2973804,-2369.0,7815.0,1741.0,0.061,-0.139,0.67,0.727
2973821,-2487.0,7871.0,1611.0,0.058,-0.141,0.667,0.729
2973838,-2559.0,8017.0,1497.0,0.055,-0.142,0.664,0.732
2973854,-2677.0,7921.0,1395.0,0.052,-0.143,0.662,0.734
2973870,-2629.0,7791.0,1267.0,0.049,-0.144,0.659,0.737
2973887,-2681.0,7581.0,1253.0,0.046,-0.145,0.656,0.739
2973904,-2745.0,7509.0,1289.0,0.043,-0.145,0.654,0.741
2973921,-2745.0,7319.0,1187.0,0.041,-0.146,0.652,0.743
2973938,-2881.0,7539.0,1109.0,0.038,-0.147,0.65,0.745
2973965,-2865.0,7487.0,1107.0,0.036,-0.148,0.648,0.746
2973981,-2939.0,7409.0,1173.0,0.034,-0.148,0.646,0.748
2973998,-2707.0,7243.0,1163.0,0.031,-0.148,0.645,0.749
2974014,-2651.0,7345.0,1215.0,0.028,-0.149,0.644,0.75
2974030,-2617.0,7333.0,1261.0,0.026,-0.15,0.643,0.75
2974046,-2493.0,7543.0,1295.0,0.023,-0.151,0.643,0.751
2974062,-2343.0,7755.0,1333.0,0.02,-0.152,0.642,0.751
2974088,-2149.0,8067.0,1429.0,0.016,-0.153,0.641,0.752
2974104,-1979.0,8049.0,1433.0,0.012,-0.153,0.64,0.753
2974121,-1799.0,8029.0,1455.0,0.009,-0.153,0.639,0.753
2974138,-1595.0,7883.0,1547.0,0.006,-0.154,0.639,0.754
2974155,-1545.0,7821.0,1519.0,0.003,-0.154,0.638,0.754
2974172,-1463.0,7837.0,1443.0,0.0,-0.155,0.638,0.755
2974189,-1381.0,7839.0,1355.0,0.002,0.155,-0.637,-0.755
2974206,-2247.0,9143.0,1839.0,0.004,0.157,-0.635,-0.757
2974223,-1595.0,7361.0,1543.0,0.006,0.157,-0.633,-0.758
2974240,-1465.0,8273.0,1737.0,0.007,0.157,-0.632,-0.759
2974257,-1731.0,7985.0,1703.0,0.009,0.158,-0.631,-0.76
2974284,-1811.0,7981.0,1611.0,0.011,0.158,-0.629,-0.761
2974301,-1881.0,7913.0,1507.0,0.012,0.159,-0.628,-0.762
2974317,-2049.0,7693.0,1475.0,0.014,0.16,-0.627,-0.762
2974333,-2149.0,7623.0,1467.0,0.014,0.16,-0.626,-0.763
2974349,-2335.0,7641.0,1509.0,0.015,0.16,-0.625,-0.764
2974365,-2347.0,7525.0,1557.0,0.015,0.16,-0.624,-0.764
2974382,-2487.0,7325.0,1551.0,0.014,0.16,-0.624,-0.764
2974409,-2523.0,7365.0,1557.0,0.014,0.161,-0.625,-0.764
2974425,-2575.0,7381.0,1509.0,0.013,0.161,-0.625,-0.763
2974441,-2679.0,7331.0,1521.0,0.011,0.161,-0.626,-0.763
2974457,-2753.0,7227.0,1487.0,0.009,0.161,-0.627,-0.762
2974473,-2803.0,7205.0,1423.0,0.007,0.162,-0.629,-0.761
2974489,-2869.0,7231.0,1423.0,0.004,0.162,-0.63,-0.759
2974505,-2989.0,7245.0,1415.0,0.001,0.163,-0.631,-0.758
2974531,-3139.0,7339.0,1421.0,0.003,-0.163,0.632,0.757
2974547,-3245.0,7413.0,1467.0,0.007,-0.164,0.633,0.756
2974563,-3311.0,7407.0,1437.0,0.011,-0.164,0.634,0.756
2974579,-3303.0,7487.0,1379.0,0.016,-0.163,0.634,0.755
2974595,-3303.0,7501.0,1387.0,0.02,-0.163,0.635,0.755
2974611,-3319.0,7469.0,1385.0,0.024,-0.162,0.635,0.755
2974637,-3227.0,7569.0,1293.0,0.028,-0.161,0.636,0.754
2974654,-3135.0,7507.0,1203.0,0.032,-0.161,0.636,0.755
2974671,-3017.0,7425.0,1201.0,0.036,-0.16,0.635,0.755
2974688,-2941.0,7457.0,1255.0,0.04,-0.159,0.635,0.755
2974704,-2865.0,7471.0,1277.0,0.044,-0.159,0.635,0.755
2974721,-2703.0,7473.0,1263.0,0.048,-0.159,0.635,0.755
2974737,-2643.0,7427.0,1165.0,0.052,-0.159,0.635,0.754
2974753,-2501.0,7553.0,1147.0,0.056,-0.159,0.635,0.754
2974770,-2407.0,7589.0,1217.0,0.059,-0.159,0.636,0.753
2974797,-2387.0,7673.0,1135.0,0.063,-0.159,0.638,0.751
2974814,-2313.0,7789.0,1081.0,0.067,-0.159,0.64,0.749
2974830,-2273.0,7771.0,1007.0,0.07,-0.158,0.642,0.747
2974846,-2255.0,7701.0,933.0,0.074,-0.158,0.644,0.745
2974862,-2355.0,7667.0,909.0,0.078,-0.158,0.647,0.742
2974878,-2495.0,7657.0,819.0,0.082,-0.157,0.65,0.739
2974894,-2569.0,7671.0,795.0,0.087,-0.156,0.653,0.736
2974920,-2709.0,7673.0,883.0,0.092,-0.155,0.656,0.733
2974937,-2813.0,7523.0,893.0,0.098,-0.154,0.659,0.73
2974954,-2887.0,7455.0,893.0,0.104,-0.154,0.662,0.726
2974971,-3069.0,7387.0,807.0,0.11,-0.154,0.665,0.723
2974988,-3175.0,7507.0,837.0,0.117,-0.154,0.667,0.72
2975005,-3321.0,7551.0,753.0,0.124,-0.155,0.669,0.717
2975022,-3545.0,7607.0,769.0,0.131,-0.155,0.67,0.714
2975039,-3697.0,7607.0,759.0,0.138,-0.156,0.671,0.712
2975056,-3685.0,7659.0,795.0,0.143,-0.157,0.672,0.71
2975073,-3717.0,7547.0,727.0,0.148,-0.158,0.672,0.708
2975089,-3835.0,7463.0,553.0,0.152,-0.159,0.673,0.707
2975115,-3915.0,7297.0,543.0,0.155,-0.16,0.673,0.705
2975131,-4023.0,7131.0,447.0,0.157,-0.162,0.674,0.703
2975147,-4113.0,7037.0,359.0,0.159,-0.163,0.675,0.702
2975163,-4247.0,6937.0,167.0,0.159,-0.165,0.676,0.7
2975179,-4341.0,6887.0,101.0,0.16,-0.167,0.677,0.699
2975195,-4379.0,7009.0,73.0,0.16,-0.168,0.678,0.697
2975221,-4371.0,7087.0,25.0,0.159,-0.169,0.68,0.696
2975238,-4339.0,7161.0,51.0,0.158,-0.17,0.682,0.694
2975255,-4271.0,7273.0,27.0,0.158,-0.17,0.683,0.693
2975272,-4173.0,7245.0,81.0,0.157,-0.169,0.685,0.691
2975289,-4095.0,7245.0,171.0,0.156,-0.169,0.686,0.69
2975306,-4071.0,7373.0,279.0,0.155,-0.168,0.687,0.69
2975323,-4101.0,7341.0,273.0,0.155,-0.166,0.688,0.689
2975340,-4011.0,7399.0,321.0,0.154,-0.164,0.689,0.688
2975357,-3953.0,7495.0,341.0,0.153,-0.162,0.69,0.688
2975373,-4069.0,7571.0,433.0,0.153,-0.159,0.69,0.689
2975390,-4125.0,7559.0,555.0,0.153,-0.156,0.69,0.69
2975416,-4209.0,7399.0,637.0,0.153,-0.152,0.691,0.69
2975432,-3959.0,6971.0,655.0,0.152,-0.148,0.692,0.69
2975449,-3999.0,6599.0,411.0,0.152,-0.143,0.695,0.688
2975465,-3885.0,6535.0,103.0,0.152,-0.138,0.699,0.685
2975481,-3591.0,6751.0,-195.0,0.151,-0.131,0.706,0.679
2975497,-3283.0,7493.0,-509.0,0.15,-0.124,0.715,0.672
2975514,-3189.0,7983.0,-635.0,0.15,-0.114,0.724,0.663
2975531,-2963.0,8369.0,-729.0,0.15,-0.104,0.734,0.654
2975558,-2747.0,8561.0,-799.0,0.151,-0.094,0.742,0.647
2975574,-3145.0,8533.0,-903.0,0.152,-0.084,0.747,0.641
2975590,-3139.0,8529.0,-555.0,0.153,-0.075,0.751,0.638
2975607,-4085.0,8403.0,-277.0,0.155,-0.064,0.754,0.635
2975624,-4165.0,8149.0,143.0,0.158,-0.05,0.756,0.633
2975641,-4027.0,8829.0,281.0,0.162,-0.035,0.759,0.63
2975658,-3395.0,9175.0,93.0,0.168,-0.02,0.759,0.629
2975675,-2769.0,9571.0,-7.0,0.174,-0.007,0.757,0.63
2975691,-1985.0,8949.0,-231.0,0.18,0.004,0.753,0.633
2975717,-1937.0,8933.0,-771.0,0.184,0.014,0.749,0.637
2975734,-1789.0,8767.0,-977.0,0.187,0.02,0.744,0.641
2975751,-2351.0,8533.0,-1133.0,0.19,0.024,0.739,0.646
2975768,-2091.0,8223.0,-931.0,0.193,0.028,0.734,0.65
2975784,-2065.0,8299.0,-933.0,0.196,0.029,0.73,0.654
2975800,-1937.0,7855.0,-657.0,0.198,0.03,0.725,0.659
2975816,-2365.0,7419.0,-323.0,0.198,0.028,0.721,0.663
2975833,-2557.0,7183.0,-103.0,0.199,0.026,0.718,0.666
2975850,-2633.0,6763.0,-51.0,0.199,0.024,0.717,0.668
2975876,-2301.0,6927.0,1.0,0.198,0.022,0.716,0.669
2975892,-2593.0,7077.0,293.0,0.197,0.019,0.717,0.669
2975908,-2663.0,7627.0,89.0,0.197,0.016,0.719,0.667
2975925,-2773.0,8463.0,33.0,0.196,0.013,0.721,0.665
2975942,-1909.0,9113.0,-231.0,0.194,0.011,0.719,0.667
2975959,-1781.0,7703.0,-373.0,0.191,0.008,0.715,0.673
2975975,-1581.0,6477.0,-367.0,0.186,0.005,0.711,0.678
2975992,-913.0,6333.0,-47.0,0.18,0.003,0.709,0.682
2976018,-1031.0,6981.0,55.0,0.173,-0.002,0.709,0.684
2976034,-1233.0,6971.0,273.0,0.168,-0.007,0.709,0.685
2976050,-1677.0,6891.0,379.0,0.163,-0.011,0.71,0.685
2976066,-1443.0,7495.0,305.0,0.159,-0.013,0.711,0.685
2976082,-1167.0,7545.0,193.0,0.155,-0.015,0.71,0.686
2976098,-1267.0,7331.0,119.0,0.15,-0.016,0.709,0.688
2976124,-1499.0,6989.0,323.0,0.145,-0.018,0.708,0.691
2976140,-1737.0,6567.0,457.0,0.141,-0.02,0.707,0.693
2976157,-1565.0,6683.0,415.0,0.138,-0.022,0.708,0.692
2976173,-1557.0,7363.0,439.0,0.135,-0.024,0.711,0.69
2976189,-1595.0,8105.0,289.0,0.133,-0.026,0.714,0.687
2976205,-1665.0,8339.0,113.0,0.13,-0.028,0.716,0.686
2976222,-1787.0,8091.0,97.0,0.128,-0.031,0.717,0.684
2976248,-1421.0,8279.0,235.0,0.127,-0.035,0.718,0.683
2976264,-2251.0,7647.0,23.0,0.126,-0.039,0.721,0.681
2976280,-2383.0,8361.0,-465.0,0.126,-0.042,0.723,0.678
2976296,-2591.0,8167.0,-559.0,0.126,-0.045,0.725,0.676
2976312,-2445.0,8075.0,-593.0,0.127,-0.047,0.726,0.674
2976328,-2433.0,8209.0,-595.0,0.127,-0.05,0.727,0.673
2976354,-2561.0,7713.0,-511.0,0.129,-0.052,0.728,0.672
2976370,-1989.0,7985.0,-415.0,0.13,-0.054,0.729,0.67
2976386,-2003.0,8041.0,-449.0,0.131,-0.056,0.731,0.668
2976402,-2015.0,7771.0,-289.0,0.132,-0.057,0.732,0.666
2976418,-1911.0,7487.0,-431.0,0.133,-0.059,0.732,0.665
2976434,-1961.0,7235.0,-429.0,0.134,-0.06,0.733,0.664
2976460,-2029.0,7087.0,-749.0,0.134,-0.06,0.733,0.664
2976476,-2311.0,5949.0,-389.0,0.134,-0.06,0.734,0.663
2976492,-2325.0,6591.0,-415.0,0.135,-0.059,0.736,0.66
2976508,-2567.0,6927.0,-399.0,0.136,-0.058,0.739,0.658
2976524,-2501.0,7227.0,-569.0,0.136,-0.056,0.741,0.655
2976540,-2335.0,7611.0,-607.0,0.136,-0.054,0.743,0.653
2976566,-2431.0,7647.0,-719.0,0.136,-0.052,0.745,0.651
2976582,-2327.0,7869.0,-1087.0,0.136,-0.051,0.748,0.648
2976598,-2421.0,8279.0,-1171.0,0.137,-0.05,0.751,0.644
2976614,-2473.0,8919.0,-1339.0,0.139,-0.05,0.755,0.639
2976630,-2447.0,8887.0,-1403.0,0.14,-0.05,0.758,0.636
2976646,-2633.0,8467.0,-1423.0,0.141,-0.051,0.759,0.634
2976673,-2523.0,8057.0,-1545.0,0.142,-0.05,0.76,0.632
2976690,-2577.0,8015.0,-1431.0,0.143,-0.05,0.762,0.629
2976707,-2347.0,8087.0,-1199.0,0.144,-0.049,0.763,0.628
2976723,-2189.0,7773.0,-967.0,0.145,-0.048,0.764,0.627
2976740,-1803.0,8093.0,-827.0,0.146,-0.048,0.763,0.628
2976757,-2403.0,7077.0,-431.0,0.147,-0.048,0.761,0.63
2976773,-2219.0,6901.0,-263.0,0.149,-0.048,0.761,0.629
2976789,-2235.0,7411.0,-289.0,0.151,-0.048,0.763,0.627
2976806,-2219.0,7769.0,-473.0,0.153,-0.047,0.764,0.625
2976823,-2407.0,7519.0,-673.0,0.155,-0.047,0.765,0.624
2976850,-2579.0,7335.0,-715.0,0.156,-0.047,0.765,0.623
2976866,-2625.0,7293.0,-797.0,0.157,-0.047,0.766,0.621
2976883,-2555.0,7431.0,-813.0,0.158,-0.046,0.766,0.621
2976900,-2739.0,7127.0,-679.0,0.158,-0.045,0.766,0.621
2976916,-2545.0,6765.0,-703.0,0.158,-0.044,0.766,0.622
2976932,-2351.0,6525.0,-1007.0,0.157,-0.042,0.765,0.623
2976948,-2423.0,6653.0,-1099.0,0.156,-0.041,0.765,0.623
2976974,-2543.0,6939.0,-1035.0,0.155,-0.038,0.766,0.623
2976990,-2265.0,7273.0,-1141.0,0.155,-0.035,0.768,0.621
2977006,-2539.0,9271.0,-939.0,0.154,-0.033,0.77,0.619
2977023,-2497.0,9855.0,-1199.0,0.153,-0.031,0.77,0.619
2977039,-2439.0,9689.0,-1753.0,0.153,-0.031,0.768,0.621
2977056,-2567.0,9365.0,-1937.0,0.154,-0.031,0.766,0.623
2977073,-2981.0,9389.0,-1841.0,0.157,-0.032,0.764,0.625
2977089,-2789.0,8797.0,-1721.0,0.16,-0.033,0.762,0.626
2977116,-2565.0,8257.0,-1301.0,0.163,-0.034,0.76,0.628
2977133,-2817.0,6855.0,-707.0,0.165,-0.035,0.758,0.631
2977150,-2751.0,6685.0,-521.0,0.168,-0.037,0.757,0.631
2977167,-2769.0,7089.0,-455.0,0.171,-0.039,0.756,0.63
2977183,-2769.0,7619.0,-341.0,0.175,-0.04,0.756,0.629
2977199,-2521.0,7745.0,-225.0,0.179,-0.041,0.756,0.628
2977216,-2309.0,7739.0,-199.0,0.183,-0.042,0.757,0.626
2977232,-2305.0,7953.0,-197.0,0.186,-0.045,0.757,0.625
2977248,-2783.0,7683.0,-79.0,0.189,-0.048,0.757,0.623
2977274,-2793.0,8067.0,-81.0,0.192,-0.052,0.757,0.622
2977291,-2979.0,8009.0,-209.0,0.194,-0.055,0.757,0.621
2977307,-2957.0,7987.0,-305.0,0.196,-0.058,0.757,0.621
2977323,-3393.0,7621.0,-473.0,0.198,-0.062,0.756,0.621
2977339,-3737.0,7451.0,-747.0,0.199,-0.066,0.754,0.622
2977355,-3759.0,7575.0,-765.0,0.2,-0.07,0.753,0.624
2977381,-3815.0,7589.0,-1089.0,0.201,-0.073,0.751,0.624
2977397,-4123.0,7303.0,-1645.0,0.202,-0.077,0.75,0.626
2977413,-3909.0,7597.0,-1745.0,0.203,-0.08,0.748,0.627
2977429,-3965.0,7387.0,-2067.0,0.205,-0.083,0.747,0.628
2977445,-3963.0,7119.0,-2195.0,0.206,-0.086,0.745,0.629
2977461,-3935.0,6737.0,-2171.0,0.208,-0.087,0.744,0.629
2977487,-3791.0,6757.0,-1999.0,0.209,-0.088,0.743,0.629
2977504,-3689.0,7043.0,-1957.0,0.211,-0.087,0.743,0.629
2977521,-3627.0,6809.0,-1735.0,0.212,-0.085,0.744,0.628
2977538,-3633.0,7073.0,-1597.0,0.214,-0.083,0.746,0.625
2977555,-3597.0,7355.0,-1433.0,0.217,-0.079,0.748,0.622
2977572,-3389.0,7797.0,-1359.0,0.219,-0.075,0.751,0.618
2977589,-3301.0,7937.0,-1181.0,0.221,-0.072,0.754,0.615
2977606,-3095.0,7689.0,-905.0,0.223,-0.068,0.756,0.612
2977623,-3179.0,7473.0,-703.0,0.224,-0.067,0.757,0.61
2977640,-3403.0,7355.0,-587.0,0.225,-0.066,0.758,0.608
2977656,-3555.0,7301.0,-515.0,0.226,-0.065,0.759,0.607
2977673,-3689.0,7229.0,-457.0,0.226,-0.065,0.76,0.606
2977699,-3823.0,7497.0,-565.0,0.225,-0.066,0.76,0.606
2977715,-4031.0,7529.0,-693.0,0.223,-0.068,0.76,0.606
2977731,-3981.0,7767.0,-475.0,0.221,-0.069,0.759,0.608
2977748,-3933.0,7349.0,-371.0,0.219,-0.071,0.758,0.61
2977765,-3859.0,7099.0,-447.0,0.217,-0.072,0.757,0.612
2977782,-3607.0,7527.0,-555.0,0.215,-0.074,0.756,0.614
2977798,-3537.0,8005.0,-847.0,0.213,-0.075,0.754,0.617
2977824,-3445.0,8085.0,-1117.0,0.21,-0.077,0.752,0.62
2977840,-3277.0,7889.0,-1175.0,0.208,-0.08,0.75,0.623
2977856,-3459.0,7677.0,-1149.0,0.205,-0.083,0.746,0.628
2977872,-3449.0,7237.0,-1093.0,0.202,-0.086,0.743,0.632
2977889,-3453.0,7123.0,-1081.0,0.199,-0.089,0.74,0.636
2977905,-3499.0,7091.0,-1173.0,0.196,-0.093,0.737,0.64
2977922,-3657.0,7083.0,-1161.0,0.194,-0.096,0.734,0.644
2977939,-3713.0,6971.0,-1049.0,0.192,-0.1,0.731,0.647
2977956,-3749.0,6821.0,-949.0,0.19,-0.103,0.728,0.65
2977982,-3659.0,6899.0,-893.0,0.189,-0.107,0.726,0.652
2977999,-3697.0,6833.0,-767.0,0.188,-0.11,0.724,0.654
2978016,-3721.0,7009.0,-733.0,0.187,-0.114,0.723,0.656
2978033,-3761.0,7189.0,-797.0,0.186,-0.117,0.722,0.656
2978050,-3645.0,7475.0,-947.0,0.184,-0.12,0.721,0.657
2978066,-3663.0,7953.0,-1083.0,0.183,-0.124,0.721,0.657
2978082,-3781.0,8205.0,-1149.0,0.181,-0.127,0.721,0.657
2978098,-3881.0,8079.0,-1055.0,0.18,-0.131,0.72,0.658
2978124,-3941.0,7479.0,-813.0,0.18,-0.135,0.719,0.658
2978140,-3951.0,7055.0,-549.0,0.181,-0.138,0.718,0.658
2978156,-4125.0,6693.0,-207.0,0.182,-0.14,0.718,0.657
2978172,-4177.0,6671.0,183.0,0.184,-0.142,0.718,0.656
2978188,-4315.0,6665.0,573.0,0.187,-0.142,0.719,0.654
2978204,-4403.0,6917.0,859.0,0.19,-0.142,0.721,0.652
2978230,-4419.0,7075.0,1171.0,0.192,-0.142,0.722,0.65
2978246,-4373.0,7107.0,1369.0,0.194,-0.141,0.723,0.648
2978262,-4421.0,6931.0,1371.0,0.195,-0.141,0.723,0.647
2978278,-4341.0,6615.0,1337.0,0.195,-0.141,0.724,0.647
2978294,-4323.0,6613.0,1209.0,0.194,-0.14,0.724,0.647
2978310,-4175.0,6727.0,1193.0,0.193,-0.14,0.724,0.648
2978336,-3987.0,6883.0,1283.0,0.19,-0.14,0.723,0.65
2978352,-3799.0,6835.0,1311.0,0.188,-0.141,0.721,0.652
2978368,-3699.0,6543.0,1105.0,0.185,-0.143,0.72,0.654
2978384,-3705.0,6815.0,893.0,0.182,-0.145,0.718,0.656
2978400,-3635.0,7109.0,487.0,0.179,-0.147,0.717,0.658
2978426,-3601.0,7225.0,121.0,0.177,-0.15,0.716,0.659
2978442,-3649.0,7261.0,-115.0,0.174,-0.152,0.714,0.661
2978458,-3743.0,7407.0,-283.0,0.172,-0.154,0.713,0.662
2978474,-3845.0,7265.0,-509.0,0.171,-0.156,0.712,0.663
2978491,-3847.0,7289.0,-605.0,0.17,-0.158,0.711,0.663
2978507,-4107.0,7219.0,-577.0,0.17,-0.159,0.711,0.664
2978523,-4039.0,6965.0,-519.0,0.171,-0.16,0.71,0.664
2978540,-3769.0,6497.0,-445.0,0.173,-0.16,0.71,0.663
2978567,-3887.0,6281.0,-293.0,0.175,-0.159,0.711,0.662
2978583,-3719.0,6245.0,-123.0,0.178,-0.158,0.712,0.661
2978599,-3801.0,6517.0,-119.0,0.18,-0.156,0.713,0.659
2978615,-3501.0,6265.0,-75.0,0.182,-0.154,0.715,0.658
2978631,-3517.0,6119.0,67.0,0.184,-0.151,0.716,0.657
2978648,-3679.0,6157.0,335.0,0.185,-0.149,0.717,0.655
2978664,-3445.0,6189.0,387.0,0.188,-0.146,0.718,0.654
2978690,-3363.0,6265.0,257.0,0.189,-0.144,0.719,0.653
2978706,-3421.0,6487.0,99.0,0.191,-0.142,0.72,0.652
2978722,-3465.0,7115.0,-83.0,0.191,-0.14,0.721,0.651
2978738,-3253.0,7105.0,-455.0,0.191,-0.139,0.721,0.651
2978754,-2871.0,5903.0,-771.0,0.19,-0.137,0.721,0.652
2978780,-3101.0,5749.0,-601.0,0.188,-0.136,0.722,0.652
2978796,-3759.0,6843.0,-461.0,0.187,-0.134,0.723,0.651
2978812,-3813.0,7653.0,-845.0,0.185,-0.132,0.725,0.65
2978828,-3529.0,7433.0,-1289.0,0.184,-0.13,0.727,0.649
2978844,-3555.0,7387.0,-1439.0,0.182,-0.129,0.727,0.649
2978860,-3915.0,8111.0,-1319.0,0.18,-0.128,0.728,0.65
2978886,-3739.0,8009.0,-1411.0,0.178,-0.127,0.728,0.65
2978903,-3901.0,7679.0,-1375.0,0.176,-0.126,0.727,0.652
2978920,-4173.0,7429.0,-1085.0,0.174,-0.125,0.727,0.653
2978937,-4325.0,7511.0,-959.0,0.172,-0.124,0.727,0.653
2978954,-4315.0,7307.0,-691.0,0.171,-0.122,0.727,0.654
2978971,-4357.0,7587.0,-549.0,0.169,-0.121,0.727,0.654
2978988,-4075.0,7963.0,-441.0,0.167,-0.119,0.727,0.655
2979005,-4193.0,8029.0,-273.0,0.165,-0.118,0.726,0.657
2979022,-4341.0,7911.0,-29.0,0.162,-0.117,0.725,0.659
2979038,-4419.0,8037.0,49.0,0.159,-0.117,0.723,0.663
2979055,-4475.0,7947.0,159.0,0.155,-0.117,0.719,0.667
2979072,-4631.0,7593.0,251.0,0.152,-0.118,0.716,0.671
2979089,-4901.0,7363.0,565.0,0.149,-0.118,0.712,0.675
2979115,-4697.0,7331.0,613.0,0.146,-0.118,0.709,0.679
2979131,-4603.0,7411.0,383.0,0.143,-0.118,0.707,0.682
2979147,-4421.0,7539.0,113.0,0.14,-0.118,0.705,0.685
2979163,-4359.0,7827.0,-123.0,0.137,-0.118,0.704,0.687
2979179,-4133.0,8193.0,-327.0,0.135,-0.119,0.702,0.69
2979195,-3939.0,7999.0,-333.0,0.132,-0.12,0.7,0.692
2979221,-3837.0,7729.0,-259.0,0.131,-0.122,0.698,0.694
2979237,-3727.0,7787.0,-115.0,0.129,-0.123,0.696,0.695
2979254,-3531.0,8059.0,-85.0,0.129,-0.124,0.695,0.696
2979270,-3297.0,7885.0,-131.0,0.128,-0.124,0.695,0.697
2979286,-3111.0,8029.0,-109.0,0.128,-0.124,0.695,0.697
2979302,-3049.0,8179.0,-203.0,0.129,-0.123,0.695,0.697
2979328,-2987.0,8153.0,-175.0,0.129,-0.123,0.695,0.697
2979344,-2971.0,7707.0,-45.0,0.13,-0.122,0.694,0.697
2979360,-2923.0,7405.0,179.0,0.13,-0.121,0.694,0.698
2979376,-2703.0,7493.0,257.0,0.131,-0.12,0.694,0.698
2979392,-2755.0,7841.0,225.0,0.131,-0.119,0.694,0.698
2979408,-2733.0,7657.0,317.0,0.131,-0.118,0.693,0.699
2979434,-2781.0,7465.0,445.0,0.131,-0.117,0.693,0.699
2979450,-2707.0,7583.0,581.0,0.131,-0.116,0.693,0.7
2979466,-2749.0,7735.0,529.0,0.131,-0.115,0.693,0.7
2979482,-2775.0,7659.0,431.0,0.13,-0.114,0.692,0.701
2979498,-2837.0,7561.0,243.0,0.129,-0.114,0.691,0.702
2979514,-2785.0,7513.0,153.0,0.127,-0.114,0.69,0.703
2979540,-2761.0,7513.0,65.0,0.126,-0.115,0.689,0.704
2979556,-2755.0,7521.0,143.0,0.124,-0.115,0.688,0.705
2979572,-2947.0,7453.0,325.0,0.123,-0.115,0.687,0.706
2979588,-2983.0,7259.0,525.0,0.122,-0.115,0.687,0.707
2979604,-2859.0,7395.0,655.0,0.121,-0.114,0.688,0.707
2979620,-2731.0,7655.0,643.0,0.12,-0.113,0.688,0.707
2979646,-2691.0,7829.0,795.0,0.119,-0.113,0.688,0.707
2979662,-2673.0,7851.0,927.0,0.118,-0.114,0.688,0.707
2979678,-2665.0,7765.0,1021.0,0.117,-0.114,0.686,0.709
2979694,-2761.0,7547.0,1235.0,0.116,-0.115,0.685,0.71
2979710,-2727.0,7261.0,1305.0,0.115,-0.116,0.684,0.711
2979726,-2713.0,7267.0,1317.0,0.114,-0.118,0.683,0.712
2979753,-2735.0,7223.0,1165.0,0.113,-0.12,0.682,0.713
2979769,-2627.0,7201.0,1053.0,0.111,-0.121,0.681,0.714
2979785,-2643.0,7227.0,953.0,0.109,-0.123,0.679,0.715
2979801,-2785.0,7185.0,957.0,0.107,-0.125,0.678,0.716
2979817,-2939.0,7003.0,997.0,0.105,-0.127,0.677,0.717
2979833,-3195.0,7201.0,985.0,0.103,-0.128,0.677,0.718
2979850,-3201.0,7411.0,801.0,0.101,-0.129,0.677,0.718
2979876,-3303.0,7443.0,901.0,0.1,-0.131,0.677,0.718
2979893,-3387.0,7415.0,841.0,0.099,-0.132,0.677,0.717
2979909,-3385.0,7203.0,741.0,0.099,-0.133,0.677,0.717
2979925,-3293.0,7153.0,607.0,0.099,-0.135,0.677,0.717
2979941,-3315.0,7329.0,433.0,0.1,-0.136,0.676,0.717
2979957,-3331.0,7495.0,223.0,0.1,-0.138,0.676,0.717
2979983,-3165.0,7197.0,221.0,0.1,-0.139,0.675,0.717
2979999,-3173.0,7307.0,363.0,0.1,-0.14,0.676,0.717
2980015,-3109.0,7177.0,415.0,0.1,-0.14,0.677,0.716
2980031,-2947.0,7637.0,609.0,0.101,-0.138,0.679,0.714
2980047,-2591.0,7717.0,549.0,0.102,-0.137,0.682,0.712
2980063,-2539.0,7983.0,783.0,0.103,-0.136,0.683,0.71
2980089,-2727.0,7953.0,851.0,0.103,-0.136,0.684,0.709
2980106,-2779.0,7545.0,1035.0,0.103,-0.136,0.684,0.709
2980122,-2959.0,7575.0,1063.0,0.102,-0.137,0.684,0.71
2980138,-2993.0,7535.0,1009.0,0.102,-0.137,0.683,0.71
2980154,-3131.0,7589.0,967.0,0.101,-0.138,0.683,0.711
2980170,-3153.0,7577.0,739.0,0.1,-0.138,0.682,0.711
2980196,-3339.0,7495.0,599.0,0.098,-0.138,0.683,0.711
2980213,-3305.0,7349.0,417.0,0.097,-0.138,0.683,0.711
2980229,-3379.0,7283.0,361.0,0.097,-0.138,0.683,0.71
2980245,-3097.0,7511.0,265.0,0.096,-0.137,0.684,0.71
2980261,-3063.0,7599.0,289.0,0.095,-0.137,0.684,0.71
2980277,-2879.0,7591.0,181.0,0.095,-0.137,0.684,0.71
2980293,-2891.0,7351.0,133.0,0.094,-0.137,0.684,0.711
2980319,-3055.0,6895.0,207.0,0.094,-0.137,0.684,0.711
2980335,-2891.0,6321.0,67.0,0.094,-0.136,0.684,0.71
2980351,-2897.0,5967.0,45.0,0.093,-0.135,0.685,0.71
2980367,-3211.0,5195.0,147.0,0.092,-0.132,0.686,0.709
2980383,-2865.0,4787.0,397.0,0.09,-0.128,0.688,0.709
2980400,-2185.0,5125.0,539.0,0.087,-0.123,0.69,0.708
2980426,-1607.0,5495.0,257.0,0.082,-0.118,0.692,0.707
2980442,-1303.0,5765.0,139.0,0.076,-0.112,0.694,0.707
2980459,-877.0,5883.0,191.0,0.069,-0.107,0.694,0.709
2980475,-661.0,5363.0,127.0,0.061,-0.101,0.693,0.711
2980492,-1035.0,5403.0,-65.0,0.052,-0.095,0.692,0.714
2980509,-1001.0,5083.0,-323.0,0.042,-0.087,0.691,0.717
2980525,-925.0,4395.0,-517.0,0.031,-0.078,0.689,0.72
2980542,-1009.0,4661.0,-333.0,0.021,-0.067,0.688,0.722
2980559,37.0,5645.0,-21.0,0.011,-0.055,0.688,0.723
2980576,1023.0,6789.0,237.0,0.001,-0.042,0.689,0.723
2980602,1777.0,7383.0,733.0,0.01,0.028,-0.691,-0.722
2980618,1985.0,6951.0,875.0,0.019,0.015,-0.693,-0.721
2980634,1777.0,6549.0,613.0,0.027,0.001,-0.696,-0.718
2980651,2123.0,7457.0,25.0,0.033,-0.011,-0.697,-0.716
2980668,3545.0,9941.0,-573.0,0.04,-0.023,-0.696,-0.716
2980685,1939.0,10771.0,233.0,0.051,-0.037,-0.691,-0.72
2980701,2851.0,7975.0,561.0,0.062,-0.054,-0.684,-0.725
2980727,3215.0,7451.0,469.0,0.073,-0.071,-0.676,-0.729
2980743,3713.0,8665.0,1101.0,0.084,-0.09,-0.67,-0.732
2980759,4189.0,7935.0,1033.0,0.096,-0.111,-0.662,-0.735
2980776,4039.0,8009.0,989.0,0.108,-0.132,-0.655,-0.736
2980792,4169.0,8293.0,973.0,0.12,-0.155,-0.647,-0.737
2980808,4783.0,7589.0,1273.0,0.131,-0.179,-0.636,-0.739
2980825,5827.0,7363.0,1967.0,0.142,-0.204,-0.625,-0.74
2980842,6171.0,8091.0,2213.0,0.152,-0.228,-0.614,-0.74
2980868,6515.0,7971.0,2027.0,0.16,-0.254,-0.6,-0.741
2980884,7507.0,5721.0,1559.0,0.168,-0.28,-0.586,-0.742
2980900,6609.0,6805.0,1511.0,0.174,-0.306,-0.571,-0.741
2980917,7669.0,6973.0,2313.0,0.18,-0.333,-0.556,-0.74
2980933,8253.0,6163.0,2277.0,0.186,-0.36,-0.539,-0.738
2980949,8643.0,5207.0,1941.0,0.193,-0.386,-0.522,-0.735
2980976,9241.0,7029.0,2127.0,0.199,-0.412,-0.506,-0.731
2980992,9073.0,6753.0,1893.0,0.205,-0.437,-0.491,-0.725
2981008,9673.0,6849.0,2743.0,0.21,-0.459,-0.479,-0.718
2981024,10073.0,6691.0,3465.0,0.217,-0.478,-0.469,-0.71
2981041,8811.0,7899.0,3541.0,0.222,-0.492,-0.463,-0.703
2981057,7655.0,8425.0,4105.0,0.225,-0.502,-0.458,-0.698
2981074,6267.0,9125.0,4797.0,0.226,-0.508,-0.456,-0.695
2981091,6403.0,7875.0,4993.0,0.228,-0.508,-0.457,-0.694
2981107,5519.0,8911.0,3689.0,0.23,-0.503,-0.461,-0.694
2981134,5345.0,10033.0,3271.0,0.228,-0.496,-0.466,-0.696
2981150,6235.0,9117.0,3625.0,0.225,-0.486,-0.473,-0.7
2981167,5671.0,7207.0,3503.0,0.221,-0.472,-0.483,-0.704
2981183,6271.0,8141.0,3973.0,0.218,-0.455,-0.496,-0.707
2981199,6787.0,10083.0,4251.0,0.214,-0.436,-0.51,-0.71
2981216,7875.0,7265.0,2935.0,0.208,-0.414,-0.523,-0.716
2981232,7807.0,4939.0,2599.0,0.202,-0.392,-0.536,-0.72
2981249,7371.0,4721.0,3501.0,0.198,-0.368,-0.55,-0.723
2981276,6701.0,6767.0,3567.0,0.194,-0.342,-0.566,-0.724
2981292,6051.0,6765.0,2487.0,0.19,-0.317,-0.581,-0.725
2981308,7119.0,5513.0,2029.0,0.184,-0.294,-0.592,-0.727
2981325,6789.0,4757.0,2025.0,0.178,-0.271,-0.602,-0.729
2981342,6497.0,5415.0,2195.0,0.172,-0.249,-0.612,-0.731
2981358,5445.0,6387.0,1807.0,0.167,-0.228,-0.62,-0.732
2981375,7041.0,7039.0,1497.0,0.159,-0.208,-0.627,-0.733
2981391,5617.0,5543.0,1169.0,0.153,-0.189,-0.633,-0.735
2981408,5677.0,6485.0,1267.0,0.147,-0.172,-0.638,-0.736
2981435,4439.0,7491.0,1115.0,0.141,-0.155,-0.643,-0.737
2981451,4721.0,6581.0,913.0,0.136,-0.14,-0.647,-0.737
2981467,3963.0,7053.0,715.0,0.13,-0.125,-0.65,-0.738
2981484,3263.0,7783.0,437.0,0.124,-0.111,-0.653,-0.739
2981500,2485.0,8115.0,591.0,0.117,-0.099,-0.655,-0.74
2981516,3115.0,7361.0,525.0,0.11,-0.087,-0.656,-0.741
2981542,2977.0,8143.0,511.0,0.103,-0.075,-0.658,-0.742
2981558,3441.0,6977.0,209.0,0.095,-0.064,-0.66,-0.743
2981574,2167.0,7959.0,147.0,0.086,-0.051,-0.663,-0.742
2981591,1137.0,8153.0,515.0,0.077,-0.039,-0.666,-0.741
2981607,1077.0,8187.0,867.0,0.068,-0.027,-0.669,-0.74
2981624,1293.0,7773.0,1097.0,0.06,-0.016,-0.672,-0.738
2981641,1063.0,7989.0,961.0,0.052,-0.005,-0.676,-0.735
2981658,913.0,8391.0,857.0,0.045,0.006,-0.68,-0.732
2981675,315.0,7535.0,825.0,0.036,0.017,-0.683,-0.729
2981692,215.0,7989.0,551.0,0.028,0.027,-0.686,-0.727
2981718,-939.0,7285.0,589.0,0.02,0.037,-0.688,-0.725
2981734,-617.0,7983.0,617.0,0.012,0.045,-0.689,-0.723
2981750,85.0,7105.0,867.0,0.005,0.053,-0.69,-0.722
2981767,279.0,6003.0,497.0,0.002,-0.06,0.691,0.721
2981783,697.0,5909.0,105.0,0.009,-0.067,0.692,0.719
2981800,255.0,4685.0,-497.0,0.016,-0.074,0.693,0.717
2981817,-819.0,2379.0,-743.0,0.021,-0.08,0.692,0.717
2981834,-1243.0,667.0,-341.0,0.023,-0.083,0.691,0.718
2981850,-1511.0,-1191.0,347.0,0.023,-0.084,0.691,0.718
2981877,-1065.0,-1009.0,525.0,0.02,-0.081,0.692,0.717
2981893,-325.0,-239.0,531.0,0.013,-0.076,0.694,0.716
2981910,549.0,887.0,303.0,0.002,-0.069,0.696,0.715
2981926,693.0,2269.0,-7.0,0.01,0.057,-0.697,-0.715
2981942,1415.0,4075.0,499.0,0.025,0.042,-0.698,-0.715
2981958,1379.0,4717.0,569.0,0.041,0.023,-0.698,-0.714
2981974,1899.0,6161.0,683.0,0.056,0.001,-0.699,-0.713
2982000,1103.0,6907.0,967.0,0.073,-0.026,-0.701,-0.709
2982017,2769.0,6131.0,789.0,0.09,-0.055,-0.705,-0.701
2982033,4489.0,6165.0,183.0,0.108,-0.085,-0.711,-0.689
2982050,6909.0,7313.0,-823.0,0.127,-0.113,-0.716,-0.677
2982067,5905.0,10123.0,-927.0,0.145,-0.139,-0.716,-0.669
2982084,7205.0,10093.0,-795.0,0.162,-0.163,-0.71,-0.666
2982100,7191.0,9021.0,-189.0,0.178,-0.184,-0.699,-0.667
2982117,7291.0,9985.0,151.0,0.192,-0.202,-0.687,-0.672
2982143,7577.0,8697.0,289.0,0.202,-0.215,-0.672,-0.679
2982159,5017.0,8303.0,67.0,0.213,-0.232,-0.658,-0.684
2982175,5253.0,8635.0,-573.0,0.224,-0.253,-0.644,-0.686
2982191,5893.0,6737.0,-211.0,0.234,-0.278,-0.63,-0.687
2982208,7483.0,6963.0,539.0,0.244,-0.305,-0.616,-0.684
2982224,9221.0,6717.0,1063.0,0.254,-0.331,-0.602,-0.681
2982241,8967.0,7709.0,1553.0,0.262,-0.357,-0.588,-0.677
2982258,9227.0,8293.0,2553.0,0.268,-0.382,-0.573,-0.674
2982284,9115.0,7901.0,2863.0,0.274,-0.403,-0.559,-0.671
2982300,7539.0,8277.0,2989.0,0.28,-0.421,-0.545,-0.669
2982317,5869.0,10793.0,3405.0,0.283,-0.437,-0.533,-0.667
2982333,5999.0,12223.0,4229.0,0.282,-0.45,-0.523,-0.667
2982350,7257.0,10841.0,4699.0,0.279,-0.459,-0.515,-0.668
2982367,8663.0,9439.0,4529.0,0.276,-0.462,-0.51,-0.671
2982383,8067.0,8459.0,3833.0,0.274,-0.457,-0.509,-0.676
2982400,6961.0,9373.0,2625.0,0.27,-0.447,-0.511,-0.682
2982417,6171.0,8815.0,1841.0,0.263,-0.434,-0.515,-0.69
2982444,5565.0,8145.0,1411.0,0.256,-0.42,-0.522,-0.697
2982460,6001.0,7337.0,1409.0,0.249,-0.403,-0.532,-0.702
2982476,4875.0,6557.0,487.0,0.244,-0.385,-0.543,-0.705
2982492,5425.0,5051.0,735.0,0.238,-0.367,-0.556,-0.707
2982508,6403.0,6369.0,1385.0,0.235,-0.348,-0.571,-0.706
2982524,6623.0,6053.0,1161.0,0.23,-0.328,-0.586,-0.704
2982550,6489.0,6321.0,1635.0,0.225,-0.307,-0.601,-0.702
2982566,6573.0,7181.0,2727.0,0.221,-0.286,-0.616,-0.7
2982583,6309.0,5693.0,3037.0,0.217,-0.264,-0.631,-0.696
2982600,6129.0,7053.0,2761.0,0.214,-0.242,-0.646,-0.692
