timeMs,ax,ay,az,q0,q1,q2,q3
2929659,-3369.0,8151.0,621.0,0.118,-0.102,0.71,0.687
2929676,-3257.0,8147.0,715.0,0.122,-0.097,0.709,0.688
2929692,-3111.0,8129.0,727.0,0.126,-0.092,0.707,0.69
2929708,-2967.0,7835.0,741.0,0.13,-0.087,0.705,0.692
2929724,-2861.0,7549.0,789.0,0.133,-0.083,0.703,0.694
2929740,-2775.0,7129.0,791.0,0.136,-0.08,0.701,0.696
2929757,-2729.0,6853.0,849.0,0.139,-0.077,0.699,0.697
2929783,-2709.0,6785.0,889.0,0.142,-0.075,0.698,0.698
2929800,-2703.0,6747.0,869.0,0.144,-0.074,0.697,0.698
2929816,-2807.0,6819.0,969.0,0.146,-0.074,0.697,0.698
2929832,-2863.0,7053.0,941.0,0.147,-0.074,0.698,0.697
2929849,-3035.0,7227.0,861.0,0.147,-0.075,0.699,0.696
2929866,-3167.0,7491.0,791.0,0.146,-0.077,0.7,0.695
2929882,-3351.0,7713.0,693.0,0.145,-0.08,0.701,0.694
2929898,-3469.0,7897.0,541.0,0.143,-0.084,0.701,0.693
2929925,-3631.0,7901.0,325.0,0.142,-0.088,0.702,0.693
2929942,-3731.0,7689.0,87.0,0.14,-0.092,0.702,0.692
2929959,-3805.0,7645.0,-63.0,0.139,-0.096,0.702,0.692
2929976,-4005.0,7665.0,-293.0,0.139,-0.1,0.701,0.692
2929993,-4199.0,7679.0,-461.0,0.139,-0.104,0.7,0.693
2930010,-4313.0,7481.0,-679.0,0.14,-0.108,0.699,0.693
2930027,-4393.0,7231.0,-793.0,0.141,-0.11,0.697,0.694
2930044,-4673.0,6971.0,-895.0,0.144,-0.112,0.696,0.695
2930061,-4885.0,6843.0,-1013.0,0.147,-0.114,0.694,0.695
2930078,-5033.0,6533.0,-1023.0,0.151,-0.113,0.693,0.696
2930095,-5009.0,6223.0,-959.0,0.156,-0.112,0.692,0.696
2930112,-4965.0,6039.0,-935.0,0.161,-0.109,0.692,0.695
2930129,-4921.0,6011.0,-955.0,0.167,-0.106,0.693,0.693
2930156,-4839.0,6109.0,-915.0,0.173,-0.102,0.695,0.69
2930173,-4809.0,6235.0,-825.0,0.179,-0.097,0.697,0.687
2930190,-4819.0,6447.0,-671.0,0.185,-0.092,0.7,0.684
2930207,-4769.0,6675.0,-563.0,0.191,-0.087,0.702,0.68
2930224,-4657.0,6893.0,-313.0,0.197,-0.081,0.704,0.677
2930241,-4599.0,7171.0,75.0,0.202,-0.076,0.706,0.674
2930258,-4393.0,7395.0,537.0,0.207,-0.07,0.707,0.672
2930274,-4197.0,7685.0,749.0,0.211,-0.064,0.708,0.671
2930291,-3985.0,7909.0,833.0,0.215,-0.059,0.707,0.671
2930308,-3877.0,8263.0,1007.0,0.217,-0.056,0.705,0.673
2930325,-3831.0,8467.0,1129.0,0.219,-0.054,0.701,0.677
2930342,-3691.0,8591.0,1293.0,0.22,-0.054,0.695,0.683
2930359,-3459.0,8641.0,1445.0,0.22,-0.054,0.687,0.69
2930385,-3219.0,8531.0,1535.0,0.22,-0.056,0.679,0.698
2930402,-3097.0,8619.0,1407.0,0.219,-0.06,0.67,0.707
2930419,-2869.0,8585.0,1005.0,0.218,-0.065,0.659,0.717
2930436,-2947.0,8533.0,787.0,0.216,-0.071,0.646,0.729
2930453,-2913.0,7761.0,871.0,0.214,-0.077,0.632,0.741
2930469,-3067.0,7043.0,1109.0,0.212,-0.084,0.618,0.752
2930485,-3351.0,5909.0,1655.0,0.21,-0.089,0.606,0.762
2930501,-3545.0,5325.0,2067.0,0.21,-0.093,0.597,0.769
2930527,-3441.0,5379.0,2221.0,0.209,-0.095,0.59,0.774
2930544,-3363.0,5627.0,2345.0,0.21,-0.096,0.585,0.777
2930561,-3455.0,5973.0,2369.0,0.21,-0.097,0.582,0.78
2930577,-3445.0,6377.0,2389.0,0.209,-0.099,0.578,0.782
2930593,-3609.0,6415.0,2475.0,0.208,-0.101,0.575,0.785
2930609,-3865.0,6195.0,2357.0,0.206,-0.104,0.573,0.787
2930625,-4205.0,5983.0,2035.0,0.204,-0.106,0.572,0.788
2930651,-4445.0,5629.0,1733.0,0.201,-0.109,0.572,0.788
2930668,-4747.0,5539.0,1101.0,0.197,-0.111,0.575,0.786
2930684,-4915.0,5657.0,-121.0,0.192,-0.112,0.581,0.783
2930701,-4923.0,6019.0,-1651.0,0.186,-0.113,0.588,0.779
2930718,-4745.0,6585.0,-3207.0,0.179,-0.114,0.598,0.773
2930735,-4793.0,6633.0,-3991.0,0.174,-0.11,0.609,0.766
2930752,-4725.0,6141.0,-4411.0,0.171,-0.102,0.624,0.756
2930769,-4959.0,6605.0,-4655.0,0.172,-0.089,0.641,0.743
2930786,-4565.0,6791.0,-4279.0,0.176,-0.071,0.662,0.725
2930803,-4171.0,7775.0,-3673.0,0.184,-0.048,0.687,0.701
2930829,-3915.0,9445.0,-2835.0,0.196,-0.02,0.714,0.672
2930845,-32717.0,32767.0,-32767.0,0.21,-0.079,0.643,0.732
2930862,-4431.0,-17841.0,5815.0,0.186,-0.062,0.597,0.777
2930878,-67.0,-10281.0,12271.0,0.189,-0.069,0.595,0.778
2930894,-4153.0,3143.0,7551.0,0.19,-0.069,0.609,0.767
2930910,-2657.0,7311.0,2495.0,0.193,-0.068,0.614,0.762
2930927,-1041.0,3407.0,2645.0,0.195,-0.063,0.615,0.761
2930944,-1053.0,3971.0,3195.0,0.197,-0.058,0.617,0.76
2930960,-1429.0,4967.0,4441.0,0.202,-0.054,0.619,0.757
2930987,-2355.0,5555.0,5061.0,0.209,-0.049,0.624,0.751
2931003,-3547.0,8201.0,3867.0,0.217,-0.043,0.637,0.739
2931019,-2967.0,12987.0,1793.0,0.222,-0.035,0.651,0.725
2931035,-3221.0,15741.0,1737.0,0.221,-0.028,0.66,0.718
2931052,-3537.0,13365.0,2587.0,0.22,-0.028,0.655,0.722
2931069,-2361.0,7751.0,3151.0,0.217,-0.033,0.643,0.734
2931086,-3187.0,5245.0,3577.0,0.212,-0.042,0.628,0.748
2931103,-4091.0,5921.0,3733.0,0.206,-0.053,0.612,0.762
2931120,-4133.0,8177.0,3415.0,0.198,-0.066,0.594,0.777
2931147,-4345.0,9787.0,2833.0,0.19,-0.08,0.575,0.792
2931163,-4365.0,10135.0,1989.0,0.182,-0.096,0.554,0.807
2931180,-4637.0,9235.0,1615.0,0.174,-0.114,0.531,0.821
2931197,-5203.0,8157.0,1177.0,0.166,-0.131,0.51,0.834
2931213,-5157.0,7253.0,659.0,0.16,-0.145,0.491,0.844
2931230,-4871.0,6299.0,249.0,0.154,-0.156,0.475,0.852
2931247,-4471.0,5573.0,-151.0,0.15,-0.163,0.463,0.858
2931264,-4051.0,5261.0,-761.0,0.147,-0.168,0.455,0.862
2931281,-3839.0,5105.0,-1021.0,0.146,-0.169,0.45,0.865
2931298,-3581.0,5383.0,-1259.0,0.145,-0.168,0.447,0.866
2931315,-3029.0,5221.0,-1417.0,0.145,-0.166,0.447,0.867
2931332,-3009.0,4605.0,-1383.0,0.145,-0.162,0.45,0.866
2931359,-2775.0,4389.0,-1047.0,0.146,-0.156,0.457,0.864
2931375,-2877.0,4463.0,-1209.0,0.147,-0.148,0.468,0.859
2931391,-2691.0,5235.0,-1625.0,0.148,-0.139,0.484,0.851
2931408,-2569.0,5647.0,-2037.0,0.149,-0.129,0.503,0.841
2931424,-2597.0,6357.0,-2353.0,0.152,-0.116,0.526,0.829
2931440,-2533.0,6863.0,-2727.0,0.155,-0.103,0.552,0.813
2931457,-2637.0,7249.0,-3191.0,0.158,-0.089,0.581,0.793
2931474,-2971.0,7863.0,-3597.0,0.161,-0.073,0.612,0.771
2931500,-3253.0,9501.0,-4057.0,0.167,-0.056,0.645,0.743
2931516,-3349.0,11573.0,-3757.0,0.176,-0.037,0.678,0.713
2931532,-3297.0,13463.0,-2963.0,0.186,-0.017,0.709,0.681
2931548,-3061.0,15537.0,-1883.0,0.198,0.003,0.735,0.648
2931565,-9103.0,32767.0,-32767.0,0.237,-0.055,0.667,0.704
2931582,-7479.0,-18129.0,10485.0,0.217,-0.053,0.62,0.753
2931598,365.0,-7771.0,10633.0,0.226,-0.067,0.617,0.751
2931624,-4381.0,1971.0,9995.0,0.227,-0.074,0.627,0.741
2931641,-4879.0,5629.0,3519.0,0.229,-0.074,0.634,0.735
2931658,-3153.0,4381.0,3127.0,0.231,-0.068,0.64,0.73
2931675,-2465.0,5447.0,3151.0,0.233,-0.061,0.643,0.727
2931692,-3315.0,6405.0,3213.0,0.237,-0.053,0.647,0.723
2931708,-4373.0,7423.0,1921.0,0.245,-0.043,0.655,0.714
2931724,-4159.0,9259.0,509.0,0.255,-0.028,0.663,0.703
2931740,-2817.0,11219.0,531.0,0.263,-0.014,0.667,0.697
2931766,-2879.0,12445.0,1685.0,0.267,-0.005,0.666,0.696
2931783,-3999.0,10967.0,2805.0,0.269,0.0,0.66,0.701
2931800,-3781.0,8565.0,3419.0,0.27,0.001,0.652,0.709
2931816,-3325.0,7473.0,3385.0,0.269,-0.001,0.642,0.718
2931833,-2813.0,7171.0,2993.0,0.265,-0.006,0.632,0.728
2931849,-2701.0,7989.0,2075.0,0.26,-0.014,0.62,0.74
2931865,-2589.0,9009.0,1053.0,0.254,-0.027,0.606,0.753
2931882,-2693.0,9353.0,99.0,0.247,-0.044,0.591,0.766
2931898,-3401.0,9985.0,-805.0,0.241,-0.064,0.574,0.78
2931925,-4079.0,9599.0,-1391.0,0.235,-0.086,0.556,0.793
2931942,-4501.0,8431.0,-1685.0,0.231,-0.106,0.536,0.805
2931959,-4381.0,6201.0,-1683.0,0.226,-0.124,0.518,0.816
2931976,-4289.0,4013.0,-1447.0,0.222,-0.136,0.503,0.824
2931993,-4319.0,2949.0,-1465.0,0.218,-0.143,0.494,0.829
2932010,-4161.0,2835.0,-1819.0,0.216,-0.146,0.491,0.831
2932027,-4011.0,3301.0,-2263.0,0.215,-0.144,0.493,0.83
2932044,-3977.0,3737.0,-2511.0,0.214,-0.139,0.501,0.827
2932061,-4151.0,4337.0,-2707.0,0.213,-0.132,0.513,0.821
2932078,-4401.0,5223.0,-2961.0,0.212,-0.124,0.529,0.812
2932095,-4421.0,6025.0,-3411.0,0.212,-0.115,0.548,0.801
2932112,-4467.0,6551.0,-3775.0,0.211,-0.104,0.57,0.788
2932129,-4279.0,6961.0,-4117.0,0.21,-0.091,0.592,0.773
2932146,-4325.0,7529.0,-4439.0,0.211,-0.078,0.615,0.756
2932173,-4425.0,8427.0,-4383.0,0.213,-0.063,0.64,0.735
2932189,-4775.0,10001.0,-3709.0,0.218,-0.046,0.666,0.712
2932206,-4731.0,11593.0,-2783.0,0.225,-0.028,0.692,0.686
2932223,-4229.0,13333.0,-1897.0,0.234,-0.009,0.715,0.659
2932240,1611.0,32269.0,-4597.0,0.26,-0.064,0.656,0.706
2932256,-9229.0,-11723.0,11511.0,0.24,-0.064,0.616,0.748
2932272,-237.0,-3845.0,8447.0,0.245,-0.075,0.609,0.751
2932288,-2029.0,6187.0,7289.0,0.246,-0.083,0.607,0.751
2932315,-3255.0,1017.0,5265.0,0.244,-0.083,0.61,0.749
2932331,-2611.0,5525.0,3853.0,0.244,-0.08,0.615,0.745
2932348,-2341.0,6329.0,3591.0,0.244,-0.073,0.619,0.743
2932365,-3181.0,6689.0,3857.0,0.247,-0.067,0.623,0.74
2932381,-3731.0,7489.0,2621.0,0.253,-0.058,0.629,0.733
2932397,-4035.0,8101.0,1177.0,0.26,-0.046,0.637,0.724
2932413,-3089.0,8847.0,1011.0,0.267,-0.032,0.645,0.715
2932429,-2925.0,10359.0,1945.0,0.272,-0.017,0.651,0.709
2932456,-3283.0,10477.0,2763.0,0.273,-0.006,0.654,0.705
2932473,-3337.0,10063.0,3117.0,0.273,-0.0,0.653,0.706
2932490,-2625.0,9167.0,2945.0,0.271,0.001,0.648,0.712
2932506,-2397.0,8319.0,2309.0,0.266,-0.004,0.64,0.721
2932523,-2345.0,8339.0,1329.0,0.26,-0.013,0.63,0.732
2932540,-3003.0,9787.0,13.0,0.254,-0.028,0.618,0.744
2932556,-3573.0,10889.0,-1337.0,0.248,-0.048,0.603,0.757
2932573,-4591.0,11287.0,-2265.0,0.243,-0.07,0.585,0.771
2932590,-5093.0,10469.0,-2965.0,0.239,-0.092,0.562,0.787
2932617,-4937.0,7529.0,-2981.0,0.234,-0.112,0.539,0.802
2932633,-4671.0,4391.0,-2581.0,0.229,-0.128,0.519,0.814
2932649,-4663.0,2565.0,-2421.0,0.225,-0.138,0.505,0.822
2932665,-4485.0,2047.0,-2569.0,0.222,-0.143,0.499,0.825
2932682,-4221.0,2127.0,-2951.0,0.221,-0.143,0.499,0.826
2932698,-3933.0,2491.0,-3201.0,0.219,-0.138,0.505,0.823
2932714,-3969.0,3313.0,-3473.0,0.219,-0.131,0.517,0.817
2932740,-3953.0,4171.0,-3805.0,0.219,-0.12,0.534,0.808
2932756,-3837.0,5149.0,-4169.0,0.218,-0.108,0.556,0.794
2932772,-3481.0,5769.0,-4671.0,0.218,-0.092,0.584,0.777
2932788,-3197.0,6861.0,-5487.0,0.217,-0.072,0.615,0.754
2932804,-3463.0,8285.0,-6027.0,0.218,-0.051,0.647,0.729
2932820,-3685.0,9575.0,-6521.0,0.22,-0.027,0.679,0.7
2932846,-3903.0,11613.0,-6095.0,0.226,-0.003,0.709,0.668
2932862,-3603.0,13721.0,-4823.0,0.234,0.021,0.735,0.636
2932878,-11487.0,32767.0,-29563.0,0.214,-0.075,0.706,0.67
2932895,-6623.0,-17953.0,3095.0,0.188,-0.066,0.652,0.732
2932911,-4421.0,-10719.0,8657.0,0.193,-0.08,0.635,0.744
2932927,-2001.0,8729.0,7371.0,0.199,-0.092,0.625,0.749
2932943,-2177.0,-1143.0,6915.0,0.199,-0.097,0.619,0.754
2932969,-3079.0,3631.0,3717.0,0.2,-0.094,0.62,0.752
2932985,-2035.0,5851.0,3935.0,0.204,-0.088,0.622,0.751
2933001,-2151.0,6571.0,4341.0,0.209,-0.082,0.623,0.749
2933018,-3249.0,7181.0,3811.0,0.215,-0.073,0.628,0.745
2933035,-3923.0,8103.0,1979.0,0.224,-0.063,0.635,0.737
2933051,-2001.0,9189.0,897.0,0.232,-0.049,0.642,0.729
2933077,-1911.0,9893.0,1145.0,0.236,-0.033,0.649,0.722
2933093,-1977.0,10511.0,1449.0,0.24,-0.02,0.656,0.716
2933109,-1869.0,10225.0,1567.0,0.242,-0.013,0.66,0.712
2933125,-1497.0,9027.0,1809.0,0.241,-0.012,0.661,0.71
2933141,-2097.0,8165.0,1357.0,0.238,-0.016,0.66,0.712
2933157,-2407.0,7483.0,611.0,0.233,-0.022,0.655,0.718
2933173,-3013.0,8385.0,-389.0,0.229,-0.032,0.647,0.727
2933199,-3135.0,9173.0,-1305.0,0.225,-0.044,0.634,0.738
2933216,-3055.0,9181.0,-1819.0,0.222,-0.059,0.619,0.751
2933233,-3465.0,8929.0,-1867.0,0.218,-0.076,0.603,0.764
2933250,-4073.0,8141.0,-1745.0,0.215,-0.093,0.587,0.775
2933267,-4567.0,7423.0,-1695.0,0.213,-0.109,0.573,0.784
2933284,-4529.0,6215.0,-1577.0,0.211,-0.121,0.563,0.79
2933301,-4385.0,4831.0,-1513.0,0.209,-0.129,0.557,0.794
2933317,-4253.0,3849.0,-1549.0,0.208,-0.132,0.555,0.795
2933333,-4305.0,3613.0,-1549.0,0.208,-0.133,0.557,0.793
2933350,-4477.0,4473.0,-1631.0,0.209,-0.129,0.564,0.789
2933376,-4547.0,5385.0,-1655.0,0.21,-0.124,0.572,0.783
2933392,-4779.0,6131.0,-1477.0,0.213,-0.117,0.583,0.775
2933408,-4729.0,6699.0,-1169.0,0.216,-0.108,0.595,0.766
2933424,-4609.0,7063.0,-909.0,0.219,-0.098,0.609,0.756
2933440,-4629.0,7337.0,-535.0,0.222,-0.087,0.624,0.744
2933456,-4537.0,7231.0,-223.0,0.226,-0.076,0.641,0.73
2933482,-4123.0,6937.0,7.0,0.229,-0.063,0.66,0.712
2933498,-3675.0,7247.0,-21.0,0.231,-0.048,0.682,0.692
2933515,-3429.0,7795.0,-303.0,0.233,-0.034,0.703,0.671
2933531,-3245.0,8191.0,-629.0,0.235,-0.02,0.724,0.648
2933547,-3125.0,8841.0,-983.0,0.237,-0.008,0.743,0.626
2933564,14573.0,25937.0,24885.0,0.23,-0.011,0.758,0.611
2933590,-3627.0,5363.0,4607.0,0.226,-0.016,0.751,0.62
2933607,-5593.0,7167.0,505.0,0.222,-0.021,0.747,0.627
2933623,-3797.0,6755.0,29.0,0.222,-0.029,0.744,0.629
2933639,-2933.0,5965.0,-751.0,0.222,-0.034,0.744,0.629
2933655,-3653.0,6013.0,-1407.0,0.22,-0.033,0.746,0.627
2933671,-3215.0,6853.0,-2277.0,0.219,-0.029,0.749,0.624
2933687,-3963.0,6375.0,-2525.0,0.221,-0.026,0.752,0.62
2933713,-3781.0,6243.0,-2701.0,0.226,-0.021,0.756,0.614
2933729,-3467.0,7135.0,-2825.0,0.232,-0.015,0.761,0.605
2933745,-2911.0,8161.0,-3029.0,0.238,-0.008,0.765,0.598
2933761,-2805.0,8497.0,-2847.0,0.242,-0.003,0.767,0.594
2933777,-3061.0,8553.0,-1961.0,0.245,-0.001,0.765,0.595
2933793,-3073.0,7265.0,-1731.0,0.247,0.0,0.76,0.601
2933819,-3249.0,6537.0,-1247.0,0.249,-0.001,0.753,0.609
2933835,-3281.0,6065.0,-1053.0,0.248,-0.003,0.746,0.617
2933851,-3737.0,6481.0,-1131.0,0.248,-0.006,0.741,0.624
2933868,-3973.0,6621.0,-1115.0,0.247,-0.01,0.738,0.628
2933884,-4327.0,7559.0,-1525.0,0.246,-0.013,0.735,0.632
2933901,-4107.0,7939.0,-1775.0,0.246,-0.017,0.731,0.637
2933917,-4451.0,8019.0,-1647.0,0.246,-0.022,0.725,0.643
2933934,-4137.0,7599.0,-1505.0,0.247,-0.026,0.716,0.652
2933961,-4119.0,7291.0,-1131.0,0.246,-0.031,0.705,0.664
2933978,-4087.0,6471.0,-369.0,0.245,-0.037,0.693,0.677
2933994,-4009.0,5551.0,393.0,0.242,-0.042,0.682,0.689
2934010,-4169.0,5173.0,1029.0,0.239,-0.047,0.673,0.699
2934026,-4611.0,5209.0,1563.0,0.235,-0.049,0.668,0.704
2934043,-4321.0,5665.0,1443.0,0.231,-0.049,0.667,0.707
2934059,-3801.0,6507.0,819.0,0.227,-0.049,0.668,0.707
2934085,-3541.0,7559.0,275.0,0.223,-0.049,0.67,0.707
2934102,-3769.0,8589.0,119.0,0.22,-0.05,0.669,0.708
2934118,-3455.0,8723.0,97.0,0.216,-0.051,0.666,0.712
2934134,-3181.0,8121.0,225.0,0.212,-0.052,0.662,0.717
2934150,-2689.0,7449.0,309.0,0.207,-0.053,0.657,0.722
2934166,-2663.0,7567.0,437.0,0.204,-0.055,0.654,0.726
2934182,-2503.0,7789.0,401.0,0.2,-0.057,0.652,0.729
2934208,-2163.0,8023.0,7.0,0.197,-0.058,0.652,0.73
2934224,-1925.0,8153.0,-455.0,0.194,-0.058,0.652,0.731
2934241,-1861.0,8241.0,-809.0,0.191,-0.058,0.653,0.731
2934257,-1567.0,7929.0,-979.0,0.189,-0.057,0.655,0.73
2934273,-1279.0,7857.0,-1111.0,0.188,-0.055,0.659,0.727
2934289,-1309.0,7953.0,-1437.0,0.188,-0.052,0.665,0.721
2934315,-1605.0,8785.0,-1767.0,0.191,-0.049,0.671,0.714
2934332,-2029.0,9033.0,-2095.0,0.194,-0.046,0.677,0.709
2934349,-2583.0,8827.0,-2045.0,0.198,-0.044,0.68,0.704
2934365,-2759.0,8137.0,-1833.0,0.202,-0.042,0.682,0.702
2934381,-3105.0,7613.0,-1347.0,0.206,-0.04,0.683,0.7
2934398,-3375.0,7099.0,-921.0,0.21,-0.038,0.684,0.698
2934414,-3733.0,6717.0,-507.0,0.214,-0.037,0.685,0.695
2934430,-4057.0,6279.0,-125.0,0.219,-0.035,0.687,0.692
2934457,-4267.0,6441.0,109.0,0.223,-0.033,0.689,0.689
2934473,-4295.0,6929.0,269.0,0.226,-0.032,0.692,0.685
2934490,-4727.0,7361.0,559.0,0.229,-0.031,0.693,0.683
2934507,-4633.0,7521.0,657.0,0.231,-0.031,0.692,0.683
2934523,-4591.0,7671.0,865.0,0.232,-0.032,0.69,0.685
2934539,-4419.0,7485.0,1125.0,0.233,-0.033,0.685,0.69
2934555,-3963.0,7013.0,1381.0,0.232,-0.034,0.679,0.696
2934581,-3843.0,6665.0,1451.0,0.23,-0.035,0.674,0.701
2934598,-3523.0,6941.0,1261.0,0.227,-0.037,0.67,0.705
2934615,-3583.0,7487.0,1151.0,0.224,-0.039,0.668,0.709
2934631,-3647.0,7983.0,893.0,0.221,-0.041,0.665,0.712
2934647,-3215.0,8023.0,545.0,0.218,-0.042,0.662,0.716
2934663,-2833.0,7861.0,271.0,0.215,-0.043,0.66,0.719
2934679,-2667.0,7687.0,105.0,0.212,-0.045,0.657,0.722
2934695,-2289.0,7347.0,11.0,0.209,-0.047,0.655,0.725
2934722,-2073.0,7129.0,19.0,0.206,-0.048,0.653,0.727
2934739,-2127.0,7209.0,161.0,0.203,-0.05,0.653,0.728
2934755,-2037.0,7415.0,161.0,0.2,-0.05,0.653,0.728
2934772,-1859.0,7611.0,169.0,0.197,-0.05,0.655,0.728
2934789,-1745.0,7777.0,247.0,0.195,-0.05,0.657,0.726
2934806,-1693.0,8045.0,121.0,0.192,-0.049,0.661,0.724
2934823,-1711.0,8189.0,17.0,0.189,-0.049,0.664,0.722
2934840,-1941.0,8393.0,87.0,0.186,-0.05,0.667,0.72
2934857,-2209.0,8419.0,213.0,0.183,-0.05,0.67,0.718
2934874,-2311.0,8503.0,201.0,0.181,-0.05,0.672,0.716
2934891,-2357.0,8407.0,101.0,0.178,-0.052,0.675,0.714
2934908,-2559.0,8363.0,95.0,0.177,-0.054,0.677,0.712
2934935,-2717.0,8163.0,123.0,0.175,-0.056,0.679,0.711
2934952,-3071.0,8455.0,-57.0,0.174,-0.059,0.68,0.71
2934968,-3189.0,7919.0,-35.0,0.174,-0.061,0.681,0.709
2934985,-3125.0,7513.0,-41.0,0.173,-0.064,0.681,0.708
2935001,-3445.0,7159.0,11.0,0.173,-0.067,0.682,0.708
2935017,-3497.0,6767.0,-3.0,0.173,-0.069,0.683,0.707
2935033,-3899.0,7047.0,49.0,0.174,-0.07,0.684,0.705
2935049,-3839.0,6843.0,139.0,0.174,-0.071,0.686,0.703
2935076,-3963.0,6889.0,143.0,0.175,-0.071,0.688,0.701
2935092,-4127.0,6825.0,285.0,0.175,-0.07,0.691,0.698
2935109,-4077.0,6889.0,363.0,0.175,-0.068,0.693,0.696
2935127,-4129.0,6991.0,485.0,0.176,-0.065,0.696,0.693
2935143,-2951.0,8589.0,2231.0,0.176,-0.062,0.699,0.691
2935159,-5489.0,4359.0,1303.0,0.174,-0.06,0.697,0.693
2935175,-3531.0,6629.0,891.0,0.175,-0.059,0.697,0.693
2935192,-5049.0,6075.0,685.0,0.176,-0.059,0.696,0.693
2935209,-4027.0,7261.0,137.0,0.178,-0.059,0.697,0.693
2935226,-4465.0,7269.0,-153.0,0.18,-0.059,0.696,0.693
2935252,-4087.0,6987.0,-269.0,0.182,-0.06,0.694,0.694
2935269,-4285.0,6659.0,-169.0,0.184,-0.062,0.693,0.695
2935285,-4341.0,6591.0,-211.0,0.187,-0.063,0.691,0.695
2935301,-4323.0,6491.0,-253.0,0.19,-0.065,0.69,0.695
2935317,-4309.0,6503.0,-313.0,0.193,-0.066,0.69,0.694
2935334,-4299.0,6535.0,-177.0,0.196,-0.066,0.691,0.693
2935350,-4151.0,6515.0,-189.0,0.199,-0.065,0.691,0.691
2935376,-4115.0,6669.0,-133.0,0.202,-0.064,0.693,0.689
2935393,-3927.0,7115.0,-75.0,0.205,-0.063,0.695,0.686
2935410,-3573.0,7523.0,-51.0,0.207,-0.061,0.697,0.684
2935427,-3427.0,7847.0,-41.0,0.208,-0.059,0.699,0.682
2935443,-3131.0,7981.0,29.0,0.208,-0.057,0.7,0.681
2935459,-2871.0,8019.0,53.0,0.208,-0.055,0.7,0.681
2935476,-2657.0,8111.0,-9.0,0.208,-0.054,0.7,0.681
2935492,-2571.0,8063.0,33.0,0.208,-0.054,0.699,0.682
2935519,-2681.0,7979.0,9.0,0.208,-0.054,0.698,0.683
2935535,-2747.0,7937.0,-15.0,0.208,-0.054,0.698,0.683
2935552,-2823.0,7643.0,-5.0,0.208,-0.055,0.698,0.684
2935569,-3019.0,7533.0,-67.0,0.208,-0.055,0.698,0.683
2935585,-3159.0,7383.0,-137.0,0.208,-0.055,0.698,0.683
2935601,-3149.0,7285.0,-153.0,0.208,-0.055,0.699,0.682
2935618,-3231.0,6835.0,93.0,0.207,-0.059,0.697,0.684
2935634,-4155.0,6095.0,441.0,0.208,-0.059,0.698,0.682
2935651,-3339.0,7393.0,101.0,0.208,-0.059,0.7,0.681
2935677,-3473.0,7457.0,-51.0,0.209,-0.058,0.702,0.679
2935693,-3239.0,8247.0,-275.0,0.21,-0.056,0.704,0.676
2935709,-2807.0,8329.0,-373.0,0.21,-0.055,0.705,0.675
2935725,-2813.0,8397.0,-203.0,0.21,-0.055,0.705,0.676
2935741,-2705.0,8369.0,-211.0,0.209,-0.054,0.704,0.677
2935757,-2543.0,8405.0,-183.0,0.208,-0.054,0.702,0.679
2935784,-2655.0,8675.0,-269.0,0.207,-0.055,0.7,0.681
2935800,-2555.0,8679.0,-389.0,0.206,-0.056,0.697,0.685
2935816,-2597.0,8637.0,-493.0,0.205,-0.057,0.692,0.689
2935832,-2547.0,8277.0,-533.0,0.205,-0.058,0.687,0.694
2935848,-2623.0,7921.0,-541.0,0.204,-0.06,0.682,0.699
2935864,-2711.0,7779.0,-613.0,0.204,-0.063,0.678,0.704
2935890,-2677.0,7671.0,-549.0,0.205,-0.064,0.673,0.708
2935906,-2617.0,7525.0,-529.0,0.205,-0.066,0.669,0.712
2935922,-2587.0,7389.0,-439.0,0.206,-0.067,0.665,0.714
2935938,-2521.0,7367.0,-413.0,0.206,-0.068,0.663,0.716
2935954,-2353.0,7237.0,-255.0,0.207,-0.069,0.662,0.717
2935970,-2337.0,7475.0,-73.0,0.206,-0.068,0.662,0.718
2935996,-2217.0,7751.0,3.0,0.205,-0.068,0.663,0.717
2936012,-2101.0,8091.0,-47.0,0.204,-0.067,0.664,0.716
2936028,-1903.0,8011.0,9.0,0.203,-0.067,0.665,0.715
2936044,-2113.0,8099.0,197.0,0.201,-0.067,0.667,0.714
2936060,-2115.0,8073.0,191.0,0.2,-0.069,0.668,0.713
2936076,-2223.0,8037.0,231.0,0.199,-0.07,0.669,0.713
2936102,-2455.0,7983.0,299.0,0.198,-0.072,0.67,0.712
2936118,-2573.0,7921.0,255.0,0.197,-0.075,0.671,0.711
2936134,-2643.0,7715.0,195.0,0.196,-0.079,0.672,0.71
2936150,-2969.0,7703.0,113.0,0.195,-0.083,0.672,0.71
2936166,-3219.0,7631.0,7.0,0.194,-0.087,0.672,0.709
2936192,-3417.0,7633.0,23.0,0.193,-0.092,0.672,0.709
2936208,-3669.0,7469.0,-67.0,0.192,-0.096,0.672,0.708
2936224,-3703.0,8447.0,169.0,0.191,-0.101,0.672,0.708
2936240,-4405.0,5541.0,351.0,0.188,-0.106,0.668,0.712
2936256,-4287.0,6047.0,91.0,0.185,-0.111,0.667,0.713
2936272,-4707.0,6881.0,69.0,0.182,-0.118,0.664,0.715
2936298,-4825.0,5875.0,-71.0,0.18,-0.121,0.664,0.715
2936314,-4211.0,7685.0,-451.0,0.177,-0.124,0.665,0.715
2936330,-4745.0,6279.0,-295.0,0.175,-0.127,0.665,0.715
2936346,-4387.0,6967.0,-493.0,0.172,-0.128,0.666,0.714
2936362,-4777.0,7523.0,-391.0,0.17,-0.131,0.665,0.715
2936379,-4601.0,6773.0,-105.0,0.169,-0.132,0.665,0.716
2936395,-4673.0,6845.0,-39.0,0.167,-0.134,0.663,0.717
2936412,-4783.0,7029.0,19.0,0.166,-0.135,0.663,0.718
2936439,-4607.0,6997.0,-73.0,0.164,-0.136,0.661,0.719
2936455,-4491.0,6791.0,-179.0,0.163,-0.136,0.661,0.72
2936471,-4451.0,6675.0,-301.0,0.161,-0.136,0.66,0.721
2936487,-4151.0,7037.0,-417.0,0.16,-0.135,0.66,0.722
2936503,-4069.0,6971.0,-493.0,0.159,-0.135,0.659,0.723
2936520,-3833.0,6941.0,-517.0,0.157,-0.134,0.659,0.723
2936537,-3713.0,6985.0,-431.0,0.156,-0.133,0.659,0.723
2936554,-3577.0,7071.0,-425.0,0.154,-0.131,0.66,0.723
2936580,-3447.0,7257.0,-389.0,0.153,-0.129,0.661,0.723
2936596,-3391.0,7459.0,-383.0,0.152,-0.127,0.663,0.722
2936612,-3271.0,7549.0,-367.0,0.15,-0.125,0.664,0.722
2936629,-3107.0,7715.0,-311.0,0.149,-0.123,0.665,0.721
2936646,-2971.0,7727.0,-395.0,0.147,-0.121,0.666,0.721
2936662,-2939.0,7717.0,-323.0,0.146,-0.119,0.666,0.721
2936679,-2923.0,7665.0,-295.0,0.144,-0.118,0.667,0.721
2936705,-2827.0,7655.0,-327.0,0.143,-0.118,0.667,0.721
2936721,-2819.0,7653.0,-393.0,0.141,-0.118,0.668,0.721
2936738,-2889.0,7701.0,-545.0,0.138,-0.118,0.668,0.721
2936754,-2945.0,7721.0,-585.0,0.136,-0.119,0.669,0.721
2936771,-2957.0,7625.0,-719.0,0.133,-0.119,0.669,0.722
2936787,-3069.0,7475.0,-781.0,0.129,-0.12,0.669,0.722
2936803,-3169.0,7285.0,-771.0,0.127,-0.121,0.67,0.721
2936829,-3303.0,7229.0,-807.0,0.124,-0.122,0.671,0.72
2936845,-3441.0,7117.0,-863.0,0.123,-0.122,0.673,0.719
2936862,-3501.0,7113.0,-865.0,0.123,-0.122,0.675,0.717
2936878,-3603.0,7125.0,-851.0,0.123,-0.122,0.678,0.714
2936895,-3591.0,7355.0,-777.0,0.124,-0.121,0.682,0.711
2936911,-3467.0,7521.0,-711.0,0.126,-0.119,0.685,0.707
2936928,-3261.0,7845.0,-741.0,0.128,-0.118,0.689,0.703
2936945,-3013.0,8129.0,-671.0,0.129,-0.116,0.693,0.7
2936962,-2841.0,8357.0,-605.0,0.131,-0.115,0.695,0.697
2936979,-2731.0,8427.0,-539.0,0.132,-0.114,0.698,0.695
2937005,-2529.0,8395.0,-519.0,0.133,-0.114,0.699,0.693
2937021,-2311.0,8299.0,-477.0,0.134,-0.114,0.701,0.691
2937038,-2293.0,8179.0,-461.0,0.134,-0.114,0.702,0.69
2937054,-2283.0,8057.0,-465.0,0.134,-0.114,0.704,0.688
2937071,-2377.0,7833.0,-497.0,0.134,-0.115,0.705,0.686
2937087,-2487.0,7629.0,-489.0,0.134,-0.116,0.708,0.684
2937104,-2643.0,7347.0,-397.0,0.135,-0.117,0.71,0.681
2937120,-2787.0,7207.0,-341.0,0.137,-0.117,0.714,0.677
2937139,-2925.0,7069.0,-315.0,0.139,-0.117,0.718,0.672
2937165,-3111.0,7401.0,-133.0,0.142,-0.118,0.722,0.667
2937181,-3141.0,7683.0,-39.0,0.145,-0.117,0.727,0.661
2937197,-115.0,10867.0,3049.0,0.144,-0.124,0.728,0.659
2937213,-3939.0,7445.0,979.0,0.143,-0.124,0.731,0.656
2937229,-3013.0,7921.0,769.0,0.142,-0.126,0.733,0.654
2937245,-3103.0,8507.0,327.0,0.14,-0.128,0.734,0.652
2937262,-2379.0,8485.0,247.0,0.138,-0.13,0.735,0.651
2937288,-2651.0,8325.0,373.0,0.134,-0.131,0.735,0.652
2937304,-2783.0,8121.0,531.0,0.131,-0.132,0.734,0.653
2937321,-2991.0,7919.0,769.0,0.127,-0.134,0.733,0.655
2937338,-3113.0,7671.0,941.0,0.123,-0.134,0.731,0.658
2937354,-3103.0,7333.0,1053.0,0.12,-0.135,0.729,0.66
2937371,-3131.0,7051.0,1089.0,0.117,-0.135,0.727,0.663
2937387,-3139.0,6963.0,999.0,0.114,-0.136,0.725,0.666
2937404,-3027.0,6957.0,853.0,0.112,-0.136,0.723,0.668
2937421,-2905.0,6671.0,765.0,0.109,-0.137,0.722,0.669
2937448,-2907.0,7489.0,515.0,0.106,-0.138,0.721,0.671
2937464,-2993.0,7453.0,397.0,0.102,-0.139,0.721,0.672
2937480,-2787.0,7553.0,133.0,0.097,-0.141,0.72,0.672
2937496,-2859.0,7965.0,-49.0,0.091,-0.143,0.719,0.674
2937512,-2931.0,8073.0,-159.0,0.085,-0.146,0.718,0.676
2937529,-3075.0,7815.0,-115.0,0.078,-0.149,0.715,0.679
2937545,-3089.0,7649.0,-109.0,0.071,-0.152,0.712,0.682
2937572,-3113.0,7777.0,-125.0,0.064,-0.155,0.709,0.685
2937589,-2927.0,7809.0,-143.0,0.057,-0.158,0.706,0.688
2937606,-2789.0,7859.0,-167.0,0.051,-0.161,0.703,0.691
2937623,-2751.0,7917.0,-221.0,0.045,-0.164,0.699,0.695
2937640,-2709.0,7949.0,-311.0,0.038,-0.167,0.695,0.698
2937657,-2631.0,7889.0,-305.0,0.032,-0.171,0.691,0.702
2937674,-2519.0,7831.0,-225.0,0.027,-0.174,0.686,0.706
2937691,-2287.0,7761.0,-255.0,0.021,-0.178,0.682,0.71
2937708,-2025.0,7921.0,-295.0,0.015,-0.181,0.677,0.713
2937724,-1891.0,8189.0,-279.0,0.009,-0.185,0.673,0.716
2937741,-1755.0,8117.0,-239.0,0.003,-0.188,0.669,0.719
2937758,-1625.0,8023.0,-113.0,0.003,0.192,-0.665,-0.722
2937784,-1463.0,7997.0,-123.0,0.008,0.195,-0.662,-0.724
2937801,-1261.0,8055.0,-25.0,0.013,0.198,-0.659,-0.726
2937818,-1293.0,8205.0,-3.0,0.018,0.202,-0.656,-0.727
2937835,-1307.0,8279.0,-33.0,0.022,0.206,-0.654,-0.728
2937852,-1361.0,8237.0,-45.0,0.026,0.209,-0.651,-0.729
2937869,-1475.0,7651.0,161.0,0.029,0.214,-0.65,-0.729
2937885,-1891.0,8515.0,-27.0,0.032,0.218,-0.648,-0.729
2937902,-2029.0,8073.0,-97.0,0.034,0.223,-0.646,-0.729
2937919,-2133.0,8207.0,-133.0,0.037,0.229,-0.644,-0.729
2937936,-2367.0,8073.0,-207.0,0.039,0.234,-0.642,-0.729
2937952,-2473.0,7967.0,-217.0,0.04,0.239,-0.64,-0.729
2937979,-2613.0,7853.0,-333.0,0.042,0.244,-0.637,-0.73
2937996,-2815.0,7887.0,-365.0,0.043,0.249,-0.634,-0.73
2938013,-2923.0,7819.0,-327.0,0.044,0.254,-0.632,-0.731
2938030,-3205.0,7683.0,-17.0,0.044,0.258,-0.628,-0.732
2938046,-3437.0,7383.0,339.0,0.043,0.262,-0.625,-0.734
2938062,-3731.0,6969.0,883.0,0.041,0.264,-0.623,-0.735
2938078,-3801.0,6869.0,1213.0,0.038,0.266,-0.621,-0.737
2938094,-3913.0,6877.0,1447.0,0.035,0.268,-0.619,-0.738
2938120,-4125.0,6889.0,1501.0,0.031,0.27,-0.617,-0.739
2938137,-4395.0,6565.0,1445.0,0.028,0.273,-0.615,-0.739
2938154,-4737.0,6621.0,1325.0,0.024,0.276,-0.613,-0.74
2938171,-4925.0,6645.0,1095.0,0.021,0.279,-0.611,-0.741
2938188,-5099.0,6369.0,841.0,0.018,0.283,-0.609,-0.741
2938205,-5233.0,6105.0,603.0,0.014,0.286,-0.606,-0.742
2938222,-5341.0,5809.0,399.0,0.011,0.289,-0.604,-0.743
2938239,-5451.0,5773.0,227.0,0.006,0.291,-0.602,-0.743
2938256,-5467.0,5659.0,89.0,0.001,0.292,-0.602,-0.743
2938273,-5503.0,5805.0,-177.0,0.005,-0.293,0.604,0.741
2938290,-5305.0,6005.0,-407.0,0.012,-0.293,0.606,0.739
2938307,-5163.0,6363.0,-589.0,0.021,-0.292,0.61,0.737
2938324,-5049.0,6547.0,-771.0,0.029,-0.29,0.614,0.734
2938351,-4881.0,6789.0,-917.0,0.039,-0.287,0.618,0.731
2938368,-4757.0,7067.0,-1071.0,0.048,-0.283,0.622,0.729
2938384,-4549.0,7451.0,-1143.0,0.057,-0.277,0.627,0.726
2938401,-4407.0,7783.0,-1173.0,0.065,-0.27,0.631,0.724
2938418,-4193.0,7857.0,-1171.0,0.073,-0.262,0.636,0.723
2938434,-3975.0,7619.0,-1045.0,0.082,-0.252,0.64,0.721
2938450,-3797.0,7479.0,-851.0,0.091,-0.242,0.645,0.719
2938467,-3649.0,7357.0,-595.0,0.1,-0.23,0.649,0.718
2938483,-3361.0,7311.0,-381.0,0.111,-0.218,0.654,0.716
2938509,-3261.0,7573.0,-291.0,0.121,-0.206,0.659,0.713
2938525,-2977.0,7759.0,-259.0,0.13,-0.195,0.663,0.711
2938541,-2877.0,7973.0,-297.0,0.139,-0.184,0.668,0.708
2938557,-2721.0,8145.0,-405.0,0.146,-0.175,0.671,0.705
2938573,-2549.0,8113.0,-493.0,0.152,-0.168,0.674,0.703
2938599,-2473.0,8151.0,-599.0,0.156,-0.163,0.676,0.701
2938615,-2467.0,8093.0,-709.0,0.158,-0.16,0.678,0.7
2938631,-2541.0,7915.0,-749.0,0.159,-0.158,0.678,0.7
2938647,-2621.0,7741.0,-683.0,0.159,-0.157,0.679,0.699
2938663,-2655.0,7397.0,-627.0,0.159,-0.157,0.68,0.699
2938679,-2831.0,7275.0,-587.0,0.159,-0.157,0.681,0.697
2938705,-2963.0,7209.0,-585.0,0.159,-0.157,0.683,0.696
2938721,-3213.0,7465.0,-693.0,0.16,-0.157,0.685,0.693
2938738,-3309.0,7441.0,-713.0,0.161,-0.158,0.688,0.69
2938755,-3539.0,7727.0,-849.0,0.162,-0.159,0.69,0.688
2938772,-3717.0,7615.0,-945.0,0.163,-0.16,0.691,0.685
2938789,-4041.0,7379.0,-907.0,0.164,-0.163,0.693,0.684
2938806,-4227.0,7151.0,-919.0,0.164,-0.165,0.693,0.682
2938823,-4547.0,6857.0,-913.0,0.165,-0.168,0.693,0.682
2938840,-4763.0,6539.0,-881.0,0.165,-0.17,0.692,0.682
2938857,-4783.0,6329.0,-837.0,0.166,-0.172,0.691,0.682
2938874,-4919.0,6241.0,-831.0,0.166,-0.174,0.69,0.683
2938900,-4963.0,6193.0,-739.0,0.166,-0.176,0.689,0.683
2938916,-4889.0,6059.0,-723.0,0.167,-0.176,0.689,0.683
2938932,-4199.0,5553.0,-239.0,0.167,-0.176,0.69,0.682
2938949,-5149.0,4679.0,-83.0,0.167,-0.179,0.687,0.684
2938966,-4903.0,6481.0,-83.0,0.166,-0.18,0.686,0.685
2938982,-4839.0,6159.0,99.0,0.166,-0.181,0.686,0.685
2938999,-5167.0,5921.0,115.0,0.166,-0.18,0.687,0.684
2939016,-5023.0,6253.0,-21.0,0.168,-0.178,0.69,0.682
2939033,-4977.0,6239.0,-97.0,0.17,-0.175,0.693,0.679
2939050,-4937.0,6581.0,-121.0,0.173,-0.171,0.697,0.675
2939076,-4739.0,6611.0,-147.0,0.176,-0.166,0.701,0.671
2939092,-4467.0,6843.0,-137.0,0.178,-0.16,0.705,0.667
2939108,-4259.0,7097.0,-283.0,0.181,-0.154,0.71,0.663
2939124,-3943.0,7453.0,-513.0,0.183,-0.147,0.714,0.659
2939141,-3677.0,7999.0,-885.0,0.184,-0.141,0.718,0.656
2939157,-3453.0,8259.0,-1175.0,0.184,-0.136,0.721,0.654
2939174,-3281.0,8541.0,-1347.0,0.183,-0.133,0.722,0.654
2939200,-3187.0,8463.0,-1433.0,0.181,-0.13,0.721,0.656
2939216,-3139.0,8111.0,-1329.0,0.177,-0.13,0.718,0.66
2939233,-3185.0,7645.0,-1173.0,0.173,-0.131,0.715,0.665
2939250,-3225.0,7587.0,-923.0,0.169,-0.133,0.71,0.671
2939266,-3261.0,5439.0,-993.0,0.165,-0.135,0.707,0.675
2939282,-3681.0,6983.0,-905.0,0.161,-0.137,0.705,0.677
2939298,-3041.0,7263.0,-1113.0,0.157,-0.139,0.704,0.679
2939324,-3341.0,7251.0,-899.0,0.152,-0.142,0.703,0.681
2939341,-3195.0,7101.0,-705.0,0.147,-0.145,0.702,0.682
2939357,-3161.0,6865.0,-967.0,0.142,-0.148,0.703,0.681
2939374,-3297.0,7709.0,-1243.0,0.136,-0.152,0.704,0.681
2939390,-3329.0,7699.0,-1327.0,0.13,-0.157,0.704,0.681
2939407,-3497.0,7499.0,-1313.0,0.124,-0.162,0.703,0.681
2939424,-3679.0,7183.0,-1247.0,0.117,-0.168,0.703,0.681
2939440,-3951.0,7031.0,-1099.0,0.11,-0.174,0.702,0.682
2939457,-4029.0,6925.0,-1089.0,0.104,-0.181,0.701,0.682
2939484,-4099.0,6747.0,-1089.0,0.098,-0.187,0.7,0.683
2939501,-4223.0,6769.0,-1027.0,0.093,-0.193,0.699,0.683
2939518,-4307.0,6871.0,-941.0,0.088,-0.199,0.697,0.683
2939534,-4315.0,6933.0,-855.0,0.084,-0.204,0.697,0.683
2939551,-4297.0,6917.0,-789.0,0.081,-0.208,0.696,0.683
2939567,-4299.0,7023.0,-753.0,0.079,-0.211,0.695,0.683
2939584,-4303.0,7175.0,-641.0,0.077,-0.213,0.695,0.682
2939601,-4263.0,7343.0,-501.0,0.076,-0.214,0.695,0.682
2939617,-4073.0,7495.0,-447.0,0.076,-0.213,0.696,0.681
2939634,-3821.0,7783.0,-413.0,0.075,-0.211,0.697,0.681
2939660,-3387.0,7963.0,-437.0,0.075,-0.208,0.699,0.68
2939676,-2947.0,8057.0,-425.0,0.075,-0.204,0.701,0.679
2939692,-2729.0,8255.0,-325.0,0.075,-0.2,0.704,0.678
2939708,-2395.0,8255.0,-135.0,0.075,-0.197,0.706,0.677
2939724,-2167.0,8417.0,81.0,0.075,-0.193,0.707,0.676
2939740,-1869.0,8443.0,323.0,0.075,-0.19,0.709,0.675
2939766,-1713.0,8307.0,479.0,0.074,-0.187,0.71,0.675
2939782,-1671.0,8171.0,605.0,0.074,-0.185,0.711,0.674
2939798,-1681.0,7991.0,685.0,0.074,-0.183,0.712,0.673
2939814,-1785.0,7899.0,695.0,0.073,-0.182,0.713,0.673
2939830,-1911.0,7805.0,671.0,0.073,-0.182,0.714,0.672
2939846,-2087.0,7967.0,691.0,0.073,-0.182,0.715,0.671
2939872,-2259.0,7885.0,753.0,0.074,-0.183,0.715,0.671
2939888,-2391.0,7927.0,725.0,0.074,-0.183,0.715,0.67
2939904,-2465.0,7889.0,781.0,0.074,-0.184,0.715,0.67
2939921,-2741.0,8159.0,723.0,0.075,-0.184,0.715,0.67
2939938,-2765.0,7997.0,817.0,0.075,-0.185,0.715,0.67
2939955,-3021.0,7999.0,903.0,0.074,-0.186,0.715,0.67
2939972,-3109.0,7727.0,801.0,0.074,-0.187,0.714,0.671
2939989,-3173.0,7479.0,743.0,0.073,-0.189,0.713,0.672
2940006,-3431.0,7349.0,683.0,0.072,-0.191,0.712,0.672
2940023,-3513.0,7277.0,555.0,0.07,-0.194,0.71,0.674
2940050,-3643.0,7159.0,363.0,0.068,-0.197,0.708,0.675
2940066,-3775.0,7251.0,235.0,0.066,-0.2,0.706,0.677
2940083,-3891.0,7209.0,127.0,0.064,-0.203,0.703,0.679
2940099,-3915.0,7179.0,57.0,0.061,-0.206,0.7,0.681
2940115,-3865.0,7125.0,-77.0,0.057,-0.209,0.697,0.684
2940131,-3095.0,8589.0,993.0,0.054,-0.212,0.694,0.686
2940147,-4267.0,5909.0,-787.0,0.052,-0.213,0.692,0.688
2940174,-3389.0,8059.0,209.0,0.049,-0.213,0.691,0.689
2940190,-3619.0,7543.0,-967.0,0.047,-0.213,0.691,0.689
2940206,-3097.0,8653.0,-825.0,0.046,-0.213,0.689,0.691
2940223,-3397.0,8171.0,-609.0,0.044,-0.212,0.686,0.695
2940240,-3139.0,7903.0,-241.0,0.043,-0.212,0.683,0.698
2940256,-3167.0,7753.0,-159.0,0.042,-0.211,0.68,0.701
2940273,-2901.0,7655.0,-177.0,0.042,-0.209,0.677,0.704
2940289,-2827.0,7777.0,-279.0,0.042,-0.207,0.676,0.706
2940316,-2703.0,7823.0,-355.0,0.043,-0.205,0.674,0.708
2940333,-2695.0,7909.0,-435.0,0.044,-0.203,0.673,0.71
2940350,-2687.0,7797.0,-369.0,0.046,-0.202,0.672,0.711
2940366,-2637.0,7605.0,-273.0,0.048,-0.2,0.67,0.713
2940383,-2729.0,7379.0,-207.0,0.05,-0.198,0.669,0.715
2940400,-2757.0,7349.0,-143.0,0.052,-0.197,0.668,0.716
2940417,-2841.0,7353.0,-95.0,0.055,-0.195,0.667,0.717
2940434,-2885.0,7537.0,9.0,0.057,-0.194,0.667,0.717
2940450,-2967.0,7589.0,177.0,0.059,-0.192,0.667,0.717
2940467,-2945.0,7805.0,301.0,0.061,-0.191,0.668,0.717
2940493,-2923.0,7901.0,385.0,0.062,-0.189,0.668,0.717
2940510,-2889.0,7975.0,329.0,0.062,-0.189,0.668,0.717
2940526,-2963.0,7937.0,209.0,0.063,-0.188,0.668,0.717
2940542,-3219.0,7543.0,135.0,0.063,-0.189,0.668,0.717
2940558,-3357.0,7107.0,117.0,0.064,-0.19,0.667,0.718
2940574,-3399.0,6937.0,-25.0,0.066,-0.191,0.666,0.718
2940590,-3475.0,6963.0,-173.0,0.068,-0.193,0.666,0.718
2940617,-3663.0,7009.0,-371.0,0.07,-0.195,0.666,0.717
2940634,-3755.0,7141.0,-501.0,0.073,-0.197,0.666,0.716
2940651,-3951.0,7221.0,-597.0,0.075,-0.199,0.666,0.715
2940668,-3975.0,7115.0,-647.0,0.077,-0.201,0.666,0.714
2940685,-4023.0,7131.0,-709.0,0.079,-0.202,0.666,0.714
2940702,-4085.0,6967.0,-793.0,0.08,-0.203,0.667,0.713
2940719,-4149.0,6955.0,-837.0,0.081,-0.204,0.668,0.712
2940736,-4177.0,6951.0,-847.0,0.082,-0.204,0.669,0.71
2940753,-4139.0,6881.0,-921.0,0.082,-0.204,0.671,0.709
2940770,-4043.0,6897.0,-941.0,0.084,-0.204,0.672,0.707
2940787,-3933.0,7043.0,-991.0,0.085,-0.203,0.674,0.705
2940804,-3765.0,7249.0,-1039.0,0.086,-0.203,0.675,0.704
2940821,-3627.0,7553.0,-987.0,0.086,-0.202,0.676,0.703
2940838,-3383.0,7689.0,-735.0,0.087,-0.202,0.676,0.703
2940855,-2973.0,8217.0,-341.0,0.086,-0.204,0.675,0.704
2940882,-3567.0,7375.0,-543.0,0.086,-0.206,0.673,0.705
2940898,-2811.0,8169.0,-889.0,0.084,-0.209,0.67,0.707
2940915,-3125.0,8343.0,-901.0,0.08,-0.213,0.665,0.711
2940932,-3801.0,8023.0,-107.0,0.075,-0.217,0.657,0.718
2940949,-4115.0,7207.0,439.0,0.071,-0.221,0.647,0.726
2940966,-3807.0,6637.0,753.0,0.068,-0.224,0.639,0.733
2940982,-3775.0,6669.0,915.0,0.065,-0.224,0.636,0.736
2940999,-3247.0,7161.0,1149.0,0.064,-0.223,0.636,0.736
2941016,-2329.0,7753.0,1149.0,0.062,-0.222,0.638,0.735
2941032,-2765.0,6241.0,2391.0,0.059,-0.221,0.642,0.732
2941059,-4057.0,6557.0,1391.0,0.058,-0.22,0.649,0.726
2941075,-3207.0,8347.0,821.0,0.059,-0.217,0.657,0.72
2941091,-2789.0,6747.0,-343.0,0.058,-0.214,0.663,0.715
2941107,-2675.0,9001.0,1021.0,0.057,-0.214,0.662,0.716
2941123,-2937.0,8289.0,665.0,0.053,-0.214,0.655,0.723
2941140,-2801.0,6555.0,1123.0,0.048,-0.212,0.646,0.732
2941157,-2955.0,5661.0,1275.0,0.044,-0.21,0.639,0.739
2941174,-2489.0,6913.0,1343.0,0.04,-0.207,0.633,0.745
2941201,-1851.0,6395.0,1777.0,0.035,-0.204,0.627,0.751
2941218,-2183.0,4603.0,1703.0,0.028,-0.2,0.621,0.757
2941235,-1947.0,4099.0,1437.0,0.021,-0.196,0.619,0.76
2941251,-1447.0,5171.0,1285.0,0.015,-0.192,0.619,0.761
2941268,-1261.0,5635.0,1437.0,0.008,-0.188,0.621,0.761
2941284,-953.0,5645.0,1537.0,0.001,-0.184,0.624,0.759
2941300,-657.0,5649.0,1291.0,0.006,0.18,-0.629,-0.756
2941316,-561.0,5371.0,1113.0,0.014,0.176,-0.634,-0.753
2941342,-541.0,5055.0,915.0,0.023,0.17,-0.639,-0.75
2941358,-435.0,4769.0,779.0,0.033,0.162,-0.644,-0.747
2941375,-535.0,4151.0,705.0,0.045,0.152,-0.649,-0.744
2941392,-653.0,3391.0,333.0,0.059,0.139,-0.655,-0.74
2941408,-307.0,2809.0,-227.0,0.075,0.123,-0.662,-0.736
2941424,353.0,2837.0,-545.0,0.094,0.102,-0.671,-0.729
2941441,1341.0,3861.0,-781.0,0.114,0.077,-0.68,-0.72
2941457,2705.0,5595.0,-941.0,0.137,0.048,-0.689,-0.71
2941483,3791.0,6699.0,-943.0,0.161,0.016,-0.693,-0.702
2941499,4349.0,7153.0,-667.0,0.185,-0.018,-0.692,-0.698
2941515,5011.0,7277.0,-449.0,0.208,-0.052,-0.685,-0.697
2941532,5809.0,6935.0,-37.0,0.231,-0.087,-0.672,-0.698
2941549,6321.0,6341.0,559.0,0.254,-0.123,-0.656,-0.7
2941566,7089.0,5919.0,1181.0,0.276,-0.16,-0.639,-0.7
2941582,8247.0,5493.0,1445.0,0.297,-0.199,-0.62,-0.699
2941609,9463.0,4693.0,1663.0,0.318,-0.238,-0.6,-0.695
2941625,10705.0,3995.0,1929.0,0.339,-0.276,-0.58,-0.687
2941642,11917.0,3357.0,2237.0,0.361,-0.312,-0.562,-0.676
2941659,12787.0,3459.0,2557.0,0.382,-0.345,-0.546,-0.661
2941676,13563.0,4271.0,2819.0,0.403,-0.376,-0.533,-0.642
2941692,13843.0,5215.0,2735.0,0.424,-0.403,-0.522,-0.621
2941708,13553.0,6009.0,2515.0,0.444,-0.426,-0.511,-0.601
2941724,12647.0,6801.0,2425.0,0.461,-0.445,-0.5,-0.582
2941750,11741.0,7397.0,2321.0,0.475,-0.46,-0.491,-0.567
2941767,10939.0,7841.0,2329.0,0.484,-0.473,-0.482,-0.556
2941784,10025.0,8155.0,1973.0,0.489,-0.483,-0.473,-0.55
2941801,9733.0,7085.0,2237.0,0.49,-0.492,-0.466,-0.549
2941817,9053.0,5999.0,2237.0,0.486,-0.499,-0.459,-0.551
2941834,8893.0,4925.0,2277.0,0.48,-0.504,-0.454,-0.556
2941851,8533.0,3855.0,2475.0,0.474,-0.506,-0.45,-0.562
2941868,8081.0,3205.0,2709.0,0.468,-0.506,-0.449,-0.568
2941886,7867.0,2927.0,2653.0,0.462,-0.504,-0.45,-0.574
2941903,7803.0,2873.0,2651.0,0.458,-0.501,-0.453,-0.579
2941920,7277.0,2967.0,2551.0,0.453,-0.497,-0.455,-0.583
2941936,7395.0,2695.0,2381.0,0.449,-0.494,-0.458,-0.587
2941962,7393.0,2641.0,2317.0,0.446,-0.49,-0.46,-0.591
2941978,7667.0,2413.0,2183.0,0.443,-0.487,-0.462,-0.594
2941995,7727.0,1863.0,2061.0,0.441,-0.484,-0.463,-0.597
2942012,7385.0,1661.0,1867.0,0.441,-0.48,-0.464,-0.6
2942028,7247.0,1991.0,1779.0,0.442,-0.475,-0.464,-0.602
2942044,7553.0,2863.0,1805.0,0.442,-0.473,-0.464,-0.605
2942061,8103.0,3807.0,1173.0,0.442,-0.473,-0.46,-0.608
2942077,8447.0,4727.0,261.0,0.441,-0.475,-0.453,-0.613
2942103,8357.0,6607.0,-237.0,0.434,-0.48,-0.439,-0.623
2942119,8143.0,8743.0,-189.0,0.417,-0.493,-0.418,-0.639
2942135,9215.0,9501.0,-831.0,0.387,-0.512,-0.386,-0.663
2942151,10195.0,5923.0,-1891.0,0.345,-0.534,-0.343,-0.691
2942167,10793.0,1691.0,-2531.0,0.298,-0.552,-0.296,-0.72
2942185,10379.0,-2103.0,-1697.0,0.252,-0.563,-0.253,-0.745
2942201,9289.0,-4541.0,-385.0,0.214,-0.568,-0.22,-0.764
2942219,8039.0,-6021.0,873.0,0.187,-0.567,-0.2,-0.777
2942245,7293.0,-6129.0,1555.0,0.171,-0.564,-0.194,-0.785
2942261,6951.0,-4239.0,1459.0,0.165,-0.559,-0.197,-0.789
2942277,6813.0,-1301.0,1241.0,0.165,-0.553,-0.205,-0.79
2942294,6931.0,1011.0,1023.0,0.168,-0.549,-0.211,-0.791
2942310,7237.0,1645.0,1051.0,0.171,-0.545,-0.214,-0.792
2942326,7547.0,1121.0,1257.0,0.174,-0.543,-0.215,-0.793
2942342,7747.0,101.0,1369.0,0.176,-0.541,-0.218,-0.793
2942368,7947.0,-831.0,1835.0,0.18,-0.537,-0.227,-0.792
2942386,8185.0,-1291.0,2207.0,0.187,-0.532,-0.243,-0.789
2942403,8575.0,-1397.0,1861.0,0.199,-0.524,-0.268,-0.783
2942420,8705.0,-901.0,1191.0,0.215,-0.513,-0.3,-0.775
2942437,8395.0,197.0,779.0,0.235,-0.497,-0.34,-0.763
2942453,7859.0,1661.0,761.0,0.254,-0.478,-0.382,-0.749
2942469,7699.0,3239.0,961.0,0.271,-0.459,-0.425,-0.732
2942485,8157.0,4521.0,967.0,0.284,-0.439,-0.465,-0.714
2942502,8273.0,5095.0,1155.0,0.294,-0.42,-0.498,-0.699
2942528,8045.0,5343.0,1291.0,0.3,-0.402,-0.526,-0.687
2942545,7599.0,5323.0,1543.0,0.303,-0.386,-0.546,-0.679
2942561,7087.0,5371.0,1925.0,0.304,-0.373,-0.561,-0.673
2942578,6913.0,5137.0,2107.0,0.304,-0.362,-0.572,-0.67
2942594,6679.0,4759.0,2093.0,0.304,-0.353,-0.579,-0.669
2942611,6431.0,4571.0,2225.0,0.304,-0.345,-0.586,-0.668
2942627,6229.0,4657.0,2457.0,0.303,-0.337,-0.592,-0.666
2942643,6257.0,4869.0,2563.0,0.303,-0.328,-0.598,-0.666
2942669,6445.0,5061.0,2511.0,0.303,-0.319,-0.603,-0.665
2942685,6699.0,5191.0,2267.0,0.305,-0.309,-0.608,-0.665
2942701,6549.0,5041.0,1955.0,0.308,-0.297,-0.613,-0.664
2942717,6323.0,5183.0,1691.0,0.311,-0.283,-0.62,-0.662
2942733,6117.0,5389.0,1359.0,0.315,-0.268,-0.628,-0.659
2942750,5873.0,5711.0,1129.0,0.319,-0.253,-0.636,-0.656
2942767,5941.0,6173.0,869.0,0.322,-0.238,-0.644,-0.652
2942793,6135.0,6329.0,479.0,0.325,-0.223,-0.651,-0.649
2942812,6161.0,6525.0,83.0,0.328,-0.208,-0.657,-0.646
2942829,6095.0,6545.0,-247.0,0.33,-0.192,-0.664,-0.643
2942846,5863.0,6627.0,-355.0,0.331,-0.175,-0.67,-0.641
2942863,5797.0,6955.0,-667.0,0.33,-0.158,-0.676,-0.639
2942880,6005.0,7827.0,-845.0,0.327,-0.139,-0.682,-0.639
2942897,5979.0,8873.0,-1071.0,0.322,-0.118,-0.686,-0.641
2942914,5165.0,8815.0,-1193.0,0.316,-0.097,-0.688,-0.646
2942931,3993.0,8179.0,-1093.0,0.31,-0.077,-0.69,-0.649
2942947,3341.0,8101.0,-1141.0,0.304,-0.06,-0.694,-0.65
2942964,2923.0,8285.0,-1253.0,0.296,-0.044,-0.697,-0.652
2942981,2611.0,8963.0,-1283.0,0.287,-0.03,-0.7,-0.653
2942997,2519.0,9605.0,-1085.0,0.278,-0.016,-0.701,-0.657
2943024,2309.0,9547.0,-731.0,0.267,-0.003,-0.7,-0.662
2943040,2099.0,9253.0,-319.0,0.256,0.01,-0.698,-0.669
2943057,1731.0,8647.0,-113.0,0.245,0.022,-0.695,-0.675
2943073,1745.0,8681.0,-365.0,0.234,0.036,-0.693,-0.681
2943089,1337.0,8765.0,-227.0,0.224,0.049,-0.689,-0.688
2943105,1251.0,9315.0,19.0,0.213,0.063,-0.684,-0.695
2943121,677.0,8865.0,67.0,0.202,0.077,-0.678,-0.702
2943147,-255.0,8411.0,-511.0,0.19,0.09,-0.674,-0.709
2943164,-795.0,8883.0,-1247.0,0.177,0.102,-0.67,-0.713
2943181,-869.0,10431.0,-1885.0,0.163,0.111,-0.665,-0.72
2943197,-1711.0,10437.0,-2021.0,0.149,0.118,-0.657,-0.729
2943213,-1725.0,9959.0,-2041.0,0.133,0.123,-0.647,-0.741
2943229,-901.0,8977.0,-1559.0,0.116,0.126,-0.635,-0.753
2943246,-745.0,8681.0,-1051.0,0.099,0.129,-0.624,-0.764
2943272,-985.0,8069.0,-375.0,0.082,0.131,-0.612,-0.776
2943288,-667.0,7481.0,343.0,0.066,0.132,-0.6,-0.786
2943304,-763.0,6289.0,717.0,0.052,0.134,-0.589,-0.795
2943321,-1553.0,5089.0,693.0,0.038,0.135,-0.582,-0.801
2943338,-1959.0,4633.0,977.0,0.024,0.135,-0.58,-0.803
2943355,-1943.0,4337.0,845.0,0.012,0.133,-0.583,-0.801
2943371,-1987.0,3343.0,1109.0,0.001,-0.128,0.592,0.796
2943388,-1797.0,3195.0,1467.0,0.012,-0.12,0.606,0.786
2943405,-907.0,3417.0,1279.0,0.023,-0.108,0.624,0.774
2943431,317.0,3827.0,1007.0,0.032,-0.094,0.644,0.758
2943447,1757.0,4267.0,519.0,0.04,-0.079,0.666,0.74
2943466,3467.0,6233.0,-33.0,0.048,-0.066,0.689,0.72
2943483,4585.0,9583.0,-1027.0,0.055,-0.059,0.707,0.702
2943500,4499.0,12079.0,-1707.0,0.061,-0.057,0.719,0.689
2943517,3157.0,12441.0,-1703.0,0.066,-0.058,0.725,0.683
2943534,2283.0,11077.0,-887.0,0.069,-0.06,0.725,0.683
2943551,1637.0,7979.0,723.0,0.07,-0.061,0.723,0.685
2943568,1089.0,7869.0,659.0,0.07,-0.064,0.718,0.689
2943585,-151.0,5367.0,593.0,0.071,-0.065,0.716,0.692
2943602,293.0,6029.0,537.0,0.071,-0.066,0.714,0.693
2943618,207.0,6985.0,257.0,0.072,-0.069,0.712,0.695
2943634,-325.0,7053.0,91.0,0.072,-0.073,0.708,0.698
2943661,-1491.0,6411.0,67.0,0.071,-0.078,0.704,0.702
2943677,-1789.0,5439.0,99.0,0.07,-0.083,0.701,0.705
2943693,-1517.0,5547.0,-145.0,0.068,-0.087,0.701,0.704
2943709,-1151.0,7185.0,-969.0,0.066,-0.092,0.703,0.702
2943725,-1085.0,8135.0,-959.0,0.065,-0.097,0.706,0.699
2943741,-1725.0,8139.0,-787.0,0.064,-0.103,0.708,0.695
2943767,-2199.0,8825.0,-615.0,0.064,-0.109,0.71,0.692
2943784,-1939.0,9829.0,-747.0,0.064,-0.116,0.711,0.69
2943801,-1941.0,10307.0,-705.0,0.065,-0.123,0.711,0.689
2943818,-1857.0,10303.0,-603.0,0.064,-0.131,0.708,0.69
2943834,-2457.0,9031.0,-91.0,0.062,-0.14,0.704,0.694
2943851,-2935.0,7149.0,233.0,0.059,-0.149,0.698,0.698
2943868,-3307.0,5717.0,225.0,0.058,-0.158,0.695,0.699
2943884,-3449.0,5791.0,13.0,0.058,-0.166,0.695,0.698
2943900,-3441.0,6431.0,-513.0,0.058,-0.171,0.696,0.694
2943926,-3223.0,6503.0,-855.0,0.058,-0.174,0.698,0.692
2943942,-3317.0,6501.0,-859.0,0.058,-0.176,0.7,0.69
2943958,-3217.0,6725.0,-533.0,0.058,-0.175,0.701,0.689
2943974,-1993.0,14361.0,707.0,0.053,-0.18,0.694,0.696
2943990,-3009.0,4623.0,1339.0,0.051,-0.176,0.691,0.699
2944006,-2301.0,8019.0,1135.0,0.049,-0.173,0.691,0.7
2944032,-1649.0,8801.0,1563.0,0.049,-0.172,0.691,0.7
2944048,-2551.0,10425.0,1631.0,0.051,-0.175,0.691,0.699
2944064,-3261.0,10793.0,1277.0,0.053,-0.178,0.691,0.698
2944080,-2139.0,12601.0,1699.0,0.055,-0.181,0.69,0.699
2944097,-3783.0,9857.0,-11.0,0.056,-0.187,0.68,0.707
2944113,-3843.0,5601.0,247.0,0.058,-0.19,0.672,0.713
2944139,-3973.0,6483.0,503.0,0.062,-0.192,0.668,0.716
2944155,-3709.0,7041.0,543.0,0.066,-0.192,0.665,0.718
2944171,-3387.0,6783.0,629.0,0.071,-0.191,0.663,0.72
2944187,-3033.0,6285.0,911.0,0.075,-0.189,0.662,0.721
2944204,-2889.0,5747.0,1289.0,0.079,-0.187,0.663,0.721
2944221,-2829.0,6279.0,1585.0,0.083,-0.184,0.666,0.718
2944237,-2837.0,7177.0,1477.0,0.086,-0.182,0.669,0.715
2944254,-2443.0,7495.0,1385.0,0.089,-0.18,0.672,0.713
2944281,-2631.0,6981.0,1589.0,0.09,-0.18,0.674,0.711
2944297,-2949.0,7645.0,1581.0,0.091,-0.181,0.677,0.708
2944313,-3315.0,8019.0,1513.0,0.092,-0.184,0.679,0.705
2944329,-3647.0,8339.0,995.0,0.093,-0.188,0.68,0.703
2944345,-3537.0,7897.0,507.0,0.093,-0.193,0.68,0.702
2944362,-3749.0,7943.0,-107.0,0.091,-0.199,0.678,0.702
2944388,-4305.0,7379.0,-627.0,0.089,-0.205,0.674,0.704
2944404,-4443.0,8521.0,-929.0,0.086,-0.213,0.67,0.706
2944420,-4661.0,7857.0,-1649.0,0.082,-0.22,0.662,0.712
2944436,-4683.0,6507.0,-1575.0,0.079,-0.228,0.655,0.716
2944452,-4929.0,6199.0,-1555.0,0.077,-0.234,0.649,0.719
2944468,-4999.0,5357.0,-1347.0,0.076,-0.239,0.645,0.722
2944484,-4861.0,4771.0,-1045.0,0.076,-0.241,0.643,0.722
2944511,-5077.0,4689.0,-823.0,0.076,-0.242,0.644,0.722
2944528,-5081.0,5531.0,-995.0,0.077,-0.242,0.647,0.719
2944544,-4831.0,6493.0,-953.0,0.078,-0.242,0.65,0.716
2944561,-4813.0,7053.0,-891.0,0.079,-0.242,0.653,0.714
2944578,-4947.0,7375.0,-749.0,0.079,-0.242,0.654,0.713
2944595,-5035.0,7753.0,-483.0,0.078,-0.243,0.653,0.713
2944612,-4955.0,7547.0,-221.0,0.077,-0.244,0.651,0.714
2944629,-4855.0,7165.0,-247.0,0.075,-0.246,0.649,0.716
2944646,-4779.0,6369.0,-13.0,0.074,-0.247,0.646,0.719
