timeMs,ax,ay,az,q0,q1,q2,q3
2341627,-2833.0,7725.0,453.0,0.14,-0.076,0.707,0.689
2341654,-3023.0,7909.0,367.0,0.142,-0.075,0.709,0.687
2341670,-3109.0,8067.0,337.0,0.145,-0.074,0.71,0.685
2341686,-3141.0,8103.0,209.0,0.147,-0.073,0.711,0.684
2341702,-3139.0,8059.0,153.0,0.15,-0.072,0.711,0.683
2341719,-3093.0,7969.0,187.0,0.152,-0.072,0.71,0.684
2341735,-3117.0,8013.0,145.0,0.154,-0.071,0.709,0.684
2341752,-3061.0,7947.0,91.0,0.157,-0.07,0.707,0.686
2341778,-2995.0,7829.0,81.0,0.159,-0.07,0.706,0.687
2341795,-3033.0,7651.0,73.0,0.161,-0.069,0.704,0.689
2341812,-3011.0,7487.0,87.0,0.163,-0.069,0.702,0.69
2341830,-3075.0,7421.0,-43.0,0.164,-0.069,0.7,0.691
2341846,-3063.0,7281.0,-131.0,0.165,-0.069,0.699,0.692
2341863,-3035.0,7163.0,-211.0,0.166,-0.069,0.699,0.692
2341879,-3067.0,7235.0,-293.0,0.167,-0.068,0.699,0.692
2341895,-3065.0,7431.0,-415.0,0.168,-0.066,0.7,0.691
2341912,-3107.0,7509.0,-365.0,0.17,-0.064,0.701,0.689
2341929,-3107.0,7549.0,-341.0,0.172,-0.062,0.703,0.687
2341946,-3133.0,7547.0,-321.0,0.174,-0.058,0.706,0.684
2341972,-3143.0,7619.0,-329.0,0.176,-0.055,0.709,0.681
2341989,-3043.0,7575.0,-191.0,0.179,-0.051,0.712,0.677
2342006,-3063.0,7797.0,-73.0,0.183,-0.046,0.715,0.673
2342023,-3649.0,7197.0,517.0,0.185,-0.048,0.71,0.677
2342039,-2921.0,7755.0,1155.0,0.188,-0.048,0.709,0.678
2342055,-3783.0,6797.0,693.0,0.19,-0.049,0.707,0.68
2342071,-3197.0,7193.0,451.0,0.191,-0.048,0.706,0.68
2342087,-3527.0,7275.0,213.0,0.193,-0.048,0.706,0.68
2342113,-3269.0,7233.0,-21.0,0.194,-0.049,0.706,0.68
2342130,-3265.0,7067.0,-105.0,0.195,-0.049,0.706,0.679
2342146,-3223.0,6991.0,-105.0,0.196,-0.049,0.707,0.677
2342162,-3229.0,6939.0,-101.0,0.197,-0.049,0.709,0.676
2342179,-3343.0,6913.0,-197.0,0.197,-0.049,0.711,0.673
2342196,-3331.0,7251.0,-159.0,0.199,-0.049,0.713,0.67
2342213,-3403.0,7511.0,-95.0,0.2,-0.048,0.716,0.667
2342229,-3417.0,7599.0,-13.0,0.202,-0.047,0.718,0.665
2342246,-3487.0,7615.0,-53.0,0.203,-0.046,0.72,0.662
2342273,-3461.0,7645.0,-101.0,0.204,-0.045,0.722,0.659
2342290,-3497.0,7727.0,-169.0,0.205,-0.044,0.724,0.657
2342306,-3613.0,7797.0,-155.0,0.206,-0.043,0.725,0.655
2342322,-3649.0,7951.0,-193.0,0.207,-0.042,0.726,0.654
2342339,-3641.0,7859.0,-127.0,0.208,-0.041,0.726,0.654
2342356,-3627.0,7553.0,45.0,0.21,-0.038,0.727,0.653
2342373,-3707.0,7423.0,185.0,0.212,-0.036,0.727,0.653
2342389,-3691.0,7425.0,313.0,0.214,-0.032,0.727,0.652
2342406,-3543.0,8017.0,533.0,0.216,-0.029,0.726,0.652
2342432,-3803.0,6675.0,763.0,0.218,-0.026,0.725,0.652
2342448,-3687.0,6983.0,705.0,0.22,-0.023,0.726,0.652
2342464,-3589.0,6983.0,451.0,0.222,-0.019,0.726,0.65
2342480,-3387.0,7079.0,313.0,0.223,-0.016,0.727,0.649
2342496,-3405.0,7229.0,183.0,0.224,-0.014,0.728,0.648
2342512,-3241.0,7277.0,133.0,0.225,-0.012,0.728,0.648
2342529,-3187.0,7365.0,77.0,0.224,-0.01,0.728,0.647
2342555,-3075.0,7531.0,133.0,0.223,-0.009,0.728,0.648
2342571,-2951.0,7477.0,185.0,0.222,-0.01,0.728,0.648
2342589,-2865.0,7787.0,147.0,0.22,-0.011,0.728,0.649
2342606,-2739.0,7941.0,113.0,0.218,-0.013,0.727,0.651
2342622,-2535.0,7945.0,137.0,0.215,-0.016,0.727,0.652
2342638,-2457.0,8163.0,85.0,0.212,-0.019,0.726,0.654
2342654,-2239.0,8173.0,101.0,0.208,-0.023,0.725,0.657
2342680,-2115.0,8191.0,-7.0,0.203,-0.028,0.723,0.659
2342696,-1977.0,8221.0,-93.0,0.198,-0.033,0.722,0.662
2342712,-1961.0,8323.0,-189.0,0.193,-0.039,0.721,0.665
2342728,-2037.0,8217.0,-273.0,0.187,-0.045,0.719,0.668
2342745,-2197.0,7899.0,-407.0,0.18,-0.052,0.718,0.671
2342762,-2379.0,7645.0,-521.0,0.175,-0.058,0.716,0.673
2342779,-2595.0,7475.0,-611.0,0.169,-0.065,0.715,0.675
2342798,-2777.0,7349.0,-777.0,0.163,-0.071,0.715,0.676
2342815,-2913.0,7299.0,-937.0,0.157,-0.078,0.715,0.677
2342832,-3083.0,7325.0,-1003.0,0.152,-0.083,0.715,0.677
2342848,-3165.0,7505.0,-1215.0,0.147,-0.089,0.717,0.676
2342875,-3303.0,7577.0,-1313.0,0.142,-0.094,0.718,0.675
2342892,-3515.0,7587.0,-1321.0,0.138,-0.098,0.72,0.673
2342909,-3641.0,7623.0,-1199.0,0.135,-0.102,0.723,0.67
2342926,-3729.0,7683.0,-1017.0,0.133,-0.104,0.725,0.668
2342942,-3777.0,7785.0,-807.0,0.132,-0.106,0.728,0.664
2342959,-3707.0,7843.0,-597.0,0.132,-0.106,0.732,0.66
2342976,-3639.0,7955.0,-407.0,0.133,-0.105,0.735,0.657
2342992,-3481.0,7935.0,-219.0,0.134,-0.104,0.738,0.653
2343009,-3331.0,7945.0,-83.0,0.135,-0.102,0.741,0.649
2343026,1071.0,15411.0,5691.0,0.133,-0.107,0.739,0.651
2343043,-4389.0,4917.0,457.0,0.13,-0.108,0.736,0.656
2343060,-4301.0,6689.0,1647.0,0.129,-0.112,0.732,0.66
2343079,-4067.0,5991.0,1407.0,0.128,-0.114,0.73,0.662
2343105,-3389.0,6651.0,947.0,0.127,-0.114,0.73,0.662
2343123,-3403.0,6571.0,617.0,0.127,-0.113,0.73,0.662
2343140,-3451.0,6677.0,815.0,0.126,-0.113,0.732,0.66
2343156,-3477.0,6659.0,781.0,0.126,-0.111,0.734,0.658
2343174,-3257.0,7135.0,897.0,0.127,-0.11,0.736,0.656
2343190,-3257.0,7315.0,1137.0,0.127,-0.108,0.738,0.654
2343206,-3229.0,7583.0,1259.0,0.127,-0.107,0.74,0.652
2343222,-3009.0,7769.0,1241.0,0.126,-0.105,0.741,0.651
2343238,-2859.0,8031.0,1167.0,0.126,-0.103,0.742,0.65
2343264,-2645.0,8263.0,1181.0,0.125,-0.101,0.743,0.65
2343285,-2551.0,8325.0,1229.0,0.124,-0.1,0.742,0.651
2343301,-2489.0,8227.0,1273.0,0.123,-0.1,0.74,0.653
2343317,-2413.0,8043.0,1341.0,0.121,-0.099,0.738,0.656
2343333,-2389.0,7937.0,1205.0,0.118,-0.099,0.735,0.66
2343349,-2291.0,7943.0,1157.0,0.115,-0.099,0.733,0.663
2343365,-2153.0,7781.0,1015.0,0.111,-0.1,0.73,0.667
2343381,-2269.0,7567.0,1001.0,0.108,-0.102,0.726,0.671
2343398,-2163.0,7251.0,925.0,0.104,-0.104,0.723,0.675
2343414,-2213.0,7187.0,863.0,0.1,-0.106,0.72,0.678
2343441,-2247.0,7301.0,815.0,0.095,-0.109,0.718,0.681
2343457,-2223.0,7407.0,615.0,0.09,-0.113,0.715,0.684
2343473,-2223.0,7479.0,499.0,0.085,-0.118,0.713,0.686
2343489,-2267.0,7609.0,413.0,0.079,-0.123,0.71,0.688
2343505,-2391.0,7713.0,265.0,0.074,-0.129,0.708,0.69
2343522,-2541.0,7865.0,139.0,0.068,-0.135,0.706,0.692
2343539,-2791.0,8103.0,39.0,0.063,-0.142,0.703,0.694
2343556,-3029.0,8287.0,-113.0,0.058,-0.148,0.701,0.695
2343583,-3181.0,8251.0,-305.0,0.053,-0.154,0.699,0.697
2343600,-3319.0,8103.0,-573.0,0.049,-0.16,0.696,0.699
2343617,-3443.0,7943.0,-713.0,0.046,-0.165,0.692,0.701
2343634,-3513.0,7801.0,-767.0,0.044,-0.169,0.689,0.703
2343651,-3659.0,7621.0,-967.0,0.043,-0.171,0.686,0.706
2343668,-3747.0,7361.0,-981.0,0.043,-0.173,0.683,0.708
2343685,-3735.0,7177.0,-1001.0,0.045,-0.173,0.681,0.71
2343702,-3887.0,7153.0,-865.0,0.048,-0.172,0.681,0.711
2343719,-3775.0,7077.0,-679.0,0.052,-0.169,0.681,0.711
2343736,-3685.0,7057.0,-493.0,0.058,-0.165,0.682,0.71
2343753,-3617.0,7083.0,-287.0,0.065,-0.16,0.684,0.709
2343770,-3521.0,7055.0,-51.0,0.072,-0.155,0.686,0.707
2343787,-3519.0,7051.0,55.0,0.08,-0.149,0.69,0.704
2343813,-3513.0,7163.0,209.0,0.088,-0.142,0.693,0.701
2343829,-3513.0,7003.0,393.0,0.097,-0.136,0.697,0.697
2343845,-3315.0,7577.0,325.0,0.105,-0.129,0.701,0.694
2343862,-4001.0,8051.0,1155.0,0.111,-0.124,0.701,0.694
2343878,-3751.0,6483.0,1051.0,0.118,-0.118,0.702,0.692
2343894,-3587.0,6907.0,883.0,0.125,-0.111,0.705,0.689
2343910,-3211.0,7329.0,769.0,0.133,-0.104,0.709,0.685
2343937,-3203.0,7693.0,781.0,0.14,-0.097,0.712,0.681
2343954,-3125.0,7767.0,739.0,0.147,-0.09,0.714,0.678
2343970,-3131.0,7893.0,863.0,0.155,-0.083,0.716,0.676
2343987,-3093.0,7777.0,1049.0,0.162,-0.077,0.717,0.674
2344003,-3003.0,7727.0,1173.0,0.168,-0.071,0.717,0.673
2344019,-2875.0,7847.0,1239.0,0.174,-0.065,0.717,0.672
2344035,-2739.0,7989.0,1307.0,0.178,-0.06,0.716,0.672
2344052,-2461.0,8033.0,1269.0,0.182,-0.055,0.716,0.672
2344069,-2289.0,8045.0,1219.0,0.184,-0.052,0.714,0.673
2344096,-2167.0,7961.0,1015.0,0.186,-0.05,0.712,0.675
2344113,-2115.0,7961.0,839.0,0.186,-0.049,0.71,0.677
2344130,-2133.0,7857.0,651.0,0.186,-0.05,0.708,0.68
2344147,-2255.0,7891.0,395.0,0.185,-0.051,0.706,0.682
2344164,-2469.0,7811.0,183.0,0.183,-0.054,0.703,0.685
2344180,-2707.0,7765.0,-55.0,0.181,-0.057,0.701,0.688
2344196,-2871.0,7647.0,-201.0,0.179,-0.06,0.699,0.69
2344213,-2995.0,7543.0,-415.0,0.176,-0.063,0.697,0.692
2344229,-3101.0,7569.0,-705.0,0.173,-0.066,0.696,0.694
2344255,-3331.0,7649.0,-893.0,0.171,-0.069,0.695,0.695
2344272,-3383.0,7643.0,-975.0,0.17,-0.072,0.694,0.696
2344289,-3481.0,7587.0,-1023.0,0.169,-0.073,0.694,0.696
2344306,-3459.0,7493.0,-1019.0,0.169,-0.074,0.694,0.696
2344323,-3503.0,7477.0,-1015.0,0.17,-0.074,0.694,0.696
2344340,-3429.0,7495.0,-909.0,0.171,-0.074,0.694,0.695
2344357,-1911.0,10809.0,1809.0,0.172,-0.076,0.693,0.696
2344373,-4947.0,4449.0,169.0,0.171,-0.076,0.692,0.698
2344389,-2765.0,7235.0,-661.0,0.173,-0.077,0.691,0.698
2344416,-3455.0,7117.0,-785.0,0.174,-0.078,0.691,0.698
2344433,-3263.0,8137.0,-815.0,0.174,-0.079,0.69,0.698
2344450,-3243.0,7125.0,-1005.0,0.174,-0.081,0.689,0.698
2344467,-3437.0,6923.0,-947.0,0.174,-0.083,0.689,0.699
2344483,-3549.0,7001.0,-661.0,0.173,-0.084,0.689,0.699
2344500,-3657.0,7019.0,-307.0,0.173,-0.086,0.688,0.699
2344517,-3821.0,7173.0,-131.0,0.172,-0.088,0.689,0.699
2344534,-3935.0,6941.0,-53.0,0.171,-0.089,0.689,0.698
2344551,-4067.0,7533.0,133.0,0.17,-0.089,0.69,0.698
2344567,-3961.0,7301.0,199.0,0.169,-0.089,0.692,0.697
2344593,-3927.0,7319.0,391.0,0.169,-0.087,0.693,0.696
2344610,-3929.0,7443.0,451.0,0.169,-0.086,0.694,0.695
2344627,-3883.0,7459.0,523.0,0.17,-0.083,0.695,0.694
2344644,-3895.0,7653.0,627.0,0.171,-0.08,0.696,0.693
2344661,-3753.0,7391.0,707.0,0.173,-0.077,0.696,0.692
2344678,-3785.0,7227.0,767.0,0.175,-0.073,0.697,0.692
2344696,-3681.0,7139.0,787.0,0.178,-0.069,0.698,0.691
2344713,-3567.0,7305.0,815.0,0.18,-0.065,0.699,0.689
2344730,-3389.0,7313.0,871.0,0.182,-0.062,0.699,0.689
2344746,-3285.0,7295.0,987.0,0.183,-0.059,0.699,0.688
2344762,-3317.0,6797.0,1029.0,0.184,-0.056,0.7,0.688
2344778,-3337.0,6973.0,789.0,0.184,-0.054,0.702,0.686
2344805,-3029.0,7251.0,475.0,0.183,-0.051,0.704,0.685
2344822,-2805.0,7435.0,253.0,0.182,-0.049,0.705,0.683
2344839,-2541.0,7819.0,279.0,0.18,-0.048,0.707,0.682
2344856,-2507.0,8017.0,319.0,0.177,-0.049,0.708,0.682
2344873,-2455.0,7983.0,341.0,0.174,-0.05,0.708,0.683
2344890,-2357.0,7959.0,437.0,0.169,-0.054,0.707,0.684
2344907,-2277.0,7997.0,413.0,0.164,-0.058,0.707,0.686
2344924,-2235.0,8075.0,221.0,0.158,-0.063,0.706,0.687
2344941,-2149.0,8233.0,3.0,0.152,-0.07,0.705,0.689
2344958,-2307.0,8133.0,-213.0,0.145,-0.078,0.704,0.691
2344974,-2435.0,8083.0,-431.0,0.137,-0.086,0.703,0.693
2344991,-2649.0,7885.0,-603.0,0.13,-0.095,0.701,0.695
2345008,-2865.0,7635.0,-775.0,0.122,-0.104,0.699,0.697
2345026,-3083.0,7303.0,-935.0,0.115,-0.113,0.697,0.698
2345043,-3181.0,7301.0,-1009.0,0.108,-0.122,0.696,0.699
2345070,-3467.0,7263.0,-1111.0,0.103,-0.129,0.696,0.699
2345087,-3563.0,7233.0,-1099.0,0.099,-0.135,0.697,0.698
2345103,-3571.0,7451.0,-1013.0,0.096,-0.139,0.698,0.695
2345120,-3613.0,7817.0,-777.0,0.096,-0.14,0.701,0.692
2345137,-3595.0,8097.0,-509.0,0.097,-0.14,0.705,0.689
2345154,-3293.0,8277.0,-111.0,0.099,-0.137,0.709,0.685
2345171,-3095.0,8447.0,225.0,0.102,-0.133,0.713,0.681
2345188,-2751.0,8503.0,499.0,0.106,-0.128,0.718,0.676
2345204,-2509.0,8597.0,675.0,0.11,-0.122,0.722,0.672
2345221,-2401.0,8613.0,877.0,0.115,-0.115,0.725,0.669
2345238,-2297.0,8451.0,1087.0,0.12,-0.11,0.728,0.666
2345265,-2269.0,8059.0,1189.0,0.124,-0.105,0.731,0.663
2345282,-2337.0,7697.0,1345.0,0.129,-0.101,0.732,0.661
2345298,-2343.0,7395.0,1405.0,0.133,-0.099,0.733,0.659
2345315,-2437.0,7131.0,1463.0,0.137,-0.098,0.734,0.658
2345332,-2569.0,6953.0,1543.0,0.14,-0.097,0.735,0.656
2345349,-2613.0,6919.0,1563.0,0.142,-0.098,0.736,0.655
2345365,-2607.0,7055.0,1549.0,0.143,-0.099,0.736,0.654
2345382,-2695.0,7387.0,1525.0,0.143,-0.1,0.737,0.653
2345399,-2779.0,7545.0,1567.0,0.142,-0.102,0.737,0.653
2345415,-2861.0,7641.0,1525.0,0.141,-0.103,0.737,0.652
2345442,-2933.0,7771.0,1477.0,0.14,-0.105,0.737,0.652
2345458,-3075.0,7933.0,1417.0,0.138,-0.107,0.737,0.653
2345475,-3143.0,8009.0,1407.0,0.137,-0.108,0.737,0.653
2345492,-3023.0,8035.0,1459.0,0.135,-0.108,0.736,0.655
2345509,-2987.0,8171.0,1429.0,0.133,-0.109,0.734,0.657
2345526,-2805.0,8173.0,1341.0,0.13,-0.111,0.732,0.66
2345543,-2621.0,7887.0,1275.0,0.126,-0.113,0.729,0.663
2345560,-2617.0,7673.0,1125.0,0.123,-0.116,0.726,0.667
2345577,-2645.0,7567.0,945.0,0.119,-0.121,0.722,0.671
2345593,-2827.0,7377.0,795.0,0.115,-0.126,0.717,0.676
2345619,-2921.0,7233.0,637.0,0.11,-0.132,0.713,0.68
2345635,-2957.0,7179.0,445.0,0.104,-0.139,0.708,0.684
2345651,-2769.0,6983.0,225.0,0.098,-0.147,0.703,0.689
2345668,-2779.0,6955.0,137.0,0.091,-0.155,0.699,0.692
2345685,-2757.0,7123.0,73.0,0.083,-0.163,0.695,0.695
2345702,-2907.0,7385.0,-97.0,0.076,-0.172,0.692,0.697
2345718,-3109.0,7709.0,-293.0,0.069,-0.18,0.69,0.698
2345735,-3329.0,7969.0,-425.0,0.062,-0.189,0.688,0.698
2345752,-3543.0,8113.0,-589.0,0.056,-0.196,0.687,0.698
2345769,-3761.0,7975.0,-809.0,0.052,-0.203,0.685,0.697
2345795,-3899.0,7831.0,-943.0,0.049,-0.209,0.684,0.697
2345813,-4099.0,7635.0,-1047.0,0.047,-0.214,0.683,0.697
2345829,-4215.0,7427.0,-983.0,0.047,-0.217,0.681,0.698
2345845,-4327.0,7405.0,-929.0,0.048,-0.219,0.68,0.698
2345861,-4353.0,7289.0,-883.0,0.05,-0.22,0.678,0.699
2345877,-4449.0,7015.0,-747.0,0.054,-0.219,0.677,0.7
2345903,-4269.0,7363.0,-781.0,0.058,-0.217,0.676,0.702
2345919,-4025.0,9085.0,-379.0,0.062,-0.215,0.674,0.704
2345935,-4267.0,6719.0,-235.0,0.067,-0.212,0.67,0.708
2345952,-4281.0,6127.0,-81.0,0.072,-0.207,0.671,0.709
2345969,-4033.0,6469.0,-227.0,0.078,-0.2,0.673,0.708
2345985,-3819.0,6647.0,-269.0,0.085,-0.193,0.676,0.706
2346001,-3779.0,6601.0,-239.0,0.093,-0.185,0.679,0.704
2346017,-3855.0,6789.0,-145.0,0.101,-0.177,0.684,0.701
2346034,-3823.0,6967.0,-9.0,0.109,-0.169,0.688,0.697
2346061,-3791.0,7061.0,175.0,0.117,-0.161,0.692,0.694
2346078,-3745.0,7117.0,371.0,0.124,-0.153,0.697,0.689
2346095,-3713.0,7205.0,439.0,0.132,-0.145,0.701,0.685
2346111,-3689.0,7433.0,397.0,0.139,-0.138,0.705,0.681
2346127,-3663.0,7583.0,345.0,0.146,-0.132,0.708,0.678
2346144,-3533.0,7745.0,257.0,0.151,-0.127,0.71,0.675
2346160,-3457.0,7803.0,149.0,0.156,-0.123,0.711,0.674
2346177,-3397.0,7771.0,83.0,0.159,-0.121,0.711,0.674
2346203,-3455.0,7535.0,-21.0,0.162,-0.119,0.711,0.674
2346220,-3459.0,7367.0,-127.0,0.164,-0.118,0.71,0.675
2346237,-3463.0,7255.0,-283.0,0.165,-0.118,0.709,0.676
2346253,-3443.0,6979.0,-399.0,0.166,-0.118,0.708,0.676
2346269,-2069.0,8351.0,1905.0,0.166,-0.122,0.705,0.679
2346286,-4931.0,5369.0,-471.0,0.165,-0.118,0.71,0.675
2346303,-2867.0,6319.0,-1383.0,0.168,-0.116,0.713,0.671
2346320,-3393.0,8017.0,-1379.0,0.17,-0.115,0.715,0.669
2346337,-3635.0,7943.0,-1127.0,0.171,-0.114,0.716,0.667
2346354,-3701.0,7415.0,-1169.0,0.173,-0.112,0.718,0.665
2346380,-3559.0,7717.0,-937.0,0.175,-0.111,0.719,0.664
2346397,-3649.0,7393.0,-529.0,0.177,-0.111,0.719,0.663
2346414,-3667.0,7275.0,-543.0,0.179,-0.109,0.72,0.661
2346431,-3535.0,7629.0,-803.0,0.182,-0.108,0.722,0.659
2346448,-3433.0,7931.0,-899.0,0.184,-0.107,0.722,0.658
2346464,-3483.0,7705.0,-861.0,0.186,-0.107,0.722,0.658
2346481,-3453.0,7479.0,-831.0,0.188,-0.107,0.721,0.658
2346497,-3607.0,7361.0,-697.0,0.19,-0.108,0.72,0.658
2346513,-3695.0,7111.0,-607.0,0.191,-0.109,0.719,0.659
2346530,-3561.0,6867.0,-559.0,0.192,-0.109,0.719,0.659
2346557,-3723.0,6841.0,-535.0,0.192,-0.11,0.72,0.658
2346574,-3811.0,6925.0,-561.0,0.193,-0.11,0.721,0.657
2346590,-3903.0,6887.0,-571.0,0.193,-0.109,0.722,0.655
2346606,-3917.0,6821.0,-439.0,0.194,-0.108,0.724,0.653
2346623,-3975.0,7035.0,-355.0,0.195,-0.107,0.726,0.65
2346640,-3927.0,7349.0,-337.0,0.196,-0.106,0.729,0.648
2346656,-3965.0,7657.0,-255.0,0.197,-0.103,0.731,0.645
2346672,-3843.0,7745.0,-223.0,0.198,-0.101,0.733,0.643
2346698,-3841.0,7729.0,-99.0,0.2,-0.099,0.734,0.642
2346714,-3883.0,7569.0,-15.0,0.202,-0.096,0.735,0.641
2346730,-3269.0,9053.0,369.0,0.203,-0.095,0.734,0.64
2346746,-4149.0,7141.0,609.0,0.205,-0.095,0.732,0.643
2346763,-3967.0,6747.0,867.0,0.206,-0.094,0.729,0.646
2346780,-4201.0,6649.0,729.0,0.207,-0.093,0.728,0.647
2346796,-3975.0,6957.0,547.0,0.208,-0.093,0.727,0.647
2346813,-3961.0,6533.0,417.0,0.209,-0.092,0.727,0.648
2346840,-3959.0,6487.0,163.0,0.209,-0.092,0.727,0.647
2346856,-3869.0,6477.0,-171.0,0.209,-0.091,0.728,0.646
2346872,-3831.0,6619.0,-407.0,0.209,-0.09,0.73,0.644
2346888,-3777.0,6805.0,-691.0,0.208,-0.09,0.732,0.642
2346904,-3681.0,7209.0,-801.0,0.206,-0.09,0.734,0.641
2346920,-3709.0,7489.0,-935.0,0.204,-0.091,0.736,0.64
2346946,-3779.0,7691.0,-999.0,0.201,-0.092,0.737,0.639
2346963,-3817.0,7871.0,-877.0,0.198,-0.094,0.737,0.64
2346979,-3811.0,7861.0,-843.0,0.195,-0.096,0.736,0.641
2346996,-3825.0,7705.0,-809.0,0.192,-0.098,0.735,0.643
2347013,-3809.0,7585.0,-831.0,0.189,-0.1,0.733,0.646
2347030,-3775.0,7587.0,-797.0,0.186,-0.102,0.732,0.648
2347046,-3619.0,7509.0,-743.0,0.183,-0.104,0.73,0.651
2347062,-3523.0,7303.0,-659.0,0.181,-0.106,0.728,0.653
2347079,-3555.0,7343.0,-921.0,0.179,-0.108,0.727,0.654
2347096,-3361.0,7583.0,-999.0,0.176,-0.109,0.725,0.656
2347123,-3303.0,7479.0,-1001.0,0.174,-0.111,0.724,0.659
2347139,-3289.0,7257.0,-829.0,0.17,-0.113,0.722,0.661
2347155,-3359.0,6929.0,-659.0,0.167,-0.115,0.721,0.663
2347171,-3417.0,6751.0,-575.0,0.164,-0.117,0.72,0.664
2347187,-3415.0,6759.0,-585.0,0.161,-0.118,0.721,0.664
2347213,-3535.0,6873.0,-703.0,0.158,-0.12,0.722,0.663
2347229,-3565.0,7027.0,-703.0,0.156,-0.122,0.723,0.662
2347245,-3683.0,7283.0,-655.0,0.154,-0.124,0.724,0.661
2347261,-3713.0,7333.0,-629.0,0.152,-0.126,0.725,0.66
2347277,-3727.0,7435.0,-627.0,0.15,-0.129,0.726,0.659
2347293,-3731.0,7507.0,-633.0,0.148,-0.131,0.727,0.658
2347309,-3771.0,7611.0,-689.0,0.147,-0.134,0.727,0.657
2347336,-3793.0,7585.0,-737.0,0.145,-0.136,0.727,0.657
2347352,-3879.0,7645.0,-761.0,0.144,-0.138,0.727,0.657
2347368,-3879.0,7489.0,-767.0,0.143,-0.14,0.727,0.657
2347384,-3909.0,7287.0,-719.0,0.143,-0.141,0.726,0.657
2347400,-3931.0,7117.0,-639.0,0.143,-0.142,0.726,0.657
2347416,-3945.0,7003.0,-563.0,0.143,-0.142,0.727,0.657
2347442,-3903.0,6961.0,-469.0,0.144,-0.141,0.728,0.655
2347459,-3849.0,7067.0,-373.0,0.145,-0.14,0.729,0.654
2347475,-3713.0,7081.0,-271.0,0.147,-0.138,0.731,0.652
2347491,-3563.0,7255.0,-161.0,0.148,-0.136,0.733,0.65
2347507,-3435.0,7401.0,-41.0,0.15,-0.134,0.735,0.648
2347523,-3367.0,7501.0,27.0,0.152,-0.132,0.737,0.646
2347539,-3219.0,7639.0,101.0,0.153,-0.131,0.738,0.644
2347565,-3161.0,7701.0,211.0,0.154,-0.129,0.74,0.642
2347581,-3111.0,7787.0,189.0,0.155,-0.128,0.741,0.641
2347597,-3073.0,7805.0,209.0,0.155,-0.128,0.741,0.64
2347613,-3073.0,7845.0,157.0,0.155,-0.127,0.742,0.64
2347629,-3125.0,7805.0,107.0,0.154,-0.127,0.742,0.64
2347645,-3077.0,7683.0,149.0,0.153,-0.127,0.742,0.64
2347671,-3125.0,7569.0,183.0,0.152,-0.128,0.742,0.64
2347687,-3243.0,7399.0,103.0,0.151,-0.128,0.742,0.64
2347703,-3361.0,7253.0,119.0,0.151,-0.128,0.742,0.64
2347719,-3447.0,7297.0,133.0,0.15,-0.128,0.743,0.64
2347735,-3495.0,7295.0,161.0,0.15,-0.128,0.743,0.64
2347751,-3493.0,7369.0,117.0,0.149,-0.128,0.743,0.64
2347777,-3465.0,7497.0,81.0,0.149,-0.128,0.743,0.64
2347793,-3435.0,7587.0,107.0,0.148,-0.128,0.743,0.64
2347809,-3429.0,7657.0,127.0,0.147,-0.128,0.743,0.641
2347825,-3393.0,7649.0,131.0,0.146,-0.128,0.742,0.642
2347841,-3321.0,7727.0,101.0,0.145,-0.127,0.741,0.643
2347867,-3251.0,7715.0,79.0,0.144,-0.127,0.739,0.645
2347883,-3245.0,7749.0,41.0,0.143,-0.127,0.738,0.647
2347899,-3219.0,7731.0,65.0,0.142,-0.126,0.736,0.65
2347915,-3157.0,7829.0,-7.0,0.141,-0.126,0.734,0.652
2347931,-3117.0,7769.0,-67.0,0.139,-0.126,0.732,0.655
2347947,-3013.0,7731.0,-147.0,0.137,-0.125,0.73,0.658
2347973,-3027.0,7671.0,-199.0,0.135,-0.125,0.728,0.661
2347989,-3037.0,7589.0,-299.0,0.132,-0.125,0.725,0.664
2348005,-2943.0,7509.0,-309.0,0.13,-0.125,0.723,0.667
2348021,-2955.0,7481.0,-297.0,0.127,-0.126,0.721,0.669
2348037,-2875.0,7449.0,-299.0,0.125,-0.126,0.719,0.672
2348053,-2859.0,7507.0,-293.0,0.123,-0.127,0.717,0.674
2348079,-2883.0,7599.0,-379.0,0.121,-0.128,0.715,0.676
2348095,-2815.0,7607.0,-389.0,0.119,-0.13,0.713,0.678
2348111,-2913.0,7679.0,-449.0,0.117,-0.132,0.712,0.68
2348127,-3035.0,7649.0,-483.0,0.115,-0.134,0.71,0.682
2348143,-3081.0,7685.0,-579.0,0.113,-0.136,0.708,0.684
2348160,-3165.0,7633.0,-631.0,0.111,-0.138,0.706,0.686
2348186,-3255.0,7529.0,-635.0,0.11,-0.141,0.704,0.688
2348202,-3369.0,7547.0,-645.0,0.108,-0.143,0.702,0.689
2348218,-3425.0,7489.0,-711.0,0.107,-0.145,0.7,0.691
2348234,-3511.0,7421.0,-731.0,0.106,-0.147,0.699,0.692
2348250,-3549.0,7347.0,-739.0,0.105,-0.149,0.697,0.693
2348266,-3649.0,7339.0,-743.0,0.105,-0.15,0.696,0.694
2348282,-3661.0,7291.0,-713.0,0.105,-0.151,0.695,0.695
2348309,-3633.0,7325.0,-615.0,0.105,-0.151,0.694,0.696
2348325,-3643.0,7277.0,-631.0,0.105,-0.152,0.694,0.696
2348341,-3581.0,7261.0,-561.0,0.106,-0.152,0.693,0.696
2348357,-3479.0,7287.0,-419.0,0.107,-0.151,0.693,0.697
2348373,-3485.0,7225.0,-333.0,0.107,-0.151,0.693,0.697
2348389,-3497.0,7195.0,-233.0,0.108,-0.151,0.693,0.696
2348415,-3429.0,7175.0,-205.0,0.109,-0.15,0.694,0.696
2348431,-3475.0,7175.0,-105.0,0.111,-0.15,0.695,0.695
2348447,-3463.0,7217.0,-21.0,0.112,-0.149,0.695,0.694
2348463,-3457.0,7277.0,19.0,0.113,-0.149,0.697,0.693
2348479,-3477.0,7317.0,85.0,0.114,-0.148,0.698,0.692
2348496,-3441.0,7327.0,109.0,0.116,-0.148,0.699,0.69
2348513,-3451.0,7407.0,155.0,0.117,-0.147,0.7,0.689
2348530,-3479.0,7497.0,155.0,0.118,-0.146,0.701,0.688
2348556,-3475.0,7535.0,131.0,0.119,-0.146,0.702,0.686
2348573,-3451.0,7509.0,159.0,0.12,-0.145,0.703,0.685
2348589,-3459.0,7567.0,213.0,0.121,-0.144,0.704,0.685
2348606,-3397.0,7563.0,185.0,0.122,-0.144,0.705,0.684
2348622,-3395.0,7517.0,211.0,0.122,-0.143,0.705,0.683
2348638,-3407.0,7497.0,209.0,0.123,-0.142,0.706,0.683
2348654,-3455.0,7467.0,219.0,0.124,-0.141,0.706,0.683
2348680,-3399.0,7507.0,219.0,0.125,-0.14,0.706,0.683
2348696,-3405.0,7451.0,189.0,0.126,-0.139,0.707,0.682
2348712,-3285.0,7431.0,173.0,0.127,-0.138,0.707,0.682
2348728,-3279.0,7525.0,189.0,0.127,-0.137,0.707,0.682
2348744,-3287.0,7497.0,145.0,0.128,-0.135,0.707,0.682
2348760,-3283.0,7451.0,143.0,0.129,-0.134,0.708,0.682
2348786,-3279.0,7487.0,131.0,0.129,-0.133,0.708,0.682
2348802,-3281.0,7545.0,91.0,0.13,-0.132,0.708,0.681
2348818,-3261.0,7491.0,83.0,0.13,-0.131,0.708,0.681
2348834,-3229.0,7467.0,69.0,0.13,-0.13,0.709,0.681
2348850,-3235.0,7467.0,77.0,0.13,-0.13,0.709,0.681
2348876,-3189.0,7481.0,85.0,0.13,-0.129,0.709,0.681
2348893,-3197.0,7447.0,49.0,0.13,-0.128,0.709,0.681
2348910,-3233.0,7527.0,23.0,0.13,-0.128,0.709,0.681
2348927,-3243.0,7487.0,-51.0,0.13,-0.127,0.71,0.681
2348944,-3285.0,7457.0,-9.0,0.13,-0.127,0.71,0.681
2348961,-3295.0,7421.0,-23.0,0.13,-0.127,0.71,0.681
2348978,-3291.0,7429.0,-109.0,0.131,-0.127,0.71,0.68
2348995,-3333.0,7481.0,-83.0,0.131,-0.127,0.71,0.68
2349012,-3259.0,7535.0,-111.0,0.131,-0.127,0.71,0.68
2349029,-3305.0,7499.0,-123.0,0.131,-0.127,0.71,0.68
2349046,-3279.0,7499.0,-145.0,0.131,-0.127,0.71,0.68
2349063,-3229.0,7531.0,-115.0,0.131,-0.127,0.71,0.68
2349079,-3195.0,7559.0,-143.0,0.131,-0.127,0.71,0.68
2349106,-3207.0,7577.0,-129.0,0.131,-0.127,0.71,0.68
2349123,-3199.0,7615.0,-115.0,0.131,-0.127,0.71,0.68
2349139,-3135.0,7599.0,-127.0,0.131,-0.127,0.71,0.68
2349155,-3163.0,7599.0,-99.0,0.131,-0.127,0.71,0.68
2349171,-3119.0,7599.0,-127.0,0.131,-0.127,0.71,0.68
2349187,-3107.0,7567.0,-97.0,0.131,-0.127,0.71,0.68
2349204,-3107.0,7625.0,-109.0,0.131,-0.127,0.71,0.681
2349221,-3137.0,7607.0,-47.0,0.131,-0.126,0.71,0.681
2349238,-3133.0,7633.0,-59.0,0.132,-0.126,0.709,0.681
2349264,-3073.0,7579.0,7.0,0.132,-0.126,0.709,0.681
2349280,-3133.0,7571.0,1.0,0.132,-0.126,0.709,0.681
2349296,-3161.0,7551.0,75.0,0.133,-0.125,0.709,0.682
2349312,-3139.0,7597.0,19.0,0.133,-0.125,0.708,0.682
2349329,-3187.0,7507.0,41.0,0.133,-0.125,0.708,0.682
2349345,-3269.0,7513.0,53.0,0.134,-0.125,0.708,0.682
2349371,-3267.0,7489.0,45.0,0.134,-0.125,0.707,0.683
2349388,-3285.0,7447.0,53.0,0.134,-0.126,0.707,0.683
2349404,-3353.0,7403.0,21.0,0.135,-0.126,0.706,0.683
2349420,-3399.0,7443.0,65.0,0.135,-0.126,0.706,0.683
2349436,-3403.0,7389.0,109.0,0.136,-0.126,0.706,0.684
2349452,-3409.0,7325.0,55.0,0.136,-0.126,0.706,0.684
2349468,-3443.0,7323.0,107.0,0.136,-0.126,0.706,0.683
2349494,-3453.0,7317.0,153.0,0.137,-0.126,0.706,0.683
2349511,-3423.0,7347.0,177.0,0.137,-0.125,0.706,0.683
2349528,-3427.0,7375.0,225.0,0.137,-0.125,0.706,0.683
2349545,-3371.0,7441.0,177.0,0.137,-0.125,0.707,0.683
2349562,-3349.0,7531.0,227.0,0.137,-0.125,0.707,0.683
2349579,-3253.0,7569.0,217.0,0.137,-0.125,0.707,0.683
2349596,-3223.0,7553.0,215.0,0.137,-0.124,0.706,0.683
2349612,-3199.0,7613.0,155.0,0.137,-0.124,0.706,0.683
2349629,-3195.0,7553.0,89.0,0.137,-0.124,0.706,0.684
2349646,-3209.0,7523.0,95.0,0.137,-0.124,0.706,0.684
2349672,-3327.0,7497.0,59.0,0.138,-0.124,0.705,0.684
2349689,-3311.0,7509.0,25.0,0.138,-0.124,0.705,0.685
2349705,-3341.0,7473.0,-11.0,0.138,-0.124,0.705,0.685
2349722,-3429.0,7369.0,-11.0,0.139,-0.124,0.704,0.685
2349739,-3441.0,7391.0,-71.0,0.139,-0.124,0.704,0.686
2349756,-3405.0,7403.0,-27.0,0.139,-0.124,0.704,0.686
2349772,-3407.0,7399.0,-37.0,0.139,-0.123,0.703,0.686
2349789,-3415.0,7359.0,-37.0,0.14,-0.123,0.703,0.686
2349805,-3387.0,7369.0,-47.0,0.14,-0.123,0.704,0.686
2349822,-3371.0,7399.0,-57.0,0.14,-0.122,0.704,0.686
2349849,-3305.0,7417.0,-7.0,0.141,-0.122,0.704,0.685
2349866,-3245.0,7465.0,69.0,0.141,-0.121,0.705,0.685
2349882,-3261.0,7499.0,81.0,0.141,-0.121,0.705,0.684
2349898,-3289.0,7437.0,143.0,0.142,-0.12,0.706,0.684
2349914,-3213.0,7497.0,187.0,0.142,-0.12,0.706,0.683
2349930,-3205.0,7535.0,197.0,0.142,-0.119,0.707,0.683
2349946,-3203.0,7537.0,231.0,0.142,-0.119,0.707,0.682
2349972,-3137.0,7625.0,209.0,0.143,-0.118,0.707,0.682
2349988,-3121.0,7651.0,131.0,0.143,-0.118,0.707,0.682
2350004,-3119.0,7707.0,203.0,0.143,-0.118,0.707,0.682
2350020,-3055.0,7691.0,169.0,0.143,-0.117,0.707,0.682
2350036,-3123.0,7673.0,103.0,0.143,-0.117,0.707,0.682
2350062,-3053.0,7631.0,87.0,0.144,-0.117,0.707,0.683
2350078,-3063.0,7647.0,25.0,0.144,-0.117,0.707,0.683
2350094,-3105.0,7625.0,11.0,0.144,-0.117,0.706,0.683
2350110,-3167.0,7545.0,7.0,0.145,-0.117,0.706,0.683
2350126,-3239.0,7483.0,3.0,0.145,-0.116,0.706,0.684
2350142,-3303.0,7423.0,-3.0,0.146,-0.116,0.705,0.684
2350168,-3363.0,7431.0,-15.0,0.146,-0.116,0.705,0.684
2350184,-3387.0,7383.0,-45.0,0.147,-0.116,0.705,0.684
2350200,-3435.0,7353.0,-13.0,0.147,-0.116,0.705,0.684
2350216,-3433.0,7341.0,21.0,0.148,-0.116,0.705,0.684
2350232,-3415.0,7345.0,-1.0,0.148,-0.116,0.705,0.683
2350248,-3393.0,7419.0,53.0,0.149,-0.116,0.706,0.683
2350274,-3383.0,7351.0,41.0,0.149,-0.116,0.706,0.683
2350291,-3387.0,7395.0,91.0,0.149,-0.116,0.706,0.682
2350308,-3309.0,7419.0,147.0,0.15,-0.116,0.707,0.682
2350325,-3341.0,7435.0,191.0,0.15,-0.116,0.707,0.681
2350341,-3343.0,7431.0,241.0,0.15,-0.116,0.708,0.681
2350357,-3301.0,7443.0,251.0,0.15,-0.116,0.708,0.68
2350374,-3247.0,7495.0,259.0,0.15,-0.116,0.709,0.68
2350391,-3257.0,7515.0,223.0,0.15,-0.116,0.709,0.679
2350407,-3247.0,7511.0,229.0,0.15,-0.116,0.71,0.679
2350424,-3271.0,7569.0,245.0,0.149,-0.116,0.71,0.679
2350450,-3247.0,7643.0,203.0,0.149,-0.116,0.71,0.678
2350466,-3259.0,7591.0,207.0,0.149,-0.116,0.71,0.679
2350482,-3225.0,7575.0,189.0,0.149,-0.116,0.71,0.679
2350498,-3243.0,7625.0,169.0,0.148,-0.117,0.709,0.679
2350514,-3229.0,7559.0,101.0,0.148,-0.117,0.709,0.679
2350530,-3243.0,7537.0,15.0,0.148,-0.117,0.709,0.68
2350557,-3277.0,7479.0,11.0,0.148,-0.118,0.708,0.68
2350573,-3297.0,7451.0,-33.0,0.148,-0.118,0.708,0.681
2350589,-3319.0,7473.0,-65.0,0.148,-0.118,0.707,0.681
2350605,-3355.0,7399.0,-145.0,0.148,-0.119,0.707,0.681
2350621,-3339.0,7337.0,-143.0,0.148,-0.119,0.707,0.681
2350638,-3381.0,7367.0,-91.0,0.148,-0.12,0.707,0.681
2350654,-3391.0,7433.0,-155.0,0.148,-0.12,0.707,0.681
2350681,-3451.0,7385.0,-193.0,0.148,-0.12,0.707,0.681
2350697,-3405.0,7401.0,-103.0,0.148,-0.121,0.707,0.681
2350714,-3409.0,7411.0,-99.0,0.148,-0.121,0.707,0.68
2350730,-3413.0,7421.0,-79.0,0.148,-0.121,0.708,0.68
2350746,-3365.0,7403.0,-83.0,0.149,-0.121,0.708,0.68
2350762,-3365.0,7423.0,-57.0,0.149,-0.122,0.708,0.679
2350778,-3395.0,7491.0,3.0,0.149,-0.122,0.709,0.679
2350805,-3401.0,7477.0,29.0,0.15,-0.122,0.709,0.678
2350822,-3411.0,7479.0,55.0,0.15,-0.122,0.709,0.678
2350839,-3437.0,7449.0,67.0,0.15,-0.122,0.709,0.678
2350855,-3445.0,7359.0,59.0,0.151,-0.122,0.71,0.677
2350872,-3441.0,7443.0,83.0,0.151,-0.122,0.71,0.677
2350889,-3385.0,7415.0,75.0,0.152,-0.123,0.71,0.677
2350905,-3437.0,7427.0,83.0,0.152,-0.123,0.71,0.677
2350922,-3441.0,7405.0,53.0,0.152,-0.123,0.71,0.676
2350938,-3503.0,7455.0,43.0,0.152,-0.123,0.71,0.676
2350964,-3425.0,7443.0,29.0,0.153,-0.124,0.71,0.676
2350980,-3437.0,7437.0,-21.0,0.153,-0.124,0.71,0.676
2350996,-3479.0,7443.0,51.0,0.153,-0.124,0.71,0.676
2351014,-3463.0,7391.0,-9.0,0.153,-0.125,0.71,0.676
2351030,-3457.0,7397.0,-5.0,0.153,-0.125,0.71,0.676
2351046,-3461.0,7353.0,-17.0,0.153,-0.125,0.71,0.676
2351063,-3445.0,7459.0,13.0,0.154,-0.125,0.71,0.676
2351080,-3463.0,7441.0,-61.0,0.154,-0.126,0.71,0.675
2351097,-3483.0,7447.0,-71.0,0.154,-0.126,0.71,0.675
2351123,-3463.0,7423.0,-77.0,0.154,-0.126,0.71,0.675
2351140,-3471.0,7461.0,-69.0,0.154,-0.127,0.71,0.675
2351157,-3479.0,7395.0,-39.0,0.154,-0.127,0.71,0.675
2351174,-3475.0,7409.0,-65.0,0.154,-0.128,0.71,0.675
2351191,-3479.0,7383.0,-109.0,0.154,-0.128,0.71,0.675
2351208,-3493.0,7379.0,-59.0,0.155,-0.128,0.71,0.675
2351225,-3513.0,7419.0,-91.0,0.155,-0.128,0.71,0.675
2351242,-3477.0,7403.0,-87.0,0.155,-0.128,0.71,0.674
2351259,-3455.0,7415.0,-75.0,0.155,-0.129,0.71,0.674
2351276,-3475.0,7433.0,-39.0,0.155,-0.129,0.711,0.674
2351293,-3533.0,7467.0,1.0,0.155,-0.129,0.711,0.674
2351309,-3499.0,7423.0,13.0,0.156,-0.129,0.711,0.674
2351336,-3507.0,7409.0,-5.0,0.156,-0.129,0.711,0.674
2351353,-3523.0,7283.0,25.0,0.156,-0.129,0.711,0.674
2351369,-3507.0,7399.0,71.0,0.157,-0.129,0.711,0.674
2351385,-3575.0,7427.0,-3.0,0.157,-0.129,0.71,0.674
2351402,-3557.0,7325.0,49.0,0.157,-0.129,0.71,0.674
2351418,-3523.0,7349.0,35.0,0.157,-0.129,0.71,0.674
2351434,-3579.0,7345.0,9.0,0.157,-0.129,0.71,0.674
2351451,-3607.0,7357.0,-49.0,0.157,-0.129,0.71,0.674
2351477,-3603.0,7343.0,-31.0,0.158,-0.13,0.71,0.674
2351494,-3631.0,7345.0,-37.0,0.158,-0.13,0.71,0.674
2351511,-3599.0,7357.0,-81.0,0.158,-0.13,0.709,0.675
2351528,-3549.0,7317.0,-89.0,0.158,-0.13,0.709,0.675
2351545,-3595.0,7379.0,-77.0,0.158,-0.13,0.709,0.675
2351561,-3597.0,7347.0,-55.0,0.159,-0.129,0.709,0.675
2351578,-3613.0,7283.0,-53.0,0.159,-0.129,0.709,0.675
2351594,-3631.0,7307.0,-109.0,0.159,-0.129,0.709,0.675
2351611,-3633.0,7229.0,-39.0,0.16,-0.129,0.709,0.675
2351628,-3633.0,7271.0,-43.0,0.16,-0.129,0.709,0.675
2351655,-3633.0,7305.0,-63.0,0.16,-0.129,0.709,0.675
2351672,-3663.0,7287.0,-111.0,0.161,-0.129,0.709,0.675
2351689,-3657.0,7279.0,-131.0,0.161,-0.129,0.709,0.674
2351706,-3669.0,7307.0,-125.0,0.162,-0.128,0.709,0.674
2351723,-3673.0,7343.0,-153.0,0.162,-0.128,0.709,0.674
2351740,-3619.0,7317.0,-179.0,0.162,-0.127,0.709,0.674
2351757,-3637.0,7333.0,-161.0,0.163,-0.127,0.71,0.674
2351774,-3595.0,7327.0,-177.0,0.164,-0.126,0.71,0.673
2351791,-3625.0,7363.0,-165.0,0.164,-0.126,0.71,0.673
2351808,-3679.0,7367.0,-127.0,0.165,-0.125,0.71,0.673
2351825,-3615.0,7411.0,-149.0,0.166,-0.124,0.71,0.673
2351842,-3615.0,7369.0,-115.0,0.167,-0.124,0.71,0.673
2351859,-3589.0,7383.0,-83.0,0.168,-0.123,0.71,0.672
2351876,-3611.0,7339.0,-69.0,0.169,-0.122,0.711,0.672
2351893,-3557.0,7339.0,-81.0,0.17,-0.121,0.711,0.672
2351920,-3569.0,7305.0,-3.0,0.17,-0.12,0.711,0.672
2351936,-3611.0,7315.0,-17.0,0.171,-0.119,0.711,0.671
2351953,-3597.0,7331.0,1.0,0.172,-0.118,0.711,0.671
2351970,-3535.0,7323.0,9.0,0.173,-0.117,0.712,0.671
2351986,-3569.0,7339.0,45.0,0.174,-0.116,0.712,0.67
2352002,-3561.0,7421.0,13.0,0.175,-0.115,0.712,0.67
2352018,-3499.0,7421.0,49.0,0.176,-0.114,0.712,0.67
2352044,-3539.0,7439.0,59.0,0.177,-0.113,0.713,0.669
2352061,-3537.0,7433.0,33.0,0.178,-0.112,0.713,0.669
2352078,-3541.0,7399.0,113.0,0.179,-0.111,0.713,0.669
2352095,-3519.0,7409.0,119.0,0.18,-0.11,0.713,0.669
2352111,-3523.0,7399.0,125.0,0.181,-0.108,0.713,0.669
2352128,-3503.0,7407.0,165.0,0.182,-0.107,0.713,0.668
2352144,-3491.0,7461.0,129.0,0.182,-0.106,0.713,0.668
2352161,-3435.0,7445.0,163.0,0.183,-0.105,0.713,0.669
2352177,-3433.0,7463.0,201.0,0.184,-0.103,0.713,0.669
2352194,-3387.0,7499.0,173.0,0.185,-0.102,0.713,0.669
2352221,-3365.0,7543.0,157.0,0.185,-0.101,0.713,0.669
2352237,-3375.0,7485.0,187.0,0.186,-0.099,0.713,0.669
2352254,-3321.0,7521.0,197.0,0.186,-0.098,0.713,0.669
2352270,-3351.0,7477.0,221.0,0.187,-0.096,0.712,0.67
2352286,-3347.0,7471.0,239.0,0.187,-0.094,0.712,0.67
2352302,-3387.0,7451.0,213.0,0.188,-0.093,0.712,0.67
2352319,-3369.0,7469.0,225.0,0.189,-0.091,0.712,0.67
2352336,-3369.0,7463.0,233.0,0.19,-0.09,0.712,0.67
2352363,-3313.0,7485.0,223.0,0.19,-0.088,0.712,0.67
2352380,-3311.0,7473.0,221.0,0.191,-0.087,0.711,0.671
2352396,-3353.0,7435.0,169.0,0.192,-0.086,0.711,0.671
2352413,-3309.0,7395.0,139.0,0.192,-0.086,0.711,0.671
2352429,-3333.0,7311.0,79.0,0.193,-0.085,0.71,0.672
2352445,-3377.0,7273.0,1.0,0.193,-0.085,0.71,0.672
2352461,-3527.0,7177.0,-81.0,0.194,-0.085,0.71,0.671
2352488,-3579.0,7111.0,-157.0,0.195,-0.085,0.71,0.671
2352505,-3647.0,7115.0,-205.0,0.197,-0.085,0.71,0.671
2352522,-3765.0,7071.0,-285.0,0.198,-0.085,0.711,0.67
2352539,-3761.0,7137.0,-347.0,0.2,-0.085,0.711,0.669
2352555,-3837.0,7179.0,-371.0,0.201,-0.086,0.711,0.668
2352572,-3885.0,7251.0,-419.0,0.203,-0.086,0.712,0.667
2352589,-3907.0,7307.0,-387.0,0.204,-0.087,0.712,0.666
2352606,-3821.0,7323.0,-419.0,0.205,-0.088,0.712,0.666
2352623,-3743.0,7375.0,-437.0,0.205,-0.088,0.712,0.665
2352640,-3749.0,7379.0,-477.0,0.206,-0.089,0.712,0.665
2352657,-3591.0,7503.0,-385.0,0.205,-0.09,0.712,0.665
2352674,-3519.0,7493.0,-401.0,0.205,-0.09,0.712,0.665
2352691,-3461.0,7491.0,-389.0,0.204,-0.091,0.712,0.665
2352708,-3517.0,7429.0,-395.0,0.203,-0.092,0.712,0.666
2352725,-3659.0,7327.0,-273.0,0.202,-0.092,0.712,0.666
2352752,-3561.0,7359.0,-237.0,0.202,-0.093,0.713,0.666
2352769,-3477.0,7775.0,-203.0,0.201,-0.093,0.713,0.665
2352785,-3319.0,8221.0,-205.0,0.201,-0.093,0.713,0.665
2352802,-3221.0,8583.0,-227.0,0.2,-0.093,0.714,0.665
2352818,-3159.0,8429.0,-57.0,0.199,-0.092,0.714,0.665
2352834,-3369.0,8107.0,-127.0,0.198,-0.092,0.713,0.666
2352850,-3461.0,7843.0,-183.0,0.197,-0.092,0.712,0.667
2352876,-3539.0,7863.0,-227.0,0.195,-0.092,0.711,0.669
2352893,-1567.0,10521.0,2879.0,0.192,-0.094,0.708,0.673
2352910,-4519.0,5203.0,603.0,0.188,-0.096,0.701,0.681
2352927,-3569.0,7465.0,155.0,0.184,-0.097,0.696,0.687
2352944,-3933.0,6945.0,451.0,0.18,-0.099,0.691,0.693
2352961,-4425.0,7317.0,503.0,0.176,-0.1,0.686,0.699
2352977,-4709.0,7311.0,889.0,0.172,-0.1,0.682,0.704
2352994,-4647.0,7275.0,955.0,0.168,-0.099,0.679,0.708
2353010,-4487.0,7315.0,993.0,0.163,-0.096,0.678,0.71
2353027,-4309.0,7437.0,977.0,0.159,-0.093,0.679,0.711
2353044,-4289.0,8501.0,1629.0,0.156,-0.091,0.68,0.711
2353071,-4507.0,8069.0,1099.0,0.154,-0.089,0.681,0.711
2353088,-4403.0,8489.0,969.0,0.154,-0.087,0.681,0.711
2353105,-4199.0,7999.0,665.0,0.154,-0.085,0.68,0.712
2353121,-4063.0,7931.0,841.0,0.155,-0.084,0.68,0.712
2353137,-3679.0,8561.0,771.0,0.156,-0.083,0.678,0.713
2353153,-3645.0,7675.0,527.0,0.157,-0.082,0.675,0.716
2353169,-2895.0,7679.0,621.0,0.156,-0.081,0.672,0.72
2353195,-2845.0,7491.0,597.0,0.155,-0.083,0.666,0.725
2353211,-2809.0,8211.0,613.0,0.155,-0.085,0.662,0.728
2353227,-2365.0,7355.0,987.0,0.155,-0.09,0.657,0.732
2353243,-3269.0,6601.0,1167.0,0.157,-0.098,0.655,0.733
2353260,-2443.0,5689.0,1265.0,0.159,-0.104,0.657,0.73
2353277,-3277.0,6789.0,1369.0,0.158,-0.108,0.658,0.728
2353294,-3403.0,5525.0,1089.0,0.155,-0.107,0.661,0.726
2353311,-2609.0,5881.0,771.0,0.152,-0.106,0.665,0.724
2353327,-2633.0,6159.0,647.0,0.15,-0.105,0.668,0.721
2353354,-2333.0,6293.0,759.0,0.148,-0.105,0.672,0.718
2353371,-2241.0,7073.0,833.0,0.146,-0.105,0.676,0.714
2353387,-2435.0,7515.0,783.0,0.145,-0.104,0.681,0.711
2353404,-2615.0,7379.0,579.0,0.142,-0.102,0.685,0.707
2353420,-2729.0,7115.0,359.0,0.14,-0.1,0.69,0.703
2353437,-2125.0,7661.0,397.0,0.138,-0.098,0.694,0.7
2353453,-2355.0,7189.0,493.0,0.135,-0.095,0.699,0.696
2353469,-2629.0,6553.0,553.0,0.133,-0.091,0.705,0.691
2353495,-2553.0,6725.0,587.0,0.132,-0.087,0.713,0.683
2353512,-2241.0,7807.0,105.0,0.132,-0.082,0.722,0.674
2353528,-1913.0,9149.0,-533.0,0.133,-0.08,0.731,0.665
2353544,-1713.0,9885.0,-849.0,0.133,-0.079,0.735,0.66
2353561,-1969.0,9371.0,-1063.0,0.132,-0.081,0.737,0.658
2353578,-2479.0,8615.0,-1047.0,0.13,-0.083,0.737,0.659
2353595,-2717.0,7531.0,-977.0,0.13,-0.084,0.736,0.659
2353612,-2919.0,7171.0,-961.0,0.13,-0.085,0.736,0.659
2353628,-3127.0,7309.0,-1187.0,0.131,-0.084,0.737,0.658
2353654,-3075.0,7379.0,-1345.0,0.132,-0.083,0.737,0.657
2353670,-3129.0,7351.0,-1335.0,0.133,-0.08,0.736,0.659
2353686,-3049.0,6807.0,-1063.0,0.134,-0.076,0.734,0.662
2353702,-2887.0,5827.0,-725.0,0.134,-0.07,0.732,0.665
2353719,-2781.0,5315.0,-575.0,0.136,-0.062,0.729,0.668
2353735,-2277.0,4859.0,-411.0,0.136,-0.053,0.728,0.67
2353761,-959.0,5891.0,5.0,0.136,-0.045,0.726,0.672
2353777,-795.0,6987.0,1377.0,0.134,-0.039,0.725,0.675
2353793,-867.0,8759.0,1919.0,0.131,-0.037,0.723,0.678
2353809,-1795.0,10323.0,1537.0,0.13,-0.038,0.721,0.68
2353825,-2479.0,9965.0,779.0,0.13,-0.039,0.719,0.681
2353851,-2285.0,9457.0,-41.0,0.132,-0.038,0.718,0.682
2353867,-2221.0,9209.0,-275.0,0.133,-0.037,0.716,0.684
2353883,-2797.0,8147.0,-195.0,0.134,-0.037,0.714,0.686
2353899,-3015.0,7307.0,-133.0,0.135,-0.037,0.711,0.689
2353915,-2965.0,7515.0,-137.0,0.138,-0.036,0.708,0.692
2353932,-2681.0,8009.0,-305.0,0.142,-0.035,0.705,0.694
2353948,-1729.0,8219.0,-225.0,0.146,-0.034,0.702,0.696
2353965,-1619.0,8785.0,131.0,0.149,-0.033,0.699,0.699
2353991,-1693.0,8353.0,607.0,0.151,-0.033,0.694,0.703
2354008,-2113.0,8211.0,909.0,0.154,-0.034,0.689,0.707
2354025,-2313.0,7633.0,1139.0,0.156,-0.035,0.685,0.711
2354042,-2367.0,7367.0,1303.0,0.16,-0.036,0.681,0.714
2354059,-2207.0,6823.0,1365.0,0.163,-0.035,0.679,0.715
2354076,-2119.0,6953.0,1215.0,0.166,-0.033,0.678,0.715
2354093,-2045.0,6893.0,1227.0,0.168,-0.032,0.678,0.715
2354110,-2033.0,7157.0,1251.0,0.17,-0.031,0.678,0.714
2354127,-1975.0,7591.0,1097.0,0.171,-0.03,0.679,0.713
2354143,-1681.0,8293.0,871.0,0.173,-0.029,0.68,0.712
2354160,-1769.0,8439.0,837.0,0.175,-0.029,0.681,0.71
2354177,-1645.0,8411.0,711.0,0.177,-0.028,0.682,0.709
2354203,-1895.0,8553.0,635.0,0.18,-0.027,0.682,0.708
2354220,-1775.0,7979.0,647.0,0.183,-0.025,0.684,0.706
2354236,-1717.0,8169.0,653.0,0.187,-0.023,0.685,0.704
2354252,-1795.0,7983.0,663.0,0.19,-0.021,0.686,0.702
2354268,-1851.0,7783.0,919.0,0.194,-0.019,0.687,0.7
2354284,-1961.0,7899.0,911.0,0.198,-0.016,0.688,0.698
2354301,-1919.0,7977.0,1059.0,0.203,-0.013,0.69,0.695
2354327,-1925.0,8367.0,1287.0,0.206,-0.01,0.691,0.693
2354343,-1779.0,8639.0,1395.0,0.21,-0.007,0.692,0.69
2354359,-1659.0,8713.0,1305.0,0.214,-0.004,0.693,0.689
2354376,-1435.0,8267.0,1151.0,0.217,-0.002,0.693,0.687
2354392,-1377.0,7897.0,1205.0,0.22,-0.001,0.694,0.686
2354409,-1313.0,8187.0,1227.0,0.222,-0.001,0.694,0.685
2354426,-1345.0,7855.0,1261.0,0.224,-0.001,0.693,0.685
2354443,-1331.0,7913.0,1247.0,0.226,-0.002,0.694,0.684
2354469,-1317.0,7587.0,1275.0,0.227,-0.003,0.694,0.683
2354486,-1451.0,7579.0,1383.0,0.228,-0.006,0.694,0.682
2354502,-2149.0,7349.0,1343.0,0.228,-0.011,0.695,0.682
2354518,-2357.0,7319.0,1409.0,0.228,-0.017,0.694,0.683
2354534,-2731.0,7351.0,1311.0,0.227,-0.023,0.694,0.683
2354550,-2757.0,7171.0,1283.0,0.226,-0.029,0.693,0.684
2354566,-2965.0,7179.0,951.0,0.224,-0.035,0.693,0.684
2354592,-3305.0,7661.0,881.0,0.222,-0.043,0.692,0.685
2354609,-3671.0,7829.0,785.0,0.219,-0.05,0.692,0.686
2354626,-3927.0,7861.0,919.0,0.217,-0.057,0.691,0.687
2354643,-4155.0,7797.0,933.0,0.215,-0.064,0.69,0.688
2354660,-4025.0,7629.0,675.0,0.213,-0.07,0.689,0.689
2354677,-4275.0,7729.0,615.0,0.21,-0.077,0.688,0.69
2354693,-4537.0,7217.0,471.0,0.207,-0.084,0.687,0.692
2354710,-4341.0,7029.0,245.0,0.203,-0.09,0.685,0.694
2354726,-4253.0,6901.0,95.0,0.198,-0.097,0.684,0.695
2354743,-4165.0,6683.0,137.0,0.194,-0.102,0.683,0.697
2354770,-4269.0,6401.0,317.0,0.189,-0.108,0.681,0.699
2354787,-4249.0,6405.0,579.0,0.186,-0.113,0.68,0.7
2354803,-4513.0,6777.0,863.0,0.182,-0.117,0.68,0.701
2354820,-4257.0,6731.0,791.0,0.179,-0.121,0.679,0.702
2354837,-4321.0,6495.0,479.0,0.176,-0.125,0.679,0.701
2354854,-4607.0,6783.0,189.0,0.173,-0.129,0.68,0.701
2354870,-4197.0,6525.0,-75.0,0.171,-0.132,0.68,0.7
2354887,-4403.0,7049.0,-127.0,0.169,-0.136,0.68,0.7
2354903,-4789.0,6875.0,-109.0,0.167,-0.139,0.68,0.7
2354929,-4973.0,7033.0,77.0,0.165,-0.142,0.679,0.701
2354945,-4549.0,6761.0,289.0,0.163,-0.144,0.679,0.702
2354961,-4555.0,6597.0,315.0,0.161,-0.146,0.678,0.702
2354977,-4461.0,6501.0,433.0,0.159,-0.147,0.678,0.703
2354993,-4537.0,6821.0,491.0,0.156,-0.148,0.677,0.704
2355010,-4313.0,6671.0,545.0,0.154,-0.149,0.677,0.704
2355027,-4319.0,6793.0,515.0,0.151,-0.149,0.677,0.705
2355053,-4071.0,6871.0,499.0,0.148,-0.15,0.677,0.706
2355070,-4069.0,7009.0,393.0,0.144,-0.151,0.676,0.707
2355086,-4191.0,7159.0,303.0,0.14,-0.152,0.675,0.708
2355102,-4131.0,7347.0,507.0,0.136,-0.154,0.674,0.71
2355118,-4055.0,7283.0,569.0,0.131,-0.156,0.671,0.713
2355134,-3983.0,7091.0,705.0,0.125,-0.157,0.669,0.716
2355150,-3985.0,7319.0,819.0,0.12,-0.158,0.666,0.719
2355177,-3967.0,7163.0,861.0,0.115,-0.159,0.663,0.722
2355193,-3801.0,6981.0,741.0,0.11,-0.159,0.661,0.725
2355210,-3667.0,6981.0,587.0,0.104,-0.16,0.659,0.728
2355226,-3407.0,7165.0,483.0,0.099,-0.16,0.656,0.731
2355243,-3189.0,7313.0,461.0,0.094,-0.16,0.654,0.734
2355259,-3251.0,7515.0,543.0,0.089,-0.159,0.651,0.737
2355276,-3291.0,7677.0,531.0,0.086,-0.158,0.649,0.739
2355293,-2973.0,7427.0,595.0,0.084,-0.157,0.647,0.742
2355310,-2917.0,7581.0,849.0,0.083,-0.155,0.645,0.743
2355336,-2597.0,7381.0,969.0,0.083,-0.153,0.645,0.744
2355352,-2451.0,7419.0,919.0,0.083,-0.151,0.644,0.745
2355369,-2681.0,7643.0,735.0,0.084,-0.15,0.645,0.745
2355385,-2559.0,7587.0,641.0,0.085,-0.148,0.646,0.744
2355401,-2523.0,7757.0,511.0,0.086,-0.146,0.647,0.743
2355418,-2445.0,7993.0,383.0,0.086,-0.144,0.649,0.742
2355435,-2389.0,7955.0,341.0,0.087,-0.142,0.651,0.741
2355451,-2227.0,7711.0,449.0,0.087,-0.14,0.653,0.739
2355477,-2267.0,7967.0,533.0,0.088,-0.138,0.655,0.738
2355493,-2349.0,7935.0,701.0,0.089,-0.136,0.656,0.737
2355509,-2527.0,7827.0,731.0,0.091,-0.135,0.657,0.736
2355526,-2603.0,7931.0,955.0,0.092,-0.133,0.657,0.736
2355543,-2693.0,8155.0,1183.0,0.094,-0.132,0.657,0.736
2355560,-2747.0,8299.0,1553.0,0.095,-0.131,0.657,0.737
2355576,-2697.0,8213.0,1777.0,0.096,-0.131,0.656,0.737
2355593,-2699.0,8079.0,1919.0,0.097,-0.131,0.656,0.737
2355619,-2823.0,7767.0,1949.0,0.097,-0.131,0.657,0.736
2355635,-2937.0,7493.0,2045.0,0.097,-0.131,0.657,0.736
2355651,-2907.0,7339.0,2097.0,0.097,-0.131,0.657,0.736
2355667,-2751.0,7379.0,2005.0,0.095,-0.13,0.658,0.736
2355683,-2805.0,7395.0,1887.0,0.094,-0.13,0.658,0.736
2355699,-2817.0,7441.0,1743.0,0.092,-0.131,0.657,0.736
2355725,-2813.0,7647.0,1669.0,0.09,-0.131,0.656,0.737
2355742,-2765.0,7695.0,1747.0,0.088,-0.132,0.655,0.739
2355759,-2683.0,7551.0,1689.0,0.086,-0.132,0.653,0.741
2355776,-2655.0,7345.0,1495.0,0.084,-0.133,0.651,0.743
2355792,-2625.0,7337.0,1399.0,0.082,-0.134,0.649,0.744
2355809,-2715.0,7367.0,1299.0,0.081,-0.135,0.647,0.746
2355826,-2607.0,7349.0,1211.0,0.08,-0.136,0.646,0.747
2355842,-2721.0,7815.0,1083.0,0.08,-0.137,0.646,0.747
2355859,-2609.0,8007.0,943.0,0.078,-0.138,0.646,0.747
2355876,-2551.0,8217.0,753.0,0.077,-0.139,0.646,0.747
2355903,-2761.0,8077.0,623.0,0.076,-0.141,0.645,0.747
2355919,-2727.0,8075.0,743.0,0.075,-0.143,0.644,0.748
2355936,-3199.0,7393.0,971.0,0.075,-0.145,0.643,0.748
2355953,-3505.0,7357.0,1381.0,0.075,-0.146,0.643,0.748
2355969,-3409.0,6949.0,1545.0,0.076,-0.146,0.644,0.747
2355985,-3291.0,6827.0,1581.0,0.077,-0.146,0.645,0.746
2356002,-3313.0,7193.0,1589.0,0.079,-0.146,0.646,0.745
2356018,-3299.0,7189.0,1553.0,0.08,-0.146,0.647,0.744
2356044,-3375.0,6825.0,1745.0,0.081,-0.146,0.648,0.743
2356060,-3185.0,6973.0,1839.0,0.082,-0.147,0.649,0.742
2356076,-3065.0,6993.0,1877.0,0.083,-0.147,0.65,0.741
2356092,-3043.0,6839.0,1787.0,0.084,-0.148,0.651,0.74
2356109,-3029.0,6699.0,1647.0,0.083,-0.149,0.651,0.74
2356125,-2989.0,7209.0,1527.0,0.082,-0.151,0.651,0.739
2356142,-3053.0,7893.0,1519.0,0.081,-0.153,0.65,0.74
2356159,-2905.0,8667.0,1705.0,0.079,-0.154,0.649,0.741
2356186,-2467.0,9279.0,1877.0,0.079,-0.156,0.647,0.742
2356202,-1999.0,9191.0,1905.0,0.078,-0.157,0.645,0.744
2356218,-1585.0,8389.0,1227.0,0.078,-0.159,0.643,0.746
2356234,-2057.0,7611.0,945.0,0.078,-0.16,0.64,0.748
2356251,-2189.0,7453.0,887.0,0.078,-0.162,0.637,0.749
2356268,-2259.0,6807.0,1387.0,0.078,-0.163,0.636,0.751
2356285,-2795.0,6635.0,1903.0,0.08,-0.164,0.635,0.751
2356301,-2777.0,6281.0,1719.0,0.082,-0.165,0.636,0.749
2356327,-3111.0,6351.0,1101.0,0.084,-0.167,0.638,0.747
2356343,-3261.0,6697.0,579.0,0.086,-0.169,0.64,0.745
2356360,-3377.0,6861.0,259.0,0.087,-0.172,0.64,0.744
2356376,-3681.0,6515.0,161.0,0.087,-0.175,0.64,0.743
2356393,-3741.0,5943.0,445.0,0.087,-0.176,0.639,0.744
2356410,-3613.0,5495.0,1001.0,0.086,-0.176,0.639,0.744
2356426,-3633.0,6165.0,1375.0,0.086,-0.175,0.639,0.744
2356452,-3413.0,6729.0,1193.0,0.086,-0.173,0.64,0.744
2356469,-3005.0,7097.0,1085.0,0.086,-0.171,0.641,0.743
2356486,-2853.0,6875.0,877.0,0.085,-0.17,0.641,0.744
2356503,-2939.0,5807.0,939.0,0.084,-0.168,0.641,0.744
2356520,-3379.0,6189.0,1289.0,0.083,-0.166,0.641,0.744
2356537,-3703.0,6571.0,1109.0,0.08,-0.164,0.641,0.746
2356553,-4141.0,6407.0,983.0,0.077,-0.161,0.64,0.747
2356570,-3845.0,5641.0,897.0,0.073,-0.157,0.64,0.749
2356587,-3863.0,5505.0,1065.0,0.068,-0.152,0.639,0.751
2356604,-3561.0,6197.0,1051.0,0.062,-0.146,0.639,0.752
2356621,-3213.0,6387.0,1003.0,0.057,-0.139,0.641,0.753
