timeMs,ax,ay,az,q0,q1,q2,q3
1913847,1317.0,7794.0,2145.0,0.775,0.619,0.023,0.127
1913863,1167.0,7666.0,2149.0,0.775,0.618,0.024,0.128
1913879,1065.0,7804.0,2057.0,0.776,0.617,0.025,0.128
1913895,879.0,7956.0,1961.0,0.777,0.616,0.025,0.128
1913911,103.0,8222.0,1719.0,0.777,0.616,0.025,0.127
1913937,257.0,8100.0,2011.0,0.778,0.615,0.025,0.126
1913953,661.0,7512.0,2525.0,0.778,0.615,0.024,0.126
1913969,971.0,7198.0,2625.0,0.779,0.614,0.024,0.125
1913985,1001.0,7856.0,2203.0,0.779,0.615,0.024,0.125
1914001,835.0,8292.0,1819.0,0.778,0.615,0.023,0.124
1914017,857.0,8146.0,1735.0,0.779,0.615,0.022,0.123
1914043,1221.0,7856.0,2057.0,0.779,0.614,0.021,0.122
1914059,1253.0,7720.0,2307.0,0.78,0.614,0.02,0.121
1914075,1227.0,7776.0,2271.0,0.78,0.614,0.02,0.12
1914091,1079.0,7810.0,2223.0,0.78,0.613,0.019,0.12
1914107,919.0,7918.0,2085.0,0.781,0.613,0.018,0.12
1914123,905.0,7994.0,2015.0,0.781,0.613,0.017,0.119
1914149,1005.0,7808.0,2085.0,0.781,0.613,0.017,0.119
1914165,1077.0,7706.0,2159.0,0.781,0.612,0.017,0.119
1914181,1071.0,7718.0,2195.0,0.782,0.612,0.017,0.119
1914197,877.0,7820.0,2189.0,0.782,0.612,0.016,0.119
1914213,839.0,7896.0,2211.0,0.782,0.612,0.016,0.119
1914229,869.0,7852.0,2233.0,0.782,0.612,0.016,0.118
1914255,927.0,7848.0,2283.0,0.782,0.612,0.016,0.118
1914274,925.0,7844.0,2293.0,0.782,0.611,0.015,0.117
1914290,915.0,7804.0,2197.0,0.782,0.612,0.015,0.117
1914307,985.0,7828.0,2153.0,0.782,0.612,0.014,0.116
1914323,1019.0,7830.0,2225.0,0.783,0.612,0.014,0.115
1914339,1025.0,7860.0,2191.0,0.783,0.612,0.013,0.114
1914355,1075.0,7894.0,2229.0,0.783,0.612,0.012,0.113
1914371,1015.0,7902.0,2157.0,0.783,0.612,0.011,0.112
1914397,981.0,7846.0,2131.0,0.783,0.612,0.011,0.111
1914413,903.0,7774.0,2245.0,0.783,0.611,0.01,0.11
1914429,941.0,7846.0,2203.0,0.784,0.611,0.01,0.11
1914445,957.0,7802.0,2199.0,0.784,0.611,0.009,0.109
1914461,1013.0,7784.0,2167.0,0.784,0.611,0.009,0.109
1914478,1029.0,7868.0,2219.0,0.784,0.611,0.009,0.108
1914495,1051.0,7886.0,2281.0,0.784,0.611,0.008,0.108
1914521,1047.0,7860.0,2239.0,0.785,0.611,0.008,0.108
1914537,1067.0,7792.0,2259.0,0.785,0.61,0.007,0.107
1914553,1035.0,7882.0,2225.0,0.785,0.61,0.007,0.106
1914569,943.0,7864.0,2237.0,0.785,0.61,0.006,0.105
1914595,877.0,7846.0,2165.0,0.786,0.61,0.006,0.105
1914620,931.0,7856.0,2237.0,0.786,0.609,0.005,0.104
1914627,983.0,7776.0,2281.0,0.786,0.609,0.005,0.103
1914643,1017.0,7832.0,2263.0,0.786,0.609,0.004,0.103
1914659,1023.0,7804.0,2205.0,0.786,0.61,0.004,0.102
1914677,1009.0,7880.0,2193.0,0.786,0.61,0.003,0.102
1914695,1003.0,7856.0,2195.0,0.786,0.609,0.003,0.101
1914712,987.0,7906.0,2199.0,0.786,0.609,0.003,0.101
1914731,1027.0,7776.0,2261.0,0.787,0.609,0.002,0.101
1914747,1059.0,7726.0,2295.0,0.787,0.609,0.002,0.1
1914763,1009.0,7814.0,2277.0,0.787,0.609,0.002,0.1
1914779,1001.0,7780.0,2265.0,0.787,0.609,0.002,0.1
1914795,1017.0,7854.0,2221.0,0.787,0.609,0.001,0.099
1914821,1001.0,7854.0,2247.0,0.787,0.609,0.001,0.099
1914837,1023.0,7838.0,2279.0,0.787,0.609,0.001,0.099
1914853,1035.0,7752.0,2285.0,0.787,0.609,0.0,0.099
1914869,1031.0,7814.0,2247.0,0.787,0.609,0.0,0.098
1914885,1005.0,7850.0,2255.0,0.787,0.609,-0.0,0.098
1914901,973.0,7804.0,2251.0,0.787,0.609,-0.001,0.098
1914927,981.0,7892.0,2285.0,0.787,0.609,-0.001,0.098
1914943,983.0,7854.0,2255.0,0.787,0.609,-0.002,0.097
1914959,969.0,7792.0,2261.0,0.788,0.609,-0.002,0.097
1914975,1019.0,7816.0,2261.0,0.788,0.609,-0.003,0.096
1914991,917.0,7760.0,2221.0,0.788,0.609,-0.003,0.096
1915007,955.0,7838.0,2235.0,0.788,0.609,-0.003,0.096
1915033,965.0,7858.0,2159.0,0.787,0.609,-0.003,0.095
1915049,923.0,7786.0,2201.0,0.787,0.609,-0.004,0.094
1915065,977.0,7794.0,2241.0,0.787,0.609,-0.004,0.094
1915081,955.0,7838.0,2259.0,0.787,0.609,-0.004,0.093
1915097,975.0,7920.0,2339.0,0.787,0.609,-0.004,0.092
1915123,959.0,7964.0,2319.0,0.788,0.609,-0.005,0.091
1915139,1005.0,7928.0,2291.0,0.788,0.609,-0.005,0.091
1915155,1147.0,7750.0,2273.0,0.788,0.609,-0.006,0.09
1915171,1145.0,7434.0,2081.0,0.788,0.609,-0.006,0.089
1915187,1257.0,7656.0,2213.0,0.788,0.609,-0.007,0.089
1915203,1141.0,7944.0,2223.0,0.788,0.609,-0.007,0.089
1915229,957.0,7846.0,2127.0,0.788,0.609,-0.008,0.089
1915245,955.0,7824.0,2163.0,0.788,0.609,-0.009,0.089
1915261,873.0,8032.0,2303.0,0.788,0.609,-0.009,0.088
1915277,767.0,8086.0,2355.0,0.788,0.609,-0.009,0.088
1915293,845.0,7886.0,2315.0,0.788,0.609,-0.01,0.088
1915309,959.0,7748.0,2251.0,0.789,0.609,-0.01,0.087
1915335,1109.0,7764.0,2241.0,0.789,0.608,-0.01,0.087
1915351,1111.0,7782.0,2149.0,0.789,0.608,-0.011,0.086
1915367,1081.0,7740.0,2161.0,0.789,0.608,-0.011,0.086
1915383,1009.0,7786.0,2225.0,0.789,0.608,-0.011,0.085
1915399,1009.0,7830.0,2291.0,0.789,0.608,-0.012,0.085
1915415,981.0,7868.0,2347.0,0.789,0.608,-0.012,0.085
1915441,1041.0,7800.0,2321.0,0.789,0.608,-0.012,0.084
1915457,1043.0,7702.0,2247.0,0.789,0.608,-0.013,0.084
1915473,1067.0,7750.0,2205.0,0.789,0.608,-0.013,0.084
1915489,1125.0,7884.0,2211.0,0.789,0.608,-0.013,0.083
1915505,1037.0,7858.0,2223.0,0.789,0.608,-0.013,0.083
1915521,1041.0,7888.0,2265.0,0.789,0.608,-0.014,0.083
1915547,1001.0,7812.0,2283.0,0.789,0.608,-0.014,0.083
1915563,993.0,7966.0,2261.0,0.79,0.608,-0.015,0.082
1915579,1041.0,7796.0,2269.0,0.79,0.607,-0.015,0.082
1915595,1033.0,7818.0,2279.0,0.79,0.607,-0.015,0.082
1915611,1019.0,7760.0,2297.0,0.791,0.607,-0.015,0.082
1915627,1053.0,7794.0,2315.0,0.791,0.607,-0.016,0.082
1915653,1005.0,7816.0,2247.0,0.791,0.606,-0.016,0.081
1915669,1015.0,7726.0,2295.0,0.791,0.606,-0.016,0.081
1915685,1021.0,7762.0,2339.0,0.791,0.606,-0.016,0.081
1915701,1035.0,7748.0,2273.0,0.791,0.606,-0.017,0.081
1915717,967.0,7778.0,2297.0,0.791,0.606,-0.017,0.08
1915733,1003.0,7726.0,2315.0,0.791,0.606,-0.017,0.08
1915759,1009.0,7776.0,2299.0,0.792,0.606,-0.017,0.08
1915775,1045.0,7788.0,2283.0,0.792,0.606,-0.018,0.079
1915791,1039.0,7794.0,2351.0,0.792,0.606,-0.018,0.079
1915807,981.0,7756.0,2329.0,0.792,0.606,-0.018,0.078
1915823,995.0,7838.0,2333.0,0.792,0.606,-0.018,0.078
1915839,1007.0,7806.0,2321.0,0.792,0.606,-0.018,0.077
1915865,1013.0,7746.0,2305.0,0.792,0.606,-0.018,0.077
1915881,1015.0,7804.0,2283.0,0.792,0.606,-0.019,0.076
1915897,943.0,7688.0,2317.0,0.792,0.606,-0.019,0.076
1915915,919.0,7778.0,2257.0,0.792,0.606,-0.019,0.075
1915931,997.0,7840.0,2285.0,0.791,0.606,-0.019,0.074
1915947,1051.0,7830.0,2293.0,0.791,0.607,-0.02,0.074
1915963,1065.0,7900.0,2273.0,0.791,0.607,-0.02,0.073
1915982,1095.0,7808.0,2217.0,0.791,0.607,-0.021,0.073
1916002,1083.0,7822.0,2251.0,0.791,0.607,-0.021,0.072
1916025,1031.0,7882.0,2263.0,0.791,0.607,-0.022,0.072
1916041,1017.0,7854.0,2311.0,0.791,0.607,-0.022,0.071
1916057,1075.0,7818.0,2295.0,0.791,0.607,-0.023,0.071
1916073,1037.0,7866.0,2247.0,0.791,0.607,-0.023,0.07
1916089,1033.0,7872.0,2239.0,0.791,0.607,-0.024,0.07
1916105,1019.0,7870.0,2229.0,0.791,0.607,-0.024,0.07
1916131,995.0,7820.0,2245.0,0.791,0.607,-0.024,0.07
1916147,1061.0,7848.0,2205.0,0.791,0.607,-0.024,0.07
1916163,1055.0,7844.0,2237.0,0.791,0.607,-0.025,0.069
1916179,1063.0,7806.0,2299.0,0.791,0.607,-0.025,0.069
1916200,1033.0,7876.0,2311.0,0.792,0.607,-0.025,0.069
1916216,1033.0,7836.0,2255.0,0.792,0.606,-0.025,0.069
1916235,1051.0,7828.0,2291.0,0.792,0.606,-0.025,0.069
1916253,1015.0,7774.0,2343.0,0.792,0.606,-0.026,0.069
1916275,1061.0,7772.0,2281.0,0.792,0.606,-0.026,0.069
1916291,1083.0,7772.0,2255.0,0.792,0.606,-0.026,0.069
1916307,1075.0,7772.0,2299.0,0.793,0.605,-0.026,0.069
1916323,1089.0,7816.0,2257.0,0.793,0.605,-0.027,0.069
1916340,1055.0,7740.0,2321.0,0.793,0.605,-0.027,0.069
1916360,1079.0,8064.0,2273.0,0.793,0.604,-0.027,0.069
1916376,1045.0,7742.0,2307.0,0.794,0.603,-0.027,0.069
1916392,1085.0,7594.0,2363.0,0.795,0.603,-0.028,0.069
1916410,1075.0,7662.0,2401.0,0.795,0.602,-0.028,0.069
1916426,1055.0,7704.0,2405.0,0.795,0.602,-0.028,0.069
1916445,1063.0,7718.0,2405.0,0.795,0.602,-0.028,0.069
1916461,1065.0,7742.0,2401.0,0.795,0.602,-0.028,0.069
1916477,1047.0,7744.0,2353.0,0.795,0.601,-0.029,0.068
1916503,1065.0,7718.0,2371.0,0.796,0.601,-0.029,0.068
1916519,1089.0,7738.0,2387.0,0.796,0.601,-0.029,0.068
1916535,1061.0,7708.0,2427.0,0.795,0.602,-0.029,0.067
1916551,1045.0,7714.0,2443.0,0.795,0.602,-0.029,0.067
1916567,1059.0,7788.0,2391.0,0.795,0.602,-0.03,0.066
1916596,1055.0,7746.0,2373.0,0.795,0.602,-0.03,0.066
1916616,1103.0,7802.0,2397.0,0.795,0.602,-0.03,0.065
1916635,1065.0,7736.0,2389.0,0.795,0.602,-0.03,0.064
1916651,1077.0,7748.0,2329.0,0.795,0.602,-0.031,0.064
1916667,1121.0,8008.0,2325.0,0.796,0.602,-0.031,0.063
1916683,1047.0,7972.0,2355.0,0.796,0.601,-0.031,0.062
1916699,1021.0,7956.0,2357.0,0.797,0.6,-0.031,0.062
1916715,1039.0,7786.0,2355.0,0.798,0.599,-0.031,0.061
1916731,1003.0,7622.0,2355.0,0.798,0.598,-0.031,0.061
1916747,1003.0,7698.0,2475.0,0.799,0.598,-0.031,0.06
1916763,987.0,7780.0,2557.0,0.799,0.597,-0.032,0.06
1916779,1007.0,7690.0,2515.0,0.8,0.597,-0.032,0.059
1916797,1039.0,7648.0,2509.0,0.8,0.596,-0.032,0.058
1916816,1035.0,7654.0,2501.0,0.8,0.597,-0.033,0.058
1916835,1019.0,7756.0,2507.0,0.8,0.597,-0.033,0.057
1916854,1063.0,7776.0,2413.0,0.8,0.597,-0.034,0.057
1916872,1031.0,7816.0,2409.0,0.8,0.597,-0.034,0.056
1916888,1107.0,7790.0,2383.0,0.8,0.597,-0.034,0.056
1916904,1123.0,7810.0,2441.0,0.799,0.597,-0.035,0.055
1916927,1077.0,7758.0,2421.0,0.799,0.597,-0.035,0.055
1916943,1047.0,7818.0,2437.0,0.799,0.597,-0.035,0.055
1916959,1051.0,7796.0,2489.0,0.799,0.597,-0.035,0.055
1916975,1065.0,7726.0,2501.0,0.799,0.598,-0.035,0.055
1916991,1053.0,7756.0,2393.0,0.799,0.598,-0.035,0.055
1917017,1047.0,7734.0,2457.0,0.799,0.597,-0.036,0.055
1917034,1005.0,7736.0,2463.0,0.799,0.597,-0.036,0.055
1917051,1065.0,7794.0,2437.0,0.799,0.597,-0.036,0.055
1917068,1101.0,7696.0,2467.0,0.799,0.597,-0.036,0.055
1917084,1035.0,7730.0,2417.0,0.799,0.597,-0.037,0.056
1917100,1039.0,7788.0,2405.0,0.799,0.597,-0.037,0.056
1917116,1055.0,7720.0,2443.0,0.799,0.597,-0.037,0.056
1917132,1089.0,7706.0,2415.0,0.799,0.597,-0.037,0.056
1917158,1013.0,7724.0,2469.0,0.799,0.597,-0.037,0.055
1917175,1057.0,7728.0,2479.0,0.8,0.597,-0.038,0.055
1917191,1071.0,7724.0,2435.0,0.8,0.597,-0.038,0.055
1917208,1085.0,7708.0,2469.0,0.8,0.597,-0.038,0.055
1917225,1065.0,7706.0,2443.0,0.8,0.597,-0.038,0.055
1917242,1019.0,7730.0,2487.0,0.8,0.597,-0.038,0.054
1917258,1111.0,7666.0,2477.0,0.8,0.597,-0.038,0.054
1917274,1071.0,7758.0,2427.0,0.8,0.597,-0.039,0.054
1917300,1067.0,7716.0,2453.0,0.8,0.597,-0.039,0.053
1917316,1035.0,7728.0,2509.0,0.8,0.597,-0.039,0.053
1917332,1071.0,7814.0,2473.0,0.8,0.597,-0.039,0.052
1917348,1059.0,7708.0,2451.0,0.799,0.597,-0.039,0.052
1917364,1065.0,7726.0,2411.0,0.799,0.597,-0.04,0.051
1917380,1029.0,7760.0,2509.0,0.799,0.598,-0.04,0.051
1917406,1029.0,7780.0,2419.0,0.799,0.598,-0.04,0.05
1917422,1041.0,7750.0,2419.0,0.799,0.598,-0.041,0.05
1917439,1085.0,7818.0,2435.0,0.799,0.598,-0.041,0.049
1917455,1091.0,7842.0,2411.0,0.799,0.598,-0.042,0.049
1917472,1059.0,7818.0,2447.0,0.799,0.599,-0.042,0.048
1917488,1091.0,7790.0,2393.0,0.798,0.599,-0.042,0.048
1917504,1121.0,7792.0,2389.0,0.798,0.599,-0.043,0.048
1917521,1167.0,7820.0,2375.0,0.798,0.599,-0.043,0.047
1917548,1041.0,7786.0,2431.0,0.798,0.599,-0.043,0.047
1917564,1083.0,7800.0,2385.0,0.798,0.599,-0.043,0.047
1917581,1129.0,7794.0,2445.0,0.798,0.599,-0.044,0.047
1917598,1109.0,7814.0,2425.0,0.798,0.599,-0.044,0.047
1917615,1095.0,7788.0,2437.0,0.798,0.599,-0.044,0.047
1917632,1075.0,7800.0,2403.0,0.798,0.599,-0.044,0.047
1917648,1091.0,7788.0,2375.0,0.799,0.598,-0.045,0.047
1917664,1089.0,7778.0,2471.0,0.799,0.598,-0.045,0.047
1917680,1095.0,7744.0,2485.0,0.799,0.598,-0.045,0.047
1917706,1159.0,7780.0,2399.0,0.799,0.598,-0.045,0.048
1917722,1135.0,7684.0,2407.0,0.799,0.598,-0.046,0.048
1917739,1107.0,7696.0,2441.0,0.799,0.598,-0.046,0.048
1917755,1117.0,7702.0,2395.0,0.799,0.597,-0.046,0.048
1917771,1095.0,7702.0,2439.0,0.799,0.597,-0.046,0.048
1917788,1087.0,7686.0,2433.0,0.799,0.597,-0.046,0.048
1917804,1157.0,7696.0,2515.0,0.799,0.597,-0.047,0.049
1917830,1143.0,7778.0,2511.0,0.799,0.597,-0.047,0.049
1917846,1125.0,7758.0,2449.0,0.799,0.597,-0.047,0.049
1917862,1183.0,7710.0,2489.0,0.8,0.597,-0.047,0.048
1917878,1113.0,7684.0,2469.0,0.8,0.597,-0.047,0.048
1917895,1139.0,7756.0,2475.0,0.8,0.597,-0.047,0.048
1917912,1153.0,7694.0,2453.0,0.8,0.597,-0.048,0.048
1917929,1089.0,7738.0,2441.0,0.8,0.597,-0.048,0.047
1917955,1225.0,7676.0,2463.0,0.8,0.597,-0.048,0.047
1917971,1155.0,7742.0,2457.0,0.799,0.597,-0.048,0.047
1917987,1157.0,7716.0,2435.0,0.799,0.597,-0.048,0.046
1918003,1143.0,7716.0,2411.0,0.799,0.597,-0.048,0.046
1918019,1125.0,7794.0,2473.0,0.799,0.598,-0.048,0.046
1918035,1151.0,7756.0,2435.0,0.799,0.598,-0.049,0.045
1918061,1113.0,7790.0,2413.0,0.799,0.598,-0.049,0.045
1918078,1129.0,7732.0,2403.0,0.799,0.598,-0.049,0.044
1918094,1057.0,7776.0,2393.0,0.799,0.598,-0.049,0.044
1918110,1125.0,7766.0,2405.0,0.798,0.598,-0.05,0.044
1918126,1147.0,7788.0,2447.0,0.798,0.599,-0.05,0.043
1918143,1157.0,7790.0,2433.0,0.798,0.599,-0.051,0.043
1918159,1143.0,7780.0,2383.0,0.798,0.599,-0.051,0.043
1918176,1163.0,7788.0,2343.0,0.798,0.599,-0.052,0.042
1918193,1159.0,7780.0,2341.0,0.798,0.599,-0.052,0.042
1918220,1147.0,7776.0,2363.0,0.798,0.599,-0.052,0.042
1918237,1199.0,7764.0,2401.0,0.798,0.599,-0.052,0.042
1918254,1197.0,7750.0,2391.0,0.798,0.599,-0.052,0.042
1918271,1221.0,7774.0,2381.0,0.798,0.599,-0.053,0.042
1918288,1163.0,7830.0,2417.0,0.798,0.598,-0.053,0.042
1918305,1127.0,7848.0,2431.0,0.798,0.598,-0.053,0.042
1918322,1179.0,7824.0,2417.0,0.799,0.598,-0.053,0.042
1918338,1145.0,7756.0,2365.0,0.799,0.598,-0.053,0.042
1918355,1175.0,7716.0,2449.0,0.799,0.598,-0.053,0.042
1918372,1163.0,7700.0,2467.0,0.799,0.597,-0.053,0.042
1918389,1155.0,7744.0,2445.0,0.799,0.597,-0.053,0.043
1918406,1235.0,7716.0,2389.0,0.799,0.597,-0.053,0.043
1918432,1131.0,7692.0,2441.0,0.8,0.597,-0.053,0.043
1918448,1149.0,7666.0,2499.0,0.8,0.596,-0.053,0.043
1918465,1121.0,7688.0,2485.0,0.8,0.596,-0.053,0.043
1918481,1119.0,7726.0,2441.0,0.8,0.596,-0.054,0.043
1918498,1087.0,7712.0,2451.0,0.8,0.596,-0.054,0.043
1918515,1137.0,7664.0,2477.0,0.8,0.596,-0.054,0.043
1918532,1171.0,7694.0,2457.0,0.801,0.595,-0.054,0.042
1918548,1185.0,7686.0,2469.0,0.801,0.595,-0.054,0.042
1918565,1179.0,7730.0,2419.0,0.801,0.595,-0.054,0.042
1918592,1189.0,7690.0,2499.0,0.801,0.595,-0.054,0.042
1918608,1177.0,7716.0,2467.0,0.801,0.595,-0.054,0.041
1918625,1199.0,7726.0,2453.0,0.801,0.595,-0.054,0.041
1918642,1161.0,7692.0,2493.0,0.801,0.595,-0.054,0.041
1918659,1177.0,7700.0,2449.0,0.801,0.595,-0.054,0.04
1918676,1119.0,7702.0,2463.0,0.8,0.596,-0.054,0.04
1918692,1153.0,7746.0,2455.0,0.8,0.596,-0.054,0.04
1918708,1129.0,7738.0,2433.0,0.8,0.596,-0.055,0.039
1918724,1133.0,7736.0,2467.0,0.8,0.596,-0.055,0.039
1918751,1153.0,7784.0,2489.0,0.8,0.596,-0.055,0.038
1918767,1115.0,7756.0,2371.0,0.8,0.596,-0.055,0.038
1918784,1087.0,7710.0,2451.0,0.8,0.596,-0.055,0.038
1918801,1079.0,7774.0,2479.0,0.8,0.597,-0.055,0.037
1918817,1135.0,7818.0,2451.0,0.8,0.597,-0.056,0.037
1918834,1149.0,7750.0,2417.0,0.8,0.597,-0.056,0.037
1918850,1185.0,7790.0,2399.0,0.799,0.597,-0.056,0.036
1918867,1209.0,7778.0,2389.0,0.799,0.597,-0.057,0.036
1918884,1195.0,7780.0,2411.0,0.799,0.597,-0.057,0.036
1918901,1215.0,7772.0,2441.0,0.799,0.597,-0.057,0.036
1918928,1193.0,7836.0,2401.0,0.799,0.597,-0.057,0.036
1918944,1165.0,7782.0,2431.0,0.799,0.597,-0.057,0.036
1918961,1153.0,7750.0,2359.0,0.8,0.597,-0.057,0.036
1918978,1125.0,7782.0,2391.0,0.8,0.597,-0.057,0.036
1918994,1151.0,7772.0,2413.0,0.8,0.596,-0.057,0.036
1919011,1103.0,7714.0,2457.0,0.8,0.596,-0.057,0.036
1919027,1181.0,7738.0,2471.0,0.8,0.596,-0.057,0.036
1919043,1163.0,7754.0,2443.0,0.8,0.596,-0.057,0.036
1919069,1135.0,7774.0,2509.0,0.801,0.595,-0.058,0.036
1919086,1191.0,7754.0,2467.0,0.801,0.595,-0.058,0.037
1919102,1169.0,7670.0,2467.0,0.801,0.595,-0.058,0.037
1919119,1117.0,7666.0,2441.0,0.801,0.595,-0.058,0.037
1919135,1161.0,7734.0,2525.0,0.801,0.595,-0.058,0.037
1919152,1161.0,7734.0,2485.0,0.801,0.594,-0.058,0.037
1919168,1199.0,7716.0,2513.0,0.801,0.594,-0.058,0.037
1919194,1235.0,7700.0,2481.0,0.801,0.594,-0.059,0.037
1919211,1211.0,7690.0,2415.0,0.801,0.594,-0.059,0.037
1919228,1227.0,7642.0,2497.0,0.801,0.594,-0.059,0.037
1919244,1235.0,7678.0,2487.0,0.801,0.594,-0.059,0.037
1919260,1197.0,7698.0,2447.0,0.802,0.594,-0.059,0.037
1919276,1173.0,7700.0,2453.0,0.801,0.594,-0.059,0.036
1919292,1143.0,7692.0,2509.0,0.801,0.594,-0.059,0.036
1919308,1135.0,7698.0,2531.0,0.801,0.594,-0.059,0.036
1919334,1171.0,7682.0,2455.0,0.801,0.594,-0.059,0.035
1919350,1193.0,7708.0,2485.0,0.801,0.594,-0.059,0.035
1919366,1141.0,7776.0,2479.0,0.801,0.595,-0.059,0.034
1919382,1179.0,7762.0,2461.0,0.801,0.595,-0.06,0.034
1919398,1225.0,7740.0,2455.0,0.801,0.595,-0.06,0.033
1919424,1143.0,7696.0,2421.0,0.801,0.595,-0.06,0.033
1919440,1161.0,7726.0,2443.0,0.8,0.596,-0.06,0.033
1919456,1211.0,7798.0,2437.0,0.8,0.596,-0.061,0.032
1919472,1141.0,7782.0,2401.0,0.8,0.596,-0.061,0.032
1919488,1165.0,7774.0,2403.0,0.8,0.596,-0.061,0.031
1919504,1167.0,7824.0,2459.0,0.8,0.596,-0.061,0.031
1919530,1231.0,7768.0,2377.0,0.8,0.596,-0.062,0.031
1919546,1179.0,7762.0,2377.0,0.8,0.596,-0.062,0.03
1919562,1183.0,7810.0,2379.0,0.8,0.596,-0.062,0.03
1919578,1223.0,7798.0,2409.0,0.8,0.596,-0.062,0.03
1919594,1355.0,7888.0,2371.0,0.8,0.596,-0.062,0.031
1919610,1317.0,8086.0,2363.0,0.8,0.596,-0.062,0.031
1919636,1523.0,8124.0,2545.0,0.801,0.595,-0.061,0.032
1919652,1683.0,8454.0,2713.0,0.802,0.594,-0.061,0.033
1919668,1805.0,8640.0,2969.0,0.803,0.591,-0.061,0.035
1919684,1777.0,8956.0,2973.0,0.806,0.588,-0.063,0.037
1919700,2553.0,8934.0,3751.0,0.811,0.581,-0.064,0.039
1919716,1915.0,9194.0,3459.0,0.819,0.568,-0.065,0.041
1919742,2189.0,8202.0,3987.0,0.831,0.55,-0.068,0.042
1919758,2755.0,7978.0,4021.0,0.845,0.529,-0.07,0.043
1919774,2789.0,6816.0,4073.0,0.859,0.504,-0.074,0.044
1919790,3161.0,5778.0,4647.0,0.874,0.478,-0.077,0.047
1919806,2827.0,4444.0,4537.0,0.886,0.454,-0.079,0.048
1919822,3369.0,4980.0,4945.0,0.896,0.433,-0.082,0.05
1919848,2577.0,4992.0,5253.0,0.905,0.415,-0.084,0.053
1919864,2789.0,4538.0,5717.0,0.912,0.397,-0.087,0.056
1919880,2339.0,3614.0,5733.0,0.917,0.383,-0.091,0.06
1919896,2703.0,2852.0,5779.0,0.921,0.371,-0.094,0.067
1919912,2741.0,3120.0,6455.0,0.924,0.361,-0.096,0.076
1919928,2831.0,2902.0,6971.0,0.927,0.353,-0.095,0.086
1919954,2387.0,2836.0,7223.0,0.928,0.346,-0.092,0.1
1919970,1951.0,2988.0,7075.0,0.928,0.342,-0.088,0.117
1919986,2205.0,2844.0,7079.0,0.927,0.338,-0.083,0.138
1920002,2721.0,2174.0,7101.0,0.926,0.333,-0.077,0.16
1920018,2473.0,1702.0,7425.0,0.923,0.33,-0.067,0.184
1920044,2305.0,1912.0,7429.0,0.919,0.331,-0.057,0.209
1920060,2357.0,2138.0,7099.0,0.911,0.335,-0.045,0.236
1920077,2419.0,2174.0,6233.0,0.902,0.342,-0.032,0.263
1920093,2269.0,1406.0,5053.0,0.89,0.351,-0.018,0.29
1920109,1929.0,1224.0,4149.0,0.876,0.364,-0.003,0.317
1920125,1671.0,1116.0,3167.0,0.859,0.38,0.012,0.344
1920141,1873.0,2388.0,2655.0,0.837,0.4,0.026,0.372
1920167,3053.0,5880.0,1563.0,0.813,0.421,0.039,0.4
1920183,3609.0,8624.0,1529.0,0.788,0.44,0.046,0.428
1920199,4759.0,11492.0,823.0,0.764,0.454,0.049,0.456
1920215,4877.0,11372.0,555.0,0.744,0.461,0.044,0.482
1920231,3983.0,9876.0,551.0,0.729,0.463,0.035,0.502
1920257,4213.0,8086.0,647.0,0.72,0.461,0.023,0.518
1920273,4185.0,6252.0,851.0,0.713,0.459,0.01,0.529
1920289,4167.0,4318.0,1175.0,0.707,0.459,-0.002,0.538
1920305,4705.0,2514.0,1999.0,0.697,0.463,-0.01,0.547
1920321,5151.0,1990.0,2513.0,0.683,0.474,-0.015,0.556
1920337,5545.0,2826.0,2445.0,0.664,0.49,-0.017,0.565
1920363,6207.0,4140.0,2347.0,0.642,0.507,-0.019,0.575
1920379,6847.0,5430.0,1987.0,0.621,0.521,-0.025,0.585
1920396,7163.0,6034.0,1413.0,0.602,0.529,-0.035,0.597
1920412,7427.0,5672.0,1205.0,0.586,0.533,-0.05,0.608
1920428,8015.0,4408.0,1391.0,0.572,0.533,-0.067,0.62
1920445,8291.0,3410.0,1605.0,0.558,0.533,-0.085,0.631
1920461,8431.0,3190.0,1581.0,0.542,0.534,-0.1,0.641
1920477,8757.0,3166.0,1781.0,0.525,0.537,-0.116,0.65
1920503,8983.0,3366.0,2025.0,0.508,0.542,-0.13,0.657
1920519,8953.0,3836.0,1843.0,0.489,0.547,-0.144,0.664
1920535,9307.0,4678.0,1965.0,0.471,0.552,-0.159,0.669
1920551,9137.0,6198.0,1977.0,0.457,0.555,-0.176,0.672
1920567,8581.0,6256.0,2315.0,0.449,0.555,-0.196,0.672
1920583,8585.0,5272.0,2681.0,0.446,0.553,-0.22,0.669
1920609,8605.0,4684.0,3031.0,0.447,0.549,-0.245,0.662
1920625,8685.0,5560.0,2827.0,0.451,0.544,-0.272,0.654
1920641,9063.0,5876.0,2823.0,0.461,0.535,-0.301,0.641
1920657,9011.0,5430.0,2325.0,0.477,0.522,-0.334,0.623
1920673,9027.0,3134.0,1927.0,0.497,0.505,-0.367,0.602
1920699,8895.0,980.0,1965.0,0.519,0.487,-0.398,0.579
1920715,8561.0,-824.0,2465.0,0.538,0.47,-0.424,0.556
1920732,8413.0,-3098.0,3253.0,0.554,0.458,-0.443,0.535
1920748,8403.0,-5290.0,4219.0,0.565,0.452,-0.455,0.519
1920764,8325.0,-6514.0,5253.0,0.568,0.455,-0.458,0.51
1920780,8421.0,-5004.0,5481.0,0.563,0.465,-0.454,0.511
1920796,8885.0,-1682.0,5167.0,0.552,0.479,-0.444,0.518
1920822,9463.0,614.0,4671.0,0.542,0.492,-0.432,0.528
1920838,9411.0,1804.0,4567.0,0.534,0.502,-0.418,0.537
1920854,9289.0,1352.0,4435.0,0.529,0.51,-0.403,0.545
1920870,8805.0,-68.0,4461.0,0.525,0.518,-0.386,0.554
1920886,8559.0,-592.0,4551.0,0.519,0.529,-0.364,0.565
1920902,8647.0,-630.0,4449.0,0.508,0.543,-0.337,0.578
1920928,8807.0,234.0,3699.0,0.493,0.56,-0.304,0.592
1920945,9073.0,2066.0,2937.0,0.475,0.578,-0.267,0.607
1920962,8867.0,4014.0,2445.0,0.458,0.595,-0.226,0.62
1920978,8775.0,5514.0,1987.0,0.444,0.609,-0.186,0.63
1920996,8551.0,6638.0,1873.0,0.434,0.62,-0.148,0.637
1921013,8403.0,7020.0,1765.0,0.429,0.627,-0.113,0.64
1921030,8667.0,7412.0,1693.0,0.428,0.632,-0.082,0.641
1921046,8733.0,6888.0,1477.0,0.43,0.635,-0.052,0.64
1921062,8985.0,7324.0,1113.0,0.435,0.637,-0.024,0.636
1921088,9407.0,7628.0,775.0,0.442,0.638,0.003,0.631
1921104,9133.0,7668.0,439.0,0.453,0.637,0.028,0.624
1921120,8581.0,8096.0,721.0,0.467,0.633,0.052,0.615
1921136,8649.0,6206.0,355.0,0.484,0.627,0.074,0.606
1921152,7353.0,6054.0,-293.0,0.502,0.618,0.091,0.599
1921168,6387.0,7726.0,-1157.0,0.524,0.603,0.101,0.593
1921194,8131.0,4210.0,849.0,0.546,0.585,0.106,0.59
1921210,4115.0,5398.0,-1025.0,0.568,0.571,0.115,0.582
1921227,4947.0,7638.0,-1499.0,0.594,0.557,0.122,0.568
1921244,4951.0,6494.0,-1395.0,0.62,0.543,0.126,0.553
1921261,4227.0,6160.0,-1423.0,0.646,0.527,0.126,0.538
1921278,3579.0,4666.0,-1133.0,0.672,0.509,0.124,0.524
1921295,2737.0,2944.0,-421.0,0.696,0.492,0.119,0.509
1921311,2015.0,1794.0,59.0,0.717,0.477,0.114,0.494
1921328,1853.0,1826.0,403.0,0.736,0.465,0.108,0.48
1921345,1639.0,1792.0,785.0,0.753,0.454,0.1,0.466
1921372,1857.0,1958.0,937.0,0.767,0.443,0.089,0.454
1921388,1793.0,1160.0,1041.0,0.78,0.433,0.076,0.444
1921404,1833.0,372.0,1079.0,0.791,0.425,0.062,0.436
1921420,1949.0,78.0,1105.0,0.798,0.421,0.048,0.429
1921436,2171.0,202.0,1053.0,0.802,0.419,0.032,0.424
1921452,2531.0,540.0,705.0,0.804,0.421,0.015,0.42
1921468,3971.0,2008.0,1591.0,0.804,0.423,-0.004,0.418
1921494,9359.0,9306.0,7527.0,0.809,0.414,-0.023,0.416
1921511,5387.0,25924.0,21131.0,0.831,0.374,-0.04,0.41
1921528,3431.0,4660.0,18255.0,0.85,0.329,-0.066,0.407
1921545,5053.0,-5350.0,11969.0,0.86,0.302,-0.082,0.403
1921562,4165.0,-4202.0,8439.0,0.862,0.295,-0.086,0.403
1921578,3575.0,-4118.0,5353.0,0.859,0.301,-0.081,0.406
1921595,3587.0,-1744.0,3759.0,0.853,0.318,-0.07,0.408
1921611,3261.0,816.0,4271.0,0.846,0.337,-0.059,0.41
1921628,3443.0,3358.0,5581.0,0.838,0.353,-0.052,0.412
1921655,3935.0,6346.0,6385.0,0.832,0.364,-0.049,0.415
1921671,4263.0,7114.0,6633.0,0.829,0.371,-0.047,0.417
1921687,3953.0,6814.0,6491.0,0.827,0.375,-0.044,0.416
1921703,3681.0,6666.0,5867.0,0.826,0.38,-0.041,0.415
1921719,3233.0,5764.0,5115.0,0.825,0.383,-0.039,0.413
1921735,3051.0,5088.0,4741.0,0.825,0.384,-0.039,0.412
1921751,3049.0,4494.0,4901.0,0.826,0.383,-0.041,0.411
1921777,3189.0,4730.0,5337.0,0.827,0.382,-0.043,0.411
1921794,3291.0,5014.0,6051.0,0.828,0.379,-0.045,0.41
1921811,3203.0,5016.0,6445.0,0.829,0.376,-0.047,0.41
1921828,3097.0,4502.0,6545.0,0.83,0.374,-0.048,0.411
1921845,2945.0,4056.0,6387.0,0.83,0.373,-0.048,0.411
1921862,2891.0,4008.0,6245.0,0.83,0.374,-0.047,0.412
1921879,2957.0,4382.0,6125.0,0.828,0.376,-0.045,0.413
1921895,3073.0,4820.0,6011.0,0.827,0.378,-0.042,0.414
1921911,3085.0,5188.0,5951.0,0.825,0.381,-0.039,0.415
1921928,3093.0,5348.0,5871.0,0.824,0.383,-0.037,0.416
1921954,3037.0,5298.0,5665.0,0.823,0.385,-0.035,0.416
1921970,2953.0,5260.0,5493.0,0.822,0.386,-0.034,0.417
1921986,3071.0,5028.0,5511.0,0.822,0.386,-0.033,0.417
1922002,3105.0,4894.0,5637.0,0.823,0.386,-0.033,0.417
1922018,3155.0,4754.0,5785.0,0.823,0.385,-0.033,0.416
1922034,3181.0,4618.0,5925.0,0.823,0.384,-0.034,0.416
1922060,3203.0,4472.0,6045.0,0.824,0.383,-0.034,0.416
1922077,3329.0,4480.0,6027.0,0.824,0.383,-0.034,0.416
1922094,3307.0,4536.0,5983.0,0.824,0.383,-0.034,0.416
1922111,3235.0,4420.0,5919.0,0.824,0.383,-0.034,0.416
1922128,3165.0,4438.0,5861.0,0.823,0.384,-0.033,0.417
1922144,3061.0,4536.0,5813.0,0.823,0.385,-0.032,0.417
1922161,3003.0,4762.0,5777.0,0.822,0.386,-0.031,0.417
1922178,3021.0,4932.0,5833.0,0.822,0.387,-0.03,0.417
1922194,2911.0,5056.0,5845.0,0.821,0.388,-0.029,0.417
1922211,2861.0,5100.0,5817.0,0.821,0.389,-0.028,0.417
1922238,2925.0,5082.0,5749.0,0.82,0.39,-0.027,0.417
1922254,2883.0,4998.0,5667.0,0.82,0.391,-0.027,0.417
1922270,2895.0,5002.0,5681.0,0.82,0.392,-0.026,0.417
1922286,2983.0,4962.0,5743.0,0.82,0.392,-0.026,0.417
1922302,3001.0,5032.0,5681.0,0.819,0.393,-0.026,0.417
1922318,3011.0,4948.0,5811.0,0.819,0.394,-0.025,0.417
1922344,3021.0,4992.0,5817.0,0.819,0.395,-0.025,0.417
1922361,3071.0,5030.0,5779.0,0.818,0.395,-0.024,0.417
1922378,3067.0,5012.0,5669.0,0.818,0.396,-0.024,0.417
1922395,3025.0,4982.0,5679.0,0.817,0.397,-0.024,0.417
1922411,3093.0,5096.0,5675.0,0.817,0.397,-0.023,0.417
1922427,3113.0,5176.0,5685.0,0.817,0.397,-0.023,0.417
1922444,3089.0,5172.0,5663.0,0.817,0.398,-0.024,0.417
1922461,3115.0,5092.0,5683.0,0.817,0.398,-0.024,0.417
1922478,3161.0,5068.0,5711.0,0.817,0.397,-0.024,0.418
1922495,3155.0,5028.0,5699.0,0.817,0.397,-0.025,0.418
1922521,3231.0,5008.0,5735.0,0.817,0.397,-0.025,0.418
1922537,3237.0,5078.0,5799.0,0.817,0.397,-0.025,0.418
1922553,3217.0,5060.0,5797.0,0.817,0.396,-0.026,0.418
1922569,3157.0,5068.0,5745.0,0.817,0.396,-0.026,0.418
1922585,3117.0,5046.0,5649.0,0.817,0.396,-0.026,0.418
1922601,3129.0,5000.0,5707.0,0.817,0.396,-0.026,0.418
1922627,3095.0,5016.0,5741.0,0.817,0.396,-0.026,0.418
1922644,3097.0,4968.0,5687.0,0.817,0.396,-0.026,0.418
1922661,3055.0,4994.0,5739.0,0.817,0.395,-0.026,0.418
1922678,3083.0,4944.0,5695.0,0.817,0.395,-0.026,0.419
1922694,3115.0,4962.0,5735.0,0.817,0.395,-0.026,0.419
1922711,3069.0,4910.0,5765.0,0.817,0.394,-0.027,0.419
1922727,3045.0,4862.0,5735.0,0.817,0.394,-0.027,0.419
1922744,3081.0,4896.0,5747.0,0.817,0.394,-0.027,0.42
1922761,3071.0,4902.0,5773.0,0.817,0.394,-0.027,0.42
1922787,3085.0,4946.0,5799.0,0.817,0.394,-0.027,0.42
1922804,3061.0,4962.0,5719.0,0.817,0.394,-0.027,0.42
1922820,3037.0,4962.0,5733.0,0.817,0.393,-0.027,0.42
1922837,3045.0,4954.0,5761.0,0.817,0.393,-0.027,0.42
1922853,3081.0,4930.0,5729.0,0.817,0.393,-0.027,0.42
1922869,3087.0,4884.0,5741.0,0.817,0.393,-0.027,0.42
1922885,3071.0,4924.0,5721.0,0.817,0.393,-0.027,0.42
1922901,3115.0,4974.0,5729.0,0.817,0.394,-0.027,0.42
1922927,3127.0,5032.0,5727.0,0.817,0.394,-0.027,0.42
1922943,3091.0,5002.0,5729.0,0.817,0.394,-0.027,0.42
1922960,3109.0,4896.0,5789.0,0.817,0.394,-0.027,0.42
1922977,3133.0,4898.0,5795.0,0.818,0.394,-0.027,0.419
1922994,3121.0,4958.0,5771.0,0.818,0.394,-0.027,0.419
1923010,3077.0,4916.0,5749.0,0.818,0.394,-0.027,0.419
1923027,3021.0,4992.0,5717.0,0.818,0.394,-0.027,0.419
1923044,3031.0,4978.0,5771.0,0.818,0.394,-0.027,0.419
1923061,3073.0,4940.0,5705.0,0.818,0.394,-0.027,0.418
1923087,3063.0,4968.0,5717.0,0.818,0.395,-0.027,0.418
1923103,3099.0,4950.0,5745.0,0.818,0.395,-0.027,0.418
1923119,3113.0,4974.0,5771.0,0.818,0.395,-0.027,0.418
1923135,3081.0,4990.0,5771.0,0.818,0.395,-0.027,0.418
1923151,3077.0,4978.0,5703.0,0.818,0.395,-0.028,0.417
1923167,3097.0,4974.0,5737.0,0.818,0.395,-0.028,0.417
1923193,3151.0,4982.0,5749.0,0.818,0.395,-0.028,0.417
1923210,3197.0,4984.0,5747.0,0.818,0.395,-0.028,0.417
1923227,3201.0,4990.0,5735.0,0.818,0.395,-0.029,0.417
1923244,3193.0,4996.0,5769.0,0.818,0.395,-0.029,0.417
1923261,3225.0,5004.0,5737.0,0.818,0.396,-0.029,0.417
1923279,3269.0,5036.0,5731.0,0.818,0.396,-0.029,0.417
1923296,3191.0,5010.0,5691.0,0.818,0.396,-0.029,0.417
1923313,3213.0,5002.0,5731.0,0.818,0.396,-0.029,0.417
1923329,3243.0,5002.0,5715.0,0.818,0.396,-0.029,0.417
1923345,3207.0,4956.0,5705.0,0.818,0.396,-0.029,0.417
1923371,3101.0,4988.0,5683.0,0.817,0.396,-0.028,0.418
1923387,3163.0,4912.0,5681.0,0.817,0.396,-0.028,0.418
1923403,3119.0,4934.0,5689.0,0.817,0.396,-0.028,0.418
1923419,3109.0,4958.0,5733.0,0.817,0.396,-0.028,0.418
1923435,3151.0,4922.0,5749.0,0.817,0.396,-0.027,0.419
1923451,3109.0,4980.0,5755.0,0.817,0.396,-0.027,0.419
1923477,3099.0,5006.0,5729.0,0.817,0.396,-0.027,0.419
1923494,3139.0,4944.0,5733.0,0.817,0.396,-0.026,0.419
1923511,3095.0,4980.0,5665.0,0.816,0.396,-0.026,0.42
1923527,3079.0,4968.0,5665.0,0.816,0.396,-0.025,0.42
1923544,3099.0,4980.0,5693.0,0.816,0.396,-0.025,0.42
1923560,3071.0,4992.0,5735.0,0.816,0.396,-0.024,0.42
1923577,3037.0,4982.0,5693.0,0.816,0.396,-0.024,0.42
1923594,3027.0,4944.0,5711.0,0.816,0.397,-0.023,0.42
1923611,3037.0,5016.0,5665.0,0.816,0.397,-0.023,0.42
1923627,3011.0,5034.0,5639.0,0.816,0.397,-0.023,0.42
1923654,2993.0,5034.0,5695.0,0.816,0.397,-0.022,0.42
1923670,3065.0,5048.0,5745.0,0.816,0.397,-0.022,0.42
1923686,3039.0,5002.0,5719.0,0.816,0.397,-0.022,0.42
1923702,3069.0,4998.0,5709.0,0.816,0.398,-0.022,0.42
1923718,3079.0,5050.0,5713.0,0.815,0.398,-0.022,0.42
1923734,3051.0,5022.0,5655.0,0.815,0.398,-0.021,0.42
1923760,3051.0,5088.0,5685.0,0.815,0.398,-0.021,0.42
1923777,3011.0,5010.0,5667.0,0.815,0.398,-0.021,0.42
1923794,2967.0,5002.0,5653.0,0.815,0.399,-0.02,0.419
1923810,2981.0,5036.0,5677.0,0.815,0.399,-0.02,0.419
1923827,3053.0,5072.0,5721.0,0.815,0.399,-0.02,0.419
1923843,3033.0,5104.0,5659.0,0.815,0.399,-0.02,0.419
1923860,2957.0,5102.0,5677.0,0.815,0.4,-0.019,0.419
1923877,2997.0,5152.0,5669.0,0.815,0.4,-0.019,0.419
1923894,2977.0,5162.0,5707.0,0.815,0.4,-0.019,0.419
1923910,2987.0,5158.0,5665.0,0.815,0.4,-0.02,0.419
1923928,3087.0,5098.0,5649.0,0.815,0.4,-0.02,0.419
1923954,3141.0,5090.0,5693.0,0.815,0.4,-0.02,0.419
1923970,3183.0,5054.0,5727.0,0.815,0.4,-0.02,0.419
1923986,3175.0,5070.0,5681.0,0.815,0.4,-0.02,0.419
1924002,3127.0,5098.0,5645.0,0.815,0.4,-0.02,0.419
1924018,3113.0,5166.0,5645.0,0.815,0.401,-0.02,0.419
1924034,3093.0,5192.0,5669.0,0.815,0.401,-0.02,0.419
1924060,3089.0,5182.0,5667.0,0.815,0.401,-0.02,0.419
1924077,3025.0,5140.0,5623.0,0.815,0.401,-0.019,0.419
1924093,3049.0,5106.0,5683.0,0.815,0.4,-0.019,0.419
1924110,3043.0,5074.0,5685.0,0.815,0.4,-0.019,0.419
1924127,3003.0,5032.0,5679.0,0.815,0.4,-0.019,0.42
1924144,3071.0,5048.0,5641.0,0.815,0.4,-0.019,0.42
1924160,3061.0,5044.0,5681.0,0.814,0.4,-0.019,0.42
1924177,3039.0,5052.0,5717.0,0.814,0.4,-0.019,0.42
1924203,3027.0,5088.0,5691.0,0.814,0.4,-0.019,0.421
1924219,3041.0,5060.0,5655.0,0.814,0.4,-0.019,0.421
1924235,3067.0,5120.0,5639.0,0.814,0.4,-0.018,0.421
1924251,3025.0,5082.0,5657.0,0.814,0.4,-0.018,0.421
1924267,3069.0,5064.0,5649.0,0.814,0.4,-0.018,0.421
1924283,3031.0,5052.0,5665.0,0.814,0.4,-0.018,0.421
1924309,3035.0,5064.0,5625.0,0.814,0.4,-0.018,0.421
1924326,2981.0,5058.0,5613.0,0.814,0.4,-0.017,0.421
1924342,2997.0,5060.0,5649.0,0.814,0.4,-0.017,0.421
1924359,3001.0,5030.0,5647.0,0.814,0.4,-0.017,0.421
1924376,2947.0,5066.0,5651.0,0.813,0.401,-0.017,0.421
1924393,2989.0,5094.0,5623.0,0.813,0.401,-0.016,0.421
1924410,3007.0,5160.0,5635.0,0.813,0.401,-0.016,0.421
1924427,3007.0,5122.0,5641.0,0.813,0.401,-0.016,0.421
1924443,3029.0,5078.0,5683.0,0.813,0.401,-0.016,0.421
1924460,3013.0,5084.0,5729.0,0.813,0.401,-0.016,0.421
1924477,3011.0,5130.0,5663.0,0.813,0.402,-0.016,0.421
1924503,3023.0,5116.0,5643.0,0.813,0.402,-0.015,0.42
1924519,2987.0,5150.0,5649.0,0.813,0.402,-0.015,0.42
1924535,2981.0,5152.0,5675.0,0.813,0.402,-0.015,0.42
1924551,3017.0,5144.0,5649.0,0.813,0.403,-0.015,0.42
1924567,2987.0,5126.0,5673.0,0.813,0.403,-0.014,0.42
1924583,3043.0,5168.0,5621.0,0.813,0.403,-0.014,0.42
1924609,3037.0,5160.0,5661.0,0.813,0.403,-0.014,0.42
1924626,3007.0,5184.0,5629.0,0.813,0.403,-0.014,0.419
1924643,3013.0,5180.0,5583.0,0.813,0.404,-0.014,0.419
1924660,3043.0,5236.0,5617.0,0.813,0.404,-0.014,0.419
1924677,3021.0,5212.0,5613.0,0.813,0.404,-0.015,0.419
1924693,3027.0,5170.0,5635.0,0.813,0.404,-0.015,0.419
1924710,3063.0,5100.0,5619.0,0.813,0.403,-0.015,0.419
1924727,3091.0,5136.0,5681.0,0.813,0.403,-0.016,0.419
1924743,3135.0,5152.0,5657.0,0.813,0.403,-0.016,0.419
1924760,3093.0,5188.0,5631.0,0.813,0.403,-0.016,0.419
1924786,3111.0,5192.0,5649.0,0.813,0.404,-0.016,0.419
1924802,3109.0,5238.0,5607.0,0.813,0.403,-0.016,0.42
1924818,3047.0,5244.0,5591.0,0.813,0.403,-0.016,0.42
1924834,3015.0,5186.0,5597.0,0.813,0.403,-0.016,0.42
1924850,3053.0,5132.0,5565.0,0.813,0.403,-0.016,0.42
1924866,2971.0,4970.0,5683.0,0.813,0.403,-0.015,0.42
1924892,3009.0,5110.0,5713.0,0.813,0.403,-0.015,0.42
1924909,3007.0,5062.0,5647.0,0.813,0.403,-0.015,0.421
1924926,3017.0,5136.0,5615.0,0.813,0.403,-0.015,0.421
1924943,2999.0,5176.0,5583.0,0.812,0.403,-0.015,0.421
1924960,3049.0,5184.0,5583.0,0.812,0.403,-0.015,0.422
1924976,3023.0,5168.0,5655.0,0.812,0.403,-0.015,0.422
1924993,3039.0,5180.0,5603.0,0.812,0.402,-0.015,0.422
1925010,3061.0,5088.0,5669.0,0.812,0.402,-0.015,0.422
1925026,3043.0,5132.0,5663.0,0.812,0.402,-0.014,0.422
1925043,2985.0,5128.0,5663.0,0.812,0.402,-0.014,0.422
1925069,2915.0,5130.0,5619.0,0.812,0.402,-0.014,0.422
1925085,2959.0,5072.0,5575.0,0.812,0.402,-0.014,0.422
1925101,2935.0,5136.0,5619.0,0.812,0.403,-0.013,0.422
1925117,2955.0,5186.0,5613.0,0.812,0.403,-0.013,0.422
1925133,2975.0,5150.0,5579.0,0.812,0.403,-0.013,0.422
1925149,3031.0,5112.0,5609.0,0.812,0.403,-0.013,0.422
1925175,2949.0,5084.0,5599.0,0.812,0.403,-0.013,0.422
1925192,2991.0,5164.0,5625.0,0.812,0.403,-0.013,0.422
1925209,3001.0,5194.0,5627.0,0.812,0.403,-0.013,0.422
1925226,3005.0,5098.0,5649.0,0.812,0.404,-0.012,0.421
1925243,3069.0,5128.0,5647.0,0.812,0.404,-0.012,0.421
1925260,3043.0,5066.0,5687.0,0.812,0.404,-0.012,0.421
1925276,2987.0,5170.0,5637.0,0.812,0.405,-0.011,0.421
1925293,2971.0,5244.0,5561.0,0.811,0.406,-0.011,0.421
1925310,2953.0,5346.0,5591.0,0.811,0.406,-0.01,0.421
1925327,2877.0,5304.0,5459.0,0.811,0.406,-0.01,0.42
1925353,2925.0,5302.0,5493.0,0.811,0.407,-0.01,0.42
1925369,2927.0,5346.0,5525.0,0.811,0.407,-0.01,0.42
1925385,3039.0,5272.0,5573.0,0.811,0.406,-0.011,0.42
1925402,3037.0,5152.0,5607.0,0.812,0.406,-0.011,0.42
1925418,3053.0,5136.0,5639.0,0.812,0.406,-0.011,0.42
1925434,3041.0,5148.0,5609.0,0.812,0.406,-0.012,0.42
1925450,3063.0,5102.0,5657.0,0.811,0.406,-0.012,0.42
1925476,3093.0,5188.0,5605.0,0.811,0.406,-0.012,0.42
1925493,3041.0,5260.0,5571.0,0.811,0.407,-0.011,0.42
1925513,3079.0,5346.0,5569.0,0.811,0.407,-0.011,0.42
1925529,3037.0,5292.0,5551.0,0.811,0.407,-0.011,0.42
1925545,3013.0,5314.0,5511.0,0.811,0.407,-0.011,0.42
1925561,2969.0,5256.0,5525.0,0.811,0.407,-0.011,0.421
1925577,2937.0,5244.0,5609.0,0.811,0.406,-0.011,0.421
1925593,2937.0,5200.0,5603.0,0.811,0.406,-0.012,0.421
1925619,2971.0,5178.0,5649.0,0.811,0.406,-0.012,0.421
1925635,3007.0,5164.0,5561.0,0.811,0.405,-0.012,0.421
1925651,2963.0,5164.0,5613.0,0.811,0.405,-0.012,0.421
1925668,3039.0,5074.0,5615.0,0.811,0.405,-0.012,0.421
1925684,3051.0,5128.0,5587.0,0.811,0.405,-0.012,0.422
1925700,3025.0,5206.0,5579.0,0.811,0.405,-0.012,0.422
1925716,3069.0,5174.0,5591.0,0.811,0.405,-0.012,0.422
1925742,3039.0,5180.0,5591.0,0.811,0.405,-0.012,0.422
1925759,3011.0,5162.0,5571.0,0.811,0.405,-0.012,0.422
1925775,3025.0,5124.0,5573.0,0.811,0.405,-0.012,0.422
1925792,2975.0,5122.0,5593.0,0.811,0.405,-0.012,0.422
1925809,2979.0,5168.0,5569.0,0.811,0.405,-0.012,0.422
1925826,2991.0,5184.0,5581.0,0.811,0.405,-0.012,0.422
1925842,2961.0,5144.0,5599.0,0.811,0.405,-0.012,0.422
1925858,2939.0,5172.0,5529.0,0.811,0.405,-0.012,0.422
1925875,2959.0,5142.0,5581.0,0.811,0.406,-0.011,0.422
1925902,2973.0,5208.0,5579.0,0.811,0.406,-0.011,0.422
1925918,2993.0,5208.0,5595.0,0.811,0.406,-0.011,0.422
1925934,2965.0,5190.0,5577.0,0.811,0.406,-0.011,0.422
1925950,2969.0,5140.0,5617.0,0.811,0.406,-0.011,0.421
1925966,2995.0,5228.0,5579.0,0.811,0.406,-0.011,0.421
1925982,3023.0,5256.0,5557.0,0.811,0.406,-0.011,0.421
1926008,3011.0,5244.0,5539.0,0.811,0.406,-0.011,0.421
1926025,3029.0,5214.0,5595.0,0.811,0.407,-0.011,0.421
1926042,2975.0,5188.0,5617.0,0.811,0.407,-0.011,0.421
1926059,3033.0,5194.0,5555.0,0.811,0.407,-0.011,0.42
1926076,3069.0,5234.0,5613.0,0.811,0.407,-0.012,0.42
1926093,2991.0,5266.0,5535.0,0.811,0.407,-0.012,0.42
1926109,3017.0,5288.0,5571.0,0.811,0.407,-0.012,0.42
1926126,2995.0,5258.0,5539.0,0.811,0.407,-0.012,0.42
1926143,3039.0,5258.0,5535.0,0.811,0.407,-0.013,0.42
1926159,3069.0,5212.0,5619.0,0.811,0.407,-0.013,0.42
1926176,3155.0,5148.0,5579.0,0.812,0.406,-0.013,0.42
1926202,3119.0,5110.0,5567.0,0.811,0.406,-0.014,0.42
1926218,3141.0,5188.0,5575.0,0.811,0.406,-0.014,0.42
1926234,3103.0,5240.0,5571.0,0.811,0.406,-0.014,0.42
1926250,3123.0,5266.0,5581.0,0.811,0.406,-0.014,0.42
1926266,3091.0,5254.0,5541.0,0.811,0.406,-0.014,0.421
1926282,3121.0,5266.0,5589.0,0.811,0.406,-0.014,0.421
1926308,3121.0,5274.0,5627.0,0.811,0.406,-0.014,0.421
1926325,3071.0,5210.0,5607.0,0.811,0.405,-0.015,0.421
1926342,3069.0,5172.0,5597.0,0.811,0.405,-0.015,0.421
1926359,3161.0,5258.0,5669.0,0.811,0.405,-0.015,0.422
1926376,3255.0,5286.0,5825.0,0.811,0.404,-0.015,0.422
1926393,3411.0,5120.0,5907.0,0.811,0.405,-0.015,0.422
1926409,3381.0,4880.0,6083.0,0.811,0.406,-0.014,0.422
1926426,3545.0,4578.0,6531.0,0.809,0.408,-0.012,0.422
1926442,3753.0,3994.0,7169.0,0.807,0.414,-0.009,0.422
1926459,4169.0,2402.0,8039.0,0.801,0.425,-0.003,0.421
1926486,5565.0,476.0,8461.0,0.79,0.446,0.013,0.42
1926502,5839.0,-1736.0,7635.0,0.769,0.48,0.042,0.42
1926518,4931.0,1216.0,5559.0,0.735,0.527,0.081,0.418
1926534,4629.0,3856.0,3683.0,0.691,0.579,0.126,0.414
1926550,4219.0,7536.0,1729.0,0.641,0.627,0.172,0.407
1926566,4063.0,10368.0,761.0,0.592,0.666,0.217,0.399
1926592,4143.0,14042.0,11.0,0.551,0.69,0.259,0.392
1926609,3337.0,15844.0,-543.0,0.524,0.698,0.294,0.39
1926626,2393.0,14696.0,-631.0,0.513,0.693,0.32,0.393
1926642,1799.0,10898.0,-561.0,0.512,0.681,0.339,0.399
1926659,1277.0,7434.0,-343.0,0.514,0.667,0.355,0.406
1926676,1203.0,6092.0,-99.0,0.513,0.656,0.371,0.409
1926692,1265.0,6418.0,-31.0,0.51,0.649,0.388,0.411
1926709,1615.0,7526.0,-275.0,0.504,0.643,0.404,0.412
1926726,1831.0,8412.0,-603.0,0.499,0.635,0.419,0.415
1926742,1795.0,8494.0,-815.0,0.495,0.625,0.434,0.42
1926769,1785.0,7920.0,-1101.0,0.491,0.613,0.449,0.427
1926785,1621.0,7322.0,-1407.0,0.487,0.6,0.463,0.434
1926801,1529.0,7022.0,-1765.0,0.483,0.587,0.477,0.441
1926817,1621.0,7136.0,-1985.0,0.477,0.576,0.491,0.446
1926833,1527.0,7360.0,-2193.0,0.472,0.565,0.504,0.452
1926849,1415.0,7560.0,-2377.0,0.466,0.554,0.516,0.457
1926875,1199.0,7416.0,-2235.0,0.462,0.543,0.527,0.463
1926892,1249.0,7236.0,-2177.0,0.457,0.532,0.537,0.469
1926909,1167.0,6948.0,-2249.0,0.452,0.521,0.547,0.474
1926926,1113.0,6842.0,-2373.0,0.447,0.511,0.557,0.479
1926943,791.0,7044.0,-2531.0,0.441,0.502,0.566,0.483
1926959,485.0,7132.0,-2811.0,0.436,0.492,0.575,0.486
1926975,183.0,6884.0,-3057.0,0.431,0.483,0.584,0.49
1926992,71.0,6806.0,-3555.0,0.425,0.475,0.591,0.494
1927009,-213.0,6698.0,-4083.0,0.42,0.467,0.598,0.498
1927026,-507.0,7096.0,-4643.0,0.416,0.461,0.603,0.501
1927043,-585.0,7424.0,-5117.0,0.413,0.455,0.607,0.504
1927070,-527.0,7434.0,-5299.0,0.412,0.45,0.609,0.506
1927086,-641.0,7340.0,-5425.0,0.413,0.447,0.609,0.508
1927102,-569.0,7154.0,-5539.0,0.416,0.444,0.608,0.509
1927118,-713.0,7034.0,-5449.0,0.419,0.444,0.607,0.509
1927134,-741.0,7126.0,-5199.0,0.424,0.445,0.605,0.507
1927151,-663.0,7244.0,-4825.0,0.43,0.447,0.602,0.504
1927168,-523.0,7290.0,-4687.0,0.436,0.45,0.598,0.5
1927185,-543.0,7476.0,-4585.0,0.444,0.454,0.593,0.495
1927211,-697.0,7584.0,-4359.0,0.452,0.459,0.588,0.489
1927227,-793.0,7476.0,-4113.0,0.462,0.464,0.581,0.483
1927244,-973.0,7454.0,-3655.0,0.473,0.47,0.573,0.477
1927260,-749.0,7288.0,-3427.0,0.484,0.477,0.563,0.469
1927276,-465.0,7102.0,-3459.0,0.496,0.485,0.552,0.462
1927292,-465.0,7370.0,-2819.0,0.508,0.494,0.541,0.453
1927309,-535.0,7786.0,-2111.0,0.52,0.505,0.527,0.444
1927335,-117.0,7746.0,-1927.0,0.532,0.515,0.513,0.434
1927351,473.0,7572.0,-2021.0,0.544,0.526,0.497,0.423
1927367,675.0,7368.0,-2049.0,0.556,0.537,0.482,0.413
1927383,559.0,7442.0,-1243.0,0.568,0.547,0.465,0.402
1927399,497.0,8172.0,-571.0,0.58,0.558,0.448,0.39
1927415,859.0,8562.0,-161.0,0.591,0.569,0.428,0.378
1927441,1489.0,8380.0,-429.0,0.603,0.58,0.408,0.366
1927458,1987.0,8124.0,-1183.0,0.613,0.59,0.389,0.354
1927475,1933.0,8780.0,137.0,0.623,0.599,0.369,0.342
1927492,1923.0,9452.0,517.0,0.635,0.606,0.349,0.328
1927510,2169.0,9072.0,373.0,0.646,0.612,0.329,0.315
1927526,2525.0,8554.0,-281.0,0.657,0.618,0.309,0.302
1927542,2497.0,8942.0,267.0,0.667,0.623,0.29,0.287
1927559,2465.0,9668.0,973.0,0.677,0.628,0.271,0.272
1927575,2571.0,10614.0,2027.0,0.689,0.631,0.251,0.255
1927592,3015.0,10092.0,2219.0,0.701,0.631,0.231,0.237
1927618,3313.0,9328.0,2609.0,0.714,0.63,0.212,0.219
1927634,3099.0,9696.0,3949.0,0.727,0.627,0.197,0.2
1927650,2653.0,10288.0,5181.0,0.74,0.621,0.184,0.181
1927666,2657.0,9668.0,5667.0,0.753,0.613,0.173,0.164
1927682,2399.0,7932.0,5757.0,0.765,0.604,0.165,0.148
1927698,1919.0,7538.0,6949.0,0.775,0.596,0.16,0.133
1927724,1589.0,7562.0,8291.0,0.784,0.588,0.158,0.119
1927741,1117.0,7118.0,8999.0,0.792,0.579,0.158,0.106
1927758,1145.0,5828.0,9163.0,0.801,0.569,0.161,0.095
1927775,715.0,4280.0,8971.0,0.809,0.558,0.166,0.085
1927792,423.0,3580.0,8549.0,0.814,0.548,0.175,0.081
1927808,343.0,3626.0,7931.0,0.818,0.539,0.185,0.082
1927824,-3.0,3536.0,6825.0,0.82,0.53,0.197,0.091
1927841,-451.0,2712.0,5987.0,0.82,0.521,0.212,0.105
1927858,-1163.0,2012.0,5473.0,0.818,0.513,0.227,0.124
1927875,-1563.0,1540.0,4785.0,0.815,0.507,0.241,0.145
1927902,-1237.0,1894.0,4293.0,0.807,0.506,0.254,0.168
1927918,-729.0,2702.0,3755.0,0.797,0.509,0.265,0.191
1927934,-165.0,3074.0,2897.0,0.782,0.515,0.276,0.215
1927950,329.0,3424.0,2177.0,0.766,0.525,0.286,0.239
1927966,533.0,4624.0,1365.0,0.748,0.533,0.295,0.262
1927982,621.0,4816.0,787.0,0.733,0.538,0.302,0.286
1928008,1317.0,5904.0,55.0,0.717,0.542,0.306,0.313
1928025,1751.0,5792.0,-507.0,0.701,0.544,0.308,0.343
1928042,1517.0,4860.0,-729.0,0.684,0.547,0.307,0.374
1928059,1755.0,4454.0,-957.0,0.665,0.55,0.303,0.404
1928075,1967.0,4610.0,-1205.0,0.648,0.553,0.295,0.433
1928091,2561.0,4196.0,-1259.0,0.63,0.556,0.285,0.461
1928108,3829.0,4792.0,-1355.0,0.609,0.563,0.271,0.489
1928125,4887.0,6426.0,-1409.0,0.587,0.569,0.253,0.517
1928142,5467.0,7164.0,-1201.0,0.569,0.572,0.228,0.545
1928158,6509.0,8182.0,-783.0,0.555,0.569,0.196,0.574
1928185,7093.0,7452.0,-263.0,0.547,0.561,0.155,0.602
1928201,8037.0,4974.0,443.0,0.54,0.55,0.108,0.628
1928217,10325.0,3906.0,1651.0,0.525,0.545,0.063,0.651
1928233,12501.0,6896.0,2217.0,0.506,0.543,0.022,0.67
1928249,13013.0,11124.0,3129.0,0.489,0.541,-0.015,0.684
1928265,11983.0,12570.0,3961.0,0.478,0.537,-0.05,0.693
1928291,12221.0,11848.0,4737.0,0.475,0.532,-0.076,0.697
1928308,11487.0,12030.0,5233.0,0.477,0.529,-0.085,0.697
1928325,11209.0,13118.0,5683.0,0.483,0.53,-0.077,0.693
1928342,10801.0,13038.0,5217.0,0.493,0.536,-0.054,0.684
1928358,11447.0,13780.0,4259.0,0.507,0.545,-0.024,0.668
1928375,12289.0,16076.0,3389.0,0.528,0.55,0.006,0.647
1928391,12219.0,15876.0,2975.0,0.558,0.548,0.027,0.622
1928408,10995.0,12374.0,2661.0,0.596,0.537,0.04,0.596
1928425,9319.0,8464.0,2525.0,0.635,0.521,0.049,0.568
1928441,8169.0,6738.0,2023.0,0.672,0.505,0.057,0.538
1928468,6799.0,4820.0,3095.0,0.71,0.486,0.061,0.507
1928484,4247.0,2296.0,2669.0,0.744,0.466,0.065,0.474
1928501,3003.0,1732.0,1451.0,0.776,0.45,0.067,0.437
1928517,3719.0,2666.0,-145.0,0.805,0.434,0.065,0.399
1928533,4041.0,2562.0,461.0,0.831,0.416,0.061,0.363
1928549,2441.0,-536.0,1177.0,0.856,0.396,0.053,0.327
1928565,1175.0,-3204.0,1293.0,0.876,0.384,0.042,0.289
1928591,1103.0,-3452.0,1909.0,0.887,0.384,0.03,0.254
1928608,573.0,-3336.0,2043.0,0.891,0.395,0.016,0.222
1928625,725.0,-1974.0,1899.0,0.889,0.416,-0.0,0.194
1928641,1587.0,3128.0,2721.0,0.885,0.434,-0.019,0.169
1928657,2107.0,5542.0,4187.0,0.885,0.441,-0.039,0.146
1928673,2353.0,3234.0,5465.0,0.886,0.442,-0.057,0.126
1928690,3163.0,3090.0,6413.0,0.886,0.446,-0.071,0.107
1928707,2503.0,3002.0,6373.0,0.879,0.461,-0.078,0.091
1928733,2277.0,2662.0,7291.0,0.867,0.485,-0.08,0.08
1928749,3225.0,2308.0,6245.0,0.848,0.52,-0.076,0.076
1928765,1733.0,5004.0,6181.0,0.822,0.559,-0.069,0.077
1928781,3105.0,9330.0,6943.0,0.796,0.596,-0.063,0.085
1928797,5603.0,13998.0,6583.0,0.777,0.62,-0.057,0.094
1928823,1763.0,14806.0,2265.0,0.768,0.631,-0.053,0.097
1928840,5693.0,18682.0,-1691.0,0.762,0.64,-0.047,0.088
