timeMs,ax,ay,az,q0,q1,q2,q3
2939170,4907.0,3761.0,2101.0,0.722,0.491,-0.029,0.487
2939186,5623.0,3845.0,967.0,0.694,0.509,-0.03,0.509
2939202,6729.0,4287.0,-145.0,0.663,0.526,-0.036,0.532
2939218,8025.0,5391.0,-891.0,0.634,0.538,-0.048,0.553
2939234,8845.0,5907.0,-1129.0,0.611,0.544,-0.066,0.571
2939251,9351.0,5705.0,-529.0,0.593,0.544,-0.087,0.587
2939277,9323.0,5331.0,307.0,0.578,0.541,-0.111,0.601
2939293,9103.0,5163.0,781.0,0.565,0.535,-0.138,0.613
2939309,9231.0,4817.0,1017.0,0.554,0.527,-0.167,0.623
2939325,9869.0,4571.0,1269.0,0.544,0.518,-0.197,0.63
2939341,10049.0,4373.0,1479.0,0.534,0.51,-0.227,0.634
2939357,9885.0,4241.0,1643.0,0.525,0.503,-0.256,0.637
2939384,9885.0,4355.0,1793.0,0.517,0.498,-0.282,0.637
2939400,9469.0,4701.0,2495.0,0.51,0.494,-0.304,0.635
2939416,9681.0,4593.0,3389.0,0.505,0.493,-0.324,0.63
2939432,9803.0,3561.0,3695.0,0.503,0.494,-0.339,0.624
2939448,9597.0,2759.0,3969.0,0.501,0.497,-0.348,0.617
2939464,9203.0,2675.0,4539.0,0.499,0.504,-0.351,0.611
2939481,9053.0,2775.0,4759.0,0.498,0.513,-0.35,0.606
2939507,8741.0,3107.0,4961.0,0.497,0.522,-0.346,0.6
2939524,8621.0,3465.0,5135.0,0.498,0.531,-0.342,0.595
2939540,8479.0,3509.0,5493.0,0.501,0.537,-0.338,0.588
2939556,8479.0,2973.0,5701.0,0.505,0.542,-0.336,0.582
2939572,8637.0,2087.0,5671.0,0.511,0.544,-0.334,0.576
2939588,8551.0,1175.0,5587.0,0.515,0.546,-0.331,0.572
2939614,8297.0,891.0,5395.0,0.518,0.548,-0.326,0.571
2939630,8209.0,1027.0,5081.0,0.52,0.55,-0.318,0.571
2939647,8255.0,1119.0,4667.0,0.521,0.552,-0.31,0.573
2939663,8085.0,1415.0,4263.0,0.521,0.554,-0.3,0.577
2939679,7853.0,1699.0,3923.0,0.52,0.555,-0.289,0.581
2939695,7875.0,1885.0,3469.0,0.52,0.556,-0.278,0.586
2939711,7713.0,2133.0,3079.0,0.518,0.558,-0.267,0.591
2939737,7705.0,2539.0,2751.0,0.516,0.559,-0.256,0.596
2939753,7685.0,2745.0,2467.0,0.515,0.561,-0.245,0.6
2939769,7635.0,3013.0,2251.0,0.515,0.561,-0.236,0.604
2939786,7615.0,3189.0,2039.0,0.515,0.561,-0.227,0.607
2939802,7593.0,3219.0,1783.0,0.516,0.56,-0.22,0.61
2939819,7659.0,3097.0,1687.0,0.518,0.559,-0.214,0.611
2939836,7747.0,2919.0,1633.0,0.52,0.557,-0.209,0.613
2939862,7671.0,2663.0,1617.0,0.523,0.556,-0.204,0.613
2939878,7687.0,2595.0,1531.0,0.525,0.555,-0.199,0.614
2939894,7631.0,2551.0,1463.0,0.527,0.554,-0.194,0.614
2939910,7623.0,2625.0,1549.0,0.53,0.554,-0.188,0.614
2939926,7525.0,2457.0,1543.0,0.532,0.554,-0.182,0.614
2939942,7381.0,2425.0,1571.0,0.534,0.555,-0.175,0.613
2939968,7271.0,2349.0,1651.0,0.536,0.556,-0.169,0.612
2939984,7259.0,2179.0,1623.0,0.538,0.558,-0.162,0.612
2940000,7255.0,2183.0,1627.0,0.539,0.559,-0.155,0.611
2940016,7119.0,2175.0,1585.0,0.539,0.561,-0.148,0.61
2940032,6901.0,2295.0,1583.0,0.54,0.563,-0.143,0.61
2940048,6749.0,2391.0,1581.0,0.54,0.564,-0.138,0.609
2940074,6637.0,2073.0,1839.0,0.541,0.565,-0.135,0.609
2940091,6535.0,967.0,2243.0,0.541,0.565,-0.134,0.609
2940107,6527.0,593.0,2519.0,0.538,0.567,-0.132,0.61
2940123,6645.0,1115.0,2549.0,0.534,0.569,-0.13,0.611
2940139,6551.0,2377.0,2173.0,0.529,0.573,-0.128,0.613
2940155,6559.0,3501.0,1875.0,0.525,0.575,-0.129,0.614
2940171,6605.0,3559.0,1905.0,0.522,0.575,-0.133,0.615
2940197,6869.0,2903.0,2175.0,0.521,0.574,-0.14,0.616
2940213,7071.0,2655.0,2337.0,0.519,0.572,-0.148,0.617
2940229,7079.0,2487.0,2409.0,0.517,0.571,-0.155,0.619
2940245,7155.0,2425.0,2499.0,0.514,0.569,-0.163,0.62
2940261,7195.0,2497.0,2539.0,0.511,0.568,-0.171,0.622
2940287,7243.0,2677.0,2505.0,0.507,0.567,-0.178,0.624
2940303,7331.0,2841.0,2517.0,0.503,0.566,-0.186,0.626
2940319,7371.0,3001.0,2661.0,0.5,0.565,-0.193,0.628
2940336,7507.0,3019.0,2837.0,0.496,0.564,-0.201,0.629
2940353,7671.0,2951.0,2971.0,0.492,0.563,-0.209,0.63
2940370,7775.0,2907.0,3019.0,0.489,0.562,-0.215,0.631
2940387,7853.0,2881.0,3123.0,0.485,0.561,-0.221,0.633
2940403,7851.0,2911.0,3195.0,0.482,0.561,-0.226,0.634
2940419,7865.0,2997.0,3225.0,0.478,0.561,-0.229,0.636
2940445,7903.0,3061.0,3193.0,0.475,0.561,-0.232,0.637
2940462,7875.0,3217.0,3193.0,0.472,0.562,-0.234,0.638
2940478,7817.0,3335.0,3123.0,0.469,0.562,-0.235,0.639
2940494,7895.0,3373.0,3123.0,0.468,0.563,-0.236,0.64
2940510,7881.0,3349.0,3065.0,0.467,0.563,-0.237,0.64
2940526,7865.0,3259.0,3007.0,0.466,0.563,-0.237,0.64
2940552,7903.0,3059.0,2931.0,0.467,0.563,-0.236,0.64
2940568,7755.0,3009.0,2891.0,0.467,0.563,-0.234,0.64
2940584,7721.0,3047.0,2761.0,0.468,0.563,-0.232,0.64
2940600,7649.0,3083.0,2589.0,0.47,0.563,-0.23,0.64
2940616,7689.0,2917.0,2577.0,0.472,0.563,-0.228,0.639
2940632,7705.0,2883.0,2545.0,0.474,0.563,-0.226,0.638
2940658,7641.0,2765.0,2479.0,0.477,0.563,-0.224,0.637
2940674,7599.0,2715.0,2321.0,0.48,0.563,-0.221,0.636
2940690,7527.0,2653.0,2313.0,0.483,0.563,-0.219,0.634
2940707,7529.0,2619.0,2295.0,0.486,0.563,-0.216,0.633
2940723,7463.0,2533.0,2277.0,0.489,0.563,-0.214,0.631
2940740,7513.0,2549.0,2301.0,0.492,0.563,-0.211,0.63
2940756,7447.0,2253.0,2261.0,0.495,0.563,-0.209,0.628
2940782,7609.0,2427.0,2247.0,0.499,0.562,-0.206,0.627
2940798,7837.0,2103.0,2495.0,0.503,0.561,-0.202,0.626
2940814,7475.0,1935.0,2249.0,0.506,0.561,-0.196,0.625
2940830,7421.0,2485.0,2101.0,0.507,0.562,-0.189,0.625
2940846,7343.0,2941.0,2407.0,0.509,0.563,-0.183,0.624
2940862,7553.0,3175.0,2535.0,0.511,0.563,-0.179,0.624
2940888,7349.0,2771.0,2195.0,0.514,0.563,-0.175,0.623
2940904,6729.0,2625.0,2249.0,0.517,0.563,-0.173,0.622
2940921,7033.0,2355.0,2485.0,0.519,0.563,-0.171,0.62
2940937,7203.0,2721.0,2507.0,0.521,0.563,-0.17,0.618
2940953,7427.0,2593.0,2653.0,0.523,0.562,-0.17,0.617
2940969,7597.0,2395.0,2903.0,0.527,0.56,-0.17,0.616
2940986,7217.0,1843.0,3149.0,0.53,0.557,-0.169,0.616
2941006,6935.0,1537.0,3085.0,0.532,0.556,-0.168,0.617
2941022,6923.0,1759.0,2849.0,0.531,0.556,-0.166,0.618
2941039,7043.0,2271.0,2775.0,0.53,0.557,-0.164,0.619
2941065,7255.0,2619.0,2833.0,0.529,0.557,-0.162,0.619
2941081,7355.0,2839.0,2993.0,0.529,0.557,-0.16,0.62
2941097,7177.0,2795.0,3103.0,0.528,0.557,-0.158,0.621
2941113,7047.0,2673.0,3055.0,0.528,0.556,-0.157,0.622
2941129,7381.0,2783.0,2947.0,0.527,0.556,-0.155,0.624
2941145,7377.0,3005.0,3015.0,0.526,0.556,-0.152,0.625
2941172,7359.0,3327.0,2977.0,0.527,0.556,-0.147,0.626
2941188,6729.0,3431.0,3081.0,0.526,0.556,-0.142,0.627
2941204,6729.0,3861.0,2867.0,0.526,0.557,-0.138,0.628
2941220,6933.0,4199.0,2733.0,0.526,0.557,-0.134,0.629
2941237,6885.0,4253.0,2801.0,0.527,0.557,-0.131,0.628
2941253,6595.0,4055.0,2843.0,0.529,0.556,-0.128,0.628
2941269,6523.0,4011.0,2861.0,0.531,0.556,-0.125,0.627
2941295,6581.0,4013.0,2871.0,0.532,0.556,-0.123,0.627
2941311,6511.0,3961.0,2987.0,0.533,0.555,-0.122,0.627
2941327,6545.0,3973.0,3055.0,0.534,0.555,-0.12,0.626
2941343,6287.0,3911.0,3063.0,0.534,0.555,-0.119,0.626
2941359,6177.0,3845.0,2935.0,0.534,0.556,-0.119,0.626
2941375,6045.0,3747.0,2793.0,0.533,0.557,-0.119,0.626
2941401,5749.0,3619.0,2717.0,0.531,0.558,-0.122,0.626
2941417,5767.0,3503.0,2563.0,0.527,0.56,-0.128,0.627
2941433,6083.0,3571.0,2449.0,0.522,0.562,-0.136,0.627
2941449,6767.0,3729.0,2381.0,0.517,0.565,-0.146,0.626
2941465,7395.0,3631.0,2401.0,0.514,0.566,-0.158,0.625
2941481,7601.0,3335.0,2479.0,0.512,0.566,-0.17,0.624
2941508,7795.0,2775.0,2515.0,0.511,0.565,-0.181,0.622
2941525,7975.0,2459.0,2443.0,0.512,0.563,-0.191,0.621
2941541,7909.0,2249.0,2457.0,0.512,0.561,-0.199,0.619
2941557,7693.0,2285.0,2445.0,0.513,0.559,-0.204,0.618
2941573,7485.0,2609.0,2383.0,0.514,0.559,-0.209,0.617
2941589,7493.0,2727.0,2325.0,0.515,0.559,-0.213,0.615
2941605,7459.0,2873.0,2229.0,0.516,0.558,-0.216,0.612
2941632,7529.0,3023.0,2203.0,0.518,0.558,-0.221,0.61
2941648,7561.0,3047.0,2149.0,0.521,0.557,-0.226,0.606
2941664,7611.0,2911.0,2193.0,0.524,0.555,-0.232,0.603
2941681,7485.0,2687.0,2201.0,0.528,0.553,-0.239,0.599
2941698,7521.0,2439.0,2269.0,0.532,0.55,-0.245,0.595
2941714,7527.0,2307.0,2339.0,0.535,0.549,-0.251,0.591
2941731,7551.0,2119.0,2507.0,0.539,0.547,-0.257,0.587
2941748,7663.0,2033.0,2645.0,0.541,0.546,-0.261,0.584
2941765,7597.0,1847.0,2767.0,0.543,0.546,-0.265,0.58
2941782,7569.0,1505.0,2961.0,0.544,0.547,-0.268,0.578
2941809,7749.0,1375.0,3011.0,0.543,0.549,-0.269,0.576
2941825,7793.0,1505.0,3081.0,0.542,0.551,-0.268,0.575
2941841,7797.0,1691.0,3097.0,0.54,0.554,-0.267,0.575
2941857,7899.0,2057.0,2999.0,0.538,0.556,-0.266,0.575
2941873,7827.0,2381.0,2789.0,0.537,0.557,-0.265,0.576
2941890,7723.0,2679.0,2593.0,0.536,0.556,-0.264,0.577
2941906,7623.0,2623.0,2391.0,0.536,0.555,-0.264,0.578
2941932,7569.0,2459.0,2203.0,0.537,0.554,-0.265,0.579
2941948,7555.0,2439.0,2103.0,0.537,0.553,-0.266,0.579
2941964,7595.0,2549.0,2019.0,0.537,0.552,-0.267,0.579
2941980,7601.0,2605.0,2037.0,0.538,0.551,-0.268,0.579
2941996,7607.0,2539.0,2005.0,0.538,0.55,-0.269,0.579
2942012,7613.0,2409.0,2017.0,0.539,0.55,-0.27,0.579
2942038,7631.0,2275.0,2049.0,0.539,0.549,-0.271,0.578
2942055,7627.0,2203.0,2111.0,0.54,0.549,-0.271,0.578
2942071,7555.0,2115.0,2173.0,0.54,0.549,-0.272,0.577
2942087,7623.0,2199.0,2199.0,0.54,0.549,-0.272,0.577
2942103,7607.0,2111.0,2229.0,0.54,0.55,-0.273,0.576
2942119,7687.0,2105.0,2283.0,0.54,0.55,-0.273,0.576
2942145,7633.0,2105.0,2279.0,0.54,0.55,-0.273,0.576
2942161,7655.0,2217.0,2267.0,0.54,0.55,-0.273,0.576
2942177,7671.0,2257.0,2247.0,0.54,0.55,-0.273,0.576
2942193,7639.0,2255.0,2261.0,0.539,0.55,-0.273,0.577
2942209,7653.0,2275.0,2179.0,0.54,0.549,-0.273,0.577
2942225,7715.0,2311.0,2147.0,0.54,0.549,-0.273,0.577
2942251,7683.0,2253.0,2165.0,0.54,0.549,-0.273,0.577
2942267,7689.0,2171.0,2183.0,0.54,0.549,-0.273,0.577
2942283,7709.0,2115.0,2175.0,0.54,0.549,-0.273,0.577
2942299,7723.0,2141.0,2141.0,0.539,0.549,-0.273,0.577
2942315,7611.0,2193.0,2161.0,0.539,0.549,-0.272,0.578
2942331,7619.0,2231.0,2189.0,0.539,0.55,-0.272,0.578
2942357,7535.0,2209.0,2127.0,0.539,0.55,-0.272,0.578
2942373,7633.0,2355.0,2203.0,0.538,0.55,-0.271,0.578
2942389,7537.0,2245.0,2213.0,0.538,0.55,-0.271,0.578
2942405,7589.0,2321.0,2243.0,0.538,0.55,-0.271,0.578
2942421,7629.0,2307.0,2261.0,0.538,0.55,-0.271,0.578
2942437,7677.0,2285.0,2207.0,0.538,0.55,-0.271,0.578
2942463,7665.0,2259.0,2233.0,0.538,0.55,-0.271,0.578
2942479,7591.0,2235.0,2245.0,0.538,0.549,-0.271,0.578
2942495,7651.0,2203.0,2209.0,0.538,0.549,-0.271,0.579
2942511,7665.0,2261.0,2169.0,0.538,0.549,-0.271,0.579
2942527,7591.0,2175.0,2161.0,0.538,0.549,-0.272,0.579
2942553,7607.0,2137.0,2167.0,0.538,0.549,-0.272,0.579
2942569,7689.0,2151.0,2193.0,0.538,0.549,-0.272,0.579
2942585,7647.0,2205.0,2163.0,0.538,0.548,-0.272,0.579
2942601,7633.0,2165.0,2179.0,0.538,0.548,-0.272,0.58
2942617,7679.0,2231.0,2223.0,0.538,0.548,-0.272,0.58
2942633,7689.0,2175.0,2225.0,0.538,0.548,-0.272,0.58
2942659,7695.0,2159.0,2237.0,0.538,0.548,-0.271,0.58
2942675,7647.0,2181.0,2255.0,0.537,0.548,-0.271,0.581
2942691,7653.0,2089.0,2265.0,0.537,0.548,-0.271,0.581
2942707,7697.0,1955.0,2355.0,0.536,0.549,-0.27,0.582
2942723,7747.0,2059.0,2339.0,0.536,0.549,-0.269,0.583
2942740,7625.0,1987.0,2251.0,0.535,0.549,-0.268,0.584
2942756,7573.0,2203.0,2169.0,0.534,0.55,-0.266,0.585
2942783,7529.0,2391.0,2105.0,0.532,0.551,-0.264,0.586
2942799,7541.0,2449.0,2063.0,0.532,0.551,-0.263,0.587
2942815,7567.0,2433.0,2047.0,0.531,0.551,-0.263,0.587
2942831,7587.0,2367.0,2141.0,0.531,0.551,-0.262,0.588
2942847,7613.0,2233.0,2203.0,0.531,0.551,-0.262,0.588
2942863,7661.0,2149.0,2283.0,0.531,0.552,-0.262,0.588
2942889,7685.0,2159.0,2307.0,0.53,0.552,-0.262,0.588
2942906,7631.0,2149.0,2353.0,0.53,0.552,-0.261,0.589
2942922,7631.0,2071.0,2339.0,0.53,0.552,-0.261,0.589
2942939,7607.0,2069.0,2309.0,0.529,0.552,-0.26,0.59
2942956,7597.0,2055.0,2483.0,0.528,0.552,-0.259,0.591
2942973,7723.0,2029.0,2517.0,0.527,0.553,-0.257,0.592
2942990,7665.0,1863.0,2613.0,0.525,0.554,-0.254,0.594
2943007,7697.0,1867.0,2777.0,0.522,0.556,-0.251,0.596
2943023,7789.0,1767.0,2863.0,0.519,0.558,-0.246,0.599
2943039,7919.0,1683.0,2835.0,0.515,0.561,-0.239,0.603
2943066,7913.0,1671.0,2975.0,0.509,0.565,-0.231,0.607
2943083,7949.0,1689.0,3151.0,0.502,0.569,-0.22,0.613
2943100,7927.0,1565.0,3105.0,0.494,0.575,-0.208,0.619
2943116,7913.0,2269.0,3165.0,0.485,0.581,-0.192,0.625
2943132,7903.0,2325.0,2965.0,0.474,0.588,-0.174,0.632
2943148,8059.0,3163.0,2707.0,0.462,0.596,-0.153,0.638
2943165,8047.0,3837.0,2969.0,0.451,0.604,-0.131,0.644
2943181,8045.0,4247.0,3225.0,0.439,0.612,-0.107,0.649
2943207,8475.0,4629.0,3277.0,0.428,0.62,-0.079,0.653
2943223,8063.0,5159.0,2861.0,0.418,0.627,-0.048,0.656
2943239,7457.0,6171.0,2551.0,0.408,0.633,-0.014,0.657
2943256,7013.0,7013.0,2235.0,0.399,0.639,0.017,0.658
2943272,7029.0,7059.0,1645.0,0.395,0.641,0.045,0.657
2943289,6749.0,6937.0,1781.0,0.393,0.642,0.069,0.654
2943306,6529.0,6581.0,1703.0,0.393,0.642,0.091,0.652
2943332,6881.0,7461.0,843.0,0.393,0.643,0.113,0.648
2943348,6701.0,7429.0,329.0,0.396,0.642,0.134,0.642
2943364,6041.0,8125.0,45.0,0.401,0.642,0.154,0.635
2943380,6477.0,9531.0,-727.0,0.408,0.641,0.172,0.627
2943396,5891.0,8833.0,-893.0,0.418,0.64,0.187,0.617
2943412,6013.0,8953.0,-1451.0,0.431,0.637,0.201,0.607
2943438,5757.0,8605.0,-1463.0,0.447,0.632,0.211,0.596
2943455,5085.0,7493.0,-1623.0,0.465,0.627,0.221,0.585
2943472,4757.0,7225.0,-1661.0,0.482,0.623,0.229,0.572
2943489,4629.0,7123.0,-1869.0,0.499,0.62,0.236,0.558
2943506,4087.0,6483.0,-1721.0,0.517,0.616,0.241,0.543
2943523,3927.0,6773.0,-1581.0,0.535,0.612,0.245,0.528
2943539,3863.0,6291.0,-871.0,0.554,0.607,0.247,0.514
2943556,3497.0,6069.0,-585.0,0.572,0.601,0.248,0.5
2943573,3477.0,5501.0,-329.0,0.589,0.596,0.249,0.486
2943589,3329.0,5135.0,-441.0,0.604,0.593,0.251,0.471
2943606,2853.0,5609.0,-91.0,0.616,0.591,0.253,0.455
2943633,2511.0,6017.0,-37.0,0.628,0.589,0.255,0.44
2943649,2071.0,5655.0,-95.0,0.64,0.587,0.254,0.425
2943665,2251.0,5195.0,-13.0,0.65,0.587,0.252,0.41
2943681,2057.0,5013.0,159.0,0.659,0.59,0.25,0.395
2943697,2267.0,5835.0,125.0,0.665,0.592,0.247,0.382
2943713,1797.0,6137.0,455.0,0.673,0.594,0.242,0.37
2943739,2011.0,5863.0,899.0,0.68,0.594,0.235,0.36
2943756,1727.0,5157.0,1591.0,0.686,0.597,0.227,0.348
2943773,1535.0,5137.0,1745.0,0.69,0.602,0.221,0.336
2943789,1325.0,5663.0,1395.0,0.69,0.611,0.214,0.323
2943806,1377.0,6255.0,1505.0,0.69,0.62,0.207,0.311
2943823,1071.0,6289.0,1763.0,0.691,0.627,0.198,0.302
2943839,943.0,6377.0,1887.0,0.692,0.632,0.186,0.295
2943856,717.0,6279.0,1433.0,0.692,0.638,0.173,0.29
2943872,1219.0,6391.0,803.0,0.693,0.642,0.156,0.288
2943889,1911.0,6567.0,193.0,0.694,0.645,0.137,0.287
2943906,2607.0,6797.0,397.0,0.699,0.644,0.116,0.288
2943932,2951.0,5945.0,771.0,0.708,0.637,0.094,0.29
2943948,2805.0,4455.0,1247.0,0.72,0.625,0.07,0.294
2943964,2789.0,3095.0,1623.0,0.733,0.609,0.046,0.299
2943980,2555.0,2187.0,2505.0,0.747,0.591,0.019,0.305
2943996,1841.0,5341.0,4973.0,0.76,0.57,-0.016,0.313
2944012,4585.0,16069.0,13229.0,0.77,0.544,-0.064,0.326
2944038,7737.0,27073.0,10943.0,0.781,0.516,-0.106,0.334
2944055,10501.0,11019.0,6927.0,0.799,0.478,-0.137,0.337
2944071,8863.0,-719.0,5033.0,0.815,0.452,-0.144,0.332
2944088,4153.0,-1739.0,4327.0,0.825,0.439,-0.14,0.326
2944105,3263.0,-2119.0,4905.0,0.829,0.438,-0.132,0.321
2944122,3393.0,-929.0,4851.0,0.826,0.449,-0.123,0.317
2944139,3957.0,2279.0,5017.0,0.819,0.464,-0.119,0.317
2944156,3813.0,3609.0,4991.0,0.809,0.481,-0.119,0.318
2944173,4945.0,5843.0,4599.0,0.797,0.497,-0.121,0.322
2944190,5499.0,8473.0,3811.0,0.785,0.513,-0.121,0.325
2944216,5889.0,9887.0,3169.0,0.776,0.525,-0.119,0.328
2944233,5407.0,9485.0,2547.0,0.771,0.533,-0.115,0.329
2944249,4601.0,7859.0,2213.0,0.769,0.538,-0.109,0.328
2944265,4189.0,6909.0,2231.0,0.768,0.541,-0.104,0.325
2944281,3933.0,6563.0,2249.0,0.769,0.543,-0.101,0.323
2944297,3821.0,6481.0,2383.0,0.769,0.542,-0.1,0.322
2944313,3979.0,6609.0,2533.0,0.771,0.54,-0.102,0.32
2944339,4197.0,6881.0,2779.0,0.774,0.536,-0.106,0.319
2944356,4381.0,6859.0,3089.0,0.778,0.531,-0.109,0.317
2944372,4465.0,6887.0,3417.0,0.782,0.525,-0.113,0.315
2944389,4447.0,6883.0,3757.0,0.787,0.52,-0.115,0.312
2944406,4343.0,6531.0,3921.0,0.791,0.515,-0.117,0.309
2944422,4245.0,6295.0,3933.0,0.795,0.51,-0.119,0.306
2944438,3999.0,5839.0,3985.0,0.8,0.505,-0.121,0.302
2944464,4101.0,5309.0,4283.0,0.804,0.499,-0.122,0.3
2944480,4037.0,4947.0,4781.0,0.807,0.494,-0.123,0.299
2944496,3871.0,4797.0,4495.0,0.81,0.49,-0.124,0.298
2944512,3969.0,4877.0,4293.0,0.811,0.488,-0.126,0.298
2944528,4021.0,5151.0,4301.0,0.811,0.488,-0.127,0.298
2944544,4133.0,5645.0,4155.0,0.81,0.488,-0.128,0.298
2944570,4279.0,5923.0,4131.0,0.81,0.487,-0.129,0.298
2944586,4345.0,5815.0,4085.0,0.811,0.487,-0.13,0.299
2944602,4351.0,6035.0,4101.0,0.811,0.486,-0.13,0.299
2944618,4405.0,6051.0,3999.0,0.811,0.486,-0.131,0.299
2944634,4457.0,6067.0,3987.0,0.811,0.485,-0.132,0.298
2944650,4403.0,6027.0,3993.0,0.812,0.484,-0.132,0.298
2944676,4379.0,6027.0,4103.0,0.813,0.483,-0.133,0.297
2944692,4295.0,5953.0,4119.0,0.814,0.481,-0.133,0.297
2944708,4285.0,5651.0,4185.0,0.816,0.478,-0.134,0.296
2944724,4269.0,5443.0,4339.0,0.817,0.476,-0.135,0.295
2944740,4207.0,5493.0,4505.0,0.819,0.474,-0.135,0.295
2944756,4355.0,5595.0,4741.0,0.819,0.473,-0.135,0.294
2944782,4355.0,5399.0,4789.0,0.82,0.472,-0.134,0.294
2944798,4123.0,5277.0,4657.0,0.82,0.473,-0.132,0.294
2944814,4031.0,5275.0,4513.0,0.82,0.473,-0.131,0.294
2944830,4113.0,5353.0,4345.0,0.82,0.475,-0.129,0.294
2944846,4071.0,5375.0,4175.0,0.819,0.476,-0.128,0.293
2944862,3973.0,5339.0,4005.0,0.819,0.478,-0.127,0.293
2944888,4005.0,5401.0,3911.0,0.818,0.479,-0.126,0.292
2944905,3941.0,5335.0,3839.0,0.818,0.479,-0.126,0.292
2944921,4081.0,5327.0,3897.0,0.818,0.479,-0.127,0.291
2944938,4137.0,5119.0,3975.0,0.819,0.478,-0.128,0.29
2944954,4243.0,5021.0,4131.0,0.819,0.477,-0.13,0.29
2944972,4491.0,4981.0,4365.0,0.82,0.476,-0.132,0.29
2944989,4569.0,5125.0,4529.0,0.82,0.475,-0.134,0.29
2945006,4437.0,5177.0,4613.0,0.82,0.474,-0.135,0.29
2945022,4495.0,5227.0,4795.0,0.82,0.474,-0.136,0.29
2945039,4453.0,5207.0,4801.0,0.82,0.474,-0.137,0.29
2945065,4365.0,5161.0,4617.0,0.819,0.475,-0.138,0.29
2945081,4393.0,5353.0,4447.0,0.818,0.476,-0.139,0.291
2945097,4417.0,5581.0,4375.0,0.816,0.478,-0.139,0.293
2945113,4411.0,6077.0,4291.0,0.815,0.48,-0.14,0.294
2945129,4425.0,6343.0,4137.0,0.813,0.482,-0.141,0.295
2945145,4263.0,6387.0,4105.0,0.812,0.483,-0.141,0.295
2945171,4165.0,6183.0,3919.0,0.811,0.485,-0.141,0.296
2945188,4145.0,5891.0,3777.0,0.81,0.486,-0.141,0.296
2945205,4151.0,5713.0,3747.0,0.81,0.487,-0.141,0.297
2945221,4209.0,5747.0,3833.0,0.809,0.487,-0.141,0.297
2945238,4197.0,5815.0,3975.0,0.809,0.487,-0.142,0.298
2945255,4265.0,5719.0,4089.0,0.809,0.486,-0.143,0.298
2945271,4255.0,5475.0,4153.0,0.81,0.484,-0.144,0.299
2945288,4185.0,5141.0,4163.0,0.81,0.482,-0.146,0.3
2945314,4235.0,4993.0,4303.0,0.811,0.48,-0.147,0.301
2945330,4419.0,4879.0,4637.0,0.81,0.479,-0.149,0.303
2945346,4573.0,4783.0,4805.0,0.809,0.479,-0.15,0.305
2945362,4767.0,4773.0,4837.0,0.808,0.48,-0.151,0.307
2945378,4883.0,4775.0,4785.0,0.805,0.482,-0.152,0.31
2945394,4923.0,4573.0,4637.0,0.803,0.485,-0.153,0.313
2945420,4843.0,4551.0,4389.0,0.799,0.488,-0.153,0.316
2945436,4505.0,4933.0,4143.0,0.795,0.492,-0.152,0.32
2945453,4279.0,5411.0,3757.0,0.791,0.496,-0.151,0.325
2945470,3905.0,5931.0,3473.0,0.786,0.5,-0.151,0.33
2945487,3773.0,6297.0,3249.0,0.782,0.505,-0.152,0.334
2945504,3837.0,6721.0,3137.0,0.777,0.509,-0.153,0.337
2945521,3841.0,7499.0,2965.0,0.773,0.513,-0.155,0.34
2945538,4199.0,8041.0,3087.0,0.77,0.515,-0.158,0.342
2945555,4323.0,7953.0,3117.0,0.768,0.515,-0.161,0.344
2945572,4411.0,7977.0,2741.0,0.769,0.514,-0.164,0.344
2945589,4987.0,7413.0,2785.0,0.77,0.511,-0.167,0.343
2945605,4873.0,7111.0,2787.0,0.772,0.508,-0.17,0.342
2945632,5079.0,6465.0,2917.0,0.774,0.506,-0.171,0.34
2945648,5181.0,6019.0,2817.0,0.775,0.506,-0.172,0.338
2945664,5227.0,5813.0,2789.0,0.774,0.509,-0.171,0.335
2945680,5115.0,5343.0,2621.0,0.773,0.514,-0.169,0.331
2945696,4783.0,4905.0,2455.0,0.77,0.522,-0.166,0.327
2945712,4533.0,5369.0,2203.0,0.767,0.529,-0.163,0.323
2945738,4527.0,5643.0,1947.0,0.766,0.535,-0.161,0.319
2945755,4115.0,5087.0,1821.0,0.767,0.536,-0.161,0.315
2945772,4007.0,4615.0,1931.0,0.768,0.535,-0.164,0.311
2945788,4307.0,4361.0,2429.0,0.771,0.531,-0.171,0.308
2945805,4785.0,3965.0,3381.0,0.774,0.524,-0.181,0.305
2945822,5269.0,3559.0,4209.0,0.777,0.516,-0.195,0.304
2945838,5607.0,3243.0,4893.0,0.778,0.508,-0.21,0.305
2945855,5375.0,1825.0,5285.0,0.779,0.499,-0.225,0.307
2945871,4859.0,-97.0,5917.0,0.777,0.492,-0.238,0.312
2945898,4591.0,3109.0,6179.0,0.773,0.488,-0.251,0.319
2945914,6045.0,6193.0,6767.0,0.768,0.484,-0.264,0.327
2945930,7265.0,8135.0,6231.0,0.764,0.474,-0.28,0.336
2945946,7883.0,7189.0,5417.0,0.766,0.456,-0.294,0.345
2945962,7741.0,5585.0,3693.0,0.773,0.432,-0.308,0.349
2945978,8159.0,2999.0,4047.0,0.78,0.406,-0.319,0.353
2946004,7807.0,3317.0,4397.0,0.787,0.382,-0.328,0.357
2946021,7739.0,2333.0,4295.0,0.791,0.361,-0.338,0.361
2946037,7435.0,1799.0,3515.0,0.793,0.343,-0.346,0.365
2946054,7661.0,3335.0,2937.0,0.794,0.329,-0.354,0.37
2946071,8071.0,5119.0,2791.0,0.795,0.311,-0.364,0.373
2946088,7787.0,5813.0,2809.0,0.797,0.288,-0.377,0.373
2946105,7801.0,5831.0,2501.0,0.801,0.261,-0.392,0.37
2946122,7961.0,4597.0,2381.0,0.806,0.231,-0.407,0.362
2946138,7703.0,2375.0,2341.0,0.811,0.204,-0.421,0.352
2946155,7397.0,103.0,2475.0,0.815,0.183,-0.43,0.341
2946172,6849.0,-1563.0,2795.0,0.819,0.173,-0.435,0.333
2946198,6305.0,-2229.0,3179.0,0.821,0.174,-0.435,0.327
2946214,5999.0,-1843.0,3227.0,0.821,0.184,-0.433,0.324
2946230,5987.0,-1117.0,3203.0,0.819,0.198,-0.431,0.323
2946246,6287.0,-19.0,3413.0,0.817,0.211,-0.429,0.322
2946262,6581.0,623.0,3415.0,0.815,0.222,-0.428,0.322
2946278,7093.0,685.0,3797.0,0.813,0.23,-0.429,0.321
2946304,7269.0,573.0,4359.0,0.812,0.234,-0.43,0.318
2946321,7591.0,165.0,5307.0,0.811,0.237,-0.433,0.314
2946338,7923.0,-157.0,6993.0,0.811,0.239,-0.437,0.307
2946355,8499.0,-689.0,8371.0,0.811,0.243,-0.44,0.3
2946372,9467.0,-2187.0,9015.0,0.81,0.25,-0.439,0.297
2946388,9825.0,-3013.0,8155.0,0.81,0.265,-0.43,0.299
2946405,9421.0,-1987.0,7043.0,0.808,0.291,-0.412,0.304
2946421,9583.0,-1341.0,6067.0,0.805,0.324,-0.387,0.312
2946438,8873.0,209.0,5137.0,0.8,0.362,-0.355,0.321
2946455,8845.0,1537.0,3671.0,0.79,0.404,-0.32,0.332
2946481,8631.0,3941.0,2833.0,0.779,0.444,-0.283,0.34
2946497,8813.0,5323.0,2435.0,0.768,0.481,-0.245,0.345
2946513,8887.0,6605.0,2207.0,0.758,0.511,-0.21,0.347
2946529,8649.0,6955.0,2445.0,0.751,0.534,-0.178,0.345
2946545,8233.0,7323.0,2083.0,0.747,0.551,-0.15,0.341
2946561,7799.0,6409.0,1773.0,0.745,0.563,-0.124,0.337
2946587,7059.0,5857.0,1661.0,0.744,0.572,-0.1,0.331
2946604,6047.0,5549.0,1727.0,0.744,0.578,-0.077,0.325
2946621,5299.0,5551.0,1819.0,0.745,0.583,-0.056,0.32
2946638,4905.0,5161.0,1955.0,0.744,0.587,-0.036,0.316
2946655,4071.0,5723.0,1801.0,0.744,0.59,-0.018,0.312
2946671,3437.0,5647.0,1799.0,0.745,0.591,-0.001,0.309
2946688,2829.0,5935.0,1771.0,0.747,0.59,0.014,0.307
2946704,2611.0,6349.0,1987.0,0.748,0.587,0.027,0.307
2946731,2627.0,6853.0,1943.0,0.75,0.584,0.039,0.309
2946747,1851.0,6475.0,1927.0,0.751,0.58,0.049,0.313
2946763,917.0,5647.0,2089.0,0.752,0.575,0.059,0.316
2946779,217.0,5199.0,2585.0,0.754,0.57,0.068,0.319
2946795,31.0,5237.0,3151.0,0.756,0.566,0.076,0.322
2946811,325.0,4531.0,3549.0,0.755,0.563,0.082,0.326
2946837,41.0,3861.0,3921.0,0.751,0.564,0.089,0.331
2946853,135.0,3375.0,3939.0,0.745,0.567,0.098,0.337
2946869,247.0,3361.0,3767.0,0.736,0.573,0.108,0.344
2946885,-305.0,2721.0,3573.0,0.725,0.58,0.122,0.351
2946901,-567.0,2059.0,3047.0,0.711,0.589,0.138,0.36
2946917,-713.0,1671.0,2551.0,0.693,0.6,0.155,0.37
2946943,-603.0,963.0,2247.0,0.67,0.614,0.172,0.381
2946959,125.0,1251.0,1471.0,0.641,0.631,0.191,0.392
2946975,1525.0,2337.0,193.0,0.605,0.653,0.211,0.405
2946991,3143.0,5371.0,-1499.0,0.563,0.674,0.233,0.417
2947007,4229.0,9727.0,-2989.0,0.523,0.69,0.253,0.432
2947023,4605.0,12751.0,-3491.0,0.491,0.695,0.268,0.452
2947049,4543.0,12249.0,-3669.0,0.471,0.69,0.274,0.476
2947065,3975.0,9265.0,-3013.0,0.458,0.681,0.273,0.502
2947081,4203.0,5929.0,-2331.0,0.445,0.674,0.27,0.524
2947097,5059.0,4053.0,-2015.0,0.429,0.67,0.267,0.544
2947113,6075.0,4335.0,-1809.0,0.407,0.671,0.267,0.559
2947129,6889.0,5569.0,-1737.0,0.383,0.673,0.269,0.574
2947145,7409.0,6047.0,-1173.0,0.358,0.673,0.27,0.588
2947171,7861.0,5205.0,-1521.0,0.334,0.671,0.271,0.603
2947188,8595.0,3909.0,-1741.0,0.308,0.668,0.272,0.62
2947204,9333.0,3325.0,-2491.0,0.28,0.665,0.273,0.637
2947221,9549.0,3865.0,-3249.0,0.248,0.661,0.273,0.653
2947237,9615.0,4697.0,-3723.0,0.216,0.658,0.271,0.668
2947254,9615.0,5899.0,-3769.0,0.185,0.656,0.265,0.682
2947271,9349.0,6685.0,-3459.0,0.158,0.654,0.254,0.695
2947288,9183.0,7517.0,-3145.0,0.135,0.654,0.239,0.705
2947314,8229.0,7603.0,-2295.0,0.118,0.655,0.222,0.713
2947330,7867.0,8149.0,-1669.0,0.105,0.657,0.207,0.718
2947346,7387.0,7819.0,-1173.0,0.096,0.659,0.195,0.72
2947363,6967.0,7419.0,-399.0,0.091,0.662,0.19,0.72
2947379,6667.0,7109.0,237.0,0.088,0.664,0.189,0.718
2947395,6667.0,6981.0,821.0,0.088,0.667,0.191,0.715
2947411,7157.0,6627.0,1071.0,0.09,0.669,0.193,0.712
2947437,7627.0,6311.0,1031.0,0.093,0.671,0.195,0.709
2947454,7863.0,5973.0,801.0,0.096,0.671,0.197,0.708
2947470,7819.0,5969.0,583.0,0.1,0.671,0.202,0.706
2947487,8081.0,6169.0,157.0,0.104,0.671,0.209,0.704
2947503,8255.0,6729.0,-517.0,0.109,0.671,0.218,0.701
2947520,8275.0,7261.0,-1091.0,0.116,0.67,0.229,0.696
2947537,8413.0,8033.0,-1835.0,0.127,0.67,0.24,0.691
2947554,8515.0,8561.0,-2179.0,0.141,0.668,0.251,0.686
2947570,8883.0,10017.0,-3229.0,0.163,0.666,0.259,0.681
2947597,8949.0,9995.0,-3443.0,0.192,0.661,0.261,0.677
2947613,9205.0,8959.0,-3243.0,0.227,0.655,0.258,0.673
2947629,9457.0,7955.0,-2571.0,0.267,0.648,0.251,0.667
2947645,9741.0,6673.0,-2369.0,0.309,0.639,0.244,0.66
2947661,9853.0,6705.0,-2639.0,0.353,0.628,0.236,0.652
2947677,9307.0,7155.0,-2437.0,0.397,0.613,0.227,0.644
2947703,8523.0,7325.0,-1493.0,0.443,0.596,0.213,0.635
2947720,8461.0,7231.0,-1399.0,0.49,0.574,0.197,0.626
2947737,7889.0,6155.0,-1531.0,0.538,0.548,0.177,0.616
2947754,7163.0,4687.0,-1379.0,0.582,0.521,0.157,0.604
2947771,6309.0,4695.0,-1073.0,0.624,0.491,0.138,0.591
2947787,5527.0,4397.0,-535.0,0.664,0.461,0.119,0.577
2947803,5483.0,5645.0,-295.0,0.702,0.43,0.098,0.559
2947820,5043.0,4101.0,375.0,0.739,0.396,0.076,0.54
2947837,4771.0,2261.0,1821.0,0.772,0.366,0.055,0.517
2947854,4521.0,659.0,3063.0,0.8,0.34,0.037,0.493
2947880,4227.0,431.0,4039.0,0.824,0.322,0.023,0.466
2947896,4023.0,249.0,4611.0,0.843,0.309,0.013,0.439
2947912,3459.0,811.0,5415.0,0.858,0.304,0.007,0.414
2947928,3291.0,1221.0,5483.0,0.87,0.302,0.004,0.39
2947944,2683.0,1035.0,5707.0,0.88,0.302,0.002,0.367
2947970,2139.0,1195.0,6397.0,0.888,0.303,0.0,0.345
2947987,1837.0,667.0,7457.0,0.896,0.303,-0.002,0.325
2948003,1713.0,-271.0,8165.0,0.902,0.305,-0.005,0.307
2948019,1853.0,-1629.0,8581.0,0.906,0.308,-0.007,0.291
2948036,1811.0,-2295.0,9101.0,0.907,0.318,-0.005,0.278
2948053,2085.0,-2085.0,9281.0,0.904,0.332,-0.0,0.268
2948070,2329.0,-1645.0,9275.0,0.899,0.351,0.008,0.262
2948087,2295.0,-1545.0,9443.0,0.891,0.372,0.021,0.26
2948104,2539.0,-869.0,9301.0,0.879,0.397,0.036,0.263
2948120,2951.0,-61.0,9153.0,0.863,0.424,0.053,0.269
2948147,3391.0,625.0,8195.0,0.844,0.451,0.073,0.28
2948163,3561.0,361.0,6493.0,0.82,0.481,0.097,0.295
2948180,3585.0,889.0,4525.0,0.789,0.516,0.128,0.31
2948196,3139.0,1759.0,2679.0,0.749,0.553,0.163,0.325
2948212,2903.0,3537.0,991.0,0.703,0.593,0.202,0.337
2948228,2693.0,5481.0,-655.0,0.653,0.629,0.24,0.346
2948244,3103.0,7515.0,-2141.0,0.602,0.66,0.277,0.353
2948270,3565.0,9725.0,-3419.0,0.557,0.681,0.309,0.362
2948286,3605.0,12877.0,-3689.0,0.522,0.688,0.335,0.376
2948303,3287.0,11097.0,-3315.0,0.502,0.683,0.351,0.398
2948320,2957.0,7995.0,-3001.0,0.489,0.672,0.358,0.425
2948337,2967.0,4299.0,-2877.0,0.477,0.663,0.36,0.451
2948354,3327.0,3093.0,-2227.0,0.461,0.658,0.361,0.474
2948370,4319.0,3407.0,-1713.0,0.44,0.657,0.363,0.493
2948386,5425.0,4335.0,-1769.0,0.416,0.659,0.365,0.509
2948403,6341.0,4799.0,-2123.0,0.39,0.66,0.366,0.527
2948420,6693.0,4865.0,-2257.0,0.362,0.66,0.366,0.546
2948447,6805.0,4747.0,-2309.0,0.334,0.658,0.365,0.567
2948463,7253.0,4233.0,-2597.0,0.306,0.655,0.361,0.589
2948479,7915.0,3335.0,-3057.0,0.277,0.651,0.355,0.612
2948495,8745.0,2847.0,-3077.0,0.246,0.647,0.347,0.633
2948511,9517.0,3047.0,-3467.0,0.212,0.644,0.337,0.654
2948527,10247.0,3943.0,-3415.0,0.177,0.642,0.325,0.672
2948553,10733.0,5897.0,-3507.0,0.143,0.641,0.31,0.688
2948570,10621.0,7483.0,-3101.0,0.114,0.64,0.289,0.703
2948587,10161.0,8395.0,-2817.0,0.091,0.639,0.264,0.717
2948603,9049.0,9363.0,-2261.0,0.076,0.638,0.235,0.729
2948620,8289.0,8151.0,-1489.0,0.067,0.639,0.207,0.738
2948637,7951.0,7251.0,-1175.0,0.063,0.639,0.184,0.744
2948653,7689.0,7825.0,-831.0,0.065,0.638,0.165,0.749
2948670,7519.0,9605.0,-361.0,0.078,0.636,0.142,0.755
2948687,7675.0,9353.0,-289.0,0.101,0.632,0.109,0.76
2948704,7769.0,9225.0,-519.0,0.132,0.627,0.065,0.765
2948730,7719.0,9587.0,-751.0,0.171,0.618,0.01,0.768
2948746,7949.0,8325.0,-1135.0,0.219,0.603,-0.057,0.765
2948762,8665.0,5525.0,-1839.0,0.272,0.582,-0.129,0.755
2948778,8919.0,3341.0,-1909.0,0.328,0.553,-0.201,0.739
2948794,8989.0,543.0,-1557.0,0.383,0.519,-0.271,0.715
2948810,8797.0,-3379.0,83.0,0.429,0.484,-0.331,0.687
2948836,9213.0,-3799.0,787.0,0.467,0.45,-0.38,0.66
2948853,8893.0,-3833.0,1077.0,0.499,0.418,-0.419,0.633
2948870,8569.0,-4049.0,1295.0,0.527,0.388,-0.45,0.608
2948887,7957.0,-3267.0,1225.0,0.549,0.358,-0.478,0.584
2948903,7819.0,-2801.0,593.0,0.569,0.33,-0.503,0.561
2948920,7231.0,-5179.0,871.0,0.584,0.304,-0.526,0.538
2948937,7113.0,-5657.0,1327.0,0.596,0.285,-0.542,0.519
2948953,7359.0,-4767.0,1887.0,0.604,0.27,-0.555,0.504
2948970,7709.0,-4391.0,1643.0,0.609,0.259,-0.565,0.493
2948987,7661.0,-3821.0,1639.0,0.613,0.25,-0.572,0.485
2949013,7397.0,-3761.0,2163.0,0.615,0.243,-0.577,0.478
2949030,7497.0,-3671.0,2529.0,0.616,0.238,-0.582,0.475
2949046,7831.0,-4159.0,3203.0,0.614,0.236,-0.584,0.475
2949062,7881.0,-6543.0,4345.0,0.611,0.243,-0.58,0.482
2949078,8393.0,-9261.0,4823.0,0.604,0.263,-0.565,0.498
2949094,8653.0,-8989.0,3981.0,0.591,0.297,-0.534,0.527
2949110,9153.0,-7283.0,2649.0,0.571,0.343,-0.487,0.565
2949136,9715.0,-3927.0,1079.0,0.544,0.397,-0.423,0.607
2949153,9935.0,-1385.0,57.0,0.51,0.454,-0.343,0.645
2949170,9693.0,651.0,-1407.0,0.471,0.511,-0.249,0.675
2949187,9597.0,4127.0,-3295.0,0.429,0.562,-0.145,0.692
2949204,9301.0,7843.0,-4673.0,0.388,0.603,-0.04,0.696
2949220,9275.0,11719.0,-5257.0,0.355,0.63,0.059,0.688
2949236,9815.0,18421.0,-5343.0,0.34,0.64,0.138,0.675
2949262,8951.0,21195.0,-3543.0,0.355,0.629,0.181,0.667
2949278,8785.0,15619.0,-3635.0,0.394,0.606,0.191,0.665
2949294,7555.0,8027.0,-4115.0,0.441,0.578,0.18,0.662
2949310,6317.0,3703.0,-3297.0,0.486,0.556,0.166,0.654
2949326,5967.0,3189.0,-2931.0,0.529,0.539,0.155,0.637
2949342,5885.0,4029.0,-2293.0,0.568,0.527,0.149,0.614
2949358,5445.0,6185.0,-1709.0,0.606,0.516,0.146,0.587
2949384,4423.0,6877.0,-1111.0,0.645,0.503,0.139,0.558
2949400,3877.0,5353.0,-755.0,0.682,0.488,0.127,0.529
2949417,3119.0,3605.0,-283.0,0.718,0.473,0.112,0.499
2949433,3043.0,2401.0,-61.0,0.75,0.459,0.094,0.467
2949449,3067.0,2275.0,247.0,0.778,0.446,0.076,0.435
2949465,3497.0,2317.0,715.0,0.803,0.435,0.056,0.403
2949491,3387.0,2139.0,1831.0,0.824,0.427,0.037,0.37
2949507,3317.0,1785.0,2611.0,0.842,0.42,0.017,0.337
2949523,3385.0,2455.0,2823.0,0.858,0.415,-0.003,0.303
2949539,3845.0,2513.0,3439.0,0.871,0.409,-0.024,0.27
2949555,3939.0,2053.0,4253.0,0.883,0.4,-0.045,0.24
2949571,3779.0,873.0,5171.0,0.893,0.392,-0.065,0.213
2949597,3291.0,-1079.0,5505.0,0.899,0.387,-0.083,0.188
2949614,3317.0,297.0,6067.0,0.901,0.389,-0.1,0.166
2949630,3711.0,2047.0,6057.0,0.9,0.394,-0.115,0.147
2949646,4639.0,4677.0,6219.0,0.899,0.397,-0.129,0.131
2949662,4863.0,5361.0,6669.0,0.9,0.396,-0.139,0.117
2949678,4745.0,4623.0,6723.0,0.901,0.395,-0.147,0.107
2949694,5547.0,2377.0,8149.0,0.899,0.399,-0.15,0.1
2949720,7709.0,-3643.0,10261.0,0.892,0.416,-0.145,0.101
2949736,1947.0,1825.0,7043.0,0.878,0.448,-0.137,0.103
2949753,2525.0,4869.0,5243.0,0.858,0.485,-0.131,0.105
2949770,3779.0,9337.0,3733.0,0.839,0.518,-0.126,0.107
2949786,6069.0,11459.0,1963.0,0.832,0.532,-0.124,0.097
2949803,5109.0,4051.0,4547.0,0.829,0.538,-0.122,0.089
2949820,3927.0,3787.0,3213.0,0.818,0.556,-0.12,0.082
2949836,3755.0,6945.0,1139.0,0.803,0.578,-0.12,0.08
2949862,4497.0,11037.0,2171.0,0.789,0.598,-0.116,0.079
2949878,2199.0,10627.0,2649.0,0.781,0.609,-0.112,0.08
2949894,1815.0,10725.0,2969.0,0.776,0.616,-0.108,0.08
2949910,1195.0,9227.0,2843.0,0.773,0.62,-0.105,0.078
2949926,1721.0,7249.0,2541.0,0.772,0.623,-0.102,0.075
2949942,1911.0,6131.0,1713.0,0.77,0.626,-0.098,0.073
2949968,2083.0,6601.0,1525.0,0.765,0.633,-0.094,0.072
2949985,1899.0,7909.0,1919.0,0.759,0.641,-0.088,0.073
2950002,1081.0,8655.0,2387.0,0.753,0.649,-0.083,0.074
2950019,507.0,8455.0,2067.0,0.748,0.654,-0.078,0.075
2950035,689.0,7919.0,1731.0,0.744,0.659,-0.074,0.074
2950051,787.0,7815.0,1295.0,0.74,0.664,-0.07,0.074
2950067,1271.0,8095.0,1043.0,0.736,0.669,-0.067,0.074
2950094,823.0,7891.0,677.0,0.733,0.674,-0.064,0.074
2950110,781.0,8499.0,735.0,0.729,0.678,-0.061,0.074
2950126,857.0,8715.0,993.0,0.727,0.681,-0.059,0.074
2950142,1485.0,8475.0,607.0,0.724,0.683,-0.057,0.074
2950158,1517.0,7603.0,371.0,0.721,0.687,-0.055,0.075
2950174,1427.0,8005.0,613.0,0.718,0.69,-0.054,0.076
2950190,1439.0,8109.0,701.0,0.714,0.694,-0.053,0.078
2950216,1499.0,8017.0,247.0,0.711,0.697,-0.054,0.079
2950232,1441.0,7909.0,205.0,0.707,0.701,-0.054,0.08
2950249,1669.0,8003.0,67.0,0.703,0.704,-0.056,0.081
2950265,1959.0,7947.0,107.0,0.699,0.708,-0.058,0.082
2950281,2239.0,7661.0,-143.0,0.695,0.712,-0.06,0.083
2950297,2661.0,7635.0,-253.0,0.691,0.715,-0.061,0.084
2950323,2689.0,6365.0,-269.0,0.687,0.719,-0.061,0.085
2950339,3283.0,8015.0,-123.0,0.682,0.723,-0.061,0.087
2950355,3533.0,8277.0,-371.0,0.677,0.728,-0.06,0.09
2950371,3661.0,7975.0,-539.0,0.672,0.733,-0.059,0.093
2950387,3897.0,7935.0,-393.0,0.666,0.737,-0.057,0.097
2950403,3651.0,7827.0,-483.0,0.66,0.742,-0.053,0.101
2950429,3703.0,8083.0,-615.0,0.654,0.747,-0.048,0.105
2950445,3491.0,7859.0,-665.0,0.649,0.752,-0.043,0.109
2950461,3577.0,8041.0,-799.0,0.643,0.757,-0.036,0.113
2950477,3629.0,8023.0,-1109.0,0.637,0.762,-0.027,0.118
2950493,3557.0,7819.0,-1123.0,0.63,0.766,-0.018,0.124
2950509,3557.0,7697.0,-1227.0,0.623,0.771,-0.007,0.13
2950535,3473.0,7761.0,-1527.0,0.616,0.776,0.004,0.138
2950552,3437.0,8099.0,-1703.0,0.608,0.78,0.016,0.147
2950569,3621.0,8051.0,-1871.0,0.6,0.784,0.029,0.157
2950586,3501.0,7479.0,-2067.0,0.592,0.787,0.044,0.168
2950603,3093.0,8757.0,-2189.0,0.583,0.791,0.06,0.178
2950619,3391.0,10629.0,-2897.0,0.574,0.793,0.078,0.189
2950636,2171.0,10167.0,-2539.0,0.567,0.793,0.097,0.199
2950652,2013.0,10993.0,-2981.0,0.561,0.793,0.117,0.207
2950669,1935.0,11281.0,-3209.0,0.555,0.792,0.138,0.214
2950686,1663.0,12295.0,-3107.0,0.551,0.79,0.158,0.219
2950703,1727.0,11949.0,-3273.0,0.547,0.787,0.178,0.224
2950729,1373.0,12389.0,-3065.0,0.546,0.783,0.197,0.226
2950745,1207.0,12011.0,-3251.0,0.546,0.778,0.216,0.226
2950761,977.0,11779.0,-2937.0,0.547,0.771,0.235,0.224
2950777,787.0,11883.0,-2903.0,0.551,0.764,0.253,0.22
2950793,199.0,11643.0,-2619.0,0.557,0.755,0.271,0.214
2950809,259.0,11369.0,-2733.0,0.564,0.745,0.289,0.207
2950835,3.0,11057.0,-2765.0,0.574,0.733,0.307,0.199
2950852,-171.0,10641.0,-2687.0,0.584,0.719,0.325,0.19
2950869,-15.0,10823.0,-2985.0,0.596,0.703,0.343,0.182
2950886,-563.0,9987.0,-2589.0,0.609,0.684,0.361,0.174
2950903,-621.0,9777.0,-2677.0,0.623,0.664,0.379,0.166
2950919,-861.0,9477.0,-2763.0,0.637,0.641,0.397,0.16
2950936,-1625.0,8603.0,-1963.0,0.652,0.616,0.414,0.154
2950952,-1607.0,8153.0,-2193.0,0.667,0.589,0.432,0.148
2950969,-2173.0,7293.0,-1893.0,0.681,0.56,0.449,0.142
2950996,-2347.0,7723.0,-1909.0,0.696,0.53,0.465,0.137
2951012,-2745.0,6933.0,-1573.0,0.71,0.498,0.48,0.133
2951028,-2783.0,6515.0,-1661.0,0.723,0.465,0.494,0.13
2951044,-3615.0,5895.0,-995.0,0.736,0.43,0.508,0.127
2951060,-3975.0,5331.0,-757.0,0.747,0.394,0.52,0.125
2951076,-4213.0,4513.0,-643.0,0.758,0.359,0.532,0.122
2951092,-4283.0,4267.0,-503.0,0.766,0.323,0.543,0.119
2951118,-4945.0,4317.0,-137.0,0.774,0.287,0.553,0.116
2951135,-4971.0,4219.0,75.0,0.78,0.252,0.562,0.114
2951152,-4849.0,3403.0,-103.0,0.785,0.216,0.569,0.113
2951168,-4867.0,2739.0,-31.0,0.789,0.182,0.576,0.112
2951185,-5019.0,2629.0,137.0,0.791,0.148,0.583,0.111
2951202,-5267.0,2185.0,-49.0,0.792,0.115,0.589,0.111
2951219,-5309.0,1915.0,5.0,0.792,0.082,0.594,0.112
2951235,-5507.0,1609.0,205.0,0.791,0.05,0.599,0.114
2951252,-5213.0,1049.0,-31.0,0.79,0.02,0.602,0.116
2951279,-5229.0,381.0,-151.0,0.787,-0.01,0.605,0.118
2951295,-5379.0,631.0,49.0,0.784,-0.038,0.608,0.121
2951311,-5565.0,703.0,-9.0,0.78,-0.067,0.61,0.125
2951327,-5751.0,273.0,31.0,0.775,-0.095,0.611,0.13
2951343,-6113.0,-5.0,59.0,0.769,-0.123,0.612,0.137
2951359,-6349.0,-1473.0,219.0,0.764,-0.149,0.611,0.144
2951375,-6451.0,-1685.0,267.0,0.759,-0.173,0.609,0.15
2951402,-6665.0,-1131.0,407.0,0.754,-0.195,0.607,0.156
2951419,-6583.0,-761.0,235.0,0.75,-0.215,0.604,0.162
2951436,-6669.0,-967.0,213.0,0.745,-0.234,0.601,0.169
2951452,-6455.0,-1145.0,55.0,0.74,-0.252,0.598,0.177
2951469,-6347.0,-1277.0,55.0,0.734,-0.269,0.595,0.185
2951486,-6549.0,-1537.0,-41.0,0.729,-0.284,0.593,0.191
2951503,-6601.0,-1667.0,-175.0,0.723,-0.299,0.591,0.197
2951519,-6657.0,-1349.0,221.0,0.717,-0.312,0.589,0.202
2951535,-7127.0,-1497.0,51.0,0.712,-0.325,0.587,0.207
2951552,-6931.0,-1205.0,113.0,0.707,-0.337,0.584,0.212
2951579,-6641.0,-1149.0,-241.0,0.703,-0.348,0.582,0.216
2951595,-7047.0,-1201.0,13.0,0.698,-0.359,0.58,0.219
2951611,-7301.0,-1525.0,-269.0,0.692,-0.37,0.578,0.223
2951627,-7403.0,-1439.0,-401.0,0.687,-0.381,0.575,0.227
2951643,-7385.0,-1479.0,-323.0,0.682,-0.391,0.572,0.232
2951659,-7891.0,-2119.0,-821.0,0.678,-0.401,0.569,0.235
2951685,-7003.0,-2243.0,-619.0,0.674,-0.41,0.567,0.238
2951702,-6811.0,-1801.0,-973.0,0.67,-0.418,0.565,0.239
2951719,-7307.0,-1953.0,-673.0,0.666,-0.427,0.563,0.24
2951736,-7569.0,-2263.0,-767.0,0.662,-0.435,0.56,0.241
2951752,-7801.0,-2379.0,-673.0,0.659,-0.443,0.558,0.242
2951768,-7731.0,-2273.0,-825.0,0.656,-0.45,0.555,0.244
2951785,-7627.0,-2295.0,-945.0,0.653,-0.457,0.552,0.245
2951802,-7609.0,-1833.0,-1003.0,0.649,-0.464,0.55,0.247
2951819,-7875.0,-2143.0,-1111.0,0.645,-0.471,0.547,0.25
2951845,-8175.0,-3247.0,-843.0,0.641,-0.479,0.545,0.252
2951862,-8345.0,-4087.0,-855.0,0.637,-0.485,0.543,0.253
2951879,-8483.0,-3369.0,-1063.0,0.634,-0.49,0.542,0.252
2951895,-8933.0,-3791.0,-965.0,0.63,-0.496,0.542,0.252
2951911,-9217.0,-3875.0,-1117.0,0.627,-0.501,0.542,0.25
2951927,-9489.0,-3951.0,-1197.0,0.624,-0.506,0.542,0.248
2951943,-9435.0,-4433.0,-1301.0,0.62,-0.51,0.543,0.245
2951969,-9421.0,-4217.0,-1697.0,0.618,-0.515,0.543,0.242
2951985,-9611.0,-4091.0,-1741.0,0.614,-0.519,0.544,0.238
2952002,-9491.0,-4525.0,-1921.0,0.611,-0.524,0.545,0.234
2952019,-9325.0,-4549.0,-2083.0,0.608,-0.528,0.546,0.23
2952035,-9427.0,-4045.0,-2019.0,0.606,-0.532,0.547,0.226
2952052,-9383.0,-4147.0,-2217.0,0.602,-0.536,0.548,0.222
2952069,-9683.0,-4023.0,-2011.0,0.599,-0.54,0.55,0.218
2952086,-9059.0,-4051.0,-2113.0,0.596,-0.543,0.552,0.214
2952102,-8707.0,-3959.0,-2105.0,0.593,-0.545,0.553,0.211
2952119,-8883.0,-3895.0,-2021.0,0.591,-0.548,0.555,0.206
2952136,-9103.0,-3665.0,-1937.0,0.589,-0.55,0.557,0.202
2952162,-8567.0,-3867.0,-2087.0,0.588,-0.551,0.558,0.198
2952178,-8447.0,-3611.0,-2095.0,0.587,-0.552,0.56,0.195
2952194,-8295.0,-3783.0,-2037.0,0.586,-0.552,0.561,0.191
2952210,-7925.0,-3733.0,-2217.0,0.586,-0.552,0.563,0.187
2952226,-7901.0,-3427.0,-2205.0,0.586,-0.552,0.564,0.183
2952252,-8059.0,-3461.0,-2123.0,0.586,-0.552,0.566,0.18
2952270,-7823.0,-3609.0,-2231.0,0.586,-0.551,0.567,0.177
2952286,-7683.0,-3853.0,-2363.0,0.587,-0.55,0.568,0.174
2952302,-7599.0,-3587.0,-2353.0,0.587,-0.549,0.569,0.172
2952319,-7741.0,-3699.0,-2203.0,0.588,-0.548,0.57,0.17
2952335,-7579.0,-3959.0,-2367.0,0.588,-0.547,0.571,0.168
2952352,-8033.0,-3907.0,-2185.0,0.589,-0.546,0.571,0.167
2952369,-7885.0,-3439.0,-2397.0,0.59,-0.545,0.572,0.167
2952385,-7919.0,-3997.0,-2557.0,0.59,-0.545,0.572,0.167
2952402,-8171.0,-3971.0,-2293.0,0.591,-0.543,0.572,0.167
2952429,-7623.0,-3259.0,-2321.0,0.592,-0.541,0.573,0.168
2952446,-7169.0,-3673.0,-2503.0,0.593,-0.54,0.573,0.17
2952463,-7017.0,-3669.0,-2339.0,0.594,-0.537,0.573,0.172
2952480,-7059.0,-3099.0,-2363.0,0.595,-0.535,0.574,0.175
2952496,-6843.0,-2999.0,-2197.0,0.596,-0.532,0.575,0.179
2952512,-6517.0,-3237.0,-2217.0,0.597,-0.528,0.576,0.184
2952528,-6341.0,-3339.0,-1995.0,0.598,-0.524,0.576,0.189
2952544,-5945.0,-3341.0,-2229.0,0.6,-0.52,0.577,0.194
2952570,-6081.0,-2379.0,-2039.0,0.602,-0.515,0.577,0.199
2952587,-6253.0,-2811.0,-1791.0,0.604,-0.51,0.577,0.205
2952603,-6383.0,-2929.0,-1445.0,0.607,-0.505,0.577,0.21
2952619,-6133.0,-5017.0,-1499.0,0.611,-0.498,0.576,0.215
2952635,-6463.0,-3611.0,-1123.0,0.619,-0.491,0.573,0.217
2952651,-5349.0,-1631.0,-2213.0,0.628,-0.481,0.571,0.22
2952668,-5577.0,-639.0,-1793.0,0.634,-0.474,0.568,0.225
2952685,-6027.0,-3321.0,-1513.0,0.639,-0.468,0.565,0.231
2952711,-5775.0,-3037.0,-1429.0,0.645,-0.46,0.562,0.237
2952728,-5619.0,-2259.0,-1065.0,0.651,-0.454,0.558,0.243
2952745,-5171.0,-1171.0,-389.0,0.657,-0.446,0.553,0.251
2952761,-3611.0,-1855.0,-335.0,0.663,-0.441,0.547,0.259
2952777,-2305.0,-1189.0,15.0,0.667,-0.437,0.542,0.265
2952793,-2023.0,-1869.0,243.0,0.67,-0.435,0.538,0.27
2952809,-1937.0,-2393.0,707.0,0.671,-0.435,0.536,0.271
2952835,-1877.0,-2207.0,807.0,0.672,-0.435,0.535,0.269
2952852,-2375.0,-1457.0,1181.0,0.673,-0.437,0.535,0.264
2952868,-2295.0,-1585.0,641.0,0.673,-0.44,0.536,0.258
2952885,-3553.0,-3029.0,985.0,0.672,-0.444,0.537,0.251
2952902,-4133.0,-443.0,631.0,0.67,-0.449,0.539,0.243
2952918,-5185.0,-675.0,545.0,0.667,-0.455,0.54,0.239
2952935,-4651.0,-3811.0,-9.0,0.663,-0.461,0.541,0.235
2952952,-6045.0,-2599.0,-239.0,0.66,-0.468,0.542,0.229
2952968,-6839.0,-2695.0,-159.0,0.657,-0.474,0.542,0.223
2952995,-7201.0,-1905.0,-309.0,0.654,-0.48,0.542,0.22
2953011,-7181.0,-2085.0,-27.0,0.651,-0.486,0.541,0.218
2953027,-6771.0,-5621.0,-459.0,0.649,-0.491,0.541,0.215
2953043,-8279.0,-1855.0,-113.0,0.648,-0.495,0.54,0.211
2953059,-8621.0,-2901.0,189.0,0.647,-0.498,0.538,0.209
2953075,-8011.0,-3623.0,-281.0,0.647,-0.501,0.536,0.208
2953092,-8305.0,-2959.0,123.0,0.648,-0.503,0.534,0.206
2953118,-8097.0,-3103.0,-5.0,0.649,-0.505,0.532,0.203
2953135,-8173.0,-2959.0,75.0,0.65,-0.507,0.529,0.202
2953151,-8115.0,-3257.0,77.0,0.65,-0.509,0.527,0.2
2953168,-8195.0,-3769.0,-195.0,0.652,-0.51,0.525,0.198
2953185,-8443.0,-3243.0,-129.0,0.653,-0.512,0.523,0.195
2953202,-8219.0,-3847.0,-473.0,0.653,-0.513,0.522,0.193
2953218,-8573.0,-3439.0,-473.0,0.653,-0.515,0.521,0.192
2953235,-8659.0,-3951.0,-659.0,0.653,-0.517,0.52,0.191
2953252,-8793.0,-3683.0,-739.0,0.652,-0.518,0.519,0.192
2953269,-8351.0,-3497.0,-823.0,0.651,-0.52,0.518,0.192
2953295,-7873.0,-3541.0,-715.0,0.65,-0.522,0.517,0.194
2953311,-7487.0,-3055.0,-539.0,0.65,-0.524,0.516,0.195
2953327,-7059.0,-2963.0,-487.0,0.649,-0.525,0.514,0.197
2953343,-6677.0,-3667.0,-483.0,0.648,-0.527,0.513,0.199
2953359,-6985.0,-2771.0,-529.0,0.647,-0.529,0.512,0.2
2953385,-6995.0,-3393.0,-757.0,0.645,-0.53,0.512,0.201
2953402,-7355.0,-3523.0,-771.0,0.644,-0.532,0.511,0.202
2953418,-7205.0,-3817.0,-1015.0,0.642,-0.534,0.511,0.203
2953435,-7989.0,-3477.0,-915.0,0.64,-0.536,0.511,0.204
2953452,-8263.0,-3865.0,-1201.0,0.638,-0.537,0.511,0.207
2953468,-8569.0,-4327.0,-1365.0,0.636,-0.539,0.511,0.209
2953485,-9571.0,-4365.0,-1355.0,0.634,-0.542,0.51,0.211
2953502,-10639.0,-4653.0,-1333.0,0.633,-0.544,0.508,0.213
2953518,-11409.0,-6339.0,-1593.0,0.632,-0.547,0.505,0.215
2953535,-12207.0,-6471.0,-1805.0,0.632,-0.551,0.501,0.215
2953561,-12529.0,-6797.0,-1957.0,0.632,-0.555,0.497,0.214
2953577,-12361.0,-7481.0,-2175.0,0.632,-0.559,0.494,0.212
2953593,-12321.0,-7425.0,-1941.0,0.63,-0.563,0.491,0.21
2953610,-11407.0,-7189.0,-2037.0,0.629,-0.567,0.49,0.208
2953626,-11037.0,-6975.0,-1753.0,0.626,-0.571,0.489,0.206
2953642,-10581.0,-6383.0,-1627.0,0.623,-0.574,0.49,0.205
2953668,-9953.0,-5895.0,-1753.0,0.62,-0.577,0.491,0.203
2953685,-9393.0,-5841.0,-1831.0,0.617,-0.579,0.494,0.201
2953701,-9149.0,-5323.0,-1933.0,0.614,-0.581,0.497,0.198
2953718,-8681.0,-4819.0,-2159.0,0.61,-0.583,0.5,0.194
2953735,-8667.0,-4861.0,-2127.0,0.607,-0.584,0.504,0.191
2953751,-8855.0,-4125.0,-1953.0,0.604,-0.584,0.508,0.188
2953768,-7793.0,-3971.0,-2439.0,0.602,-0.583,0.512,0.187
2953785,-7361.0,-4017.0,-2277.0,0.6,-0.582,0.516,0.187
2953801,-6825.0,-3647.0,-2339.0,0.598,-0.58,0.521,0.186
2953818,-6819.0,-3065.0,-2113.0,0.596,-0.578,0.525,0.186
2953845,-6917.0,-3075.0,-1883.0,0.595,-0.575,0.53,0.188
2953861,-6437.0,-3245.0,-1853.0,0.594,-0.571,0.534,0.19
2953877,-6209.0,-3643.0,-1985.0,0.595,-0.566,0.537,0.191
2953893,-6123.0,-3175.0,-2123.0,0.596,-0.561,0.541,0.193
2953909,-6867.0,-3343.0,-1565.0,0.597,-0.555,0.545,0.196
2953925,-7047.0,-3269.0,-1599.0,0.599,-0.547,0.549,0.199
2953951,-7627.0,-3901.0,-1449.0,0.603,-0.538,0.553,0.202
2953968,-6985.0,-4423.0,-2149.0,0.609,-0.526,0.557,0.205
2953985,-7217.0,-1711.0,-2069.0,0.614,-0.516,0.56,0.207
2954002,-6989.0,-2363.0,-1807.0,0.618,-0.506,0.564,0.211
2954019,-6151.0,-3847.0,-2009.0,0.621,-0.497,0.567,0.214
2954036,-6469.0,-2701.0,-1585.0,0.624,-0.488,0.571,0.217
2954053,-6773.0,-3765.0,-1205.0,0.626,-0.48,0.574,0.221
2954069,-6291.0,-3433.0,-1369.0,0.63,-0.469,0.576,0.226
2954085,-5015.0,-2225.0,-1559.0,0.633,-0.458,0.579,0.231
2954102,-5001.0,-2281.0,-1153.0,0.636,-0.449,0.581,0.237
2954119,-4345.0,-1349.0,-1185.0,0.637,-0.44,0.584,0.244
2954145,-4269.0,-2907.0,-1109.0,0.637,-0.432,0.586,0.252
2954161,-4269.0,-1461.0,-723.0,0.637,-0.424,0.589,0.259
