timeMs,ax,ay,az,q0,q1,q2,q3
227940,4448.0,1378.0,6888.0,0.938,0.146,-0.252,0.186
227956,4456.0,1442.0,6972.0,0.938,0.147,-0.251,0.187
227972,4452.0,1482.0,6886.0,0.938,0.149,-0.25,0.188
227998,4448.0,1628.0,6884.0,0.938,0.151,-0.249,0.189
228014,4522.0,1744.0,6906.0,0.938,0.152,-0.249,0.189
228030,4542.0,1822.0,6936.0,0.938,0.153,-0.248,0.19
228046,4472.0,1878.0,7040.0,0.938,0.154,-0.247,0.19
228062,4394.0,1704.0,7078.0,0.938,0.155,-0.246,0.19
228078,4344.0,1876.0,6984.0,0.938,0.155,-0.245,0.19
228104,4250.0,1788.0,6970.0,0.938,0.155,-0.245,0.19
228120,4202.0,1862.0,6980.0,0.938,0.155,-0.244,0.189
228136,4138.0,1712.0,6996.0,0.939,0.154,-0.244,0.187
228152,4198.0,1800.0,6960.0,0.939,0.154,-0.244,0.186
228169,4232.0,2084.0,7016.0,0.94,0.152,-0.244,0.184
228185,4234.0,2092.0,7138.0,0.941,0.15,-0.244,0.182
228201,4300.0,1942.0,7252.0,0.942,0.147,-0.244,0.18
228227,4296.0,1620.0,7416.0,0.942,0.144,-0.244,0.178
228243,4414.0,1638.0,7306.0,0.943,0.141,-0.244,0.176
228259,4648.0,1696.0,7368.0,0.944,0.139,-0.243,0.174
228275,4980.0,1952.0,7652.0,0.945,0.136,-0.242,0.172
228291,4868.0,1872.0,7812.0,0.946,0.134,-0.24,0.17
228307,4590.0,1830.0,7574.0,0.948,0.131,-0.237,0.168
228333,4322.0,1632.0,7232.0,0.949,0.128,-0.235,0.166
228349,4134.0,1610.0,7050.0,0.951,0.125,-0.232,0.164
228365,4050.0,1488.0,6940.0,0.952,0.122,-0.229,0.162
228381,3880.0,1460.0,6802.0,0.953,0.118,-0.226,0.161
228397,3740.0,1234.0,6550.0,0.955,0.114,-0.224,0.159
228413,3654.0,1192.0,6484.0,0.956,0.109,-0.222,0.158
228439,3578.0,1014.0,6568.0,0.957,0.103,-0.22,0.157
228455,3594.0,816.0,6772.0,0.958,0.097,-0.219,0.157
228471,3746.0,702.0,7012.0,0.959,0.09,-0.219,0.157
228487,3820.0,572.0,7206.0,0.96,0.082,-0.218,0.157
228503,3844.0,286.0,7482.0,0.96,0.075,-0.218,0.157
228529,3908.0,230.0,7544.0,0.961,0.067,-0.218,0.158
228545,4060.0,226.0,7510.0,0.961,0.06,-0.218,0.159
228561,4136.0,80.0,7824.0,0.962,0.053,-0.217,0.16
228577,3982.0,-134.0,8032.0,0.962,0.046,-0.215,0.161
228593,3596.0,-412.0,7932.0,0.963,0.04,-0.214,0.162
228609,3412.0,-580.0,7736.0,0.963,0.036,-0.212,0.162
228635,3382.0,-612.0,7734.0,0.963,0.032,-0.21,0.163
228651,3362.0,-574.0,7872.0,0.964,0.03,-0.208,0.164
228667,3144.0,-742.0,7902.0,0.964,0.029,-0.207,0.166
228683,2856.0,-732.0,7616.0,0.964,0.029,-0.206,0.167
228699,2958.0,-554.0,7358.0,0.964,0.03,-0.205,0.169
228715,2920.0,-320.0,7280.0,0.963,0.032,-0.205,0.171
228741,2748.0,-298.0,7182.0,0.963,0.034,-0.205,0.172
228757,2692.0,-276.0,7144.0,0.962,0.037,-0.206,0.174
228773,2718.0,-108.0,7310.0,0.962,0.04,-0.206,0.176
228789,2766.0,48.0,7500.0,0.961,0.044,-0.207,0.179
228805,2826.0,-174.0,7702.0,0.96,0.048,-0.209,0.181
228821,3092.0,44.0,8058.0,0.959,0.052,-0.21,0.183
228847,3114.0,190.0,8148.0,0.958,0.056,-0.212,0.185
228863,3230.0,272.0,8040.0,0.957,0.06,-0.215,0.187
228879,3350.0,380.0,7942.0,0.956,0.066,-0.217,0.188
228895,3372.0,488.0,7722.0,0.954,0.072,-0.22,0.189
228911,3396.0,580.0,7276.0,0.953,0.079,-0.224,0.19
228927,3716.0,702.0,7122.0,0.951,0.087,-0.227,0.191
228953,3766.0,1026.0,6872.0,0.949,0.096,-0.231,0.191
228969,3472.0,902.0,6302.0,0.947,0.104,-0.236,0.19
228985,3494.0,924.0,5734.0,0.945,0.113,-0.241,0.19
229001,4622.0,1214.0,6384.0,0.943,0.122,-0.246,0.19
229017,5732.0,1748.0,7914.0,0.941,0.129,-0.249,0.19
229033,5342.0,2154.0,8276.0,0.94,0.133,-0.251,0.189
229059,4676.0,1460.0,7390.0,0.939,0.134,-0.254,0.189
229075,4326.0,784.0,6648.0,0.938,0.133,-0.257,0.19
229091,4404.0,712.0,6502.0,0.937,0.132,-0.26,0.191
229107,4716.0,824.0,6532.0,0.936,0.13,-0.264,0.192
229123,5022.0,1008.0,6666.0,0.935,0.127,-0.267,0.194
229139,5230.0,1300.0,6854.0,0.934,0.124,-0.271,0.195
229165,5360.0,1250.0,6936.0,0.934,0.12,-0.275,0.197
229181,5414.0,976.0,6978.0,0.933,0.115,-0.278,0.198
229197,5364.0,732.0,6912.0,0.932,0.11,-0.282,0.201
229213,5282.0,552.0,6804.0,0.931,0.106,-0.286,0.203
229229,5208.0,476.0,6618.0,0.929,0.102,-0.289,0.206
229245,5136.0,308.0,6498.0,0.928,0.1,-0.292,0.208
229271,5070.0,292.0,6518.0,0.927,0.098,-0.295,0.211
229287,5052.0,336.0,6492.0,0.925,0.097,-0.298,0.214
229303,5052.0,234.0,6572.0,0.924,0.097,-0.3,0.217
229319,5130.0,298.0,6782.0,0.922,0.098,-0.302,0.22
229335,5200.0,352.0,6946.0,0.921,0.1,-0.303,0.224
229361,5430.0,-86.0,7170.0,0.919,0.104,-0.303,0.228
229377,5564.0,376.0,7424.0,0.917,0.11,-0.304,0.233
229393,5624.0,374.0,7388.0,0.914,0.118,-0.304,0.24
229409,5868.0,870.0,7302.0,0.912,0.127,-0.303,0.246
229425,5814.0,338.0,7050.0,0.91,0.135,-0.301,0.251
229441,5446.0,-1128.0,7100.0,0.908,0.145,-0.298,0.254
229467,5920.0,-972.0,6552.0,0.906,0.159,-0.294,0.259
229483,6284.0,3512.0,6532.0,0.904,0.174,-0.288,0.263
229500,6570.0,3460.0,6156.0,0.903,0.184,-0.283,0.265
229516,5818.0,1528.0,6004.0,0.903,0.192,-0.277,0.268
229532,5070.0,1308.0,5284.0,0.902,0.202,-0.27,0.271
229548,4762.0,1408.0,5716.0,0.901,0.213,-0.263,0.273
229564,4736.0,1232.0,5168.0,0.899,0.225,-0.255,0.277
229590,4524.0,2052.0,4692.0,0.896,0.241,-0.247,0.281
229606,4120.0,1620.0,4640.0,0.892,0.255,-0.239,0.286
229622,3674.0,2002.0,4872.0,0.888,0.271,-0.23,0.291
229638,3646.0,1656.0,5180.0,0.883,0.287,-0.223,0.297
229654,3574.0,1594.0,5012.0,0.877,0.305,-0.215,0.303
229670,3714.0,1888.0,4944.0,0.87,0.324,-0.208,0.309
229696,3764.0,2140.0,4968.0,0.861,0.344,-0.201,0.316
229712,3814.0,2558.0,4966.0,0.852,0.363,-0.195,0.323
229728,3630.0,2780.0,5108.0,0.842,0.382,-0.19,0.33
229744,3972.0,3842.0,5298.0,0.832,0.399,-0.185,0.338
229760,4922.0,4308.0,5570.0,0.822,0.414,-0.183,0.345
229777,4942.0,2956.0,5756.0,0.813,0.427,-0.181,0.354
229803,4820.0,1792.0,5896.0,0.802,0.44,-0.178,0.363
229819,5464.0,3576.0,5882.0,0.79,0.455,-0.175,0.372
229835,6260.0,6038.0,5926.0,0.779,0.467,-0.171,0.382
229851,5980.0,5214.0,5836.0,0.769,0.475,-0.168,0.393
229867,5882.0,4522.0,5670.0,0.76,0.482,-0.165,0.403
229883,6062.0,5892.0,5136.0,0.752,0.488,-0.162,0.412
229909,6042.0,6438.0,4602.0,0.745,0.491,-0.161,0.421
229925,5928.0,5942.0,4272.0,0.74,0.493,-0.161,0.429
229941,6188.0,6096.0,3980.0,0.736,0.493,-0.162,0.435
229957,6400.0,6286.0,3728.0,0.733,0.491,-0.165,0.44
229973,6564.0,5964.0,3596.0,0.732,0.489,-0.167,0.444
229999,6976.0,7398.0,3530.0,0.732,0.485,-0.171,0.446
230015,6660.0,6582.0,3546.0,0.734,0.48,-0.176,0.447
230031,6576.0,6554.0,3668.0,0.738,0.473,-0.18,0.447
230047,6204.0,6580.0,3848.0,0.742,0.466,-0.186,0.445
230063,6012.0,6970.0,3884.0,0.748,0.458,-0.191,0.441
230079,5974.0,7276.0,3932.0,0.755,0.448,-0.198,0.436
230095,5800.0,7100.0,3914.0,0.763,0.437,-0.205,0.43
230121,5612.0,6132.0,3838.0,0.772,0.424,-0.212,0.423
230137,5668.0,6358.0,3858.0,0.781,0.412,-0.219,0.414
230153,5324.0,6384.0,3992.0,0.791,0.399,-0.227,0.404
230169,5244.0,6110.0,4240.0,0.802,0.385,-0.235,0.393
230185,4740.0,4594.0,3722.0,0.812,0.372,-0.243,0.378
230201,5082.0,4944.0,3882.0,0.822,0.361,-0.25,0.363
230227,5114.0,5742.0,4070.0,0.832,0.35,-0.257,0.346
230243,4942.0,5114.0,3760.0,0.842,0.338,-0.264,0.327
230259,5316.0,3208.0,3674.0,0.851,0.327,-0.271,0.309
230275,5318.0,4026.0,3582.0,0.859,0.318,-0.277,0.289
230291,4904.0,3738.0,3504.0,0.867,0.309,-0.283,0.27
230307,4574.0,2660.0,3712.0,0.874,0.3,-0.288,0.25
230333,4098.0,2430.0,3410.0,0.88,0.293,-0.293,0.232
230349,4670.0,3390.0,3102.0,0.885,0.286,-0.298,0.213
230365,4974.0,2834.0,2918.0,0.891,0.276,-0.303,0.195
230381,5356.0,1830.0,3262.0,0.897,0.264,-0.306,0.179
230397,5468.0,992.0,3592.0,0.903,0.249,-0.309,0.164
230423,5040.0,290.0,4244.0,0.91,0.231,-0.311,0.151
230439,4904.0,46.0,5186.0,0.915,0.212,-0.312,0.14
230455,5198.0,1214.0,5814.0,0.921,0.192,-0.314,0.13
230471,5584.0,1650.0,6696.0,0.926,0.168,-0.316,0.122
230487,5842.0,-14.0,7866.0,0.93,0.144,-0.318,0.114
230503,5700.0,412.0,8502.0,0.933,0.122,-0.319,0.107
230529,6590.0,1042.0,8788.0,0.937,0.102,-0.319,0.101
230545,6344.0,566.0,8676.0,0.94,0.082,-0.316,0.096
230561,4660.0,-2024.0,7516.0,0.943,0.067,-0.311,0.092
230577,3564.0,-2394.0,6160.0,0.946,0.057,-0.307,0.089
230593,2506.0,-2714.0,4800.0,0.947,0.055,-0.304,0.087
230609,2772.0,-1154.0,4000.0,0.948,0.056,-0.303,0.085
230635,2910.0,-638.0,3962.0,0.948,0.056,-0.303,0.083
230651,4426.0,-1974.0,5892.0,0.947,0.054,-0.306,0.084
230667,5526.0,-1724.0,8188.0,0.946,0.054,-0.309,0.086
230683,6948.0,-1222.0,9508.0,0.943,0.056,-0.314,0.09
230699,7404.0,-216.0,8616.0,0.941,0.058,-0.32,0.095
230715,7386.0,-20.0,7304.0,0.939,0.06,-0.323,0.099
230741,6842.0,-30.0,5834.0,0.938,0.063,-0.325,0.103
230757,6006.0,478.0,4432.0,0.937,0.066,-0.325,0.107
230773,5388.0,196.0,4178.0,0.938,0.069,-0.323,0.11
230789,5220.0,172.0,4990.0,0.938,0.071,-0.321,0.112
230805,5614.0,218.0,5930.0,0.938,0.074,-0.32,0.114
230821,5956.0,496.0,6824.0,0.938,0.077,-0.318,0.115
230847,6074.0,938.0,7416.0,0.938,0.08,-0.317,0.115
230863,5770.0,1142.0,7526.0,0.938,0.082,-0.315,0.116
230879,5268.0,1126.0,7132.0,0.939,0.083,-0.314,0.116
230895,4784.0,1224.0,6758.0,0.939,0.085,-0.313,0.116
230911,4666.0,1340.0,6512.0,0.939,0.086,-0.312,0.116
230927,4626.0,1536.0,6542.0,0.939,0.088,-0.312,0.115
230953,4812.0,1594.0,6564.0,0.939,0.089,-0.312,0.115
230969,4984.0,1608.0,6516.0,0.939,0.09,-0.313,0.114
230986,5216.0,1738.0,6628.0,0.939,0.09,-0.312,0.114
231003,5284.0,1514.0,6568.0,0.939,0.089,-0.311,0.113
231020,5348.0,1460.0,6758.0,0.94,0.088,-0.31,0.113
231036,5244.0,1376.0,6588.0,0.94,0.087,-0.308,0.113
231052,5372.0,1200.0,6704.0,0.941,0.085,-0.307,0.114
231078,5372.0,1070.0,6478.0,0.941,0.083,-0.306,0.115
231094,5734.0,808.0,6394.0,0.942,0.081,-0.305,0.116
231110,5892.0,926.0,6356.0,0.942,0.08,-0.303,0.118
231126,6348.0,530.0,6368.0,0.943,0.078,-0.3,0.12
231142,5946.0,1038.0,6586.0,0.945,0.077,-0.295,0.122
231158,5656.0,184.0,6634.0,0.946,0.076,-0.29,0.123
231184,5292.0,24.0,6992.0,0.947,0.077,-0.284,0.125
231200,5236.0,-392.0,7550.0,0.949,0.079,-0.28,0.126
231216,4840.0,-696.0,8332.0,0.949,0.086,-0.276,0.126
231232,4864.0,-778.0,8522.0,0.948,0.097,-0.273,0.127
231248,3446.0,188.0,6872.0,0.947,0.111,-0.273,0.129
231264,3970.0,1606.0,7188.0,0.945,0.123,-0.272,0.13
231290,3846.0,2000.0,6560.0,0.944,0.134,-0.272,0.131
231306,4520.0,650.0,6992.0,0.942,0.144,-0.272,0.132
231322,6076.0,-440.0,8768.0,0.941,0.158,-0.269,0.135
231338,3078.0,-1130.0,7184.0,0.938,0.175,-0.268,0.137
231354,3664.0,1702.0,5948.0,0.933,0.197,-0.267,0.14
231380,4412.0,4812.0,5778.0,0.929,0.218,-0.264,0.142
231396,4100.0,5946.0,5438.0,0.926,0.233,-0.262,0.142
231412,5804.0,5702.0,6606.0,0.924,0.244,-0.258,0.14
231428,7688.0,4456.0,10474.0,0.925,0.251,-0.248,0.139
231444,7782.0,8574.0,13670.0,0.929,0.256,-0.231,0.135
231460,4108.0,8042.0,13016.0,0.939,0.246,-0.202,0.128
231476,3010.0,88.0,10792.0,0.947,0.236,-0.178,0.129
231502,566.0,-1420.0,9232.0,0.95,0.235,-0.157,0.133
231518,1090.0,-898.0,7552.0,0.951,0.239,-0.138,0.139
231534,1480.0,1006.0,6580.0,0.95,0.247,-0.123,0.144
231551,1690.0,896.0,6308.0,0.949,0.255,-0.109,0.148
231568,2550.0,1228.0,5866.0,0.948,0.262,-0.098,0.153
231585,3192.0,1840.0,5544.0,0.947,0.268,-0.086,0.158
231602,3238.0,2160.0,5530.0,0.946,0.271,-0.074,0.164
231619,2818.0,2222.0,5450.0,0.945,0.271,-0.062,0.173
231635,2412.0,1962.0,5210.0,0.944,0.27,-0.05,0.183
231662,1954.0,1868.0,5106.0,0.943,0.267,-0.04,0.195
231678,1666.0,1838.0,5016.0,0.941,0.265,-0.031,0.208
231694,1588.0,2292.0,5356.0,0.938,0.264,-0.025,0.222
231710,2280.0,3278.0,5662.0,0.935,0.263,-0.022,0.236
231726,3072.0,3968.0,5812.0,0.932,0.261,-0.02,0.25
231742,3278.0,3872.0,5768.0,0.929,0.257,-0.018,0.265
231768,2960.0,3462.0,5710.0,0.926,0.254,-0.015,0.28
231784,2546.0,2692.0,5618.0,0.922,0.252,-0.011,0.294
231800,2052.0,1980.0,5112.0,0.917,0.253,-0.007,0.308
231816,1510.0,1428.0,4384.0,0.911,0.256,-0.004,0.322
231832,980.0,904.0,3764.0,0.904,0.262,-0.0,0.337
231848,664.0,804.0,3516.0,0.896,0.27,0.002,0.353
231874,1252.0,2272.0,3672.0,0.886,0.28,0.001,0.37
231890,1784.0,2844.0,3608.0,0.876,0.287,-0.003,0.388
231906,2076.0,2658.0,3346.0,0.865,0.292,-0.01,0.408
231922,2116.0,1928.0,2998.0,0.853,0.297,-0.02,0.428
231938,2662.0,1806.0,3206.0,0.84,0.304,-0.031,0.448
231964,4068.0,3566.0,3584.0,0.825,0.315,-0.044,0.468
231980,5314.0,4904.0,3778.0,0.808,0.328,-0.06,0.486
231996,5602.0,4910.0,3554.0,0.791,0.34,-0.077,0.503
232012,5432.0,3732.0,3330.0,0.774,0.353,-0.095,0.517
232028,5504.0,2610.0,2998.0,0.756,0.37,-0.111,0.529
232044,6290.0,2570.0,2774.0,0.736,0.392,-0.124,0.538
232060,8122.0,4912.0,2828.0,0.713,0.418,-0.135,0.546
232086,9278.0,6600.0,2622.0,0.691,0.441,-0.147,0.554
232102,8908.0,7586.0,2588.0,0.671,0.458,-0.16,0.561
232118,8570.0,7650.0,2440.0,0.655,0.468,-0.176,0.566
232134,7988.0,7360.0,3150.0,0.645,0.471,-0.196,0.569
232150,7672.0,5892.0,3744.0,0.64,0.468,-0.22,0.569
232166,8176.0,5128.0,4550.0,0.636,0.461,-0.248,0.567
232192,10430.0,5980.0,4920.0,0.635,0.451,-0.276,0.563
232208,11242.0,5716.0,5742.0,0.64,0.434,-0.302,0.557
232224,9978.0,3462.0,6268.0,0.648,0.416,-0.321,0.551
232240,8780.0,1366.0,6720.0,0.655,0.403,-0.335,0.544
232256,7942.0,462.0,6784.0,0.658,0.399,-0.343,0.538
232272,7742.0,728.0,6566.0,0.658,0.402,-0.348,0.533
232298,7692.0,1430.0,6110.0,0.656,0.41,-0.35,0.528
232314,7718.0,2190.0,5800.0,0.654,0.419,-0.351,0.524
232330,7670.0,2752.0,5540.0,0.652,0.426,-0.352,0.519
232346,7524.0,2740.0,5296.0,0.652,0.43,-0.355,0.514
232362,7434.0,2462.0,5378.0,0.653,0.431,-0.36,0.508
232378,7426.0,1572.0,5376.0,0.656,0.428,-0.367,0.502
232404,7524.0,552.0,5064.0,0.659,0.424,-0.374,0.496
232420,7612.0,-332.0,4794.0,0.662,0.418,-0.379,0.493
232436,7478.0,-572.0,4686.0,0.664,0.412,-0.383,0.493
232452,7344.0,-672.0,4562.0,0.665,0.407,-0.386,0.494
232468,7158.0,-872.0,4222.0,0.664,0.403,-0.388,0.496
232494,7500.0,-660.0,3888.0,0.662,0.403,-0.388,0.5
232510,8172.0,752.0,4190.0,0.66,0.403,-0.386,0.504
232526,8608.0,1458.0,4568.0,0.659,0.402,-0.383,0.507
232542,8562.0,1566.0,4648.0,0.659,0.401,-0.38,0.51
232558,8604.0,1298.0,4420.0,0.659,0.401,-0.376,0.512
232574,8660.0,1164.0,4170.0,0.66,0.403,-0.371,0.515
232600,9192.0,1436.0,4180.0,0.66,0.407,-0.362,0.517
232616,9562.0,2342.0,4938.0,0.664,0.41,-0.35,0.519
232633,9160.0,2808.0,5530.0,0.669,0.411,-0.334,0.521
232649,8314.0,2510.0,5700.0,0.675,0.412,-0.319,0.523
232665,7724.0,2140.0,5498.0,0.679,0.414,-0.303,0.525
232681,7834.0,2190.0,5136.0,0.682,0.418,-0.287,0.527
232697,8066.0,3124.0,5130.0,0.686,0.422,-0.269,0.528
232723,7694.0,3470.0,5336.0,0.691,0.424,-0.251,0.529
232739,7244.0,3534.0,5348.0,0.697,0.425,-0.232,0.529
232755,6852.0,3514.0,5072.0,0.702,0.427,-0.213,0.528
232771,6896.0,4256.0,4746.0,0.706,0.43,-0.195,0.527
232787,7114.0,5512.0,4576.0,0.713,0.432,-0.177,0.524
232803,7116.0,6036.0,4592.0,0.721,0.43,-0.16,0.519
232829,6572.0,5970.0,4522.0,0.732,0.426,-0.145,0.512
232845,6282.0,5312.0,4122.0,0.742,0.421,-0.13,0.505
232861,5954.0,4838.0,3924.0,0.752,0.418,-0.115,0.496
232877,5696.0,4534.0,3760.0,0.762,0.417,-0.099,0.486
232893,5038.0,4982.0,3848.0,0.771,0.416,-0.082,0.475
232909,4490.0,5288.0,4406.0,0.78,0.414,-0.066,0.464
232935,4338.0,5054.0,4286.0,0.789,0.412,-0.052,0.454
232951,4008.0,5002.0,4360.0,0.797,0.409,-0.039,0.442
232967,3800.0,4652.0,4490.0,0.805,0.407,-0.026,0.431
232983,3568.0,5140.0,4592.0,0.813,0.403,-0.014,0.42
233000,3786.0,6284.0,5006.0,0.821,0.398,-0.004,0.409
233016,4256.0,6748.0,5442.0,0.83,0.389,0.004,0.399
233042,4416.0,6322.0,5476.0,0.84,0.377,0.011,0.391
233058,3666.0,5226.0,5248.0,0.85,0.362,0.018,0.382
233074,2860.0,4166.0,5250.0,0.861,0.347,0.025,0.372
233090,2698.0,3720.0,5320.0,0.871,0.333,0.032,0.361
233106,2520.0,3282.0,5622.0,0.88,0.321,0.039,0.349
233122,2278.0,2858.0,5818.0,0.888,0.311,0.045,0.336
233148,2088.0,3202.0,6224.0,0.894,0.305,0.052,0.323
233164,1902.0,3216.0,6482.0,0.9,0.301,0.058,0.31
233180,1918.0,3664.0,6994.0,0.904,0.301,0.064,0.297
233196,1800.0,3530.0,7214.0,0.907,0.303,0.07,0.284
233212,1714.0,3508.0,7202.0,0.909,0.308,0.077,0.27
233228,1612.0,3650.0,6982.0,0.91,0.315,0.085,0.256
233254,1200.0,4082.0,6800.0,0.91,0.324,0.094,0.241
233270,846.0,4354.0,6554.0,0.909,0.333,0.105,0.227
233286,228.0,4014.0,6114.0,0.908,0.343,0.116,0.213
233302,-284.0,3928.0,5802.0,0.906,0.352,0.127,0.198
233318,-448.0,4152.0,5716.0,0.904,0.36,0.138,0.184
233334,-974.0,3782.0,5514.0,0.903,0.366,0.147,0.171
233360,-1648.0,3084.0,5552.0,0.901,0.371,0.156,0.16
233376,-1900.0,2938.0,5570.0,0.899,0.377,0.163,0.15
233392,-1966.0,3282.0,5480.0,0.897,0.382,0.169,0.142
233408,-1982.0,3624.0,5386.0,0.895,0.387,0.174,0.136
233424,-2204.0,4012.0,5188.0,0.894,0.39,0.178,0.133
233440,-2422.0,4190.0,5112.0,0.892,0.391,0.182,0.132
233467,-2634.0,4186.0,5058.0,0.892,0.391,0.186,0.133
233483,-2826.0,4252.0,5046.0,0.892,0.388,0.188,0.137
233499,-2716.0,4624.0,5446.0,0.892,0.385,0.189,0.142
233515,-2088.0,5048.0,5938.0,0.893,0.38,0.189,0.149
233531,-1252.0,5672.0,6660.0,0.895,0.373,0.187,0.157
233547,-844.0,4952.0,7308.0,0.896,0.366,0.186,0.167
233573,-966.0,3756.0,7848.0,0.898,0.358,0.187,0.176
233589,-1206.0,2634.0,8006.0,0.898,0.353,0.189,0.184
233605,-1156.0,2228.0,8062.0,0.896,0.351,0.193,0.193
233621,-1052.0,3030.0,7780.0,0.891,0.352,0.199,0.204
233637,-652.0,3856.0,7268.0,0.886,0.355,0.205,0.217
233653,-534.0,4802.0,6666.0,0.879,0.359,0.212,0.232
233679,-788.0,5044.0,6062.0,0.871,0.362,0.219,0.25
233695,-1154.0,4580.0,5576.0,0.862,0.365,0.227,0.267
233711,-1226.0,4210.0,5280.0,0.853,0.37,0.235,0.284
233727,-1276.0,3936.0,4976.0,0.842,0.377,0.243,0.299
233743,-884.0,4324.0,4826.0,0.831,0.386,0.25,0.313
233759,14.0,5826.0,4386.0,0.818,0.397,0.258,0.328
233785,318.0,6854.0,3988.0,0.804,0.405,0.266,0.344
233801,198.0,7112.0,3470.0,0.791,0.41,0.273,0.362
233817,-46.0,6348.0,3144.0,0.779,0.413,0.28,0.381
233833,-212.0,5574.0,3166.0,0.765,0.416,0.286,0.399
233849,216.0,5610.0,3080.0,0.751,0.422,0.292,0.416
233865,594.0,6066.0,3138.0,0.736,0.429,0.297,0.432
233891,1236.0,6752.0,3120.0,0.72,0.437,0.302,0.447
233907,1604.0,6762.0,3054.0,0.703,0.444,0.308,0.462
233923,2052.0,6408.0,2734.0,0.686,0.451,0.315,0.477
233939,1856.0,6360.0,2466.0,0.667,0.459,0.324,0.49
233955,2160.0,6874.0,2246.0,0.646,0.469,0.334,0.502
233971,2130.0,7652.0,2090.0,0.625,0.477,0.343,0.514
233997,1934.0,7768.0,2124.0,0.605,0.482,0.35,0.528
234013,2252.0,7700.0,1858.0,0.586,0.486,0.355,0.543
234029,2634.0,7592.0,1734.0,0.566,0.489,0.358,0.559
234045,3246.0,7878.0,1514.0,0.545,0.492,0.36,0.575
234061,3466.0,8562.0,1612.0,0.525,0.496,0.363,0.589
234087,3420.0,8574.0,1726.0,0.506,0.498,0.367,0.601
234103,3166.0,7864.0,1662.0,0.489,0.501,0.37,0.611
234119,3232.0,7072.0,1524.0,0.47,0.504,0.373,0.621
234135,3540.0,6754.0,960.0,0.45,0.509,0.377,0.629
234151,3676.0,7572.0,878.0,0.43,0.514,0.381,0.637
234167,3704.0,8058.0,954.0,0.41,0.519,0.385,0.644
234193,4014.0,8384.0,1148.0,0.391,0.522,0.387,0.651
234209,4306.0,8002.0,1316.0,0.374,0.525,0.387,0.659
234225,4272.0,7514.0,1324.0,0.357,0.526,0.386,0.668
234241,4288.0,6622.0,1136.0,0.34,0.528,0.384,0.677
234257,4718.0,6414.0,780.0,0.322,0.53,0.383,0.685
234273,5074.0,7084.0,784.0,0.303,0.532,0.382,0.692
234299,5106.0,7390.0,890.0,0.285,0.534,0.381,0.699
234315,5382.0,7218.0,738.0,0.267,0.536,0.379,0.706
234331,5614.0,6966.0,558.0,0.25,0.538,0.376,0.712
234347,5894.0,6802.0,428.0,0.232,0.539,0.372,0.719
234363,6084.0,6948.0,350.0,0.216,0.541,0.369,0.724
234379,6408.0,7164.0,314.0,0.2,0.543,0.365,0.729
234405,6504.0,7172.0,382.0,0.186,0.545,0.362,0.733
234421,6140.0,6966.0,668.0,0.173,0.546,0.359,0.737
234437,6188.0,6844.0,622.0,0.161,0.546,0.356,0.741
234453,6620.0,7124.0,498.0,0.15,0.547,0.352,0.745
234469,6508.0,7486.0,442.0,0.14,0.547,0.348,0.748
234485,5998.0,7312.0,342.0,0.132,0.547,0.345,0.751
234511,5902.0,6974.0,466.0,0.127,0.547,0.342,0.753
234527,6044.0,6760.0,700.0,0.123,0.548,0.34,0.754
234543,6234.0,6596.0,924.0,0.12,0.549,0.337,0.755
234559,6402.0,6388.0,956.0,0.118,0.549,0.335,0.757
234575,6262.0,6082.0,998.0,0.117,0.549,0.334,0.757
234591,6314.0,6450.0,1020.0,0.116,0.549,0.332,0.758
234617,6396.0,6836.0,846.0,0.116,0.549,0.331,0.758
234633,6400.0,7226.0,658.0,0.117,0.549,0.332,0.758
234649,6466.0,7648.0,446.0,0.121,0.548,0.333,0.757
234665,6604.0,7974.0,290.0,0.127,0.548,0.336,0.756
234681,6832.0,8500.0,104.0,0.136,0.547,0.339,0.754
234697,6956.0,8738.0,-132.0,0.149,0.545,0.34,0.752
234724,7398.0,9592.0,-694.0,0.166,0.542,0.339,0.751
234740,7632.0,10126.0,-976.0,0.187,0.538,0.333,0.752
234756,7794.0,10594.0,-410.0,0.214,0.532,0.321,0.754
234772,7804.0,9142.0,-250.0,0.247,0.523,0.305,0.757
234788,7688.0,8090.0,-62.0,0.282,0.511,0.287,0.76
234804,7534.0,7322.0,238.0,0.318,0.496,0.267,0.763
234830,7972.0,6738.0,-64.0,0.354,0.479,0.245,0.765
234846,7474.0,6090.0,-504.0,0.388,0.459,0.224,0.767
234862,6298.0,6108.0,620.0,0.422,0.44,0.201,0.767
234878,4772.0,6760.0,3368.0,0.459,0.422,0.176,0.762
234894,5788.0,6514.0,3826.0,0.502,0.401,0.145,0.753
234910,6868.0,4600.0,3088.0,0.544,0.376,0.113,0.742
234936,6872.0,2472.0,2086.0,0.582,0.347,0.085,0.731
234952,5568.0,1994.0,2438.0,0.614,0.316,0.064,0.72
234968,4010.0,3318.0,4942.0,0.643,0.286,0.042,0.709
234984,4086.0,2302.0,5508.0,0.673,0.254,0.019,0.695
235000,4484.0,478.0,5106.0,0.7,0.223,-0.003,0.679
235016,3552.0,-1628.0,5118.0,0.724,0.194,-0.021,0.662
235042,3114.0,-2008.0,5132.0,0.744,0.173,-0.031,0.645
235058,3216.0,-888.0,5668.0,0.76,0.159,-0.036,0.629
235076,3070.0,-40.0,6440.0,0.776,0.15,-0.039,0.612
235092,2818.0,-88.0,6766.0,0.792,0.145,-0.04,0.592
235108,2850.0,-40.0,6696.0,0.807,0.143,-0.04,0.572
235124,3178.0,728.0,6444.0,0.821,0.142,-0.039,0.551
235140,3254.0,1454.0,6070.0,0.834,0.141,-0.038,0.532
235166,2990.0,1740.0,5750.0,0.846,0.139,-0.038,0.513
235182,2974.0,1878.0,5790.0,0.858,0.137,-0.038,0.494
235199,2708.0,1696.0,6234.0,0.869,0.135,-0.041,0.474
235216,3048.0,1740.0,6294.0,0.881,0.134,-0.045,0.452
235233,3048.0,902.0,5966.0,0.892,0.135,-0.049,0.428
235250,2780.0,748.0,5688.0,0.902,0.139,-0.053,0.405
235267,2464.0,1038.0,6246.0,0.911,0.143,-0.057,0.381
235284,2568.0,1402.0,6902.0,0.92,0.147,-0.063,0.358
235300,2932.0,1524.0,7312.0,0.927,0.148,-0.072,0.336
235326,2812.0,776.0,7264.0,0.934,0.147,-0.08,0.314
235342,2268.0,-260.0,6872.0,0.94,0.147,-0.088,0.294
235358,2268.0,-554.0,6868.0,0.945,0.149,-0.095,0.274
235374,2048.0,-636.0,6920.0,0.949,0.153,-0.104,0.256
235390,1906.0,-516.0,6998.0,0.951,0.157,-0.114,0.239
235406,2452.0,310.0,7254.0,0.953,0.161,-0.127,0.225
235432,3016.0,1258.0,7584.0,0.953,0.163,-0.142,0.213
235448,4122.0,1234.0,7638.0,0.953,0.16,-0.158,0.203
235464,4560.0,-14.0,7866.0,0.953,0.154,-0.174,0.196
235480,4762.0,-1836.0,7766.0,0.952,0.147,-0.188,0.19
235496,4292.0,-2982.0,7546.0,0.951,0.143,-0.199,0.186
235512,3898.0,-2168.0,8026.0,0.95,0.142,-0.209,0.185
235538,4048.0,-750.0,8240.0,0.948,0.14,-0.219,0.184
235554,4186.0,-500.0,8054.0,0.946,0.138,-0.23,0.184
235570,6306.0,378.0,9338.0,0.944,0.134,-0.238,0.185
235586,6358.0,398.0,9978.0,0.944,0.128,-0.242,0.186
235602,4776.0,524.0,10012.0,0.944,0.12,-0.243,0.186
235618,3922.0,-430.0,9318.0,0.944,0.116,-0.244,0.188
235644,3566.0,270.0,8120.0,0.944,0.115,-0.246,0.189
235660,3470.0,1046.0,7094.0,0.943,0.115,-0.248,0.191
235676,3274.0,1314.0,6642.0,0.942,0.115,-0.25,0.192
235692,3124.0,1182.0,6406.0,0.941,0.112,-0.253,0.193
235708,2828.0,1184.0,5984.0,0.941,0.108,-0.256,0.194
235724,1960.0,186.0,5414.0,0.94,0.102,-0.261,0.194
235750,2172.0,-912.0,4818.0,0.938,0.097,-0.27,0.195
235766,3302.0,-696.0,4810.0,0.935,0.094,-0.279,0.197
235782,5410.0,426.0,6422.0,0.933,0.091,-0.287,0.198
235798,7172.0,1692.0,8698.0,0.932,0.083,-0.29,0.199
235814,5808.0,-572.0,9536.0,0.933,0.073,-0.291,0.198
235831,5100.0,-1370.0,8964.0,0.934,0.067,-0.29,0.199
235857,4658.0,-1500.0,8496.0,0.933,0.064,-0.29,0.202
235873,4362.0,-1972.0,8350.0,0.932,0.065,-0.291,0.206
235889,4628.0,-440.0,7990.0,0.931,0.07,-0.291,0.211
235905,3636.0,2410.0,6746.0,0.929,0.07,-0.291,0.217
235921,5426.0,-1720.0,6836.0,0.928,0.071,-0.293,0.219
235937,5138.0,636.0,7012.0,0.926,0.077,-0.294,0.222
235963,5180.0,654.0,7328.0,0.925,0.083,-0.295,0.224
235979,5150.0,1144.0,7264.0,0.925,0.085,-0.294,0.226
235995,5454.0,208.0,6926.0,0.925,0.082,-0.294,0.227
236011,6426.0,248.0,8292.0,0.925,0.082,-0.293,0.228
236027,5056.0,1276.0,8518.0,0.925,0.084,-0.291,0.231
236043,5130.0,2102.0,7670.0,0.924,0.084,-0.29,0.234
236069,4558.0,1014.0,6990.0,0.924,0.084,-0.289,0.236
236085,3986.0,-438.0,7246.0,0.924,0.083,-0.287,0.24
236101,3824.0,-1280.0,7060.0,0.923,0.085,-0.286,0.245
236117,4260.0,-1630.0,6776.0,0.921,0.089,-0.284,0.251
236133,4644.0,-872.0,6646.0,0.919,0.096,-0.283,0.259
236149,4702.0,-928.0,6146.0,0.916,0.105,-0.281,0.267
236175,4890.0,-776.0,6212.0,0.913,0.114,-0.279,0.274
236191,5590.0,-1156.0,6388.0,0.91,0.125,-0.278,0.28
236207,5374.0,-314.0,6658.0,0.908,0.137,-0.277,0.284
236223,5586.0,-434.0,7042.0,0.905,0.15,-0.277,0.288
236239,6254.0,90.0,6980.0,0.901,0.165,-0.276,0.292
236255,6756.0,308.0,6524.0,0.897,0.181,-0.276,0.295
236281,7206.0,-306.0,6162.0,0.892,0.198,-0.276,0.299
236297,7072.0,590.0,5416.0,0.887,0.215,-0.275,0.303
236313,6688.0,830.0,5148.0,0.882,0.231,-0.272,0.308
236329,6582.0,214.0,4896.0,0.876,0.247,-0.27,0.314
236345,6046.0,-170.0,4808.0,0.87,0.264,-0.266,0.321
236361,6150.0,128.0,4576.0,0.862,0.282,-0.263,0.328
236387,5626.0,264.0,4442.0,0.854,0.301,-0.258,0.336
236403,5868.0,758.0,4284.0,0.845,0.321,-0.254,0.345
236419,5610.0,1244.0,3888.0,0.834,0.342,-0.249,0.355
236435,5904.0,1990.0,3864.0,0.823,0.361,-0.245,0.365
236451,5804.0,1584.0,3700.0,0.81,0.38,-0.242,0.376
236467,5936.0,2056.0,3422.0,0.797,0.398,-0.238,0.387
236493,5960.0,2850.0,3164.0,0.783,0.416,-0.235,0.399
236509,6082.0,2988.0,2952.0,0.768,0.431,-0.232,0.412
236525,6382.0,3056.0,2786.0,0.753,0.446,-0.229,0.426
236541,6162.0,3334.0,2728.0,0.738,0.459,-0.227,0.44
236557,6466.0,3166.0,2508.0,0.722,0.471,-0.224,0.455
236583,6590.0,3560.0,2296.0,0.706,0.483,-0.221,0.469
236599,6392.0,3922.0,2212.0,0.689,0.494,-0.219,0.483
236615,6642.0,4646.0,2042.0,0.672,0.504,-0.217,0.497
236631,6468.0,4816.0,2020.0,0.656,0.513,-0.217,0.509
236647,6396.0,4082.0,2120.0,0.64,0.52,-0.217,0.522
236663,6800.0,4128.0,1666.0,0.624,0.528,-0.218,0.533
236689,7178.0,3922.0,1394.0,0.608,0.536,-0.219,0.543
236705,7430.0,4632.0,1186.0,0.593,0.542,-0.22,0.554
236721,7238.0,4738.0,1312.0,0.578,0.547,-0.221,0.564
236737,7282.0,4430.0,1394.0,0.564,0.551,-0.223,0.573
236753,7454.0,4228.0,1628.0,0.55,0.554,-0.225,0.583
236769,7428.0,3664.0,1506.0,0.536,0.558,-0.227,0.591
236795,7502.0,3954.0,1466.0,0.523,0.562,-0.229,0.598
236811,7590.0,4226.0,1554.0,0.51,0.567,-0.23,0.605
236827,7520.0,3822.0,1562.0,0.498,0.571,-0.232,0.609
236843,7880.0,4004.0,1570.0,0.487,0.576,-0.234,0.613
236859,7852.0,3474.0,1384.0,0.476,0.581,-0.236,0.616
236875,7696.0,3478.0,1454.0,0.466,0.586,-0.237,0.619
236901,7626.0,3352.0,1490.0,0.455,0.592,-0.239,0.621
236917,7962.0,3230.0,1222.0,0.445,0.598,-0.24,0.622
236933,7832.0,2868.0,1188.0,0.435,0.603,-0.241,0.623
236949,7862.0,2748.0,1232.0,0.426,0.609,-0.242,0.624
236965,8106.0,2990.0,1258.0,0.417,0.614,-0.242,0.625
236981,8196.0,3018.0,1034.0,0.409,0.618,-0.244,0.626
237007,8130.0,2578.0,1028.0,0.401,0.621,-0.246,0.627
237023,8070.0,2452.0,1148.0,0.395,0.623,-0.248,0.628
237039,8102.0,2354.0,1120.0,0.389,0.625,-0.251,0.629
237055,8144.0,1894.0,1008.0,0.384,0.626,-0.255,0.629
237071,8354.0,2166.0,920.0,0.38,0.626,-0.259,0.63
237087,8042.0,1632.0,1104.0,0.377,0.624,-0.264,0.631
237113,8014.0,1584.0,1232.0,0.374,0.623,-0.269,0.632
237129,8124.0,1392.0,1100.0,0.372,0.621,-0.275,0.633
237145,8194.0,1102.0,864.0,0.37,0.618,-0.283,0.634
237161,8252.0,1018.0,924.0,0.369,0.614,-0.29,0.634
237177,8262.0,778.0,874.0,0.367,0.61,-0.299,0.635
237193,8224.0,488.0,856.0,0.366,0.605,-0.308,0.636
237219,8352.0,396.0,966.0,0.365,0.6,-0.317,0.637
237235,8478.0,332.0,948.0,0.364,0.595,-0.326,0.638
237251,8498.0,106.0,960.0,0.364,0.59,-0.336,0.638
237267,8598.0,-160.0,892.0,0.363,0.585,-0.346,0.638
237283,8602.0,-448.0,978.0,0.362,0.58,-0.356,0.637
237299,8732.0,-512.0,1020.0,0.362,0.575,-0.366,0.636
237325,8748.0,-288.0,1006.0,0.362,0.57,-0.375,0.635
237341,8474.0,-642.0,992.0,0.363,0.565,-0.384,0.634
237357,8356.0,-940.0,1100.0,0.364,0.56,-0.393,0.632
237373,7750.0,-638.0,1158.0,0.367,0.555,-0.403,0.629
237389,8120.0,-1156.0,1642.0,0.37,0.55,-0.413,0.625
237415,8374.0,-644.0,758.0,0.374,0.545,-0.423,0.62
237431,8876.0,-1172.0,424.0,0.38,0.539,-0.433,0.615
237447,8812.0,-1594.0,366.0,0.386,0.531,-0.443,0.61
237463,8772.0,-1830.0,418.0,0.395,0.522,-0.451,0.606
237479,8616.0,-1782.0,604.0,0.404,0.513,-0.458,0.603
237495,8436.0,-2058.0,1048.0,0.414,0.504,-0.464,0.599
237521,7692.0,-2298.0,1012.0,0.423,0.497,-0.467,0.596
237537,8702.0,-1606.0,1184.0,0.432,0.492,-0.469,0.594
237553,7820.0,-1942.0,1410.0,0.439,0.487,-0.469,0.592
237569,8466.0,-2766.0,2012.0,0.446,0.483,-0.47,0.589
237585,8252.0,-1750.0,2048.0,0.451,0.482,-0.468,0.587
237601,8258.0,-1124.0,1934.0,0.454,0.483,-0.467,0.585
237627,8304.0,-858.0,1892.0,0.456,0.484,-0.465,0.584
237643,8366.0,-806.0,1626.0,0.457,0.486,-0.464,0.582
237659,8346.0,-696.0,1502.0,0.458,0.488,-0.464,0.581
237675,8168.0,-634.0,1436.0,0.457,0.49,-0.464,0.579
237691,8188.0,-520.0,1190.0,0.456,0.492,-0.464,0.578
237707,8152.0,-778.0,906.0,0.454,0.494,-0.465,0.578
237733,8078.0,-778.0,792.0,0.451,0.495,-0.466,0.578
237749,7886.0,-1034.0,712.0,0.448,0.497,-0.466,0.579
237765,8032.0,-926.0,578.0,0.445,0.498,-0.466,0.581
237782,7972.0,-1060.0,678.0,0.442,0.498,-0.465,0.583
237798,7960.0,-852.0,748.0,0.44,0.498,-0.464,0.586
237814,7890.0,-1032.0,906.0,0.438,0.498,-0.462,0.589
237831,8006.0,-1058.0,874.0,0.436,0.497,-0.46,0.592
237857,8232.0,-690.0,978.0,0.434,0.497,-0.457,0.596
237873,8148.0,-1022.0,1024.0,0.433,0.497,-0.454,0.599
237889,8306.0,-926.0,1032.0,0.432,0.497,-0.451,0.603
237905,8438.0,-848.0,1024.0,0.431,0.498,-0.447,0.606
237921,8594.0,-708.0,1190.0,0.43,0.499,-0.441,0.61
237938,8556.0,-454.0,1330.0,0.43,0.499,-0.435,0.614
237954,8420.0,-702.0,1398.0,0.43,0.501,-0.429,0.617
237980,8528.0,-456.0,1460.0,0.429,0.503,-0.421,0.621
237996,8648.0,14.0,1444.0,0.43,0.505,-0.413,0.624
238012,8520.0,-116.0,1620.0,0.431,0.507,-0.403,0.628
238028,8300.0,-220.0,1730.0,0.432,0.51,-0.394,0.631
238044,8360.0,274.0,1608.0,0.433,0.513,-0.383,0.635
238070,8274.0,340.0,1726.0,0.435,0.516,-0.372,0.638
238086,8080.0,282.0,1860.0,0.436,0.519,-0.361,0.64
238102,7954.0,664.0,1856.0,0.438,0.523,-0.348,0.643
238118,7746.0,482.0,1906.0,0.44,0.526,-0.336,0.645
238134,7698.0,638.0,1966.0,0.443,0.53,-0.323,0.647
238150,7612.0,932.0,2002.0,0.445,0.534,-0.311,0.648
238176,7580.0,1082.0,2004.0,0.448,0.538,-0.298,0.649
238193,7350.0,928.0,2076.0,0.451,0.542,-0.285,0.649
238209,7262.0,1180.0,2108.0,0.453,0.547,-0.272,0.649
238225,7320.0,1444.0,2122.0,0.456,0.551,-0.26,0.649
238241,7330.0,1472.0,2068.0,0.458,0.555,-0.248,0.648
238257,7294.0,1316.0,2036.0,0.461,0.559,-0.237,0.647
238273,7148.0,1544.0,2132.0,0.463,0.563,-0.226,0.646
238299,7142.0,1626.0,2090.0,0.465,0.567,-0.215,0.645
238315,7116.0,1748.0,2116.0,0.467,0.571,-0.206,0.643
238331,7004.0,1822.0,2064.0,0.469,0.574,-0.197,0.642
238347,6994.0,1778.0,2078.0,0.471,0.577,-0.19,0.64
238363,7012.0,1826.0,2064.0,0.472,0.581,-0.183,0.637
238379,7190.0,1964.0,1908.0,0.474,0.584,-0.178,0.635
238405,7088.0,2024.0,1988.0,0.475,0.587,-0.173,0.633
238421,7104.0,2078.0,1962.0,0.476,0.589,-0.17,0.63
238437,7116.0,2018.0,1960.0,0.477,0.592,-0.168,0.628
238453,7112.0,1742.0,1848.0,0.477,0.594,-0.166,0.626
238469,7152.0,1864.0,1798.0,0.478,0.596,-0.165,0.624
238485,7242.0,2200.0,1750.0,0.478,0.598,-0.165,0.622
238511,7364.0,2028.0,1678.0,0.479,0.599,-0.166,0.62
238527,7502.0,1954.0,1750.0,0.479,0.6,-0.167,0.618
238543,7732.0,2234.0,1668.0,0.479,0.602,-0.169,0.617
238559,7832.0,2146.0,1754.0,0.479,0.602,-0.171,0.616
238575,8002.0,2192.0,1760.0,0.479,0.603,-0.173,0.614
238601,8016.0,2282.0,1932.0,0.479,0.604,-0.175,0.613
238617,8026.0,2342.0,1962.0,0.48,0.604,-0.177,0.611
238633,7854.0,2136.0,2118.0,0.48,0.605,-0.178,0.609
238649,7812.0,2358.0,2298.0,0.481,0.607,-0.178,0.607
238665,7878.0,2506.0,2262.0,0.481,0.608,-0.178,0.606
238681,7950.0,2826.0,2182.0,0.481,0.61,-0.176,0.604
238707,7924.0,2790.0,2230.0,0.481,0.612,-0.173,0.604
238723,7960.0,2926.0,2134.0,0.481,0.614,-0.17,0.603
238739,7790.0,3164.0,2056.0,0.481,0.616,-0.165,0.602
238755,7700.0,3542.0,2030.0,0.48,0.618,-0.16,0.602
238771,7500.0,3470.0,1950.0,0.48,0.62,-0.154,0.601
238787,7502.0,3804.0,1876.0,0.479,0.622,-0.148,0.601
238813,7254.0,3742.0,1878.0,0.479,0.625,-0.142,0.6
238829,7250.0,4082.0,1756.0,0.479,0.628,-0.135,0.599
238845,6924.0,3886.0,1666.0,0.479,0.63,-0.129,0.597
238861,6632.0,3960.0,1698.0,0.479,0.633,-0.122,0.596
238877,6402.0,4100.0,1522.0,0.479,0.636,-0.116,0.594
238893,6382.0,4472.0,1376.0,0.479,0.638,-0.109,0.593
238919,6086.0,4188.0,1414.0,0.478,0.64,-0.104,0.592
238935,6040.0,4166.0,1380.0,0.478,0.642,-0.099,0.591
238951,5972.0,4124.0,1324.0,0.478,0.643,-0.095,0.591
238967,6070.0,4266.0,1218.0,0.477,0.644,-0.091,0.591
238983,6008.0,4036.0,1260.0,0.477,0.645,-0.089,0.591
238999,5938.0,3792.0,1296.0,0.476,0.645,-0.088,0.591
239025,6162.0,3834.0,1220.0,0.475,0.645,-0.088,0.592
239041,6324.0,3754.0,1072.0,0.474,0.645,-0.088,0.593
239057,6490.0,3674.0,1146.0,0.472,0.645,-0.09,0.594
239073,6584.0,3490.0,1208.0,0.471,0.645,-0.092,0.595
239089,6888.0,3626.0,1194.0,0.47,0.644,-0.095,0.596
239105,6922.0,3436.0,1200.0,0.469,0.644,-0.098,0.597
239131,7134.0,3370.0,1154.0,0.467,0.643,-0.102,0.598
239147,7244.0,3408.0,1158.0,0.466,0.642,-0.106,0.599
239163,7326.0,3258.0,1188.0,0.465,0.642,-0.11,0.6
239179,7338.0,3244.0,1248.0,0.464,0.641,-0.115,0.6
239195,7524.0,3276.0,1312.0,0.463,0.641,-0.119,0.6
239211,7782.0,3198.0,1166.0,0.463,0.64,-0.124,0.601
239237,7864.0,3194.0,1208.0,0.462,0.639,-0.128,0.602
239253,7714.0,3130.0,1342.0,0.461,0.638,-0.132,0.603
239269,7692.0,3278.0,1374.0,0.46,0.637,-0.135,0.604
239285,7482.0,3174.0,1458.0,0.459,0.636,-0.138,0.604
239301,7420.0,3094.0,1398.0,0.458,0.636,-0.142,0.605
239317,7408.0,3102.0,1346.0,0.457,0.635,-0.145,0.605
239343,7314.0,3112.0,1398.0,0.456,0.635,-0.148,0.606
239359,7226.0,2958.0,1350.0,0.455,0.634,-0.15,0.607
239375,7068.0,2968.0,1306.0,0.453,0.634,-0.153,0.608
239391,7168.0,3096.0,1170.0,0.451,0.634,-0.156,0.609
239407,7000.0,2996.0,1256.0,0.448,0.634,-0.158,0.61
239433,7112.0,2896.0,1128.0,0.445,0.634,-0.161,0.612
239449,7048.0,2874.0,1100.0,0.442,0.634,-0.165,0.613
239465,7158.0,2684.0,1082.0,0.439,0.634,-0.169,0.614
239481,7174.0,2596.0,1018.0,0.435,0.634,-0.173,0.616
239497,7328.0,2590.0,906.0,0.431,0.634,-0.177,0.617
239513,7344.0,2466.0,832.0,0.427,0.634,-0.181,0.619
239539,7326.0,2342.0,982.0,0.422,0.634,-0.187,0.621
239555,7536.0,2108.0,872.0,0.417,0.634,-0.192,0.623
239571,7718.0,2228.0,776.0,0.412,0.633,-0.197,0.625
239587,7658.0,1894.0,830.0,0.407,0.632,-0.203,0.627
239603,7680.0,1696.0,950.0,0.402,0.631,-0.209,0.63
239619,8048.0,1692.0,964.0,0.398,0.63,-0.214,0.632
239645,8246.0,1602.0,880.0,0.393,0.629,-0.22,0.634
239661,8256.0,1502.0,954.0,0.389,0.627,-0.225,0.636
239677,8242.0,1456.0,1004.0,0.385,0.626,-0.23,0.638
239693,8176.0,1372.0,1044.0,0.381,0.626,-0.235,0.639
239709,8466.0,1440.0,1050.0,0.377,0.625,-0.239,0.64
239725,8554.0,1176.0,860.0,0.374,0.625,-0.243,0.641
239742,8594.0,1420.0,842.0,0.371,0.624,-0.247,0.642
239768,8324.0,970.0,842.0,0.368,0.624,-0.25,0.642
239784,8184.0,1154.0,1044.0,0.366,0.624,-0.253,0.642
239800,8144.0,1528.0,1088.0,0.365,0.625,-0.256,0.642
239816,8044.0,1170.0,970.0,0.363,0.625,-0.258,0.64
239832,8008.0,1046.0,1062.0,0.362,0.627,-0.26,0.639
239849,8060.0,1164.0,1002.0,0.36,0.629,-0.262,0.637
239875,8174.0,1330.0,996.0,0.358,0.632,-0.263,0.634
239891,8134.0,1178.0,804.0,0.357,0.636,-0.264,0.631
239907,8316.0,1374.0,636.0,0.355,0.64,-0.264,0.628
239923,8390.0,1402.0,400.0,0.353,0.643,-0.265,0.625
239939,8510.0,1502.0,170.0,0.351,0.646,-0.265,0.623
239955,8518.0,1632.0,124.0,0.35,0.648,-0.265,0.622
239981,8356.0,1554.0,302.0,0.349,0.65,-0.265,0.621
239997,8098.0,1118.0,300.0,0.349,0.65,-0.265,0.621
240013,8114.0,1452.0,372.0,0.349,0.651,-0.264,0.62
240029,7850.0,914.0,264.0,0.349,0.651,-0.264,0.62
240046,7754.0,790.0,570.0,0.349,0.651,-0.264,0.62
240063,7966.0,628.0,500.0,0.348,0.652,-0.264,0.62
240080,7778.0,872.0,516.0,0.348,0.652,-0.264,0.619
240097,7880.0,604.0,238.0,0.347,0.654,-0.264,0.618
240123,8006.0,876.0,50.0,0.346,0.655,-0.264,0.617
240139,8088.0,1186.0,308.0,0.346,0.656,-0.264,0.616
240155,7928.0,882.0,230.0,0.346,0.658,-0.264,0.614
240171,8010.0,1490.0,312.0,0.346,0.66,-0.264,0.612
240187,8472.0,1004.0,-176.0,0.346,0.662,-0.265,0.61
240203,8256.0,1186.0,88.0,0.345,0.664,-0.265,0.608
240229,7966.0,990.0,-106.0,0.345,0.665,-0.266,0.606
240246,8042.0,1064.0,-164.0,0.345,0.666,-0.267,0.605
240263,8044.0,996.0,-234.0,0.345,0.667,-0.269,0.603
240280,8118.0,924.0,-198.0,0.345,0.668,-0.27,0.601
240297,8198.0,884.0,-346.0,0.345,0.668,-0.272,0.6
240314,8086.0,812.0,-432.0,0.345,0.669,-0.273,0.599
240330,8120.0,868.0,-206.0,0.345,0.669,-0.275,0.598
240346,8042.0,858.0,-234.0,0.345,0.669,-0.276,0.597
240362,8196.0,992.0,-94.0,0.345,0.669,-0.278,0.597
240388,8086.0,900.0,-174.0,0.345,0.67,-0.279,0.595
240404,8056.0,820.0,-164.0,0.345,0.67,-0.281,0.594
240420,8092.0,770.0,-252.0,0.345,0.67,-0.282,0.593
240436,7966.0,634.0,-314.0,0.345,0.671,-0.283,0.593
240452,8200.0,694.0,-382.0,0.344,0.671,-0.284,0.593
240468,8200.0,982.0,-70.0,0.344,0.67,-0.284,0.593
240494,8182.0,864.0,-102.0,0.343,0.67,-0.285,0.594
240510,8108.0,1090.0,64.0,0.344,0.669,-0.286,0.594
240526,7998.0,970.0,72.0,0.344,0.668,-0.287,0.594
240542,8116.0,844.0,-86.0,0.344,0.667,-0.288,0.594
240558,8252.0,772.0,-70.0,0.345,0.667,-0.289,0.594
240574,8238.0,636.0,-170.0,0.345,0.666,-0.29,0.594
240600,8228.0,700.0,-282.0,0.345,0.665,-0.291,0.595
240616,8208.0,918.0,-210.0,0.345,0.665,-0.291,0.595
240632,8160.0,770.0,-158.0,0.345,0.664,-0.292,0.596
240648,8126.0,774.0,-258.0,0.346,0.663,-0.292,0.596
240665,8164.0,558.0,-422.0,0.346,0.663,-0.291,0.596
240681,8296.0,724.0,-358.0,0.347,0.662,-0.291,0.597
240698,8256.0,1054.0,-278.0,0.348,0.662,-0.29,0.598
240725,8162.0,1006.0,-120.0,0.348,0.661,-0.289,0.599
240741,8174.0,854.0,-198.0,0.349,0.66,-0.287,0.6
240757,8200.0,1096.0,-188.0,0.35,0.659,-0.286,0.601
240773,8072.0,976.0,-130.0,0.351,0.659,-0.285,0.602
240789,8064.0,1066.0,-66.0,0.352,0.658,-0.283,0.602
240805,8072.0,1156.0,28.0,0.353,0.657,-0.282,0.603
240831,8016.0,1056.0,-30.0,0.354,0.657,-0.281,0.604
240847,7980.0,1032.0,-96.0,0.355,0.656,-0.279,0.604
240863,8104.0,1032.0,60.0,0.356,0.656,-0.278,0.605
240879,8158.0,1480.0,82.0,0.357,0.656,-0.276,0.605
240895,8224.0,1632.0,72.0,0.359,0.655,-0.275,0.606
240911,8070.0,1254.0,262.0,0.36,0.653,-0.273,0.607
240937,7950.0,1360.0,330.0,0.362,0.652,-0.272,0.608
240953,8250.0,1572.0,352.0,0.363,0.651,-0.271,0.609
240969,8320.0,1274.0,518.0,0.365,0.65,-0.271,0.609
240985,8350.0,1196.0,668.0,0.367,0.649,-0.269,0.61
241001,8654.0,1022.0,652.0,0.37,0.647,-0.267,0.611
241017,8646.0,1402.0,790.0,0.372,0.645,-0.264,0.613
241043,8508.0,1504.0,1192.0,0.375,0.643,-0.261,0.615
241059,8560.0,1574.0,1616.0,0.378,0.64,-0.258,0.617
241075,9112.0,2182.0,2134.0,0.382,0.638,-0.254,0.619
241091,9468.0,1920.0,2002.0,0.387,0.634,-0.251,0.62
241107,9810.0,2130.0,2834.0,0.394,0.63,-0.247,0.623
241133,9686.0,2238.0,3554.0,0.401,0.624,-0.241,0.626
241149,9670.0,2816.0,4350.0,0.409,0.618,-0.235,0.629
241165,9806.0,4148.0,5582.0,0.42,0.61,-0.23,0.631
241181,9816.0,3188.0,5872.0,0.432,0.601,-0.226,0.633
241197,10322.0,3644.0,6762.0,0.447,0.591,-0.221,0.634
241213,10586.0,2954.0,6766.0,0.461,0.579,-0.215,0.637
241229,11202.0,3560.0,6762.0,0.476,0.566,-0.208,0.64
241255,11120.0,3736.0,7466.0,0.491,0.55,-0.2,0.646
241271,11208.0,3576.0,7806.0,0.507,0.532,-0.191,0.651
241287,11600.0,3692.0,7364.0,0.523,0.511,-0.182,0.658
241303,11538.0,3752.0,7314.0,0.539,0.488,-0.172,0.664
241319,11270.0,3324.0,7352.0,0.556,0.463,-0.162,0.671
241335,11192.0,3356.0,7284.0,0.571,0.437,-0.151,0.678
241361,10978.0,3834.0,7234.0,0.587,0.41,-0.14,0.684
241377,10342.0,3478.0,7396.0,0.602,0.382,-0.129,0.689
241393,10254.0,3390.0,7128.0,0.616,0.354,-0.118,0.693
241409,9910.0,3090.0,6448.0,0.629,0.326,-0.107,0.698
241425,9404.0,3590.0,6212.0,0.64,0.297,-0.095,0.702
241441,8520.0,3242.0,6034.0,0.651,0.268,-0.083,0.705
241467,8194.0,3096.0,5414.0,0.661,0.238,-0.071,0.708
241483,7006.0,2866.0,5464.0,0.669,0.209,-0.059,0.711
241499,6450.0,2760.0,5270.0,0.676,0.182,-0.048,0.712
241515,5772.0,2586.0,5004.0,0.683,0.155,-0.037,0.713
241531,5420.0,2910.0,4536.0,0.689,0.13,-0.027,0.713
241557,4608.0,2470.0,4382.0,0.694,0.104,-0.017,0.712
241573,3522.0,2100.0,4500.0,0.698,0.08,-0.007,0.711
241589,3030.0,1982.0,4642.0,0.703,0.058,0.001,0.709
241605,2950.0,1536.0,3920.0,0.707,0.037,0.008,0.706
241621,2560.0,1840.0,3862.0,0.711,0.018,0.015,0.703
241637,2120.0,1868.0,3544.0,0.714,-0.0,0.022,0.7
241663,1958.0,1268.0,3354.0,0.717,-0.018,0.029,0.696
241679,1162.0,824.0,3288.0,0.72,-0.034,0.036,0.692
241695,394.0,616.0,3256.0,0.723,-0.049,0.042,0.688
241711,-144.0,256.0,3022.0,0.726,-0.062,0.048,0.683
241727,-594.0,-70.0,2564.0,0.729,-0.073,0.053,0.679
241743,-878.0,616.0,2260.0,0.732,-0.083,0.058,0.674
241769,-1384.0,58.0,2124.0,0.735,-0.093,0.062,0.669
241785,-1970.0,-784.0,1840.0,0.737,-0.101,0.065,0.665
241802,-2018.0,-1674.0,1338.0,0.74,-0.107,0.069,0.661
241818,-2434.0,-756.0,1000.0,0.743,-0.111,0.072,0.657
241835,-2976.0,-400.0,1352.0,0.745,-0.114,0.075,0.653
241852,-3520.0,-706.0,1538.0,0.747,-0.115,0.076,0.65
241869,-3406.0,-1364.0,1504.0,0.749,-0.114,0.075,0.648
241886,-2828.0,-1124.0,1450.0,0.751,-0.11,0.073,0.647
241902,-2756.0,-632.0,1844.0,0.753,-0.105,0.07,0.646
241928,-2848.0,-850.0,2360.0,0.754,-0.097,0.064,0.646
241944,-2044.0,-658.0,2492.0,0.756,-0.087,0.056,0.646
241960,-1424.0,-292.0,2942.0,0.757,-0.075,0.048,0.647
241977,-960.0,12.0,3438.0,0.759,-0.061,0.038,0.647
241994,-270.0,200.0,3774.0,0.76,-0.046,0.028,0.648
242010,514.0,462.0,4452.0,0.76,-0.029,0.017,0.649
242036,714.0,240.0,4730.0,0.76,-0.011,0.005,0.65
242052,1428.0,610.0,5030.0,0.759,0.01,-0.006,0.651
242068,1710.0,830.0,5674.0,0.758,0.032,-0.017,0.651
242084,2962.0,1202.0,5782.0,0.756,0.056,-0.029,0.651
242100,3944.0,1314.0,6098.0,0.753,0.082,-0.041,0.651
242116,4138.0,1494.0,6416.0,0.75,0.108,-0.052,0.65
242132,4458.0,1698.0,6310.0,0.746,0.136,-0.064,0.649
242158,5250.0,2962.0,6692.0,0.741,0.163,-0.074,0.647
242174,5466.0,2014.0,6502.0,0.736,0.19,-0.086,0.644
242190,5920.0,2206.0,6714.0,0.73,0.215,-0.095,0.642
242206,6352.0,3048.0,6378.0,0.723,0.24,-0.104,0.639
242222,6406.0,3086.0,6916.0,0.715,0.265,-0.111,0.637
242248,6852.0,2654.0,6530.0,0.707,0.288,-0.118,0.635
242264,7280.0,3382.0,6760.0,0.698,0.311,-0.125,0.632
242280,7126.0,3448.0,6424.0,0.689,0.334,-0.13,0.63
242296,7500.0,4504.0,6496.0,0.68,0.355,-0.137,0.627
242312,7700.0,3400.0,6648.0,0.67,0.376,-0.143,0.624
242328,7856.0,4112.0,6444.0,0.661,0.396,-0.15,0.619
242344,7938.0,4550.0,6528.0,0.652,0.415,-0.157,0.615
242370,8762.0,4172.0,5828.0,0.642,0.433,-0.164,0.611
242386,8760.0,4432.0,6040.0,0.632,0.45,-0.171,0.607
242402,8952.0,4008.0,5874.0,0.623,0.465,-0.177,0.603
242418,9240.0,4102.0,5712.0,0.614,0.48,-0.183,0.6
242434,8738.0,3942.0,5458.0,0.604,0.494,-0.189,0.596
242450,9618.0,4200.0,4900.0,0.595,0.507,-0.194,0.593
242476,9014.0,4086.0,4958.0,0.586,0.518,-0.199,0.591
242492,9076.0,3838.0,4766.0,0.577,0.528,-0.203,0.589
242508,8390.0,3480.0,4672.0,0.568,0.539,-0.207,0.586
242524,8886.0,4304.0,4260.0,0.559,0.549,-0.212,0.584
242540,8376.0,4022.0,4260.0,0.551,0.559,-0.217,0.581
242566,8736.0,3556.0,4014.0,0.543,0.567,-0.222,0.577
242582,8910.0,3348.0,3736.0,0.536,0.576,-0.227,0.575
242598,9120.0,3674.0,3404.0,0.528,0.583,-0.231,0.572
242614,9038.0,3844.0,3682.0,0.521,0.59,-0.235,0.571
242630,8868.0,3650.0,3642.0,0.514,0.596,-0.238,0.569
242646,8452.0,3568.0,4086.0,0.508,0.602,-0.242,0.566
242672,8784.0,2316.0,4752.0,0.502,0.608,-0.244,0.564
242688,8736.0,1680.0,5266.0,0.495,0.615,-0.245,0.562
242704,8962.0,1640.0,5438.0,0.487,0.623,-0.243,0.562
242720,8932.0,1872.0,5272.0,0.477,0.632,-0.239,0.562
242736,9448.0,2884.0,4652.0,0.466,0.641,-0.232,0.564
242752,10062.0,4122.0,4060.0,0.456,0.649,-0.224,0.566
242778,10082.0,5316.0,4088.0,0.449,0.653,-0.215,0.571
242794,9432.0,5052.0,4896.0,0.445,0.654,-0.207,0.576
242810,9286.0,4720.0,5226.0,0.442,0.653,-0.199,0.582
242826,9804.0,5248.0,5244.0,0.441,0.651,-0.19,0.588
242842,10140.0,5530.0,5472.0,0.443,0.646,-0.181,0.594
242868,10072.0,5698.0,5862.0,0.447,0.64,-0.173,0.6
242884,10294.0,6210.0,6100.0,0.454,0.633,-0.164,0.606
242900,10802.0,6170.0,5980.0,0.463,0.623,-0.157,0.611
242916,11176.0,6144.0,5730.0,0.475,0.611,-0.148,0.616
242932,11090.0,6416.0,6126.0,0.489,0.596,-0.14,0.622
