timeMs,ax,ay,az,q0,q1,q2,q3
2166895,8008.0,1762.0,-298.0,0.683,0.286,-0.658,0.133
2166913,8132.0,1782.0,-306.0,0.683,0.287,-0.658,0.133
2166934,8232.0,1726.0,-362.0,0.684,0.287,-0.658,0.133
2166952,8294.0,1678.0,-352.0,0.684,0.287,-0.657,0.133
2166969,8402.0,1564.0,-252.0,0.684,0.287,-0.657,0.134
2166989,8278.0,1704.0,-308.0,0.685,0.287,-0.656,0.134
2167007,8258.0,1700.0,-184.0,0.685,0.288,-0.655,0.135
2167028,8228.0,1636.0,-194.0,0.685,0.288,-0.655,0.135
2167048,8256.0,1728.0,-270.0,0.686,0.289,-0.654,0.136
2167066,8216.0,1716.0,-206.0,0.686,0.29,-0.653,0.136
2167088,8158.0,1646.0,-222.0,0.686,0.29,-0.653,0.137
2167100,8160.0,1764.0,-210.0,0.686,0.291,-0.652,0.138
2167121,8056.0,1726.0,-154.0,0.686,0.292,-0.651,0.139
2167141,7982.0,1732.0,-130.0,0.686,0.293,-0.651,0.14
2167151,7930.0,1726.0,-182.0,0.686,0.294,-0.65,0.141
2167171,7908.0,1760.0,-136.0,0.686,0.295,-0.649,0.142
2167190,7904.0,1854.0,-180.0,0.686,0.296,-0.649,0.143
2167210,7888.0,1706.0,-214.0,0.686,0.296,-0.648,0.145
2167220,7926.0,1728.0,-172.0,0.686,0.297,-0.648,0.146
2167239,7882.0,1740.0,-156.0,0.686,0.298,-0.647,0.148
2167259,8000.0,1852.0,-158.0,0.686,0.299,-0.646,0.15
2167280,7870.0,1678.0,-120.0,0.686,0.3,-0.645,0.152
2167290,7950.0,1812.0,-154.0,0.686,0.301,-0.645,0.154
2167310,7974.0,1752.0,-120.0,0.686,0.302,-0.644,0.156
2167330,8004.0,1742.0,-88.0,0.686,0.302,-0.643,0.158
2167350,7918.0,1770.0,-86.0,0.685,0.303,-0.642,0.16
2167360,7912.0,1748.0,-84.0,0.685,0.304,-0.642,0.162
2167380,7968.0,1664.0,-88.0,0.685,0.305,-0.641,0.163
2167402,7988.0,1694.0,-62.0,0.685,0.306,-0.641,0.165
2167412,8040.0,1694.0,-134.0,0.684,0.307,-0.64,0.167
2167431,8052.0,1634.0,-90.0,0.684,0.308,-0.64,0.169
2167451,8020.0,1692.0,-52.0,0.683,0.309,-0.639,0.171
2167471,8002.0,1698.0,-26.0,0.683,0.311,-0.639,0.172
2167491,7952.0,1720.0,-24.0,0.682,0.312,-0.638,0.174
2167502,7994.0,1788.0,-2.0,0.681,0.313,-0.638,0.175
2167521,7990.0,1750.0,-36.0,0.681,0.314,-0.638,0.176
2167541,8002.0,1698.0,-46.0,0.68,0.315,-0.638,0.177
2167552,7974.0,1660.0,-108.0,0.679,0.316,-0.638,0.178
2167573,8002.0,1730.0,-46.0,0.679,0.317,-0.637,0.179
2167593,7934.0,1808.0,14.0,0.678,0.318,-0.637,0.18
2167610,7950.0,1854.0,22.0,0.678,0.319,-0.637,0.18
2167630,7964.0,1890.0,-46.0,0.677,0.32,-0.637,0.181
2167640,8090.0,1884.0,-96.0,0.677,0.32,-0.637,0.181
2167661,8024.0,1864.0,-74.0,0.677,0.32,-0.638,0.181
2167678,8068.0,1812.0,50.0,0.677,0.32,-0.638,0.181
2167696,8080.0,1812.0,-112.0,0.676,0.32,-0.638,0.181
2167713,8122.0,1820.0,-38.0,0.676,0.32,-0.639,0.181
2167731,8110.0,1868.0,76.0,0.676,0.319,-0.639,0.18
2167748,8122.0,1764.0,-46.0,0.676,0.318,-0.64,0.179
2167767,8100.0,1780.0,-76.0,0.676,0.318,-0.64,0.179
2167786,8022.0,1810.0,-16.0,0.677,0.317,-0.64,0.177
2167797,8066.0,1846.0,-2.0,0.677,0.316,-0.641,0.176
2167815,8068.0,1758.0,-102.0,0.677,0.315,-0.641,0.174
2167834,8048.0,1762.0,-130.0,0.678,0.314,-0.642,0.173
2167855,8058.0,1768.0,-84.0,0.679,0.313,-0.642,0.171
2167871,7950.0,1808.0,-102.0,0.679,0.312,-0.643,0.169
2167888,7906.0,1748.0,-70.0,0.68,0.31,-0.643,0.167
2167906,7928.0,1786.0,-54.0,0.681,0.309,-0.643,0.165
2167925,7940.0,1730.0,-100.0,0.681,0.308,-0.644,0.163
2167945,7990.0,1768.0,-128.0,0.682,0.306,-0.645,0.16
2167956,8004.0,1752.0,-134.0,0.683,0.304,-0.645,0.158
2167976,8018.0,1772.0,-132.0,0.683,0.302,-0.646,0.155
2167997,8048.0,1698.0,-194.0,0.684,0.301,-0.647,0.153
2168006,8058.0,1764.0,-272.0,0.684,0.299,-0.648,0.151
2168023,8096.0,1776.0,-282.0,0.685,0.297,-0.648,0.148
2168041,8000.0,1846.0,-208.0,0.685,0.296,-0.649,0.145
2168061,8054.0,1776.0,-252.0,0.686,0.294,-0.65,0.143
2168081,8038.0,1764.0,-272.0,0.686,0.292,-0.651,0.14
2168102,8108.0,1754.0,-322.0,0.686,0.291,-0.652,0.138
2168112,8074.0,1658.0,-328.0,0.686,0.289,-0.653,0.136
2168134,8088.0,1710.0,-288.0,0.686,0.288,-0.654,0.133
2168154,8078.0,1778.0,-240.0,0.686,0.287,-0.655,0.131
2168163,8104.0,1850.0,-308.0,0.686,0.285,-0.656,0.129
2168182,8178.0,1836.0,-338.0,0.686,0.284,-0.658,0.127
2168202,8118.0,1666.0,-190.0,0.686,0.283,-0.659,0.125
2168221,8070.0,1702.0,-224.0,0.686,0.281,-0.66,0.123
2168238,8116.0,1802.0,-290.0,0.686,0.28,-0.661,0.121
2168257,8142.0,1772.0,-318.0,0.686,0.278,-0.662,0.119
2168278,8060.0,1754.0,-232.0,0.686,0.277,-0.662,0.117
2168289,8116.0,1724.0,-126.0,0.686,0.275,-0.663,0.115
2168310,8194.0,1870.0,-306.0,0.687,0.274,-0.664,0.113
2168321,8194.0,1682.0,-238.0,0.687,0.272,-0.665,0.112
2168341,8130.0,1598.0,-242.0,0.687,0.27,-0.665,0.11
2168361,8218.0,1690.0,-208.0,0.688,0.269,-0.665,0.108
2168381,8212.0,1784.0,-280.0,0.688,0.267,-0.666,0.107
2168388,8216.0,1784.0,-270.0,0.689,0.266,-0.666,0.105
2168405,8114.0,1580.0,-194.0,0.689,0.264,-0.666,0.103
2168423,8108.0,1694.0,-262.0,0.69,0.263,-0.667,0.101
2168441,8110.0,1704.0,-282.0,0.691,0.262,-0.667,0.1
2168458,8060.0,1708.0,-216.0,0.691,0.26,-0.667,0.099
2168475,8046.0,1688.0,-220.0,0.692,0.259,-0.667,0.098
2168492,8084.0,1714.0,-306.0,0.692,0.258,-0.667,0.097
2168509,8080.0,1720.0,-296.0,0.693,0.256,-0.667,0.096
2168526,8018.0,1622.0,-254.0,0.694,0.255,-0.667,0.095
2168543,7998.0,1630.0,-232.0,0.694,0.254,-0.667,0.094
2168563,8000.0,1684.0,-226.0,0.695,0.253,-0.667,0.093
2168581,7968.0,1616.0,-252.0,0.695,0.252,-0.667,0.092
2168598,8002.0,1674.0,-248.0,0.695,0.251,-0.667,0.092
2168616,7978.0,1650.0,-262.0,0.695,0.251,-0.667,0.092
2168632,7948.0,1668.0,-258.0,0.695,0.25,-0.667,0.092
2168649,7962.0,1564.0,-272.0,0.696,0.249,-0.668,0.092
2168666,7984.0,1682.0,-316.0,0.696,0.249,-0.668,0.092
2168683,7946.0,1640.0,-220.0,0.695,0.249,-0.668,0.092
2168700,7914.0,1680.0,-178.0,0.695,0.248,-0.668,0.092
2168716,7980.0,1760.0,-216.0,0.695,0.248,-0.669,0.093
2168733,7970.0,1726.0,-250.0,0.695,0.248,-0.669,0.093
2168750,7932.0,1704.0,-218.0,0.694,0.248,-0.669,0.094
2168767,8006.0,1730.0,-178.0,0.694,0.248,-0.67,0.094
2168784,8036.0,1674.0,-282.0,0.693,0.248,-0.67,0.095
2168801,8064.0,1706.0,-278.0,0.693,0.248,-0.67,0.096
2168818,8074.0,1754.0,-286.0,0.692,0.248,-0.671,0.097
2168836,8004.0,1710.0,-180.0,0.692,0.249,-0.671,0.098
2168853,8016.0,1840.0,-146.0,0.691,0.249,-0.671,0.098
2168871,8034.0,1834.0,-174.0,0.691,0.25,-0.671,0.099
2168889,8030.0,1870.0,-202.0,0.69,0.25,-0.672,0.1
2168907,8036.0,1748.0,-116.0,0.69,0.25,-0.672,0.1
2168924,8088.0,1748.0,-164.0,0.689,0.25,-0.672,0.101
2168941,8094.0,1746.0,-154.0,0.689,0.251,-0.672,0.101
2168960,8076.0,1792.0,-198.0,0.689,0.251,-0.673,0.102
2168979,8132.0,1862.0,-148.0,0.688,0.251,-0.673,0.102
2168998,8048.0,1772.0,-184.0,0.688,0.251,-0.673,0.103
2169019,8024.0,1744.0,-176.0,0.688,0.252,-0.673,0.103
2169036,8052.0,1840.0,-96.0,0.688,0.252,-0.673,0.104
2169053,8098.0,1828.0,-188.0,0.688,0.252,-0.673,0.104
2169073,8082.0,1822.0,-194.0,0.688,0.252,-0.673,0.104
2169092,8042.0,1716.0,-138.0,0.688,0.252,-0.672,0.104
2169112,8100.0,1780.0,-150.0,0.688,0.253,-0.672,0.105
2169132,7994.0,1832.0,-224.0,0.688,0.253,-0.672,0.105
2169142,8064.0,1836.0,-222.0,0.688,0.253,-0.672,0.105
2169162,7956.0,1802.0,-180.0,0.689,0.253,-0.671,0.105
2169181,8016.0,1862.0,-242.0,0.689,0.253,-0.671,0.105
2169200,8016.0,1728.0,-272.0,0.689,0.253,-0.671,0.105
2169219,8028.0,1666.0,-266.0,0.689,0.253,-0.671,0.104
2169228,8036.0,1690.0,-284.0,0.69,0.253,-0.67,0.104
2169246,8060.0,1756.0,-218.0,0.69,0.253,-0.67,0.104
2169264,8054.0,1714.0,-228.0,0.69,0.253,-0.67,0.104
2169281,8082.0,1780.0,-262.0,0.69,0.254,-0.669,0.104
2169298,8056.0,1698.0,-236.0,0.691,0.254,-0.669,0.104
2169316,8008.0,1718.0,-184.0,0.691,0.254,-0.669,0.103
2169333,8116.0,1706.0,-288.0,0.691,0.254,-0.669,0.103
2169353,8106.0,1728.0,-304.0,0.691,0.254,-0.669,0.103
2169374,8034.0,1700.0,-228.0,0.692,0.254,-0.669,0.103
2169391,8044.0,1614.0,-202.0,0.692,0.254,-0.668,0.102
2169411,8070.0,1718.0,-234.0,0.692,0.254,-0.668,0.102
2169421,8056.0,1720.0,-222.0,0.692,0.253,-0.669,0.102
2169440,7974.0,1628.0,-276.0,0.692,0.253,-0.669,0.102
2169460,8064.0,1610.0,-250.0,0.692,0.253,-0.669,0.102
2169481,8008.0,1634.0,-176.0,0.692,0.253,-0.669,0.102
2169493,8042.0,1696.0,-222.0,0.691,0.253,-0.669,0.102
2169513,8004.0,1666.0,-248.0,0.691,0.253,-0.669,0.102
2169531,8006.0,1688.0,-158.0,0.691,0.253,-0.669,0.102
2169552,8004.0,1658.0,-190.0,0.691,0.252,-0.669,0.102
2169562,8070.0,1668.0,-184.0,0.691,0.252,-0.67,0.102
2169582,8018.0,1716.0,-212.0,0.691,0.252,-0.67,0.102
2169601,8062.0,1670.0,-250.0,0.691,0.252,-0.67,0.102
2169621,8066.0,1674.0,-272.0,0.691,0.252,-0.67,0.102
2169630,8070.0,1688.0,-208.0,0.691,0.251,-0.67,0.102
2169650,8040.0,1788.0,-160.0,0.691,0.251,-0.67,0.102
2169669,8030.0,1792.0,-162.0,0.691,0.251,-0.67,0.102
2169691,8074.0,1794.0,-212.0,0.691,0.251,-0.671,0.102
2169700,8096.0,1692.0,-286.0,0.691,0.251,-0.671,0.102
2169717,8080.0,1658.0,-174.0,0.691,0.25,-0.671,0.102
2169735,8106.0,1660.0,-242.0,0.691,0.25,-0.671,0.102
2169753,8074.0,1750.0,-236.0,0.691,0.25,-0.671,0.102
2169771,8042.0,1746.0,-184.0,0.691,0.25,-0.671,0.102
2169791,8032.0,1690.0,-210.0,0.691,0.25,-0.671,0.101
2169807,8016.0,1738.0,-184.0,0.691,0.25,-0.671,0.101
2169826,8032.0,1744.0,-186.0,0.691,0.25,-0.671,0.101
2169845,8016.0,1688.0,-232.0,0.691,0.25,-0.671,0.101
2169865,8070.0,1680.0,-150.0,0.691,0.25,-0.671,0.101
2169885,8082.0,1770.0,-160.0,0.691,0.25,-0.671,0.101
2169896,8072.0,1772.0,-174.0,0.691,0.25,-0.671,0.102
2169917,8070.0,1628.0,-190.0,0.691,0.25,-0.671,0.102
2169935,8076.0,1682.0,-170.0,0.691,0.25,-0.671,0.102
2169955,8062.0,1634.0,-164.0,0.691,0.25,-0.671,0.102
2169966,8072.0,1728.0,-134.0,0.691,0.25,-0.671,0.102
2169986,8058.0,1780.0,-138.0,0.691,0.249,-0.671,0.101
2170006,8102.0,1726.0,-228.0,0.691,0.249,-0.671,0.101
2170018,8138.0,1670.0,-290.0,0.691,0.249,-0.671,0.101
2170038,8004.0,1628.0,-176.0,0.691,0.249,-0.67,0.102
2170055,7974.0,1576.0,-60.0,0.692,0.249,-0.67,0.102
2170074,8112.0,1756.0,-198.0,0.692,0.249,-0.67,0.102
2170093,8008.0,1566.0,-254.0,0.692,0.249,-0.67,0.102
2170105,8036.0,1640.0,-132.0,0.692,0.25,-0.67,0.102
2170124,8028.0,1632.0,-218.0,0.692,0.25,-0.67,0.102
2170145,8060.0,1722.0,-234.0,0.692,0.25,-0.67,0.102
2170155,8046.0,1622.0,-180.0,0.692,0.25,-0.669,0.103
2170176,8052.0,1662.0,-130.0,0.692,0.25,-0.669,0.103
2170196,8054.0,1562.0,-190.0,0.692,0.25,-0.669,0.103
2170218,8060.0,1780.0,-212.0,0.692,0.25,-0.669,0.103
2170228,7986.0,1566.0,-180.0,0.692,0.251,-0.669,0.104
2170246,8116.0,1632.0,-214.0,0.692,0.251,-0.669,0.104
2170264,8174.0,1746.0,-266.0,0.692,0.251,-0.669,0.104
2170281,8084.0,1816.0,-160.0,0.692,0.251,-0.669,0.104
2170299,8194.0,1588.0,-200.0,0.691,0.251,-0.669,0.104
2170316,8124.0,1606.0,-228.0,0.691,0.251,-0.669,0.104
2170333,8154.0,1598.0,-198.0,0.691,0.252,-0.669,0.104
2170350,8098.0,1682.0,-208.0,0.691,0.252,-0.669,0.105
2170367,8064.0,1684.0,-176.0,0.691,0.253,-0.669,0.105
2170384,7998.0,1806.0,-48.0,0.69,0.253,-0.67,0.105
2170402,8068.0,1884.0,-252.0,0.69,0.253,-0.67,0.105
2170420,8016.0,1714.0,-242.0,0.69,0.254,-0.67,0.105
2170437,7946.0,1704.0,-202.0,0.69,0.254,-0.67,0.106
2170454,7862.0,1644.0,-112.0,0.69,0.254,-0.67,0.106
2170471,7824.0,1808.0,-158.0,0.689,0.254,-0.67,0.106
2170488,7894.0,1898.0,-208.0,0.689,0.254,-0.671,0.106
2170505,7946.0,1886.0,-180.0,0.689,0.253,-0.671,0.106
2170522,8042.0,1850.0,-218.0,0.689,0.253,-0.671,0.107
2170540,8118.0,1758.0,-330.0,0.688,0.252,-0.672,0.107
2170558,7988.0,1868.0,-234.0,0.688,0.252,-0.672,0.107
2170575,8044.0,1778.0,-266.0,0.689,0.251,-0.672,0.107
2170592,8044.0,1810.0,-264.0,0.689,0.251,-0.672,0.107
2170609,8094.0,1932.0,-230.0,0.689,0.251,-0.671,0.107
2170626,7984.0,1808.0,-262.0,0.689,0.251,-0.671,0.107
2170643,8006.0,1684.0,-184.0,0.69,0.251,-0.671,0.106
2170661,8106.0,1774.0,-208.0,0.69,0.251,-0.671,0.106
2170679,8098.0,1826.0,-212.0,0.691,0.251,-0.67,0.105
2170697,8034.0,1970.0,-236.0,0.691,0.251,-0.67,0.105
2170714,8134.0,1750.0,-298.0,0.691,0.25,-0.67,0.104
2170732,8080.0,1916.0,-266.0,0.691,0.25,-0.67,0.104
2170750,8084.0,1728.0,-298.0,0.692,0.249,-0.67,0.104
2170767,8038.0,1712.0,-234.0,0.692,0.249,-0.67,0.103
2170784,8150.0,1744.0,-230.0,0.692,0.249,-0.67,0.103
2170801,8190.0,1834.0,-344.0,0.693,0.248,-0.669,0.102
2170819,8204.0,1638.0,-320.0,0.693,0.248,-0.669,0.102
2170837,8310.0,1660.0,-260.0,0.693,0.248,-0.669,0.102
2170855,8440.0,1672.0,-316.0,0.694,0.248,-0.668,0.102
2170873,8614.0,1830.0,-262.0,0.694,0.249,-0.668,0.102
2170891,8666.0,2038.0,-162.0,0.695,0.249,-0.667,0.102
2170909,8600.0,2090.0,6.0,0.695,0.249,-0.667,0.102
2170927,8428.0,1904.0,-30.0,0.695,0.248,-0.667,0.102
2170945,8148.0,1728.0,-100.0,0.695,0.247,-0.667,0.102
2170964,7826.0,2060.0,-106.0,0.695,0.247,-0.667,0.101
2170983,7770.0,2212.0,30.0,0.696,0.245,-0.668,0.1
2171001,7866.0,1784.0,-52.0,0.696,0.243,-0.668,0.098
2171020,7948.0,1686.0,-150.0,0.696,0.242,-0.669,0.096
2171028,7842.0,1962.0,-98.0,0.696,0.242,-0.67,0.094
2171047,7694.0,2054.0,-108.0,0.696,0.241,-0.67,0.092
2171065,7644.0,1810.0,-50.0,0.696,0.24,-0.671,0.09
2171082,7662.0,1938.0,-50.0,0.696,0.239,-0.671,0.087
2171099,7550.0,1678.0,-24.0,0.697,0.239,-0.671,0.085
2171116,7566.0,1526.0,-50.0,0.698,0.238,-0.671,0.083
2171134,7488.0,1580.0,-98.0,0.698,0.238,-0.67,0.081
2171151,7506.0,1664.0,30.0,0.699,0.239,-0.669,0.08
2171169,7566.0,1434.0,-178.0,0.701,0.24,-0.667,0.08
2171188,7718.0,1746.0,-208.0,0.702,0.241,-0.665,0.08
2171207,7686.0,2060.0,-58.0,0.704,0.242,-0.663,0.08
2171226,7694.0,2142.0,112.0,0.706,0.243,-0.661,0.08
2171245,7820.0,2216.0,158.0,0.707,0.243,-0.659,0.08
2171264,8040.0,2008.0,90.0,0.708,0.243,-0.658,0.079
2171272,8218.0,1826.0,40.0,0.709,0.242,-0.658,0.078
2171290,8422.0,1946.0,-56.0,0.71,0.242,-0.657,0.078
2171308,8336.0,2072.0,80.0,0.71,0.242,-0.657,0.077
2171326,8192.0,2084.0,196.0,0.711,0.241,-0.657,0.075
2171345,8246.0,1680.0,158.0,0.711,0.24,-0.657,0.074
2171364,8422.0,1544.0,246.0,0.711,0.24,-0.658,0.072
2171382,8538.0,1496.0,222.0,0.711,0.239,-0.658,0.07
2171400,8422.0,1422.0,212.0,0.711,0.238,-0.658,0.069
2171417,8254.0,1562.0,384.0,0.712,0.237,-0.658,0.067
2171434,8362.0,1528.0,332.0,0.712,0.235,-0.658,0.065
2171452,8304.0,1620.0,102.0,0.713,0.232,-0.659,0.063
2171469,8042.0,1690.0,66.0,0.714,0.229,-0.659,0.061
2171486,7824.0,1658.0,132.0,0.714,0.227,-0.659,0.059
2171504,7840.0,1778.0,206.0,0.715,0.224,-0.66,0.056
2171522,7778.0,1692.0,44.0,0.715,0.222,-0.661,0.053
2171540,7848.0,1632.0,-28.0,0.715,0.219,-0.662,0.051
2171559,7856.0,1672.0,6.0,0.714,0.217,-0.664,0.049
2171577,7898.0,1798.0,-24.0,0.714,0.215,-0.665,0.046
2171596,7828.0,1790.0,-112.0,0.714,0.213,-0.666,0.044
2171609,7870.0,1726.0,-84.0,0.713,0.211,-0.667,0.042
2171627,7870.0,1754.0,-112.0,0.713,0.209,-0.669,0.039
2171645,7758.0,1828.0,-52.0,0.712,0.207,-0.67,0.037
2171663,7680.0,2346.0,108.0,0.711,0.204,-0.672,0.034
2171681,7782.0,2326.0,194.0,0.711,0.201,-0.673,0.029
2171699,7982.0,1764.0,170.0,0.71,0.196,-0.676,0.024
2171717,8148.0,1190.0,0.0,0.709,0.193,-0.679,0.019
2171734,8272.0,1376.0,-332.0,0.707,0.191,-0.681,0.015
2171753,8350.0,1676.0,-454.0,0.705,0.19,-0.683,0.011
2171762,8144.0,1528.0,-388.0,0.704,0.189,-0.684,0.007
2171780,8420.0,1772.0,-378.0,0.703,0.19,-0.685,0.003
2171797,8418.0,1782.0,-416.0,0.703,0.191,-0.685,-0.001
2171814,8432.0,1842.0,-614.0,0.703,0.193,-0.685,-0.005
2171831,8636.0,1954.0,-552.0,0.703,0.196,-0.684,-0.008
2171848,8580.0,2322.0,-504.0,0.704,0.199,-0.682,-0.011
2171865,8450.0,2528.0,-496.0,0.705,0.202,-0.68,-0.014
2171882,8220.0,2782.0,-344.0,0.706,0.205,-0.678,-0.017
2171899,7980.0,2646.0,-34.0,0.706,0.207,-0.677,-0.02
2171917,8058.0,2306.0,62.0,0.707,0.209,-0.675,-0.023
2171935,8084.0,2360.0,-60.0,0.707,0.212,-0.674,-0.027
2171954,8228.0,2716.0,-280.0,0.708,0.216,-0.672,-0.03
2171973,7808.0,2664.0,-30.0,0.708,0.22,-0.67,-0.033
2171992,7566.0,3108.0,108.0,0.709,0.224,-0.668,-0.036
2172011,7516.0,3168.0,42.0,0.709,0.229,-0.666,-0.039
2172029,7462.0,3606.0,50.0,0.709,0.232,-0.664,-0.042
2172047,7498.0,3384.0,150.0,0.71,0.234,-0.663,-0.046
2172066,7532.0,3342.0,62.0,0.71,0.236,-0.662,-0.05
2172083,7568.0,3094.0,-130.0,0.71,0.238,-0.661,-0.054
2172101,7374.0,3032.0,-44.0,0.709,0.24,-0.66,-0.058
2172120,7300.0,3422.0,28.0,0.709,0.243,-0.659,-0.061
2172129,7240.0,3520.0,50.0,0.709,0.245,-0.658,-0.065
2172147,7314.0,3132.0,6.0,0.709,0.246,-0.657,-0.068
2172165,7314.0,3224.0,-78.0,0.709,0.248,-0.656,-0.07
2172183,7292.0,3406.0,-32.0,0.709,0.249,-0.655,-0.073
2172201,7238.0,3206.0,-44.0,0.709,0.25,-0.655,-0.075
2172218,7074.0,3450.0,108.0,0.71,0.25,-0.654,-0.077
2172236,7098.0,3416.0,152.0,0.709,0.251,-0.654,-0.079
2172255,7012.0,3656.0,194.0,0.709,0.251,-0.654,-0.08
2172273,6948.0,3506.0,218.0,0.709,0.251,-0.654,-0.082
2172293,6998.0,3784.0,120.0,0.708,0.251,-0.655,-0.084
2172311,7082.0,3552.0,172.0,0.707,0.251,-0.656,-0.085
2172328,7092.0,3378.0,120.0,0.706,0.251,-0.656,-0.086
2172347,7100.0,4046.0,144.0,0.705,0.251,-0.657,-0.087
2172355,7126.0,4116.0,270.0,0.705,0.251,-0.658,-0.089
2172373,7188.0,4158.0,240.0,0.704,0.25,-0.658,-0.09
2172392,7172.0,3998.0,316.0,0.703,0.249,-0.659,-0.092
2172411,7216.0,4066.0,318.0,0.702,0.249,-0.66,-0.094
2172429,7270.0,4236.0,228.0,0.702,0.248,-0.661,-0.096
2172448,7288.0,3836.0,378.0,0.701,0.248,-0.662,-0.098
2172466,7304.0,3976.0,476.0,0.7,0.248,-0.663,-0.099
2172484,7344.0,4228.0,410.0,0.698,0.248,-0.664,-0.101
2172502,7422.0,3982.0,290.0,0.697,0.248,-0.665,-0.102
2172520,7152.0,4288.0,398.0,0.696,0.248,-0.666,-0.103
2172538,7108.0,4302.0,486.0,0.695,0.248,-0.667,-0.104
2172556,7122.0,4150.0,352.0,0.693,0.247,-0.669,-0.105
2172575,7152.0,4024.0,382.0,0.692,0.247,-0.67,-0.105
2172583,7320.0,4202.0,384.0,0.691,0.247,-0.671,-0.106
2172600,7446.0,4110.0,458.0,0.69,0.247,-0.671,-0.107
2172617,7556.0,4132.0,616.0,0.69,0.247,-0.671,-0.107
2172634,7430.0,4420.0,630.0,0.691,0.247,-0.671,-0.108
2172651,7504.0,4682.0,506.0,0.692,0.245,-0.67,-0.11
2172669,7454.0,3000.0,334.0,0.693,0.243,-0.67,-0.112
2172686,7562.0,3824.0,128.0,0.694,0.242,-0.669,-0.114
2172703,7600.0,3782.0,70.0,0.695,0.241,-0.667,-0.115
2172720,7476.0,3932.0,-74.0,0.697,0.241,-0.665,-0.116
2172737,7422.0,4176.0,340.0,0.698,0.242,-0.663,-0.116
2172756,7488.0,3488.0,268.0,0.7,0.243,-0.661,-0.117
2172774,7536.0,4078.0,-46.0,0.701,0.246,-0.659,-0.117
2172794,7564.0,4438.0,-102.0,0.703,0.248,-0.656,-0.117
2172813,7366.0,4388.0,200.0,0.705,0.25,-0.653,-0.117
2172832,7194.0,4014.0,286.0,0.707,0.251,-0.65,-0.116
2172850,7412.0,4248.0,44.0,0.709,0.254,-0.648,-0.116
2172868,7516.0,4386.0,84.0,0.711,0.256,-0.645,-0.115
2172886,7346.0,4000.0,76.0,0.713,0.258,-0.642,-0.114
2172905,7484.0,4122.0,210.0,0.715,0.261,-0.638,-0.113
2172923,7296.0,4338.0,182.0,0.717,0.264,-0.635,-0.112
2172943,7276.0,4208.0,198.0,0.719,0.267,-0.632,-0.111
2172952,7108.0,4760.0,240.0,0.721,0.27,-0.628,-0.111
2172970,7248.0,4376.0,158.0,0.724,0.272,-0.625,-0.111
2172989,7308.0,3052.0,90.0,0.726,0.275,-0.621,-0.11
2173007,6826.0,3582.0,318.0,0.727,0.279,-0.617,-0.108
2173026,6450.0,3980.0,368.0,0.729,0.284,-0.614,-0.106
2173044,6204.0,4222.0,424.0,0.73,0.289,-0.61,-0.104
2173063,6236.0,4240.0,214.0,0.731,0.294,-0.608,-0.102
2173081,6410.0,4108.0,86.0,0.731,0.298,-0.605,-0.1
2173089,6418.0,4418.0,-106.0,0.731,0.303,-0.603,-0.097
2173108,6220.0,4354.0,76.0,0.731,0.308,-0.601,-0.095
2173128,6140.0,3886.0,-78.0,0.731,0.313,-0.599,-0.092
2173147,6100.0,4134.0,36.0,0.731,0.318,-0.597,-0.088
2173165,5988.0,5024.0,430.0,0.73,0.324,-0.595,-0.084
2173182,5984.0,5440.0,900.0,0.73,0.329,-0.593,-0.081
2173199,5928.0,5928.0,1338.0,0.73,0.334,-0.591,-0.077
2173217,6144.0,6362.0,1572.0,0.73,0.338,-0.589,-0.074
2173235,6056.0,6724.0,1702.0,0.731,0.34,-0.588,-0.071
2173254,6378.0,6760.0,1432.0,0.732,0.34,-0.586,-0.07
2173272,6812.0,6930.0,736.0,0.733,0.339,-0.585,-0.071
2173290,6818.0,6352.0,732.0,0.735,0.336,-0.584,-0.073
2173309,6864.0,4932.0,748.0,0.737,0.332,-0.584,-0.076
2173317,6672.0,4134.0,548.0,0.738,0.329,-0.583,-0.08
2173335,6462.0,4218.0,462.0,0.739,0.327,-0.583,-0.083
2173353,6190.0,4258.0,540.0,0.739,0.327,-0.583,-0.087
2173370,5956.0,4188.0,736.0,0.738,0.327,-0.583,-0.091
2173388,6018.0,4510.0,758.0,0.737,0.327,-0.584,-0.094
2173406,6130.0,4304.0,820.0,0.736,0.328,-0.585,-0.097
2173425,6524.0,4430.0,480.0,0.734,0.33,-0.586,-0.099
2173444,6882.0,4408.0,556.0,0.733,0.331,-0.586,-0.101
2173462,6956.0,5002.0,960.0,0.732,0.332,-0.586,-0.102
2173481,6760.0,4696.0,1456.0,0.732,0.333,-0.585,-0.104
2173499,6672.0,5070.0,1612.0,0.732,0.334,-0.584,-0.106
2173516,6550.0,5438.0,1348.0,0.732,0.334,-0.584,-0.108
2173533,6620.0,5466.0,1002.0,0.733,0.333,-0.583,-0.111
2173551,6468.0,5544.0,904.0,0.734,0.331,-0.582,-0.113
2173569,6456.0,5492.0,956.0,0.735,0.329,-0.582,-0.116
2173587,6212.0,5130.0,914.0,0.736,0.325,-0.582,-0.119
2173605,6300.0,4680.0,846.0,0.737,0.322,-0.582,-0.122
2173624,6462.0,4566.0,878.0,0.738,0.319,-0.582,-0.124
2173633,6470.0,4066.0,982.0,0.739,0.316,-0.581,-0.125
2173651,6494.0,4336.0,1002.0,0.74,0.315,-0.581,-0.126
2173669,6428.0,4566.0,916.0,0.74,0.314,-0.581,-0.126
2173687,6402.0,4582.0,946.0,0.741,0.314,-0.581,-0.125
2173705,6254.0,4604.0,1166.0,0.741,0.314,-0.581,-0.124
2173724,6036.0,4990.0,1486.0,0.74,0.314,-0.582,-0.122
2173742,5990.0,5642.0,1244.0,0.74,0.313,-0.583,-0.119
2173761,6044.0,5508.0,1102.0,0.741,0.31,-0.584,-0.117
2173779,6322.0,4276.0,1146.0,0.743,0.305,-0.585,-0.115
2173796,6460.0,3992.0,836.0,0.744,0.301,-0.586,-0.111
2173813,6694.0,5004.0,852.0,0.746,0.297,-0.587,-0.107
2173830,7026.0,4936.0,1064.0,0.748,0.292,-0.587,-0.103
2173847,7220.0,3936.0,1150.0,0.75,0.286,-0.588,-0.1
2173864,7228.0,3670.0,1082.0,0.751,0.28,-0.59,-0.097
2173882,7478.0,3838.0,930.0,0.753,0.276,-0.591,-0.093
2173899,7616.0,4384.0,1016.0,0.754,0.271,-0.592,-0.09
2173916,7482.0,3956.0,1158.0,0.755,0.267,-0.593,-0.087
2173933,7360.0,3870.0,1196.0,0.755,0.263,-0.594,-0.084
2173950,7146.0,3390.0,1300.0,0.756,0.259,-0.596,-0.081
2173967,7142.0,3896.0,1278.0,0.756,0.257,-0.597,-0.079
2173984,7100.0,4364.0,1052.0,0.756,0.255,-0.598,-0.076
2174001,7050.0,4114.0,1074.0,0.756,0.252,-0.6,-0.075
2174018,6752.0,3652.0,1116.0,0.756,0.249,-0.601,-0.073
2174035,6836.0,3582.0,958.0,0.756,0.247,-0.603,-0.072
2174052,6892.0,3914.0,896.0,0.756,0.245,-0.603,-0.071
2174070,6946.0,4078.0,1356.0,0.756,0.244,-0.604,-0.069
2174087,6652.0,3892.0,1790.0,0.756,0.243,-0.604,-0.068
2174104,6722.0,3716.0,1962.0,0.756,0.242,-0.605,-0.066
2174121,6960.0,3960.0,1742.0,0.756,0.241,-0.605,-0.065
2174138,6984.0,4720.0,1626.0,0.755,0.24,-0.606,-0.064
2174155,7298.0,3952.0,1416.0,0.755,0.238,-0.608,-0.063
2174173,7418.0,3294.0,1354.0,0.755,0.235,-0.608,-0.063
2174190,7346.0,3338.0,1158.0,0.755,0.234,-0.609,-0.062
2174207,7508.0,3848.0,1240.0,0.755,0.233,-0.61,-0.061
2174226,7604.0,3576.0,1456.0,0.755,0.233,-0.61,-0.059
2174244,7434.0,3628.0,1466.0,0.755,0.233,-0.61,-0.058
2174261,7360.0,3884.0,1114.0,0.754,0.234,-0.611,-0.056
2174279,7474.0,3672.0,1186.0,0.754,0.235,-0.611,-0.054
2174298,7376.0,3458.0,1114.0,0.753,0.236,-0.612,-0.051
2174316,7446.0,3120.0,1200.0,0.752,0.238,-0.613,-0.049
2174333,7474.0,3460.0,1030.0,0.751,0.24,-0.613,-0.046
2174350,7424.0,3236.0,888.0,0.751,0.242,-0.613,-0.044
2174367,7258.0,3388.0,966.0,0.75,0.244,-0.614,-0.042
2174385,7536.0,3128.0,986.0,0.749,0.247,-0.613,-0.04
2174403,7244.0,3572.0,934.0,0.748,0.25,-0.613,-0.037
2174420,7460.0,3180.0,948.0,0.748,0.252,-0.613,-0.035
2174438,7060.0,4124.0,940.0,0.747,0.254,-0.613,-0.033
2174456,7238.0,3308.0,972.0,0.747,0.257,-0.613,-0.031
2174475,7034.0,3766.0,784.0,0.746,0.258,-0.613,-0.029
2174494,6988.0,3720.0,866.0,0.745,0.26,-0.614,-0.028
2174512,7064.0,3648.0,812.0,0.744,0.26,-0.615,-0.026
2174530,7154.0,3666.0,802.0,0.743,0.261,-0.616,-0.026
2174548,7484.0,3306.0,632.0,0.742,0.26,-0.617,-0.025
2174566,7288.0,3570.0,688.0,0.741,0.26,-0.618,-0.025
2174583,7318.0,3418.0,696.0,0.74,0.26,-0.619,-0.024
2174601,7450.0,3640.0,604.0,0.74,0.26,-0.621,-0.024
2174619,7490.0,3808.0,678.0,0.739,0.259,-0.622,-0.024
2174627,7400.0,3812.0,778.0,0.738,0.258,-0.623,-0.024
2174646,7410.0,3638.0,820.0,0.737,0.256,-0.625,-0.024
2174664,7338.0,3464.0,654.0,0.736,0.254,-0.627,-0.024
2174682,7482.0,3546.0,662.0,0.736,0.252,-0.628,-0.025
2174700,7456.0,3692.0,566.0,0.735,0.25,-0.63,-0.026
2174718,7476.0,3474.0,576.0,0.735,0.248,-0.631,-0.027
2174736,7388.0,3112.0,610.0,0.734,0.245,-0.632,-0.029
2174755,7544.0,3046.0,588.0,0.733,0.244,-0.634,-0.03
2174774,7568.0,3394.0,540.0,0.733,0.242,-0.635,-0.032
2174793,7552.0,3502.0,584.0,0.732,0.24,-0.637,-0.033
2174812,7706.0,3250.0,450.0,0.731,0.238,-0.639,-0.035
2174820,7828.0,2974.0,402.0,0.73,0.236,-0.64,-0.036
2174839,7978.0,2846.0,428.0,0.729,0.234,-0.642,-0.038
2174857,8406.0,2770.0,502.0,0.729,0.233,-0.643,-0.038
2174876,8040.0,3458.0,600.0,0.728,0.232,-0.644,-0.039
2174894,7956.0,3168.0,638.0,0.728,0.231,-0.645,-0.04
2174913,7926.0,2786.0,762.0,0.727,0.23,-0.645,-0.04
2174930,7716.0,2914.0,872.0,0.727,0.23,-0.646,-0.041
2174948,7726.0,3246.0,740.0,0.726,0.23,-0.646,-0.041
2174966,7668.0,3382.0,622.0,0.726,0.229,-0.647,-0.041
2174984,7594.0,3296.0,650.0,0.726,0.228,-0.648,-0.041
2175002,7390.0,2800.0,736.0,0.726,0.226,-0.648,-0.04
2175019,7462.0,2536.0,754.0,0.726,0.225,-0.649,-0.039
2175038,7448.0,2684.0,570.0,0.725,0.225,-0.65,-0.038
2175057,7734.0,3024.0,654.0,0.725,0.225,-0.65,-0.037
2175065,7674.0,3084.0,658.0,0.725,0.225,-0.65,-0.035
2175083,7658.0,3240.0,692.0,0.725,0.225,-0.65,-0.034
2175100,7776.0,3262.0,650.0,0.725,0.224,-0.651,-0.033
2175118,8002.0,3090.0,566.0,0.725,0.224,-0.651,-0.032
2175137,7908.0,2902.0,512.0,0.725,0.224,-0.65,-0.031
2175154,7884.0,2692.0,524.0,0.726,0.224,-0.65,-0.029
2175171,7912.0,2744.0,354.0,0.726,0.224,-0.65,-0.028
2175188,7998.0,2910.0,426.0,0.726,0.225,-0.649,-0.026
2175205,7964.0,3060.0,314.0,0.726,0.225,-0.649,-0.025
2175223,7824.0,2416.0,186.0,0.727,0.225,-0.649,-0.024
2175241,7854.0,2768.0,138.0,0.727,0.226,-0.648,-0.022
2175264,7656.0,2864.0,212.0,0.727,0.226,-0.648,-0.021
2175282,7424.0,3006.0,334.0,0.727,0.226,-0.649,-0.019
2175299,7674.0,2948.0,286.0,0.726,0.226,-0.649,-0.018
2175317,7778.0,2798.0,96.0,0.726,0.225,-0.65,-0.016
2175335,7622.0,2804.0,216.0,0.726,0.224,-0.65,-0.015
2175354,7670.0,2540.0,222.0,0.726,0.223,-0.651,-0.014
2175362,7644.0,2264.0,338.0,0.726,0.222,-0.651,-0.014
2175380,7740.0,2148.0,132.0,0.726,0.223,-0.65,-0.012
2175399,7800.0,2600.0,134.0,0.726,0.224,-0.65,-0.011
2175417,7746.0,2914.0,58.0,0.727,0.225,-0.649,-0.009
2175435,7712.0,3012.0,-4.0,0.727,0.226,-0.648,-0.008
2175453,7752.0,2770.0,224.0,0.728,0.227,-0.647,-0.006
2175471,7820.0,2812.0,278.0,0.729,0.228,-0.646,-0.005
2175490,7776.0,2870.0,374.0,0.73,0.229,-0.645,-0.003
2175509,7544.0,2640.0,370.0,0.73,0.229,-0.644,-0.002
2175528,7668.0,2440.0,302.0,0.73,0.23,-0.643,-0.001
2175537,7628.0,2664.0,292.0,0.73,0.231,-0.643,0.0
2175555,7552.0,2854.0,304.0,0.73,0.231,-0.643,0.002
2175573,7494.0,2744.0,402.0,0.73,0.232,-0.643,0.003
2175591,7622.0,2812.0,308.0,0.729,0.233,-0.644,0.004
2175611,7588.0,2508.0,404.0,0.729,0.233,-0.644,0.006
2175629,7528.0,2628.0,508.0,0.728,0.234,-0.644,0.007
2175647,7500.0,2944.0,508.0,0.727,0.235,-0.645,0.009
2175665,7558.0,3084.0,454.0,0.726,0.235,-0.646,0.01
2175682,7612.0,3016.0,432.0,0.725,0.235,-0.647,0.011
2175699,7510.0,2920.0,564.0,0.724,0.235,-0.648,0.013
2175716,7526.0,3114.0,558.0,0.723,0.236,-0.649,0.014
2175733,7564.0,3030.0,718.0,0.722,0.236,-0.65,0.015
2175750,7784.0,2748.0,962.0,0.721,0.235,-0.651,0.016
2175768,7860.0,3286.0,880.0,0.721,0.236,-0.652,0.017
2175786,7856.0,3268.0,954.0,0.72,0.236,-0.652,0.018
2175804,7808.0,3054.0,928.0,0.72,0.236,-0.652,0.019
2175822,7790.0,3176.0,868.0,0.72,0.236,-0.652,0.02
2175841,7670.0,3010.0,652.0,0.72,0.235,-0.652,0.02
2175860,7658.0,2822.0,574.0,0.721,0.234,-0.652,0.02
2175869,7734.0,2780.0,360.0,0.721,0.234,-0.652,0.02
2175887,7626.0,2726.0,332.0,0.721,0.234,-0.652,0.02
2175906,7520.0,3116.0,148.0,0.721,0.233,-0.652,0.02
2175924,7546.0,2876.0,320.0,0.721,0.233,-0.652,0.02
2175943,7720.0,2768.0,314.0,0.721,0.233,-0.652,0.02
2175961,7664.0,2818.0,310.0,0.721,0.233,-0.652,0.02
2175980,7782.0,2518.0,562.0,0.721,0.233,-0.652,0.019
2175998,7820.0,2412.0,226.0,0.721,0.234,-0.652,0.02
2176015,7796.0,2658.0,180.0,0.72,0.235,-0.652,0.02
2176032,7798.0,2974.0,322.0,0.72,0.236,-0.652,0.02
2176050,7728.0,2890.0,432.0,0.72,0.236,-0.653,0.02
2176067,7694.0,2820.0,344.0,0.719,0.236,-0.653,0.019
2176085,7714.0,2628.0,390.0,0.719,0.235,-0.654,0.019
2176103,7642.0,2538.0,344.0,0.718,0.235,-0.655,0.019
2176121,7756.0,2488.0,326.0,0.717,0.235,-0.656,0.018
2176140,7852.0,2710.0,174.0,0.716,0.236,-0.657,0.019
2176149,7598.0,2856.0,280.0,0.715,0.236,-0.657,0.019
2176166,7596.0,2854.0,412.0,0.714,0.236,-0.658,0.02
2176183,7386.0,2840.0,418.0,0.713,0.237,-0.659,0.02
2176201,7260.0,2956.0,426.0,0.712,0.237,-0.661,0.021
2176219,7090.0,2964.0,336.0,0.71,0.237,-0.662,0.021
2176237,6882.0,2548.0,324.0,0.709,0.237,-0.664,0.022
2176255,7088.0,2398.0,272.0,0.707,0.237,-0.666,0.023
2176273,7342.0,2830.0,88.0,0.705,0.238,-0.667,0.025
2176292,7532.0,3472.0,-94.0,0.704,0.239,-0.669,0.027
2176310,7812.0,3394.0,78.0,0.703,0.238,-0.67,0.03
2176328,7792.0,3118.0,230.0,0.702,0.237,-0.671,0.032
2176347,7890.0,2720.0,198.0,0.701,0.237,-0.672,0.035
2176365,7908.0,2710.0,188.0,0.699,0.237,-0.673,0.038
2176383,7906.0,2688.0,264.0,0.698,0.237,-0.675,0.042
2176400,7910.0,2864.0,130.0,0.696,0.238,-0.676,0.044
2176418,8186.0,3024.0,-166.0,0.694,0.239,-0.677,0.047
2176435,8060.0,2890.0,-54.0,0.693,0.24,-0.678,0.049
2176453,7984.0,2534.0,118.0,0.691,0.242,-0.679,0.051
2176472,7818.0,2482.0,2.0,0.689,0.244,-0.68,0.052
2176480,7900.0,2492.0,-172.0,0.687,0.246,-0.681,0.053
2176497,7690.0,2476.0,-306.0,0.685,0.249,-0.682,0.053
2176515,7618.0,2346.0,-296.0,0.684,0.252,-0.683,0.054
2176532,7558.0,2334.0,-358.0,0.682,0.255,-0.683,0.054
2176549,7350.0,2472.0,-450.0,0.681,0.258,-0.684,0.055
2176566,7290.0,2236.0,-440.0,0.679,0.261,-0.684,0.055
2176583,7202.0,2090.0,-490.0,0.678,0.264,-0.683,0.056
2176600,7346.0,2300.0,-510.0,0.677,0.267,-0.683,0.058
2176618,7470.0,2338.0,-590.0,0.677,0.27,-0.682,0.06
2176636,7510.0,2400.0,-532.0,0.676,0.273,-0.682,0.062
2176654,7824.0,2238.0,-686.0,0.675,0.276,-0.681,0.065
2176672,7726.0,1506.0,-746.0,0.675,0.278,-0.68,0.069
2176690,8042.0,1076.0,-904.0,0.674,0.28,-0.679,0.073
2176709,8046.0,1374.0,-1144.0,0.674,0.284,-0.678,0.077
2176727,8518.0,1792.0,-772.0,0.674,0.287,-0.676,0.082
2176745,8420.0,2330.0,-924.0,0.673,0.291,-0.674,0.086
2176763,8212.0,1852.0,-514.0,0.673,0.294,-0.673,0.089
2176781,8366.0,1744.0,-670.0,0.673,0.297,-0.671,0.092
2176799,8446.0,1524.0,-1008.0,0.672,0.301,-0.67,0.095
2176817,8268.0,1762.0,-938.0,0.671,0.305,-0.668,0.098
2176835,7912.0,1742.0,-828.0,0.671,0.309,-0.667,0.1
2176853,7868.0,1808.0,-894.0,0.67,0.313,-0.666,0.101
2176871,7708.0,2024.0,-858.0,0.669,0.318,-0.665,0.103
2176889,7420.0,1696.0,-732.0,0.667,0.322,-0.664,0.104
2176907,7276.0,1886.0,-962.0,0.666,0.326,-0.663,0.105
2176927,7272.0,1778.0,-1086.0,0.664,0.33,-0.663,0.105
2176935,7436.0,1724.0,-1116.0,0.662,0.333,-0.662,0.106
2176954,7480.0,1650.0,-1034.0,0.661,0.337,-0.662,0.107
2176972,7446.0,1614.0,-1034.0,0.659,0.341,-0.662,0.109
2176989,7514.0,1932.0,-1204.0,0.657,0.345,-0.661,0.11
2177008,7656.0,1884.0,-1312.0,0.655,0.348,-0.661,0.112
2177027,7480.0,1636.0,-1222.0,0.654,0.351,-0.66,0.114
2177045,7510.0,1532.0,-1150.0,0.652,0.354,-0.66,0.116
2177064,7386.0,1892.0,-1118.0,0.651,0.357,-0.659,0.119
2177082,7140.0,2186.0,-996.0,0.649,0.36,-0.659,0.121
2177099,7000.0,1616.0,-1016.0,0.648,0.362,-0.659,0.122
2177117,7062.0,1678.0,-922.0,0.646,0.365,-0.66,0.123
2177135,7126.0,1850.0,-1016.0,0.643,0.367,-0.66,0.124
2177153,7408.0,1660.0,-1146.0,0.641,0.369,-0.661,0.125
2177161,7278.0,1622.0,-990.0,0.638,0.371,-0.662,0.126
2177180,7514.0,1558.0,-1196.0,0.636,0.374,-0.663,0.127
2177197,7798.0,1624.0,-1488.0,0.634,0.376,-0.664,0.128
2177214,7864.0,1646.0,-1446.0,0.631,0.379,-0.664,0.13
2177232,8074.0,2018.0,-1438.0,0.629,0.382,-0.664,0.132
2177249,8226.0,2256.0,-1430.0,0.627,0.385,-0.663,0.134
2177267,8270.0,2184.0,-1558.0,0.626,0.388,-0.663,0.137
2177286,8530.0,1828.0,-1546.0,0.625,0.39,-0.662,0.14
2177305,8644.0,2250.0,-1526.0,0.624,0.392,-0.661,0.143
2177324,8676.0,2688.0,-1604.0,0.623,0.394,-0.66,0.147
2177342,8592.0,2244.0,-1516.0,0.622,0.395,-0.659,0.15
2177360,8530.0,1994.0,-1410.0,0.621,0.396,-0.659,0.154
2177378,8416.0,2352.0,-1510.0,0.621,0.397,-0.658,0.157
2177397,8430.0,2308.0,-1492.0,0.62,0.398,-0.657,0.16
2177415,8252.0,2336.0,-1476.0,0.619,0.399,-0.657,0.163
2177424,8410.0,2426.0,-1516.0,0.617,0.4,-0.657,0.166
2177442,8418.0,2418.0,-1628.0,0.616,0.4,-0.657,0.168
2177461,8554.0,2422.0,-1662.0,0.615,0.4,-0.658,0.17
2177480,8416.0,2334.0,-1594.0,0.613,0.4,-0.659,0.172
2177498,8382.0,2296.0,-1700.0,0.612,0.399,-0.66,0.174
2177516,8330.0,2256.0,-1798.0,0.611,0.399,-0.661,0.177
2177533,8154.0,2168.0,-1706.0,0.609,0.398,-0.662,0.179
2177551,8020.0,2222.0,-1656.0,0.608,0.397,-0.663,0.182
2177569,7968.0,2456.0,-1664.0,0.607,0.396,-0.664,0.185
2177588,7968.0,2118.0,-1702.0,0.606,0.394,-0.665,0.188
2177606,8026.0,2158.0,-1856.0,0.605,0.393,-0.666,0.191
2177625,7984.0,2166.0,-1788.0,0.604,0.392,-0.666,0.194
2177638,7872.0,2016.0,-1598.0,0.604,0.391,-0.666,0.197
2177657,7600.0,2260.0,-1514.0,0.603,0.39,-0.666,0.2
2177677,7728.0,2218.0,-1504.0,0.603,0.389,-0.667,0.202
2177686,7818.0,1998.0,-1516.0,0.603,0.387,-0.667,0.204
2177704,7730.0,2140.0,-1430.0,0.602,0.386,-0.668,0.206
2177722,7736.0,1996.0,-1384.0,0.602,0.384,-0.669,0.209
2177741,8082.0,1684.0,-1562.0,0.601,0.382,-0.669,0.211
2177758,8108.0,1696.0,-1628.0,0.601,0.38,-0.67,0.214
2177776,8012.0,1578.0,-1380.0,0.601,0.379,-0.67,0.216
2177795,8124.0,2000.0,-1260.0,0.6,0.378,-0.67,0.218
2177813,8252.0,1770.0,-1398.0,0.6,0.376,-0.671,0.22
2177832,8074.0,1632.0,-1326.0,0.599,0.375,-0.672,0.221
2177850,8220.0,1724.0,-1516.0,0.599,0.374,-0.672,0.222
2177868,8098.0,1358.0,-1410.0,0.599,0.373,-0.672,0.224
2177887,7942.0,1428.0,-1314.0,0.599,0.372,-0.672,0.225
2177896,7936.0,1702.0,-1230.0,0.599,0.372,-0.672,0.227
2177914,7826.0,1784.0,-1312.0,0.599,0.371,-0.672,0.227
2177933,7990.0,1626.0,-1370.0,0.599,0.37,-0.673,0.228
2177951,7990.0,1522.0,-1362.0,0.599,0.369,-0.673,0.228
2177969,8106.0,1666.0,-1370.0,0.599,0.369,-0.673,0.229
2177987,8074.0,1708.0,-1304.0,0.6,0.368,-0.673,0.229
2178005,8368.0,1380.0,-1350.0,0.601,0.367,-0.672,0.229
2178024,8220.0,1536.0,-1414.0,0.602,0.366,-0.672,0.229
2178042,8336.0,1412.0,-1452.0,0.603,0.365,-0.671,0.229
2178060,8278.0,1432.0,-1450.0,0.605,0.365,-0.67,0.229
2178078,8246.0,1390.0,-1392.0,0.606,0.365,-0.668,0.229
2178098,8254.0,1514.0,-1330.0,0.608,0.365,-0.667,0.229
2178108,8340.0,1538.0,-1324.0,0.61,0.365,-0.665,0.229
2178126,8462.0,1350.0,-1418.0,0.612,0.365,-0.664,0.228
2178144,8540.0,1302.0,-1396.0,0.613,0.365,-0.662,0.227
2178163,8388.0,1398.0,-1302.0,0.615,0.366,-0.66,0.227
2178182,8470.0,1498.0,-1338.0,0.617,0.367,-0.659,0.226
2178199,8564.0,1382.0,-1352.0,0.618,0.368,-0.657,0.225
2178217,8444.0,1340.0,-1228.0,0.619,0.369,-0.656,0.224
2178234,8562.0,1350.0,-1274.0,0.62,0.37,-0.655,0.222
2178252,8558.0,1380.0,-1402.0,0.621,0.371,-0.654,0.221
2178270,8626.0,1448.0,-1362.0,0.622,0.372,-0.653,0.219
2178288,8712.0,1428.0,-1470.0,0.623,0.374,-0.652,0.217
2178306,8614.0,1174.0,-1320.0,0.624,0.375,-0.651,0.215
2178325,8356.0,1026.0,-1230.0,0.624,0.376,-0.651,0.213
2178335,8246.0,1142.0,-1302.0,0.625,0.378,-0.65,0.211
2178353,8066.0,1226.0,-1256.0,0.625,0.379,-0.65,0.209
2178371,7996.0,1368.0,-1330.0,0.625,0.381,-0.65,0.207
2178389,7898.0,1392.0,-1290.0,0.624,0.382,-0.65,0.205
2178407,7876.0,1182.0,-1304.0,0.624,0.383,-0.65,0.203
2178426,7952.0,1212.0,-1336.0,0.624,0.384,-0.651,0.201
2178444,8118.0,1232.0,-1478.0,0.623,0.384,-0.651,0.199
2178462,8046.0,1214.0,-1484.0,0.623,0.384,-0.652,0.198
2178480,7906.0,1132.0,-1344.0,0.623,0.385,-0.652,0.198
2178499,8082.0,1162.0,-1436.0,0.623,0.385,-0.652,0.198
2178507,7940.0,1218.0,-1280.0,0.623,0.385,-0.652,0.199
2178526,7854.0,1306.0,-1252.0,0.622,0.385,-0.652,0.2
2178544,7722.0,1332.0,-1236.0,0.622,0.384,-0.652,0.2
2178563,7756.0,1486.0,-1174.0,0.622,0.384,-0.652,0.201
2178581,7656.0,1422.0,-1114.0,0.621,0.383,-0.653,0.202
2178599,7690.0,1412.0,-1196.0,0.621,0.382,-0.654,0.203
2178617,7764.0,1284.0,-1270.0,0.62,0.381,-0.655,0.204
2178634,7854.0,1496.0,-1240.0,0.619,0.38,-0.656,0.205
2178652,7860.0,1268.0,-1184.0,0.619,0.379,-0.657,0.206
2178670,7880.0,1222.0,-1258.0,0.618,0.378,-0.658,0.207
2178688,7972.0,1286.0,-1346.0,0.617,0.377,-0.659,0.208
2178706,7990.0,1372.0,-1254.0,0.617,0.376,-0.659,0.209
2178724,7988.0,1346.0,-1254.0,0.616,0.375,-0.66,0.211
2178743,8124.0,1392.0,-1296.0,0.616,0.374,-0.661,0.212
2178752,8110.0,1386.0,-1218.0,0.615,0.373,-0.661,0.214
2178769,8200.0,1352.0,-1242.0,0.615,0.371,-0.662,0.215
2178786,8192.0,1388.0,-1176.0,0.614,0.37,-0.662,0.217
2178804,8222.0,1384.0,-1266.0,0.613,0.37,-0.663,0.218
2178822,8230.0,1372.0,-1164.0,0.613,0.369,-0.664,0.219
2178840,8230.0,1482.0,-1154.0,0.612,0.368,-0.664,0.22
2178858,8180.0,1372.0,-1134.0,0.612,0.368,-0.665,0.221
2178876,8206.0,1362.0,-1158.0,0.611,0.367,-0.665,0.221
2178894,8192.0,1388.0,-1184.0,0.611,0.367,-0.666,0.221
2178913,8254.0,1414.0,-1242.0,0.61,0.367,-0.666,0.221
2178931,8270.0,1444.0,-1226.0,0.61,0.368,-0.667,0.221
2178949,8212.0,1298.0,-1154.0,0.609,0.368,-0.667,0.221
2178966,8186.0,1368.0,-1230.0,0.609,0.368,-0.667,0.221
2178983,8128.0,1478.0,-1212.0,0.609,0.369,-0.667,0.221
2179001,8074.0,1502.0,-1222.0,0.609,0.369,-0.666,0.221
2179020,7960.0,1446.0,-1136.0,0.609,0.369,-0.666,0.221
2179038,7842.0,1474.0,-1092.0,0.609,0.369,-0.666,0.221
2179056,7816.0,1608.0,-968.0,0.609,0.369,-0.666,0.221
2179075,7870.0,1670.0,-988.0,0.609,0.369,-0.666,0.221
2179093,7976.0,1498.0,-1092.0,0.609,0.369,-0.667,0.22
2179102,7956.0,1480.0,-1072.0,0.609,0.368,-0.667,0.22
2179119,8148.0,1396.0,-1254.0,0.609,0.368,-0.668,0.219
2179137,8078.0,1362.0,-1300.0,0.609,0.368,-0.668,0.219
2179155,8096.0,1520.0,-1314.0,0.608,0.368,-0.669,0.218
2179172,8100.0,1550.0,-1374.0,0.609,0.368,-0.668,0.218
2179188,8142.0,1542.0,-1350.0,0.609,0.368,-0.668,0.218
2179205,8164.0,1484.0,-1488.0,0.609,0.368,-0.668,0.217
2179222,7898.0,1568.0,-1294.0,0.61,0.368,-0.667,0.217
2179240,7890.0,1460.0,-1242.0,0.61,0.369,-0.667,0.217
2179257,7832.0,1550.0,-1252.0,0.61,0.369,-0.667,0.217
2179276,7936.0,1412.0,-1376.0,0.611,0.369,-0.666,0.217
2179294,7918.0,1522.0,-1308.0,0.612,0.369,-0.666,0.217
2179313,7784.0,1420.0,-1218.0,0.613,0.369,-0.665,0.216
2179331,7870.0,1450.0,-1166.0,0.613,0.369,-0.664,0.216
2179349,7848.0,1532.0,-1276.0,0.614,0.369,-0.664,0.216
2179367,7910.0,1546.0,-1288.0,0.615,0.368,-0.663,0.215
2179385,7944.0,1506.0,-1260.0,0.616,0.368,-0.663,0.214
2179403,7898.0,1502.0,-1246.0,0.616,0.368,-0.663,0.214
2179421,8060.0,1530.0,-1278.0,0.617,0.367,-0.663,0.213
2179440,8174.0,1520.0,-1346.0,0.618,0.367,-0.663,0.212
2179458,8108.0,1382.0,-1270.0,0.618,0.366,-0.663,0.211
2179476,8098.0,1336.0,-1256.0,0.619,0.366,-0.662,0.21
2179494,8100.0,1308.0,-1212.0,0.619,0.366,-0.662,0.209
2179512,8010.0,1400.0,-1278.0,0.62,0.366,-0.662,0.208
2179521,7950.0,1344.0,-1324.0,0.62,0.366,-0.662,0.207
2179538,8012.0,1596.0,-1070.0,0.621,0.365,-0.662,0.206
2179557,8034.0,1762.0,-1186.0,0.621,0.365,-0.662,0.205
2179575,7904.0,1700.0,-1144.0,0.622,0.364,-0.663,0.204
2179593,7872.0,1482.0,-1134.0,0.622,0.363,-0.663,0.203
2179611,7858.0,1560.0,-1114.0,0.623,0.363,-0.663,0.201
2179629,7938.0,1588.0,-1262.0,0.623,0.363,-0.663,0.2
2179647,7968.0,1556.0,-1232.0,0.624,0.363,-0.664,0.198
2179666,8028.0,1606.0,-1206.0,0.624,0.363,-0.664,0.196
2179684,7920.0,1720.0,-1204.0,0.625,0.363,-0.663,0.194
2179701,8006.0,1646.0,-1234.0,0.625,0.363,-0.663,0.193
2179719,8016.0,1784.0,-1324.0,0.626,0.363,-0.664,0.191
2179737,7908.0,1632.0,-1228.0,0.626,0.362,-0.664,0.19
2179755,7974.0,1542.0,-1144.0,0.627,0.362,-0.664,0.189
2179774,8068.0,1544.0,-1202.0,0.627,0.361,-0.664,0.188
2179793,8062.0,1456.0,-1242.0,0.628,0.361,-0.664,0.188
2179803,7974.0,1498.0,-1168.0,0.628,0.361,-0.663,0.187
2179821,8038.0,1590.0,-1116.0,0.629,0.361,-0.663,0.187
2179839,8124.0,1574.0,-1168.0,0.629,0.361,-0.663,0.186
2179859,8214.0,1588.0,-1210.0,0.629,0.361,-0.663,0.186
2179878,8348.0,1400.0,-1160.0,0.63,0.361,-0.663,0.185
2179897,8684.0,1662.0,-1148.0,0.63,0.361,-0.663,0.184
2179906,8906.0,1544.0,-1116.0,0.63,0.361,-0.663,0.184
2179924,9012.0,1788.0,-1048.0,0.63,0.362,-0.663,0.183
2179943,8922.0,1938.0,-1054.0,0.63,0.361,-0.663,0.182
2179962,9254.0,1594.0,-1088.0,0.63,0.361,-0.664,0.18
2179980,9626.0,1608.0,-1040.0,0.63,0.361,-0.664,0.178
2179998,9928.0,1534.0,-1234.0,0.63,0.361,-0.664,0.177
2180016,10130.0,1486.0,-1344.0,0.63,0.363,-0.663,0.175
2180034,9980.0,1546.0,-1044.0,0.631,0.365,-0.662,0.174
2180052,10140.0,1382.0,-1008.0,0.632,0.367,-0.661,0.171
2180070,10230.0,1876.0,-1166.0,0.632,0.371,-0.659,0.168
2180087,10010.0,1972.0,-1260.0,0.633,0.375,-0.657,0.165
2180105,9912.0,2116.0,-1280.0,0.633,0.38,-0.655,0.16
2180123,9796.0,2132.0,-1170.0,0.634,0.385,-0.653,0.155
2180141,9768.0,2156.0,-1250.0,0.634,0.391,-0.65,0.149
2180151,10050.0,2406.0,-1600.0,0.635,0.397,-0.647,0.142
2180169,10140.0,2926.0,-1696.0,0.636,0.404,-0.643,0.135
2180187,10300.0,2956.0,-1694.0,0.638,0.411,-0.639,0.127
2180205,10388.0,2248.0,-1792.0,0.64,0.418,-0.634,0.119
2180224,10732.0,2926.0,-2136.0,0.641,0.426,-0.628,0.111
2180244,10598.0,3206.0,-2032.0,0.644,0.435,-0.621,0.104
2180263,10348.0,3512.0,-1762.0,0.646,0.445,-0.613,0.097
2180281,9754.0,4104.0,-1776.0,0.648,0.454,-0.605,0.09
2180299,9302.0,3716.0,-1760.0,0.65,0.463,-0.597,0.083
2180307,8698.0,4342.0,-1742.0,0.651,0.471,-0.59,0.078
2180325,7938.0,4210.0,-2164.0,0.652,0.48,-0.582,0.073
2180343,7252.0,4668.0,-1494.0,0.653,0.487,-0.576,0.069
2180361,6330.0,3842.0,-1284.0,0.653,0.494,-0.571,0.065
2180380,5892.0,3458.0,-1484.0,0.652,0.501,-0.566,0.063
2180398,4988.0,3498.0,-1224.0,0.649,0.509,-0.562,0.062
2180417,4736.0,4580.0,-1338.0,0.646,0.516,-0.559,0.061
2180435,4586.0,4760.0,-1604.0,0.643,0.522,-0.557,0.062
2180453,4758.0,4714.0,-1658.0,0.64,0.526,-0.557,0.062
2180471,5284.0,4538.0,-1724.0,0.637,0.529,-0.557,0.065
2180489,4922.0,4956.0,-1846.0,0.634,0.532,-0.557,0.068
2180508,5222.0,4476.0,-1312.0,0.632,0.534,-0.557,0.071
2180527,4998.0,4634.0,-1252.0,0.629,0.536,-0.558,0.075
2180536,4558.0,4264.0,-1114.0,0.627,0.538,-0.558,0.078
2180555,4794.0,5048.0,-1464.0,0.623,0.541,-0.558,0.082
2180574,4208.0,4726.0,-1472.0,0.621,0.544,-0.558,0.086
2180593,3908.0,5416.0,-1556.0,0.618,0.546,-0.558,0.091
2180612,2860.0,4650.0,-818.0,0.617,0.546,-0.558,0.094
2180629,2902.0,3624.0,-1010.0,0.615,0.548,-0.559,0.097
2180648,2764.0,3566.0,-1142.0,0.614,0.549,-0.558,0.1
2180656,2050.0,3362.0,-644.0,0.611,0.552,-0.558,0.103
2180673,1780.0,3906.0,-560.0,0.609,0.554,-0.557,0.105
2180693,1550.0,3356.0,-302.0,0.608,0.556,-0.558,0.104
2180712,1720.0,1958.0,-502.0,0.606,0.557,-0.558,0.104
2180731,2104.0,2496.0,-794.0,0.604,0.56,-0.558,0.103
2180749,2280.0,3366.0,-830.0,0.603,0.562,-0.557,0.102
2180766,2702.0,2802.0,-1140.0,0.603,0.563,-0.557,0.099
2180784,3280.0,2512.0,-1122.0,0.603,0.565,-0.555,0.098
2180802,3206.0,2598.0,-1120.0,0.603,0.567,-0.553,0.097
2180820,3544.0,3704.0,-1430.0,0.604,0.569,-0.551,0.096
2180837,4610.0,5412.0,-1974.0,0.605,0.57,-0.548,0.095
2180855,4332.0,3928.0,-1434.0,0.607,0.569,-0.546,0.093
2180873,4410.0,1902.0,-1290.0,0.608,0.57,-0.545,0.092
2180892,5092.0,1682.0,-1698.0,0.607,0.574,-0.543,0.091
2180911,5896.0,7342.0,-3376.0,0.606,0.577,-0.54,0.091
2180920,6010.0,6850.0,-2630.0,0.608,0.576,-0.539,0.092
2180939,4148.0,2076.0,-568.0,0.609,0.574,-0.54,0.092
2180957,6958.0,1210.0,-2056.0,0.607,0.576,-0.539,0.092
2180976,7526.0,8820.0,-4350.0,0.606,0.578,-0.538,0.094
2180994,6396.0,6992.0,-2454.0,0.609,0.574,-0.54,0.095
2181013,5942.0,1680.0,-1228.0,0.609,0.57,-0.543,0.096
2181031,6296.0,2528.0,-2284.0,0.606,0.571,-0.545,0.097
2181049,8126.0,7860.0,-3702.0,0.605,0.571,-0.546,0.098
2181066,7298.0,5644.0,-2950.0,0.607,0.566,-0.549,0.1
2181084,6390.0,2858.0,-1474.0,0.605,0.563,-0.553,0.104
2181102,6406.0,3516.0,-1928.0,0.602,0.562,-0.557,0.108
2181120,7846.0,6460.0,-3188.0,0.599,0.561,-0.561,0.11
2181129,7398.0,5326.0,-2704.0,0.6,0.555,-0.565,0.11
2181146,8498.0,5286.0,-2820.0,0.599,0.55,-0.57,0.115
2181165,6820.0,2704.0,-1666.0,0.598,0.546,-0.574,0.12
2181183,7764.0,3300.0,-2576.0,0.597,0.543,-0.578,0.124
2181204,8134.0,5026.0,-2820.0,0.596,0.54,-0.581,0.127
2181221,8212.0,6134.0,-2482.0,0.596,0.535,-0.584,0.132
2181238,8152.0,4540.0,-2550.0,0.597,0.528,-0.588,0.138
2181254,7688.0,2466.0,-1970.0,0.597,0.523,-0.591,0.144
2181271,7254.0,3204.0,-1762.0,0.598,0.519,-0.593,0.148
2181289,8644.0,4418.0,-2142.0,0.598,0.516,-0.595,0.151
2181307,8840.0,4712.0,-2866.0,0.598,0.511,-0.597,0.157
2181326,8914.0,3960.0,-2416.0,0.599,0.506,-0.599,0.164
2181346,8204.0,2734.0,-1392.0,0.599,0.5,-0.601,0.171
2181364,7702.0,3164.0,-1350.0,0.599,0.496,-0.603,0.177
2181382,8618.0,3716.0,-1714.0,0.599,0.492,-0.605,0.182
2181390,9032.0,4360.0,-1824.0,0.598,0.487,-0.608,0.187
2181408,10066.0,3900.0,-2062.0,0.598,0.482,-0.611,0.192
2181427,9894.0,2894.0,-1524.0,0.598,0.477,-0.613,0.196
2181445,10482.0,3546.0,-1586.0,0.598,0.472,-0.615,0.199
2181463,11036.0,2374.0,-1766.0,0.599,0.469,-0.617,0.201
2181481,11758.0,3322.0,-2054.0,0.598,0.468,-0.618,0.203
2181500,11914.0,3402.0,-1628.0,0.598,0.468,-0.618,0.204
2181518,11316.0,3246.0,-1300.0,0.598,0.469,-0.618,0.202
2181535,10822.0,3214.0,-1198.0,0.597,0.472,-0.617,0.199
2181554,10704.0,3900.0,-1404.0,0.596,0.475,-0.617,0.195
2181572,10878.0,3768.0,-1738.0,0.595,0.478,-0.618,0.189
2181591,10590.0,3690.0,-1884.0,0.595,0.481,-0.618,0.183
2181611,10100.0,3444.0,-1900.0,0.595,0.485,-0.617,0.176
2181620,9812.0,3682.0,-1838.0,0.594,0.489,-0.616,0.169
2181639,9592.0,3700.0,-2026.0,0.594,0.494,-0.614,0.162
2181657,9108.0,3724.0,-2100.0,0.595,0.499,-0.611,0.154
2181676,8948.0,4456.0,-1988.0,0.595,0.505,-0.608,0.146
2181695,9028.0,4270.0,-2154.0,0.595,0.511,-0.605,0.138
2181715,8738.0,4278.0,-2372.0,0.596,0.516,-0.601,0.13
2181723,8714.0,4002.0,-2320.0,0.597,0.522,-0.597,0.122
2181741,8346.0,4450.0,-2176.0,0.598,0.528,-0.592,0.114
2181760,7998.0,5134.0,-2052.0,0.6,0.534,-0.586,0.107
2181779,7648.0,4536.0,-2116.0,0.603,0.538,-0.581,0.098
2181798,7326.0,3848.0,-2208.0,0.605,0.542,-0.576,0.091
2181816,7172.0,4166.0,-2256.0,0.607,0.546,-0.571,0.085
2181833,6648.0,4010.0,-2148.0,0.609,0.55,-0.566,0.08
2181851,6480.0,3848.0,-2054.0,0.611,0.553,-0.561,0.076
2181868,6076.0,4130.0,-1894.0,0.613,0.557,-0.556,0.072
2181886,5538.0,3148.0,-1876.0,0.615,0.56,-0.551,0.07
2181904,5704.0,3842.0,-2166.0,0.616,0.563,-0.547,0.068
2181923,5056.0,3922.0,-1760.0,0.618,0.565,-0.543,0.066
2181942,5026.0,4720.0,-2016.0,0.619,0.567,-0.539,0.066
2181952,4770.0,4160.0,-2062.0,0.622,0.567,-0.536,0.066
2181969,4934.0,3272.0,-2114.0,0.625,0.566,-0.533,0.067
2181987,4636.0,3732.0,-1844.0,0.627,0.566,-0.53,0.069
2182005,4942.0,5118.0,-2132.0,0.629,0.566,-0.527,0.073
2182025,5232.0,4894.0,-2184.0,0.632,0.565,-0.525,0.076
2182045,3912.0,3790.0,-1296.0,0.634,0.564,-0.523,0.079
2182063,3220.0,3202.0,-1228.0,0.635,0.564,-0.521,0.082
2182082,2626.0,3586.0,-1266.0,0.635,0.564,-0.52,0.084
2182089,1984.0,2994.0,-1114.0,0.635,0.565,-0.521,0.086
2182108,1702.0,3848.0,-1058.0,0.633,0.565,-0.522,0.087
2182127,1350.0,3254.0,-708.0,0.632,0.564,-0.524,0.088
2182146,1486.0,2764.0,-584.0,0.63,0.563,-0.527,0.089
2182163,1798.0,2402.0,-842.0,0.628,0.563,-0.53,0.09
2182180,2086.0,3198.0,-1082.0,0.625,0.563,-0.533,0.092
2182198,2598.0,4034.0,-964.0,0.623,0.562,-0.536,0.094
2182216,2696.0,3716.0,-904.0,0.623,0.56,-0.538,0.095
2182233,3166.0,3786.0,-912.0,0.622,0.559,-0.54,0.096
2182250,4066.0,4900.0,-1386.0,0.622,0.557,-0.542,0.096
2182269,3970.0,2848.0,-1144.0,0.621,0.556,-0.543,0.097
2182287,4478.0,5376.0,-1426.0,0.62,0.557,-0.544,0.097
2182305,4960.0,5620.0,-1652.0,0.62,0.556,-0.546,0.095
2182324,5582.0,4454.0,-1978.0,0.619,0.556,-0.547,0.095
2182345,5952.0,4220.0,-1868.0,0.617,0.556,-0.548,0.095
2182355,6186.0,7000.0,-2050.0,0.617,0.556,-0.549,0.094
2182373,5916.0,4764.0,-2116.0,0.617,0.554,-0.552,0.093
2182391,5942.0,4024.0,-1954.0,0.616,0.552,-0.554,0.093
2182409,7070.0,3986.0,-2746.0,0.614,0.553,-0.555,0.094
2182427,6664.0,6930.0,-2958.0,0.614,0.552,-0.556,0.095
2182446,6244.0,6544.0,-1920.0,0.615,0.549,-0.558,0.093
2182465,5930.0,3162.0,-1546.0,0.616,0.546,-0.561,0.092
2182483,6780.0,4110.0,-2326.0,0.614,0.545,-0.563,0.092
2182491,6944.0,5504.0,-2600.0,0.612,0.545,-0.566,0.093
2182509,6752.0,5840.0,-2306.0,0.612,0.543,-0.568,0.093
2182528,6714.0,5676.0,-1838.0,0.612,0.539,-0.572,0.091
2182547,7792.0,3508.0,-2382.0,0.611,0.535,-0.576,0.091
2182565,7194.0,4258.0,-2574.0,0.611,0.533,-0.579,0.092
2182584,7088.0,3922.0,-2324.0,0.61,0.531,-0.581,0.093
2182602,6494.0,4166.0,-1918.0,0.609,0.529,-0.584,0.094
2182620,7660.0,6092.0,-2390.0,0.608,0.527,-0.586,0.095
2182638,7340.0,5114.0,-2006.0,0.609,0.522,-0.59,0.096
2182658,7366.0,3522.0,-1938.0,0.609,0.517,-0.594,0.096
2182667,7104.0,2724.0,-2034.0,0.608,0.514,-0.597,0.097
2182685,7862.0,5302.0,-2404.0,0.607,0.512,-0.6,0.099
2182703,7762.0,5434.0,-2066.0,0.608,0.508,-0.602,0.099
2182721,8194.0,4640.0,-1944.0,0.609,0.503,-0.606,0.099
2182740,8050.0,3332.0,-2012.0,0.61,0.497,-0.609,0.099
2182757,7948.0,3278.0,-1940.0,0.61,0.493,-0.612,0.101
2182776,8234.0,3790.0,-2024.0,0.611,0.49,-0.614,0.102
2182794,8312.0,4200.0,-1856.0,0.611,0.487,-0.615,0.104
2182812,8596.0,4322.0,-1844.0,0.612,0.483,-0.617,0.106
2182831,8488.0,3808.0,-1766.0,0.614,0.478,-0.619,0.108
2182850,8538.0,3176.0,-1522.0,0.615,0.472,-0.622,0.112
2182858,8368.0,3692.0,-1488.0,0.615,0.468,-0.624,0.115
2182877,9828.0,4330.0,-1796.0,0.616,0.462,-0.627,0.119
2182895,10688.0,4806.0,-2096.0,0.618,0.455,-0.629,0.123
2182913,11228.0,3290.0,-1646.0,0.62,0.448,-0.632,0.126
2182931,11930.0,3182.0,-1744.0,0.622,0.443,-0.633,0.128
2182949,12428.0,3162.0,-1382.0,0.623,0.441,-0.633,0.128
2182967,12218.0,3688.0,-1290.0,0.625,0.441,-0.632,0.127
2182984,12018.0,3468.0,-1382.0,0.625,0.443,-0.63,0.123
2183001,11728.0,3950.0,-1392.0,0.626,0.448,-0.628,0.119
2183019,11168.0,4754.0,-1304.0,0.626,0.452,-0.626,0.113
2183037,10872.0,4754.0,-1362.0,0.626,0.456,-0.624,0.105
2183055,10218.0,3912.0,-1560.0,0.626,0.459,-0.622,0.097
2183072,10222.0,4180.0,-1890.0,0.627,0.463,-0.62,0.089
2183089,9802.0,4556.0,-2020.0,0.628,0.468,-0.617,0.081
2183106,9558.0,5098.0,-1952.0,0.629,0.472,-0.613,0.074
2183123,9368.0,4858.0,-1928.0,0.631,0.475,-0.609,0.067
2183140,8804.0,4302.0,-1760.0,0.634,0.479,-0.605,0.061
2183158,8136.0,4814.0,-1454.0,0.636,0.483,-0.6,0.055
2183175,7764.0,4778.0,-1650.0,0.639,0.486,-0.594,0.049
2183193,7336.0,4650.0,-1588.0,0.641,0.49,-0.589,0.044
2183211,6834.0,4842.0,-1572.0,0.644,0.493,-0.584,0.04
2183230,6780.0,5192.0,-1716.0,0.647,0.495,-0.579,0.036
2183247,6344.0,4350.0,-1468.0,0.65,0.498,-0.574,0.033
2183265,6078.0,4154.0,-1632.0,0.652,0.5,-0.568,0.032
2183284,5318.0,4404.0,-1466.0,0.655,0.503,-0.563,0.031
2183301,5290.0,4708.0,-1460.0,0.657,0.506,-0.558,0.031
2183318,4990.0,4090.0,-1552.0,0.659,0.508,-0.553,0.032
2183336,4886.0,4296.0,-1710.0,0.661,0.511,-0.548,0.035
2183355,4620.0,4958.0,-1540.0,0.663,0.513,-0.543,0.037
2183373,4652.0,4230.0,-1716.0,0.666,0.515,-0.539,0.04
2183389,4956.0,3970.0,-1742.0,0.669,0.516,-0.534,0.044
2183406,4882.0,5352.0,-1624.0,0.671,0.517,-0.529,0.048
2183423,4714.0,4218.0,-1356.0,0.674,0.517,-0.525,0.053
2183442,4530.0,3962.0,-1100.0,0.676,0.517,-0.522,0.057
2183461,4316.0,4872.0,-916.0,0.677,0.518,-0.519,0.062
2183479,3614.0,5392.0,-414.0,0.678,0.518,-0.518,0.066
2183487,3278.0,4064.0,-162.0,0.677,0.518,-0.518,0.069
2183505,3228.0,2854.0,-346.0,0.675,0.519,-0.52,0.072
2183524,3432.0,3758.0,-742.0,0.672,0.521,-0.521,0.076
2183541,2564.0,4024.0,-372.0,0.669,0.522,-0.523,0.078
2183560,2012.0,2858.0,-258.0,0.666,0.524,-0.525,0.082
2183578,1870.0,1570.0,-154.0,0.663,0.526,-0.526,0.085
2183596,1746.0,2508.0,-184.0,0.659,0.53,-0.526,0.09
2183614,1282.0,4288.0,138.0,0.656,0.533,-0.526,0.094
2183632,1376.0,4610.0,192.0,0.655,0.534,-0.526,0.096
2183651,1996.0,2808.0,120.0,0.655,0.533,-0.527,0.097
2183672,2618.0,2042.0,-674.0,0.654,0.534,-0.527,0.099
2183681,3270.0,3156.0,-784.0,0.652,0.537,-0.525,0.102
2183699,3898.0,5830.0,-1042.0,0.652,0.539,-0.522,0.105
2183717,4356.0,5184.0,-1218.0,0.653,0.54,-0.52,0.108
2183734,4798.0,4444.0,-752.0,0.653,0.541,-0.518,0.11
2183751,5084.0,2892.0,-1138.0,0.652,0.545,-0.516,0.112
2183770,5432.0,5980.0,-1564.0,0.649,0.549,-0.514,0.113
2183789,5556.0,7660.0,-1646.0,0.648,0.551,-0.513,0.113
2183808,5460.0,4636.0,-1008.0,0.647,0.551,-0.515,0.114
2183828,6972.0,4044.0,-1838.0,0.644,0.553,-0.516,0.115
2183847,6634.0,5084.0,-2034.0,0.641,0.555,-0.517,0.116
2183855,6570.0,6320.0,-1604.0,0.638,0.556,-0.519,0.118
2183874,6846.0,6218.0,-1344.0,0.634,0.556,-0.523,0.119
2183894,7346.0,3928.0,-2016.0,0.63,0.557,-0.527,0.121
2183913,7268.0,6510.0,-2062.0,0.627,0.557,-0.531,0.122
2183931,6650.0,4352.0,-1514.0,0.624,0.555,-0.536,0.121
2183949,6604.0,2716.0,-1888.0,0.62,0.555,-0.54,0.123
2183966,7906.0,5148.0,-2426.0,0.615,0.557,-0.544,0.127
2183983,7504.0,7902.0,-2042.0,0.612,0.556,-0.548,0.13
2184000,6826.0,4384.0,-1610.0,0.611,0.551,-0.553,0.13
2184018,7250.0,2704.0,-2114.0,0.609,0.548,-0.558,0.132
2184036,8316.0,3390.0,-2494.0,0.606,0.548,-0.561,0.135
2184053,7940.0,6796.0,-2040.0,0.603,0.547,-0.564,0.139
2184071,7644.0,5738.0,-1492.0,0.602,0.542,-0.568,0.141
2184089,7732.0,3076.0,-1970.0,0.601,0.538,-0.573,0.143
2184108,7750.0,3144.0,-1918.0,0.6,0.535,-0.577,0.145
2184127,8968.0,4086.0,-2406.0,0.598,0.533,-0.58,0.148
2184136,8174.0,5652.0,-1900.0,0.597,0.53,-0.584,0.151
2184154,8042.0,3580.0,-1826.0,0.596,0.525,-0.587,0.153
2184171,7614.0,2728.0,-1814.0,0.596,0.522,-0.591,0.156
2184187,7906.0,3280.0,-2014.0,0.594,0.519,-0.594,0.159
2184204,7704.0,3730.0,-1762.0,0.594,0.516,-0.596,0.162
2184221,8454.0,3582.0,-1810.0,0.593,0.512,-0.599,0.165
2184238,8044.0,3476.0,-1840.0,0.592,0.508,-0.603,0.168
2184256,7818.0,2714.0,-1566.0,0.592,0.502,-0.606,0.171
2184275,8674.0,2166.0,-2038.0,0.592,0.498,-0.609,0.174
2184293,9124.0,2872.0,-2212.0,0.592,0.493,-0.612,0.179
2184317,9852.0,3330.0,-2262.0,0.592,0.487,-0.615,0.184
2184335,11142.0,3408.0,-2284.0,0.593,0.481,-0.617,0.19
2184353,11444.0,2870.0,-2010.0,0.594,0.474,-0.62,0.196
2184362,12380.0,2496.0,-1718.0,0.595,0.469,-0.622,0.201
2184380,12728.0,2108.0,-1988.0,0.596,0.465,-0.623,0.203
2184397,12558.0,2240.0,-1772.0,0.596,0.464,-0.622,0.205
2184416,11894.0,2388.0,-1306.0,0.596,0.466,-0.621,0.204
2184434,11316.0,3146.0,-1338.0,0.595,0.47,-0.62,0.202
2184453,11016.0,3594.0,-1636.0,0.594,0.474,-0.62,0.197
2184471,10928.0,3080.0,-1828.0,0.593,0.478,-0.619,0.192
2184489,10862.0,3602.0,-2066.0,0.591,0.483,-0.618,0.186
2184508,10670.0,3646.0,-2136.0,0.591,0.489,-0.616,0.181
2184527,10122.0,3736.0,-1900.0,0.59,0.494,-0.614,0.176
2184546,10072.0,4314.0,-2086.0,0.59,0.5,-0.611,0.17
2184554,9712.0,3726.0,-2242.0,0.591,0.504,-0.608,0.164
2184572,9270.0,3694.0,-1828.0,0.592,0.51,-0.604,0.16
2184591,8514.0,4098.0,-1862.0,0.593,0.515,-0.599,0.155
2184610,8234.0,4092.0,-2066.0,0.595,0.52,-0.594,0.15
2184629,8302.0,4674.0,-2104.0,0.597,0.524,-0.589,0.147
2184648,7874.0,4000.0,-2072.0,0.6,0.527,-0.584,0.144
2184667,7554.0,3650.0,-2264.0,0.604,0.53,-0.578,0.143
2184685,7810.0,3734.0,-2590.0,0.607,0.533,-0.572,0.143
2184694,7522.0,4456.0,-2470.0,0.61,0.536,-0.566,0.145
2184712,7076.0,4880.0,-1966.0,0.613,0.538,-0.56,0.148
2184731,6298.0,4382.0,-1686.0,0.616,0.538,-0.556,0.15
2184749,6096.0,3410.0,-1406.0,0.618,0.538,-0.553,0.152
2184767,5642.0,4176.0,-1318.0,0.619,0.538,-0.551,0.154
2184785,5922.0,4652.0,-1676.0,0.62,0.537,-0.55,0.156
2184803,5890.0,4082.0,-1820.0,0.622,0.535,-0.55,0.159
2184821,5408.0,3104.0,-1738.0,0.624,0.532,-0.549,0.162
2184839,5232.0,2812.0,-1760.0,0.625,0.53,-0.548,0.167
2184857,4966.0,3726.0,-1704.0,0.626,0.529,-0.546,0.173
2184876,4572.0,4156.0,-1386.0,0.628,0.526,-0.544,0.179
2184894,4214.0,3544.0,-1418.0,0.631,0.523,-0.543,0.184
2184912,4072.0,2928.0,-1322.0,0.633,0.52,-0.541,0.189
2184922,3432.0,3178.0,-1062.0,0.634,0.518,-0.54,0.195
2184940,3220.0,3396.0,-784.0,0.636,0.516,-0.539,0.2
2184959,3056.0,2952.0,-1026.0,0.637,0.514,-0.538,0.204
2184977,2494.0,2560.0,-836.0,0.638,0.512,-0.537,0.207
2184996,1828.0,956.0,-652.0,0.639,0.512,-0.535,0.209
2185014,1540.0,1292.0,-414.0,0.638,0.514,-0.533,0.211
2185033,1018.0,2806.0,-564.0,0.637,0.517,-0.532,0.212
2185051,988.0,2784.0,-744.0,0.636,0.518,-0.532,0.211
2185069,230.0,98.0,-330.0,0.636,0.519,-0.532,0.209
2185087,1338.0,-384.0,-512.0,0.633,0.524,-0.531,0.208
2185097,1794.0,6018.0,-1238.0,0.629,0.528,-0.532,0.208
2185113,3672.0,5938.0,-1582.0,0.628,0.527,-0.535,0.206
2185131,4390.0,422.0,-830.0,0.627,0.525,-0.539,0.202
2185149,5278.0,2268.0,-826.0,0.624,0.527,-0.541,0.199
2185168,6226.0,6060.0,-1410.0,0.621,0.531,-0.543,0.195
2185186,6972.0,4350.0,-1678.0,0.619,0.533,-0.545,0.191
2185204,7422.0,4058.0,-1756.0,0.616,0.535,-0.546,0.187
2185223,7566.0,6750.0,-1408.0,0.614,0.538,-0.548,0.183
2185242,8006.0,4070.0,-2066.0,0.612,0.538,-0.551,0.179
2185261,7832.0,3572.0,-1622.0,0.608,0.541,-0.554,0.176
2185280,8722.0,6028.0,-2020.0,0.605,0.543,-0.556,0.173
2185288,7860.0,5396.0,-1940.0,0.603,0.543,-0.56,0.168
2185307,8040.0,4230.0,-2220.0,0.6,0.542,-0.565,0.164
2185325,9108.0,3144.0,-2042.0,0.598,0.542,-0.568,0.161
2185344,8276.0,4778.0,-2524.0,0.596,0.541,-0.572,0.159
2185363,8004.0,4112.0,-1958.0,0.595,0.54,-0.575,0.157
2185380,7326.0,3896.0,-1780.0,0.594,0.538,-0.578,0.154
2185399,7314.0,3346.0,-1954.0,0.594,0.536,-0.581,0.152
2185417,8052.0,4240.0,-2132.0,0.592,0.534,-0.584,0.152
2185435,8048.0,3690.0,-1922.0,0.592,0.532,-0.587,0.152
2185453,7306.0,3204.0,-1884.0,0.591,0.529,-0.59,0.152
2185471,7410.0,3728.0,-1932.0,0.59,0.527,-0.592,0.152
2185490,8392.0,4444.0,-2412.0,0.59,0.525,-0.595,0.152
2185499,7916.0,4006.0,-2038.0,0.59,0.521,-0.598,0.152
2185517,7782.0,2746.0,-1886.0,0.591,0.517,-0.6,0.153
2185535,7666.0,2822.0,-2228.0,0.591,0.514,-0.602,0.154
2185553,7224.0,3298.0,-1710.0,0.592,0.511,-0.604,0.155
2185570,8266.0,4428.0,-2240.0,0.592,0.507,-0.606,0.157
2185588,7962.0,3556.0,-1860.0,0.594,0.503,-0.608,0.159
2185606,7310.0,2724.0,-1444.0,0.595,0.497,-0.61,0.16
2185624,7370.0,2426.0,-1914.0,0.596,0.493,-0.613,0.161
2185643,8268.0,2966.0,-2076.0,0.597,0.49,-0.614,0.164
2185662,7862.0,3292.0,-1754.0,0.598,0.485,-0.615,0.168
2185681,7584.0,2770.0,-1348.0,0.599,0.48,-0.617,0.172
2185690,7626.0,2808.0,-1230.0,0.6,0.475,-0.619,0.177
2185708,8308.0,3470.0,-1998.0,0.602,0.468,-0.621,0.183
2185727,11328.0,4106.0,-2548.0,0.604,0.459,-0.623,0.19
2185746,11048.0,2764.0,-2140.0,0.607,0.449,-0.625,0.198
2185765,11718.0,1272.0,-1748.0,0.61,0.441,-0.626,0.205
2185782,12398.0,1404.0,-1508.0,0.612,0.437,-0.625,0.211
2185800,13098.0,3016.0,-1372.0,0.613,0.436,-0.623,0.216
2185817,13108.0,2974.0,-1280.0,0.614,0.436,-0.622,0.216
2185834,12712.0,1736.0,-910.0,0.614,0.439,-0.62,0.213
2185853,12356.0,3028.0,-980.0,0.613,0.446,-0.619,0.208
2185871,12330.0,3228.0,-1594.0,0.612,0.452,-0.617,0.2
2185890,12190.0,3264.0,-2100.0,0.611,0.46,-0.615,0.193
2185910,11714.0,3664.0,-2116.0,0.61,0.467,-0.613,0.186
2185920,11096.0,3508.0,-1866.0,0.609,0.474,-0.61,0.18
2185939,10284.0,3628.0,-1730.0,0.609,0.481,-0.606,0.174
2185958,10030.0,3380.0,-1706.0,0.61,0.487,-0.603,0.168
2185978,9510.0,3342.0,-1644.0,0.61,0.494,-0.598,0.162
2185988,8980.0,4092.0,-1846.0,0.611,0.5,-0.593,0.156
2186006,8508.0,3544.0,-1848.0,0.612,0.506,-0.588,0.151
2186025,8296.0,4184.0,-1882.0,0.613,0.512,-0.583,0.147
2186043,8212.0,4274.0,-2092.0,0.615,0.517,-0.578,0.143
2186062,7788.0,3542.0,-2116.0,0.617,0.521,-0.573,0.141
2186081,8698.0,3972.0,-2426.0,0.62,0.525,-0.566,0.14
2186100,8756.0,5070.0,-2816.0,0.623,0.529,-0.559,0.14
2186117,9482.0,5964.0,-2906.0,0.628,0.53,-0.552,0.142
2186135,7924.0,3196.0,-1806.0,0.634,0.53,-0.545,0.144
2186153,6786.0,2494.0,-1210.0,0.638,0.532,-0.537,0.145
2186163,5666.0,4990.0,-1414.0,0.641,0.535,-0.53,0.146
2186181,4824.0,4796.0,-1188.0,0.645,0.535,-0.526,0.147
2186199,4722.0,3754.0,-1418.0,0.648,0.533,-0.523,0.15
2186216,4240.0,3238.0,-1196.0,0.65,0.532,-0.52,0.155
2186234,4298.0,3044.0,-1220.0,0.652,0.53,-0.518,0.161
2186251,3862.0,4174.0,-1102.0,0.653,0.528,-0.516,0.169
2186268,3048.0,3800.0,-664.0,0.654,0.525,-0.516,0.175
2186285,2768.0,2404.0,-502.0,0.654,0.522,-0.516,0.181
2186302,2728.0,3458.0,-710.0,0.654,0.52,-0.516,0.187
2186319,2400.0,3230.0,-634.0,0.654,0.518,-0.517,0.192
2186337,2124.0,2798.0,-790.0,0.655,0.515,-0.517,0.197
2186355,1540.0,1378.0,-128.0,0.654,0.514,-0.517,0.201
2186372,938.0,1832.0,126.0,0.653,0.515,-0.516,0.205
2186391,842.0,2370.0,296.0,0.651,0.516,-0.517,0.207
2186409,948.0,3284.0,226.0,0.65,0.516,-0.518,0.207
2186426,1166.0,1588.0,78.0,0.65,0.515,-0.52,0.204
2186445,2054.0,580.0,-628.0,0.648,0.517,-0.522,0.202
2186464,2600.0,1656.0,-652.0,0.645,0.521,-0.522,0.2
2186483,2650.0,3928.0,-404.0,0.643,0.525,-0.522,0.197
2186501,3700.0,3712.0,-882.0,0.642,0.526,-0.523,0.193
2186519,3908.0,3008.0,-760.0,0.641,0.528,-0.524,0.189
2186537,4552.0,2732.0,-928.0,0.639,0.531,-0.525,0.185
2186555,5194.0,3176.0,-834.0,0.635,0.535,-0.527,0.181
2186564,5810.0,6094.0,-1690.0,0.633,0.538,-0.528,0.176
2186582,5366.0,3570.0,-1174.0,0.631,0.539,-0.531,0.171
2186600,6506.0,2358.0,-1318.0,0.629,0.541,-0.533,0.166
2186617,6402.0,4170.0,-1888.0,0.624,0.545,-0.535,0.162
2186635,8466.0,8436.0,-2898.0,0.622,0.547,-0.537,0.161
2186653,5920.0,4384.0,-1024.0,0.621,0.545,-0.541,0.157
2186671,7622.0,2408.0,-1572.0,0.618,0.546,-0.545,0.153
2186691,8370.0,3692.0,-2642.0,0.614,0.549,-0.547,0.151
2186710,8356.0,8222.0,-2636.0,0.611,0.549,-0.55,0.15
2186729,7620.0,4984.0,-1986.0,0.609,0.546,-0.556,0.148
2186747,6646.0,2330.0,-1418.0,0.607,0.544,-0.561,0.146
2186756,7416.0,2424.0,-2358.0,0.603,0.545,-0.564,0.146
2186773,8616.0,5768.0,-3248.0,0.599,0.546,-0.567,0.147
2186792,8110.0,6888.0,-2486.0,0.597,0.544,-0.57,0.149
2186810,6720.0,3934.0,-1442.0,0.597,0.54,-0.574,0.15
2186828,7142.0,3190.0,-2110.0,0.594,0.538,-0.579,0.15
2186846,8888.0,5204.0,-2790.0,0.592,0.535,-0.583,0.15
2186864,8484.0,6178.0,-2770.0,0.593,0.529,-0.588,0.149
2186882,8360.0,2404.0,-2174.0,0.595,0.522,-0.592,0.148
2186900,7934.0,2470.0,-1746.0,0.595,0.519,-0.595,0.15
2186918,8676.0,5244.0,-2038.0,0.595,0.517,-0.597,0.151
2186935,8352.0,5056.0,-2084.0,0.596,0.513,-0.6,0.151
2186954,8494.0,4646.0,-1998.0,0.598,0.507,-0.602,0.15
2186972,8326.0,2724.0,-2054.0,0.601,0.503,-0.604,0.149
2186991,7976.0,3630.0,-1948.0,0.602,0.499,-0.605,0.15
2187010,7896.0,3314.0,-1676.0,0.603,0.496,-0.606,0.152
2187018,8458.0,4410.0,-1652.0,0.605,0.493,-0.607,0.153
2187036,7854.0,4686.0,-1342.0,0.607,0.488,-0.609,0.153
2187054,8030.0,3126.0,-1332.0,0.61,0.481,-0.611,0.153
2187072,7766.0,2898.0,-1324.0,0.611,0.475,-0.614,0.154
2187090,8172.0,2886.0,-1428.0,0.612,0.469,-0.617,0.156
2187109,10194.0,3936.0,-1722.0,0.613,0.462,-0.62,0.159
2187127,9998.0,3406.0,-1636.0,0.616,0.454,-0.623,0.162
2187145,10618.0,2810.0,-1550.0,0.618,0.447,-0.625,0.165
2187163,12158.0,1896.0,-1790.0,0.62,0.441,-0.626,0.169
2187182,12692.0,3812.0,-1734.0,0.623,0.438,-0.625,0.172
2187200,12668.0,3034.0,-1276.0,0.625,0.435,-0.624,0.172
2187218,12244.0,2560.0,-974.0,0.628,0.435,-0.623,0.171
2187236,11730.0,2836.0,-828.0,0.629,0.438,-0.621,0.166
2187254,12120.0,3744.0,-1284.0,0.63,0.442,-0.619,0.16
2187264,11802.0,3950.0,-1470.0,0.63,0.446,-0.617,0.153
2187282,11114.0,3310.0,-1448.0,0.63,0.452,-0.615,0.146
2187300,10928.0,4070.0,-1414.0,0.629,0.459,-0.612,0.139
2187318,10616.0,4416.0,-1800.0,0.628,0.465,-0.61,0.131
2187336,9822.0,3766.0,-1550.0,0.628,0.471,-0.607,0.123
2187354,9372.0,3832.0,-1658.0,0.627,0.478,-0.604,0.117
2187373,9258.0,4782.0,-1862.0,0.626,0.484,-0.601,0.11
2187393,8428.0,4760.0,-1750.0,0.626,0.49,-0.597,0.104
2187411,8286.0,3892.0,-1844.0,0.627,0.495,-0.594,0.098
2187421,8066.0,4708.0,-2066.0,0.628,0.5,-0.589,0.092
2187438,7774.0,4072.0,-1902.0,0.63,0.504,-0.585,0.088
2187456,7356.0,4312.0,-1752.0,0.631,0.509,-0.579,0.085
2187476,7496.0,5220.0,-1850.0,0.633,0.513,-0.574,0.082
2187494,7546.0,5266.0,-1960.0,0.636,0.516,-0.569,0.079
2187512,7290.0,4264.0,-1630.0,0.639,0.518,-0.563,0.077
2187531,6682.0,4414.0,-1464.0,0.64,0.522,-0.558,0.077
2187549,6158.0,4784.0,-1612.0,0.641,0.526,-0.553,0.076
2187566,5956.0,5152.0,-1800.0,0.642,0.529,-0.549,0.076
2187584,5974.0,5324.0,-1672.0,0.643,0.532,-0.546,0.076
2187602,5754.0,5316.0,-1514.0,0.645,0.533,-0.543,0.077
2187620,5246.0,3908.0,-1316.0,0.646,0.534,-0.54,0.079
2187638,4992.0,4126.0,-1478.0,0.645,0.536,-0.538,0.083
2187656,4538.0,5650.0,-1404.0,0.645,0.537,-0.537,0.086
2187666,4284.0,5128.0,-1180.0,0.646,0.537,-0.536,0.089
2187683,4000.0,3794.0,-1088.0,0.646,0.536,-0.535,0.093
2187700,3812.0,4026.0,-1056.0,0.646,0.536,-0.535,0.097
2187717,3570.0,3334.0,-1146.0,0.647,0.536,-0.533,0.102
2187735,2996.0,4034.0,-906.0,0.648,0.535,-0.532,0.106
2187752,2224.0,3284.0,-298.0,0.649,0.535,-0.53,0.109
2187769,2044.0,1914.0,-402.0,0.65,0.534,-0.529,0.112
2187787,1750.0,1412.0,-318.0,0.65,0.535,-0.527,0.114
2187805,1658.0,1848.0,-402.0,0.65,0.537,-0.525,0.117
2187824,1408.0,2434.0,-292.0,0.651,0.537,-0.523,0.119
2187842,1860.0,1452.0,-378.0,0.652,0.537,-0.522,0.12
2187861,1944.0,1408.0,-518.0,0.652,0.538,-0.521,0.122
2187880,2294.0,2408.0,-692.0,0.652,0.538,-0.52,0.123
2187898,2534.0,2650.0,-706.0,0.653,0.538,-0.519,0.124
2187916,2692.0,2334.0,-600.0,0.652,0.538,-0.519,0.124
2187933,3322.0,2790.0,-942.0,0.651,0.54,-0.519,0.124
2187951,3412.0,3656.0,-1014.0,0.649,0.541,-0.52,0.125
2187970,4026.0,4308.0,-1182.0,0.647,0.542,-0.521,0.125
2187988,4508.0,3654.0,-1508.0,0.645,0.543,-0.523,0.125
2187997,5100.0,4446.0,-1740.0,0.642,0.544,-0.525,0.126
2188014,5628.0,4964.0,-1542.0,0.639,0.545,-0.528,0.127
2188033,5250.0,5426.0,-1454.0,0.637,0.545,-0.531,0.127
2188050,6200.0,5160.0,-1826.0,0.635,0.544,-0.535,0.126
2188068,6302.0,4488.0,-1900.0,0.632,0.543,-0.539,0.126
2188086,6980.0,3648.0,-1616.0,0.627,0.544,-0.542,0.128
2188105,6938.0,6862.0,-2040.0,0.623,0.545,-0.546,0.13
2188123,6610.0,6632.0,-1872.0,0.62,0.543,-0.551,0.129
2188139,6480.0,4244.0,-1366.0,0.618,0.539,-0.558,0.127
2188156,7536.0,3518.0,-2144.0,0.615,0.536,-0.564,0.127
2188173,7814.0,5240.0,-2338.0,0.611,0.535,-0.569,0.129
2188190,6788.0,4948.0,-1618.0,0.608,0.532,-0.574,0.129
2188208,7368.0,5074.0,-1918.0,0.606,0.53,-0.579,0.128
2188226,7662.0,4582.0,-1944.0,0.604,0.527,-0.584,0.129
2188244,8182.0,4534.0,-2526.0,0.602,0.524,-0.589,0.13
2188262,7380.0,4566.0,-1888.0,0.602,0.52,-0.592,0.13
2188280,7208.0,3864.0,-1794.0,0.602,0.516,-0.596,0.13
2188298,9042.0,5256.0,-2522.0,0.602,0.512,-0.599,0.131
2188316,8024.0,5050.0,-2166.0,0.604,0.506,-0.602,0.133
2188334,7266.0,3270.0,-1270.0,0.606,0.5,-0.604,0.134
2188352,6916.0,2214.0,-1688.0,0.607,0.495,-0.607,0.134
2188370,7980.0,4162.0,-1846.0,0.607,0.492,-0.609,0.136
2188389,9390.0,7146.0,-2312.0,0.607,0.487,-0.612,0.141
2188408,8916.0,5794.0,-1900.0,0.609,0.478,-0.616,0.143
2188427,8654.0,1922.0,-1006.0,0.612,0.469,-0.62,0.143
2188434,8494.0,1066.0,-1616.0,0.613,0.464,-0.623,0.145
2188451,8530.0,4612.0,-1822.0,0.613,0.461,-0.625,0.147
2188468,9702.0,5122.0,-1852.0,0.613,0.457,-0.627,0.15
2188486,9656.0,4478.0,-1618.0,0.614,0.451,-0.63,0.153
2188503,9166.0,2620.0,-1424.0,0.616,0.444,-0.632,0.154
2188524,8990.0,1728.0,-1396.0,0.617,0.439,-0.634,0.156
2188543,8312.0,2318.0,-1470.0,0.618,0.435,-0.635,0.159
2188561,7870.0,2668.0,-1306.0,0.618,0.432,-0.636,0.162
2188579,8424.0,2846.0,-1020.0,0.619,0.428,-0.638,0.167
2188597,9006.0,3438.0,-1234.0,0.618,0.423,-0.64,0.172
2188616,9036.0,2768.0,-1242.0,0.619,0.416,-0.643,0.176
2188633,9254.0,1768.0,-1238.0,0.619,0.409,-0.646,0.181
2188650,11056.0,2624.0,-1630.0,0.619,0.402,-0.648,0.186
2188667,11960.0,2890.0,-1630.0,0.62,0.396,-0.65,0.19
2188685,12430.0,1250.0,-1622.0,0.622,0.393,-0.649,0.192
2188702,12292.0,38.0,-1246.0,0.624,0.394,-0.647,0.193
2188720,12154.0,1290.0,-452.0,0.624,0.401,-0.643,0.191
2188739,11900.0,2918.0,-736.0,0.623,0.412,-0.638,0.186
2188758,12060.0,3838.0,-1438.0,0.622,0.422,-0.635,0.178
2188767,11882.0,3610.0,-1620.0,0.621,0.432,-0.632,0.169
2188785,11972.0,3948.0,-1986.0,0.619,0.442,-0.629,0.161
2188802,11584.0,3618.0,-1970.0,0.618,0.452,-0.625,0.152
2188819,11108.0,3512.0,-2064.0,0.617,0.462,-0.621,0.144
2188836,10756.0,3784.0,-2102.0,0.616,0.471,-0.616,0.136
2188854,10288.0,4606.0,-2128.0,0.616,0.481,-0.61,0.129
2188871,9928.0,4928.0,-2270.0,0.616,0.49,-0.605,0.121
2188889,9488.0,4450.0,-2174.0,0.617,0.497,-0.599,0.113
2188906,8232.0,3738.0,-1688.0,0.618,0.505,-0.593,0.106
2188926,8164.0,4154.0,-2112.0,0.619,0.512,-0.587,0.1
2188945,7638.0,4254.0,-2048.0,0.619,0.52,-0.582,0.095
2188963,7218.0,4934.0,-2084.0,0.619,0.526,-0.576,0.092
2188980,6582.0,4262.0,-1832.0,0.619,0.532,-0.571,0.089
2188998,6754.0,5010.0,-1890.0,0.619,0.536,-0.567,0.087
2189015,5806.0,3786.0,-1746.0,0.619,0.54,-0.563,0.086
2189033,5102.0,4294.0,-1702.0,0.619,0.544,-0.56,0.087
2189051,4300.0,4746.0,-1448.0,0.62,0.546,-0.557,0.088
2189068,4032.0,5124.0,-1430.0,0.621,0.546,-0.555,0.089
2189086,3284.0,2840.0,-1172.0,0.623,0.544,-0.555,0.09
2189104,3020.0,2660.0,-876.0,0.624,0.543,-0.554,0.092
2189123,3238.0,3038.0,-1278.0,0.624,0.543,-0.554,0.095
2189142,3058.0,3154.0,-1256.0,0.625,0.541,-0.554,0.099
2189151,3128.0,3028.0,-1182.0,0.627,0.539,-0.553,0.103
2189169,2772.0,3896.0,-952.0,0.629,0.537,-0.552,0.108
2189187,2318.0,1970.0,-838.0,0.632,0.534,-0.55,0.112
2189205,2616.0,1754.0,-1066.0,0.634,0.532,-0.549,0.116
2189223,2026.0,2640.0,-922.0,0.636,0.532,-0.546,0.12
2189243,1974.0,3184.0,-872.0,0.639,0.53,-0.543,0.123
2189261,1656.0,1854.0,-512.0,0.643,0.528,-0.541,0.124
2189280,1768.0,2042.0,-272.0,0.644,0.527,-0.54,0.126
2189298,2154.0,2186.0,-742.0,0.645,0.526,-0.539,0.126
2189315,2366.0,3414.0,-908.0,0.646,0.525,-0.539,0.127
2189333,2836.0,3088.0,-768.0,0.647,0.523,-0.54,0.126
2189351,3164.0,2290.0,-1092.0,0.648,0.521,-0.541,0.125
2189360,3810.0,2010.0,-1288.0,0.648,0.521,-0.542,0.126
2189377,4074.0,3450.0,-1084.0,0.646,0.522,-0.542,0.126
2189395,4258.0,5470.0,-1386.0,0.646,0.521,-0.544,0.126
2189414,5018.0,4212.0,-1458.0,0.646,0.519,-0.546,0.126
2189432,5544.0,2872.0,-1304.0,0.645,0.518,-0.548,0.126
2189449,5720.0,3902.0,-1448.0,0.643,0.518,-0.549,0.127
2189467,6916.0,5662.0,-1900.0,0.642,0.518,-0.551,0.126
2189485,7124.0,6456.0,-1884.0,0.641,0.515,-0.554,0.127
2189503,7208.0,4794.0,-1444.0,0.64,0.511,-0.559,0.128
2189522,6638.0,1548.0,-988.0,0.638,0.51,-0.562,0.13
2189539,7776.0,3996.0,-1724.0,0.634,0.512,-0.565,0.131
2189558,8056.0,8258.0,-2234.0,0.631,0.512,-0.568,0.131
2189576,9088.0,9152.0,-2276.0,0.63,0.506,-0.573,0.133
2189595,8192.0,1786.0,-1458.0,0.631,0.498,-0.579,0.134
2189614,7876.0,-732.0,-1502.0,0.629,0.496,-0.583,0.137
2189632,7078.0,2322.0,-1528.0,0.626,0.498,-0.583,0.14
2189641,7646.0,5994.0,-1590.0,0.622,0.501,-0.584,0.145
2189660,8790.0,8630.0,-2480.0,0.619,0.499,-0.588,0.151
2189678,8646.0,5594.0,-1832.0,0.619,0.49,-0.593,0.155
2189700,7792.0,398.0,-724.0,0.621,0.482,-0.598,0.157
2189718,8156.0,112.0,-806.0,0.62,0.478,-0.601,0.159
2189727,8448.0,2984.0,-1378.0,0.618,0.478,-0.603,0.162
2189745,8332.0,4112.0,-2154.0,0.615,0.478,-0.604,0.168
2189764,9422.0,5192.0,-2086.0,0.614,0.475,-0.605,0.174
2189782,7882.0,4154.0,-806.0,0.614,0.472,-0.606,0.181
2189800,7234.0,3058.0,-542.0,0.614,0.467,-0.609,0.185
2189818,8486.0,2444.0,-1330.0,0.613,0.463,-0.611,0.189
2189837,8890.0,2616.0,-1742.0,0.612,0.46,-0.613,0.195
2189855,8940.0,3256.0,-1564.0,0.612,0.456,-0.614,0.202
2189874,8456.0,3052.0,-1148.0,0.611,0.452,-0.615,0.209
2189894,8592.0,3128.0,-894.0,0.611,0.447,-0.617,0.216
2189903,8754.0,2594.0,-1110.0,0.61,0.441,-0.62,0.221
2189921,9522.0,2072.0,-1788.0,0.61,0.435,-0.622,0.228
2189939,10462.0,2794.0,-1314.0,0.61,0.428,-0.624,0.234
2189958,10940.0,2200.0,-1244.0,0.61,0.421,-0.626,0.241
2189977,10950.0,1646.0,-1160.0,0.61,0.415,-0.628,0.246
2189996,11680.0,1062.0,-1210.0,0.611,0.412,-0.628,0.251
2190015,11744.0,1874.0,-1030.0,0.611,0.411,-0.627,0.254
2190024,11366.0,1858.0,-654.0,0.611,0.412,-0.626,0.256
2190042,11200.0,2190.0,-554.0,0.611,0.414,-0.625,0.255
2190060,11194.0,2218.0,-758.0,0.61,0.417,-0.624,0.253
2190079,11296.0,1934.0,-612.0,0.609,0.422,-0.624,0.25
2190097,11196.0,2250.0,-926.0,0.608,0.427,-0.623,0.244
2190115,11498.0,2282.0,-1196.0,0.607,0.433,-0.622,0.237
2190133,11346.0,2686.0,-1152.0,0.607,0.44,-0.621,0.23
2190150,11122.0,2460.0,-1492.0,0.607,0.446,-0.619,0.223
2190167,11152.0,2992.0,-1888.0,0.607,0.453,-0.615,0.217
2190184,10460.0,2422.0,-1538.0,0.609,0.46,-0.611,0.21
2190201,9872.0,2550.0,-1532.0,0.611,0.467,-0.606,0.204
2190218,9466.0,3048.0,-1960.0,0.613,0.474,-0.6,0.198
2190236,9218.0,3632.0,-1924.0,0.615,0.48,-0.594,0.194
2190254,8206.0,3614.0,-1666.0,0.618,0.486,-0.588,0.189
2190272,7882.0,3048.0,-1578.0,0.62,0.491,-0.583,0.185
2190291,7704.0,3080.0,-1436.0,0.62,0.497,-0.579,0.182
2190309,7570.0,3122.0,-1570.0,0.619,0.503,-0.576,0.18
2190328,7162.0,4568.0,-1284.0,0.616,0.509,-0.574,0.179
2190347,6560.0,4232.0,-1236.0,0.613,0.512,-0.575,0.176
2190357,6896.0,3784.0,-1916.0,0.609,0.515,-0.578,0.174
2190375,6990.0,3538.0,-2300.0,0.603,0.517,-0.582,0.175
2190394,6444.0,3516.0,-1838.0,0.599,0.519,-0.584,0.176
2190413,6058.0,4032.0,-1574.0,0.594,0.52,-0.587,0.179
2190431,6194.0,3048.0,-2086.0,0.59,0.521,-0.589,0.181
2190449,6282.0,3956.0,-2314.0,0.587,0.522,-0.591,0.186
2190466,5464.0,3270.0,-2012.0,0.585,0.522,-0.591,0.19
2190484,5862.0,3088.0,-2216.0,0.584,0.523,-0.59,0.195
2190502,4908.0,3726.0,-1888.0,0.583,0.523,-0.588,0.201
2190520,4830.0,2852.0,-1776.0,0.583,0.523,-0.586,0.207
2190539,4912.0,3570.0,-1822.0,0.584,0.523,-0.584,0.212
2190559,4564.0,2948.0,-1708.0,0.585,0.523,-0.581,0.216
2190568,4634.0,2236.0,-1618.0,0.587,0.523,-0.578,0.22
2190586,4616.0,2394.0,-1540.0,0.588,0.524,-0.574,0.225
2190604,4370.0,2780.0,-1420.0,0.589,0.525,-0.571,0.228
2190623,4220.0,1990.0,-1484.0,0.591,0.525,-0.567,0.229
2190643,3958.0,1290.0,-1332.0,0.593,0.527,-0.564,0.231
2190662,3712.0,1572.0,-1032.0,0.593,0.529,-0.56,0.234
2190671,3394.0,1790.0,-918.0,0.594,0.532,-0.556,0.235
2190690,3442.0,1574.0,-960.0,0.594,0.534,-0.553,0.236
2190709,3224.0,1532.0,-684.0,0.595,0.537,-0.55,0.235
2190728,3034.0,2336.0,-374.0,0.594,0.54,-0.549,0.234
2190746,3654.0,3126.0,-698.0,0.593,0.542,-0.549,0.232
2190764,4016.0,1188.0,-1024.0,0.592,0.543,-0.549,0.229
2190781,3958.0,1560.0,-1074.0,0.591,0.546,-0.549,0.226
2190798,4568.0,2498.0,-1134.0,0.59,0.549,-0.548,0.224
2190816,3790.0,2474.0,-714.0,0.588,0.551,-0.549,0.221
2190834,4768.0,3074.0,-1292.0,0.586,0.553,-0.55,0.219
2190852,4918.0,3596.0,-1422.0,0.584,0.555,-0.552,0.215
2190870,5250.0,3448.0,-1548.0,0.583,0.556,-0.554,0.211
2190888,6888.0,3308.0,-2994.0,0.582,0.556,-0.555,0.209
2190907,5964.0,2414.0,-1780.0,0.581,0.557,-0.556,0.207
2190916,6278.0,3842.0,-1882.0,0.58,0.558,-0.557,0.205
2190934,5610.0,3876.0,-1394.0,0.58,0.557,-0.559,0.202
2190952,7516.0,4796.0,-2454.0,0.578,0.557,-0.562,0.2
2190970,6904.0,3820.0,-3128.0,0.577,0.555,-0.565,0.199
2190988,7754.0,4846.0,-3238.0,0.577,0.552,-0.568,0.2
2191007,8624.0,4324.0,-2434.0,0.578,0.548,-0.571,0.199
2191026,7758.0,4062.0,-2356.0,0.58,0.543,-0.575,0.196
2191044,8016.0,1678.0,-2634.0,0.581,0.538,-0.579,0.195
2191063,7400.0,2212.0,-2172.0,0.58,0.537,-0.581,0.197
2191082,8464.0,5828.0,-2632.0,0.578,0.535,-0.583,0.199
2191090,9650.0,8802.0,-3990.0,0.58,0.529,-0.587,0.198
2191108,6960.0,4586.0,-2038.0,0.587,0.516,-0.593,0.192
2191127,7200.0,-1908.0,-1454.0,0.592,0.504,-0.6,0.188
2191144,8004.0,-272.0,-2182.0,0.593,0.5,-0.603,0.186
2191161,8188.0,4488.0,-2184.0,0.593,0.497,-0.605,0.186
2191179,8062.0,6162.0,-2294.0,0.593,0.491,-0.61,0.187
2191197,8400.0,5548.0,-2304.0,0.595,0.481,-0.616,0.188
2191215,8056.0,2946.0,-1822.0,0.599,0.468,-0.622,0.187
2191234,8826.0,-916.0,-1954.0,0.602,0.457,-0.628,0.186
2191252,8508.0,618.0,-1816.0,0.603,0.45,-0.631,0.187
2191271,8392.0,3068.0,-1698.0,0.604,0.445,-0.634,0.19
2191289,8800.0,4620.0,-1540.0,0.605,0.438,-0.637,0.194
2191308,9844.0,4074.0,-1404.0,0.605,0.428,-0.641,0.197
2191326,8780.0,2148.0,-1430.0,0.607,0.417,-0.646,0.2
2191335,9622.0,488.0,-1600.0,0.609,0.407,-0.65,0.202
2191353,9642.0,1534.0,-1156.0,0.61,0.4,-0.653,0.204
2191370,10008.0,2932.0,-720.0,0.61,0.392,-0.657,0.207
2191389,11350.0,3432.0,-1218.0,0.61,0.384,-0.66,0.209
2191407,11812.0,2740.0,-1734.0,0.611,0.376,-0.664,0.211
2191425,11624.0,104.0,-1248.0,0.612,0.368,-0.667,0.21
2191443,11944.0,218.0,-766.0,0.614,0.365,-0.668,0.209
2191461,11648.0,1608.0,-876.0,0.615,0.365,-0.668,0.207
2191479,11430.0,1852.0,-998.0,0.616,0.367,-0.668,0.203
2191496,11342.0,1630.0,-1258.0,0.616,0.37,-0.667,0.197
2191513,11018.0,2314.0,-1094.0,0.617,0.373,-0.666,0.19
2191531,11004.0,1978.0,-1376.0,0.618,0.378,-0.665,0.182
2191549,11224.0,2328.0,-1472.0,0.62,0.383,-0.663,0.173
2191566,11258.0,1964.0,-1608.0,0.621,0.388,-0.661,0.165
2191583,11128.0,2616.0,-1492.0,0.622,0.395,-0.657,0.157
2191601,10720.0,3502.0,-1548.0,0.624,0.402,-0.653,0.148
2191619,11100.0,3336.0,-1756.0,0.627,0.409,-0.649,0.139
2191637,10902.0,2972.0,-1480.0,0.629,0.416,-0.644,0.13
2191656,10620.0,3030.0,-1408.0,0.632,0.423,-0.638,0.123
2191675,10838.0,3188.0,-1552.0,0.634,0.431,-0.632,0.116
2191694,10672.0,3916.0,-1750.0,0.636,0.439,-0.625,0.11
2191703,10592.0,3878.0,-1950.0,0.638,0.447,-0.618,0.105
2191721,10130.0,3412.0,-1812.0,0.642,0.453,-0.61,0.101
2191739,9560.0,2840.0,-1490.0,0.645,0.46,-0.602,0.097
2191759,8394.0,3130.0,-1300.0,0.648,0.467,-0.594,0.095
2191778,7670.0,4134.0,-1286.0,0.651,0.473,-0.587,0.095
2191797,7320.0,3620.0,-1300.0,0.653,0.477,-0.581,0.096
2191816,6730.0,3746.0,-1178.0,0.655,0.48,-0.575,0.098
2191833,6518.0,3714.0,-1134.0,0.657,0.482,-0.571,0.103
2191841,5586.0,3126.0,-1082.0,0.658,0.483,-0.568,0.108
2191860,5354.0,3106.0,-1156.0,0.66,0.483,-0.564,0.115
2191878,5200.0,2920.0,-1416.0,0.661,0.483,-0.561,0.124
2191897,4434.0,3454.0,-1296.0,0.662,0.483,-0.557,0.135
2191916,3670.0,4160.0,-864.0,0.663,0.482,-0.554,0.145
2191934,2750.0,3688.0,-356.0,0.664,0.48,-0.552,0.155
2191952,2298.0,3676.0,-372.0,0.664,0.477,-0.552,0.164
2191970,1932.0,3828.0,-812.0,0.664,0.474,-0.552,0.171
2191989,2864.0,3786.0,-1072.0,0.664,0.471,-0.552,0.177
2192008,2412.0,2208.0,-1026.0,0.665,0.469,-0.552,0.182
2192017,1714.0,2572.0,-520.0,0.665,0.468,-0.551,0.187
2192035,2438.0,4316.0,-520.0,0.667,0.467,-0.549,0.188
2192053,2084.0,2364.0,-484.0,0.67,0.466,-0.547,0.188
2192071,2416.0,1748.0,-906.0,0.672,0.466,-0.544,0.188
2192090,3022.0,2240.0,-1206.0,0.673,0.469,-0.54,0.189
2192108,2724.0,4284.0,-280.0,0.674,0.473,-0.536,0.188
2192126,2462.0,4512.0,120.0,0.675,0.475,-0.533,0.186
2192142,3364.0,4532.0,-116.0,0.675,0.476,-0.533,0.182
2192159,3888.0,3354.0,-230.0,0.676,0.477,-0.534,0.177
2192177,3972.0,3040.0,-424.0,0.676,0.477,-0.535,0.17
2192195,4338.0,3676.0,-396.0,0.676,0.48,-0.536,0.162
2192213,4746.0,6112.0,-212.0,0.675,0.481,-0.537,0.154
2192232,4656.0,3892.0,-230.0,0.675,0.48,-0.541,0.145
2192251,5506.0,928.0,-916.0,0.674,0.481,-0.543,0.137
2192269,4944.0,3048.0,-602.0,0.672,0.486,-0.544,0.13
2192286,5714.0,8428.0,-224.0,0.669,0.49,-0.545,0.123
2192303,4596.0,6062.0,-320.0,0.67,0.488,-0.549,0.113
2192321,6172.0,3490.0,-1158.0,0.67,0.484,-0.553,0.103
2192339,6860.0,-534.0,-1646.0,0.669,0.484,-0.556,0.095
2192358,7084.0,5194.0,-930.0,0.665,0.49,-0.556,0.092
2192367,6862.0,10240.0,-718.0,0.663,0.49,-0.559,0.088
2192384,6036.0,5676.0,-844.0,0.663,0.485,-0.565,0.08
2192402,7900.0,166.0,-1636.0,0.664,0.479,-0.57,0.073
2192420,6712.0,1902.0,-1378.0,0.662,0.48,-0.572,0.07
2192438,7760.0,9266.0,-608.0,0.658,0.482,-0.574,0.069
2192456,7374.0,8472.0,-794.0,0.656,0.478,-0.581,0.067
2192476,8136.0,3156.0,-1102.0,0.654,0.471,-0.588,0.063
2192493,8250.0,136.0,-2054.0,0.654,0.467,-0.593,0.059
2192510,7802.0,2738.0,-1574.0,0.651,0.469,-0.594,0.059
2192528,7500.0,8204.0,-1072.0,0.648,0.47,-0.597,0.061
2192547,7148.0,7346.0,-954.0,0.646,0.465,-0.601,0.062
2192564,8752.0,5292.0,-1640.0,0.646,0.458,-0.607,0.063
2192581,8570.0,2428.0,-1798.0,0.646,0.451,-0.612,0.063
2192599,8040.0,1048.0,-1306.0,0.646,0.447,-0.615,0.066
2192616,7586.0,2942.0,-1106.0,0.644,0.446,-0.617,0.071
2192633,8914.0,7320.0,-1384.0,0.642,0.445,-0.62,0.077
2192650,9238.0,7504.0,-1392.0,0.642,0.439,-0.624,0.082
2192667,8436.0,2248.0,-1032.0,0.643,0.429,-0.629,0.085
2192685,8690.0,-56.0,-1066.0,0.643,0.424,-0.632,0.09
2192703,8446.0,3262.0,-1302.0,0.641,0.422,-0.634,0.095
2192721,8296.0,4680.0,-1054.0,0.64,0.42,-0.636,0.102
2192740,8650.0,3870.0,-1170.0,0.638,0.415,-0.639,0.109
2192759,8602.0,3386.0,-1156.0,0.637,0.409,-0.643,0.116
2192767,8504.0,2324.0,-846.0,0.635,0.403,-0.647,0.123
2192786,10102.0,2814.0,-1150.0,0.633,0.397,-0.652,0.13
2192804,10738.0,4034.0,-1504.0,0.632,0.39,-0.656,0.137
2192822,11360.0,2350.0,-1882.0,0.632,0.382,-0.659,0.144
2192840,11466.0,910.0,-1484.0,0.632,0.376,-0.661,0.151
2192859,10890.0,676.0,-506.0,0.631,0.374,-0.661,0.157
2192878,11072.0,1698.0,-818.0,0.63,0.375,-0.66,0.162
2192897,11498.0,2834.0,-1246.0,0.629,0.378,-0.659,0.166
2192916,11480.0,2674.0,-1348.0,0.628,0.381,-0.657,0.168
2192925,11306.0,1520.0,-1114.0,0.627,0.386,-0.655,0.168
2192943,11240.0,2524.0,-1098.0,0.626,0.392,-0.653,0.167
2192961,11132.0,2836.0,-1376.0,0.625,0.399,-0.65,0.165
2192979,11008.0,3048.0,-1718.0,0.625,0.406,-0.647,0.163
2192996,10550.0,3524.0,-1328.0,0.624,0.413,-0.643,0.16
2193015,10056.0,3784.0,-1412.0,0.624,0.42,-0.64,0.158
2193033,9648.0,2812.0,-1358.0,0.624,0.427,-0.636,0.155
2193051,9974.0,3012.0,-1698.0,0.624,0.435,-0.631,0.153
2193069,10076.0,4720.0,-2028.0,0.624,0.443,-0.626,0.151
2193087,9486.0,4144.0,-1888.0,0.624,0.45,-0.62,0.15
2193105,9378.0,3852.0,-1640.0,0.626,0.457,-0.614,0.149
2193123,9010.0,4148.0,-1616.0,0.627,0.465,-0.608,0.147
2193141,8240.0,4322.0,-1552.0,0.627,0.473,-0.601,0.145
2193161,8160.0,3932.0,-1588.0,0.628,0.48,-0.595,0.143
2193169,7392.0,4676.0,-1704.0,0.628,0.488,-0.589,0.142
2193187,7184.0,4738.0,-1802.0,0.628,0.494,-0.584,0.14
2193205,6852.0,4430.0,-1750.0,0.628,0.5,-0.58,0.14
2193223,7284.0,5120.0,-2024.0,0.628,0.505,-0.575,0.14
2193241,7132.0,5814.0,-1840.0,0.629,0.509,-0.572,0.14
2193259,6964.0,4272.0,-1718.0,0.63,0.511,-0.568,0.14
2193278,6782.0,4056.0,-1642.0,0.63,0.514,-0.565,0.141
2193297,6790.0,5632.0,-1670.0,0.631,0.516,-0.562,0.141
2193315,6540.0,5334.0,-1890.0,0.632,0.518,-0.559,0.142
2193333,6362.0,4702.0,-1656.0,0.634,0.518,-0.556,0.144
2193351,5668.0,3458.0,-1294.0,0.635,0.518,-0.554,0.146
2193369,6156.0,5342.0,-1896.0,0.636,0.519,-0.551,0.15
2193387,5312.0,4490.0,-1396.0,0.638,0.518,-0.549,0.153
2193405,5236.0,3956.0,-1792.0,0.64,0.516,-0.547,0.156
2193424,4760.0,3590.0,-1622.0,0.643,0.514,-0.544,0.161
2193434,3840.0,3340.0,-952.0,0.646,0.512,-0.541,0.166
2193451,3680.0,3186.0,-1296.0,0.649,0.511,-0.538,0.17
2193468,3034.0,3238.0,-1100.0,0.652,0.508,-0.535,0.173
2193486,2450.0,2270.0,-740.0,0.656,0.506,-0.533,0.174
2193503,1972.0,1908.0,-542.0,0.658,0.504,-0.531,0.176
2193521,1450.0,1272.0,-400.0,0.66,0.503,-0.53,0.176
2193540,660.0,624.0,-54.0,0.661,0.503,-0.529,0.175
2193558,1062.0,876.0,-216.0,0.661,0.504,-0.528,0.172
2193578,870.0,1080.0,-200.0,0.661,0.506,-0.528,0.169
2193596,1344.0,1100.0,-452.0,0.659,0.508,-0.529,0.166
2193615,1736.0,1500.0,-584.0,0.657,0.511,-0.53,0.162
2193623,2260.0,1280.0,-488.0,0.655,0.513,-0.532,0.159
2193642,2982.0,2580.0,-1052.0,0.652,0.517,-0.533,0.155
2193662,3026.0,1690.0,-522.0,0.649,0.52,-0.535,0.15
2193680,3146.0,3062.0,-678.0,0.645,0.523,-0.537,0.145
2193698,3802.0,3348.0,-1006.0,0.642,0.526,-0.54,0.14
2193716,4388.0,2844.0,-866.0,0.638,0.528,-0.544,0.136
2193733,4906.0,4620.0,-1838.0,0.633,0.531,-0.547,0.133
2193751,5178.0,4410.0,-1398.0,0.63,0.531,-0.551,0.13
2193768,6970.0,4892.0,-1238.0,0.628,0.531,-0.555,0.126
2193786,6874.0,4240.0,-2050.0,0.625,0.53,-0.56,0.123
2193804,7594.0,4278.0,-1968.0,0.623,0.529,-0.563,0.123
2193823,7048.0,4500.0,-1308.0,0.62,0.529,-0.566,0.122
2193842,7520.0,8398.0,-2042.0,0.619,0.527,-0.57,0.12
2193861,8856.0,6134.0,-2476.0,0.62,0.52,-0.575,0.118
2193870,7474.0,2442.0,-1780.0,0.62,0.515,-0.581,0.118
2193889,7698.0,2562.0,-1290.0,0.618,0.513,-0.584,0.119
2193909,8030.0,6344.0,-2590.0,0.616,0.511,-0.587,0.12
2193928,7438.0,6346.0,-1768.0,0.617,0.504,-0.592,0.12
2193946,7308.0,3794.0,-1574.0,0.617,0.498,-0.597,0.123
2193965,7066.0,2784.0,-1164.0,0.615,0.493,-0.603,0.126
2193973,7620.0,3042.0,-1642.0,0.611,0.489,-0.609,0.129
2193991,7502.0,6286.0,-2020.0,0.61,0.484,-0.614,0.13
2194011,8002.0,4954.0,-2058.0,0.61,0.475,-0.621,0.129
2194029,8076.0,3784.0,-2218.0,0.61,0.466,-0.628,0.13
2194047,9094.0,2438.0,-2280.0,0.61,0.457,-0.633,0.134
2194065,8224.0,3504.0,-2010.0,0.61,0.45,-0.637,0.14
2194082,7830.0,4162.0,-1640.0,0.611,0.442,-0.641,0.144
2194099,8208.0,3874.0,-1780.0,0.613,0.433,-0.645,0.147
2194115,10260.0,3680.0,-2494.0,0.614,0.423,-0.649,0.154
2194132,10256.0,3308.0,-2398.0,0.616,0.413,-0.651,0.163
2194150,9746.0,2660.0,-1352.0,0.618,0.403,-0.653,0.17
2194168,9512.0,2592.0,-964.0,0.62,0.394,-0.655,0.176
2194186,9942.0,3698.0,-1464.0,0.621,0.385,-0.657,0.182
2194203,10544.0,3792.0,-1536.0,0.623,0.375,-0.661,0.188
2194220,11004.0,2936.0,-950.0,0.623,0.365,-0.664,0.192
2194237,10750.0,1762.0,-1094.0,0.623,0.356,-0.668,0.195
2194254,10704.0,614.0,-978.0,0.623,0.35,-0.672,0.196
2194272,10432.0,1144.0,-726.0,0.622,0.346,-0.675,0.196
2194289,10162.0,1692.0,-1060.0,0.622,0.343,-0.677,0.193
2194308,9778.0,1592.0,-950.0,0.621,0.342,-0.679,0.19
2194326,9400.0,1404.0,-910.0,0.621,0.341,-0.681,0.186
2194344,9236.0,1294.0,-1046.0,0.62,0.341,-0.683,0.181
2194363,9338.0,1624.0,-1172.0,0.62,0.342,-0.684,0.177
2194380,9000.0,1408.0,-1264.0,0.62,0.342,-0.685,0.173
