timeMs,ax,ay,az,q0,q1,q2,q3
2904928,7969.0,1879.0,-36.0,0.7,0.141,-0.698,-0.051
2904947,8175.0,1807.0,-118.0,0.7,0.143,-0.697,-0.051
2904964,8095.0,1775.0,-84.0,0.701,0.145,-0.697,-0.051
2904985,8095.0,1875.0,-50.0,0.701,0.146,-0.696,-0.051
2905004,7987.0,1817.0,-34.0,0.701,0.148,-0.696,-0.05
2905023,8141.0,1923.0,-66.0,0.701,0.148,-0.696,-0.05
2905032,8161.0,1865.0,-74.0,0.701,0.149,-0.696,-0.05
2905049,8113.0,1769.0,-142.0,0.701,0.15,-0.696,-0.05
2905069,8115.0,1811.0,-108.0,0.701,0.151,-0.696,-0.05
2905089,8005.0,1779.0,50.0,0.701,0.151,-0.696,-0.05
2905108,7877.0,1817.0,64.0,0.7,0.152,-0.696,-0.05
2905128,8097.0,1617.0,-26.0,0.7,0.152,-0.696,-0.049
2905138,8097.0,1855.0,-106.0,0.7,0.152,-0.696,-0.048
2905156,7943.0,1867.0,-36.0,0.699,0.153,-0.697,-0.048
2905176,7875.0,1897.0,44.0,0.699,0.153,-0.697,-0.047
2905196,7887.0,1941.0,-30.0,0.698,0.153,-0.698,-0.046
2905215,7843.0,1963.0,30.0,0.698,0.152,-0.698,-0.045
2905225,7973.0,1997.0,-68.0,0.697,0.152,-0.699,-0.044
2905244,7993.0,2039.0,-76.0,0.697,0.151,-0.7,-0.043
2905264,8023.0,2063.0,-42.0,0.696,0.15,-0.701,-0.042
2905283,8035.0,1973.0,-50.0,0.696,0.149,-0.701,-0.041
2905303,8015.0,1987.0,96.0,0.696,0.147,-0.702,-0.04
2905313,8221.0,1947.0,52.0,0.695,0.146,-0.703,-0.039
2905333,8221.0,1913.0,-98.0,0.695,0.144,-0.704,-0.038
2905353,8177.0,1851.0,-2.0,0.695,0.143,-0.704,-0.037
2905372,8053.0,1811.0,162.0,0.694,0.141,-0.705,-0.036
2905381,8041.0,1915.0,226.0,0.694,0.14,-0.705,-0.035
2905401,8051.0,1739.0,100.0,0.694,0.139,-0.706,-0.035
2905419,8125.0,1835.0,-40.0,0.694,0.138,-0.706,-0.034
2905436,8015.0,1933.0,36.0,0.693,0.137,-0.707,-0.033
2905455,8003.0,1917.0,44.0,0.693,0.136,-0.707,-0.032
2905474,8067.0,1975.0,58.0,0.693,0.135,-0.707,-0.031
2905494,7985.0,1933.0,64.0,0.693,0.134,-0.708,-0.031
2905505,8001.0,1699.0,84.0,0.693,0.133,-0.708,-0.03
2905524,7885.0,1889.0,148.0,0.693,0.132,-0.708,-0.029
2905544,7991.0,1861.0,30.0,0.693,0.132,-0.708,-0.029
2905564,8011.0,1835.0,28.0,0.693,0.131,-0.708,-0.028
2905574,8129.0,1751.0,-22.0,0.693,0.131,-0.708,-0.027
2905594,8085.0,1799.0,-12.0,0.694,0.13,-0.708,-0.027
2905611,7985.0,1797.0,40.0,0.694,0.13,-0.708,-0.026
2905629,8079.0,1775.0,40.0,0.694,0.13,-0.707,-0.025
2905649,8105.0,1835.0,-78.0,0.695,0.13,-0.707,-0.024
2905666,8153.0,1881.0,-26.0,0.695,0.131,-0.707,-0.024
2905686,8075.0,1861.0,100.0,0.695,0.131,-0.706,-0.023
2905704,8109.0,1635.0,12.0,0.696,0.131,-0.706,-0.023
2905713,8167.0,1735.0,52.0,0.696,0.132,-0.705,-0.022
2905734,8185.0,1643.0,-40.0,0.697,0.133,-0.705,-0.021
2905753,8021.0,1809.0,-30.0,0.697,0.135,-0.704,-0.021
2905772,8053.0,1841.0,66.0,0.697,0.136,-0.703,-0.02
2905790,8041.0,1711.0,-18.0,0.698,0.138,-0.703,-0.019
2905812,7875.0,1795.0,78.0,0.698,0.139,-0.702,-0.019
2905822,8033.0,1805.0,26.0,0.698,0.141,-0.702,-0.018
2905844,8053.0,1823.0,-44.0,0.698,0.142,-0.702,-0.018
2905853,8031.0,1959.0,-38.0,0.698,0.144,-0.702,-0.017
2905873,8089.0,1837.0,-20.0,0.698,0.145,-0.701,-0.017
2905892,8089.0,1743.0,12.0,0.698,0.146,-0.701,-0.016
2905910,8149.0,1841.0,-16.0,0.698,0.147,-0.701,-0.016
2905930,7981.0,1759.0,12.0,0.698,0.149,-0.701,-0.016
2905951,8037.0,1723.0,58.0,0.698,0.15,-0.7,-0.015
2905962,8087.0,1743.0,-4.0,0.698,0.152,-0.7,-0.015
2905985,7941.0,1937.0,-38.0,0.698,0.153,-0.7,-0.015
2905997,7939.0,2035.0,-16.0,0.698,0.155,-0.7,-0.014
2906018,7925.0,1967.0,30.0,0.697,0.155,-0.7,-0.014
2906039,7913.0,1859.0,-10.0,0.697,0.156,-0.7,-0.014
2906049,7955.0,1835.0,16.0,0.697,0.156,-0.7,-0.015
2906067,7967.0,1869.0,-36.0,0.696,0.156,-0.7,-0.015
2906086,8035.0,1877.0,4.0,0.696,0.156,-0.701,-0.015
2906106,8081.0,1839.0,-58.0,0.696,0.156,-0.701,-0.016
2906116,8033.0,1777.0,-54.0,0.696,0.156,-0.701,-0.016
2906136,8133.0,1743.0,-160.0,0.696,0.155,-0.701,-0.017
2906155,8105.0,1775.0,-84.0,0.696,0.155,-0.701,-0.017
2906174,8071.0,1995.0,20.0,0.695,0.154,-0.702,-0.018
2906192,8025.0,1865.0,50.0,0.695,0.153,-0.702,-0.019
2906212,8087.0,1895.0,-36.0,0.695,0.152,-0.702,-0.02
2906222,8087.0,1815.0,-58.0,0.695,0.151,-0.702,-0.021
2906243,8119.0,1857.0,-8.0,0.695,0.15,-0.703,-0.022
2906263,8109.0,1897.0,-120.0,0.695,0.149,-0.703,-0.023
2906272,7893.0,1813.0,30.0,0.695,0.147,-0.704,-0.025
2906291,8021.0,1779.0,20.0,0.695,0.145,-0.704,-0.026
2906312,8049.0,1935.0,-92.0,0.694,0.143,-0.705,-0.027
2906332,8175.0,1913.0,-190.0,0.694,0.141,-0.705,-0.029
2906352,8145.0,1991.0,-114.0,0.694,0.139,-0.706,-0.03
2906362,8061.0,1975.0,-32.0,0.694,0.136,-0.706,-0.032
2906384,8091.0,1911.0,-24.0,0.694,0.134,-0.707,-0.034
2906405,8111.0,1857.0,-94.0,0.694,0.131,-0.707,-0.036
2906414,8161.0,1851.0,-96.0,0.694,0.128,-0.707,-0.037
2906435,8217.0,1747.0,-136.0,0.695,0.125,-0.707,-0.039
2906455,8143.0,1761.0,-64.0,0.695,0.122,-0.707,-0.041
2906465,8087.0,1755.0,-2.0,0.695,0.119,-0.707,-0.043
2906485,8051.0,1813.0,-24.0,0.696,0.117,-0.707,-0.044
2906502,8221.0,1823.0,-64.0,0.696,0.114,-0.707,-0.046
2906521,8157.0,1777.0,-148.0,0.696,0.112,-0.707,-0.048
2906542,8087.0,1769.0,-90.0,0.697,0.109,-0.707,-0.05
2906561,8025.0,1689.0,-50.0,0.697,0.107,-0.707,-0.052
2906571,8141.0,1681.0,-20.0,0.697,0.105,-0.707,-0.053
2906590,8149.0,1655.0,-116.0,0.698,0.103,-0.707,-0.055
2906609,8019.0,1723.0,-96.0,0.698,0.101,-0.706,-0.057
2906628,8027.0,1655.0,-22.0,0.698,0.1,-0.706,-0.059
2906647,8105.0,1621.0,-68.0,0.699,0.098,-0.706,-0.06
2906667,8141.0,1627.0,-114.0,0.699,0.096,-0.706,-0.061
2906679,8203.0,1635.0,-158.0,0.699,0.095,-0.706,-0.063
2906698,8073.0,1487.0,-66.0,0.699,0.094,-0.706,-0.064
2906716,8009.0,1585.0,10.0,0.7,0.093,-0.705,-0.065
2906735,7997.0,1561.0,56.0,0.7,0.093,-0.705,-0.066
2906745,8069.0,1555.0,-80.0,0.7,0.092,-0.705,-0.066
2906765,8037.0,1653.0,-172.0,0.7,0.092,-0.705,-0.067
2906785,8027.0,1689.0,-114.0,0.7,0.092,-0.705,-0.068
2906806,7965.0,1643.0,-72.0,0.7,0.092,-0.705,-0.068
2906816,7903.0,1649.0,-8.0,0.7,0.092,-0.705,-0.068
2906836,7945.0,1493.0,-26.0,0.7,0.092,-0.705,-0.068
2906857,7999.0,1699.0,-94.0,0.7,0.093,-0.705,-0.069
2906864,7909.0,1589.0,6.0,0.7,0.093,-0.705,-0.068
2906883,7861.0,1637.0,28.0,0.7,0.093,-0.705,-0.068
2906904,7947.0,1651.0,20.0,0.7,0.094,-0.705,-0.068
2906924,8029.0,1565.0,-44.0,0.7,0.095,-0.705,-0.067
2906945,8029.0,1621.0,-40.0,0.7,0.095,-0.705,-0.067
2906966,8003.0,1635.0,-16.0,0.699,0.096,-0.705,-0.066
2906975,8109.0,1599.0,-56.0,0.699,0.096,-0.706,-0.065
2906992,8111.0,1685.0,-14.0,0.699,0.097,-0.706,-0.065
2907010,8113.0,1717.0,56.0,0.698,0.098,-0.706,-0.064
2907028,8065.0,1785.0,10.0,0.698,0.098,-0.707,-0.063
2907047,8081.0,1667.0,28.0,0.697,0.099,-0.707,-0.063
2907065,8107.0,1625.0,2.0,0.697,0.1,-0.707,-0.062
2907083,8103.0,1567.0,-34.0,0.697,0.101,-0.708,-0.061
2907103,8135.0,1703.0,-80.0,0.696,0.101,-0.708,-0.061
2907111,8085.0,1667.0,-92.0,0.696,0.102,-0.708,-0.06
2907129,8049.0,1655.0,66.0,0.696,0.103,-0.708,-0.06
2907146,7987.0,1757.0,120.0,0.695,0.103,-0.709,-0.059
2907164,8049.0,1849.0,-68.0,0.695,0.104,-0.709,-0.058
2907181,8183.0,1677.0,-140.0,0.695,0.104,-0.709,-0.058
2907198,8123.0,1645.0,-14.0,0.694,0.104,-0.71,-0.058
2907217,8057.0,1749.0,22.0,0.694,0.104,-0.71,-0.057
2907236,8127.0,1781.0,44.0,0.694,0.104,-0.71,-0.057
2907256,8217.0,1691.0,-142.0,0.694,0.104,-0.71,-0.056
2907276,8171.0,1737.0,-78.0,0.694,0.104,-0.71,-0.056
2907297,8039.0,1675.0,40.0,0.694,0.104,-0.71,-0.056
2907307,8101.0,1759.0,-2.0,0.695,0.104,-0.71,-0.055
2907327,8073.0,1829.0,-54.0,0.695,0.104,-0.71,-0.055
2907347,8121.0,1845.0,-76.0,0.695,0.103,-0.71,-0.055
2907357,8091.0,1793.0,2.0,0.695,0.103,-0.709,-0.055
2907376,8017.0,1675.0,-36.0,0.695,0.103,-0.709,-0.055
2907397,8071.0,1595.0,-52.0,0.695,0.102,-0.709,-0.055
2907418,8071.0,1599.0,-60.0,0.696,0.102,-0.709,-0.055
2907428,8225.0,1649.0,-102.0,0.696,0.102,-0.709,-0.055
2907447,8227.0,1739.0,-142.0,0.696,0.102,-0.708,-0.055
2907466,8149.0,1743.0,-84.0,0.697,0.102,-0.708,-0.055
2907483,8015.0,1681.0,70.0,0.697,0.102,-0.707,-0.055
2907503,8013.0,1707.0,32.0,0.698,0.102,-0.707,-0.055
2907524,8049.0,1679.0,-108.0,0.698,0.101,-0.707,-0.055
2907536,8063.0,1699.0,-128.0,0.698,0.101,-0.707,-0.055
2907556,7997.0,1629.0,-122.0,0.698,0.102,-0.707,-0.055
2907567,7961.0,1673.0,-18.0,0.698,0.102,-0.707,-0.055
2907587,7999.0,1763.0,-44.0,0.698,0.102,-0.707,-0.054
2907607,8075.0,1741.0,-156.0,0.698,0.101,-0.707,-0.054
2907628,8087.0,1699.0,-124.0,0.698,0.101,-0.707,-0.054
2907638,8081.0,1705.0,-68.0,0.698,0.101,-0.707,-0.054
2907656,8067.0,1619.0,-60.0,0.698,0.102,-0.707,-0.054
2907674,8089.0,1739.0,-32.0,0.698,0.102,-0.707,-0.054
2907696,8135.0,1701.0,-50.0,0.698,0.102,-0.707,-0.054
2907707,8135.0,1725.0,-34.0,0.698,0.102,-0.707,-0.054
2907728,8155.0,1691.0,-18.0,0.698,0.103,-0.707,-0.054
2907747,8061.0,1689.0,-120.0,0.698,0.103,-0.707,-0.053
2907767,8127.0,1665.0,-24.0,0.698,0.103,-0.707,-0.053
2907778,8035.0,1647.0,4.0,0.698,0.104,-0.707,-0.053
2907799,8041.0,1679.0,-38.0,0.698,0.104,-0.707,-0.053
2907819,8137.0,1723.0,-112.0,0.698,0.105,-0.707,-0.053
2907831,7979.0,1719.0,-68.0,0.698,0.105,-0.707,-0.053
2907851,7971.0,1663.0,80.0,0.698,0.106,-0.707,-0.053
2907869,8015.0,1733.0,-4.0,0.697,0.106,-0.707,-0.053
2907886,7963.0,1721.0,-30.0,0.697,0.106,-0.707,-0.053
2907906,8057.0,1661.0,4.0,0.697,0.106,-0.707,-0.053
2907917,8025.0,1705.0,-20.0,0.697,0.107,-0.707,-0.053
2907937,7985.0,1715.0,32.0,0.697,0.107,-0.707,-0.053
2907957,8015.0,1753.0,126.0,0.697,0.107,-0.707,-0.053
2907978,8089.0,1681.0,-82.0,0.697,0.107,-0.707,-0.053
2907989,8109.0,1707.0,-30.0,0.697,0.106,-0.708,-0.052
2908009,8077.0,1741.0,-24.0,0.697,0.106,-0.708,-0.052
2908029,8085.0,1633.0,-42.0,0.697,0.106,-0.708,-0.052
2908041,8101.0,1747.0,-64.0,0.697,0.106,-0.708,-0.052
2908061,8037.0,1831.0,44.0,0.697,0.106,-0.708,-0.052
2908081,8173.0,1691.0,-28.0,0.697,0.106,-0.708,-0.052
2908090,8157.0,1663.0,-80.0,0.697,0.106,-0.708,-0.052
2908111,8079.0,1739.0,-28.0,0.697,0.106,-0.708,-0.052
2908131,8085.0,1699.0,-12.0,0.697,0.105,-0.708,-0.052
2908148,8107.0,1721.0,-20.0,0.697,0.105,-0.708,-0.052
2908167,8083.0,1643.0,-44.0,0.697,0.105,-0.708,-0.052
2908186,8145.0,1645.0,-60.0,0.697,0.105,-0.708,-0.051
2908196,8141.0,1691.0,-84.0,0.697,0.105,-0.708,-0.051
2908213,8153.0,1799.0,-80.0,0.697,0.105,-0.708,-0.051
2908233,8133.0,1659.0,52.0,0.697,0.105,-0.707,-0.051
2908250,8093.0,1723.0,102.0,0.697,0.105,-0.707,-0.051
2908268,8315.0,1731.0,-44.0,0.697,0.105,-0.707,-0.051
2908285,8259.0,1655.0,-18.0,0.697,0.105,-0.707,-0.052
2908302,8199.0,1693.0,-70.0,0.697,0.105,-0.707,-0.052
2908319,8281.0,1683.0,-28.0,0.697,0.105,-0.707,-0.052
2908336,8381.0,1899.0,44.0,0.698,0.106,-0.707,-0.052
2908354,8363.0,1941.0,144.0,0.698,0.106,-0.706,-0.052
2908371,8387.0,1765.0,-40.0,0.698,0.106,-0.706,-0.053
2908388,8287.0,1503.0,-30.0,0.699,0.106,-0.705,-0.053
2908405,7949.0,1533.0,178.0,0.699,0.107,-0.705,-0.053
2908422,7815.0,1769.0,204.0,0.7,0.107,-0.704,-0.054
2908439,7795.0,1893.0,116.0,0.7,0.108,-0.704,-0.054
2908456,7873.0,1947.0,58.0,0.7,0.108,-0.704,-0.055
2908473,7923.0,1899.0,60.0,0.7,0.108,-0.704,-0.056
2908490,7847.0,1835.0,104.0,0.7,0.108,-0.704,-0.057
2908507,7939.0,1725.0,102.0,0.7,0.107,-0.704,-0.058
2908524,7971.0,1591.0,84.0,0.7,0.107,-0.704,-0.059
2908541,7993.0,1747.0,2.0,0.7,0.107,-0.703,-0.06
2908559,8021.0,1821.0,-40.0,0.701,0.107,-0.703,-0.061
2908577,8097.0,1725.0,-58.0,0.701,0.107,-0.702,-0.062
2908594,7979.0,1803.0,96.0,0.702,0.107,-0.701,-0.064
2908611,8097.0,1697.0,68.0,0.703,0.106,-0.7,-0.066
2908628,8171.0,1775.0,-36.0,0.703,0.107,-0.7,-0.068
2908645,8125.0,1999.0,50.0,0.704,0.107,-0.699,-0.07
2908662,8087.0,1913.0,58.0,0.704,0.107,-0.699,-0.072
2908679,8191.0,1863.0,0.0,0.704,0.106,-0.698,-0.074
2908697,8023.0,1843.0,26.0,0.704,0.106,-0.698,-0.076
2908714,8081.0,1695.0,42.0,0.705,0.106,-0.697,-0.077
2908731,7965.0,1983.0,-40.0,0.705,0.106,-0.697,-0.079
2908748,7929.0,1953.0,-60.0,0.704,0.106,-0.697,-0.081
2908765,7863.0,2037.0,-52.0,0.704,0.106,-0.697,-0.083
2908783,7835.0,2177.0,58.0,0.704,0.106,-0.697,-0.085
2908802,7993.0,1963.0,-52.0,0.704,0.106,-0.697,-0.087
2908821,7903.0,2267.0,-130.0,0.703,0.107,-0.698,-0.088
2908839,7783.0,2419.0,-120.0,0.702,0.106,-0.698,-0.088
2908857,7915.0,2379.0,-94.0,0.702,0.105,-0.699,-0.089
2908874,7801.0,2247.0,-66.0,0.701,0.103,-0.7,-0.091
2908891,7845.0,1973.0,38.0,0.7,0.101,-0.7,-0.093
2908908,7961.0,1907.0,-24.0,0.7,0.1,-0.701,-0.096
2908926,7805.0,1935.0,-32.0,0.699,0.099,-0.702,-0.098
2908943,7635.0,2133.0,90.0,0.698,0.098,-0.702,-0.1
2908961,7845.0,2355.0,-8.0,0.697,0.098,-0.703,-0.103
2908980,7943.0,2279.0,-222.0,0.696,0.097,-0.704,-0.105
2908999,7943.0,2373.0,-122.0,0.695,0.096,-0.704,-0.108
2909017,8029.0,2323.0,-160.0,0.694,0.095,-0.705,-0.11
2909035,7975.0,2291.0,-104.0,0.693,0.094,-0.705,-0.113
2909054,7969.0,2237.0,-212.0,0.692,0.093,-0.706,-0.116
2909071,7923.0,2347.0,-200.0,0.692,0.092,-0.706,-0.119
2909089,7869.0,2409.0,-130.0,0.691,0.09,-0.707,-0.122
2909106,7855.0,2449.0,-152.0,0.69,0.089,-0.707,-0.125
2909124,7849.0,2241.0,-204.0,0.69,0.087,-0.707,-0.129
2909142,7655.0,2181.0,-42.0,0.689,0.085,-0.708,-0.132
2909160,7659.0,2275.0,84.0,0.688,0.083,-0.708,-0.136
2909178,7783.0,2465.0,-104.0,0.687,0.081,-0.708,-0.139
2909195,7833.0,2451.0,-244.0,0.686,0.078,-0.709,-0.142
2909213,7921.0,2235.0,-118.0,0.686,0.076,-0.709,-0.146
2909230,7913.0,2445.0,-34.0,0.685,0.073,-0.709,-0.149
2909247,7953.0,2367.0,-54.0,0.684,0.071,-0.71,-0.151
2909264,7797.0,2323.0,-22.0,0.684,0.069,-0.71,-0.154
2909281,8053.0,2143.0,316.0,0.683,0.067,-0.71,-0.156
2909299,7795.0,2155.0,508.0,0.683,0.067,-0.71,-0.158
2909316,7987.0,2661.0,508.0,0.683,0.067,-0.71,-0.159
2909333,8037.0,2757.0,498.0,0.683,0.066,-0.71,-0.16
2909350,8047.0,2807.0,332.0,0.683,0.066,-0.709,-0.161
2909367,7913.0,2895.0,256.0,0.683,0.066,-0.709,-0.162
2909384,7957.0,2579.0,144.0,0.684,0.065,-0.708,-0.164
2909401,8011.0,2451.0,-12.0,0.685,0.064,-0.707,-0.165
2909418,8005.0,2355.0,-64.0,0.686,0.064,-0.706,-0.166
2909434,7983.0,2337.0,-94.0,0.686,0.064,-0.705,-0.166
2909451,8073.0,2555.0,-98.0,0.687,0.064,-0.704,-0.166
2909468,7927.0,2503.0,-52.0,0.688,0.064,-0.704,-0.167
2909485,7981.0,2473.0,0.0,0.688,0.064,-0.703,-0.167
2909502,7873.0,2373.0,52.0,0.688,0.063,-0.703,-0.167
2909519,7835.0,2475.0,116.0,0.688,0.063,-0.703,-0.167
2909536,7699.0,2605.0,-44.0,0.688,0.063,-0.703,-0.167
2909553,7817.0,2797.0,-150.0,0.687,0.062,-0.704,-0.168
2909571,7895.0,2871.0,-106.0,0.687,0.061,-0.704,-0.169
2909588,7965.0,2719.0,-144.0,0.686,0.06,-0.705,-0.17
2909605,8085.0,2833.0,130.0,0.686,0.058,-0.705,-0.171
2909622,8105.0,2513.0,146.0,0.686,0.057,-0.705,-0.171
2909640,8049.0,2627.0,388.0,0.686,0.055,-0.705,-0.172
2909657,7903.0,2627.0,532.0,0.686,0.054,-0.705,-0.172
2909675,7861.0,2449.0,614.0,0.687,0.054,-0.704,-0.173
2909693,7837.0,2681.0,592.0,0.687,0.053,-0.703,-0.173
2909710,7785.0,2733.0,682.0,0.688,0.053,-0.702,-0.173
2909729,7955.0,2597.0,622.0,0.69,0.052,-0.701,-0.173
2909748,8071.0,2627.0,516.0,0.691,0.051,-0.7,-0.173
2909768,8027.0,2509.0,466.0,0.693,0.05,-0.698,-0.173
2909785,8137.0,2429.0,466.0,0.694,0.05,-0.697,-0.173
2909803,8173.0,2547.0,402.0,0.696,0.05,-0.695,-0.172
2909820,8093.0,2483.0,276.0,0.698,0.05,-0.694,-0.171
2909837,8163.0,2661.0,246.0,0.699,0.05,-0.692,-0.17
2909855,8071.0,2527.0,106.0,0.701,0.05,-0.691,-0.17
2909873,8091.0,2455.0,72.0,0.703,0.051,-0.689,-0.169
2909890,7809.0,2531.0,286.0,0.704,0.052,-0.688,-0.168
2909908,7775.0,2653.0,354.0,0.706,0.053,-0.686,-0.167
2909927,7555.0,2785.0,400.0,0.708,0.053,-0.685,-0.166
2909946,7539.0,2901.0,458.0,0.709,0.054,-0.683,-0.165
2909965,7475.0,2807.0,420.0,0.711,0.054,-0.682,-0.164
2909984,7639.0,2799.0,394.0,0.712,0.053,-0.681,-0.163
2910002,7679.0,2837.0,470.0,0.713,0.053,-0.68,-0.163
2910020,7749.0,2855.0,368.0,0.714,0.053,-0.679,-0.162
2910029,8113.0,2683.0,238.0,0.715,0.053,-0.678,-0.161
2910048,8127.0,2875.0,390.0,0.717,0.053,-0.676,-0.16
2910068,8025.0,2837.0,564.0,0.719,0.054,-0.674,-0.159
2910085,8109.0,2877.0,568.0,0.721,0.054,-0.673,-0.159
2910104,8031.0,2727.0,414.0,0.722,0.054,-0.671,-0.158
2910122,8007.0,2481.0,424.0,0.723,0.053,-0.67,-0.158
2910139,7995.0,2359.0,368.0,0.724,0.053,-0.669,-0.158
2910156,7875.0,2409.0,170.0,0.725,0.052,-0.668,-0.158
2910174,7717.0,2387.0,108.0,0.725,0.051,-0.668,-0.158
2910192,7441.0,2241.0,224.0,0.726,0.05,-0.667,-0.159
2910210,7291.0,2013.0,22.0,0.726,0.048,-0.667,-0.159
2910230,7179.0,2181.0,256.0,0.726,0.047,-0.667,-0.16
2910239,7273.0,2443.0,312.0,0.726,0.044,-0.667,-0.161
2910256,7271.0,1897.0,350.0,0.725,0.04,-0.668,-0.163
2910274,7555.0,1765.0,248.0,0.725,0.037,-0.668,-0.164
2910293,7775.0,1977.0,488.0,0.724,0.033,-0.669,-0.165
2910310,7901.0,1823.0,688.0,0.724,0.029,-0.669,-0.166
2910329,8049.0,1761.0,802.0,0.724,0.025,-0.669,-0.166
2910348,8217.0,1953.0,912.0,0.723,0.02,-0.67,-0.167
2910366,8289.0,1797.0,978.0,0.723,0.015,-0.67,-0.168
2910384,8487.0,1393.0,890.0,0.722,0.01,-0.67,-0.169
2910403,8379.0,1141.0,962.0,0.722,0.005,-0.67,-0.17
2910422,8365.0,909.0,1004.0,0.722,0.001,-0.67,-0.171
2910430,8373.0,991.0,1010.0,0.722,-0.002,-0.67,-0.171
2910449,8141.0,1077.0,948.0,0.722,-0.005,-0.67,-0.171
2910468,8141.0,1061.0,1060.0,0.722,-0.007,-0.67,-0.171
2910488,8087.0,1077.0,1148.0,0.722,-0.01,-0.67,-0.171
2910507,8147.0,1049.0,1090.0,0.722,-0.012,-0.67,-0.17
2910526,8287.0,937.0,998.0,0.723,-0.014,-0.67,-0.169
2910545,8255.0,909.0,964.0,0.723,-0.015,-0.67,-0.168
2910555,8147.0,901.0,1070.0,0.724,-0.016,-0.669,-0.166
2910573,8175.0,1081.0,1208.0,0.724,-0.017,-0.669,-0.165
2910591,8273.0,1043.0,1244.0,0.725,-0.018,-0.669,-0.163
2910610,8385.0,827.0,1358.0,0.726,-0.019,-0.669,-0.16
2910628,8513.0,611.0,1584.0,0.726,-0.019,-0.668,-0.158
2910647,8539.0,489.0,1870.0,0.728,-0.018,-0.668,-0.155
2910667,8517.0,447.0,2090.0,0.729,-0.017,-0.667,-0.152
2910686,8483.0,575.0,2046.0,0.731,-0.015,-0.665,-0.149
2910695,8445.0,619.0,2240.0,0.734,-0.013,-0.664,-0.146
2910712,8285.0,817.0,2208.0,0.736,-0.01,-0.662,-0.142
2910731,8121.0,1019.0,2038.0,0.738,-0.007,-0.66,-0.139
2910750,7987.0,1053.0,1920.0,0.741,-0.004,-0.658,-0.135
2910768,7831.0,1037.0,1870.0,0.743,-0.001,-0.656,-0.132
2910786,7605.0,1121.0,1842.0,0.745,0.002,-0.654,-0.129
2910805,7541.0,1351.0,1600.0,0.747,0.006,-0.652,-0.126
2910823,7363.0,1443.0,1448.0,0.749,0.01,-0.65,-0.124
2910840,7219.0,1457.0,1366.0,0.751,0.014,-0.649,-0.122
2910857,7179.0,1637.0,1236.0,0.753,0.019,-0.647,-0.12
2910875,6805.0,1895.0,1254.0,0.754,0.023,-0.646,-0.118
2910892,6637.0,1847.0,1024.0,0.754,0.028,-0.645,-0.117
2910910,6741.0,1941.0,908.0,0.755,0.031,-0.645,-0.116
2910929,6753.0,2097.0,746.0,0.754,0.034,-0.646,-0.116
2910939,6965.0,2009.0,732.0,0.753,0.036,-0.646,-0.116
2910957,7165.0,2095.0,844.0,0.752,0.037,-0.648,-0.116
2910975,7451.0,1975.0,904.0,0.75,0.037,-0.65,-0.117
2910994,7579.0,1609.0,646.0,0.748,0.036,-0.653,-0.119
2911013,7999.0,1445.0,784.0,0.745,0.035,-0.655,-0.121
2911031,8139.0,1047.0,922.0,0.743,0.034,-0.658,-0.123
2911049,8281.0,831.0,1118.0,0.74,0.034,-0.66,-0.126
2911068,8729.0,1155.0,1264.0,0.737,0.035,-0.663,-0.129
2911086,9097.0,1169.0,1442.0,0.734,0.036,-0.665,-0.133
2911093,9325.0,1723.0,1788.0,0.731,0.036,-0.667,-0.136
2911110,9599.0,1445.0,2726.0,0.729,0.036,-0.669,-0.14
2911128,9551.0,1269.0,2724.0,0.728,0.035,-0.669,-0.143
2911146,8935.0,1663.0,2236.0,0.728,0.033,-0.669,-0.146
2911164,8335.0,1703.0,1964.0,0.729,0.031,-0.667,-0.149
2911181,7949.0,1479.0,1396.0,0.73,0.029,-0.666,-0.151
2911198,7603.0,1577.0,1276.0,0.732,0.027,-0.664,-0.153
2911215,7419.0,1411.0,1004.0,0.733,0.026,-0.662,-0.154
2911232,7281.0,1667.0,760.0,0.734,0.026,-0.661,-0.154
2911249,7331.0,2201.0,656.0,0.734,0.026,-0.661,-0.154
2911266,7355.0,2497.0,456.0,0.734,0.027,-0.661,-0.154
2911283,7311.0,2357.0,366.0,0.733,0.027,-0.661,-0.155
2911300,7377.0,2161.0,338.0,0.732,0.028,-0.662,-0.155
2911317,7517.0,2429.0,318.0,0.731,0.029,-0.664,-0.155
2911334,7571.0,2277.0,314.0,0.729,0.031,-0.666,-0.155
2911352,7723.0,2329.0,660.0,0.727,0.034,-0.668,-0.155
2911370,7659.0,2439.0,684.0,0.725,0.038,-0.67,-0.154
2911389,7675.0,2607.0,776.0,0.723,0.042,-0.672,-0.153
2911407,8091.0,2663.0,1114.0,0.721,0.045,-0.675,-0.153
2911426,8053.0,2439.0,1300.0,0.719,0.049,-0.677,-0.152
2911444,8195.0,2335.0,1318.0,0.717,0.052,-0.679,-0.151
2911463,8057.0,2191.0,1342.0,0.715,0.055,-0.68,-0.149
2911481,8105.0,2291.0,1284.0,0.714,0.058,-0.682,-0.148
2911500,8037.0,2455.0,1106.0,0.713,0.06,-0.683,-0.146
2911518,7937.0,2651.0,958.0,0.712,0.062,-0.685,-0.145
2911536,7843.0,2617.0,692.0,0.711,0.063,-0.686,-0.144
2911555,7823.0,2751.0,552.0,0.71,0.064,-0.687,-0.143
2911573,7817.0,2741.0,444.0,0.708,0.064,-0.688,-0.143
2911591,7835.0,2661.0,278.0,0.707,0.064,-0.689,-0.143
2911610,7811.0,2697.0,276.0,0.706,0.064,-0.69,-0.143
2911628,7827.0,2381.0,504.0,0.705,0.064,-0.691,-0.143
2911638,7895.0,2163.0,646.0,0.705,0.066,-0.692,-0.142
2911656,7933.0,2837.0,652.0,0.704,0.067,-0.693,-0.142
2911674,8109.0,3053.0,722.0,0.704,0.068,-0.693,-0.142
2911694,8727.0,2953.0,1496.0,0.703,0.07,-0.693,-0.142
2911711,8115.0,2775.0,982.0,0.703,0.07,-0.693,-0.143
2911730,7981.0,2739.0,522.0,0.704,0.071,-0.692,-0.144
2911750,7983.0,2929.0,494.0,0.704,0.071,-0.692,-0.144
2911759,8017.0,2631.0,430.0,0.704,0.071,-0.691,-0.145
2911778,8029.0,2601.0,194.0,0.705,0.071,-0.691,-0.146
2911797,7895.0,2503.0,382.0,0.705,0.071,-0.69,-0.146
2911816,7917.0,2347.0,422.0,0.706,0.072,-0.69,-0.147
2911835,7903.0,2579.0,324.0,0.706,0.072,-0.689,-0.147
2911854,7781.0,2553.0,334.0,0.706,0.072,-0.689,-0.147
2911871,7859.0,2637.0,312.0,0.706,0.072,-0.689,-0.147
2911890,7831.0,2525.0,344.0,0.706,0.073,-0.689,-0.148
2911900,7867.0,2477.0,374.0,0.706,0.073,-0.688,-0.148
2911919,7911.0,2637.0,314.0,0.707,0.073,-0.688,-0.149
2911938,7805.0,2565.0,326.0,0.707,0.073,-0.688,-0.149
2911956,7829.0,2681.0,332.0,0.707,0.073,-0.687,-0.15
2911974,7757.0,2681.0,408.0,0.707,0.073,-0.687,-0.151
2911993,7761.0,2459.0,364.0,0.707,0.072,-0.687,-0.152
2912012,7843.0,2399.0,322.0,0.708,0.072,-0.686,-0.152
2912021,7831.0,2437.0,304.0,0.708,0.071,-0.686,-0.153
2912039,7877.0,2429.0,282.0,0.708,0.071,-0.686,-0.154
2912057,7945.0,2497.0,382.0,0.708,0.07,-0.686,-0.155
2912076,7817.0,2367.0,388.0,0.708,0.069,-0.685,-0.156
2912095,7837.0,2455.0,414.0,0.708,0.068,-0.685,-0.157
2912115,8007.0,2471.0,270.0,0.708,0.067,-0.685,-0.158
2912133,7833.0,2457.0,432.0,0.708,0.066,-0.685,-0.159
2912151,7871.0,2215.0,420.0,0.708,0.064,-0.685,-0.161
2912168,7917.0,2237.0,260.0,0.708,0.063,-0.685,-0.162
2912187,7809.0,2603.0,286.0,0.708,0.063,-0.685,-0.163
2912196,7709.0,2513.0,360.0,0.708,0.062,-0.685,-0.164
2912214,7733.0,2225.0,400.0,0.707,0.061,-0.685,-0.166
2912234,7843.0,2403.0,410.0,0.707,0.06,-0.685,-0.167
2912253,7735.0,2377.0,470.0,0.706,0.059,-0.685,-0.168
2912272,7789.0,2423.0,516.0,0.706,0.058,-0.685,-0.169
2912290,7923.0,2395.0,480.0,0.706,0.057,-0.686,-0.17
2912308,7927.0,2529.0,518.0,0.705,0.056,-0.686,-0.17
2912327,7833.0,2221.0,680.0,0.705,0.054,-0.686,-0.17
2912337,7955.0,2111.0,678.0,0.705,0.053,-0.686,-0.17
2912354,8023.0,2143.0,596.0,0.705,0.052,-0.687,-0.17
2912373,8063.0,2351.0,604.0,0.705,0.052,-0.687,-0.17
2912390,7953.0,2267.0,584.0,0.705,0.051,-0.687,-0.17
2912408,8053.0,2299.0,562.0,0.705,0.051,-0.687,-0.169
2912426,7979.0,2437.0,512.0,0.705,0.051,-0.687,-0.168
2912445,7867.0,2505.0,564.0,0.705,0.051,-0.687,-0.167
2912464,7887.0,2355.0,666.0,0.705,0.052,-0.687,-0.166
2912484,7903.0,2451.0,632.0,0.706,0.052,-0.687,-0.165
2912494,7977.0,2433.0,514.0,0.706,0.052,-0.687,-0.164
2912512,7925.0,2333.0,590.0,0.706,0.052,-0.687,-0.163
2912530,7927.0,2285.0,608.0,0.706,0.052,-0.687,-0.162
2912548,7937.0,2283.0,608.0,0.707,0.052,-0.687,-0.161
2912567,7919.0,2347.0,610.0,0.707,0.052,-0.687,-0.16
2912585,7943.0,2385.0,588.0,0.707,0.053,-0.687,-0.159
2912602,8009.0,2267.0,628.0,0.708,0.052,-0.686,-0.158
2912620,7937.0,2183.0,668.0,0.708,0.053,-0.686,-0.157
2912638,7965.0,2261.0,720.0,0.709,0.053,-0.686,-0.156
2912655,7851.0,2223.0,726.0,0.71,0.053,-0.685,-0.155
2912673,7963.0,2241.0,692.0,0.71,0.053,-0.685,-0.154
2912690,7965.0,2313.0,650.0,0.711,0.054,-0.684,-0.153
2912707,7915.0,2297.0,644.0,0.712,0.054,-0.684,-0.153
2912726,7931.0,2243.0,606.0,0.712,0.054,-0.683,-0.152
2912744,7933.0,2303.0,674.0,0.713,0.054,-0.682,-0.151
2912764,7837.0,2257.0,620.0,0.714,0.054,-0.682,-0.151
2912775,7881.0,2181.0,510.0,0.715,0.054,-0.681,-0.15
2912793,7883.0,2103.0,554.0,0.715,0.054,-0.681,-0.149
2912811,7821.0,2101.0,606.0,0.716,0.055,-0.68,-0.149
2912830,7825.0,2185.0,654.0,0.716,0.055,-0.68,-0.148
2912849,7881.0,2325.0,640.0,0.717,0.055,-0.679,-0.148
2912868,7999.0,2075.0,446.0,0.717,0.055,-0.679,-0.148
2912887,8003.0,2071.0,452.0,0.717,0.055,-0.679,-0.147
2912895,8039.0,2057.0,456.0,0.718,0.055,-0.679,-0.146
2912914,7923.0,2105.0,634.0,0.718,0.056,-0.678,-0.146
2912933,7827.0,2069.0,796.0,0.719,0.056,-0.678,-0.145
2912952,7713.0,2105.0,818.0,0.719,0.056,-0.678,-0.145
2912971,7745.0,2033.0,774.0,0.719,0.056,-0.678,-0.144
2912989,7795.0,2125.0,616.0,0.719,0.056,-0.678,-0.143
2913007,7867.0,2125.0,574.0,0.719,0.056,-0.678,-0.143
2913026,7883.0,1935.0,676.0,0.719,0.056,-0.678,-0.142
2913035,7903.0,2025.0,658.0,0.719,0.056,-0.678,-0.141
2913054,7849.0,2145.0,800.0,0.719,0.057,-0.678,-0.14
2913072,7939.0,2133.0,698.0,0.719,0.057,-0.678,-0.139
2913091,7913.0,2221.0,712.0,0.719,0.058,-0.679,-0.139
2913109,7803.0,2039.0,954.0,0.719,0.058,-0.679,-0.138
2913127,7975.0,2139.0,708.0,0.719,0.058,-0.679,-0.138
2913146,7985.0,2273.0,646.0,0.719,0.058,-0.679,-0.137
2913166,7931.0,2175.0,774.0,0.719,0.058,-0.679,-0.137
2913174,7863.0,2151.0,848.0,0.718,0.058,-0.68,-0.137
2913192,8005.0,2255.0,740.0,0.718,0.058,-0.68,-0.136
2913210,7911.0,2155.0,808.0,0.718,0.058,-0.68,-0.136
2913230,8001.0,2191.0,892.0,0.718,0.058,-0.68,-0.137
2913249,7953.0,2147.0,714.0,0.718,0.058,-0.68,-0.137
2913267,7921.0,2117.0,764.0,0.718,0.058,-0.68,-0.137
2913286,7853.0,2081.0,808.0,0.718,0.058,-0.68,-0.137
2913305,7909.0,2137.0,900.0,0.718,0.057,-0.68,-0.137
2913324,7857.0,2237.0,832.0,0.717,0.057,-0.681,-0.137
2913334,8027.0,2125.0,746.0,0.717,0.057,-0.681,-0.138
2913352,7869.0,2105.0,764.0,0.717,0.057,-0.681,-0.138
2913371,7981.0,2193.0,782.0,0.717,0.056,-0.681,-0.138
2913389,7923.0,2243.0,762.0,0.717,0.056,-0.681,-0.139
2913406,7951.0,2227.0,682.0,0.717,0.056,-0.681,-0.139
2913423,7933.0,2241.0,674.0,0.716,0.055,-0.681,-0.139
2913441,7909.0,2137.0,704.0,0.716,0.055,-0.682,-0.14
2913458,7931.0,2125.0,694.0,0.716,0.054,-0.682,-0.14
2913474,7893.0,2205.0,664.0,0.716,0.054,-0.682,-0.141
2913491,7981.0,2177.0,606.0,0.716,0.054,-0.682,-0.141
2913508,7959.0,2135.0,732.0,0.716,0.053,-0.682,-0.142
2913525,7973.0,2075.0,732.0,0.715,0.053,-0.682,-0.142
2913543,7959.0,2183.0,610.0,0.715,0.053,-0.682,-0.142
2913562,7941.0,2127.0,686.0,0.715,0.052,-0.682,-0.143
2913581,7943.0,2147.0,720.0,0.715,0.052,-0.682,-0.143
2913601,7891.0,2161.0,638.0,0.715,0.052,-0.682,-0.144
2913620,7951.0,2123.0,574.0,0.715,0.052,-0.682,-0.144
2913629,7909.0,2269.0,646.0,0.715,0.052,-0.682,-0.144
2913647,7923.0,2227.0,670.0,0.715,0.052,-0.682,-0.145
2913666,7971.0,2201.0,488.0,0.715,0.051,-0.682,-0.146
2913685,7915.0,2011.0,630.0,0.714,0.051,-0.682,-0.146
2913704,7977.0,2123.0,592.0,0.714,0.051,-0.683,-0.147
2913722,7961.0,2073.0,550.0,0.714,0.05,-0.683,-0.147
2913740,7941.0,2073.0,694.0,0.714,0.05,-0.683,-0.148
2913758,7925.0,2079.0,628.0,0.713,0.05,-0.683,-0.149
2913778,7955.0,2165.0,594.0,0.713,0.049,-0.683,-0.149
2913788,7933.0,2049.0,700.0,0.713,0.049,-0.683,-0.15
2913806,7945.0,2015.0,696.0,0.713,0.049,-0.683,-0.151
2913824,7935.0,2107.0,562.0,0.713,0.048,-0.683,-0.151
2913842,7959.0,2191.0,654.0,0.712,0.048,-0.683,-0.152
2913860,7935.0,2151.0,792.0,0.712,0.047,-0.684,-0.153
2913879,8025.0,2103.0,648.0,0.712,0.047,-0.684,-0.153
2913897,8033.0,2019.0,554.0,0.712,0.047,-0.684,-0.154
2913916,8031.0,1969.0,600.0,0.712,0.046,-0.684,-0.155
2913934,7997.0,1931.0,750.0,0.712,0.047,-0.684,-0.155
2913952,7985.0,2011.0,730.0,0.712,0.047,-0.684,-0.156
2913961,7967.0,1955.0,622.0,0.711,0.047,-0.684,-0.156
2913978,7943.0,2151.0,708.0,0.711,0.047,-0.684,-0.156
2913997,7989.0,2079.0,666.0,0.711,0.048,-0.684,-0.156
2914016,7781.0,1909.0,594.0,0.711,0.048,-0.684,-0.157
2914035,7855.0,1717.0,506.0,0.711,0.048,-0.684,-0.157
2914052,7843.0,1933.0,242.0,0.711,0.049,-0.684,-0.156
2914070,7841.0,2133.0,122.0,0.711,0.05,-0.684,-0.156
2914088,7995.0,2253.0,-122.0,0.711,0.05,-0.684,-0.156
2914106,7411.0,2067.0,112.0,0.711,0.051,-0.684,-0.155
2914123,7715.0,2305.0,-44.0,0.711,0.052,-0.684,-0.154
2914141,7595.0,2431.0,-62.0,0.711,0.053,-0.685,-0.153
2914160,7643.0,2475.0,-144.0,0.71,0.054,-0.686,-0.152
2914178,7667.0,2335.0,-122.0,0.709,0.054,-0.687,-0.151
2914196,7693.0,2369.0,92.0,0.708,0.054,-0.688,-0.149
2914214,7741.0,2537.0,172.0,0.707,0.054,-0.69,-0.148
2914224,7929.0,2397.0,118.0,0.705,0.054,-0.692,-0.146
2914242,8095.0,2297.0,154.0,0.704,0.054,-0.694,-0.144
2914260,8077.0,2305.0,408.0,0.702,0.055,-0.696,-0.141
2914278,7983.0,2455.0,588.0,0.7,0.056,-0.698,-0.138
2914297,7961.0,2437.0,790.0,0.699,0.058,-0.7,-0.134
2914316,7931.0,2531.0,694.0,0.697,0.06,-0.702,-0.131
2914334,7831.0,2521.0,792.0,0.696,0.062,-0.704,-0.127
2914351,7903.0,2685.0,682.0,0.695,0.064,-0.706,-0.123
2914370,7737.0,2615.0,470.0,0.694,0.065,-0.707,-0.119
2914388,7739.0,2209.0,440.0,0.693,0.067,-0.709,-0.114
2914407,7681.0,1781.0,412.0,0.692,0.069,-0.71,-0.109
2914415,7711.0,2019.0,76.0,0.692,0.072,-0.711,-0.103
2914433,7869.0,2265.0,-128.0,0.691,0.075,-0.712,-0.097
2914451,8059.0,2435.0,-240.0,0.691,0.078,-0.713,-0.09
2914470,8291.0,2559.0,-228.0,0.691,0.081,-0.714,-0.083
2914488,8421.0,2251.0,-290.0,0.691,0.083,-0.714,-0.076
2914506,8457.0,2077.0,-290.0,0.691,0.086,-0.714,-0.069
2914524,8331.0,1995.0,-272.0,0.692,0.089,-0.714,-0.061
2914542,8019.0,1869.0,-242.0,0.692,0.092,-0.714,-0.053
2914559,7787.0,1755.0,-214.0,0.692,0.096,-0.715,-0.045
2914577,7677.0,1935.0,-308.0,0.691,0.1,-0.715,-0.037
2914595,7629.0,2147.0,-294.0,0.69,0.104,-0.716,-0.03
2914612,7411.0,2077.0,-146.0,0.689,0.107,-0.716,-0.023
2914630,7401.0,1893.0,-154.0,0.688,0.11,-0.717,-0.016
2914649,7607.0,1693.0,-398.0,0.686,0.112,-0.719,-0.01
2914668,7579.0,1719.0,-492.0,0.685,0.115,-0.72,-0.003
2914687,7713.0,1939.0,-470.0,0.684,0.117,-0.72,0.003
2914695,7761.0,1879.0,-474.0,0.682,0.12,-0.721,0.009
2914713,7979.0,1657.0,-592.0,0.681,0.122,-0.722,0.015
2914731,8217.0,1369.0,-636.0,0.68,0.125,-0.722,0.02
2914749,8291.0,1355.0,-490.0,0.679,0.129,-0.722,0.026
2914768,8239.0,1535.0,-342.0,0.678,0.132,-0.722,0.031
2914787,8181.0,1709.0,-316.0,0.677,0.136,-0.722,0.035
2914805,8265.0,1649.0,-370.0,0.676,0.14,-0.722,0.037
2914822,8219.0,1463.0,-436.0,0.675,0.144,-0.723,0.04
2914839,8125.0,1225.0,-442.0,0.673,0.147,-0.723,0.041
2914856,8005.0,1059.0,-528.0,0.672,0.152,-0.724,0.042
2914873,7833.0,973.0,-512.0,0.67,0.157,-0.724,0.043
2914891,7727.0,1109.0,-490.0,0.669,0.162,-0.724,0.044
2914909,7745.0,1285.0,-550.0,0.666,0.169,-0.725,0.045
2914927,7565.0,1413.0,-430.0,0.664,0.175,-0.726,0.045
2914945,7679.0,1521.0,-532.0,0.662,0.181,-0.726,0.044
2914963,7583.0,1105.0,-636.0,0.659,0.186,-0.727,0.044
2914981,7367.0,769.0,-664.0,0.656,0.193,-0.728,0.044
2914999,7659.0,693.0,-700.0,0.654,0.2,-0.728,0.045
2915018,7897.0,693.0,-1088.0,0.651,0.208,-0.728,0.045
2915027,8033.0,677.0,-1126.0,0.65,0.216,-0.727,0.046
2915045,7807.0,447.0,-1486.0,0.649,0.226,-0.725,0.048
2915063,7631.0,1119.0,-1422.0,0.649,0.237,-0.722,0.051
2915081,7157.0,1945.0,-1004.0,0.649,0.247,-0.718,0.053
2915099,6935.0,1969.0,-686.0,0.649,0.255,-0.715,0.053
2915117,6985.0,1655.0,-512.0,0.649,0.262,-0.712,0.052
2915135,6697.0,1153.0,-360.0,0.649,0.269,-0.71,0.05
2915154,6797.0,855.0,-632.0,0.648,0.276,-0.708,0.048
2915172,7023.0,701.0,-856.0,0.647,0.283,-0.707,0.046
2915190,7231.0,1101.0,-1034.0,0.646,0.291,-0.705,0.045
2915208,7311.0,1313.0,-900.0,0.645,0.299,-0.702,0.045
2915227,7081.0,1729.0,-768.0,0.644,0.307,-0.7,0.045
2915245,7107.0,1801.0,-810.0,0.643,0.314,-0.697,0.046
2915254,7525.0,1553.0,-1116.0,0.642,0.32,-0.695,0.047
2915271,7813.0,1529.0,-1276.0,0.642,0.327,-0.692,0.049
2915288,7941.0,2041.0,-1162.0,0.642,0.333,-0.689,0.051
2915305,8005.0,2355.0,-1140.0,0.641,0.339,-0.686,0.055
2915322,8353.0,2411.0,-1248.0,0.641,0.344,-0.683,0.059
2915340,8665.0,2667.0,-1376.0,0.641,0.349,-0.681,0.064
2915358,8689.0,2919.0,-1392.0,0.641,0.352,-0.679,0.069
2915376,8809.0,2901.0,-1260.0,0.641,0.354,-0.677,0.074
2915395,8657.0,2515.0,-1278.0,0.641,0.356,-0.676,0.08
2915414,8597.0,2221.0,-1166.0,0.64,0.358,-0.674,0.085
2915433,8425.0,2649.0,-1098.0,0.639,0.359,-0.674,0.091
2915451,8365.0,2833.0,-1144.0,0.638,0.361,-0.673,0.095
2915469,8623.0,2829.0,-1406.0,0.637,0.361,-0.674,0.099
2915486,8641.0,2653.0,-1400.0,0.636,0.361,-0.674,0.103
2915504,8683.0,2763.0,-1408.0,0.635,0.361,-0.675,0.107
2915522,8775.0,2653.0,-1442.0,0.634,0.36,-0.675,0.111
2915539,9029.0,2579.0,-1580.0,0.633,0.359,-0.676,0.115
2915557,8885.0,2447.0,-1610.0,0.632,0.357,-0.677,0.12
2915575,8819.0,2633.0,-1634.0,0.631,0.355,-0.678,0.125
2915593,8513.0,2677.0,-1440.0,0.631,0.352,-0.679,0.131
2915611,8119.0,2737.0,-1282.0,0.63,0.349,-0.68,0.137
2915629,7833.0,2345.0,-1130.0,0.629,0.345,-0.682,0.142
2915648,7611.0,1979.0,-1200.0,0.628,0.34,-0.684,0.147
2915656,7505.0,2231.0,-1246.0,0.627,0.336,-0.686,0.152
2915674,7469.0,2225.0,-1234.0,0.625,0.332,-0.689,0.156
2915692,7557.0,2163.0,-1294.0,0.624,0.327,-0.692,0.159
2915710,7825.0,2127.0,-1330.0,0.622,0.322,-0.695,0.162
2915728,7897.0,2235.0,-1156.0,0.62,0.317,-0.698,0.165
2915747,8031.0,1767.0,-1274.0,0.619,0.312,-0.702,0.166
2915766,8455.0,1561.0,-1422.0,0.617,0.307,-0.705,0.167
2915785,8349.0,1875.0,-1508.0,0.616,0.303,-0.707,0.169
2915804,8175.0,2059.0,-1342.0,0.615,0.299,-0.709,0.17
2915821,8233.0,1761.0,-1264.0,0.614,0.295,-0.712,0.171
2915838,8345.0,1715.0,-1212.0,0.614,0.291,-0.713,0.172
2915855,8345.0,1805.0,-1268.0,0.613,0.288,-0.715,0.172
2915873,8343.0,1957.0,-1314.0,0.613,0.284,-0.717,0.172
2915891,8247.0,1639.0,-1250.0,0.613,0.28,-0.719,0.171
2915910,8289.0,1521.0,-1186.0,0.613,0.276,-0.721,0.171
2915919,8077.0,1519.0,-1188.0,0.613,0.273,-0.722,0.17
2915937,8103.0,1255.0,-1450.0,0.613,0.27,-0.723,0.169
2915955,7979.0,1155.0,-1186.0,0.613,0.268,-0.724,0.167
2915974,8033.0,1273.0,-1352.0,0.613,0.267,-0.725,0.165
2915992,8035.0,2013.0,-1392.0,0.614,0.265,-0.726,0.161
2916010,7765.0,1395.0,-1134.0,0.615,0.263,-0.726,0.159
2916029,7779.0,1283.0,-1326.0,0.616,0.263,-0.726,0.155
2916048,7797.0,1331.0,-1286.0,0.617,0.262,-0.726,0.153
2916067,7837.0,1597.0,-1328.0,0.618,0.262,-0.726,0.15
2916076,7853.0,1541.0,-1402.0,0.619,0.261,-0.726,0.146
2916094,8125.0,1333.0,-1390.0,0.62,0.261,-0.726,0.143
2916112,8337.0,1317.0,-1544.0,0.621,0.261,-0.726,0.14
2916130,8395.0,1255.0,-1550.0,0.622,0.261,-0.725,0.138
2916149,8421.0,1249.0,-1420.0,0.624,0.262,-0.724,0.136
2916168,8527.0,1183.0,-1464.0,0.625,0.263,-0.722,0.134
2916187,8461.0,1253.0,-1484.0,0.627,0.264,-0.721,0.132
2916205,8623.0,1339.0,-1562.0,0.628,0.266,-0.719,0.13
2916223,8675.0,1427.0,-1496.0,0.63,0.268,-0.718,0.129
2916241,8701.0,1349.0,-1408.0,0.631,0.27,-0.716,0.127
2916250,8747.0,1267.0,-1428.0,0.633,0.272,-0.714,0.125
2916268,8753.0,1359.0,-1414.0,0.634,0.274,-0.713,0.123
2916286,8711.0,1275.0,-1374.0,0.635,0.277,-0.711,0.122
2916304,8527.0,1173.0,-1378.0,0.636,0.279,-0.709,0.12
2916322,8453.0,1275.0,-1344.0,0.637,0.282,-0.708,0.118
2916339,8255.0,1227.0,-1324.0,0.638,0.285,-0.706,0.116
2916357,8189.0,1229.0,-1366.0,0.638,0.287,-0.705,0.114
2916375,8109.0,1297.0,-1246.0,0.639,0.29,-0.704,0.112
2916394,8135.0,1275.0,-1328.0,0.639,0.293,-0.703,0.11
2916412,8219.0,1289.0,-1304.0,0.639,0.295,-0.702,0.108
2916430,8421.0,1165.0,-1454.0,0.639,0.298,-0.701,0.107
2916449,8527.0,1107.0,-1396.0,0.639,0.3,-0.7,0.106
2916467,8603.0,1223.0,-1464.0,0.64,0.302,-0.699,0.106
2916485,8485.0,1203.0,-1376.0,0.64,0.305,-0.697,0.106
2916503,8401.0,1337.0,-1364.0,0.641,0.308,-0.695,0.106
2916521,8405.0,1179.0,-1268.0,0.641,0.31,-0.694,0.106
2916529,8243.0,1261.0,-1206.0,0.642,0.313,-0.692,0.107
2916546,8107.0,1265.0,-1228.0,0.642,0.316,-0.691,0.107
2916564,7923.0,1457.0,-1138.0,0.641,0.318,-0.69,0.107
2916583,7817.0,1315.0,-1152.0,0.641,0.32,-0.689,0.108
2916601,7721.0,1539.0,-1238.0,0.641,0.322,-0.689,0.108
2916623,7641.0,1349.0,-1182.0,0.64,0.324,-0.688,0.108
2916645,7449.0,1265.0,-1162.0,0.639,0.325,-0.688,0.109
2916658,7479.0,1341.0,-1156.0,0.639,0.326,-0.688,0.11
2916675,7435.0,1333.0,-1252.0,0.638,0.328,-0.688,0.111
2916693,7361.0,1321.0,-1268.0,0.637,0.329,-0.688,0.113
2916711,7399.0,1249.0,-1206.0,0.636,0.33,-0.688,0.115
2916728,7395.0,1533.0,-1188.0,0.636,0.33,-0.688,0.117
2916745,7471.0,1733.0,-1172.0,0.635,0.331,-0.688,0.12
2916763,7837.0,1633.0,-1358.0,0.635,0.331,-0.687,0.123
2916780,7859.0,1647.0,-1380.0,0.634,0.331,-0.687,0.126
2916797,7845.0,1591.0,-1266.0,0.634,0.33,-0.687,0.13
2916814,7951.0,1473.0,-1212.0,0.634,0.33,-0.687,0.133
2916831,7927.0,1809.0,-1148.0,0.634,0.329,-0.687,0.137
2916848,8195.0,1785.0,-1238.0,0.633,0.328,-0.687,0.14
2916866,8081.0,1551.0,-1282.0,0.633,0.327,-0.687,0.142
2916884,8027.0,1515.0,-1274.0,0.632,0.327,-0.688,0.145
2916903,8305.0,1595.0,-1302.0,0.631,0.326,-0.688,0.147
2916921,8241.0,1525.0,-1298.0,0.631,0.325,-0.689,0.15
2916938,8199.0,1583.0,-1290.0,0.63,0.324,-0.689,0.153
2916955,8301.0,1767.0,-1298.0,0.629,0.323,-0.69,0.155
2916973,8241.0,1793.0,-1318.0,0.628,0.322,-0.69,0.158
2916991,8307.0,1627.0,-1332.0,0.628,0.32,-0.691,0.161
2917009,8197.0,1713.0,-1262.0,0.627,0.319,-0.692,0.163
2917027,8145.0,1639.0,-1222.0,0.626,0.318,-0.692,0.166
2917046,8003.0,1623.0,-1174.0,0.626,0.316,-0.693,0.168
2917055,8015.0,1699.0,-1180.0,0.625,0.315,-0.694,0.17
2917072,7955.0,1787.0,-1088.0,0.624,0.313,-0.695,0.172
2917090,8025.0,1771.0,-1176.0,0.624,0.311,-0.696,0.173
2917109,7893.0,1791.0,-1222.0,0.623,0.309,-0.697,0.174
2917127,7933.0,1607.0,-1218.0,0.622,0.307,-0.698,0.175
2917145,7919.0,1629.0,-1242.0,0.622,0.305,-0.7,0.175
2917164,7923.0,1607.0,-1206.0,0.621,0.303,-0.701,0.176
2917184,7979.0,1695.0,-1144.0,0.621,0.301,-0.702,0.176
2917203,7963.0,1533.0,-1212.0,0.621,0.299,-0.703,0.177
2917212,8013.0,1571.0,-1116.0,0.621,0.298,-0.703,0.177
2917230,7987.0,1553.0,-1126.0,0.621,0.296,-0.704,0.176
2917249,8009.0,1547.0,-1158.0,0.621,0.294,-0.705,0.176
2917267,7941.0,1559.0,-1056.0,0.621,0.293,-0.706,0.175
2917285,8083.0,1619.0,-1192.0,0.621,0.291,-0.706,0.174
2917304,8193.0,1527.0,-1288.0,0.621,0.29,-0.707,0.173
2917322,8087.0,1385.0,-1238.0,0.622,0.289,-0.708,0.171
2917340,8147.0,1357.0,-1218.0,0.622,0.288,-0.708,0.17
2917359,8089.0,1437.0,-1200.0,0.622,0.287,-0.709,0.168
2917378,8141.0,1421.0,-1192.0,0.623,0.286,-0.709,0.166
2917387,8179.0,1321.0,-1332.0,0.623,0.285,-0.709,0.164
2917404,8129.0,1387.0,-1212.0,0.624,0.285,-0.71,0.162
2917422,8079.0,1329.0,-1154.0,0.625,0.284,-0.71,0.159
2917440,8175.0,1287.0,-1264.0,0.625,0.284,-0.71,0.157
2917458,8151.0,1209.0,-1344.0,0.626,0.284,-0.71,0.154
2917476,8049.0,1227.0,-1246.0,0.627,0.285,-0.709,0.152
2917494,8073.0,1249.0,-1224.0,0.627,0.285,-0.709,0.149
2917513,8045.0,1365.0,-1260.0,0.628,0.285,-0.709,0.146
2917530,8029.0,1329.0,-1286.0,0.629,0.286,-0.709,0.144
2917548,8043.0,1293.0,-1298.0,0.629,0.286,-0.709,0.141
2917566,8081.0,1239.0,-1310.0,0.63,0.286,-0.709,0.139
2917585,8119.0,1191.0,-1370.0,0.63,0.287,-0.708,0.137
2917602,8071.0,1283.0,-1324.0,0.631,0.287,-0.708,0.135
2917620,8017.0,1187.0,-1248.0,0.631,0.288,-0.708,0.133
2917638,8225.0,1185.0,-1364.0,0.632,0.288,-0.708,0.131
2917657,8217.0,1287.0,-1398.0,0.632,0.289,-0.707,0.129
2917665,8231.0,1099.0,-1374.0,0.633,0.289,-0.707,0.128
2917683,8215.0,1225.0,-1274.0,0.633,0.29,-0.706,0.127
2917701,8219.0,1263.0,-1328.0,0.634,0.291,-0.706,0.126
2917719,8171.0,1259.0,-1308.0,0.634,0.291,-0.706,0.125
2917738,8201.0,1223.0,-1346.0,0.634,0.292,-0.705,0.124
2917756,8181.0,1209.0,-1348.0,0.634,0.292,-0.705,0.124
2917773,8077.0,1287.0,-1238.0,0.634,0.293,-0.705,0.123
2917791,8181.0,1153.0,-1354.0,0.634,0.293,-0.705,0.123
2917809,8151.0,1169.0,-1332.0,0.634,0.294,-0.704,0.123
2917828,8135.0,1233.0,-1330.0,0.634,0.295,-0.704,0.123
2917847,8089.0,1287.0,-1220.0,0.634,0.295,-0.704,0.124
2917866,8045.0,1223.0,-1350.0,0.634,0.296,-0.704,0.124
2917885,8123.0,1231.0,-1372.0,0.634,0.296,-0.704,0.124
2917894,8075.0,1179.0,-1266.0,0.634,0.296,-0.703,0.125
2917911,8125.0,1237.0,-1322.0,0.634,0.297,-0.703,0.126
2917929,8151.0,1239.0,-1378.0,0.633,0.297,-0.703,0.127
2917948,8055.0,1289.0,-1320.0,0.633,0.297,-0.703,0.128
2917966,8181.0,1295.0,-1320.0,0.633,0.297,-0.703,0.129
2917984,8101.0,1233.0,-1318.0,0.633,0.298,-0.703,0.13
2918003,8053.0,1259.0,-1300.0,0.632,0.298,-0.703,0.131
2918021,8063.0,1265.0,-1264.0,0.632,0.298,-0.703,0.132
2918038,8065.0,1307.0,-1272.0,0.632,0.298,-0.703,0.133
2918056,8059.0,1311.0,-1266.0,0.631,0.298,-0.703,0.134
2918075,8033.0,1271.0,-1256.0,0.631,0.298,-0.703,0.135
2918093,8039.0,1397.0,-1242.0,0.631,0.298,-0.703,0.136
2918111,7961.0,1359.0,-1180.0,0.63,0.298,-0.703,0.138
2918119,7969.0,1371.0,-1174.0,0.63,0.298,-0.704,0.139
2918137,8041.0,1371.0,-1282.0,0.63,0.298,-0.704,0.14
2918156,8045.0,1381.0,-1292.0,0.63,0.297,-0.704,0.141
2918174,8039.0,1451.0,-1228.0,0.629,0.297,-0.704,0.142
2918193,8005.0,1459.0,-1192.0,0.629,0.296,-0.704,0.143
2918211,8049.0,1407.0,-1240.0,0.629,0.296,-0.705,0.144
2918229,7937.0,1429.0,-1214.0,0.629,0.295,-0.705,0.145
2918246,8029.0,1497.0,-1278.0,0.629,0.294,-0.705,0.146
2918263,8027.0,1489.0,-1292.0,0.629,0.294,-0.705,0.147
2918284,7999.0,1373.0,-1118.0,0.628,0.293,-0.705,0.148
2918302,7919.0,1405.0,-1106.0,0.628,0.292,-0.705,0.149
2918320,7951.0,1511.0,-1178.0,0.628,0.291,-0.706,0.149
2918338,7995.0,1567.0,-1174.0,0.628,0.291,-0.706,0.149
2918356,8043.0,1447.0,-1196.0,0.628,0.29,-0.706,0.149
2918365,8023.0,1413.0,-1228.0,0.628,0.289,-0.707,0.149
2918383,7979.0,1393.0,-1188.0,0.628,0.289,-0.707,0.149
2918401,7957.0,1457.0,-1182.0,0.628,0.288,-0.707,0.149
2918420,8017.0,1497.0,-1172.0,0.628,0.288,-0.707,0.149
2918439,8043.0,1399.0,-1236.0,0.628,0.287,-0.708,0.149
2918457,8089.0,1351.0,-1186.0,0.629,0.287,-0.708,0.148
2918475,8003.0,1391.0,-1144.0,0.629,0.286,-0.708,0.148
2918492,8065.0,1429.0,-1140.0,0.629,0.286,-0.708,0.148
2918509,8013.0,1407.0,-1194.0,0.629,0.286,-0.707,0.148
2918527,8219.0,1497.0,-1168.0,0.629,0.286,-0.707,0.147
2918549,8157.0,1475.0,-1184.0,0.63,0.286,-0.707,0.147
2918558,8401.0,1463.0,-1214.0,0.63,0.285,-0.707,0.146
2918576,8571.0,1419.0,-1228.0,0.63,0.285,-0.707,0.145
2918593,9191.0,1339.0,-1436.0,0.631,0.285,-0.707,0.145
2918611,9441.0,1377.0,-1384.0,0.631,0.286,-0.707,0.144
2918629,9849.0,1259.0,-1332.0,0.631,0.286,-0.706,0.143
2918648,9941.0,1211.0,-1296.0,0.632,0.287,-0.706,0.142
2918668,9889.0,1213.0,-1218.0,0.632,0.289,-0.705,0.141
2918685,10189.0,1297.0,-1388.0,0.632,0.291,-0.704,0.139
2918703,10499.0,1351.0,-1436.0,0.633,0.294,-0.704,0.137
2918721,10029.0,819.0,-1084.0,0.633,0.296,-0.703,0.134
2918739,9501.0,303.0,-1010.0,0.632,0.3,-0.702,0.13
2918757,9073.0,1055.0,-1072.0,0.632,0.305,-0.701,0.127
2918774,8527.0,1405.0,-1138.0,0.631,0.31,-0.7,0.123
2918792,8715.0,1763.0,-1618.0,0.63,0.314,-0.7,0.119
2918810,8903.0,1655.0,-1590.0,0.63,0.318,-0.699,0.116
2918818,9249.0,1255.0,-1644.0,0.63,0.322,-0.698,0.113
2918835,9555.0,1301.0,-1586.0,0.63,0.327,-0.696,0.111
2918853,9901.0,1551.0,-1622.0,0.63,0.332,-0.693,0.109
2918872,10433.0,1585.0,-1886.0,0.631,0.338,-0.69,0.106
2918890,10371.0,1709.0,-1802.0,0.632,0.345,-0.686,0.104
2918908,10223.0,1877.0,-1636.0,0.633,0.353,-0.681,0.102
2918926,9985.0,2399.0,-1456.0,0.634,0.362,-0.676,0.099
2918944,9379.0,2841.0,-1146.0,0.634,0.37,-0.672,0.095
2918962,9803.0,3069.0,-1534.0,0.634,0.378,-0.668,0.091
2918981,10167.0,3507.0,-1920.0,0.634,0.386,-0.664,0.087
2918999,9867.0,3951.0,-1904.0,0.634,0.394,-0.66,0.084
2919018,9737.0,3313.0,-1648.0,0.634,0.401,-0.657,0.08
2919037,9861.0,3357.0,-1882.0,0.633,0.408,-0.653,0.076
2919056,9463.0,4113.0,-2008.0,0.632,0.416,-0.65,0.074
2919063,9733.0,4009.0,-1976.0,0.632,0.423,-0.646,0.071
2919081,9679.0,4359.0,-2056.0,0.631,0.43,-0.642,0.069
2919099,8799.0,3963.0,-2114.0,0.631,0.437,-0.637,0.068
2919119,8605.0,4463.0,-1908.0,0.63,0.444,-0.633,0.069
2919138,8553.0,5329.0,-2134.0,0.63,0.45,-0.629,0.07
2919156,7515.0,4203.0,-1668.0,0.63,0.455,-0.625,0.07
2919174,7133.0,3791.0,-1432.0,0.63,0.46,-0.621,0.073
2919193,6445.0,4291.0,-1456.0,0.629,0.465,-0.618,0.076
2919213,5937.0,4367.0,-1732.0,0.628,0.469,-0.616,0.079
2919223,5901.0,5213.0,-1560.0,0.627,0.471,-0.614,0.084
2919240,5005.0,4043.0,-1860.0,0.628,0.471,-0.614,0.089
2919257,4121.0,3323.0,-1588.0,0.628,0.47,-0.613,0.096
2919275,3077.0,3353.0,-930.0,0.629,0.468,-0.612,0.104
2919293,2619.0,2815.0,-734.0,0.629,0.465,-0.613,0.111
2919313,2313.0,2365.0,-1016.0,0.629,0.463,-0.613,0.118
2919331,2361.0,1921.0,-1178.0,0.629,0.461,-0.613,0.127
2919350,2163.0,1735.0,-1164.0,0.629,0.46,-0.612,0.135
2919368,1425.0,2495.0,-1118.0,0.63,0.459,-0.61,0.143
2919386,1273.0,1707.0,-450.0,0.632,0.458,-0.608,0.15
2919405,1081.0,803.0,-346.0,0.633,0.458,-0.605,0.154
2919414,1067.0,545.0,120.0,0.634,0.459,-0.602,0.159
2919433,1289.0,2655.0,-202.0,0.634,0.46,-0.6,0.162
2919453,1865.0,1077.0,-330.0,0.634,0.461,-0.598,0.163
2919472,2237.0,1465.0,-238.0,0.634,0.463,-0.597,0.164
2919490,2719.0,2023.0,-94.0,0.633,0.465,-0.596,0.164
2919508,3155.0,2297.0,-256.0,0.632,0.467,-0.596,0.162
2919526,3943.0,833.0,-460.0,0.631,0.47,-0.596,0.161
2919545,4101.0,2933.0,-908.0,0.629,0.474,-0.596,0.16
2919555,4563.0,3979.0,-1132.0,0.627,0.476,-0.596,0.158
2919572,5373.0,2989.0,-1072.0,0.626,0.478,-0.596,0.157
2919589,5603.0,2333.0,-1440.0,0.624,0.481,-0.596,0.155
2919606,5923.0,2995.0,-1164.0,0.622,0.485,-0.596,0.154
2919625,6767.0,5135.0,-1810.0,0.62,0.488,-0.595,0.151
2919643,7021.0,4071.0,-2192.0,0.62,0.489,-0.595,0.147
2919660,7099.0,2541.0,-1934.0,0.619,0.491,-0.595,0.145
2919679,6923.0,4029.0,-1736.0,0.618,0.494,-0.594,0.144
2919698,7543.0,5405.0,-2132.0,0.617,0.497,-0.594,0.142
2919716,7233.0,4741.0,-2226.0,0.616,0.497,-0.595,0.139
2919734,7457.0,3969.0,-2050.0,0.616,0.496,-0.597,0.137
2919752,7659.0,2085.0,-1652.0,0.615,0.496,-0.598,0.135
2919769,7701.0,4591.0,-2442.0,0.613,0.497,-0.599,0.133
2919787,7643.0,6801.0,-2446.0,0.613,0.496,-0.601,0.13
2919805,6713.0,3781.0,-1368.0,0.614,0.492,-0.605,0.126
2919823,7637.0,2063.0,-1664.0,0.612,0.49,-0.608,0.124
2919840,7859.0,3745.0,-2902.0,0.61,0.49,-0.61,0.123
2919857,7337.0,4589.0,-2186.0,0.609,0.489,-0.612,0.122
2919875,7649.0,5009.0,-2022.0,0.61,0.487,-0.614,0.12
2919894,7509.0,4427.0,-2318.0,0.611,0.483,-0.616,0.117
2919904,7699.0,3121.0,-1912.0,0.611,0.479,-0.619,0.116
2919923,7383.0,2641.0,-2018.0,0.61,0.477,-0.622,0.116
2919941,7981.0,4551.0,-1754.0,0.61,0.475,-0.623,0.116
2919958,7505.0,5761.0,-1586.0,0.61,0.471,-0.627,0.114
2919976,8269.0,4427.0,-1990.0,0.611,0.465,-0.631,0.112
2919995,8383.0,1311.0,-1942.0,0.611,0.459,-0.635,0.111
2920014,9073.0,2141.0,-2032.0,0.611,0.457,-0.636,0.113
2920033,8851.0,4403.0,-1988.0,0.611,0.455,-0.637,0.115
2920052,8343.0,4377.0,-1750.0,0.612,0.451,-0.639,0.117
2920060,8135.0,3361.0,-1348.0,0.613,0.446,-0.641,0.119
2920078,8165.0,3343.0,-1338.0,0.614,0.441,-0.643,0.121
2920096,9121.0,3577.0,-1468.0,0.615,0.436,-0.645,0.122
2920113,8965.0,3107.0,-1634.0,0.617,0.43,-0.647,0.124
2920132,8815.0,2269.0,-1412.0,0.618,0.425,-0.649,0.126
2920151,8359.0,2039.0,-1106.0,0.619,0.421,-0.65,0.129
2920169,8813.0,3173.0,-1144.0,0.619,0.418,-0.652,0.133
2920186,8971.0,3389.0,-1354.0,0.62,0.413,-0.653,0.137
2920204,9769.0,2871.0,-1266.0,0.621,0.407,-0.655,0.141
2920222,10635.0,2923.0,-1248.0,0.622,0.402,-0.657,0.145
2920239,11671.0,3195.0,-1506.0,0.623,0.396,-0.658,0.149
2920257,12081.0,1939.0,-1472.0,0.624,0.391,-0.659,0.152
2920275,12583.0,1727.0,-1366.0,0.626,0.388,-0.659,0.154
2920293,12781.0,2383.0,-1024.0,0.627,0.389,-0.657,0.155
2920313,12819.0,2657.0,-1130.0,0.627,0.391,-0.656,0.154
2920322,12741.0,3045.0,-870.0,0.627,0.396,-0.654,0.151
2920340,12723.0,3181.0,-1122.0,0.626,0.401,-0.653,0.147
2920358,13235.0,3347.0,-1558.0,0.625,0.407,-0.651,0.141
2920379,13363.0,3107.0,-1984.0,0.624,0.413,-0.65,0.134
2920399,13027.0,2611.0,-1852.0,0.624,0.42,-0.647,0.127
2920417,12751.0,2915.0,-1868.0,0.623,0.428,-0.644,0.122
2920435,11901.0,4195.0,-2086.0,0.622,0.436,-0.64,0.116
2920453,11215.0,4257.0,-1636.0,0.622,0.443,-0.636,0.111
2920463,10823.0,4049.0,-1758.0,0.622,0.449,-0.632,0.106
2920481,10465.0,3351.0,-2020.0,0.623,0.455,-0.629,0.101
2920500,10031.0,3253.0,-2202.0,0.623,0.461,-0.624,0.097
2920520,8883.0,4669.0,-1938.0,0.624,0.467,-0.619,0.094
2920538,8635.0,4033.0,-1738.0,0.625,0.472,-0.615,0.092
2920555,8121.0,4071.0,-1710.0,0.626,0.477,-0.611,0.09
2920573,8317.0,4353.0,-2328.0,0.627,0.48,-0.607,0.088
2920591,8315.0,4259.0,-2140.0,0.629,0.483,-0.603,0.088
2920610,7453.0,4051.0,-1956.0,0.631,0.484,-0.599,0.09
2920618,7577.0,3027.0,-2036.0,0.634,0.485,-0.595,0.094
2920635,6471.0,3301.0,-1780.0,0.636,0.487,-0.59,0.1
2920652,5629.0,4245.0,-1628.0,0.638,0.487,-0.586,0.108
2920669,4883.0,4569.0,-1652.0,0.641,0.485,-0.583,0.116
2920686,4229.0,3847.0,-1374.0,0.644,0.482,-0.58,0.125
2920704,3101.0,2685.0,-1036.0,0.648,0.478,-0.578,0.135
2920723,2455.0,1825.0,-732.0,0.651,0.474,-0.575,0.145
2920742,1741.0,2211.0,-844.0,0.654,0.47,-0.572,0.155
2920760,1353.0,2971.0,-968.0,0.658,0.466,-0.568,0.165
2920778,293.0,1909.0,-300.0,0.663,0.461,-0.564,0.173
2920796,171.0,1673.0,-86.0,0.667,0.457,-0.56,0.18
2920815,11.0,1701.0,202.0,0.671,0.453,-0.557,0.184
2920833,301.0,1683.0,54.0,0.674,0.45,-0.555,0.188
2920852,913.0,1463.0,-46.0,0.676,0.448,-0.553,0.189
2920871,1437.0,727.0,206.0,0.677,0.447,-0.553,0.191
2920889,1965.0,1683.0,140.0,0.677,0.447,-0.552,0.192
2920908,2533.0,2045.0,-22.0,0.676,0.448,-0.553,0.192
2920916,2993.0,2125.0,-38.0,0.674,0.45,-0.554,0.191
2920934,3453.0,2301.0,-58.0,0.672,0.451,-0.556,0.189
2920953,3563.0,1895.0,-138.0,0.67,0.453,-0.558,0.187
2920972,4129.0,2171.0,-722.0,0.666,0.456,-0.561,0.184
2920990,4745.0,3247.0,-958.0,0.663,0.459,-0.563,0.181
2921012,4579.0,2243.0,-964.0,0.66,0.462,-0.566,0.178
2921022,4395.0,1783.0,-934.0,0.656,0.465,-0.568,0.174
2921039,5141.0,2621.0,-1208.0,0.652,0.47,-0.57,0.17
2921057,5545.0,5195.0,-1830.0,0.647,0.475,-0.573,0.167
2921075,5767.0,3417.0,-1710.0,0.644,0.477,-0.576,0.163
2921094,5447.0,1753.0,-1286.0,0.64,0.48,-0.579,0.159
2921113,6201.0,2841.0,-1386.0,0.634,0.485,-0.581,0.156
2921132,7573.0,6143.0,-2984.0,0.63,0.489,-0.584,0.153
2921150,6955.0,3143.0,-1678.0,0.626,0.491,-0.587,0.151
2921168,6909.0,2307.0,-1272.0,0.621,0.494,-0.59,0.148
2921186,7667.0,4497.0,-2594.0,0.616,0.498,-0.592,0.146
2921204,7565.0,5443.0,-2476.0,0.612,0.5,-0.596,0.144
2921213,8759.0,4303.0,-2638.0,0.609,0.501,-0.599,0.143
2921232,7829.0,2235.0,-1610.0,0.604,0.502,-0.602,0.142
2921250,8089.0,4071.0,-2318.0,0.599,0.505,-0.605,0.142
2921269,7975.0,5089.0,-2604.0,0.595,0.507,-0.608,0.141
2921288,8033.0,4695.0,-2316.0,0.591,0.506,-0.612,0.141
2921306,9073.0,3423.0,-2634.0,0.587,0.505,-0.617,0.142
2921325,8647.0,2753.0,-2194.0,0.583,0.505,-0.62,0.143
2921344,8433.0,4005.0,-2342.0,0.58,0.505,-0.623,0.144
2921353,8167.0,4231.0,-2324.0,0.578,0.503,-0.626,0.144
2921371,9015.0,3309.0,-2398.0,0.577,0.5,-0.629,0.145
2921390,8855.0,2965.0,-2644.0,0.576,0.498,-0.631,0.148
2921408,9611.0,4009.0,-2574.0,0.577,0.495,-0.632,0.152
2921426,8451.0,3635.0,-1702.0,0.578,0.491,-0.633,0.155
2921445,9151.0,3337.0,-2258.0,0.58,0.487,-0.634,0.156
2921464,8903.0,2051.0,-2136.0,0.581,0.484,-0.635,0.159
2921481,8789.0,2679.0,-2044.0,0.582,0.481,-0.635,0.163
2921498,9413.0,3539.0,-1844.0,0.583,0.478,-0.636,0.166
2921515,8997.0,3797.0,-1586.0,0.584,0.474,-0.637,0.17
2921532,9135.0,3303.0,-1644.0,0.585,0.469,-0.639,0.172
2921549,9433.0,2305.0,-1730.0,0.585,0.464,-0.641,0.175
2921569,9883.0,2643.0,-1686.0,0.586,0.459,-0.643,0.178
2921587,10435.0,2937.0,-1772.0,0.587,0.455,-0.645,0.181
2921605,11011.0,3259.0,-1734.0,0.588,0.449,-0.646,0.185
2921624,12129.0,3459.0,-1946.0,0.59,0.444,-0.648,0.188
2921633,12543.0,1929.0,-1814.0,0.592,0.439,-0.649,0.19
2921651,12855.0,2017.0,-1746.0,0.594,0.436,-0.649,0.192
2921669,12945.0,2007.0,-1554.0,0.595,0.436,-0.647,0.193
2921687,12887.0,2763.0,-1236.0,0.595,0.438,-0.646,0.193
2921704,12689.0,2543.0,-1022.0,0.595,0.441,-0.644,0.19
2921722,13413.0,3373.0,-1728.0,0.594,0.446,-0.643,0.185
2921741,14201.0,3029.0,-2352.0,0.593,0.451,-0.642,0.18
2921758,14387.0,3017.0,-2506.0,0.593,0.456,-0.64,0.174
2921776,13445.0,3075.0,-1940.0,0.592,0.463,-0.638,0.169
2921793,13085.0,3825.0,-2174.0,0.592,0.47,-0.635,0.162
2921812,12825.0,3971.0,-2488.0,0.591,0.476,-0.632,0.156
2921830,11943.0,3789.0,-2340.0,0.591,0.481,-0.63,0.149
2921848,11439.0,4219.0,-2290.0,0.592,0.486,-0.627,0.143
2921866,10687.0,3713.0,-2370.0,0.592,0.49,-0.625,0.136
2921885,10663.0,2827.0,-2936.0,0.594,0.494,-0.621,0.132
2921904,9195.0,4275.0,-2444.0,0.596,0.497,-0.617,0.129
2921913,8731.0,3951.0,-2520.0,0.599,0.499,-0.613,0.127
2921930,8249.0,3523.0,-2348.0,0.603,0.5,-0.609,0.127
2921949,6661.0,4129.0,-1740.0,0.607,0.499,-0.605,0.128
2921967,5975.0,3637.0,-1906.0,0.612,0.498,-0.601,0.129
2921985,5427.0,2185.0,-1630.0,0.616,0.495,-0.598,0.132
2922003,4675.0,2521.0,-1884.0,0.62,0.493,-0.595,0.138
2922021,4247.0,4811.0,-2222.0,0.625,0.489,-0.592,0.145
2922039,3215.0,3161.0,-1566.0,0.63,0.482,-0.59,0.153
2922058,3163.0,2053.0,-1534.0,0.635,0.475,-0.587,0.161
2922076,2431.0,1619.0,-1398.0,0.64,0.468,-0.585,0.171
2922094,1781.0,1611.0,-1024.0,0.644,0.463,-0.582,0.18
2922112,1237.0,2433.0,-1106.0,0.648,0.458,-0.578,0.189
2922130,963.0,2029.0,-856.0,0.652,0.452,-0.575,0.197
2922149,445.0,1375.0,-216.0,0.656,0.447,-0.573,0.204
2922158,319.0,849.0,-224.0,0.659,0.443,-0.57,0.21
2922175,641.0,1471.0,-148.0,0.662,0.44,-0.568,0.214
2922193,871.0,1695.0,-34.0,0.664,0.437,-0.566,0.217
2922212,1551.0,337.0,84.0,0.665,0.436,-0.566,0.218
2922231,1901.0,1629.0,118.0,0.665,0.436,-0.566,0.219
2922248,2765.0,1655.0,-186.0,0.664,0.436,-0.567,0.218
2922267,3517.0,1317.0,-156.0,0.662,0.438,-0.568,0.218
2922286,3723.0,2197.0,68.0,0.66,0.44,-0.569,0.216
2922304,4393.0,2867.0,-292.0,0.656,0.443,-0.572,0.214
2922321,5045.0,2231.0,-824.0,0.653,0.447,-0.574,0.211
2922338,5459.0,1925.0,-602.0,0.649,0.451,-0.576,0.208
2922355,5001.0,2959.0,-488.0,0.645,0.456,-0.578,0.206
2922373,5369.0,3197.0,-796.0,0.64,0.46,-0.581,0.202
2922391,5921.0,4195.0,-1150.0,0.636,0.464,-0.584,0.198
2922409,6285.0,2459.0,-1636.0,0.631,0.467,-0.588,0.193
2922427,6483.0,1137.0,-1334.0,0.627,0.472,-0.59,0.189
2922444,6751.0,3495.0,-1772.0,0.621,0.479,-0.592,0.187
2922462,6825.0,5287.0,-2170.0,0.617,0.483,-0.594,0.183
2922481,6325.0,2585.0,-1048.0,0.614,0.486,-0.597,0.178
2922490,7301.0,2641.0,-1896.0,0.609,0.489,-0.6,0.174
2922509,7675.0,3453.0,-2656.0,0.604,0.492,-0.602,0.172
2922527,6679.0,2433.0,-1634.0,0.601,0.495,-0.605,0.169
2922545,7641.0,3065.0,-1890.0,0.596,0.498,-0.607,0.167
2922564,7635.0,4707.0,-2726.0,0.593,0.499,-0.61,0.165
2922583,8433.0,3089.0,-2490.0,0.591,0.498,-0.613,0.162
2922600,8019.0,1917.0,-2034.0,0.589,0.499,-0.615,0.161
2922617,7451.0,3223.0,-1988.0,0.586,0.499,-0.617,0.161
2922635,7953.0,4417.0,-2430.0,0.584,0.499,-0.62,0.161
2922653,8311.0,4251.0,-2704.0,0.582,0.497,-0.623,0.16
2922671,8537.0,2949.0,-2356.0,0.582,0.493,-0.627,0.159
2922689,7473.0,1831.0,-1618.0,0.58,0.491,-0.63,0.16
2922707,8371.0,2941.0,-2170.0,0.577,0.489,-0.634,0.161
2922716,8669.0,5131.0,-2796.0,0.575,0.486,-0.638,0.161
2922735,8367.0,3245.0,-2310.0,0.575,0.481,-0.642,0.161
2922754,9419.0,2155.0,-2464.0,0.575,0.476,-0.645,0.161
2922773,8705.0,2393.0,-2340.0,0.575,0.472,-0.648,0.163
2922791,8789.0,2833.0,-2080.0,0.575,0.468,-0.65,0.166
2922809,8063.0,2785.0,-1942.0,0.576,0.465,-0.652,0.168
2922827,9697.0,4073.0,-2444.0,0.576,0.46,-0.654,0.169
2922845,9201.0,2935.0,-2160.0,0.578,0.454,-0.657,0.17
2922863,9131.0,2137.0,-2056.0,0.579,0.448,-0.659,0.172
2922883,8849.0,1709.0,-2122.0,0.581,0.443,-0.661,0.173
2922893,9283.0,2063.0,-2216.0,0.582,0.44,-0.661,0.175
2922911,9377.0,2843.0,-1788.0,0.583,0.436,-0.662,0.178
2922929,9389.0,4007.0,-1748.0,0.586,0.432,-0.662,0.18
2922947,9235.0,3081.0,-1718.0,0.588,0.426,-0.663,0.182
2922965,8887.0,1913.0,-1546.0,0.59,0.421,-0.664,0.184
2922983,9449.0,1873.0,-1498.0,0.592,0.416,-0.664,0.186
2923001,9775.0,2419.0,-1642.0,0.594,0.412,-0.665,0.188
2923019,9993.0,2363.0,-1448.0,0.597,0.406,-0.665,0.19
2923041,10183.0,2015.0,-1452.0,0.599,0.401,-0.666,0.191
2923049,10893.0,1373.0,-1720.0,0.602,0.397,-0.665,0.193
2923067,11329.0,1573.0,-1676.0,0.605,0.394,-0.664,0.194
2923085,11625.0,1835.0,-1372.0,0.607,0.393,-0.663,0.194
2923104,11513.0,1061.0,-1088.0,0.608,0.393,-0.662,0.193
2923122,11999.0,1297.0,-1136.0,0.609,0.396,-0.66,0.191
2923139,12355.0,1825.0,-1190.0,0.609,0.401,-0.659,0.188
2923156,13025.0,2105.0,-1664.0,0.608,0.407,-0.657,0.183
2923174,13557.0,2407.0,-1850.0,0.606,0.414,-0.655,0.178
2923192,13363.0,2569.0,-1690.0,0.605,0.421,-0.654,0.172
2923210,13651.0,2603.0,-1942.0,0.604,0.429,-0.651,0.165
2923230,14219.0,3303.0,-2344.0,0.602,0.438,-0.649,0.158
2923249,14575.0,3627.0,-2914.0,0.602,0.446,-0.645,0.152
2923258,13535.0,2969.0,-2208.0,0.601,0.453,-0.641,0.146
2923276,11923.0,3211.0,-1732.0,0.601,0.461,-0.638,0.14
2923295,10559.0,3385.0,-1560.0,0.6,0.468,-0.635,0.134
2923312,9935.0,3379.0,-1724.0,0.598,0.474,-0.633,0.129
2923330,9663.0,4167.0,-2046.0,0.597,0.479,-0.632,0.124
2923348,8991.0,3431.0,-2084.0,0.596,0.482,-0.63,0.121
2923367,8993.0,3277.0,-2344.0,0.597,0.484,-0.628,0.119
2923385,7871.0,2241.0,-1902.0,0.598,0.486,-0.626,0.12
2923404,7671.0,3105.0,-2552.0,0.6,0.488,-0.622,0.123
2923423,6835.0,3449.0,-2240.0,0.603,0.488,-0.617,0.128
2923441,5321.0,4445.0,-1848.0,0.607,0.487,-0.613,0.136
2923449,4981.0,3721.0,-1958.0,0.611,0.484,-0.61,0.143
2923467,3487.0,1533.0,-1206.0,0.615,0.48,-0.607,0.152
2923485,2787.0,3569.0,-1348.0,0.618,0.477,-0.604,0.162
2923504,1249.0,3713.0,-1372.0,0.621,0.472,-0.601,0.172
2923522,677.0,2021.0,-606.0,0.625,0.466,-0.599,0.181
2923540,423.0,3021.0,-1066.0,0.629,0.46,-0.597,0.189
2923558,425.0,2927.0,-972.0,0.633,0.454,-0.596,0.195
2923577,-349.0,487.0,8.0,0.637,0.449,-0.594,0.2
2923595,-565.0,157.0,20.0,0.64,0.446,-0.591,0.203
2923614,411.0,1723.0,-790.0,0.642,0.446,-0.588,0.206
2923633,295.0,1661.0,-218.0,0.644,0.446,-0.586,0.207
2923642,555.0,1211.0,-150.0,0.644,0.447,-0.585,0.207
2923660,1553.0,1799.0,-548.0,0.645,0.448,-0.584,0.205
2923679,2263.0,1661.0,-654.0,0.646,0.449,-0.584,0.202
2923697,3009.0,1123.0,-394.0,0.645,0.451,-0.584,0.199
2923716,3365.0,1829.0,-306.0,0.643,0.455,-0.584,0.195
2923735,3957.0,2461.0,-876.0,0.641,0.46,-0.585,0.191
2923753,4515.0,3029.0,-944.0,0.638,0.463,-0.586,0.186
2923771,4879.0,2879.0,-884.0,0.636,0.467,-0.588,0.18
2923789,5707.0,2333.0,-1328.0,0.633,0.471,-0.59,0.174
2923807,6379.0,2021.0,-1872.0,0.63,0.475,-0.591,0.169
2923825,6587.0,2863.0,-1986.0,0.627,0.481,-0.59,0.165
2923843,6577.0,3381.0,-1308.0,0.624,0.486,-0.59,0.161
2923851,6493.0,3765.0,-1664.0,0.62,0.492,-0.591,0.156
2923869,7275.0,4651.0,-2234.0,0.616,0.496,-0.593,0.151
2923887,7285.0,4551.0,-2228.0,0.614,0.498,-0.596,0.145
2923905,7469.0,1915.0,-1878.0,0.61,0.499,-0.599,0.141
2923922,7299.0,2511.0,-2080.0,0.606,0.503,-0.601,0.138
2923941,7197.0,4325.0,-2086.0,0.601,0.507,-0.603,0.135
2923960,7085.0,5451.0,-2234.0,0.597,0.508,-0.606,0.133
2923979,8503.0,5643.0,-2800.0,0.595,0.507,-0.61,0.13
2923999,7751.0,1643.0,-2298.0,0.594,0.504,-0.614,0.127
2924018,7525.0,727.0,-1716.0,0.591,0.504,-0.616,0.127
2924028,8907.0,5237.0,-2600.0,0.587,0.507,-0.618,0.128
2924045,8023.0,6803.0,-2678.0,0.585,0.505,-0.621,0.128
2924063,8161.0,3765.0,-2334.0,0.585,0.501,-0.626,0.127
2924081,7505.0,1965.0,-1902.0,0.583,0.497,-0.63,0.126
2924101,8447.0,2471.0,-2164.0,0.581,0.496,-0.633,0.126
2924120,8879.0,4955.0,-2970.0,0.579,0.493,-0.636,0.127
2924138,8623.0,4671.0,-2296.0,0.579,0.489,-0.64,0.129
2924156,7861.0,2875.0,-1784.0,0.579,0.484,-0.644,0.129
2924174,8083.0,3023.0,-2146.0,0.579,0.479,-0.647,0.13
2924192,8677.0,3609.0,-2672.0,0.579,0.475,-0.65,0.13
2924210,8511.0,3233.0,-2654.0,0.579,0.47,-0.653,0.132
2924219,8065.0,3239.0,-1962.0,0.58,0.465,-0.655,0.134
2924237,7627.0,3637.0,-1834.0,0.58,0.461,-0.658,0.135
2924256,8479.0,3367.0,-2028.0,0.581,0.456,-0.661,0.135
2924274,8693.0,3427.0,-2492.0,0.582,0.45,-0.663,0.136
2924293,8585.0,1727.0,-2268.0,0.584,0.444,-0.665,0.137
2924311,7785.0,1865.0,-1638.0,0.586,0.44,-0.666,0.14
2924331,8045.0,3415.0,-1788.0,0.588,0.436,-0.667,0.143
2924351,8961.0,3245.0,-2118.0,0.59,0.43,-0.668,0.145
2924359,9117.0,2725.0,-2044.0,0.593,0.423,-0.669,0.148
2924379,8697.0,2321.0,-1432.0,0.596,0.416,-0.67,0.152
2924397,9091.0,2387.0,-1500.0,0.598,0.409,-0.672,0.155
2924415,9695.0,2749.0,-1686.0,0.6,0.401,-0.674,0.158
2924433,10453.0,2787.0,-1630.0,0.603,0.393,-0.676,0.162
2924450,11199.0,2879.0,-1700.0,0.605,0.384,-0.677,0.164
2924468,11159.0,1151.0,-1598.0,0.608,0.376,-0.679,0.166
2924487,11817.0,1079.0,-1396.0,0.611,0.371,-0.679,0.168
2924505,12097.0,1575.0,-1424.0,0.613,0.369,-0.678,0.17
2924523,12045.0,1247.0,-1290.0,0.614,0.369,-0.676,0.17
2924540,12363.0,1679.0,-1264.0,0.615,0.373,-0.674,0.168
2924557,12793.0,2069.0,-1194.0,0.615,0.378,-0.672,0.166
2924577,13091.0,2853.0,-1358.0,0.615,0.384,-0.669,0.162
2924586,13783.0,2961.0,-1906.0,0.615,0.39,-0.667,0.156
2924604,14695.0,3151.0,-2372.0,0.616,0.397,-0.664,0.149
2924622,15021.0,2983.0,-2534.0,0.617,0.404,-0.66,0.142
2924640,13799.0,2171.0,-1506.0,0.618,0.411,-0.656,0.136
2924658,12173.0,3583.0,-1224.0,0.618,0.42,-0.652,0.129
2924676,11251.0,4855.0,-1744.0,0.618,0.426,-0.649,0.121
2924694,10103.0,4259.0,-1624.0,0.617,0.431,-0.648,0.112
2924713,9977.0,4147.0,-1510.0,0.616,0.435,-0.649,0.104
2924732,9313.0,2549.0,-1960.0,0.615,0.437,-0.649,0.096
2924750,9133.0,1693.0,-2118.0,0.614,0.44,-0.649,0.09
2924768,8911.0,2849.0,-2500.0,0.613,0.445,-0.647,0.088
2924786,8115.0,4073.0,-2402.0,0.613,0.449,-0.645,0.088
2924803,7765.0,3447.0,-2416.0,0.614,0.45,-0.642,0.089
2924821,6923.0,2519.0,-1766.0,0.616,0.452,-0.638,0.093
2924840,6081.0,3051.0,-1294.0,0.618,0.453,-0.635,0.097
2924850,5755.0,3319.0,-1754.0,0.62,0.452,-0.633,0.102
2924868,5505.0,3259.0,-1744.0,0.622,0.451,-0.631,0.109
2924887,4449.0,3365.0,-1010.0,0.623,0.45,-0.629,0.118
2924906,3527.0,3685.0,-1066.0,0.625,0.446,-0.628,0.126
2924925,2931.0,2841.0,-842.0,0.626,0.442,-0.628,0.135
2924944,2671.0,2705.0,-430.0,0.628,0.437,-0.627,0.144
2924953,1971.0,3911.0,-790.0,0.63,0.432,-0.627,0.153
2924972,2135.0,1973.0,-1358.0,0.634,0.425,-0.626,0.16
2924989,1871.0,-593.0,-790.0,0.637,0.421,-0.623,0.168
2925007,895.0,1775.0,-566.0,0.64,0.419,-0.619,0.176
2925024,1141.0,2353.0,-278.0,0.643,0.418,-0.615,0.181
2925042,645.0,939.0,64.0,0.646,0.416,-0.613,0.186
2925060,881.0,1519.0,170.0,0.647,0.415,-0.611,0.188
2925077,1413.0,791.0,-240.0,0.648,0.415,-0.61,0.188
2925095,2317.0,-37.0,-464.0,0.647,0.417,-0.61,0.188
2925112,1969.0,665.0,248.0,0.644,0.42,-0.611,0.189
2925130,2233.0,3165.0,298.0,0.639,0.424,-0.613,0.188
2925148,3649.0,1715.0,-960.0,0.635,0.425,-0.618,0.185
2925167,4763.0,-87.0,-1478.0,0.63,0.428,-0.622,0.183
2925186,4317.0,365.0,-916.0,0.623,0.434,-0.624,0.183
2925204,4613.0,2797.0,-1338.0,0.616,0.44,-0.627,0.181
2925222,5185.0,2809.0,-1830.0,0.61,0.445,-0.631,0.179
2925240,5559.0,2669.0,-1904.0,0.604,0.449,-0.634,0.176
2925258,6503.0,1827.0,-2054.0,0.598,0.454,-0.637,0.174
2925275,6779.0,3137.0,-2760.0,0.592,0.46,-0.639,0.173
2925293,6987.0,4183.0,-2472.0,0.587,0.464,-0.641,0.17
2925312,7251.0,2777.0,-2232.0,0.584,0.466,-0.644,0.165
2925322,7595.0,2877.0,-2818.0,0.581,0.469,-0.646,0.161
2925339,8055.0,4967.0,-2820.0,0.577,0.471,-0.648,0.158
2925357,7183.0,2109.0,-2082.0,0.574,0.473,-0.65,0.156
2925375,8259.0,2067.0,-2714.0,0.57,0.476,-0.652,0.154
2925393,8039.0,4981.0,-3078.0,0.567,0.478,-0.653,0.152
2925412,7653.0,3721.0,-2680.0,0.565,0.478,-0.656,0.149
2925431,7925.0,2447.0,-2750.0,0.563,0.478,-0.658,0.146
2925450,8769.0,2871.0,-3436.0,0.562,0.479,-0.659,0.145
2925468,8249.0,3825.0,-2892.0,0.561,0.479,-0.66,0.145
2925476,8013.0,4285.0,-2630.0,0.561,0.477,-0.661,0.144
2925494,7653.0,3029.0,-2416.0,0.561,0.475,-0.663,0.142
2925510,8923.0,3151.0,-2758.0,0.56,0.472,-0.666,0.141
2925527,7859.0,2245.0,-2706.0,0.56,0.469,-0.668,0.14
2925544,8073.0,2889.0,-2354.0,0.56,0.466,-0.671,0.139
2925562,8147.0,3415.0,-2724.0,0.56,0.463,-0.673,0.139
2925580,8401.0,3431.0,-2756.0,0.56,0.459,-0.676,0.138
2925597,8333.0,3447.0,-2806.0,0.561,0.454,-0.678,0.138
2925616,8355.0,2365.0,-2508.0,0.563,0.449,-0.681,0.136
2925635,7733.0,1825.0,-2150.0,0.564,0.444,-0.683,0.136
2925654,7733.0,2609.0,-2252.0,0.564,0.44,-0.685,0.136
2925673,7757.0,3351.0,-2218.0,0.564,0.436,-0.688,0.135
2925692,8563.0,3675.0,-2538.0,0.565,0.43,-0.691,0.134
2925711,8013.0,2113.0,-2504.0,0.568,0.423,-0.694,0.133
2925729,8257.0,1037.0,-2176.0,0.57,0.417,-0.696,0.132
2925747,8245.0,1231.0,-2082.0,0.572,0.412,-0.697,0.133
2925766,8537.0,2663.0,-2140.0,0.574,0.409,-0.697,0.134
2925775,9111.0,3013.0,-2524.0,0.577,0.403,-0.697,0.136
2925793,8593.0,2271.0,-2110.0,0.581,0.397,-0.698,0.137
2925810,8527.0,1773.0,-1748.0,0.585,0.39,-0.698,0.139
2925829,9149.0,2235.0,-1608.0,0.588,0.383,-0.698,0.14
2925847,10045.0,2619.0,-2186.0,0.592,0.376,-0.699,0.143
2925866,10817.0,2131.0,-2134.0,0.596,0.368,-0.699,0.145
2925884,11699.0,2347.0,-1854.0,0.6,0.361,-0.698,0.148
2925902,12023.0,2383.0,-1926.0,0.604,0.355,-0.698,0.15
2925921,12947.0,2125.0,-1928.0,0.608,0.349,-0.697,0.152
2925939,13257.0,2149.0,-1698.0,0.611,0.345,-0.696,0.153
2925958,12885.0,1257.0,-1102.0,0.613,0.343,-0.695,0.153
2925966,12661.0,1423.0,-1100.0,0.613,0.346,-0.694,0.15
2925984,12511.0,2309.0,-1150.0,0.613,0.35,-0.693,0.146
2926003,12713.0,3131.0,-1662.0,0.612,0.356,-0.693,0.139
2926022,13159.0,3219.0,-2048.0,0.61,0.361,-0.693,0.131
2926041,13133.0,2323.0,-2258.0,0.61,0.367,-0.692,0.123
2926060,13733.0,2719.0,-2604.0,0.609,0.375,-0.69,0.115
2926078,12831.0,3799.0,-2362.0,0.608,0.382,-0.687,0.108
2926096,12321.0,3523.0,-2300.0,0.609,0.389,-0.684,0.1
2926115,12043.0,3635.0,-2528.0,0.609,0.397,-0.68,0.092
2926124,11121.0,3535.0,-2556.0,0.61,0.404,-0.676,0.085
2926142,10601.0,3521.0,-2090.0,0.612,0.411,-0.671,0.078
2926160,10617.0,4183.0,-2396.0,0.613,0.419,-0.666,0.071
2926177,9591.0,3673.0,-2296.0,0.614,0.425,-0.662,0.066
2926196,8619.0,3529.0,-1808.0,0.615,0.432,-0.657,0.061
2926215,7815.0,4131.0,-2026.0,0.615,0.438,-0.653,0.056
2926233,7461.0,3331.0,-2306.0,0.616,0.442,-0.65,0.052
2926252,7101.0,2081.0,-2138.0,0.616,0.446,-0.647,0.05
2926270,6919.0,3091.0,-2350.0,0.617,0.45,-0.644,0.05
2926288,6135.0,4233.0,-2374.0,0.618,0.453,-0.64,0.052
2926305,5135.0,3103.0,-1528.0,0.621,0.454,-0.637,0.054
2926323,4813.0,2871.0,-1714.0,0.622,0.454,-0.635,0.058
2926340,4231.0,2375.0,-1284.0,0.623,0.453,-0.634,0.064
2926358,3891.0,3783.0,-1426.0,0.625,0.452,-0.633,0.07
2926377,3643.0,3223.0,-1566.0,0.627,0.448,-0.632,0.077
2926386,3571.0,2955.0,-1822.0,0.63,0.444,-0.631,0.085
2926403,2253.0,1699.0,-774.0,0.634,0.438,-0.63,0.094
2926422,2119.0,1529.0,-576.0,0.636,0.434,-0.629,0.103
2926442,1907.0,1675.0,-420.0,0.639,0.43,-0.628,0.112
2926461,1765.0,2255.0,-602.0,0.641,0.426,-0.627,0.12
2926479,1775.0,609.0,-566.0,0.644,0.421,-0.625,0.127
2926498,1063.0,509.0,284.0,0.646,0.418,-0.624,0.133
2926517,817.0,821.0,592.0,0.647,0.416,-0.624,0.138
2926526,1203.0,533.0,332.0,0.648,0.414,-0.624,0.142
2926545,1737.0,867.0,-272.0,0.647,0.413,-0.624,0.145
2926563,1837.0,453.0,24.0,0.646,0.413,-0.625,0.147
2926581,2035.0,1043.0,168.0,0.644,0.414,-0.627,0.148
2926600,2807.0,725.0,2.0,0.641,0.414,-0.629,0.148
2926618,3561.0,513.0,-794.0,0.638,0.417,-0.63,0.148
2926636,4089.0,2177.0,-1188.0,0.635,0.42,-0.631,0.148
2926655,4343.0,2649.0,-1088.0,0.632,0.422,-0.633,0.147
2926673,4221.0,1125.0,-892.0,0.629,0.425,-0.635,0.145
2926691,5001.0,2113.0,-1150.0,0.625,0.429,-0.636,0.143
2926709,5399.0,4049.0,-2312.0,0.621,0.432,-0.639,0.141
2926718,5945.0,1875.0,-2160.0,0.618,0.435,-0.641,0.138
2926736,6441.0,2223.0,-2174.0,0.614,0.438,-0.642,0.137
2926754,6535.0,4001.0,-2512.0,0.61,0.443,-0.643,0.135
2926772,6909.0,4273.0,-2336.0,0.606,0.445,-0.645,0.133
2926791,7305.0,3077.0,-2734.0,0.603,0.447,-0.648,0.13
2926809,6563.0,1735.0,-2378.0,0.599,0.449,-0.651,0.128
2926827,7701.0,2963.0,-2866.0,0.593,0.453,-0.653,0.128
2926845,8125.0,5181.0,-3170.0,0.588,0.456,-0.656,0.13
2926863,7973.0,5807.0,-2538.0,0.585,0.455,-0.66,0.129
2926882,7945.0,1987.0,-2158.0,0.582,0.452,-0.665,0.125
2926900,9175.0,2765.0,-3408.0,0.577,0.452,-0.669,0.125
2926918,9465.0,3333.0,-3372.0,0.574,0.452,-0.671,0.127
2926936,8325.0,3521.0,-2858.0,0.571,0.451,-0.674,0.129
2926945,7959.0,5185.0,-2428.0,0.569,0.448,-0.677,0.13
2926963,8683.0,4137.0,-2638.0,0.568,0.443,-0.681,0.129
2926982,8375.0,3015.0,-2418.0,0.567,0.437,-0.686,0.128
2927000,8601.0,945.0,-2582.0,0.567,0.432,-0.69,0.127
2927018,9173.0,2319.0,-3076.0,0.566,0.429,-0.692,0.13
2927035,8725.0,4987.0,-2492.0,0.566,0.424,-0.694,0.133
2927053,8803.0,4357.0,-2404.0,0.568,0.417,-0.697,0.135
2927071,9287.0,2979.0,-2366.0,0.57,0.408,-0.7,0.136
2927089,10313.0,2163.0,-3100.0,0.574,0.401,-0.701,0.137
2927107,9723.0,1615.0,-2272.0,0.577,0.394,-0.701,0.14
2927125,9415.0,2235.0,-1762.0,0.581,0.389,-0.701,0.143
2927143,10349.0,3391.0,-2262.0,0.584,0.383,-0.7,0.146
2927161,11055.0,3853.0,-2970.0,0.589,0.376,-0.7,0.148
2927179,10611.0,2263.0,-1856.0,0.594,0.368,-0.699,0.15
2927197,10403.0,1369.0,-1406.0,0.598,0.362,-0.699,0.152
2927215,11087.0,1673.0,-1294.0,0.601,0.357,-0.698,0.153
2927232,11233.0,1757.0,-1640.0,0.604,0.353,-0.698,0.154
2927250,11859.0,1461.0,-1920.0,0.606,0.351,-0.697,0.154
2927267,11625.0,1763.0,-1332.0,0.608,0.35,-0.696,0.154
2927284,10993.0,1899.0,-834.0,0.609,0.35,-0.695,0.152
2927302,11065.0,1559.0,-1100.0,0.61,0.351,-0.695,0.149
2927321,11065.0,1419.0,-1278.0,0.61,0.353,-0.695,0.146
2927329,11085.0,1955.0,-1404.0,0.609,0.356,-0.695,0.142
2927346,11421.0,1935.0,-1490.0,0.608,0.359,-0.695,0.137
2927364,11709.0,1861.0,-1820.0,0.608,0.362,-0.694,0.132
2927382,12105.0,1721.0,-1962.0,0.608,0.367,-0.692,0.126
2927400,12041.0,2287.0,-2078.0,0.608,0.373,-0.69,0.12
2927419,11143.0,2045.0,-1704.0,0.609,0.38,-0.687,0.114
2927438,11331.0,2271.0,-1972.0,0.609,0.387,-0.684,0.109
2927456,11557.0,3357.0,-2302.0,0.609,0.394,-0.68,0.104
2927474,11197.0,2825.0,-2292.0,0.611,0.4,-0.676,0.098
2927493,10997.0,2229.0,-2142.0,0.612,0.407,-0.672,0.093
2927512,9997.0,2721.0,-1766.0,0.612,0.415,-0.667,0.089
2927531,9769.0,4461.0,-1736.0,0.611,0.422,-0.664,0.085
2927540,9439.0,4203.0,-1668.0,0.611,0.427,-0.661,0.081
2927557,9689.0,3905.0,-1784.0,0.611,0.432,-0.659,0.076
2927574,9241.0,3881.0,-1800.0,0.611,0.435,-0.657,0.072
2927595,9091.0,3217.0,-2022.0,0.611,0.439,-0.655,0.07
2927613,8513.0,3381.0,-1602.0,0.611,0.442,-0.653,0.068
2927631,7799.0,4909.0,-1412.0,0.612,0.444,-0.651,0.068
2927650,7395.0,4103.0,-1558.0,0.614,0.444,-0.649,0.067
2927668,7125.0,2881.0,-1660.0,0.616,0.443,-0.647,0.068
2927687,5895.0,3545.0,-1200.0,0.62,0.442,-0.645,0.07
2927705,5383.0,4561.0,-1306.0,0.624,0.439,-0.642,0.073
2927714,4011.0,3081.0,-758.0,0.629,0.434,-0.641,0.076
2927732,4051.0,2561.0,-858.0,0.633,0.429,-0.64,0.08
2927751,3279.0,2265.0,-666.0,0.637,0.424,-0.638,0.085
2927770,2935.0,3075.0,-1000.0,0.641,0.418,-0.637,0.091
2927788,2777.0,3389.0,-1304.0,0.646,0.411,-0.636,0.096
2927805,2245.0,1615.0,-1002.0,0.651,0.405,-0.634,0.102
2927823,2423.0,1683.0,-1144.0,0.656,0.399,-0.632,0.107
2927841,1737.0,1461.0,-1678.0,0.661,0.395,-0.629,0.111
2927858,1647.0,1741.0,-744.0,0.665,0.392,-0.625,0.116
2927876,1649.0,1767.0,-426.0,0.669,0.388,-0.622,0.118
2927896,1511.0,1893.0,-186.0,0.672,0.386,-0.62,0.119
2927915,1975.0,1331.0,-564.0,0.675,0.384,-0.619,0.118
2927924,2449.0,301.0,-456.0,0.676,0.383,-0.619,0.118
2927943,2415.0,1463.0,-422.0,0.675,0.385,-0.619,0.117
2927959,2839.0,2153.0,-544.0,0.673,0.387,-0.62,0.115
2927976,3559.0,1375.0,-720.0,0.671,0.389,-0.621,0.112
2927994,3933.0,1177.0,-794.0,0.668,0.393,-0.622,0.109
2928012,3895.0,1819.0,-786.0,0.664,0.399,-0.623,0.106
2928029,3857.0,3547.0,-968.0,0.659,0.405,-0.625,0.102
2928048,4487.0,3167.0,-1364.0,0.656,0.409,-0.627,0.097
2928066,5097.0,1361.0,-1478.0,0.652,0.414,-0.629,0.092
2928084,4729.0,2351.0,-1234.0,0.647,0.421,-0.63,0.088
2928103,5133.0,4179.0,-1538.0,0.642,0.428,-0.631,0.085
2928122,4899.0,3273.0,-1456.0,0.637,0.433,-0.632,0.08
2928140,6585.0,3571.0,-2216.0,0.633,0.438,-0.634,0.076
2928158,6465.0,3357.0,-2358.0,0.629,0.443,-0.635,0.074
2928176,6383.0,3825.0,-1818.0,0.624,0.448,-0.636,0.072
2928195,6247.0,4371.0,-1622.0,0.62,0.452,-0.638,0.07
2928206,6827.0,4527.0,-2030.0,0.616,0.454,-0.64,0.068
2928224,8323.0,4197.0,-2326.0,0.612,0.456,-0.643,0.067
2928242,7861.0,3777.0,-2152.0,0.608,0.457,-0.646,0.067
2928260,7743.0,4087.0,-1626.0,0.604,0.458,-0.649,0.069
2928278,8599.0,5631.0,-2288.0,0.601,0.457,-0.651,0.069
2928297,8931.0,5649.0,-2374.0,0.601,0.453,-0.655,0.068
2928316,8353.0,3549.0,-1972.0,0.602,0.448,-0.658,0.066
2928335,9521.0,2127.0,-1854.0,0.603,0.444,-0.659,0.066
2928344,9459.0,4909.0,-2438.0,0.603,0.442,-0.66,0.069
2928363,9223.0,4945.0,-2242.0,0.605,0.438,-0.661,0.071
2928381,8723.0,3597.0,-2084.0,0.608,0.433,-0.661,0.073
2928400,8947.0,3237.0,-1514.0,0.61,0.429,-0.662,0.077
2928419,7573.0,4163.0,-1014.0,0.61,0.426,-0.663,0.08
2928437,8031.0,3913.0,-1578.0,0.611,0.421,-0.666,0.082
2928454,9183.0,4159.0,-1730.0,0.611,0.415,-0.669,0.084
2928471,9131.0,4903.0,-1752.0,0.612,0.407,-0.672,0.086
2928489,8911.0,2595.0,-2094.0,0.613,0.399,-0.676,0.089
2928508,8769.0,1615.0,-1862.0,0.614,0.392,-0.679,0.093
2928526,9199.0,2907.0,-1532.0,0.614,0.387,-0.681,0.097
2928535,9153.0,4197.0,-1510.0,0.615,0.381,-0.683,0.1
2928552,9405.0,3739.0,-1990.0,0.616,0.373,-0.686,0.105
2928571,9799.0,3153.0,-1450.0,0.617,0.366,-0.688,0.11
2928589,9717.0,3491.0,-1002.0,0.617,0.359,-0.691,0.114
2928607,9961.0,1705.0,-1090.0,0.618,0.352,-0.693,0.114
2928625,10733.0,2065.0,-1408.0,0.619,0.348,-0.695,0.113
2928644,10721.0,2643.0,-1434.0,0.62,0.345,-0.696,0.113
2928662,10641.0,2193.0,-1158.0,0.621,0.343,-0.696,0.113
2928680,10185.0,2063.0,-1024.0,0.622,0.342,-0.695,0.112
2928697,10243.0,2507.0,-1224.0,0.623,0.342,-0.695,0.111
2928715,10323.0,2435.0,-1264.0,0.624,0.343,-0.694,0.109
2928733,10475.0,1927.0,-1264.0,0.624,0.344,-0.694,0.106
2928750,10707.0,2455.0,-1386.0,0.624,0.346,-0.693,0.103
2928767,10765.0,2601.0,-1582.0,0.625,0.348,-0.692,0.1
2928785,10709.0,2237.0,-1496.0,0.626,0.351,-0.69,0.097
2928804,10537.0,2059.0,-1320.0,0.626,0.355,-0.688,0.093
2928823,11095.0,2629.0,-1712.0,0.627,0.36,-0.685,0.089
2928831,11759.0,3191.0,-1994.0,0.627,0.365,-0.683,0.085
2928849,11157.0,2529.0,-1532.0,0.628,0.371,-0.679,0.081
2928867,11773.0,2155.0,-1954.0,0.629,0.378,-0.675,0.076
2928886,12335.0,3255.0,-2174.0,0.629,0.387,-0.67,0.072
2928904,11715.0,3491.0,-1832.0,0.63,0.397,-0.664,0.068
2928922,11127.0,2927.0,-1760.0,0.63,0.407,-0.659,0.064
2928940,10201.0,3815.0,-1684.0,0.629,0.417,-0.653,0.061
2928958,9689.0,5141.0,-1382.0,0.628,0.427,-0.648,0.057
2928976,9159.0,3877.0,-1138.0,0.626,0.435,-0.644,0.054
2928995,8545.0,3061.0,-1090.0,0.624,0.444,-0.641,0.05
2929014,8389.0,4709.0,-1696.0,0.621,0.452,-0.639,0.047
2929032,7763.0,5187.0,-1692.0,0.619,0.459,-0.636,0.044
2929050,8231.0,4211.0,-1918.0,0.618,0.464,-0.634,0.042
2929068,8083.0,3189.0,-2062.0,0.617,0.469,-0.63,0.043
2929076,7175.0,4479.0,-1960.0,0.617,0.476,-0.626,0.045
2929094,6513.0,5755.0,-2088.0,0.618,0.479,-0.621,0.046
2929112,6303.0,3237.0,-2138.0,0.62,0.482,-0.617,0.049
2929130,5549.0,3849.0,-2042.0,0.622,0.485,-0.612,0.054
2929148,4471.0,4953.0,-1500.0,0.623,0.488,-0.609,0.06
2929166,5207.0,4101.0,-2416.0,0.625,0.488,-0.606,0.066
2929184,4727.0,3863.0,-2458.0,0.628,0.488,-0.602,0.074
2929202,3623.0,3449.0,-1274.0,0.631,0.488,-0.598,0.082
2929221,2909.0,2937.0,-1190.0,0.633,0.487,-0.595,0.092
2929239,2511.0,2345.0,-1338.0,0.635,0.486,-0.592,0.101
2929258,1759.0,2501.0,-1176.0,0.638,0.485,-0.589,0.109
2929277,877.0,933.0,246.0,0.64,0.482,-0.586,0.118
2929295,731.0,581.0,362.0,0.642,0.481,-0.584,0.127
2929312,367.0,1161.0,468.0,0.644,0.479,-0.581,0.134
2929328,355.0,-171.0,600.0,0.646,0.478,-0.579,0.139
2929346,865.0,85.0,406.0,0.647,0.477,-0.577,0.145
2929363,1023.0,781.0,572.0,0.647,0.477,-0.576,0.149
2929382,1397.0,1357.0,560.0,0.646,0.478,-0.575,0.153
2929400,2239.0,857.0,-68.0,0.645,0.479,-0.575,0.155
2929409,2795.0,2155.0,-182.0,0.643,0.481,-0.575,0.157
2929427,3049.0,2607.0,-228.0,0.64,0.483,-0.576,0.158
2929445,4657.0,3053.0,-1698.0,0.637,0.486,-0.576,0.158
2929463,4281.0,2801.0,-1120.0,0.635,0.489,-0.577,0.158
2929481,4581.0,3745.0,-1386.0,0.632,0.492,-0.578,0.157
2929499,5035.0,3345.0,-1282.0,0.629,0.494,-0.58,0.155
2929518,5727.0,4117.0,-1758.0,0.625,0.497,-0.582,0.153
2929537,6883.0,3033.0,-1942.0,0.621,0.499,-0.585,0.151
2929555,7337.0,5789.0,-2488.0,0.618,0.501,-0.587,0.15
2929574,7239.0,4903.0,-2220.0,0.616,0.501,-0.59,0.147
2929592,7385.0,2433.0,-2310.0,0.615,0.5,-0.593,0.144
2929601,8197.0,4171.0,-1992.0,0.612,0.501,-0.595,0.143
2929619,7841.0,6269.0,-1962.0,0.609,0.5,-0.599,0.142
2929638,8497.0,5729.0,-2388.0,0.608,0.497,-0.603,0.139
2929656,8113.0,3293.0,-2148.0,0.608,0.492,-0.608,0.136
2929674,8277.0,2129.0,-1952.0,0.608,0.489,-0.612,0.134
2929692,8097.0,3033.0,-1778.0,0.606,0.488,-0.615,0.134
2929710,9001.0,5945.0,-2448.0,0.603,0.486,-0.617,0.135
2929728,8295.0,6249.0,-1978.0,0.604,0.481,-0.621,0.133
2929746,7989.0,2515.0,-1438.0,0.606,0.474,-0.625,0.13
2929765,7571.0,1357.0,-2072.0,0.607,0.47,-0.629,0.127
2929783,7981.0,2179.0,-1604.0,0.606,0.468,-0.631,0.127
2929800,7813.0,5741.0,-1704.0,0.605,0.466,-0.633,0.128
2929817,7837.0,5019.0,-1452.0,0.605,0.461,-0.637,0.127
2929835,7897.0,2733.0,-1672.0,0.607,0.454,-0.64,0.124
2929853,8305.0,1443.0,-2032.0,0.607,0.45,-0.644,0.125
2929870,8587.0,2923.0,-1722.0,0.606,0.447,-0.645,0.129
2929887,8127.0,4279.0,-1526.0,0.605,0.444,-0.647,0.133
2929905,8427.0,3951.0,-1348.0,0.605,0.44,-0.65,0.136
2929923,9691.0,2805.0,-1872.0,0.606,0.434,-0.652,0.139
2929941,10233.0,2507.0,-2170.0,0.607,0.429,-0.654,0.143
2929958,9745.0,2259.0,-1816.0,0.607,0.424,-0.655,0.149
2929976,9285.0,1845.0,-948.0,0.608,0.42,-0.656,0.156
2929993,9283.0,3143.0,-452.0,0.607,0.416,-0.657,0.163
2930011,11211.0,4239.0,-1098.0,0.607,0.41,-0.659,0.169
2930030,12395.0,3699.0,-1904.0,0.607,0.402,-0.663,0.175
2930039,13133.0,1509.0,-1364.0,0.607,0.396,-0.665,0.181
2930057,12469.0,1301.0,-404.0,0.606,0.392,-0.667,0.185
2930074,13181.0,1867.0,-1024.0,0.606,0.391,-0.667,0.187
2930091,13429.0,1297.0,-1430.0,0.606,0.393,-0.666,0.187
2930109,13221.0,2319.0,-1398.0,0.606,0.397,-0.664,0.187
2930128,13019.0,3261.0,-1442.0,0.605,0.401,-0.662,0.186
2930146,13175.0,3993.0,-1492.0,0.605,0.405,-0.66,0.185
2930164,13169.0,2391.0,-1580.0,0.605,0.409,-0.658,0.183
2930182,12635.0,943.0,-1896.0,0.604,0.414,-0.656,0.182
2930200,11675.0,2983.0,-1596.0,0.603,0.422,-0.652,0.18
2930218,11329.0,4473.0,-1468.0,0.602,0.429,-0.65,0.177
2930236,11249.0,3321.0,-1750.0,0.601,0.434,-0.649,0.172
2930255,11067.0,2861.0,-1838.0,0.6,0.439,-0.647,0.167
2930274,10969.0,1633.0,-1758.0,0.599,0.445,-0.645,0.164
2930283,10891.0,3509.0,-2372.0,0.598,0.451,-0.642,0.162
2930301,9959.0,3711.0,-1836.0,0.597,0.457,-0.639,0.161
2930320,9539.0,2917.0,-1434.0,0.597,0.462,-0.636,0.158
2930339,9557.0,3299.0,-2010.0,0.597,0.468,-0.633,0.157
2930357,8723.0,3715.0,-2090.0,0.596,0.473,-0.629,0.156
2930374,9589.0,5841.0,-2650.0,0.597,0.477,-0.626,0.155
2930391,8851.0,3257.0,-2148.0,0.599,0.478,-0.624,0.154
2930409,7779.0,1259.0,-1624.0,0.601,0.48,-0.62,0.154
2930428,7773.0,3129.0,-2192.0,0.601,0.484,-0.616,0.157
2930446,6837.0,2915.0,-2548.0,0.602,0.487,-0.612,0.161
2930464,6157.0,3031.0,-2128.0,0.604,0.488,-0.607,0.167
2930482,4335.0,2963.0,-1504.0,0.606,0.488,-0.603,0.175
2930499,4215.0,1905.0,-1350.0,0.608,0.487,-0.599,0.182
2930516,2667.0,661.0,-946.0,0.611,0.487,-0.595,0.19
2930534,2003.0,2525.0,-1272.0,0.614,0.486,-0.589,0.198
2930551,1119.0,2513.0,-1116.0,0.619,0.484,-0.583,0.206
2930569,101.0,1487.0,-1348.0,0.625,0.481,-0.577,0.215
2930587,217.0,-2235.0,-1134.0,0.632,0.478,-0.568,0.224
2930609,-1577.0,-2401.0,208.0,0.637,0.481,-0.556,0.231
2930618,-1437.0,429.0,500.0,0.643,0.484,-0.546,0.234
2930636,-1465.0,2989.0,650.0,0.645,0.488,-0.539,0.236
2930655,-811.0,4087.0,738.0,0.646,0.487,-0.538,0.235
2930674,1529.0,1991.0,958.0,0.645,0.486,-0.542,0.234
2930692,2033.0,-321.0,622.0,0.642,0.485,-0.547,0.231
2930710,3873.0,635.0,-638.0,0.639,0.486,-0.551,0.227
2930728,3781.0,2807.0,-276.0,0.635,0.489,-0.554,0.224
2930737,4149.0,2467.0,-70.0,0.631,0.491,-0.558,0.221
2930754,4623.0,2677.0,-502.0,0.626,0.494,-0.562,0.22
2930773,5445.0,3889.0,-1724.0,0.623,0.496,-0.565,0.217
2930792,5455.0,2561.0,-578.0,0.621,0.498,-0.567,0.213
2930809,5219.0,1885.0,-68.0,0.617,0.502,-0.57,0.209
2930828,6143.0,3809.0,-1172.0,0.611,0.506,-0.573,0.207
2930846,7165.0,6985.0,-3086.0,0.606,0.509,-0.576,0.204
2930864,6127.0,5399.0,-1240.0,0.607,0.507,-0.58,0.198
2930882,6567.0,1137.0,-1150.0,0.608,0.503,-0.585,0.188
2930900,6965.0,2107.0,-2106.0,0.606,0.503,-0.589,0.182
2930919,7739.0,3535.0,-2292.0,0.604,0.504,-0.591,0.179
2930938,7675.0,6549.0,-2594.0,0.602,0.504,-0.593,0.177
2930946,7153.0,7107.0,-1832.0,0.605,0.498,-0.597,0.169
2930964,8355.0,1085.0,-2062.0,0.607,0.491,-0.603,0.161
2930983,8339.0,885.0,-2294.0,0.607,0.488,-0.606,0.158
2931002,9155.0,5849.0,-2212.0,0.606,0.488,-0.608,0.158
2931021,8517.0,6305.0,-2372.0,0.606,0.485,-0.611,0.156
2931039,8219.0,4317.0,-1552.0,0.608,0.479,-0.615,0.151
2931057,7989.0,1839.0,-1610.0,0.61,0.473,-0.619,0.146
2931075,8291.0,2761.0,-1794.0,0.609,0.47,-0.622,0.145
2931093,7975.0,4743.0,-1468.0,0.608,0.467,-0.625,0.144
2931111,7461.0,2763.0,-1230.0,0.607,0.463,-0.63,0.143
2931130,7629.0,2635.0,-1214.0,0.606,0.459,-0.634,0.142
2931140,8235.0,3791.0,-1818.0,0.604,0.454,-0.64,0.14
2931157,9385.0,4699.0,-2274.0,0.603,0.447,-0.645,0.14
2931174,8903.0,2329.0,-2210.0,0.603,0.439,-0.651,0.14
2931192,9031.0,1107.0,-1680.0,0.603,0.432,-0.655,0.142
2931211,9223.0,2835.0,-1232.0,0.603,0.427,-0.658,0.144
2931229,10269.0,3977.0,-2042.0,0.603,0.421,-0.662,0.147
2931247,10129.0,2629.0,-2456.0,0.604,0.413,-0.665,0.15
2931264,9571.0,1867.0,-1454.0,0.605,0.406,-0.667,0.154
2931282,9213.0,1433.0,-1070.0,0.606,0.4,-0.669,0.158
2931299,9021.0,2225.0,-1198.0,0.607,0.394,-0.67,0.162
2931316,9555.0,2457.0,-1514.0,0.609,0.388,-0.672,0.165
2931334,9361.0,2039.0,-1368.0,0.61,0.382,-0.674,0.169
2931352,9425.0,1305.0,-1252.0,0.612,0.376,-0.674,0.172
2931369,9547.0,1069.0,-1182.0,0.613,0.371,-0.675,0.176
2931387,9523.0,1095.0,-1306.0,0.615,0.368,-0.675,0.179
2931404,9577.0,1563.0,-1070.0,0.616,0.365,-0.674,0.181
2931423,9621.0,1615.0,-1130.0,0.618,0.364,-0.673,0.182
2931441,9579.0,1539.0,-1096.0,0.619,0.363,-0.672,0.183
2931459,9827.0,1617.0,-840.0,0.62,0.363,-0.671,0.183
2931477,10289.0,1379.0,-800.0,0.621,0.364,-0.67,0.182
2931495,10767.0,1463.0,-992.0,0.621,0.365,-0.669,0.181
2931512,11139.0,2011.0,-1074.0,0.621,0.367,-0.669,0.179
2931531,11381.0,2045.0,-1270.0,0.621,0.369,-0.668,0.177
2931550,11845.0,1651.0,-1260.0,0.621,0.371,-0.668,0.175
2931559,12467.0,1591.0,-1558.0,0.621,0.375,-0.666,0.172
2931577,13545.0,1321.0,-1620.0,0.621,0.381,-0.664,0.168
2931596,13605.0,1867.0,-1008.0,0.62,0.389,-0.661,0.164
2931614,13477.0,2381.0,-1214.0,0.62,0.397,-0.658,0.159
2931633,14031.0,2561.0,-1490.0,0.619,0.406,-0.655,0.152
2931652,14283.0,3681.0,-2138.0,0.618,0.415,-0.651,0.146
2931670,13531.0,3573.0,-1790.0,0.618,0.423,-0.648,0.139
2931688,13571.0,2133.0,-1572.0,0.618,0.431,-0.644,0.133
2931706,11987.0,2783.0,-1604.0,0.617,0.44,-0.639,0.128
2931723,10507.0,3965.0,-1296.0,0.616,0.449,-0.635,0.123
2931741,10261.0,4127.0,-1468.0,0.615,0.456,-0.632,0.119
2931758,9797.0,4631.0,-1584.0,0.613,0.463,-0.63,0.116
2931776,9109.0,4327.0,-1814.0,0.611,0.468,-0.628,0.114
2931794,8737.0,3951.0,-1614.0,0.609,0.473,-0.626,0.113
2931803,8103.0,4485.0,-1170.0,0.608,0.477,-0.625,0.112
2931821,8799.0,2819.0,-1956.0,0.606,0.48,-0.624,0.112
2931840,8237.0,2981.0,-2490.0,0.605,0.484,-0.622,0.115
2931857,8143.0,4919.0,-2266.0,0.604,0.488,-0.619,0.119
2931875,7469.0,4147.0,-2104.0,0.605,0.49,-0.616,0.125
2931893,6661.0,3479.0,-1888.0,0.606,0.491,-0.612,0.133
2931912,5801.0,1901.0,-1384.0,0.606,0.492,-0.608,0.143
2931930,5371.0,3641.0,-2110.0,0.606,0.494,-0.604,0.155
2931948,4113.0,5039.0,-1476.0,0.608,0.495,-0.599,0.166
2931966,2687.0,2475.0,-572.0,0.611,0.492,-0.595,0.177
2931984,2383.0,1239.0,-136.0,0.613,0.491,-0.59,0.19
2932002,895.0,1717.0,-904.0,0.615,0.491,-0.583,0.204
2932021,543.0,3527.0,-848.0,0.619,0.489,-0.576,0.217
2932030,-339.0,1607.0,-162.0,0.624,0.486,-0.568,0.226
2932047,-1485.0,-255.0,502.0,0.63,0.483,-0.562,0.234
2932065,-1529.0,-359.0,562.0,0.633,0.483,-0.555,0.243
2932084,-1151.0,1783.0,296.0,0.634,0.483,-0.55,0.249
2932103,-727.0,1119.0,-38.0,0.636,0.482,-0.547,0.252
2932122,-709.0,-343.0,584.0,0.637,0.481,-0.547,0.252
2932140,-119.0,1057.0,2.0,0.636,0.481,-0.548,0.25
2932157,1007.0,-359.0,-346.0,0.633,0.482,-0.552,0.248
2932175,1929.0,283.0,-1122.0,0.628,0.485,-0.556,0.247
2932193,2071.0,1583.0,-844.0,0.621,0.488,-0.562,0.246
2932211,3231.0,2225.0,-1182.0,0.614,0.491,-0.568,0.244
2932229,3777.0,1083.0,-1256.0,0.606,0.494,-0.575,0.241
2932248,4171.0,1591.0,-1410.0,0.597,0.497,-0.583,0.236
2932266,4939.0,3825.0,-2214.0,0.589,0.501,-0.591,0.23
2932274,5455.0,4177.0,-2554.0,0.582,0.502,-0.599,0.222
2932290,6761.0,2283.0,-2778.0,0.576,0.503,-0.608,0.214
2932307,6841.0,2335.0,-3076.0,0.569,0.504,-0.615,0.208
2932324,7555.0,3163.0,-3424.0,0.564,0.506,-0.62,0.202
2932342,7023.0,5901.0,-2884.0,0.561,0.506,-0.625,0.196
2932360,7865.0,4263.0,-2782.0,0.56,0.503,-0.631,0.186
2932378,8791.0,2103.0,-3780.0,0.56,0.5,-0.636,0.179
2932396,8319.0,2161.0,-3062.0,0.56,0.499,-0.638,0.173
2932415,8361.0,3069.0,-2588.0,0.56,0.499,-0.64,0.169
2932433,7641.0,5141.0,-2546.0,0.561,0.497,-0.641,0.163
2932451,8727.0,5583.0,-2806.0,0.564,0.492,-0.644,0.157
2932470,8919.0,3627.0,-3220.0,0.568,0.484,-0.648,0.152
2932489,8299.0,977.0,-2092.0,0.571,0.477,-0.651,0.149
2932507,8003.0,2191.0,-1548.0,0.574,0.472,-0.653,0.145
2932526,8745.0,4465.0,-2200.0,0.576,0.467,-0.656,0.142
2932545,8603.0,3473.0,-2396.0,0.579,0.459,-0.659,0.14
2932562,9775.0,2899.0,-2716.0,0.582,0.451,-0.662,0.14
2932581,9547.0,1725.0,-2248.0,0.585,0.443,-0.664,0.142
2932590,9067.0,2405.0,-1938.0,0.588,0.436,-0.665,0.144
2932609,9217.0,2817.0,-1408.0,0.591,0.429,-0.667,0.147
2932627,10545.0,3471.0,-1494.0,0.593,0.422,-0.669,0.15
2932644,11805.0,3569.0,-2706.0,0.596,0.413,-0.671,0.155
2932661,11267.0,2829.0,-2106.0,0.6,0.404,-0.672,0.16
2932678,10045.0,3339.0,-1018.0,0.603,0.396,-0.672,0.167
2932695,9661.0,2771.0,-942.0,0.605,0.388,-0.674,0.172
2932713,10089.0,2367.0,-1136.0,0.607,0.38,-0.676,0.176
2932730,10819.0,2561.0,-1266.0,0.608,0.373,-0.678,0.178
2932747,11047.0,1953.0,-1102.0,0.609,0.367,-0.68,0.179
2932765,11107.0,1139.0,-1342.0,0.609,0.363,-0.682,0.18
2932784,10987.0,425.0,-1362.0,0.609,0.362,-0.682,0.18
2932801,10373.0,1719.0,-972.0,0.609,0.364,-0.682,0.181
2932818,9963.0,2493.0,-1136.0,0.608,0.365,-0.681,0.181
2932836,9631.0,1947.0,-1222.0,0.608,0.366,-0.682,0.18
2932854,9077.0,1385.0,-984.0,0.607,0.367,-0.682,0.179
2932872,8809.0,1621.0,-740.0,0.606,0.369,-0.682,0.178
2932890,8595.0,1403.0,-1056.0,0.605,0.37,-0.682,0.177
2932908,8507.0,1247.0,-1152.0,0.604,0.371,-0.682,0.177
2932926,8519.0,1337.0,-1330.0,0.604,0.373,-0.682,0.176
2932944,8367.0,1213.0,-1342.0,0.603,0.375,-0.681,0.176
2932963,8055.0,1151.0,-1080.0,0.603,0.377,-0.68,0.177
2932981,7911.0,1495.0,-1016.0,0.603,0.38,-0.678,0.178
2932999,7841.0,1595.0,-1164.0,0.604,0.382,-0.677,0.179
2933017,8011.0,1237.0,-1254.0,0.604,0.384,-0.675,0.179
2933036,7715.0,1357.0,-1082.0,0.604,0.387,-0.673,0.18
2933046,7459.0,1517.0,-920.0,0.604,0.39,-0.671,0.182
2933063,7511.0,1713.0,-1020.0,0.604,0.392,-0.669,0.183
2933081,7745.0,1173.0,-1028.0,0.604,0.395,-0.667,0.184
2933100,7787.0,1561.0,-1072.0,0.604,0.398,-0.665,0.185
2933119,7881.0,1953.0,-1138.0,0.604,0.4,-0.664,0.186
2933137,7951.0,2031.0,-1270.0,0.603,0.402,-0.663,0.188
2933155,7911.0,2223.0,-1060.0,0.603,0.403,-0.661,0.189
2933173,8071.0,1715.0,-1186.0,0.603,0.404,-0.66,0.191
2933191,7951.0,1811.0,-1094.0,0.604,0.405,-0.659,0.193
2933210,8173.0,2025.0,-1080.0,0.604,0.405,-0.658,0.195
2933218,8539.0,1763.0,-1266.0,0.605,0.404,-0.657,0.197
2933236,8433.0,1665.0,-1162.0,0.606,0.404,-0.656,0.199
